trial_index,trial_image1_file,trial_image2_file,image_file,learning_outer_loop.thisRepN,learning_outer_loop.thisTrialN,learning_outer_loop.thisN,learning_outer_loop.thisIndex,learning_inner_loop.thisRepN,learning_inner_loop.thisTrialN,learning_inner_loop.thisN,learning_inner_loop.thisIndex,learning_estimation_outer_loop.thisRepN,learning_estimation_outer_loop.thisTrialN,learning_estimation_outer_loop.thisN,learning_estimation_outer_loop.thisIndex,learning_estimation_inner_loop.thisRepN,learning_estimation_inner_loop.thisTrialN,learning_estimation_inner_loop.thisN,learning_estimation_inner_loop.thisIndex,reversal_outer_loop.thisRepN,reversal_outer_loop.thisTrialN,reversal_outer_loop.thisN,reversal_outer_loop.thisIndex,reversal_inner_loop.thisRepN,reversal_inner_loop.thisTrialN,reversal_inner_loop.thisN,reversal_inner_loop.thisIndex,reversal_estimation_outer_loop.thisRepN,reversal_estimation_outer_loop.thisTrialN,reversal_estimation_outer_loop.thisN,reversal_estimation_outer_loop.thisIndex,reversal_estimation_inner_loop.thisRepN,reversal_estimation_inner_loop.thisTrialN,reversal_estimation_inner_loop.thisN,reversal_estimation_inner_loop.thisIndex,skipped,total_trial_counter,trial_num,left_right_flip,left_image_file,right_image_file,clicked_stimulus_side,side,clicked_stimulus,version,high_prob_image_file,low_prob_image_file,choice_a,choice_b,pair_type,correct,trial_feedback_random,reward,trial_type,overall_time_after_trial,score,estimation_rating.started,estimation_exp1.png,estimation_rating.response,estimation_rating.rt,estimation_rating.history,estimation_exp2.png,estimation_exp3.png,estimation_exp4.png,total_learning_time,total_correct,learning_correct,reversal_correct,total_reversal_time,extra_block,participant,date,expName,psychopyVersion,frameRate,ver,
0,exp1.png,exp2.png,,0,0,0,0,0,0,0,0,,,,,,,,,,,,,,,,,,,,,,,,,True,,,,,,,,,,,,,,,,,,,,,,,,,,,,,,,,,,,sub_828,2024-12-29_12h26.15.951,Reversal,2023.1.3,60.095503774551425,4,
1,exp3.png,exp4.png,,0,0,0,0,0,1,1,1,,,,,,,,,,,,,,,,,,,,,,,,,False,0,1,True,exp4.png,exp3.png,trial_left_image,1,exp4.png,4,exp4.png,exp3.png,1,3,reversed,correct,0.8536942556117268,1,valid_win,7.062500500000169,1,,,,,,,,,,,,,,,sub_828,2024-12-29_12h26.15.951,Reversal,2023.1.3,60.095503774551425,4,
2,exp1.png,exp2.png,,0,0,0,0,0,2,2,2,,,,,,,,,,,,,,,,,,,,,,,,,False,1,2,False,exp1.png,exp2.png,trial_right_image,-1,exp2.png,4,exp2.png,exp1.png,1,1,non-reversed,correct,0.9286318615079385,1,valid_win,11.628239900000153,2,,,,,,,,,,,,,,,sub_828,2024-12-29_12h26.15.951,Reversal,2023.1.3,60.095503774551425,4,
3,exp3.png,exp4.png,,0,0,0,0,0,3,3,3,,,,,,,,,,,,,,,,,,,,,,,,,False,2,3,True,exp4.png,exp3.png,trial_right_image,-1,exp3.png,4,exp4.png,exp3.png,0,4,reversed,incorrect,0.024873221794479927,1,invalid_win,16.24338220000027,3,,,,,,,,,,,,,,,sub_828,2024-12-29_12h26.15.951,Reversal,2023.1.3,60.095503774551425,4,
4,exp1.png,exp2.png,,0,0,0,0,0,4,4,4,,,,,,,,,,,,,,,,,,,,,,,,,False,3,4,False,exp1.png,exp2.png,trial_right_image,-1,exp2.png,4,exp2.png,exp1.png,1,1,non-reversed,correct,0.9529297932112307,1,valid_win,20.558207300000504,4,,,,,,,,,,,,,,,sub_828,2024-12-29_12h26.15.951,Reversal,2023.1.3,60.095503774551425,4,
5,exp3.png,exp4.png,,0,0,0,0,0,5,5,5,,,,,,,,,,,,,,,,,,,,,,,,,False,4,5,False,exp3.png,exp4.png,trial_right_image,-1,exp4.png,4,exp4.png,exp3.png,1,3,reversed,correct,0.1871857189028564,0,invalid_lose,24.806762000000163,4,,,,,,,,,,,,,,,sub_828,2024-12-29_12h26.15.951,Reversal,2023.1.3,60.095503774551425,4,
6,exp1.png,exp2.png,,0,0,0,0,0,6,6,6,,,,,,,,,,,,,,,,,,,,,,,,,False,5,6,True,exp2.png,exp1.png,trial_right_image,-1,exp1.png,4,exp2.png,exp1.png,0,2,non-reversed,incorrect,0.30571219177214115,0,valid_lose,29.7716190000001,4,,,,,,,,,,,,,,,sub_828,2024-12-29_12h26.15.951,Reversal,2023.1.3,60.095503774551425,4,
7,exp3.png,exp4.png,,0,0,0,0,0,7,7,7,,,,,,,,,,,,,,,,,,,,,,,,,False,6,7,True,exp4.png,exp3.png,trial_right_image,-1,exp3.png,4,exp4.png,exp3.png,0,4,reversed,incorrect,0.9448512309208598,0,valid_lose,37.21913720000066,4,,,,,,,,,,,,,,,sub_828,2024-12-29_12h26.15.951,Reversal,2023.1.3,60.095503774551425,4,
8,exp1.png,exp2.png,,0,0,0,0,0,8,8,8,,,,,,,,,,,,,,,,,,,,,,,,,False,7,8,True,exp2.png,exp1.png,trial_left_image,1,exp2.png,4,exp2.png,exp1.png,1,1,non-reversed,correct,0.2804504834531668,1,valid_win,42.11757570000009,5,,,,,,,,,,,,,,,sub_828,2024-12-29_12h26.15.951,Reversal,2023.1.3,60.095503774551425,4,
9,exp3.png,exp4.png,,0,0,0,0,0,9,9,9,,,,,,,,,,,,,,,,,,,,,,,,,False,8,9,False,exp3.png,exp4.png,trial_right_image,-1,exp4.png,4,exp4.png,exp3.png,1,3,reversed,correct,0.5673314435752289,1,valid_win,46.349589899999955,6,,,,,,,,,,,,,,,sub_828,2024-12-29_12h26.15.951,Reversal,2023.1.3,60.095503774551425,4,
10,exp1.png,exp2.png,,0,0,0,0,0,10,10,10,,,,,,,,,,,,,,,,,,,,,,,,,False,9,10,False,exp1.png,exp2.png,trial_right_image,-1,exp2.png,4,exp2.png,exp1.png,1,1,non-reversed,correct,0.8480193700401748,1,valid_win,50.48236960000031,7,,,,,,,,,,,,,,,sub_828,2024-12-29_12h26.15.951,Reversal,2023.1.3,60.095503774551425,4,
11,exp3.png,exp4.png,,0,0,0,0,0,11,11,11,,,,,,,,,,,,,,,,,,,,,,,,,False,10,11,True,exp4.png,exp3.png,trial_left_image,1,exp4.png,4,exp4.png,exp3.png,1,3,reversed,correct,0.6040040895221279,1,valid_win,54.44669780000004,8,,,,,,,,,,,,,,,sub_828,2024-12-29_12h26.15.951,Reversal,2023.1.3,60.095503774551425,4,
12,exp1.png,exp2.png,,0,0,0,0,0,12,12,12,,,,,,,,,,,,,,,,,,,,,,,,,False,11,12,False,exp1.png,exp2.png,trial_right_image,-1,exp2.png,4,exp2.png,exp1.png,1,1,non-reversed,correct,0.42582117355354376,1,valid_win,58.345241900000474,9,,,,,,,,,,,,,,,sub_828,2024-12-29_12h26.15.951,Reversal,2023.1.3,60.095503774551425,4,
13,exp3.png,exp4.png,,0,0,0,0,0,13,13,13,,,,,,,,,,,,,,,,,,,,,,,,,False,12,13,True,exp4.png,exp3.png,trial_left_image,1,exp4.png,4,exp4.png,exp3.png,1,3,reversed,correct,0.06269704806451715,0,invalid_lose,62.5271929999999,9,,,,,,,,,,,,,,,sub_828,2024-12-29_12h26.15.951,Reversal,2023.1.3,60.095503774551425,4,
14,exp1.png,exp2.png,,0,0,0,0,0,14,14,14,,,,,,,,,,,,,,,,,,,,,,,,,False,13,14,True,exp2.png,exp1.png,trial_left_image,1,exp2.png,4,exp2.png,exp1.png,1,1,non-reversed,correct,0.8469614925455667,1,valid_win,67.04265130000022,10,,,,,,,,,,,,,,,sub_828,2024-12-29_12h26.15.951,Reversal,2023.1.3,60.095503774551425,4,
15,exp3.png,exp4.png,,0,0,0,0,0,15,15,15,,,,,,,,,,,,,,,,,,,,,,,,,False,14,15,False,exp3.png,exp4.png,trial_right_image,-1,exp4.png,4,exp4.png,exp3.png,1,3,reversed,correct,0.39458637679968445,1,valid_win,71.44115260000035,11,,,,,,,,,,,,,,,sub_828,2024-12-29_12h26.15.951,Reversal,2023.1.3,60.095503774551425,4,
16,exp1.png,exp2.png,,0,0,0,0,0,16,16,16,,,,,,,,,,,,,,,,,,,,,,,,,False,15,16,True,exp2.png,exp1.png,trial_left_image,1,exp2.png,4,exp2.png,exp1.png,1,1,non-reversed,correct,0.9772433790566438,1,valid_win,75.42295700000068,12,,,,,,,,,,,,,,,sub_828,2024-12-29_12h26.15.951,Reversal,2023.1.3,60.095503774551425,4,
17,exp3.png,exp4.png,,0,0,0,0,0,17,17,17,,,,,,,,,,,,,,,,,,,,,,,,,False,16,17,False,exp3.png,exp4.png,trial_right_image,-1,exp4.png,4,exp4.png,exp3.png,1,3,reversed,correct,0.9118500300997835,1,valid_win,79.40584790000048,13,,,,,,,,,,,,,,,sub_828,2024-12-29_12h26.15.951,Reversal,2023.1.3,60.095503774551425,4,
18,exp1.png,exp2.png,,0,0,0,0,0,18,18,18,,,,,,,,,,,,,,,,,,,,,,,,,False,17,18,True,exp2.png,exp1.png,trial_left_image,1,exp2.png,4,exp2.png,exp1.png,1,1,non-reversed,correct,0.692213430296098,1,valid_win,83.33743680000043,14,,,,,,,,,,,,,,,sub_828,2024-12-29_12h26.15.951,Reversal,2023.1.3,60.095503774551425,4,
19,exp3.png,exp4.png,,0,0,0,0,0,19,19,19,,,,,,,,,,,,,,,,,,,,,,,,,False,18,19,False,exp3.png,exp4.png,trial_right_image,-1,exp4.png,4,exp4.png,exp3.png,1,3,reversed,correct,0.33406335898150674,1,valid_win,87.25232320000032,15,,,,,,,,,,,,,,,sub_828,2024-12-29_12h26.15.951,Reversal,2023.1.3,60.095503774551425,4,
20,exp1.png,exp2.png,,0,0,0,0,0,20,20,20,,,,,,,,,,,,,,,,,,,,,,,,,False,19,20,False,exp1.png,exp2.png,trial_right_image,-1,exp2.png,4,exp2.png,exp1.png,1,1,non-reversed,correct,0.3832192282086041,1,valid_win,91.13423109999985,16,,,,,,,,,,,,,,,sub_828,2024-12-29_12h26.15.951,Reversal,2023.1.3,60.095503774551425,4,
,,,exp1.png,0,0,0,0,,,,,0,0,0,0,0,0,0,0,,,,,,,,,,,,,,,,,,,,,,,,,,,,,,,,,,,,,,184.45719149999968,24.0,24.0,14.313468499999544,"[(24.0, 14.313468499999544)]",,,,,,,,,,sub_828,2024-12-29_12h26.15.951,Reversal,2023.1.3,60.095503774551425,4,
,,,exp2.png,0,0,0,0,,,,,0,0,0,0,0,1,1,1,,,,,,,,,,,,,,,,,,,,,,,,,,,,,,,,,,,,,,199.47016900000017,,93.0,4.541180899999745,"[(93.0, 4.541180899999745)]",93.0,,,,,,,,,sub_828,2024-12-29_12h26.15.951,Reversal,2023.1.3,60.095503774551425,4,
,,,exp3.png,0,0,0,0,,,,,0,0,0,0,0,2,2,2,,,,,,,,,,,,,,,,,,,,,,,,,,,,,,,,,,,,,,204.96524729999965,,17.0,2.976926100000128,"[(17.0, 2.976926100000128)]",,17.0,,,,,,,,sub_828,2024-12-29_12h26.15.951,Reversal,2023.1.3,60.095503774551425,4,
,,,exp4.png,0,0,0,0,,,,,0,0,0,0,0,3,3,3,,,,,,,,,,,,,,,,,,,,,,,,,,,,,,,,,,,,,,209.16375640000024,,100.0,1.9779259000006277,"[(100.0, 1.9779259000006277)]",,,100.0,,,,,,,sub_828,2024-12-29_12h26.15.951,Reversal,2023.1.3,60.095503774551425,4,
0,exp1.png,exp2.png,,1,0,1,0,0,0,0,0,,,,,,,,,,,,,,,,,,,,,,,,,True,,,,,,,,,,,,,,,,,,,,,,,,,,,,,,,,,,,sub_828,2024-12-29_12h26.15.951,Reversal,2023.1.3,60.095503774551425,4,
1,exp3.png,exp4.png,,1,0,1,0,0,1,1,1,,,,,,,,,,,,,,,,,,,,,,,,,False,20,21,True,exp4.png,exp3.png,trial_right_image,-1,exp3.png,4,exp4.png,exp3.png,0,4,reversed,incorrect,0.9544213898400338,0,valid_lose,123.2070217999999,16,,,,,,,,,,,,,,,sub_828,2024-12-29_12h26.15.951,Reversal,2023.1.3,60.095503774551425,4,
2,exp1.png,exp2.png,,1,0,1,0,0,2,2,2,,,,,,,,,,,,,,,,,,,,,,,,,False,21,22,True,exp2.png,exp1.png,trial_left_image,1,exp2.png,4,exp2.png,exp1.png,1,1,non-reversed,correct,0.04886332740139698,0,invalid_lose,127.65554060000068,16,,,,,,,,,,,,,,,sub_828,2024-12-29_12h26.15.951,Reversal,2023.1.3,60.095503774551425,4,
3,exp3.png,exp4.png,,1,0,1,0,0,3,3,3,,,,,,,,,,,,,,,,,,,,,,,,,False,22,23,False,exp3.png,exp4.png,trial_left_image,1,exp3.png,4,exp4.png,exp3.png,0,4,reversed,incorrect,0.28235104809655187,0,valid_lose,132.30352680000033,16,,,,,,,,,,,,,,,sub_828,2024-12-29_12h26.15.951,Reversal,2023.1.3,60.095503774551425,4,
4,exp1.png,exp2.png,,1,0,1,0,0,4,4,4,,,,,,,,,,,,,,,,,,,,,,,,,False,23,24,True,exp2.png,exp1.png,trial_left_image,1,exp2.png,4,exp2.png,exp1.png,1,1,non-reversed,correct,0.2169934387637924,0,invalid_lose,136.85253940000075,16,,,,,,,,,,,,,,,sub_828,2024-12-29_12h26.15.951,Reversal,2023.1.3,60.095503774551425,4,
5,exp3.png,exp4.png,,1,0,1,0,0,5,5,5,,,,,,,,,,,,,,,,,,,,,,,,,False,24,25,False,exp3.png,exp4.png,trial_right_image,-1,exp4.png,4,exp4.png,exp3.png,1,3,reversed,correct,0.5905907773065144,1,valid_win,141.7337404,17,,,,,,,,,,,,,,,sub_828,2024-12-29_12h26.15.951,Reversal,2023.1.3,60.095503774551425,4,
6,exp1.png,exp2.png,,1,0,1,0,0,6,6,6,,,,,,,,,,,,,,,,,,,,,,,,,False,25,26,True,exp2.png,exp1.png,trial_left_image,1,exp2.png,4,exp2.png,exp1.png,1,1,non-reversed,correct,0.3169119957022818,1,valid_win,146.16604200000074,18,,,,,,,,,,,,,,,sub_828,2024-12-29_12h26.15.951,Reversal,2023.1.3,60.095503774551425,4,
7,exp3.png,exp4.png,,1,0,1,0,0,7,7,7,,,,,,,,,,,,,,,,,,,,,,,,,False,26,27,False,exp3.png,exp4.png,trial_right_image,-1,exp4.png,4,exp4.png,exp3.png,1,3,reversed,correct,0.2767997204781182,1,valid_win,150.94726530000025,19,,,,,,,,,,,,,,,sub_828,2024-12-29_12h26.15.951,Reversal,2023.1.3,60.095503774551425,4,
8,exp1.png,exp2.png,,1,0,1,0,0,8,8,8,,,,,,,,,,,,,,,,,,,,,,,,,False,27,28,False,exp1.png,exp2.png,trial_right_image,-1,exp2.png,4,exp2.png,exp1.png,1,1,non-reversed,correct,0.3861883310176476,1,valid_win,155.47855330000039,20,,,,,,,,,,,,,,,sub_828,2024-12-29_12h26.15.951,Reversal,2023.1.3,60.095503774551425,4,
9,exp3.png,exp4.png,,1,0,1,0,0,9,9,9,,,,,,,,,,,,,,,,,,,,,,,,,False,28,29,False,exp3.png,exp4.png,trial_right_image,-1,exp4.png,4,exp4.png,exp3.png,1,3,reversed,correct,0.13182197449757638,0,invalid_lose,159.51081090000025,20,,,,,,,,,,,,,,,sub_828,2024-12-29_12h26.15.951,Reversal,2023.1.3,60.095503774551425,4,
10,exp1.png,exp2.png,,1,0,1,0,0,10,10,10,,,,,,,,,,,,,,,,,,,,,,,,,False,29,30,False,exp1.png,exp2.png,trial_right_image,-1,exp2.png,4,exp2.png,exp1.png,1,1,non-reversed,correct,0.8815403366336187,1,valid_win,163.9095838000003,21,,,,,,,,,,,,,,,sub_828,2024-12-29_12h26.15.951,Reversal,2023.1.3,60.095503774551425,4,
11,exp3.png,exp4.png,,1,0,1,0,0,11,11,11,,,,,,,,,,,,,,,,,,,,,,,,,False,30,31,True,exp4.png,exp3.png,trial_left_image,1,exp4.png,4,exp4.png,exp3.png,1,3,reversed,correct,0.505663532237861,1,valid_win,168.2079345000002,22,,,,,,,,,,,,,,,sub_828,2024-12-29_12h26.15.951,Reversal,2023.1.3,60.095503774551425,4,
12,exp1.png,exp2.png,,1,0,1,0,0,12,12,12,,,,,,,,,,,,,,,,,,,,,,,,,False,31,32,True,exp2.png,exp1.png,trial_left_image,1,exp2.png,4,exp2.png,exp1.png,1,1,non-reversed,correct,0.6010913187442265,1,valid_win,172.6902398000002,23,,,,,,,,,,,,,,,sub_828,2024-12-29_12h26.15.951,Reversal,2023.1.3,60.095503774551425,4,
13,exp3.png,exp4.png,,1,0,1,0,0,13,13,13,,,,,,,,,,,,,,,,,,,,,,,,,False,32,33,False,exp3.png,exp4.png,trial_right_image,-1,exp4.png,4,exp4.png,exp3.png,1,3,reversed,correct,0.9883268606010672,1,valid_win,177.0049985000005,24,,,,,,,,,,,,,,,sub_828,2024-12-29_12h26.15.951,Reversal,2023.1.3,60.095503774551425,4,
14,exp1.png,exp2.png,,1,0,1,0,0,14,14,14,,,,,,,,,,,,,,,,,,,,,,,,,False,33,34,True,exp2.png,exp1.png,trial_left_image,1,exp2.png,4,exp2.png,exp1.png,1,1,non-reversed,correct,0.15837164461940034,0,invalid_lose,181.15344330000062,24,,,,,,,,,,,,,,,sub_828,2024-12-29_12h26.15.951,Reversal,2023.1.3,60.095503774551425,4,
15,exp3.png,exp4.png,,1,0,1,0,0,15,15,15,,,,,,,,,,,,,,,,,,,,,,,,,False,34,35,True,exp4.png,exp3.png,trial_left_image,1,exp4.png,4,exp4.png,exp3.png,1,3,reversed,correct,0.5973469667270925,1,valid_win,185.76874250000037,25,,,,,,,,,,,,,,,sub_828,2024-12-29_12h26.15.951,Reversal,2023.1.3,60.095503774551425,4,
16,exp1.png,exp2.png,,1,0,1,0,0,16,16,16,,,,,,,,,,,,,,,,,,,,,,,,,False,35,36,False,exp1.png,exp2.png,trial_right_image,-1,exp2.png,4,exp2.png,exp1.png,1,1,non-reversed,correct,0.3127536727745098,1,valid_win,189.65089820000048,26,,,,,,,,,,,,,,,sub_828,2024-12-29_12h26.15.951,Reversal,2023.1.3,60.095503774551425,4,
17,exp3.png,exp4.png,,1,0,1,0,0,17,17,17,,,,,,,,,,,,,,,,,,,,,,,,,False,36,37,False,exp3.png,exp4.png,trial_right_image,-1,exp4.png,4,exp4.png,exp3.png,1,3,reversed,correct,0.7454801798826998,1,valid_win,193.8323694999999,27,,,,,,,,,,,,,,,sub_828,2024-12-29_12h26.15.951,Reversal,2023.1.3,60.095503774551425,4,
18,exp1.png,exp2.png,,1,0,1,0,0,18,18,18,,,,,,,,,,,,,,,,,,,,,,,,,False,37,38,True,exp2.png,exp1.png,trial_left_image,1,exp2.png,4,exp2.png,exp1.png,1,1,non-reversed,correct,0.997557812045679,1,valid_win,197.84806310000022,28,,,,,,,,,,,,,,,sub_828,2024-12-29_12h26.15.951,Reversal,2023.1.3,60.095503774551425,4,
19,exp3.png,exp4.png,,1,0,1,0,0,19,19,19,,,,,,,,,,,,,,,,,,,,,,,,,False,38,39,True,exp4.png,exp3.png,trial_left_image,1,exp4.png,4,exp4.png,exp3.png,1,3,reversed,correct,0.2700414091062956,1,valid_win,201.93050790000052,29,,,,,,,,,,,,,,,sub_828,2024-12-29_12h26.15.951,Reversal,2023.1.3,60.095503774551425,4,
20,exp1.png,exp2.png,,1,0,1,0,0,20,20,20,,,,,,,,,,,,,,,,,,,,,,,,,False,39,40,False,exp1.png,exp2.png,trial_right_image,-1,exp2.png,4,exp2.png,exp1.png,1,1,non-reversed,correct,0.33391580610328764,1,valid_win,205.82856130000073,30,,,,,,,,,,,,,,,sub_828,2024-12-29_12h26.15.951,Reversal,2023.1.3,60.095503774551425,4,
,,,exp1.png,1,0,1,0,,,,,0,0,0,0,0,0,0,0,,,,,,,,,,,,,,,,,,,,,,,,,,,,,,,,,,,,,,299.1578096000003,24.0,24.0,3.0193153000000166,"[(24.0, 3.0193153000000166)]",,,,,,,,,,sub_828,2024-12-29_12h26.15.951,Reversal,2023.1.3,60.095503774551425,4,
,,,exp2.png,1,0,1,0,,,,,0,0,0,0,0,1,1,1,,,,,,,,,,,,,,,,,,,,,,,,,,,,,,,,,,,,,,304.13085799999953,,92.0,2.0942645999994056,"[(92.0, 2.0942645999994056)]",92.0,,,,,,,,,sub_828,2024-12-29_12h26.15.951,Reversal,2023.1.3,60.095503774551425,4,
,,,exp3.png,1,0,1,0,,,,,0,0,0,0,0,2,2,2,,,,,,,,,,,,,,,,,,,,,,,,,,,,,,,,,,,,,,310.16354390000015,,28.0,2.643482300000869,"[(28.0, 2.643482300000869)]",,28.0,,,,,,,,sub_828,2024-12-29_12h26.15.951,Reversal,2023.1.3,60.095503774551425,4,
,,,exp4.png,1,0,1,0,,,,,0,0,0,0,0,3,3,3,,,,,,,,,,,,,,,,,,,,,,,,,,,,,,,,,,,,,,313.4454384999999,,93.0,2.226147299999866,"[(93.0, 2.226147299999866)]",,,93.0,,,,,,,sub_828,2024-12-29_12h26.15.951,Reversal,2023.1.3,60.095503774551425,4,
0,exp1.png,exp2.png,,2,0,2,0,0,0,0,0,,,,,,,,,,,,,,,,,,,,,,,,,True,,,,,,,,,,,,,,,,,,,,,,,,,,,,,,,,,,,sub_828,2024-12-29_12h26.15.951,Reversal,2023.1.3,60.095503774551425,4,
1,exp3.png,exp4.png,,2,0,2,0,0,1,1,1,,,,,,,,,,,,,,,,,,,,,,,,,False,40,41,False,exp3.png,exp4.png,trial_right_image,-1,exp4.png,4,exp4.png,exp3.png,1,3,reversed,correct,0.6435615511446114,1,valid_win,227.5880803,31,,,,,,,,,,,,,,,sub_828,2024-12-29_12h26.15.951,Reversal,2023.1.3,60.095503774551425,4,
2,exp1.png,exp2.png,,2,0,2,0,0,2,2,2,,,,,,,,,,,,,,,,,,,,,,,,,False,41,42,True,exp2.png,exp1.png,trial_left_image,1,exp2.png,4,exp2.png,exp1.png,1,1,non-reversed,correct,0.5331083235890579,1,valid_win,231.75351600000067,32,,,,,,,,,,,,,,,sub_828,2024-12-29_12h26.15.951,Reversal,2023.1.3,60.095503774551425,4,
3,exp3.png,exp4.png,,2,0,2,0,0,3,3,3,,,,,,,,,,,,,,,,,,,,,,,,,False,42,43,True,exp4.png,exp3.png,trial_left_image,1,exp4.png,4,exp4.png,exp3.png,1,3,reversed,correct,0.1490364656868628,0,invalid_lose,235.95154700000057,32,,,,,,,,,,,,,,,sub_828,2024-12-29_12h26.15.951,Reversal,2023.1.3,60.095503774551425,4,
4,exp1.png,exp2.png,,2,0,2,0,0,4,4,4,,,,,,,,,,,,,,,,,,,,,,,,,False,43,44,False,exp1.png,exp2.png,trial_right_image,-1,exp2.png,4,exp2.png,exp1.png,1,1,non-reversed,correct,1.2811662556622139e-05,0,invalid_lose,240.26702260000002,32,,,,,,,,,,,,,,,sub_828,2024-12-29_12h26.15.951,Reversal,2023.1.3,60.095503774551425,4,
5,exp3.png,exp4.png,,2,0,2,0,0,5,5,5,,,,,,,,,,,,,,,,,,,,,,,,,False,44,45,True,exp4.png,exp3.png,trial_right_image,-1,exp3.png,4,exp4.png,exp3.png,0,4,reversed,incorrect,0.881832545440244,0,valid_lose,244.81510609999987,32,,,,,,,,,,,,,,,sub_828,2024-12-29_12h26.15.951,Reversal,2023.1.3,60.095503774551425,4,
6,exp1.png,exp2.png,,2,0,2,0,0,6,6,6,,,,,,,,,,,,,,,,,,,,,,,,,False,45,46,True,exp2.png,exp1.png,trial_left_image,1,exp2.png,4,exp2.png,exp1.png,1,1,non-reversed,correct,0.7359999436387912,1,valid_win,249.06390450000072,33,,,,,,,,,,,,,,,sub_828,2024-12-29_12h26.15.951,Reversal,2023.1.3,60.095503774551425,4,
7,exp3.png,exp4.png,,2,0,2,0,0,7,7,7,,,,,,,,,,,,,,,,,,,,,,,,,False,46,47,True,exp4.png,exp3.png,trial_left_image,1,exp4.png,4,exp4.png,exp3.png,1,3,reversed,correct,0.19797625620663306,0,invalid_lose,253.31239860000005,33,,,,,,,,,,,,,,,sub_828,2024-12-29_12h26.15.951,Reversal,2023.1.3,60.095503774551425,4,
8,exp1.png,exp2.png,,2,0,2,0,0,8,8,8,,,,,,,,,,,,,,,,,,,,,,,,,False,47,48,False,exp1.png,exp2.png,trial_right_image,-1,exp2.png,4,exp2.png,exp1.png,1,1,non-reversed,correct,0.5681266739837375,1,valid_win,257.6109940000006,34,,,,,,,,,,,,,,,sub_828,2024-12-29_12h26.15.951,Reversal,2023.1.3,60.095503774551425,4,
9,exp3.png,exp4.png,,2,0,2,0,0,9,9,9,,,,,,,,,,,,,,,,,,,,,,,,,False,48,49,False,exp3.png,exp4.png,trial_right_image,-1,exp4.png,4,exp4.png,exp3.png,1,3,reversed,correct,0.6979029492656557,1,valid_win,261.62663500000053,35,,,,,,,,,,,,,,,sub_828,2024-12-29_12h26.15.951,Reversal,2023.1.3,60.095503774551425,4,
10,exp1.png,exp2.png,,2,0,2,0,0,10,10,10,,,,,,,,,,,,,,,,,,,,,,,,,False,49,50,False,exp1.png,exp2.png,trial_right_image,-1,exp2.png,4,exp2.png,exp1.png,1,1,non-reversed,correct,0.7297011753341757,1,valid_win,266.20799520000037,36,,,,,,,,,,,,,,,sub_828,2024-12-29_12h26.15.951,Reversal,2023.1.3,60.095503774551425,4,
11,exp3.png,exp4.png,,2,0,2,0,0,11,11,11,,,,,,,,,,,,,,,,,,,,,,,,,False,50,51,True,exp4.png,exp3.png,trial_left_image,1,exp4.png,4,exp4.png,exp3.png,1,3,reversed,correct,0.9148820380214836,1,valid_win,270.2399677000003,37,,,,,,,,,,,,,,,sub_828,2024-12-29_12h26.15.951,Reversal,2023.1.3,60.095503774551425,4,
12,exp1.png,exp2.png,,2,0,2,0,0,12,12,12,,,,,,,,,,,,,,,,,,,,,,,,,False,51,52,True,exp2.png,exp1.png,trial_left_image,1,exp2.png,4,exp2.png,exp1.png,1,1,non-reversed,correct,0.6407093988111522,1,valid_win,275.25493150000057,38,,,,,,,,,,,,,,,sub_828,2024-12-29_12h26.15.951,Reversal,2023.1.3,60.095503774551425,4,
13,exp3.png,exp4.png,,2,0,2,0,0,13,13,13,,,,,,,,,,,,,,,,,,,,,,,,,False,52,53,False,exp3.png,exp4.png,trial_right_image,-1,exp4.png,4,exp4.png,exp3.png,1,3,reversed,correct,0.13008809080865247,0,invalid_lose,279.4211056000004,38,,,,,,,,,,,,,,,sub_828,2024-12-29_12h26.15.951,Reversal,2023.1.3,60.095503774551425,4,
14,exp1.png,exp2.png,,2,0,2,0,0,14,14,14,,,,,,,,,,,,,,,,,,,,,,,,,False,53,54,True,exp2.png,exp1.png,trial_left_image,1,exp2.png,4,exp2.png,exp1.png,1,1,non-reversed,correct,0.36355954630094844,1,valid_win,283.7690382999999,39,,,,,,,,,,,,,,,sub_828,2024-12-29_12h26.15.951,Reversal,2023.1.3,60.095503774551425,4,
15,exp3.png,exp4.png,,2,0,2,0,0,15,15,15,,,,,,,,,,,,,,,,,,,,,,,,,False,54,55,False,exp3.png,exp4.png,trial_left_image,1,exp3.png,4,exp4.png,exp3.png,0,4,reversed,incorrect,0.23795947700575104,1,invalid_win,288.4337808,40,,,,,,,,,,,,,,,sub_828,2024-12-29_12h26.15.951,Reversal,2023.1.3,60.095503774551425,4,
16,exp1.png,exp2.png,,2,0,2,0,0,16,16,16,,,,,,,,,,,,,,,,,,,,,,,,,False,55,56,True,exp2.png,exp1.png,trial_left_image,1,exp2.png,4,exp2.png,exp1.png,1,1,non-reversed,correct,0.789601183239646,1,valid_win,293.0990455000001,41,,,,,,,,,,,,,,,sub_828,2024-12-29_12h26.15.951,Reversal,2023.1.3,60.095503774551425,4,
17,exp3.png,exp4.png,,2,0,2,0,0,17,17,17,,,,,,,,,,,,,,,,,,,,,,,,,False,56,57,False,exp3.png,exp4.png,trial_left_image,1,exp3.png,4,exp4.png,exp3.png,0,4,reversed,incorrect,0.8938530618258875,0,valid_lose,297.64775650000047,41,,,,,,,,,,,,,,,sub_828,2024-12-29_12h26.15.951,Reversal,2023.1.3,60.095503774551425,4,
18,exp1.png,exp2.png,,2,0,2,0,0,18,18,18,,,,,,,,,,,,,,,,,,,,,,,,,False,57,58,False,exp1.png,exp2.png,trial_right_image,-1,exp2.png,4,exp2.png,exp1.png,1,1,non-reversed,correct,0.4860980656812136,1,valid_win,302.01255220000075,42,,,,,,,,,,,,,,,sub_828,2024-12-29_12h26.15.951,Reversal,2023.1.3,60.095503774551425,4,
19,exp3.png,exp4.png,,2,0,2,0,0,19,19,19,,,,,,,,,,,,,,,,,,,,,,,,,False,58,59,False,exp3.png,exp4.png,trial_right_image,-1,exp4.png,4,exp4.png,exp3.png,1,3,reversed,correct,0.6179179127581005,1,valid_win,306.31171020000056,43,,,,,,,,,,,,,,,sub_828,2024-12-29_12h26.15.951,Reversal,2023.1.3,60.095503774551425,4,
20,exp1.png,exp2.png,,2,0,2,0,0,20,20,20,,,,,,,,,,,,,,,,,,,,,,,,,False,59,60,True,exp2.png,exp1.png,trial_left_image,1,exp2.png,4,exp2.png,exp1.png,1,1,non-reversed,correct,0.6473844123016276,1,valid_win,310.57643890000054,44,,,,,,,,,,,,,,,sub_828,2024-12-29_12h26.15.951,Reversal,2023.1.3,60.095503774551425,4,
,,,exp1.png,2,0,2,0,,,,,0,0,0,0,0,0,0,0,,,,,,,,,,,,,,,,,,,,,,,,,,,,,,,,,,,,,,403.90816819999964,100.0,100.0,2.5504950999993525,"[(100.0, 2.5504950999993525)]",,,,,,,,,,sub_828,2024-12-29_12h26.15.951,Reversal,2023.1.3,60.095503774551425,4,
,,,exp2.png,2,0,2,0,,,,,0,0,0,0,0,1,1,1,,,,,,,,,,,,,,,,,,,,,,,,,,,,,,,,,,,,,,407.13217050000003,,100.0,2.6939438999997947,"[(100.0, 2.6939438999997947)]",100.0,,,,,,,,,sub_828,2024-12-29_12h26.15.951,Reversal,2023.1.3,60.095503774551425,4,
,,,exp3.png,2,0,2,0,,,,,0,0,0,0,0,2,2,2,,,,,,,,,,,,,,,,,,,,,,,,,,,,,,,,,,,,,,410.71126110000023,,1.0,2.160493200000019,"[(1.0, 2.160493200000019)]",,1.0,,,,,,,,sub_828,2024-12-29_12h26.15.951,Reversal,2023.1.3,60.095503774551425,4,
,,,exp4.png,2,0,2,0,,,,,0,0,0,0,0,3,3,3,,,,,,,,,,,,,,,,,,,,,,,,,,,,,,,,,,,,,,413.6777057999998,,100.0,2.1262033000002702,"[(100.0, 2.1262033000002702)]",,,100.0,,,,,,,sub_828,2024-12-29_12h26.15.951,Reversal,2023.1.3,60.095503774551425,4,
0,exp1.png,exp2.png,,,,,,,,,,,,,,,,,,0,0,0,0,0,0,0,0,,,,,,,,,True,,,,,,,,,,,,,,,,,,,,,,,,,,,,,,,,,,,sub_828,2024-12-29_12h26.15.951,Reversal,2023.1.3,60.095503774551425,4,
1,exp3.png,exp4.png,,,,,,,,,,,,,,,,,,0,0,0,0,0,1,1,1,,,,,,,,,False,0,61,True,exp4.png,exp3.png,trial_left_image,1,exp4.png,4,exp3.png,exp4.png,1,3,reversed,incorrect,0.047327423665717294,1,invalid_win,328.1706162999999,45,,,,,,,,,326.1531877000007,,,,,,sub_828,2024-12-29_12h26.15.951,Reversal,2023.1.3,60.095503774551425,4,
2,exp1.png,exp2.png,,,,,,,,,,,,,,,,,,0,0,0,0,0,2,2,2,,,,,,,,,False,1,62,False,exp1.png,exp2.png,trial_right_image,-1,exp2.png,4,exp2.png,exp1.png,1,1,non-reversed,correct,0.30510401416410426,1,valid_win,332.3196834999999,46,,,,,,,,,,,,,,,sub_828,2024-12-29_12h26.15.951,Reversal,2023.1.3,60.095503774551425,4,
3,exp3.png,exp4.png,,,,,,,,,,,,,,,,,,0,0,0,0,0,3,3,3,,,,,,,,,False,2,63,True,exp4.png,exp3.png,trial_left_image,1,exp4.png,4,exp3.png,exp4.png,1,3,reversed,incorrect,0.7541649256637466,0,valid_lose,336.3681679000001,46,,,,,,,,,,,,,,,sub_828,2024-12-29_12h26.15.951,Reversal,2023.1.3,60.095503774551425,4,
4,exp1.png,exp2.png,,,,,,,,,,,,,,,,,,0,0,0,0,0,4,4,4,,,,,,,,,False,3,64,False,exp1.png,exp2.png,trial_right_image,-1,exp2.png,4,exp2.png,exp1.png,1,1,non-reversed,correct,0.30599104633887375,1,valid_win,340.5328679000004,47,,,,,,,,,,,,,,,sub_828,2024-12-29_12h26.15.951,Reversal,2023.1.3,60.095503774551425,4,
5,exp3.png,exp4.png,,,,,,,,,,,,,,,,,,0,0,0,0,0,5,5,5,,,,,,,,,False,4,65,False,exp3.png,exp4.png,trial_right_image,-1,exp4.png,4,exp3.png,exp4.png,1,3,reversed,incorrect,0.9605344935797379,0,valid_lose,344.7146777000007,47,,,,,,,,,,,,,,,sub_828,2024-12-29_12h26.15.951,Reversal,2023.1.3,60.095503774551425,4,
6,exp1.png,exp2.png,,,,,,,,,,,,,,,,,,0,0,0,0,0,6,6,6,,,,,,,,,False,5,66,False,exp1.png,exp2.png,trial_right_image,-1,exp2.png,4,exp2.png,exp1.png,1,1,non-reversed,correct,0.9293900217833555,1,valid_win,349.1631113000003,48,,,,,,,,,,,,,,,sub_828,2024-12-29_12h26.15.951,Reversal,2023.1.3,60.095503774551425,4,
7,exp3.png,exp4.png,,,,,,,,,,,,,,,,,,0,0,0,0,0,7,7,7,,,,,,,,,False,6,67,True,exp4.png,exp3.png,trial_left_image,1,exp4.png,4,exp3.png,exp4.png,1,3,reversed,incorrect,0.8423593980631567,0,valid_lose,353.32841259999987,48,,,,,,,,,,,,,,,sub_828,2024-12-29_12h26.15.951,Reversal,2023.1.3,60.095503774551425,4,
8,exp1.png,exp2.png,,,,,,,,,,,,,,,,,,0,0,0,0,0,8,8,8,,,,,,,,,False,7,68,True,exp2.png,exp1.png,trial_left_image,1,exp2.png,4,exp2.png,exp1.png,1,1,non-reversed,correct,0.3254579446800273,1,valid_win,357.49365769999986,49,,,,,,,,,,,,,,,sub_828,2024-12-29_12h26.15.951,Reversal,2023.1.3,60.095503774551425,4,
9,exp3.png,exp4.png,,,,,,,,,,,,,,,,,,0,0,0,0,0,9,9,9,,,,,,,,,False,8,69,False,exp3.png,exp4.png,trial_right_image,-1,exp4.png,4,exp3.png,exp4.png,1,3,reversed,incorrect,0.8994050128788443,0,valid_lose,361.6095230000001,49,,,,,,,,,,,,,,,sub_828,2024-12-29_12h26.15.951,Reversal,2023.1.3,60.095503774551425,4,
10,exp1.png,exp2.png,,,,,,,,,,,,,,,,,,0,0,0,0,0,10,10,10,,,,,,,,,False,9,70,True,exp2.png,exp1.png,trial_right_image,-1,exp1.png,4,exp2.png,exp1.png,0,2,non-reversed,incorrect,0.7263442352882427,0,valid_lose,369.03971810000075,49,,,,,,,,,,,,,,,sub_828,2024-12-29_12h26.15.951,Reversal,2023.1.3,60.095503774551425,4,
11,exp3.png,exp4.png,,,,,,,,,,,,,,,,,,0,0,0,0,0,11,11,11,,,,,,,,,False,10,71,False,exp3.png,exp4.png,trial_right_image,-1,exp4.png,4,exp3.png,exp4.png,1,3,reversed,incorrect,0.986844037560472,0,valid_lose,373.4548629000001,49,,,,,,,,,,,,,,,sub_828,2024-12-29_12h26.15.951,Reversal,2023.1.3,60.095503774551425,4,
12,exp1.png,exp2.png,,,,,,,,,,,,,,,,,,0,0,0,0,0,12,12,12,,,,,,,,,False,11,72,True,exp2.png,exp1.png,trial_left_image,1,exp2.png,4,exp2.png,exp1.png,1,1,non-reversed,correct,0.6967920376797697,1,valid_win,378.12027339999986,50,,,,,,,,,,,,,,,sub_828,2024-12-29_12h26.15.951,Reversal,2023.1.3,60.095503774551425,4,
13,exp3.png,exp4.png,,,,,,,,,,,,,,,,,,0,0,0,0,0,13,13,13,,,,,,,,,False,12,73,False,exp3.png,exp4.png,trial_left_image,1,exp3.png,4,exp3.png,exp4.png,0,4,reversed,correct,0.29037535638551104,1,valid_win,382.4022668000007,51,,,,,,,,,,,,,,,sub_828,2024-12-29_12h26.15.951,Reversal,2023.1.3,60.095503774551425,4,
14,exp1.png,exp2.png,,,,,,,,,,,,,,,,,,0,0,0,0,0,14,14,14,,,,,,,,,False,13,74,False,exp1.png,exp2.png,trial_right_image,-1,exp2.png,4,exp2.png,exp1.png,1,1,non-reversed,correct,0.05316091492317243,0,invalid_lose,386.75042290000056,51,,,,,,,,,,,,,,,sub_828,2024-12-29_12h26.15.951,Reversal,2023.1.3,60.095503774551425,4,
15,exp3.png,exp4.png,,,,,,,,,,,,,,,,,,0,0,0,0,0,15,15,15,,,,,,,,,False,14,75,False,exp3.png,exp4.png,trial_left_image,1,exp3.png,4,exp3.png,exp4.png,0,4,reversed,correct,0.2598204730978386,1,valid_win,391.64887369999997,52,,,,,,,,,,,,,,,sub_828,2024-12-29_12h26.15.951,Reversal,2023.1.3,60.095503774551425,4,
16,exp1.png,exp2.png,,,,,,,,,,,,,,,,,,0,0,0,0,0,16,16,16,,,,,,,,,False,15,76,False,exp1.png,exp2.png,trial_left_image,1,exp1.png,4,exp2.png,exp1.png,0,2,non-reversed,incorrect,0.8558803009443772,0,valid_lose,396.64717590000055,52,,,,,,,,,,,,,,,sub_828,2024-12-29_12h26.15.951,Reversal,2023.1.3,60.095503774551425,4,
17,exp3.png,exp4.png,,,,,,,,,,,,,,,,,,0,0,0,0,0,17,17,17,,,,,,,,,False,16,77,True,exp4.png,exp3.png,trial_right_image,-1,exp3.png,4,exp3.png,exp4.png,0,4,reversed,correct,0.5843471124951858,1,valid_win,400.96220130000074,53,,,,,,,,,,,,,,,sub_828,2024-12-29_12h26.15.951,Reversal,2023.1.3,60.095503774551425,4,
18,exp1.png,exp2.png,,,,,,,,,,,,,,,,,,0,0,0,0,0,18,18,18,,,,,,,,,False,17,78,True,exp2.png,exp1.png,trial_left_image,1,exp2.png,4,exp2.png,exp1.png,1,1,non-reversed,correct,0.2058036864085233,0,invalid_lose,405.59408820000044,53,,,,,,,,,,,,,,,sub_828,2024-12-29_12h26.15.951,Reversal,2023.1.3,60.095503774551425,4,
19,exp3.png,exp4.png,,,,,,,,,,,,,,,,,,0,0,0,0,0,19,19,19,,,,,,,,,False,18,79,True,exp4.png,exp3.png,trial_right_image,-1,exp3.png,4,exp3.png,exp4.png,0,4,reversed,correct,0.08520987655601231,0,invalid_lose,409.76021240000046,53,,,,,,,,,,,,,,,sub_828,2024-12-29_12h26.15.951,Reversal,2023.1.3,60.095503774551425,4,
20,exp1.png,exp2.png,,,,,,,,,,,,,,,,,,0,0,0,0,0,20,20,20,,,,,,,,,False,19,80,True,exp2.png,exp1.png,trial_left_image,1,exp2.png,4,exp2.png,exp1.png,1,1,non-reversed,correct,0.4870607197731279,1,valid_win,414.7078332000001,54,,,,,,,,,,,,,,,sub_828,2024-12-29_12h26.15.951,Reversal,2023.1.3,60.095503774551425,4,
,,,exp1.png,,,,,,,,,,,,,,,,,0,0,0,0,,,,,0,0,0,0,0,0,0,0,,,,,,,,,,,,,,,,,,,,,,508.03842799999984,100.0,100.0,3.067292499999894,"[(100.0, 3.067292499999894)]",,,,,,,,,,sub_828,2024-12-29_12h26.15.951,Reversal,2023.1.3,60.095503774551425,4,
,,,exp2.png,,,,,,,,,,,,,,,,,0,0,0,0,,,,,0,0,0,0,0,1,1,1,,,,,,,,,,,,,,,,,,,,,,513.2089269999997,,74.0,1.8775471999997535,"[(74.0, 1.8775471999997535)]",74.0,,,,,,,,,sub_828,2024-12-29_12h26.15.951,Reversal,2023.1.3,60.095503774551425,4,
,,,exp3.png,,,,,,,,,,,,,,,,,0,0,0,0,,,,,0,0,0,0,0,2,2,2,,,,,,,,,,,,,,,,,,,,,,515.8244734999998,,86.0,3.0280640999999378,"[(85.0, 1.678012999999737), (86.0, 3.0280640999999378)]",,86.0,,,,,,,,sub_828,2024-12-29_12h26.15.951,Reversal,2023.1.3,60.095503774551425,4,
,,,exp4.png,,,,,,,,,,,,,,,,,0,0,0,0,,,,,0,0,0,0,0,3,3,3,,,,,,,,,,,,,,,,,,,,,,519.6745124999998,,92.0,1.6762247000006028,"[(92.0, 1.6762247000006028)]",,,92.0,,,,,,,sub_828,2024-12-29_12h26.15.951,Reversal,2023.1.3,60.095503774551425,4,
0,exp1.png,exp2.png,,,,,,,,,,,,,,,,,,1,0,1,0,0,0,0,0,,,,,,,,,True,,,,,,,,,,,,,,,,,,,,,,,,,,,,,,,,,,,sub_828,2024-12-29_12h26.15.951,Reversal,2023.1.3,60.095503774551425,4,
1,exp3.png,exp4.png,,,,,,,,,,,,,,,,,,1,0,1,0,0,1,1,1,,,,,,,,,False,20,81,False,exp3.png,exp4.png,trial_right_image,-1,exp4.png,4,exp3.png,exp4.png,1,3,reversed,incorrect,0.057043165653931305,1,invalid_win,433.0845724999999,55,,,,,,,,,,,,,,,sub_828,2024-12-29_12h26.15.951,Reversal,2023.1.3,60.095503774551425,4,
2,exp1.png,exp2.png,,,,,,,,,,,,,,,,,,1,0,1,0,0,2,2,2,,,,,,,,,False,21,82,False,exp1.png,exp2.png,trial_right_image,-1,exp2.png,4,exp2.png,exp1.png,1,1,non-reversed,correct,0.40703738420223723,1,valid_win,437.5169590000005,56,,,,,,,,,,,,,,,sub_828,2024-12-29_12h26.15.951,Reversal,2023.1.3,60.095503774551425,4,
3,exp3.png,exp4.png,,,,,,,,,,,,,,,,,,1,0,1,0,0,3,3,3,,,,,,,,,False,22,83,True,exp4.png,exp3.png,trial_right_image,-1,exp3.png,4,exp3.png,exp4.png,0,4,reversed,correct,0.5973435030828281,1,valid_win,441.74829039999986,57,,,,,,,,,,,,,,,sub_828,2024-12-29_12h26.15.951,Reversal,2023.1.3,60.095503774551425,4,
4,exp1.png,exp2.png,,,,,,,,,,,,,,,,,,1,0,1,0,0,4,4,4,,,,,,,,,False,23,84,True,exp2.png,exp1.png,trial_right_image,-1,exp1.png,4,exp2.png,exp1.png,0,2,non-reversed,incorrect,0.012991029990608083,1,invalid_win,445.54692690000047,58,,,,,,,,,,,,,,,sub_828,2024-12-29_12h26.15.951,Reversal,2023.1.3,60.095503774551425,4,
5,exp3.png,exp4.png,,,,,,,,,,,,,,,,,,1,0,1,0,0,5,5,5,,,,,,,,,False,24,85,False,exp3.png,exp4.png,trial_right_image,-1,exp4.png,4,exp3.png,exp4.png,1,3,reversed,incorrect,0.3222265679745936,0,valid_lose,449.29663920000075,58,,,,,,,,,,,,,,,sub_828,2024-12-29_12h26.15.951,Reversal,2023.1.3,60.095503774551425,4,
6,exp1.png,exp2.png,,,,,,,,,,,,,,,,,,1,0,1,0,0,6,6,6,,,,,,,,,False,25,86,False,exp1.png,exp2.png,trial_right_image,-1,exp2.png,4,exp2.png,exp1.png,1,1,non-reversed,correct,0.6263724224985583,1,valid_win,453.0278051000005,59,,,,,,,,,,,,,,,sub_828,2024-12-29_12h26.15.951,Reversal,2023.1.3,60.095503774551425,4,
7,exp3.png,exp4.png,,,,,,,,,,,,,,,,,,1,0,1,0,0,7,7,7,,,,,,,,,False,26,87,True,exp4.png,exp3.png,trial_right_image,-1,exp3.png,4,exp3.png,exp4.png,0,4,reversed,correct,0.4341145104869587,1,valid_win,456.8598030000003,60,,,,,,,,,,,,,,,sub_828,2024-12-29_12h26.15.951,Reversal,2023.1.3,60.095503774551425,4,
8,exp1.png,exp2.png,,,,,,,,,,,,,,,,,,1,0,1,0,0,8,8,8,,,,,,,,,False,27,88,True,exp2.png,exp1.png,trial_right_image,-1,exp1.png,4,exp2.png,exp1.png,0,2,non-reversed,incorrect,0.3580203834867788,0,valid_lose,460.22613340000044,60,,,,,,,,,,,,,,,sub_828,2024-12-29_12h26.15.951,Reversal,2023.1.3,60.095503774551425,4,
9,exp3.png,exp4.png,,,,,,,,,,,,,,,,,,1,0,1,0,0,9,9,9,,,,,,,,,False,28,89,False,exp3.png,exp4.png,trial_left_image,1,exp3.png,4,exp3.png,exp4.png,0,4,reversed,correct,0.9140022749570428,1,valid_win,464.4572912000003,61,,,,,,,,,,,,,,,sub_828,2024-12-29_12h26.15.951,Reversal,2023.1.3,60.095503774551425,4,
10,exp1.png,exp2.png,,,,,,,,,,,,,,,,,,1,0,1,0,0,10,10,10,,,,,,,,,False,29,90,True,exp2.png,exp1.png,trial_left_image,1,exp2.png,4,exp2.png,exp1.png,1,1,non-reversed,correct,0.8746933897537507,1,valid_win,468.97261080000044,62,,,,,,,,,,,,,,,sub_828,2024-12-29_12h26.15.951,Reversal,2023.1.3,60.095503774551425,4,
11,exp3.png,exp4.png,,,,,,,,,,,,,,,,,,1,0,1,0,0,11,11,11,,,,,,,,,False,30,91,True,exp4.png,exp3.png,trial_right_image,-1,exp3.png,4,exp3.png,exp4.png,0,4,reversed,correct,0.3606942885282405,1,valid_win,473.05442370000037,63,,,,,,,,,,,,,,,sub_828,2024-12-29_12h26.15.951,Reversal,2023.1.3,60.095503774551425,4,
12,exp1.png,exp2.png,,,,,,,,,,,,,,,,,,1,0,1,0,0,12,12,12,,,,,,,,,False,31,92,True,exp2.png,exp1.png,trial_left_image,1,exp2.png,4,exp2.png,exp1.png,1,1,non-reversed,correct,0.7539546211602424,1,valid_win,477.4699724000002,64,,,,,,,,,,,,,,,sub_828,2024-12-29_12h26.15.951,Reversal,2023.1.3,60.095503774551425,4,
13,exp3.png,exp4.png,,,,,,,,,,,,,,,,,,1,0,1,0,0,13,13,13,,,,,,,,,False,32,93,True,exp4.png,exp3.png,trial_right_image,-1,exp3.png,4,exp3.png,exp4.png,0,4,reversed,correct,0.9820118452567989,1,valid_win,481.73472480000055,65,,,,,,,,,,,,,,,sub_828,2024-12-29_12h26.15.951,Reversal,2023.1.3,60.095503774551425,4,
14,exp1.png,exp2.png,,,,,,,,,,,,,,,,,,1,0,1,0,0,14,14,14,,,,,,,,,False,33,94,True,exp2.png,exp1.png,trial_left_image,1,exp2.png,4,exp2.png,exp1.png,1,1,non-reversed,correct,0.11716694645804238,0,invalid_lose,486.03313810000054,65,,,,,,,,,,,,,,,sub_828,2024-12-29_12h26.15.951,Reversal,2023.1.3,60.095503774551425,4,
15,exp3.png,exp4.png,,,,,,,,,,,,,,,,,,1,0,1,0,0,15,15,15,,,,,,,,,False,34,95,True,exp4.png,exp3.png,trial_right_image,-1,exp3.png,4,exp3.png,exp4.png,0,4,reversed,correct,0.09955579808277704,0,invalid_lose,490.4832187000002,65,,,,,,,,,,,,,,,sub_828,2024-12-29_12h26.15.951,Reversal,2023.1.3,60.095503774551425,4,
16,exp1.png,exp2.png,,,,,,,,,,,,,,,,,,1,0,1,0,0,16,16,16,,,,,,,,,False,35,96,False,exp1.png,exp2.png,trial_right_image,-1,exp2.png,4,exp2.png,exp1.png,1,1,non-reversed,correct,0.39891668066722064,1,valid_win,495.1302475000002,66,,,,,,,,,,,,,,,sub_828,2024-12-29_12h26.15.951,Reversal,2023.1.3,60.095503774551425,4,
17,exp3.png,exp4.png,,,,,,,,,,,,,,,,,,1,0,1,0,0,17,17,17,,,,,,,,,False,36,97,False,exp3.png,exp4.png,trial_left_image,1,exp3.png,4,exp3.png,exp4.png,0,4,reversed,correct,0.8804362230189693,1,valid_win,499.71260320000056,67,,,,,,,,,,,,,,,sub_828,2024-12-29_12h26.15.951,Reversal,2023.1.3,60.095503774551425,4,
18,exp1.png,exp2.png,,,,,,,,,,,,,,,,,,1,0,1,0,0,18,18,18,,,,,,,,,False,37,98,False,exp1.png,exp2.png,trial_right_image,-1,exp2.png,4,exp2.png,exp1.png,1,1,non-reversed,correct,0.16328145615161238,0,invalid_lose,503.9938189000004,67,,,,,,,,,,,,,,,sub_828,2024-12-29_12h26.15.951,Reversal,2023.1.3,60.095503774551425,4,
19,exp3.png,exp4.png,,,,,,,,,,,,,,,,,,1,0,1,0,0,19,19,19,,,,,,,,,False,38,99,False,exp3.png,exp4.png,trial_left_image,1,exp3.png,4,exp3.png,exp4.png,0,4,reversed,correct,0.38174828938207217,1,valid_win,508.25940190000074,68,,,,,,,,,,,,,,,sub_828,2024-12-29_12h26.15.951,Reversal,2023.1.3,60.095503774551425,4,
20,exp1.png,exp2.png,,,,,,,,,,,,,,,,,,1,0,1,0,0,20,20,20,,,,,,,,,False,39,100,False,exp1.png,exp2.png,trial_right_image,-1,exp2.png,4,exp2.png,exp1.png,1,1,non-reversed,correct,0.667609093471494,1,valid_win,512.6408469000007,69,,,,,,,,,,,,,,,sub_828,2024-12-29_12h26.15.951,Reversal,2023.1.3,60.095503774551425,4,
,,,exp1.png,,,,,,,,,,,,,,,,,1,0,1,0,,,,,0,0,0,0,0,0,0,0,,,,,,,,,,,,,,,,,,,,,,605.9730331999999,1.0,1.0,4.9987333999997645,"[(1.0, 4.9987333999997645)]",,,,,,,,,,sub_828,2024-12-29_12h26.15.951,Reversal,2023.1.3,60.095503774551425,4,
,,,exp2.png,,,,,,,,,,,,,,,,,1,0,1,0,,,,,0,0,0,0,0,1,1,1,,,,,,,,,,,,,,,,,,,,,,612.2253668000003,,87.0,2.7106377999998585,"[(87.0, 2.7106377999998585)]",87.0,,,,,,,,,sub_828,2024-12-29_12h26.15.951,Reversal,2023.1.3,60.095503774551425,4,
,,,exp3.png,,,,,,,,,,,,,,,,,1,0,1,0,,,,,0,0,0,0,0,2,2,2,,,,,,,,,,,,,,,,,,,,,,615.8235353,,100.0,1.445037599999523,"[(100.0, 1.445037599999523)]",,100.0,,,,,,,,sub_828,2024-12-29_12h26.15.951,Reversal,2023.1.3,60.095503774551425,4,
,,,exp4.png,,,,,,,,,,,,,,,,,1,0,1,0,,,,,0,0,0,0,0,3,3,3,,,,,,,,,,,,,,,,,,,,,,618.1231028000002,,87.0,1.9112820000000283,"[(87.0, 1.9112820000000283)]",,,87.0,,,,,,,sub_828,2024-12-29_12h26.15.951,Reversal,2023.1.3,60.095503774551425,4,
0,exp1.png,exp2.png,,,,,,,,,,,,,,,,,,2,0,2,0,0,0,0,0,,,,,,,,,True,,,,,,,,,,,,,,,,,,,,,,,,,,,,,,,,,,,sub_828,2024-12-29_12h26.15.951,Reversal,2023.1.3,60.095503774551425,4,
1,exp3.png,exp4.png,,,,,,,,,,,,,,,,,,2,0,2,0,0,1,1,1,,,,,,,,,False,40,101,False,exp3.png,exp4.png,trial_left_image,1,exp3.png,4,exp3.png,exp4.png,0,4,reversed,correct,0.9052932125310644,1,valid_win,532.5177905,70,,,,,,,,,,,,,,,sub_828,2024-12-29_12h26.15.951,Reversal,2023.1.3,60.095503774551425,4,
2,exp1.png,exp2.png,,,,,,,,,,,,,,,,,,2,0,2,0,0,2,2,2,,,,,,,,,False,41,102,False,exp1.png,exp2.png,trial_right_image,-1,exp2.png,4,exp2.png,exp1.png,1,1,non-reversed,correct,0.6256003544097272,1,valid_win,537.3159560000004,71,,,,,,,,,,,,,,,sub_828,2024-12-29_12h26.15.951,Reversal,2023.1.3,60.095503774551425,4,
3,exp3.png,exp4.png,,,,,,,,,,,,,,,,,,2,0,2,0,0,3,3,3,,,,,,,,,False,42,103,True,exp4.png,exp3.png,trial_right_image,-1,exp3.png,4,exp3.png,exp4.png,0,4,reversed,correct,0.7955461474298983,1,valid_win,542.0141901000006,72,,,,,,,,,,,,,,,sub_828,2024-12-29_12h26.15.951,Reversal,2023.1.3,60.095503774551425,4,
4,exp1.png,exp2.png,,,,,,,,,,,,,,,,,,2,0,2,0,0,4,4,4,,,,,,,,,False,43,104,False,exp1.png,exp2.png,trial_right_image,-1,exp2.png,4,exp2.png,exp1.png,1,1,non-reversed,correct,0.6392498015119676,1,valid_win,546.4292734,73,,,,,,,,,,,,,,,sub_828,2024-12-29_12h26.15.951,Reversal,2023.1.3,60.095503774551425,4,
5,exp3.png,exp4.png,,,,,,,,,,,,,,,,,,2,0,2,0,0,5,5,5,,,,,,,,,False,44,105,False,exp3.png,exp4.png,trial_left_image,1,exp3.png,4,exp3.png,exp4.png,0,4,reversed,correct,0.9335222204241677,1,valid_win,550.7612569000003,74,,,,,,,,,,,,,,,sub_828,2024-12-29_12h26.15.951,Reversal,2023.1.3,60.095503774551425,4,
6,exp1.png,exp2.png,,,,,,,,,,,,,,,,,,2,0,2,0,0,6,6,6,,,,,,,,,False,45,106,True,exp2.png,exp1.png,trial_left_image,1,exp2.png,4,exp2.png,exp1.png,1,1,non-reversed,correct,0.15143407972506429,0,invalid_lose,555.4596105999999,74,,,,,,,,,,,,,,,sub_828,2024-12-29_12h26.15.951,Reversal,2023.1.3,60.095503774551425,4,
7,exp3.png,exp4.png,,,,,,,,,,,,,,,,,,2,0,2,0,0,7,7,7,,,,,,,,,False,46,107,False,exp3.png,exp4.png,trial_right_image,-1,exp4.png,4,exp3.png,exp4.png,1,3,reversed,incorrect,0.10100190065655146,1,invalid_win,559.7248829999999,75,,,,,,,,,,,,,,,sub_828,2024-12-29_12h26.15.951,Reversal,2023.1.3,60.095503774551425,4,
8,exp1.png,exp2.png,,,,,,,,,,,,,,,,,,2,0,2,0,0,8,8,8,,,,,,,,,False,47,108,True,exp2.png,exp1.png,trial_left_image,1,exp2.png,4,exp2.png,exp1.png,1,1,non-reversed,correct,0.6408418999990897,1,valid_win,564.3566366000005,76,,,,,,,,,,,,,,,sub_828,2024-12-29_12h26.15.951,Reversal,2023.1.3,60.095503774551425,4,
9,exp3.png,exp4.png,,,,,,,,,,,,,,,,,,2,0,2,0,0,9,9,9,,,,,,,,,False,48,109,False,exp3.png,exp4.png,trial_right_image,-1,exp4.png,4,exp3.png,exp4.png,1,3,reversed,incorrect,0.8783208793630477,0,valid_lose,568.7217995999999,76,,,,,,,,,,,,,,,sub_828,2024-12-29_12h26.15.951,Reversal,2023.1.3,60.095503774551425,4,
10,exp1.png,exp2.png,,,,,,,,,,,,,,,,,,2,0,2,0,0,10,10,10,,,,,,,,,False,49,110,False,exp1.png,exp2.png,trial_right_image,-1,exp2.png,4,exp2.png,exp1.png,1,1,non-reversed,correct,0.5517393872969927,1,valid_win,572.9871630000007,77,,,,,,,,,,,,,,,sub_828,2024-12-29_12h26.15.951,Reversal,2023.1.3,60.095503774551425,4,
11,exp3.png,exp4.png,,,,,,,,,,,,,,,,,,2,0,2,0,0,11,11,11,,,,,,,,,False,50,111,True,exp4.png,exp3.png,trial_right_image,-1,exp3.png,4,exp3.png,exp4.png,0,4,reversed,correct,0.20871710233701168,0,invalid_lose,577.7190653000007,77,,,,,,,,,,,,,,,sub_828,2024-12-29_12h26.15.951,Reversal,2023.1.3,60.095503774551425,4,
12,exp1.png,exp2.png,,,,,,,,,,,,,,,,,,2,0,2,0,0,12,12,12,,,,,,,,,False,51,112,True,exp2.png,exp1.png,trial_left_image,1,exp2.png,4,exp2.png,exp1.png,1,1,non-reversed,correct,0.11248952930739631,0,invalid_lose,581.9506647000007,77,,,,,,,,,,,,,,,sub_828,2024-12-29_12h26.15.951,Reversal,2023.1.3,60.095503774551425,4,
13,exp3.png,exp4.png,,,,,,,,,,,,,,,,,,2,0,2,0,0,13,13,13,,,,,,,,,False,52,113,False,exp3.png,exp4.png,trial_right_image,-1,exp4.png,4,exp3.png,exp4.png,1,3,reversed,incorrect,0.563850065457557,0,valid_lose,585.9001945,77,,,,,,,,,,,,,,,sub_828,2024-12-29_12h26.15.951,Reversal,2023.1.3,60.095503774551425,4,
14,exp1.png,exp2.png,,,,,,,,,,,,,,,,,,2,0,2,0,0,14,14,14,,,,,,,,,False,53,114,True,exp2.png,exp1.png,trial_right_image,-1,exp1.png,4,exp2.png,exp1.png,0,2,non-reversed,incorrect,0.6882052444162461,0,valid_lose,589.9647752000001,77,,,,,,,,,,,,,,,sub_828,2024-12-29_12h26.15.951,Reversal,2023.1.3,60.095503774551425,4,
15,exp3.png,exp4.png,,,,,,,,,,,,,,,,,,2,0,2,0,0,15,15,15,,,,,,,,,False,54,115,True,exp4.png,exp3.png,trial_right_image,-1,exp3.png,4,exp3.png,exp4.png,0,4,reversed,correct,0.17763008552281012,0,invalid_lose,594.1631346000004,77,,,,,,,,,,,,,,,sub_828,2024-12-29_12h26.15.951,Reversal,2023.1.3,60.095503774551425,4,
16,exp1.png,exp2.png,,,,,,,,,,,,,,,,,,2,0,2,0,0,16,16,16,,,,,,,,,False,55,116,True,exp2.png,exp1.png,trial_left_image,1,exp2.png,4,exp2.png,exp1.png,1,1,non-reversed,correct,0.9842228938241183,1,valid_win,598.5118372000006,78,,,,,,,,,,,,,,,sub_828,2024-12-29_12h26.15.951,Reversal,2023.1.3,60.095503774551425,4,
17,exp3.png,exp4.png,,,,,,,,,,,,,,,,,,2,0,2,0,0,17,17,17,,,,,,,,,False,56,117,True,exp4.png,exp3.png,trial_left_image,1,exp4.png,4,exp3.png,exp4.png,1,3,reversed,incorrect,0.1396933018314187,1,invalid_win,602.8269472000002,79,,,,,,,,,,,,,,,sub_828,2024-12-29_12h26.15.951,Reversal,2023.1.3,60.095503774551425,4,
18,exp1.png,exp2.png,,,,,,,,,,,,,,,,,,2,0,2,0,0,18,18,18,,,,,,,,,False,57,118,True,exp2.png,exp1.png,trial_left_image,1,exp2.png,4,exp2.png,exp1.png,1,1,non-reversed,correct,0.9227961397906576,1,valid_win,607.1084819000007,80,,,,,,,,,,,,,,,sub_828,2024-12-29_12h26.15.951,Reversal,2023.1.3,60.095503774551425,4,
19,exp3.png,exp4.png,,,,,,,,,,,,,,,,,,2,0,2,0,0,19,19,19,,,,,,,,,False,58,119,False,exp3.png,exp4.png,trial_right_image,-1,exp4.png,4,exp3.png,exp4.png,1,3,reversed,incorrect,0.07616406195920378,1,invalid_win,611.3072451000007,81,,,,,,,,,,,,,,,sub_828,2024-12-29_12h26.15.951,Reversal,2023.1.3,60.095503774551425,4,
20,exp1.png,exp2.png,,,,,,,,,,,,,,,,,,2,0,2,0,0,20,20,20,,,,,,,,,False,59,120,False,exp1.png,exp2.png,trial_right_image,-1,exp2.png,4,exp2.png,exp1.png,1,1,non-reversed,correct,0.012827580311545184,0,invalid_lose,615.3727863000004,81,,,,,,,,,,,,,,,sub_828,2024-12-29_12h26.15.951,Reversal,2023.1.3,60.095503774551425,4,
,,,exp1.png,,,,,,,,,,,,,,,,,2,0,2,0,,,,,0,0,0,0,0,0,0,0,,,,,,,,,,,,,,,,,,,,,,708.6958850999999,24.0,24.0,2.225654300000315,"[(24.0, 2.225654300000315)]",,,,,,,,,,sub_828,2024-12-29_12h26.15.951,Reversal,2023.1.3,60.095503774551425,4,
,,,exp2.png,,,,,,,,,,,,,,,,,2,0,2,0,,,,,0,0,0,0,0,1,1,1,,,,,,,,,,,,,,,,,,,,,,712.7658964000002,,80.0,2.295188699999926,"[(80.0, 2.295188699999926)]",80.0,,,,,,,,,sub_828,2024-12-29_12h26.15.951,Reversal,2023.1.3,60.095503774551425,4,
,,,exp3.png,,,,,,,,,,,,,,,,,2,0,2,0,,,,,0,0,0,0,0,2,2,2,,,,,,,,,,,,,,,,,,,,,,715.9060460000001,,56.0,1.9792238999998517,"[(56.0, 1.9792238999998517)]",,56.0,,,,,,,,sub_828,2024-12-29_12h26.15.951,Reversal,2023.1.3,60.095503774551425,4,
,,,exp4.png,,,,,,,,,,,,,,,,,2,0,2,0,,,,,0,0,0,0,0,3,3,3,,,,,,,,,,,,,,,,,,,,,,718.6384329000002,,76.0,1.5274862999995094,"[(76.0, 1.5274862999995094)]",,,76.0,,,,,,,sub_828,2024-12-29_12h26.15.951,Reversal,2023.1.3,60.095503774551425,4,
,,,,,,,,,,,,,,,,,,,,,,,,,,,,,,,,,,,,,,,,,,,,,,,,,,,,,,,,81,,,,,,,,,,94,52,42,303.89898039999935,0,,,,,,,
