trial_index,trial_image1_file,trial_image2_file,image_file,learning_outer_loop.thisRepN,learning_outer_loop.thisTrialN,learning_outer_loop.thisN,learning_outer_loop.thisIndex,learning_inner_loop.thisRepN,learning_inner_loop.thisTrialN,learning_inner_loop.thisN,learning_inner_loop.thisIndex,learning_estimation_outer_loop.thisRepN,learning_estimation_outer_loop.thisTrialN,learning_estimation_outer_loop.thisN,learning_estimation_outer_loop.thisIndex,learning_estimation_inner_loop.thisRepN,learning_estimation_inner_loop.thisTrialN,learning_estimation_inner_loop.thisN,learning_estimation_inner_loop.thisIndex,reversal_outer_loop.thisRepN,reversal_outer_loop.thisTrialN,reversal_outer_loop.thisN,reversal_outer_loop.thisIndex,reversal_inner_loop.thisRepN,reversal_inner_loop.thisTrialN,reversal_inner_loop.thisN,reversal_inner_loop.thisIndex,reversal_estimation_outer_loop.thisRepN,reversal_estimation_outer_loop.thisTrialN,reversal_estimation_outer_loop.thisN,reversal_estimation_outer_loop.thisIndex,reversal_estimation_inner_loop.thisRepN,reversal_estimation_inner_loop.thisTrialN,reversal_estimation_inner_loop.thisN,reversal_estimation_inner_loop.thisIndex,skipped,total_trial_counter,trial_num,left_right_flip,left_image_file,right_image_file,clicked_stimulus_side,side,clicked_stimulus,version,high_prob_image_file,low_prob_image_file,choice_a,choice_b,pair_type,correct,trial_feedback_random,reward,trial_type,overall_time_after_trial,score,estimation_rating.started,estimation_exp1.png,estimation_rating.response,estimation_rating.rt,estimation_rating.history,estimation_exp2.png,estimation_exp3.png,total_learning_time,total_correct,learning_correct,reversal_correct,total_reversal_time,extra_block,participant,date,expName,psychopyVersion,frameRate,ver,
0,exp1.png,exp2.png,,0,0,0,0,0,0,0,0,,,,,,,,,,,,,,,,,,,,,,,,,False,0,1,True,exp2.png,exp1.png,trial_left_image,1,exp2.png,2,exp1.png,exp2.png,0,2,non-reversed,incorrect,0.4585547364218301,0,valid_lose,4.130992399999741,0,,,,,,,,,,,,,,sub_810,2024-11-24_13h45.04.422,Reversal,2023.1.3,59.983360615849456,2,
1,exp3.png,exp4.png,,0,0,0,0,0,1,1,1,,,,,,,,,,,,,,,,,,,,,,,,,False,1,2,False,exp3.png,exp4.png,trial_right_image,-1,exp4.png,2,exp3.png,exp4.png,0,4,reversed,incorrect,0.07645656282382896,1,invalid_win,12.111259399999653,1,,,,,,,,,,,,,,sub_810,2024-11-24_13h45.04.422,Reversal,2023.1.3,59.983360615849456,2,
2,exp1.png,exp2.png,,0,0,0,0,0,2,2,2,,,,,,,,,,,,,,,,,,,,,,,,,False,2,3,True,exp2.png,exp1.png,trial_left_image,1,exp2.png,2,exp1.png,exp2.png,0,2,non-reversed,incorrect,0.9181696828465142,0,valid_lose,18.1758976000001,1,,,,,,,,,,,,,,sub_810,2024-11-24_13h45.04.422,Reversal,2023.1.3,59.983360615849456,2,
3,exp3.png,exp4.png,,0,0,0,0,0,3,3,3,,,,,,,,,,,,,,,,,,,,,,,,,False,3,4,True,exp4.png,exp3.png,trial_right_image,-1,exp3.png,2,exp3.png,exp4.png,1,3,reversed,correct,0.36317860906001853,1,valid_win,23.990871400000287,2,,,,,,,,,,,,,,sub_810,2024-11-24_13h45.04.422,Reversal,2023.1.3,59.983360615849456,2,
4,exp1.png,exp2.png,,0,0,0,0,0,4,4,4,,,,,,,,,,,,,,,,,,,,,,,,,False,4,5,True,exp2.png,exp1.png,trial_right_image,-1,exp1.png,2,exp1.png,exp2.png,1,1,non-reversed,correct,0.5383819118546775,1,valid_win,29.92201970000042,3,,,,,,,,,,,,,,sub_810,2024-11-24_13h45.04.422,Reversal,2023.1.3,59.983360615849456,2,
5,exp3.png,exp4.png,,0,0,0,0,0,5,5,5,,,,,,,,,,,,,,,,,,,,,,,,,False,5,6,True,exp4.png,exp3.png,trial_left_image,1,exp4.png,2,exp3.png,exp4.png,0,4,reversed,incorrect,0.47466634373458605,0,valid_lose,35.45339189999959,3,,,,,,,,,,,,,,sub_810,2024-11-24_13h45.04.422,Reversal,2023.1.3,59.983360615849456,2,
6,exp1.png,exp2.png,,0,0,0,0,0,6,6,6,,,,,,,,,,,,,,,,,,,,,,,,,False,6,7,True,exp2.png,exp1.png,trial_right_image,-1,exp1.png,2,exp1.png,exp2.png,1,1,non-reversed,correct,0.7794827829142223,1,valid_win,40.06832000000031,4,,,,,,,,,,,,,,sub_810,2024-11-24_13h45.04.422,Reversal,2023.1.3,59.983360615849456,2,
7,exp3.png,exp4.png,,0,0,0,0,0,7,7,7,,,,,,,,,,,,,,,,,,,,,,,,,False,7,8,False,exp3.png,exp4.png,trial_right_image,-1,exp4.png,2,exp3.png,exp4.png,0,4,reversed,incorrect,0.35360404710813587,0,valid_lose,44.78383639999993,4,,,,,,,,,,,,,,sub_810,2024-11-24_13h45.04.422,Reversal,2023.1.3,59.983360615849456,2,
8,exp1.png,exp2.png,,0,0,0,0,0,8,8,8,,,,,,,,,,,,,,,,,,,,,,,,,False,8,9,False,exp1.png,exp2.png,trial_left_image,1,exp1.png,2,exp1.png,exp2.png,1,1,non-reversed,correct,0.5389798122011255,1,valid_win,52.681354600000304,5,,,,,,,,,,,,,,sub_810,2024-11-24_13h45.04.422,Reversal,2023.1.3,59.983360615849456,2,
9,exp3.png,exp4.png,,0,0,0,0,0,9,9,9,,,,,,,,,,,,,,,,,,,,,,,,,False,9,10,True,exp4.png,exp3.png,trial_right_image,-1,exp3.png,2,exp3.png,exp4.png,1,3,reversed,correct,0.4574293906541458,1,valid_win,59.49521569999979,6,,,,,,,,,,,,,,sub_810,2024-11-24_13h45.04.422,Reversal,2023.1.3,59.983360615849456,2,
10,exp1.png,exp2.png,,0,0,0,0,0,10,10,10,,,,,,,,,,,,,,,,,,,,,,,,,False,10,11,True,exp2.png,exp1.png,trial_left_image,1,exp2.png,2,exp1.png,exp2.png,0,2,non-reversed,incorrect,0.5703148262302762,0,valid_lose,64.47692749999987,6,,,,,,,,,,,,,,sub_810,2024-11-24_13h45.04.422,Reversal,2023.1.3,59.983360615849456,2,
11,exp3.png,exp4.png,,0,0,0,0,0,11,11,11,,,,,,,,,,,,,,,,,,,,,,,,,False,11,12,False,exp3.png,exp4.png,trial_right_image,-1,exp4.png,2,exp3.png,exp4.png,0,4,reversed,incorrect,0.9806821937135141,0,valid_lose,69.04195849999996,6,,,,,,,,,,,,,,sub_810,2024-11-24_13h45.04.422,Reversal,2023.1.3,59.983360615849456,2,
12,exp1.png,exp2.png,,0,0,0,0,0,12,12,12,,,,,,,,,,,,,,,,,,,,,,,,,False,12,13,False,exp1.png,exp2.png,trial_right_image,-1,exp2.png,2,exp1.png,exp2.png,0,2,non-reversed,incorrect,0.3404004980897384,0,valid_lose,74.12374509999972,6,,,,,,,,,,,,,,sub_810,2024-11-24_13h45.04.422,Reversal,2023.1.3,59.983360615849456,2,
13,exp3.png,exp4.png,,0,0,0,0,0,13,13,13,,,,,,,,,,,,,,,,,,,,,,,,,False,13,14,False,exp3.png,exp4.png,trial_left_image,1,exp3.png,2,exp3.png,exp4.png,1,3,reversed,correct,0.9885154483504185,1,valid_win,79.72195929999998,7,,,,,,,,,,,,,,sub_810,2024-11-24_13h45.04.422,Reversal,2023.1.3,59.983360615849456,2,
14,exp1.png,exp2.png,,0,0,0,0,0,14,14,14,,,,,,,,,,,,,,,,,,,,,,,,,False,14,15,False,exp1.png,exp2.png,trial_right_image,-1,exp2.png,2,exp1.png,exp2.png,0,2,non-reversed,incorrect,0.9986856994821748,0,valid_lose,86.30307770000036,7,,,,,,,,,,,,,,sub_810,2024-11-24_13h45.04.422,Reversal,2023.1.3,59.983360615849456,2,
15,exp3.png,exp4.png,,0,0,0,0,0,15,15,15,,,,,,,,,,,,,,,,,,,,,,,,,False,15,16,False,exp3.png,exp4.png,trial_left_image,1,exp3.png,2,exp3.png,exp4.png,1,3,reversed,correct,0.3903963488540878,1,valid_win,90.72016020000046,8,,,,,,,,,,,,,,sub_810,2024-11-24_13h45.04.422,Reversal,2023.1.3,59.983360615849456,2,
16,exp1.png,exp2.png,,0,0,0,0,0,16,16,16,,,,,,,,,,,,,,,,,,,,,,,,,False,16,17,False,exp1.png,exp2.png,trial_left_image,1,exp1.png,2,exp1.png,exp2.png,1,1,non-reversed,correct,0.10858590224483111,0,invalid_lose,95.43501379999998,8,,,,,,,,,,,,,,sub_810,2024-11-24_13h45.04.422,Reversal,2023.1.3,59.983360615849456,2,
17,exp3.png,exp4.png,,0,0,0,0,0,17,17,17,,,,,,,,,,,,,,,,,,,,,,,,,False,17,18,True,exp4.png,exp3.png,trial_right_image,-1,exp3.png,2,exp3.png,exp4.png,1,3,reversed,correct,0.5501242882486649,1,valid_win,100.63165850000041,9,,,,,,,,,,,,,,sub_810,2024-11-24_13h45.04.422,Reversal,2023.1.3,59.983360615849456,2,
18,exp1.png,exp2.png,,0,0,0,0,0,18,18,18,,,,,,,,,,,,,,,,,,,,,,,,,False,18,19,True,exp2.png,exp1.png,trial_right_image,-1,exp1.png,2,exp1.png,exp2.png,1,1,non-reversed,correct,0.9508365644993804,1,valid_win,105.66285030000017,10,,,,,,,,,,,,,,sub_810,2024-11-24_13h45.04.422,Reversal,2023.1.3,59.983360615849456,2,
19,exp3.png,exp4.png,,0,0,0,0,0,19,19,19,,,,,,,,,,,,,,,,,,,,,,,,,False,19,20,False,exp3.png,exp4.png,trial_right_image,-1,exp4.png,2,exp3.png,exp4.png,0,4,reversed,incorrect,0.020557266017247056,1,invalid_win,111.09445890000006,11,,,,,,,,,,,,,,sub_810,2024-11-24_13h45.04.422,Reversal,2023.1.3,59.983360615849456,2,
20,exp1.png,exp2.png,,0,0,0,0,0,20,20,20,,,,,,,,,,,,,,,,,,,,,,,,,True,,,,,,,,,,,,,,,,,,,,,,,,,,,,,,,,,,sub_810,2024-11-24_13h45.04.422,Reversal,2023.1.3,59.983360615849456,2,
,,,exp1.png,0,0,0,0,,,,,0,0,0,0,0,0,0,0,,,,,,,,,,,,,,,,,,,,,,,,,,,,,,,,,,,,,,201.18621110000004,55.0,55.0,9.777304700000059,"[(55.0, 9.777304700000059)]",,,,,,,,,sub_810,2024-11-24_13h45.04.422,Reversal,2023.1.3,59.983360615849456,2,
,,,exp2.png,0,0,0,0,,,,,0,0,0,0,0,1,1,1,,,,,,,,,,,,,,,,,,,,,,,,,,,,,,,,,,,,,,212.09494959999938,,54.0,4.859423099999731,"[(54.0, 4.859423099999731)]",54.0,,,,,,,,sub_810,2024-11-24_13h45.04.422,Reversal,2023.1.3,59.983360615849456,2,
,,,exp3.png,0,0,0,0,,,,,0,0,0,0,0,2,2,2,,,,,,,,,,,,,,,,,,,,,,,,,,,,,,,,,,,,,,218.90667809999923,,49.0,3.0791095000004134,"[(49.0, 3.0791095000004134)]",,49.0,,,,,,,sub_810,2024-11-24_13h45.04.422,Reversal,2023.1.3,59.983360615849456,2,
,,,exp4.png,0,0,0,0,,,,,0,0,0,0,0,3,3,3,,,,,,,,,,,,,,,,,,,,,,,,,,,,,,,,,,,,,,222.93870419999985,,None,None,[],,,,,,,,,sub_810,2024-11-24_13h45.04.422,Reversal,2023.1.3,59.983360615849456,2,
0,exp1.png,exp2.png,,1,0,1,0,0,0,0,0,,,,,,,,,,,,,,,,,,,,,,,,,False,20,21,False,exp1.png,exp2.png,trial_right_image,-1,exp2.png,2,exp1.png,exp2.png,0,2,non-reversed,incorrect,0.7500642741617841,0,valid_lose,141.1677851000004,11,,,,,,,,,,,,,,sub_810,2024-11-24_13h45.04.422,Reversal,2023.1.3,59.983360615849456,2,
1,exp3.png,exp4.png,,1,0,1,0,0,1,1,1,,,,,,,,,,,,,,,,,,,,,,,,,False,21,22,True,exp4.png,exp3.png,trial_left_image,1,exp4.png,2,exp3.png,exp4.png,0,4,reversed,incorrect,0.6560823204109312,0,valid_lose,148.03173440000046,11,,,,,,,,,,,,,,sub_810,2024-11-24_13h45.04.422,Reversal,2023.1.3,59.983360615849456,2,
2,exp1.png,exp2.png,,1,0,1,0,0,2,2,2,,,,,,,,,,,,,,,,,,,,,,,,,False,22,23,True,exp2.png,exp1.png,trial_left_image,1,exp2.png,2,exp1.png,exp2.png,0,2,non-reversed,incorrect,0.5032967838469701,0,valid_lose,152.39691089999997,11,,,,,,,,,,,,,,sub_810,2024-11-24_13h45.04.422,Reversal,2023.1.3,59.983360615849456,2,
3,exp3.png,exp4.png,,1,0,1,0,0,3,3,3,,,,,,,,,,,,,,,,,,,,,,,,,False,23,24,True,exp4.png,exp3.png,trial_right_image,-1,exp3.png,2,exp3.png,exp4.png,1,3,reversed,correct,0.3910671826515336,1,valid_win,156.82894940000006,12,,,,,,,,,,,,,,sub_810,2024-11-24_13h45.04.422,Reversal,2023.1.3,59.983360615849456,2,
4,exp1.png,exp2.png,,1,0,1,0,0,4,4,4,,,,,,,,,,,,,,,,,,,,,,,,,False,24,25,False,exp1.png,exp2.png,trial_right_image,-1,exp2.png,2,exp1.png,exp2.png,0,2,non-reversed,incorrect,0.6491378703823562,0,valid_lose,161.44394399999965,12,,,,,,,,,,,,,,sub_810,2024-11-24_13h45.04.422,Reversal,2023.1.3,59.983360615849456,2,
5,exp3.png,exp4.png,,1,0,1,0,0,5,5,5,,,,,,,,,,,,,,,,,,,,,,,,,False,25,26,False,exp3.png,exp4.png,trial_right_image,-1,exp4.png,2,exp3.png,exp4.png,0,4,reversed,incorrect,0.8376632462193463,0,valid_lose,166.00901479999993,12,,,,,,,,,,,,,,sub_810,2024-11-24_13h45.04.422,Reversal,2023.1.3,59.983360615849456,2,
6,exp1.png,exp2.png,,1,0,1,0,0,6,6,6,,,,,,,,,,,,,,,,,,,,,,,,,False,26,27,False,exp1.png,exp2.png,trial_left_image,1,exp1.png,2,exp1.png,exp2.png,1,1,non-reversed,correct,0.2413749939333496,0,invalid_lose,170.04100720000042,12,,,,,,,,,,,,,,sub_810,2024-11-24_13h45.04.422,Reversal,2023.1.3,59.983360615849456,2,
7,exp3.png,exp4.png,,1,0,1,0,0,7,7,7,,,,,,,,,,,,,,,,,,,,,,,,,False,27,28,False,exp3.png,exp4.png,trial_left_image,1,exp3.png,2,exp3.png,exp4.png,1,3,reversed,correct,0.17623463324188937,0,invalid_lose,174.7061837000001,12,,,,,,,,,,,,,,sub_810,2024-11-24_13h45.04.422,Reversal,2023.1.3,59.983360615849456,2,
8,exp1.png,exp2.png,,1,0,1,0,0,8,8,8,,,,,,,,,,,,,,,,,,,,,,,,,False,28,29,True,exp2.png,exp1.png,trial_right_image,-1,exp1.png,2,exp1.png,exp2.png,1,1,non-reversed,correct,0.058940679692510156,0,invalid_lose,179.2046350999999,12,,,,,,,,,,,,,,sub_810,2024-11-24_13h45.04.422,Reversal,2023.1.3,59.983360615849456,2,
9,exp3.png,exp4.png,,1,0,1,0,0,9,9,9,,,,,,,,,,,,,,,,,,,,,,,,,False,29,30,True,exp4.png,exp3.png,trial_left_image,1,exp4.png,2,exp3.png,exp4.png,0,4,reversed,incorrect,0.234659678243484,1,invalid_win,183.6698561000003,13,,,,,,,,,,,,,,sub_810,2024-11-24_13h45.04.422,Reversal,2023.1.3,59.983360615849456,2,
10,exp1.png,exp2.png,,1,0,1,0,0,10,10,10,,,,,,,,,,,,,,,,,,,,,,,,,False,30,31,False,exp1.png,exp2.png,trial_left_image,1,exp1.png,2,exp1.png,exp2.png,1,1,non-reversed,correct,0.9735214044589149,1,valid_win,188.26817759999994,14,,,,,,,,,,,,,,sub_810,2024-11-24_13h45.04.422,Reversal,2023.1.3,59.983360615849456,2,
11,exp3.png,exp4.png,,1,0,1,0,0,11,11,11,,,,,,,,,,,,,,,,,,,,,,,,,False,31,32,False,exp3.png,exp4.png,trial_left_image,1,exp3.png,2,exp3.png,exp4.png,1,3,reversed,correct,0.6779620565667873,1,valid_win,192.55004610000015,15,,,,,,,,,,,,,,sub_810,2024-11-24_13h45.04.422,Reversal,2023.1.3,59.983360615849456,2,
12,exp1.png,exp2.png,,1,0,1,0,0,12,12,12,,,,,,,,,,,,,,,,,,,,,,,,,False,32,33,False,exp1.png,exp2.png,trial_left_image,1,exp1.png,2,exp1.png,exp2.png,1,1,non-reversed,correct,0.9036768454078489,1,valid_win,197.63204889999997,16,,,,,,,,,,,,,,sub_810,2024-11-24_13h45.04.422,Reversal,2023.1.3,59.983360615849456,2,
13,exp3.png,exp4.png,,1,0,1,0,0,13,13,13,,,,,,,,,,,,,,,,,,,,,,,,,False,33,34,True,exp4.png,exp3.png,trial_right_image,-1,exp3.png,2,exp3.png,exp4.png,1,3,reversed,correct,0.9329579798742473,1,valid_win,202.58073570000033,17,,,,,,,,,,,,,,sub_810,2024-11-24_13h45.04.422,Reversal,2023.1.3,59.983360615849456,2,
14,exp1.png,exp2.png,,1,0,1,0,0,14,14,14,,,,,,,,,,,,,,,,,,,,,,,,,False,34,35,False,exp1.png,exp2.png,trial_left_image,1,exp1.png,2,exp1.png,exp2.png,1,1,non-reversed,correct,0.5868577740808828,1,valid_win,207.1785716000004,18,,,,,,,,,,,,,,sub_810,2024-11-24_13h45.04.422,Reversal,2023.1.3,59.983360615849456,2,
15,exp3.png,exp4.png,,1,0,1,0,0,15,15,15,,,,,,,,,,,,,,,,,,,,,,,,,False,35,36,False,exp3.png,exp4.png,trial_right_image,-1,exp4.png,2,exp3.png,exp4.png,0,4,reversed,incorrect,0.0789324061462594,1,invalid_win,211.97746129999996,19,,,,,,,,,,,,,,sub_810,2024-11-24_13h45.04.422,Reversal,2023.1.3,59.983360615849456,2,
16,exp1.png,exp2.png,,1,0,1,0,0,16,16,16,,,,,,,,,,,,,,,,,,,,,,,,,False,36,37,True,exp2.png,exp1.png,trial_right_image,-1,exp1.png,2,exp1.png,exp2.png,1,1,non-reversed,correct,0.5626646484575506,1,valid_win,216.45870100000047,20,,,,,,,,,,,,,,sub_810,2024-11-24_13h45.04.422,Reversal,2023.1.3,59.983360615849456,2,
17,exp3.png,exp4.png,,1,0,1,0,0,17,17,17,,,,,,,,,,,,,,,,,,,,,,,,,False,37,38,True,exp4.png,exp3.png,trial_right_image,-1,exp3.png,2,exp3.png,exp4.png,1,3,reversed,correct,0.916418515733295,1,valid_win,221.17386710000028,21,,,,,,,,,,,,,,sub_810,2024-11-24_13h45.04.422,Reversal,2023.1.3,59.983360615849456,2,
18,exp1.png,exp2.png,,1,0,1,0,0,18,18,18,,,,,,,,,,,,,,,,,,,,,,,,,False,38,39,True,exp2.png,exp1.png,trial_left_image,1,exp2.png,2,exp1.png,exp2.png,0,2,non-reversed,incorrect,0.14533129760965124,1,invalid_win,225.40591550000045,22,,,,,,,,,,,,,,sub_810,2024-11-24_13h45.04.422,Reversal,2023.1.3,59.983360615849456,2,
19,exp3.png,exp4.png,,1,0,1,0,0,19,19,19,,,,,,,,,,,,,,,,,,,,,,,,,False,39,40,True,exp4.png,exp3.png,trial_left_image,1,exp4.png,2,exp3.png,exp4.png,0,4,reversed,incorrect,0.7594105754174256,0,valid_lose,229.48776069999985,22,,,,,,,,,,,,,,sub_810,2024-11-24_13h45.04.422,Reversal,2023.1.3,59.983360615849456,2,
20,exp1.png,exp2.png,,1,0,1,0,0,20,20,20,,,,,,,,,,,,,,,,,,,,,,,,,True,,,,,,,,,,,,,,,,,,,,,,,,,,,,,,,,,,sub_810,2024-11-24_13h45.04.422,Reversal,2023.1.3,59.983360615849456,2,
,,,exp1.png,1,0,1,0,,,,,0,0,0,0,0,0,0,0,,,,,,,,,,,,,,,,,,,,,,,,,,,,,,,,,,,,,,319.5869542999999,,None,None,[],,,,,,,,,sub_810,2024-11-24_13h45.04.422,Reversal,2023.1.3,59.983360615849456,2,
,,,exp2.png,1,0,1,0,,,,,0,0,0,0,0,1,1,1,,,,,,,,,,,,,,,,,,,,,,,,,,,,,,,,,,,,,,322.1545449999994,,None,None,[],,,,,,,,,sub_810,2024-11-24_13h45.04.422,Reversal,2023.1.3,59.983360615849456,2,
,,,exp3.png,1,0,1,0,,,,,0,0,0,0,0,2,2,2,,,,,,,,,,,,,,,,,,,,,,,,,,,,,,,,,,,,,,324.0383533999993,,None,None,[],,,,,,,,,sub_810,2024-11-24_13h45.04.422,Reversal,2023.1.3,59.983360615849456,2,
,,,exp4.png,1,0,1,0,,,,,0,0,0,0,0,3,3,3,,,,,,,,,,,,,,,,,,,,,,,,,,,,,,,,,,,,,,325.57081130000006,,None,None,[],,,,,,,,,sub_810,2024-11-24_13h45.04.422,Reversal,2023.1.3,59.983360615849456,2,
0,exp1.png,exp2.png,,2,0,2,0,0,0,0,0,,,,,,,,,,,,,,,,,,,,,,,,,False,40,41,False,exp1.png,exp2.png,trial_right_image,-1,exp2.png,2,exp1.png,exp2.png,0,2,non-reversed,incorrect,0.8425681188178058,0,valid_lose,241.51679299999978,22,,,,,,,,,,,,,,sub_810,2024-11-24_13h45.04.422,Reversal,2023.1.3,59.983360615849456,2,
1,exp3.png,exp4.png,,2,0,2,0,0,1,1,1,,,,,,,,,,,,,,,,,,,,,,,,,False,41,42,False,exp3.png,exp4.png,trial_right_image,-1,exp4.png,2,exp3.png,exp4.png,0,4,reversed,incorrect,0.5432186388265532,0,valid_lose,245.9152221000004,22,,,,,,,,,,,,,,sub_810,2024-11-24_13h45.04.422,Reversal,2023.1.3,59.983360615849456,2,
2,exp1.png,exp2.png,,2,0,2,0,0,2,2,2,,,,,,,,,,,,,,,,,,,,,,,,,False,42,43,True,exp2.png,exp1.png,trial_left_image,1,exp2.png,2,exp1.png,exp2.png,0,2,non-reversed,incorrect,0.6720102243230206,0,valid_lose,249.9641198999998,22,,,,,,,,,,,,,,sub_810,2024-11-24_13h45.04.422,Reversal,2023.1.3,59.983360615849456,2,
3,exp3.png,exp4.png,,2,0,2,0,0,3,3,3,,,,,,,,,,,,,,,,,,,,,,,,,False,43,44,False,exp3.png,exp4.png,trial_left_image,1,exp3.png,2,exp3.png,exp4.png,1,3,reversed,correct,0.7844938805312243,1,valid_win,253.91304620000028,23,,,,,,,,,,,,,,sub_810,2024-11-24_13h45.04.422,Reversal,2023.1.3,59.983360615849456,2,
4,exp1.png,exp2.png,,2,0,2,0,0,4,4,4,,,,,,,,,,,,,,,,,,,,,,,,,False,44,45,True,exp2.png,exp1.png,trial_right_image,-1,exp1.png,2,exp1.png,exp2.png,1,1,non-reversed,correct,0.657960342488435,1,valid_win,258.36152049999964,24,,,,,,,,,,,,,,sub_810,2024-11-24_13h45.04.422,Reversal,2023.1.3,59.983360615849456,2,
5,exp3.png,exp4.png,,2,0,2,0,0,5,5,5,,,,,,,,,,,,,,,,,,,,,,,,,False,45,46,True,exp4.png,exp3.png,trial_right_image,-1,exp3.png,2,exp3.png,exp4.png,1,3,reversed,correct,0.2534712358467959,1,valid_win,262.6098313000002,25,,,,,,,,,,,,,,sub_810,2024-11-24_13h45.04.422,Reversal,2023.1.3,59.983360615849456,2,
6,exp1.png,exp2.png,,2,0,2,0,0,6,6,6,,,,,,,,,,,,,,,,,,,,,,,,,False,46,47,True,exp2.png,exp1.png,trial_right_image,-1,exp1.png,2,exp1.png,exp2.png,1,1,non-reversed,correct,0.829078719459737,1,valid_win,266.7414835999998,26,,,,,,,,,,,,,,sub_810,2024-11-24_13h45.04.422,Reversal,2023.1.3,59.983360615849456,2,
7,exp3.png,exp4.png,,2,0,2,0,0,7,7,7,,,,,,,,,,,,,,,,,,,,,,,,,False,47,48,False,exp3.png,exp4.png,trial_left_image,1,exp3.png,2,exp3.png,exp4.png,1,3,reversed,correct,0.28925483943035024,1,valid_win,271.4402667000004,27,,,,,,,,,,,,,,sub_810,2024-11-24_13h45.04.422,Reversal,2023.1.3,59.983360615849456,2,
8,exp1.png,exp2.png,,2,0,2,0,0,8,8,8,,,,,,,,,,,,,,,,,,,,,,,,,False,48,49,False,exp1.png,exp2.png,trial_right_image,-1,exp2.png,2,exp1.png,exp2.png,0,2,non-reversed,incorrect,0.22075821126862927,1,invalid_win,275.40581440000005,28,,,,,,,,,,,,,,sub_810,2024-11-24_13h45.04.422,Reversal,2023.1.3,59.983360615849456,2,
9,exp3.png,exp4.png,,2,0,2,0,0,9,9,9,,,,,,,,,,,,,,,,,,,,,,,,,False,49,50,False,exp3.png,exp4.png,trial_right_image,-1,exp4.png,2,exp3.png,exp4.png,0,4,reversed,incorrect,0.9182655125057876,0,valid_lose,279.3040565000001,28,,,,,,,,,,,,,,sub_810,2024-11-24_13h45.04.422,Reversal,2023.1.3,59.983360615849456,2,
10,exp1.png,exp2.png,,2,0,2,0,0,10,10,10,,,,,,,,,,,,,,,,,,,,,,,,,False,50,51,True,exp2.png,exp1.png,trial_left_image,1,exp2.png,2,exp1.png,exp2.png,0,2,non-reversed,incorrect,0.6192232818117166,0,valid_lose,283.1865883999999,28,,,,,,,,,,,,,,sub_810,2024-11-24_13h45.04.422,Reversal,2023.1.3,59.983360615849456,2,
11,exp3.png,exp4.png,,2,0,2,0,0,11,11,11,,,,,,,,,,,,,,,,,,,,,,,,,False,51,52,False,exp3.png,exp4.png,trial_left_image,1,exp3.png,2,exp3.png,exp4.png,1,3,reversed,correct,0.9783104448303359,1,valid_win,287.1684666000001,29,,,,,,,,,,,,,,sub_810,2024-11-24_13h45.04.422,Reversal,2023.1.3,59.983360615849456,2,
12,exp1.png,exp2.png,,2,0,2,0,0,12,12,12,,,,,,,,,,,,,,,,,,,,,,,,,False,52,53,True,exp2.png,exp1.png,trial_left_image,1,exp2.png,2,exp1.png,exp2.png,0,2,non-reversed,incorrect,0.24198578760970169,1,invalid_win,291.4000087000004,30,,,,,,,,,,,,,,sub_810,2024-11-24_13h45.04.422,Reversal,2023.1.3,59.983360615849456,2,
13,exp3.png,exp4.png,,2,0,2,0,0,13,13,13,,,,,,,,,,,,,,,,,,,,,,,,,False,53,54,True,exp4.png,exp3.png,trial_right_image,-1,exp3.png,2,exp3.png,exp4.png,1,3,reversed,correct,0.5652527845496569,1,valid_win,295.33186579999983,31,,,,,,,,,,,,,,sub_810,2024-11-24_13h45.04.422,Reversal,2023.1.3,59.983360615849456,2,
14,exp1.png,exp2.png,,2,0,2,0,0,14,14,14,,,,,,,,,,,,,,,,,,,,,,,,,False,54,55,True,exp2.png,exp1.png,trial_right_image,-1,exp1.png,2,exp1.png,exp2.png,1,1,non-reversed,correct,0.3482728995052373,1,valid_win,299.21398580000005,32,,,,,,,,,,,,,,sub_810,2024-11-24_13h45.04.422,Reversal,2023.1.3,59.983360615849456,2,
15,exp3.png,exp4.png,,2,0,2,0,0,15,15,15,,,,,,,,,,,,,,,,,,,,,,,,,False,55,56,False,exp3.png,exp4.png,trial_left_image,1,exp3.png,2,exp3.png,exp4.png,1,3,reversed,correct,0.3077451740078012,1,valid_win,303.82905110000047,33,,,,,,,,,,,,,,sub_810,2024-11-24_13h45.04.422,Reversal,2023.1.3,59.983360615849456,2,
16,exp1.png,exp2.png,,2,0,2,0,0,16,16,16,,,,,,,,,,,,,,,,,,,,,,,,,False,56,57,False,exp1.png,exp2.png,trial_left_image,1,exp1.png,2,exp1.png,exp2.png,1,1,non-reversed,correct,0.9823212428377575,1,valid_win,307.7947637999996,34,,,,,,,,,,,,,,sub_810,2024-11-24_13h45.04.422,Reversal,2023.1.3,59.983360615849456,2,
17,exp3.png,exp4.png,,2,0,2,0,0,17,17,17,,,,,,,,,,,,,,,,,,,,,,,,,False,57,58,False,exp3.png,exp4.png,trial_right_image,-1,exp4.png,2,exp3.png,exp4.png,0,4,reversed,incorrect,0.5632680638681181,0,valid_lose,311.8264681999999,34,,,,,,,,,,,,,,sub_810,2024-11-24_13h45.04.422,Reversal,2023.1.3,59.983360615849456,2,
18,exp1.png,exp2.png,,2,0,2,0,0,18,18,18,,,,,,,,,,,,,,,,,,,,,,,,,False,58,59,True,exp2.png,exp1.png,trial_left_image,1,exp2.png,2,exp1.png,exp2.png,0,2,non-reversed,incorrect,0.3575217098292869,0,valid_lose,315.99179639999966,34,,,,,,,,,,,,,,sub_810,2024-11-24_13h45.04.422,Reversal,2023.1.3,59.983360615849456,2,
19,exp3.png,exp4.png,,2,0,2,0,0,19,19,19,,,,,,,,,,,,,,,,,,,,,,,,,False,59,60,True,exp4.png,exp3.png,trial_left_image,1,exp4.png,2,exp3.png,exp4.png,0,4,reversed,incorrect,0.36001330121147845,0,valid_lose,320.5734418000002,34,,,,,,,,,,,,,,sub_810,2024-11-24_13h45.04.422,Reversal,2023.1.3,59.983360615849456,2,
20,exp1.png,exp2.png,,2,0,2,0,0,20,20,20,,,,,,,,,,,,,,,,,,,,,,,,,True,,,,,,,,,,,,,,,,,,,,,,,,,,,,,,,,,,sub_810,2024-11-24_13h45.04.422,Reversal,2023.1.3,59.983360615849456,2,
,,,exp1.png,2,0,2,0,,,,,0,0,0,0,0,0,0,0,,,,,,,,,,,,,,,,,,,,,,,,,,,,,,,,,,,,,,410.67700199999945,,None,None,[],,,,,,,,,sub_810,2024-11-24_13h45.04.422,Reversal,2023.1.3,59.983360615849456,2,
,,,exp2.png,2,0,2,0,,,,,0,0,0,0,0,1,1,1,,,,,,,,,,,,,,,,,,,,,,,,,,,,,,,,,,,,,,412.3576282999993,,None,None,[],,,,,,,,,sub_810,2024-11-24_13h45.04.422,Reversal,2023.1.3,59.983360615849456,2,
,,,exp3.png,2,0,2,0,,,,,0,0,0,0,0,2,2,2,,,,,,,,,,,,,,,,,,,,,,,,,,,,,,,,,,,,,,413.6735211999994,,None,None,[],,,,,,,,,sub_810,2024-11-24_13h45.04.422,Reversal,2023.1.3,59.983360615849456,2,
,,,exp4.png,2,0,2,0,,,,,0,0,0,0,0,3,3,3,,,,,,,,,,,,,,,,,,,,,,,,,,,,,,,,,,,,,,414.7755969,,None,None,[],,,,,,,,,sub_810,2024-11-24_13h45.04.422,Reversal,2023.1.3,59.983360615849456,2,
0,exp1.png,exp2.png,,3,0,3,0,0,0,0,0,,,,,,,,,,,,,,,,,,,,,,,,,False,60,61,False,exp1.png,exp2.png,trial_right_image,-1,exp2.png,2,exp1.png,exp2.png,0,2,non-reversed,incorrect,0.527973607004145,0,valid_lose,332.83594919999996,34,,,,,,,,,,,,,,sub_810,2024-11-24_13h45.04.422,Reversal,2023.1.3,59.983360615849456,2,
1,exp3.png,exp4.png,,3,0,3,0,0,1,1,1,,,,,,,,,,,,,,,,,,,,,,,,,False,61,62,True,exp4.png,exp3.png,trial_left_image,1,exp4.png,2,exp3.png,exp4.png,0,4,reversed,incorrect,0.3279490069550479,0,valid_lose,337.13463820000015,34,,,,,,,,,,,,,,sub_810,2024-11-24_13h45.04.422,Reversal,2023.1.3,59.983360615849456,2,
2,exp1.png,exp2.png,,3,0,3,0,0,2,2,2,,,,,,,,,,,,,,,,,,,,,,,,,False,62,63,False,exp1.png,exp2.png,trial_left_image,1,exp1.png,2,exp1.png,exp2.png,1,1,non-reversed,correct,0.8783096354904892,1,valid_win,341.23311960000046,35,,,,,,,,,,,,,,sub_810,2024-11-24_13h45.04.422,Reversal,2023.1.3,59.983360615849456,2,
3,exp3.png,exp4.png,,3,0,3,0,0,3,3,3,,,,,,,,,,,,,,,,,,,,,,,,,False,63,64,True,exp4.png,exp3.png,trial_left_image,1,exp4.png,2,exp3.png,exp4.png,0,4,reversed,incorrect,0.39069731843625277,0,valid_lose,345.8150337999996,35,,,,,,,,,,,,,,sub_810,2024-11-24_13h45.04.422,Reversal,2023.1.3,59.983360615849456,2,
4,exp1.png,exp2.png,,3,0,3,0,0,4,4,4,,,,,,,,,,,,,,,,,,,,,,,,,False,64,65,True,exp2.png,exp1.png,trial_left_image,1,exp2.png,2,exp1.png,exp2.png,0,2,non-reversed,incorrect,0.17558120751440898,1,invalid_win,349.9801374999997,36,,,,,,,,,,,,,,sub_810,2024-11-24_13h45.04.422,Reversal,2023.1.3,59.983360615849456,2,
5,exp3.png,exp4.png,,3,0,3,0,0,5,5,5,,,,,,,,,,,,,,,,,,,,,,,,,False,65,66,False,exp3.png,exp4.png,trial_right_image,-1,exp4.png,2,exp3.png,exp4.png,0,4,reversed,incorrect,0.5408440323966363,0,valid_lose,354.3450743000003,36,,,,,,,,,,,,,,sub_810,2024-11-24_13h45.04.422,Reversal,2023.1.3,59.983360615849456,2,
6,exp1.png,exp2.png,,3,0,3,0,0,6,6,6,,,,,,,,,,,,,,,,,,,,,,,,,False,66,67,True,exp2.png,exp1.png,trial_right_image,-1,exp1.png,2,exp1.png,exp2.png,1,1,non-reversed,correct,0.4764431280247373,1,valid_win,358.24392009999974,37,,,,,,,,,,,,,,sub_810,2024-11-24_13h45.04.422,Reversal,2023.1.3,59.983360615849456,2,
7,exp3.png,exp4.png,,3,0,3,0,0,7,7,7,,,,,,,,,,,,,,,,,,,,,,,,,False,67,68,False,exp3.png,exp4.png,trial_right_image,-1,exp4.png,2,exp3.png,exp4.png,0,4,reversed,incorrect,0.5300713271564066,0,valid_lose,362.17624069999965,37,,,,,,,,,,,,,,sub_810,2024-11-24_13h45.04.422,Reversal,2023.1.3,59.983360615849456,2,
8,exp1.png,exp2.png,,3,0,3,0,0,8,8,8,,,,,,,,,,,,,,,,,,,,,,,,,False,68,69,False,exp1.png,exp2.png,trial_left_image,1,exp1.png,2,exp1.png,exp2.png,1,1,non-reversed,correct,0.32438705422144276,1,valid_win,366.3920512000004,38,,,,,,,,,,,,,,sub_810,2024-11-24_13h45.04.422,Reversal,2023.1.3,59.983360615849456,2,
9,exp3.png,exp4.png,,3,0,3,0,0,9,9,9,,,,,,,,,,,,,,,,,,,,,,,,,False,69,70,True,exp4.png,exp3.png,trial_left_image,1,exp4.png,2,exp3.png,exp4.png,0,4,reversed,incorrect,0.5006451223415979,0,valid_lose,370.35920929999975,38,,,,,,,,,,,,,,sub_810,2024-11-24_13h45.04.422,Reversal,2023.1.3,59.983360615849456,2,
10,exp1.png,exp2.png,,3,0,3,0,0,10,10,10,,,,,,,,,,,,,,,,,,,,,,,,,False,70,71,True,exp2.png,exp1.png,trial_left_image,1,exp2.png,2,exp1.png,exp2.png,0,2,non-reversed,incorrect,0.5282311259427714,0,valid_lose,375.1217747999999,38,,,,,,,,,,,,,,sub_810,2024-11-24_13h45.04.422,Reversal,2023.1.3,59.983360615849456,2,
11,exp3.png,exp4.png,,3,0,3,0,0,11,11,11,,,,,,,,,,,,,,,,,,,,,,,,,False,71,72,False,exp3.png,exp4.png,trial_right_image,-1,exp4.png,2,exp3.png,exp4.png,0,4,reversed,incorrect,0.6018897924291073,0,valid_lose,378.9709181999997,38,,,,,,,,,,,,,,sub_810,2024-11-24_13h45.04.422,Reversal,2023.1.3,59.983360615849456,2,
12,exp1.png,exp2.png,,3,0,3,0,0,12,12,12,,,,,,,,,,,,,,,,,,,,,,,,,False,72,73,False,exp1.png,exp2.png,trial_right_image,-1,exp2.png,2,exp1.png,exp2.png,0,2,non-reversed,incorrect,0.014827171406321837,1,invalid_win,382.8195917000003,39,,,,,,,,,,,,,,sub_810,2024-11-24_13h45.04.422,Reversal,2023.1.3,59.983360615849456,2,
13,exp3.png,exp4.png,,3,0,3,0,0,13,13,13,,,,,,,,,,,,,,,,,,,,,,,,,False,73,74,False,exp3.png,exp4.png,trial_right_image,-1,exp4.png,2,exp3.png,exp4.png,0,4,reversed,incorrect,0.9788874004651088,0,valid_lose,386.93421539999963,39,,,,,,,,,,,,,,sub_810,2024-11-24_13h45.04.422,Reversal,2023.1.3,59.983360615849456,2,
14,exp1.png,exp2.png,,3,0,3,0,0,14,14,14,,,,,,,,,,,,,,,,,,,,,,,,,False,74,75,False,exp1.png,exp2.png,trial_right_image,-1,exp2.png,2,exp1.png,exp2.png,0,2,non-reversed,incorrect,0.34081206512368445,0,valid_lose,390.7504011000001,39,,,,,,,,,,,,,,sub_810,2024-11-24_13h45.04.422,Reversal,2023.1.3,59.983360615849456,2,
15,exp3.png,exp4.png,,3,0,3,0,0,15,15,15,,,,,,,,,,,,,,,,,,,,,,,,,False,75,76,True,exp4.png,exp3.png,trial_left_image,1,exp4.png,2,exp3.png,exp4.png,0,4,reversed,incorrect,0.007474907835640754,1,invalid_win,394.5657871000003,40,,,,,,,,,,,,,,sub_810,2024-11-24_13h45.04.422,Reversal,2023.1.3,59.983360615849456,2,
16,exp1.png,exp2.png,,3,0,3,0,0,16,16,16,,,,,,,,,,,,,,,,,,,,,,,,,False,76,77,True,exp2.png,exp1.png,trial_right_image,-1,exp1.png,2,exp1.png,exp2.png,1,1,non-reversed,correct,0.3146155078603964,1,valid_win,399.28011530000003,41,,,,,,,,,,,,,,sub_810,2024-11-24_13h45.04.422,Reversal,2023.1.3,59.983360615849456,2,
17,exp3.png,exp4.png,,3,0,3,0,0,17,17,17,,,,,,,,,,,,,,,,,,,,,,,,,False,77,78,True,exp4.png,exp3.png,trial_left_image,1,exp4.png,2,exp3.png,exp4.png,0,4,reversed,incorrect,0.6218894881544955,0,valid_lose,403.77874559999964,41,,,,,,,,,,,,,,sub_810,2024-11-24_13h45.04.422,Reversal,2023.1.3,59.983360615849456,2,
18,exp1.png,exp2.png,,3,0,3,0,0,18,18,18,,,,,,,,,,,,,,,,,,,,,,,,,False,78,79,True,exp2.png,exp1.png,trial_left_image,1,exp2.png,2,exp1.png,exp2.png,0,2,non-reversed,incorrect,0.2399729191473461,1,invalid_win,408.4936581000002,42,,,,,,,,,,,,,,sub_810,2024-11-24_13h45.04.422,Reversal,2023.1.3,59.983360615849456,2,
19,exp3.png,exp4.png,,3,0,3,0,0,19,19,19,,,,,,,,,,,,,,,,,,,,,,,,,False,79,80,False,exp3.png,exp4.png,trial_right_image,-1,exp4.png,2,exp3.png,exp4.png,0,4,reversed,incorrect,0.2070526451557818,1,invalid_win,412.67546800000036,43,,,,,,,,,,,,,,sub_810,2024-11-24_13h45.04.422,Reversal,2023.1.3,59.983360615849456,2,
20,exp1.png,exp2.png,,3,0,3,0,0,20,20,20,,,,,,,,,,,,,,,,,,,,,,,,,True,,,,,,,,,,,,,,,,,,,,,,,,,,,,,,,,,,sub_810,2024-11-24_13h45.04.422,Reversal,2023.1.3,59.983360615849456,2,
,,,exp1.png,3,0,3,0,,,,,0,0,0,0,0,0,0,0,,,,,,,,,,,,,,,,,,,,,,,,,,,,,,,,,,,,,,502.7735626999993,,None,None,[],,,,,,,,,sub_810,2024-11-24_13h45.04.422,Reversal,2023.1.3,59.983360615849456,2,
,,,exp2.png,3,0,3,0,,,,,0,0,0,0,0,1,1,1,,,,,,,,,,,,,,,,,,,,,,,,,,,,,,,,,,,,,,504.8765801999998,,None,None,[],,,,,,,,,sub_810,2024-11-24_13h45.04.422,Reversal,2023.1.3,59.983360615849456,2,
,,,exp3.png,3,0,3,0,,,,,0,0,0,0,0,2,2,2,,,,,,,,,,,,,,,,,,,,,,,,,,,,,,,,,,,,,,505.80913169999985,,None,None,[],,,,,,,,,sub_810,2024-11-24_13h45.04.422,Reversal,2023.1.3,59.983360615849456,2,
,,,exp4.png,3,0,3,0,,,,,0,0,0,0,0,3,3,3,,,,,,,,,,,,,,,,,,,,,,,,,,,,,,,,,,,,,,506.8752236999999,,None,None,[],,,,,,,,,sub_810,2024-11-24_13h45.04.422,Reversal,2023.1.3,59.983360615849456,2,
0,exp1.png,exp2.png,,,,,,,,,,,,,,,,,,0,0,0,0,0,0,0,0,,,,,,,,,False,0,81,False,exp1.png,exp2.png,trial_right_image,-1,exp2.png,2,exp1.png,exp2.png,0,2,non-reversed,incorrect,0.16188437341205575,1,invalid_win,422.25582440000017,44,,,,,,,,420.3464654999998,,,,,,sub_810,2024-11-24_13h45.04.422,Reversal,2023.1.3,59.983360615849456,2,
1,exp3.png,exp4.png,,,,,,,,,,,,,,,,,,0,0,0,0,0,1,1,1,,,,,,,,,False,1,82,False,exp3.png,exp4.png,trial_left_image,1,exp3.png,2,exp4.png,exp3.png,1,3,reversed,incorrect,0.665304660634753,0,valid_lose,426.62074050000047,44,,,,,,,,,,,,,,sub_810,2024-11-24_13h45.04.422,Reversal,2023.1.3,59.983360615849456,2,
2,exp1.png,exp2.png,,,,,,,,,,,,,,,,,,0,0,0,0,0,2,2,2,,,,,,,,,False,2,83,True,exp2.png,exp1.png,trial_right_image,-1,exp1.png,2,exp1.png,exp2.png,1,1,non-reversed,correct,0.142197799895734,0,invalid_lose,430.58661610000036,44,,,,,,,,,,,,,,sub_810,2024-11-24_13h45.04.422,Reversal,2023.1.3,59.983360615849456,2,
3,exp3.png,exp4.png,,,,,,,,,,,,,,,,,,0,0,0,0,0,3,3,3,,,,,,,,,False,3,84,False,exp3.png,exp4.png,trial_right_image,-1,exp4.png,2,exp4.png,exp3.png,0,4,reversed,correct,0.6702628578668172,1,valid_win,435.28500559999975,45,,,,,,,,,,,,,,sub_810,2024-11-24_13h45.04.422,Reversal,2023.1.3,59.983360615849456,2,
4,exp1.png,exp2.png,,,,,,,,,,,,,,,,,,0,0,0,0,0,4,4,4,,,,,,,,,False,4,85,False,exp1.png,exp2.png,trial_left_image,1,exp1.png,2,exp1.png,exp2.png,1,1,non-reversed,correct,0.7503097961633212,1,valid_win,439.7500560999997,46,,,,,,,,,,,,,,sub_810,2024-11-24_13h45.04.422,Reversal,2023.1.3,59.983360615849456,2,
5,exp3.png,exp4.png,,,,,,,,,,,,,,,,,,0,0,0,0,0,5,5,5,,,,,,,,,False,5,86,True,exp4.png,exp3.png,trial_right_image,-1,exp3.png,2,exp4.png,exp3.png,1,3,reversed,incorrect,0.049148150152857006,1,invalid_win,444.9650902000003,47,,,,,,,,,,,,,,sub_810,2024-11-24_13h45.04.422,Reversal,2023.1.3,59.983360615849456,2,
6,exp1.png,exp2.png,,,,,,,,,,,,,,,,,,0,0,0,0,0,6,6,6,,,,,,,,,False,6,87,True,exp2.png,exp1.png,trial_left_image,1,exp2.png,2,exp1.png,exp2.png,0,2,non-reversed,incorrect,0.8610375891043054,0,valid_lose,449.26328100000046,47,,,,,,,,,,,,,,sub_810,2024-11-24_13h45.04.422,Reversal,2023.1.3,59.983360615849456,2,
7,exp3.png,exp4.png,,,,,,,,,,,,,,,,,,0,0,0,0,0,7,7,7,,,,,,,,,False,7,88,True,exp4.png,exp3.png,trial_right_image,-1,exp3.png,2,exp4.png,exp3.png,1,3,reversed,incorrect,0.02174113900399266,1,invalid_win,453.0617619000004,48,,,,,,,,,,,,,,sub_810,2024-11-24_13h45.04.422,Reversal,2023.1.3,59.983360615849456,2,
8,exp1.png,exp2.png,,,,,,,,,,,,,,,,,,0,0,0,0,0,8,8,8,,,,,,,,,False,8,89,True,exp2.png,exp1.png,trial_left_image,1,exp2.png,2,exp1.png,exp2.png,0,2,non-reversed,incorrect,0.6037659898928349,0,valid_lose,457.97695490000024,48,,,,,,,,,,,,,,sub_810,2024-11-24_13h45.04.422,Reversal,2023.1.3,59.983360615849456,2,
9,exp3.png,exp4.png,,,,,,,,,,,,,,,,,,0,0,0,0,0,9,9,9,,,,,,,,,False,9,90,True,exp4.png,exp3.png,trial_right_image,-1,exp3.png,2,exp4.png,exp3.png,1,3,reversed,incorrect,0.5477105597153634,0,valid_lose,461.72542799999974,48,,,,,,,,,,,,,,sub_810,2024-11-24_13h45.04.422,Reversal,2023.1.3,59.983360615849456,2,
10,exp1.png,exp2.png,,,,,,,,,,,,,,,,,,0,0,0,0,0,10,10,10,,,,,,,,,False,10,91,True,exp2.png,exp1.png,trial_left_image,1,exp2.png,2,exp1.png,exp2.png,0,2,non-reversed,incorrect,0.9179857114694291,0,valid_lose,465.60756820000006,48,,,,,,,,,,,,,,sub_810,2024-11-24_13h45.04.422,Reversal,2023.1.3,59.983360615849456,2,
11,exp3.png,exp4.png,,,,,,,,,,,,,,,,,,0,0,0,0,0,11,11,11,,,,,,,,,False,11,92,True,exp4.png,exp3.png,trial_left_image,1,exp4.png,2,exp4.png,exp3.png,0,4,reversed,correct,0.30658712082715756,1,valid_win,469.4231388999997,49,,,,,,,,,,,,,,sub_810,2024-11-24_13h45.04.422,Reversal,2023.1.3,59.983360615849456,2,
12,exp1.png,exp2.png,,,,,,,,,,,,,,,,,,0,0,0,0,0,12,12,12,,,,,,,,,False,12,93,True,exp2.png,exp1.png,trial_right_image,-1,exp1.png,2,exp1.png,exp2.png,1,1,non-reversed,correct,0.040634301444254284,0,invalid_lose,473.4384356999999,49,,,,,,,,,,,,,,sub_810,2024-11-24_13h45.04.422,Reversal,2023.1.3,59.983360615849456,2,
13,exp3.png,exp4.png,,,,,,,,,,,,,,,,,,0,0,0,0,0,13,13,13,,,,,,,,,False,13,94,False,exp3.png,exp4.png,trial_right_image,-1,exp4.png,2,exp4.png,exp3.png,0,4,reversed,correct,0.9525229101027971,1,valid_win,477.32041540000046,50,,,,,,,,,,,,,,sub_810,2024-11-24_13h45.04.422,Reversal,2023.1.3,59.983360615849456,2,
14,exp1.png,exp2.png,,,,,,,,,,,,,,,,,,0,0,0,0,0,14,14,14,,,,,,,,,False,14,95,False,exp1.png,exp2.png,trial_right_image,-1,exp2.png,2,exp1.png,exp2.png,0,2,non-reversed,incorrect,0.18595726096433263,1,invalid_win,481.6188573999998,51,,,,,,,,,,,,,,sub_810,2024-11-24_13h45.04.422,Reversal,2023.1.3,59.983360615849456,2,
15,exp3.png,exp4.png,,,,,,,,,,,,,,,,,,0,0,0,0,0,15,15,15,,,,,,,,,False,15,96,False,exp3.png,exp4.png,trial_right_image,-1,exp4.png,2,exp4.png,exp3.png,0,4,reversed,correct,0.5904116955962543,1,valid_win,485.56740379999974,52,,,,,,,,,,,,,,sub_810,2024-11-24_13h45.04.422,Reversal,2023.1.3,59.983360615849456,2,
16,exp1.png,exp2.png,,,,,,,,,,,,,,,,,,0,0,0,0,0,16,16,16,,,,,,,,,False,16,97,False,exp1.png,exp2.png,trial_left_image,1,exp1.png,2,exp1.png,exp2.png,1,1,non-reversed,correct,0.5447820028944445,1,valid_win,490.5491546000003,53,,,,,,,,,,,,,,sub_810,2024-11-24_13h45.04.422,Reversal,2023.1.3,59.983360615849456,2,
17,exp3.png,exp4.png,,,,,,,,,,,,,,,,,,0,0,0,0,0,17,17,17,,,,,,,,,False,17,98,True,exp4.png,exp3.png,trial_right_image,-1,exp3.png,2,exp4.png,exp3.png,1,3,reversed,incorrect,0.3817406980317283,0,valid_lose,494.6982068999996,53,,,,,,,,,,,,,,sub_810,2024-11-24_13h45.04.422,Reversal,2023.1.3,59.983360615849456,2,
18,exp1.png,exp2.png,,,,,,,,,,,,,,,,,,0,0,0,0,0,18,18,18,,,,,,,,,False,18,99,False,exp1.png,exp2.png,trial_right_image,-1,exp2.png,2,exp1.png,exp2.png,0,2,non-reversed,incorrect,0.8002098937580479,0,valid_lose,498.4799098000003,53,,,,,,,,,,,,,,sub_810,2024-11-24_13h45.04.422,Reversal,2023.1.3,59.983360615849456,2,
19,exp3.png,exp4.png,,,,,,,,,,,,,,,,,,0,0,0,0,0,19,19,19,,,,,,,,,False,19,100,False,exp3.png,exp4.png,trial_right_image,-1,exp4.png,2,exp4.png,exp3.png,0,4,reversed,correct,0.6448693330419243,1,valid_win,502.3120993000002,54,,,,,,,,,,,,,,sub_810,2024-11-24_13h45.04.422,Reversal,2023.1.3,59.983360615849456,2,
20,exp1.png,exp2.png,,,,,,,,,,,,,,,,,,0,0,0,0,0,20,20,20,,,,,,,,,True,,,,,,,,,,,,,,,,,,,,,,,,,,,,,,,,,,sub_810,2024-11-24_13h45.04.422,Reversal,2023.1.3,59.983360615849456,2,
,,,exp1.png,,,,,,,,,,,,,,,,,0,0,0,0,,,,,0,0,0,0,0,0,0,0,,,,,,,,,,,,,,,,,,,,,,592.4170856000001,,None,None,[],,,,,,,,,sub_810,2024-11-24_13h45.04.422,Reversal,2023.1.3,59.983360615849456,2,
,,,exp2.png,,,,,,,,,,,,,,,,,0,0,0,0,,,,,0,0,0,0,0,1,1,1,,,,,,,,,,,,,,,,,,,,,,595.0640104999993,,None,None,[],,,,,,,,,sub_810,2024-11-24_13h45.04.422,Reversal,2023.1.3,59.983360615849456,2,
,,,exp3.png,,,,,,,,,,,,,,,,,0,0,0,0,,,,,0,0,0,0,0,2,2,2,,,,,,,,,,,,,,,,,,,,,,596.7781860999994,,None,None,[],,,,,,,,,sub_810,2024-11-24_13h45.04.422,Reversal,2023.1.3,59.983360615849456,2,
,,,exp4.png,,,,,,,,,,,,,,,,,0,0,0,0,,,,,0,0,0,0,0,3,3,3,,,,,,,,,,,,,,,,,,,,,,599.0265571999998,,None,None,[],,,,,,,,,sub_810,2024-11-24_13h45.04.422,Reversal,2023.1.3,59.983360615849456,2,
0,exp1.png,exp2.png,,,,,,,,,,,,,,,,,,1,0,1,0,0,0,0,0,,,,,,,,,False,20,101,True,exp2.png,exp1.png,trial_left_image,1,exp2.png,2,exp1.png,exp2.png,0,2,non-reversed,incorrect,0.9539122807558654,0,valid_lose,515.2427808000002,54,,,,,,,,,,,,,,sub_810,2024-11-24_13h45.04.422,Reversal,2023.1.3,59.983360615849456,2,
1,exp3.png,exp4.png,,,,,,,,,,,,,,,,,,1,0,1,0,0,1,1,1,,,,,,,,,False,21,102,False,exp3.png,exp4.png,trial_right_image,-1,exp4.png,2,exp4.png,exp3.png,0,4,reversed,correct,0.13031422671033588,0,invalid_lose,519.3393975999998,54,,,,,,,,,,,,,,sub_810,2024-11-24_13h45.04.422,Reversal,2023.1.3,59.983360615849456,2,
2,exp1.png,exp2.png,,,,,,,,,,,,,,,,,,1,0,1,0,0,2,2,2,,,,,,,,,False,22,103,True,exp2.png,exp1.png,trial_left_image,1,exp2.png,2,exp1.png,exp2.png,0,2,non-reversed,incorrect,0.019076395497450882,1,invalid_win,523.3549725000003,55,,,,,,,,,,,,,,sub_810,2024-11-24_13h45.04.422,Reversal,2023.1.3,59.983360615849456,2,
3,exp3.png,exp4.png,,,,,,,,,,,,,,,,,,1,0,1,0,0,3,3,3,,,,,,,,,False,23,104,False,exp3.png,exp4.png,trial_left_image,1,exp3.png,2,exp4.png,exp3.png,1,3,reversed,incorrect,0.8223096529372449,0,valid_lose,527.5698011000004,55,,,,,,,,,,,,,,sub_810,2024-11-24_13h45.04.422,Reversal,2023.1.3,59.983360615849456,2,
4,exp1.png,exp2.png,,,,,,,,,,,,,,,,,,1,0,1,0,0,4,4,4,,,,,,,,,False,24,105,True,exp2.png,exp1.png,trial_left_image,1,exp2.png,2,exp1.png,exp2.png,0,2,non-reversed,incorrect,0.952201618464751,0,valid_lose,531.8350614000001,55,,,,,,,,,,,,,,sub_810,2024-11-24_13h45.04.422,Reversal,2023.1.3,59.983360615849456,2,
5,exp3.png,exp4.png,,,,,,,,,,,,,,,,,,1,0,1,0,0,5,5,5,,,,,,,,,False,25,106,True,exp4.png,exp3.png,trial_right_image,-1,exp3.png,2,exp4.png,exp3.png,1,3,reversed,incorrect,0.46101585062848216,0,valid_lose,535.7003298,55,,,,,,,,,,,,,,sub_810,2024-11-24_13h45.04.422,Reversal,2023.1.3,59.983360615849456,2,
6,exp1.png,exp2.png,,,,,,,,,,,,,,,,,,1,0,1,0,0,6,6,6,,,,,,,,,False,26,107,False,exp1.png,exp2.png,trial_right_image,-1,exp2.png,2,exp1.png,exp2.png,0,2,non-reversed,incorrect,0.8417243955184701,0,valid_lose,539.7157096000001,55,,,,,,,,,,,,,,sub_810,2024-11-24_13h45.04.422,Reversal,2023.1.3,59.983360615849456,2,
7,exp3.png,exp4.png,,,,,,,,,,,,,,,,,,1,0,1,0,0,7,7,7,,,,,,,,,False,27,108,True,exp4.png,exp3.png,trial_right_image,-1,exp3.png,2,exp4.png,exp3.png,1,3,reversed,incorrect,0.5505482238947149,0,valid_lose,543.4997013000002,55,,,,,,,,,,,,,,sub_810,2024-11-24_13h45.04.422,Reversal,2023.1.3,59.983360615849456,2,
8,exp1.png,exp2.png,,,,,,,,,,,,,,,,,,1,0,1,0,0,8,8,8,,,,,,,,,False,28,109,False,exp1.png,exp2.png,trial_right_image,-1,exp2.png,2,exp1.png,exp2.png,0,2,non-reversed,incorrect,0.8266494385150897,0,valid_lose,547.2972642000004,55,,,,,,,,,,,,,,sub_810,2024-11-24_13h45.04.422,Reversal,2023.1.3,59.983360615849456,2,
9,exp3.png,exp4.png,,,,,,,,,,,,,,,,,,1,0,1,0,0,9,9,9,,,,,,,,,False,29,110,True,exp4.png,exp3.png,trial_right_image,-1,exp3.png,2,exp4.png,exp3.png,1,3,reversed,incorrect,0.6206400045502868,0,valid_lose,551.2286499000002,55,,,,,,,,,,,,,,sub_810,2024-11-24_13h45.04.422,Reversal,2023.1.3,59.983360615849456,2,
10,exp1.png,exp2.png,,,,,,,,,,,,,,,,,,1,0,1,0,0,10,10,10,,,,,,,,,False,30,111,False,exp1.png,exp2.png,trial_left_image,1,exp1.png,2,exp1.png,exp2.png,1,1,non-reversed,correct,0.40409071156456533,1,valid_win,555.1439266999996,56,,,,,,,,,,,,,,sub_810,2024-11-24_13h45.04.422,Reversal,2023.1.3,59.983360615849456,2,
11,exp3.png,exp4.png,,,,,,,,,,,,,,,,,,1,0,1,0,0,11,11,11,,,,,,,,,False,31,112,False,exp3.png,exp4.png,trial_left_image,1,exp3.png,2,exp4.png,exp3.png,1,3,reversed,incorrect,0.4779500715782794,0,valid_lose,559.1090872000004,56,,,,,,,,,,,,,,sub_810,2024-11-24_13h45.04.422,Reversal,2023.1.3,59.983360615849456,2,
12,exp1.png,exp2.png,,,,,,,,,,,,,,,,,,1,0,1,0,0,12,12,12,,,,,,,,,False,32,113,True,exp2.png,exp1.png,trial_right_image,-1,exp1.png,2,exp1.png,exp2.png,1,1,non-reversed,correct,0.5748890014936895,1,valid_win,562.8919056000004,57,,,,,,,,,,,,,,sub_810,2024-11-24_13h45.04.422,Reversal,2023.1.3,59.983360615849456,2,
13,exp3.png,exp4.png,,,,,,,,,,,,,,,,,,1,0,1,0,0,13,13,13,,,,,,,,,False,33,114,False,exp3.png,exp4.png,trial_left_image,1,exp3.png,2,exp4.png,exp3.png,1,3,reversed,incorrect,0.37806974674325156,0,valid_lose,567.1398919000003,57,,,,,,,,,,,,,,sub_810,2024-11-24_13h45.04.422,Reversal,2023.1.3,59.983360615849456,2,
14,exp1.png,exp2.png,,,,,,,,,,,,,,,,,,1,0,1,0,0,14,14,14,,,,,,,,,False,34,115,False,exp1.png,exp2.png,trial_left_image,1,exp1.png,2,exp1.png,exp2.png,1,1,non-reversed,correct,0.6487621530507727,1,valid_win,571.0553356,58,,,,,,,,,,,,,,sub_810,2024-11-24_13h45.04.422,Reversal,2023.1.3,59.983360615849456,2,
15,exp3.png,exp4.png,,,,,,,,,,,,,,,,,,1,0,1,0,0,15,15,15,,,,,,,,,False,35,116,False,exp3.png,exp4.png,trial_right_image,-1,exp4.png,2,exp4.png,exp3.png,0,4,reversed,correct,0.7390397157820405,1,valid_win,575.0872901000002,59,,,,,,,,,,,,,,sub_810,2024-11-24_13h45.04.422,Reversal,2023.1.3,59.983360615849456,2,
16,exp1.png,exp2.png,,,,,,,,,,,,,,,,,,1,0,1,0,0,16,16,16,,,,,,,,,False,36,117,True,exp2.png,exp1.png,trial_left_image,1,exp2.png,2,exp1.png,exp2.png,0,2,non-reversed,incorrect,0.738934905357242,0,valid_lose,579.6025250000002,59,,,,,,,,,,,,,,sub_810,2024-11-24_13h45.04.422,Reversal,2023.1.3,59.983360615849456,2,
17,exp3.png,exp4.png,,,,,,,,,,,,,,,,,,1,0,1,0,0,17,17,17,,,,,,,,,False,37,118,True,exp4.png,exp3.png,trial_right_image,-1,exp3.png,2,exp4.png,exp3.png,1,3,reversed,incorrect,0.5667917571514146,0,valid_lose,583.7839925999997,59,,,,,,,,,,,,,,sub_810,2024-11-24_13h45.04.422,Reversal,2023.1.3,59.983360615849456,2,
18,exp1.png,exp2.png,,,,,,,,,,,,,,,,,,1,0,1,0,0,18,18,18,,,,,,,,,False,38,119,True,exp2.png,exp1.png,trial_left_image,1,exp2.png,2,exp1.png,exp2.png,0,2,non-reversed,incorrect,0.4143263880990482,0,valid_lose,587.5828668000004,59,,,,,,,,,,,,,,sub_810,2024-11-24_13h45.04.422,Reversal,2023.1.3,59.983360615849456,2,
19,exp3.png,exp4.png,,,,,,,,,,,,,,,,,,1,0,1,0,0,19,19,19,,,,,,,,,False,39,120,False,exp3.png,exp4.png,trial_left_image,1,exp3.png,2,exp4.png,exp3.png,1,3,reversed,incorrect,0.3280525238152928,0,valid_lose,591.4647606999997,59,,,,,,,,,,,,,,sub_810,2024-11-24_13h45.04.422,Reversal,2023.1.3,59.983360615849456,2,
20,exp1.png,exp2.png,,,,,,,,,,,,,,,,,,1,0,1,0,0,20,20,20,,,,,,,,,True,,,,,,,,,,,,,,,,,,,,,,,,,,,,,,,,,,sub_810,2024-11-24_13h45.04.422,Reversal,2023.1.3,59.983360615849456,2,
,,,exp1.png,,,,,,,,,,,,,,,,,1,0,1,0,,,,,0,0,0,0,0,0,0,0,,,,,,,,,,,,,,,,,,,,,,681.5687850999993,,None,None,[],,,,,,,,,sub_810,2024-11-24_13h45.04.422,Reversal,2023.1.3,59.983360615849456,2,
,,,exp2.png,,,,,,,,,,,,,,,,,1,0,1,0,,,,,0,0,0,0,0,1,1,1,,,,,,,,,,,,,,,,,,,,,,683.1659657,,None,None,[],,,,,,,,,sub_810,2024-11-24_13h45.04.422,Reversal,2023.1.3,59.983360615849456,2,
,,,exp3.png,,,,,,,,,,,,,,,,,1,0,1,0,,,,,0,0,0,0,0,2,2,2,,,,,,,,,,,,,,,,,,,,,,683.9673678999998,,None,None,[],,,,,,,,,sub_810,2024-11-24_13h45.04.422,Reversal,2023.1.3,59.983360615849456,2,
,,,exp4.png,,,,,,,,,,,,,,,,,1,0,1,0,,,,,0,0,0,0,0,3,3,3,,,,,,,,,,,,,,,,,,,,,,684.8507892999996,,None,None,[],,,,,,,,,sub_810,2024-11-24_13h45.04.422,Reversal,2023.1.3,59.983360615849456,2,
0,exp1.png,exp2.png,,,,,,,,,,,,,,,,,,2,0,2,0,0,0,0,0,,,,,,,,,False,40,121,False,exp1.png,exp2.png,trial_left_image,1,exp1.png,2,exp1.png,exp2.png,1,1,non-reversed,correct,0.295948348718738,1,valid_win,600.2296180000003,60,,,,,,,,,,,,,,sub_810,2024-11-24_13h45.04.422,Reversal,2023.1.3,59.983360615849456,2,
1,exp3.png,exp4.png,,,,,,,,,,,,,,,,,,2,0,2,0,0,1,1,1,,,,,,,,,False,41,122,False,exp3.png,exp4.png,trial_right_image,-1,exp4.png,2,exp4.png,exp3.png,0,4,reversed,correct,0.38806998101862666,1,valid_win,604.5437302,61,,,,,,,,,,,,,,sub_810,2024-11-24_13h45.04.422,Reversal,2023.1.3,59.983360615849456,2,
2,exp1.png,exp2.png,,,,,,,,,,,,,,,,,,2,0,2,0,0,2,2,2,,,,,,,,,False,42,123,True,exp2.png,exp1.png,trial_left_image,1,exp2.png,2,exp1.png,exp2.png,0,2,non-reversed,incorrect,0.009503023420272982,1,invalid_win,608.8593695999998,62,,,,,,,,,,,,,,sub_810,2024-11-24_13h45.04.422,Reversal,2023.1.3,59.983360615849456,2,
3,exp3.png,exp4.png,,,,,,,,,,,,,,,,,,2,0,2,0,0,3,3,3,,,,,,,,,False,43,124,True,exp4.png,exp3.png,trial_left_image,1,exp4.png,2,exp4.png,exp3.png,0,4,reversed,correct,0.39746890589865835,1,valid_win,613.1078150000003,63,,,,,,,,,,,,,,sub_810,2024-11-24_13h45.04.422,Reversal,2023.1.3,59.983360615849456,2,
4,exp1.png,exp2.png,,,,,,,,,,,,,,,,,,2,0,2,0,0,4,4,4,,,,,,,,,False,44,125,False,exp1.png,exp2.png,trial_right_image,-1,exp2.png,2,exp1.png,exp2.png,0,2,non-reversed,incorrect,0.06664085888097138,1,invalid_win,617.0396094999996,64,,,,,,,,,,,,,,sub_810,2024-11-24_13h45.04.422,Reversal,2023.1.3,59.983360615849456,2,
5,exp3.png,exp4.png,,,,,,,,,,,,,,,,,,2,0,2,0,0,5,5,5,,,,,,,,,False,45,126,True,exp4.png,exp3.png,trial_right_image,-1,exp3.png,2,exp4.png,exp3.png,1,3,reversed,incorrect,0.7872231806955312,0,valid_lose,621.0547806000004,64,,,,,,,,,,,,,,sub_810,2024-11-24_13h45.04.422,Reversal,2023.1.3,59.983360615849456,2,
6,exp1.png,exp2.png,,,,,,,,,,,,,,,,,,2,0,2,0,0,6,6,6,,,,,,,,,False,46,127,False,exp1.png,exp2.png,trial_left_image,1,exp1.png,2,exp1.png,exp2.png,1,1,non-reversed,correct,0.9382714820686121,1,valid_win,624.9369419000004,65,,,,,,,,,,,,,,sub_810,2024-11-24_13h45.04.422,Reversal,2023.1.3,59.983360615849456,2,
7,exp3.png,exp4.png,,,,,,,,,,,,,,,,,,2,0,2,0,0,7,7,7,,,,,,,,,False,47,128,True,exp4.png,exp3.png,trial_left_image,1,exp4.png,2,exp4.png,exp3.png,0,4,reversed,correct,0.3143576396512243,1,valid_win,628.9520521000004,66,,,,,,,,,,,,,,sub_810,2024-11-24_13h45.04.422,Reversal,2023.1.3,59.983360615849456,2,
8,exp1.png,exp2.png,,,,,,,,,,,,,,,,,,2,0,2,0,0,8,8,8,,,,,,,,,False,48,129,True,exp2.png,exp1.png,trial_right_image,-1,exp1.png,2,exp1.png,exp2.png,1,1,non-reversed,correct,0.7243236443323574,1,valid_win,632.8008559,67,,,,,,,,,,,,,,sub_810,2024-11-24_13h45.04.422,Reversal,2023.1.3,59.983360615849456,2,
9,exp3.png,exp4.png,,,,,,,,,,,,,,,,,,2,0,2,0,0,9,9,9,,,,,,,,,False,49,130,False,exp3.png,exp4.png,trial_left_image,1,exp3.png,2,exp4.png,exp3.png,1,3,reversed,incorrect,0.0893622511663984,1,invalid_win,637.1830857000004,68,,,,,,,,,,,,,,sub_810,2024-11-24_13h45.04.422,Reversal,2023.1.3,59.983360615849456,2,
10,exp1.png,exp2.png,,,,,,,,,,,,,,,,,,2,0,2,0,0,10,10,10,,,,,,,,,False,50,131,True,exp2.png,exp1.png,trial_left_image,1,exp2.png,2,exp1.png,exp2.png,0,2,non-reversed,incorrect,0.3531322245493528,0,valid_lose,641.2148975,68,,,,,,,,,,,,,,sub_810,2024-11-24_13h45.04.422,Reversal,2023.1.3,59.983360615849456,2,
11,exp3.png,exp4.png,,,,,,,,,,,,,,,,,,2,0,2,0,0,11,11,11,,,,,,,,,False,51,132,False,exp3.png,exp4.png,trial_left_image,1,exp3.png,2,exp4.png,exp3.png,1,3,reversed,incorrect,0.046981275799943156,1,invalid_win,645.2133477999996,69,,,,,,,,,,,,,,sub_810,2024-11-24_13h45.04.422,Reversal,2023.1.3,59.983360615849456,2,
12,exp1.png,exp2.png,,,,,,,,,,,,,,,,,,2,0,2,0,0,12,12,12,,,,,,,,,False,52,133,True,exp2.png,exp1.png,trial_right_image,-1,exp1.png,2,exp1.png,exp2.png,1,1,non-reversed,correct,0.9612417661603521,1,valid_win,649.2954716000004,70,,,,,,,,,,,,,,sub_810,2024-11-24_13h45.04.422,Reversal,2023.1.3,59.983360615849456,2,
13,exp3.png,exp4.png,,,,,,,,,,,,,,,,,,2,0,2,0,0,13,13,13,,,,,,,,,False,53,134,False,exp3.png,exp4.png,trial_left_image,1,exp3.png,2,exp4.png,exp3.png,1,3,reversed,incorrect,0.8909168068266877,0,valid_lose,653.2107157,70,,,,,,,,,,,,,,sub_810,2024-11-24_13h45.04.422,Reversal,2023.1.3,59.983360615849456,2,
14,exp1.png,exp2.png,,,,,,,,,,,,,,,,,,2,0,2,0,0,14,14,14,,,,,,,,,False,54,135,True,exp2.png,exp1.png,trial_right_image,-1,exp1.png,2,exp1.png,exp2.png,1,1,non-reversed,correct,0.08643116625674996,0,invalid_lose,658.9089886000002,70,,,,,,,,,,,,,,sub_810,2024-11-24_13h45.04.422,Reversal,2023.1.3,59.983360615849456,2,
15,exp3.png,exp4.png,,,,,,,,,,,,,,,,,,2,0,2,0,0,15,15,15,,,,,,,,,False,55,136,False,exp3.png,exp4.png,trial_right_image,-1,exp4.png,2,exp4.png,exp3.png,0,4,reversed,correct,0.8808666891518454,1,valid_win,662.7739426999997,71,,,,,,,,,,,,,,sub_810,2024-11-24_13h45.04.422,Reversal,2023.1.3,59.983360615849456,2,
16,exp1.png,exp2.png,,,,,,,,,,,,,,,,,,2,0,2,0,0,16,16,16,,,,,,,,,False,56,137,True,exp2.png,exp1.png,trial_left_image,1,exp2.png,2,exp1.png,exp2.png,0,2,non-reversed,incorrect,0.6864339943490233,0,valid_lose,667.8229706000002,71,,,,,,,,,,,,,,sub_810,2024-11-24_13h45.04.422,Reversal,2023.1.3,59.983360615849456,2,
17,exp3.png,exp4.png,,,,,,,,,,,,,,,,,,2,0,2,0,0,17,17,17,,,,,,,,,False,57,138,False,exp3.png,exp4.png,trial_left_image,1,exp3.png,2,exp4.png,exp3.png,1,3,reversed,incorrect,0.7532538260534402,0,valid_lose,671.8543743999999,71,,,,,,,,,,,,,,sub_810,2024-11-24_13h45.04.422,Reversal,2023.1.3,59.983360615849456,2,
18,exp1.png,exp2.png,,,,,,,,,,,,,,,,,,2,0,2,0,0,18,18,18,,,,,,,,,False,58,139,True,exp2.png,exp1.png,trial_left_image,1,exp2.png,2,exp1.png,exp2.png,0,2,non-reversed,incorrect,0.32204438761068255,0,valid_lose,675.6867688000002,71,,,,,,,,,,,,,,sub_810,2024-11-24_13h45.04.422,Reversal,2023.1.3,59.983360615849456,2,
19,exp3.png,exp4.png,,,,,,,,,,,,,,,,,,2,0,2,0,0,19,19,19,,,,,,,,,False,59,140,False,exp3.png,exp4.png,trial_right_image,-1,exp4.png,2,exp4.png,exp3.png,0,4,reversed,correct,0.5720802944430267,1,valid_win,679.4851824999996,72,,,,,,,,,,,,,,sub_810,2024-11-24_13h45.04.422,Reversal,2023.1.3,59.983360615849456,2,
20,exp1.png,exp2.png,,,,,,,,,,,,,,,,,,2,0,2,0,0,20,20,20,,,,,,,,,True,,,,,,,,,,,,,,,,,,,,,,,,,,,,,,,,,,sub_810,2024-11-24_13h45.04.422,Reversal,2023.1.3,59.983360615849456,2,
,,,exp1.png,,,,,,,,,,,,,,,,,2,0,2,0,,,,,0,0,0,0,0,0,0,0,,,,,,,,,,,,,,,,,,,,,,769.5833827999995,,None,None,[],,,,,,,,,sub_810,2024-11-24_13h45.04.422,Reversal,2023.1.3,59.983360615849456,2,
,,,exp2.png,,,,,,,,,,,,,,,,,2,0,2,0,,,,,0,0,0,0,0,1,1,1,,,,,,,,,,,,,,,,,,,,,,771.0357546999994,,None,None,[],,,,,,,,,sub_810,2024-11-24_13h45.04.422,Reversal,2023.1.3,59.983360615849456,2,
,,,exp3.png,,,,,,,,,,,,,,,,,2,0,2,0,,,,,0,0,0,0,0,2,2,2,,,,,,,,,,,,,,,,,,,,,,772.1175893,,None,None,[],,,,,,,,,sub_810,2024-11-24_13h45.04.422,Reversal,2023.1.3,59.983360615849456,2,
,,,exp4.png,,,,,,,,,,,,,,,,,2,0,2,0,,,,,0,0,0,0,0,3,3,3,,,,,,,,,,,,,,,,,,,,,,773.0038999999997,,None,None,[],,,,,,,,,sub_810,2024-11-24_13h45.04.422,Reversal,2023.1.3,59.983360615849456,2,
,,,,,,,,,,,,,,,,,,,,,,,,,,,,,,,,,,,,,,,,,,,,,,,,,,,,,,,,72,,,,,,,,,59,35,24,265.9709668000005,1,,,,,,,
