trial_index,trial_image1_file,trial_image2_file,image_file,learning_outer_loop.thisRepN,learning_outer_loop.thisTrialN,learning_outer_loop.thisN,learning_outer_loop.thisIndex,learning_inner_loop.thisRepN,learning_inner_loop.thisTrialN,learning_inner_loop.thisN,learning_inner_loop.thisIndex,learning_estimation_outer_loop.thisRepN,learning_estimation_outer_loop.thisTrialN,learning_estimation_outer_loop.thisN,learning_estimation_outer_loop.thisIndex,learning_estimation_inner_loop.thisRepN,learning_estimation_inner_loop.thisTrialN,learning_estimation_inner_loop.thisN,learning_estimation_inner_loop.thisIndex,reversal_outer_loop.thisRepN,reversal_outer_loop.thisTrialN,reversal_outer_loop.thisN,reversal_outer_loop.thisIndex,reversal_inner_loop.thisRepN,reversal_inner_loop.thisTrialN,reversal_inner_loop.thisN,reversal_inner_loop.thisIndex,reversal_estimation_outer_loop.thisRepN,reversal_estimation_outer_loop.thisTrialN,reversal_estimation_outer_loop.thisN,reversal_estimation_outer_loop.thisIndex,reversal_estimation_inner_loop.thisRepN,reversal_estimation_inner_loop.thisTrialN,reversal_estimation_inner_loop.thisN,reversal_estimation_inner_loop.thisIndex,skipped,total_trial_counter,trial_num,left_right_flip,left_image_file,right_image_file,clicked_stimulus_side,side,clicked_stimulus,version,high_prob_image_file,low_prob_image_file,choice_a,choice_b,pair_type,correct,trial_feedback_random,reward,trial_type,overall_time_after_trial,score,estimation_rating.started,estimation_exp1.png,estimation_rating.response,estimation_rating.rt,estimation_rating.history,estimation_exp2.png,estimation_exp3.png,estimation_exp4.png,total_learning_time,total_correct,learning_correct,reversal_correct,total_reversal_time,extra_block,participant,date,expName,psychopyVersion,frameRate,ver,
0,exp1.png,exp2.png,,0,0,0,0,0,0,0,0,,,,,,,,,,,,,,,,,,,,,,,,,False,0,1,True,exp2.png,exp1.png,trial_right_image,-1,exp1.png,4,exp2.png,exp1.png,0,2,non-reversed,incorrect,0.02655543123433335,1,invalid_win,5.528853400000116,1,,,,,,,,,,,,,,,sub_396,2023-12-18_10h03.37.802,Reversal,2023.1.3,60.095142629970546,4,
1,exp3.png,exp4.png,,0,0,0,0,0,1,1,1,,,,,,,,,,,,,,,,,,,,,,,,,False,1,2,False,exp3.png,exp4.png,trial_right_image,-1,exp4.png,4,exp4.png,exp3.png,1,3,reversed,correct,0.5286916325712111,1,valid_win,11.593962300000385,2,,,,,,,,,,,,,,,sub_396,2023-12-18_10h03.37.802,Reversal,2023.1.3,60.095142629970546,4,
2,exp1.png,exp2.png,,0,0,0,0,0,2,2,2,,,,,,,,,,,,,,,,,,,,,,,,,False,2,3,False,exp1.png,exp2.png,trial_left_image,1,exp1.png,4,exp2.png,exp1.png,0,2,non-reversed,incorrect,0.17628576531224716,1,invalid_win,17.157954999999674,3,,,,,,,,,,,,,,,sub_396,2023-12-18_10h03.37.802,Reversal,2023.1.3,60.095142629970546,4,
3,exp3.png,exp4.png,,0,0,0,0,0,3,3,3,,,,,,,,,,,,,,,,,,,,,,,,,False,3,4,True,exp4.png,exp3.png,trial_right_image,-1,exp3.png,4,exp4.png,exp3.png,0,4,reversed,incorrect,0.868708637941579,0,valid_lose,22.606843700000354,3,,,,,,,,,,,,,,,sub_396,2023-12-18_10h03.37.802,Reversal,2023.1.3,60.095142629970546,4,
4,exp1.png,exp2.png,,0,0,0,0,0,4,4,4,,,,,,,,,,,,,,,,,,,,,,,,,False,4,5,True,exp2.png,exp1.png,trial_left_image,1,exp2.png,4,exp2.png,exp1.png,1,1,non-reversed,correct,0.4718087802546026,1,valid_win,27.954195000000254,4,,,,,,,,,,,,,,,sub_396,2023-12-18_10h03.37.802,Reversal,2023.1.3,60.095142629970546,4,
5,exp3.png,exp4.png,,0,0,0,0,0,5,5,5,,,,,,,,,,,,,,,,,,,,,,,,,False,5,6,False,exp3.png,exp4.png,trial_right_image,-1,exp4.png,4,exp4.png,exp3.png,1,3,reversed,correct,0.6153385510490099,1,valid_win,33.45255710000038,5,,,,,,,,,,,,,,,sub_396,2023-12-18_10h03.37.802,Reversal,2023.1.3,60.095142629970546,4,
6,exp1.png,exp2.png,,0,0,0,0,0,6,6,6,,,,,,,,,,,,,,,,,,,,,,,,,False,6,7,True,exp2.png,exp1.png,trial_left_image,1,exp2.png,4,exp2.png,exp1.png,1,1,non-reversed,correct,0.4925532746947241,1,valid_win,39.70066450000013,6,,,,,,,,,,,,,,,sub_396,2023-12-18_10h03.37.802,Reversal,2023.1.3,60.095142629970546,4,
7,exp3.png,exp4.png,,0,0,0,0,0,7,7,7,,,,,,,,,,,,,,,,,,,,,,,,,False,7,8,False,exp3.png,exp4.png,trial_right_image,-1,exp4.png,4,exp4.png,exp3.png,1,3,reversed,correct,0.6646092807430656,1,valid_win,44.63254190000043,7,,,,,,,,,,,,,,,sub_396,2023-12-18_10h03.37.802,Reversal,2023.1.3,60.095142629970546,4,
8,exp1.png,exp2.png,,0,0,0,0,0,8,8,8,,,,,,,,,,,,,,,,,,,,,,,,,False,8,9,True,exp2.png,exp1.png,trial_left_image,1,exp2.png,4,exp2.png,exp1.png,1,1,non-reversed,correct,0.7282497299601625,1,valid_win,49.31419619999997,8,,,,,,,,,,,,,,,sub_396,2023-12-18_10h03.37.802,Reversal,2023.1.3,60.095142629970546,4,
9,exp3.png,exp4.png,,0,0,0,0,0,9,9,9,,,,,,,,,,,,,,,,,,,,,,,,,False,9,10,False,exp3.png,exp4.png,trial_right_image,-1,exp4.png,4,exp4.png,exp3.png,1,3,reversed,correct,0.2299457995132489,0,invalid_lose,54.11177529999986,8,,,,,,,,,,,,,,,sub_396,2023-12-18_10h03.37.802,Reversal,2023.1.3,60.095142629970546,4,
10,exp1.png,exp2.png,,0,0,0,0,0,10,10,10,,,,,,,,,,,,,,,,,,,,,,,,,False,10,11,False,exp1.png,exp2.png,trial_right_image,-1,exp2.png,4,exp2.png,exp1.png,1,1,non-reversed,correct,0.6022382292443091,1,valid_win,58.92733700000008,9,,,,,,,,,,,,,,,sub_396,2023-12-18_10h03.37.802,Reversal,2023.1.3,60.095142629970546,4,
11,exp3.png,exp4.png,,0,0,0,0,0,11,11,11,,,,,,,,,,,,,,,,,,,,,,,,,False,11,12,True,exp4.png,exp3.png,trial_left_image,1,exp4.png,4,exp4.png,exp3.png,1,3,reversed,correct,0.19325234937329616,0,invalid_lose,64.09225140000035,9,,,,,,,,,,,,,,,sub_396,2023-12-18_10h03.37.802,Reversal,2023.1.3,60.095142629970546,4,
12,exp1.png,exp2.png,,0,0,0,0,0,12,12,12,,,,,,,,,,,,,,,,,,,,,,,,,False,12,13,False,exp1.png,exp2.png,trial_right_image,-1,exp2.png,4,exp2.png,exp1.png,1,1,non-reversed,correct,0.7118801901042746,1,valid_win,69.20751550000023,10,,,,,,,,,,,,,,,sub_396,2023-12-18_10h03.37.802,Reversal,2023.1.3,60.095142629970546,4,
13,exp3.png,exp4.png,,0,0,0,0,0,13,13,13,,,,,,,,,,,,,,,,,,,,,,,,,False,13,14,False,exp3.png,exp4.png,trial_right_image,-1,exp4.png,4,exp4.png,exp3.png,1,3,reversed,correct,0.1289173797555888,0,invalid_lose,74.57217370000035,10,,,,,,,,,,,,,,,sub_396,2023-12-18_10h03.37.802,Reversal,2023.1.3,60.095142629970546,4,
14,exp1.png,exp2.png,,0,0,0,0,0,14,14,14,,,,,,,,,,,,,,,,,,,,,,,,,False,14,15,False,exp1.png,exp2.png,trial_right_image,-1,exp2.png,4,exp2.png,exp1.png,1,1,non-reversed,correct,0.419661212036082,1,valid_win,79.62026200000037,11,,,,,,,,,,,,,,,sub_396,2023-12-18_10h03.37.802,Reversal,2023.1.3,60.095142629970546,4,
15,exp3.png,exp4.png,,0,0,0,0,0,15,15,15,,,,,,,,,,,,,,,,,,,,,,,,,False,15,16,True,exp4.png,exp3.png,trial_left_image,1,exp4.png,4,exp4.png,exp3.png,1,3,reversed,correct,0.19000548493957659,0,invalid_lose,84.50249940000049,11,,,,,,,,,,,,,,,sub_396,2023-12-18_10h03.37.802,Reversal,2023.1.3,60.095142629970546,4,
16,exp1.png,exp2.png,,0,0,0,0,0,16,16,16,,,,,,,,,,,,,,,,,,,,,,,,,False,16,17,True,exp2.png,exp1.png,trial_left_image,1,exp2.png,4,exp2.png,exp1.png,1,1,non-reversed,correct,0.16224864718513998,0,invalid_lose,89.68314840000039,11,,,,,,,,,,,,,,,sub_396,2023-12-18_10h03.37.802,Reversal,2023.1.3,60.095142629970546,4,
17,exp3.png,exp4.png,,0,0,0,0,0,17,17,17,,,,,,,,,,,,,,,,,,,,,,,,,False,17,18,True,exp4.png,exp3.png,trial_left_image,1,exp4.png,4,exp4.png,exp3.png,1,3,reversed,correct,0.10279022642454705,0,invalid_lose,96.38150310000037,11,,,,,,,,,,,,,,,sub_396,2023-12-18_10h03.37.802,Reversal,2023.1.3,60.095142629970546,4,
18,exp1.png,exp2.png,,0,0,0,0,0,18,18,18,,,,,,,,,,,,,,,,,,,,,,,,,False,18,19,True,exp2.png,exp1.png,trial_right_image,-1,exp1.png,4,exp2.png,exp1.png,0,2,non-reversed,incorrect,0.23885320442693014,1,invalid_win,100.99640660000023,12,,,,,,,,,,,,,,,sub_396,2023-12-18_10h03.37.802,Reversal,2023.1.3,60.095142629970546,4,
19,exp3.png,exp4.png,,0,0,0,0,0,19,19,19,,,,,,,,,,,,,,,,,,,,,,,,,False,19,20,False,exp3.png,exp4.png,trial_right_image,-1,exp4.png,4,exp4.png,exp3.png,1,3,reversed,correct,0.7193288756341778,1,valid_win,105.79472330000044,13,,,,,,,,,,,,,,,sub_396,2023-12-18_10h03.37.802,Reversal,2023.1.3,60.095142629970546,4,
20,exp1.png,exp2.png,,0,0,0,0,0,20,20,20,,,,,,,,,,,,,,,,,,,,,,,,,True,,,,,,,,,,,,,,,,,,,,,,,,,,,,,,,,,,,sub_396,2023-12-18_10h03.37.802,Reversal,2023.1.3,60.095142629970546,4,
,,,exp1.png,0,0,0,0,,,,,0,0,0,0,0,0,0,0,,,,,,,,,,,,,,,,,,,,,,,,,,,,,,,,,,,,,,190.28467200000068,90.0,90.0,15.369122000000061,"[(90.0, 15.369122000000061)]",,,,,,,,,,sub_396,2023-12-18_10h03.37.802,Reversal,2023.1.3,60.095142629970546,4,
,,,exp2.png,0,0,0,0,,,,,0,0,0,0,0,1,1,1,,,,,,,,,,,,,,,,,,,,,,,,,,,,,,,,,,,,,,207.01870860000054,,88.0,4.227972900000168,"[(88.0, 4.227972900000168)]",88.0,,,,,,,,,sub_396,2023-12-18_10h03.37.802,Reversal,2023.1.3,60.095142629970546,4,
,,,exp3.png,0,0,0,0,,,,,0,0,0,0,0,2,2,2,,,,,,,,,,,,,,,,,,,,,,,,,,,,,,,,,,,,,,212.4952757000001,,17.0,2.2620207999998456,"[(17.0, 2.2620207999998456)]",,17.0,,,,,,,,sub_396,2023-12-18_10h03.37.802,Reversal,2023.1.3,60.095142629970546,4,
,,,exp4.png,0,0,0,0,,,,,0,0,0,0,0,3,3,3,,,,,,,,,,,,,,,,,,,,,,,,,,,,,,,,,,,,,,215.92639169999984,,75.0,2.2276419999998325,"[(75.0, 2.2276419999998325)]",,,75.0,,,,,,,sub_396,2023-12-18_10h03.37.802,Reversal,2023.1.3,60.095142629970546,4,
0,exp1.png,exp2.png,,1,0,1,0,0,0,0,0,,,,,,,,,,,,,,,,,,,,,,,,,False,20,21,True,exp2.png,exp1.png,trial_right_image,-1,exp1.png,4,exp2.png,exp1.png,0,2,non-reversed,incorrect,0.20612586028194568,1,invalid_win,141.18406659999982,14,,,,,,,,,,,,,,,sub_396,2023-12-18_10h03.37.802,Reversal,2023.1.3,60.095142629970546,4,
1,exp3.png,exp4.png,,1,0,1,0,0,1,1,1,,,,,,,,,,,,,,,,,,,,,,,,,False,21,22,False,exp3.png,exp4.png,trial_right_image,-1,exp4.png,4,exp4.png,exp3.png,1,3,reversed,correct,0.7230026124592646,1,valid_win,146.78062109999973,15,,,,,,,,,,,,,,,sub_396,2023-12-18_10h03.37.802,Reversal,2023.1.3,60.095142629970546,4,
2,exp1.png,exp2.png,,1,0,1,0,0,2,2,2,,,,,,,,,,,,,,,,,,,,,,,,,False,22,23,True,exp2.png,exp1.png,trial_left_image,1,exp2.png,4,exp2.png,exp1.png,1,1,non-reversed,correct,0.21610398522159513,0,invalid_lose,152.09647099999984,15,,,,,,,,,,,,,,,sub_396,2023-12-18_10h03.37.802,Reversal,2023.1.3,60.095142629970546,4,
3,exp3.png,exp4.png,,1,0,1,0,0,3,3,3,,,,,,,,,,,,,,,,,,,,,,,,,False,23,24,False,exp3.png,exp4.png,trial_right_image,-1,exp4.png,4,exp4.png,exp3.png,1,3,reversed,correct,0.029201185446096622,0,invalid_lose,157.19401780000044,15,,,,,,,,,,,,,,,sub_396,2023-12-18_10h03.37.802,Reversal,2023.1.3,60.095142629970546,4,
4,exp1.png,exp2.png,,1,0,1,0,0,4,4,4,,,,,,,,,,,,,,,,,,,,,,,,,False,24,25,False,exp1.png,exp2.png,trial_right_image,-1,exp2.png,4,exp2.png,exp1.png,1,1,non-reversed,correct,0.290861532254199,1,valid_win,162.9084713000002,16,,,,,,,,,,,,,,,sub_396,2023-12-18_10h03.37.802,Reversal,2023.1.3,60.095142629970546,4,
5,exp3.png,exp4.png,,1,0,1,0,0,5,5,5,,,,,,,,,,,,,,,,,,,,,,,,,False,25,26,True,exp4.png,exp3.png,trial_right_image,-1,exp3.png,4,exp4.png,exp3.png,0,4,reversed,incorrect,0.9214361032434287,0,valid_lose,169.77334990000054,16,,,,,,,,,,,,,,,sub_396,2023-12-18_10h03.37.802,Reversal,2023.1.3,60.095142629970546,4,
6,exp1.png,exp2.png,,1,0,1,0,0,6,6,6,,,,,,,,,,,,,,,,,,,,,,,,,False,26,27,True,exp2.png,exp1.png,trial_right_image,-1,exp1.png,4,exp2.png,exp1.png,0,2,non-reversed,incorrect,0.775008997619434,0,valid_lose,175.22132669999974,16,,,,,,,,,,,,,,,sub_396,2023-12-18_10h03.37.802,Reversal,2023.1.3,60.095142629970546,4,
7,exp3.png,exp4.png,,1,0,1,0,0,7,7,7,,,,,,,,,,,,,,,,,,,,,,,,,False,27,28,False,exp3.png,exp4.png,trial_right_image,-1,exp4.png,4,exp4.png,exp3.png,1,3,reversed,correct,0.7664522471267133,1,valid_win,180.33650300000045,17,,,,,,,,,,,,,,,sub_396,2023-12-18_10h03.37.802,Reversal,2023.1.3,60.095142629970546,4,
8,exp1.png,exp2.png,,1,0,1,0,0,8,8,8,,,,,,,,,,,,,,,,,,,,,,,,,False,28,29,True,exp2.png,exp1.png,trial_right_image,-1,exp1.png,4,exp2.png,exp1.png,0,2,non-reversed,incorrect,0.607521058936314,0,valid_lose,185.7009135999997,17,,,,,,,,,,,,,,,sub_396,2023-12-18_10h03.37.802,Reversal,2023.1.3,60.095142629970546,4,
9,exp3.png,exp4.png,,1,0,1,0,0,9,9,9,,,,,,,,,,,,,,,,,,,,,,,,,False,29,30,True,exp4.png,exp3.png,trial_right_image,-1,exp3.png,4,exp4.png,exp3.png,0,4,reversed,incorrect,0.6779786209659309,0,valid_lose,190.83237110000027,17,,,,,,,,,,,,,,,sub_396,2023-12-18_10h03.37.802,Reversal,2023.1.3,60.095142629970546,4,
10,exp1.png,exp2.png,,1,0,1,0,0,10,10,10,,,,,,,,,,,,,,,,,,,,,,,,,False,30,31,True,exp2.png,exp1.png,trial_right_image,-1,exp1.png,4,exp2.png,exp1.png,0,2,non-reversed,incorrect,0.1080515389776393,1,invalid_win,196.64740669999992,18,,,,,,,,,,,,,,,sub_396,2023-12-18_10h03.37.802,Reversal,2023.1.3,60.095142629970546,4,
11,exp3.png,exp4.png,,1,0,1,0,0,11,11,11,,,,,,,,,,,,,,,,,,,,,,,,,False,31,32,False,exp3.png,exp4.png,trial_right_image,-1,exp4.png,4,exp4.png,exp3.png,1,3,reversed,correct,0.10057501451820972,0,invalid_lose,202.87866610000037,18,,,,,,,,,,,,,,,sub_396,2023-12-18_10h03.37.802,Reversal,2023.1.3,60.095142629970546,4,
12,exp1.png,exp2.png,,1,0,1,0,0,12,12,12,,,,,,,,,,,,,,,,,,,,,,,,,False,32,33,False,exp1.png,exp2.png,trial_right_image,-1,exp2.png,4,exp2.png,exp1.png,1,1,non-reversed,correct,0.7392280801191303,1,valid_win,208.48106759999973,19,,,,,,,,,,,,,,,sub_396,2023-12-18_10h03.37.802,Reversal,2023.1.3,60.095142629970546,4,
13,exp3.png,exp4.png,,1,0,1,0,0,13,13,13,,,,,,,,,,,,,,,,,,,,,,,,,False,33,34,False,exp3.png,exp4.png,trial_left_image,1,exp3.png,4,exp4.png,exp3.png,0,4,reversed,incorrect,0.20476931200385928,1,invalid_win,213.6582999000002,20,,,,,,,,,,,,,,,sub_396,2023-12-18_10h03.37.802,Reversal,2023.1.3,60.095142629970546,4,
14,exp1.png,exp2.png,,1,0,1,0,0,14,14,14,,,,,,,,,,,,,,,,,,,,,,,,,False,34,35,True,exp2.png,exp1.png,trial_right_image,-1,exp1.png,4,exp2.png,exp1.png,0,2,non-reversed,incorrect,0.10457786450434159,1,invalid_win,219.43945429999985,21,,,,,,,,,,,,,,,sub_396,2023-12-18_10h03.37.802,Reversal,2023.1.3,60.095142629970546,4,
15,exp3.png,exp4.png,,1,0,1,0,0,15,15,15,,,,,,,,,,,,,,,,,,,,,,,,,False,35,36,False,exp3.png,exp4.png,trial_left_image,1,exp3.png,4,exp4.png,exp3.png,0,4,reversed,incorrect,0.7506333473217636,0,valid_lose,225.0543948000004,21,,,,,,,,,,,,,,,sub_396,2023-12-18_10h03.37.802,Reversal,2023.1.3,60.095142629970546,4,
16,exp1.png,exp2.png,,1,0,1,0,0,16,16,16,,,,,,,,,,,,,,,,,,,,,,,,,False,36,37,False,exp1.png,exp2.png,trial_right_image,-1,exp2.png,4,exp2.png,exp1.png,1,1,non-reversed,correct,0.4588861004112619,1,valid_win,230.4022605,22,,,,,,,,,,,,,,,sub_396,2023-12-18_10h03.37.802,Reversal,2023.1.3,60.095142629970546,4,
17,exp3.png,exp4.png,,1,0,1,0,0,17,17,17,,,,,,,,,,,,,,,,,,,,,,,,,False,37,38,True,exp4.png,exp3.png,trial_right_image,-1,exp3.png,4,exp4.png,exp3.png,0,4,reversed,incorrect,0.8726251230264467,0,valid_lose,235.6173964999998,22,,,,,,,,,,,,,,,sub_396,2023-12-18_10h03.37.802,Reversal,2023.1.3,60.095142629970546,4,
18,exp1.png,exp2.png,,1,0,1,0,0,18,18,18,,,,,,,,,,,,,,,,,,,,,,,,,False,38,39,True,exp2.png,exp1.png,trial_right_image,-1,exp1.png,4,exp2.png,exp1.png,0,2,non-reversed,incorrect,0.2238497411031406,1,invalid_win,240.3491095999998,23,,,,,,,,,,,,,,,sub_396,2023-12-18_10h03.37.802,Reversal,2023.1.3,60.095142629970546,4,
19,exp3.png,exp4.png,,1,0,1,0,0,19,19,19,,,,,,,,,,,,,,,,,,,,,,,,,False,39,40,False,exp3.png,exp4.png,trial_left_image,1,exp3.png,4,exp4.png,exp3.png,0,4,reversed,incorrect,0.04455992265778641,1,invalid_win,244.9809169,24,,,,,,,,,,,,,,,sub_396,2023-12-18_10h03.37.802,Reversal,2023.1.3,60.095142629970546,4,
20,exp1.png,exp2.png,,1,0,1,0,0,20,20,20,,,,,,,,,,,,,,,,,,,,,,,,,True,,,,,,,,,,,,,,,,,,,,,,,,,,,,,,,,,,,sub_396,2023-12-18_10h03.37.802,Reversal,2023.1.3,60.095142629970546,4,
,,,exp1.png,1,0,1,0,,,,,0,0,0,0,0,0,0,0,,,,,,,,,,,,,,,,,,,,,,,,,,,,,,,,,,,,,,329.4275969999999,82.0,82.0,3.5274602999998024,"[(82.0, 3.5274602999998024)]",,,,,,,,,,sub_396,2023-12-18_10h03.37.802,Reversal,2023.1.3,60.095142629970546,4,
,,,exp2.png,1,0,1,0,,,,,0,0,0,0,0,1,1,1,,,,,,,,,,,,,,,,,,,,,,,,,,,,,,,,,,,,,,334.52033590000065,,24.0,2.476823500000137,"[(24.0, 2.476823500000137)]",24.0,,,,,,,,,sub_396,2023-12-18_10h03.37.802,Reversal,2023.1.3,60.095142629970546,4,
,,,exp3.png,1,0,1,0,,,,,0,0,0,0,0,2,2,2,,,,,,,,,,,,,,,,,,,,,,,,,,,,,,,,,,,,,,338.92206460000034,,21.0,2.511573099999623,"[(21.0, 2.511573099999623)]",,21.0,,,,,,,,sub_396,2023-12-18_10h03.37.802,Reversal,2023.1.3,60.095142629970546,4,
,,,exp4.png,1,0,1,0,,,,,0,0,0,0,0,3,3,3,,,,,,,,,,,,,,,,,,,,,,,,,,,,,,,,,,,,,,342.4537393999999,,24.0,2.96262360000037,"[(24.0, 2.96262360000037)]",,,24.0,,,,,,,sub_396,2023-12-18_10h03.37.802,Reversal,2023.1.3,60.095142629970546,4,
0,exp1.png,exp2.png,,2,0,2,0,0,0,0,0,,,,,,,,,,,,,,,,,,,,,,,,,False,40,41,True,exp2.png,exp1.png,trial_right_image,-1,exp1.png,4,exp2.png,exp1.png,0,2,non-reversed,incorrect,0.6107871167301139,0,valid_lose,267.00681069999973,24,,,,,,,,,,,,,,,sub_396,2023-12-18_10h03.37.802,Reversal,2023.1.3,60.095142629970546,4,
1,exp3.png,exp4.png,,2,0,2,0,0,1,1,1,,,,,,,,,,,,,,,,,,,,,,,,,False,41,42,True,exp4.png,exp3.png,trial_right_image,-1,exp3.png,4,exp4.png,exp3.png,0,4,reversed,incorrect,0.807684115918016,0,valid_lose,272.08895070000017,24,,,,,,,,,,,,,,,sub_396,2023-12-18_10h03.37.802,Reversal,2023.1.3,60.095142629970546,4,
2,exp1.png,exp2.png,,2,0,2,0,0,2,2,2,,,,,,,,,,,,,,,,,,,,,,,,,False,42,43,False,exp1.png,exp2.png,trial_right_image,-1,exp2.png,4,exp2.png,exp1.png,1,1,non-reversed,correct,0.06607652292647337,0,invalid_lose,277.15335870000035,24,,,,,,,,,,,,,,,sub_396,2023-12-18_10h03.37.802,Reversal,2023.1.3,60.095142629970546,4,
3,exp3.png,exp4.png,,2,0,2,0,0,3,3,3,,,,,,,,,,,,,,,,,,,,,,,,,False,43,44,True,exp4.png,exp3.png,trial_right_image,-1,exp3.png,4,exp4.png,exp3.png,0,4,reversed,incorrect,0.5549941938494396,0,valid_lose,282.05162930000006,24,,,,,,,,,,,,,,,sub_396,2023-12-18_10h03.37.802,Reversal,2023.1.3,60.095142629970546,4,
4,exp1.png,exp2.png,,2,0,2,0,0,4,4,4,,,,,,,,,,,,,,,,,,,,,,,,,False,44,45,False,exp1.png,exp2.png,trial_right_image,-1,exp2.png,4,exp2.png,exp1.png,1,1,non-reversed,correct,0.6788237367883388,1,valid_win,287.23315830000047,25,,,,,,,,,,,,,,,sub_396,2023-12-18_10h03.37.802,Reversal,2023.1.3,60.095142629970546,4,
5,exp3.png,exp4.png,,2,0,2,0,0,5,5,5,,,,,,,,,,,,,,,,,,,,,,,,,False,45,46,True,exp4.png,exp3.png,trial_left_image,1,exp4.png,4,exp4.png,exp3.png,1,3,reversed,correct,0.16827741008300323,0,invalid_lose,293.8808061999998,25,,,,,,,,,,,,,,,sub_396,2023-12-18_10h03.37.802,Reversal,2023.1.3,60.095142629970546,4,
6,exp1.png,exp2.png,,2,0,2,0,0,6,6,6,,,,,,,,,,,,,,,,,,,,,,,,,False,46,47,True,exp2.png,exp1.png,trial_right_image,-1,exp1.png,4,exp2.png,exp1.png,0,2,non-reversed,incorrect,0.8115867903377282,0,valid_lose,298.82949009999993,25,,,,,,,,,,,,,,,sub_396,2023-12-18_10h03.37.802,Reversal,2023.1.3,60.095142629970546,4,
7,exp3.png,exp4.png,,2,0,2,0,0,7,7,7,,,,,,,,,,,,,,,,,,,,,,,,,False,47,48,True,exp4.png,exp3.png,trial_right_image,-1,exp3.png,4,exp4.png,exp3.png,0,4,reversed,incorrect,0.1251224008842483,1,invalid_win,304.0439930000002,26,,,,,,,,,,,,,,,sub_396,2023-12-18_10h03.37.802,Reversal,2023.1.3,60.095142629970546,4,
8,exp1.png,exp2.png,,2,0,2,0,0,8,8,8,,,,,,,,,,,,,,,,,,,,,,,,,False,48,49,False,exp1.png,exp2.png,trial_left_image,1,exp1.png,4,exp2.png,exp1.png,0,2,non-reversed,incorrect,0.9695854436428009,0,valid_lose,308.95938339999975,26,,,,,,,,,,,,,,,sub_396,2023-12-18_10h03.37.802,Reversal,2023.1.3,60.095142629970546,4,
9,exp3.png,exp4.png,,2,0,2,0,0,9,9,9,,,,,,,,,,,,,,,,,,,,,,,,,False,49,50,True,exp4.png,exp3.png,trial_right_image,-1,exp3.png,4,exp4.png,exp3.png,0,4,reversed,incorrect,0.5648161396954903,0,valid_lose,313.69118830000025,26,,,,,,,,,,,,,,,sub_396,2023-12-18_10h03.37.802,Reversal,2023.1.3,60.095142629970546,4,
10,exp1.png,exp2.png,,2,0,2,0,0,10,10,10,,,,,,,,,,,,,,,,,,,,,,,,,False,50,51,True,exp2.png,exp1.png,trial_right_image,-1,exp1.png,4,exp2.png,exp1.png,0,2,non-reversed,incorrect,0.6977993415510096,0,valid_lose,319.1228774000001,26,,,,,,,,,,,,,,,sub_396,2023-12-18_10h03.37.802,Reversal,2023.1.3,60.095142629970546,4,
11,exp3.png,exp4.png,,2,0,2,0,0,11,11,11,,,,,,,,,,,,,,,,,,,,,,,,,False,51,52,False,exp3.png,exp4.png,trial_right_image,-1,exp4.png,4,exp4.png,exp3.png,1,3,reversed,correct,0.9145385948171251,1,valid_win,324.3706265999999,27,,,,,,,,,,,,,,,sub_396,2023-12-18_10h03.37.802,Reversal,2023.1.3,60.095142629970546,4,
12,exp1.png,exp2.png,,2,0,2,0,0,12,12,12,,,,,,,,,,,,,,,,,,,,,,,,,False,52,53,False,exp1.png,exp2.png,trial_left_image,1,exp1.png,4,exp2.png,exp1.png,0,2,non-reversed,incorrect,0.9596649179342964,0,valid_lose,330.31885390000025,27,,,,,,,,,,,,,,,sub_396,2023-12-18_10h03.37.802,Reversal,2023.1.3,60.095142629970546,4,
13,exp3.png,exp4.png,,2,0,2,0,0,13,13,13,,,,,,,,,,,,,,,,,,,,,,,,,False,53,54,True,exp4.png,exp3.png,trial_left_image,1,exp4.png,4,exp4.png,exp3.png,1,3,reversed,correct,0.7276100541406044,1,valid_win,335.2002561999998,28,,,,,,,,,,,,,,,sub_396,2023-12-18_10h03.37.802,Reversal,2023.1.3,60.095142629970546,4,
14,exp1.png,exp2.png,,2,0,2,0,0,14,14,14,,,,,,,,,,,,,,,,,,,,,,,,,False,54,55,False,exp1.png,exp2.png,trial_right_image,-1,exp2.png,4,exp2.png,exp1.png,1,1,non-reversed,correct,0.5252117432763966,1,valid_win,339.96537290000015,29,,,,,,,,,,,,,,,sub_396,2023-12-18_10h03.37.802,Reversal,2023.1.3,60.095142629970546,4,
15,exp3.png,exp4.png,,2,0,2,0,0,15,15,15,,,,,,,,,,,,,,,,,,,,,,,,,False,55,56,False,exp3.png,exp4.png,trial_right_image,-1,exp4.png,4,exp4.png,exp3.png,1,3,reversed,correct,0.8534582817701877,1,valid_win,344.6968933999997,30,,,,,,,,,,,,,,,sub_396,2023-12-18_10h03.37.802,Reversal,2023.1.3,60.095142629970546,4,
16,exp1.png,exp2.png,,2,0,2,0,0,16,16,16,,,,,,,,,,,,,,,,,,,,,,,,,False,56,57,False,exp1.png,exp2.png,trial_right_image,-1,exp2.png,4,exp2.png,exp1.png,1,1,non-reversed,correct,0.5767648574552093,1,valid_win,349.34601870000006,31,,,,,,,,,,,,,,,sub_396,2023-12-18_10h03.37.802,Reversal,2023.1.3,60.095142629970546,4,
17,exp3.png,exp4.png,,2,0,2,0,0,17,17,17,,,,,,,,,,,,,,,,,,,,,,,,,False,57,58,True,exp4.png,exp3.png,trial_left_image,1,exp4.png,4,exp4.png,exp3.png,1,3,reversed,correct,0.1938253001041731,0,invalid_lose,353.97732840000026,31,,,,,,,,,,,,,,,sub_396,2023-12-18_10h03.37.802,Reversal,2023.1.3,60.095142629970546,4,
18,exp1.png,exp2.png,,2,0,2,0,0,18,18,18,,,,,,,,,,,,,,,,,,,,,,,,,False,58,59,False,exp1.png,exp2.png,trial_right_image,-1,exp2.png,4,exp2.png,exp1.png,1,1,non-reversed,correct,0.8244509535799649,1,valid_win,358.8256200000005,32,,,,,,,,,,,,,,,sub_396,2023-12-18_10h03.37.802,Reversal,2023.1.3,60.095142629970546,4,
19,exp3.png,exp4.png,,2,0,2,0,0,19,19,19,,,,,,,,,,,,,,,,,,,,,,,,,False,59,60,False,exp3.png,exp4.png,trial_right_image,-1,exp4.png,4,exp4.png,exp3.png,1,3,reversed,correct,0.7669878392585328,1,valid_win,364.0242092999997,33,,,,,,,,,,,,,,,sub_396,2023-12-18_10h03.37.802,Reversal,2023.1.3,60.095142629970546,4,
20,exp1.png,exp2.png,,2,0,2,0,0,20,20,20,,,,,,,,,,,,,,,,,,,,,,,,,True,,,,,,,,,,,,,,,,,,,,,,,,,,,,,,,,,,,sub_396,2023-12-18_10h03.37.802,Reversal,2023.1.3,60.095142629970546,4,
,,,exp1.png,2,0,2,0,,,,,0,0,0,0,0,0,0,0,,,,,,,,,,,,,,,,,,,,,,,,,,,,,,,,,,,,,,448.47156150000046,19.0,19.0,3.24384419999933,"[(19.0, 3.24384419999933)]",,,,,,,,,,sub_396,2023-12-18_10h03.37.802,Reversal,2023.1.3,60.095142629970546,4,
,,,exp2.png,2,0,2,0,,,,,0,0,0,0,0,1,1,1,,,,,,,,,,,,,,,,,,,,,,,,,,,,,,,,,,,,,,452.7953498000006,,87.0,1.6629080000002432,"[(87.0, 1.6629080000002432)]",87.0,,,,,,,,,sub_396,2023-12-18_10h03.37.802,Reversal,2023.1.3,60.095142629970546,4,
,,,exp3.png,2,0,2,0,,,,,0,0,0,0,0,2,2,2,,,,,,,,,,,,,,,,,,,,,,,,,,,,,,,,,,,,,,455.4792012000007,,22.0,1.9615671999999904,"[(22.0, 1.9615671999999904)]",,22.0,,,,,,,,sub_396,2023-12-18_10h03.37.802,Reversal,2023.1.3,60.095142629970546,4,
,,,exp4.png,2,0,2,0,,,,,0,0,0,0,0,3,3,3,,,,,,,,,,,,,,,,,,,,,,,,,,,,,,,,,,,,,,458.5472829,,86.0,1.2758923000001232,"[(86.0, 1.2758923000001232)]",,,86.0,,,,,,,sub_396,2023-12-18_10h03.37.802,Reversal,2023.1.3,60.095142629970546,4,
0,exp1.png,exp2.png,,3,0,3,0,0,0,0,0,,,,,,,,,,,,,,,,,,,,,,,,,False,60,61,True,exp2.png,exp1.png,trial_left_image,1,exp2.png,4,exp2.png,exp1.png,1,1,non-reversed,correct,0.0680996911864169,0,invalid_lose,381.35152070000004,33,,,,,,,,,,,,,,,sub_396,2023-12-18_10h03.37.802,Reversal,2023.1.3,60.095142629970546,4,
1,exp3.png,exp4.png,,3,0,3,0,0,1,1,1,,,,,,,,,,,,,,,,,,,,,,,,,False,61,62,True,exp4.png,exp3.png,trial_right_image,-1,exp3.png,4,exp4.png,exp3.png,0,4,reversed,incorrect,0.2225789217477664,1,invalid_win,387.0498527,34,,,,,,,,,,,,,,,sub_396,2023-12-18_10h03.37.802,Reversal,2023.1.3,60.095142629970546,4,
2,exp1.png,exp2.png,,3,0,3,0,0,2,2,2,,,,,,,,,,,,,,,,,,,,,,,,,False,62,63,False,exp1.png,exp2.png,trial_right_image,-1,exp2.png,4,exp2.png,exp1.png,1,1,non-reversed,correct,0.9888078510750029,1,valid_win,392.3144848000002,35,,,,,,,,,,,,,,,sub_396,2023-12-18_10h03.37.802,Reversal,2023.1.3,60.095142629970546,4,
3,exp3.png,exp4.png,,3,0,3,0,0,3,3,3,,,,,,,,,,,,,,,,,,,,,,,,,False,63,64,False,exp3.png,exp4.png,trial_left_image,1,exp3.png,4,exp4.png,exp3.png,0,4,reversed,incorrect,0.9204942703181385,0,valid_lose,397.3631725000005,35,,,,,,,,,,,,,,,sub_396,2023-12-18_10h03.37.802,Reversal,2023.1.3,60.095142629970546,4,
4,exp1.png,exp2.png,,3,0,3,0,0,4,4,4,,,,,,,,,,,,,,,,,,,,,,,,,False,64,65,False,exp1.png,exp2.png,trial_left_image,1,exp1.png,4,exp2.png,exp1.png,0,2,non-reversed,incorrect,0.12361700282809707,1,invalid_win,403.01088320000053,36,,,,,,,,,,,,,,,sub_396,2023-12-18_10h03.37.802,Reversal,2023.1.3,60.095142629970546,4,
5,exp3.png,exp4.png,,3,0,3,0,0,5,5,5,,,,,,,,,,,,,,,,,,,,,,,,,False,65,66,False,exp3.png,exp4.png,trial_right_image,-1,exp4.png,4,exp4.png,exp3.png,1,3,reversed,correct,0.6679598242324079,1,valid_win,408.4257322000003,37,,,,,,,,,,,,,,,sub_396,2023-12-18_10h03.37.802,Reversal,2023.1.3,60.095142629970546,4,
6,exp1.png,exp2.png,,3,0,3,0,0,6,6,6,,,,,,,,,,,,,,,,,,,,,,,,,False,66,67,False,exp1.png,exp2.png,trial_left_image,1,exp1.png,4,exp2.png,exp1.png,0,2,non-reversed,incorrect,0.26292189808328525,0,valid_lose,413.37365520000003,37,,,,,,,,,,,,,,,sub_396,2023-12-18_10h03.37.802,Reversal,2023.1.3,60.095142629970546,4,
7,exp3.png,exp4.png,,3,0,3,0,0,7,7,7,,,,,,,,,,,,,,,,,,,,,,,,,False,67,68,True,exp4.png,exp3.png,trial_left_image,1,exp4.png,4,exp4.png,exp3.png,1,3,reversed,correct,0.6177787078332438,1,valid_win,418.5727916000005,38,,,,,,,,,,,,,,,sub_396,2023-12-18_10h03.37.802,Reversal,2023.1.3,60.095142629970546,4,
8,exp1.png,exp2.png,,3,0,3,0,0,8,8,8,,,,,,,,,,,,,,,,,,,,,,,,,False,68,69,False,exp1.png,exp2.png,trial_left_image,1,exp1.png,4,exp2.png,exp1.png,0,2,non-reversed,incorrect,0.7706651405995959,0,valid_lose,424.5704123000005,38,,,,,,,,,,,,,,,sub_396,2023-12-18_10h03.37.802,Reversal,2023.1.3,60.095142629970546,4,
9,exp3.png,exp4.png,,3,0,3,0,0,9,9,9,,,,,,,,,,,,,,,,,,,,,,,,,False,69,70,False,exp3.png,exp4.png,trial_left_image,1,exp3.png,4,exp4.png,exp3.png,0,4,reversed,incorrect,0.25038835440101337,0,valid_lose,429.73489979999977,38,,,,,,,,,,,,,,,sub_396,2023-12-18_10h03.37.802,Reversal,2023.1.3,60.095142629970546,4,
10,exp1.png,exp2.png,,3,0,3,0,0,10,10,10,,,,,,,,,,,,,,,,,,,,,,,,,False,70,71,True,exp2.png,exp1.png,trial_right_image,-1,exp1.png,4,exp2.png,exp1.png,0,2,non-reversed,incorrect,0.09088824823973096,1,invalid_win,434.54982199999995,39,,,,,,,,,,,,,,,sub_396,2023-12-18_10h03.37.802,Reversal,2023.1.3,60.095142629970546,4,
11,exp3.png,exp4.png,,3,0,3,0,0,11,11,11,,,,,,,,,,,,,,,,,,,,,,,,,False,71,72,True,exp4.png,exp3.png,trial_right_image,-1,exp3.png,4,exp4.png,exp3.png,0,4,reversed,incorrect,0.06371264648808073,1,invalid_win,439.7648239,40,,,,,,,,,,,,,,,sub_396,2023-12-18_10h03.37.802,Reversal,2023.1.3,60.095142629970546,4,
12,exp1.png,exp2.png,,3,0,3,0,0,12,12,12,,,,,,,,,,,,,,,,,,,,,,,,,False,72,73,False,exp1.png,exp2.png,trial_right_image,-1,exp2.png,4,exp2.png,exp1.png,1,1,non-reversed,correct,0.1622759087738872,0,invalid_lose,444.37974829999985,40,,,,,,,,,,,,,,,sub_396,2023-12-18_10h03.37.802,Reversal,2023.1.3,60.095142629970546,4,
13,exp3.png,exp4.png,,3,0,3,0,0,13,13,13,,,,,,,,,,,,,,,,,,,,,,,,,False,73,74,True,exp4.png,exp3.png,trial_left_image,1,exp4.png,4,exp4.png,exp3.png,1,3,reversed,correct,0.5418596057387803,1,valid_win,449.5781628000004,41,,,,,,,,,,,,,,,sub_396,2023-12-18_10h03.37.802,Reversal,2023.1.3,60.095142629970546,4,
14,exp1.png,exp2.png,,3,0,3,0,0,14,14,14,,,,,,,,,,,,,,,,,,,,,,,,,False,74,75,False,exp1.png,exp2.png,trial_left_image,1,exp1.png,4,exp2.png,exp1.png,0,2,non-reversed,incorrect,0.1647153808410351,1,invalid_win,454.8103692000004,42,,,,,,,,,,,,,,,sub_396,2023-12-18_10h03.37.802,Reversal,2023.1.3,60.095142629970546,4,
15,exp3.png,exp4.png,,3,0,3,0,0,15,15,15,,,,,,,,,,,,,,,,,,,,,,,,,False,75,76,True,exp4.png,exp3.png,trial_left_image,1,exp4.png,4,exp4.png,exp3.png,1,3,reversed,correct,0.012452575618402961,0,invalid_lose,461.92434930000036,42,,,,,,,,,,,,,,,sub_396,2023-12-18_10h03.37.802,Reversal,2023.1.3,60.095142629970546,4,
16,exp1.png,exp2.png,,3,0,3,0,0,16,16,16,,,,,,,,,,,,,,,,,,,,,,,,,False,76,77,True,exp2.png,exp1.png,trial_left_image,1,exp2.png,4,exp2.png,exp1.png,1,1,non-reversed,correct,0.11065316110352308,0,invalid_lose,466.9557494999999,42,,,,,,,,,,,,,,,sub_396,2023-12-18_10h03.37.802,Reversal,2023.1.3,60.095142629970546,4,
17,exp3.png,exp4.png,,3,0,3,0,0,17,17,17,,,,,,,,,,,,,,,,,,,,,,,,,False,77,78,True,exp4.png,exp3.png,trial_right_image,-1,exp3.png,4,exp4.png,exp3.png,0,4,reversed,incorrect,0.6377495306947312,0,valid_lose,471.9704711000004,42,,,,,,,,,,,,,,,sub_396,2023-12-18_10h03.37.802,Reversal,2023.1.3,60.095142629970546,4,
18,exp1.png,exp2.png,,3,0,3,0,0,18,18,18,,,,,,,,,,,,,,,,,,,,,,,,,False,78,79,True,exp2.png,exp1.png,trial_right_image,-1,exp1.png,4,exp2.png,exp1.png,0,2,non-reversed,incorrect,0.05891841685420274,1,invalid_win,476.30214590000014,43,,,,,,,,,,,,,,,sub_396,2023-12-18_10h03.37.802,Reversal,2023.1.3,60.095142629970546,4,
19,exp3.png,exp4.png,,3,0,3,0,0,19,19,19,,,,,,,,,,,,,,,,,,,,,,,,,False,79,80,False,exp3.png,exp4.png,trial_left_image,1,exp3.png,4,exp4.png,exp3.png,0,4,reversed,incorrect,0.8599759727277664,0,valid_lose,481.23437639999975,43,,,,,,,,,,,,,,,sub_396,2023-12-18_10h03.37.802,Reversal,2023.1.3,60.095142629970546,4,
20,exp1.png,exp2.png,,3,0,3,0,0,20,20,20,,,,,,,,,,,,,,,,,,,,,,,,,True,,,,,,,,,,,,,,,,,,,,,,,,,,,,,,,,,,,sub_396,2023-12-18_10h03.37.802,Reversal,2023.1.3,60.095142629970546,4,
,,,exp1.png,3,0,3,0,,,,,0,0,0,0,0,0,0,0,,,,,,,,,,,,,,,,,,,,,,,,,,,,,,,,,,,,,,565.6778447000006,75.0,75.0,3.095473899999888,"[(75.0, 3.095473899999888)]",,,,,,,,,,sub_396,2023-12-18_10h03.37.802,Reversal,2023.1.3,60.095142629970546,4,
,,,exp2.png,3,0,3,0,,,,,0,0,0,0,0,1,1,1,,,,,,,,,,,,,,,,,,,,,,,,,,,,,,,,,,,,,,570.2914322000006,,20.0,2.3770523000002868,"[(20.0, 2.3770523000002868)]",20.0,,,,,,,,,sub_396,2023-12-18_10h03.37.802,Reversal,2023.1.3,60.095142629970546,4,
,,,exp3.png,3,0,3,0,,,,,0,0,0,0,0,2,2,2,,,,,,,,,,,,,,,,,,,,,,,,,,,,,,,,,,,,,,573.7402253,,22.0,1.6606559000001653,"[(22.0, 1.6606559000001653)]",,22.0,,,,,,,,sub_396,2023-12-18_10h03.37.802,Reversal,2023.1.3,60.095142629970546,4,
,,,exp4.png,3,0,3,0,,,,,0,0,0,0,0,3,3,3,,,,,,,,,,,,,,,,,,,,,,,,,,,,,,,,,,,,,,576.3886897000002,,85.0,1.3441948999998203,"[(85.0, 1.3441948999998203)]",,,85.0,,,,,,,sub_396,2023-12-18_10h03.37.802,Reversal,2023.1.3,60.095142629970546,4,
0,exp1.png,exp2.png,,,,,,,,,,,,,,,,,,0,0,0,0,0,0,0,0,,,,,,,,,False,0,81,True,exp2.png,exp1.png,trial_left_image,1,exp2.png,4,exp2.png,exp1.png,1,1,non-reversed,correct,0.3569643563391295,1,valid_win,499.24471020000055,44,,,,,,,,,497.01706900000045,,,,,,sub_396,2023-12-18_10h03.37.802,Reversal,2023.1.3,60.095142629970546,4,
1,exp3.png,exp4.png,,,,,,,,,,,,,,,,,,0,0,0,0,0,1,1,1,,,,,,,,,False,1,82,True,exp4.png,exp3.png,trial_right_image,-1,exp3.png,4,exp3.png,exp4.png,0,4,reversed,correct,0.6523602888140825,1,valid_win,504.7097394000002,45,,,,,,,,,,,,,,,sub_396,2023-12-18_10h03.37.802,Reversal,2023.1.3,60.095142629970546,4,
2,exp1.png,exp2.png,,,,,,,,,,,,,,,,,,0,0,0,0,0,2,2,2,,,,,,,,,False,2,83,True,exp2.png,exp1.png,trial_left_image,1,exp2.png,4,exp2.png,exp1.png,1,1,non-reversed,correct,0.3267046389742374,1,valid_win,509.49111280000034,46,,,,,,,,,,,,,,,sub_396,2023-12-18_10h03.37.802,Reversal,2023.1.3,60.095142629970546,4,
3,exp3.png,exp4.png,,,,,,,,,,,,,,,,,,0,0,0,0,0,3,3,3,,,,,,,,,False,3,84,True,exp4.png,exp3.png,trial_right_image,-1,exp3.png,4,exp3.png,exp4.png,0,4,reversed,correct,0.46680816037638595,1,valid_win,514.2893616000001,47,,,,,,,,,,,,,,,sub_396,2023-12-18_10h03.37.802,Reversal,2023.1.3,60.095142629970546,4,
4,exp1.png,exp2.png,,,,,,,,,,,,,,,,,,0,0,0,0,0,4,4,4,,,,,,,,,False,4,85,False,exp1.png,exp2.png,trial_right_image,-1,exp2.png,4,exp2.png,exp1.png,1,1,non-reversed,correct,0.8723443614432452,1,valid_win,519.6042413000005,48,,,,,,,,,,,,,,,sub_396,2023-12-18_10h03.37.802,Reversal,2023.1.3,60.095142629970546,4,
5,exp3.png,exp4.png,,,,,,,,,,,,,,,,,,0,0,0,0,0,5,5,5,,,,,,,,,False,5,86,False,exp3.png,exp4.png,trial_left_image,1,exp3.png,4,exp3.png,exp4.png,0,4,reversed,correct,0.6445512435033243,1,valid_win,525.4860911000005,49,,,,,,,,,,,,,,,sub_396,2023-12-18_10h03.37.802,Reversal,2023.1.3,60.095142629970546,4,
6,exp1.png,exp2.png,,,,,,,,,,,,,,,,,,0,0,0,0,0,6,6,6,,,,,,,,,False,6,87,False,exp1.png,exp2.png,trial_left_image,1,exp1.png,4,exp2.png,exp1.png,0,2,non-reversed,incorrect,0.7269707562829161,0,valid_lose,530.6338200999999,49,,,,,,,,,,,,,,,sub_396,2023-12-18_10h03.37.802,Reversal,2023.1.3,60.095142629970546,4,
7,exp3.png,exp4.png,,,,,,,,,,,,,,,,,,0,0,0,0,0,7,7,7,,,,,,,,,False,7,88,False,exp3.png,exp4.png,trial_left_image,1,exp3.png,4,exp3.png,exp4.png,0,4,reversed,correct,0.21247504877951262,0,invalid_lose,535.7494156000002,49,,,,,,,,,,,,,,,sub_396,2023-12-18_10h03.37.802,Reversal,2023.1.3,60.095142629970546,4,
8,exp1.png,exp2.png,,,,,,,,,,,,,,,,,,0,0,0,0,0,8,8,8,,,,,,,,,False,8,89,True,exp2.png,exp1.png,trial_right_image,-1,exp1.png,4,exp2.png,exp1.png,0,2,non-reversed,incorrect,0.8994789965641096,0,valid_lose,541.1473903000006,49,,,,,,,,,,,,,,,sub_396,2023-12-18_10h03.37.802,Reversal,2023.1.3,60.095142629970546,4,
9,exp3.png,exp4.png,,,,,,,,,,,,,,,,,,0,0,0,0,0,9,9,9,,,,,,,,,False,9,90,False,exp3.png,exp4.png,trial_right_image,-1,exp4.png,4,exp3.png,exp4.png,1,3,reversed,incorrect,0.9939236522886287,0,valid_lose,546.2121696000004,49,,,,,,,,,,,,,,,sub_396,2023-12-18_10h03.37.802,Reversal,2023.1.3,60.095142629970546,4,
10,exp1.png,exp2.png,,,,,,,,,,,,,,,,,,0,0,0,0,0,10,10,10,,,,,,,,,False,10,91,True,exp2.png,exp1.png,trial_right_image,-1,exp1.png,4,exp2.png,exp1.png,0,2,non-reversed,incorrect,0.8612087367081996,0,valid_lose,551.3604658000004,49,,,,,,,,,,,,,,,sub_396,2023-12-18_10h03.37.802,Reversal,2023.1.3,60.095142629970546,4,
11,exp3.png,exp4.png,,,,,,,,,,,,,,,,,,0,0,0,0,0,11,11,11,,,,,,,,,False,11,92,False,exp3.png,exp4.png,trial_right_image,-1,exp4.png,4,exp3.png,exp4.png,1,3,reversed,incorrect,0.1824929462291649,1,invalid_win,556.2092512999998,50,,,,,,,,,,,,,,,sub_396,2023-12-18_10h03.37.802,Reversal,2023.1.3,60.095142629970546,4,
12,exp1.png,exp2.png,,,,,,,,,,,,,,,,,,0,0,0,0,0,12,12,12,,,,,,,,,False,12,93,True,exp2.png,exp1.png,trial_left_image,1,exp2.png,4,exp2.png,exp1.png,1,1,non-reversed,correct,0.1897847508496051,0,invalid_lose,562.8736707999997,50,,,,,,,,,,,,,,,sub_396,2023-12-18_10h03.37.802,Reversal,2023.1.3,60.095142629970546,4,
13,exp3.png,exp4.png,,,,,,,,,,,,,,,,,,0,0,0,0,0,13,13,13,,,,,,,,,False,13,94,True,exp4.png,exp3.png,trial_left_image,1,exp4.png,4,exp3.png,exp4.png,1,3,reversed,incorrect,0.7847932187839186,0,valid_lose,568.0383281000004,50,,,,,,,,,,,,,,,sub_396,2023-12-18_10h03.37.802,Reversal,2023.1.3,60.095142629970546,4,
14,exp1.png,exp2.png,,,,,,,,,,,,,,,,,,0,0,0,0,0,14,14,14,,,,,,,,,False,14,95,True,exp2.png,exp1.png,trial_right_image,-1,exp1.png,4,exp2.png,exp1.png,0,2,non-reversed,incorrect,0.15849167902469163,1,invalid_win,572.8032148000002,51,,,,,,,,,,,,,,,sub_396,2023-12-18_10h03.37.802,Reversal,2023.1.3,60.095142629970546,4,
15,exp3.png,exp4.png,,,,,,,,,,,,,,,,,,0,0,0,0,0,15,15,15,,,,,,,,,False,15,96,False,exp3.png,exp4.png,trial_left_image,1,exp3.png,4,exp3.png,exp4.png,0,4,reversed,correct,0.08072034723522337,0,invalid_lose,577.9350912999998,51,,,,,,,,,,,,,,,sub_396,2023-12-18_10h03.37.802,Reversal,2023.1.3,60.095142629970546,4,
16,exp1.png,exp2.png,,,,,,,,,,,,,,,,,,0,0,0,0,0,16,16,16,,,,,,,,,False,16,97,False,exp1.png,exp2.png,trial_left_image,1,exp1.png,4,exp2.png,exp1.png,0,2,non-reversed,incorrect,0.21377315455957402,1,invalid_win,583.0998577,52,,,,,,,,,,,,,,,sub_396,2023-12-18_10h03.37.802,Reversal,2023.1.3,60.095142629970546,4,
17,exp3.png,exp4.png,,,,,,,,,,,,,,,,,,0,0,0,0,0,17,17,17,,,,,,,,,False,17,98,True,exp4.png,exp3.png,trial_right_image,-1,exp3.png,4,exp3.png,exp4.png,0,4,reversed,correct,0.6788542133912512,1,valid_win,588.3146237999999,53,,,,,,,,,,,,,,,sub_396,2023-12-18_10h03.37.802,Reversal,2023.1.3,60.095142629970546,4,
18,exp1.png,exp2.png,,,,,,,,,,,,,,,,,,0,0,0,0,0,18,18,18,,,,,,,,,False,18,99,False,exp1.png,exp2.png,trial_left_image,1,exp1.png,4,exp2.png,exp1.png,0,2,non-reversed,incorrect,0.0311918555523526,1,invalid_win,593.5295262999998,54,,,,,,,,,,,,,,,sub_396,2023-12-18_10h03.37.802,Reversal,2023.1.3,60.095142629970546,4,
19,exp3.png,exp4.png,,,,,,,,,,,,,,,,,,0,0,0,0,0,19,19,19,,,,,,,,,False,19,100,False,exp3.png,exp4.png,trial_left_image,1,exp3.png,4,exp3.png,exp4.png,0,4,reversed,correct,0.09562805977228683,0,invalid_lose,597.9285393999999,54,,,,,,,,,,,,,,,sub_396,2023-12-18_10h03.37.802,Reversal,2023.1.3,60.095142629970546,4,
20,exp1.png,exp2.png,,,,,,,,,,,,,,,,,,0,0,0,0,0,20,20,20,,,,,,,,,True,,,,,,,,,,,,,,,,,,,,,,,,,,,,,,,,,,,sub_396,2023-12-18_10h03.37.802,Reversal,2023.1.3,60.095142629970546,4,
,,,exp1.png,,,,,,,,,,,,,,,,,0,0,0,0,,,,,0,0,0,0,0,0,0,0,,,,,,,,,,,,,,,,,,,,,,682.3748601000007,88.0,88.0,2.609332099999847,"[(88.0, 2.609332099999847)]",,,,,,,,,,sub_396,2023-12-18_10h03.37.802,Reversal,2023.1.3,60.095142629970546,4,
,,,exp2.png,,,,,,,,,,,,,,,,,0,0,0,0,,,,,0,0,0,0,0,1,1,1,,,,,,,,,,,,,,,,,,,,,,686.0346883000002,,19.0,1.5950374999993073,"[(19.0, 1.5950374999993073)]",19.0,,,,,,,,,sub_396,2023-12-18_10h03.37.802,Reversal,2023.1.3,60.095142629970546,4,
,,,exp3.png,,,,,,,,,,,,,,,,,0,0,0,0,,,,,0,0,0,0,0,2,2,2,,,,,,,,,,,,,,,,,,,,,,688.6686313999999,,23.0,1.6599302999993597,"[(23.0, 1.6599302999993597)]",,23.0,,,,,,,,sub_396,2023-12-18_10h03.37.802,Reversal,2023.1.3,60.095142629970546,4,
,,,exp4.png,,,,,,,,,,,,,,,,,0,0,0,0,,,,,0,0,0,0,0,3,3,3,,,,,,,,,,,,,,,,,,,,,,691.3494596999999,,86.0,1.4613752999994176,"[(86.0, 1.4613752999994176)]",,,86.0,,,,,,,sub_396,2023-12-18_10h03.37.802,Reversal,2023.1.3,60.095142629970546,4,
0,exp1.png,exp2.png,,,,,,,,,,,,,,,,,,1,0,1,0,0,0,0,0,,,,,,,,,False,20,101,True,exp2.png,exp1.png,trial_right_image,-1,exp1.png,4,exp2.png,exp1.png,0,2,non-reversed,incorrect,0.9131900328761838,0,valid_lose,614.1223697000005,54,,,,,,,,,,,,,,,sub_396,2023-12-18_10h03.37.802,Reversal,2023.1.3,60.095142629970546,4,
1,exp3.png,exp4.png,,,,,,,,,,,,,,,,,,1,0,1,0,0,1,1,1,,,,,,,,,False,21,102,False,exp3.png,exp4.png,trial_right_image,-1,exp4.png,4,exp3.png,exp4.png,1,3,reversed,incorrect,0.9607980603820413,0,valid_lose,618.9211485000005,54,,,,,,,,,,,,,,,sub_396,2023-12-18_10h03.37.802,Reversal,2023.1.3,60.095142629970546,4,
2,exp1.png,exp2.png,,,,,,,,,,,,,,,,,,1,0,1,0,0,2,2,2,,,,,,,,,False,22,103,False,exp1.png,exp2.png,trial_right_image,-1,exp2.png,4,exp2.png,exp1.png,1,1,non-reversed,correct,0.9861512515779213,1,valid_win,623.5538574000002,55,,,,,,,,,,,,,,,sub_396,2023-12-18_10h03.37.802,Reversal,2023.1.3,60.095142629970546,4,
3,exp3.png,exp4.png,,,,,,,,,,,,,,,,,,1,0,1,0,0,3,3,3,,,,,,,,,False,23,104,False,exp3.png,exp4.png,trial_right_image,-1,exp4.png,4,exp3.png,exp4.png,1,3,reversed,incorrect,0.6865007595501134,0,valid_lose,628.1353851000003,55,,,,,,,,,,,,,,,sub_396,2023-12-18_10h03.37.802,Reversal,2023.1.3,60.095142629970546,4,
4,exp1.png,exp2.png,,,,,,,,,,,,,,,,,,1,0,1,0,0,4,4,4,,,,,,,,,False,24,105,True,exp2.png,exp1.png,trial_right_image,-1,exp1.png,4,exp2.png,exp1.png,0,2,non-reversed,incorrect,0.20887705513465682,1,invalid_win,632.7328251999998,56,,,,,,,,,,,,,,,sub_396,2023-12-18_10h03.37.802,Reversal,2023.1.3,60.095142629970546,4,
5,exp3.png,exp4.png,,,,,,,,,,,,,,,,,,1,0,1,0,0,5,5,5,,,,,,,,,False,25,106,False,exp3.png,exp4.png,trial_left_image,1,exp3.png,4,exp3.png,exp4.png,0,4,reversed,correct,0.25254004827716414,1,valid_win,636.9153772,57,,,,,,,,,,,,,,,sub_396,2023-12-18_10h03.37.802,Reversal,2023.1.3,60.095142629970546,4,
6,exp1.png,exp2.png,,,,,,,,,,,,,,,,,,1,0,1,0,0,6,6,6,,,,,,,,,False,26,107,False,exp1.png,exp2.png,trial_left_image,1,exp1.png,4,exp2.png,exp1.png,0,2,non-reversed,incorrect,0.24216138821655597,1,invalid_win,642.0631056000002,58,,,,,,,,,,,,,,,sub_396,2023-12-18_10h03.37.802,Reversal,2023.1.3,60.095142629970546,4,
7,exp3.png,exp4.png,,,,,,,,,,,,,,,,,,1,0,1,0,0,7,7,7,,,,,,,,,False,27,108,True,exp4.png,exp3.png,trial_right_image,-1,exp3.png,4,exp3.png,exp4.png,0,4,reversed,correct,0.9173481677361868,1,valid_win,647.0776891000005,59,,,,,,,,,,,,,,,sub_396,2023-12-18_10h03.37.802,Reversal,2023.1.3,60.095142629970546,4,
8,exp1.png,exp2.png,,,,,,,,,,,,,,,,,,1,0,1,0,0,8,8,8,,,,,,,,,False,28,109,True,exp2.png,exp1.png,trial_right_image,-1,exp1.png,4,exp2.png,exp1.png,0,2,non-reversed,incorrect,0.8311513832880154,0,valid_lose,652.6759766000005,59,,,,,,,,,,,,,,,sub_396,2023-12-18_10h03.37.802,Reversal,2023.1.3,60.095142629970546,4,
9,exp3.png,exp4.png,,,,,,,,,,,,,,,,,,1,0,1,0,0,9,9,9,,,,,,,,,False,29,110,True,exp4.png,exp3.png,trial_right_image,-1,exp3.png,4,exp3.png,exp4.png,0,4,reversed,correct,0.9037552547002184,1,valid_win,657.6909105000004,60,,,,,,,,,,,,,,,sub_396,2023-12-18_10h03.37.802,Reversal,2023.1.3,60.095142629970546,4,
10,exp1.png,exp2.png,,,,,,,,,,,,,,,,,,1,0,1,0,0,10,10,10,,,,,,,,,False,30,111,False,exp1.png,exp2.png,trial_right_image,-1,exp2.png,4,exp2.png,exp1.png,1,1,non-reversed,correct,0.2655561084042133,1,valid_win,663.0224106000005,61,,,,,,,,,,,,,,,sub_396,2023-12-18_10h03.37.802,Reversal,2023.1.3,60.095142629970546,4,
11,exp3.png,exp4.png,,,,,,,,,,,,,,,,,,1,0,1,0,0,11,11,11,,,,,,,,,False,31,112,True,exp4.png,exp3.png,trial_right_image,-1,exp3.png,4,exp3.png,exp4.png,0,4,reversed,correct,0.8081353323118741,1,valid_win,668.4038599000005,62,,,,,,,,,,,,,,,sub_396,2023-12-18_10h03.37.802,Reversal,2023.1.3,60.095142629970546,4,
12,exp1.png,exp2.png,,,,,,,,,,,,,,,,,,1,0,1,0,0,12,12,12,,,,,,,,,False,32,113,True,exp2.png,exp1.png,trial_right_image,-1,exp1.png,4,exp2.png,exp1.png,0,2,non-reversed,incorrect,0.2062179171412084,1,invalid_win,674.0025387000005,63,,,,,,,,,,,,,,,sub_396,2023-12-18_10h03.37.802,Reversal,2023.1.3,60.095142629970546,4,
13,exp3.png,exp4.png,,,,,,,,,,,,,,,,,,1,0,1,0,0,13,13,13,,,,,,,,,False,33,114,True,exp4.png,exp3.png,trial_left_image,1,exp4.png,4,exp3.png,exp4.png,1,3,reversed,incorrect,0.31547222207926684,0,valid_lose,680.6498727999997,63,,,,,,,,,,,,,,,sub_396,2023-12-18_10h03.37.802,Reversal,2023.1.3,60.095142629970546,4,
14,exp1.png,exp2.png,,,,,,,,,,,,,,,,,,1,0,1,0,0,14,14,14,,,,,,,,,False,34,115,False,exp1.png,exp2.png,trial_left_image,1,exp1.png,4,exp2.png,exp1.png,0,2,non-reversed,incorrect,0.3380478807553463,0,valid_lose,685.9145521999999,63,,,,,,,,,,,,,,,sub_396,2023-12-18_10h03.37.802,Reversal,2023.1.3,60.095142629970546,4,
15,exp3.png,exp4.png,,,,,,,,,,,,,,,,,,1,0,1,0,0,15,15,15,,,,,,,,,False,35,116,False,exp3.png,exp4.png,trial_right_image,-1,exp4.png,4,exp3.png,exp4.png,1,3,reversed,incorrect,0.5969971735447414,0,valid_lose,691.1298672000003,63,,,,,,,,,,,,,,,sub_396,2023-12-18_10h03.37.802,Reversal,2023.1.3,60.095142629970546,4,
16,exp1.png,exp2.png,,,,,,,,,,,,,,,,,,1,0,1,0,0,16,16,16,,,,,,,,,False,36,117,False,exp1.png,exp2.png,trial_right_image,-1,exp2.png,4,exp2.png,exp1.png,1,1,non-reversed,correct,0.7264911880706169,1,valid_win,697.3443152999998,64,,,,,,,,,,,,,,,sub_396,2023-12-18_10h03.37.802,Reversal,2023.1.3,60.095142629970546,4,
17,exp3.png,exp4.png,,,,,,,,,,,,,,,,,,1,0,1,0,0,17,17,17,,,,,,,,,False,37,118,False,exp3.png,exp4.png,trial_left_image,1,exp3.png,4,exp3.png,exp4.png,0,4,reversed,correct,0.36584612412935813,1,valid_win,702.7760282999998,65,,,,,,,,,,,,,,,sub_396,2023-12-18_10h03.37.802,Reversal,2023.1.3,60.095142629970546,4,
18,exp1.png,exp2.png,,,,,,,,,,,,,,,,,,1,0,1,0,0,18,18,18,,,,,,,,,False,38,119,True,exp2.png,exp1.png,trial_right_image,-1,exp1.png,4,exp2.png,exp1.png,0,2,non-reversed,incorrect,0.9700954938197521,0,valid_lose,707.8246054000001,65,,,,,,,,,,,,,,,sub_396,2023-12-18_10h03.37.802,Reversal,2023.1.3,60.095142629970546,4,
19,exp3.png,exp4.png,,,,,,,,,,,,,,,,,,1,0,1,0,0,19,19,19,,,,,,,,,False,39,120,True,exp4.png,exp3.png,trial_right_image,-1,exp3.png,4,exp3.png,exp4.png,0,4,reversed,correct,0.5788104848189375,1,valid_win,712.9734417,66,,,,,,,,,,,,,,,sub_396,2023-12-18_10h03.37.802,Reversal,2023.1.3,60.095142629970546,4,
20,exp1.png,exp2.png,,,,,,,,,,,,,,,,,,1,0,1,0,0,20,20,20,,,,,,,,,True,,,,,,,,,,,,,,,,,,,,,,,,,,,,,,,,,,,sub_396,2023-12-18_10h03.37.802,Reversal,2023.1.3,60.095142629970546,4,
,,,exp1.png,,,,,,,,,,,,,,,,,1,0,1,0,,,,,0,0,0,0,0,0,0,0,,,,,,,,,,,,,,,,,,,,,,797.4187688000002,83.0,83.0,3.40848349999942,"[(83.0, 3.40848349999942)]",,,,,,,,,,sub_396,2023-12-18_10h03.37.802,Reversal,2023.1.3,60.095142629970546,4,
,,,exp2.png,,,,,,,,,,,,,,,,,1,0,1,0,,,,,0,0,0,0,0,1,1,1,,,,,,,,,,,,,,,,,,,,,,802.3774887,,15.0,2.745600899999772,"[(15.0, 2.745600899999772)]",15.0,,,,,,,,,sub_396,2023-12-18_10h03.37.802,Reversal,2023.1.3,60.095142629970546,4,
,,,exp3.png,,,,,,,,,,,,,,,,,1,0,1,0,,,,,0,0,0,0,0,2,2,2,,,,,,,,,,,,,,,,,,,,,,806.2940563000002,,87.0,1.8615350999998554,"[(87.0, 1.8615350999998554)]",,87.0,,,,,,,,sub_396,2023-12-18_10h03.37.802,Reversal,2023.1.3,60.095142629970546,4,
,,,exp4.png,,,,,,,,,,,,,,,,,1,0,1,0,,,,,0,0,0,0,0,3,3,3,,,,,,,,,,,,,,,,,,,,,,809.3774334,,19.0,1.42681790000006,"[(19.0, 1.42681790000006)]",,,19.0,,,,,,,sub_396,2023-12-18_10h03.37.802,Reversal,2023.1.3,60.095142629970546,4,
0,exp1.png,exp2.png,,,,,,,,,,,,,,,,,,2,0,2,0,0,0,0,0,,,,,,,,,False,40,121,True,exp2.png,exp1.png,trial_right_image,-1,exp1.png,4,exp2.png,exp1.png,0,2,non-reversed,incorrect,0.5397707878206796,0,valid_lose,732.1657029999997,66,,,,,,,,,,,,,,,sub_396,2023-12-18_10h03.37.802,Reversal,2023.1.3,60.095142629970546,4,
1,exp3.png,exp4.png,,,,,,,,,,,,,,,,,,2,0,2,0,0,1,1,1,,,,,,,,,False,41,122,False,exp3.png,exp4.png,trial_left_image,1,exp3.png,4,exp3.png,exp4.png,0,4,reversed,correct,0.2359357505213362,0,invalid_lose,737.7478074,66,,,,,,,,,,,,,,,sub_396,2023-12-18_10h03.37.802,Reversal,2023.1.3,60.095142629970546,4,
2,exp1.png,exp2.png,,,,,,,,,,,,,,,,,,2,0,2,0,0,2,2,2,,,,,,,,,False,42,123,False,exp1.png,exp2.png,trial_left_image,1,exp1.png,4,exp2.png,exp1.png,0,2,non-reversed,incorrect,0.07863489290737069,1,invalid_win,743.0633920999999,67,,,,,,,,,,,,,,,sub_396,2023-12-18_10h03.37.802,Reversal,2023.1.3,60.095142629970546,4,
3,exp3.png,exp4.png,,,,,,,,,,,,,,,,,,2,0,2,0,0,3,3,3,,,,,,,,,False,43,124,True,exp4.png,exp3.png,trial_left_image,1,exp4.png,4,exp3.png,exp4.png,1,3,reversed,incorrect,0.9230259167073699,0,valid_lose,747.5940251000002,67,,,,,,,,,,,,,,,sub_396,2023-12-18_10h03.37.802,Reversal,2023.1.3,60.095142629970546,4,
4,exp1.png,exp2.png,,,,,,,,,,,,,,,,,,2,0,2,0,0,4,4,4,,,,,,,,,False,44,125,False,exp1.png,exp2.png,trial_right_image,-1,exp2.png,4,exp2.png,exp1.png,1,1,non-reversed,correct,0.35078148095302986,1,valid_win,753.5422502000001,68,,,,,,,,,,,,,,,sub_396,2023-12-18_10h03.37.802,Reversal,2023.1.3,60.095142629970546,4,
5,exp3.png,exp4.png,,,,,,,,,,,,,,,,,,2,0,2,0,0,5,5,5,,,,,,,,,False,45,126,True,exp4.png,exp3.png,trial_right_image,-1,exp3.png,4,exp3.png,exp4.png,0,4,reversed,correct,0.7414479219538735,1,valid_win,759.0905315999998,69,,,,,,,,,,,,,,,sub_396,2023-12-18_10h03.37.802,Reversal,2023.1.3,60.095142629970546,4,
6,exp1.png,exp2.png,,,,,,,,,,,,,,,,,,2,0,2,0,0,6,6,6,,,,,,,,,False,46,127,True,exp2.png,exp1.png,trial_left_image,1,exp2.png,4,exp2.png,exp1.png,1,1,non-reversed,correct,0.8284783871553129,1,valid_win,764.7221583999999,70,,,,,,,,,,,,,,,sub_396,2023-12-18_10h03.37.802,Reversal,2023.1.3,60.095142629970546,4,
7,exp3.png,exp4.png,,,,,,,,,,,,,,,,,,2,0,2,0,0,7,7,7,,,,,,,,,False,47,128,False,exp3.png,exp4.png,trial_right_image,-1,exp4.png,4,exp3.png,exp4.png,1,3,reversed,incorrect,0.2909171056794201,0,valid_lose,769.9527939999998,70,,,,,,,,,,,,,,,sub_396,2023-12-18_10h03.37.802,Reversal,2023.1.3,60.095142629970546,4,
8,exp1.png,exp2.png,,,,,,,,,,,,,,,,,,2,0,2,0,0,8,8,8,,,,,,,,,False,48,129,False,exp1.png,exp2.png,trial_right_image,-1,exp2.png,4,exp2.png,exp1.png,1,1,non-reversed,correct,0.19864598224286378,0,invalid_lose,775.5181238000005,70,,,,,,,,,,,,,,,sub_396,2023-12-18_10h03.37.802,Reversal,2023.1.3,60.095142629970546,4,
9,exp3.png,exp4.png,,,,,,,,,,,,,,,,,,2,0,2,0,0,9,9,9,,,,,,,,,False,49,130,False,exp3.png,exp4.png,trial_right_image,-1,exp4.png,4,exp3.png,exp4.png,1,3,reversed,incorrect,0.5468799330427109,0,valid_lose,780.4493383999998,70,,,,,,,,,,,,,,,sub_396,2023-12-18_10h03.37.802,Reversal,2023.1.3,60.095142629970546,4,
10,exp1.png,exp2.png,,,,,,,,,,,,,,,,,,2,0,2,0,0,10,10,10,,,,,,,,,False,50,131,True,exp2.png,exp1.png,trial_right_image,-1,exp1.png,4,exp2.png,exp1.png,0,2,non-reversed,incorrect,0.5375454898810879,0,valid_lose,785.6477621000004,70,,,,,,,,,,,,,,,sub_396,2023-12-18_10h03.37.802,Reversal,2023.1.3,60.095142629970546,4,
11,exp3.png,exp4.png,,,,,,,,,,,,,,,,,,2,0,2,0,0,11,11,11,,,,,,,,,False,51,132,False,exp3.png,exp4.png,trial_right_image,-1,exp4.png,4,exp3.png,exp4.png,1,3,reversed,incorrect,0.7496327227944896,0,valid_lose,790.8961448,70,,,,,,,,,,,,,,,sub_396,2023-12-18_10h03.37.802,Reversal,2023.1.3,60.095142629970546,4,
12,exp1.png,exp2.png,,,,,,,,,,,,,,,,,,2,0,2,0,0,12,12,12,,,,,,,,,False,52,133,False,exp1.png,exp2.png,trial_left_image,1,exp1.png,4,exp2.png,exp1.png,0,2,non-reversed,incorrect,0.15830293140401153,1,invalid_win,795.8779921000005,71,,,,,,,,,,,,,,,sub_396,2023-12-18_10h03.37.802,Reversal,2023.1.3,60.095142629970546,4,
13,exp3.png,exp4.png,,,,,,,,,,,,,,,,,,2,0,2,0,0,13,13,13,,,,,,,,,False,53,134,False,exp3.png,exp4.png,trial_left_image,1,exp3.png,4,exp3.png,exp4.png,0,4,reversed,correct,0.03487861193117703,0,invalid_lose,800.7430073000005,71,,,,,,,,,,,,,,,sub_396,2023-12-18_10h03.37.802,Reversal,2023.1.3,60.095142629970546,4,
14,exp1.png,exp2.png,,,,,,,,,,,,,,,,,,2,0,2,0,0,14,14,14,,,,,,,,,False,54,135,True,exp2.png,exp1.png,trial_left_image,1,exp2.png,4,exp2.png,exp1.png,1,1,non-reversed,correct,0.6431865031254145,1,valid_win,805.6575240000002,72,,,,,,,,,,,,,,,sub_396,2023-12-18_10h03.37.802,Reversal,2023.1.3,60.095142629970546,4,
15,exp3.png,exp4.png,,,,,,,,,,,,,,,,,,2,0,2,0,0,15,15,15,,,,,,,,,False,55,136,True,exp4.png,exp3.png,trial_right_image,-1,exp3.png,4,exp3.png,exp4.png,0,4,reversed,correct,0.9649796333592261,1,valid_win,810.2897620000003,73,,,,,,,,,,,,,,,sub_396,2023-12-18_10h03.37.802,Reversal,2023.1.3,60.095142629970546,4,
16,exp1.png,exp2.png,,,,,,,,,,,,,,,,,,2,0,2,0,0,16,16,16,,,,,,,,,False,56,137,True,exp2.png,exp1.png,trial_left_image,1,exp2.png,4,exp2.png,exp1.png,1,1,non-reversed,correct,0.4422183608580198,1,valid_win,815.5208691999997,74,,,,,,,,,,,,,,,sub_396,2023-12-18_10h03.37.802,Reversal,2023.1.3,60.095142629970546,4,
17,exp3.png,exp4.png,,,,,,,,,,,,,,,,,,2,0,2,0,0,17,17,17,,,,,,,,,False,57,138,True,exp4.png,exp3.png,trial_right_image,-1,exp3.png,4,exp3.png,exp4.png,0,4,reversed,correct,0.6538910630154621,1,valid_win,820.0528931999997,75,,,,,,,,,,,,,,,sub_396,2023-12-18_10h03.37.802,Reversal,2023.1.3,60.095142629970546,4,
18,exp1.png,exp2.png,,,,,,,,,,,,,,,,,,2,0,2,0,0,18,18,18,,,,,,,,,False,58,139,True,exp2.png,exp1.png,trial_left_image,1,exp2.png,4,exp2.png,exp1.png,1,1,non-reversed,correct,0.610653118369397,1,valid_win,825.0507378000002,76,,,,,,,,,,,,,,,sub_396,2023-12-18_10h03.37.802,Reversal,2023.1.3,60.095142629970546,4,
19,exp3.png,exp4.png,,,,,,,,,,,,,,,,,,2,0,2,0,0,19,19,19,,,,,,,,,False,59,140,False,exp3.png,exp4.png,trial_right_image,-1,exp4.png,4,exp3.png,exp4.png,1,3,reversed,incorrect,0.9626397129819217,0,valid_lose,829.9164384000005,76,,,,,,,,,,,,,,,sub_396,2023-12-18_10h03.37.802,Reversal,2023.1.3,60.095142629970546,4,
20,exp1.png,exp2.png,,,,,,,,,,,,,,,,,,2,0,2,0,0,20,20,20,,,,,,,,,True,,,,,,,,,,,,,,,,,,,,,,,,,,,,,,,,,,,sub_396,2023-12-18_10h03.37.802,Reversal,2023.1.3,60.095142629970546,4,
,,,exp1.png,,,,,,,,,,,,,,,,,2,0,2,0,,,,,0,0,0,0,0,0,0,0,,,,,,,,,,,,,,,,,,,,,,914.3688755000003,89.0,89.0,3.7023167999996076,"[(89.0, 3.7023167999996076)]",,,,,,,,,,sub_396,2023-12-18_10h03.37.802,Reversal,2023.1.3,60.095142629970546,4,
,,,exp2.png,,,,,,,,,,,,,,,,,2,0,2,0,,,,,0,0,0,0,0,1,1,1,,,,,,,,,,,,,,,,,,,,,,919.2385049000004,,19.0,1.8118686999996498,"[(19.0, 1.8118686999996498)]",19.0,,,,,,,,,sub_396,2023-12-18_10h03.37.802,Reversal,2023.1.3,60.095142629970546,4,
,,,exp3.png,,,,,,,,,,,,,,,,,2,0,2,0,,,,,0,0,0,0,0,2,2,2,,,,,,,,,,,,,,,,,,,,,,922.2704787000002,,17.0,1.811444500000107,"[(17.0, 1.811444500000107)]",,17.0,,,,,,,,sub_396,2023-12-18_10h03.37.802,Reversal,2023.1.3,60.095142629970546,4,
,,,exp4.png,,,,,,,,,,,,,,,,,2,0,2,0,,,,,0,0,0,0,0,3,3,3,,,,,,,,,,,,,,,,,,,,,,925.2360511000006,,85.0,1.3949284000000262,"[(85.0, 1.3949284000000262)]",,,85.0,,,,,,,sub_396,2023-12-18_10h03.37.802,Reversal,2023.1.3,60.095142629970546,4,
,,,,,,,,,,,,,,,,,,,,,,,,,,,,,,,,,,,,,,,,,,,,,,,,,,,,,,,,76,,,,,,,,,,74,43,31,348.7113040999993,1,,,,,,,
