trial_index,trial_image1_file,trial_image2_file,image_file,learning_outer_loop.thisRepN,learning_outer_loop.thisTrialN,learning_outer_loop.thisN,learning_outer_loop.thisIndex,learning_inner_loop.thisRepN,learning_inner_loop.thisTrialN,learning_inner_loop.thisN,learning_inner_loop.thisIndex,learning_estimation_outer_loop.thisRepN,learning_estimation_outer_loop.thisTrialN,learning_estimation_outer_loop.thisN,learning_estimation_outer_loop.thisIndex,learning_estimation_inner_loop.thisRepN,learning_estimation_inner_loop.thisTrialN,learning_estimation_inner_loop.thisN,learning_estimation_inner_loop.thisIndex,reversal_outer_loop.thisRepN,reversal_outer_loop.thisTrialN,reversal_outer_loop.thisN,reversal_outer_loop.thisIndex,reversal_inner_loop.thisRepN,reversal_inner_loop.thisTrialN,reversal_inner_loop.thisN,reversal_inner_loop.thisIndex,reversal_estimation_outer_loop.thisRepN,reversal_estimation_outer_loop.thisTrialN,reversal_estimation_outer_loop.thisN,reversal_estimation_outer_loop.thisIndex,reversal_estimation_inner_loop.thisRepN,reversal_estimation_inner_loop.thisTrialN,reversal_estimation_inner_loop.thisN,reversal_estimation_inner_loop.thisIndex,skipped,total_trial_counter,trial_num,left_right_flip,left_image_file,right_image_file,clicked_stimulus_side,side,clicked_stimulus,version,high_prob_image_file,low_prob_image_file,choice_a,choice_b,pair_type,correct,trial_feedback_random,reward,trial_type,overall_time_after_trial,score,estimation_rating.response,estimation_rating.rt,estimation_rating.history,estimation_rating.started,estimation_rating.stopped,estimation_exp2.png,estimation_exp3.png,estimation_exp4.png,estimation_exp1.png,total_learning_time,total_correct,learning_correct,reversal_correct,total_reversal_time,extra_block,participant,date,expName,psychopyVersion,frameRate,ver,
0,exp1.png,exp2.png,,0,0,0,0,0,0,0,0,,,,,,,,,,,,,,,,,,,,,,,,,False,0,1,False,exp1.png,exp2.png,trial_right_image,-1,exp2.png,2,exp1.png,exp2.png,0,2,non-reversed,incorrect,0.43079228442373363,0,valid_lose,3.9214076998177916,0,,,,,,,,,,,,,,,,sub_230,2022-11-10_08h42.57.751,Reversal,2022.1.2,59.96972724665354,2,
1,exp3.png,exp4.png,,0,0,0,0,0,1,1,1,,,,,,,,,,,,,,,,,,,,,,,,,False,1,2,False,exp3.png,exp4.png,trial_left_image,1,exp3.png,2,exp3.png,exp4.png,1,3,reversed,correct,0.13352423945554381,0,invalid_lose,11.383398599922657,0,,,,,,,,,,,,,,,,sub_230,2022-11-10_08h42.57.751,Reversal,2022.1.2,59.96972724665354,2,
2,exp1.png,exp2.png,,0,0,0,0,0,2,2,2,,,,,,,,,,,,,,,,,,,,,,,,,False,2,3,False,exp1.png,exp2.png,trial_left_image,1,exp1.png,2,exp1.png,exp2.png,1,1,non-reversed,correct,0.8029075693043677,1,valid_win,18.88360539986752,1,,,,,,,,,,,,,,,,sub_230,2022-11-10_08h42.57.751,Reversal,2022.1.2,59.96972724665354,2,
3,exp3.png,exp4.png,,0,0,0,0,0,3,3,3,,,,,,,,,,,,,,,,,,,,,,,,,False,3,4,True,exp4.png,exp3.png,trial_left_image,1,exp4.png,2,exp3.png,exp4.png,0,4,reversed,incorrect,0.1542556175505586,1,invalid_win,28.166470599826425,2,,,,,,,,,,,,,,,,sub_230,2022-11-10_08h42.57.751,Reversal,2022.1.2,59.96972724665354,2,
4,exp1.png,exp2.png,,0,0,0,0,0,4,4,4,,,,,,,,,,,,,,,,,,,,,,,,,False,4,5,False,exp1.png,exp2.png,trial_left_image,1,exp1.png,2,exp1.png,exp2.png,1,1,non-reversed,correct,0.02626527605795448,0,invalid_lose,34.61631489987485,2,,,,,,,,,,,,,,,,sub_230,2022-11-10_08h42.57.751,Reversal,2022.1.2,59.96972724665354,2,
5,exp3.png,exp4.png,,0,0,0,0,0,5,5,5,,,,,,,,,,,,,,,,,,,,,,,,,False,5,6,True,exp4.png,exp3.png,trial_left_image,1,exp4.png,2,exp3.png,exp4.png,0,4,reversed,incorrect,0.04354203374894827,1,invalid_win,40.8163205999881,3,,,,,,,,,,,,,,,,sub_230,2022-11-10_08h42.57.751,Reversal,2022.1.2,59.96972724665354,2,
6,exp1.png,exp2.png,,0,0,0,0,0,6,6,6,,,,,,,,,,,,,,,,,,,,,,,,,False,6,7,True,exp2.png,exp1.png,trial_right_image,-1,exp1.png,2,exp1.png,exp2.png,1,1,non-reversed,correct,0.5800904189615864,1,valid_win,47.51607139990665,4,,,,,,,,,,,,,,,,sub_230,2022-11-10_08h42.57.751,Reversal,2022.1.2,59.96972724665354,2,
7,exp3.png,exp4.png,,0,0,0,0,0,7,7,7,,,,,,,,,,,,,,,,,,,,,,,,,False,7,8,False,exp3.png,exp4.png,trial_left_image,1,exp3.png,2,exp3.png,exp4.png,1,3,reversed,correct,0.6288967016452423,1,valid_win,53.89904329995625,5,,,,,,,,,,,,,,,,sub_230,2022-11-10_08h42.57.751,Reversal,2022.1.2,59.96972724665354,2,
8,exp1.png,exp2.png,,0,0,0,0,0,8,8,8,,,,,,,,,,,,,,,,,,,,,,,,,False,8,9,False,exp1.png,exp2.png,trial_left_image,1,exp1.png,2,exp1.png,exp2.png,1,1,non-reversed,correct,0.25357600458412355,1,valid_win,59.84942250000313,6,,,,,,,,,,,,,,,,sub_230,2022-11-10_08h42.57.751,Reversal,2022.1.2,59.96972724665354,2,
9,exp3.png,exp4.png,,0,0,0,0,0,9,9,9,,,,,,,,,,,,,,,,,,,,,,,,,False,9,10,False,exp3.png,exp4.png,trial_left_image,1,exp3.png,2,exp3.png,exp4.png,1,3,reversed,correct,0.9170229921592137,1,valid_win,64.79891499993391,7,,,,,,,,,,,,,,,,sub_230,2022-11-10_08h42.57.751,Reversal,2022.1.2,59.96972724665354,2,
10,exp1.png,exp2.png,,0,0,0,0,0,10,10,10,,,,,,,,,,,,,,,,,,,,,,,,,False,10,11,True,exp2.png,exp1.png,trial_right_image,-1,exp1.png,2,exp1.png,exp2.png,1,1,non-reversed,correct,0.27286746213218316,1,valid_win,70.0495734999422,8,,,,,,,,,,,,,,,,sub_230,2022-11-10_08h42.57.751,Reversal,2022.1.2,59.96972724665354,2,
11,exp3.png,exp4.png,,0,0,0,0,0,11,11,11,,,,,,,,,,,,,,,,,,,,,,,,,False,11,12,False,exp3.png,exp4.png,trial_left_image,1,exp3.png,2,exp3.png,exp4.png,1,3,reversed,correct,0.6029887060996301,1,valid_win,75.09861509990878,9,,,,,,,,,,,,,,,,sub_230,2022-11-10_08h42.57.751,Reversal,2022.1.2,59.96972724665354,2,
12,exp1.png,exp2.png,,0,0,0,0,0,12,12,12,,,,,,,,,,,,,,,,,,,,,,,,,False,12,13,True,exp2.png,exp1.png,trial_right_image,-1,exp1.png,2,exp1.png,exp2.png,1,1,non-reversed,correct,0.19782500574085904,0,invalid_lose,79.94886329979636,9,,,,,,,,,,,,,,,,sub_230,2022-11-10_08h42.57.751,Reversal,2022.1.2,59.96972724665354,2,
13,exp3.png,exp4.png,,0,0,0,0,0,13,13,13,,,,,,,,,,,,,,,,,,,,,,,,,False,13,14,False,exp3.png,exp4.png,trial_left_image,1,exp3.png,2,exp3.png,exp4.png,1,3,reversed,correct,0.11310121071128254,0,invalid_lose,85.29885169980116,9,,,,,,,,,,,,,,,,sub_230,2022-11-10_08h42.57.751,Reversal,2022.1.2,59.96972724665354,2,
14,exp1.png,exp2.png,,0,0,0,0,0,14,14,14,,,,,,,,,,,,,,,,,,,,,,,,,False,14,15,True,exp2.png,exp1.png,trial_left_image,1,exp2.png,2,exp1.png,exp2.png,0,2,non-reversed,incorrect,0.4871880940488844,0,valid_lose,90.26520889997482,9,,,,,,,,,,,,,,,,sub_230,2022-11-10_08h42.57.751,Reversal,2022.1.2,59.96972724665354,2,
15,exp3.png,exp4.png,,0,0,0,0,0,15,15,15,,,,,,,,,,,,,,,,,,,,,,,,,False,15,16,True,exp4.png,exp3.png,trial_left_image,1,exp4.png,2,exp3.png,exp4.png,0,4,reversed,incorrect,0.5657978274888645,0,valid_lose,95.99873059988022,9,,,,,,,,,,,,,,,,sub_230,2022-11-10_08h42.57.751,Reversal,2022.1.2,59.96972724665354,2,
16,exp1.png,exp2.png,,0,0,0,0,0,16,16,16,,,,,,,,,,,,,,,,,,,,,,,,,False,16,17,True,exp2.png,exp1.png,trial_right_image,-1,exp1.png,2,exp1.png,exp2.png,1,1,non-reversed,correct,0.2670373166020703,1,valid_win,100.98219759995118,10,,,,,,,,,,,,,,,,sub_230,2022-11-10_08h42.57.751,Reversal,2022.1.2,59.96972724665354,2,
17,exp3.png,exp4.png,,0,0,0,0,0,17,17,17,,,,,,,,,,,,,,,,,,,,,,,,,False,17,18,False,exp3.png,exp4.png,trial_left_image,1,exp3.png,2,exp3.png,exp4.png,1,3,reversed,correct,0.7268531206176105,1,valid_win,106.23181429994293,11,,,,,,,,,,,,,,,,sub_230,2022-11-10_08h42.57.751,Reversal,2022.1.2,59.96972724665354,2,
18,exp1.png,exp2.png,,0,0,0,0,0,18,18,18,,,,,,,,,,,,,,,,,,,,,,,,,False,18,19,True,exp2.png,exp1.png,trial_right_image,-1,exp1.png,2,exp1.png,exp2.png,1,1,non-reversed,correct,0.5927030532444891,1,valid_win,110.79871049989015,12,,,,,,,,,,,,,,,,sub_230,2022-11-10_08h42.57.751,Reversal,2022.1.2,59.96972724665354,2,
19,exp3.png,exp4.png,,0,0,0,0,0,19,19,19,,,,,,,,,,,,,,,,,,,,,,,,,False,19,20,True,exp4.png,exp3.png,trial_right_image,-1,exp3.png,2,exp3.png,exp4.png,1,3,reversed,correct,0.9747278015652552,1,valid_win,115.59793369984254,13,,,,,,,,,,,,,,,,sub_230,2022-11-10_08h42.57.751,Reversal,2022.1.2,59.96972724665354,2,
20,exp1.png,exp2.png,,0,0,0,0,0,20,20,20,,,,,,,,,,,,,,,,,,,,,,,,,True,,,,,,,,,,,,,,,,,,,,,,,,,,,,,,,,,,,,sub_230,2022-11-10_08h42.57.751,Reversal,2022.1.2,59.96972724665354,2,
,,,exp1.png,0,0,0,0,,,,,0,0,0,0,0,0,0,0,,,,,,,,,,,,,,,,,,,,,,,,,,,,,,,,,,,,,,50.0,None,[],212.77550560003147,None,,,,,,,,,,,sub_230,2022-11-10_08h42.57.751,Reversal,2022.1.2,59.96972724665354,2,
,,,exp2.png,0,0,0,0,,,,,0,0,0,0,0,1,1,1,,,,,,,,,,,,,,,,,,,,,,,,,,,,,,,,,,,,,,83.0,8.951132999965921,"[(83.0, 8.951132999965921)]",221.3699872000143,None,83.0,,,,,,,,,,sub_230,2022-11-10_08h42.57.751,Reversal,2022.1.2,59.96972724665354,2,
,,,exp3.png,0,0,0,0,,,,,0,0,0,0,0,2,2,2,,,,,,,,,,,,,,,,,,,,,,,,,,,,,,,,,,,,,,10.0,4.649158000014722,"[(10.0, 4.649158000014722)]",235.53811850002967,None,,10.0,,,,,,,,,sub_230,2022-11-10_08h42.57.751,Reversal,2022.1.2,59.96972724665354,2,
,,,exp4.png,0,0,0,0,,,,,0,0,0,0,0,3,3,3,,,,,,,,,,,,,,,,,,,,,,,,,,,,,,,,,,,,,,89.0,5.634192799916491,"[(89.0, 5.634192799916491)]",241.6849053001497,None,,,89.0,,,,,,,,sub_230,2022-11-10_08h42.57.751,Reversal,2022.1.2,59.96972724665354,2,
0,exp1.png,exp2.png,,1,0,1,0,0,0,0,0,,,,,,,,,,,,,,,,,,,,,,,,,False,20,21,False,exp1.png,exp2.png,trial_left_image,1,exp1.png,2,exp1.png,exp2.png,1,1,non-reversed,correct,0.4339907358526395,1,valid_win,159.71380749996752,14,,,,,,,,,,,,,,,,sub_230,2022-11-10_08h42.57.751,Reversal,2022.1.2,59.96972724665354,2,
1,exp3.png,exp4.png,,1,0,1,0,0,1,1,1,,,,,,,,,,,,,,,,,,,,,,,,,False,21,22,True,exp4.png,exp3.png,trial_right_image,-1,exp3.png,2,exp3.png,exp4.png,1,3,reversed,correct,0.44227956751924147,1,valid_win,164.96422409988008,15,,,,,,,,,,,,,,,,sub_230,2022-11-10_08h42.57.751,Reversal,2022.1.2,59.96972724665354,2,
2,exp1.png,exp2.png,,1,0,1,0,0,2,2,2,,,,,,,,,,,,,,,,,,,,,,,,,False,22,23,False,exp1.png,exp2.png,trial_left_image,1,exp1.png,2,exp1.png,exp2.png,1,1,non-reversed,correct,0.4206915312328764,1,valid_win,169.81386429979466,16,,,,,,,,,,,,,,,,sub_230,2022-11-10_08h42.57.751,Reversal,2022.1.2,59.96972724665354,2,
3,exp3.png,exp4.png,,1,0,1,0,0,3,3,3,,,,,,,,,,,,,,,,,,,,,,,,,False,23,24,True,exp4.png,exp3.png,trial_right_image,-1,exp3.png,2,exp3.png,exp4.png,1,3,reversed,correct,0.17382074810497472,0,invalid_lose,174.54743269993924,16,,,,,,,,,,,,,,,,sub_230,2022-11-10_08h42.57.751,Reversal,2022.1.2,59.96972724665354,2,
4,exp1.png,exp2.png,,1,0,1,0,0,4,4,4,,,,,,,,,,,,,,,,,,,,,,,,,False,24,25,False,exp1.png,exp2.png,trial_left_image,1,exp1.png,2,exp1.png,exp2.png,1,1,non-reversed,correct,0.04985612701195585,0,invalid_lose,180.19657069980167,16,,,,,,,,,,,,,,,,sub_230,2022-11-10_08h42.57.751,Reversal,2022.1.2,59.96972724665354,2,
5,exp3.png,exp4.png,,1,0,1,0,0,5,5,5,,,,,,,,,,,,,,,,,,,,,,,,,False,25,26,True,exp4.png,exp3.png,trial_right_image,-1,exp3.png,2,exp3.png,exp4.png,1,3,reversed,correct,0.975717642405598,1,valid_win,185.51310719992034,17,,,,,,,,,,,,,,,,sub_230,2022-11-10_08h42.57.751,Reversal,2022.1.2,59.96972724665354,2,
6,exp1.png,exp2.png,,1,0,1,0,0,6,6,6,,,,,,,,,,,,,,,,,,,,,,,,,False,26,27,True,exp2.png,exp1.png,trial_left_image,1,exp2.png,2,exp1.png,exp2.png,0,2,non-reversed,incorrect,0.5249582088554647,0,valid_lose,192.23066569981165,17,,,,,,,,,,,,,,,,sub_230,2022-11-10_08h42.57.751,Reversal,2022.1.2,59.96972724665354,2,
7,exp3.png,exp4.png,,1,0,1,0,0,7,7,7,,,,,,,,,,,,,,,,,,,,,,,,,False,27,28,False,exp3.png,exp4.png,trial_left_image,1,exp3.png,2,exp3.png,exp4.png,1,3,reversed,correct,0.04564043830458819,0,invalid_lose,197.36333469999954,17,,,,,,,,,,,,,,,,sub_230,2022-11-10_08h42.57.751,Reversal,2022.1.2,59.96972724665354,2,
8,exp1.png,exp2.png,,1,0,1,0,0,8,8,8,,,,,,,,,,,,,,,,,,,,,,,,,False,28,29,True,exp2.png,exp1.png,trial_right_image,-1,exp1.png,2,exp1.png,exp2.png,1,1,non-reversed,correct,0.04686962598222644,0,invalid_lose,202.76334949978627,17,,,,,,,,,,,,,,,,sub_230,2022-11-10_08h42.57.751,Reversal,2022.1.2,59.96972724665354,2,
9,exp3.png,exp4.png,,1,0,1,0,0,9,9,9,,,,,,,,,,,,,,,,,,,,,,,,,False,29,30,False,exp3.png,exp4.png,trial_right_image,-1,exp4.png,2,exp3.png,exp4.png,0,4,reversed,incorrect,0.7298036715804348,0,valid_lose,207.42992659984156,17,,,,,,,,,,,,,,,,sub_230,2022-11-10_08h42.57.751,Reversal,2022.1.2,59.96972724665354,2,
10,exp1.png,exp2.png,,1,0,1,0,0,10,10,10,,,,,,,,,,,,,,,,,,,,,,,,,False,30,31,False,exp1.png,exp2.png,trial_left_image,1,exp1.png,2,exp1.png,exp2.png,1,1,non-reversed,correct,0.38413498909134247,1,valid_win,212.3130923998542,18,,,,,,,,,,,,,,,,sub_230,2022-11-10_08h42.57.751,Reversal,2022.1.2,59.96972724665354,2,
11,exp3.png,exp4.png,,1,0,1,0,0,11,11,11,,,,,,,,,,,,,,,,,,,,,,,,,False,31,32,True,exp4.png,exp3.png,trial_right_image,-1,exp3.png,2,exp3.png,exp4.png,1,3,reversed,correct,0.15606234334790703,0,invalid_lose,217.01338689983822,18,,,,,,,,,,,,,,,,sub_230,2022-11-10_08h42.57.751,Reversal,2022.1.2,59.96972724665354,2,
12,exp1.png,exp2.png,,1,0,1,0,0,12,12,12,,,,,,,,,,,,,,,,,,,,,,,,,False,32,33,False,exp1.png,exp2.png,trial_left_image,1,exp1.png,2,exp1.png,exp2.png,1,1,non-reversed,correct,0.11235845723283322,0,invalid_lose,221.74607829982415,18,,,,,,,,,,,,,,,,sub_230,2022-11-10_08h42.57.751,Reversal,2022.1.2,59.96972724665354,2,
13,exp3.png,exp4.png,,1,0,1,0,0,13,13,13,,,,,,,,,,,,,,,,,,,,,,,,,False,33,34,True,exp4.png,exp3.png,trial_left_image,1,exp4.png,2,exp3.png,exp4.png,0,4,reversed,incorrect,0.39261135159232474,0,valid_lose,227.37947439984418,18,,,,,,,,,,,,,,,,sub_230,2022-11-10_08h42.57.751,Reversal,2022.1.2,59.96972724665354,2,
14,exp1.png,exp2.png,,1,0,1,0,0,14,14,14,,,,,,,,,,,,,,,,,,,,,,,,,False,34,35,False,exp1.png,exp2.png,trial_left_image,1,exp1.png,2,exp1.png,exp2.png,1,1,non-reversed,correct,0.38524032577398326,1,valid_win,232.07935089990497,19,,,,,,,,,,,,,,,,sub_230,2022-11-10_08h42.57.751,Reversal,2022.1.2,59.96972724665354,2,
15,exp3.png,exp4.png,,1,0,1,0,0,15,15,15,,,,,,,,,,,,,,,,,,,,,,,,,False,35,36,False,exp3.png,exp4.png,trial_left_image,1,exp3.png,2,exp3.png,exp4.png,1,3,reversed,correct,0.47953847386535875,1,valid_win,236.92946159979329,20,,,,,,,,,,,,,,,,sub_230,2022-11-10_08h42.57.751,Reversal,2022.1.2,59.96972724665354,2,
16,exp1.png,exp2.png,,1,0,1,0,0,16,16,16,,,,,,,,,,,,,,,,,,,,,,,,,False,36,37,False,exp1.png,exp2.png,trial_left_image,1,exp1.png,2,exp1.png,exp2.png,1,1,non-reversed,correct,0.8512315035018921,1,valid_win,241.54587729997002,21,,,,,,,,,,,,,,,,sub_230,2022-11-10_08h42.57.751,Reversal,2022.1.2,59.96972724665354,2,
17,exp3.png,exp4.png,,1,0,1,0,0,17,17,17,,,,,,,,,,,,,,,,,,,,,,,,,False,37,38,True,exp4.png,exp3.png,trial_right_image,-1,exp3.png,2,exp3.png,exp4.png,1,3,reversed,correct,0.595888854808074,1,valid_win,246.01365599990822,22,,,,,,,,,,,,,,,,sub_230,2022-11-10_08h42.57.751,Reversal,2022.1.2,59.96972724665354,2,
18,exp1.png,exp2.png,,1,0,1,0,0,18,18,18,,,,,,,,,,,,,,,,,,,,,,,,,False,38,39,True,exp2.png,exp1.png,trial_right_image,-1,exp1.png,2,exp1.png,exp2.png,1,1,non-reversed,correct,0.0670483577046993,0,invalid_lose,250.34566609980538,22,,,,,,,,,,,,,,,,sub_230,2022-11-10_08h42.57.751,Reversal,2022.1.2,59.96972724665354,2,
19,exp3.png,exp4.png,,1,0,1,0,0,19,19,19,,,,,,,,,,,,,,,,,,,,,,,,,False,39,40,True,exp4.png,exp3.png,trial_right_image,-1,exp3.png,2,exp3.png,exp4.png,1,3,reversed,correct,0.48603441988137197,1,valid_win,255.09633609978482,23,,,,,,,,,,,,,,,,sub_230,2022-11-10_08h42.57.751,Reversal,2022.1.2,59.96972724665354,2,
20,exp1.png,exp2.png,,1,0,1,0,0,20,20,20,,,,,,,,,,,,,,,,,,,,,,,,,True,,,,,,,,,,,,,,,,,,,,,,,,,,,,,,,,,,,,sub_230,2022-11-10_08h42.57.751,Reversal,2022.1.2,59.96972724665354,2,
,,,exp1.png,1,0,1,0,,,,,0,0,0,0,0,0,0,0,,,,,,,,,,,,,,,,,,,,,,,,,,,,,,,,,,,,,,12.0,5.047429200029001,"[(12.0, 5.047429200029001)]",352.2894673999399,None,,,,12.0,,,,,,,sub_230,2022-11-10_08h42.57.751,Reversal,2022.1.2,59.96972724665354,2,
,,,exp2.png,1,0,1,0,,,,,0,0,0,0,0,1,1,1,,,,,,,,,,,,,,,,,,,,,,,,,,,,,,,,,,,,,,92.0,3.289003800135106,"[(92.0, 3.289003800135106)]",359.1292326000985,None,92.0,,,,,,,,,,sub_230,2022-11-10_08h42.57.751,Reversal,2022.1.2,59.96972724665354,2,
,,,exp3.png,1,0,1,0,,,,,0,0,0,0,0,2,2,2,,,,,,,,,,,,,,,,,,,,,,,,,,,,,,,,,,,,,,94.0,5.101090799784288,"[(94.0, 5.101090799784288)]",363.5825259000994,None,,94.0,,,,,,,,,sub_230,2022-11-10_08h42.57.751,Reversal,2022.1.2,59.96972724665354,2,
,,,exp4.png,1,0,1,0,,,,,0,0,0,0,0,3,3,3,,,,,,,,,,,,,,,,,,,,,,,,,,,,,,,,,,,,,,10.0,1.8511981000192463,"[(10.0, 1.8511981000192463)]",369.7535365000367,None,,,10.0,,,,,,,,sub_230,2022-11-10_08h42.57.751,Reversal,2022.1.2,59.96972724665354,2,
0,exp1.png,exp2.png,,2,0,2,0,0,0,0,0,,,,,,,,,,,,,,,,,,,,,,,,,False,40,41,True,exp2.png,exp1.png,trial_right_image,-1,exp1.png,2,exp1.png,exp2.png,1,1,non-reversed,correct,0.45131558725414,1,valid_win,282.978395299986,24,,,,,,,,,,,,,,,,sub_230,2022-11-10_08h42.57.751,Reversal,2022.1.2,59.96972724665354,2,
1,exp3.png,exp4.png,,2,0,2,0,0,1,1,1,,,,,,,,,,,,,,,,,,,,,,,,,False,41,42,True,exp4.png,exp3.png,trial_right_image,-1,exp3.png,2,exp3.png,exp4.png,1,3,reversed,correct,0.2834617318344109,1,valid_win,287.86366429994814,25,,,,,,,,,,,,,,,,sub_230,2022-11-10_08h42.57.751,Reversal,2022.1.2,59.96972724665354,2,
2,exp1.png,exp2.png,,2,0,2,0,0,2,2,2,,,,,,,,,,,,,,,,,,,,,,,,,False,42,43,False,exp1.png,exp2.png,trial_left_image,1,exp1.png,2,exp1.png,exp2.png,1,1,non-reversed,correct,0.7377324099558389,1,valid_win,292.71170549979433,26,,,,,,,,,,,,,,,,sub_230,2022-11-10_08h42.57.751,Reversal,2022.1.2,59.96972724665354,2,
3,exp3.png,exp4.png,,2,0,2,0,0,3,3,3,,,,,,,,,,,,,,,,,,,,,,,,,False,43,44,True,exp4.png,exp3.png,trial_right_image,-1,exp3.png,2,exp3.png,exp4.png,1,3,reversed,correct,0.7088069059141894,1,valid_win,297.02883069985546,27,,,,,,,,,,,,,,,,sub_230,2022-11-10_08h42.57.751,Reversal,2022.1.2,59.96972724665354,2,
4,exp1.png,exp2.png,,2,0,2,0,0,4,4,4,,,,,,,,,,,,,,,,,,,,,,,,,False,44,45,True,exp2.png,exp1.png,trial_right_image,-1,exp1.png,2,exp1.png,exp2.png,1,1,non-reversed,correct,0.07353046182363399,0,invalid_lose,301.4285104998853,27,,,,,,,,,,,,,,,,sub_230,2022-11-10_08h42.57.751,Reversal,2022.1.2,59.96972724665354,2,
5,exp3.png,exp4.png,,2,0,2,0,0,5,5,5,,,,,,,,,,,,,,,,,,,,,,,,,False,45,46,False,exp3.png,exp4.png,trial_left_image,1,exp3.png,2,exp3.png,exp4.png,1,3,reversed,correct,0.39607389218640465,1,valid_win,306.427956599975,28,,,,,,,,,,,,,,,,sub_230,2022-11-10_08h42.57.751,Reversal,2022.1.2,59.96972724665354,2,
6,exp1.png,exp2.png,,2,0,2,0,0,6,6,6,,,,,,,,,,,,,,,,,,,,,,,,,False,46,47,False,exp1.png,exp2.png,trial_left_image,1,exp1.png,2,exp1.png,exp2.png,1,1,non-reversed,correct,0.7422177916888534,1,valid_win,311.74456249992363,29,,,,,,,,,,,,,,,,sub_230,2022-11-10_08h42.57.751,Reversal,2022.1.2,59.96972724665354,2,
7,exp3.png,exp4.png,,2,0,2,0,0,7,7,7,,,,,,,,,,,,,,,,,,,,,,,,,False,47,48,False,exp3.png,exp4.png,trial_left_image,1,exp3.png,2,exp3.png,exp4.png,1,3,reversed,correct,0.9137343113445089,1,valid_win,316.861302399775,30,,,,,,,,,,,,,,,,sub_230,2022-11-10_08h42.57.751,Reversal,2022.1.2,59.96972724665354,2,
8,exp1.png,exp2.png,,2,0,2,0,0,8,8,8,,,,,,,,,,,,,,,,,,,,,,,,,False,48,49,True,exp2.png,exp1.png,trial_right_image,-1,exp1.png,2,exp1.png,exp2.png,1,1,non-reversed,correct,0.9619210537725081,1,valid_win,321.2781356999185,31,,,,,,,,,,,,,,,,sub_230,2022-11-10_08h42.57.751,Reversal,2022.1.2,59.96972724665354,2,
9,exp3.png,exp4.png,,2,0,2,0,0,9,9,9,,,,,,,,,,,,,,,,,,,,,,,,,False,49,50,False,exp3.png,exp4.png,trial_left_image,1,exp3.png,2,exp3.png,exp4.png,1,3,reversed,correct,0.10642797267799986,0,invalid_lose,325.9446035998408,31,,,,,,,,,,,,,,,,sub_230,2022-11-10_08h42.57.751,Reversal,2022.1.2,59.96972724665354,2,
10,exp1.png,exp2.png,,2,0,2,0,0,10,10,10,,,,,,,,,,,,,,,,,,,,,,,,,False,50,51,False,exp1.png,exp2.png,trial_left_image,1,exp1.png,2,exp1.png,exp2.png,1,1,non-reversed,correct,0.05085397940810643,0,invalid_lose,330.6112159998156,31,,,,,,,,,,,,,,,,sub_230,2022-11-10_08h42.57.751,Reversal,2022.1.2,59.96972724665354,2,
11,exp3.png,exp4.png,,2,0,2,0,0,11,11,11,,,,,,,,,,,,,,,,,,,,,,,,,False,51,52,True,exp4.png,exp3.png,trial_right_image,-1,exp3.png,2,exp3.png,exp4.png,1,3,reversed,correct,0.9178533746327426,1,valid_win,335.3275697999634,32,,,,,,,,,,,,,,,,sub_230,2022-11-10_08h42.57.751,Reversal,2022.1.2,59.96972724665354,2,
12,exp1.png,exp2.png,,2,0,2,0,0,12,12,12,,,,,,,,,,,,,,,,,,,,,,,,,False,52,53,False,exp1.png,exp2.png,trial_left_image,1,exp1.png,2,exp1.png,exp2.png,1,1,non-reversed,correct,0.15492384388525093,0,invalid_lose,340.22776069981046,32,,,,,,,,,,,,,,,,sub_230,2022-11-10_08h42.57.751,Reversal,2022.1.2,59.96972724665354,2,
13,exp3.png,exp4.png,,2,0,2,0,0,13,13,13,,,,,,,,,,,,,,,,,,,,,,,,,False,53,54,True,exp4.png,exp3.png,trial_right_image,-1,exp3.png,2,exp3.png,exp4.png,1,3,reversed,correct,0.25475719055122903,1,valid_win,344.7108461000025,33,,,,,,,,,,,,,,,,sub_230,2022-11-10_08h42.57.751,Reversal,2022.1.2,59.96972724665354,2,
14,exp1.png,exp2.png,,2,0,2,0,0,14,14,14,,,,,,,,,,,,,,,,,,,,,,,,,False,54,55,False,exp1.png,exp2.png,trial_left_image,1,exp1.png,2,exp1.png,exp2.png,1,1,non-reversed,correct,0.8577747395037915,1,valid_win,349.4106285998132,34,,,,,,,,,,,,,,,,sub_230,2022-11-10_08h42.57.751,Reversal,2022.1.2,59.96972724665354,2,
15,exp3.png,exp4.png,,2,0,2,0,0,15,15,15,,,,,,,,,,,,,,,,,,,,,,,,,False,55,56,False,exp3.png,exp4.png,trial_left_image,1,exp3.png,2,exp3.png,exp4.png,1,3,reversed,correct,0.9091934423117792,1,valid_win,355.0435336998198,35,,,,,,,,,,,,,,,,sub_230,2022-11-10_08h42.57.751,Reversal,2022.1.2,59.96972724665354,2,
16,exp1.png,exp2.png,,2,0,2,0,0,16,16,16,,,,,,,,,,,,,,,,,,,,,,,,,False,56,57,True,exp2.png,exp1.png,trial_right_image,-1,exp1.png,2,exp1.png,exp2.png,1,1,non-reversed,correct,0.5363574841074947,1,valid_win,359.3442697999999,36,,,,,,,,,,,,,,,,sub_230,2022-11-10_08h42.57.751,Reversal,2022.1.2,59.96972724665354,2,
17,exp3.png,exp4.png,,2,0,2,0,0,17,17,17,,,,,,,,,,,,,,,,,,,,,,,,,False,57,58,True,exp4.png,exp3.png,trial_right_image,-1,exp3.png,2,exp3.png,exp4.png,1,3,reversed,correct,0.9299513265137958,1,valid_win,364.19372739992104,37,,,,,,,,,,,,,,,,sub_230,2022-11-10_08h42.57.751,Reversal,2022.1.2,59.96972724665354,2,
18,exp1.png,exp2.png,,2,0,2,0,0,18,18,18,,,,,,,,,,,,,,,,,,,,,,,,,False,58,59,True,exp2.png,exp1.png,trial_right_image,-1,exp1.png,2,exp1.png,exp2.png,1,1,non-reversed,correct,0.1267232219787363,0,invalid_lose,368.64327289978974,37,,,,,,,,,,,,,,,,sub_230,2022-11-10_08h42.57.751,Reversal,2022.1.2,59.96972724665354,2,
19,exp3.png,exp4.png,,2,0,2,0,0,19,19,19,,,,,,,,,,,,,,,,,,,,,,,,,False,59,60,False,exp3.png,exp4.png,trial_left_image,1,exp3.png,2,exp3.png,exp4.png,1,3,reversed,correct,0.6621354150984612,1,valid_win,373.11022649984807,38,,,,,,,,,,,,,,,,sub_230,2022-11-10_08h42.57.751,Reversal,2022.1.2,59.96972724665354,2,
20,exp1.png,exp2.png,,2,0,2,0,0,20,20,20,,,,,,,,,,,,,,,,,,,,,,,,,True,,,,,,,,,,,,,,,,,,,,,,,,,,,,,,,,,,,,sub_230,2022-11-10_08h42.57.751,Reversal,2022.1.2,59.96972724665354,2,
,,,exp1.png,2,0,2,0,,,,,0,0,0,0,0,0,0,0,,,,,,,,,,,,,,,,,,,,,,,,,,,,,,,,,,,,,,6.0,7.847388199996203,"[(6.0, 7.847388199996203)]",470.3038655000273,None,,,,6.0,,,,,,,sub_230,2022-11-10_08h42.57.751,Reversal,2022.1.2,59.96972724665354,2,
,,,exp2.png,2,0,2,0,,,,,0,0,0,0,0,1,1,1,,,,,,,,,,,,,,,,,,,,,,,,,,,,,,,,,,,,,,97.0,2.0663109000306576,"[(97.0, 2.0663109000306576)]",479.3658404001035,None,97.0,,,,,,,,,,sub_230,2022-11-10_08h42.57.751,Reversal,2022.1.2,59.96972724665354,2,
,,,exp3.png,2,0,2,0,,,,,0,0,0,0,0,2,2,2,,,,,,,,,,,,,,,,,,,,,,,,,,,,,,,,,,,,,,7.0,3.7846373000647873,"[(7.0, 3.7846373000647873)]",482.4811794999987,None,,7.0,,,,,,,,,sub_230,2022-11-10_08h42.57.751,Reversal,2022.1.2,59.96972724665354,2,
,,,exp4.png,2,0,2,0,,,,,0,0,0,0,0,3,3,3,,,,,,,,,,,,,,,,,,,,,,,,,,,,,,,,,,,,,,94.0,1.5666224998421967,"[(94.0, 1.5666224998421967)]",487.43535010004416,None,,,94.0,,,,,,,,sub_230,2022-11-10_08h42.57.751,Reversal,2022.1.2,59.96972724665354,2,
0,exp1.png,exp2.png,,,,,,,,,,,,,,,,,,0,0,0,0,0,0,0,0,,,,,,,,,False,0,61,True,exp2.png,exp1.png,trial_left_image,1,exp2.png,2,exp1.png,exp2.png,0,2,non-reversed,incorrect,0.4385007572358365,0,valid_lose,404.0767094998155,38,,,,,,,,,,395.38524819980375,,,,,,sub_230,2022-11-10_08h42.57.751,Reversal,2022.1.2,59.96972724665354,2,
1,exp3.png,exp4.png,,,,,,,,,,,,,,,,,,0,0,0,0,0,1,1,1,,,,,,,,,False,1,62,False,exp3.png,exp4.png,trial_left_image,1,exp3.png,2,exp4.png,exp3.png,1,3,reversed,incorrect,0.5261360122410115,0,valid_lose,409.24275939981453,38,,,,,,,,,,,,,,,,sub_230,2022-11-10_08h42.57.751,Reversal,2022.1.2,59.96972724665354,2,
2,exp1.png,exp2.png,,,,,,,,,,,,,,,,,,0,0,0,0,0,2,2,2,,,,,,,,,False,2,63,False,exp1.png,exp2.png,trial_left_image,1,exp1.png,2,exp1.png,exp2.png,1,1,non-reversed,correct,0.5217635462570331,1,valid_win,414.05968999979086,39,,,,,,,,,,,,,,,,sub_230,2022-11-10_08h42.57.751,Reversal,2022.1.2,59.96972724665354,2,
3,exp3.png,exp4.png,,,,,,,,,,,,,,,,,,0,0,0,0,0,3,3,3,,,,,,,,,False,3,64,True,exp4.png,exp3.png,trial_right_image,-1,exp3.png,2,exp4.png,exp3.png,1,3,reversed,incorrect,0.029885068912316792,1,invalid_win,418.29244829993695,40,,,,,,,,,,,,,,,,sub_230,2022-11-10_08h42.57.751,Reversal,2022.1.2,59.96972724665354,2,
4,exp1.png,exp2.png,,,,,,,,,,,,,,,,,,0,0,0,0,0,4,4,4,,,,,,,,,False,4,65,False,exp1.png,exp2.png,trial_left_image,1,exp1.png,2,exp1.png,exp2.png,1,1,non-reversed,correct,0.3971352785911848,1,valid_win,422.9424053998664,41,,,,,,,,,,,,,,,,sub_230,2022-11-10_08h42.57.751,Reversal,2022.1.2,59.96972724665354,2,
5,exp3.png,exp4.png,,,,,,,,,,,,,,,,,,0,0,0,0,0,5,5,5,,,,,,,,,False,5,66,True,exp4.png,exp3.png,trial_right_image,-1,exp3.png,2,exp4.png,exp3.png,1,3,reversed,incorrect,0.3258417817611381,0,valid_lose,429.24222279991955,41,,,,,,,,,,,,,,,,sub_230,2022-11-10_08h42.57.751,Reversal,2022.1.2,59.96972724665354,2,
6,exp1.png,exp2.png,,,,,,,,,,,,,,,,,,0,0,0,0,0,6,6,6,,,,,,,,,False,6,67,True,exp2.png,exp1.png,trial_right_image,-1,exp1.png,2,exp1.png,exp2.png,1,1,non-reversed,correct,0.5097725126503813,1,valid_win,433.6091997998301,42,,,,,,,,,,,,,,,,sub_230,2022-11-10_08h42.57.751,Reversal,2022.1.2,59.96972724665354,2,
7,exp3.png,exp4.png,,,,,,,,,,,,,,,,,,0,0,0,0,0,7,7,7,,,,,,,,,False,7,68,True,exp4.png,exp3.png,trial_right_image,-1,exp3.png,2,exp4.png,exp3.png,1,3,reversed,incorrect,0.04209953353293694,1,invalid_win,437.97569509991445,43,,,,,,,,,,,,,,,,sub_230,2022-11-10_08h42.57.751,Reversal,2022.1.2,59.96972724665354,2,
8,exp1.png,exp2.png,,,,,,,,,,,,,,,,,,0,0,0,0,0,8,8,8,,,,,,,,,False,8,69,True,exp2.png,exp1.png,trial_right_image,-1,exp1.png,2,exp1.png,exp2.png,1,1,non-reversed,correct,0.49005675481288136,1,valid_win,442.22507359995507,44,,,,,,,,,,,,,,,,sub_230,2022-11-10_08h42.57.751,Reversal,2022.1.2,59.96972724665354,2,
9,exp3.png,exp4.png,,,,,,,,,,,,,,,,,,0,0,0,0,0,9,9,9,,,,,,,,,False,9,70,True,exp4.png,exp3.png,trial_right_image,-1,exp3.png,2,exp4.png,exp3.png,1,3,reversed,incorrect,0.5229040588048425,0,valid_lose,446.20991579978727,44,,,,,,,,,,,,,,,,sub_230,2022-11-10_08h42.57.751,Reversal,2022.1.2,59.96972724665354,2,
10,exp1.png,exp2.png,,,,,,,,,,,,,,,,,,0,0,0,0,0,10,10,10,,,,,,,,,False,10,71,False,exp1.png,exp2.png,trial_left_image,1,exp1.png,2,exp1.png,exp2.png,1,1,non-reversed,correct,0.9767295369056399,1,valid_win,451.14205219992436,45,,,,,,,,,,,,,,,,sub_230,2022-11-10_08h42.57.751,Reversal,2022.1.2,59.96972724665354,2,
11,exp3.png,exp4.png,,,,,,,,,,,,,,,,,,0,0,0,0,0,11,11,11,,,,,,,,,False,11,72,False,exp3.png,exp4.png,trial_left_image,1,exp3.png,2,exp4.png,exp3.png,1,3,reversed,incorrect,0.190202151676663,1,invalid_win,455.45981129980646,46,,,,,,,,,,,,,,,,sub_230,2022-11-10_08h42.57.751,Reversal,2022.1.2,59.96972724665354,2,
12,exp1.png,exp2.png,,,,,,,,,,,,,,,,,,0,0,0,0,0,12,12,12,,,,,,,,,False,12,73,False,exp1.png,exp2.png,trial_left_image,1,exp1.png,2,exp1.png,exp2.png,1,1,non-reversed,correct,0.7835804068464328,1,valid_win,460.02489369991235,47,,,,,,,,,,,,,,,,sub_230,2022-11-10_08h42.57.751,Reversal,2022.1.2,59.96972724665354,2,
13,exp3.png,exp4.png,,,,,,,,,,,,,,,,,,0,0,0,0,0,13,13,13,,,,,,,,,False,13,74,True,exp4.png,exp3.png,trial_right_image,-1,exp3.png,2,exp4.png,exp3.png,1,3,reversed,incorrect,0.3726439299777976,0,valid_lose,464.54174499982037,47,,,,,,,,,,,,,,,,sub_230,2022-11-10_08h42.57.751,Reversal,2022.1.2,59.96972724665354,2,
14,exp1.png,exp2.png,,,,,,,,,,,,,,,,,,0,0,0,0,0,14,14,14,,,,,,,,,False,14,75,True,exp2.png,exp1.png,trial_right_image,-1,exp1.png,2,exp1.png,exp2.png,1,1,non-reversed,correct,0.3755487289708701,1,valid_win,469.4587095999159,48,,,,,,,,,,,,,,,,sub_230,2022-11-10_08h42.57.751,Reversal,2022.1.2,59.96972724665354,2,
15,exp3.png,exp4.png,,,,,,,,,,,,,,,,,,0,0,0,0,0,15,15,15,,,,,,,,,False,15,76,False,exp3.png,exp4.png,trial_left_image,1,exp3.png,2,exp4.png,exp3.png,1,3,reversed,incorrect,0.22272690483551938,1,invalid_win,474.5415262999013,49,,,,,,,,,,,,,,,,sub_230,2022-11-10_08h42.57.751,Reversal,2022.1.2,59.96972724665354,2,
16,exp1.png,exp2.png,,,,,,,,,,,,,,,,,,0,0,0,0,0,16,16,16,,,,,,,,,False,16,77,True,exp2.png,exp1.png,trial_right_image,-1,exp1.png,2,exp1.png,exp2.png,1,1,non-reversed,correct,0.1473105709864616,0,invalid_lose,478.9245025999844,49,,,,,,,,,,,,,,,,sub_230,2022-11-10_08h42.57.751,Reversal,2022.1.2,59.96972724665354,2,
17,exp3.png,exp4.png,,,,,,,,,,,,,,,,,,0,0,0,0,0,17,17,17,,,,,,,,,False,17,78,False,exp3.png,exp4.png,trial_left_image,1,exp3.png,2,exp4.png,exp3.png,1,3,reversed,incorrect,0.3205961122284813,0,valid_lose,483.59115399979055,49,,,,,,,,,,,,,,,,sub_230,2022-11-10_08h42.57.751,Reversal,2022.1.2,59.96972724665354,2,
18,exp1.png,exp2.png,,,,,,,,,,,,,,,,,,0,0,0,0,0,18,18,18,,,,,,,,,False,18,79,False,exp1.png,exp2.png,trial_left_image,1,exp1.png,2,exp1.png,exp2.png,1,1,non-reversed,correct,0.5048774976972932,1,valid_win,487.8916652998887,50,,,,,,,,,,,,,,,,sub_230,2022-11-10_08h42.57.751,Reversal,2022.1.2,59.96972724665354,2,
19,exp3.png,exp4.png,,,,,,,,,,,,,,,,,,0,0,0,0,0,19,19,19,,,,,,,,,False,19,80,False,exp3.png,exp4.png,trial_left_image,1,exp3.png,2,exp4.png,exp3.png,1,3,reversed,incorrect,0.34830565259779134,0,valid_lose,492.7917992998846,50,,,,,,,,,,,,,,,,sub_230,2022-11-10_08h42.57.751,Reversal,2022.1.2,59.96972724665354,2,
20,exp1.png,exp2.png,,,,,,,,,,,,,,,,,,0,0,0,0,0,20,20,20,,,,,,,,,True,,,,,,,,,,,,,,,,,,,,,,,,,,,,,,,,,,,,sub_230,2022-11-10_08h42.57.751,Reversal,2022.1.2,59.96972724665354,2,
,,,exp1.png,,,,,,,,,,,,,,,,,0,0,0,0,,,,,0,0,0,0,0,0,0,0,,,,,,,,,,,,,,,,,,,,,,96.0,5.56542730005458,"[(96.0, 5.56542730005458)]",589.9836629000492,None,,,,96.0,,,,,,,sub_230,2022-11-10_08h42.57.751,Reversal,2022.1.2,59.96972724665354,2,
,,,exp2.png,,,,,,,,,,,,,,,,,0,0,0,0,,,,,0,0,0,0,0,1,1,1,,,,,,,,,,,,,,,,,,,,,,4.0,2.1327538997866213,"[(4.0, 2.1327538997866213)]",596.6126625000034,None,4.0,,,,,,,,,,sub_230,2022-11-10_08h42.57.751,Reversal,2022.1.2,59.96972724665354,2,
,,,exp3.png,,,,,,,,,,,,,,,,,0,0,0,0,,,,,0,0,0,0,0,2,2,2,,,,,,,,,,,,,,,,,,,,,,98.0,2.606732300017029,"[(98.0, 2.606732300017029)]",599.4735928999726,None,,98.0,,,,,,,,,sub_230,2022-11-10_08h42.57.751,Reversal,2022.1.2,59.96972724665354,2,
,,,exp4.png,,,,,,,,,,,,,,,,,0,0,0,0,,,,,0,0,0,0,0,3,3,3,,,,,,,,,,,,,,,,,,,,,,5.0,1.3669864998664707,"[(5.0, 1.3669864998664707)]",603.1303270999342,None,,,5.0,,,,,,,,sub_230,2022-11-10_08h42.57.751,Reversal,2022.1.2,59.96972724665354,2,
0,exp1.png,exp2.png,,,,,,,,,,,,,,,,,,1,0,1,0,0,0,0,0,,,,,,,,,False,20,81,False,exp1.png,exp2.png,trial_left_image,1,exp1.png,2,exp1.png,exp2.png,1,1,non-reversed,correct,0.8268549439781814,1,valid_win,515.124359499896,51,,,,,,,,,,,,,,,,sub_230,2022-11-10_08h42.57.751,Reversal,2022.1.2,59.96972724665354,2,
1,exp3.png,exp4.png,,,,,,,,,,,,,,,,,,1,0,1,0,0,1,1,1,,,,,,,,,False,21,82,False,exp3.png,exp4.png,trial_left_image,1,exp3.png,2,exp4.png,exp3.png,1,3,reversed,incorrect,0.6978557737919767,0,valid_lose,519.7075842998456,51,,,,,,,,,,,,,,,,sub_230,2022-11-10_08h42.57.751,Reversal,2022.1.2,59.96972724665354,2,
2,exp1.png,exp2.png,,,,,,,,,,,,,,,,,,1,0,1,0,0,2,2,2,,,,,,,,,False,22,83,False,exp1.png,exp2.png,trial_left_image,1,exp1.png,2,exp1.png,exp2.png,1,1,non-reversed,correct,0.45228280044630054,1,valid_win,524.4240632997826,52,,,,,,,,,,,,,,,,sub_230,2022-11-10_08h42.57.751,Reversal,2022.1.2,59.96972724665354,2,
3,exp3.png,exp4.png,,,,,,,,,,,,,,,,,,1,0,1,0,0,3,3,3,,,,,,,,,False,23,84,True,exp4.png,exp3.png,trial_right_image,-1,exp3.png,2,exp4.png,exp3.png,1,3,reversed,incorrect,0.592888921836972,0,valid_lose,528.7241807999089,52,,,,,,,,,,,,,,,,sub_230,2022-11-10_08h42.57.751,Reversal,2022.1.2,59.96972724665354,2,
4,exp1.png,exp2.png,,,,,,,,,,,,,,,,,,1,0,1,0,0,4,4,4,,,,,,,,,False,24,85,True,exp2.png,exp1.png,trial_right_image,-1,exp1.png,2,exp1.png,exp2.png,1,1,non-reversed,correct,0.20947779690542057,0,invalid_lose,533.2742513997946,52,,,,,,,,,,,,,,,,sub_230,2022-11-10_08h42.57.751,Reversal,2022.1.2,59.96972724665354,2,
5,exp3.png,exp4.png,,,,,,,,,,,,,,,,,,1,0,1,0,0,5,5,5,,,,,,,,,False,25,86,False,exp3.png,exp4.png,trial_left_image,1,exp3.png,2,exp4.png,exp3.png,1,3,reversed,incorrect,0.9259853576596152,0,valid_lose,537.3590086998884,52,,,,,,,,,,,,,,,,sub_230,2022-11-10_08h42.57.751,Reversal,2022.1.2,59.96972724665354,2,
6,exp1.png,exp2.png,,,,,,,,,,,,,,,,,,1,0,1,0,0,6,6,6,,,,,,,,,False,26,87,False,exp1.png,exp2.png,trial_left_image,1,exp1.png,2,exp1.png,exp2.png,1,1,non-reversed,correct,0.13864933658546752,0,invalid_lose,541.6057372998912,52,,,,,,,,,,,,,,,,sub_230,2022-11-10_08h42.57.751,Reversal,2022.1.2,59.96972724665354,2,
7,exp3.png,exp4.png,,,,,,,,,,,,,,,,,,1,0,1,0,0,7,7,7,,,,,,,,,False,27,88,True,exp4.png,exp3.png,trial_right_image,-1,exp3.png,2,exp4.png,exp3.png,1,3,reversed,incorrect,0.20137945280851777,1,invalid_win,546.0070741998497,53,,,,,,,,,,,,,,,,sub_230,2022-11-10_08h42.57.751,Reversal,2022.1.2,59.96972724665354,2,
8,exp1.png,exp2.png,,,,,,,,,,,,,,,,,,1,0,1,0,0,8,8,8,,,,,,,,,False,28,89,True,exp2.png,exp1.png,trial_right_image,-1,exp1.png,2,exp1.png,exp2.png,1,1,non-reversed,correct,0.9497462311047544,1,valid_win,550.3572151998524,54,,,,,,,,,,,,,,,,sub_230,2022-11-10_08h42.57.751,Reversal,2022.1.2,59.96972724665354,2,
9,exp3.png,exp4.png,,,,,,,,,,,,,,,,,,1,0,1,0,0,9,9,9,,,,,,,,,False,29,90,True,exp4.png,exp3.png,trial_right_image,-1,exp3.png,2,exp4.png,exp3.png,1,3,reversed,incorrect,0.6130880656374011,0,valid_lose,554.7900173999369,54,,,,,,,,,,,,,,,,sub_230,2022-11-10_08h42.57.751,Reversal,2022.1.2,59.96972724665354,2,
10,exp1.png,exp2.png,,,,,,,,,,,,,,,,,,1,0,1,0,0,10,10,10,,,,,,,,,False,30,91,True,exp2.png,exp1.png,trial_left_image,1,exp2.png,2,exp1.png,exp2.png,0,2,non-reversed,incorrect,0.29670603798727724,0,valid_lose,559.2737074999604,54,,,,,,,,,,,,,,,,sub_230,2022-11-10_08h42.57.751,Reversal,2022.1.2,59.96972724665354,2,
11,exp3.png,exp4.png,,,,,,,,,,,,,,,,,,1,0,1,0,0,11,11,11,,,,,,,,,False,31,92,False,exp3.png,exp4.png,trial_left_image,1,exp3.png,2,exp4.png,exp3.png,1,3,reversed,incorrect,0.8208858434645059,0,valid_lose,566.4064604998566,54,,,,,,,,,,,,,,,,sub_230,2022-11-10_08h42.57.751,Reversal,2022.1.2,59.96972724665354,2,
12,exp1.png,exp2.png,,,,,,,,,,,,,,,,,,1,0,1,0,0,12,12,12,,,,,,,,,False,32,93,False,exp1.png,exp2.png,trial_right_image,-1,exp2.png,2,exp1.png,exp2.png,0,2,non-reversed,incorrect,0.5430300126529476,0,valid_lose,571.0232260997873,54,,,,,,,,,,,,,,,,sub_230,2022-11-10_08h42.57.751,Reversal,2022.1.2,59.96972724665354,2,
13,exp3.png,exp4.png,,,,,,,,,,,,,,,,,,1,0,1,0,0,13,13,13,,,,,,,,,False,33,94,False,exp3.png,exp4.png,trial_left_image,1,exp3.png,2,exp4.png,exp3.png,1,3,reversed,incorrect,0.8996010523497314,0,valid_lose,576.1397346998565,54,,,,,,,,,,,,,,,,sub_230,2022-11-10_08h42.57.751,Reversal,2022.1.2,59.96972724665354,2,
14,exp1.png,exp2.png,,,,,,,,,,,,,,,,,,1,0,1,0,0,14,14,14,,,,,,,,,False,34,95,False,exp1.png,exp2.png,trial_right_image,-1,exp2.png,2,exp1.png,exp2.png,0,2,non-reversed,incorrect,0.7712352649605221,0,valid_lose,580.7078976999037,54,,,,,,,,,,,,,,,,sub_230,2022-11-10_08h42.57.751,Reversal,2022.1.2,59.96972724665354,2,
15,exp3.png,exp4.png,,,,,,,,,,,,,,,,,,1,0,1,0,0,15,15,15,,,,,,,,,False,35,96,True,exp4.png,exp3.png,trial_right_image,-1,exp3.png,2,exp4.png,exp3.png,1,3,reversed,incorrect,0.3583663578635119,0,valid_lose,584.7895114999264,54,,,,,,,,,,,,,,,,sub_230,2022-11-10_08h42.57.751,Reversal,2022.1.2,59.96972724665354,2,
16,exp1.png,exp2.png,,,,,,,,,,,,,,,,,,1,0,1,0,0,16,16,16,,,,,,,,,False,36,97,True,exp2.png,exp1.png,trial_right_image,-1,exp1.png,2,exp1.png,exp2.png,1,1,non-reversed,correct,0.8453817015077622,1,valid_win,589.4061213999521,55,,,,,,,,,,,,,,,,sub_230,2022-11-10_08h42.57.751,Reversal,2022.1.2,59.96972724665354,2,
17,exp3.png,exp4.png,,,,,,,,,,,,,,,,,,1,0,1,0,0,17,17,17,,,,,,,,,False,37,98,True,exp4.png,exp3.png,trial_right_image,-1,exp3.png,2,exp4.png,exp3.png,1,3,reversed,incorrect,0.14631907885471584,1,invalid_win,593.240135199856,56,,,,,,,,,,,,,,,,sub_230,2022-11-10_08h42.57.751,Reversal,2022.1.2,59.96972724665354,2,
18,exp1.png,exp2.png,,,,,,,,,,,,,,,,,,1,0,1,0,0,18,18,18,,,,,,,,,False,38,99,True,exp2.png,exp1.png,trial_right_image,-1,exp1.png,2,exp1.png,exp2.png,1,1,non-reversed,correct,0.9338463467990706,1,valid_win,597.5560846999288,57,,,,,,,,,,,,,,,,sub_230,2022-11-10_08h42.57.751,Reversal,2022.1.2,59.96972724665354,2,
19,exp3.png,exp4.png,,,,,,,,,,,,,,,,,,1,0,1,0,0,19,19,19,,,,,,,,,False,39,100,False,exp3.png,exp4.png,trial_left_image,1,exp3.png,2,exp4.png,exp3.png,1,3,reversed,incorrect,0.71359156240442,0,valid_lose,602.8559914999641,57,,,,,,,,,,,,,,,,sub_230,2022-11-10_08h42.57.751,Reversal,2022.1.2,59.96972724665354,2,
20,exp1.png,exp2.png,,,,,,,,,,,,,,,,,,1,0,1,0,0,20,20,20,,,,,,,,,True,,,,,,,,,,,,,,,,,,,,,,,,,,,,,,,,,,,,sub_230,2022-11-10_08h42.57.751,Reversal,2022.1.2,59.96972724665354,2,
,,,exp1.png,,,,,,,,,,,,,,,,,1,0,1,0,,,,,0,0,0,0,0,0,0,0,,,,,,,,,,,,,,,,,,,,,,100.0,4.949639500118792,"[(100.0, 4.949639500118792)]",700.0464153999928,None,,,,100.0,,,,,,,sub_230,2022-11-10_08h42.57.751,Reversal,2022.1.2,59.96972724665354,2,
,,,exp2.png,,,,,,,,,,,,,,,,,1,0,1,0,,,,,0,0,0,0,0,1,1,1,,,,,,,,,,,,,,,,,,,,,,2.0,2.785820299992338,"[(2.0, 2.785820299992338)]",706.0603612000123,None,2.0,,,,,,,,,,sub_230,2022-11-10_08h42.57.751,Reversal,2022.1.2,59.96972724665354,2,
,,,exp3.png,,,,,,,,,,,,,,,,,1,0,1,0,,,,,0,0,0,0,0,2,2,2,,,,,,,,,,,,,,,,,,,,,,94.0,3.00067889993079,"[(94.0, 3.00067889993079)]",709.9433567000087,None,,94.0,,,,,,,,,sub_230,2022-11-10_08h42.57.751,Reversal,2022.1.2,59.96972724665354,2,
,,,exp4.png,,,,,,,,,,,,,,,,,1,0,1,0,,,,,0,0,0,0,0,3,3,3,,,,,,,,,,,,,,,,,,,,,,5.0,1.2008770001120865,"[(5.0, 1.2008770001120865)]",713.9926144999918,None,,,5.0,,,,,,,,sub_230,2022-11-10_08h42.57.751,Reversal,2022.1.2,59.96972724665354,2,
0,exp1.png,exp2.png,,,,,,,,,,,,,,,,,,2,0,2,0,0,0,0,0,,,,,,,,,False,40,101,True,exp2.png,exp1.png,trial_right_image,-1,exp1.png,2,exp1.png,exp2.png,1,1,non-reversed,correct,0.06141318101803661,0,invalid_lose,623.7225058998447,57,,,,,,,,,,,,,,,,sub_230,2022-11-10_08h42.57.751,Reversal,2022.1.2,59.96972724665354,2,
1,exp3.png,exp4.png,,,,,,,,,,,,,,,,,,2,0,2,0,0,1,1,1,,,,,,,,,False,41,102,True,exp4.png,exp3.png,trial_right_image,-1,exp3.png,2,exp4.png,exp3.png,1,3,reversed,incorrect,0.21937181990597676,1,invalid_win,628.2388178999536,58,,,,,,,,,,,,,,,,sub_230,2022-11-10_08h42.57.751,Reversal,2022.1.2,59.96972724665354,2,
2,exp1.png,exp2.png,,,,,,,,,,,,,,,,,,2,0,2,0,0,2,2,2,,,,,,,,,False,42,103,False,exp1.png,exp2.png,trial_left_image,1,exp1.png,2,exp1.png,exp2.png,1,1,non-reversed,correct,0.32279962991639854,1,valid_win,632.5076067999471,59,,,,,,,,,,,,,,,,sub_230,2022-11-10_08h42.57.751,Reversal,2022.1.2,59.96972724665354,2,
3,exp3.png,exp4.png,,,,,,,,,,,,,,,,,,2,0,2,0,0,3,3,3,,,,,,,,,False,43,104,True,exp4.png,exp3.png,trial_right_image,-1,exp3.png,2,exp4.png,exp3.png,1,3,reversed,incorrect,0.06667925402411501,1,invalid_win,636.8389517997857,60,,,,,,,,,,,,,,,,sub_230,2022-11-10_08h42.57.751,Reversal,2022.1.2,59.96972724665354,2,
4,exp1.png,exp2.png,,,,,,,,,,,,,,,,,,2,0,2,0,0,4,4,4,,,,,,,,,False,44,105,True,exp2.png,exp1.png,trial_right_image,-1,exp1.png,2,exp1.png,exp2.png,1,1,non-reversed,correct,0.041472892376977266,0,invalid_lose,641.2221089999657,60,,,,,,,,,,,,,,,,sub_230,2022-11-10_08h42.57.751,Reversal,2022.1.2,59.96972724665354,2,
5,exp3.png,exp4.png,,,,,,,,,,,,,,,,,,2,0,2,0,0,5,5,5,,,,,,,,,False,45,106,False,exp3.png,exp4.png,trial_left_image,1,exp3.png,2,exp4.png,exp3.png,1,3,reversed,incorrect,0.3355611853858175,0,valid_lose,645.7386486998294,60,,,,,,,,,,,,,,,,sub_230,2022-11-10_08h42.57.751,Reversal,2022.1.2,59.96972724665354,2,
6,exp1.png,exp2.png,,,,,,,,,,,,,,,,,,2,0,2,0,0,6,6,6,,,,,,,,,False,46,107,True,exp2.png,exp1.png,trial_right_image,-1,exp1.png,2,exp1.png,exp2.png,1,1,non-reversed,correct,0.045137139819167116,0,invalid_lose,650.4053532998078,60,,,,,,,,,,,,,,,,sub_230,2022-11-10_08h42.57.751,Reversal,2022.1.2,59.96972724665354,2,
7,exp3.png,exp4.png,,,,,,,,,,,,,,,,,,2,0,2,0,0,7,7,7,,,,,,,,,False,47,108,False,exp3.png,exp4.png,trial_left_image,1,exp3.png,2,exp4.png,exp3.png,1,3,reversed,incorrect,0.496048121589434,0,valid_lose,654.9383690999821,60,,,,,,,,,,,,,,,,sub_230,2022-11-10_08h42.57.751,Reversal,2022.1.2,59.96972724665354,2,
8,exp1.png,exp2.png,,,,,,,,,,,,,,,,,,2,0,2,0,0,8,8,8,,,,,,,,,False,48,109,False,exp1.png,exp2.png,trial_left_image,1,exp1.png,2,exp1.png,exp2.png,1,1,non-reversed,correct,0.8416211894210874,1,valid_win,659.5052591999993,61,,,,,,,,,,,,,,,,sub_230,2022-11-10_08h42.57.751,Reversal,2022.1.2,59.96972724665354,2,
9,exp3.png,exp4.png,,,,,,,,,,,,,,,,,,2,0,2,0,0,9,9,9,,,,,,,,,False,49,110,True,exp4.png,exp3.png,trial_right_image,-1,exp3.png,2,exp4.png,exp3.png,1,3,reversed,incorrect,0.6720536594160963,0,valid_lose,663.8385777999647,61,,,,,,,,,,,,,,,,sub_230,2022-11-10_08h42.57.751,Reversal,2022.1.2,59.96972724665354,2,
10,exp1.png,exp2.png,,,,,,,,,,,,,,,,,,2,0,2,0,0,10,10,10,,,,,,,,,False,50,111,False,exp1.png,exp2.png,trial_left_image,1,exp1.png,2,exp1.png,exp2.png,1,1,non-reversed,correct,0.18373138532325228,0,invalid_lose,668.2881441998761,61,,,,,,,,,,,,,,,,sub_230,2022-11-10_08h42.57.751,Reversal,2022.1.2,59.96972724665354,2,
11,exp3.png,exp4.png,,,,,,,,,,,,,,,,,,2,0,2,0,0,11,11,11,,,,,,,,,False,51,112,False,exp3.png,exp4.png,trial_left_image,1,exp3.png,2,exp4.png,exp3.png,1,3,reversed,incorrect,0.08077694055507967,1,invalid_win,672.8211576999165,62,,,,,,,,,,,,,,,,sub_230,2022-11-10_08h42.57.751,Reversal,2022.1.2,59.96972724665354,2,
12,exp1.png,exp2.png,,,,,,,,,,,,,,,,,,2,0,2,0,0,12,12,12,,,,,,,,,False,52,113,False,exp1.png,exp2.png,trial_left_image,1,exp1.png,2,exp1.png,exp2.png,1,1,non-reversed,correct,0.23362046515718515,0,invalid_lose,677.3046328998171,62,,,,,,,,,,,,,,,,sub_230,2022-11-10_08h42.57.751,Reversal,2022.1.2,59.96972724665354,2,
13,exp3.png,exp4.png,,,,,,,,,,,,,,,,,,2,0,2,0,0,13,13,13,,,,,,,,,False,53,114,True,exp4.png,exp3.png,trial_right_image,-1,exp3.png,2,exp4.png,exp3.png,1,3,reversed,incorrect,0.6687740714270901,0,valid_lose,682.0381397998426,62,,,,,,,,,,,,,,,,sub_230,2022-11-10_08h42.57.751,Reversal,2022.1.2,59.96972724665354,2,
14,exp1.png,exp2.png,,,,,,,,,,,,,,,,,,2,0,2,0,0,14,14,14,,,,,,,,,False,54,115,True,exp2.png,exp1.png,trial_right_image,-1,exp1.png,2,exp1.png,exp2.png,1,1,non-reversed,correct,0.3582021853695928,1,valid_win,686.7381708999164,63,,,,,,,,,,,,,,,,sub_230,2022-11-10_08h42.57.751,Reversal,2022.1.2,59.96972724665354,2,
15,exp3.png,exp4.png,,,,,,,,,,,,,,,,,,2,0,2,0,0,15,15,15,,,,,,,,,False,55,116,True,exp4.png,exp3.png,trial_left_image,1,exp4.png,2,exp4.png,exp3.png,0,4,reversed,correct,0.2577903174973286,1,valid_win,691.9545563999563,64,,,,,,,,,,,,,,,,sub_230,2022-11-10_08h42.57.751,Reversal,2022.1.2,59.96972724665354,2,
16,exp1.png,exp2.png,,,,,,,,,,,,,,,,,,2,0,2,0,0,16,16,16,,,,,,,,,False,56,117,False,exp1.png,exp2.png,trial_left_image,1,exp1.png,2,exp1.png,exp2.png,1,1,non-reversed,correct,0.7838788502629002,1,valid_win,696.6042091997806,65,,,,,,,,,,,,,,,,sub_230,2022-11-10_08h42.57.751,Reversal,2022.1.2,59.96972724665354,2,
17,exp3.png,exp4.png,,,,,,,,,,,,,,,,,,2,0,2,0,0,17,17,17,,,,,,,,,False,57,118,False,exp3.png,exp4.png,trial_left_image,1,exp3.png,2,exp4.png,exp3.png,1,3,reversed,incorrect,0.1692044863231067,1,invalid_win,701.6883590999059,66,,,,,,,,,,,,,,,,sub_230,2022-11-10_08h42.57.751,Reversal,2022.1.2,59.96972724665354,2,
18,exp1.png,exp2.png,,,,,,,,,,,,,,,,,,2,0,2,0,0,18,18,18,,,,,,,,,False,58,119,False,exp1.png,exp2.png,trial_left_image,1,exp1.png,2,exp1.png,exp2.png,1,1,non-reversed,correct,0.40201085526291913,1,valid_win,706.0879020998254,67,,,,,,,,,,,,,,,,sub_230,2022-11-10_08h42.57.751,Reversal,2022.1.2,59.96972724665354,2,
19,exp3.png,exp4.png,,,,,,,,,,,,,,,,,,2,0,2,0,0,19,19,19,,,,,,,,,False,59,120,True,exp4.png,exp3.png,trial_right_image,-1,exp3.png,2,exp4.png,exp3.png,1,3,reversed,incorrect,0.876290328850614,0,valid_lose,710.6044241997879,67,,,,,,,,,,,,,,,,sub_230,2022-11-10_08h42.57.751,Reversal,2022.1.2,59.96972724665354,2,
20,exp1.png,exp2.png,,,,,,,,,,,,,,,,,,2,0,2,0,0,20,20,20,,,,,,,,,True,,,,,,,,,,,,,,,,,,,,,,,,,,,,,,,,,,,,sub_230,2022-11-10_08h42.57.751,Reversal,2022.1.2,59.96972724665354,2,
,,,exp1.png,,,,,,,,,,,,,,,,,2,0,2,0,,,,,0,0,0,0,0,0,0,0,,,,,,,,,,,,,,,,,,,,,,100.0,3.1119967999402434,"[(100.0, 3.1119967999402434)]",807.795331900008,None,,,,100.0,,,,,,,sub_230,2022-11-10_08h42.57.751,Reversal,2022.1.2,59.96972724665354,2,
,,,exp2.png,,,,,,,,,,,,,,,,,2,0,2,0,,,,,0,0,0,0,0,1,1,1,,,,,,,,,,,,,,,,,,,,,,6.0,3.100752600003034,"[(6.0, 3.100752600003034)]",813.2466758000664,None,6.0,,,,,,,,,,sub_230,2022-11-10_08h42.57.751,Reversal,2022.1.2,59.96972724665354,2,
,,,exp3.png,,,,,,,,,,,,,,,,,2,0,2,0,,,,,0,0,0,0,0,2,2,2,,,,,,,,,,,,,,,,,,,,,,100.0,8.745801699813455,"[(85.0, 7.312952899839729), (100.0, 8.745801699813455)]",817.5291943999473,None,,100.0,,,,,,,,,sub_230,2022-11-10_08h42.57.751,Reversal,2022.1.2,59.96972724665354,2,
,,,exp4.png,,,,,,,,,,,,,,,,,2,0,2,0,,,,,0,0,0,0,0,3,3,3,,,,,,,,,,,,,,,,,,,,,,3.0,1.5013353000395,"[(3.0, 1.5013353000395)]",827.2948261001147,None,,,3.0,,,,,,,,sub_230,2022-11-10_08h42.57.751,Reversal,2022.1.2,59.96972724665354,2,
,,,,,,,,,,,,,,,,,,,,,,,,,,,,,,,,,,,,,,,,,,,,,,,,,,,,,,,,67,,,,,,,,,,,79,52,27,339.35944170015864,0,,,,,,,
