trial_index,trial_image1_file,trial_image2_file,image_file,learning_outer_loop.thisRepN,learning_outer_loop.thisTrialN,learning_outer_loop.thisN,learning_outer_loop.thisIndex,learning_inner_loop.thisRepN,learning_inner_loop.thisTrialN,learning_inner_loop.thisN,learning_inner_loop.thisIndex,learning_estimation_outer_loop.thisRepN,learning_estimation_outer_loop.thisTrialN,learning_estimation_outer_loop.thisN,learning_estimation_outer_loop.thisIndex,learning_estimation_inner_loop.thisRepN,learning_estimation_inner_loop.thisTrialN,learning_estimation_inner_loop.thisN,learning_estimation_inner_loop.thisIndex,reversal_outer_loop.thisRepN,reversal_outer_loop.thisTrialN,reversal_outer_loop.thisN,reversal_outer_loop.thisIndex,reversal_inner_loop.thisRepN,reversal_inner_loop.thisTrialN,reversal_inner_loop.thisN,reversal_inner_loop.thisIndex,reversal_estimation_outer_loop.thisRepN,reversal_estimation_outer_loop.thisTrialN,reversal_estimation_outer_loop.thisN,reversal_estimation_outer_loop.thisIndex,reversal_estimation_inner_loop.thisRepN,reversal_estimation_inner_loop.thisTrialN,reversal_estimation_inner_loop.thisN,reversal_estimation_inner_loop.thisIndex,skipped,total_trial_counter,trial_num,left_right_flip,left_image_file,right_image_file,clicked_stimulus_side,side,clicked_stimulus,version,high_prob_image_file,low_prob_image_file,choice_a,choice_b,pair_type,correct,trial_feedback_random,reward,trial_type,overall_time_after_trial,score,estimation_exp1.png,estimation_rating.response,estimation_rating.rt,estimation_rating.history,estimation_rating.started,estimation_rating.stopped,estimation_exp2.png,estimation_exp3.png,estimation_exp4.png,total_learning_time,total_correct,learning_correct,reversal_correct,total_reversal_time,extra_block,participant,date,expName,psychopyVersion,frameRate,ver,
0,exp1.png,exp2.png,,0,0,0,0,0,0,0,0,,,,,,,,,,,,,,,,,,,,,,,,,True,,,,,,,,,,,,,,,,,,,,,,,,,,,,,,,,,,,,sub_080,2022-09-28_11h37.31.345,Reversal,2022.1.1,60.05104338668154,4,
1,exp3.png,exp4.png,,0,0,0,0,0,1,1,1,,,,,,,,,,,,,,,,,,,,,,,,,False,0,1,False,exp3.png,exp4.png,trial_right_image,-1,exp4.png,4,exp4.png,exp3.png,1,3,reversed,correct,0.982533155453867,1,valid_win,16.178834899999856,1,,,,,,,,,,,,,,,,sub_080,2022-09-28_11h37.31.345,Reversal,2022.1.1,60.05104338668154,4,
2,exp1.png,exp2.png,,0,0,0,0,0,2,2,2,,,,,,,,,,,,,,,,,,,,,,,,,False,1,2,False,exp1.png,exp2.png,trial_right_image,-1,exp2.png,4,exp2.png,exp1.png,1,1,non-reversed,correct,0.6926542810536334,1,valid_win,45.74158990000069,2,,,,,,,,,,,,,,,,sub_080,2022-09-28_11h37.31.345,Reversal,2022.1.1,60.05104338668154,4,
3,exp3.png,exp4.png,,0,0,0,0,0,3,3,3,,,,,,,,,,,,,,,,,,,,,,,,,False,2,3,False,exp3.png,exp4.png,trial_right_image,-1,exp4.png,4,exp4.png,exp3.png,1,3,reversed,correct,0.0069197372646647715,0,invalid_lose,57.94150780000018,2,,,,,,,,,,,,,,,,sub_080,2022-09-28_11h37.31.345,Reversal,2022.1.1,60.05104338668154,4,
4,exp1.png,exp2.png,,0,0,0,0,0,4,4,4,,,,,,,,,,,,,,,,,,,,,,,,,False,3,4,False,exp1.png,exp2.png,trial_right_image,-1,exp2.png,4,exp2.png,exp1.png,1,1,non-reversed,correct,0.5143050889036871,1,valid_win,71.5389180000002,3,,,,,,,,,,,,,,,,sub_080,2022-09-28_11h37.31.345,Reversal,2022.1.1,60.05104338668154,4,
5,exp3.png,exp4.png,,0,0,0,0,0,5,5,5,,,,,,,,,,,,,,,,,,,,,,,,,False,4,5,True,exp4.png,exp3.png,trial_left_image,1,exp4.png,4,exp4.png,exp3.png,1,3,reversed,correct,0.05398510340486917,0,invalid_lose,83.93712190000042,3,,,,,,,,,,,,,,,,sub_080,2022-09-28_11h37.31.345,Reversal,2022.1.1,60.05104338668154,4,
6,exp1.png,exp2.png,,0,0,0,0,0,6,6,6,,,,,,,,,,,,,,,,,,,,,,,,,False,5,6,True,exp2.png,exp1.png,trial_left_image,1,exp2.png,4,exp2.png,exp1.png,1,1,non-reversed,correct,0.17739811352225632,0,invalid_lose,91.75629499999923,3,,,,,,,,,,,,,,,,sub_080,2022-09-28_11h37.31.345,Reversal,2022.1.1,60.05104338668154,4,
7,exp3.png,exp4.png,,0,0,0,0,0,7,7,7,,,,,,,,,,,,,,,,,,,,,,,,,False,6,7,True,exp4.png,exp3.png,trial_right_image,-1,exp3.png,4,exp4.png,exp3.png,0,4,reversed,incorrect,0.9132080344001287,0,valid_lose,97.3514527999996,3,,,,,,,,,,,,,,,,sub_080,2022-09-28_11h37.31.345,Reversal,2022.1.1,60.05104338668154,4,
8,exp1.png,exp2.png,,0,0,0,0,0,8,8,8,,,,,,,,,,,,,,,,,,,,,,,,,False,7,8,True,exp2.png,exp1.png,trial_right_image,-1,exp1.png,4,exp2.png,exp1.png,0,2,non-reversed,incorrect,0.7240762439605383,0,valid_lose,110.33353039999929,3,,,,,,,,,,,,,,,,sub_080,2022-09-28_11h37.31.345,Reversal,2022.1.1,60.05104338668154,4,
9,exp3.png,exp4.png,,0,0,0,0,0,9,9,9,,,,,,,,,,,,,,,,,,,,,,,,,False,8,9,False,exp3.png,exp4.png,trial_right_image,-1,exp4.png,4,exp4.png,exp3.png,1,3,reversed,correct,0.4106783200319619,1,valid_win,120.9997198000001,4,,,,,,,,,,,,,,,,sub_080,2022-09-28_11h37.31.345,Reversal,2022.1.1,60.05104338668154,4,
10,exp1.png,exp2.png,,0,0,0,0,0,10,10,10,,,,,,,,,,,,,,,,,,,,,,,,,False,9,10,True,exp2.png,exp1.png,trial_left_image,1,exp2.png,4,exp2.png,exp1.png,1,1,non-reversed,correct,0.46515955073229687,1,valid_win,132.54754800000046,5,,,,,,,,,,,,,,,,sub_080,2022-09-28_11h37.31.345,Reversal,2022.1.1,60.05104338668154,4,
11,exp3.png,exp4.png,,0,0,0,0,0,11,11,11,,,,,,,,,,,,,,,,,,,,,,,,,False,10,11,True,exp4.png,exp3.png,trial_left_image,1,exp4.png,4,exp4.png,exp3.png,1,3,reversed,correct,0.5428010723910285,1,valid_win,139.13084680000065,6,,,,,,,,,,,,,,,,sub_080,2022-09-28_11h37.31.345,Reversal,2022.1.1,60.05104338668154,4,
12,exp1.png,exp2.png,,0,0,0,0,0,12,12,12,,,,,,,,,,,,,,,,,,,,,,,,,False,11,12,True,exp2.png,exp1.png,trial_right_image,-1,exp1.png,4,exp2.png,exp1.png,0,2,non-reversed,incorrect,0.2967415192963352,0,valid_lose,148.11265769999955,6,,,,,,,,,,,,,,,,sub_080,2022-09-28_11h37.31.345,Reversal,2022.1.1,60.05104338668154,4,
13,exp3.png,exp4.png,,0,0,0,0,0,13,13,13,,,,,,,,,,,,,,,,,,,,,,,,,False,12,13,False,exp3.png,exp4.png,trial_right_image,-1,exp4.png,4,exp4.png,exp3.png,1,3,reversed,correct,0.21314810450005095,0,invalid_lose,154.60988159999943,6,,,,,,,,,,,,,,,,sub_080,2022-09-28_11h37.31.345,Reversal,2022.1.1,60.05104338668154,4,
14,exp1.png,exp2.png,,0,0,0,0,0,14,14,14,,,,,,,,,,,,,,,,,,,,,,,,,False,13,14,False,exp1.png,exp2.png,trial_right_image,-1,exp2.png,4,exp2.png,exp1.png,1,1,non-reversed,correct,0.7133770028570277,1,valid_win,160.76032130000021,7,,,,,,,,,,,,,,,,sub_080,2022-09-28_11h37.31.345,Reversal,2022.1.1,60.05104338668154,4,
15,exp3.png,exp4.png,,0,0,0,0,0,15,15,15,,,,,,,,,,,,,,,,,,,,,,,,,False,14,15,True,exp4.png,exp3.png,trial_left_image,1,exp4.png,4,exp4.png,exp3.png,1,3,reversed,correct,0.8258499862983852,1,valid_win,166.19211299999915,8,,,,,,,,,,,,,,,,sub_080,2022-09-28_11h37.31.345,Reversal,2022.1.1,60.05104338668154,4,
16,exp1.png,exp2.png,,0,0,0,0,0,16,16,16,,,,,,,,,,,,,,,,,,,,,,,,,False,15,16,False,exp1.png,exp2.png,trial_right_image,-1,exp2.png,4,exp2.png,exp1.png,1,1,non-reversed,correct,0.5623443539395513,1,valid_win,171.6420366000002,9,,,,,,,,,,,,,,,,sub_080,2022-09-28_11h37.31.345,Reversal,2022.1.1,60.05104338668154,4,
17,exp3.png,exp4.png,,0,0,0,0,0,17,17,17,,,,,,,,,,,,,,,,,,,,,,,,,False,16,17,False,exp3.png,exp4.png,trial_right_image,-1,exp4.png,4,exp4.png,exp3.png,1,3,reversed,correct,0.3334849698631317,1,valid_win,177.02447849999953,10,,,,,,,,,,,,,,,,sub_080,2022-09-28_11h37.31.345,Reversal,2022.1.1,60.05104338668154,4,
18,exp1.png,exp2.png,,0,0,0,0,0,18,18,18,,,,,,,,,,,,,,,,,,,,,,,,,False,17,18,True,exp2.png,exp1.png,trial_left_image,1,exp2.png,4,exp2.png,exp1.png,1,1,non-reversed,correct,0.7840410075132815,1,valid_win,183.3572667999997,11,,,,,,,,,,,,,,,,sub_080,2022-09-28_11h37.31.345,Reversal,2022.1.1,60.05104338668154,4,
19,exp3.png,exp4.png,,0,0,0,0,0,19,19,19,,,,,,,,,,,,,,,,,,,,,,,,,False,18,19,True,exp4.png,exp3.png,trial_left_image,1,exp4.png,4,exp4.png,exp3.png,1,3,reversed,correct,0.8087580961196672,1,valid_win,189.14506790000087,12,,,,,,,,,,,,,,,,sub_080,2022-09-28_11h37.31.345,Reversal,2022.1.1,60.05104338668154,4,
20,exp1.png,exp2.png,,0,0,0,0,0,20,20,20,,,,,,,,,,,,,,,,,,,,,,,,,False,19,20,False,exp1.png,exp2.png,trial_right_image,-1,exp2.png,4,exp2.png,exp1.png,1,1,non-reversed,correct,0.9016966765902622,1,valid_win,194.3747227999993,13,,,,,,,,,,,,,,,,sub_080,2022-09-28_11h37.31.345,Reversal,2022.1.1,60.05104338668154,4,
,,,exp1.png,0,0,0,0,,,,,0,0,0,0,0,0,0,0,,,,,,,,,,,,,,,,,,,,,,,,,,,,,,,,,,,,,,100.0,100.0,13.146808299999975,"[(100.0, 13.146808299999975)]",300.98273809999955,None,,,,,,,,,,sub_080,2022-09-28_11h37.31.345,Reversal,2022.1.1,60.05104338668154,4,
,,,exp2.png,0,0,0,0,,,,,0,0,0,0,0,1,1,1,,,,,,,,,,,,,,,,,,,,,,,,,,,,,,,,,,,,,,,100.0,5.621035199999824,"[(100.0, 5.621035199999824)]",315.9323136999992,None,100.0,,,,,,,,,sub_080,2022-09-28_11h37.31.345,Reversal,2022.1.1,60.05104338668154,4,
,,,exp3.png,0,0,0,0,,,,,0,0,0,0,0,2,2,2,,,,,,,,,,,,,,,,,,,,,,,,,,,,,,,,,,,,,,,1.0,5.0188165999989,"[(14.0, 3.674599899999521), (1.0, 5.0188165999989)]",323.2473387000009,None,,1.0,,,,,,,,sub_080,2022-09-28_11h37.31.345,Reversal,2022.1.1,60.05104338668154,4,
,,,exp4.png,0,0,0,0,,,,,0,0,0,0,0,3,3,3,,,,,,,,,,,,,,,,,,,,,,,,,,,,,,,,,,,,,,,100.0,4.121891999999207,"[(100.0, 4.121891999999207)]",329.4584730000006,None,,,100.0,,,,,,,sub_080,2022-09-28_11h37.31.345,Reversal,2022.1.1,60.05104338668154,4,
0,exp1.png,exp2.png,,1,0,1,0,0,0,0,0,,,,,,,,,,,,,,,,,,,,,,,,,True,,,,,,,,,,,,,,,,,,,,,,,,,,,,,,,,,,,,sub_080,2022-09-28_11h37.31.345,Reversal,2022.1.1,60.05104338668154,4,
1,exp3.png,exp4.png,,1,0,1,0,0,1,1,1,,,,,,,,,,,,,,,,,,,,,,,,,False,20,21,False,exp3.png,exp4.png,trial_right_image,-1,exp4.png,4,exp4.png,exp3.png,1,3,reversed,correct,0.19123496817210606,0,invalid_lose,234.1507259000009,13,,,,,,,,,,,,,,,,sub_080,2022-09-28_11h37.31.345,Reversal,2022.1.1,60.05104338668154,4,
2,exp1.png,exp2.png,,1,0,1,0,0,2,2,2,,,,,,,,,,,,,,,,,,,,,,,,,False,21,22,False,exp1.png,exp2.png,trial_right_image,-1,exp2.png,4,exp2.png,exp1.png,1,1,non-reversed,correct,0.2194721503304753,0,invalid_lose,242.69951969999966,13,,,,,,,,,,,,,,,,sub_080,2022-09-28_11h37.31.345,Reversal,2022.1.1,60.05104338668154,4,
3,exp3.png,exp4.png,,1,0,1,0,0,3,3,3,,,,,,,,,,,,,,,,,,,,,,,,,False,22,23,False,exp3.png,exp4.png,trial_left_image,1,exp3.png,4,exp4.png,exp3.png,0,4,reversed,incorrect,0.6119739853556131,0,valid_lose,247.48271999999997,13,,,,,,,,,,,,,,,,sub_080,2022-09-28_11h37.31.345,Reversal,2022.1.1,60.05104338668154,4,
4,exp1.png,exp2.png,,1,0,1,0,0,4,4,4,,,,,,,,,,,,,,,,,,,,,,,,,False,23,24,False,exp1.png,exp2.png,trial_right_image,-1,exp2.png,4,exp2.png,exp1.png,1,1,non-reversed,correct,0.9550066328924486,1,valid_win,251.64810729999954,14,,,,,,,,,,,,,,,,sub_080,2022-09-28_11h37.31.345,Reversal,2022.1.1,60.05104338668154,4,
5,exp3.png,exp4.png,,1,0,1,0,0,5,5,5,,,,,,,,,,,,,,,,,,,,,,,,,False,24,25,False,exp3.png,exp4.png,trial_right_image,-1,exp4.png,4,exp4.png,exp3.png,1,3,reversed,correct,0.5612806150208828,1,valid_win,256.6479263000001,15,,,,,,,,,,,,,,,,sub_080,2022-09-28_11h37.31.345,Reversal,2022.1.1,60.05104338668154,4,
6,exp1.png,exp2.png,,1,0,1,0,0,6,6,6,,,,,,,,,,,,,,,,,,,,,,,,,False,25,26,True,exp2.png,exp1.png,trial_left_image,1,exp2.png,4,exp2.png,exp1.png,1,1,non-reversed,correct,0.5629094646600705,1,valid_win,261.68591190000006,16,,,,,,,,,,,,,,,,sub_080,2022-09-28_11h37.31.345,Reversal,2022.1.1,60.05104338668154,4,
7,exp3.png,exp4.png,,1,0,1,0,0,7,7,7,,,,,,,,,,,,,,,,,,,,,,,,,False,26,27,False,exp3.png,exp4.png,trial_right_image,-1,exp4.png,4,exp4.png,exp3.png,1,3,reversed,correct,0.7477943861810203,1,valid_win,266.6310864999996,17,,,,,,,,,,,,,,,,sub_080,2022-09-28_11h37.31.345,Reversal,2022.1.1,60.05104338668154,4,
8,exp1.png,exp2.png,,1,0,1,0,0,8,8,8,,,,,,,,,,,,,,,,,,,,,,,,,False,27,28,True,exp2.png,exp1.png,trial_left_image,1,exp2.png,4,exp2.png,exp1.png,1,1,non-reversed,correct,0.04020579553196446,0,invalid_lose,274.87866439999925,17,,,,,,,,,,,,,,,,sub_080,2022-09-28_11h37.31.345,Reversal,2022.1.1,60.05104338668154,4,
9,exp3.png,exp4.png,,1,0,1,0,0,9,9,9,,,,,,,,,,,,,,,,,,,,,,,,,False,28,29,False,exp3.png,exp4.png,trial_right_image,-1,exp4.png,4,exp4.png,exp3.png,1,3,reversed,correct,0.3303315874604388,1,valid_win,280.88817050000034,18,,,,,,,,,,,,,,,,sub_080,2022-09-28_11h37.31.345,Reversal,2022.1.1,60.05104338668154,4,
10,exp1.png,exp2.png,,1,0,1,0,0,10,10,10,,,,,,,,,,,,,,,,,,,,,,,,,False,29,30,False,exp1.png,exp2.png,trial_right_image,-1,exp2.png,4,exp2.png,exp1.png,1,1,non-reversed,correct,0.5515653934269741,1,valid_win,287.7945089999994,19,,,,,,,,,,,,,,,,sub_080,2022-09-28_11h37.31.345,Reversal,2022.1.1,60.05104338668154,4,
11,exp3.png,exp4.png,,1,0,1,0,0,11,11,11,,,,,,,,,,,,,,,,,,,,,,,,,False,30,31,True,exp4.png,exp3.png,trial_left_image,1,exp4.png,4,exp4.png,exp3.png,1,3,reversed,correct,0.4179306884328504,1,valid_win,297.3093595999999,20,,,,,,,,,,,,,,,,sub_080,2022-09-28_11h37.31.345,Reversal,2022.1.1,60.05104338668154,4,
12,exp1.png,exp2.png,,1,0,1,0,0,12,12,12,,,,,,,,,,,,,,,,,,,,,,,,,False,31,32,False,exp1.png,exp2.png,trial_left_image,1,exp1.png,4,exp2.png,exp1.png,0,2,non-reversed,incorrect,0.6189415675923974,0,valid_lose,303.7248698000003,20,,,,,,,,,,,,,,,,sub_080,2022-09-28_11h37.31.345,Reversal,2022.1.1,60.05104338668154,4,
13,exp3.png,exp4.png,,1,0,1,0,0,13,13,13,,,,,,,,,,,,,,,,,,,,,,,,,False,32,33,True,exp4.png,exp3.png,trial_left_image,1,exp4.png,4,exp4.png,exp3.png,1,3,reversed,correct,0.48035407863001345,1,valid_win,308.32442059999994,21,,,,,,,,,,,,,,,,sub_080,2022-09-28_11h37.31.345,Reversal,2022.1.1,60.05104338668154,4,
14,exp1.png,exp2.png,,1,0,1,0,0,14,14,14,,,,,,,,,,,,,,,,,,,,,,,,,False,33,34,True,exp2.png,exp1.png,trial_left_image,1,exp2.png,4,exp2.png,exp1.png,1,1,non-reversed,correct,0.345338961526895,1,valid_win,313.4569883000004,22,,,,,,,,,,,,,,,,sub_080,2022-09-28_11h37.31.345,Reversal,2022.1.1,60.05104338668154,4,
15,exp3.png,exp4.png,,1,0,1,0,0,15,15,15,,,,,,,,,,,,,,,,,,,,,,,,,False,34,35,True,exp4.png,exp3.png,trial_left_image,1,exp4.png,4,exp4.png,exp3.png,1,3,reversed,correct,0.7656013454929965,1,valid_win,319.52320580000014,23,,,,,,,,,,,,,,,,sub_080,2022-09-28_11h37.31.345,Reversal,2022.1.1,60.05104338668154,4,
16,exp1.png,exp2.png,,1,0,1,0,0,16,16,16,,,,,,,,,,,,,,,,,,,,,,,,,False,35,36,True,exp2.png,exp1.png,trial_left_image,1,exp2.png,4,exp2.png,exp1.png,1,1,non-reversed,correct,0.880888098395374,1,valid_win,326.0052187000001,24,,,,,,,,,,,,,,,,sub_080,2022-09-28_11h37.31.345,Reversal,2022.1.1,60.05104338668154,4,
17,exp3.png,exp4.png,,1,0,1,0,0,17,17,17,,,,,,,,,,,,,,,,,,,,,,,,,False,36,37,True,exp4.png,exp3.png,trial_left_image,1,exp4.png,4,exp4.png,exp3.png,1,3,reversed,correct,0.5965938076777989,1,valid_win,332.2706975000001,25,,,,,,,,,,,,,,,,sub_080,2022-09-28_11h37.31.345,Reversal,2022.1.1,60.05104338668154,4,
18,exp1.png,exp2.png,,1,0,1,0,0,18,18,18,,,,,,,,,,,,,,,,,,,,,,,,,False,37,38,False,exp1.png,exp2.png,trial_right_image,-1,exp2.png,4,exp2.png,exp1.png,1,1,non-reversed,correct,0.2359290025965426,0,invalid_lose,337.7371432,25,,,,,,,,,,,,,,,,sub_080,2022-09-28_11h37.31.345,Reversal,2022.1.1,60.05104338668154,4,
19,exp3.png,exp4.png,,1,0,1,0,0,19,19,19,,,,,,,,,,,,,,,,,,,,,,,,,False,38,39,True,exp4.png,exp3.png,trial_left_image,1,exp4.png,4,exp4.png,exp3.png,1,3,reversed,correct,0.2765042278125822,1,valid_win,343.17172779999964,26,,,,,,,,,,,,,,,,sub_080,2022-09-28_11h37.31.345,Reversal,2022.1.1,60.05104338668154,4,
20,exp1.png,exp2.png,,1,0,1,0,0,20,20,20,,,,,,,,,,,,,,,,,,,,,,,,,False,39,40,True,exp2.png,exp1.png,trial_right_image,-1,exp1.png,4,exp2.png,exp1.png,0,2,non-reversed,incorrect,0.25471543503534333,0,valid_lose,350.30422440000075,26,,,,,,,,,,,,,,,,sub_080,2022-09-28_11h37.31.345,Reversal,2022.1.1,60.05104338668154,4,
,,,exp1.png,1,0,1,0,,,,,0,0,0,0,0,0,0,0,,,,,,,,,,,,,,,,,,,,,,,,,,,,,,,,,,,,,,100.0,100.0,4.06385820000105,"[(100.0, 4.06385820000105)]",456.91504239999995,None,,,,,,,,,,sub_080,2022-09-28_11h37.31.345,Reversal,2022.1.1,60.05104338668154,4,
,,,exp2.png,1,0,1,0,,,,,0,0,0,0,0,1,1,1,,,,,,,,,,,,,,,,,,,,,,,,,,,,,,,,,,,,,,,100.0,4.002580800000942,"[(100.0, 4.002580800000942)]",461.9903498999993,None,100.0,,,,,,,,,sub_080,2022-09-28_11h37.31.345,Reversal,2022.1.1,60.05104338668154,4,
,,,exp3.png,1,0,1,0,,,,,0,0,0,0,0,2,2,2,,,,,,,,,,,,,,,,,,,,,,,,,,,,,,,,,,,,,,,4.0,2.4702044000005117,"[(4.0, 2.4702044000005117)]",467.9050936000003,None,,4.0,,,,,,,,sub_080,2022-09-28_11h37.31.345,Reversal,2022.1.1,60.05104338668154,4,
,,,exp4.png,1,0,1,0,,,,,0,0,0,0,0,3,3,3,,,,,,,,,,,,,,,,,,,,,,,,,,,,,,,,,,,,,,,100.0,6.122489400000632,"[(1.0, 3.0370206000006874), (100.0, 6.122489400000632)]",471.60458160000053,None,,,100.0,,,,,,,sub_080,2022-09-28_11h37.31.345,Reversal,2022.1.1,60.05104338668154,4,
0,exp1.png,exp2.png,,2,0,2,0,0,0,0,0,,,,,,,,,,,,,,,,,,,,,,,,,True,,,,,,,,,,,,,,,,,,,,,,,,,,,,,,,,,,,,sub_080,2022-09-28_11h37.31.345,Reversal,2022.1.1,60.05104338668154,4,
1,exp3.png,exp4.png,,2,0,2,0,0,1,1,1,,,,,,,,,,,,,,,,,,,,,,,,,False,40,41,False,exp3.png,exp4.png,trial_right_image,-1,exp4.png,4,exp4.png,exp3.png,1,3,reversed,correct,0.9226639314336639,1,valid_win,378.66558799999984,27,,,,,,,,,,,,,,,,sub_080,2022-09-28_11h37.31.345,Reversal,2022.1.1,60.05104338668154,4,
2,exp1.png,exp2.png,,2,0,2,0,0,2,2,2,,,,,,,,,,,,,,,,,,,,,,,,,False,41,42,False,exp1.png,exp2.png,trial_right_image,-1,exp2.png,4,exp2.png,exp1.png,1,1,non-reversed,correct,0.5408061201918782,1,valid_win,384.3157960000008,28,,,,,,,,,,,,,,,,sub_080,2022-09-28_11h37.31.345,Reversal,2022.1.1,60.05104338668154,4,
3,exp3.png,exp4.png,,2,0,2,0,0,3,3,3,,,,,,,,,,,,,,,,,,,,,,,,,False,42,43,False,exp3.png,exp4.png,trial_right_image,-1,exp4.png,4,exp4.png,exp3.png,1,3,reversed,correct,0.5896594216964047,1,valid_win,391.48102990000007,29,,,,,,,,,,,,,,,,sub_080,2022-09-28_11h37.31.345,Reversal,2022.1.1,60.05104338668154,4,
4,exp1.png,exp2.png,,2,0,2,0,0,4,4,4,,,,,,,,,,,,,,,,,,,,,,,,,False,43,44,True,exp2.png,exp1.png,trial_left_image,1,exp2.png,4,exp2.png,exp1.png,1,1,non-reversed,correct,0.5578690241804841,1,valid_win,398.51419650000025,30,,,,,,,,,,,,,,,,sub_080,2022-09-28_11h37.31.345,Reversal,2022.1.1,60.05104338668154,4,
5,exp3.png,exp4.png,,2,0,2,0,0,5,5,5,,,,,,,,,,,,,,,,,,,,,,,,,False,44,45,False,exp3.png,exp4.png,trial_right_image,-1,exp4.png,4,exp4.png,exp3.png,1,3,reversed,correct,0.30071688998879087,1,valid_win,404.51199389999965,31,,,,,,,,,,,,,,,,sub_080,2022-09-28_11h37.31.345,Reversal,2022.1.1,60.05104338668154,4,
6,exp1.png,exp2.png,,2,0,2,0,0,6,6,6,,,,,,,,,,,,,,,,,,,,,,,,,False,45,46,False,exp1.png,exp2.png,trial_right_image,-1,exp2.png,4,exp2.png,exp1.png,1,1,non-reversed,correct,0.07624094568022488,0,invalid_lose,409.46129180000025,31,,,,,,,,,,,,,,,,sub_080,2022-09-28_11h37.31.345,Reversal,2022.1.1,60.05104338668154,4,
7,exp3.png,exp4.png,,2,0,2,0,0,7,7,7,,,,,,,,,,,,,,,,,,,,,,,,,False,46,47,True,exp4.png,exp3.png,trial_left_image,1,exp4.png,4,exp4.png,exp3.png,1,3,reversed,correct,0.900064493004487,1,valid_win,413.86070199999995,32,,,,,,,,,,,,,,,,sub_080,2022-09-28_11h37.31.345,Reversal,2022.1.1,60.05104338668154,4,
8,exp1.png,exp2.png,,2,0,2,0,0,8,8,8,,,,,,,,,,,,,,,,,,,,,,,,,False,47,48,True,exp2.png,exp1.png,trial_left_image,1,exp2.png,4,exp2.png,exp1.png,1,1,non-reversed,correct,0.8592371506754755,1,valid_win,421.0265051999995,33,,,,,,,,,,,,,,,,sub_080,2022-09-28_11h37.31.345,Reversal,2022.1.1,60.05104338668154,4,
9,exp3.png,exp4.png,,2,0,2,0,0,9,9,9,,,,,,,,,,,,,,,,,,,,,,,,,False,48,49,False,exp3.png,exp4.png,trial_right_image,-1,exp4.png,4,exp4.png,exp3.png,1,3,reversed,correct,0.025597426821632685,0,invalid_lose,427.02731420000055,33,,,,,,,,,,,,,,,,sub_080,2022-09-28_11h37.31.345,Reversal,2022.1.1,60.05104338668154,4,
10,exp1.png,exp2.png,,2,0,2,0,0,10,10,10,,,,,,,,,,,,,,,,,,,,,,,,,False,49,50,True,exp2.png,exp1.png,trial_right_image,-1,exp1.png,4,exp2.png,exp1.png,0,2,non-reversed,incorrect,0.37312547086230274,0,valid_lose,435.99159040000086,33,,,,,,,,,,,,,,,,sub_080,2022-09-28_11h37.31.345,Reversal,2022.1.1,60.05104338668154,4,
11,exp3.png,exp4.png,,2,0,2,0,0,11,11,11,,,,,,,,,,,,,,,,,,,,,,,,,False,50,51,True,exp4.png,exp3.png,trial_left_image,1,exp4.png,4,exp4.png,exp3.png,1,3,reversed,correct,0.16278939157261396,0,invalid_lose,440.29036740000083,33,,,,,,,,,,,,,,,,sub_080,2022-09-28_11h37.31.345,Reversal,2022.1.1,60.05104338668154,4,
12,exp1.png,exp2.png,,2,0,2,0,0,12,12,12,,,,,,,,,,,,,,,,,,,,,,,,,False,51,52,True,exp2.png,exp1.png,trial_left_image,1,exp2.png,4,exp2.png,exp1.png,1,1,non-reversed,correct,0.7972766117531592,1,valid_win,447.92363750000004,34,,,,,,,,,,,,,,,,sub_080,2022-09-28_11h37.31.345,Reversal,2022.1.1,60.05104338668154,4,
13,exp3.png,exp4.png,,2,0,2,0,0,13,13,13,,,,,,,,,,,,,,,,,,,,,,,,,False,52,53,True,exp4.png,exp3.png,trial_left_image,1,exp4.png,4,exp4.png,exp3.png,1,3,reversed,correct,0.6192647571690023,1,valid_win,452.9897352000007,35,,,,,,,,,,,,,,,,sub_080,2022-09-28_11h37.31.345,Reversal,2022.1.1,60.05104338668154,4,
14,exp1.png,exp2.png,,2,0,2,0,0,14,14,14,,,,,,,,,,,,,,,,,,,,,,,,,False,53,54,False,exp1.png,exp2.png,trial_left_image,1,exp1.png,4,exp2.png,exp1.png,0,2,non-reversed,incorrect,0.2535456197670194,0,valid_lose,461.6045204000002,35,,,,,,,,,,,,,,,,sub_080,2022-09-28_11h37.31.345,Reversal,2022.1.1,60.05104338668154,4,
15,exp3.png,exp4.png,,2,0,2,0,0,15,15,15,,,,,,,,,,,,,,,,,,,,,,,,,False,54,55,True,exp4.png,exp3.png,trial_left_image,1,exp4.png,4,exp4.png,exp3.png,1,3,reversed,correct,0.2007891271193163,0,invalid_lose,466.1388951000008,35,,,,,,,,,,,,,,,,sub_080,2022-09-28_11h37.31.345,Reversal,2022.1.1,60.05104338668154,4,
16,exp1.png,exp2.png,,2,0,2,0,0,16,16,16,,,,,,,,,,,,,,,,,,,,,,,,,False,55,56,False,exp1.png,exp2.png,trial_right_image,-1,exp2.png,4,exp2.png,exp1.png,1,1,non-reversed,correct,0.4602324098096888,1,valid_win,470.6366937999992,36,,,,,,,,,,,,,,,,sub_080,2022-09-28_11h37.31.345,Reversal,2022.1.1,60.05104338668154,4,
17,exp3.png,exp4.png,,2,0,2,0,0,17,17,17,,,,,,,,,,,,,,,,,,,,,,,,,False,56,57,True,exp4.png,exp3.png,trial_right_image,-1,exp3.png,4,exp4.png,exp3.png,0,4,reversed,incorrect,0.7344004288090548,0,valid_lose,477.3358509000009,36,,,,,,,,,,,,,,,,sub_080,2022-09-28_11h37.31.345,Reversal,2022.1.1,60.05104338668154,4,
18,exp1.png,exp2.png,,2,0,2,0,0,18,18,18,,,,,,,,,,,,,,,,,,,,,,,,,False,57,58,False,exp1.png,exp2.png,trial_right_image,-1,exp2.png,4,exp2.png,exp1.png,1,1,non-reversed,correct,0.19172211443216824,0,invalid_lose,483.48759170000085,36,,,,,,,,,,,,,,,,sub_080,2022-09-28_11h37.31.345,Reversal,2022.1.1,60.05104338668154,4,
19,exp3.png,exp4.png,,2,0,2,0,0,19,19,19,,,,,,,,,,,,,,,,,,,,,,,,,False,58,59,True,exp4.png,exp3.png,trial_left_image,1,exp4.png,4,exp4.png,exp3.png,1,3,reversed,correct,0.836672341590978,1,valid_win,488.52000059999955,37,,,,,,,,,,,,,,,,sub_080,2022-09-28_11h37.31.345,Reversal,2022.1.1,60.05104338668154,4,
20,exp1.png,exp2.png,,2,0,2,0,0,20,20,20,,,,,,,,,,,,,,,,,,,,,,,,,False,59,60,False,exp1.png,exp2.png,trial_right_image,-1,exp2.png,4,exp2.png,exp1.png,1,1,non-reversed,correct,0.4570873499674323,1,valid_win,493.41675580000083,38,,,,,,,,,,,,,,,,sub_080,2022-09-28_11h37.31.345,Reversal,2022.1.1,60.05104338668154,4,
,,,exp1.png,2,0,2,0,,,,,0,0,0,0,0,0,0,0,,,,,,,,,,,,,,,,,,,,,,,,,,,,,,,,,,,,,,100.0,100.0,4.170339599999352,"[(100.0, 4.170339599999352)]",600.0197828,None,,,,,,,,,,sub_080,2022-09-28_11h37.31.345,Reversal,2022.1.1,60.05104338668154,4,
,,,exp2.png,2,0,2,0,,,,,0,0,0,0,0,1,1,1,,,,,,,,,,,,,,,,,,,,,,,,,,,,,,,,,,,,,,,100.0,2.6605230000004667,"[(100.0, 2.6605230000004667)]",606.4623102999994,None,100.0,,,,,,,,,sub_080,2022-09-28_11h37.31.345,Reversal,2022.1.1,60.05104338668154,4,
,,,exp3.png,2,0,2,0,,,,,0,0,0,0,0,2,2,2,,,,,,,,,,,,,,,,,,,,,,,,,,,,,,,,,,,,,,,1.0,2.2225123999996867,"[(1.0, 2.2225123999996867)]",610.0263539999996,None,,1.0,,,,,,,,sub_080,2022-09-28_11h37.31.345,Reversal,2022.1.1,60.05104338668154,4,
,,,exp4.png,2,0,2,0,,,,,0,0,0,0,0,3,3,3,,,,,,,,,,,,,,,,,,,,,,,,,,,,,,,,,,,,,,,100.0,2.5001107000007323,"[(100.0, 2.5001107000007323)]",613.4297693000008,None,,,100.0,,,,,,,sub_080,2022-09-28_11h37.31.345,Reversal,2022.1.1,60.05104338668154,4,
0,exp1.png,exp2.png,,,,,,,,,,,,,,,,,,0,0,0,0,0,0,0,0,,,,,,,,,True,,,,,,,,,,,,,,,,,,,,,,,,,,,,,,,,,,,,sub_080,2022-09-28_11h37.31.345,Reversal,2022.1.1,60.05104338668154,4,
1,exp3.png,exp4.png,,,,,,,,,,,,,,,,,,0,0,0,0,0,1,1,1,,,,,,,,,False,0,61,False,exp3.png,exp4.png,trial_right_image,-1,exp4.png,4,exp3.png,exp4.png,1,3,reversed,incorrect,0.6868652721528616,0,valid_lose,518.6641932000002,38,,,,,,,,,,512.9233628999991,,,,,,sub_080,2022-09-28_11h37.31.345,Reversal,2022.1.1,60.05104338668154,4,
2,exp1.png,exp2.png,,,,,,,,,,,,,,,,,,0,0,0,0,0,2,2,2,,,,,,,,,False,1,62,False,exp1.png,exp2.png,trial_right_image,-1,exp2.png,4,exp2.png,exp1.png,1,1,non-reversed,correct,0.5193475759991775,1,valid_win,523.3969964000007,39,,,,,,,,,,,,,,,,sub_080,2022-09-28_11h37.31.345,Reversal,2022.1.1,60.05104338668154,4,
3,exp3.png,exp4.png,,,,,,,,,,,,,,,,,,0,0,0,0,0,3,3,3,,,,,,,,,False,2,63,True,exp4.png,exp3.png,trial_right_image,-1,exp3.png,4,exp3.png,exp4.png,0,4,reversed,correct,0.11047311163341544,0,invalid_lose,529.6453626999992,39,,,,,,,,,,,,,,,,sub_080,2022-09-28_11h37.31.345,Reversal,2022.1.1,60.05104338668154,4,
4,exp1.png,exp2.png,,,,,,,,,,,,,,,,,,0,0,0,0,0,4,4,4,,,,,,,,,False,3,64,False,exp1.png,exp2.png,trial_right_image,-1,exp2.png,4,exp2.png,exp1.png,1,1,non-reversed,correct,0.8924966282051668,1,valid_win,534.1630067999995,40,,,,,,,,,,,,,,,,sub_080,2022-09-28_11h37.31.345,Reversal,2022.1.1,60.05104338668154,4,
5,exp3.png,exp4.png,,,,,,,,,,,,,,,,,,0,0,0,0,0,5,5,5,,,,,,,,,False,4,65,False,exp3.png,exp4.png,trial_right_image,-1,exp4.png,4,exp3.png,exp4.png,1,3,reversed,incorrect,0.9522471426213197,0,valid_lose,538.6776281000002,40,,,,,,,,,,,,,,,,sub_080,2022-09-28_11h37.31.345,Reversal,2022.1.1,60.05104338668154,4,
6,exp1.png,exp2.png,,,,,,,,,,,,,,,,,,0,0,0,0,0,6,6,6,,,,,,,,,False,5,66,True,exp2.png,exp1.png,trial_right_image,-1,exp1.png,4,exp2.png,exp1.png,0,2,non-reversed,incorrect,0.4289444468189285,0,valid_lose,543.5605228999993,40,,,,,,,,,,,,,,,,sub_080,2022-09-28_11h37.31.345,Reversal,2022.1.1,60.05104338668154,4,
7,exp3.png,exp4.png,,,,,,,,,,,,,,,,,,0,0,0,0,0,7,7,7,,,,,,,,,False,6,67,True,exp4.png,exp3.png,trial_left_image,1,exp4.png,4,exp3.png,exp4.png,1,3,reversed,incorrect,0.7251543405628896,0,valid_lose,548.7602361000008,40,,,,,,,,,,,,,,,,sub_080,2022-09-28_11h37.31.345,Reversal,2022.1.1,60.05104338668154,4,
8,exp1.png,exp2.png,,,,,,,,,,,,,,,,,,0,0,0,0,0,8,8,8,,,,,,,,,False,7,68,False,exp1.png,exp2.png,trial_right_image,-1,exp2.png,4,exp2.png,exp1.png,1,1,non-reversed,correct,0.9933970861698648,1,valid_win,552.8760504999991,41,,,,,,,,,,,,,,,,sub_080,2022-09-28_11h37.31.345,Reversal,2022.1.1,60.05104338668154,4,
9,exp3.png,exp4.png,,,,,,,,,,,,,,,,,,0,0,0,0,0,9,9,9,,,,,,,,,False,8,69,False,exp3.png,exp4.png,trial_right_image,-1,exp4.png,4,exp3.png,exp4.png,1,3,reversed,incorrect,0.3204180942690493,0,valid_lose,557.2917963,41,,,,,,,,,,,,,,,,sub_080,2022-09-28_11h37.31.345,Reversal,2022.1.1,60.05104338668154,4,
10,exp1.png,exp2.png,,,,,,,,,,,,,,,,,,0,0,0,0,0,10,10,10,,,,,,,,,False,9,70,True,exp2.png,exp1.png,trial_left_image,1,exp2.png,4,exp2.png,exp1.png,1,1,non-reversed,correct,0.2617350790578892,1,valid_win,562.5249683999991,42,,,,,,,,,,,,,,,,sub_080,2022-09-28_11h37.31.345,Reversal,2022.1.1,60.05104338668154,4,
11,exp3.png,exp4.png,,,,,,,,,,,,,,,,,,0,0,0,0,0,11,11,11,,,,,,,,,False,10,71,True,exp4.png,exp3.png,trial_left_image,1,exp4.png,4,exp3.png,exp4.png,1,3,reversed,incorrect,0.8352272946676298,0,valid_lose,568.5071972999995,42,,,,,,,,,,,,,,,,sub_080,2022-09-28_11h37.31.345,Reversal,2022.1.1,60.05104338668154,4,
12,exp1.png,exp2.png,,,,,,,,,,,,,,,,,,0,0,0,0,0,12,12,12,,,,,,,,,False,11,72,True,exp2.png,exp1.png,trial_left_image,1,exp2.png,4,exp2.png,exp1.png,1,1,non-reversed,correct,0.9012064719577467,1,valid_win,574.4398877000003,43,,,,,,,,,,,,,,,,sub_080,2022-09-28_11h37.31.345,Reversal,2022.1.1,60.05104338668154,4,
13,exp3.png,exp4.png,,,,,,,,,,,,,,,,,,0,0,0,0,0,13,13,13,,,,,,,,,False,12,73,False,exp3.png,exp4.png,trial_left_image,1,exp3.png,4,exp3.png,exp4.png,0,4,reversed,correct,0.5469885893091575,1,valid_win,583.4049919999998,44,,,,,,,,,,,,,,,,sub_080,2022-09-28_11h37.31.345,Reversal,2022.1.1,60.05104338668154,4,
14,exp1.png,exp2.png,,,,,,,,,,,,,,,,,,0,0,0,0,0,14,14,14,,,,,,,,,False,13,74,True,exp2.png,exp1.png,trial_left_image,1,exp2.png,4,exp2.png,exp1.png,1,1,non-reversed,correct,0.43112425653205755,1,valid_win,589.6208860000006,45,,,,,,,,,,,,,,,,sub_080,2022-09-28_11h37.31.345,Reversal,2022.1.1,60.05104338668154,4,
15,exp3.png,exp4.png,,,,,,,,,,,,,,,,,,0,0,0,0,0,15,15,15,,,,,,,,,False,14,75,False,exp3.png,exp4.png,trial_right_image,-1,exp4.png,4,exp3.png,exp4.png,1,3,reversed,incorrect,0.42000075159655825,0,valid_lose,595.9037872999997,45,,,,,,,,,,,,,,,,sub_080,2022-09-28_11h37.31.345,Reversal,2022.1.1,60.05104338668154,4,
16,exp1.png,exp2.png,,,,,,,,,,,,,,,,,,0,0,0,0,0,16,16,16,,,,,,,,,False,15,76,True,exp2.png,exp1.png,trial_left_image,1,exp2.png,4,exp2.png,exp1.png,1,1,non-reversed,correct,0.7154254311366339,1,valid_win,602.3862494000005,46,,,,,,,,,,,,,,,,sub_080,2022-09-28_11h37.31.345,Reversal,2022.1.1,60.05104338668154,4,
17,exp3.png,exp4.png,,,,,,,,,,,,,,,,,,0,0,0,0,0,17,17,17,,,,,,,,,False,16,77,True,exp4.png,exp3.png,trial_left_image,1,exp4.png,4,exp3.png,exp4.png,1,3,reversed,incorrect,0.6263264628309123,0,valid_lose,609.9349585,46,,,,,,,,,,,,,,,,sub_080,2022-09-28_11h37.31.345,Reversal,2022.1.1,60.05104338668154,4,
18,exp1.png,exp2.png,,,,,,,,,,,,,,,,,,0,0,0,0,0,18,18,18,,,,,,,,,False,17,78,False,exp1.png,exp2.png,trial_right_image,-1,exp2.png,4,exp2.png,exp1.png,1,1,non-reversed,correct,0.26169266169262984,1,valid_win,615.1843327000006,47,,,,,,,,,,,,,,,,sub_080,2022-09-28_11h37.31.345,Reversal,2022.1.1,60.05104338668154,4,
19,exp3.png,exp4.png,,,,,,,,,,,,,,,,,,0,0,0,0,0,19,19,19,,,,,,,,,False,18,79,True,exp4.png,exp3.png,trial_right_image,-1,exp3.png,4,exp3.png,exp4.png,0,4,reversed,correct,0.3696501423187507,1,valid_win,620.8666670000002,48,,,,,,,,,,,,,,,,sub_080,2022-09-28_11h37.31.345,Reversal,2022.1.1,60.05104338668154,4,
20,exp1.png,exp2.png,,,,,,,,,,,,,,,,,,0,0,0,0,0,20,20,20,,,,,,,,,False,19,80,False,exp1.png,exp2.png,trial_right_image,-1,exp2.png,4,exp2.png,exp1.png,1,1,non-reversed,correct,0.5930560701952848,1,valid_win,626.3156944000002,49,,,,,,,,,,,,,,,,sub_080,2022-09-28_11h37.31.345,Reversal,2022.1.1,60.05104338668154,4,
,,,exp1.png,,,,,,,,,,,,,,,,,0,0,0,0,,,,,0,0,0,0,0,0,0,0,,,,,,,,,,,,,,,,,,,,,,3.0,3.0,9.022972599999775,"[(3.0, 9.022972599999775)]",732.9179939000005,None,,,,,,,,,,sub_080,2022-09-28_11h37.31.345,Reversal,2022.1.1,60.05104338668154,4,
,,,exp2.png,,,,,,,,,,,,,,,,,0,0,0,0,,,,,0,0,0,0,0,1,1,1,,,,,,,,,,,,,,,,,,,,,,,100.0,1.899777399999948,"[(100.0, 1.899777399999948)]",744.9727961999997,None,100.0,,,,,,,,,sub_080,2022-09-28_11h37.31.345,Reversal,2022.1.1,60.05104338668154,4,
,,,exp3.png,,,,,,,,,,,,,,,,,0,0,0,0,,,,,0,0,0,0,0,2,2,2,,,,,,,,,,,,,,,,,,,,,,,1.0,2.1187719000008656,"[(1.0, 2.1187719000008656)]",747.9334080000008,None,,1.0,,,,,,,,sub_080,2022-09-28_11h37.31.345,Reversal,2022.1.1,60.05104338668154,4,
,,,exp4.png,,,,,,,,,,,,,,,,,0,0,0,0,,,,,0,0,0,0,0,3,3,3,,,,,,,,,,,,,,,,,,,,,,,100.0,2.411125799999354,"[(100.0, 2.411125799999354)]",751.1419404000007,None,,,100.0,,,,,,,sub_080,2022-09-28_11h37.31.345,Reversal,2022.1.1,60.05104338668154,4,
0,exp1.png,exp2.png,,,,,,,,,,,,,,,,,,1,0,1,0,0,0,0,0,,,,,,,,,True,,,,,,,,,,,,,,,,,,,,,,,,,,,,,,,,,,,,sub_080,2022-09-28_11h37.31.345,Reversal,2022.1.1,60.05104338668154,4,
1,exp3.png,exp4.png,,,,,,,,,,,,,,,,,,1,0,1,0,0,1,1,1,,,,,,,,,False,20,81,True,exp4.png,exp3.png,trial_left_image,1,exp4.png,4,exp3.png,exp4.png,1,3,reversed,incorrect,0.1528786417387259,1,invalid_win,655.6624267999996,50,,,,,,,,,,,,,,,,sub_080,2022-09-28_11h37.31.345,Reversal,2022.1.1,60.05104338668154,4,
2,exp1.png,exp2.png,,,,,,,,,,,,,,,,,,1,0,1,0,0,2,2,2,,,,,,,,,False,21,82,False,exp1.png,exp2.png,trial_right_image,-1,exp2.png,4,exp2.png,exp1.png,1,1,non-reversed,correct,0.6886822518065979,1,valid_win,660.6956601999991,51,,,,,,,,,,,,,,,,sub_080,2022-09-28_11h37.31.345,Reversal,2022.1.1,60.05104338668154,4,
3,exp3.png,exp4.png,,,,,,,,,,,,,,,,,,1,0,1,0,0,3,3,3,,,,,,,,,False,22,83,True,exp4.png,exp3.png,trial_right_image,-1,exp3.png,4,exp3.png,exp4.png,0,4,reversed,correct,0.7463628081006409,1,valid_win,667.0121278999995,52,,,,,,,,,,,,,,,,sub_080,2022-09-28_11h37.31.345,Reversal,2022.1.1,60.05104338668154,4,
4,exp1.png,exp2.png,,,,,,,,,,,,,,,,,,1,0,1,0,0,4,4,4,,,,,,,,,False,23,84,True,exp2.png,exp1.png,trial_left_image,1,exp2.png,4,exp2.png,exp1.png,1,1,non-reversed,correct,0.9569404702579289,1,valid_win,672.4610054999994,53,,,,,,,,,,,,,,,,sub_080,2022-09-28_11h37.31.345,Reversal,2022.1.1,60.05104338668154,4,
5,exp3.png,exp4.png,,,,,,,,,,,,,,,,,,1,0,1,0,0,5,5,5,,,,,,,,,False,24,85,False,exp3.png,exp4.png,trial_right_image,-1,exp4.png,4,exp3.png,exp4.png,1,3,reversed,incorrect,0.438549257119617,0,valid_lose,679.4596476000006,53,,,,,,,,,,,,,,,,sub_080,2022-09-28_11h37.31.345,Reversal,2022.1.1,60.05104338668154,4,
6,exp1.png,exp2.png,,,,,,,,,,,,,,,,,,1,0,1,0,0,6,6,6,,,,,,,,,False,25,86,True,exp2.png,exp1.png,trial_left_image,1,exp2.png,4,exp2.png,exp1.png,1,1,non-reversed,correct,0.9624220439042086,1,valid_win,684.8584867999998,54,,,,,,,,,,,,,,,,sub_080,2022-09-28_11h37.31.345,Reversal,2022.1.1,60.05104338668154,4,
7,exp3.png,exp4.png,,,,,,,,,,,,,,,,,,1,0,1,0,0,7,7,7,,,,,,,,,False,26,87,True,exp4.png,exp3.png,trial_right_image,-1,exp3.png,4,exp3.png,exp4.png,0,4,reversed,correct,0.48208454230113984,1,valid_win,692.0923359000008,55,,,,,,,,,,,,,,,,sub_080,2022-09-28_11h37.31.345,Reversal,2022.1.1,60.05104338668154,4,
8,exp1.png,exp2.png,,,,,,,,,,,,,,,,,,1,0,1,0,0,8,8,8,,,,,,,,,False,27,88,False,exp1.png,exp2.png,trial_right_image,-1,exp2.png,4,exp2.png,exp1.png,1,1,non-reversed,correct,0.49484180378220166,1,valid_win,697.7754597000003,56,,,,,,,,,,,,,,,,sub_080,2022-09-28_11h37.31.345,Reversal,2022.1.1,60.05104338668154,4,
9,exp3.png,exp4.png,,,,,,,,,,,,,,,,,,1,0,1,0,0,9,9,9,,,,,,,,,False,28,89,True,exp4.png,exp3.png,trial_left_image,1,exp4.png,4,exp3.png,exp4.png,1,3,reversed,incorrect,0.872773619710187,0,valid_lose,704.1228202000002,56,,,,,,,,,,,,,,,,sub_080,2022-09-28_11h37.31.345,Reversal,2022.1.1,60.05104338668154,4,
10,exp1.png,exp2.png,,,,,,,,,,,,,,,,,,1,0,1,0,0,10,10,10,,,,,,,,,False,29,90,False,exp1.png,exp2.png,trial_right_image,-1,exp2.png,4,exp2.png,exp1.png,1,1,non-reversed,correct,0.4648433745824684,1,valid_win,709.1891445000001,57,,,,,,,,,,,,,,,,sub_080,2022-09-28_11h37.31.345,Reversal,2022.1.1,60.05104338668154,4,
11,exp3.png,exp4.png,,,,,,,,,,,,,,,,,,1,0,1,0,0,11,11,11,,,,,,,,,False,30,91,True,exp4.png,exp3.png,trial_right_image,-1,exp3.png,4,exp3.png,exp4.png,0,4,reversed,correct,0.4587449757786167,1,valid_win,715.4048014,58,,,,,,,,,,,,,,,,sub_080,2022-09-28_11h37.31.345,Reversal,2022.1.1,60.05104338668154,4,
12,exp1.png,exp2.png,,,,,,,,,,,,,,,,,,1,0,1,0,0,12,12,12,,,,,,,,,False,31,92,False,exp1.png,exp2.png,trial_right_image,-1,exp2.png,4,exp2.png,exp1.png,1,1,non-reversed,correct,0.8908018648109802,1,valid_win,720.9377394000003,59,,,,,,,,,,,,,,,,sub_080,2022-09-28_11h37.31.345,Reversal,2022.1.1,60.05104338668154,4,
13,exp3.png,exp4.png,,,,,,,,,,,,,,,,,,1,0,1,0,0,13,13,13,,,,,,,,,False,32,93,True,exp4.png,exp3.png,trial_left_image,1,exp4.png,4,exp3.png,exp4.png,1,3,reversed,incorrect,0.4071744296752383,0,valid_lose,727.6377635000008,59,,,,,,,,,,,,,,,,sub_080,2022-09-28_11h37.31.345,Reversal,2022.1.1,60.05104338668154,4,
14,exp1.png,exp2.png,,,,,,,,,,,,,,,,,,1,0,1,0,0,14,14,14,,,,,,,,,False,33,94,False,exp1.png,exp2.png,trial_right_image,-1,exp2.png,4,exp2.png,exp1.png,1,1,non-reversed,correct,0.6228919454901731,1,valid_win,732.0207174999996,60,,,,,,,,,,,,,,,,sub_080,2022-09-28_11h37.31.345,Reversal,2022.1.1,60.05104338668154,4,
15,exp3.png,exp4.png,,,,,,,,,,,,,,,,,,1,0,1,0,0,15,15,15,,,,,,,,,False,34,95,True,exp4.png,exp3.png,trial_right_image,-1,exp3.png,4,exp3.png,exp4.png,0,4,reversed,correct,0.14671063932806327,0,invalid_lose,739.2849067000006,60,,,,,,,,,,,,,,,,sub_080,2022-09-28_11h37.31.345,Reversal,2022.1.1,60.05104338668154,4,
16,exp1.png,exp2.png,,,,,,,,,,,,,,,,,,1,0,1,0,0,16,16,16,,,,,,,,,False,35,96,False,exp1.png,exp2.png,trial_right_image,-1,exp2.png,4,exp2.png,exp1.png,1,1,non-reversed,correct,0.7166480524107884,1,valid_win,743.8346158999993,61,,,,,,,,,,,,,,,,sub_080,2022-09-28_11h37.31.345,Reversal,2022.1.1,60.05104338668154,4,
17,exp3.png,exp4.png,,,,,,,,,,,,,,,,,,1,0,1,0,0,17,17,17,,,,,,,,,False,36,97,True,exp4.png,exp3.png,trial_left_image,1,exp4.png,4,exp3.png,exp4.png,1,3,reversed,incorrect,0.192846000507497,1,invalid_win,749.6503420999998,62,,,,,,,,,,,,,,,,sub_080,2022-09-28_11h37.31.345,Reversal,2022.1.1,60.05104338668154,4,
18,exp1.png,exp2.png,,,,,,,,,,,,,,,,,,1,0,1,0,0,18,18,18,,,,,,,,,False,37,98,False,exp1.png,exp2.png,trial_right_image,-1,exp2.png,4,exp2.png,exp1.png,1,1,non-reversed,correct,0.6632856279636269,1,valid_win,754.8175876000005,63,,,,,,,,,,,,,,,,sub_080,2022-09-28_11h37.31.345,Reversal,2022.1.1,60.05104338668154,4,
19,exp3.png,exp4.png,,,,,,,,,,,,,,,,,,1,0,1,0,0,19,19,19,,,,,,,,,False,38,99,False,exp3.png,exp4.png,trial_right_image,-1,exp4.png,4,exp3.png,exp4.png,1,3,reversed,incorrect,0.843081030099339,0,valid_lose,763.5830256999998,63,,,,,,,,,,,,,,,,sub_080,2022-09-28_11h37.31.345,Reversal,2022.1.1,60.05104338668154,4,
20,exp1.png,exp2.png,,,,,,,,,,,,,,,,,,1,0,1,0,0,20,20,20,,,,,,,,,False,39,100,False,exp1.png,exp2.png,trial_right_image,-1,exp2.png,4,exp2.png,exp1.png,1,1,non-reversed,correct,0.3623315853650989,1,valid_win,769.3979682000008,64,,,,,,,,,,,,,,,,sub_080,2022-09-28_11h37.31.345,Reversal,2022.1.1,60.05104338668154,4,
,,,exp1.png,,,,,,,,,,,,,,,,,1,0,1,0,,,,,0,0,0,0,0,0,0,0,,,,,,,,,,,,,,,,,,,,,,1.0,1.0,3.7218640000010055,"[(1.0, 3.7218640000010055)]",875.9971977000005,None,,,,,,,,,,sub_080,2022-09-28_11h37.31.345,Reversal,2022.1.1,60.05104338668154,4,
,,,exp2.png,,,,,,,,,,,,,,,,,1,0,1,0,,,,,0,0,0,0,0,1,1,1,,,,,,,,,,,,,,,,,,,,,,,99.0,1.9089205999989645,"[(99.0, 1.9089205999989645)]",880.9236082000007,None,99.0,,,,,,,,,sub_080,2022-09-28_11h37.31.345,Reversal,2022.1.1,60.05104338668154,4,
,,,exp3.png,,,,,,,,,,,,,,,,,1,0,1,0,,,,,0,0,0,0,0,2,2,2,,,,,,,,,,,,,,,,,,,,,,,3.0,1.9595349999999598,"[(3.0, 1.9595349999999598)]",884.4945769999995,None,,3.0,,,,,,,,sub_080,2022-09-28_11h37.31.345,Reversal,2022.1.1,60.05104338668154,4,
,,,exp4.png,,,,,,,,,,,,,,,,,1,0,1,0,,,,,0,0,0,0,0,3,3,3,,,,,,,,,,,,,,,,,,,,,,,100.0,2.522289599999567,"[(100.0, 2.522289599999567)]",887.7886046000003,None,,,100.0,,,,,,,sub_080,2022-09-28_11h37.31.345,Reversal,2022.1.1,60.05104338668154,4,
0,exp1.png,exp2.png,,,,,,,,,,,,,,,,,,2,0,2,0,0,0,0,0,,,,,,,,,True,,,,,,,,,,,,,,,,,,,,,,,,,,,,,,,,,,,,sub_080,2022-09-28_11h37.31.345,Reversal,2022.1.1,60.05104338668154,4,
1,exp3.png,exp4.png,,,,,,,,,,,,,,,,,,2,0,2,0,0,1,1,1,,,,,,,,,False,40,101,True,exp4.png,exp3.png,trial_left_image,1,exp4.png,4,exp3.png,exp4.png,1,3,reversed,incorrect,0.4276358644407138,0,valid_lose,790.3785349000009,64,,,,,,,,,,,,,,,,sub_080,2022-09-28_11h37.31.345,Reversal,2022.1.1,60.05104338668154,4,
2,exp1.png,exp2.png,,,,,,,,,,,,,,,,,,2,0,2,0,0,2,2,2,,,,,,,,,False,41,102,True,exp2.png,exp1.png,trial_left_image,1,exp2.png,4,exp2.png,exp1.png,1,1,non-reversed,correct,0.8526083697627138,1,valid_win,795.5278474999996,65,,,,,,,,,,,,,,,,sub_080,2022-09-28_11h37.31.345,Reversal,2022.1.1,60.05104338668154,4,
3,exp3.png,exp4.png,,,,,,,,,,,,,,,,,,2,0,2,0,0,3,3,3,,,,,,,,,False,42,103,True,exp4.png,exp3.png,trial_left_image,1,exp4.png,4,exp3.png,exp4.png,1,3,reversed,incorrect,0.708429657767046,0,valid_lose,801.2268287999996,65,,,,,,,,,,,,,,,,sub_080,2022-09-28_11h37.31.345,Reversal,2022.1.1,60.05104338668154,4,
4,exp1.png,exp2.png,,,,,,,,,,,,,,,,,,2,0,2,0,0,4,4,4,,,,,,,,,False,43,104,True,exp2.png,exp1.png,trial_left_image,1,exp2.png,4,exp2.png,exp1.png,1,1,non-reversed,correct,0.8544588011252544,1,valid_win,806.3099930999997,66,,,,,,,,,,,,,,,,sub_080,2022-09-28_11h37.31.345,Reversal,2022.1.1,60.05104338668154,4,
5,exp3.png,exp4.png,,,,,,,,,,,,,,,,,,2,0,2,0,0,5,5,5,,,,,,,,,False,44,105,False,exp3.png,exp4.png,trial_right_image,-1,exp4.png,4,exp3.png,exp4.png,1,3,reversed,incorrect,0.7718302748164122,0,valid_lose,811.4938089000007,66,,,,,,,,,,,,,,,,sub_080,2022-09-28_11h37.31.345,Reversal,2022.1.1,60.05104338668154,4,
6,exp1.png,exp2.png,,,,,,,,,,,,,,,,,,2,0,2,0,0,6,6,6,,,,,,,,,False,45,106,True,exp2.png,exp1.png,trial_left_image,1,exp2.png,4,exp2.png,exp1.png,1,1,non-reversed,correct,0.9927455364267639,1,valid_win,816.5581177000004,67,,,,,,,,,,,,,,,,sub_080,2022-09-28_11h37.31.345,Reversal,2022.1.1,60.05104338668154,4,
7,exp3.png,exp4.png,,,,,,,,,,,,,,,,,,2,0,2,0,0,7,7,7,,,,,,,,,False,46,107,False,exp3.png,exp4.png,trial_left_image,1,exp3.png,4,exp3.png,exp4.png,0,4,reversed,correct,0.026369815074833602,0,invalid_lose,821.7908910000006,67,,,,,,,,,,,,,,,,sub_080,2022-09-28_11h37.31.345,Reversal,2022.1.1,60.05104338668154,4,
8,exp1.png,exp2.png,,,,,,,,,,,,,,,,,,2,0,2,0,0,8,8,8,,,,,,,,,False,47,108,False,exp1.png,exp2.png,trial_right_image,-1,exp2.png,4,exp2.png,exp1.png,1,1,non-reversed,correct,0.8279403134902895,1,valid_win,826.4411920999992,68,,,,,,,,,,,,,,,,sub_080,2022-09-28_11h37.31.345,Reversal,2022.1.1,60.05104338668154,4,
9,exp3.png,exp4.png,,,,,,,,,,,,,,,,,,2,0,2,0,0,9,9,9,,,,,,,,,False,48,109,True,exp4.png,exp3.png,trial_left_image,1,exp4.png,4,exp3.png,exp4.png,1,3,reversed,incorrect,0.4048300480853111,0,valid_lose,833.2730217999997,68,,,,,,,,,,,,,,,,sub_080,2022-09-28_11h37.31.345,Reversal,2022.1.1,60.05104338668154,4,
10,exp1.png,exp2.png,,,,,,,,,,,,,,,,,,2,0,2,0,0,10,10,10,,,,,,,,,False,49,110,True,exp2.png,exp1.png,trial_left_image,1,exp2.png,4,exp2.png,exp1.png,1,1,non-reversed,correct,0.9783930990618719,1,valid_win,837.9721542999996,69,,,,,,,,,,,,,,,,sub_080,2022-09-28_11h37.31.345,Reversal,2022.1.1,60.05104338668154,4,
11,exp3.png,exp4.png,,,,,,,,,,,,,,,,,,2,0,2,0,0,11,11,11,,,,,,,,,False,50,111,False,exp3.png,exp4.png,trial_left_image,1,exp3.png,4,exp3.png,exp4.png,0,4,reversed,correct,0.5729740024211082,1,valid_win,842.6549636,70,,,,,,,,,,,,,,,,sub_080,2022-09-28_11h37.31.345,Reversal,2022.1.1,60.05104338668154,4,
12,exp1.png,exp2.png,,,,,,,,,,,,,,,,,,2,0,2,0,0,12,12,12,,,,,,,,,False,51,112,False,exp1.png,exp2.png,trial_right_image,-1,exp2.png,4,exp2.png,exp1.png,1,1,non-reversed,correct,0.7472175719077101,1,valid_win,848.0377876000002,71,,,,,,,,,,,,,,,,sub_080,2022-09-28_11h37.31.345,Reversal,2022.1.1,60.05104338668154,4,
13,exp3.png,exp4.png,,,,,,,,,,,,,,,,,,2,0,2,0,0,13,13,13,,,,,,,,,False,52,113,False,exp3.png,exp4.png,trial_left_image,1,exp3.png,4,exp3.png,exp4.png,0,4,reversed,correct,0.8759585840436066,1,valid_win,852.9372622999999,72,,,,,,,,,,,,,,,,sub_080,2022-09-28_11h37.31.345,Reversal,2022.1.1,60.05104338668154,4,
14,exp1.png,exp2.png,,,,,,,,,,,,,,,,,,2,0,2,0,0,14,14,14,,,,,,,,,False,53,114,False,exp1.png,exp2.png,trial_right_image,-1,exp2.png,4,exp2.png,exp1.png,1,1,non-reversed,correct,0.9277537403485444,1,valid_win,857.7863288000008,73,,,,,,,,,,,,,,,,sub_080,2022-09-28_11h37.31.345,Reversal,2022.1.1,60.05104338668154,4,
15,exp3.png,exp4.png,,,,,,,,,,,,,,,,,,2,0,2,0,0,15,15,15,,,,,,,,,False,54,115,True,exp4.png,exp3.png,trial_right_image,-1,exp3.png,4,exp3.png,exp4.png,0,4,reversed,correct,0.07518558587073343,0,invalid_lose,862.6856666999993,73,,,,,,,,,,,,,,,,sub_080,2022-09-28_11h37.31.345,Reversal,2022.1.1,60.05104338668154,4,
16,exp1.png,exp2.png,,,,,,,,,,,,,,,,,,2,0,2,0,0,16,16,16,,,,,,,,,False,55,116,False,exp1.png,exp2.png,trial_right_image,-1,exp2.png,4,exp2.png,exp1.png,1,1,non-reversed,correct,0.6281105174439099,1,valid_win,867.3683182999994,74,,,,,,,,,,,,,,,,sub_080,2022-09-28_11h37.31.345,Reversal,2022.1.1,60.05104338668154,4,
17,exp3.png,exp4.png,,,,,,,,,,,,,,,,,,2,0,2,0,0,17,17,17,,,,,,,,,False,56,117,False,exp3.png,exp4.png,trial_right_image,-1,exp4.png,4,exp3.png,exp4.png,1,3,reversed,incorrect,0.7810163413758525,0,valid_lose,872.5182798999995,74,,,,,,,,,,,,,,,,sub_080,2022-09-28_11h37.31.345,Reversal,2022.1.1,60.05104338668154,4,
18,exp1.png,exp2.png,,,,,,,,,,,,,,,,,,2,0,2,0,0,18,18,18,,,,,,,,,False,57,118,False,exp1.png,exp2.png,trial_right_image,-1,exp2.png,4,exp2.png,exp1.png,1,1,non-reversed,correct,0.04790642943614598,0,invalid_lose,878.5339688000004,74,,,,,,,,,,,,,,,,sub_080,2022-09-28_11h37.31.345,Reversal,2022.1.1,60.05104338668154,4,
19,exp3.png,exp4.png,,,,,,,,,,,,,,,,,,2,0,2,0,0,19,19,19,,,,,,,,,False,58,119,True,exp4.png,exp3.png,trial_left_image,1,exp4.png,4,exp3.png,exp4.png,1,3,reversed,incorrect,0.9818564440563691,0,valid_lose,885.1491294000007,74,,,,,,,,,,,,,,,,sub_080,2022-09-28_11h37.31.345,Reversal,2022.1.1,60.05104338668154,4,
20,exp1.png,exp2.png,,,,,,,,,,,,,,,,,,2,0,2,0,0,20,20,20,,,,,,,,,False,59,120,True,exp2.png,exp1.png,trial_left_image,1,exp2.png,4,exp2.png,exp1.png,1,1,non-reversed,correct,0.6756296300423262,1,valid_win,890.3324453999994,75,,,,,,,,,,,,,,,,sub_080,2022-09-28_11h37.31.345,Reversal,2022.1.1,60.05104338668154,4,
,,,exp1.png,,,,,,,,,,,,,,,,,2,0,2,0,,,,,0,0,0,0,0,0,0,0,,,,,,,,,,,,,,,,,,,,,,21.0,21.0,10.4367555000008,"[(21.0, 10.4367555000008)]",996.9313058999996,None,,,,,,,,,,sub_080,2022-09-28_11h37.31.345,Reversal,2022.1.1,60.05104338668154,4,
,,,exp2.png,,,,,,,,,,,,,,,,,2,0,2,0,,,,,0,0,0,0,0,1,1,1,,,,,,,,,,,,,,,,,,,,,,,100.0,5.755286499999784,"[(100.0, 5.755286499999784)]",1008.6005218000009,None,100.0,,,,,,,,,sub_080,2022-09-28_11h37.31.345,Reversal,2022.1.1,60.05104338668154,4,
,,,exp3.png,,,,,,,,,,,,,,,,,2,0,2,0,,,,,0,0,0,0,0,2,2,2,,,,,,,,,,,,,,,,,,,,,,,18.0,3.9561670000002778,"[(18.0, 3.9561670000002778)]",1015.6243940999993,None,,18.0,,,,,,,,sub_080,2022-09-28_11h37.31.345,Reversal,2022.1.1,60.05104338668154,4,
,,,exp4.png,,,,,,,,,,,,,,,,,2,0,2,0,,,,,0,0,0,0,0,3,3,3,,,,,,,,,,,,,,,,,,,,,,,100.0,2.5225083000004815,"[(100.0, 2.5225083000004815)]",1020.8248598999999,None,,,100.0,,,,,,,sub_080,2022-09-28_11h37.31.345,Reversal,2022.1.1,60.05104338668154,4,
,,,,,,,,,,,,,,,,,,,,,,,,,,,,,,,,,,,,,,,,,,,,,,,,,,,,,,,,75,,,,,,,,,,,91,51,40,407.24278910000066,0,,,,,,,
