trial_index,trial_image1_file,trial_image2_file,image_file,learning_outer_loop.thisRepN,learning_outer_loop.thisTrialN,learning_outer_loop.thisN,learning_outer_loop.thisIndex,learning_inner_loop.thisRepN,learning_inner_loop.thisTrialN,learning_inner_loop.thisN,learning_inner_loop.thisIndex,learning_estimation_outer_loop.thisRepN,learning_estimation_outer_loop.thisTrialN,learning_estimation_outer_loop.thisN,learning_estimation_outer_loop.thisIndex,learning_estimation_inner_loop.thisRepN,learning_estimation_inner_loop.thisTrialN,learning_estimation_inner_loop.thisN,learning_estimation_inner_loop.thisIndex,reversal_outer_loop.thisRepN,reversal_outer_loop.thisTrialN,reversal_outer_loop.thisN,reversal_outer_loop.thisIndex,reversal_inner_loop.thisRepN,reversal_inner_loop.thisTrialN,reversal_inner_loop.thisN,reversal_inner_loop.thisIndex,reversal_estimation_outer_loop.thisRepN,reversal_estimation_outer_loop.thisTrialN,reversal_estimation_outer_loop.thisN,reversal_estimation_outer_loop.thisIndex,reversal_estimation_inner_loop.thisRepN,reversal_estimation_inner_loop.thisTrialN,reversal_estimation_inner_loop.thisN,reversal_estimation_inner_loop.thisIndex,skipped,total_trial_counter,trial_num,left_right_flip,left_image_file,right_image_file,clicked_stimulus_side,side,clicked_stimulus,version,high_prob_image_file,low_prob_image_file,choice_a,choice_b,pair_type,correct,trial_feedback_random,reward,trial_type,overall_time_after_trial,score,estimation_rating.started,estimation_exp1.png,estimation_rating.response,estimation_rating.rt,estimation_rating.history,estimation_exp2.png,estimation_exp3.png,estimation_exp4.png,total_learning_time,total_correct,learning_correct,reversal_correct,total_reversal_time,extra_block,participant,date,expName,psychopyVersion,frameRate,ver,
0,exp1.png,exp2.png,,0,0,0,0,0,0,0,0,,,,,,,,,,,,,,,,,,,,,,,,,True,,,,,,,,,,,,,,,,,,,,,,,,,,,,,,,,,,,sub_457,2025-02-16_10h36.46.728,Reversal,2023.1.3,60.10446155434135,1,
1,exp3.png,exp4.png,,0,0,0,0,0,1,1,1,,,,,,,,,,,,,,,,,,,,,,,,,False,0,1,False,exp3.png,exp4.png,trial_left_image,1,exp3.png,1,exp3.png,exp4.png,1,1,non-reversed,correct,0.4850828201249293,1,valid_win,2.3961223999995127,1,,,,,,,,,,,,,,,sub_457,2025-02-16_10h36.46.728,Reversal,2023.1.3,60.10446155434135,1,
2,exp1.png,exp2.png,,0,0,0,0,0,2,2,2,,,,,,,,,,,,,,,,,,,,,,,,,False,1,2,False,exp1.png,exp2.png,trial_left_image,1,exp1.png,1,exp1.png,exp2.png,1,3,reversed,correct,0.8005282437447585,1,valid_win,8.19392979999975,2,,,,,,,,,,,,,,,sub_457,2025-02-16_10h36.46.728,Reversal,2023.1.3,60.10446155434135,1,
3,exp3.png,exp4.png,,0,0,0,0,0,3,3,3,,,,,,,,,,,,,,,,,,,,,,,,,False,2,3,True,exp4.png,exp3.png,trial_right_image,-1,exp3.png,1,exp3.png,exp4.png,1,1,non-reversed,correct,0.8686643063790391,1,valid_win,13.95841240000027,3,,,,,,,,,,,,,,,sub_457,2025-02-16_10h36.46.728,Reversal,2023.1.3,60.10446155434135,1,
4,exp1.png,exp2.png,,0,0,0,0,0,4,4,4,,,,,,,,,,,,,,,,,,,,,,,,,False,3,4,True,exp2.png,exp1.png,trial_left_image,1,exp2.png,1,exp1.png,exp2.png,0,4,reversed,incorrect,0.08452051290688078,1,invalid_win,20.08977009999944,4,,,,,,,,,,,,,,,sub_457,2025-02-16_10h36.46.728,Reversal,2023.1.3,60.10446155434135,1,
5,exp3.png,exp4.png,,0,0,0,0,0,5,5,5,,,,,,,,,,,,,,,,,,,,,,,,,False,4,5,True,exp4.png,exp3.png,trial_left_image,1,exp4.png,1,exp3.png,exp4.png,0,2,non-reversed,incorrect,0.06801699259676841,1,invalid_win,25.538161100000252,5,,,,,,,,,,,,,,,sub_457,2025-02-16_10h36.46.728,Reversal,2023.1.3,60.10446155434135,1,
6,exp1.png,exp2.png,,0,0,0,0,0,6,6,6,,,,,,,,,,,,,,,,,,,,,,,,,False,5,6,False,exp1.png,exp2.png,trial_right_image,-1,exp2.png,1,exp1.png,exp2.png,0,4,reversed,incorrect,0.16838858298734694,1,invalid_win,32.90231820000008,6,,,,,,,,,,,,,,,sub_457,2025-02-16_10h36.46.728,Reversal,2023.1.3,60.10446155434135,1,
7,exp3.png,exp4.png,,0,0,0,0,0,7,7,7,,,,,,,,,,,,,,,,,,,,,,,,,False,6,7,False,exp3.png,exp4.png,trial_left_image,1,exp3.png,1,exp3.png,exp4.png,1,1,non-reversed,correct,0.15428354821034684,0,invalid_lose,37.634060899999895,6,,,,,,,,,,,,,,,sub_457,2025-02-16_10h36.46.728,Reversal,2023.1.3,60.10446155434135,1,
8,exp1.png,exp2.png,,0,0,0,0,0,8,8,8,,,,,,,,,,,,,,,,,,,,,,,,,False,7,8,False,exp1.png,exp2.png,trial_left_image,1,exp1.png,1,exp1.png,exp2.png,1,3,reversed,correct,0.6659875201401383,1,valid_win,43.531812100000025,7,,,,,,,,,,,,,,,sub_457,2025-02-16_10h36.46.728,Reversal,2023.1.3,60.10446155434135,1,
9,exp3.png,exp4.png,,0,0,0,0,0,9,9,9,,,,,,,,,,,,,,,,,,,,,,,,,False,8,9,False,exp3.png,exp4.png,trial_left_image,1,exp3.png,1,exp3.png,exp4.png,1,1,non-reversed,correct,0.8166943546200098,1,valid_win,50.28019719999975,8,,,,,,,,,,,,,,,sub_457,2025-02-16_10h36.46.728,Reversal,2023.1.3,60.10446155434135,1,
10,exp1.png,exp2.png,,0,0,0,0,0,10,10,10,,,,,,,,,,,,,,,,,,,,,,,,,False,9,10,True,exp2.png,exp1.png,trial_right_image,-1,exp1.png,1,exp1.png,exp2.png,1,3,reversed,correct,0.9691051900881654,1,valid_win,56.361071499999525,9,,,,,,,,,,,,,,,sub_457,2025-02-16_10h36.46.728,Reversal,2023.1.3,60.10446155434135,1,
11,exp3.png,exp4.png,,0,0,0,0,0,11,11,11,,,,,,,,,,,,,,,,,,,,,,,,,False,10,11,True,exp4.png,exp3.png,trial_right_image,-1,exp3.png,1,exp3.png,exp4.png,1,1,non-reversed,correct,0.5918726258734793,1,valid_win,61.30954389999988,10,,,,,,,,,,,,,,,sub_457,2025-02-16_10h36.46.728,Reversal,2023.1.3,60.10446155434135,1,
12,exp1.png,exp2.png,,0,0,0,0,0,12,12,12,,,,,,,,,,,,,,,,,,,,,,,,,False,11,12,True,exp2.png,exp1.png,trial_right_image,-1,exp1.png,1,exp1.png,exp2.png,1,3,reversed,correct,0.2019208267103365,0,invalid_lose,66.4079800999998,10,,,,,,,,,,,,,,,sub_457,2025-02-16_10h36.46.728,Reversal,2023.1.3,60.10446155434135,1,
13,exp3.png,exp4.png,,0,0,0,0,0,13,13,13,,,,,,,,,,,,,,,,,,,,,,,,,False,12,13,True,exp4.png,exp3.png,trial_left_image,1,exp4.png,1,exp3.png,exp4.png,0,2,non-reversed,incorrect,0.9034737291922157,0,valid_lose,72.07261709999966,10,,,,,,,,,,,,,,,sub_457,2025-02-16_10h36.46.728,Reversal,2023.1.3,60.10446155434135,1,
14,exp1.png,exp2.png,,0,0,0,0,0,14,14,14,,,,,,,,,,,,,,,,,,,,,,,,,False,13,14,False,exp1.png,exp2.png,trial_right_image,-1,exp2.png,1,exp1.png,exp2.png,0,4,reversed,incorrect,0.19049148978486974,1,invalid_win,77.4539251999995,11,,,,,,,,,,,,,,,sub_457,2025-02-16_10h36.46.728,Reversal,2023.1.3,60.10446155434135,1,
15,exp3.png,exp4.png,,0,0,0,0,0,15,15,15,,,,,,,,,,,,,,,,,,,,,,,,,False,14,15,False,exp3.png,exp4.png,trial_right_image,-1,exp4.png,1,exp3.png,exp4.png,0,2,non-reversed,incorrect,0.36731362973237247,0,valid_lose,82.66869510000015,11,,,,,,,,,,,,,,,sub_457,2025-02-16_10h36.46.728,Reversal,2023.1.3,60.10446155434135,1,
16,exp1.png,exp2.png,,0,0,0,0,0,16,16,16,,,,,,,,,,,,,,,,,,,,,,,,,False,15,16,False,exp1.png,exp2.png,trial_left_image,1,exp1.png,1,exp1.png,exp2.png,1,3,reversed,correct,0.18988266028262735,0,invalid_lose,87.13432000000012,11,,,,,,,,,,,,,,,sub_457,2025-02-16_10h36.46.728,Reversal,2023.1.3,60.10446155434135,1,
17,exp3.png,exp4.png,,0,0,0,0,0,17,17,17,,,,,,,,,,,,,,,,,,,,,,,,,False,16,17,True,exp4.png,exp3.png,trial_right_image,-1,exp3.png,1,exp3.png,exp4.png,1,1,non-reversed,correct,0.16807404061869846,0,invalid_lose,92.76525059999949,11,,,,,,,,,,,,,,,sub_457,2025-02-16_10h36.46.728,Reversal,2023.1.3,60.10446155434135,1,
18,exp1.png,exp2.png,,0,0,0,0,0,18,18,18,,,,,,,,,,,,,,,,,,,,,,,,,False,17,18,True,exp2.png,exp1.png,trial_left_image,1,exp2.png,1,exp1.png,exp2.png,0,4,reversed,incorrect,0.4463876160804997,0,valid_lose,97.58034159999988,11,,,,,,,,,,,,,,,sub_457,2025-02-16_10h36.46.728,Reversal,2023.1.3,60.10446155434135,1,
19,exp3.png,exp4.png,,0,0,0,0,0,19,19,19,,,,,,,,,,,,,,,,,,,,,,,,,False,18,19,True,exp4.png,exp3.png,trial_right_image,-1,exp3.png,1,exp3.png,exp4.png,1,1,non-reversed,correct,0.44401053608475305,1,valid_win,103.37866649999978,12,,,,,,,,,,,,,,,sub_457,2025-02-16_10h36.46.728,Reversal,2023.1.3,60.10446155434135,1,
20,exp1.png,exp2.png,,0,0,0,0,0,20,20,20,,,,,,,,,,,,,,,,,,,,,,,,,False,19,20,False,exp1.png,exp2.png,trial_right_image,-1,exp2.png,1,exp1.png,exp2.png,0,4,reversed,incorrect,0.4519961056338292,0,valid_lose,108.74327840000024,12,,,,,,,,,,,,,,,sub_457,2025-02-16_10h36.46.728,Reversal,2023.1.3,60.10446155434135,1,
,,,exp1.png,0,0,0,0,,,,,0,0,0,0,0,0,0,0,,,,,,,,,,,,,,,,,,,,,,,,,,,,,,,,,,,,,,181.65677379999943,100.0,100.0,7.749457700000676,"[(100.0, 7.749457700000676)]",,,,,,,,,,sub_457,2025-02-16_10h36.46.728,Reversal,2023.1.3,60.10446155434135,1,
,,,exp2.png,0,0,0,0,,,,,0,0,0,0,0,1,1,1,,,,,,,,,,,,,,,,,,,,,,,,,,,,,,,,,,,,,,190.2907495999998,,65.0,6.606683599999997,"[(65.0, 6.606683599999997)]",65.0,,,,,,,,,sub_457,2025-02-16_10h36.46.728,Reversal,2023.1.3,60.10446155434135,1,
,,,exp3.png,0,0,0,0,,,,,0,0,0,0,0,2,2,2,,,,,,,,,,,,,,,,,,,,,,,,,,,,,,,,,,,,,,197.99893229999998,,37.0,3.581466300000102,"[(37.0, 3.581466300000102)]",,37.0,,,,,,,,sub_457,2025-02-16_10h36.46.728,Reversal,2023.1.3,60.10446155434135,1,
,,,exp4.png,0,0,0,0,,,,,0,0,0,0,0,3,3,3,,,,,,,,,,,,,,,,,,,,,,,,,,,,,,,,,,,,,,202.30119659999946,,43.0,6.7412820999998075,"[(23.0, 2.4255230999997366), (36.0, 5.409425999999257), (43.0, 6.7412820999998075)]",,,43.0,,,,,,,sub_457,2025-02-16_10h36.46.728,Reversal,2023.1.3,60.10446155434135,1,
0,exp1.png,exp2.png,,1,0,1,0,0,0,0,0,,,,,,,,,,,,,,,,,,,,,,,,,True,,,,,,,,,,,,,,,,,,,,,,,,,,,,,,,,,,,sub_457,2025-02-16_10h36.46.728,Reversal,2023.1.3,60.10446155434135,1,
1,exp3.png,exp4.png,,1,0,1,0,0,1,1,1,,,,,,,,,,,,,,,,,,,,,,,,,False,20,21,False,exp3.png,exp4.png,trial_left_image,1,exp3.png,1,exp3.png,exp4.png,1,1,non-reversed,correct,0.26940362374442706,1,valid_win,143.13272020000022,13,,,,,,,,,,,,,,,sub_457,2025-02-16_10h36.46.728,Reversal,2023.1.3,60.10446155434135,1,
2,exp1.png,exp2.png,,1,0,1,0,0,2,2,2,,,,,,,,,,,,,,,,,,,,,,,,,False,21,22,True,exp2.png,exp1.png,trial_left_image,1,exp2.png,1,exp1.png,exp2.png,0,4,reversed,incorrect,0.19942006227869424,1,invalid_win,147.63098590000027,14,,,,,,,,,,,,,,,sub_457,2025-02-16_10h36.46.728,Reversal,2023.1.3,60.10446155434135,1,
3,exp3.png,exp4.png,,1,0,1,0,0,3,3,3,,,,,,,,,,,,,,,,,,,,,,,,,False,22,23,False,exp3.png,exp4.png,trial_left_image,1,exp3.png,1,exp3.png,exp4.png,1,1,non-reversed,correct,0.34432571573124415,1,valid_win,152.41239959999984,15,,,,,,,,,,,,,,,sub_457,2025-02-16_10h36.46.728,Reversal,2023.1.3,60.10446155434135,1,
4,exp1.png,exp2.png,,1,0,1,0,0,4,4,4,,,,,,,,,,,,,,,,,,,,,,,,,False,23,24,True,exp2.png,exp1.png,trial_right_image,-1,exp1.png,1,exp1.png,exp2.png,1,3,reversed,correct,0.004546774981596724,0,invalid_lose,158.41089490000013,15,,,,,,,,,,,,,,,sub_457,2025-02-16_10h36.46.728,Reversal,2023.1.3,60.10446155434135,1,
5,exp3.png,exp4.png,,1,0,1,0,0,5,5,5,,,,,,,,,,,,,,,,,,,,,,,,,False,24,25,True,exp4.png,exp3.png,trial_right_image,-1,exp3.png,1,exp3.png,exp4.png,1,1,non-reversed,correct,0.07166348467313133,0,invalid_lose,163.5417950000001,15,,,,,,,,,,,,,,,sub_457,2025-02-16_10h36.46.728,Reversal,2023.1.3,60.10446155434135,1,
6,exp1.png,exp2.png,,1,0,1,0,0,6,6,6,,,,,,,,,,,,,,,,,,,,,,,,,False,25,26,True,exp2.png,exp1.png,trial_left_image,1,exp2.png,1,exp1.png,exp2.png,0,4,reversed,incorrect,0.27788336188076757,0,valid_lose,167.9236804000002,15,,,,,,,,,,,,,,,sub_457,2025-02-16_10h36.46.728,Reversal,2023.1.3,60.10446155434135,1,
7,exp3.png,exp4.png,,1,0,1,0,0,7,7,7,,,,,,,,,,,,,,,,,,,,,,,,,False,26,27,False,exp3.png,exp4.png,trial_left_image,1,exp3.png,1,exp3.png,exp4.png,1,1,non-reversed,correct,0.05960724108877424,0,invalid_lose,172.3384076000002,15,,,,,,,,,,,,,,,sub_457,2025-02-16_10h36.46.728,Reversal,2023.1.3,60.10446155434135,1,
8,exp1.png,exp2.png,,1,0,1,0,0,8,8,8,,,,,,,,,,,,,,,,,,,,,,,,,False,27,28,True,exp2.png,exp1.png,trial_left_image,1,exp2.png,1,exp1.png,exp2.png,0,4,reversed,incorrect,0.8669732681906883,0,valid_lose,177.35383000000002,15,,,,,,,,,,,,,,,sub_457,2025-02-16_10h36.46.728,Reversal,2023.1.3,60.10446155434135,1,
9,exp3.png,exp4.png,,1,0,1,0,0,9,9,9,,,,,,,,,,,,,,,,,,,,,,,,,False,28,29,False,exp3.png,exp4.png,trial_left_image,1,exp3.png,1,exp3.png,exp4.png,1,1,non-reversed,correct,0.07604814996275444,0,invalid_lose,181.78523779999978,15,,,,,,,,,,,,,,,sub_457,2025-02-16_10h36.46.728,Reversal,2023.1.3,60.10446155434135,1,
10,exp1.png,exp2.png,,1,0,1,0,0,10,10,10,,,,,,,,,,,,,,,,,,,,,,,,,False,29,30,False,exp1.png,exp2.png,trial_right_image,-1,exp2.png,1,exp1.png,exp2.png,0,4,reversed,incorrect,0.10319999808637603,1,invalid_win,186.25025499999992,16,,,,,,,,,,,,,,,sub_457,2025-02-16_10h36.46.728,Reversal,2023.1.3,60.10446155434135,1,
11,exp3.png,exp4.png,,1,0,1,0,0,11,11,11,,,,,,,,,,,,,,,,,,,,,,,,,False,30,31,True,exp4.png,exp3.png,trial_right_image,-1,exp3.png,1,exp3.png,exp4.png,1,1,non-reversed,correct,0.31977897711998815,1,valid_win,191.5157196,17,,,,,,,,,,,,,,,sub_457,2025-02-16_10h36.46.728,Reversal,2023.1.3,60.10446155434135,1,
12,exp1.png,exp2.png,,1,0,1,0,0,12,12,12,,,,,,,,,,,,,,,,,,,,,,,,,False,31,32,False,exp1.png,exp2.png,trial_right_image,-1,exp2.png,1,exp1.png,exp2.png,0,4,reversed,incorrect,0.820241114792239,0,valid_lose,197.56314980000025,17,,,,,,,,,,,,,,,sub_457,2025-02-16_10h36.46.728,Reversal,2023.1.3,60.10446155434135,1,
13,exp3.png,exp4.png,,1,0,1,0,0,13,13,13,,,,,,,,,,,,,,,,,,,,,,,,,False,32,33,True,exp4.png,exp3.png,trial_right_image,-1,exp3.png,1,exp3.png,exp4.png,1,1,non-reversed,correct,0.11565013262638513,0,invalid_lose,201.91171779999968,17,,,,,,,,,,,,,,,sub_457,2025-02-16_10h36.46.728,Reversal,2023.1.3,60.10446155434135,1,
14,exp1.png,exp2.png,,1,0,1,0,0,14,14,14,,,,,,,,,,,,,,,,,,,,,,,,,False,33,34,False,exp1.png,exp2.png,trial_left_image,1,exp1.png,1,exp1.png,exp2.png,1,3,reversed,correct,0.8888572143225926,1,valid_win,205.49413559999994,18,,,,,,,,,,,,,,,sub_457,2025-02-16_10h36.46.728,Reversal,2023.1.3,60.10446155434135,1,
15,exp3.png,exp4.png,,1,0,1,0,0,15,15,15,,,,,,,,,,,,,,,,,,,,,,,,,False,34,35,False,exp3.png,exp4.png,trial_right_image,-1,exp4.png,1,exp3.png,exp4.png,0,2,non-reversed,incorrect,0.688540029615642,0,valid_lose,210.62545839999984,18,,,,,,,,,,,,,,,sub_457,2025-02-16_10h36.46.728,Reversal,2023.1.3,60.10446155434135,1,
16,exp1.png,exp2.png,,1,0,1,0,0,16,16,16,,,,,,,,,,,,,,,,,,,,,,,,,False,35,36,False,exp1.png,exp2.png,trial_right_image,-1,exp2.png,1,exp1.png,exp2.png,0,4,reversed,incorrect,0.773444217326477,0,valid_lose,216.25735129999975,18,,,,,,,,,,,,,,,sub_457,2025-02-16_10h36.46.728,Reversal,2023.1.3,60.10446155434135,1,
17,exp3.png,exp4.png,,1,0,1,0,0,17,17,17,,,,,,,,,,,,,,,,,,,,,,,,,False,36,37,True,exp4.png,exp3.png,trial_right_image,-1,exp3.png,1,exp3.png,exp4.png,1,1,non-reversed,correct,0.58938798070722,1,valid_win,220.60587119999946,19,,,,,,,,,,,,,,,sub_457,2025-02-16_10h36.46.728,Reversal,2023.1.3,60.10446155434135,1,
18,exp1.png,exp2.png,,1,0,1,0,0,18,18,18,,,,,,,,,,,,,,,,,,,,,,,,,False,37,38,False,exp1.png,exp2.png,trial_left_image,1,exp1.png,1,exp1.png,exp2.png,1,3,reversed,correct,0.7211041780855785,1,valid_win,225.03751099999954,20,,,,,,,,,,,,,,,sub_457,2025-02-16_10h36.46.728,Reversal,2023.1.3,60.10446155434135,1,
19,exp3.png,exp4.png,,1,0,1,0,0,19,19,19,,,,,,,,,,,,,,,,,,,,,,,,,False,38,39,True,exp4.png,exp3.png,trial_left_image,1,exp4.png,1,exp3.png,exp4.png,0,2,non-reversed,incorrect,0.1851279823812244,1,invalid_win,231.3016695999995,21,,,,,,,,,,,,,,,sub_457,2025-02-16_10h36.46.728,Reversal,2023.1.3,60.10446155434135,1,
20,exp1.png,exp2.png,,1,0,1,0,0,20,20,20,,,,,,,,,,,,,,,,,,,,,,,,,False,39,40,True,exp2.png,exp1.png,trial_right_image,-1,exp1.png,1,exp1.png,exp2.png,1,3,reversed,correct,0.2642232025333636,1,valid_win,235.9337104999995,22,,,,,,,,,,,,,,,sub_457,2025-02-16_10h36.46.728,Reversal,2023.1.3,60.10446155434135,1,
,,,exp1.png,1,0,1,0,,,,,0,0,0,0,0,0,0,0,,,,,,,,,,,,,,,,,,,,,,,,,,,,,,,,,,,,,,308.86250969999946,88.0,88.0,4.364636799999971,"[(97.0, 2.5985968000004505), (88.0, 4.364636799999971)]",,,,,,,,,,sub_457,2025-02-16_10h36.46.728,Reversal,2023.1.3,60.10446155434135,1,
,,,exp2.png,1,0,1,0,,,,,0,0,0,0,0,1,1,1,,,,,,,,,,,,,,,,,,,,,,,,,,,,,,,,,,,,,,314.2993764999992,,70.0,3.6084342000003744,"[(70.0, 3.6084342000003744)]",70.0,,,,,,,,,sub_457,2025-02-16_10h36.46.728,Reversal,2023.1.3,60.10446155434135,1,
,,,exp3.png,1,0,1,0,,,,,0,0,0,0,0,2,2,2,,,,,,,,,,,,,,,,,,,,,,,,,,,,,,,,,,,,,,318.57716059999984,,70.0,3.910427499999969,"[(60.0, 2.6946443000006184), (70.0, 3.910427499999969)]",,70.0,,,,,,,,sub_457,2025-02-16_10h36.46.728,Reversal,2023.1.3,60.10446155434135,1,
,,,exp4.png,1,0,1,0,,,,,0,0,0,0,0,3,3,3,,,,,,,,,,,,,,,,,,,,,,,,,,,,,,,,,,,,,,323.4113021999992,,39.0,4.409043300000121,"[(39.0, 4.409043300000121)]",,,39.0,,,,,,,sub_457,2025-02-16_10h36.46.728,Reversal,2023.1.3,60.10446155434135,1,
0,exp1.png,exp2.png,,2,0,2,0,0,0,0,0,,,,,,,,,,,,,,,,,,,,,,,,,True,,,,,,,,,,,,,,,,,,,,,,,,,,,,,,,,,,,sub_457,2025-02-16_10h36.46.728,Reversal,2023.1.3,60.10446155434135,1,
1,exp3.png,exp4.png,,2,0,2,0,0,1,1,1,,,,,,,,,,,,,,,,,,,,,,,,,False,40,41,True,exp4.png,exp3.png,trial_right_image,-1,exp3.png,1,exp3.png,exp4.png,1,1,non-reversed,correct,0.1570458225886735,0,invalid_lose,261.54273999999987,22,,,,,,,,,,,,,,,sub_457,2025-02-16_10h36.46.728,Reversal,2023.1.3,60.10446155434135,1,
2,exp1.png,exp2.png,,2,0,2,0,0,2,2,2,,,,,,,,,,,,,,,,,,,,,,,,,False,41,42,False,exp1.png,exp2.png,trial_left_image,1,exp1.png,1,exp1.png,exp2.png,1,3,reversed,correct,0.6588814489321584,1,valid_win,265.7232865999995,23,,,,,,,,,,,,,,,sub_457,2025-02-16_10h36.46.728,Reversal,2023.1.3,60.10446155434135,1,
3,exp3.png,exp4.png,,2,0,2,0,0,3,3,3,,,,,,,,,,,,,,,,,,,,,,,,,False,42,43,False,exp3.png,exp4.png,trial_right_image,-1,exp4.png,1,exp3.png,exp4.png,0,2,non-reversed,incorrect,0.07517262955777837,1,invalid_win,272.5879957999996,24,,,,,,,,,,,,,,,sub_457,2025-02-16_10h36.46.728,Reversal,2023.1.3,60.10446155434135,1,
4,exp1.png,exp2.png,,2,0,2,0,0,4,4,4,,,,,,,,,,,,,,,,,,,,,,,,,False,43,44,True,exp2.png,exp1.png,trial_right_image,-1,exp1.png,1,exp1.png,exp2.png,1,3,reversed,correct,0.15355299070506578,0,invalid_lose,277.60277010000027,24,,,,,,,,,,,,,,,sub_457,2025-02-16_10h36.46.728,Reversal,2023.1.3,60.10446155434135,1,
5,exp3.png,exp4.png,,2,0,2,0,0,5,5,5,,,,,,,,,,,,,,,,,,,,,,,,,False,44,45,False,exp3.png,exp4.png,trial_left_image,1,exp3.png,1,exp3.png,exp4.png,1,1,non-reversed,correct,0.5988176978577313,1,valid_win,282.51793309999994,25,,,,,,,,,,,,,,,sub_457,2025-02-16_10h36.46.728,Reversal,2023.1.3,60.10446155434135,1,
6,exp1.png,exp2.png,,2,0,2,0,0,6,6,6,,,,,,,,,,,,,,,,,,,,,,,,,False,45,46,False,exp1.png,exp2.png,trial_left_image,1,exp1.png,1,exp1.png,exp2.png,1,3,reversed,correct,0.511523606781355,1,valid_win,287.21642299999985,26,,,,,,,,,,,,,,,sub_457,2025-02-16_10h36.46.728,Reversal,2023.1.3,60.10446155434135,1,
7,exp3.png,exp4.png,,2,0,2,0,0,7,7,7,,,,,,,,,,,,,,,,,,,,,,,,,False,46,47,True,exp4.png,exp3.png,trial_left_image,1,exp4.png,1,exp3.png,exp4.png,0,2,non-reversed,incorrect,0.03699900912400811,1,invalid_win,294.03054619999966,27,,,,,,,,,,,,,,,sub_457,2025-02-16_10h36.46.728,Reversal,2023.1.3,60.10446155434135,1,
8,exp1.png,exp2.png,,2,0,2,0,0,8,8,8,,,,,,,,,,,,,,,,,,,,,,,,,False,47,48,True,exp2.png,exp1.png,trial_right_image,-1,exp1.png,1,exp1.png,exp2.png,1,3,reversed,correct,0.5484680457083241,1,valid_win,298.52905999999984,28,,,,,,,,,,,,,,,sub_457,2025-02-16_10h36.46.728,Reversal,2023.1.3,60.10446155434135,1,
9,exp3.png,exp4.png,,2,0,2,0,0,9,9,9,,,,,,,,,,,,,,,,,,,,,,,,,False,48,49,True,exp4.png,exp3.png,trial_left_image,1,exp4.png,1,exp3.png,exp4.png,0,2,non-reversed,incorrect,0.8451143173045944,0,valid_lose,304.37698869999986,28,,,,,,,,,,,,,,,sub_457,2025-02-16_10h36.46.728,Reversal,2023.1.3,60.10446155434135,1,
10,exp1.png,exp2.png,,2,0,2,0,0,10,10,10,,,,,,,,,,,,,,,,,,,,,,,,,False,49,50,False,exp1.png,exp2.png,trial_left_image,1,exp1.png,1,exp1.png,exp2.png,1,3,reversed,correct,0.6970784614228283,1,valid_win,308.94233170000007,29,,,,,,,,,,,,,,,sub_457,2025-02-16_10h36.46.728,Reversal,2023.1.3,60.10446155434135,1,
11,exp3.png,exp4.png,,2,0,2,0,0,11,11,11,,,,,,,,,,,,,,,,,,,,,,,,,False,50,51,False,exp3.png,exp4.png,trial_left_image,1,exp3.png,1,exp3.png,exp4.png,1,1,non-reversed,correct,0.0027007677047280465,0,invalid_lose,313.6741459999994,29,,,,,,,,,,,,,,,sub_457,2025-02-16_10h36.46.728,Reversal,2023.1.3,60.10446155434135,1,
12,exp1.png,exp2.png,,2,0,2,0,0,12,12,12,,,,,,,,,,,,,,,,,,,,,,,,,False,51,52,True,exp2.png,exp1.png,trial_right_image,-1,exp1.png,1,exp1.png,exp2.png,1,3,reversed,correct,0.9816959061195334,1,valid_win,318.05602050000016,30,,,,,,,,,,,,,,,sub_457,2025-02-16_10h36.46.728,Reversal,2023.1.3,60.10446155434135,1,
13,exp3.png,exp4.png,,2,0,2,0,0,13,13,13,,,,,,,,,,,,,,,,,,,,,,,,,False,52,53,True,exp4.png,exp3.png,trial_right_image,-1,exp3.png,1,exp3.png,exp4.png,1,1,non-reversed,correct,0.4431207977999734,1,valid_win,322.4710333000003,31,,,,,,,,,,,,,,,sub_457,2025-02-16_10h36.46.728,Reversal,2023.1.3,60.10446155434135,1,
14,exp1.png,exp2.png,,2,0,2,0,0,14,14,14,,,,,,,,,,,,,,,,,,,,,,,,,False,53,54,False,exp1.png,exp2.png,trial_left_image,1,exp1.png,1,exp1.png,exp2.png,1,3,reversed,correct,0.9279384848887581,1,valid_win,326.7365484000002,32,,,,,,,,,,,,,,,sub_457,2025-02-16_10h36.46.728,Reversal,2023.1.3,60.10446155434135,1,
15,exp3.png,exp4.png,,2,0,2,0,0,15,15,15,,,,,,,,,,,,,,,,,,,,,,,,,False,54,55,True,exp4.png,exp3.png,trial_right_image,-1,exp3.png,1,exp3.png,exp4.png,1,1,non-reversed,correct,0.23438624587126566,0,invalid_lose,332.11808569999994,32,,,,,,,,,,,,,,,sub_457,2025-02-16_10h36.46.728,Reversal,2023.1.3,60.10446155434135,1,
16,exp1.png,exp2.png,,2,0,2,0,0,16,16,16,,,,,,,,,,,,,,,,,,,,,,,,,False,55,56,True,exp2.png,exp1.png,trial_right_image,-1,exp1.png,1,exp1.png,exp2.png,1,3,reversed,correct,0.8183280769720138,1,valid_win,336.48287789999995,33,,,,,,,,,,,,,,,sub_457,2025-02-16_10h36.46.728,Reversal,2023.1.3,60.10446155434135,1,
17,exp3.png,exp4.png,,2,0,2,0,0,17,17,17,,,,,,,,,,,,,,,,,,,,,,,,,False,56,57,True,exp4.png,exp3.png,trial_right_image,-1,exp3.png,1,exp3.png,exp4.png,1,1,non-reversed,correct,0.20193592978296215,0,invalid_lose,340.43133429999943,33,,,,,,,,,,,,,,,sub_457,2025-02-16_10h36.46.728,Reversal,2023.1.3,60.10446155434135,1,
18,exp1.png,exp2.png,,2,0,2,0,0,18,18,18,,,,,,,,,,,,,,,,,,,,,,,,,False,57,58,False,exp1.png,exp2.png,trial_left_image,1,exp1.png,1,exp1.png,exp2.png,1,3,reversed,correct,0.33559547962675496,1,valid_win,344.5800601000001,34,,,,,,,,,,,,,,,sub_457,2025-02-16_10h36.46.728,Reversal,2023.1.3,60.10446155434135,1,
19,exp3.png,exp4.png,,2,0,2,0,0,19,19,19,,,,,,,,,,,,,,,,,,,,,,,,,False,58,59,False,exp3.png,exp4.png,trial_left_image,1,exp3.png,1,exp3.png,exp4.png,1,1,non-reversed,correct,0.18510784255848634,0,invalid_lose,348.86227489999965,34,,,,,,,,,,,,,,,sub_457,2025-02-16_10h36.46.728,Reversal,2023.1.3,60.10446155434135,1,
20,exp1.png,exp2.png,,2,0,2,0,0,20,20,20,,,,,,,,,,,,,,,,,,,,,,,,,False,59,60,False,exp1.png,exp2.png,trial_right_image,-1,exp2.png,1,exp1.png,exp2.png,0,4,reversed,incorrect,0.5708579450598096,0,valid_lose,353.4107697999998,34,,,,,,,,,,,,,,,sub_457,2025-02-16_10h36.46.728,Reversal,2023.1.3,60.10446155434135,1,
,,,exp1.png,2,0,2,0,,,,,0,0,0,0,0,0,0,0,,,,,,,,,,,,,,,,,,,,,,,,,,,,,,,,,,,,,,426.3333800999999,98.0,98.0,2.754732800000056,"[(98.0, 2.754732800000056)]",,,,,,,,,,sub_457,2025-02-16_10h36.46.728,Reversal,2023.1.3,60.10446155434135,1,
,,,exp2.png,2,0,2,0,,,,,0,0,0,0,0,1,1,1,,,,,,,,,,,,,,,,,,,,,,,,,,,,,,,,,,,,,,429.8409432999997,,None,None,[],,,,,,,,,,sub_457,2025-02-16_10h36.46.728,Reversal,2023.1.3,60.10446155434135,1,
,,,exp3.png,2,0,2,0,,,,,0,0,0,0,0,2,2,2,,,,,,,,,,,,,,,,,,,,,,,,,,,,,,,,,,,,,,432.0067690999995,,None,None,[],,,,,,,,,,sub_457,2025-02-16_10h36.46.728,Reversal,2023.1.3,60.10446155434135,1,
,,,exp4.png,2,0,2,0,,,,,0,0,0,0,0,3,3,3,,,,,,,,,,,,,,,,,,,,,,,,,,,,,,,,,,,,,,434.27297049999925,,41.0,2.62661560000015,"[(41.0, 2.62661560000015)]",,,41.0,,,,,,,sub_457,2025-02-16_10h36.46.728,Reversal,2023.1.3,60.10446155434135,1,
0,exp1.png,exp2.png,,,,,,,,,,,,,,,,,,0,0,0,0,0,0,0,0,,,,,,,,,True,,,,,,,,,,,,,,,,,,,,,,,,,,,,,,,,,,,sub_457,2025-02-16_10h36.46.728,Reversal,2023.1.3,60.10446155434135,1,
1,exp3.png,exp4.png,,,,,,,,,,,,,,,,,,0,0,0,0,0,1,1,1,,,,,,,,,False,0,61,False,exp3.png,exp4.png,trial_left_image,1,exp3.png,1,exp3.png,exp4.png,1,1,non-reversed,correct,0.27497014712890133,1,valid_win,368.9553926999997,35,,,,,,,,,367.02283999999963,,,,,,sub_457,2025-02-16_10h36.46.728,Reversal,2023.1.3,60.10446155434135,1,
2,exp1.png,exp2.png,,,,,,,,,,,,,,,,,,0,0,0,0,0,2,2,2,,,,,,,,,False,1,62,False,exp1.png,exp2.png,trial_left_image,1,exp1.png,1,exp2.png,exp1.png,1,3,reversed,incorrect,0.2923939178520304,0,valid_lose,373.2542354999996,35,,,,,,,,,,,,,,,sub_457,2025-02-16_10h36.46.728,Reversal,2023.1.3,60.10446155434135,1,
3,exp3.png,exp4.png,,,,,,,,,,,,,,,,,,0,0,0,0,0,3,3,3,,,,,,,,,False,2,63,True,exp4.png,exp3.png,trial_right_image,-1,exp3.png,1,exp3.png,exp4.png,1,1,non-reversed,correct,0.9928570540845526,1,valid_win,377.4531044999994,36,,,,,,,,,,,,,,,sub_457,2025-02-16_10h36.46.728,Reversal,2023.1.3,60.10446155434135,1,
4,exp1.png,exp2.png,,,,,,,,,,,,,,,,,,0,0,0,0,0,4,4,4,,,,,,,,,False,3,64,True,exp2.png,exp1.png,trial_left_image,1,exp2.png,1,exp2.png,exp1.png,0,4,reversed,correct,0.7334687232200989,1,valid_win,381.6511021999995,37,,,,,,,,,,,,,,,sub_457,2025-02-16_10h36.46.728,Reversal,2023.1.3,60.10446155434135,1,
5,exp3.png,exp4.png,,,,,,,,,,,,,,,,,,0,0,0,0,0,5,5,5,,,,,,,,,False,4,65,False,exp3.png,exp4.png,trial_left_image,1,exp3.png,1,exp3.png,exp4.png,1,1,non-reversed,correct,0.5883077811895038,1,valid_win,386.8826300999999,38,,,,,,,,,,,,,,,sub_457,2025-02-16_10h36.46.728,Reversal,2023.1.3,60.10446155434135,1,
6,exp1.png,exp2.png,,,,,,,,,,,,,,,,,,0,0,0,0,0,6,6,6,,,,,,,,,False,5,66,True,exp2.png,exp1.png,trial_right_image,-1,exp1.png,1,exp2.png,exp1.png,1,3,reversed,incorrect,0.2622104088847058,0,valid_lose,391.2145152000003,38,,,,,,,,,,,,,,,sub_457,2025-02-16_10h36.46.728,Reversal,2023.1.3,60.10446155434135,1,
7,exp3.png,exp4.png,,,,,,,,,,,,,,,,,,0,0,0,0,0,7,7,7,,,,,,,,,False,6,67,False,exp3.png,exp4.png,trial_left_image,1,exp3.png,1,exp3.png,exp4.png,1,1,non-reversed,correct,0.8682269965594598,1,valid_win,396.0961877,39,,,,,,,,,,,,,,,sub_457,2025-02-16_10h36.46.728,Reversal,2023.1.3,60.10446155434135,1,
8,exp1.png,exp2.png,,,,,,,,,,,,,,,,,,0,0,0,0,0,8,8,8,,,,,,,,,False,7,68,True,exp2.png,exp1.png,trial_left_image,1,exp2.png,1,exp2.png,exp1.png,0,4,reversed,correct,0.08676273529587664,0,invalid_lose,401.294629,39,,,,,,,,,,,,,,,sub_457,2025-02-16_10h36.46.728,Reversal,2023.1.3,60.10446155434135,1,
9,exp3.png,exp4.png,,,,,,,,,,,,,,,,,,0,0,0,0,0,9,9,9,,,,,,,,,False,8,69,False,exp3.png,exp4.png,trial_left_image,1,exp3.png,1,exp3.png,exp4.png,1,1,non-reversed,correct,0.6104452167303311,1,valid_win,406.20994340000016,40,,,,,,,,,,,,,,,sub_457,2025-02-16_10h36.46.728,Reversal,2023.1.3,60.10446155434135,1,
10,exp1.png,exp2.png,,,,,,,,,,,,,,,,,,0,0,0,0,0,10,10,10,,,,,,,,,False,9,70,True,exp2.png,exp1.png,trial_right_image,-1,exp1.png,1,exp2.png,exp1.png,1,3,reversed,incorrect,0.006568459049265396,1,invalid_win,410.6085106999999,41,,,,,,,,,,,,,,,sub_457,2025-02-16_10h36.46.728,Reversal,2023.1.3,60.10446155434135,1,
11,exp3.png,exp4.png,,,,,,,,,,,,,,,,,,0,0,0,0,0,11,11,11,,,,,,,,,False,10,71,False,exp3.png,exp4.png,trial_right_image,-1,exp4.png,1,exp3.png,exp4.png,0,2,non-reversed,incorrect,0.6441858635191446,0,valid_lose,415.7728853999997,41,,,,,,,,,,,,,,,sub_457,2025-02-16_10h36.46.728,Reversal,2023.1.3,60.10446155434135,1,
12,exp1.png,exp2.png,,,,,,,,,,,,,,,,,,0,0,0,0,0,12,12,12,,,,,,,,,False,11,72,False,exp1.png,exp2.png,trial_left_image,1,exp1.png,1,exp2.png,exp1.png,1,3,reversed,incorrect,0.07684844172975835,1,invalid_win,419.93839299999945,42,,,,,,,,,,,,,,,sub_457,2025-02-16_10h36.46.728,Reversal,2023.1.3,60.10446155434135,1,
13,exp3.png,exp4.png,,,,,,,,,,,,,,,,,,0,0,0,0,0,13,13,13,,,,,,,,,False,12,73,True,exp4.png,exp3.png,trial_right_image,-1,exp3.png,1,exp3.png,exp4.png,1,1,non-reversed,correct,0.7558384761721504,1,valid_win,424.1200675,43,,,,,,,,,,,,,,,sub_457,2025-02-16_10h36.46.728,Reversal,2023.1.3,60.10446155434135,1,
14,exp1.png,exp2.png,,,,,,,,,,,,,,,,,,0,0,0,0,0,14,14,14,,,,,,,,,False,13,74,True,exp2.png,exp1.png,trial_right_image,-1,exp1.png,1,exp2.png,exp1.png,1,3,reversed,incorrect,0.031913825926076944,1,invalid_win,428.85168259999955,44,,,,,,,,,,,,,,,sub_457,2025-02-16_10h36.46.728,Reversal,2023.1.3,60.10446155434135,1,
15,exp3.png,exp4.png,,,,,,,,,,,,,,,,,,0,0,0,0,0,15,15,15,,,,,,,,,False,14,75,True,exp4.png,exp3.png,trial_right_image,-1,exp3.png,1,exp3.png,exp4.png,1,1,non-reversed,correct,0.7818742379280482,1,valid_win,433.70096379999995,45,,,,,,,,,,,,,,,sub_457,2025-02-16_10h36.46.728,Reversal,2023.1.3,60.10446155434135,1,
16,exp1.png,exp2.png,,,,,,,,,,,,,,,,,,0,0,0,0,0,16,16,16,,,,,,,,,False,15,76,True,exp2.png,exp1.png,trial_right_image,-1,exp1.png,1,exp2.png,exp1.png,1,3,reversed,incorrect,0.6956869098870332,0,valid_lose,437.9319525000001,45,,,,,,,,,,,,,,,sub_457,2025-02-16_10h36.46.728,Reversal,2023.1.3,60.10446155434135,1,
17,exp3.png,exp4.png,,,,,,,,,,,,,,,,,,0,0,0,0,0,17,17,17,,,,,,,,,False,16,77,False,exp3.png,exp4.png,trial_right_image,-1,exp4.png,1,exp3.png,exp4.png,0,2,non-reversed,incorrect,0.2571178280159565,0,valid_lose,442.33088789999965,45,,,,,,,,,,,,,,,sub_457,2025-02-16_10h36.46.728,Reversal,2023.1.3,60.10446155434135,1,
18,exp1.png,exp2.png,,,,,,,,,,,,,,,,,,0,0,0,0,0,18,18,18,,,,,,,,,False,17,78,False,exp1.png,exp2.png,trial_left_image,1,exp1.png,1,exp2.png,exp1.png,1,3,reversed,incorrect,0.8091005666633847,0,valid_lose,446.37942079999993,45,,,,,,,,,,,,,,,sub_457,2025-02-16_10h36.46.728,Reversal,2023.1.3,60.10446155434135,1,
19,exp3.png,exp4.png,,,,,,,,,,,,,,,,,,0,0,0,0,0,19,19,19,,,,,,,,,False,18,79,False,exp3.png,exp4.png,trial_left_image,1,exp3.png,1,exp3.png,exp4.png,1,1,non-reversed,correct,0.9856950670112807,1,valid_win,450.84435380000014,46,,,,,,,,,,,,,,,sub_457,2025-02-16_10h36.46.728,Reversal,2023.1.3,60.10446155434135,1,
20,exp1.png,exp2.png,,,,,,,,,,,,,,,,,,0,0,0,0,0,20,20,20,,,,,,,,,False,19,80,True,exp2.png,exp1.png,trial_right_image,-1,exp1.png,1,exp2.png,exp1.png,1,3,reversed,incorrect,0.9808208084629384,0,valid_lose,455.2765045999995,46,,,,,,,,,,,,,,,sub_457,2025-02-16_10h36.46.728,Reversal,2023.1.3,60.10446155434135,1,
,,,exp1.png,,,,,,,,,,,,,,,,,0,0,0,0,,,,,0,0,0,0,0,0,0,0,,,,,,,,,,,,,,,,,,,,,,528.2081014999994,95.0,95.0,2.045972900000379,"[(95.0, 2.045972900000379)]",,,,,,,,,,sub_457,2025-02-16_10h36.46.728,Reversal,2023.1.3,60.10446155434135,1,
,,,exp2.png,,,,,,,,,,,,,,,,,0,0,0,0,,,,,0,0,0,0,0,1,1,1,,,,,,,,,,,,,,,,,,,,,,530.9582842,,52.0,1.8439297000004444,"[(52.0, 1.8439297000004444)]",52.0,,,,,,,,,sub_457,2025-02-16_10h36.46.728,Reversal,2023.1.3,60.10446155434135,1,
,,,exp3.png,,,,,,,,,,,,,,,,,0,0,0,0,,,,,0,0,0,0,0,2,2,2,,,,,,,,,,,,,,,,,,,,,,533.5061062999994,,None,None,[],,,,,,,,,,sub_457,2025-02-16_10h36.46.728,Reversal,2023.1.3,60.10446155434135,1,
,,,exp4.png,,,,,,,,,,,,,,,,,0,0,0,0,,,,,0,0,0,0,0,3,3,3,,,,,,,,,,,,,,,,,,,,,,535.2049795999992,,44.0,2.32600629999979,"[(44.0, 2.32600629999979)]",,,44.0,,,,,,,sub_457,2025-02-16_10h36.46.728,Reversal,2023.1.3,60.10446155434135,1,
0,exp1.png,exp2.png,,,,,,,,,,,,,,,,,,1,0,1,0,0,0,0,0,,,,,,,,,True,,,,,,,,,,,,,,,,,,,,,,,,,,,,,,,,,,,sub_457,2025-02-16_10h36.46.728,Reversal,2023.1.3,60.10446155434135,1,
1,exp3.png,exp4.png,,,,,,,,,,,,,,,,,,1,0,1,0,0,1,1,1,,,,,,,,,False,20,81,False,exp3.png,exp4.png,trial_left_image,1,exp3.png,1,exp3.png,exp4.png,1,1,non-reversed,correct,0.6528177239882537,1,valid_win,469.82129480000003,47,,,,,,,,,,,,,,,sub_457,2025-02-16_10h36.46.728,Reversal,2023.1.3,60.10446155434135,1,
2,exp1.png,exp2.png,,,,,,,,,,,,,,,,,,1,0,1,0,0,2,2,2,,,,,,,,,False,21,82,False,exp1.png,exp2.png,trial_right_image,-1,exp2.png,1,exp2.png,exp1.png,0,4,reversed,correct,0.23867477406720594,0,invalid_lose,474.1029953999996,47,,,,,,,,,,,,,,,sub_457,2025-02-16_10h36.46.728,Reversal,2023.1.3,60.10446155434135,1,
3,exp3.png,exp4.png,,,,,,,,,,,,,,,,,,1,0,1,0,0,3,3,3,,,,,,,,,False,22,83,False,exp3.png,exp4.png,trial_left_image,1,exp3.png,1,exp3.png,exp4.png,1,1,non-reversed,correct,0.6811078903745463,1,valid_win,478.5683627999997,48,,,,,,,,,,,,,,,sub_457,2025-02-16_10h36.46.728,Reversal,2023.1.3,60.10446155434135,1,
4,exp1.png,exp2.png,,,,,,,,,,,,,,,,,,1,0,1,0,0,4,4,4,,,,,,,,,False,23,84,True,exp2.png,exp1.png,trial_right_image,-1,exp1.png,1,exp2.png,exp1.png,1,3,reversed,incorrect,0.28426929938328505,0,valid_lose,482.9167160999996,48,,,,,,,,,,,,,,,sub_457,2025-02-16_10h36.46.728,Reversal,2023.1.3,60.10446155434135,1,
5,exp3.png,exp4.png,,,,,,,,,,,,,,,,,,1,0,1,0,0,5,5,5,,,,,,,,,False,24,85,True,exp4.png,exp3.png,trial_right_image,-1,exp3.png,1,exp3.png,exp4.png,1,1,non-reversed,correct,0.08715672371253602,0,invalid_lose,487.1488468999996,48,,,,,,,,,,,,,,,sub_457,2025-02-16_10h36.46.728,Reversal,2023.1.3,60.10446155434135,1,
6,exp1.png,exp2.png,,,,,,,,,,,,,,,,,,1,0,1,0,0,6,6,6,,,,,,,,,False,25,86,False,exp1.png,exp2.png,trial_left_image,1,exp1.png,1,exp2.png,exp1.png,1,3,reversed,incorrect,0.5691096605733592,0,valid_lose,491.3636643,48,,,,,,,,,,,,,,,sub_457,2025-02-16_10h36.46.728,Reversal,2023.1.3,60.10446155434135,1,
7,exp3.png,exp4.png,,,,,,,,,,,,,,,,,,1,0,1,0,0,7,7,7,,,,,,,,,False,26,87,True,exp4.png,exp3.png,trial_right_image,-1,exp3.png,1,exp3.png,exp4.png,1,1,non-reversed,correct,0.1831002840833984,0,invalid_lose,495.5792510000001,48,,,,,,,,,,,,,,,sub_457,2025-02-16_10h36.46.728,Reversal,2023.1.3,60.10446155434135,1,
8,exp1.png,exp2.png,,,,,,,,,,,,,,,,,,1,0,1,0,0,8,8,8,,,,,,,,,False,27,88,False,exp1.png,exp2.png,trial_right_image,-1,exp2.png,1,exp2.png,exp1.png,0,4,reversed,correct,0.7894727494146857,1,valid_win,499.94447859999946,49,,,,,,,,,,,,,,,sub_457,2025-02-16_10h36.46.728,Reversal,2023.1.3,60.10446155434135,1,
9,exp3.png,exp4.png,,,,,,,,,,,,,,,,,,1,0,1,0,0,9,9,9,,,,,,,,,False,28,89,False,exp3.png,exp4.png,trial_right_image,-1,exp4.png,1,exp3.png,exp4.png,0,2,non-reversed,incorrect,0.8929279955101413,0,valid_lose,504.69248359999983,49,,,,,,,,,,,,,,,sub_457,2025-02-16_10h36.46.728,Reversal,2023.1.3,60.10446155434135,1,
10,exp1.png,exp2.png,,,,,,,,,,,,,,,,,,1,0,1,0,0,10,10,10,,,,,,,,,False,29,90,True,exp2.png,exp1.png,trial_left_image,1,exp2.png,1,exp2.png,exp1.png,0,4,reversed,correct,0.3921581080206251,1,valid_win,508.4089742999995,50,,,,,,,,,,,,,,,sub_457,2025-02-16_10h36.46.728,Reversal,2023.1.3,60.10446155434135,1,
11,exp3.png,exp4.png,,,,,,,,,,,,,,,,,,1,0,1,0,0,11,11,11,,,,,,,,,False,30,91,True,exp4.png,exp3.png,trial_right_image,-1,exp3.png,1,exp3.png,exp4.png,1,1,non-reversed,correct,0.23571791562352684,0,invalid_lose,512.8568699999996,50,,,,,,,,,,,,,,,sub_457,2025-02-16_10h36.46.728,Reversal,2023.1.3,60.10446155434135,1,
12,exp1.png,exp2.png,,,,,,,,,,,,,,,,,,1,0,1,0,0,12,12,12,,,,,,,,,False,31,92,True,exp2.png,exp1.png,trial_right_image,-1,exp1.png,1,exp2.png,exp1.png,1,3,reversed,incorrect,0.35827667773413285,0,valid_lose,517.4053260999999,50,,,,,,,,,,,,,,,sub_457,2025-02-16_10h36.46.728,Reversal,2023.1.3,60.10446155434135,1,
13,exp3.png,exp4.png,,,,,,,,,,,,,,,,,,1,0,1,0,0,13,13,13,,,,,,,,,False,32,93,False,exp3.png,exp4.png,trial_left_image,1,exp3.png,1,exp3.png,exp4.png,1,1,non-reversed,correct,0.5253595547476434,1,valid_win,522.4371942999996,51,,,,,,,,,,,,,,,sub_457,2025-02-16_10h36.46.728,Reversal,2023.1.3,60.10446155434135,1,
14,exp1.png,exp2.png,,,,,,,,,,,,,,,,,,1,0,1,0,0,14,14,14,,,,,,,,,False,33,94,True,exp2.png,exp1.png,trial_right_image,-1,exp1.png,1,exp2.png,exp1.png,1,3,reversed,incorrect,0.4352408177357645,0,valid_lose,526.7857110999994,51,,,,,,,,,,,,,,,sub_457,2025-02-16_10h36.46.728,Reversal,2023.1.3,60.10446155434135,1,
15,exp3.png,exp4.png,,,,,,,,,,,,,,,,,,1,0,1,0,0,15,15,15,,,,,,,,,False,34,95,False,exp3.png,exp4.png,trial_right_image,-1,exp4.png,1,exp3.png,exp4.png,0,2,non-reversed,incorrect,0.6930988631293021,0,valid_lose,531.4172239,51,,,,,,,,,,,,,,,sub_457,2025-02-16_10h36.46.728,Reversal,2023.1.3,60.10446155434135,1,
16,exp1.png,exp2.png,,,,,,,,,,,,,,,,,,1,0,1,0,0,16,16,16,,,,,,,,,False,35,96,True,exp2.png,exp1.png,trial_left_image,1,exp2.png,1,exp2.png,exp1.png,0,4,reversed,correct,0.0894884225762792,0,invalid_lose,535.4329883,51,,,,,,,,,,,,,,,sub_457,2025-02-16_10h36.46.728,Reversal,2023.1.3,60.10446155434135,1,
17,exp3.png,exp4.png,,,,,,,,,,,,,,,,,,1,0,1,0,0,17,17,17,,,,,,,,,False,36,97,False,exp3.png,exp4.png,trial_left_image,1,exp3.png,1,exp3.png,exp4.png,1,1,non-reversed,correct,0.9728052562710021,1,valid_win,539.7473517999997,52,,,,,,,,,,,,,,,sub_457,2025-02-16_10h36.46.728,Reversal,2023.1.3,60.10446155434135,1,
18,exp1.png,exp2.png,,,,,,,,,,,,,,,,,,1,0,1,0,0,18,18,18,,,,,,,,,False,37,98,True,exp2.png,exp1.png,trial_right_image,-1,exp1.png,1,exp2.png,exp1.png,1,3,reversed,incorrect,0.1701495041442629,1,invalid_win,543.8461269999998,53,,,,,,,,,,,,,,,sub_457,2025-02-16_10h36.46.728,Reversal,2023.1.3,60.10446155434135,1,
19,exp3.png,exp4.png,,,,,,,,,,,,,,,,,,1,0,1,0,0,19,19,19,,,,,,,,,False,38,99,True,exp4.png,exp3.png,trial_right_image,-1,exp3.png,1,exp3.png,exp4.png,1,1,non-reversed,correct,0.8365146802530508,1,valid_win,548.3116742000002,54,,,,,,,,,,,,,,,sub_457,2025-02-16_10h36.46.728,Reversal,2023.1.3,60.10446155434135,1,
20,exp1.png,exp2.png,,,,,,,,,,,,,,,,,,1,0,1,0,0,20,20,20,,,,,,,,,False,39,100,False,exp1.png,exp2.png,trial_right_image,-1,exp2.png,1,exp2.png,exp1.png,0,4,reversed,correct,0.7646600410291957,1,valid_win,553.0430128999997,55,,,,,,,,,,,,,,,sub_457,2025-02-16_10h36.46.728,Reversal,2023.1.3,60.10446155434135,1,
,,,exp1.png,,,,,,,,,,,,,,,,,1,0,1,0,,,,,0,0,0,0,0,0,0,0,,,,,,,,,,,,,,,,,,,,,,625.9625330999997,91.0,91.0,3.157900499999414,"[(91.0, 3.157900499999414)]",,,,,,,,,,sub_457,2025-02-16_10h36.46.728,Reversal,2023.1.3,60.10446155434135,1,
,,,exp2.png,,,,,,,,,,,,,,,,,1,0,1,0,,,,,0,0,0,0,0,1,1,1,,,,,,,,,,,,,,,,,,,,,,630.1729632999995,,37.0,3.7600882000006095,"[(37.0, 3.7600882000006095)]",37.0,,,,,,,,,sub_457,2025-02-16_10h36.46.728,Reversal,2023.1.3,60.10446155434135,1,
,,,exp3.png,,,,,,,,,,,,,,,,,1,0,1,0,,,,,0,0,0,0,0,2,2,2,,,,,,,,,,,,,,,,,,,,,,634.5058983999998,,71.0,1.7271405000001323,"[(71.0, 1.7271405000001323)]",,71.0,,,,,,,,sub_457,2025-02-16_10h36.46.728,Reversal,2023.1.3,60.10446155434135,1,
,,,exp4.png,,,,,,,,,,,,,,,,,1,0,1,0,,,,,0,0,0,0,0,3,3,3,,,,,,,,,,,,,,,,,,,,,,636.7551653,,37.0,3.0918916999999055,"[(37.0, 3.0918916999999055)]",,,37.0,,,,,,,sub_457,2025-02-16_10h36.46.728,Reversal,2023.1.3,60.10446155434135,1,
0,exp1.png,exp2.png,,,,,,,,,,,,,,,,,,2,0,2,0,0,0,0,0,,,,,,,,,True,,,,,,,,,,,,,,,,,,,,,,,,,,,,,,,,,,,sub_457,2025-02-16_10h36.46.728,Reversal,2023.1.3,60.10446155434135,1,
1,exp3.png,exp4.png,,,,,,,,,,,,,,,,,,2,0,2,0,0,1,1,1,,,,,,,,,False,40,101,True,exp4.png,exp3.png,trial_right_image,-1,exp3.png,1,exp3.png,exp4.png,1,1,non-reversed,correct,0.9072513444026641,1,valid_win,571.9866150999997,56,,,,,,,,,,,,,,,sub_457,2025-02-16_10h36.46.728,Reversal,2023.1.3,60.10446155434135,1,
2,exp1.png,exp2.png,,,,,,,,,,,,,,,,,,2,0,2,0,0,2,2,2,,,,,,,,,False,41,102,False,exp1.png,exp2.png,trial_left_image,1,exp1.png,1,exp2.png,exp1.png,1,3,reversed,incorrect,0.29049299755160707,0,valid_lose,576.1187085000001,56,,,,,,,,,,,,,,,sub_457,2025-02-16_10h36.46.728,Reversal,2023.1.3,60.10446155434135,1,
3,exp3.png,exp4.png,,,,,,,,,,,,,,,,,,2,0,2,0,0,3,3,3,,,,,,,,,False,42,103,False,exp3.png,exp4.png,trial_left_image,1,exp3.png,1,exp3.png,exp4.png,1,1,non-reversed,correct,0.07787721407371173,0,invalid_lose,580.5505200999996,56,,,,,,,,,,,,,,,sub_457,2025-02-16_10h36.46.728,Reversal,2023.1.3,60.10446155434135,1,
4,exp1.png,exp2.png,,,,,,,,,,,,,,,,,,2,0,2,0,0,4,4,4,,,,,,,,,False,43,104,True,exp2.png,exp1.png,trial_right_image,-1,exp1.png,1,exp2.png,exp1.png,1,3,reversed,incorrect,0.16908891933138026,1,invalid_win,584.5325605999997,57,,,,,,,,,,,,,,,sub_457,2025-02-16_10h36.46.728,Reversal,2023.1.3,60.10446155434135,1,
5,exp3.png,exp4.png,,,,,,,,,,,,,,,,,,2,0,2,0,0,5,5,5,,,,,,,,,False,44,105,False,exp3.png,exp4.png,trial_right_image,-1,exp4.png,1,exp3.png,exp4.png,0,2,non-reversed,incorrect,0.3708968934905922,0,valid_lose,590.3807007999994,57,,,,,,,,,,,,,,,sub_457,2025-02-16_10h36.46.728,Reversal,2023.1.3,60.10446155434135,1,
6,exp1.png,exp2.png,,,,,,,,,,,,,,,,,,2,0,2,0,0,6,6,6,,,,,,,,,False,45,106,True,exp2.png,exp1.png,trial_right_image,-1,exp1.png,1,exp2.png,exp1.png,1,3,reversed,incorrect,0.7584355418688814,0,valid_lose,594.5128427,57,,,,,,,,,,,,,,,sub_457,2025-02-16_10h36.46.728,Reversal,2023.1.3,60.10446155434135,1,
7,exp3.png,exp4.png,,,,,,,,,,,,,,,,,,2,0,2,0,0,7,7,7,,,,,,,,,False,46,107,False,exp3.png,exp4.png,trial_left_image,1,exp3.png,1,exp3.png,exp4.png,1,1,non-reversed,correct,0.36180497524431054,1,valid_win,598.5445890999999,58,,,,,,,,,,,,,,,sub_457,2025-02-16_10h36.46.728,Reversal,2023.1.3,60.10446155434135,1,
8,exp1.png,exp2.png,,,,,,,,,,,,,,,,,,2,0,2,0,0,8,8,8,,,,,,,,,False,47,108,True,exp2.png,exp1.png,trial_left_image,1,exp2.png,1,exp2.png,exp1.png,0,4,reversed,correct,0.9710987384991021,1,valid_win,602.7263340999998,59,,,,,,,,,,,,,,,sub_457,2025-02-16_10h36.46.728,Reversal,2023.1.3,60.10446155434135,1,
9,exp3.png,exp4.png,,,,,,,,,,,,,,,,,,2,0,2,0,0,9,9,9,,,,,,,,,False,48,109,True,exp4.png,exp3.png,trial_right_image,-1,exp3.png,1,exp3.png,exp4.png,1,1,non-reversed,correct,0.4620764426356412,1,valid_win,607.1246831999997,60,,,,,,,,,,,,,,,sub_457,2025-02-16_10h36.46.728,Reversal,2023.1.3,60.10446155434135,1,
10,exp1.png,exp2.png,,,,,,,,,,,,,,,,,,2,0,2,0,0,10,10,10,,,,,,,,,False,49,110,False,exp1.png,exp2.png,trial_left_image,1,exp1.png,1,exp2.png,exp1.png,1,3,reversed,incorrect,0.703436859763881,0,valid_lose,611.4236057999997,60,,,,,,,,,,,,,,,sub_457,2025-02-16_10h36.46.728,Reversal,2023.1.3,60.10446155434135,1,
11,exp3.png,exp4.png,,,,,,,,,,,,,,,,,,2,0,2,0,0,11,11,11,,,,,,,,,False,50,111,False,exp3.png,exp4.png,trial_left_image,1,exp3.png,1,exp3.png,exp4.png,1,1,non-reversed,correct,0.054458461089845756,0,invalid_lose,615.7225217999994,60,,,,,,,,,,,,,,,sub_457,2025-02-16_10h36.46.728,Reversal,2023.1.3,60.10446155434135,1,
12,exp1.png,exp2.png,,,,,,,,,,,,,,,,,,2,0,2,0,0,12,12,12,,,,,,,,,False,51,112,True,exp2.png,exp1.png,trial_right_image,-1,exp1.png,1,exp2.png,exp1.png,1,3,reversed,incorrect,0.8460791112839179,0,valid_lose,619.8372019999997,60,,,,,,,,,,,,,,,sub_457,2025-02-16_10h36.46.728,Reversal,2023.1.3,60.10446155434135,1,
13,exp3.png,exp4.png,,,,,,,,,,,,,,,,,,2,0,2,0,0,13,13,13,,,,,,,,,False,52,113,False,exp3.png,exp4.png,trial_right_image,-1,exp4.png,1,exp3.png,exp4.png,0,2,non-reversed,incorrect,0.831081323101246,0,valid_lose,623.9689203999997,60,,,,,,,,,,,,,,,sub_457,2025-02-16_10h36.46.728,Reversal,2023.1.3,60.10446155434135,1,
14,exp1.png,exp2.png,,,,,,,,,,,,,,,,,,2,0,2,0,0,14,14,14,,,,,,,,,False,53,114,True,exp2.png,exp1.png,trial_left_image,1,exp2.png,1,exp2.png,exp1.png,0,4,reversed,correct,0.645555103058614,1,valid_win,627.7705463000002,61,,,,,,,,,,,,,,,sub_457,2025-02-16_10h36.46.728,Reversal,2023.1.3,60.10446155434135,1,
15,exp3.png,exp4.png,,,,,,,,,,,,,,,,,,2,0,2,0,0,15,15,15,,,,,,,,,False,54,115,False,exp3.png,exp4.png,trial_left_image,1,exp3.png,1,exp3.png,exp4.png,1,1,non-reversed,correct,0.059549073406255704,0,invalid_lose,632.0335304,61,,,,,,,,,,,,,,,sub_457,2025-02-16_10h36.46.728,Reversal,2023.1.3,60.10446155434135,1,
16,exp1.png,exp2.png,,,,,,,,,,,,,,,,,,2,0,2,0,0,16,16,16,,,,,,,,,False,55,116,True,exp2.png,exp1.png,trial_right_image,-1,exp1.png,1,exp2.png,exp1.png,1,3,reversed,incorrect,0.012298365529015198,1,invalid_win,636.6482890999996,62,,,,,,,,,,,,,,,sub_457,2025-02-16_10h36.46.728,Reversal,2023.1.3,60.10446155434135,1,
17,exp3.png,exp4.png,,,,,,,,,,,,,,,,,,2,0,2,0,0,17,17,17,,,,,,,,,False,56,117,True,exp4.png,exp3.png,trial_right_image,-1,exp3.png,1,exp3.png,exp4.png,1,1,non-reversed,correct,0.6948925999008865,1,valid_win,640.9965714,63,,,,,,,,,,,,,,,sub_457,2025-02-16_10h36.46.728,Reversal,2023.1.3,60.10446155434135,1,
18,exp1.png,exp2.png,,,,,,,,,,,,,,,,,,2,0,2,0,0,18,18,18,,,,,,,,,False,57,118,True,exp2.png,exp1.png,trial_left_image,1,exp2.png,1,exp2.png,exp1.png,0,4,reversed,correct,0.5653878529896964,1,valid_win,646.2947904000002,64,,,,,,,,,,,,,,,sub_457,2025-02-16_10h36.46.728,Reversal,2023.1.3,60.10446155434135,1,
19,exp3.png,exp4.png,,,,,,,,,,,,,,,,,,2,0,2,0,0,19,19,19,,,,,,,,,False,58,119,False,exp3.png,exp4.png,trial_right_image,-1,exp4.png,1,exp3.png,exp4.png,0,2,non-reversed,incorrect,0.7074923870251587,0,valid_lose,650.2765768999998,64,,,,,,,,,,,,,,,sub_457,2025-02-16_10h36.46.728,Reversal,2023.1.3,60.10446155434135,1,
20,exp1.png,exp2.png,,,,,,,,,,,,,,,,,,2,0,2,0,0,20,20,20,,,,,,,,,False,59,120,False,exp1.png,exp2.png,trial_right_image,-1,exp2.png,1,exp2.png,exp1.png,0,4,reversed,correct,0.7615398974157683,1,valid_win,655.1254638,65,,,,,,,,,,,,,,,sub_457,2025-02-16_10h36.46.728,Reversal,2023.1.3,60.10446155434135,1,
,,,exp1.png,,,,,,,,,,,,,,,,,2,0,2,0,,,,,0,0,0,0,0,0,0,0,,,,,,,,,,,,,,,,,,,,,,728.0461375999994,85.0,85.0,2.1396800999991683,"[(85.0, 2.1396800999991683)]",,,,,,,,,,sub_457,2025-02-16_10h36.46.728,Reversal,2023.1.3,60.10446155434135,1,
,,,exp2.png,,,,,,,,,,,,,,,,,2,0,2,0,,,,,0,0,0,0,0,1,1,1,,,,,,,,,,,,,,,,,,,,,,730.9214701999999,,None,None,[],,,,,,,,,,sub_457,2025-02-16_10h36.46.728,Reversal,2023.1.3,60.10446155434135,1,
,,,exp3.png,,,,,,,,,,,,,,,,,2,0,2,0,,,,,0,0,0,0,0,2,2,2,,,,,,,,,,,,,,,,,,,,,,732.8878630999998,,59.0,2.5269250999999713,"[(59.0, 2.5269250999999713)]",,59.0,,,,,,,,sub_457,2025-02-16_10h36.46.728,Reversal,2023.1.3,60.10446155434135,1,
,,,exp4.png,,,,,,,,,,,,,,,,,2,0,2,0,,,,,0,0,0,0,0,3,3,3,,,,,,,,,,,,,,,,,,,,,,736.3049071999994,,37.0,3.526300999999876,"[(37.0, 3.526300999999876)]",,,37.0,,,,,,,sub_457,2025-02-16_10h36.46.728,Reversal,2023.1.3,60.10446155434135,1,
,,,,,,,,,,,,,,,,,,,,,,,,,,,,,,,,,,,,,,,,,,,,,,,,,,,,,,,,65,,,,,,,,,,74,40,34,302.98164030000044,0,,,,,,,
