trial_index,trial_image1_file,trial_image2_file,image_file,learning_outer_loop.thisRepN,learning_outer_loop.thisTrialN,learning_outer_loop.thisN,learning_outer_loop.thisIndex,learning_inner_loop.thisRepN,learning_inner_loop.thisTrialN,learning_inner_loop.thisN,learning_inner_loop.thisIndex,learning_estimation_outer_loop.thisRepN,learning_estimation_outer_loop.thisTrialN,learning_estimation_outer_loop.thisN,learning_estimation_outer_loop.thisIndex,learning_estimation_inner_loop.thisRepN,learning_estimation_inner_loop.thisTrialN,learning_estimation_inner_loop.thisN,learning_estimation_inner_loop.thisIndex,reversal_outer_loop.thisRepN,reversal_outer_loop.thisTrialN,reversal_outer_loop.thisN,reversal_outer_loop.thisIndex,reversal_inner_loop.thisRepN,reversal_inner_loop.thisTrialN,reversal_inner_loop.thisN,reversal_inner_loop.thisIndex,reversal_estimation_outer_loop.thisRepN,reversal_estimation_outer_loop.thisTrialN,reversal_estimation_outer_loop.thisN,reversal_estimation_outer_loop.thisIndex,reversal_estimation_inner_loop.thisRepN,reversal_estimation_inner_loop.thisTrialN,reversal_estimation_inner_loop.thisN,reversal_estimation_inner_loop.thisIndex,skipped,total_trial_counter,trial_num,left_right_flip,left_image_file,right_image_file,clicked_stimulus_side,side,clicked_stimulus,version,high_prob_image_file,low_prob_image_file,choice_a,choice_b,pair_type,correct,trial_feedback_random,reward,trial_type,overall_time_after_trial,score,estimation_rating.started,estimation_rating.response,estimation_rating.rt,estimation_rating.history,estimation_exp1.png,estimation_exp2.png,estimation_exp3.png,estimation_exp4.png,total_learning_time,total_correct,learning_correct,reversal_correct,total_reversal_time,extra_block,participant,date,expName,psychopyVersion,frameRate,ver,
0,exp1.png,exp2.png,,0,0,0,0,0,0,0,0,,,,,,,,,,,,,,,,,,,,,,,,,True,,,,,,,,,,,,,,,,,,,,,,,,,,,,,,,,,,,sub_998,2024-12-02_14h55.31.931,Reversal,2023.1.3,60.024694158976814,2,
1,exp3.png,exp4.png,,0,0,0,0,0,1,1,1,,,,,,,,,,,,,,,,,,,,,,,,,False,0,1,True,exp4.png,exp3.png,trial_left_image,1,exp4.png,2,exp3.png,exp4.png,0,4,reversed,incorrect,0.21932663817988152,1,invalid_win,3.5800021000004563,1,,,,,,,,,,,,,,,sub_998,2024-12-02_14h55.31.931,Reversal,2023.1.3,60.024694158976814,2,
2,exp1.png,exp2.png,,0,0,0,0,0,2,2,2,,,,,,,,,,,,,,,,,,,,,,,,,False,1,2,False,exp1.png,exp2.png,trial_left_image,1,exp1.png,2,exp1.png,exp2.png,1,1,non-reversed,correct,0.6281881275596649,1,valid_win,9.878226100000575,2,,,,,,,,,,,,,,,sub_998,2024-12-02_14h55.31.931,Reversal,2023.1.3,60.024694158976814,2,
3,exp3.png,exp4.png,,0,0,0,0,0,3,3,3,,,,,,,,,,,,,,,,,,,,,,,,,False,2,3,True,exp4.png,exp3.png,trial_left_image,1,exp4.png,2,exp3.png,exp4.png,0,4,reversed,incorrect,0.7111207061498069,0,valid_lose,15.693257100000665,2,,,,,,,,,,,,,,,sub_998,2024-12-02_14h55.31.931,Reversal,2023.1.3,60.024694158976814,2,
4,exp1.png,exp2.png,,0,0,0,0,0,4,4,4,,,,,,,,,,,,,,,,,,,,,,,,,False,3,4,False,exp1.png,exp2.png,trial_left_image,1,exp1.png,2,exp1.png,exp2.png,1,1,non-reversed,correct,0.5797762246013868,1,valid_win,20.724154100000305,3,,,,,,,,,,,,,,,sub_998,2024-12-02_14h55.31.931,Reversal,2023.1.3,60.024694158976814,2,
5,exp3.png,exp4.png,,0,0,0,0,0,5,5,5,,,,,,,,,,,,,,,,,,,,,,,,,False,4,5,True,exp4.png,exp3.png,trial_right_image,-1,exp3.png,2,exp3.png,exp4.png,1,3,reversed,correct,0.6717822490875061,1,valid_win,26.056200200000603,4,,,,,,,,,,,,,,,sub_998,2024-12-02_14h55.31.931,Reversal,2023.1.3,60.024694158976814,2,
6,exp1.png,exp2.png,,0,0,0,0,0,6,6,6,,,,,,,,,,,,,,,,,,,,,,,,,False,5,6,False,exp1.png,exp2.png,trial_right_image,-1,exp2.png,2,exp1.png,exp2.png,0,2,non-reversed,incorrect,0.40166345862451536,0,valid_lose,30.424521599999935,4,,,,,,,,,,,,,,,sub_998,2024-12-02_14h55.31.931,Reversal,2023.1.3,60.024694158976814,2,
7,exp3.png,exp4.png,,0,0,0,0,0,7,7,7,,,,,,,,,,,,,,,,,,,,,,,,,False,6,7,False,exp3.png,exp4.png,trial_right_image,-1,exp4.png,2,exp3.png,exp4.png,0,4,reversed,incorrect,0.3879857036120373,0,valid_lose,34.80297210000026,4,,,,,,,,,,,,,,,sub_998,2024-12-02_14h55.31.931,Reversal,2023.1.3,60.024694158976814,2,
8,exp1.png,exp2.png,,0,0,0,0,0,8,8,8,,,,,,,,,,,,,,,,,,,,,,,,,False,7,8,False,exp1.png,exp2.png,trial_right_image,-1,exp2.png,2,exp1.png,exp2.png,0,2,non-reversed,incorrect,0.15485694664394556,1,invalid_win,39.36802400000033,5,,,,,,,,,,,,,,,sub_998,2024-12-02_14h55.31.931,Reversal,2023.1.3,60.024694158976814,2,
9,exp3.png,exp4.png,,0,0,0,0,0,9,9,9,,,,,,,,,,,,,,,,,,,,,,,,,False,8,9,True,exp4.png,exp3.png,trial_right_image,-1,exp3.png,2,exp3.png,exp4.png,1,3,reversed,correct,0.10784363822365173,0,invalid_lose,43.650674500000605,5,,,,,,,,,,,,,,,sub_998,2024-12-02_14h55.31.931,Reversal,2023.1.3,60.024694158976814,2,
10,exp1.png,exp2.png,,0,0,0,0,0,10,10,10,,,,,,,,,,,,,,,,,,,,,,,,,False,9,10,False,exp1.png,exp2.png,trial_right_image,-1,exp2.png,2,exp1.png,exp2.png,0,2,non-reversed,incorrect,0.6349157170629223,0,valid_lose,48.04833460000009,5,,,,,,,,,,,,,,,sub_998,2024-12-02_14h55.31.931,Reversal,2023.1.3,60.024694158976814,2,
11,exp3.png,exp4.png,,0,0,0,0,0,11,11,11,,,,,,,,,,,,,,,,,,,,,,,,,False,10,11,True,exp4.png,exp3.png,trial_left_image,1,exp4.png,2,exp3.png,exp4.png,0,4,reversed,incorrect,0.9586204854336515,0,valid_lose,51.98026459999983,5,,,,,,,,,,,,,,,sub_998,2024-12-02_14h55.31.931,Reversal,2023.1.3,60.024694158976814,2,
12,exp1.png,exp2.png,,0,0,0,0,0,12,12,12,,,,,,,,,,,,,,,,,,,,,,,,,False,11,12,False,exp1.png,exp2.png,trial_left_image,1,exp1.png,2,exp1.png,exp2.png,1,1,non-reversed,correct,0.6711729182830567,1,valid_win,56.046472600000016,6,,,,,,,,,,,,,,,sub_998,2024-12-02_14h55.31.931,Reversal,2023.1.3,60.024694158976814,2,
13,exp3.png,exp4.png,,0,0,0,0,0,13,13,13,,,,,,,,,,,,,,,,,,,,,,,,,False,12,13,True,exp4.png,exp3.png,trial_left_image,1,exp4.png,2,exp3.png,exp4.png,0,4,reversed,incorrect,0.4605835534522842,0,valid_lose,60.11109170000054,6,,,,,,,,,,,,,,,sub_998,2024-12-02_14h55.31.931,Reversal,2023.1.3,60.024694158976814,2,
14,exp1.png,exp2.png,,0,0,0,0,0,14,14,14,,,,,,,,,,,,,,,,,,,,,,,,,False,13,14,False,exp1.png,exp2.png,trial_left_image,1,exp1.png,2,exp1.png,exp2.png,1,1,non-reversed,correct,0.5922098728557817,1,valid_win,63.95969310000055,7,,,,,,,,,,,,,,,sub_998,2024-12-02_14h55.31.931,Reversal,2023.1.3,60.024694158976814,2,
15,exp3.png,exp4.png,,0,0,0,0,0,15,15,15,,,,,,,,,,,,,,,,,,,,,,,,,False,14,15,False,exp3.png,exp4.png,trial_left_image,1,exp3.png,2,exp3.png,exp4.png,1,3,reversed,correct,0.5547972922471316,1,valid_win,68.14158110000062,8,,,,,,,,,,,,,,,sub_998,2024-12-02_14h55.31.931,Reversal,2023.1.3,60.024694158976814,2,
16,exp1.png,exp2.png,,0,0,0,0,0,16,16,16,,,,,,,,,,,,,,,,,,,,,,,,,False,15,16,False,exp1.png,exp2.png,trial_left_image,1,exp1.png,2,exp1.png,exp2.png,1,1,non-reversed,correct,0.9648247642880026,1,valid_win,72.34028500000022,9,,,,,,,,,,,,,,,sub_998,2024-12-02_14h55.31.931,Reversal,2023.1.3,60.024694158976814,2,
17,exp3.png,exp4.png,,0,0,0,0,0,17,17,17,,,,,,,,,,,,,,,,,,,,,,,,,False,16,17,True,exp4.png,exp3.png,trial_left_image,1,exp4.png,2,exp3.png,exp4.png,0,4,reversed,incorrect,0.8176600831693527,0,valid_lose,76.5225874000007,9,,,,,,,,,,,,,,,sub_998,2024-12-02_14h55.31.931,Reversal,2023.1.3,60.024694158976814,2,
18,exp1.png,exp2.png,,0,0,0,0,0,18,18,18,,,,,,,,,,,,,,,,,,,,,,,,,False,17,18,True,exp2.png,exp1.png,trial_left_image,1,exp2.png,2,exp1.png,exp2.png,0,2,non-reversed,incorrect,0.05646218946354753,1,invalid_win,80.62058620000062,10,,,,,,,,,,,,,,,sub_998,2024-12-02_14h55.31.931,Reversal,2023.1.3,60.024694158976814,2,
19,exp3.png,exp4.png,,0,0,0,0,0,19,19,19,,,,,,,,,,,,,,,,,,,,,,,,,False,18,19,True,exp4.png,exp3.png,trial_left_image,1,exp4.png,2,exp3.png,exp4.png,0,4,reversed,incorrect,0.8284032414793199,0,valid_lose,85.10345510000025,10,,,,,,,,,,,,,,,sub_998,2024-12-02_14h55.31.931,Reversal,2023.1.3,60.024694158976814,2,
20,exp1.png,exp2.png,,0,0,0,0,0,20,20,20,,,,,,,,,,,,,,,,,,,,,,,,,False,19,20,True,exp2.png,exp1.png,trial_left_image,1,exp2.png,2,exp1.png,exp2.png,0,2,non-reversed,incorrect,0.11312932315331736,1,invalid_win,89.36845500000072,11,,,,,,,,,,,,,,,sub_998,2024-12-02_14h55.31.931,Reversal,2023.1.3,60.024694158976814,2,
,,,exp1.png,0,0,0,0,,,,,0,0,0,0,0,0,0,0,,,,,,,,,,,,,,,,,,,,,,,,,,,,,,,,,,,,,,160.47274970000035,None,None,[],,,,,,,,,,,sub_998,2024-12-02_14h55.31.931,Reversal,2023.1.3,60.024694158976814,2,
,,,exp2.png,0,0,0,0,,,,,0,0,0,0,0,1,1,1,,,,,,,,,,,,,,,,,,,,,,,,,,,,,,,,,,,,,,166.93282050000016,None,None,[],,,,,,,,,,,sub_998,2024-12-02_14h55.31.931,Reversal,2023.1.3,60.024694158976814,2,
,,,exp3.png,0,0,0,0,,,,,0,0,0,0,0,2,2,2,,,,,,,,,,,,,,,,,,,,,,,,,,,,,,,,,,,,,,168.96304599999985,None,None,[],,,,,,,,,,,sub_998,2024-12-02_14h55.31.931,Reversal,2023.1.3,60.024694158976814,2,
,,,exp4.png,0,0,0,0,,,,,0,0,0,0,0,3,3,3,,,,,,,,,,,,,,,,,,,,,,,,,,,,,,,,,,,,,,171.3098904999997,None,None,[],,,,,,,,,,,sub_998,2024-12-02_14h55.31.931,Reversal,2023.1.3,60.024694158976814,2,
0,exp1.png,exp2.png,,1,0,1,0,0,0,0,0,,,,,,,,,,,,,,,,,,,,,,,,,True,,,,,,,,,,,,,,,,,,,,,,,,,,,,,,,,,,,sub_998,2024-12-02_14h55.31.931,Reversal,2023.1.3,60.024694158976814,2,
1,exp3.png,exp4.png,,1,0,1,0,0,1,1,1,,,,,,,,,,,,,,,,,,,,,,,,,False,20,21,False,exp3.png,exp4.png,trial_left_image,1,exp3.png,2,exp3.png,exp4.png,1,3,reversed,correct,0.8564118179514092,1,valid_win,106.89561570000023,12,,,,,,,,,,,,,,,sub_998,2024-12-02_14h55.31.931,Reversal,2023.1.3,60.024694158976814,2,
2,exp1.png,exp2.png,,1,0,1,0,0,2,2,2,,,,,,,,,,,,,,,,,,,,,,,,,False,21,22,True,exp2.png,exp1.png,trial_left_image,1,exp2.png,2,exp1.png,exp2.png,0,2,non-reversed,incorrect,0.2962591431576469,0,valid_lose,111.29371390000051,12,,,,,,,,,,,,,,,sub_998,2024-12-02_14h55.31.931,Reversal,2023.1.3,60.024694158976814,2,
3,exp3.png,exp4.png,,1,0,1,0,0,3,3,3,,,,,,,,,,,,,,,,,,,,,,,,,False,22,23,False,exp3.png,exp4.png,trial_left_image,1,exp3.png,2,exp3.png,exp4.png,1,3,reversed,correct,0.6011307041966492,1,valid_win,116.1918497000006,13,,,,,,,,,,,,,,,sub_998,2024-12-02_14h55.31.931,Reversal,2023.1.3,60.024694158976814,2,
4,exp1.png,exp2.png,,1,0,1,0,0,4,4,4,,,,,,,,,,,,,,,,,,,,,,,,,False,23,24,True,exp2.png,exp1.png,trial_right_image,-1,exp1.png,2,exp1.png,exp2.png,1,1,non-reversed,correct,0.2984236898853948,1,valid_win,121.93997690000015,14,,,,,,,,,,,,,,,sub_998,2024-12-02_14h55.31.931,Reversal,2023.1.3,60.024694158976814,2,
5,exp3.png,exp4.png,,1,0,1,0,0,5,5,5,,,,,,,,,,,,,,,,,,,,,,,,,False,24,25,False,exp3.png,exp4.png,trial_right_image,-1,exp4.png,2,exp3.png,exp4.png,0,4,reversed,incorrect,0.612062625532585,0,valid_lose,126.68895470000007,14,,,,,,,,,,,,,,,sub_998,2024-12-02_14h55.31.931,Reversal,2023.1.3,60.024694158976814,2,
6,exp1.png,exp2.png,,1,0,1,0,0,6,6,6,,,,,,,,,,,,,,,,,,,,,,,,,False,25,26,True,exp2.png,exp1.png,trial_left_image,1,exp2.png,2,exp1.png,exp2.png,0,2,non-reversed,incorrect,0.3970746926202545,0,valid_lose,132.50356700000066,14,,,,,,,,,,,,,,,sub_998,2024-12-02_14h55.31.931,Reversal,2023.1.3,60.024694158976814,2,
7,exp3.png,exp4.png,,1,0,1,0,0,7,7,7,,,,,,,,,,,,,,,,,,,,,,,,,False,26,27,True,exp4.png,exp3.png,trial_right_image,-1,exp3.png,2,exp3.png,exp4.png,1,3,reversed,correct,0.5278253265070025,1,valid_win,137.3692670999999,15,,,,,,,,,,,,,,,sub_998,2024-12-02_14h55.31.931,Reversal,2023.1.3,60.024694158976814,2,
8,exp1.png,exp2.png,,1,0,1,0,0,8,8,8,,,,,,,,,,,,,,,,,,,,,,,,,False,27,28,True,exp2.png,exp1.png,trial_right_image,-1,exp1.png,2,exp1.png,exp2.png,1,1,non-reversed,correct,0.269271483483972,1,valid_win,141.7501946000002,16,,,,,,,,,,,,,,,sub_998,2024-12-02_14h55.31.931,Reversal,2023.1.3,60.024694158976814,2,
9,exp3.png,exp4.png,,1,0,1,0,0,9,9,9,,,,,,,,,,,,,,,,,,,,,,,,,False,28,29,False,exp3.png,exp4.png,trial_left_image,1,exp3.png,2,exp3.png,exp4.png,1,3,reversed,correct,0.7298469199128009,1,valid_win,146.11499860000004,17,,,,,,,,,,,,,,,sub_998,2024-12-02_14h55.31.931,Reversal,2023.1.3,60.024694158976814,2,
10,exp1.png,exp2.png,,1,0,1,0,0,10,10,10,,,,,,,,,,,,,,,,,,,,,,,,,False,29,30,False,exp1.png,exp2.png,trial_left_image,1,exp1.png,2,exp1.png,exp2.png,1,1,non-reversed,correct,0.43280690191275495,1,valid_win,150.38049300000057,18,,,,,,,,,,,,,,,sub_998,2024-12-02_14h55.31.931,Reversal,2023.1.3,60.024694158976814,2,
11,exp3.png,exp4.png,,1,0,1,0,0,11,11,11,,,,,,,,,,,,,,,,,,,,,,,,,False,30,31,False,exp3.png,exp4.png,trial_left_image,1,exp3.png,2,exp3.png,exp4.png,1,3,reversed,correct,0.9269684091287557,1,valid_win,154.62899629999993,19,,,,,,,,,,,,,,,sub_998,2024-12-02_14h55.31.931,Reversal,2023.1.3,60.024694158976814,2,
12,exp1.png,exp2.png,,1,0,1,0,0,12,12,12,,,,,,,,,,,,,,,,,,,,,,,,,False,31,32,False,exp1.png,exp2.png,trial_left_image,1,exp1.png,2,exp1.png,exp2.png,1,1,non-reversed,correct,0.9514086485214449,1,valid_win,158.66117720000057,20,,,,,,,,,,,,,,,sub_998,2024-12-02_14h55.31.931,Reversal,2023.1.3,60.024694158976814,2,
13,exp3.png,exp4.png,,1,0,1,0,0,13,13,13,,,,,,,,,,,,,,,,,,,,,,,,,False,32,33,False,exp3.png,exp4.png,trial_left_image,1,exp3.png,2,exp3.png,exp4.png,1,3,reversed,correct,0.9230109438225863,1,valid_win,162.9782513,21,,,,,,,,,,,,,,,sub_998,2024-12-02_14h55.31.931,Reversal,2023.1.3,60.024694158976814,2,
14,exp1.png,exp2.png,,1,0,1,0,0,14,14,14,,,,,,,,,,,,,,,,,,,,,,,,,False,33,34,True,exp2.png,exp1.png,trial_right_image,-1,exp1.png,2,exp1.png,exp2.png,1,1,non-reversed,correct,0.7097657112656942,1,valid_win,167.2756954000006,22,,,,,,,,,,,,,,,sub_998,2024-12-02_14h55.31.931,Reversal,2023.1.3,60.024694158976814,2,
15,exp3.png,exp4.png,,1,0,1,0,0,15,15,15,,,,,,,,,,,,,,,,,,,,,,,,,False,34,35,True,exp4.png,exp3.png,trial_right_image,-1,exp3.png,2,exp3.png,exp4.png,1,3,reversed,correct,0.407534506293021,1,valid_win,171.6406777000002,23,,,,,,,,,,,,,,,sub_998,2024-12-02_14h55.31.931,Reversal,2023.1.3,60.024694158976814,2,
16,exp1.png,exp2.png,,1,0,1,0,0,16,16,16,,,,,,,,,,,,,,,,,,,,,,,,,False,35,36,False,exp1.png,exp2.png,trial_left_image,1,exp1.png,2,exp1.png,exp2.png,1,1,non-reversed,correct,0.8592051587897568,1,valid_win,175.9551207000004,24,,,,,,,,,,,,,,,sub_998,2024-12-02_14h55.31.931,Reversal,2023.1.3,60.024694158976814,2,
17,exp3.png,exp4.png,,1,0,1,0,0,17,17,17,,,,,,,,,,,,,,,,,,,,,,,,,False,36,37,True,exp4.png,exp3.png,trial_right_image,-1,exp3.png,2,exp3.png,exp4.png,1,3,reversed,correct,0.3659573027375965,1,valid_win,180.08791780000047,25,,,,,,,,,,,,,,,sub_998,2024-12-02_14h55.31.931,Reversal,2023.1.3,60.024694158976814,2,
18,exp1.png,exp2.png,,1,0,1,0,0,18,18,18,,,,,,,,,,,,,,,,,,,,,,,,,False,37,38,False,exp1.png,exp2.png,trial_left_image,1,exp1.png,2,exp1.png,exp2.png,1,1,non-reversed,correct,0.9413125707906068,1,valid_win,184.32000190000053,26,,,,,,,,,,,,,,,sub_998,2024-12-02_14h55.31.931,Reversal,2023.1.3,60.024694158976814,2,
19,exp3.png,exp4.png,,1,0,1,0,0,19,19,19,,,,,,,,,,,,,,,,,,,,,,,,,False,38,39,True,exp4.png,exp3.png,trial_right_image,-1,exp3.png,2,exp3.png,exp4.png,1,3,reversed,correct,0.9226378967175103,1,valid_win,188.60093300000062,27,,,,,,,,,,,,,,,sub_998,2024-12-02_14h55.31.931,Reversal,2023.1.3,60.024694158976814,2,
20,exp1.png,exp2.png,,1,0,1,0,0,20,20,20,,,,,,,,,,,,,,,,,,,,,,,,,False,39,40,True,exp2.png,exp1.png,trial_right_image,-1,exp1.png,2,exp1.png,exp2.png,1,1,non-reversed,correct,0.406129335152168,1,valid_win,192.65150950000043,28,,,,,,,,,,,,,,,sub_998,2024-12-02_14h55.31.931,Reversal,2023.1.3,60.024694158976814,2,
,,,exp1.png,1,0,1,0,,,,,0,0,0,0,0,0,0,0,,,,,,,,,,,,,,,,,,,,,,,,,,,,,,,,,,,,,,263.70012919999954,100.0,3.1423704999997426,"[(100.0, 3.1423704999997426)]",100.0,,,,,,,,,,sub_998,2024-12-02_14h55.31.931,Reversal,2023.1.3,60.024694158976814,2,
,,,exp2.png,1,0,1,0,,,,,0,0,0,0,0,1,1,1,,,,,,,,,,,,,,,,,,,,,,,,,,,,,,,,,,,,,,268.06257800000003,8.0,2.1944617999997718,"[(8.0, 2.1944617999997718)]",,8.0,,,,,,,,,sub_998,2024-12-02_14h55.31.931,Reversal,2023.1.3,60.024694158976814,2,
,,,exp3.png,1,0,1,0,,,,,0,0,0,0,0,2,2,2,,,,,,,,,,,,,,,,,,,,,,,,,,,,,,,,,,,,,,271.46105890000035,100.0,1.7603635999994367,"[(100.0, 1.7603635999994367)]",,,100.0,,,,,,,,sub_998,2024-12-02_14h55.31.931,Reversal,2023.1.3,60.024694158976814,2,
,,,exp4.png,1,0,1,0,,,,,0,0,0,0,0,3,3,3,,,,,,,,,,,,,,,,,,,,,,,,,,,,,,,,,,,,,,274.3932679999998,6.0,1.612832000000708,"[(6.0, 1.612832000000708)]",,,,6.0,,,,,,,sub_998,2024-12-02_14h55.31.931,Reversal,2023.1.3,60.024694158976814,2,
0,exp1.png,exp2.png,,2,0,2,0,0,0,0,0,,,,,,,,,,,,,,,,,,,,,,,,,True,,,,,,,,,,,,,,,,,,,,,,,,,,,,,,,,,,,sub_998,2024-12-02_14h55.31.931,Reversal,2023.1.3,60.024694158976814,2,
1,exp3.png,exp4.png,,2,0,2,0,0,1,1,1,,,,,,,,,,,,,,,,,,,,,,,,,False,40,41,True,exp4.png,exp3.png,trial_right_image,-1,exp3.png,2,exp3.png,exp4.png,1,3,reversed,correct,0.03185331676029235,0,invalid_lose,210.21059409999998,28,,,,,,,,,,,,,,,sub_998,2024-12-02_14h55.31.931,Reversal,2023.1.3,60.024694158976814,2,
2,exp1.png,exp2.png,,2,0,2,0,0,2,2,2,,,,,,,,,,,,,,,,,,,,,,,,,False,41,42,False,exp1.png,exp2.png,trial_right_image,-1,exp2.png,2,exp1.png,exp2.png,0,2,non-reversed,incorrect,0.546453340284287,0,valid_lose,215.47482930000024,28,,,,,,,,,,,,,,,sub_998,2024-12-02_14h55.31.931,Reversal,2023.1.3,60.024694158976814,2,
3,exp3.png,exp4.png,,2,0,2,0,0,3,3,3,,,,,,,,,,,,,,,,,,,,,,,,,False,42,43,True,exp4.png,exp3.png,trial_left_image,1,exp4.png,2,exp3.png,exp4.png,0,4,reversed,incorrect,0.23906813852852926,1,invalid_win,219.82395570000062,29,,,,,,,,,,,,,,,sub_998,2024-12-02_14h55.31.931,Reversal,2023.1.3,60.024694158976814,2,
4,exp1.png,exp2.png,,2,0,2,0,0,4,4,4,,,,,,,,,,,,,,,,,,,,,,,,,False,43,44,True,exp2.png,exp1.png,trial_right_image,-1,exp1.png,2,exp1.png,exp2.png,1,1,non-reversed,correct,0.5394839044312167,1,valid_win,225.85568140000032,30,,,,,,,,,,,,,,,sub_998,2024-12-02_14h55.31.931,Reversal,2023.1.3,60.024694158976814,2,
5,exp3.png,exp4.png,,2,0,2,0,0,5,5,5,,,,,,,,,,,,,,,,,,,,,,,,,False,44,45,True,exp4.png,exp3.png,trial_left_image,1,exp4.png,2,exp3.png,exp4.png,0,4,reversed,incorrect,0.7510609559189239,0,valid_lose,230.07008180000048,30,,,,,,,,,,,,,,,sub_998,2024-12-02_14h55.31.931,Reversal,2023.1.3,60.024694158976814,2,
6,exp1.png,exp2.png,,2,0,2,0,0,6,6,6,,,,,,,,,,,,,,,,,,,,,,,,,False,45,46,False,exp1.png,exp2.png,trial_left_image,1,exp1.png,2,exp1.png,exp2.png,1,1,non-reversed,correct,0.9119591708359654,1,valid_win,235.018462,31,,,,,,,,,,,,,,,sub_998,2024-12-02_14h55.31.931,Reversal,2023.1.3,60.024694158976814,2,
7,exp3.png,exp4.png,,2,0,2,0,0,7,7,7,,,,,,,,,,,,,,,,,,,,,,,,,False,46,47,False,exp3.png,exp4.png,trial_right_image,-1,exp4.png,2,exp3.png,exp4.png,0,4,reversed,incorrect,0.7640766127455616,0,valid_lose,239.6665664000002,31,,,,,,,,,,,,,,,sub_998,2024-12-02_14h55.31.931,Reversal,2023.1.3,60.024694158976814,2,
8,exp1.png,exp2.png,,2,0,2,0,0,8,8,8,,,,,,,,,,,,,,,,,,,,,,,,,False,47,48,True,exp2.png,exp1.png,trial_right_image,-1,exp1.png,2,exp1.png,exp2.png,1,1,non-reversed,correct,0.05715435064828933,0,invalid_lose,244.06561150000016,31,,,,,,,,,,,,,,,sub_998,2024-12-02_14h55.31.931,Reversal,2023.1.3,60.024694158976814,2,
9,exp3.png,exp4.png,,2,0,2,0,0,9,9,9,,,,,,,,,,,,,,,,,,,,,,,,,False,48,49,True,exp4.png,exp3.png,trial_right_image,-1,exp3.png,2,exp3.png,exp4.png,1,3,reversed,correct,0.942062295821856,1,valid_win,250.46303760000046,32,,,,,,,,,,,,,,,sub_998,2024-12-02_14h55.31.931,Reversal,2023.1.3,60.024694158976814,2,
10,exp1.png,exp2.png,,2,0,2,0,0,10,10,10,,,,,,,,,,,,,,,,,,,,,,,,,False,49,50,False,exp1.png,exp2.png,trial_left_image,1,exp1.png,2,exp1.png,exp2.png,1,1,non-reversed,correct,0.8680025761172002,1,valid_win,255.66160690000015,33,,,,,,,,,,,,,,,sub_998,2024-12-02_14h55.31.931,Reversal,2023.1.3,60.024694158976814,2,
11,exp3.png,exp4.png,,2,0,2,0,0,11,11,11,,,,,,,,,,,,,,,,,,,,,,,,,False,50,51,True,exp4.png,exp3.png,trial_right_image,-1,exp3.png,2,exp3.png,exp4.png,1,3,reversed,correct,0.9932633905836353,1,valid_win,261.95928600000025,34,,,,,,,,,,,,,,,sub_998,2024-12-02_14h55.31.931,Reversal,2023.1.3,60.024694158976814,2,
12,exp1.png,exp2.png,,2,0,2,0,0,12,12,12,,,,,,,,,,,,,,,,,,,,,,,,,False,51,52,False,exp1.png,exp2.png,trial_left_image,1,exp1.png,2,exp1.png,exp2.png,1,1,non-reversed,correct,0.039433560859323036,0,invalid_lose,267.1910834999999,34,,,,,,,,,,,,,,,sub_998,2024-12-02_14h55.31.931,Reversal,2023.1.3,60.024694158976814,2,
13,exp3.png,exp4.png,,2,0,2,0,0,13,13,13,,,,,,,,,,,,,,,,,,,,,,,,,False,52,53,False,exp3.png,exp4.png,trial_left_image,1,exp3.png,2,exp3.png,exp4.png,1,3,reversed,correct,0.6720090031845092,1,valid_win,271.92318390000037,35,,,,,,,,,,,,,,,sub_998,2024-12-02_14h55.31.931,Reversal,2023.1.3,60.024694158976814,2,
14,exp1.png,exp2.png,,2,0,2,0,0,14,14,14,,,,,,,,,,,,,,,,,,,,,,,,,False,53,54,False,exp1.png,exp2.png,trial_right_image,-1,exp2.png,2,exp1.png,exp2.png,0,2,non-reversed,incorrect,0.6746009992678849,0,valid_lose,276.3715761000003,35,,,,,,,,,,,,,,,sub_998,2024-12-02_14h55.31.931,Reversal,2023.1.3,60.024694158976814,2,
15,exp3.png,exp4.png,,2,0,2,0,0,15,15,15,,,,,,,,,,,,,,,,,,,,,,,,,False,54,55,False,exp3.png,exp4.png,trial_left_image,1,exp3.png,2,exp3.png,exp4.png,1,3,reversed,correct,0.9162494649954773,1,valid_win,280.90267230000063,36,,,,,,,,,,,,,,,sub_998,2024-12-02_14h55.31.931,Reversal,2023.1.3,60.024694158976814,2,
16,exp1.png,exp2.png,,2,0,2,0,0,16,16,16,,,,,,,,,,,,,,,,,,,,,,,,,False,55,56,True,exp2.png,exp1.png,trial_right_image,-1,exp1.png,2,exp1.png,exp2.png,1,1,non-reversed,correct,0.9496790882894758,1,valid_win,285.41779570000017,37,,,,,,,,,,,,,,,sub_998,2024-12-02_14h55.31.931,Reversal,2023.1.3,60.024694158976814,2,
17,exp3.png,exp4.png,,2,0,2,0,0,17,17,17,,,,,,,,,,,,,,,,,,,,,,,,,False,56,57,True,exp4.png,exp3.png,trial_right_image,-1,exp3.png,2,exp3.png,exp4.png,1,3,reversed,correct,0.4610392615661819,1,valid_win,289.71663979999994,38,,,,,,,,,,,,,,,sub_998,2024-12-02_14h55.31.931,Reversal,2023.1.3,60.024694158976814,2,
18,exp1.png,exp2.png,,2,0,2,0,0,18,18,18,,,,,,,,,,,,,,,,,,,,,,,,,False,57,58,False,exp1.png,exp2.png,trial_left_image,1,exp1.png,2,exp1.png,exp2.png,1,1,non-reversed,correct,0.7141201743503811,1,valid_win,294.16490990000057,39,,,,,,,,,,,,,,,sub_998,2024-12-02_14h55.31.931,Reversal,2023.1.3,60.024694158976814,2,
19,exp3.png,exp4.png,,2,0,2,0,0,19,19,19,,,,,,,,,,,,,,,,,,,,,,,,,False,58,59,True,exp4.png,exp3.png,trial_right_image,-1,exp3.png,2,exp3.png,exp4.png,1,3,reversed,correct,0.8597438070954138,1,valid_win,298.6309215000001,40,,,,,,,,,,,,,,,sub_998,2024-12-02_14h55.31.931,Reversal,2023.1.3,60.024694158976814,2,
20,exp1.png,exp2.png,,2,0,2,0,0,20,20,20,,,,,,,,,,,,,,,,,,,,,,,,,False,59,60,False,exp1.png,exp2.png,trial_left_image,1,exp1.png,2,exp1.png,exp2.png,1,1,non-reversed,correct,0.7267230266617837,1,valid_win,302.72884130000057,41,,,,,,,,,,,,,,,sub_998,2024-12-02_14h55.31.931,Reversal,2023.1.3,60.024694158976814,2,
,,,exp1.png,2,0,2,0,,,,,0,0,0,0,0,0,0,0,,,,,,,,,,,,,,,,,,,,,,,,,,,,,,,,,,,,,,373.7805860999997,84.0,4.5251863999992565,"[(84.0, 4.5251863999992565)]",84.0,,,,,,,,,,sub_998,2024-12-02_14h55.31.931,Reversal,2023.1.3,60.024694158976814,2,
,,,exp2.png,2,0,2,0,,,,,0,0,0,0,0,1,1,1,,,,,,,,,,,,,,,,,,,,,,,,,,,,,,,,,,,,,,379.3908389999997,27.0,2.7784747000005154,"[(27.0, 2.7784747000005154)]",,27.0,,,,,,,,,sub_998,2024-12-02_14h55.31.931,Reversal,2023.1.3,60.024694158976814,2,
,,,exp3.png,2,0,2,0,,,,,0,0,0,0,0,2,2,2,,,,,,,,,,,,,,,,,,,,,,,,,,,,,,,,,,,,,,383.2422467999995,83.0,2.492019000000255,"[(83.0, 2.492019000000255)]",,,83.0,,,,,,,,sub_998,2024-12-02_14h55.31.931,Reversal,2023.1.3,60.024694158976814,2,
,,,exp4.png,2,0,2,0,,,,,0,0,0,0,0,3,3,3,,,,,,,,,,,,,,,,,,,,,,,,,,,,,,,,,,,,,,386.6552464999995,24.0,1.4109051999994335,"[(24.0, 1.4109051999994335)]",,,,24.0,,,,,,,sub_998,2024-12-02_14h55.31.931,Reversal,2023.1.3,60.024694158976814,2,
0,exp1.png,exp2.png,,,,,,,,,,,,,,,,,,0,0,0,0,0,0,0,0,,,,,,,,,True,,,,,,,,,,,,,,,,,,,,,,,,,,,,,,,,,,,sub_998,2024-12-02_14h55.31.931,Reversal,2023.1.3,60.024694158976814,2,
1,exp3.png,exp4.png,,,,,,,,,,,,,,,,,,0,0,0,0,0,1,1,1,,,,,,,,,False,0,61,True,exp4.png,exp3.png,trial_right_image,-1,exp3.png,2,exp4.png,exp3.png,1,3,reversed,incorrect,0.8421128547306834,0,valid_lose,323.8387399000003,41,,,,,,,,,321.5089646000006,,,,,,sub_998,2024-12-02_14h55.31.931,Reversal,2023.1.3,60.024694158976814,2,
2,exp1.png,exp2.png,,,,,,,,,,,,,,,,,,0,0,0,0,0,2,2,2,,,,,,,,,False,1,62,False,exp1.png,exp2.png,trial_left_image,1,exp1.png,2,exp1.png,exp2.png,1,1,non-reversed,correct,0.1813968801465241,0,invalid_lose,328.93622940000023,41,,,,,,,,,,,,,,,sub_998,2024-12-02_14h55.31.931,Reversal,2023.1.3,60.024694158976814,2,
3,exp3.png,exp4.png,,,,,,,,,,,,,,,,,,0,0,0,0,0,3,3,3,,,,,,,,,False,2,63,False,exp3.png,exp4.png,trial_right_image,-1,exp4.png,2,exp4.png,exp3.png,0,4,reversed,correct,0.2663528603660196,1,valid_win,334.2018517000006,42,,,,,,,,,,,,,,,sub_998,2024-12-02_14h55.31.931,Reversal,2023.1.3,60.024694158976814,2,
4,exp1.png,exp2.png,,,,,,,,,,,,,,,,,,0,0,0,0,0,4,4,4,,,,,,,,,False,3,64,False,exp1.png,exp2.png,trial_right_image,-1,exp2.png,2,exp1.png,exp2.png,0,2,non-reversed,incorrect,0.29982288056022155,0,valid_lose,338.9834015000006,42,,,,,,,,,,,,,,,sub_998,2024-12-02_14h55.31.931,Reversal,2023.1.3,60.024694158976814,2,
5,exp3.png,exp4.png,,,,,,,,,,,,,,,,,,0,0,0,0,0,5,5,5,,,,,,,,,False,4,65,False,exp3.png,exp4.png,trial_right_image,-1,exp4.png,2,exp4.png,exp3.png,0,4,reversed,correct,0.1150447268919883,0,invalid_lose,343.4816060000003,42,,,,,,,,,,,,,,,sub_998,2024-12-02_14h55.31.931,Reversal,2023.1.3,60.024694158976814,2,
6,exp1.png,exp2.png,,,,,,,,,,,,,,,,,,0,0,0,0,0,6,6,6,,,,,,,,,False,5,66,False,exp1.png,exp2.png,trial_left_image,1,exp1.png,2,exp1.png,exp2.png,1,1,non-reversed,correct,0.8123739718738799,1,valid_win,348.3132731000005,43,,,,,,,,,,,,,,,sub_998,2024-12-02_14h55.31.931,Reversal,2023.1.3,60.024694158976814,2,
7,exp3.png,exp4.png,,,,,,,,,,,,,,,,,,0,0,0,0,0,7,7,7,,,,,,,,,False,6,67,True,exp4.png,exp3.png,trial_left_image,1,exp4.png,2,exp4.png,exp3.png,0,4,reversed,correct,0.7165834926675845,1,valid_win,353.5450236000006,44,,,,,,,,,,,,,,,sub_998,2024-12-02_14h55.31.931,Reversal,2023.1.3,60.024694158976814,2,
8,exp1.png,exp2.png,,,,,,,,,,,,,,,,,,0,0,0,0,0,8,8,8,,,,,,,,,False,7,68,True,exp2.png,exp1.png,trial_right_image,-1,exp1.png,2,exp1.png,exp2.png,1,1,non-reversed,correct,0.262809553636118,1,valid_win,358.0105749000004,45,,,,,,,,,,,,,,,sub_998,2024-12-02_14h55.31.931,Reversal,2023.1.3,60.024694158976814,2,
9,exp3.png,exp4.png,,,,,,,,,,,,,,,,,,0,0,0,0,0,9,9,9,,,,,,,,,False,8,69,True,exp4.png,exp3.png,trial_left_image,1,exp4.png,2,exp4.png,exp3.png,0,4,reversed,correct,0.6591518384995771,1,valid_win,362.7750265000004,46,,,,,,,,,,,,,,,sub_998,2024-12-02_14h55.31.931,Reversal,2023.1.3,60.024694158976814,2,
10,exp1.png,exp2.png,,,,,,,,,,,,,,,,,,0,0,0,0,0,10,10,10,,,,,,,,,False,9,70,False,exp1.png,exp2.png,trial_left_image,1,exp1.png,2,exp1.png,exp2.png,1,1,non-reversed,correct,0.8291516104595426,1,valid_win,367.10709510000015,47,,,,,,,,,,,,,,,sub_998,2024-12-02_14h55.31.931,Reversal,2023.1.3,60.024694158976814,2,
11,exp3.png,exp4.png,,,,,,,,,,,,,,,,,,0,0,0,0,0,11,11,11,,,,,,,,,False,10,71,True,exp4.png,exp3.png,trial_left_image,1,exp4.png,2,exp4.png,exp3.png,0,4,reversed,correct,0.18020140933969842,0,invalid_lose,371.33893890000036,47,,,,,,,,,,,,,,,sub_998,2024-12-02_14h55.31.931,Reversal,2023.1.3,60.024694158976814,2,
12,exp1.png,exp2.png,,,,,,,,,,,,,,,,,,0,0,0,0,0,12,12,12,,,,,,,,,False,11,72,True,exp2.png,exp1.png,trial_right_image,-1,exp1.png,2,exp1.png,exp2.png,1,1,non-reversed,correct,0.613937066725365,1,valid_win,375.6374658000004,48,,,,,,,,,,,,,,,sub_998,2024-12-02_14h55.31.931,Reversal,2023.1.3,60.024694158976814,2,
13,exp3.png,exp4.png,,,,,,,,,,,,,,,,,,0,0,0,0,0,13,13,13,,,,,,,,,False,12,73,False,exp3.png,exp4.png,trial_right_image,-1,exp4.png,2,exp4.png,exp3.png,0,4,reversed,correct,0.8528608206694104,1,valid_win,380.4025414000007,49,,,,,,,,,,,,,,,sub_998,2024-12-02_14h55.31.931,Reversal,2023.1.3,60.024694158976814,2,
14,exp1.png,exp2.png,,,,,,,,,,,,,,,,,,0,0,0,0,0,14,14,14,,,,,,,,,False,13,74,True,exp2.png,exp1.png,trial_right_image,-1,exp1.png,2,exp1.png,exp2.png,1,1,non-reversed,correct,0.47999536515559493,1,valid_win,384.9343445000004,50,,,,,,,,,,,,,,,sub_998,2024-12-02_14h55.31.931,Reversal,2023.1.3,60.024694158976814,2,
15,exp3.png,exp4.png,,,,,,,,,,,,,,,,,,0,0,0,0,0,15,15,15,,,,,,,,,False,14,75,False,exp3.png,exp4.png,trial_right_image,-1,exp4.png,2,exp4.png,exp3.png,0,4,reversed,correct,0.029856835985329844,0,invalid_lose,389.2668119,50,,,,,,,,,,,,,,,sub_998,2024-12-02_14h55.31.931,Reversal,2023.1.3,60.024694158976814,2,
16,exp1.png,exp2.png,,,,,,,,,,,,,,,,,,0,0,0,0,0,16,16,16,,,,,,,,,False,15,76,True,exp2.png,exp1.png,trial_right_image,-1,exp1.png,2,exp1.png,exp2.png,1,1,non-reversed,correct,0.7270129194208675,1,valid_win,393.83163440000044,51,,,,,,,,,,,,,,,sub_998,2024-12-02_14h55.31.931,Reversal,2023.1.3,60.024694158976814,2,
17,exp3.png,exp4.png,,,,,,,,,,,,,,,,,,0,0,0,0,0,17,17,17,,,,,,,,,False,16,77,False,exp3.png,exp4.png,trial_right_image,-1,exp4.png,2,exp4.png,exp3.png,0,4,reversed,correct,0.6326110573441908,1,valid_win,398.1976321000002,52,,,,,,,,,,,,,,,sub_998,2024-12-02_14h55.31.931,Reversal,2023.1.3,60.024694158976814,2,
18,exp1.png,exp2.png,,,,,,,,,,,,,,,,,,0,0,0,0,0,18,18,18,,,,,,,,,False,17,78,False,exp1.png,exp2.png,trial_left_image,1,exp1.png,2,exp1.png,exp2.png,1,1,non-reversed,correct,0.8784916673461374,1,valid_win,402.64477609999994,53,,,,,,,,,,,,,,,sub_998,2024-12-02_14h55.31.931,Reversal,2023.1.3,60.024694158976814,2,
19,exp3.png,exp4.png,,,,,,,,,,,,,,,,,,0,0,0,0,0,19,19,19,,,,,,,,,False,18,79,True,exp4.png,exp3.png,trial_left_image,1,exp4.png,2,exp4.png,exp3.png,0,4,reversed,correct,0.14635810756263723,0,invalid_lose,406.8605049000007,53,,,,,,,,,,,,,,,sub_998,2024-12-02_14h55.31.931,Reversal,2023.1.3,60.024694158976814,2,
20,exp1.png,exp2.png,,,,,,,,,,,,,,,,,,0,0,0,0,0,20,20,20,,,,,,,,,False,19,80,True,exp2.png,exp1.png,trial_right_image,-1,exp1.png,2,exp1.png,exp2.png,1,1,non-reversed,correct,0.5241878662045167,1,valid_win,411.3939532000004,54,,,,,,,,,,,,,,,sub_998,2024-12-02_14h55.31.931,Reversal,2023.1.3,60.024694158976814,2,
,,,exp1.png,,,,,,,,,,,,,,,,,0,0,0,0,,,,,0,0,0,0,0,0,0,0,,,,,,,,,,,,,,,,,,,,,,482.45011989999966,83.0,2.917919499999698,"[(83.0, 2.917919499999698)]",83.0,,,,,,,,,,sub_998,2024-12-02_14h55.31.931,Reversal,2023.1.3,60.024694158976814,2,
,,,exp2.png,,,,,,,,,,,,,,,,,0,0,0,0,,,,,0,0,0,0,0,1,1,1,,,,,,,,,,,,,,,,,,,,,,486.32124420000036,19.0,2.310087900000326,"[(19.0, 2.310087900000326)]",,19.0,,,,,,,,,sub_998,2024-12-02_14h55.31.931,Reversal,2023.1.3,60.024694158976814,2,
,,,exp3.png,,,,,,,,,,,,,,,,,0,0,0,0,,,,,0,0,0,0,0,2,2,2,,,,,,,,,,,,,,,,,,,,,,489.75137600000016,18.0,2.8805099999999584,"[(18.0, 2.8805099999999584)]",,,18.0,,,,,,,,sub_998,2024-12-02_14h55.31.931,Reversal,2023.1.3,60.024694158976814,2,
,,,exp4.png,,,,,,,,,,,,,,,,,0,0,0,0,,,,,0,0,0,0,0,3,3,3,,,,,,,,,,,,,,,,,,,,,,493.6178238000002,70.0,2.9368122000005314,"[(70.0, 2.9368122000005314)]",,,,70.0,,,,,,,sub_998,2024-12-02_14h55.31.931,Reversal,2023.1.3,60.024694158976814,2,
0,exp1.png,exp2.png,,,,,,,,,,,,,,,,,,1,0,1,0,0,0,0,0,,,,,,,,,True,,,,,,,,,,,,,,,,,,,,,,,,,,,,,,,,,,,sub_998,2024-12-02_14h55.31.931,Reversal,2023.1.3,60.024694158976814,2,
1,exp3.png,exp4.png,,,,,,,,,,,,,,,,,,1,0,1,0,0,1,1,1,,,,,,,,,False,20,81,False,exp3.png,exp4.png,trial_right_image,-1,exp4.png,2,exp4.png,exp3.png,0,4,reversed,correct,0.2541921053930425,1,valid_win,433.23490930000025,55,,,,,,,,,,,,,,,sub_998,2024-12-02_14h55.31.931,Reversal,2023.1.3,60.024694158976814,2,
2,exp1.png,exp2.png,,,,,,,,,,,,,,,,,,1,0,1,0,0,2,2,2,,,,,,,,,False,21,82,False,exp1.png,exp2.png,trial_left_image,1,exp1.png,2,exp1.png,exp2.png,1,1,non-reversed,correct,0.955148575015003,1,valid_win,437.6674049000003,56,,,,,,,,,,,,,,,sub_998,2024-12-02_14h55.31.931,Reversal,2023.1.3,60.024694158976814,2,
3,exp3.png,exp4.png,,,,,,,,,,,,,,,,,,1,0,1,0,0,3,3,3,,,,,,,,,False,22,83,False,exp3.png,exp4.png,trial_right_image,-1,exp4.png,2,exp4.png,exp3.png,0,4,reversed,correct,0.5981273242334413,1,valid_win,441.91486650000024,57,,,,,,,,,,,,,,,sub_998,2024-12-02_14h55.31.931,Reversal,2023.1.3,60.024694158976814,2,
4,exp1.png,exp2.png,,,,,,,,,,,,,,,,,,1,0,1,0,0,4,4,4,,,,,,,,,False,23,84,True,exp2.png,exp1.png,trial_left_image,1,exp2.png,2,exp1.png,exp2.png,0,2,non-reversed,incorrect,0.48734051874044837,0,valid_lose,446.0640405000004,57,,,,,,,,,,,,,,,sub_998,2024-12-02_14h55.31.931,Reversal,2023.1.3,60.024694158976814,2,
5,exp3.png,exp4.png,,,,,,,,,,,,,,,,,,1,0,1,0,0,5,5,5,,,,,,,,,False,24,85,False,exp3.png,exp4.png,trial_right_image,-1,exp4.png,2,exp4.png,exp3.png,0,4,reversed,correct,0.3035304721710733,1,valid_win,450.16341100000045,58,,,,,,,,,,,,,,,sub_998,2024-12-02_14h55.31.931,Reversal,2023.1.3,60.024694158976814,2,
6,exp1.png,exp2.png,,,,,,,,,,,,,,,,,,1,0,1,0,0,6,6,6,,,,,,,,,False,25,86,False,exp1.png,exp2.png,trial_left_image,1,exp1.png,2,exp1.png,exp2.png,1,1,non-reversed,correct,0.49556543271013564,1,valid_win,456.2601007000003,59,,,,,,,,,,,,,,,sub_998,2024-12-02_14h55.31.931,Reversal,2023.1.3,60.024694158976814,2,
7,exp3.png,exp4.png,,,,,,,,,,,,,,,,,,1,0,1,0,0,7,7,7,,,,,,,,,False,26,87,False,exp3.png,exp4.png,trial_right_image,-1,exp4.png,2,exp4.png,exp3.png,0,4,reversed,correct,0.8691200249725018,1,valid_win,460.3920848000007,60,,,,,,,,,,,,,,,sub_998,2024-12-02_14h55.31.931,Reversal,2023.1.3,60.024694158976814,2,
8,exp1.png,exp2.png,,,,,,,,,,,,,,,,,,1,0,1,0,0,8,8,8,,,,,,,,,False,27,88,True,exp2.png,exp1.png,trial_right_image,-1,exp1.png,2,exp1.png,exp2.png,1,1,non-reversed,correct,0.9764554883511627,1,valid_win,465.44030010000006,61,,,,,,,,,,,,,,,sub_998,2024-12-02_14h55.31.931,Reversal,2023.1.3,60.024694158976814,2,
9,exp3.png,exp4.png,,,,,,,,,,,,,,,,,,1,0,1,0,0,9,9,9,,,,,,,,,False,28,89,True,exp4.png,exp3.png,trial_left_image,1,exp4.png,2,exp4.png,exp3.png,0,4,reversed,correct,0.009836764016420085,0,invalid_lose,470.0389713000004,61,,,,,,,,,,,,,,,sub_998,2024-12-02_14h55.31.931,Reversal,2023.1.3,60.024694158976814,2,
10,exp1.png,exp2.png,,,,,,,,,,,,,,,,,,1,0,1,0,0,10,10,10,,,,,,,,,False,29,90,False,exp1.png,exp2.png,trial_left_image,1,exp1.png,2,exp1.png,exp2.png,1,1,non-reversed,correct,0.8421715691452619,1,valid_win,474.4538078000005,62,,,,,,,,,,,,,,,sub_998,2024-12-02_14h55.31.931,Reversal,2023.1.3,60.024694158976814,2,
11,exp3.png,exp4.png,,,,,,,,,,,,,,,,,,1,0,1,0,0,11,11,11,,,,,,,,,False,30,91,False,exp3.png,exp4.png,trial_right_image,-1,exp4.png,2,exp4.png,exp3.png,0,4,reversed,correct,0.8734863990840045,1,valid_win,478.8858327000007,63,,,,,,,,,,,,,,,sub_998,2024-12-02_14h55.31.931,Reversal,2023.1.3,60.024694158976814,2,
12,exp1.png,exp2.png,,,,,,,,,,,,,,,,,,1,0,1,0,0,12,12,12,,,,,,,,,False,31,92,True,exp2.png,exp1.png,trial_right_image,-1,exp1.png,2,exp1.png,exp2.png,1,1,non-reversed,correct,0.8321410607500382,1,valid_win,483.4512938000007,64,,,,,,,,,,,,,,,sub_998,2024-12-02_14h55.31.931,Reversal,2023.1.3,60.024694158976814,2,
13,exp3.png,exp4.png,,,,,,,,,,,,,,,,,,1,0,1,0,0,13,13,13,,,,,,,,,False,32,93,True,exp4.png,exp3.png,trial_left_image,1,exp4.png,2,exp4.png,exp3.png,0,4,reversed,correct,0.23256649096998627,0,invalid_lose,487.6656931000007,64,,,,,,,,,,,,,,,sub_998,2024-12-02_14h55.31.931,Reversal,2023.1.3,60.024694158976814,2,
14,exp1.png,exp2.png,,,,,,,,,,,,,,,,,,1,0,1,0,0,14,14,14,,,,,,,,,False,33,94,True,exp2.png,exp1.png,trial_right_image,-1,exp1.png,2,exp1.png,exp2.png,1,1,non-reversed,correct,0.9873982430425524,1,valid_win,491.7479589000004,65,,,,,,,,,,,,,,,sub_998,2024-12-02_14h55.31.931,Reversal,2023.1.3,60.024694158976814,2,
15,exp3.png,exp4.png,,,,,,,,,,,,,,,,,,1,0,1,0,0,15,15,15,,,,,,,,,False,34,95,True,exp4.png,exp3.png,trial_right_image,-1,exp3.png,2,exp4.png,exp3.png,1,3,reversed,incorrect,0.2754613840237343,0,valid_lose,495.8466044000006,65,,,,,,,,,,,,,,,sub_998,2024-12-02_14h55.31.931,Reversal,2023.1.3,60.024694158976814,2,
16,exp1.png,exp2.png,,,,,,,,,,,,,,,,,,1,0,1,0,0,16,16,16,,,,,,,,,False,35,96,True,exp2.png,exp1.png,trial_right_image,-1,exp1.png,2,exp1.png,exp2.png,1,1,non-reversed,correct,0.808258893254137,1,valid_win,500.64546060000066,66,,,,,,,,,,,,,,,sub_998,2024-12-02_14h55.31.931,Reversal,2023.1.3,60.024694158976814,2,
17,exp3.png,exp4.png,,,,,,,,,,,,,,,,,,1,0,1,0,0,17,17,17,,,,,,,,,False,36,97,False,exp3.png,exp4.png,trial_right_image,-1,exp4.png,2,exp4.png,exp3.png,0,4,reversed,correct,0.9218189607011336,1,valid_win,504.84326539999984,67,,,,,,,,,,,,,,,sub_998,2024-12-02_14h55.31.931,Reversal,2023.1.3,60.024694158976814,2,
18,exp1.png,exp2.png,,,,,,,,,,,,,,,,,,1,0,1,0,0,18,18,18,,,,,,,,,False,37,98,False,exp1.png,exp2.png,trial_left_image,1,exp1.png,2,exp1.png,exp2.png,1,1,non-reversed,correct,0.3372009942827753,1,valid_win,510.37491039999986,68,,,,,,,,,,,,,,,sub_998,2024-12-02_14h55.31.931,Reversal,2023.1.3,60.024694158976814,2,
19,exp3.png,exp4.png,,,,,,,,,,,,,,,,,,1,0,1,0,0,19,19,19,,,,,,,,,False,38,99,True,exp4.png,exp3.png,trial_left_image,1,exp4.png,2,exp4.png,exp3.png,0,4,reversed,correct,0.042539212927735104,0,invalid_lose,514.9073683000006,68,,,,,,,,,,,,,,,sub_998,2024-12-02_14h55.31.931,Reversal,2023.1.3,60.024694158976814,2,
20,exp1.png,exp2.png,,,,,,,,,,,,,,,,,,1,0,1,0,0,20,20,20,,,,,,,,,False,39,100,True,exp2.png,exp1.png,trial_right_image,-1,exp1.png,2,exp1.png,exp2.png,1,1,non-reversed,correct,0.41848079248951575,1,valid_win,519.1054038000002,69,,,,,,,,,,,,,,,sub_998,2024-12-02_14h55.31.931,Reversal,2023.1.3,60.024694158976814,2,
,,,exp1.png,,,,,,,,,,,,,,,,,1,0,1,0,,,,,0,0,0,0,0,0,0,0,,,,,,,,,,,,,,,,,,,,,,590.1548721999998,100.0,2.8430551000001287,"[(100.0, 2.8430551000001287)]",100.0,,,,,,,,,,sub_998,2024-12-02_14h55.31.931,Reversal,2023.1.3,60.024694158976814,2,
,,,exp2.png,,,,,,,,,,,,,,,,,1,0,1,0,,,,,0,0,0,0,0,1,1,1,,,,,,,,,,,,,,,,,,,,,,593.9685673000004,None,None,[],,,,,,,,,,,sub_998,2024-12-02_14h55.31.931,Reversal,2023.1.3,60.024694158976814,2,
,,,exp3.png,,,,,,,,,,,,,,,,,1,0,1,0,,,,,0,0,0,0,0,2,2,2,,,,,,,,,,,,,,,,,,,,,,598.1734964999996,33.0,3.9378907999998773,"[(33.0, 3.9378907999998773)]",,,33.0,,,,,,,,sub_998,2024-12-02_14h55.31.931,Reversal,2023.1.3,60.024694158976814,2,
,,,exp4.png,,,,,,,,,,,,,,,,,1,0,1,0,,,,,0,0,0,0,0,3,3,3,,,,,,,,,,,,,,,,,,,,,,603.2472649000001,58.0,1.7107270000005883,"[(58.0, 1.7107270000005883)]",,,,58.0,,,,,,,sub_998,2024-12-02_14h55.31.931,Reversal,2023.1.3,60.024694158976814,2,
0,exp1.png,exp2.png,,,,,,,,,,,,,,,,,,2,0,2,0,0,0,0,0,,,,,,,,,True,,,,,,,,,,,,,,,,,,,,,,,,,,,,,,,,,,,sub_998,2024-12-02_14h55.31.931,Reversal,2023.1.3,60.024694158976814,2,
1,exp3.png,exp4.png,,,,,,,,,,,,,,,,,,2,0,2,0,0,1,1,1,,,,,,,,,False,40,101,False,exp3.png,exp4.png,trial_left_image,1,exp3.png,2,exp4.png,exp3.png,1,3,reversed,incorrect,0.9880740742125531,0,valid_lose,541.2819712999999,69,,,,,,,,,,,,,,,sub_998,2024-12-02_14h55.31.931,Reversal,2023.1.3,60.024694158976814,2,
2,exp1.png,exp2.png,,,,,,,,,,,,,,,,,,2,0,2,0,0,2,2,2,,,,,,,,,False,41,102,True,exp2.png,exp1.png,trial_right_image,-1,exp1.png,2,exp1.png,exp2.png,1,1,non-reversed,correct,0.029743418793225396,0,invalid_lose,545.3298171000006,69,,,,,,,,,,,,,,,sub_998,2024-12-02_14h55.31.931,Reversal,2023.1.3,60.024694158976814,2,
3,exp3.png,exp4.png,,,,,,,,,,,,,,,,,,2,0,2,0,0,3,3,3,,,,,,,,,False,42,103,True,exp4.png,exp3.png,trial_left_image,1,exp4.png,2,exp4.png,exp3.png,0,4,reversed,correct,0.2651354917435046,1,valid_win,551.0613249000007,70,,,,,,,,,,,,,,,sub_998,2024-12-02_14h55.31.931,Reversal,2023.1.3,60.024694158976814,2,
4,exp1.png,exp2.png,,,,,,,,,,,,,,,,,,2,0,2,0,0,4,4,4,,,,,,,,,False,43,104,True,exp2.png,exp1.png,trial_left_image,1,exp2.png,2,exp1.png,exp2.png,0,2,non-reversed,incorrect,0.518574949304319,0,valid_lose,555.4768196000005,70,,,,,,,,,,,,,,,sub_998,2024-12-02_14h55.31.931,Reversal,2023.1.3,60.024694158976814,2,
5,exp3.png,exp4.png,,,,,,,,,,,,,,,,,,2,0,2,0,0,5,5,5,,,,,,,,,False,44,105,True,exp4.png,exp3.png,trial_left_image,1,exp4.png,2,exp4.png,exp3.png,0,4,reversed,correct,0.30702654108296223,1,valid_win,559.9084962000006,71,,,,,,,,,,,,,,,sub_998,2024-12-02_14h55.31.931,Reversal,2023.1.3,60.024694158976814,2,
6,exp1.png,exp2.png,,,,,,,,,,,,,,,,,,2,0,2,0,0,6,6,6,,,,,,,,,False,45,106,False,exp1.png,exp2.png,trial_right_image,-1,exp2.png,2,exp1.png,exp2.png,0,2,non-reversed,incorrect,0.8922656838839863,0,valid_lose,564.1416859000001,71,,,,,,,,,,,,,,,sub_998,2024-12-02_14h55.31.931,Reversal,2023.1.3,60.024694158976814,2,
7,exp3.png,exp4.png,,,,,,,,,,,,,,,,,,2,0,2,0,0,7,7,7,,,,,,,,,False,46,107,False,exp3.png,exp4.png,trial_right_image,-1,exp4.png,2,exp4.png,exp3.png,0,4,reversed,correct,0.9714345458740781,1,valid_win,568.3890787999999,72,,,,,,,,,,,,,,,sub_998,2024-12-02_14h55.31.931,Reversal,2023.1.3,60.024694158976814,2,
8,exp1.png,exp2.png,,,,,,,,,,,,,,,,,,2,0,2,0,0,8,8,8,,,,,,,,,False,47,108,False,exp1.png,exp2.png,trial_left_image,1,exp1.png,2,exp1.png,exp2.png,1,1,non-reversed,correct,0.9398486440071054,1,valid_win,572.4540857000002,73,,,,,,,,,,,,,,,sub_998,2024-12-02_14h55.31.931,Reversal,2023.1.3,60.024694158976814,2,
9,exp3.png,exp4.png,,,,,,,,,,,,,,,,,,2,0,2,0,0,9,9,9,,,,,,,,,False,48,109,False,exp3.png,exp4.png,trial_right_image,-1,exp4.png,2,exp4.png,exp3.png,0,4,reversed,correct,0.2733492935073323,1,valid_win,576.6360869,74,,,,,,,,,,,,,,,sub_998,2024-12-02_14h55.31.931,Reversal,2023.1.3,60.024694158976814,2,
10,exp1.png,exp2.png,,,,,,,,,,,,,,,,,,2,0,2,0,0,10,10,10,,,,,,,,,False,49,110,True,exp2.png,exp1.png,trial_right_image,-1,exp1.png,2,exp1.png,exp2.png,1,1,non-reversed,correct,0.8908857846855726,1,valid_win,581.5841893000006,75,,,,,,,,,,,,,,,sub_998,2024-12-02_14h55.31.931,Reversal,2023.1.3,60.024694158976814,2,
11,exp3.png,exp4.png,,,,,,,,,,,,,,,,,,2,0,2,0,0,11,11,11,,,,,,,,,False,50,111,False,exp3.png,exp4.png,trial_right_image,-1,exp4.png,2,exp4.png,exp3.png,0,4,reversed,correct,0.9604725938103365,1,valid_win,585.8998215000001,76,,,,,,,,,,,,,,,sub_998,2024-12-02_14h55.31.931,Reversal,2023.1.3,60.024694158976814,2,
12,exp1.png,exp2.png,,,,,,,,,,,,,,,,,,2,0,2,0,0,12,12,12,,,,,,,,,False,51,112,True,exp2.png,exp1.png,trial_right_image,-1,exp1.png,2,exp1.png,exp2.png,1,1,non-reversed,correct,0.5611164858627883,1,valid_win,589.8977752000001,77,,,,,,,,,,,,,,,sub_998,2024-12-02_14h55.31.931,Reversal,2023.1.3,60.024694158976814,2,
13,exp3.png,exp4.png,,,,,,,,,,,,,,,,,,2,0,2,0,0,13,13,13,,,,,,,,,False,52,113,False,exp3.png,exp4.png,trial_right_image,-1,exp4.png,2,exp4.png,exp3.png,0,4,reversed,correct,0.6155243879591301,1,valid_win,593.9800303000002,78,,,,,,,,,,,,,,,sub_998,2024-12-02_14h55.31.931,Reversal,2023.1.3,60.024694158976814,2,
14,exp1.png,exp2.png,,,,,,,,,,,,,,,,,,2,0,2,0,0,14,14,14,,,,,,,,,False,53,114,True,exp2.png,exp1.png,trial_right_image,-1,exp1.png,2,exp1.png,exp2.png,1,1,non-reversed,correct,0.973537206639333,1,valid_win,598.4618035000003,79,,,,,,,,,,,,,,,sub_998,2024-12-02_14h55.31.931,Reversal,2023.1.3,60.024694158976814,2,
15,exp3.png,exp4.png,,,,,,,,,,,,,,,,,,2,0,2,0,0,15,15,15,,,,,,,,,False,54,115,True,exp4.png,exp3.png,trial_left_image,1,exp4.png,2,exp4.png,exp3.png,0,4,reversed,correct,0.6523050222483411,1,valid_win,602.9770450000005,80,,,,,,,,,,,,,,,sub_998,2024-12-02_14h55.31.931,Reversal,2023.1.3,60.024694158976814,2,
16,exp1.png,exp2.png,,,,,,,,,,,,,,,,,,2,0,2,0,0,16,16,16,,,,,,,,,False,55,116,True,exp2.png,exp1.png,trial_right_image,-1,exp1.png,2,exp1.png,exp2.png,1,1,non-reversed,correct,0.37306780315797183,1,valid_win,607.0586793000002,81,,,,,,,,,,,,,,,sub_998,2024-12-02_14h55.31.931,Reversal,2023.1.3,60.024694158976814,2,
17,exp3.png,exp4.png,,,,,,,,,,,,,,,,,,2,0,2,0,0,17,17,17,,,,,,,,,False,56,117,False,exp3.png,exp4.png,trial_right_image,-1,exp4.png,2,exp4.png,exp3.png,0,4,reversed,correct,0.2683690084498661,1,valid_win,611.2074053000006,82,,,,,,,,,,,,,,,sub_998,2024-12-02_14h55.31.931,Reversal,2023.1.3,60.024694158976814,2,
18,exp1.png,exp2.png,,,,,,,,,,,,,,,,,,2,0,2,0,0,18,18,18,,,,,,,,,False,57,118,False,exp1.png,exp2.png,trial_left_image,1,exp1.png,2,exp1.png,exp2.png,1,1,non-reversed,correct,0.17389494880798972,0,invalid_lose,615.4894050000003,82,,,,,,,,,,,,,,,sub_998,2024-12-02_14h55.31.931,Reversal,2023.1.3,60.024694158976814,2,
19,exp3.png,exp4.png,,,,,,,,,,,,,,,,,,2,0,2,0,0,19,19,19,,,,,,,,,False,58,119,True,exp4.png,exp3.png,trial_left_image,1,exp4.png,2,exp4.png,exp3.png,0,4,reversed,correct,0.08637401297074399,0,invalid_lose,619.7548606,82,,,,,,,,,,,,,,,sub_998,2024-12-02_14h55.31.931,Reversal,2023.1.3,60.024694158976814,2,
20,exp1.png,exp2.png,,,,,,,,,,,,,,,,,,2,0,2,0,0,20,20,20,,,,,,,,,False,59,120,False,exp1.png,exp2.png,trial_left_image,1,exp1.png,2,exp1.png,exp2.png,1,1,non-reversed,correct,0.25695232439188476,1,valid_win,623.8553595000003,83,,,,,,,,,,,,,,,sub_998,2024-12-02_14h55.31.931,Reversal,2023.1.3,60.024694158976814,2,
,,,exp1.png,,,,,,,,,,,,,,,,,2,0,2,0,,,,,0,0,0,0,0,0,0,0,,,,,,,,,,,,,,,,,,,,,,694.9211703999999,59.0,4.041719400000147,"[(59.0, 4.041719400000147)]",59.0,,,,,,,,,,sub_998,2024-12-02_14h55.31.931,Reversal,2023.1.3,60.024694158976814,2,
,,,exp2.png,,,,,,,,,,,,,,,,,2,0,2,0,,,,,0,0,0,0,0,1,1,1,,,,,,,,,,,,,,,,,,,,,,699.8822515000002,38.0,3.6769216000002416,"[(38.0, 3.6769216000002416)]",,38.0,,,,,,,,,sub_998,2024-12-02_14h55.31.931,Reversal,2023.1.3,60.024694158976814,2,
,,,exp3.png,,,,,,,,,,,,,,,,,2,0,2,0,,,,,0,0,0,0,0,2,2,2,,,,,,,,,,,,,,,,,,,,,,704.4465131999996,62.0,4.143381999999292,"[(62.0, 4.143381999999292)]",,,62.0,,,,,,,,sub_998,2024-12-02_14h55.31.931,Reversal,2023.1.3,60.024694158976814,2,
,,,exp4.png,,,,,,,,,,,,,,,,,2,0,2,0,,,,,0,0,0,0,0,3,3,3,,,,,,,,,,,,,,,,,,,,,,709.4949422,65.0,2.511933100000533,"[(65.0, 2.511933100000533)]",,,,65.0,,,,,,,sub_998,2024-12-02_14h55.31.931,Reversal,2023.1.3,60.024694158976814,2,
,,,,,,,,,,,,,,,,,,,,,,,,,,,,,,,,,,,,,,,,,,,,,,,,,,,,,,,,83,,,,,,,,,,93,40,53,322.80509339999935,0,,,,,,,
