trial_index,trial_image1_file,trial_image2_file,image_file,learning_outer_loop.thisRepN,learning_outer_loop.thisTrialN,learning_outer_loop.thisN,learning_outer_loop.thisIndex,learning_inner_loop.thisRepN,learning_inner_loop.thisTrialN,learning_inner_loop.thisN,learning_inner_loop.thisIndex,learning_estimation_outer_loop.thisRepN,learning_estimation_outer_loop.thisTrialN,learning_estimation_outer_loop.thisN,learning_estimation_outer_loop.thisIndex,learning_estimation_inner_loop.thisRepN,learning_estimation_inner_loop.thisTrialN,learning_estimation_inner_loop.thisN,learning_estimation_inner_loop.thisIndex,reversal_outer_loop.thisRepN,reversal_outer_loop.thisTrialN,reversal_outer_loop.thisN,reversal_outer_loop.thisIndex,reversal_inner_loop.thisRepN,reversal_inner_loop.thisTrialN,reversal_inner_loop.thisN,reversal_inner_loop.thisIndex,reversal_estimation_outer_loop.thisRepN,reversal_estimation_outer_loop.thisTrialN,reversal_estimation_outer_loop.thisN,reversal_estimation_outer_loop.thisIndex,reversal_estimation_inner_loop.thisRepN,reversal_estimation_inner_loop.thisTrialN,reversal_estimation_inner_loop.thisN,reversal_estimation_inner_loop.thisIndex,thisRow.t,notes,instructions1.started,instructions1.stopped,instructions2.started,instructions2.stopped,instructions3.started,instructions3.stopped,intstructions4.started,intstructions4.stopped,instructions5.started,instructions5.stopped,mindware_trigger_learning.started,mindware_trigger_learning.stopped,trial.started,skipped,trial.stopped,feedback_preparation.started,feedback_preparation.stopped,feedback.started,feedback.stopped,total_trial_counter,trial_num,left_right_flip,left_image_file,right_image_file,clicked_stimulus_side,side,clicked_stimulus,version,high_prob_image_file,low_prob_image_file,choice_a,choice_b,pair_type,correct,trial_feedback_random,reward,trial_type,overall_time_after_trial,score,estimation.started,estimation_rating.started,estimation.stopped,estimation_exp1.png,estimation_rating.response,estimation_rating.rt,estimation_rating.history,estimation_exp2.png,estimation_exp3.png,estimation_exp4.png,mindware_trigger_reversal.started,mindware_trigger_reversal.stopped,total_learning_time,thank_you.started,total_correct,learning_correct,reversal_correct,total_reversal_time,extra_block,participant,date,expName,psychopyVersion,frameRate,ver,expStart,
0,exp1.png,exp2.png,,0,0,0,0,0,0,0,0,,,,,,,,,,,,,,,,,,,,,,,,,85.8702025001403,,0.02013790002092719,49.26344250002876,49.26347150001675,57.95065170014277,57.950692400103435,66.81537530012429,66.81540930015035,71.24733360018581,71.24737240001559,85.57914430019446,85.60764120006934,85.60890300013125,85.60893650003709,True,85.71684700017795,85.71686330018565,85.73406539997086,85.73407990019768,85.74901990010403,,,,,,,,,,,,,,,,,,,,,,,,,,,,,,,,,,,,,,,,sub_794,2024-06-18_17h39.40.549,Reversal,2023.2.1,60.06695061549031,2,2024-06-18 17h39.56.166100 +0300,
1,exp3.png,exp4.png,,0,0,0,0,0,1,1,1,,,,,,,,,,,,,,,,,,,,,,,,,85.8702025001403,,,,,,,,,,,,85.74927320005372,85.74951150012203,85.74952360009775,False,89.02701320010237,89.02736940002069,89.64194340002723,89.64197720005177,91.43974569998682,0,1,True,exp4.png,exp3.png,trial_left_image,1,exp4.png,2,exp3.png,exp4.png,0,4,reversed,incorrect,0.5236331801696571,0,valid_lose,3.448173499898985,0,,,,,,,,,,,,,,,,,,,,sub_794,2024-06-18_17h39.40.549,Reversal,2023.2.1,60.06695061549031,2,2024-06-18 17h39.56.166100 +0300,
2,exp1.png,exp2.png,,0,0,0,0,0,2,2,2,,,,,,,,,,,,,,,,,,,,,,,,,91.57146960007958,,,,,,,,,,,,91.4401781000197,91.44074030010961,91.44076320016757,False,95.25945920008235,95.2598702001851,95.87454920005985,95.87457640003413,97.67284250003286,1,2,True,exp2.png,exp1.png,trial_left_image,1,exp2.png,2,exp1.png,exp2.png,0,2,non-reversed,incorrect,0.0075838157107143145,1,invalid_win,9.680673899827525,1,,,,,,,,,,,,,,,,,,,,sub_794,2024-06-18_17h39.40.549,Reversal,2023.2.1,60.06695061549031,2,2024-06-18 17h39.56.166100 +0300,
3,exp3.png,exp4.png,,0,0,0,0,0,3,3,3,,,,,,,,,,,,,,,,,,,,,,,,,97.82128840009682,,,,,,,,,,,,97.67375420010649,97.6747844000347,97.67483460018411,False,101.64254670008086,101.64296229998581,102.2575455000624,102.25757280015387,104.05485640000552,2,3,True,exp4.png,exp3.png,trial_right_image,-1,exp3.png,2,exp3.png,exp4.png,1,3,reversed,correct,0.47823714292865516,1,valid_win,16.06376269995235,2,,,,,,,,,,,,,,,,,,,,sub_794,2024-06-18_17h39.40.549,Reversal,2023.2.1,60.06695061549031,2,2024-06-18 17h39.56.166100 +0300,
4,exp1.png,exp2.png,,0,0,0,0,0,4,4,4,,,,,,,,,,,,,,,,,,,,,,,,,104.1831700000912,,,,,,,,,,,,104.05521650006995,104.05568140000105,104.0557002001442,False,110.65828329999931,110.65878150006756,111.2729237000458,111.27297529997304,113.070235399995,3,4,False,exp1.png,exp2.png,trial_left_image,1,exp1.png,2,exp1.png,exp2.png,1,1,non-reversed,correct,0.6332880735562576,1,valid_win,25.079578599892557,3,,,,,,,,,,,,,,,,,,,,sub_794,2024-06-18_17h39.40.549,Reversal,2023.2.1,60.06695061549031,2,2024-06-18 17h39.56.166100 +0300,
5,exp3.png,exp4.png,,0,0,0,0,0,5,5,5,,,,,,,,,,,,,,,,,,,,,,,,,113.2090876000002,,,,,,,,,,,,113.07084950013086,113.07149820006453,113.07152850017883,False,116.10739120002836,116.1078850000631,116.72192410007119,116.72198030003347,118.52002350008115,4,5,True,exp4.png,exp3.png,trial_right_image,-1,exp3.png,2,exp3.png,exp4.png,1,3,reversed,correct,0.8203965716262388,1,valid_win,30.528679999988526,4,,,,,,,,,,,,,,,,,,,,sub_794,2024-06-18_17h39.40.549,Reversal,2023.2.1,60.06695061549031,2,2024-06-18 17h39.56.166100 +0300,
6,exp1.png,exp2.png,,0,0,0,0,0,6,6,6,,,,,,,,,,,,,,,,,,,,,,,,,118.66223350004293,,,,,,,,,,,,118.52092969999649,118.5219360999763,118.52198540000245,False,122.47350650001317,122.47392900008708,123.08768770005554,123.08772510010749,124.88553049997427,5,6,False,exp1.png,exp2.png,trial_right_image,-1,exp2.png,2,exp1.png,exp2.png,0,2,non-reversed,incorrect,0.3135647509950982,0,valid_lose,36.89473049994558,4,,,,,,,,,,,,,,,,,,,,sub_794,2024-06-18_17h39.40.549,Reversal,2023.2.1,60.06695061549031,2,2024-06-18 17h39.56.166100 +0300,
7,exp3.png,exp4.png,,0,0,0,0,0,7,7,7,,,,,,,,,,,,,,,,,,,,,,,,,125.02148550003767,,,,,,,,,,,,124.88621420017444,124.88685400015675,124.88687980012037,False,128.1045014001429,128.10472750011832,128.7203039000742,128.7203324001748,130.51848930004053,6,7,True,exp4.png,exp3.png,trial_right_image,-1,exp3.png,2,exp3.png,exp4.png,1,3,reversed,correct,0.9916989332032465,1,valid_win,42.52553869993426,5,,,,,,,,,,,,,,,,,,,,sub_794,2024-06-18_17h39.40.549,Reversal,2023.2.1,60.06695061549031,2,2024-06-18 17h39.56.166100 +0300,
8,exp1.png,exp2.png,,0,0,0,0,0,8,8,8,,,,,,,,,,,,,,,,,,,,,,,,,130.6620781000238,,,,,,,,,,,,130.51934300013818,130.52022810000926,130.52027450012974,False,133.3549177001696,133.3553071001079,133.9697746001184,133.96980480011553,135.76769500016235,7,8,False,exp1.png,exp2.png,trial_left_image,1,exp1.png,2,exp1.png,exp2.png,1,1,non-reversed,correct,0.15996197978106974,0,invalid_lose,47.77610889985226,5,,,,,,,,,,,,,,,,,,,,sub_794,2024-06-18_17h39.40.549,Reversal,2023.2.1,60.06695061549031,2,2024-06-18 17h39.56.166100 +0300,
9,exp3.png,exp4.png,,0,0,0,0,0,9,9,9,,,,,,,,,,,,,,,,,,,,,,,,,135.909392000176,,,,,,,,,,,,135.76811030018143,135.7686237001326,135.76864480017684,False,139.3210569000803,139.3215767000802,139.93544220016338,139.93546389997937,141.73328330018558,8,9,False,exp3.png,exp4.png,trial_left_image,1,exp3.png,2,exp3.png,exp4.png,1,3,reversed,correct,0.6953427480861678,1,valid_win,53.74236969999038,6,,,,,,,,,,,,,,,,,,,,sub_794,2024-06-18_17h39.40.549,Reversal,2023.2.1,60.06695061549031,2,2024-06-18 17h39.56.166100 +0300,
10,exp1.png,exp2.png,,0,0,0,0,0,10,10,10,,,,,,,,,,,,,,,,,,,,,,,,,141.86427780007944,,,,,,,,,,,,141.73371529998258,141.73426240007393,141.73428580001928,False,145.470002300106,145.4703885000199,146.08495150017552,146.0849748000037,147.88283470016904,9,10,True,exp2.png,exp1.png,trial_right_image,-1,exp1.png,2,exp1.png,exp2.png,1,1,non-reversed,correct,0.15389583179222333,0,invalid_lose,59.89119219989516,6,,,,,,,,,,,,,,,,,,,,sub_794,2024-06-18_17h39.40.549,Reversal,2023.2.1,60.06695061549031,2,2024-06-18 17h39.56.166100 +0300,
11,exp3.png,exp4.png,,0,0,0,0,0,11,11,11,,,,,,,,,,,,,,,,,,,,,,,,,148.03632760001346,,,,,,,,,,,,147.88352979999036,147.88440890004858,147.8844495001249,False,153.10215460020117,153.10259690019302,153.7178142000921,153.71784000005573,155.51503870007582,10,11,False,exp3.png,exp4.png,trial_right_image,-1,exp4.png,2,exp3.png,exp4.png,0,4,reversed,incorrect,0.5408084483205873,0,valid_lose,67.52339729992673,6,,,,,,,,,,,,,,,,,,,,sub_794,2024-06-18_17h39.40.549,Reversal,2023.2.1,60.06695061549031,2,2024-06-18 17h39.56.166100 +0300,
12,exp1.png,exp2.png,,0,0,0,0,0,12,12,12,,,,,,,,,,,,,,,,,,,,,,,,,155.66005520010367,,,,,,,,,,,,155.51587130012922,155.5167746001389,155.51682020002045,False,157.48531919997185,157.48581800004467,158.1000930001028,158.10011820006184,159.8977946001105,11,12,False,exp1.png,exp2.png,trial_right_image,-1,exp2.png,2,exp1.png,exp2.png,0,2,non-reversed,incorrect,0.4969696252132997,0,valid_lose,71.90661419997923,6,,,,,,,,,,,,,,,,,,,,sub_794,2024-06-18_17h39.40.549,Reversal,2023.2.1,60.06695061549031,2,2024-06-18 17h39.56.166100 +0300,
13,exp3.png,exp4.png,,0,0,0,0,0,13,13,13,,,,,,,,,,,,,,,,,,,,,,,,,160.03232830017805,,,,,,,,,,,,159.8983767000027,159.89902320015244,159.89905290002935,False,162.16784280003048,162.16816400014795,162.782719100127,162.78277300018817,164.58096940000542,12,13,False,exp3.png,exp4.png,trial_left_image,1,exp3.png,2,exp3.png,exp4.png,1,3,reversed,correct,0.531406823830405,1,valid_win,76.58897119993344,7,,,,,,,,,,,,,,,,,,,,sub_794,2024-06-18_17h39.40.549,Reversal,2023.2.1,60.06695061549031,2,2024-06-18 17h39.56.166100 +0300,
14,exp1.png,exp2.png,,0,0,0,0,0,14,14,14,,,,,,,,,,,,,,,,,,,,,,,,,164.7243447001092,,,,,,,,,,,,164.58167470013723,164.58249810012057,164.582541000098,False,167.33372710016556,167.33408230007626,167.9487841001246,167.94880959996954,169.74666510010138,13,14,True,exp2.png,exp1.png,trial_right_image,-1,exp1.png,2,exp1.png,exp2.png,1,1,non-reversed,correct,0.44643487159583706,1,valid_win,81.75488639995456,8,,,,,,,,,,,,,,,,,,,,sub_794,2024-06-18_17h39.40.549,Reversal,2023.2.1,60.06695061549031,2,2024-06-18 17h39.56.166100 +0300,
15,exp3.png,exp4.png,,0,0,0,0,0,15,15,15,,,,,,,,,,,,,,,,,,,,,,,,,169.8957408000715,,,,,,,,,,,,169.7473716000095,169.74812200013548,169.7481564001646,False,177.33252499997616,177.33287980011664,177.9474155001808,177.9474486000836,179.74527380010113,14,15,False,exp3.png,exp4.png,trial_right_image,-1,exp4.png,2,exp3.png,exp4.png,0,4,reversed,incorrect,0.41522597547844675,0,valid_lose,91.75368389999494,8,,,,,,,,,,,,,,,,,,,,sub_794,2024-06-18_17h39.40.549,Reversal,2023.2.1,60.06695061549031,2,2024-06-18 17h39.56.166100 +0300,
16,exp1.png,exp2.png,,0,0,0,0,0,16,16,16,,,,,,,,,,,,,,,,,,,,,,,,,179.88501930003986,,,,,,,,,,,,179.74593900004402,179.74674750003032,179.74678480019793,False,183.81487830006517,183.81522670015693,184.4301082000602,184.4301285999827,186.2275378999766,15,16,True,exp2.png,exp1.png,trial_right_image,-1,exp1.png,2,exp1.png,exp2.png,1,1,non-reversed,correct,0.07487845454268216,0,invalid_lose,98.23603179981001,8,,,,,,,,,,,,,,,,,,,,sub_794,2024-06-18_17h39.40.549,Reversal,2023.2.1,60.06695061549031,2,2024-06-18 17h39.56.166100 +0300,
17,exp3.png,exp4.png,,0,0,0,0,0,17,17,17,,,,,,,,,,,,,,,,,,,,,,,,,186.36423419998027,,,,,,,,,,,,186.22796689998358,186.22851040004753,186.22853339998983,False,190.1812081001699,190.18170590000227,190.7960638999939,190.7960975000169,192.59388440009207,16,17,False,exp3.png,exp4.png,trial_left_image,1,exp3.png,2,exp3.png,exp4.png,1,3,reversed,correct,0.9985432728696928,1,valid_win,104.60250279982574,9,,,,,,,,,,,,,,,,,,,,sub_794,2024-06-18_17h39.40.549,Reversal,2023.2.1,60.06695061549031,2,2024-06-18 17h39.56.166100 +0300,
18,exp1.png,exp2.png,,0,0,0,0,0,18,18,18,,,,,,,,,,,,,,,,,,,,,,,,,192.73859050008468,,,,,,,,,,,,192.59470280003734,192.59555079997517,192.59559470019303,False,196.88023180002347,196.8805925999768,197.49471620004624,197.49473000015132,199.29257200006396,17,18,False,exp1.png,exp2.png,trial_right_image,-1,exp2.png,2,exp1.png,exp2.png,0,2,non-reversed,incorrect,0.8832329944441729,0,valid_lose,111.30139619996771,9,,,,,,,,,,,,,,,,,,,,sub_794,2024-06-18_17h39.40.549,Reversal,2023.2.1,60.06695061549031,2,2024-06-18 17h39.56.166100 +0300,
19,exp3.png,exp4.png,,0,0,0,0,0,19,19,19,,,,,,,,,,,,,,,,,,,,,,,,,199.44089230010286,,,,,,,,,,,,199.29313470004126,199.2938187001273,199.29384860000573,False,201.8126897001639,201.81313410005532,202.4273712001741,202.42738920007832,204.22557060001418,18,19,True,exp4.png,exp3.png,trial_right_image,-1,exp3.png,2,exp3.png,exp4.png,1,3,reversed,correct,0.5551345161659225,1,valid_win,116.23393529979512,10,,,,,,,,,,,,,,,,,,,,sub_794,2024-06-18_17h39.40.549,Reversal,2023.2.1,60.06695061549031,2,2024-06-18 17h39.56.166100 +0300,
20,exp1.png,exp2.png,,0,0,0,0,0,20,20,20,,,,,,,,,,,,,,,,,,,,,,,,,204.36559409997426,,,,,,,,,,,,204.22611920000054,204.2267740999814,204.22680360008962,False,209.84545280016027,209.84588230005465,210.46011940017343,210.46015170007013,212.25813970016316,19,20,True,exp2.png,exp1.png,trial_left_image,1,exp2.png,2,exp1.png,exp2.png,0,2,non-reversed,incorrect,0.08866999306836354,1,invalid_win,124.26668299990706,11,,,,,,,,,,,,,,,,,,,,sub_794,2024-06-18_17h39.40.549,Reversal,2023.2.1,60.06695061549031,2,2024-06-18 17h39.56.166100 +0300,
,,,exp1.png,0,0,0,0,,,,,0,0,0,0,0,0,0,0,,,,,,,,,,,,,,,,,212.3533934999723,,,,,,,,,,,,,,,,,,,,,,,,,,,,,,,,,,,,,,,,,212.28595759999007,212.3533934999723,223.3445073000621,100.0,100.0,9.77227639988996,"[(100.0, 9.77227639988996)]",,,,,,,,,,,,,sub_794,2024-06-18_17h39.40.549,Reversal,2023.2.1,60.06695061549031,2,2024-06-18 17h39.56.166100 +0300,
,,,exp2.png,0,0,0,0,,,,,0,0,0,0,0,1,1,1,,,,,,,,,,,,,,,,,223.40955170011148,,,,,,,,,,,,,,,,,,,,,,,,,,,,,,,,,,,,,,,,,223.3473044000566,223.40955170011148,229.44382490008138,,100.0,5.088058500085026,"[(100.0, 5.088058500085026)]",100.0,,,,,,,,,,,,sub_794,2024-06-18_17h39.40.549,Reversal,2023.2.1,60.06695061549031,2,2024-06-18 17h39.56.166100 +0300,
,,,exp3.png,0,0,0,0,,,,,0,0,0,0,0,2,2,2,,,,,,,,,,,,,,,,,229.50600270018913,,,,,,,,,,,,,,,,,,,,,,,,,,,,,,,,,,,,,,,,,229.4443268000614,229.50600270018913,233.876252300106,,1.0,3.339908800087869,"[(1.0, 3.339908800087869)]",,1.0,,,,,,,,,,,sub_794,2024-06-18_17h39.40.549,Reversal,2023.2.1,60.06695061549031,2,2024-06-18 17h39.56.166100 +0300,
,,,exp4.png,0,0,0,0,,,,,0,0,0,0,0,3,3,3,,,,,,,,,,,,,,,,,233.93960060016252,,,,,,,,,,,,,,,,,,,,,,,,,,,,,,,,,,,,,,,,,233.87672620010562,233.93960060016252,238.4945942000486,,100.0,3.655597700038925,"[(100.0, 3.655597700038925)]",,,100.0,,,,,,,,,,sub_794,2024-06-18_17h39.40.549,Reversal,2023.2.1,60.06695061549031,2,2024-06-18 17h39.56.166100 +0300,
0,exp1.png,exp2.png,,1,0,1,0,0,0,0,0,,,,,,,,,,,,,,,,,,,,,,,,,238.7453712001443,,,,,,,,,,,,238.50552400015295,238.50636540004052,238.50638460018672,True,238.57966150017455,238.57968430011533,238.5941014001146,238.59411450009793,238.61066460004076,,,,,,,,,,,,,,,,,,,,,,,,,,,,,,,,,,,,,,,,sub_794,2024-06-18_17h39.40.549,Reversal,2023.2.1,60.06695061549031,2,2024-06-18 17h39.56.166100 +0300,
1,exp3.png,exp4.png,,1,0,1,0,0,1,1,1,,,,,,,,,,,,,,,,,,,,,,,,,238.7453712001443,,,,,,,,,,,,238.6109023001045,238.6111258000601,238.61113750003278,False,243.3908108000178,243.39117720001377,244.00578260002658,244.00581120001152,245.80377440014854,20,21,True,exp4.png,exp3.png,trial_right_image,-1,exp3.png,2,exp3.png,exp4.png,1,3,reversed,correct,0.25248499428347027,1,valid_win,157.8119811997749,12,,,,,,,,,,,,,,,,,,,,sub_794,2024-06-18_17h39.40.549,Reversal,2023.2.1,60.06695061549031,2,2024-06-18 17h39.56.166100 +0300,
2,exp1.png,exp2.png,,1,0,1,0,0,2,2,2,,,,,,,,,,,,,,,,,,,,,,,,,245.94634320004843,,,,,,,,,,,,245.80462460010312,245.80554610001855,245.80558980000205,False,248.19025230011903,248.19066469999962,248.80485559999943,248.80488040018827,250.60278790001757,21,22,False,exp1.png,exp2.png,trial_left_image,1,exp1.png,2,exp1.png,exp2.png,1,1,non-reversed,correct,0.985083204022293,1,valid_win,162.6114662999753,13,,,,,,,,,,,,,,,,,,,,sub_794,2024-06-18_17h39.40.549,Reversal,2023.2.1,60.06695061549031,2,2024-06-18 17h39.56.166100 +0300,
3,exp3.png,exp4.png,,1,0,1,0,0,3,3,3,,,,,,,,,,,,,,,,,,,,,,,,,250.7344242001418,,,,,,,,,,,,250.6033842000179,250.60395480017178,250.60398330003954,False,253.52241310011595,253.52271120017394,254.13760330015793,254.13763170014136,255.9353453000076,22,23,False,exp3.png,exp4.png,trial_right_image,-1,exp4.png,2,exp3.png,exp4.png,0,4,reversed,incorrect,0.1260166513272758,1,invalid_win,167.94351879996248,14,,,,,,,,,,,,,,,,,,,,sub_794,2024-06-18_17h39.40.549,Reversal,2023.2.1,60.06695061549031,2,2024-06-18 17h39.56.166100 +0300,
4,exp1.png,exp2.png,,1,0,1,0,0,4,4,4,,,,,,,,,,,,,,,,,,,,,,,,,256.06378190009855,,,,,,,,,,,,255.935796600068,255.9363518001046,255.93637540005147,False,258.77221540012397,258.77267570002005,259.38762060017325,259.3876673001796,261.18481690017506,23,24,False,exp1.png,exp2.png,trial_left_image,1,exp1.png,2,exp1.png,exp2.png,1,1,non-reversed,correct,0.4614731971165821,1,valid_win,173.19347519986331,15,,,,,,,,,,,,,,,,,,,,sub_794,2024-06-18_17h39.40.549,Reversal,2023.2.1,60.06695061549031,2,2024-06-18 17h39.56.166100 +0300,
5,exp3.png,exp4.png,,1,0,1,0,0,5,5,5,,,,,,,,,,,,,,,,,,,,,,,,,261.3108159999829,,,,,,,,,,,,261.1852931000758,261.18587850010954,261.1859039000701,False,264.12149509997107,264.1218410001602,264.7364400001243,264.73650710005313,266.53426610003226,24,25,False,exp3.png,exp4.png,trial_right_image,-1,exp4.png,2,exp3.png,exp4.png,0,4,reversed,incorrect,0.49492242212720783,0,valid_lose,178.54264589981176,15,,,,,,,,,,,,,,,,,,,,sub_794,2024-06-18_17h39.40.549,Reversal,2023.2.1,60.06695061549031,2,2024-06-18 17h39.56.166100 +0300,
6,exp1.png,exp2.png,,1,0,1,0,0,6,6,6,,,,,,,,,,,,,,,,,,,,,,,,,266.6943732001819,,,,,,,,,,,,266.5349542000331,266.5357131001074,266.5357462000102,False,268.63814110006206,268.63861230015755,269.2527483999729,269.2527805001009,271.05027400003746,25,26,False,exp1.png,exp2.png,trial_left_image,1,exp1.png,2,exp1.png,exp2.png,1,1,non-reversed,correct,0.6493547608614327,1,valid_win,183.05941029987298,16,,,,,,,,,,,,,,,,,,,,sub_794,2024-06-18_17h39.40.549,Reversal,2023.2.1,60.06695061549031,2,2024-06-18 17h39.56.166100 +0300,
7,exp3.png,exp4.png,,1,0,1,0,0,7,7,7,,,,,,,,,,,,,,,,,,,,,,,,,271.1745919000823,,,,,,,,,,,,271.0506274001673,271.05113330017775,271.05115190008655,False,273.18664400000125,273.1869407000486,273.80193810001947,273.80198940006085,275.5997886999976,26,27,True,exp4.png,exp3.png,trial_left_image,1,exp4.png,2,exp3.png,exp4.png,0,4,reversed,incorrect,0.7375707318002177,0,valid_lose,187.60774889984168,16,,,,,,,,,,,,,,,,,,,,sub_794,2024-06-18_17h39.40.549,Reversal,2023.2.1,60.06695061549031,2,2024-06-18 17h39.56.166100 +0300,
8,exp1.png,exp2.png,,1,0,1,0,0,8,8,8,,,,,,,,,,,,,,,,,,,,,,,,,275.7397223999724,,,,,,,,,,,,275.6004563001916,275.60125810001045,275.6012937000487,False,277.6030955000315,277.60356370010413,278.2183273001574,278.2183650000952,280.01618240005337,27,28,True,exp2.png,exp1.png,trial_right_image,-1,exp1.png,2,exp1.png,exp2.png,1,1,non-reversed,correct,0.18422234087984513,0,invalid_lose,192.02436379995197,16,,,,,,,,,,,,,,,,,,,,sub_794,2024-06-18_17h39.40.549,Reversal,2023.2.1,60.06695061549031,2,2024-06-18 17h39.56.166100 +0300,
9,exp3.png,exp4.png,,1,0,1,0,0,9,9,9,,,,,,,,,,,,,,,,,,,,,,,,,280.1607209001668,,,,,,,,,,,,280.01705330004916,280.0180679000914,280.01811280008405,False,283.5864671000745,283.5868170000613,284.20077130012214,284.2008007001132,285.99846540018916,28,29,False,exp3.png,exp4.png,trial_left_image,1,exp3.png,2,exp3.png,exp4.png,1,3,reversed,correct,0.9912289830752401,1,valid_win,198.00760699994862,17,,,,,,,,,,,,,,,,,,,,sub_794,2024-06-18_17h39.40.549,Reversal,2023.2.1,60.06695061549031,2,2024-06-18 17h39.56.166100 +0300,
10,exp1.png,exp2.png,,1,0,1,0,0,10,10,10,,,,,,,,,,,,,,,,,,,,,,,,,286.13818540005013,,,,,,,,,,,,285.99912689998746,285.99979060003534,285.99982170015574,False,288.4519537000451,288.45238959998824,289.06657690019347,289.06660330016166,290.8644183999859,29,30,True,exp2.png,exp1.png,trial_left_image,1,exp2.png,2,exp1.png,exp2.png,0,2,non-reversed,incorrect,0.36623747994541933,0,valid_lose,202.87318959995173,17,,,,,,,,,,,,,,,,,,,,sub_794,2024-06-18_17h39.40.549,Reversal,2023.2.1,60.06695061549031,2,2024-06-18 17h39.56.166100 +0300,
11,exp3.png,exp4.png,,1,0,1,0,0,11,11,11,,,,,,,,,,,,,,,,,,,,,,,,,290.98900070018135,,,,,,,,,,,,290.8648481001146,290.8653659999836,290.86538820015267,False,292.91922300006263,292.919745300198,293.5334648001008,293.5335045000538,295.33060170011595,30,31,True,exp4.png,exp3.png,trial_right_image,-1,exp3.png,2,exp3.png,exp4.png,1,3,reversed,correct,0.6362053836696883,1,valid_win,207.34054009988904,18,,,,,,,,,,,,,,,,,,,,sub_794,2024-06-18_17h39.40.549,Reversal,2023.2.1,60.06695061549031,2,2024-06-18 17h39.56.166100 +0300,
12,exp1.png,exp2.png,,1,0,1,0,0,12,12,12,,,,,,,,,,,,,,,,,,,,,,,,,295.4687598000746,,,,,,,,,,,,295.33114560018294,295.33177649998106,295.3318041001912,False,301.48349650017917,301.4839080001693,302.09853710001335,302.09857330005616,303.8960997001268,31,32,True,exp2.png,exp1.png,trial_right_image,-1,exp1.png,2,exp1.png,exp2.png,1,1,non-reversed,correct,0.06434947358397902,0,invalid_lose,215.90470959991217,18,,,,,,,,,,,,,,,,,,,,sub_794,2024-06-18_17h39.40.549,Reversal,2023.2.1,60.06695061549031,2,2024-06-18 17h39.56.166100 +0300,
13,exp3.png,exp4.png,,1,0,1,0,0,13,13,13,,,,,,,,,,,,,,,,,,,,,,,,,304.02363940002397,,,,,,,,,,,,303.896607800154,303.8972034000326,303.8972263999749,False,306.03335180017166,306.033878199989,306.647711600177,306.64773080009036,308.44539110013284,32,33,True,exp4.png,exp3.png,trial_left_image,1,exp4.png,2,exp3.png,exp4.png,0,4,reversed,incorrect,0.28828511907102927,0,valid_lose,220.45467379991896,18,,,,,,,,,,,,,,,,,,,,sub_794,2024-06-18_17h39.40.549,Reversal,2023.2.1,60.06695061549031,2,2024-06-18 17h39.56.166100 +0300,
14,exp1.png,exp2.png,,1,0,1,0,0,14,14,14,,,,,,,,,,,,,,,,,,,,,,,,,308.5867104001809,,,,,,,,,,,,308.4458588999696,308.44642699998803,308.4464514001738,False,310.21529099997133,310.2156551000662,310.830260100076,310.83028380014,312.6281974001322,33,34,False,exp1.png,exp2.png,trial_right_image,-1,exp2.png,2,exp1.png,exp2.png,0,2,non-reversed,incorrect,0.10558951133982286,1,invalid_win,224.63645849982277,19,,,,,,,,,,,,,,,,,,,,sub_794,2024-06-18_17h39.40.549,Reversal,2023.2.1,60.06695061549031,2,2024-06-18 17h39.56.166100 +0300,
15,exp3.png,exp4.png,,1,0,1,0,0,15,15,15,,,,,,,,,,,,,,,,,,,,,,,,,312.76620810013264,,,,,,,,,,,,312.6287120000925,312.6292793999892,312.6293048001826,False,314.6996147001628,314.7001531000715,315.31321070017293,315.31323110009544,317.11098580015823,34,35,False,exp3.png,exp4.png,trial_right_image,-1,exp4.png,2,exp3.png,exp4.png,0,4,reversed,incorrect,0.890197909795695,0,valid_lose,229.12094759987667,19,,,,,,,,,,,,,,,,,,,,sub_794,2024-06-18_17h39.40.549,Reversal,2023.2.1,60.06695061549031,2,2024-06-18 17h39.56.166100 +0300,
16,exp1.png,exp2.png,,1,0,1,0,0,16,16,16,,,,,,,,,,,,,,,,,,,,,,,,,317.24661840009503,,,,,,,,,,,,317.111364700133,317.1119127001148,317.11193190002814,False,319.24775229999796,319.24814020004123,319.8627626001835,319.8627871000208,321.6605740999803,35,36,True,exp2.png,exp1.png,trial_left_image,1,exp2.png,2,exp1.png,exp2.png,0,2,non-reversed,incorrect,0.04103101507717355,1,invalid_win,233.6689430999104,20,,,,,,,,,,,,,,,,,,,,sub_794,2024-06-18_17h39.40.549,Reversal,2023.2.1,60.06695061549031,2,2024-06-18 17h39.56.166100 +0300,
17,exp3.png,exp4.png,,1,0,1,0,0,17,17,17,,,,,,,,,,,,,,,,,,,,,,,,,321.7936366000213,,,,,,,,,,,,321.6611896001268,321.6618892000988,321.66192120010965,False,323.94715370004997,323.94756560004316,324.56289419997483,324.5629213000648,326.3601553000044,36,37,True,exp4.png,exp3.png,trial_right_image,-1,exp3.png,2,exp3.png,exp4.png,1,3,reversed,correct,0.3760610857259593,1,valid_win,238.36836769990623,21,,,,,,,,,,,,,,,,,,,,sub_794,2024-06-18_17h39.40.549,Reversal,2023.2.1,60.06695061549031,2,2024-06-18 17h39.56.166100 +0300,
18,exp1.png,exp2.png,,1,0,1,0,0,18,18,18,,,,,,,,,,,,,,,,,,,,,,,,,326.5037037001457,,,,,,,,,,,,326.36093680001795,326.3617112999782,326.3617466001306,False,327.9299914999865,327.9303715999704,328.545031900052,328.5450616001617,330.34300530003384,37,38,True,exp2.png,exp1.png,trial_left_image,1,exp2.png,2,exp1.png,exp2.png,0,2,non-reversed,incorrect,0.49278600185330035,0,valid_lose,242.35117479995824,21,,,,,,,,,,,,,,,,,,,,sub_794,2024-06-18_17h39.40.549,Reversal,2023.2.1,60.06695061549031,2,2024-06-18 17h39.56.166100 +0300,
19,exp3.png,exp4.png,,1,0,1,0,0,19,19,19,,,,,,,,,,,,,,,,,,,,,,,,,330.48258320009336,,,,,,,,,,,,330.34376670001075,330.3445890999865,330.34463060018606,False,332.2128854000475,332.21346490015276,332.8276107001584,332.82763930014335,334.6252862000838,38,39,False,exp3.png,exp4.png,trial_right_image,-1,exp4.png,2,exp3.png,exp4.png,0,4,reversed,incorrect,0.10974924035682754,1,invalid_win,246.63425929984078,22,,,,,,,,,,,,,,,,,,,,sub_794,2024-06-18_17h39.40.549,Reversal,2023.2.1,60.06695061549031,2,2024-06-18 17h39.56.166100 +0300,
20,exp1.png,exp2.png,,1,0,1,0,0,20,20,20,,,,,,,,,,,,,,,,,,,,,,,,,334.7587010001298,,,,,,,,,,,,334.6257141001988,334.62627540016547,334.62629789998755,False,336.6623033999931,336.6626281000208,337.27720320015214,337.2772317000199,339.0749044001568,39,40,False,exp1.png,exp2.png,trial_right_image,-1,exp2.png,2,exp1.png,exp2.png,0,2,non-reversed,incorrect,0.6589188705106294,0,valid_lose,251.08343439991586,22,,,,,,,,,,,,,,,,,,,,sub_794,2024-06-18_17h39.40.549,Reversal,2023.2.1,60.06695061549031,2,2024-06-18 17h39.56.166100 +0300,
,,,exp1.png,1,0,1,0,,,,,0,0,0,0,0,0,0,0,,,,,,,,,,,,,,,,,339.1522346001584,,,,,,,,,,,,,,,,,,,,,,,,,,,,,,,,,,,,,,,,,339.0834551001899,339.1522346001584,342.06277470011264,100.0,100.0,1.9319165998604149,"[(100.0, 1.9319165998604149)]",,,,,,,,,,,,,sub_794,2024-06-18_17h39.40.549,Reversal,2023.2.1,60.06695061549031,2,2024-06-18 17h39.56.166100 +0300,
,,,exp2.png,1,0,1,0,,,,,0,0,0,0,0,1,1,1,,,,,,,,,,,,,,,,,342.12684310018085,,,,,,,,,,,,,,,,,,,,,,,,,,,,,,,,,,,,,,,,,342.06340230000205,342.12684310018085,345.0804195001256,,99.0,2.154154699994251,"[(99.0, 2.154154699994251)]",99.0,,,,,,,,,,,,sub_794,2024-06-18_17h39.40.549,Reversal,2023.2.1,60.06695061549031,2,2024-06-18 17h39.56.166100 +0300,
,,,exp3.png,1,0,1,0,,,,,0,0,0,0,0,2,2,2,,,,,,,,,,,,,,,,,345.14859340013936,,,,,,,,,,,,,,,,,,,,,,,,,,,,,,,,,,,,,,,,,345.0810754999984,345.14859340013936,349.7113193999976,,76.0,3.632287400076166,"[(96.0, 2.2242054000962526), (76.0, 3.632287400076166)]",,76.0,,,,,,,,,,,sub_794,2024-06-18_17h39.40.549,Reversal,2023.2.1,60.06695061549031,2,2024-06-18 17h39.56.166100 +0300,
,,,exp4.png,1,0,1,0,,,,,0,0,0,0,0,3,3,3,,,,,,,,,,,,,,,,,349.7793891001493,,,,,,,,,,,,,,,,,,,,,,,,,,,,,,,,,,,,,,,,,349.71180619997904,349.7793891001493,352.6779634000268,,24.0,2.0045992000959814,"[(24.0, 2.0045992000959814)]",,,24.0,,,,,,,,,,sub_794,2024-06-18_17h39.40.549,Reversal,2023.2.1,60.06695061549031,2,2024-06-18 17h39.56.166100 +0300,
0,exp1.png,exp2.png,,2,0,2,0,0,0,0,0,,,,,,,,,,,,,,,,,,,,,,,,,352.94614840019494,,,,,,,,,,,,352.68550620018505,352.6861684001051,352.6861841001082,True,352.75920900003985,352.75922380015254,352.7756166001782,352.7756300000474,352.7951760001015,,,,,,,,,,,,,,,,,,,,,,,,,,,,,,,,,,,,,,,,sub_794,2024-06-18_17h39.40.549,Reversal,2023.2.1,60.06695061549031,2,2024-06-18 17h39.56.166100 +0300,
1,exp3.png,exp4.png,,2,0,2,0,0,1,1,1,,,,,,,,,,,,,,,,,,,,,,,,,352.94614840019494,,,,,,,,,,,,352.79543020017445,352.79563609999605,352.7956456001848,False,354.9595296001062,354.9598760001827,355.5747562001925,355.57478630007245,357.372471800074,40,41,True,exp4.png,exp3.png,trial_right_image,-1,exp3.png,2,exp3.png,exp4.png,1,3,reversed,correct,0.1515002442259865,0,invalid_lose,269.3806709998753,22,,,,,,,,,,,,,,,,,,,,sub_794,2024-06-18_17h39.40.549,Reversal,2023.2.1,60.06695061549031,2,2024-06-18 17h39.56.166100 +0300,
2,exp1.png,exp2.png,,2,0,2,0,0,2,2,2,,,,,,,,,,,,,,,,,,,,,,,,,357.5120958001353,,,,,,,,,,,,357.37293580011465,357.37349160015583,357.3735152001027,False,358.9263278001454,358.9266791001428,359.54104250017554,359.5410645001102,361.3391279000789,41,42,False,exp1.png,exp2.png,trial_right_image,-1,exp2.png,2,exp1.png,exp2.png,0,2,non-reversed,incorrect,0.3799708575391485,0,valid_lose,273.34748579980806,22,,,,,,,,,,,,,,,,,,,,sub_794,2024-06-18_17h39.40.549,Reversal,2023.2.1,60.06695061549031,2,2024-06-18 17h39.56.166100 +0300,
3,exp3.png,exp4.png,,2,0,2,0,0,3,3,3,,,,,,,,,,,,,,,,,,,,,,,,,361.4778657001443,,,,,,,,,,,,361.3397972001694,361.3406021001283,361.34064309997484,False,362.84280690015294,362.8431330001913,363.4569862000644,363.45701460004784,365.25489870016463,42,43,False,exp3.png,exp4.png,trial_left_image,1,exp3.png,2,exp3.png,exp4.png,1,3,reversed,correct,0.4690286026127741,1,valid_win,277.2639403999783,23,,,,,,,,,,,,,,,,,,,,sub_794,2024-06-18_17h39.40.549,Reversal,2023.2.1,60.06695061549031,2,2024-06-18 17h39.56.166100 +0300,
4,exp1.png,exp2.png,,2,0,2,0,0,4,4,4,,,,,,,,,,,,,,,,,,,,,,,,,365.3859387000557,,,,,,,,,,,,365.25539850001223,365.25600910000503,365.2560358000919,False,366.90793420001864,366.9083227000665,367.52319500013255,367.5232272001449,369.321115600178,43,44,True,exp2.png,exp1.png,trial_right_image,-1,exp1.png,2,exp1.png,exp2.png,1,1,non-reversed,correct,0.708702219496088,1,valid_win,281.3291290998459,24,,,,,,,,,,,,,,,,,,,,sub_794,2024-06-18_17h39.40.549,Reversal,2023.2.1,60.06695061549031,2,2024-06-18 17h39.56.166100 +0300,
5,exp3.png,exp4.png,,2,0,2,0,0,5,5,5,,,,,,,,,,,,,,,,,,,,,,,,,369.4572521999944,,,,,,,,,,,,369.3217821000144,369.3225653001573,369.32260080007836,False,371.2075084000826,371.2078911000863,371.82266449998133,371.82269010017626,373.6207694001496,44,45,False,exp3.png,exp4.png,trial_left_image,1,exp3.png,2,exp3.png,exp4.png,1,3,reversed,correct,0.4131519975024719,1,valid_win,285.6286896998063,25,,,,,,,,,,,,,,,,,,,,sub_794,2024-06-18_17h39.40.549,Reversal,2023.2.1,60.06695061549031,2,2024-06-18 17h39.56.166100 +0300,
6,exp1.png,exp2.png,,2,0,2,0,0,6,6,6,,,,,,,,,,,,,,,,,,,,,,,,,373.7616793999914,,,,,,,,,,,,373.6216045001056,373.6225005001761,373.6225497000851,False,375.4735693000257,375.4737980000209,376.0890430000145,376.08906799997203,377.8864849000238,45,46,False,exp1.png,exp2.png,trial_right_image,-1,exp2.png,2,exp1.png,exp2.png,0,2,non-reversed,incorrect,0.7275295980495424,0,valid_lose,289.8946100999601,25,,,,,,,,,,,,,,,,,,,,sub_794,2024-06-18_17h39.40.549,Reversal,2023.2.1,60.06695061549031,2,2024-06-18 17h39.56.166100 +0300,
7,exp3.png,exp4.png,,2,0,2,0,0,7,7,7,,,,,,,,,,,,,,,,,,,,,,,,,378.0341415000148,,,,,,,,,,,,377.8869809000753,377.88758820015937,377.88761540013365,False,379.3235456000548,379.3238954001572,379.9382490001153,379.9382786999922,381.73595390003175,46,47,True,exp4.png,exp3.png,trial_left_image,1,exp4.png,2,exp3.png,exp4.png,0,4,reversed,incorrect,0.38577262900876186,0,valid_lose,293.74470009980723,25,,,,,,,,,,,,,,,,,,,,sub_794,2024-06-18_17h39.40.549,Reversal,2023.2.1,60.06695061549031,2,2024-06-18 17h39.56.166100 +0300,
8,exp1.png,exp2.png,,2,0,2,0,0,8,8,8,,,,,,,,,,,,,,,,,,,,,,,,,381.85956430016086,,,,,,,,,,,,381.7364125000313,381.73698470019735,381.73700870014727,False,383.35696020000614,383.357361700153,383.9711125001777,383.97112650005147,385.76918340008706,47,48,True,exp2.png,exp1.png,trial_right_image,-1,exp1.png,2,exp1.png,exp2.png,1,1,non-reversed,correct,0.4116745445281358,1,valid_win,297.77816429990344,26,,,,,,,,,,,,,,,,,,,,sub_794,2024-06-18_17h39.40.549,Reversal,2023.2.1,60.06695061549031,2,2024-06-18 17h39.56.166100 +0300,
9,exp3.png,exp4.png,,2,0,2,0,0,9,9,9,,,,,,,,,,,,,,,,,,,,,,,,,385.91693810001016,,,,,,,,,,,,385.77008280018345,385.770978000015,385.7710355001036,False,387.48892610007897,387.48930320004,388.1039776999969,388.1040127000306,389.9021873001475,48,49,True,exp4.png,exp3.png,trial_right_image,-1,exp3.png,2,exp3.png,exp4.png,1,3,reversed,correct,0.3546411580185276,1,valid_win,301.910109099932,27,,,,,,,,,,,,,,,,,,,,sub_794,2024-06-18_17h39.40.549,Reversal,2023.2.1,60.06695061549031,2,2024-06-18 17h39.56.166100 +0300,
10,exp1.png,exp2.png,,2,0,2,0,0,10,10,10,,,,,,,,,,,,,,,,,,,,,,,,,390.0305558000691,,,,,,,,,,,,389.90280420007184,389.9035694000777,389.90360229997896,False,391.52186119998805,391.52228270005435,392.1371689001098,392.1372011001222,393.9349342000205,49,50,False,exp1.png,exp2.png,trial_right_image,-1,exp2.png,2,exp1.png,exp2.png,0,2,non-reversed,incorrect,0.09623183852749662,1,invalid_win,305.94308289978653,28,,,,,,,,,,,,,,,,,,,,sub_794,2024-06-18_17h39.40.549,Reversal,2023.2.1,60.06695061549031,2,2024-06-18 17h39.56.166100 +0300,
11,exp3.png,exp4.png,,2,0,2,0,0,11,11,11,,,,,,,,,,,,,,,,,,,,,,,,,394.07909350004047,,,,,,,,,,,,393.9354388001375,393.93601950001903,393.93604540009983,False,396.7381085001398,396.73851580009796,397.3526515001431,397.3526666001417,399.1515906001441,50,51,True,exp4.png,exp3.png,trial_right_image,-1,exp3.png,2,exp3.png,exp4.png,1,3,reversed,correct,0.06513464297624483,0,invalid_lose,311.1593165998347,28,,,,,,,,,,,,,,,,,,,,sub_794,2024-06-18_17h39.40.549,Reversal,2023.2.1,60.06695061549031,2,2024-06-18 17h39.56.166100 +0300,
12,exp1.png,exp2.png,,2,0,2,0,0,12,12,12,,,,,,,,,,,,,,,,,,,,,,,,,399.2930378001183,,,,,,,,,,,,399.1527470999863,399.1539380000904,399.1539917001501,False,401.154537800001,401.15500880009495,401.76904380018823,401.76906680013053,403.56683150003664,51,52,True,exp2.png,exp1.png,trial_left_image,1,exp2.png,2,exp1.png,exp2.png,0,2,non-reversed,incorrect,0.14504246153532396,1,invalid_win,315.5758064999245,29,,,,,,,,,,,,,,,,,,,,sub_794,2024-06-18_17h39.40.549,Reversal,2023.2.1,60.06695061549031,2,2024-06-18 17h39.56.166100 +0300,
13,exp3.png,exp4.png,,2,0,2,0,0,13,13,13,,,,,,,,,,,,,,,,,,,,,,,,,403.7083898000419,,,,,,,,,,,,403.5675878999755,403.56839010003023,403.56842500017956,False,407.40352699998766,407.40396230015904,408.0180669000838,408.01808960014023,409.8159920000471,52,53,False,exp3.png,exp4.png,trial_right_image,-1,exp4.png,2,exp3.png,exp4.png,0,4,reversed,incorrect,0.3261797729550626,0,valid_lose,321.82476189988665,29,,,,,,,,,,,,,,,,,,,,sub_794,2024-06-18_17h39.40.549,Reversal,2023.2.1,60.06695061549031,2,2024-06-18 17h39.56.166100 +0300,
14,exp1.png,exp2.png,,2,0,2,0,0,14,14,14,,,,,,,,,,,,,,,,,,,,,,,,,409.95821950002573,,,,,,,,,,,,409.81669180002064,409.8175931000151,409.81763000017963,False,411.3027857001871,411.30319040012546,411.9178932001814,411.9179273999762,413.71568300016224,53,54,False,exp1.png,exp2.png,trial_left_image,1,exp1.png,2,exp1.png,exp2.png,1,1,non-reversed,correct,0.21236233941482563,0,invalid_lose,325.7239921998698,29,,,,,,,,,,,,,,,,,,,,sub_794,2024-06-18_17h39.40.549,Reversal,2023.2.1,60.06695061549031,2,2024-06-18 17h39.56.166100 +0300,
15,exp3.png,exp4.png,,2,0,2,0,0,15,15,15,,,,,,,,,,,,,,,,,,,,,,,,,413.85398690006696,,,,,,,,,,,,413.7164419000037,413.71726970002055,413.7173079000786,False,415.3189910000656,415.31960789998993,415.93364459997974,415.93366430001333,417.73159380001016,54,55,False,exp3.png,exp4.png,trial_right_image,-1,exp4.png,2,exp3.png,exp4.png,0,4,reversed,incorrect,0.0873650897904853,1,invalid_win,329.74039099994116,30,,,,,,,,,,,,,,,,,,,,sub_794,2024-06-18_17h39.40.549,Reversal,2023.2.1,60.06695061549031,2,2024-06-18 17h39.56.166100 +0300,
16,exp1.png,exp2.png,,2,0,2,0,0,16,16,16,,,,,,,,,,,,,,,,,,,,,,,,,417.8676556001883,,,,,,,,,,,,417.732207900146,417.7329510001,417.7329839000013,False,422.30137050012127,422.30171800008975,422.91643130010925,422.916466700146,424.71385120018385,55,56,True,exp2.png,exp1.png,trial_right_image,-1,exp1.png,2,exp1.png,exp2.png,1,1,non-reversed,correct,0.5329643602154874,1,valid_win,336.7225226999726,31,,,,,,,,,,,,,,,,,,,,sub_794,2024-06-18_17h39.40.549,Reversal,2023.2.1,60.06695061549031,2,2024-06-18 17h39.56.166100 +0300,
17,exp3.png,exp4.png,,2,0,2,0,0,17,17,17,,,,,,,,,,,,,,,,,,,,,,,,,424.851738500176,,,,,,,,,,,,424.7144345000852,424.71508660004474,424.7151181001682,False,426.7338726001326,426.73420180007815,427.3488270000089,427.348852599971,429.14735820004717,56,57,True,exp4.png,exp3.png,trial_right_image,-1,exp3.png,2,exp3.png,exp4.png,1,3,reversed,correct,0.7168749982705936,1,valid_win,341.1550069998484,32,,,,,,,,,,,,,,,,,,,,sub_794,2024-06-18_17h39.40.549,Reversal,2023.2.1,60.06695061549031,2,2024-06-18 17h39.56.166100 +0300,
18,exp1.png,exp2.png,,2,0,2,0,0,18,18,18,,,,,,,,,,,,,,,,,,,,,,,,,429.307870300021,,,,,,,,,,,,429.1480539999902,429.14885680004954,429.1488946999889,False,431.9663126000669,431.9665614000987,432.58144590002485,432.5814652000554,434.3798195000272,57,58,False,exp1.png,exp2.png,trial_left_image,1,exp1.png,2,exp1.png,exp2.png,1,1,non-reversed,correct,0.6348644245731527,1,valid_win,346.38737129978836,33,,,,,,,,,,,,,,,,,,,,sub_794,2024-06-18_17h39.40.549,Reversal,2023.2.1,60.06695061549031,2,2024-06-18 17h39.56.166100 +0300,
19,exp3.png,exp4.png,,2,0,2,0,0,19,19,19,,,,,,,,,,,,,,,,,,,,,,,,,434.51986410003155,,,,,,,,,,,,434.38042130018584,434.3810791000724,434.38110980018973,False,436.8663064001594,436.8667405000888,437.4808022000361,437.4808166001458,439.27902510017157,58,59,True,exp4.png,exp3.png,trial_right_image,-1,exp3.png,2,exp3.png,exp4.png,1,3,reversed,correct,0.5543095627935705,1,valid_win,351.28752659983,34,,,,,,,,,,,,,,,,,,,,sub_794,2024-06-18_17h39.40.549,Reversal,2023.2.1,60.06695061549031,2,2024-06-18 17h39.56.166100 +0300,
20,exp1.png,exp2.png,,2,0,2,0,0,20,20,20,,,,,,,,,,,,,,,,,,,,,,,,,439.4297546001617,,,,,,,,,,,,439.27995550003834,439.28112310008146,439.28120020008646,False,441.2497473000549,441.25016080006026,441.86407960020006,441.8641222000588,443.6616085001733,59,60,False,exp1.png,exp2.png,trial_left_image,1,exp1.png,2,exp1.png,exp2.png,1,1,non-reversed,correct,0.8490411913060096,1,valid_win,355.67096149991266,35,,,,,,,,,,,,,,,,,,,,sub_794,2024-06-18_17h39.40.549,Reversal,2023.2.1,60.06695061549031,2,2024-06-18 17h39.56.166100 +0300,
,,,exp1.png,2,0,2,0,,,,,0,0,0,0,0,0,0,0,,,,,,,,,,,,,,,,,443.7413412001915,,,,,,,,,,,,,,,,,,,,,,,,,,,,,,,,,,,,,,,,,443.67162799998187,443.7413412001915,447.0824825000018,69.0,69.0,2.4453312000259757,"[(69.0, 2.4453312000259757)]",,,,,,,,,,,,,sub_794,2024-06-18_17h39.40.549,Reversal,2023.2.1,60.06695061549031,2,2024-06-18 17h39.56.166100 +0300,
,,,exp2.png,2,0,2,0,,,,,0,0,0,0,0,1,1,1,,,,,,,,,,,,,,,,,447.143161999993,,,,,,,,,,,,,,,,,,,,,,,,,,,,,,,,,,,,,,,,,447.08316410006955,447.143161999993,449.4157627001405,,74.0,1.4250271001365036,"[(74.0, 1.4250271001365036)]",74.0,,,,,,,,,,,,sub_794,2024-06-18_17h39.40.549,Reversal,2023.2.1,60.06695061549031,2,2024-06-18 17h39.56.166100 +0300,
,,,exp3.png,2,0,2,0,,,,,0,0,0,0,0,2,2,2,,,,,,,,,,,,,,,,,449.47962600016035,,,,,,,,,,,,,,,,,,,,,,,,,,,,,,,,,,,,,,,,,449.41630110004917,449.47962600016035,451.4671864002012,,27.0,1.1229445000644773,"[(27.0, 1.1229445000644773)]",,27.0,,,,,,,,,,,sub_794,2024-06-18_17h39.40.549,Reversal,2023.2.1,60.06695061549031,2,2024-06-18 17h39.56.166100 +0300,
,,,exp4.png,2,0,2,0,,,,,0,0,0,0,0,3,3,3,,,,,,,,,,,,,,,,,451.53318050014786,,,,,,,,,,,,,,,,,,,,,,,,,,,,,,,,,,,,,,,,,451.4679731000215,451.53318050014786,453.7496007999871,,81.0,1.3834642001893371,"[(81.0, 1.3834642001893371)]",,,81.0,,,,,,,,,,sub_794,2024-06-18_17h39.40.549,Reversal,2023.2.1,60.06695061549031,2,2024-06-18 17h39.56.166100 +0300,
0,exp1.png,exp2.png,,3,0,3,0,0,0,0,0,,,,,,,,,,,,,,,,,,,,,,,,,454.0067406001035,,,,,,,,,,,,453.7586441000458,453.75963980006054,453.75965890008956,True,453.8352511001285,453.83526680013165,453.85323170013726,453.8532474001404,453.87202220014296,,,,,,,,,,,,,,,,,,,,,,,,,,,,,,,,,,,,,,,,sub_794,2024-06-18_17h39.40.549,Reversal,2023.2.1,60.06695061549031,2,2024-06-18 17h39.56.166100 +0300,
1,exp3.png,exp4.png,,3,0,3,0,0,1,1,1,,,,,,,,,,,,,,,,,,,,,,,,,454.0067406001035,,,,,,,,,,,,453.87225840007886,453.8724570001941,453.8724666000344,False,455.7136304001324,455.71401450014673,456.3288970000576,456.32892620004714,458.1266010000836,60,61,True,exp4.png,exp3.png,trial_right_image,-1,exp3.png,2,exp3.png,exp4.png,1,3,reversed,correct,0.9044090876896201,1,valid_win,370.1348177997861,36,,,,,,,,,,,,,,,,,,,,sub_794,2024-06-18_17h39.40.549,Reversal,2023.2.1,60.06695061549031,2,2024-06-18 17h39.56.166100 +0300,
2,exp1.png,exp2.png,,3,0,3,0,0,2,2,2,,,,,,,,,,,,,,,,,,,,,,,,,458.2629323999863,,,,,,,,,,,,458.1272425001953,458.12791829998605,458.12795120012015,False,460.08139599999413,460.08213360002264,460.6945511000231,460.6945744000841,462.49268520018086,61,62,False,exp1.png,exp2.png,trial_right_image,-1,exp2.png,2,exp1.png,exp2.png,0,2,non-reversed,incorrect,0.08055070824578558,1,invalid_win,374.5029175998643,37,,,,,,,,,,,,,,,,,,,,sub_794,2024-06-18_17h39.40.549,Reversal,2023.2.1,60.06695061549031,2,2024-06-18 17h39.56.166100 +0300,
3,exp3.png,exp4.png,,3,0,3,0,0,3,3,3,,,,,,,,,,,,,,,,,,,,,,,,,462.6315212000627,,,,,,,,,,,,462.49324770015664,462.4938915001694,462.4939203001559,False,466.16264840005897,466.16308309999295,466.7770991001744,466.7771229001228,468.5749900001101,62,63,True,exp4.png,exp3.png,trial_right_image,-1,exp3.png,2,exp3.png,exp4.png,1,3,reversed,correct,0.08881521324182828,0,invalid_lose,380.5838831998408,37,,,,,,,,,,,,,,,,,,,,sub_794,2024-06-18_17h39.40.549,Reversal,2023.2.1,60.06695061549031,2,2024-06-18 17h39.56.166100 +0300,
4,exp1.png,exp2.png,,3,0,3,0,0,4,4,4,,,,,,,,,,,,,,,,,,,,,,,,,468.719677900197,,,,,,,,,,,,468.575672800187,468.5764038001653,468.5764366001822,False,470.4951760000549,470.49549930007197,471.11091130017303,471.11095290002413,472.90796960005537,63,64,True,exp2.png,exp1.png,trial_left_image,1,exp2.png,2,exp1.png,exp2.png,0,2,non-reversed,incorrect,0.24916180358303086,1,invalid_win,384.9163050998468,38,,,,,,,,,,,,,,,,,,,,sub_794,2024-06-18_17h39.40.549,Reversal,2023.2.1,60.06695061549031,2,2024-06-18 17h39.56.166100 +0300,
5,exp3.png,exp4.png,,3,0,3,0,0,5,5,5,,,,,,,,,,,,,,,,,,,,,,,,,473.044070500182,,,,,,,,,,,,472.90848890016787,472.9091265001334,472.90915330010466,False,474.44452690007165,474.4448742000386,475.0593293001875,475.05935170012526,476.85728000011295,64,65,True,exp4.png,exp3.png,trial_right_image,-1,exp3.png,2,exp3.png,exp4.png,1,3,reversed,correct,0.36101614607410926,1,valid_win,388.8656800999306,39,,,,,,,,,,,,,,,,,,,,sub_794,2024-06-18_17h39.40.549,Reversal,2023.2.1,60.06695061549031,2,2024-06-18 17h39.56.166100 +0300,
6,exp1.png,exp2.png,,3,0,3,0,0,6,6,6,,,,,,,,,,,,,,,,,,,,,,,,,476.97914760001004,,,,,,,,,,,,476.85781430010684,476.85848000016995,476.8585088001564,False,478.64428250002675,478.6448366001714,479.2592226001434,479.25924320006743,481.0569874001667,65,66,True,exp2.png,exp1.png,trial_left_image,1,exp2.png,2,exp1.png,exp2.png,0,2,non-reversed,incorrect,0.8759785359812791,0,valid_lose,393.0656294999644,39,,,,,,,,,,,,,,,,,,,,sub_794,2024-06-18_17h39.40.549,Reversal,2023.2.1,60.06695061549031,2,2024-06-18 17h39.56.166100 +0300,
7,exp3.png,exp4.png,,3,0,3,0,0,7,7,7,,,,,,,,,,,,,,,,,,,,,,,,,481.20250730006956,,,,,,,,,,,,481.0576838001143,481.0586194000207,481.05865550017916,False,482.6767957000993,482.67714769998565,483.291747600073,483.29176950012334,485.08969669998623,66,67,False,exp3.png,exp4.png,trial_right_image,-1,exp4.png,2,exp3.png,exp4.png,0,4,reversed,incorrect,0.22812706964007556,1,invalid_win,397.0979524999857,40,,,,,,,,,,,,,,,,,,,,sub_794,2024-06-18_17h39.40.549,Reversal,2023.2.1,60.06695061549031,2,2024-06-18 17h39.56.166100 +0300,
8,exp1.png,exp2.png,,3,0,3,0,0,8,8,8,,,,,,,,,,,,,,,,,,,,,,,,,485.2242190001998,,,,,,,,,,,,485.0903964000754,485.0911869001575,485.0912228000816,False,487.12551450007595,487.12574820010923,487.74118040013127,487.7411951001268,489.54025050019845,67,68,False,exp1.png,exp2.png,trial_right_image,-1,exp2.png,2,exp1.png,exp2.png,0,2,non-reversed,incorrect,0.6256785868466931,0,valid_lose,401.5465613999404,40,,,,,,,,,,,,,,,,,,,,sub_794,2024-06-18_17h39.40.549,Reversal,2023.2.1,60.06695061549031,2,2024-06-18 17h39.56.166100 +0300,
9,exp3.png,exp4.png,,3,0,3,0,0,9,9,9,,,,,,,,,,,,,,,,,,,,,,,,,489.6950696001295,,,,,,,,,,,,489.5412905002013,489.54245449998416,489.5425092000514,False,490.95923570008017,490.95959410001524,491.57455260003917,491.5745906000957,493.3720925000962,68,69,False,exp3.png,exp4.png,trial_left_image,1,exp3.png,2,exp3.png,exp4.png,1,3,reversed,correct,0.9275328623831692,1,valid_win,405.3803985998966,41,,,,,,,,,,,,,,,,,,,,sub_794,2024-06-18_17h39.40.549,Reversal,2023.2.1,60.06695061549031,2,2024-06-18 17h39.56.166100 +0300,
10,exp1.png,exp2.png,,3,0,3,0,0,10,10,10,,,,,,,,,,,,,,,,,,,,,,,,,493.497294700006,,,,,,,,,,,,493.372723700013,493.37355700018816,493.3735889000818,False,497.7926034000702,497.793011700036,498.40647680009715,498.406498500146,500.2047944001388,69,70,True,exp2.png,exp1.png,trial_right_image,-1,exp1.png,2,exp1.png,exp2.png,1,1,non-reversed,correct,0.6844208245436849,1,valid_win,412.21381439990364,42,,,,,,,,,,,,,,,,,,,,sub_794,2024-06-18_17h39.40.549,Reversal,2023.2.1,60.06695061549031,2,2024-06-18 17h39.56.166100 +0300,
11,exp3.png,exp4.png,,3,0,3,0,0,11,11,11,,,,,,,,,,,,,,,,,,,,,,,,,500.3511230000295,,,,,,,,,,,,500.20570960012265,500.2068127000239,500.2068608000409,False,502.44159060018137,502.4420388001017,503.05572409997694,503.05574070010334,504.85395360016264,70,71,False,exp3.png,exp4.png,trial_left_image,1,exp3.png,2,exp3.png,exp4.png,1,3,reversed,correct,0.9014728406078045,1,valid_win,416.86283939983696,43,,,,,,,,,,,,,,,,,,,,sub_794,2024-06-18_17h39.40.549,Reversal,2023.2.1,60.06695061549031,2,2024-06-18 17h39.56.166100 +0300,
12,exp1.png,exp2.png,,3,0,3,0,0,12,12,12,,,,,,,,,,,,,,,,,,,,,,,,,504.9841843000613,,,,,,,,,,,,504.8544316000771,504.8550028000027,504.85502750007436,False,506.4240473001264,506.42449920019135,507.0387964001857,507.03882180014625,508.8373680000659,71,72,True,exp2.png,exp1.png,trial_right_image,-1,exp1.png,2,exp1.png,exp2.png,1,1,non-reversed,correct,0.6926162033343178,1,valid_win,420.845299199922,44,,,,,,,,,,,,,,,,,,,,sub_794,2024-06-18_17h39.40.549,Reversal,2023.2.1,60.06695061549031,2,2024-06-18 17h39.56.166100 +0300,
13,exp3.png,exp4.png,,3,0,3,0,0,13,13,13,,,,,,,,,,,,,,,,,,,,,,,,,508.9913989000488,,,,,,,,,,,,508.8384037001524,508.8396485999692,508.83970290003344,False,510.3400277001783,510.3404052001424,510.95493860007264,510.95496030012146,512.7532724000048,72,73,True,exp4.png,exp3.png,trial_left_image,1,exp4.png,2,exp3.png,exp4.png,0,4,reversed,incorrect,0.4697731559194045,0,valid_lose,424.7612094997894,44,,,,,,,,,,,,,,,,,,,,sub_794,2024-06-18_17h39.40.549,Reversal,2023.2.1,60.06695061549031,2,2024-06-18 17h39.56.166100 +0300,
14,exp1.png,exp2.png,,3,0,3,0,0,14,14,14,,,,,,,,,,,,,,,,,,,,,,,,,512.8911656001583,,,,,,,,,,,,512.7541765000205,512.7553525001276,512.7554035000503,False,514.373619900085,514.3740731000435,514.9877874001395,514.9878088000696,516.7856096001342,73,74,False,exp1.png,exp2.png,trial_right_image,-1,exp2.png,2,exp1.png,exp2.png,0,2,non-reversed,incorrect,0.7781000183283293,0,valid_lose,428.7948721998837,44,,,,,,,,,,,,,,,,,,,,sub_794,2024-06-18_17h39.40.549,Reversal,2023.2.1,60.06695061549031,2,2024-06-18 17h39.56.166100 +0300,
15,exp3.png,exp4.png,,3,0,3,0,0,15,15,15,,,,,,,,,,,,,,,,,,,,,,,,,516.9238844001666,,,,,,,,,,,,516.7862730000634,516.7870849000756,516.7871201001108,False,518.2561476000119,518.2565661000554,518.8706651001703,518.8706784001552,520.669301800197,74,75,True,exp4.png,exp3.png,trial_left_image,1,exp4.png,2,exp3.png,exp4.png,0,4,reversed,incorrect,0.283087750542652,0,valid_lose,432.67736189998686,44,,,,,,,,,,,,,,,,,,,,sub_794,2024-06-18_17h39.40.549,Reversal,2023.2.1,60.06695061549031,2,2024-06-18 17h39.56.166100 +0300,
16,exp1.png,exp2.png,,3,0,3,0,0,16,16,16,,,,,,,,,,,,,,,,,,,,,,,,,520.8096078000963,,,,,,,,,,,,520.6701214001514,520.6710237001535,520.6710662001278,False,522.3397776000202,522.3403640000615,522.9531064000912,522.9531202001963,524.7514016001951,75,76,False,exp1.png,exp2.png,trial_right_image,-1,exp2.png,2,exp1.png,exp2.png,0,2,non-reversed,incorrect,0.4088887328861778,0,valid_lose,436.76115639996715,44,,,,,,,,,,,,,,,,,,,,sub_794,2024-06-18_17h39.40.549,Reversal,2023.2.1,60.06695061549031,2,2024-06-18 17h39.56.166100 +0300,
17,exp3.png,exp4.png,,3,0,3,0,0,17,17,17,,,,,,,,,,,,,,,,,,,,,,,,,524.8900188000407,,,,,,,,,,,,524.7520261001773,524.7527297001798,524.7527624000795,False,526.5054312001448,526.5061874000821,527.1196648001205,527.1196944001131,528.9174760000315,76,77,True,exp4.png,exp3.png,trial_right_image,-1,exp3.png,2,exp3.png,exp4.png,1,3,reversed,correct,0.3211300528618789,1,valid_win,440.9269656999968,45,,,,,,,,,,,,,,,,,,,,sub_794,2024-06-18_17h39.40.549,Reversal,2023.2.1,60.06695061549031,2,2024-06-18 17h39.56.166100 +0300,
18,exp1.png,exp2.png,,3,0,3,0,0,18,18,18,,,,,,,,,,,,,,,,,,,,,,,,,529.0622575001325,,,,,,,,,,,,528.9180782001931,528.9187150001526,528.9187455000356,False,533.2870959001593,533.2874512001872,533.9019212001003,533.9019373999909,535.7004704000428,77,78,False,exp1.png,exp2.png,trial_right_image,-1,exp2.png,2,exp1.png,exp2.png,0,2,non-reversed,incorrect,0.4755592279552293,0,valid_lose,447.7082562998403,45,,,,,,,,,,,,,,,,,,,,sub_794,2024-06-18_17h39.40.549,Reversal,2023.2.1,60.06695061549031,2,2024-06-18 17h39.56.166100 +0300,
19,exp3.png,exp4.png,,3,0,3,0,0,19,19,19,,,,,,,,,,,,,,,,,,,,,,,,,535.8528225000482,,,,,,,,,,,,535.7014564999845,535.7026146000717,535.7026695001405,False,537.5534914999735,537.5538910999894,538.1682391001377,538.1682749001775,539.9663250001613,78,79,False,exp3.png,exp4.png,trial_left_image,1,exp3.png,2,exp3.png,exp4.png,1,3,reversed,correct,0.18977200866557242,0,invalid_lose,451.9746938999742,45,,,,,,,,,,,,,,,,,,,,sub_794,2024-06-18_17h39.40.549,Reversal,2023.2.1,60.06695061549031,2,2024-06-18 17h39.56.166100 +0300,
20,exp1.png,exp2.png,,3,0,3,0,0,20,20,20,,,,,,,,,,,,,,,,,,,,,,,,,540.1066301001702,,,,,,,,,,,,539.9674245000351,539.968764499994,539.9688221001998,False,541.6362513001077,541.6366832000203,542.251348100137,542.2513800000306,544.0487230999861,79,80,False,exp1.png,exp2.png,trial_right_image,-1,exp2.png,2,exp1.png,exp2.png,0,2,non-reversed,incorrect,0.0017089106594406767,1,invalid_win,456.0574845999945,46,,,,,,,,,,,,,,,,,,,,sub_794,2024-06-18_17h39.40.549,Reversal,2023.2.1,60.06695061549031,2,2024-06-18 17h39.56.166100 +0300,
,,,exp1.png,3,0,3,0,,,,,0,0,0,0,0,0,0,0,,,,,,,,,,,,,,,,,544.1343384000938,,,,,,,,,,,,,,,,,,,,,,,,,,,,,,,,,,,,,,,,,544.0645655000117,544.1343384000938,546.7862764000893,93.0,93.0,1.7055806999560446,"[(93.0, 1.7055806999560446)]",,,,,,,,,,,,,sub_794,2024-06-18_17h39.40.549,Reversal,2023.2.1,60.06695061549031,2,2024-06-18 17h39.56.166100 +0300,
,,,exp2.png,3,0,3,0,,,,,0,0,0,0,0,1,1,1,,,,,,,,,,,,,,,,,546.848079000134,,,,,,,,,,,,,,,,,,,,,,,,,,,,,,,,,,,,,,,,,546.786862900015,546.848079000134,549.0529227000661,,95.0,1.2739091000985354,"[(95.0, 1.2739091000985354)]",95.0,,,,,,,,,,,,sub_794,2024-06-18_17h39.40.549,Reversal,2023.2.1,60.06695061549031,2,2024-06-18 17h39.56.166100 +0300,
,,,exp3.png,3,0,3,0,,,,,0,0,0,0,0,2,2,2,,,,,,,,,,,,,,,,,549.1149908001535,,,,,,,,,,,,,,,,,,,,,,,,,,,,,,,,,,,,,,,,,549.053409300046,549.1149908001535,551.386659400072,,13.0,1.3241529997903854,"[(13.0, 1.3241529997903854)]",,13.0,,,,,,,,,,,sub_794,2024-06-18_17h39.40.549,Reversal,2023.2.1,60.06695061549031,2,2024-06-18 17h39.56.166100 +0300,
,,,exp4.png,3,0,3,0,,,,,0,0,0,0,0,3,3,3,,,,,,,,,,,,,,,,,551.4499252000824,,,,,,,,,,,,,,,,,,,,,,,,,,,,,,,,,,,,,,,,,551.387185400119,551.4499252000824,553.35283850017,,76.0,1.0205352001357824,"[(76.0, 1.0205352001357824)]",,,76.0,,,,,,,,,,sub_794,2024-06-18_17h39.40.549,Reversal,2023.2.1,60.06695061549031,2,2024-06-18 17h39.56.166100 +0300,
0,exp1.png,exp2.png,,,,,,,,,,,,,,,,,,0,0,0,0,0,0,0,0,,,,,,,,,553.6257952000014,,,,,,,,,,,,,,553.3625955001917,True,553.4372809000779,553.4372946000658,553.4527607001364,553.4527751000132,553.4726592001971,,,,,,,,,,,,,,,,,,,,,,,,,,,,,,,553.3616253000218,553.3625728001352,,,,,,,,sub_794,2024-06-18_17h39.40.549,Reversal,2023.2.1,60.06695061549031,2,2024-06-18 17h39.56.166100 +0300,
1,exp3.png,exp4.png,,,,,,,,,,,,,,,,,,0,0,0,0,0,1,1,1,,,,,,,,,553.6257952000014,,,,,,,,,,,,,,553.4731616000645,False,555.3847123000305,555.3852946001571,555.9989169000182,555.9989312000107,557.7972860999871,0,81,True,exp4.png,exp3.png,trial_right_image,-1,exp3.png,2,exp4.png,exp3.png,1,3,reversed,incorrect,0.789106262269929,0,valid_lose,469.8060873998329,46,,,,,,,,,,,553.4729122000281,553.4731507000979,467.9675543999765,,,,,,,sub_794,2024-06-18_17h39.40.549,Reversal,2023.2.1,60.06695061549031,2,2024-06-18 17h39.56.166100 +0300,
2,exp1.png,exp2.png,,,,,,,,,,,,,,,,,,0,0,0,0,0,2,2,2,,,,,,,,,557.9321290000807,,,,,,,,,,,,,,557.7987216000911,False,559.2340442000423,559.2344865000341,559.848885100102,559.8489132001996,561.6465299001429,1,82,True,exp2.png,exp1.png,trial_left_image,1,exp2.png,2,exp1.png,exp2.png,0,2,non-reversed,incorrect,0.7176022718556537,0,valid_lose,473.6552845998667,46,,,,,,,,,,,557.7979330001399,557.7986870000605,,,,,,,,sub_794,2024-06-18_17h39.40.549,Reversal,2023.2.1,60.06695061549031,2,2024-06-18 17h39.56.166100 +0300,
3,exp3.png,exp4.png,,,,,,,,,,,,,,,,,,0,0,0,0,0,3,3,3,,,,,,,,,561.7859369001817,,,,,,,,,,,,,,561.6478838000912,False,563.6003700001165,563.6008395000827,564.2145073001739,564.2145216001663,566.0128948001657,2,83,True,exp4.png,exp3.png,trial_left_image,1,exp4.png,2,exp4.png,exp3.png,0,4,reversed,correct,0.0501676367234174,0,invalid_lose,478.02164079993963,46,,,,,,,,,,,561.6470914999954,561.6478505001869,,,,,,,,sub_794,2024-06-18_17h39.40.549,Reversal,2023.2.1,60.06695061549031,2,2024-06-18 17h39.56.166100 +0300,
4,exp1.png,exp2.png,,,,,,,,,,,,,,,,,,0,0,0,0,0,4,4,4,,,,,,,,,566.1525795001071,,,,,,,,,,,,,,566.0143565000035,False,569.0830691000447,569.0834488000255,569.6974690000061,569.6974941000808,571.4954886999913,3,84,False,exp1.png,exp2.png,trial_right_image,-1,exp2.png,2,exp1.png,exp2.png,0,2,non-reversed,incorrect,0.05372230816900614,1,invalid_win,483.5042512998916,47,,,,,,,,,,,566.0136164000724,566.0143185001798,,,,,,,,sub_794,2024-06-18_17h39.40.549,Reversal,2023.2.1,60.06695061549031,2,2024-06-18 17h39.56.166100 +0300,
5,exp3.png,exp4.png,,,,,,,,,,,,,,,,,,0,0,0,0,0,5,5,5,,,,,,,,,571.6437278001104,,,,,,,,,,,,,,571.4969097001012,False,573.3823506999761,573.382790400181,573.9968771000858,573.9969023000449,575.7945458001923,4,85,True,exp4.png,exp3.png,trial_right_image,-1,exp3.png,2,exp4.png,exp3.png,1,3,reversed,incorrect,0.29043926522067465,0,valid_lose,487.80359189980663,47,,,,,,,,,,,571.4961086001713,571.4968747000676,,,,,,,,sub_794,2024-06-18_17h39.40.549,Reversal,2023.2.1,60.06695061549031,2,2024-06-18 17h39.56.166100 +0300,
6,exp1.png,exp2.png,,,,,,,,,,,,,,,,,,0,0,0,0,0,6,6,6,,,,,,,,,575.927061600145,,,,,,,,,,,,,,575.7955539000686,False,577.2648343001492,577.265273099998,577.8801304001827,577.8801703001373,579.6777795001399,5,86,True,exp2.png,exp1.png,trial_left_image,1,exp2.png,2,exp1.png,exp2.png,0,2,non-reversed,incorrect,0.8986694654735444,0,valid_lose,491.68607419985346,47,,,,,,,,,,,575.7949763999786,575.7955296,,,,,,,,sub_794,2024-06-18_17h39.40.549,Reversal,2023.2.1,60.06695061549031,2,2024-06-18 17h39.56.166100 +0300,
7,exp3.png,exp4.png,,,,,,,,,,,,,,,,,,0,0,0,0,0,7,7,7,,,,,,,,,579.8227054001763,,,,,,,,,,,,,,579.6795993000269,False,581.2978574000299,581.2982660999987,581.9126346001867,581.9126792000607,583.7108114999719,6,87,False,exp3.png,exp4.png,trial_right_image,-1,exp4.png,2,exp4.png,exp3.png,0,4,reversed,correct,0.1431279795464362,0,invalid_lose,495.7190681998618,47,,,,,,,,,,,579.678590600146,579.6795362001285,,,,,,,,sub_794,2024-06-18_17h39.40.549,Reversal,2023.2.1,60.06695061549031,2,2024-06-18 17h39.56.166100 +0300,
8,exp1.png,exp2.png,,,,,,,,,,,,,,,,,,0,0,0,0,0,8,8,8,,,,,,,,,583.846695800079,,,,,,,,,,,,,,583.7130377001595,False,585.4139531000983,585.4143154001795,586.0288653001189,586.0288850001525,587.8262616000138,7,88,False,exp1.png,exp2.png,trial_left_image,1,exp1.png,2,exp1.png,exp2.png,1,1,non-reversed,correct,0.2643303109676789,1,valid_win,499.8351200998295,48,,,,,,,,,,,583.7118210000917,583.7129781001713,,,,,,,,sub_794,2024-06-18_17h39.40.549,Reversal,2023.2.1,60.06695061549031,2,2024-06-18 17h39.56.166100 +0300,
9,exp3.png,exp4.png,,,,,,,,,,,,,,,,,,0,0,0,0,0,9,9,9,,,,,,,,,587.9804664000403,,,,,,,,,,,,,,587.8270257001277,False,590.9135983001906,590.9140888000838,591.5280948001891,591.5281261000782,593.3264591000043,8,89,True,exp4.png,exp3.png,trial_right_image,-1,exp3.png,2,exp4.png,exp3.png,1,3,reversed,incorrect,0.4085073097564611,0,valid_lose,505.3348862999119,48,,,,,,,,,,,587.8265967001207,587.8270084999967,,,,,,,,sub_794,2024-06-18_17h39.40.549,Reversal,2023.2.1,60.06695061549031,2,2024-06-18 17h39.56.166100 +0300,
10,exp1.png,exp2.png,,,,,,,,,,,,,,,,,,0,0,0,0,0,10,10,10,,,,,,,,,593.4670774000697,,,,,,,,,,,,,,593.3278753000777,False,595.0121128000319,595.0124870000873,595.6274970001541,595.6275202999823,597.4252226999961,9,90,False,exp1.png,exp2.png,trial_left_image,1,exp1.png,2,exp1.png,exp2.png,1,1,non-reversed,correct,0.9680605393027807,1,valid_win,509.4332888999488,49,,,,,,,,,,,593.3271043000277,593.3278398001567,,,,,,,,sub_794,2024-06-18_17h39.40.549,Reversal,2023.2.1,60.06695061549031,2,2024-06-18 17h39.56.166100 +0300,
11,exp3.png,exp4.png,,,,,,,,,,,,,,,,,,0,0,0,0,0,11,11,11,,,,,,,,,597.5520980001893,,,,,,,,,,,,,,597.426280700136,False,601.2117031000089,601.2120827999897,601.8273422999773,601.8273740999866,603.6247442001477,10,91,False,exp3.png,exp4.png,trial_right_image,-1,exp4.png,2,exp4.png,exp3.png,0,4,reversed,correct,0.6291955258144669,1,valid_win,515.6328859999776,50,,,,,,,,,,,597.4256767001934,597.4262546000537,,,,,,,,sub_794,2024-06-18_17h39.40.549,Reversal,2023.2.1,60.06695061549031,2,2024-06-18 17h39.56.166100 +0300,
12,exp1.png,exp2.png,,,,,,,,,,,,,,,,,,0,0,0,0,0,12,12,12,,,,,,,,,603.7660260000266,,,,,,,,,,,,,,603.6262551001273,False,607.044819300063,607.0451658000238,607.659512600163,607.659545800183,609.4573065000586,11,92,False,exp1.png,exp2.png,trial_right_image,-1,exp2.png,2,exp1.png,exp2.png,0,2,non-reversed,incorrect,0.3539224629865776,0,valid_lose,521.4659715997986,50,,,,,,,,,,,603.625414500013,603.6262168001849,,,,,,,,sub_794,2024-06-18_17h39.40.549,Reversal,2023.2.1,60.06695061549031,2,2024-06-18 17h39.56.166100 +0300,
13,exp3.png,exp4.png,,,,,,,,,,,,,,,,,,0,0,0,0,0,13,13,13,,,,,,,,,609.591549300123,,,,,,,,,,,,,,609.4586820001714,False,611.32761700009,611.328033800004,611.9421133999713,611.9421503001358,613.7404793000314,12,93,False,exp3.png,exp4.png,trial_left_image,1,exp3.png,2,exp4.png,exp3.png,1,3,reversed,incorrect,0.6835970420601046,0,valid_lose,525.7488347999752,50,,,,,,,,,,,609.4579158001579,609.4586469000205,,,,,,,,sub_794,2024-06-18_17h39.40.549,Reversal,2023.2.1,60.06695061549031,2,2024-06-18 17h39.56.166100 +0300,
14,exp1.png,exp2.png,,,,,,,,,,,,,,,,,,0,0,0,0,0,14,14,14,,,,,,,,,613.8831727001816,,,,,,,,,,,,,,613.7420491001103,False,615.2602325000335,615.260651800083,615.8747284000274,615.8747543999925,617.6727901999839,13,94,True,exp2.png,exp1.png,trial_right_image,-1,exp1.png,2,exp1.png,exp2.png,1,1,non-reversed,correct,0.07696123112545139,0,invalid_lose,529.6814537998289,50,,,,,,,,,,,613.7412119000219,613.7420092001557,,,,,,,,sub_794,2024-06-18_17h39.40.549,Reversal,2023.2.1,60.06695061549031,2,2024-06-18 17h39.56.166100 +0300,
15,exp3.png,exp4.png,,,,,,,,,,,,,,,,,,0,0,0,0,0,15,15,15,,,,,,,,,617.7949252000544,,,,,,,,,,,,,,617.6739142001607,False,619.9095719000325,619.9099714001641,620.5240693001542,620.5240828001406,622.3221935001202,14,95,False,exp3.png,exp4.png,trial_left_image,1,exp3.png,2,exp4.png,exp3.png,1,3,reversed,incorrect,0.0768089447481255,1,invalid_win,534.3307736997958,51,,,,,,,,,,,617.6732990001328,617.6738830001559,,,,,,,,sub_794,2024-06-18_17h39.40.549,Reversal,2023.2.1,60.06695061549031,2,2024-06-18 17h39.56.166100 +0300,
16,exp1.png,exp2.png,,,,,,,,,,,,,,,,,,0,0,0,0,0,16,16,16,,,,,,,,,622.455520800082,,,,,,,,,,,,,,622.3233741000295,False,625.2087462001946,625.209118800005,625.8241810000036,625.8242436000146,627.6215403000824,15,96,True,exp2.png,exp1.png,trial_right_image,-1,exp1.png,2,exp1.png,exp2.png,1,1,non-reversed,correct,0.8090078780778701,1,valid_win,539.6299225999974,52,,,,,,,,,,,622.3227099000942,622.3233455000445,,,,,,,,sub_794,2024-06-18_17h39.40.549,Reversal,2023.2.1,60.06695061549031,2,2024-06-18 17h39.56.166100 +0300,
17,exp3.png,exp4.png,,,,,,,,,,,,,,,,,,0,0,0,0,0,17,17,17,,,,,,,,,627.7507019999903,,,,,,,,,,,,,,627.6227089001331,False,629.3919481001794,629.3923635000829,630.0065306001343,630.0065649000462,631.8044455000199,16,97,False,exp3.png,exp4.png,trial_right_image,-1,exp4.png,2,exp4.png,exp3.png,0,4,reversed,correct,0.16476631895374394,0,invalid_lose,543.8131653999444,52,,,,,,,,,,,627.622018400114,627.6226820000447,,,,,,,,sub_794,2024-06-18_17h39.40.549,Reversal,2023.2.1,60.06695061549031,2,2024-06-18 17h39.56.166100 +0300,
18,exp1.png,exp2.png,,,,,,,,,,,,,,,,,,0,0,0,0,0,18,18,18,,,,,,,,,631.9411716000177,,,,,,,,,,,,,,631.8059984000865,False,633.575389200123,633.5760305000003,634.1895864000544,634.1896063000895,635.9871400999837,17,98,False,exp1.png,exp2.png,trial_right_image,-1,exp2.png,2,exp1.png,exp2.png,0,2,non-reversed,incorrect,0.4541042687392677,0,valid_lose,547.9968170998618,52,,,,,,,,,,,631.8050361999776,631.8059634000529,,,,,,,,sub_794,2024-06-18_17h39.40.549,Reversal,2023.2.1,60.06695061549031,2,2024-06-18 17h39.56.166100 +0300,
19,exp3.png,exp4.png,,,,,,,,,,,,,,,,,,0,0,0,0,0,19,19,19,,,,,,,,,636.1255725000519,,,,,,,,,,,,,,635.9883834000211,False,637.5738374001812,637.5742517001927,638.1886849000584,638.1887097000144,639.9868674001191,18,99,True,exp4.png,exp3.png,trial_left_image,1,exp4.png,2,exp4.png,exp3.png,0,4,reversed,correct,0.7478700011856454,1,valid_win,551.9950527998153,53,,,,,,,,,,,635.987656300189,635.9883550000377,,,,,,,,sub_794,2024-06-18_17h39.40.549,Reversal,2023.2.1,60.06695061549031,2,2024-06-18 17h39.56.166100 +0300,
20,exp1.png,exp2.png,,,,,,,,,,,,,,,,,,0,0,0,0,0,20,20,20,,,,,,,,,640.1281818000134,,,,,,,,,,,,,,639.9881655001082,False,641.7901388001628,641.7904823001008,642.4047317001969,642.4047479000874,644.2035752001684,19,100,True,exp2.png,exp1.png,trial_right_image,-1,exp1.png,2,exp1.png,exp2.png,1,1,non-reversed,correct,0.5110610833054211,1,valid_win,556.2112868998665,54,,,,,,,,,,,639.9874640000053,639.9881339999847,,,,,,,,sub_794,2024-06-18_17h39.40.549,Reversal,2023.2.1,60.06695061549031,2,2024-06-18 17h39.56.166100 +0300,
,,,exp1.png,,,,,,,,,,,,,,,,,0,0,0,0,,,,,0,0,0,0,0,0,0,0,644.2962431001943,,,,,,,,,,,,,,,,,,,,,,,,,,,,,,,,,,,,,,,,,644.2218661000952,644.2962431001943,647.7905699000694,92.0,92.0,2.463371899910271,"[(92.0, 2.463371899910271)]",,,,,,,,,,,,,sub_794,2024-06-18_17h39.40.549,Reversal,2023.2.1,60.06695061549031,2,2024-06-18 17h39.56.166100 +0300,
,,,exp2.png,,,,,,,,,,,,,,,,,0,0,0,0,,,,,0,0,0,0,0,1,1,1,647.852463300107,,,,,,,,,,,,,,,,,,,,,,,,,,,,,,,,,,,,,,,,,647.7912755999714,647.852463300107,650.0904898999725,,89.0,1.1211830999236554,"[(89.0, 1.1211830999236554)]",89.0,,,,,,,,,,,,sub_794,2024-06-18_17h39.40.549,Reversal,2023.2.1,60.06695061549031,2,2024-06-18 17h39.56.166100 +0300,
,,,exp3.png,,,,,,,,,,,,,,,,,0,0,0,0,,,,,0,0,0,0,0,2,2,2,650.1556425001472,,,,,,,,,,,,,,,,,,,,,,,,,,,,,,,,,,,,,,,,,650.0910772001371,650.1556425001472,652.4901786001865,,11.0,1.3363773999735713,"[(11.0, 1.3363773999735713)]",,11.0,,,,,,,,,,,sub_794,2024-06-18_17h39.40.549,Reversal,2023.2.1,60.06695061549031,2,2024-06-18 17h39.56.166100 +0300,
,,,exp4.png,,,,,,,,,,,,,,,,,0,0,0,0,,,,,0,0,0,0,0,3,3,3,652.5542533001862,,,,,,,,,,,,,,,,,,,,,,,,,,,,,,,,,,,,,,,,,652.4907201000024,652.5542533001862,654.5061227001715,,79.0,1.1214232998900115,"[(79.0, 1.1214232998900115)]",,,79.0,,,,,,,,,,sub_794,2024-06-18_17h39.40.549,Reversal,2023.2.1,60.06695061549031,2,2024-06-18 17h39.56.166100 +0300,
0,exp1.png,exp2.png,,,,,,,,,,,,,,,,,,1,0,1,0,0,0,0,0,,,,,,,,,654.7509418001864,,,,,,,,,,,,,,654.5144961001351,True,654.5810526001733,654.5810679001734,654.5965022000019,654.5965166001115,654.6159581001848,,,,,,,,,,,,,,,,,,,,,,,,,,,,,,,654.5137893999927,654.5144739001989,,,,,,,,sub_794,2024-06-18_17h39.40.549,Reversal,2023.2.1,60.06695061549031,2,2024-06-18 17h39.56.166100 +0300,
1,exp3.png,exp4.png,,,,,,,,,,,,,,,,,,1,0,1,0,0,1,1,1,,,,,,,,,654.7509418001864,,,,,,,,,,,,,,654.6168027000967,False,656.6549448000733,656.6553297999781,657.26948300004,657.2695627000649,659.0676398000214,20,101,True,exp4.png,exp3.png,trial_right_image,-1,exp3.png,2,exp4.png,exp3.png,1,3,reversed,incorrect,0.16186417576229628,1,invalid_win,571.0761322998442,55,,,,,,,,,,,654.6163542000577,654.6167804000434,,,,,,,,sub_794,2024-06-18_17h39.40.549,Reversal,2023.2.1,60.06695061549031,2,2024-06-18 17h39.56.166100 +0300,
2,exp1.png,exp2.png,,,,,,,,,,,,,,,,,,1,0,1,0,0,2,2,2,,,,,,,,,659.2148967001121,,,,,,,,,,,,,,659.0687500999775,False,662.0043079999741,662.0046696001664,662.6187373001594,662.6187506001443,664.4167206999846,21,102,True,exp2.png,exp1.png,trial_right_image,-1,exp1.png,2,exp1.png,exp2.png,1,1,non-reversed,correct,0.030145607898350524,0,invalid_lose,576.4254740998149,55,,,,,,,,,,,659.0681410001125,659.0687222001143,,,,,,,,sub_794,2024-06-18_17h39.40.549,Reversal,2023.2.1,60.06695061549031,2,2024-06-18 17h39.56.166100 +0300,
3,exp3.png,exp4.png,,,,,,,,,,,,,,,,,,1,0,1,0,0,3,3,3,,,,,,,,,664.5444780001417,,,,,,,,,,,,,,664.4178609000519,False,666.1032476001419,666.1035714000463,666.7183322000783,666.71835690015,668.5166728000622,22,103,True,exp4.png,exp3.png,trial_right_image,-1,exp3.png,2,exp4.png,exp3.png,1,3,reversed,incorrect,0.8507906430820413,0,valid_lose,580.5243754999246,55,,,,,,,,,,,664.4172228001989,664.4178326001856,,,,,,,,sub_794,2024-06-18_17h39.40.549,Reversal,2023.2.1,60.06695061549031,2,2024-06-18 17h39.56.166100 +0300,
4,exp1.png,exp2.png,,,,,,,,,,,,,,,,,,1,0,1,0,0,4,4,4,,,,,,,,,668.6431052000262,,,,,,,,,,,,,,668.5183179001324,False,670.1028781000059,670.1032460001297,670.7177469001617,670.7177654001862,672.5160308000632,23,104,False,exp1.png,exp2.png,trial_left_image,1,exp1.png,2,exp1.png,exp2.png,1,1,non-reversed,correct,0.7412584225347948,1,valid_win,584.5240508997813,56,,,,,,,,,,,668.5173671999946,668.518280000193,,,,,,,,sub_794,2024-06-18_17h39.40.549,Reversal,2023.2.1,60.06695061549031,2,2024-06-18 17h39.56.166100 +0300,
5,exp3.png,exp4.png,,,,,,,,,,,,,,,,,,1,0,1,0,0,5,5,5,,,,,,,,,672.6550567999948,,,,,,,,,,,,,,672.5179294000845,False,674.9692290001549,674.9695760000031,675.5837254000362,675.583741000155,677.3817716999911,24,105,True,exp4.png,exp3.png,trial_right_image,-1,exp3.png,2,exp4.png,exp3.png,1,3,reversed,incorrect,0.7465685556450113,0,valid_lose,589.3903805997688,56,,,,,,,,,,,672.5168725000694,672.5178832001984,,,,,,,,sub_794,2024-06-18_17h39.40.549,Reversal,2023.2.1,60.06695061549031,2,2024-06-18 17h39.56.166100 +0300,
6,exp1.png,exp2.png,,,,,,,,,,,,,,,,,,1,0,1,0,0,6,6,6,,,,,,,,,677.5226400999818,,,,,,,,,,,,,,677.3830063000787,False,678.8032852001488,678.803814599989,679.4164042000193,679.416419000132,681.2147804000415,25,106,False,exp1.png,exp2.png,trial_left_image,1,exp1.png,2,exp1.png,exp2.png,1,1,non-reversed,correct,0.7639127156712716,1,valid_win,593.2246100998018,57,,,,,,,,,,,677.3823132000398,677.3829719000496,,,,,,,,sub_794,2024-06-18_17h39.40.549,Reversal,2023.2.1,60.06695061549031,2,2024-06-18 17h39.56.166100 +0300,
7,exp3.png,exp4.png,,,,,,,,,,,,,,,,,,1,0,1,0,0,7,7,7,,,,,,,,,681.3564139001537,,,,,,,,,,,,,,681.2164090001024,False,682.9524451000616,682.952907799976,683.5661349999718,683.5661512999795,685.3643195000477,26,107,True,exp4.png,exp3.png,trial_left_image,1,exp4.png,2,exp4.png,exp3.png,0,4,reversed,correct,0.437567159036207,1,valid_win,597.3737081999425,58,,,,,,,,,,,681.2155269000214,681.2163679001387,,,,,,,,sub_794,2024-06-18_17h39.40.549,Reversal,2023.2.1,60.06695061549031,2,2024-06-18 17h39.56.166100 +0300,
8,exp1.png,exp2.png,,,,,,,,,,,,,,,,,,1,0,1,0,0,8,8,8,,,,,,,,,685.4951093001291,,,,,,,,,,,,,,685.3659248000477,False,687.084175700089,687.0845644001383,687.6989188999869,687.6989368000068,689.4973483001813,27,108,False,exp1.png,exp2.png,trial_left_image,1,exp1.png,2,exp1.png,exp2.png,1,1,non-reversed,correct,0.19470944839563997,0,invalid_lose,601.5053690997884,58,,,,,,,,,,,685.3651112001389,685.3658843999729,,,,,,,,sub_794,2024-06-18_17h39.40.549,Reversal,2023.2.1,60.06695061549031,2,2024-06-18 17h39.56.166100 +0300,
9,exp3.png,exp4.png,,,,,,,,,,,,,,,,,,1,0,1,0,0,9,9,9,,,,,,,,,689.6412055999972,,,,,,,,,,,,,,689.4993471000344,False,690.9832034001593,690.9834451000206,691.5984726999886,691.5984855999704,693.3966200000141,28,109,True,exp4.png,exp3.png,trial_right_image,-1,exp3.png,2,exp4.png,exp3.png,1,3,reversed,incorrect,0.8938574292109729,0,valid_lose,605.4042558998335,58,,,,,,,,,,,689.4982716001105,689.4992968000006,,,,,,,,sub_794,2024-06-18_17h39.40.549,Reversal,2023.2.1,60.06695061549031,2,2024-06-18 17h39.56.166100 +0300,
10,exp1.png,exp2.png,,,,,,,,,,,,,,,,,,1,0,1,0,0,10,10,10,,,,,,,,,693.5254306001589,,,,,,,,,,,,,,693.3981274000835,False,695.2492531000171,695.2494958001189,695.8648217001464,695.8648709000554,697.6625038001221,29,110,True,exp2.png,exp1.png,trial_right_image,-1,exp1.png,2,exp1.png,exp2.png,1,1,non-reversed,correct,0.7372725937985024,1,valid_win,609.6703061999287,59,,,,,,,,,,,693.3972840001807,693.398089400027,,,,,,,,sub_794,2024-06-18_17h39.40.549,Reversal,2023.2.1,60.06695061549031,2,2024-06-18 17h39.56.166100 +0300,
11,exp3.png,exp4.png,,,,,,,,,,,,,,,,,,1,0,1,0,0,11,11,11,,,,,,,,,697.8004676001146,,,,,,,,,,,,,,697.6636513001285,False,702.5655944000464,702.5659396001138,703.1804806999862,703.1805145000108,704.9784177001566,30,111,True,exp4.png,exp3.png,trial_right_image,-1,exp3.png,2,exp4.png,exp3.png,1,3,reversed,incorrect,0.28159594391446274,0,valid_lose,616.9867444999982,59,,,,,,,,,,,697.6630013000686,697.6636224000249,,,,,,,,sub_794,2024-06-18_17h39.40.549,Reversal,2023.2.1,60.06695061549031,2,2024-06-18 17h39.56.166100 +0300,
12,exp1.png,exp2.png,,,,,,,,,,,,,,,,,,1,0,1,0,0,12,12,12,,,,,,,,,705.125744300196,,,,,,,,,,,,,,704.9803496000823,False,706.9651121001225,706.9655003000516,707.5795649001375,707.5795787000097,709.3784553001169,31,112,False,exp1.png,exp2.png,trial_left_image,1,exp1.png,2,exp1.png,exp2.png,1,1,non-reversed,correct,0.9981140140526037,1,valid_win,621.3863021999132,60,,,,,,,,,,,704.979358300101,704.9803036001977,,,,,,,,sub_794,2024-06-18_17h39.40.549,Reversal,2023.2.1,60.06695061549031,2,2024-06-18 17h39.56.166100 +0300,
13,exp3.png,exp4.png,,,,,,,,,,,,,,,,,,1,0,1,0,0,13,13,13,,,,,,,,,709.538029700052,,,,,,,,,,,,,,709.3801297000609,False,716.2638468001969,716.2641786001623,716.8786607000511,716.8786800000817,718.6767731001601,32,113,True,exp4.png,exp3.png,trial_right_image,-1,exp3.png,2,exp4.png,exp3.png,1,3,reversed,incorrect,0.10703849441931002,1,invalid_win,630.6849856998306,61,,,,,,,,,,,709.3792308000848,709.3800865001976,,,,,,,,sub_794,2024-06-18_17h39.40.549,Reversal,2023.2.1,60.06695061549031,2,2024-06-18 17h39.56.166100 +0300,
14,exp1.png,exp2.png,,,,,,,,,,,,,,,,,,1,0,1,0,0,14,14,14,,,,,,,,,718.8243131001946,,,,,,,,,,,,,,718.6790036000311,False,720.6797617999837,720.6799657000229,721.2949330001138,721.2949980001431,723.0925706000999,33,114,False,exp1.png,exp2.png,trial_right_image,-1,exp2.png,2,exp1.png,exp2.png,0,2,non-reversed,incorrect,0.24788456345410714,1,invalid_win,635.100778899854,62,,,,,,,,,,,718.677799400175,718.678944400046,,,,,,,,sub_794,2024-06-18_17h39.40.549,Reversal,2023.2.1,60.06695061549031,2,2024-06-18 17h39.56.166100 +0300,
15,exp3.png,exp4.png,,,,,,,,,,,,,,,,,,1,0,1,0,0,15,15,15,,,,,,,,,723.2400052000303,,,,,,,,,,,,,,723.0937376001384,False,725.3960088000167,725.3963650001679,726.0108372000977,726.01086020004,727.8086092001759,34,115,False,exp3.png,exp4.png,trial_right_image,-1,exp4.png,2,exp4.png,exp3.png,0,4,reversed,correct,0.06372023056497778,0,invalid_lose,639.817168999929,62,,,,,,,,,,,723.093088600086,723.0937082001474,,,,,,,,sub_794,2024-06-18_17h39.40.549,Reversal,2023.2.1,60.06695061549031,2,2024-06-18 17h39.56.166100 +0300,
16,exp1.png,exp2.png,,,,,,,,,,,,,,,,,,1,0,1,0,0,16,16,16,,,,,,,,,727.9494752001483,,,,,,,,,,,,,,727.8098826999776,False,729.3118807000574,729.3121494001243,729.9270244000945,729.9270421001129,731.7249530002009,35,116,False,exp1.png,exp2.png,trial_right_image,-1,exp2.png,2,exp1.png,exp2.png,0,2,non-reversed,incorrect,0.16680621602086387,1,invalid_win,643.7329582998063,63,,,,,,,,,,,727.8092000000179,727.8098486000672,,,,,,,,sub_794,2024-06-18_17h39.40.549,Reversal,2023.2.1,60.06695061549031,2,2024-06-18 17h39.56.166100 +0300,
17,exp3.png,exp4.png,,,,,,,,,,,,,,,,,,1,0,1,0,0,17,17,17,,,,,,,,,731.8700141001027,,,,,,,,,,,,,,731.7261640999932,False,733.4613314999733,733.4616751000285,734.0769253000617,734.0769653001335,735.874169900082,36,117,False,exp3.png,exp4.png,trial_right_image,-1,exp4.png,2,exp4.png,exp3.png,0,4,reversed,correct,0.32085968551685184,1,valid_win,647.8824791999068,64,,,,,,,,,,,731.7254831001628,731.7261349000037,,,,,,,,sub_794,2024-06-18_17h39.40.549,Reversal,2023.2.1,60.06695061549031,2,2024-06-18 17h39.56.166100 +0300,
18,exp1.png,exp2.png,,,,,,,,,,,,,,,,,,1,0,1,0,0,18,18,18,,,,,,,,,735.9977669001091,,,,,,,,,,,,,,735.8750184001401,False,738.327257100027,738.3274960000999,738.9424899001606,738.9425044001546,740.7402209001593,37,118,True,exp2.png,exp1.png,trial_left_image,1,exp2.png,2,exp1.png,exp2.png,0,2,non-reversed,incorrect,0.9177599698117075,0,valid_lose,652.7483092998154,64,,,,,,,,,,,735.874555400107,735.8749989999924,,,,,,,,sub_794,2024-06-18_17h39.40.549,Reversal,2023.2.1,60.06695061549031,2,2024-06-18 17h39.56.166100 +0300,
19,exp3.png,exp4.png,,,,,,,,,,,,,,,,,,1,0,1,0,0,19,19,19,,,,,,,,,740.8784974000882,,,,,,,,,,,,,,740.7412327001803,False,742.1604768000543,742.1608345001005,742.7751635999884,742.7751780999824,744.5732032000087,38,119,False,exp3.png,exp4.png,trial_right_image,-1,exp4.png,2,exp4.png,exp3.png,0,4,reversed,correct,0.24825036247755927,0,invalid_lose,656.5816399999894,64,,,,,,,,,,,740.7406483001541,740.7412080001086,,,,,,,,sub_794,2024-06-18_17h39.40.549,Reversal,2023.2.1,60.06695061549031,2,2024-06-18 17h39.56.166100 +0300,
20,exp1.png,exp2.png,,,,,,,,,,,,,,,,,,1,0,1,0,0,20,20,20,,,,,,,,,744.7086022000294,,,,,,,,,,,,,,744.574530400103,False,746.5762496001553,746.5764522000682,747.1914520000573,747.191472100094,748.9895600001328,39,120,False,exp1.png,exp2.png,trial_left_image,1,exp1.png,2,exp1.png,exp2.png,1,1,non-reversed,correct,0.4270483589523918,1,valid_win,660.9972638997715,65,,,,,,,,,,,744.5738109999802,744.5744954000693,,,,,,,,sub_794,2024-06-18_17h39.40.549,Reversal,2023.2.1,60.06695061549031,2,2024-06-18 17h39.56.166100 +0300,
,,,exp1.png,,,,,,,,,,,,,,,,,1,0,1,0,,,,,0,0,0,0,0,0,0,0,749.0852461000904,,,,,,,,,,,,,,,,,,,,,,,,,,,,,,,,,,,,,,,,,749.0121389999986,749.0852461000904,752.5112352999859,95.0,95.0,2.5286667000036687,"[(95.0, 2.5286667000036687)]",,,,,,,,,,,,,sub_794,2024-06-18_17h39.40.549,Reversal,2023.2.1,60.06695061549031,2,2024-06-18 17h39.56.166100 +0300,
,,,exp2.png,,,,,,,,,,,,,,,,,1,0,1,0,,,,,0,0,0,0,0,1,1,1,752.5729343001731,,,,,,,,,,,,,,,,,,,,,,,,,,,,,,,,,,,,,,,,,752.511959800031,752.5729343001731,754.543171599973,,92.0,1.0722342000808567,"[(92.0, 1.0722342000808567)]",92.0,,,,,,,,,,,,sub_794,2024-06-18_17h39.40.549,Reversal,2023.2.1,60.06695061549031,2,2024-06-18 17h39.56.166100 +0300,
,,,exp3.png,,,,,,,,,,,,,,,,,1,0,1,0,,,,,0,0,0,0,0,2,2,2,754.6045199001674,,,,,,,,,,,,,,,,,,,,,,,,,,,,,,,,,,,,,,,,,754.5437481000554,754.6045199001674,758.2097080000676,,27.0,2.6563840000890195,"[(27.0, 2.6563840000890195)]",,27.0,,,,,,,,,,,sub_794,2024-06-18_17h39.40.549,Reversal,2023.2.1,60.06695061549031,2,2024-06-18 17h39.56.166100 +0300,
,,,exp4.png,,,,,,,,,,,,,,,,,1,0,1,0,,,,,0,0,0,0,0,3,3,3,758.2744271999691,,,,,,,,,,,,,,,,,,,,,,,,,,,,,,,,,,,,,,,,,758.2101945001632,758.2744271999691,760.0769923999906,,92.0,0.9702974997926503,"[(92.0, 0.9702974997926503)]",,,92.0,,,,,,,,,,sub_794,2024-06-18_17h39.40.549,Reversal,2023.2.1,60.06695061549031,2,2024-06-18 17h39.56.166100 +0300,
0,exp1.png,exp2.png,,,,,,,,,,,,,,,,,,2,0,2,0,0,0,0,0,,,,,,,,,760.3536069002002,,,,,,,,,,,,,,760.0881746001542,True,760.1640973000322,760.1641119001433,760.1780114001594,760.1780257001519,760.1970693999901,,,,,,,,,,,,,,,,,,,,,,,,,,,,,,,760.0874976001214,760.0881578000262,,,,,,,,sub_794,2024-06-18_17h39.40.549,Reversal,2023.2.1,60.06695061549031,2,2024-06-18 17h39.56.166100 +0300,
1,exp3.png,exp4.png,,,,,,,,,,,,,,,,,,2,0,2,0,0,1,1,1,,,,,,,,,760.3536069002002,,,,,,,,,,,,,,760.1975028000306,False,761.9082688000053,761.9086845000274,762.5229197000153,762.5229850001633,764.3215136001818,40,121,True,exp4.png,exp3.png,trial_left_image,1,exp4.png,2,exp4.png,exp3.png,0,4,reversed,correct,0.2470798152927769,0,invalid_lose,676.3294854999986,65,,,,,,,,,,,760.1972933001816,760.1974928001873,,,,,,,,sub_794,2024-06-18_17h39.40.549,Reversal,2023.2.1,60.06695061549031,2,2024-06-18 17h39.56.166100 +0300,
2,exp1.png,exp2.png,,,,,,,,,,,,,,,,,,2,0,2,0,0,2,2,2,,,,,,,,,764.4616500001866,,,,,,,,,,,,,,764.3231673000846,False,766.8239792999811,766.8242941000499,767.4391795999836,767.439214500133,769.2374587000813,41,122,True,exp2.png,exp1.png,trial_left_image,1,exp2.png,2,exp1.png,exp2.png,0,2,non-reversed,incorrect,0.6314224190518035,0,valid_lose,681.2451008998323,65,,,,,,,,,,,764.3222739000339,764.3231248999946,,,,,,,,sub_794,2024-06-18_17h39.40.549,Reversal,2023.2.1,60.06695061549031,2,2024-06-18 17h39.56.166100 +0300,
3,exp3.png,exp4.png,,,,,,,,,,,,,,,,,,2,0,2,0,0,3,3,3,,,,,,,,,769.3812157001812,,,,,,,,,,,,,,769.239800499985,False,770.6905279001221,770.6909428001381,771.3059926000424,771.3060831001494,773.1030819001608,42,123,True,exp4.png,exp3.png,trial_right_image,-1,exp3.png,2,exp4.png,exp3.png,1,3,reversed,incorrect,0.19105351386922964,1,invalid_win,685.1117441998795,66,,,,,,,,,,,769.238482600078,769.2397417000029,,,,,,,,sub_794,2024-06-18_17h39.40.549,Reversal,2023.2.1,60.06695061549031,2,2024-06-18 17h39.56.166100 +0300,
4,exp1.png,exp2.png,,,,,,,,,,,,,,,,,,2,0,2,0,0,4,4,4,,,,,,,,,773.240045200102,,,,,,,,,,,,,,773.104349100031,False,774.6233181999996,774.6237622001208,775.2379356001038,775.2379635001998,777.035777100129,43,124,False,exp1.png,exp2.png,trial_right_image,-1,exp2.png,2,exp1.png,exp2.png,0,2,non-reversed,incorrect,0.858194915434469,0,valid_lose,689.0445615998469,66,,,,,,,,,,,773.1036452001426,773.1043184001464,,,,,,,,sub_794,2024-06-18_17h39.40.549,Reversal,2023.2.1,60.06695061549031,2,2024-06-18 17h39.56.166100 +0300,
5,exp3.png,exp4.png,,,,,,,,,,,,,,,,,,2,0,2,0,0,5,5,5,,,,,,,,,777.1608671001159,,,,,,,,,,,,,,777.0367766001727,False,779.3552045000251,779.3554157000035,779.9704117001966,779.9704254001845,781.7689589001238,44,125,True,exp4.png,exp3.png,trial_left_image,1,exp4.png,2,exp4.png,exp3.png,0,4,reversed,correct,0.5814877805940276,1,valid_win,693.7762284998316,67,,,,,,,,,,,777.0362098000478,777.0367523001041,,,,,,,,sub_794,2024-06-18_17h39.40.549,Reversal,2023.2.1,60.06695061549031,2,2024-06-18 17h39.56.166100 +0300,
6,exp1.png,exp2.png,,,,,,,,,,,,,,,,,,2,0,2,0,0,6,6,6,,,,,,,,,781.9084880000446,,,,,,,,,,,,,,781.7703543000389,False,783.8553583000321,783.8557933999691,784.470431700116,784.470465300139,786.2686334999744,45,126,True,exp2.png,exp1.png,trial_right_image,-1,exp1.png,2,exp1.png,exp2.png,1,1,non-reversed,correct,0.5723227533200622,1,valid_win,698.2765930998139,68,,,,,,,,,,,781.7695932001807,781.7703195000067,,,,,,,,sub_794,2024-06-18_17h39.40.549,Reversal,2023.2.1,60.06695061549031,2,2024-06-18 17h39.56.166100 +0300,
7,exp3.png,exp4.png,,,,,,,,,,,,,,,,,,2,0,2,0,0,7,7,7,,,,,,,,,786.4119496000931,,,,,,,,,,,,,,786.2705696001649,False,788.2888987001497,788.2899865000509,788.9031515000388,788.9031666000374,790.7009405000135,46,127,True,exp4.png,exp3.png,trial_left_image,1,exp4.png,2,exp4.png,exp3.png,0,4,reversed,correct,0.05209716489857674,0,invalid_lose,702.7107619999442,68,,,,,,,,,,,786.2694983000401,786.2705184000079,,,,,,,,sub_794,2024-06-18_17h39.40.549,Reversal,2023.2.1,60.06695061549031,2,2024-06-18 17h39.56.166100 +0300,
8,exp1.png,exp2.png,,,,,,,,,,,,,,,,,,2,0,2,0,0,8,8,8,,,,,,,,,790.8464526999742,,,,,,,,,,,,,,790.7027418999933,False,792.6874196000863,792.6877686001826,793.3023966001347,793.3024714000057,795.1000696001574,47,128,True,exp2.png,exp1.png,trial_right_image,-1,exp1.png,2,exp1.png,exp2.png,1,1,non-reversed,correct,0.8149426763914677,1,valid_win,707.1085741999559,69,,,,,,,,,,,790.7016774001531,790.702699800022,,,,,,,,sub_794,2024-06-18_17h39.40.549,Reversal,2023.2.1,60.06695061549031,2,2024-06-18 17h39.56.166100 +0300,
9,exp3.png,exp4.png,,,,,,,,,,,,,,,,,,2,0,2,0,0,9,9,9,,,,,,,,,795.2369099000935,,,,,,,,,,,,,,795.1008878001012,False,797.3711808000226,797.3716094000265,797.9849878000095,797.9850050001405,799.7835138000082,48,129,False,exp3.png,exp4.png,trial_right_image,-1,exp4.png,2,exp4.png,exp3.png,0,4,reversed,correct,0.03209299571315394,0,invalid_lose,711.7924095999915,69,,,,,,,,,,,795.1004166000057,795.1008694001939,,,,,,,,sub_794,2024-06-18_17h39.40.549,Reversal,2023.2.1,60.06695061549031,2,2024-06-18 17h39.56.166100 +0300,
10,exp1.png,exp2.png,,,,,,,,,,,,,,,,,,2,0,2,0,0,10,10,10,,,,,,,,,799.9280061000027,,,,,,,,,,,,,,799.7858208001126,False,801.2522054000292,801.2524145999923,801.8679482999723,801.8679937999696,803.666054100031,49,130,True,exp2.png,exp1.png,trial_right_image,-1,exp1.png,2,exp1.png,exp2.png,1,1,non-reversed,correct,0.9457416324329436,1,valid_win,715.6732283998281,70,,,,,,,,,,,799.7845784001984,799.7857624001335,,,,,,,,sub_794,2024-06-18_17h39.40.549,Reversal,2023.2.1,60.06695061549031,2,2024-06-18 17h39.56.166100 +0300,
11,exp3.png,exp4.png,,,,,,,,,,,,,,,,,,2,0,2,0,0,11,11,11,,,,,,,,,803.8130442001857,,,,,,,,,,,,,,803.6684318000916,False,806.9021410001442,806.9024978000671,807.5175026000943,807.5175286000594,809.3150906001683,50,131,True,exp4.png,exp3.png,trial_right_image,-1,exp3.png,2,exp4.png,exp3.png,1,3,reversed,incorrect,0.08978737362085976,1,invalid_win,721.3233020999469,71,,,,,,,,,,,803.6671037999913,803.6683738001157,,,,,,,,sub_794,2024-06-18_17h39.40.549,Reversal,2023.2.1,60.06695061549031,2,2024-06-18 17h39.56.166100 +0300,
12,exp1.png,exp2.png,,,,,,,,,,,,,,,,,,2,0,2,0,0,12,12,12,,,,,,,,,809.4623821000569,,,,,,,,,,,,,,809.3167538000271,False,811.0686588000972,811.0690696001984,811.6830723001622,811.6830941999797,813.4811345001217,51,132,True,exp2.png,exp1.png,trial_right_image,-1,exp1.png,2,exp1.png,exp2.png,1,1,non-reversed,correct,0.9764259423368831,1,valid_win,725.489870299818,72,,,,,,,,,,,809.3158640000038,809.3167116001714,,,,,,,,sub_794,2024-06-18_17h39.40.549,Reversal,2023.2.1,60.06695061549031,2,2024-06-18 17h39.56.166100 +0300,
13,exp3.png,exp4.png,,,,,,,,,,,,,,,,,,2,0,2,0,0,13,13,13,,,,,,,,,813.6154308000114,,,,,,,,,,,,,,813.4821250999812,False,815.0343543000054,815.0347023000941,815.6496776000131,815.6497114000376,817.4473223001696,52,133,False,exp3.png,exp4.png,trial_right_image,-1,exp4.png,2,exp4.png,exp3.png,0,4,reversed,correct,0.5372858562671403,1,valid_win,729.45550739998,73,,,,,,,,,,,813.4815758999903,813.4821005000267,,,,,,,,sub_794,2024-06-18_17h39.40.549,Reversal,2023.2.1,60.06695061549031,2,2024-06-18 17h39.56.166100 +0300,
14,exp1.png,exp2.png,,,,,,,,,,,,,,,,,,2,0,2,0,0,14,14,14,,,,,,,,,817.5806303001009,,,,,,,,,,,,,,817.4485323000699,False,819.0007743001916,819.0010377999861,819.6154673001729,819.6154926000163,821.4138160001021,53,134,False,exp1.png,exp2.png,trial_right_image,-1,exp2.png,2,exp1.png,exp2.png,0,2,non-reversed,incorrect,0.24669354324017645,1,invalid_win,733.4218490999192,74,,,,,,,,,,,817.4478504001163,817.4485032001976,,,,,,,,sub_794,2024-06-18_17h39.40.549,Reversal,2023.2.1,60.06695061549031,2,2024-06-18 17h39.56.166100 +0300,
15,exp3.png,exp4.png,,,,,,,,,,,,,,,,,,2,0,2,0,0,15,15,15,,,,,,,,,821.5577366000507,,,,,,,,,,,,,,821.4153597000986,False,823.0174732999876,823.0180616001599,823.6321535999887,823.6321805000771,825.4295161999762,54,135,False,exp3.png,exp4.png,trial_right_image,-1,exp4.png,2,exp4.png,exp3.png,0,4,reversed,correct,0.9006502533313383,1,valid_win,737.4388547998387,75,,,,,,,,,,,821.4145790000912,821.4153197000269,,,,,,,,sub_794,2024-06-18_17h39.40.549,Reversal,2023.2.1,60.06695061549031,2,2024-06-18 17h39.56.166100 +0300,
16,exp1.png,exp2.png,,,,,,,,,,,,,,,,,,2,0,2,0,0,16,16,16,,,,,,,,,825.5706888001878,,,,,,,,,,,,,,825.430670700036,False,827.0331696001813,827.0336383001413,827.6482186000794,827.6482468000613,829.4455273000058,55,136,False,exp1.png,exp2.png,trial_right_image,-1,exp2.png,2,exp1.png,exp2.png,0,2,non-reversed,incorrect,0.5698095233662399,0,valid_lose,741.4544368998613,75,,,,,,,,,,,825.4300160000566,825.4306426001713,,,,,,,,sub_794,2024-06-18_17h39.40.549,Reversal,2023.2.1,60.06695061549031,2,2024-06-18 17h39.56.166100 +0300,
17,exp3.png,exp4.png,,,,,,,,,,,,,,,,,,2,0,2,0,0,17,17,17,,,,,,,,,829.5752450001892,,,,,,,,,,,,,,829.446444600122,False,831.1995674001519,831.1999825001694,831.8140447000042,831.8140696000773,833.6120995001402,56,137,False,exp3.png,exp4.png,trial_left_image,1,exp3.png,2,exp4.png,exp3.png,1,3,reversed,incorrect,0.7473653876133749,0,valid_lose,745.6207527997904,75,,,,,,,,,,,829.4459415001329,829.4464227000717,,,,,,,,sub_794,2024-06-18_17h39.40.549,Reversal,2023.2.1,60.06695061549031,2,2024-06-18 17h39.56.166100 +0300,
18,exp1.png,exp2.png,,,,,,,,,,,,,,,,,,2,0,2,0,0,18,18,18,,,,,,,,,833.7515786001459,,,,,,,,,,,,,,833.6132327001542,False,836.4816843001172,836.4820255001541,837.0966159000527,837.0966287001502,838.894466200145,57,138,False,exp1.png,exp2.png,trial_left_image,1,exp1.png,2,exp1.png,exp2.png,1,1,non-reversed,correct,0.659277685900675,1,valid_win,750.902831299929,76,,,,,,,,,,,833.6126187001355,833.613202100154,,,,,,,,sub_794,2024-06-18_17h39.40.549,Reversal,2023.2.1,60.06695061549031,2,2024-06-18 17h39.56.166100 +0300,
19,exp3.png,exp4.png,,,,,,,,,,,,,,,,,,2,0,2,0,0,19,19,19,,,,,,,,,839.0380522999913,,,,,,,,,,,,,,838.8955840000417,False,840.5484507000074,840.5487999999896,841.1633685000706,841.1633825001772,842.9606579001993,58,139,False,exp3.png,exp4.png,trial_left_image,1,exp3.png,2,exp4.png,exp3.png,1,3,reversed,incorrect,0.29672406492414716,0,valid_lose,754.9696062000003,76,,,,,,,,,,,838.8949544001371,838.8955562000629,,,,,,,,sub_794,2024-06-18_17h39.40.549,Reversal,2023.2.1,60.06695061549031,2,2024-06-18 17h39.56.166100 +0300,
20,exp1.png,exp2.png,,,,,,,,,,,,,,,,,,2,0,2,0,0,20,20,20,,,,,,,,,843.0968881000299,,,,,,,,,,,,,,842.9617053000256,False,844.3807958001271,844.3810056999791,844.9963473000098,844.996370700188,846.7939500000793,59,140,False,exp1.png,exp2.png,trial_right_image,-1,exp2.png,2,exp1.png,exp2.png,0,2,non-reversed,incorrect,0.574090387513533,0,valid_lose,758.801819199929,76,,,,,,,,,,,842.9611631999724,842.9616750001442,,,,,,,,sub_794,2024-06-18_17h39.40.549,Reversal,2023.2.1,60.06695061549031,2,2024-06-18 17h39.56.166100 +0300,
,,,exp1.png,,,,,,,,,,,,,,,,,2,0,2,0,,,,,0,0,0,0,0,0,0,0,846.8860349999741,,,,,,,,,,,,,,,,,,,,,,,,,,,,,,,,,,,,,,,,,846.8167283001821,846.8860349999741,849.3660701999906,99.0,99.0,1.63412950001657,"[(99.0, 1.63412950001657)]",,,,,,,,,,,,,sub_794,2024-06-18_17h39.40.549,Reversal,2023.2.1,60.06695061549031,2,2024-06-18 17h39.56.166100 +0300,
,,,exp2.png,,,,,,,,,,,,,,,,,2,0,2,0,,,,,0,0,0,0,0,1,1,1,849.4314704001881,,,,,,,,,,,,,,,,,,,,,,,,,,,,,,,,,,,,,,,,,849.366785600083,849.4314704001881,850.9813515001442,,93.0,0.7378748999908566,"[(93.0, 0.7378748999908566)]",93.0,,,,,,,,,,,,sub_794,2024-06-18_17h39.40.549,Reversal,2023.2.1,60.06695061549031,2,2024-06-18 17h39.56.166100 +0300,
,,,exp3.png,,,,,,,,,,,,,,,,,2,0,2,0,,,,,0,0,0,0,0,2,2,2,851.0454604001716,,,,,,,,,,,,,,,,,,,,,,,,,,,,,,,,,,,,,,,,,850.9818227000069,851.0454604001716,854.4478307000827,,94.0,0.8732139999046922,"[(94.0, 0.8732139999046922)]",,94.0,,,,,,,,,,,sub_794,2024-06-18_17h39.40.549,Reversal,2023.2.1,60.06695061549031,2,2024-06-18 17h39.56.166100 +0300,
,,,exp4.png,,,,,,,,,,,,,,,,,2,0,2,0,,,,,0,0,0,0,0,3,3,3,854.5158326001838,,,,,,,,,,,,,,,,,,,,,,,,,,,,,,,,,,,,,,,,,854.4484168000054,854.5158326001838,856.7810595000628,,16.0,1.4036732001695782,"[(16.0, 1.4036732001695782)]",,,16.0,,,,,,,,,,sub_794,2024-06-18_17h39.40.549,Reversal,2023.2.1,60.06695061549031,2,2024-06-18 17h39.56.166100 +0300,
,,,,,,,,,,,,,,,,,,,,,,,,,,,,,,,,,,,,,,,,,,,,,,,,,,,,,,,,,,,,,,,,,,,,,,,,,,,,76,,,,,,,,,,,,,,856.7814937999938,75,43,32,303.23477999982424,1,,,,,,,,
