trial_index,trial_image1_file,trial_image2_file,image_file,learning_outer_loop.thisRepN,learning_outer_loop.thisTrialN,learning_outer_loop.thisN,learning_outer_loop.thisIndex,learning_inner_loop.thisRepN,learning_inner_loop.thisTrialN,learning_inner_loop.thisN,learning_inner_loop.thisIndex,learning_estimation_outer_loop.thisRepN,learning_estimation_outer_loop.thisTrialN,learning_estimation_outer_loop.thisN,learning_estimation_outer_loop.thisIndex,learning_estimation_inner_loop.thisRepN,learning_estimation_inner_loop.thisTrialN,learning_estimation_inner_loop.thisN,learning_estimation_inner_loop.thisIndex,reversal_outer_loop.thisRepN,reversal_outer_loop.thisTrialN,reversal_outer_loop.thisN,reversal_outer_loop.thisIndex,reversal_inner_loop.thisRepN,reversal_inner_loop.thisTrialN,reversal_inner_loop.thisN,reversal_inner_loop.thisIndex,reversal_estimation_outer_loop.thisRepN,reversal_estimation_outer_loop.thisTrialN,reversal_estimation_outer_loop.thisN,reversal_estimation_outer_loop.thisIndex,reversal_estimation_inner_loop.thisRepN,reversal_estimation_inner_loop.thisTrialN,reversal_estimation_inner_loop.thisN,reversal_estimation_inner_loop.thisIndex,skipped,total_trial_counter,trial_num,left_right_flip,left_image_file,right_image_file,clicked_stimulus_side,side,clicked_stimulus,version,high_prob_image_file,low_prob_image_file,choice_a,choice_b,pair_type,correct,trial_feedback_random,reward,trial_type,overall_time_after_trial,score,estimation_exp1.png,estimation_rating.response,estimation_rating.rt,estimation_rating.history,estimation_rating.started,estimation_rating.stopped,estimation_exp2.png,estimation_exp3.png,estimation_exp4.png,total_learning_time,total_correct,learning_correct,reversal_correct,total_reversal_time,extra_block,end_experiment.keys,end_experiment.rt,participant,date,expName,psychopyVersion,frameRate,ver,
0,exp1.png,exp2.png,,0,0,0,0,0,0,0,0,,,,,,,,,,,,,,,,,,,,,,,,,True,,,,,,,,,,,,,,,,,,,,,,,,,,,,,,,,,,,,,,sub_1603,2025-03-25_15h47.52.002,Reversal,2022.1.2,59.9215387326824,3,
1,exp3.png,exp4.png,,0,0,0,0,0,1,1,1,,,,,,,,,,,,,,,,,,,,,,,,,False,0,1,False,exp3.png,exp4.png,trial_left_image,1,exp3.png,3,exp4.png,exp3.png,0,2,non-reversed,incorrect,0.9817135503344866,0,valid_lose,29.165946300025098,0,,,,,,,,,,,,,,,,,,sub_1603,2025-03-25_15h47.52.002,Reversal,2022.1.2,59.9215387326824,3,
2,exp1.png,exp2.png,,0,0,0,0,0,2,2,2,,,,,,,,,,,,,,,,,,,,,,,,,False,1,2,False,exp1.png,exp2.png,trial_left_image,1,exp1.png,3,exp2.png,exp1.png,0,4,reversed,incorrect,0.2889104708817728,0,valid_lose,34.132533200026955,0,,,,,,,,,,,,,,,,,,sub_1603,2025-03-25_15h47.52.002,Reversal,2022.1.2,59.9215387326824,3,
3,exp3.png,exp4.png,,0,0,0,0,0,3,3,3,,,,,,,,,,,,,,,,,,,,,,,,,False,2,3,True,exp4.png,exp3.png,trial_left_image,1,exp4.png,3,exp4.png,exp3.png,1,1,non-reversed,correct,0.24946757952605925,0,invalid_lose,39.14917290001176,0,,,,,,,,,,,,,,,,,,sub_1603,2025-03-25_15h47.52.002,Reversal,2022.1.2,59.9215387326824,3,
4,exp1.png,exp2.png,,0,0,0,0,0,4,4,4,,,,,,,,,,,,,,,,,,,,,,,,,False,3,4,False,exp1.png,exp2.png,trial_right_image,-1,exp2.png,3,exp2.png,exp1.png,1,3,reversed,correct,0.15934215042757927,0,invalid_lose,43.449338599981274,0,,,,,,,,,,,,,,,,,,sub_1603,2025-03-25_15h47.52.002,Reversal,2022.1.2,59.9215387326824,3,
5,exp3.png,exp4.png,,0,0,0,0,0,5,5,5,,,,,,,,,,,,,,,,,,,,,,,,,False,4,5,False,exp3.png,exp4.png,trial_left_image,1,exp3.png,3,exp4.png,exp3.png,0,2,non-reversed,incorrect,0.21781649178152918,1,invalid_win,50.548587500001304,1,,,,,,,,,,,,,,,,,,sub_1603,2025-03-25_15h47.52.002,Reversal,2022.1.2,59.9215387326824,3,
6,exp1.png,exp2.png,,0,0,0,0,0,6,6,6,,,,,,,,,,,,,,,,,,,,,,,,,False,5,6,False,exp1.png,exp2.png,trial_left_image,1,exp1.png,3,exp2.png,exp1.png,0,4,reversed,incorrect,0.5836615728567071,0,valid_lose,57.43193419999443,1,,,,,,,,,,,,,,,,,,sub_1603,2025-03-25_15h47.52.002,Reversal,2022.1.2,59.9215387326824,3,
7,exp3.png,exp4.png,,0,0,0,0,0,7,7,7,,,,,,,,,,,,,,,,,,,,,,,,,False,6,7,True,exp4.png,exp3.png,trial_right_image,-1,exp3.png,3,exp4.png,exp3.png,0,2,non-reversed,incorrect,0.8192938216549822,0,valid_lose,62.081858000019565,1,,,,,,,,,,,,,,,,,,sub_1603,2025-03-25_15h47.52.002,Reversal,2022.1.2,59.9215387326824,3,
8,exp1.png,exp2.png,,0,0,0,0,0,8,8,8,,,,,,,,,,,,,,,,,,,,,,,,,False,7,8,False,exp1.png,exp2.png,trial_left_image,1,exp1.png,3,exp2.png,exp1.png,0,4,reversed,incorrect,0.5218967220931565,0,valid_lose,66.28185919998214,1,,,,,,,,,,,,,,,,,,sub_1603,2025-03-25_15h47.52.002,Reversal,2022.1.2,59.9215387326824,3,
9,exp3.png,exp4.png,,0,0,0,0,0,9,9,9,,,,,,,,,,,,,,,,,,,,,,,,,False,8,9,True,exp4.png,exp3.png,trial_left_image,1,exp4.png,3,exp4.png,exp3.png,1,1,non-reversed,correct,0.38623729736477885,1,valid_win,70.68161199998576,2,,,,,,,,,,,,,,,,,,sub_1603,2025-03-25_15h47.52.002,Reversal,2022.1.2,59.9215387326824,3,
10,exp1.png,exp2.png,,0,0,0,0,0,10,10,10,,,,,,,,,,,,,,,,,,,,,,,,,False,9,10,False,exp1.png,exp2.png,trial_right_image,-1,exp2.png,3,exp2.png,exp1.png,1,3,reversed,correct,0.8829655580091094,1,valid_win,75.38126749999356,3,,,,,,,,,,,,,,,,,,sub_1603,2025-03-25_15h47.52.002,Reversal,2022.1.2,59.9215387326824,3,
11,exp3.png,exp4.png,,0,0,0,0,0,11,11,11,,,,,,,,,,,,,,,,,,,,,,,,,False,10,11,False,exp3.png,exp4.png,trial_left_image,1,exp3.png,3,exp4.png,exp3.png,0,2,non-reversed,incorrect,0.7793288859669434,0,valid_lose,79.81470009998884,3,,,,,,,,,,,,,,,,,,sub_1603,2025-03-25_15h47.52.002,Reversal,2022.1.2,59.9215387326824,3,
12,exp1.png,exp2.png,,0,0,0,0,0,12,12,12,,,,,,,,,,,,,,,,,,,,,,,,,False,11,12,True,exp2.png,exp1.png,trial_left_image,1,exp2.png,3,exp2.png,exp1.png,1,3,reversed,correct,0.8496792443076003,1,valid_win,86.11491240002215,4,,,,,,,,,,,,,,,,,,sub_1603,2025-03-25_15h47.52.002,Reversal,2022.1.2,59.9215387326824,3,
13,exp3.png,exp4.png,,0,0,0,0,0,13,13,13,,,,,,,,,,,,,,,,,,,,,,,,,False,12,13,True,exp4.png,exp3.png,trial_right_image,-1,exp3.png,3,exp4.png,exp3.png,0,2,non-reversed,incorrect,0.6804931816525112,0,valid_lose,90.79837299999781,4,,,,,,,,,,,,,,,,,,sub_1603,2025-03-25_15h47.52.002,Reversal,2022.1.2,59.9215387326824,3,
14,exp1.png,exp2.png,,0,0,0,0,0,14,14,14,,,,,,,,,,,,,,,,,,,,,,,,,False,13,14,False,exp1.png,exp2.png,trial_left_image,1,exp1.png,3,exp2.png,exp1.png,0,4,reversed,incorrect,0.3537288759601259,0,valid_lose,95.5146721000201,4,,,,,,,,,,,,,,,,,,sub_1603,2025-03-25_15h47.52.002,Reversal,2022.1.2,59.9215387326824,3,
15,exp3.png,exp4.png,,0,0,0,0,0,15,15,15,,,,,,,,,,,,,,,,,,,,,,,,,False,14,15,True,exp4.png,exp3.png,trial_left_image,1,exp4.png,3,exp4.png,exp3.png,1,1,non-reversed,correct,0.5993131482808168,1,valid_win,102.19811470003333,5,,,,,,,,,,,,,,,,,,sub_1603,2025-03-25_15h47.52.002,Reversal,2022.1.2,59.9215387326824,3,
16,exp1.png,exp2.png,,0,0,0,0,0,16,16,16,,,,,,,,,,,,,,,,,,,,,,,,,False,15,16,True,exp2.png,exp1.png,trial_right_image,-1,exp1.png,3,exp2.png,exp1.png,0,4,reversed,incorrect,0.13612062804271996,1,invalid_win,107.09773779998068,6,,,,,,,,,,,,,,,,,,sub_1603,2025-03-25_15h47.52.002,Reversal,2022.1.2,59.9215387326824,3,
17,exp3.png,exp4.png,,0,0,0,0,0,17,17,17,,,,,,,,,,,,,,,,,,,,,,,,,False,16,17,False,exp3.png,exp4.png,trial_right_image,-1,exp4.png,3,exp4.png,exp3.png,1,1,non-reversed,correct,0.9206182887732811,1,valid_win,112.06450730003417,7,,,,,,,,,,,,,,,,,,sub_1603,2025-03-25_15h47.52.002,Reversal,2022.1.2,59.9215387326824,3,
18,exp1.png,exp2.png,,0,0,0,0,0,18,18,18,,,,,,,,,,,,,,,,,,,,,,,,,False,17,18,True,exp2.png,exp1.png,trial_right_image,-1,exp1.png,3,exp2.png,exp1.png,0,4,reversed,incorrect,0.5728357946537044,0,valid_lose,116.58128520002356,7,,,,,,,,,,,,,,,,,,sub_1603,2025-03-25_15h47.52.002,Reversal,2022.1.2,59.9215387326824,3,
19,exp3.png,exp4.png,,0,0,0,0,0,19,19,19,,,,,,,,,,,,,,,,,,,,,,,,,False,18,19,True,exp4.png,exp3.png,trial_left_image,1,exp4.png,3,exp4.png,exp3.png,1,1,non-reversed,correct,0.24046173494503142,0,invalid_lose,123.11415039998246,7,,,,,,,,,,,,,,,,,,sub_1603,2025-03-25_15h47.52.002,Reversal,2022.1.2,59.9215387326824,3,
20,exp1.png,exp2.png,,0,0,0,0,0,20,20,20,,,,,,,,,,,,,,,,,,,,,,,,,False,19,20,True,exp2.png,exp1.png,trial_right_image,-1,exp1.png,3,exp2.png,exp1.png,0,4,reversed,incorrect,0.41634140120637564,0,valid_lose,127.71425910003018,7,,,,,,,,,,,,,,,,,,sub_1603,2025-03-25_15h47.52.002,Reversal,2022.1.2,59.9215387326824,3,
,,,exp1.png,0,0,0,0,,,,,0,0,0,0,0,0,0,0,,,,,,,,,,,,,,,,,,,,,,,,,,,,,,,,,,,,,,50.0,50.0,8.991241099953186,"[(50.0, 8.991241099953186)]",216.69749659998342,None,,,,,,,,,,,,sub_1603,2025-03-25_15h47.52.002,Reversal,2022.1.2,59.9215387326824,3,
,,,exp2.png,0,0,0,0,,,,,0,0,0,0,0,1,1,1,,,,,,,,,,,,,,,,,,,,,,,,,,,,,,,,,,,,,,,3.0,3.6828818999929354,"[(3.0, 3.6828818999929354)]",227.14794170000823,None,3.0,,,,,,,,,,,sub_1603,2025-03-25_15h47.52.002,Reversal,2022.1.2,59.9215387326824,3,
,,,exp3.png,0,0,0,0,,,,,0,0,0,0,0,2,2,2,,,,,,,,,,,,,,,,,,,,,,,,,,,,,,,,,,,,,,,1.0,4.651665099954698,"[(1.0, 4.651665099954698)]",232.25920329999644,None,,1.0,,,,,,,,,,sub_1603,2025-03-25_15h47.52.002,Reversal,2022.1.2,59.9215387326824,3,
,,,exp4.png,0,0,0,0,,,,,0,0,0,0,0,3,3,3,,,,,,,,,,,,,,,,,,,,,,,,,,,,,,,,,,,,,,,50.0,None,[],238.06518799997866,None,,,,,,,,,,,,sub_1603,2025-03-25_15h47.52.002,Reversal,2022.1.2,59.9215387326824,3,
0,exp1.png,exp2.png,,1,0,1,0,0,0,0,0,,,,,,,,,,,,,,,,,,,,,,,,,True,,,,,,,,,,,,,,,,,,,,,,,,,,,,,,,,,,,,,,sub_1603,2025-03-25_15h47.52.002,Reversal,2022.1.2,59.9215387326824,3,
1,exp3.png,exp4.png,,1,0,1,0,0,1,1,1,,,,,,,,,,,,,,,,,,,,,,,,,False,20,21,False,exp3.png,exp4.png,trial_left_image,1,exp3.png,3,exp4.png,exp3.png,0,2,non-reversed,incorrect,0.5171566647332442,0,valid_lose,157.36353410000447,7,,,,,,,,,,,,,,,,,,sub_1603,2025-03-25_15h47.52.002,Reversal,2022.1.2,59.9215387326824,3,
2,exp1.png,exp2.png,,1,0,1,0,0,2,2,2,,,,,,,,,,,,,,,,,,,,,,,,,False,21,22,False,exp1.png,exp2.png,trial_left_image,1,exp1.png,3,exp2.png,exp1.png,0,4,reversed,incorrect,0.8830475212875428,0,valid_lose,161.8801434999914,7,,,,,,,,,,,,,,,,,,sub_1603,2025-03-25_15h47.52.002,Reversal,2022.1.2,59.9215387326824,3,
3,exp3.png,exp4.png,,1,0,1,0,0,3,3,3,,,,,,,,,,,,,,,,,,,,,,,,,False,22,23,True,exp4.png,exp3.png,trial_left_image,1,exp4.png,3,exp4.png,exp3.png,1,1,non-reversed,correct,0.8766269546806037,1,valid_win,166.9633253000211,8,,,,,,,,,,,,,,,,,,sub_1603,2025-03-25_15h47.52.002,Reversal,2022.1.2,59.9215387326824,3,
4,exp1.png,exp2.png,,1,0,1,0,0,4,4,4,,,,,,,,,,,,,,,,,,,,,,,,,False,23,24,False,exp1.png,exp2.png,trial_left_image,1,exp1.png,3,exp2.png,exp1.png,0,4,reversed,incorrect,0.4628576980302561,0,valid_lose,172.34683360002236,8,,,,,,,,,,,,,,,,,,sub_1603,2025-03-25_15h47.52.002,Reversal,2022.1.2,59.9215387326824,3,
5,exp3.png,exp4.png,,1,0,1,0,0,5,5,5,,,,,,,,,,,,,,,,,,,,,,,,,False,24,25,True,exp4.png,exp3.png,trial_left_image,1,exp4.png,3,exp4.png,exp3.png,1,1,non-reversed,correct,0.6339784639671517,1,valid_win,177.07992769998964,9,,,,,,,,,,,,,,,,,,sub_1603,2025-03-25_15h47.52.002,Reversal,2022.1.2,59.9215387326824,3,
6,exp1.png,exp2.png,,1,0,1,0,0,6,6,6,,,,,,,,,,,,,,,,,,,,,,,,,False,25,26,True,exp2.png,exp1.png,trial_right_image,-1,exp1.png,3,exp2.png,exp1.png,0,4,reversed,incorrect,0.04112610474497913,1,invalid_win,181.6634778000298,10,,,,,,,,,,,,,,,,,,sub_1603,2025-03-25_15h47.52.002,Reversal,2022.1.2,59.9215387326824,3,
7,exp3.png,exp4.png,,1,0,1,0,0,7,7,7,,,,,,,,,,,,,,,,,,,,,,,,,False,26,27,True,exp4.png,exp3.png,trial_left_image,1,exp4.png,3,exp4.png,exp3.png,1,1,non-reversed,correct,0.21937873253350182,0,invalid_lose,186.1129277999862,10,,,,,,,,,,,,,,,,,,sub_1603,2025-03-25_15h47.52.002,Reversal,2022.1.2,59.9215387326824,3,
8,exp1.png,exp2.png,,1,0,1,0,0,8,8,8,,,,,,,,,,,,,,,,,,,,,,,,,False,27,28,True,exp2.png,exp1.png,trial_right_image,-1,exp1.png,3,exp2.png,exp1.png,0,4,reversed,incorrect,0.026201168349589965,1,invalid_win,190.5460437000147,11,,,,,,,,,,,,,,,,,,sub_1603,2025-03-25_15h47.52.002,Reversal,2022.1.2,59.9215387326824,3,
9,exp3.png,exp4.png,,1,0,1,0,0,9,9,9,,,,,,,,,,,,,,,,,,,,,,,,,False,28,29,True,exp4.png,exp3.png,trial_left_image,1,exp4.png,3,exp4.png,exp3.png,1,1,non-reversed,correct,0.5238204151084949,1,valid_win,195.29601719998755,12,,,,,,,,,,,,,,,,,,sub_1603,2025-03-25_15h47.52.002,Reversal,2022.1.2,59.9215387326824,3,
10,exp1.png,exp2.png,,1,0,1,0,0,10,10,10,,,,,,,,,,,,,,,,,,,,,,,,,False,29,30,False,exp1.png,exp2.png,trial_left_image,1,exp1.png,3,exp2.png,exp1.png,0,4,reversed,incorrect,0.12070709109930178,1,invalid_win,200.07973490003496,13,,,,,,,,,,,,,,,,,,sub_1603,2025-03-25_15h47.52.002,Reversal,2022.1.2,59.9215387326824,3,
11,exp3.png,exp4.png,,1,0,1,0,0,11,11,11,,,,,,,,,,,,,,,,,,,,,,,,,False,30,31,True,exp4.png,exp3.png,trial_right_image,-1,exp3.png,3,exp4.png,exp3.png,0,2,non-reversed,incorrect,0.5534857594221066,0,valid_lose,204.91262750001624,13,,,,,,,,,,,,,,,,,,sub_1603,2025-03-25_15h47.52.002,Reversal,2022.1.2,59.9215387326824,3,
12,exp1.png,exp2.png,,1,0,1,0,0,12,12,12,,,,,,,,,,,,,,,,,,,,,,,,,False,31,32,False,exp1.png,exp2.png,trial_left_image,1,exp1.png,3,exp2.png,exp1.png,0,4,reversed,incorrect,0.5695611999980368,0,valid_lose,209.46227170003112,13,,,,,,,,,,,,,,,,,,sub_1603,2025-03-25_15h47.52.002,Reversal,2022.1.2,59.9215387326824,3,
13,exp3.png,exp4.png,,1,0,1,0,0,13,13,13,,,,,,,,,,,,,,,,,,,,,,,,,False,32,33,False,exp3.png,exp4.png,trial_right_image,-1,exp4.png,3,exp4.png,exp3.png,1,1,non-reversed,correct,0.9015914024081731,1,valid_win,214.36228549998486,14,,,,,,,,,,,,,,,,,,sub_1603,2025-03-25_15h47.52.002,Reversal,2022.1.2,59.9215387326824,3,
14,exp1.png,exp2.png,,1,0,1,0,0,14,14,14,,,,,,,,,,,,,,,,,,,,,,,,,False,33,34,True,exp2.png,exp1.png,trial_right_image,-1,exp1.png,3,exp2.png,exp1.png,0,4,reversed,incorrect,0.2206840955093229,1,invalid_win,218.54545229999349,15,,,,,,,,,,,,,,,,,,sub_1603,2025-03-25_15h47.52.002,Reversal,2022.1.2,59.9215387326824,3,
15,exp3.png,exp4.png,,1,0,1,0,0,15,15,15,,,,,,,,,,,,,,,,,,,,,,,,,False,34,35,False,exp3.png,exp4.png,trial_right_image,-1,exp4.png,3,exp4.png,exp3.png,1,1,non-reversed,correct,0.21515839324167574,0,invalid_lose,223.6289986000047,15,,,,,,,,,,,,,,,,,,sub_1603,2025-03-25_15h47.52.002,Reversal,2022.1.2,59.9215387326824,3,
16,exp1.png,exp2.png,,1,0,1,0,0,16,16,16,,,,,,,,,,,,,,,,,,,,,,,,,False,35,36,True,exp2.png,exp1.png,trial_right_image,-1,exp1.png,3,exp2.png,exp1.png,0,4,reversed,incorrect,0.08208226146457842,1,invalid_win,228.19515400001546,16,,,,,,,,,,,,,,,,,,sub_1603,2025-03-25_15h47.52.002,Reversal,2022.1.2,59.9215387326824,3,
17,exp3.png,exp4.png,,1,0,1,0,0,17,17,17,,,,,,,,,,,,,,,,,,,,,,,,,False,36,37,True,exp4.png,exp3.png,trial_right_image,-1,exp3.png,3,exp4.png,exp3.png,0,2,non-reversed,incorrect,0.8770801449514724,0,valid_lose,232.66183890000684,16,,,,,,,,,,,,,,,,,,sub_1603,2025-03-25_15h47.52.002,Reversal,2022.1.2,59.9215387326824,3,
18,exp1.png,exp2.png,,1,0,1,0,0,18,18,18,,,,,,,,,,,,,,,,,,,,,,,,,False,37,38,False,exp1.png,exp2.png,trial_left_image,1,exp1.png,3,exp2.png,exp1.png,0,4,reversed,incorrect,0.32413509210944147,0,valid_lose,237.69499689998338,16,,,,,,,,,,,,,,,,,,sub_1603,2025-03-25_15h47.52.002,Reversal,2022.1.2,59.9215387326824,3,
19,exp3.png,exp4.png,,1,0,1,0,0,19,19,19,,,,,,,,,,,,,,,,,,,,,,,,,False,38,39,False,exp3.png,exp4.png,trial_right_image,-1,exp4.png,3,exp4.png,exp3.png,1,1,non-reversed,correct,0.0022403905340455665,0,invalid_lose,243.1782917000237,16,,,,,,,,,,,,,,,,,,sub_1603,2025-03-25_15h47.52.002,Reversal,2022.1.2,59.9215387326824,3,
20,exp1.png,exp2.png,,1,0,1,0,0,20,20,20,,,,,,,,,,,,,,,,,,,,,,,,,False,39,40,False,exp1.png,exp2.png,trial_right_image,-1,exp2.png,3,exp2.png,exp1.png,1,3,reversed,correct,0.7412938424162316,1,valid_win,248.37869169999612,17,,,,,,,,,,,,,,,,,,sub_1603,2025-03-25_15h47.52.002,Reversal,2022.1.2,59.9215387326824,3,
,,,exp1.png,1,0,1,0,,,,,0,0,0,0,0,0,0,0,,,,,,,,,,,,,,,,,,,,,,,,,,,,,,,,,,,,,,,50.0,None,[],337.37529150000773,None,,,,,,,,,,,,sub_1603,2025-03-25_15h47.52.002,Reversal,2022.1.2,59.9215387326824,3,
,,,exp2.png,1,0,1,0,,,,,0,0,0,0,0,1,1,1,,,,,,,,,,,,,,,,,,,,,,,,,,,,,,,,,,,,,,,50.0,None,[],341.20385210000677,None,,,,,,,,,,,,sub_1603,2025-03-25_15h47.52.002,Reversal,2022.1.2,59.9215387326824,3,
,,,exp3.png,1,0,1,0,,,,,0,0,0,0,0,2,2,2,,,,,,,,,,,,,,,,,,,,,,,,,,,,,,,,,,,,,,,50.0,None,[],345.4199128000182,None,,,,,,,,,,,,sub_1603,2025-03-25_15h47.52.002,Reversal,2022.1.2,59.9215387326824,3,
,,,exp4.png,1,0,1,0,,,,,0,0,0,0,0,3,3,3,,,,,,,,,,,,,,,,,,,,,,,,,,,,,,,,,,,,,,,50.0,None,[],348.43957479996607,None,,,,,,,,,,,,sub_1603,2025-03-25_15h47.52.002,Reversal,2022.1.2,59.9215387326824,3,
0,exp1.png,exp2.png,,2,0,2,0,0,0,0,0,,,,,,,,,,,,,,,,,,,,,,,,,True,,,,,,,,,,,,,,,,,,,,,,,,,,,,,,,,,,,,,,sub_1603,2025-03-25_15h47.52.002,Reversal,2022.1.2,59.9215387326824,3,
1,exp3.png,exp4.png,,2,0,2,0,0,1,1,1,,,,,,,,,,,,,,,,,,,,,,,,,False,40,41,False,exp3.png,exp4.png,trial_right_image,-1,exp4.png,3,exp4.png,exp3.png,1,1,non-reversed,correct,0.46075319953108373,1,valid_win,265.62777580000693,18,,,,,,,,,,,,,,,,,,sub_1603,2025-03-25_15h47.52.002,Reversal,2022.1.2,59.9215387326824,3,
2,exp1.png,exp2.png,,2,0,2,0,0,2,2,2,,,,,,,,,,,,,,,,,,,,,,,,,False,41,42,False,exp1.png,exp2.png,trial_left_image,1,exp1.png,3,exp2.png,exp1.png,0,4,reversed,incorrect,0.5253320812470831,0,valid_lose,270.1281040000031,18,,,,,,,,,,,,,,,,,,sub_1603,2025-03-25_15h47.52.002,Reversal,2022.1.2,59.9215387326824,3,
3,exp3.png,exp4.png,,2,0,2,0,0,3,3,3,,,,,,,,,,,,,,,,,,,,,,,,,False,42,43,True,exp4.png,exp3.png,trial_left_image,1,exp4.png,3,exp4.png,exp3.png,1,1,non-reversed,correct,0.6211912291511777,1,valid_win,275.5778799999971,19,,,,,,,,,,,,,,,,,,sub_1603,2025-03-25_15h47.52.002,Reversal,2022.1.2,59.9215387326824,3,
4,exp1.png,exp2.png,,2,0,2,0,0,4,4,4,,,,,,,,,,,,,,,,,,,,,,,,,False,43,44,False,exp1.png,exp2.png,trial_right_image,-1,exp2.png,3,exp2.png,exp1.png,1,3,reversed,correct,0.09851990119952814,0,invalid_lose,281.0947118999902,19,,,,,,,,,,,,,,,,,,sub_1603,2025-03-25_15h47.52.002,Reversal,2022.1.2,59.9215387326824,3,
5,exp3.png,exp4.png,,2,0,2,0,0,5,5,5,,,,,,,,,,,,,,,,,,,,,,,,,False,44,45,False,exp3.png,exp4.png,trial_right_image,-1,exp4.png,3,exp4.png,exp3.png,1,1,non-reversed,correct,0.30363335203523145,1,valid_win,286.4446409000084,20,,,,,,,,,,,,,,,,,,sub_1603,2025-03-25_15h47.52.002,Reversal,2022.1.2,59.9215387326824,3,
6,exp1.png,exp2.png,,2,0,2,0,0,6,6,6,,,,,,,,,,,,,,,,,,,,,,,,,False,45,46,True,exp2.png,exp1.png,trial_right_image,-1,exp1.png,3,exp2.png,exp1.png,0,4,reversed,incorrect,0.7789687738737224,0,valid_lose,291.1606784000178,20,,,,,,,,,,,,,,,,,,sub_1603,2025-03-25_15h47.52.002,Reversal,2022.1.2,59.9215387326824,3,
7,exp3.png,exp4.png,,2,0,2,0,0,7,7,7,,,,,,,,,,,,,,,,,,,,,,,,,False,46,47,False,exp3.png,exp4.png,trial_right_image,-1,exp4.png,3,exp4.png,exp3.png,1,1,non-reversed,correct,0.08655724305494372,0,invalid_lose,296.27717050001957,20,,,,,,,,,,,,,,,,,,sub_1603,2025-03-25_15h47.52.002,Reversal,2022.1.2,59.9215387326824,3,
8,exp1.png,exp2.png,,2,0,2,0,0,8,8,8,,,,,,,,,,,,,,,,,,,,,,,,,False,47,48,True,exp2.png,exp1.png,trial_left_image,1,exp2.png,3,exp2.png,exp1.png,1,3,reversed,correct,0.6789101811888174,1,valid_win,300.7273601000197,21,,,,,,,,,,,,,,,,,,sub_1603,2025-03-25_15h47.52.002,Reversal,2022.1.2,59.9215387326824,3,
9,exp3.png,exp4.png,,2,0,2,0,0,9,9,9,,,,,,,,,,,,,,,,,,,,,,,,,False,48,49,True,exp4.png,exp3.png,trial_left_image,1,exp4.png,3,exp4.png,exp3.png,1,1,non-reversed,correct,0.06188651543442769,0,invalid_lose,304.99339050002163,21,,,,,,,,,,,,,,,,,,sub_1603,2025-03-25_15h47.52.002,Reversal,2022.1.2,59.9215387326824,3,
10,exp1.png,exp2.png,,2,0,2,0,0,10,10,10,,,,,,,,,,,,,,,,,,,,,,,,,False,49,50,True,exp2.png,exp1.png,trial_right_image,-1,exp1.png,3,exp2.png,exp1.png,0,4,reversed,incorrect,0.6223676332276034,0,valid_lose,309.26037660002476,21,,,,,,,,,,,,,,,,,,sub_1603,2025-03-25_15h47.52.002,Reversal,2022.1.2,59.9215387326824,3,
11,exp3.png,exp4.png,,2,0,2,0,0,11,11,11,,,,,,,,,,,,,,,,,,,,,,,,,False,50,51,True,exp4.png,exp3.png,trial_right_image,-1,exp3.png,3,exp4.png,exp3.png,0,2,non-reversed,incorrect,0.5268029820836115,0,valid_lose,313.7110997000127,21,,,,,,,,,,,,,,,,,,sub_1603,2025-03-25_15h47.52.002,Reversal,2022.1.2,59.9215387326824,3,
12,exp1.png,exp2.png,,2,0,2,0,0,12,12,12,,,,,,,,,,,,,,,,,,,,,,,,,False,51,52,False,exp1.png,exp2.png,trial_left_image,1,exp1.png,3,exp2.png,exp1.png,0,4,reversed,incorrect,0.6731309528645428,0,valid_lose,317.8602056999807,21,,,,,,,,,,,,,,,,,,sub_1603,2025-03-25_15h47.52.002,Reversal,2022.1.2,59.9215387326824,3,
13,exp3.png,exp4.png,,2,0,2,0,0,13,13,13,,,,,,,,,,,,,,,,,,,,,,,,,False,52,53,False,exp3.png,exp4.png,trial_right_image,-1,exp4.png,3,exp4.png,exp3.png,1,1,non-reversed,correct,0.46158578919671056,1,valid_win,322.29372880002484,22,,,,,,,,,,,,,,,,,,sub_1603,2025-03-25_15h47.52.002,Reversal,2022.1.2,59.9215387326824,3,
14,exp1.png,exp2.png,,2,0,2,0,0,14,14,14,,,,,,,,,,,,,,,,,,,,,,,,,False,53,54,True,exp2.png,exp1.png,trial_right_image,-1,exp1.png,3,exp2.png,exp1.png,0,4,reversed,incorrect,0.5151024686086552,0,valid_lose,326.97695099998964,22,,,,,,,,,,,,,,,,,,sub_1603,2025-03-25_15h47.52.002,Reversal,2022.1.2,59.9215387326824,3,
15,exp3.png,exp4.png,,2,0,2,0,0,15,15,15,,,,,,,,,,,,,,,,,,,,,,,,,False,54,55,False,exp3.png,exp4.png,trial_left_image,1,exp3.png,3,exp4.png,exp3.png,0,2,non-reversed,incorrect,0.4741889385484491,0,valid_lose,331.39361500000814,22,,,,,,,,,,,,,,,,,,sub_1603,2025-03-25_15h47.52.002,Reversal,2022.1.2,59.9215387326824,3,
16,exp1.png,exp2.png,,2,0,2,0,0,16,16,16,,,,,,,,,,,,,,,,,,,,,,,,,False,55,56,True,exp2.png,exp1.png,trial_right_image,-1,exp1.png,3,exp2.png,exp1.png,0,4,reversed,incorrect,0.5370844978552524,0,valid_lose,335.6265073000104,22,,,,,,,,,,,,,,,,,,sub_1603,2025-03-25_15h47.52.002,Reversal,2022.1.2,59.9215387326824,3,
17,exp3.png,exp4.png,,2,0,2,0,0,17,17,17,,,,,,,,,,,,,,,,,,,,,,,,,False,56,57,True,exp4.png,exp3.png,trial_left_image,1,exp4.png,3,exp4.png,exp3.png,1,1,non-reversed,correct,0.7421189455916323,1,valid_win,339.8763571000309,23,,,,,,,,,,,,,,,,,,sub_1603,2025-03-25_15h47.52.002,Reversal,2022.1.2,59.9215387326824,3,
18,exp1.png,exp2.png,,2,0,2,0,0,18,18,18,,,,,,,,,,,,,,,,,,,,,,,,,False,57,58,False,exp1.png,exp2.png,trial_left_image,1,exp1.png,3,exp2.png,exp1.png,0,4,reversed,incorrect,0.394118619754658,0,valid_lose,344.5601913999999,23,,,,,,,,,,,,,,,,,,sub_1603,2025-03-25_15h47.52.002,Reversal,2022.1.2,59.9215387326824,3,
19,exp3.png,exp4.png,,2,0,2,0,0,19,19,19,,,,,,,,,,,,,,,,,,,,,,,,,False,58,59,True,exp4.png,exp3.png,trial_right_image,-1,exp3.png,3,exp4.png,exp3.png,0,2,non-reversed,incorrect,0.661579060901397,0,valid_lose,348.8931933999993,23,,,,,,,,,,,,,,,,,,sub_1603,2025-03-25_15h47.52.002,Reversal,2022.1.2,59.9215387326824,3,
20,exp1.png,exp2.png,,2,0,2,0,0,20,20,20,,,,,,,,,,,,,,,,,,,,,,,,,False,59,60,False,exp1.png,exp2.png,trial_left_image,1,exp1.png,3,exp2.png,exp1.png,0,4,reversed,incorrect,0.6183188736821847,0,valid_lose,353.39360439998563,23,,,,,,,,,,,,,,,,,,sub_1603,2025-03-25_15h47.52.002,Reversal,2022.1.2,59.9215387326824,3,
,,,exp1.png,2,0,2,0,,,,,0,0,0,0,0,0,0,0,,,,,,,,,,,,,,,,,,,,,,,,,,,,,,,,,,,,,,,50.0,None,[],442.37494289997267,None,,,,,,,,,,,,sub_1603,2025-03-25_15h47.52.002,Reversal,2022.1.2,59.9215387326824,3,
,,,exp2.png,2,0,2,0,,,,,0,0,0,0,0,1,1,1,,,,,,,,,,,,,,,,,,,,,,,,,,,,,,,,,,,,,,,50.0,None,[],445.3397741999943,None,,,,,,,,,,,,sub_1603,2025-03-25_15h47.52.002,Reversal,2022.1.2,59.9215387326824,3,
,,,exp3.png,2,0,2,0,,,,,0,0,0,0,0,2,2,2,,,,,,,,,,,,,,,,,,,,,,,,,,,,,,,,,,,,,,,50.0,None,[],445.8360770000145,None,,,,,,,,,,,,sub_1603,2025-03-25_15h47.52.002,Reversal,2022.1.2,59.9215387326824,3,
,,,exp4.png,2,0,2,0,,,,,0,0,0,0,0,3,3,3,,,,,,,,,,,,,,,,,,,,,,,,,,,,,,,,,,,,,,,50.0,None,[],446.5197984999977,None,,,,,,,,,,,,sub_1603,2025-03-25_15h47.52.002,Reversal,2022.1.2,59.9215387326824,3,
0,exp1.png,exp2.png,,3,0,3,0,0,0,0,0,,,,,,,,,,,,,,,,,,,,,,,,,True,,,,,,,,,,,,,,,,,,,,,,,,,,,,,,,,,,,,,,sub_1603,2025-03-25_15h47.52.002,Reversal,2022.1.2,59.9215387326824,3,
1,exp3.png,exp4.png,,3,0,3,0,0,1,1,1,,,,,,,,,,,,,,,,,,,,,,,,,False,60,61,False,exp3.png,exp4.png,trial_right_image,-1,exp4.png,3,exp4.png,exp3.png,1,1,non-reversed,correct,0.6616281635479314,1,valid_win,363.5258853000123,24,,,,,,,,,,,,,,,,,,sub_1603,2025-03-25_15h47.52.002,Reversal,2022.1.2,59.9215387326824,3,
2,exp1.png,exp2.png,,3,0,3,0,0,2,2,2,,,,,,,,,,,,,,,,,,,,,,,,,False,61,62,False,exp1.png,exp2.png,trial_left_image,1,exp1.png,3,exp2.png,exp1.png,0,4,reversed,incorrect,0.4579343926687677,0,valid_lose,368.09297140000854,24,,,,,,,,,,,,,,,,,,sub_1603,2025-03-25_15h47.52.002,Reversal,2022.1.2,59.9215387326824,3,
3,exp3.png,exp4.png,,3,0,3,0,0,3,3,3,,,,,,,,,,,,,,,,,,,,,,,,,False,62,63,False,exp3.png,exp4.png,trial_right_image,-1,exp4.png,3,exp4.png,exp3.png,1,1,non-reversed,correct,0.6057294740652347,1,valid_win,373.0096631000051,25,,,,,,,,,,,,,,,,,,sub_1603,2025-03-25_15h47.52.002,Reversal,2022.1.2,59.9215387326824,3,
4,exp1.png,exp2.png,,3,0,3,0,0,4,4,4,,,,,,,,,,,,,,,,,,,,,,,,,False,63,64,False,exp1.png,exp2.png,trial_left_image,1,exp1.png,3,exp2.png,exp1.png,0,4,reversed,incorrect,0.22486066236784497,1,invalid_win,377.62565320002614,26,,,,,,,,,,,,,,,,,,sub_1603,2025-03-25_15h47.52.002,Reversal,2022.1.2,59.9215387326824,3,
5,exp3.png,exp4.png,,3,0,3,0,0,5,5,5,,,,,,,,,,,,,,,,,,,,,,,,,False,64,65,True,exp4.png,exp3.png,trial_left_image,1,exp4.png,3,exp4.png,exp3.png,1,1,non-reversed,correct,0.6983880165753217,1,valid_win,382.27605049998965,27,,,,,,,,,,,,,,,,,,sub_1603,2025-03-25_15h47.52.002,Reversal,2022.1.2,59.9215387326824,3,
6,exp1.png,exp2.png,,3,0,3,0,0,6,6,6,,,,,,,,,,,,,,,,,,,,,,,,,False,65,66,True,exp2.png,exp1.png,trial_right_image,-1,exp1.png,3,exp2.png,exp1.png,0,4,reversed,incorrect,0.7687460137271059,0,valid_lose,387.29275279998546,27,,,,,,,,,,,,,,,,,,sub_1603,2025-03-25_15h47.52.002,Reversal,2022.1.2,59.9215387326824,3,
7,exp3.png,exp4.png,,3,0,3,0,0,7,7,7,,,,,,,,,,,,,,,,,,,,,,,,,False,66,67,False,exp3.png,exp4.png,trial_right_image,-1,exp4.png,3,exp4.png,exp3.png,1,1,non-reversed,correct,0.6954530778119699,1,valid_win,394.72582029999467,28,,,,,,,,,,,,,,,,,,sub_1603,2025-03-25_15h47.52.002,Reversal,2022.1.2,59.9215387326824,3,
8,exp1.png,exp2.png,,3,0,3,0,0,8,8,8,,,,,,,,,,,,,,,,,,,,,,,,,False,67,68,True,exp2.png,exp1.png,trial_right_image,-1,exp1.png,3,exp2.png,exp1.png,0,4,reversed,incorrect,0.6686237814790343,0,valid_lose,400.17578480002703,28,,,,,,,,,,,,,,,,,,sub_1603,2025-03-25_15h47.52.002,Reversal,2022.1.2,59.9215387326824,3,
9,exp3.png,exp4.png,,3,0,3,0,0,9,9,9,,,,,,,,,,,,,,,,,,,,,,,,,False,68,69,True,exp4.png,exp3.png,trial_left_image,1,exp4.png,3,exp4.png,exp3.png,1,1,non-reversed,correct,0.6548791071392442,1,valid_win,404.592075499997,29,,,,,,,,,,,,,,,,,,sub_1603,2025-03-25_15h47.52.002,Reversal,2022.1.2,59.9215387326824,3,
10,exp1.png,exp2.png,,3,0,3,0,0,10,10,10,,,,,,,,,,,,,,,,,,,,,,,,,False,69,70,False,exp1.png,exp2.png,trial_left_image,1,exp1.png,3,exp2.png,exp1.png,0,4,reversed,incorrect,0.9982425391242187,0,valid_lose,409.3915595000144,29,,,,,,,,,,,,,,,,,,sub_1603,2025-03-25_15h47.52.002,Reversal,2022.1.2,59.9215387326824,3,
11,exp3.png,exp4.png,,3,0,3,0,0,11,11,11,,,,,,,,,,,,,,,,,,,,,,,,,False,70,71,True,exp4.png,exp3.png,trial_left_image,1,exp4.png,3,exp4.png,exp3.png,1,1,non-reversed,correct,0.8588246136638696,1,valid_win,414.0750577999861,30,,,,,,,,,,,,,,,,,,sub_1603,2025-03-25_15h47.52.002,Reversal,2022.1.2,59.9215387326824,3,
12,exp1.png,exp2.png,,3,0,3,0,0,12,12,12,,,,,,,,,,,,,,,,,,,,,,,,,False,71,72,True,exp2.png,exp1.png,trial_right_image,-1,exp1.png,3,exp2.png,exp1.png,0,4,reversed,incorrect,0.5704626414042283,0,valid_lose,418.4420666000224,30,,,,,,,,,,,,,,,,,,sub_1603,2025-03-25_15h47.52.002,Reversal,2022.1.2,59.9215387326824,3,
13,exp3.png,exp4.png,,3,0,3,0,0,13,13,13,,,,,,,,,,,,,,,,,,,,,,,,,False,72,73,False,exp3.png,exp4.png,trial_right_image,-1,exp4.png,3,exp4.png,exp3.png,1,1,non-reversed,correct,0.2892260356142452,1,valid_win,423.1084676000173,31,,,,,,,,,,,,,,,,,,sub_1603,2025-03-25_15h47.52.002,Reversal,2022.1.2,59.9215387326824,3,
14,exp1.png,exp2.png,,3,0,3,0,0,14,14,14,,,,,,,,,,,,,,,,,,,,,,,,,False,73,74,True,exp2.png,exp1.png,trial_right_image,-1,exp1.png,3,exp2.png,exp1.png,0,4,reversed,incorrect,0.4893483640709363,0,valid_lose,427.37515249999706,31,,,,,,,,,,,,,,,,,,sub_1603,2025-03-25_15h47.52.002,Reversal,2022.1.2,59.9215387326824,3,
15,exp3.png,exp4.png,,3,0,3,0,0,15,15,15,,,,,,,,,,,,,,,,,,,,,,,,,False,74,75,False,exp3.png,exp4.png,trial_right_image,-1,exp4.png,3,exp4.png,exp3.png,1,1,non-reversed,correct,0.017516879170331845,0,invalid_lose,431.7583276000223,31,,,,,,,,,,,,,,,,,,sub_1603,2025-03-25_15h47.52.002,Reversal,2022.1.2,59.9215387326824,3,
16,exp1.png,exp2.png,,3,0,3,0,0,16,16,16,,,,,,,,,,,,,,,,,,,,,,,,,False,75,76,True,exp2.png,exp1.png,trial_right_image,-1,exp1.png,3,exp2.png,exp1.png,0,4,reversed,incorrect,0.877620814637253,0,valid_lose,436.40801900002407,31,,,,,,,,,,,,,,,,,,sub_1603,2025-03-25_15h47.52.002,Reversal,2022.1.2,59.9215387326824,3,
17,exp3.png,exp4.png,,3,0,3,0,0,17,17,17,,,,,,,,,,,,,,,,,,,,,,,,,False,76,77,True,exp4.png,exp3.png,trial_left_image,1,exp4.png,3,exp4.png,exp3.png,1,1,non-reversed,correct,0.8637920918325362,1,valid_win,441.07450270000845,32,,,,,,,,,,,,,,,,,,sub_1603,2025-03-25_15h47.52.002,Reversal,2022.1.2,59.9215387326824,3,
18,exp1.png,exp2.png,,3,0,3,0,0,18,18,18,,,,,,,,,,,,,,,,,,,,,,,,,False,77,78,False,exp1.png,exp2.png,trial_left_image,1,exp1.png,3,exp2.png,exp1.png,0,4,reversed,incorrect,0.8284457129361503,0,valid_lose,445.79142510000383,32,,,,,,,,,,,,,,,,,,sub_1603,2025-03-25_15h47.52.002,Reversal,2022.1.2,59.9215387326824,3,
19,exp3.png,exp4.png,,3,0,3,0,0,19,19,19,,,,,,,,,,,,,,,,,,,,,,,,,False,78,79,True,exp4.png,exp3.png,trial_left_image,1,exp4.png,3,exp4.png,exp3.png,1,1,non-reversed,correct,0.11293376237077424,0,invalid_lose,453.3743329999852,32,,,,,,,,,,,,,,,,,,sub_1603,2025-03-25_15h47.52.002,Reversal,2022.1.2,59.9215387326824,3,
20,exp1.png,exp2.png,,3,0,3,0,0,20,20,20,,,,,,,,,,,,,,,,,,,,,,,,,False,79,80,False,exp1.png,exp2.png,trial_left_image,1,exp1.png,3,exp2.png,exp1.png,0,4,reversed,incorrect,0.8524580168753622,0,valid_lose,458.0739531000145,32,,,,,,,,,,,,,,,,,,sub_1603,2025-03-25_15h47.52.002,Reversal,2022.1.2,59.9215387326824,3,
,,,exp1.png,3,0,3,0,,,,,0,0,0,0,0,0,0,0,,,,,,,,,,,,,,,,,,,,,,,,,,,,,,,,,,,,,,13.0,13.0,2.930190900049638,"[(13.0, 2.930190900049638)]",547.0557530999649,None,,,,,,,,,,,,sub_1603,2025-03-25_15h47.52.002,Reversal,2022.1.2,59.9215387326824,3,
,,,exp2.png,3,0,3,0,,,,,0,0,0,0,0,1,1,1,,,,,,,,,,,,,,,,,,,,,,,,,,,,,,,,,,,,,,,81.0,3.3180577000021003,"[(81.0, 3.3180577000021003)]",551.1504395999946,None,81.0,,,,,,,,,,,sub_1603,2025-03-25_15h47.52.002,Reversal,2022.1.2,59.9215387326824,3,
,,,exp3.png,3,0,3,0,,,,,0,0,0,0,0,2,2,2,,,,,,,,,,,,,,,,,,,,,,,,,,,,,,,,,,,,,,,20.0,2.283401499968022,"[(20.0, 2.283401499968022)]",555.470949599985,None,,20.0,,,,,,,,,,sub_1603,2025-03-25_15h47.52.002,Reversal,2022.1.2,59.9215387326824,3,
,,,exp4.png,3,0,3,0,,,,,0,0,0,0,0,3,3,3,,,,,,,,,,,,,,,,,,,,,,,,,,,,,,,,,,,,,,,90.0,1.444200300029479,"[(90.0, 1.444200300029479)]",558.7419014999759,None,,,90.0,,,,,,,,,sub_1603,2025-03-25_15h47.52.002,Reversal,2022.1.2,59.9215387326824,3,
0,exp1.png,exp2.png,,,,,,,,,,,,,,,,,,0,0,0,0,0,0,0,0,,,,,,,,,True,,,,,,,,,,,,,,,,,,,,,,,,,,,,,,,,,,,,,,sub_1603,2025-03-25_15h47.52.002,Reversal,2022.1.2,59.9215387326824,3,
1,exp3.png,exp4.png,,,,,,,,,,,,,,,,,,0,0,0,0,0,1,1,1,,,,,,,,,False,0,81,True,exp4.png,exp3.png,trial_left_image,1,exp4.png,3,exp4.png,exp3.png,1,1,non-reversed,correct,0.23802319001507444,0,invalid_lose,477.0243043000228,32,,,,,,,,,,474.86783730000025,,,,,,,,sub_1603,2025-03-25_15h47.52.002,Reversal,2022.1.2,59.9215387326824,3,
2,exp1.png,exp2.png,,,,,,,,,,,,,,,,,,0,0,0,0,0,2,2,2,,,,,,,,,False,1,82,False,exp1.png,exp2.png,trial_left_image,1,exp1.png,3,exp1.png,exp2.png,0,4,reversed,correct,0.053271207525800834,0,invalid_lose,481.2238909000298,32,,,,,,,,,,,,,,,,,,sub_1603,2025-03-25_15h47.52.002,Reversal,2022.1.2,59.9215387326824,3,
3,exp3.png,exp4.png,,,,,,,,,,,,,,,,,,0,0,0,0,0,3,3,3,,,,,,,,,False,2,83,False,exp3.png,exp4.png,trial_left_image,1,exp3.png,3,exp4.png,exp3.png,0,2,non-reversed,incorrect,0.7742294367798275,0,valid_lose,486.0401199000189,32,,,,,,,,,,,,,,,,,,sub_1603,2025-03-25_15h47.52.002,Reversal,2022.1.2,59.9215387326824,3,
4,exp1.png,exp2.png,,,,,,,,,,,,,,,,,,0,0,0,0,0,4,4,4,,,,,,,,,False,3,84,False,exp1.png,exp2.png,trial_left_image,1,exp1.png,3,exp1.png,exp2.png,0,4,reversed,correct,0.3996105343348796,1,valid_win,490.5236796999816,33,,,,,,,,,,,,,,,,,,sub_1603,2025-03-25_15h47.52.002,Reversal,2022.1.2,59.9215387326824,3,
5,exp3.png,exp4.png,,,,,,,,,,,,,,,,,,0,0,0,0,0,5,5,5,,,,,,,,,False,4,85,False,exp3.png,exp4.png,trial_left_image,1,exp3.png,3,exp4.png,exp3.png,0,2,non-reversed,incorrect,0.3842357274680729,0,valid_lose,495.623368999979,33,,,,,,,,,,,,,,,,,,sub_1603,2025-03-25_15h47.52.002,Reversal,2022.1.2,59.9215387326824,3,
6,exp1.png,exp2.png,,,,,,,,,,,,,,,,,,0,0,0,0,0,6,6,6,,,,,,,,,False,5,86,False,exp1.png,exp2.png,trial_left_image,1,exp1.png,3,exp1.png,exp2.png,0,4,reversed,correct,0.14272412798710532,0,invalid_lose,499.95691860001534,33,,,,,,,,,,,,,,,,,,sub_1603,2025-03-25_15h47.52.002,Reversal,2022.1.2,59.9215387326824,3,
7,exp3.png,exp4.png,,,,,,,,,,,,,,,,,,0,0,0,0,0,7,7,7,,,,,,,,,False,6,87,False,exp3.png,exp4.png,trial_right_image,-1,exp4.png,3,exp4.png,exp3.png,1,1,non-reversed,correct,0.3734684185020566,1,valid_win,504.80702910001855,34,,,,,,,,,,,,,,,,,,sub_1603,2025-03-25_15h47.52.002,Reversal,2022.1.2,59.9215387326824,3,
8,exp1.png,exp2.png,,,,,,,,,,,,,,,,,,0,0,0,0,0,8,8,8,,,,,,,,,False,7,88,False,exp1.png,exp2.png,trial_left_image,1,exp1.png,3,exp1.png,exp2.png,0,4,reversed,correct,0.9884598550546522,1,valid_win,508.8734810000169,35,,,,,,,,,,,,,,,,,,sub_1603,2025-03-25_15h47.52.002,Reversal,2022.1.2,59.9215387326824,3,
9,exp3.png,exp4.png,,,,,,,,,,,,,,,,,,0,0,0,0,0,9,9,9,,,,,,,,,False,8,89,True,exp4.png,exp3.png,trial_right_image,-1,exp3.png,3,exp4.png,exp3.png,0,2,non-reversed,incorrect,0.5875316104824999,0,valid_lose,513.8897464000038,35,,,,,,,,,,,,,,,,,,sub_1603,2025-03-25_15h47.52.002,Reversal,2022.1.2,59.9215387326824,3,
10,exp1.png,exp2.png,,,,,,,,,,,,,,,,,,0,0,0,0,0,10,10,10,,,,,,,,,False,9,90,True,exp2.png,exp1.png,trial_right_image,-1,exp1.png,3,exp1.png,exp2.png,0,4,reversed,correct,0.2792397176932738,1,valid_win,518.5899823000073,36,,,,,,,,,,,,,,,,,,sub_1603,2025-03-25_15h47.52.002,Reversal,2022.1.2,59.9215387326824,3,
11,exp3.png,exp4.png,,,,,,,,,,,,,,,,,,0,0,0,0,0,11,11,11,,,,,,,,,False,10,91,True,exp4.png,exp3.png,trial_left_image,1,exp4.png,3,exp4.png,exp3.png,1,1,non-reversed,correct,0.8869867759891039,1,valid_win,523.0234054999892,37,,,,,,,,,,,,,,,,,,sub_1603,2025-03-25_15h47.52.002,Reversal,2022.1.2,59.9215387326824,3,
12,exp1.png,exp2.png,,,,,,,,,,,,,,,,,,0,0,0,0,0,12,12,12,,,,,,,,,False,11,92,False,exp1.png,exp2.png,trial_left_image,1,exp1.png,3,exp1.png,exp2.png,0,4,reversed,correct,0.7229180036259069,1,valid_win,528.5399612000328,38,,,,,,,,,,,,,,,,,,sub_1603,2025-03-25_15h47.52.002,Reversal,2022.1.2,59.9215387326824,3,
13,exp3.png,exp4.png,,,,,,,,,,,,,,,,,,0,0,0,0,0,13,13,13,,,,,,,,,False,12,93,False,exp3.png,exp4.png,trial_right_image,-1,exp4.png,3,exp4.png,exp3.png,1,1,non-reversed,correct,0.7761916125174829,1,valid_win,533.7066794999992,39,,,,,,,,,,,,,,,,,,sub_1603,2025-03-25_15h47.52.002,Reversal,2022.1.2,59.9215387326824,3,
14,exp1.png,exp2.png,,,,,,,,,,,,,,,,,,0,0,0,0,0,14,14,14,,,,,,,,,False,13,94,False,exp1.png,exp2.png,trial_left_image,1,exp1.png,3,exp1.png,exp2.png,0,4,reversed,correct,0.07803667064342634,0,invalid_lose,538.1065526999882,39,,,,,,,,,,,,,,,,,,sub_1603,2025-03-25_15h47.52.002,Reversal,2022.1.2,59.9215387326824,3,
15,exp3.png,exp4.png,,,,,,,,,,,,,,,,,,0,0,0,0,0,15,15,15,,,,,,,,,False,14,95,True,exp4.png,exp3.png,trial_left_image,1,exp4.png,3,exp4.png,exp3.png,1,1,non-reversed,correct,0.29942375577646085,1,valid_win,542.3898227000027,40,,,,,,,,,,,,,,,,,,sub_1603,2025-03-25_15h47.52.002,Reversal,2022.1.2,59.9215387326824,3,
16,exp1.png,exp2.png,,,,,,,,,,,,,,,,,,0,0,0,0,0,16,16,16,,,,,,,,,False,15,96,True,exp2.png,exp1.png,trial_right_image,-1,exp1.png,3,exp1.png,exp2.png,0,4,reversed,correct,0.10147624598510852,0,invalid_lose,546.889325199998,40,,,,,,,,,,,,,,,,,,sub_1603,2025-03-25_15h47.52.002,Reversal,2022.1.2,59.9215387326824,3,
17,exp3.png,exp4.png,,,,,,,,,,,,,,,,,,0,0,0,0,0,17,17,17,,,,,,,,,False,16,97,True,exp4.png,exp3.png,trial_left_image,1,exp4.png,3,exp4.png,exp3.png,1,1,non-reversed,correct,0.17443687880172432,0,invalid_lose,552.706495099992,40,,,,,,,,,,,,,,,,,,sub_1603,2025-03-25_15h47.52.002,Reversal,2022.1.2,59.9215387326824,3,
18,exp1.png,exp2.png,,,,,,,,,,,,,,,,,,0,0,0,0,0,18,18,18,,,,,,,,,False,17,98,True,exp2.png,exp1.png,trial_right_image,-1,exp1.png,3,exp1.png,exp2.png,0,4,reversed,correct,0.24031913456726028,0,invalid_lose,556.8891118000029,40,,,,,,,,,,,,,,,,,,sub_1603,2025-03-25_15h47.52.002,Reversal,2022.1.2,59.9215387326824,3,
19,exp3.png,exp4.png,,,,,,,,,,,,,,,,,,0,0,0,0,0,19,19,19,,,,,,,,,False,18,99,True,exp4.png,exp3.png,trial_left_image,1,exp4.png,3,exp4.png,exp3.png,1,1,non-reversed,correct,0.19854087800929499,0,invalid_lose,561.3392888000235,40,,,,,,,,,,,,,,,,,,sub_1603,2025-03-25_15h47.52.002,Reversal,2022.1.2,59.9215387326824,3,
20,exp1.png,exp2.png,,,,,,,,,,,,,,,,,,0,0,0,0,0,20,20,20,,,,,,,,,False,19,100,True,exp2.png,exp1.png,trial_right_image,-1,exp1.png,3,exp1.png,exp2.png,0,4,reversed,correct,0.6559230134328451,1,valid_win,565.5725947000319,41,,,,,,,,,,,,,,,,,,sub_1603,2025-03-25_15h47.52.002,Reversal,2022.1.2,59.9215387326824,3,
,,,exp1.png,,,,,,,,,,,,,,,,,0,0,0,0,,,,,0,0,0,0,0,0,0,0,,,,,,,,,,,,,,,,,,,,,,68.0,68.0,3.4461730000330135,"[(68.0, 3.4461730000330135)]",654.5721964999684,None,,,,,,,,,,,,sub_1603,2025-03-25_15h47.52.002,Reversal,2022.1.2,59.9215387326824,3,
,,,exp2.png,,,,,,,,,,,,,,,,,0,0,0,0,,,,,0,0,0,0,0,1,1,1,,,,,,,,,,,,,,,,,,,,,,,63.0,3.4348993999883533,"[(63.0, 3.4348993999883533)]",659.0480152000091,None,63.0,,,,,,,,,,,sub_1603,2025-03-25_15h47.52.002,Reversal,2022.1.2,59.9215387326824,3,
,,,exp3.png,,,,,,,,,,,,,,,,,0,0,0,0,,,,,0,0,0,0,0,2,2,2,,,,,,,,,,,,,,,,,,,,,,,35.0,2.6181234999676235,"[(41.0, 1.8346423999755643), (35.0, 2.6181234999676235)]",663.2485428999644,None,,35.0,,,,,,,,,,sub_1603,2025-03-25_15h47.52.002,Reversal,2022.1.2,59.9215387326824,3,
,,,exp4.png,,,,,,,,,,,,,,,,,0,0,0,0,,,,,0,0,0,0,0,3,3,3,,,,,,,,,,,,,,,,,,,,,,,75.0,0.9844702000264078,"[(75.0, 0.9844702000264078)]",666.7818821999826,None,,,75.0,,,,,,,,,sub_1603,2025-03-25_15h47.52.002,Reversal,2022.1.2,59.9215387326824,3,
0,exp1.png,exp2.png,,,,,,,,,,,,,,,,,,1,0,1,0,0,0,0,0,,,,,,,,,True,,,,,,,,,,,,,,,,,,,,,,,,,,,,,,,,,,,,,,sub_1603,2025-03-25_15h47.52.002,Reversal,2022.1.2,59.9215387326824,3,
1,exp3.png,exp4.png,,,,,,,,,,,,,,,,,,1,0,1,0,0,1,1,1,,,,,,,,,False,20,101,True,exp4.png,exp3.png,trial_left_image,1,exp4.png,3,exp4.png,exp3.png,1,1,non-reversed,correct,0.09974032721153214,0,invalid_lose,585.3721759000327,41,,,,,,,,,,,,,,,,,,sub_1603,2025-03-25_15h47.52.002,Reversal,2022.1.2,59.9215387326824,3,
2,exp1.png,exp2.png,,,,,,,,,,,,,,,,,,1,0,1,0,0,2,2,2,,,,,,,,,False,21,102,False,exp1.png,exp2.png,trial_right_image,-1,exp2.png,3,exp1.png,exp2.png,1,3,reversed,incorrect,0.4548451919383423,0,valid_lose,589.7382487999857,41,,,,,,,,,,,,,,,,,,sub_1603,2025-03-25_15h47.52.002,Reversal,2022.1.2,59.9215387326824,3,
3,exp3.png,exp4.png,,,,,,,,,,,,,,,,,,1,0,1,0,0,3,3,3,,,,,,,,,False,22,103,True,exp4.png,exp3.png,trial_left_image,1,exp4.png,3,exp4.png,exp3.png,1,1,non-reversed,correct,0.5266061964610733,1,valid_win,593.6551722000004,42,,,,,,,,,,,,,,,,,,sub_1603,2025-03-25_15h47.52.002,Reversal,2022.1.2,59.9215387326824,3,
4,exp1.png,exp2.png,,,,,,,,,,,,,,,,,,1,0,1,0,0,4,4,4,,,,,,,,,False,23,104,True,exp2.png,exp1.png,trial_right_image,-1,exp1.png,3,exp1.png,exp2.png,0,4,reversed,correct,0.9655761133943448,1,valid_win,597.8383992000017,43,,,,,,,,,,,,,,,,,,sub_1603,2025-03-25_15h47.52.002,Reversal,2022.1.2,59.9215387326824,3,
5,exp3.png,exp4.png,,,,,,,,,,,,,,,,,,1,0,1,0,0,5,5,5,,,,,,,,,False,24,105,True,exp4.png,exp3.png,trial_left_image,1,exp4.png,3,exp4.png,exp3.png,1,1,non-reversed,correct,0.4270318235481517,1,valid_win,602.2882220000029,44,,,,,,,,,,,,,,,,,,sub_1603,2025-03-25_15h47.52.002,Reversal,2022.1.2,59.9215387326824,3,
6,exp1.png,exp2.png,,,,,,,,,,,,,,,,,,1,0,1,0,0,6,6,6,,,,,,,,,False,25,106,False,exp1.png,exp2.png,trial_left_image,1,exp1.png,3,exp1.png,exp2.png,0,4,reversed,correct,0.2557273594284405,1,valid_win,606.5217810000177,45,,,,,,,,,,,,,,,,,,sub_1603,2025-03-25_15h47.52.002,Reversal,2022.1.2,59.9215387326824,3,
7,exp3.png,exp4.png,,,,,,,,,,,,,,,,,,1,0,1,0,0,7,7,7,,,,,,,,,False,26,107,False,exp3.png,exp4.png,trial_right_image,-1,exp4.png,3,exp4.png,exp3.png,1,1,non-reversed,correct,0.9976433106019573,1,valid_win,610.3549984000274,46,,,,,,,,,,,,,,,,,,sub_1603,2025-03-25_15h47.52.002,Reversal,2022.1.2,59.9215387326824,3,
8,exp1.png,exp2.png,,,,,,,,,,,,,,,,,,1,0,1,0,0,8,8,8,,,,,,,,,False,27,108,True,exp2.png,exp1.png,trial_right_image,-1,exp1.png,3,exp1.png,exp2.png,0,4,reversed,correct,0.13841413989146456,0,invalid_lose,614.2215536999865,46,,,,,,,,,,,,,,,,,,sub_1603,2025-03-25_15h47.52.002,Reversal,2022.1.2,59.9215387326824,3,
9,exp3.png,exp4.png,,,,,,,,,,,,,,,,,,1,0,1,0,0,9,9,9,,,,,,,,,False,28,109,False,exp3.png,exp4.png,trial_right_image,-1,exp4.png,3,exp4.png,exp3.png,1,1,non-reversed,correct,0.5076701351982505,1,valid_win,617.7900085999863,47,,,,,,,,,,,,,,,,,,sub_1603,2025-03-25_15h47.52.002,Reversal,2022.1.2,59.9215387326824,3,
10,exp1.png,exp2.png,,,,,,,,,,,,,,,,,,1,0,1,0,0,10,10,10,,,,,,,,,False,29,110,False,exp1.png,exp2.png,trial_left_image,1,exp1.png,3,exp1.png,exp2.png,0,4,reversed,correct,0.877929467815069,1,valid_win,622.0547256999998,48,,,,,,,,,,,,,,,,,,sub_1603,2025-03-25_15h47.52.002,Reversal,2022.1.2,59.9215387326824,3,
11,exp3.png,exp4.png,,,,,,,,,,,,,,,,,,1,0,1,0,0,11,11,11,,,,,,,,,False,30,111,False,exp3.png,exp4.png,trial_right_image,-1,exp4.png,3,exp4.png,exp3.png,1,1,non-reversed,correct,0.09025960363113994,0,invalid_lose,626.0381723000319,48,,,,,,,,,,,,,,,,,,sub_1603,2025-03-25_15h47.52.002,Reversal,2022.1.2,59.9215387326824,3,
12,exp1.png,exp2.png,,,,,,,,,,,,,,,,,,1,0,1,0,0,12,12,12,,,,,,,,,False,31,112,True,exp2.png,exp1.png,trial_left_image,1,exp2.png,3,exp1.png,exp2.png,1,3,reversed,incorrect,0.6946892243472166,0,valid_lose,630.1876483000233,48,,,,,,,,,,,,,,,,,,sub_1603,2025-03-25_15h47.52.002,Reversal,2022.1.2,59.9215387326824,3,
13,exp3.png,exp4.png,,,,,,,,,,,,,,,,,,1,0,1,0,0,13,13,13,,,,,,,,,False,32,113,False,exp3.png,exp4.png,trial_right_image,-1,exp4.png,3,exp4.png,exp3.png,1,1,non-reversed,correct,0.7805537929222149,1,valid_win,634.5545583000057,49,,,,,,,,,,,,,,,,,,sub_1603,2025-03-25_15h47.52.002,Reversal,2022.1.2,59.9215387326824,3,
14,exp1.png,exp2.png,,,,,,,,,,,,,,,,,,1,0,1,0,0,14,14,14,,,,,,,,,False,33,114,False,exp1.png,exp2.png,trial_left_image,1,exp1.png,3,exp1.png,exp2.png,0,4,reversed,correct,0.411158385753184,1,valid_win,638.7877120000194,50,,,,,,,,,,,,,,,,,,sub_1603,2025-03-25_15h47.52.002,Reversal,2022.1.2,59.9215387326824,3,
15,exp3.png,exp4.png,,,,,,,,,,,,,,,,,,1,0,1,0,0,15,15,15,,,,,,,,,False,34,115,False,exp3.png,exp4.png,trial_right_image,-1,exp4.png,3,exp4.png,exp3.png,1,1,non-reversed,correct,0.6081800372210552,1,valid_win,642.8378238999867,51,,,,,,,,,,,,,,,,,,sub_1603,2025-03-25_15h47.52.002,Reversal,2022.1.2,59.9215387326824,3,
16,exp1.png,exp2.png,,,,,,,,,,,,,,,,,,1,0,1,0,0,16,16,16,,,,,,,,,False,35,116,True,exp2.png,exp1.png,trial_left_image,1,exp2.png,3,exp1.png,exp2.png,1,3,reversed,incorrect,0.4327364249269837,0,valid_lose,647.4704712000093,51,,,,,,,,,,,,,,,,,,sub_1603,2025-03-25_15h47.52.002,Reversal,2022.1.2,59.9215387326824,3,
17,exp3.png,exp4.png,,,,,,,,,,,,,,,,,,1,0,1,0,0,17,17,17,,,,,,,,,False,36,117,False,exp3.png,exp4.png,trial_right_image,-1,exp4.png,3,exp4.png,exp3.png,1,1,non-reversed,correct,0.01506430528244751,0,invalid_lose,651.9707088000141,51,,,,,,,,,,,,,,,,,,sub_1603,2025-03-25_15h47.52.002,Reversal,2022.1.2,59.9215387326824,3,
18,exp1.png,exp2.png,,,,,,,,,,,,,,,,,,1,0,1,0,0,18,18,18,,,,,,,,,False,37,118,True,exp2.png,exp1.png,trial_right_image,-1,exp1.png,3,exp1.png,exp2.png,0,4,reversed,correct,0.0390234153413519,0,invalid_lose,656.5540738999844,51,,,,,,,,,,,,,,,,,,sub_1603,2025-03-25_15h47.52.002,Reversal,2022.1.2,59.9215387326824,3,
19,exp3.png,exp4.png,,,,,,,,,,,,,,,,,,1,0,1,0,0,19,19,19,,,,,,,,,False,38,119,True,exp4.png,exp3.png,trial_left_image,1,exp4.png,3,exp4.png,exp3.png,1,1,non-reversed,correct,0.809647852716373,1,valid_win,660.7201375000295,52,,,,,,,,,,,,,,,,,,sub_1603,2025-03-25_15h47.52.002,Reversal,2022.1.2,59.9215387326824,3,
20,exp1.png,exp2.png,,,,,,,,,,,,,,,,,,1,0,1,0,0,20,20,20,,,,,,,,,False,39,120,True,exp2.png,exp1.png,trial_right_image,-1,exp1.png,3,exp1.png,exp2.png,0,4,reversed,correct,0.19145212806375145,0,invalid_lose,664.6369913999806,52,,,,,,,,,,,,,,,,,,sub_1603,2025-03-25_15h47.52.002,Reversal,2022.1.2,59.9215387326824,3,
,,,exp1.png,,,,,,,,,,,,,,,,,1,0,1,0,,,,,0,0,0,0,0,0,0,0,,,,,,,,,,,,,,,,,,,,,,,50.0,None,[],753.635222300014,None,,,,,,,,,,,,sub_1603,2025-03-25_15h47.52.002,Reversal,2022.1.2,59.9215387326824,3,
,,,exp2.png,,,,,,,,,,,,,,,,,1,0,1,0,,,,,0,0,0,0,0,1,1,1,,,,,,,,,,,,,,,,,,,,,,,50.0,None,[],755.3301321999752,None,,,,,,,,,,,,sub_1603,2025-03-25_15h47.52.002,Reversal,2022.1.2,59.9215387326824,3,
,,,exp3.png,,,,,,,,,,,,,,,,,1,0,1,0,,,,,0,0,0,0,0,2,2,2,,,,,,,,,,,,,,,,,,,,,,,50.0,None,[],756.2628867999883,None,,,,,,,,,,,,sub_1603,2025-03-25_15h47.52.002,Reversal,2022.1.2,59.9215387326824,3,
,,,exp4.png,,,,,,,,,,,,,,,,,1,0,1,0,,,,,0,0,0,0,0,3,3,3,,,,,,,,,,,,,,,,,,,,,,,50.0,None,[],757.1812655999674,None,,,,,,,,,,,,sub_1603,2025-03-25_15h47.52.002,Reversal,2022.1.2,59.9215387326824,3,
0,exp1.png,exp2.png,,,,,,,,,,,,,,,,,,2,0,2,0,0,0,0,0,,,,,,,,,True,,,,,,,,,,,,,,,,,,,,,,,,,,,,,,,,,,,,,,sub_1603,2025-03-25_15h47.52.002,Reversal,2022.1.2,59.9215387326824,3,
1,exp3.png,exp4.png,,,,,,,,,,,,,,,,,,2,0,2,0,0,1,1,1,,,,,,,,,False,40,121,True,exp4.png,exp3.png,trial_left_image,1,exp4.png,3,exp4.png,exp3.png,1,1,non-reversed,correct,0.44059240792938337,1,valid_win,674.253828099987,53,,,,,,,,,,,,,,,,,,sub_1603,2025-03-25_15h47.52.002,Reversal,2022.1.2,59.9215387326824,3,
2,exp1.png,exp2.png,,,,,,,,,,,,,,,,,,2,0,2,0,0,2,2,2,,,,,,,,,False,41,122,False,exp1.png,exp2.png,trial_left_image,1,exp1.png,3,exp1.png,exp2.png,0,4,reversed,correct,0.39902577992620614,1,valid_win,678.3034248999902,54,,,,,,,,,,,,,,,,,,sub_1603,2025-03-25_15h47.52.002,Reversal,2022.1.2,59.9215387326824,3,
3,exp3.png,exp4.png,,,,,,,,,,,,,,,,,,2,0,2,0,0,3,3,3,,,,,,,,,False,42,123,False,exp3.png,exp4.png,trial_right_image,-1,exp4.png,3,exp4.png,exp3.png,1,1,non-reversed,correct,0.9600692430128334,1,valid_win,682.1867008000263,55,,,,,,,,,,,,,,,,,,sub_1603,2025-03-25_15h47.52.002,Reversal,2022.1.2,59.9215387326824,3,
4,exp1.png,exp2.png,,,,,,,,,,,,,,,,,,2,0,2,0,0,4,4,4,,,,,,,,,False,43,124,True,exp2.png,exp1.png,trial_right_image,-1,exp1.png,3,exp1.png,exp2.png,0,4,reversed,correct,0.00941617244425963,0,invalid_lose,686.0867671000306,55,,,,,,,,,,,,,,,,,,sub_1603,2025-03-25_15h47.52.002,Reversal,2022.1.2,59.9215387326824,3,
5,exp3.png,exp4.png,,,,,,,,,,,,,,,,,,2,0,2,0,0,5,5,5,,,,,,,,,False,44,125,False,exp3.png,exp4.png,trial_left_image,1,exp3.png,3,exp4.png,exp3.png,0,2,non-reversed,incorrect,0.6517767868493889,0,valid_lose,690.3703831000021,55,,,,,,,,,,,,,,,,,,sub_1603,2025-03-25_15h47.52.002,Reversal,2022.1.2,59.9215387326824,3,
6,exp1.png,exp2.png,,,,,,,,,,,,,,,,,,2,0,2,0,0,6,6,6,,,,,,,,,False,45,126,False,exp1.png,exp2.png,trial_left_image,1,exp1.png,3,exp1.png,exp2.png,0,4,reversed,correct,0.1584251838951275,0,invalid_lose,694.7367421999807,55,,,,,,,,,,,,,,,,,,sub_1603,2025-03-25_15h47.52.002,Reversal,2022.1.2,59.9215387326824,3,
7,exp3.png,exp4.png,,,,,,,,,,,,,,,,,,2,0,2,0,0,7,7,7,,,,,,,,,False,46,127,True,exp4.png,exp3.png,trial_left_image,1,exp4.png,3,exp4.png,exp3.png,1,1,non-reversed,correct,0.44496278757365193,1,valid_win,698.6697112999973,56,,,,,,,,,,,,,,,,,,sub_1603,2025-03-25_15h47.52.002,Reversal,2022.1.2,59.9215387326824,3,
8,exp1.png,exp2.png,,,,,,,,,,,,,,,,,,2,0,2,0,0,8,8,8,,,,,,,,,False,47,128,True,exp2.png,exp1.png,trial_right_image,-1,exp1.png,3,exp1.png,exp2.png,0,4,reversed,correct,0.5745532043788053,1,valid_win,702.636823399982,57,,,,,,,,,,,,,,,,,,sub_1603,2025-03-25_15h47.52.002,Reversal,2022.1.2,59.9215387326824,3,
9,exp3.png,exp4.png,,,,,,,,,,,,,,,,,,2,0,2,0,0,9,9,9,,,,,,,,,False,48,129,True,exp4.png,exp3.png,trial_left_image,1,exp4.png,3,exp4.png,exp3.png,1,1,non-reversed,correct,0.5057450908762022,1,valid_win,706.6529484000057,58,,,,,,,,,,,,,,,,,,sub_1603,2025-03-25_15h47.52.002,Reversal,2022.1.2,59.9215387326824,3,
10,exp1.png,exp2.png,,,,,,,,,,,,,,,,,,2,0,2,0,0,10,10,10,,,,,,,,,False,49,130,True,exp2.png,exp1.png,trial_right_image,-1,exp1.png,3,exp1.png,exp2.png,0,4,reversed,correct,0.8005060157865667,1,valid_win,710.886719400005,59,,,,,,,,,,,,,,,,,,sub_1603,2025-03-25_15h47.52.002,Reversal,2022.1.2,59.9215387326824,3,
11,exp3.png,exp4.png,,,,,,,,,,,,,,,,,,2,0,2,0,0,11,11,11,,,,,,,,,False,50,131,False,exp3.png,exp4.png,trial_right_image,-1,exp4.png,3,exp4.png,exp3.png,1,1,non-reversed,correct,0.023971277685335468,0,invalid_lose,715.3027646000264,59,,,,,,,,,,,,,,,,,,sub_1603,2025-03-25_15h47.52.002,Reversal,2022.1.2,59.9215387326824,3,
12,exp1.png,exp2.png,,,,,,,,,,,,,,,,,,2,0,2,0,0,12,12,12,,,,,,,,,False,51,132,True,exp2.png,exp1.png,trial_left_image,1,exp2.png,3,exp1.png,exp2.png,1,3,reversed,incorrect,0.46347409760698643,0,valid_lose,719.8689259000239,59,,,,,,,,,,,,,,,,,,sub_1603,2025-03-25_15h47.52.002,Reversal,2022.1.2,59.9215387326824,3,
13,exp3.png,exp4.png,,,,,,,,,,,,,,,,,,2,0,2,0,0,13,13,13,,,,,,,,,False,52,133,False,exp3.png,exp4.png,trial_left_image,1,exp3.png,3,exp4.png,exp3.png,0,2,non-reversed,incorrect,0.08055482500571998,1,invalid_win,723.8861748999916,60,,,,,,,,,,,,,,,,,,sub_1603,2025-03-25_15h47.52.002,Reversal,2022.1.2,59.9215387326824,3,
14,exp1.png,exp2.png,,,,,,,,,,,,,,,,,,2,0,2,0,0,14,14,14,,,,,,,,,False,53,134,False,exp1.png,exp2.png,trial_right_image,-1,exp2.png,3,exp1.png,exp2.png,1,3,reversed,incorrect,0.18024627766145307,1,invalid_win,728.3028714000247,61,,,,,,,,,,,,,,,,,,sub_1603,2025-03-25_15h47.52.002,Reversal,2022.1.2,59.9215387326824,3,
15,exp3.png,exp4.png,,,,,,,,,,,,,,,,,,2,0,2,0,0,15,15,15,,,,,,,,,False,54,135,False,exp3.png,exp4.png,trial_left_image,1,exp3.png,3,exp4.png,exp3.png,0,2,non-reversed,incorrect,0.8829188623392672,0,valid_lose,732.118702000007,61,,,,,,,,,,,,,,,,,,sub_1603,2025-03-25_15h47.52.002,Reversal,2022.1.2,59.9215387326824,3,
16,exp1.png,exp2.png,,,,,,,,,,,,,,,,,,2,0,2,0,0,16,16,16,,,,,,,,,False,55,136,True,exp2.png,exp1.png,trial_right_image,-1,exp1.png,3,exp1.png,exp2.png,0,4,reversed,correct,0.18783712393928065,0,invalid_lose,736.0358426999883,61,,,,,,,,,,,,,,,,,,sub_1603,2025-03-25_15h47.52.002,Reversal,2022.1.2,59.9215387326824,3,
17,exp3.png,exp4.png,,,,,,,,,,,,,,,,,,2,0,2,0,0,17,17,17,,,,,,,,,False,56,137,True,exp4.png,exp3.png,trial_left_image,1,exp4.png,3,exp4.png,exp3.png,1,1,non-reversed,correct,0.8227680050487892,1,valid_win,739.9523731999798,62,,,,,,,,,,,,,,,,,,sub_1603,2025-03-25_15h47.52.002,Reversal,2022.1.2,59.9215387326824,3,
18,exp1.png,exp2.png,,,,,,,,,,,,,,,,,,2,0,2,0,0,18,18,18,,,,,,,,,False,57,138,False,exp1.png,exp2.png,trial_right_image,-1,exp2.png,3,exp1.png,exp2.png,1,3,reversed,incorrect,0.2609536274263955,0,valid_lose,743.9692002999946,62,,,,,,,,,,,,,,,,,,sub_1603,2025-03-25_15h47.52.002,Reversal,2022.1.2,59.9215387326824,3,
19,exp3.png,exp4.png,,,,,,,,,,,,,,,,,,2,0,2,0,0,19,19,19,,,,,,,,,False,58,139,False,exp3.png,exp4.png,trial_left_image,1,exp3.png,3,exp4.png,exp3.png,0,2,non-reversed,incorrect,0.2661629792452007,0,valid_lose,747.9523636000231,62,,,,,,,,,,,,,,,,,,sub_1603,2025-03-25_15h47.52.002,Reversal,2022.1.2,59.9215387326824,3,
20,exp1.png,exp2.png,,,,,,,,,,,,,,,,,,2,0,2,0,0,20,20,20,,,,,,,,,False,59,140,True,exp2.png,exp1.png,trial_right_image,-1,exp1.png,3,exp1.png,exp2.png,0,4,reversed,correct,0.032793036749988236,0,invalid_lose,752.0354496000218,62,,,,,,,,,,,,,,,,,,sub_1603,2025-03-25_15h47.52.002,Reversal,2022.1.2,59.9215387326824,3,
,,,exp1.png,,,,,,,,,,,,,,,,,2,0,2,0,,,,,0,0,0,0,0,0,0,0,,,,,,,,,,,,,,,,,,,,,,100.0,100.0,2.1452046999474987,"[(100.0, 2.1452046999474987)]",841.0204530999763,None,,,,,,,,,,,,sub_1603,2025-03-25_15h47.52.002,Reversal,2022.1.2,59.9215387326824,3,
,,,exp2.png,,,,,,,,,,,,,,,,,2,0,2,0,,,,,0,0,0,0,0,1,1,1,,,,,,,,,,,,,,,,,,,,,,,100.0,1.0023416000185534,"[(100.0, 1.0023416000185534)]",844.1952862999751,None,100.0,,,,,,,,,,,sub_1603,2025-03-25_15h47.52.002,Reversal,2022.1.2,59.9215387326824,3,
,,,exp3.png,,,,,,,,,,,,,,,,,2,0,2,0,,,,,0,0,0,0,0,2,2,2,,,,,,,,,,,,,,,,,,,,,,,100.0,0.9846447000163607,"[(100.0, 0.9846447000163607)]",846.1781470999704,None,,100.0,,,,,,,,,,sub_1603,2025-03-25_15h47.52.002,Reversal,2022.1.2,59.9215387326824,3,
,,,exp4.png,,,,,,,,,,,,,,,,,2,0,2,0,,,,,0,0,0,0,0,3,3,3,,,,,,,,,,,,,,,,,,,,,,,100.0,0.9015901000238955,"[(100.0, 0.9015901000238955)]",848.1450796999852,None,,,100.0,,,,,,,,,sub_1603,2025-03-25_15h47.52.002,Reversal,2022.1.2,59.9215387326824,3,
,,,,,,,,,,,,,,,,,,,,,,,,,,,,,,,,,,,,,,,,,,,,,,,,,,,,,,,,62,,,,,,,,,,,82,35,47,288.6516316999914,1,space,30.94436849997146,sub_1603,2025-03-25_15h47.52.002,Reversal,2022.1.2,59.9215387326824,3,
