trial_index,trial_image1_file,trial_image2_file,image_file,learning_outer_loop.thisRepN,learning_outer_loop.thisTrialN,learning_outer_loop.thisN,learning_outer_loop.thisIndex,learning_inner_loop.thisRepN,learning_inner_loop.thisTrialN,learning_inner_loop.thisN,learning_inner_loop.thisIndex,learning_estimation_outer_loop.thisRepN,learning_estimation_outer_loop.thisTrialN,learning_estimation_outer_loop.thisN,learning_estimation_outer_loop.thisIndex,learning_estimation_inner_loop.thisRepN,learning_estimation_inner_loop.thisTrialN,learning_estimation_inner_loop.thisN,learning_estimation_inner_loop.thisIndex,reversal_outer_loop.thisRepN,reversal_outer_loop.thisTrialN,reversal_outer_loop.thisN,reversal_outer_loop.thisIndex,reversal_inner_loop.thisRepN,reversal_inner_loop.thisTrialN,reversal_inner_loop.thisN,reversal_inner_loop.thisIndex,reversal_estimation_outer_loop.thisRepN,reversal_estimation_outer_loop.thisTrialN,reversal_estimation_outer_loop.thisN,reversal_estimation_outer_loop.thisIndex,reversal_estimation_inner_loop.thisRepN,reversal_estimation_inner_loop.thisTrialN,reversal_estimation_inner_loop.thisN,reversal_estimation_inner_loop.thisIndex,skipped,total_trial_counter,trial_num,left_right_flip,left_image_file,right_image_file,clicked_stimulus_side,side,clicked_stimulus,version,high_prob_image_file,low_prob_image_file,choice_a,choice_b,pair_type,correct,trial_feedback_random,reward,trial_type,overall_time_after_trial,score,estimation_rating.started,estimation_exp1.png,estimation_rating.response,estimation_rating.rt,estimation_rating.history,estimation_exp2.png,estimation_exp3.png,estimation_exp4.png,total_learning_time,total_correct,learning_correct,reversal_correct,total_reversal_time,extra_block,participant,date,expName,psychopyVersion,frameRate,ver,
0,exp1.png,exp2.png,,0,0,0,0,0,0,0,0,,,,,,,,,,,,,,,,,,,,,,,,,True,,,,,,,,,,,,,,,,,,,,,,,,,,,,,,,,,,,sub_401,2025-04-20_17h22.23.988,Reversal,2023.1.3,59.95811326420932,1,
1,exp3.png,exp4.png,,0,0,0,0,0,1,1,1,,,,,,,,,,,,,,,,,,,,,,,,,False,0,1,False,exp3.png,exp4.png,trial_right_image,-1,exp4.png,1,exp3.png,exp4.png,0,2,non-reversed,incorrect,0.17911751589861835,1,invalid_win,10.079329499974847,1,,,,,,,,,,,,,,,sub_401,2025-04-20_17h22.23.988,Reversal,2023.1.3,59.95811326420932,1,
2,exp1.png,exp2.png,,0,0,0,0,0,2,2,2,,,,,,,,,,,,,,,,,,,,,,,,,False,1,2,True,exp2.png,exp1.png,trial_left_image,1,exp2.png,1,exp1.png,exp2.png,0,4,reversed,incorrect,0.6412718918088143,0,valid_lose,16.59337959997356,1,,,,,,,,,,,,,,,sub_401,2025-04-20_17h22.23.988,Reversal,2023.1.3,59.95811326420932,1,
3,exp3.png,exp4.png,,0,0,0,0,0,3,3,3,,,,,,,,,,,,,,,,,,,,,,,,,False,2,3,True,exp4.png,exp3.png,trial_right_image,-1,exp3.png,1,exp3.png,exp4.png,1,1,non-reversed,correct,0.06692370513332746,0,invalid_lose,22.74097070004791,1,,,,,,,,,,,,,,,sub_401,2025-04-20_17h22.23.988,Reversal,2023.1.3,59.95811326420932,1,
4,exp1.png,exp2.png,,0,0,0,0,0,4,4,4,,,,,,,,,,,,,,,,,,,,,,,,,False,3,4,True,exp2.png,exp1.png,trial_right_image,-1,exp1.png,1,exp1.png,exp2.png,1,3,reversed,correct,0.8442231225252355,1,valid_win,28.588863800046965,2,,,,,,,,,,,,,,,sub_401,2025-04-20_17h22.23.988,Reversal,2023.1.3,59.95811326420932,1,
5,exp3.png,exp4.png,,0,0,0,0,0,5,5,5,,,,,,,,,,,,,,,,,,,,,,,,,False,4,5,True,exp4.png,exp3.png,trial_left_image,1,exp4.png,1,exp3.png,exp4.png,0,2,non-reversed,incorrect,0.5986576632910698,0,valid_lose,34.90331079997122,2,,,,,,,,,,,,,,,sub_401,2025-04-20_17h22.23.988,Reversal,2023.1.3,59.95811326420932,1,
6,exp1.png,exp2.png,,0,0,0,0,0,6,6,6,,,,,,,,,,,,,,,,,,,,,,,,,False,5,6,False,exp1.png,exp2.png,trial_right_image,-1,exp2.png,1,exp1.png,exp2.png,0,4,reversed,incorrect,0.3934087842747176,0,valid_lose,39.71820649993606,2,,,,,,,,,,,,,,,sub_401,2025-04-20_17h22.23.988,Reversal,2023.1.3,59.95811326420932,1,
7,exp3.png,exp4.png,,0,0,0,0,0,7,7,7,,,,,,,,,,,,,,,,,,,,,,,,,False,6,7,False,exp3.png,exp4.png,trial_right_image,-1,exp4.png,1,exp3.png,exp4.png,0,2,non-reversed,incorrect,0.15184445587858986,1,invalid_win,45.6665829999838,3,,,,,,,,,,,,,,,sub_401,2025-04-20_17h22.23.988,Reversal,2023.1.3,59.95811326420932,1,
8,exp1.png,exp2.png,,0,0,0,0,0,8,8,8,,,,,,,,,,,,,,,,,,,,,,,,,False,7,8,True,exp2.png,exp1.png,trial_left_image,1,exp2.png,1,exp1.png,exp2.png,0,4,reversed,incorrect,0.15454002911602804,1,invalid_win,50.781369199976325,4,,,,,,,,,,,,,,,sub_401,2025-04-20_17h22.23.988,Reversal,2023.1.3,59.95811326420932,1,
9,exp3.png,exp4.png,,0,0,0,0,0,9,9,9,,,,,,,,,,,,,,,,,,,,,,,,,False,8,9,False,exp3.png,exp4.png,trial_left_image,1,exp3.png,1,exp3.png,exp4.png,1,1,non-reversed,correct,0.6532945053887078,1,valid_win,55.56333219981752,5,,,,,,,,,,,,,,,sub_401,2025-04-20_17h22.23.988,Reversal,2023.1.3,59.95811326420932,1,
10,exp1.png,exp2.png,,0,0,0,0,0,10,10,10,,,,,,,,,,,,,,,,,,,,,,,,,False,9,10,False,exp1.png,exp2.png,trial_left_image,1,exp1.png,1,exp1.png,exp2.png,1,3,reversed,correct,0.34694900031509535,1,valid_win,60.078967599896714,6,,,,,,,,,,,,,,,sub_401,2025-04-20_17h22.23.988,Reversal,2023.1.3,59.95811326420932,1,
11,exp3.png,exp4.png,,0,0,0,0,0,11,11,11,,,,,,,,,,,,,,,,,,,,,,,,,False,10,11,True,exp4.png,exp3.png,trial_right_image,-1,exp3.png,1,exp3.png,exp4.png,1,1,non-reversed,correct,0.5395982259512191,1,valid_win,66.02668359992094,7,,,,,,,,,,,,,,,sub_401,2025-04-20_17h22.23.988,Reversal,2023.1.3,59.95811326420932,1,
12,exp1.png,exp2.png,,0,0,0,0,0,12,12,12,,,,,,,,,,,,,,,,,,,,,,,,,False,11,12,True,exp2.png,exp1.png,trial_right_image,-1,exp1.png,1,exp1.png,exp2.png,1,3,reversed,correct,0.8975120826855764,1,valid_win,72.95748799992725,8,,,,,,,,,,,,,,,sub_401,2025-04-20_17h22.23.988,Reversal,2023.1.3,59.95811326420932,1,
13,exp3.png,exp4.png,,0,0,0,0,0,13,13,13,,,,,,,,,,,,,,,,,,,,,,,,,False,12,13,False,exp3.png,exp4.png,trial_right_image,-1,exp4.png,1,exp3.png,exp4.png,0,2,non-reversed,incorrect,0.060495981993582526,1,invalid_win,77.60564649989828,9,,,,,,,,,,,,,,,sub_401,2025-04-20_17h22.23.988,Reversal,2023.1.3,59.95811326420932,1,
14,exp1.png,exp2.png,,0,0,0,0,0,14,14,14,,,,,,,,,,,,,,,,,,,,,,,,,False,13,14,False,exp1.png,exp2.png,trial_right_image,-1,exp2.png,1,exp1.png,exp2.png,0,4,reversed,incorrect,0.003660607020006812,1,invalid_win,82.80460739997216,10,,,,,,,,,,,,,,,sub_401,2025-04-20_17h22.23.988,Reversal,2023.1.3,59.95811326420932,1,
15,exp3.png,exp4.png,,0,0,0,0,0,15,15,15,,,,,,,,,,,,,,,,,,,,,,,,,False,14,15,False,exp3.png,exp4.png,trial_left_image,1,exp3.png,1,exp3.png,exp4.png,1,1,non-reversed,correct,0.9072996660377926,1,valid_win,87.53560970001854,11,,,,,,,,,,,,,,,sub_401,2025-04-20_17h22.23.988,Reversal,2023.1.3,59.95811326420932,1,
16,exp1.png,exp2.png,,0,0,0,0,0,16,16,16,,,,,,,,,,,,,,,,,,,,,,,,,False,15,16,True,exp2.png,exp1.png,trial_right_image,-1,exp1.png,1,exp1.png,exp2.png,1,3,reversed,correct,0.10167589280948208,0,invalid_lose,92.53441610001028,11,,,,,,,,,,,,,,,sub_401,2025-04-20_17h22.23.988,Reversal,2023.1.3,59.95811326420932,1,
17,exp3.png,exp4.png,,0,0,0,0,0,17,17,17,,,,,,,,,,,,,,,,,,,,,,,,,False,16,17,False,exp3.png,exp4.png,trial_right_image,-1,exp4.png,1,exp3.png,exp4.png,0,2,non-reversed,incorrect,0.7790424382729049,0,valid_lose,97.23231490002945,11,,,,,,,,,,,,,,,sub_401,2025-04-20_17h22.23.988,Reversal,2023.1.3,59.95811326420932,1,
18,exp1.png,exp2.png,,0,0,0,0,0,18,18,18,,,,,,,,,,,,,,,,,,,,,,,,,False,17,18,False,exp1.png,exp2.png,trial_right_image,-1,exp2.png,1,exp1.png,exp2.png,0,4,reversed,incorrect,0.45933973513779347,0,valid_lose,101.83104319986887,11,,,,,,,,,,,,,,,sub_401,2025-04-20_17h22.23.988,Reversal,2023.1.3,59.95811326420932,1,
19,exp3.png,exp4.png,,0,0,0,0,0,19,19,19,,,,,,,,,,,,,,,,,,,,,,,,,False,18,19,True,exp4.png,exp3.png,trial_left_image,1,exp4.png,1,exp3.png,exp4.png,0,2,non-reversed,incorrect,0.4699541997837383,0,valid_lose,107.46252219984308,11,,,,,,,,,,,,,,,sub_401,2025-04-20_17h22.23.988,Reversal,2023.1.3,59.95811326420932,1,
20,exp1.png,exp2.png,,0,0,0,0,0,20,20,20,,,,,,,,,,,,,,,,,,,,,,,,,False,19,20,True,exp2.png,exp1.png,trial_right_image,-1,exp1.png,1,exp1.png,exp2.png,1,3,reversed,correct,0.5709155997494654,1,valid_win,111.59462929982692,12,,,,,,,,,,,,,,,sub_401,2025-04-20_17h22.23.988,Reversal,2023.1.3,59.95811326420932,1,
,,,exp1.png,0,0,0,0,,,,,0,0,0,0,0,0,0,0,,,,,,,,,,,,,,,,,,,,,,,,,,,,,,,,,,,,,,165.46901430003345,73.0,73.0,16.73735020007007,"[(73.0, 16.73735020007007)]",,,,,,,,,,sub_401,2025-04-20_17h22.23.988,Reversal,2023.1.3,59.95811326420932,1,
,,,exp2.png,0,0,0,0,,,,,0,0,0,0,0,1,1,1,,,,,,,,,,,,,,,,,,,,,,,,,,,,,,,,,,,,,,183.20483330008574,,26.0,6.57564610010013,"[(26.0, 6.57564610010013)]",26.0,,,,,,,,,sub_401,2025-04-20_17h22.23.988,Reversal,2023.1.3,59.95811326420932,1,
,,,exp3.png,0,0,0,0,,,,,0,0,0,0,0,2,2,2,,,,,,,,,,,,,,,,,,,,,,,,,,,,,,,,,,,,,,190.73346780007705,,77.0,3.776453699916601,"[(77.0, 3.776453699916601)]",,77.0,,,,,,,,sub_401,2025-04-20_17h22.23.988,Reversal,2023.1.3,59.95811326420932,1,
,,,exp4.png,0,0,0,0,,,,,0,0,0,0,0,3,3,3,,,,,,,,,,,,,,,,,,,,,,,,,,,,,,,,,,,,,,195.46721390006132,,30.0,1.694611500017345,"[(30.0, 1.694611500017345)]",,,30.0,,,,,,,sub_401,2025-04-20_17h22.23.988,Reversal,2023.1.3,59.95811326420932,1,
0,exp1.png,exp2.png,,1,0,1,0,0,0,0,0,,,,,,,,,,,,,,,,,,,,,,,,,True,,,,,,,,,,,,,,,,,,,,,,,,,,,,,,,,,,,sub_401,2025-04-20_17h22.23.988,Reversal,2023.1.3,59.95811326420932,1,
1,exp3.png,exp4.png,,1,0,1,0,0,1,1,1,,,,,,,,,,,,,,,,,,,,,,,,,False,20,21,True,exp4.png,exp3.png,trial_right_image,-1,exp3.png,1,exp3.png,exp4.png,1,1,non-reversed,correct,0.945471089020461,1,valid_win,149.49833979993127,13,,,,,,,,,,,,,,,sub_401,2025-04-20_17h22.23.988,Reversal,2023.1.3,59.95811326420932,1,
2,exp1.png,exp2.png,,1,0,1,0,0,2,2,2,,,,,,,,,,,,,,,,,,,,,,,,,False,21,22,False,exp1.png,exp2.png,trial_left_image,1,exp1.png,1,exp1.png,exp2.png,1,3,reversed,correct,0.9458817322769665,1,valid_win,154.09738489985466,14,,,,,,,,,,,,,,,sub_401,2025-04-20_17h22.23.988,Reversal,2023.1.3,59.95811326420932,1,
3,exp3.png,exp4.png,,1,0,1,0,0,3,3,3,,,,,,,,,,,,,,,,,,,,,,,,,False,22,23,True,exp4.png,exp3.png,trial_left_image,1,exp4.png,1,exp3.png,exp4.png,0,2,non-reversed,incorrect,0.3580354969955142,0,valid_lose,159.19477740000002,14,,,,,,,,,,,,,,,sub_401,2025-04-20_17h22.23.988,Reversal,2023.1.3,59.95811326420932,1,
4,exp1.png,exp2.png,,1,0,1,0,0,4,4,4,,,,,,,,,,,,,,,,,,,,,,,,,False,23,24,True,exp2.png,exp1.png,trial_right_image,-1,exp1.png,1,exp1.png,exp2.png,1,3,reversed,correct,0.5003446044188096,1,valid_win,163.4433836999815,15,,,,,,,,,,,,,,,sub_401,2025-04-20_17h22.23.988,Reversal,2023.1.3,59.95811326420932,1,
5,exp3.png,exp4.png,,1,0,1,0,0,5,5,5,,,,,,,,,,,,,,,,,,,,,,,,,False,24,25,False,exp3.png,exp4.png,trial_left_image,1,exp3.png,1,exp3.png,exp4.png,1,1,non-reversed,correct,0.3669632286121335,1,valid_win,168.10821009986103,16,,,,,,,,,,,,,,,sub_401,2025-04-20_17h22.23.988,Reversal,2023.1.3,59.95811326420932,1,
6,exp1.png,exp2.png,,1,0,1,0,0,6,6,6,,,,,,,,,,,,,,,,,,,,,,,,,False,25,26,True,exp2.png,exp1.png,trial_right_image,-1,exp1.png,1,exp1.png,exp2.png,1,3,reversed,correct,0.5500822254357459,1,valid_win,172.44020319986157,17,,,,,,,,,,,,,,,sub_401,2025-04-20_17h22.23.988,Reversal,2023.1.3,59.95811326420932,1,
7,exp3.png,exp4.png,,1,0,1,0,0,7,7,7,,,,,,,,,,,,,,,,,,,,,,,,,False,26,27,True,exp4.png,exp3.png,trial_right_image,-1,exp3.png,1,exp3.png,exp4.png,1,1,non-reversed,correct,0.5869642645847424,1,valid_win,176.87167539983056,18,,,,,,,,,,,,,,,sub_401,2025-04-20_17h22.23.988,Reversal,2023.1.3,59.95811326420932,1,
8,exp1.png,exp2.png,,1,0,1,0,0,8,8,8,,,,,,,,,,,,,,,,,,,,,,,,,False,27,28,True,exp2.png,exp1.png,trial_right_image,-1,exp1.png,1,exp1.png,exp2.png,1,3,reversed,correct,0.6744566607894805,1,valid_win,181.30428249994293,19,,,,,,,,,,,,,,,sub_401,2025-04-20_17h22.23.988,Reversal,2023.1.3,59.95811326420932,1,
9,exp3.png,exp4.png,,1,0,1,0,0,9,9,9,,,,,,,,,,,,,,,,,,,,,,,,,False,28,29,True,exp4.png,exp3.png,trial_right_image,-1,exp3.png,1,exp3.png,exp4.png,1,1,non-reversed,correct,0.9750667136412798,1,valid_win,185.73593209986575,20,,,,,,,,,,,,,,,sub_401,2025-04-20_17h22.23.988,Reversal,2023.1.3,59.95811326420932,1,
10,exp1.png,exp2.png,,1,0,1,0,0,10,10,10,,,,,,,,,,,,,,,,,,,,,,,,,False,29,30,False,exp1.png,exp2.png,trial_left_image,1,exp1.png,1,exp1.png,exp2.png,1,3,reversed,correct,0.8892734785555082,1,valid_win,190.11737110000104,21,,,,,,,,,,,,,,,sub_401,2025-04-20_17h22.23.988,Reversal,2023.1.3,59.95811326420932,1,
11,exp3.png,exp4.png,,1,0,1,0,0,11,11,11,,,,,,,,,,,,,,,,,,,,,,,,,False,30,31,False,exp3.png,exp4.png,trial_left_image,1,exp3.png,1,exp3.png,exp4.png,1,1,non-reversed,correct,0.624163242312402,1,valid_win,194.33273050002754,22,,,,,,,,,,,,,,,sub_401,2025-04-20_17h22.23.988,Reversal,2023.1.3,59.95811326420932,1,
12,exp1.png,exp2.png,,1,0,1,0,0,12,12,12,,,,,,,,,,,,,,,,,,,,,,,,,False,31,32,True,exp2.png,exp1.png,trial_right_image,-1,exp1.png,1,exp1.png,exp2.png,1,3,reversed,correct,0.4177060103200957,1,valid_win,199.11465339991264,23,,,,,,,,,,,,,,,sub_401,2025-04-20_17h22.23.988,Reversal,2023.1.3,59.95811326420932,1,
13,exp3.png,exp4.png,,1,0,1,0,0,13,13,13,,,,,,,,,,,,,,,,,,,,,,,,,False,32,33,False,exp3.png,exp4.png,trial_left_image,1,exp3.png,1,exp3.png,exp4.png,1,1,non-reversed,correct,0.5812122204631356,1,valid_win,203.51281869993545,24,,,,,,,,,,,,,,,sub_401,2025-04-20_17h22.23.988,Reversal,2023.1.3,59.95811326420932,1,
14,exp1.png,exp2.png,,1,0,1,0,0,14,14,14,,,,,,,,,,,,,,,,,,,,,,,,,False,33,34,False,exp1.png,exp2.png,trial_left_image,1,exp1.png,1,exp1.png,exp2.png,1,3,reversed,correct,0.2858094273721571,1,valid_win,208.01136150001548,25,,,,,,,,,,,,,,,sub_401,2025-04-20_17h22.23.988,Reversal,2023.1.3,59.95811326420932,1,
15,exp3.png,exp4.png,,1,0,1,0,0,15,15,15,,,,,,,,,,,,,,,,,,,,,,,,,False,34,35,False,exp3.png,exp4.png,trial_left_image,1,exp3.png,1,exp3.png,exp4.png,1,1,non-reversed,correct,0.77631952592681,1,valid_win,212.27643679990433,26,,,,,,,,,,,,,,,sub_401,2025-04-20_17h22.23.988,Reversal,2023.1.3,59.95811326420932,1,
16,exp1.png,exp2.png,,1,0,1,0,0,16,16,16,,,,,,,,,,,,,,,,,,,,,,,,,False,35,36,False,exp1.png,exp2.png,trial_left_image,1,exp1.png,1,exp1.png,exp2.png,1,3,reversed,correct,0.4463494475898905,1,valid_win,216.50842610001564,27,,,,,,,,,,,,,,,sub_401,2025-04-20_17h22.23.988,Reversal,2023.1.3,59.95811326420932,1,
17,exp3.png,exp4.png,,1,0,1,0,0,17,17,17,,,,,,,,,,,,,,,,,,,,,,,,,False,36,37,True,exp4.png,exp3.png,trial_right_image,-1,exp3.png,1,exp3.png,exp4.png,1,1,non-reversed,correct,0.47780991221649505,1,valid_win,221.12309629982337,28,,,,,,,,,,,,,,,sub_401,2025-04-20_17h22.23.988,Reversal,2023.1.3,59.95811326420932,1,
18,exp1.png,exp2.png,,1,0,1,0,0,18,18,18,,,,,,,,,,,,,,,,,,,,,,,,,False,37,38,False,exp1.png,exp2.png,trial_left_image,1,exp1.png,1,exp1.png,exp2.png,1,3,reversed,correct,0.17258776995672187,0,invalid_lose,225.4885779998731,28,,,,,,,,,,,,,,,sub_401,2025-04-20_17h22.23.988,Reversal,2023.1.3,59.95811326420932,1,
19,exp3.png,exp4.png,,1,0,1,0,0,19,19,19,,,,,,,,,,,,,,,,,,,,,,,,,False,38,39,True,exp4.png,exp3.png,trial_right_image,-1,exp3.png,1,exp3.png,exp4.png,1,1,non-reversed,correct,0.35865619585922937,1,valid_win,229.65417819982395,29,,,,,,,,,,,,,,,sub_401,2025-04-20_17h22.23.988,Reversal,2023.1.3,59.95811326420932,1,
20,exp1.png,exp2.png,,1,0,1,0,0,20,20,20,,,,,,,,,,,,,,,,,,,,,,,,,False,39,40,False,exp1.png,exp2.png,trial_left_image,1,exp1.png,1,exp1.png,exp2.png,1,3,reversed,correct,0.44274249440243485,1,valid_win,234.11881370004267,30,,,,,,,,,,,,,,,sub_401,2025-04-20_17h22.23.988,Reversal,2023.1.3,59.95811326420932,1,
,,,exp1.png,1,0,1,0,,,,,0,0,0,0,0,0,0,0,,,,,,,,,,,,,,,,,,,,,,,,,,,,,,,,,,,,,,287.93868170003407,85.0,85.0,4.573061999864876,"[(85.0, 4.573061999864876)]",,,,,,,,,,sub_401,2025-04-20_17h22.23.988,Reversal,2023.1.3,59.95811326420932,1,
,,,exp2.png,1,0,1,0,,,,,0,0,0,0,0,1,1,1,,,,,,,,,,,,,,,,,,,,,,,,,,,,,,,,,,,,,,293.4965033000335,,25.0,2.5282427999190986,"[(25.0, 2.5282427999190986)]",25.0,,,,,,,,,sub_401,2025-04-20_17h22.23.988,Reversal,2023.1.3,59.95811326420932,1,
,,,exp3.png,1,0,1,0,,,,,0,0,0,0,0,2,2,2,,,,,,,,,,,,,,,,,,,,,,,,,,,,,,,,,,,,,,297.2949969000183,,81.0,2.078094699885696,"[(81.0, 2.078094699885696)]",,81.0,,,,,,,,sub_401,2025-04-20_17h22.23.988,Reversal,2023.1.3,59.95811326420932,1,
,,,exp4.png,1,0,1,0,,,,,0,0,0,0,0,3,3,3,,,,,,,,,,,,,,,,,,,,,,,,,,,,,,,,,,,,,,300.34457339998335,,24.0,2.0942420999053866,"[(24.0, 2.0942420999053866)]",,,24.0,,,,,,,sub_401,2025-04-20_17h22.23.988,Reversal,2023.1.3,59.95811326420932,1,
0,exp1.png,exp2.png,,2,0,2,0,0,0,0,0,,,,,,,,,,,,,,,,,,,,,,,,,True,,,,,,,,,,,,,,,,,,,,,,,,,,,,,,,,,,,sub_401,2025-04-20_17h22.23.988,Reversal,2023.1.3,59.95811326420932,1,
1,exp3.png,exp4.png,,2,0,2,0,0,1,1,1,,,,,,,,,,,,,,,,,,,,,,,,,False,40,41,True,exp4.png,exp3.png,trial_right_image,-1,exp3.png,1,exp3.png,exp4.png,1,1,non-reversed,correct,0.5583516874642855,1,valid_win,254.31261569983326,31,,,,,,,,,,,,,,,sub_401,2025-04-20_17h22.23.988,Reversal,2023.1.3,59.95811326420932,1,
2,exp1.png,exp2.png,,2,0,2,0,0,2,2,2,,,,,,,,,,,,,,,,,,,,,,,,,False,41,42,False,exp1.png,exp2.png,trial_left_image,1,exp1.png,1,exp1.png,exp2.png,1,3,reversed,correct,0.2327141498207821,0,invalid_lose,258.62752859992906,31,,,,,,,,,,,,,,,sub_401,2025-04-20_17h22.23.988,Reversal,2023.1.3,59.95811326420932,1,
3,exp3.png,exp4.png,,2,0,2,0,0,3,3,3,,,,,,,,,,,,,,,,,,,,,,,,,False,42,43,False,exp3.png,exp4.png,trial_left_image,1,exp3.png,1,exp3.png,exp4.png,1,1,non-reversed,correct,0.8501079128548158,1,valid_win,262.87567620002665,32,,,,,,,,,,,,,,,sub_401,2025-04-20_17h22.23.988,Reversal,2023.1.3,59.95811326420932,1,
4,exp1.png,exp2.png,,2,0,2,0,0,4,4,4,,,,,,,,,,,,,,,,,,,,,,,,,False,43,44,False,exp1.png,exp2.png,trial_left_image,1,exp1.png,1,exp1.png,exp2.png,1,3,reversed,correct,0.12189243236870806,0,invalid_lose,267.0581209999509,32,,,,,,,,,,,,,,,sub_401,2025-04-20_17h22.23.988,Reversal,2023.1.3,59.95811326420932,1,
5,exp3.png,exp4.png,,2,0,2,0,0,5,5,5,,,,,,,,,,,,,,,,,,,,,,,,,False,44,45,True,exp4.png,exp3.png,trial_right_image,-1,exp3.png,1,exp3.png,exp4.png,1,1,non-reversed,correct,0.049913253582741346,0,invalid_lose,271.28966699982993,32,,,,,,,,,,,,,,,sub_401,2025-04-20_17h22.23.988,Reversal,2023.1.3,59.95811326420932,1,
6,exp1.png,exp2.png,,2,0,2,0,0,6,6,6,,,,,,,,,,,,,,,,,,,,,,,,,False,45,46,True,exp2.png,exp1.png,trial_left_image,1,exp2.png,1,exp1.png,exp2.png,0,4,reversed,incorrect,0.8012635198655691,0,valid_lose,275.38954470003955,32,,,,,,,,,,,,,,,sub_401,2025-04-20_17h22.23.988,Reversal,2023.1.3,59.95811326420932,1,
7,exp3.png,exp4.png,,2,0,2,0,0,7,7,7,,,,,,,,,,,,,,,,,,,,,,,,,False,46,47,True,exp4.png,exp3.png,trial_right_image,-1,exp3.png,1,exp3.png,exp4.png,1,1,non-reversed,correct,0.197748716407661,0,invalid_lose,279.65459559997544,32,,,,,,,,,,,,,,,sub_401,2025-04-20_17h22.23.988,Reversal,2023.1.3,59.95811326420932,1,
8,exp1.png,exp2.png,,2,0,2,0,0,8,8,8,,,,,,,,,,,,,,,,,,,,,,,,,False,47,48,True,exp2.png,exp1.png,trial_right_image,-1,exp1.png,1,exp1.png,exp2.png,1,3,reversed,correct,0.7817085948714465,1,valid_win,284.28580339998007,33,,,,,,,,,,,,,,,sub_401,2025-04-20_17h22.23.988,Reversal,2023.1.3,59.95811326420932,1,
9,exp3.png,exp4.png,,2,0,2,0,0,9,9,9,,,,,,,,,,,,,,,,,,,,,,,,,False,48,49,False,exp3.png,exp4.png,trial_left_image,1,exp3.png,1,exp3.png,exp4.png,1,1,non-reversed,correct,0.39187373035966155,1,valid_win,288.6170937998686,34,,,,,,,,,,,,,,,sub_401,2025-04-20_17h22.23.988,Reversal,2023.1.3,59.95811326420932,1,
10,exp1.png,exp2.png,,2,0,2,0,0,10,10,10,,,,,,,,,,,,,,,,,,,,,,,,,False,49,50,True,exp2.png,exp1.png,trial_right_image,-1,exp1.png,1,exp1.png,exp2.png,1,3,reversed,correct,0.1844379116083209,0,invalid_lose,292.91530380002223,34,,,,,,,,,,,,,,,sub_401,2025-04-20_17h22.23.988,Reversal,2023.1.3,59.95811326420932,1,
11,exp3.png,exp4.png,,2,0,2,0,0,11,11,11,,,,,,,,,,,,,,,,,,,,,,,,,False,50,51,False,exp3.png,exp4.png,trial_right_image,-1,exp4.png,1,exp3.png,exp4.png,0,2,non-reversed,incorrect,0.8840870258362882,0,valid_lose,297.13107239990495,34,,,,,,,,,,,,,,,sub_401,2025-04-20_17h22.23.988,Reversal,2023.1.3,59.95811326420932,1,
12,exp1.png,exp2.png,,2,0,2,0,0,12,12,12,,,,,,,,,,,,,,,,,,,,,,,,,False,51,52,True,exp2.png,exp1.png,trial_right_image,-1,exp1.png,1,exp1.png,exp2.png,1,3,reversed,correct,0.005804294820969447,0,invalid_lose,301.4795148000121,34,,,,,,,,,,,,,,,sub_401,2025-04-20_17h22.23.988,Reversal,2023.1.3,59.95811326420932,1,
13,exp3.png,exp4.png,,2,0,2,0,0,13,13,13,,,,,,,,,,,,,,,,,,,,,,,,,False,52,53,False,exp3.png,exp4.png,trial_left_image,1,exp3.png,1,exp3.png,exp4.png,1,1,non-reversed,correct,0.520531468873983,1,valid_win,305.5945871998556,35,,,,,,,,,,,,,,,sub_401,2025-04-20_17h22.23.988,Reversal,2023.1.3,59.95811326420932,1,
14,exp1.png,exp2.png,,2,0,2,0,0,14,14,14,,,,,,,,,,,,,,,,,,,,,,,,,False,53,54,False,exp1.png,exp2.png,trial_left_image,1,exp1.png,1,exp1.png,exp2.png,1,3,reversed,correct,0.5186783061732102,1,valid_win,309.89394459989853,36,,,,,,,,,,,,,,,sub_401,2025-04-20_17h22.23.988,Reversal,2023.1.3,59.95811326420932,1,
15,exp3.png,exp4.png,,2,0,2,0,0,15,15,15,,,,,,,,,,,,,,,,,,,,,,,,,False,54,55,False,exp3.png,exp4.png,trial_left_image,1,exp3.png,1,exp3.png,exp4.png,1,1,non-reversed,correct,0.16582832486604515,0,invalid_lose,314.09197889990173,36,,,,,,,,,,,,,,,sub_401,2025-04-20_17h22.23.988,Reversal,2023.1.3,59.95811326420932,1,
16,exp1.png,exp2.png,,2,0,2,0,0,16,16,16,,,,,,,,,,,,,,,,,,,,,,,,,False,55,56,False,exp1.png,exp2.png,trial_left_image,1,exp1.png,1,exp1.png,exp2.png,1,3,reversed,correct,0.629243926160693,1,valid_win,318.3406257999595,37,,,,,,,,,,,,,,,sub_401,2025-04-20_17h22.23.988,Reversal,2023.1.3,59.95811326420932,1,
17,exp3.png,exp4.png,,2,0,2,0,0,17,17,17,,,,,,,,,,,,,,,,,,,,,,,,,False,56,57,False,exp3.png,exp4.png,trial_left_image,1,exp3.png,1,exp3.png,exp4.png,1,1,non-reversed,correct,0.05477654466688031,0,invalid_lose,322.6059097999241,37,,,,,,,,,,,,,,,sub_401,2025-04-20_17h22.23.988,Reversal,2023.1.3,59.95811326420932,1,
18,exp1.png,exp2.png,,2,0,2,0,0,18,18,18,,,,,,,,,,,,,,,,,,,,,,,,,False,57,58,True,exp2.png,exp1.png,trial_right_image,-1,exp1.png,1,exp1.png,exp2.png,1,3,reversed,correct,0.7393889608162098,1,valid_win,326.92185809998773,38,,,,,,,,,,,,,,,sub_401,2025-04-20_17h22.23.988,Reversal,2023.1.3,59.95811326420932,1,
19,exp3.png,exp4.png,,2,0,2,0,0,19,19,19,,,,,,,,,,,,,,,,,,,,,,,,,False,58,59,True,exp4.png,exp3.png,trial_right_image,-1,exp3.png,1,exp3.png,exp4.png,1,1,non-reversed,correct,0.3532832936147168,1,valid_win,331.2363257999532,39,,,,,,,,,,,,,,,sub_401,2025-04-20_17h22.23.988,Reversal,2023.1.3,59.95811326420932,1,
20,exp1.png,exp2.png,,2,0,2,0,0,20,20,20,,,,,,,,,,,,,,,,,,,,,,,,,False,59,60,True,exp2.png,exp1.png,trial_right_image,-1,exp1.png,1,exp1.png,exp2.png,1,3,reversed,correct,0.3598993251513939,1,valid_win,335.7511584998574,40,,,,,,,,,,,,,,,sub_401,2025-04-20_17h22.23.988,Reversal,2023.1.3,59.95811326420932,1,
,,,exp1.png,2,0,2,0,,,,,0,0,0,0,0,0,0,0,,,,,,,,,,,,,,,,,,,,,,,,,,,,,,,,,,,,,,389.5886426998768,88.0,88.0,4.089395000133663,"[(88.0, 4.089395000133663)]",,,,,,,,,,sub_401,2025-04-20_17h22.23.988,Reversal,2023.1.3,59.95811326420932,1,
,,,exp2.png,2,0,2,0,,,,,0,0,0,0,0,1,1,1,,,,,,,,,,,,,,,,,,,,,,,,,,,,,,,,,,,,,,394.6127744000405,,10.0,2.895516199991107,"[(10.0, 2.895516199991107)]",10.0,,,,,,,,,sub_401,2025-04-20_17h22.23.988,Reversal,2023.1.3,59.95811326420932,1,
,,,exp3.png,2,0,2,0,,,,,0,0,0,0,0,2,2,2,,,,,,,,,,,,,,,,,,,,,,,,,,,,,,,,,,,,,,398.59527219994925,,90.0,2.127187200123444,"[(90.0, 2.127187200123444)]",,90.0,,,,,,,,sub_401,2025-04-20_17h22.23.988,Reversal,2023.1.3,59.95811326420932,1,
,,,exp4.png,2,0,2,0,,,,,0,0,0,0,0,3,3,3,,,,,,,,,,,,,,,,,,,,,,,,,,,,,,,,,,,,,,401.6774758999236,,10.0,2.727421500021592,"[(10.0, 2.727421500021592)]",,,10.0,,,,,,,sub_401,2025-04-20_17h22.23.988,Reversal,2023.1.3,59.95811326420932,1,
0,exp1.png,exp2.png,,,,,,,,,,,,,,,,,,0,0,0,0,0,0,0,0,,,,,,,,,True,,,,,,,,,,,,,,,,,,,,,,,,,,,,,,,,,,,sub_401,2025-04-20_17h22.23.988,Reversal,2023.1.3,59.95811326420932,1,
1,exp3.png,exp4.png,,,,,,,,,,,,,,,,,,0,0,0,0,0,1,1,1,,,,,,,,,False,0,61,False,exp3.png,exp4.png,trial_left_image,1,exp3.png,1,exp3.png,exp4.png,1,1,non-reversed,correct,0.6753313229017173,1,valid_win,356.11193359992467,41,,,,,,,,,354.2048253000248,,,,,,sub_401,2025-04-20_17h22.23.988,Reversal,2023.1.3,59.95811326420932,1,
2,exp1.png,exp2.png,,,,,,,,,,,,,,,,,,0,0,0,0,0,2,2,2,,,,,,,,,False,1,62,True,exp2.png,exp1.png,trial_right_image,-1,exp1.png,1,exp2.png,exp1.png,1,3,reversed,incorrect,0.9081764970718545,0,valid_lose,360.3600329000037,41,,,,,,,,,,,,,,,sub_401,2025-04-20_17h22.23.988,Reversal,2023.1.3,59.95811326420932,1,
3,exp3.png,exp4.png,,,,,,,,,,,,,,,,,,0,0,0,0,0,3,3,3,,,,,,,,,False,2,63,False,exp3.png,exp4.png,trial_left_image,1,exp3.png,1,exp3.png,exp4.png,1,1,non-reversed,correct,0.8187868991266021,1,valid_win,364.64120229985565,42,,,,,,,,,,,,,,,sub_401,2025-04-20_17h22.23.988,Reversal,2023.1.3,59.95811326420932,1,
4,exp1.png,exp2.png,,,,,,,,,,,,,,,,,,0,0,0,0,0,4,4,4,,,,,,,,,False,3,64,True,exp2.png,exp1.png,trial_right_image,-1,exp1.png,1,exp2.png,exp1.png,1,3,reversed,incorrect,0.4870485532589435,0,valid_lose,368.92316520004533,42,,,,,,,,,,,,,,,sub_401,2025-04-20_17h22.23.988,Reversal,2023.1.3,59.95811326420932,1,
5,exp3.png,exp4.png,,,,,,,,,,,,,,,,,,0,0,0,0,0,5,5,5,,,,,,,,,False,4,65,False,exp3.png,exp4.png,trial_left_image,1,exp3.png,1,exp3.png,exp4.png,1,1,non-reversed,correct,0.09384716612676525,0,invalid_lose,373.1558101999108,42,,,,,,,,,,,,,,,sub_401,2025-04-20_17h22.23.988,Reversal,2023.1.3,59.95811326420932,1,
6,exp1.png,exp2.png,,,,,,,,,,,,,,,,,,0,0,0,0,0,6,6,6,,,,,,,,,False,5,66,False,exp1.png,exp2.png,trial_left_image,1,exp1.png,1,exp2.png,exp1.png,1,3,reversed,incorrect,0.5261860649195839,0,valid_lose,377.3208115999587,42,,,,,,,,,,,,,,,sub_401,2025-04-20_17h22.23.988,Reversal,2023.1.3,59.95811326420932,1,
7,exp3.png,exp4.png,,,,,,,,,,,,,,,,,,0,0,0,0,0,7,7,7,,,,,,,,,False,6,67,True,exp4.png,exp3.png,trial_right_image,-1,exp3.png,1,exp3.png,exp4.png,1,1,non-reversed,correct,0.86689058549389,1,valid_win,381.5187352998182,43,,,,,,,,,,,,,,,sub_401,2025-04-20_17h22.23.988,Reversal,2023.1.3,59.95811326420932,1,
8,exp1.png,exp2.png,,,,,,,,,,,,,,,,,,0,0,0,0,0,8,8,8,,,,,,,,,False,7,68,True,exp2.png,exp1.png,trial_left_image,1,exp2.png,1,exp2.png,exp1.png,0,4,reversed,correct,0.3296920190280348,1,valid_win,385.56819669995457,44,,,,,,,,,,,,,,,sub_401,2025-04-20_17h22.23.988,Reversal,2023.1.3,59.95811326420932,1,
9,exp3.png,exp4.png,,,,,,,,,,,,,,,,,,0,0,0,0,0,9,9,9,,,,,,,,,False,8,69,False,exp3.png,exp4.png,trial_left_image,1,exp3.png,1,exp3.png,exp4.png,1,1,non-reversed,correct,0.15239107800820995,0,invalid_lose,389.7843507998623,44,,,,,,,,,,,,,,,sub_401,2025-04-20_17h22.23.988,Reversal,2023.1.3,59.95811326420932,1,
10,exp1.png,exp2.png,,,,,,,,,,,,,,,,,,0,0,0,0,0,10,10,10,,,,,,,,,False,9,70,False,exp1.png,exp2.png,trial_right_image,-1,exp2.png,1,exp2.png,exp1.png,0,4,reversed,correct,0.8139159208306556,1,valid_win,393.8646785998717,45,,,,,,,,,,,,,,,sub_401,2025-04-20_17h22.23.988,Reversal,2023.1.3,59.95811326420932,1,
11,exp3.png,exp4.png,,,,,,,,,,,,,,,,,,0,0,0,0,0,11,11,11,,,,,,,,,False,10,71,True,exp4.png,exp3.png,trial_left_image,1,exp4.png,1,exp3.png,exp4.png,0,2,non-reversed,incorrect,0.8787530812965132,0,valid_lose,398.01324329990894,45,,,,,,,,,,,,,,,sub_401,2025-04-20_17h22.23.988,Reversal,2023.1.3,59.95811326420932,1,
12,exp1.png,exp2.png,,,,,,,,,,,,,,,,,,0,0,0,0,0,12,12,12,,,,,,,,,False,11,72,True,exp2.png,exp1.png,trial_right_image,-1,exp1.png,1,exp2.png,exp1.png,1,3,reversed,incorrect,0.9936130607153248,0,valid_lose,402.3453625999391,45,,,,,,,,,,,,,,,sub_401,2025-04-20_17h22.23.988,Reversal,2023.1.3,59.95811326420932,1,
13,exp3.png,exp4.png,,,,,,,,,,,,,,,,,,0,0,0,0,0,13,13,13,,,,,,,,,False,12,73,True,exp4.png,exp3.png,trial_left_image,1,exp4.png,1,exp3.png,exp4.png,0,2,non-reversed,incorrect,0.05992431479963578,1,invalid_win,406.8942030998878,46,,,,,,,,,,,,,,,sub_401,2025-04-20_17h22.23.988,Reversal,2023.1.3,59.95811326420932,1,
14,exp1.png,exp2.png,,,,,,,,,,,,,,,,,,0,0,0,0,0,14,14,14,,,,,,,,,False,13,74,True,exp2.png,exp1.png,trial_left_image,1,exp2.png,1,exp2.png,exp1.png,0,4,reversed,correct,0.209093959266616,0,invalid_lose,411.3264343999326,46,,,,,,,,,,,,,,,sub_401,2025-04-20_17h22.23.988,Reversal,2023.1.3,59.95811326420932,1,
15,exp3.png,exp4.png,,,,,,,,,,,,,,,,,,0,0,0,0,0,15,15,15,,,,,,,,,False,14,75,True,exp4.png,exp3.png,trial_right_image,-1,exp3.png,1,exp3.png,exp4.png,1,1,non-reversed,correct,0.9955037339338175,1,valid_win,415.5082217999734,47,,,,,,,,,,,,,,,sub_401,2025-04-20_17h22.23.988,Reversal,2023.1.3,59.95811326420932,1,
16,exp1.png,exp2.png,,,,,,,,,,,,,,,,,,0,0,0,0,0,16,16,16,,,,,,,,,False,15,76,False,exp1.png,exp2.png,trial_right_image,-1,exp2.png,1,exp2.png,exp1.png,0,4,reversed,correct,0.17895821045878058,0,invalid_lose,419.7225069999695,47,,,,,,,,,,,,,,,sub_401,2025-04-20_17h22.23.988,Reversal,2023.1.3,59.95811326420932,1,
17,exp3.png,exp4.png,,,,,,,,,,,,,,,,,,0,0,0,0,0,17,17,17,,,,,,,,,False,16,77,False,exp3.png,exp4.png,trial_right_image,-1,exp4.png,1,exp3.png,exp4.png,0,2,non-reversed,incorrect,0.6365716535478474,0,valid_lose,423.9210506998934,47,,,,,,,,,,,,,,,sub_401,2025-04-20_17h22.23.988,Reversal,2023.1.3,59.95811326420932,1,
18,exp1.png,exp2.png,,,,,,,,,,,,,,,,,,0,0,0,0,0,18,18,18,,,,,,,,,False,17,78,False,exp1.png,exp2.png,trial_left_image,1,exp1.png,1,exp2.png,exp1.png,1,3,reversed,incorrect,0.5574993287726623,0,valid_lose,428.2695273999125,47,,,,,,,,,,,,,,,sub_401,2025-04-20_17h22.23.988,Reversal,2023.1.3,59.95811326420932,1,
19,exp3.png,exp4.png,,,,,,,,,,,,,,,,,,0,0,0,0,0,19,19,19,,,,,,,,,False,18,79,True,exp4.png,exp3.png,trial_right_image,-1,exp3.png,1,exp3.png,exp4.png,1,1,non-reversed,correct,0.1622951027038253,0,invalid_lose,432.4023094999138,47,,,,,,,,,,,,,,,sub_401,2025-04-20_17h22.23.988,Reversal,2023.1.3,59.95811326420932,1,
20,exp1.png,exp2.png,,,,,,,,,,,,,,,,,,0,0,0,0,0,20,20,20,,,,,,,,,False,19,80,False,exp1.png,exp2.png,trial_right_image,-1,exp2.png,1,exp2.png,exp1.png,0,4,reversed,correct,0.061057940883462725,0,invalid_lose,436.7834673000034,47,,,,,,,,,,,,,,,sub_401,2025-04-20_17h22.23.988,Reversal,2023.1.3,59.95811326420932,1,
,,,exp1.png,,,,,,,,,,,,,,,,,0,0,0,0,,,,,0,0,0,0,0,0,0,0,,,,,,,,,,,,,,,,,,,,,,490.61620629997924,99.0,99.0,3.2788437998387963,"[(99.0, 3.2788437998387963)]",,,,,,,,,,sub_401,2025-04-20_17h22.23.988,Reversal,2023.1.3,59.95811326420932,1,
,,,exp2.png,,,,,,,,,,,,,,,,,0,0,0,0,,,,,0,0,0,0,0,1,1,1,,,,,,,,,,,,,,,,,,,,,,495.1321053998545,,1.0,2.394625100074336,"[(1.0, 2.394625100074336)]",1.0,,,,,,,,,sub_401,2025-04-20_17h22.23.988,Reversal,2023.1.3,59.95811326420932,1,
,,,exp3.png,,,,,,,,,,,,,,,,,0,0,0,0,,,,,0,0,0,0,0,2,2,2,,,,,,,,,,,,,,,,,,,,,,498.74559250008315,,100.0,1.0258887000381947,"[(100.0, 1.0258887000381947)]",,100.0,,,,,,,,sub_401,2025-04-20_17h22.23.988,Reversal,2023.1.3,59.95811326420932,1,
,,,exp4.png,,,,,,,,,,,,,,,,,0,0,0,0,,,,,0,0,0,0,0,3,3,3,,,,,,,,,,,,,,,,,,,,,,500.8103485999163,,1.0,1.5973214998375624,"[(1.0, 1.5973214998375624)]",,,1.0,,,,,,,sub_401,2025-04-20_17h22.23.988,Reversal,2023.1.3,59.95811326420932,1,
0,exp1.png,exp2.png,,,,,,,,,,,,,,,,,,1,0,1,0,0,0,0,0,,,,,,,,,True,,,,,,,,,,,,,,,,,,,,,,,,,,,,,,,,,,,sub_401,2025-04-20_17h22.23.988,Reversal,2023.1.3,59.95811326420932,1,
1,exp3.png,exp4.png,,,,,,,,,,,,,,,,,,1,0,1,0,0,1,1,1,,,,,,,,,False,20,81,False,exp3.png,exp4.png,trial_left_image,1,exp3.png,1,exp3.png,exp4.png,1,1,non-reversed,correct,0.6591420388126831,1,valid_win,454.19384490000084,48,,,,,,,,,,,,,,,sub_401,2025-04-20_17h22.23.988,Reversal,2023.1.3,59.95811326420932,1,
2,exp1.png,exp2.png,,,,,,,,,,,,,,,,,,1,0,1,0,0,2,2,2,,,,,,,,,False,21,82,False,exp1.png,exp2.png,trial_left_image,1,exp1.png,1,exp2.png,exp1.png,1,3,reversed,incorrect,0.9504234069670381,0,valid_lose,458.67632810003124,48,,,,,,,,,,,,,,,sub_401,2025-04-20_17h22.23.988,Reversal,2023.1.3,59.95811326420932,1,
3,exp3.png,exp4.png,,,,,,,,,,,,,,,,,,1,0,1,0,0,3,3,3,,,,,,,,,False,22,83,False,exp3.png,exp4.png,trial_right_image,-1,exp4.png,1,exp3.png,exp4.png,0,2,non-reversed,incorrect,0.6741366195963882,0,valid_lose,462.8431998998858,48,,,,,,,,,,,,,,,sub_401,2025-04-20_17h22.23.988,Reversal,2023.1.3,59.95811326420932,1,
4,exp1.png,exp2.png,,,,,,,,,,,,,,,,,,1,0,1,0,0,4,4,4,,,,,,,,,False,23,84,True,exp2.png,exp1.png,trial_left_image,1,exp2.png,1,exp2.png,exp1.png,0,4,reversed,correct,0.42734322665639957,1,valid_win,466.9066963000223,49,,,,,,,,,,,,,,,sub_401,2025-04-20_17h22.23.988,Reversal,2023.1.3,59.95811326420932,1,
5,exp3.png,exp4.png,,,,,,,,,,,,,,,,,,1,0,1,0,0,5,5,5,,,,,,,,,False,24,85,True,exp4.png,exp3.png,trial_right_image,-1,exp3.png,1,exp3.png,exp4.png,1,1,non-reversed,correct,0.21775063907738013,0,invalid_lose,471.03857910004444,49,,,,,,,,,,,,,,,sub_401,2025-04-20_17h22.23.988,Reversal,2023.1.3,59.95811326420932,1,
6,exp1.png,exp2.png,,,,,,,,,,,,,,,,,,1,0,1,0,0,6,6,6,,,,,,,,,False,25,86,True,exp2.png,exp1.png,trial_right_image,-1,exp1.png,1,exp2.png,exp1.png,1,3,reversed,incorrect,0.47522886449543367,0,valid_lose,474.9038692000322,49,,,,,,,,,,,,,,,sub_401,2025-04-20_17h22.23.988,Reversal,2023.1.3,59.95811326420932,1,
7,exp3.png,exp4.png,,,,,,,,,,,,,,,,,,1,0,1,0,0,7,7,7,,,,,,,,,False,26,87,False,exp3.png,exp4.png,trial_left_image,1,exp3.png,1,exp3.png,exp4.png,1,1,non-reversed,correct,0.11785544325221675,0,invalid_lose,478.90230969991535,49,,,,,,,,,,,,,,,sub_401,2025-04-20_17h22.23.988,Reversal,2023.1.3,59.95811326420932,1,
8,exp1.png,exp2.png,,,,,,,,,,,,,,,,,,1,0,1,0,0,8,8,8,,,,,,,,,False,27,88,False,exp1.png,exp2.png,trial_left_image,1,exp1.png,1,exp2.png,exp1.png,1,3,reversed,incorrect,0.09551365842244319,1,invalid_win,482.9516567999963,50,,,,,,,,,,,,,,,sub_401,2025-04-20_17h22.23.988,Reversal,2023.1.3,59.95811326420932,1,
9,exp3.png,exp4.png,,,,,,,,,,,,,,,,,,1,0,1,0,0,9,9,9,,,,,,,,,False,28,89,True,exp4.png,exp3.png,trial_left_image,1,exp4.png,1,exp3.png,exp4.png,0,2,non-reversed,incorrect,0.07782086414495915,1,invalid_win,486.9666467998177,51,,,,,,,,,,,,,,,sub_401,2025-04-20_17h22.23.988,Reversal,2023.1.3,59.95811326420932,1,
10,exp1.png,exp2.png,,,,,,,,,,,,,,,,,,1,0,1,0,0,10,10,10,,,,,,,,,False,29,90,True,exp2.png,exp1.png,trial_left_image,1,exp2.png,1,exp2.png,exp1.png,0,4,reversed,correct,0.317411518083483,1,valid_win,491.01562900003046,52,,,,,,,,,,,,,,,sub_401,2025-04-20_17h22.23.988,Reversal,2023.1.3,59.95811326420932,1,
11,exp3.png,exp4.png,,,,,,,,,,,,,,,,,,1,0,1,0,0,11,11,11,,,,,,,,,False,30,91,False,exp3.png,exp4.png,trial_left_image,1,exp3.png,1,exp3.png,exp4.png,1,1,non-reversed,correct,0.6659332344157018,1,valid_win,495.1304949000478,53,,,,,,,,,,,,,,,sub_401,2025-04-20_17h22.23.988,Reversal,2023.1.3,59.95811326420932,1,
12,exp1.png,exp2.png,,,,,,,,,,,,,,,,,,1,0,1,0,0,12,12,12,,,,,,,,,False,31,92,True,exp2.png,exp1.png,trial_left_image,1,exp2.png,1,exp2.png,exp1.png,0,4,reversed,correct,0.13732556820220088,0,invalid_lose,499.1455241998192,53,,,,,,,,,,,,,,,sub_401,2025-04-20_17h22.23.988,Reversal,2023.1.3,59.95811326420932,1,
13,exp3.png,exp4.png,,,,,,,,,,,,,,,,,,1,0,1,0,0,13,13,13,,,,,,,,,False,32,93,True,exp4.png,exp3.png,trial_left_image,1,exp4.png,1,exp3.png,exp4.png,0,2,non-reversed,incorrect,0.4611258245635883,0,valid_lose,503.2610643999651,53,,,,,,,,,,,,,,,sub_401,2025-04-20_17h22.23.988,Reversal,2023.1.3,59.95811326420932,1,
14,exp1.png,exp2.png,,,,,,,,,,,,,,,,,,1,0,1,0,0,14,14,14,,,,,,,,,False,33,94,True,exp2.png,exp1.png,trial_right_image,-1,exp1.png,1,exp2.png,exp1.png,1,3,reversed,incorrect,0.08747092396075884,1,invalid_win,507.17661369987763,54,,,,,,,,,,,,,,,sub_401,2025-04-20_17h22.23.988,Reversal,2023.1.3,59.95811326420932,1,
15,exp3.png,exp4.png,,,,,,,,,,,,,,,,,,1,0,1,0,0,15,15,15,,,,,,,,,False,34,95,False,exp3.png,exp4.png,trial_right_image,-1,exp4.png,1,exp3.png,exp4.png,0,2,non-reversed,incorrect,0.9898279023299715,0,valid_lose,511.3917304999195,54,,,,,,,,,,,,,,,sub_401,2025-04-20_17h22.23.988,Reversal,2023.1.3,59.95811326420932,1,
16,exp1.png,exp2.png,,,,,,,,,,,,,,,,,,1,0,1,0,0,16,16,16,,,,,,,,,False,35,96,True,exp2.png,exp1.png,trial_left_image,1,exp2.png,1,exp2.png,exp1.png,0,4,reversed,correct,0.5886408497551592,1,valid_win,515.5398889000062,55,,,,,,,,,,,,,,,sub_401,2025-04-20_17h22.23.988,Reversal,2023.1.3,59.95811326420932,1,
17,exp3.png,exp4.png,,,,,,,,,,,,,,,,,,1,0,1,0,0,17,17,17,,,,,,,,,False,36,97,False,exp3.png,exp4.png,trial_left_image,1,exp3.png,1,exp3.png,exp4.png,1,1,non-reversed,correct,0.6148946843526748,1,valid_win,519.5056995998602,56,,,,,,,,,,,,,,,sub_401,2025-04-20_17h22.23.988,Reversal,2023.1.3,59.95811326420932,1,
18,exp1.png,exp2.png,,,,,,,,,,,,,,,,,,1,0,1,0,0,18,18,18,,,,,,,,,False,37,98,True,exp2.png,exp1.png,trial_right_image,-1,exp1.png,1,exp2.png,exp1.png,1,3,reversed,incorrect,0.35558023088739366,0,valid_lose,523.6714788998943,56,,,,,,,,,,,,,,,sub_401,2025-04-20_17h22.23.988,Reversal,2023.1.3,59.95811326420932,1,
19,exp3.png,exp4.png,,,,,,,,,,,,,,,,,,1,0,1,0,0,19,19,19,,,,,,,,,False,38,99,False,exp3.png,exp4.png,trial_right_image,-1,exp4.png,1,exp3.png,exp4.png,0,2,non-reversed,incorrect,0.275777247967689,0,valid_lose,527.7533529000357,56,,,,,,,,,,,,,,,sub_401,2025-04-20_17h22.23.988,Reversal,2023.1.3,59.95811326420932,1,
20,exp1.png,exp2.png,,,,,,,,,,,,,,,,,,1,0,1,0,0,20,20,20,,,,,,,,,False,39,100,False,exp1.png,exp2.png,trial_left_image,1,exp1.png,1,exp2.png,exp1.png,1,3,reversed,incorrect,0.40698284473376034,0,valid_lose,531.8676565999631,56,,,,,,,,,,,,,,,sub_401,2025-04-20_17h22.23.988,Reversal,2023.1.3,59.95811326420932,1,
,,,exp1.png,,,,,,,,,,,,,,,,,1,0,1,0,,,,,0,0,0,0,0,0,0,0,,,,,,,,,,,,,,,,,,,,,,585.7014675000682,100.0,100.0,1.9263810000848025,"[(100.0, 1.9263810000848025)]",,,,,,,,,,sub_401,2025-04-20_17h22.23.988,Reversal,2023.1.3,59.95811326420932,1,
,,,exp2.png,,,,,,,,,,,,,,,,,1,0,1,0,,,,,0,0,0,0,0,1,1,1,,,,,,,,,,,,,,,,,,,,,,588.6654795000795,,1.0,1.6102748000994325,"[(1.0, 1.6102748000994325)]",1.0,,,,,,,,,sub_401,2025-04-20_17h22.23.988,Reversal,2023.1.3,59.95811326420932,1,
,,,exp3.png,,,,,,,,,,,,,,,,,1,0,1,0,,,,,0,0,0,0,0,2,2,2,,,,,,,,,,,,,,,,,,,,,,591.3982186999638,,None,None,[],,,,,,,,,,sub_401,2025-04-20_17h22.23.988,Reversal,2023.1.3,59.95811326420932,1,
,,,exp4.png,,,,,,,,,,,,,,,,,1,0,1,0,,,,,0,0,0,0,0,3,3,3,,,,,,,,,,,,,,,,,,,,,,592.414110200014,,None,None,[],,,,,,,,,,sub_401,2025-04-20_17h22.23.988,Reversal,2023.1.3,59.95811326420932,1,
0,exp1.png,exp2.png,,,,,,,,,,,,,,,,,,2,0,2,0,0,0,0,0,,,,,,,,,True,,,,,,,,,,,,,,,,,,,,,,,,,,,,,,,,,,,sub_401,2025-04-20_17h22.23.988,Reversal,2023.1.3,59.95811326420932,1,
1,exp3.png,exp4.png,,,,,,,,,,,,,,,,,,2,0,2,0,0,1,1,1,,,,,,,,,False,40,101,True,exp4.png,exp3.png,trial_right_image,-1,exp3.png,1,exp3.png,exp4.png,1,1,non-reversed,correct,0.060122696403879905,0,invalid_lose,544.3467969999183,56,,,,,,,,,,,,,,,sub_401,2025-04-20_17h22.23.988,Reversal,2023.1.3,59.95811326420932,1,
2,exp1.png,exp2.png,,,,,,,,,,,,,,,,,,2,0,2,0,0,2,2,2,,,,,,,,,False,41,102,False,exp1.png,exp2.png,trial_left_image,1,exp1.png,1,exp2.png,exp1.png,1,3,reversed,incorrect,0.21399096471822676,1,invalid_win,548.4787027998827,57,,,,,,,,,,,,,,,sub_401,2025-04-20_17h22.23.988,Reversal,2023.1.3,59.95811326420932,1,
3,exp3.png,exp4.png,,,,,,,,,,,,,,,,,,2,0,2,0,0,3,3,3,,,,,,,,,False,42,103,False,exp3.png,exp4.png,trial_left_image,1,exp3.png,1,exp3.png,exp4.png,1,1,non-reversed,correct,0.2791904004336876,1,valid_win,552.7779945000075,58,,,,,,,,,,,,,,,sub_401,2025-04-20_17h22.23.988,Reversal,2023.1.3,59.95811326420932,1,
4,exp1.png,exp2.png,,,,,,,,,,,,,,,,,,2,0,2,0,0,4,4,4,,,,,,,,,False,43,104,False,exp1.png,exp2.png,trial_right_image,-1,exp2.png,1,exp2.png,exp1.png,0,4,reversed,correct,0.15483293059714365,0,invalid_lose,557.2593767999206,58,,,,,,,,,,,,,,,sub_401,2025-04-20_17h22.23.988,Reversal,2023.1.3,59.95811326420932,1,
5,exp3.png,exp4.png,,,,,,,,,,,,,,,,,,2,0,2,0,0,5,5,5,,,,,,,,,False,44,105,True,exp4.png,exp3.png,trial_right_image,-1,exp3.png,1,exp3.png,exp4.png,1,1,non-reversed,correct,0.8409245303981361,1,valid_win,561.7085831000004,59,,,,,,,,,,,,,,,sub_401,2025-04-20_17h22.23.988,Reversal,2023.1.3,59.95811326420932,1,
6,exp1.png,exp2.png,,,,,,,,,,,,,,,,,,2,0,2,0,0,6,6,6,,,,,,,,,False,45,106,True,exp2.png,exp1.png,trial_left_image,1,exp2.png,1,exp2.png,exp1.png,0,4,reversed,correct,0.2901662371115479,1,valid_win,565.9058779999614,60,,,,,,,,,,,,,,,sub_401,2025-04-20_17h22.23.988,Reversal,2023.1.3,59.95811326420932,1,
7,exp3.png,exp4.png,,,,,,,,,,,,,,,,,,2,0,2,0,0,7,7,7,,,,,,,,,False,46,107,True,exp4.png,exp3.png,trial_right_image,-1,exp3.png,1,exp3.png,exp4.png,1,1,non-reversed,correct,0.1875801489560549,0,invalid_lose,570.1551210999023,60,,,,,,,,,,,,,,,sub_401,2025-04-20_17h22.23.988,Reversal,2023.1.3,59.95811326420932,1,
8,exp1.png,exp2.png,,,,,,,,,,,,,,,,,,2,0,2,0,0,8,8,8,,,,,,,,,False,47,108,True,exp2.png,exp1.png,trial_left_image,1,exp2.png,1,exp2.png,exp1.png,0,4,reversed,correct,0.9211012307735419,1,valid_win,574.2697864999063,61,,,,,,,,,,,,,,,sub_401,2025-04-20_17h22.23.988,Reversal,2023.1.3,59.95811326420932,1,
9,exp3.png,exp4.png,,,,,,,,,,,,,,,,,,2,0,2,0,0,9,9,9,,,,,,,,,False,48,109,False,exp3.png,exp4.png,trial_right_image,-1,exp4.png,1,exp3.png,exp4.png,0,2,non-reversed,incorrect,0.1196198764390457,1,invalid_win,578.5521404000465,62,,,,,,,,,,,,,,,sub_401,2025-04-20_17h22.23.988,Reversal,2023.1.3,59.95811326420932,1,
10,exp1.png,exp2.png,,,,,,,,,,,,,,,,,,2,0,2,0,0,10,10,10,,,,,,,,,False,49,110,True,exp2.png,exp1.png,trial_right_image,-1,exp1.png,1,exp2.png,exp1.png,1,3,reversed,incorrect,0.0499812910034344,1,invalid_win,583.016680700006,63,,,,,,,,,,,,,,,sub_401,2025-04-20_17h22.23.988,Reversal,2023.1.3,59.95811326420932,1,
11,exp3.png,exp4.png,,,,,,,,,,,,,,,,,,2,0,2,0,0,11,11,11,,,,,,,,,False,50,111,False,exp3.png,exp4.png,trial_left_image,1,exp3.png,1,exp3.png,exp4.png,1,1,non-reversed,correct,0.17434941042174812,0,invalid_lose,587.3486421999987,63,,,,,,,,,,,,,,,sub_401,2025-04-20_17h22.23.988,Reversal,2023.1.3,59.95811326420932,1,
12,exp1.png,exp2.png,,,,,,,,,,,,,,,,,,2,0,2,0,0,12,12,12,,,,,,,,,False,51,112,True,exp2.png,exp1.png,trial_right_image,-1,exp1.png,1,exp2.png,exp1.png,1,3,reversed,incorrect,0.37004589227932216,0,valid_lose,591.697275100043,63,,,,,,,,,,,,,,,sub_401,2025-04-20_17h22.23.988,Reversal,2023.1.3,59.95811326420932,1,
13,exp3.png,exp4.png,,,,,,,,,,,,,,,,,,2,0,2,0,0,13,13,13,,,,,,,,,False,52,113,True,exp4.png,exp3.png,trial_right_image,-1,exp3.png,1,exp3.png,exp4.png,1,1,non-reversed,correct,0.8638022759972634,1,valid_win,595.8126367998775,64,,,,,,,,,,,,,,,sub_401,2025-04-20_17h22.23.988,Reversal,2023.1.3,59.95811326420932,1,
14,exp1.png,exp2.png,,,,,,,,,,,,,,,,,,2,0,2,0,0,14,14,14,,,,,,,,,False,53,114,True,exp2.png,exp1.png,trial_left_image,1,exp2.png,1,exp2.png,exp1.png,0,4,reversed,correct,0.23754350009688419,0,invalid_lose,600.0950676999055,64,,,,,,,,,,,,,,,sub_401,2025-04-20_17h22.23.988,Reversal,2023.1.3,59.95811326420932,1,
15,exp3.png,exp4.png,,,,,,,,,,,,,,,,,,2,0,2,0,0,15,15,15,,,,,,,,,False,54,115,False,exp3.png,exp4.png,trial_right_image,-1,exp4.png,1,exp3.png,exp4.png,0,2,non-reversed,incorrect,0.5084776711080319,0,valid_lose,604.2612363998778,64,,,,,,,,,,,,,,,sub_401,2025-04-20_17h22.23.988,Reversal,2023.1.3,59.95811326420932,1,
16,exp1.png,exp2.png,,,,,,,,,,,,,,,,,,2,0,2,0,0,16,16,16,,,,,,,,,False,55,116,False,exp1.png,exp2.png,trial_right_image,-1,exp2.png,1,exp2.png,exp1.png,0,4,reversed,correct,0.1969903556138266,0,invalid_lose,608.4417040999979,64,,,,,,,,,,,,,,,sub_401,2025-04-20_17h22.23.988,Reversal,2023.1.3,59.95811326420932,1,
17,exp3.png,exp4.png,,,,,,,,,,,,,,,,,,2,0,2,0,0,17,17,17,,,,,,,,,False,56,117,False,exp3.png,exp4.png,trial_left_image,1,exp3.png,1,exp3.png,exp4.png,1,1,non-reversed,correct,0.27631970329477784,1,valid_win,612.7413535998203,65,,,,,,,,,,,,,,,sub_401,2025-04-20_17h22.23.988,Reversal,2023.1.3,59.95811326420932,1,
18,exp1.png,exp2.png,,,,,,,,,,,,,,,,,,2,0,2,0,0,18,18,18,,,,,,,,,False,57,118,False,exp1.png,exp2.png,trial_right_image,-1,exp2.png,1,exp2.png,exp1.png,0,4,reversed,correct,0.15957899669202047,0,invalid_lose,617.0219604000449,65,,,,,,,,,,,,,,,sub_401,2025-04-20_17h22.23.988,Reversal,2023.1.3,59.95811326420932,1,
19,exp3.png,exp4.png,,,,,,,,,,,,,,,,,,2,0,2,0,0,19,19,19,,,,,,,,,False,58,119,True,exp4.png,exp3.png,trial_right_image,-1,exp3.png,1,exp3.png,exp4.png,1,1,non-reversed,correct,0.950290888380892,1,valid_win,621.4540871998761,66,,,,,,,,,,,,,,,sub_401,2025-04-20_17h22.23.988,Reversal,2023.1.3,59.95811326420932,1,
20,exp1.png,exp2.png,,,,,,,,,,,,,,,,,,2,0,2,0,0,20,20,20,,,,,,,,,False,59,120,False,exp1.png,exp2.png,trial_left_image,1,exp1.png,1,exp2.png,exp1.png,1,3,reversed,incorrect,0.8240793096162852,0,valid_lose,626.002850699937,66,,,,,,,,,,,,,,,sub_401,2025-04-20_17h22.23.988,Reversal,2023.1.3,59.95811326420932,1,
,,,exp1.png,,,,,,,,,,,,,,,,,2,0,2,0,,,,,0,0,0,0,0,0,0,0,,,,,,,,,,,,,,,,,,,,,,679.8187742000446,59.0,59.0,3.341705699916929,"[(100.0, 2.7103569998871535), (59.0, 3.341705699916929)]",,,,,,,,,,sub_401,2025-04-20_17h22.23.988,Reversal,2023.1.3,59.95811326420932,1,
,,,exp2.png,,,,,,,,,,,,,,,,,2,0,2,0,,,,,0,0,0,0,0,1,1,1,,,,,,,,,,,,,,,,,,,,,,683.6819054998923,,24.0,1.9101819000206888,"[(24.0, 1.9101819000206888)]",24.0,,,,,,,,,sub_401,2025-04-20_17h22.23.988,Reversal,2023.1.3,59.95811326420932,1,
,,,exp3.png,,,,,,,,,,,,,,,,,2,0,2,0,,,,,0,0,0,0,0,2,2,2,,,,,,,,,,,,,,,,,,,,,,686.7468630999792,,97.0,0.9288068001624197,"[(97.0, 0.9288068001624197)]",,97.0,,,,,,,,sub_401,2025-04-20_17h22.23.988,Reversal,2023.1.3,59.95811326420932,1,
,,,exp4.png,,,,,,,,,,,,,,,,,2,0,2,0,,,,,0,0,0,0,0,3,3,3,,,,,,,,,,,,,,,,,,,,,,688.0533555999864,,None,None,[],,,,,,,,,,sub_401,2025-04-20_17h22.23.988,Reversal,2023.1.3,59.95811326420932,1,
,,,,,,,,,,,,,,,,,,,,,,,,,,,,,,,,,,,,,,,,,,,,,,,,,,,,,,,,66,,,,,,,,,,81,46,35,282.91168149979785,0,,,,,,,
