trial_index,trial_image1_file,trial_image2_file,image_file,learning_outer_loop.thisRepN,learning_outer_loop.thisTrialN,learning_outer_loop.thisN,learning_outer_loop.thisIndex,learning_inner_loop.thisRepN,learning_inner_loop.thisTrialN,learning_inner_loop.thisN,learning_inner_loop.thisIndex,learning_estimation_outer_loop.thisRepN,learning_estimation_outer_loop.thisTrialN,learning_estimation_outer_loop.thisN,learning_estimation_outer_loop.thisIndex,learning_estimation_inner_loop.thisRepN,learning_estimation_inner_loop.thisTrialN,learning_estimation_inner_loop.thisN,learning_estimation_inner_loop.thisIndex,reversal_outer_loop.thisRepN,reversal_outer_loop.thisTrialN,reversal_outer_loop.thisN,reversal_outer_loop.thisIndex,reversal_inner_loop.thisRepN,reversal_inner_loop.thisTrialN,reversal_inner_loop.thisN,reversal_inner_loop.thisIndex,reversal_estimation_outer_loop.thisRepN,reversal_estimation_outer_loop.thisTrialN,reversal_estimation_outer_loop.thisN,reversal_estimation_outer_loop.thisIndex,reversal_estimation_inner_loop.thisRepN,reversal_estimation_inner_loop.thisTrialN,reversal_estimation_inner_loop.thisN,reversal_estimation_inner_loop.thisIndex,skipped,total_trial_counter,trial_num,left_right_flip,left_image_file,right_image_file,clicked_stimulus_side,side,clicked_stimulus,version,high_prob_image_file,low_prob_image_file,choice_a,choice_b,pair_type,correct,trial_feedback_random,reward,trial_type,overall_time_after_trial,score,estimation_rating.started,estimation_rating.response,estimation_rating.rt,estimation_rating.history,estimation_exp4.png,estimation_exp1.png,estimation_exp2.png,estimation_exp3.png,total_learning_time,total_correct,learning_correct,reversal_correct,total_reversal_time,extra_block,end_experiment.keys,end_experiment.rt,end_experiment.duration,participant,date,expName,psychopyVersion,frameRate,ver,
0,exp1.png,exp2.png,,0,0,0,0,0,0,0,0,,,,,,,,,,,,,,,,,,,,,,,,,False,0,1,False,exp1.png,exp2.png,trial_left_image,1,exp1.png,4,exp2.png,exp1.png,0,2,non-reversed,incorrect,0.8141023452199597,0,valid_lose,5.196961899999678,0,,,,,,,,,,,,,,,,,,sub_908,2024-03-11_09h44.21.827,Reversal,2023.1.3,59.90621083639333,4,
1,exp3.png,exp4.png,,0,0,0,0,0,1,1,1,,,,,,,,,,,,,,,,,,,,,,,,,False,1,2,True,exp4.png,exp3.png,trial_left_image,1,exp4.png,4,exp4.png,exp3.png,1,3,reversed,correct,0.1373515405349135,0,invalid_lose,11.478228499999659,0,,,,,,,,,,,,,,,,,,sub_908,2024-03-11_09h44.21.827,Reversal,2023.1.3,59.90621083639333,4,
2,exp1.png,exp2.png,,0,0,0,0,0,2,2,2,,,,,,,,,,,,,,,,,,,,,,,,,False,2,3,False,exp1.png,exp2.png,trial_left_image,1,exp1.png,4,exp2.png,exp1.png,0,2,non-reversed,incorrect,0.5957006699465393,0,valid_lose,17.709700200000043,0,,,,,,,,,,,,,,,,,,sub_908,2024-03-11_09h44.21.827,Reversal,2023.1.3,59.90621083639333,4,
3,exp3.png,exp4.png,,0,0,0,0,0,3,3,3,,,,,,,,,,,,,,,,,,,,,,,,,False,3,4,False,exp3.png,exp4.png,trial_right_image,-1,exp4.png,4,exp4.png,exp3.png,1,3,reversed,correct,0.8151786976720192,1,valid_win,22.82509230000005,1,,,,,,,,,,,,,,,,,,sub_908,2024-03-11_09h44.21.827,Reversal,2023.1.3,59.90621083639333,4,
4,exp1.png,exp2.png,,0,0,0,0,0,4,4,4,,,,,,,,,,,,,,,,,,,,,,,,,False,4,5,False,exp1.png,exp2.png,trial_right_image,-1,exp2.png,4,exp2.png,exp1.png,1,1,non-reversed,correct,0.6943100435917696,1,valid_win,28.756134299999758,2,,,,,,,,,,,,,,,,,,sub_908,2024-03-11_09h44.21.827,Reversal,2023.1.3,59.90621083639333,4,
5,exp3.png,exp4.png,,0,0,0,0,0,5,5,5,,,,,,,,,,,,,,,,,,,,,,,,,False,5,6,False,exp3.png,exp4.png,trial_right_image,-1,exp4.png,4,exp4.png,exp3.png,1,3,reversed,correct,0.6384049906081569,1,valid_win,33.77070139999978,3,,,,,,,,,,,,,,,,,,sub_908,2024-03-11_09h44.21.827,Reversal,2023.1.3,59.90621083639333,4,
6,exp1.png,exp2.png,,0,0,0,0,0,6,6,6,,,,,,,,,,,,,,,,,,,,,,,,,False,6,7,False,exp1.png,exp2.png,trial_right_image,-1,exp2.png,4,exp2.png,exp1.png,1,1,non-reversed,correct,0.224380163433331,0,invalid_lose,38.75262239999984,3,,,,,,,,,,,,,,,,,,sub_908,2024-03-11_09h44.21.827,Reversal,2023.1.3,59.90621083639333,4,
7,exp3.png,exp4.png,,0,0,0,0,0,7,7,7,,,,,,,,,,,,,,,,,,,,,,,,,False,7,8,True,exp4.png,exp3.png,trial_right_image,-1,exp3.png,4,exp4.png,exp3.png,0,4,reversed,incorrect,0.025996192022197717,1,invalid_win,45.00199840000005,4,,,,,,,,,,,,,,,,,,sub_908,2024-03-11_09h44.21.827,Reversal,2023.1.3,59.90621083639333,4,
8,exp1.png,exp2.png,,0,0,0,0,0,8,8,8,,,,,,,,,,,,,,,,,,,,,,,,,False,8,9,True,exp2.png,exp1.png,trial_right_image,-1,exp1.png,4,exp2.png,exp1.png,0,2,non-reversed,incorrect,0.32580939981469526,0,valid_lose,50.748153399999865,4,,,,,,,,,,,,,,,,,,sub_908,2024-03-11_09h44.21.827,Reversal,2023.1.3,59.90621083639333,4,
9,exp3.png,exp4.png,,0,0,0,0,0,9,9,9,,,,,,,,,,,,,,,,,,,,,,,,,False,9,10,True,exp4.png,exp3.png,trial_right_image,-1,exp3.png,4,exp4.png,exp3.png,0,4,reversed,incorrect,0.08578433433868804,1,invalid_win,57.29605739999988,5,,,,,,,,,,,,,,,,,,sub_908,2024-03-11_09h44.21.827,Reversal,2023.1.3,59.90621083639333,4,
10,exp1.png,exp2.png,,0,0,0,0,0,10,10,10,,,,,,,,,,,,,,,,,,,,,,,,,False,10,11,True,exp2.png,exp1.png,trial_right_image,-1,exp1.png,4,exp2.png,exp1.png,0,2,non-reversed,incorrect,0.4762078485604949,0,valid_lose,62.7112347999996,5,,,,,,,,,,,,,,,,,,sub_908,2024-03-11_09h44.21.827,Reversal,2023.1.3,59.90621083639333,4,
11,exp3.png,exp4.png,,0,0,0,0,0,11,11,11,,,,,,,,,,,,,,,,,,,,,,,,,False,11,12,False,exp3.png,exp4.png,trial_left_image,1,exp3.png,4,exp4.png,exp3.png,0,4,reversed,incorrect,0.496505357061513,0,valid_lose,68.30867390000003,5,,,,,,,,,,,,,,,,,,sub_908,2024-03-11_09h44.21.827,Reversal,2023.1.3,59.90621083639333,4,
12,exp1.png,exp2.png,,0,0,0,0,0,12,12,12,,,,,,,,,,,,,,,,,,,,,,,,,False,12,13,False,exp1.png,exp2.png,trial_left_image,1,exp1.png,4,exp2.png,exp1.png,0,2,non-reversed,incorrect,0.9987394676314253,0,valid_lose,73.57389419999981,5,,,,,,,,,,,,,,,,,,sub_908,2024-03-11_09h44.21.827,Reversal,2023.1.3,59.90621083639333,4,
13,exp3.png,exp4.png,,0,0,0,0,0,13,13,13,,,,,,,,,,,,,,,,,,,,,,,,,False,13,14,False,exp3.png,exp4.png,trial_right_image,-1,exp4.png,4,exp4.png,exp3.png,1,3,reversed,correct,0.5312627928487633,1,valid_win,77.9751011999997,6,,,,,,,,,,,,,,,,,,sub_908,2024-03-11_09h44.21.827,Reversal,2023.1.3,59.90621083639333,4,
14,exp1.png,exp2.png,,0,0,0,0,0,14,14,14,,,,,,,,,,,,,,,,,,,,,,,,,False,14,15,True,exp2.png,exp1.png,trial_right_image,-1,exp1.png,4,exp2.png,exp1.png,0,2,non-reversed,incorrect,0.8765455162133132,0,valid_lose,83.12037269999973,6,,,,,,,,,,,,,,,,,,sub_908,2024-03-11_09h44.21.827,Reversal,2023.1.3,59.90621083639333,4,
15,exp3.png,exp4.png,,0,0,0,0,0,15,15,15,,,,,,,,,,,,,,,,,,,,,,,,,False,15,16,True,exp4.png,exp3.png,trial_right_image,-1,exp3.png,4,exp4.png,exp3.png,0,4,reversed,incorrect,0.3480448235165725,0,valid_lose,89.15421709999964,6,,,,,,,,,,,,,,,,,,sub_908,2024-03-11_09h44.21.827,Reversal,2023.1.3,59.90621083639333,4,
16,exp1.png,exp2.png,,0,0,0,0,0,16,16,16,,,,,,,,,,,,,,,,,,,,,,,,,False,16,17,True,exp2.png,exp1.png,trial_left_image,1,exp2.png,4,exp2.png,exp1.png,1,1,non-reversed,correct,0.5227974924785239,1,valid_win,93.76692469999989,7,,,,,,,,,,,,,,,,,,sub_908,2024-03-11_09h44.21.827,Reversal,2023.1.3,59.90621083639333,4,
17,exp3.png,exp4.png,,0,0,0,0,0,17,17,17,,,,,,,,,,,,,,,,,,,,,,,,,False,17,18,True,exp4.png,exp3.png,trial_right_image,-1,exp3.png,4,exp4.png,exp3.png,0,4,reversed,incorrect,0.3347401659512137,0,valid_lose,98.68752919999997,7,,,,,,,,,,,,,,,,,,sub_908,2024-03-11_09h44.21.827,Reversal,2023.1.3,59.90621083639333,4,
18,exp1.png,exp2.png,,0,0,0,0,0,18,18,18,,,,,,,,,,,,,,,,,,,,,,,,,False,18,19,False,exp1.png,exp2.png,trial_left_image,1,exp1.png,4,exp2.png,exp1.png,0,2,non-reversed,incorrect,0.34856491518446575,0,valid_lose,103.89728639999976,7,,,,,,,,,,,,,,,,,,sub_908,2024-03-11_09h44.21.827,Reversal,2023.1.3,59.90621083639333,4,
19,exp3.png,exp4.png,,0,0,0,0,0,19,19,19,,,,,,,,,,,,,,,,,,,,,,,,,False,19,20,True,exp4.png,exp3.png,trial_right_image,-1,exp3.png,4,exp4.png,exp3.png,0,4,reversed,incorrect,0.02773218785044207,1,invalid_win,108.28063069999962,8,,,,,,,,,,,,,,,,,,sub_908,2024-03-11_09h44.21.827,Reversal,2023.1.3,59.90621083639333,4,
20,exp1.png,exp2.png,,0,0,0,0,0,20,20,20,,,,,,,,,,,,,,,,,,,,,,,,,True,,,,,,,,,,,,,,,,,,,,,,,,,,,,,,,,,,,,,,sub_908,2024-03-11_09h44.21.827,Reversal,2023.1.3,59.90621083639333,4,
,,,exp1.png,0,0,0,0,,,,,0,0,0,0,0,0,0,0,,,,,,,,,,,,,,,,,,,,,,,,,,,,,,,,,,,,,,175.20923669999956,None,None,[],,,,,,,,,,,,,,sub_908,2024-03-11_09h44.21.827,Reversal,2023.1.3,59.90621083639333,4,
,,,exp2.png,0,0,0,0,,,,,0,0,0,0,0,1,1,1,,,,,,,,,,,,,,,,,,,,,,,,,,,,,,,,,,,,,,186.0238787999997,None,None,[],,,,,,,,,,,,,,sub_908,2024-03-11_09h44.21.827,Reversal,2023.1.3,59.90621083639333,4,
,,,exp3.png,0,0,0,0,,,,,0,0,0,0,0,2,2,2,,,,,,,,,,,,,,,,,,,,,,,,,,,,,,,,,,,,,,190.73643719999973,None,None,[],,,,,,,,,,,,,,sub_908,2024-03-11_09h44.21.827,Reversal,2023.1.3,59.90621083639333,4,
,,,exp4.png,0,0,0,0,,,,,0,0,0,0,0,3,3,3,,,,,,,,,,,,,,,,,,,,,,,,,,,,,,,,,,,,,,199.76528759999974,30.0,10.275126399999863,"[(30.0, 10.275126399999863)]",30.0,,,,,,,,,,,,,sub_908,2024-03-11_09h44.21.827,Reversal,2023.1.3,59.90621083639333,4,
0,exp1.png,exp2.png,,1,0,1,0,0,0,0,0,,,,,,,,,,,,,,,,,,,,,,,,,False,20,21,False,exp1.png,exp2.png,trial_left_image,1,exp1.png,4,exp2.png,exp1.png,0,2,non-reversed,incorrect,0.4489282196317784,0,valid_lose,150.1476550999996,8,,,,,,,,,,,,,,,,,,sub_908,2024-03-11_09h44.21.827,Reversal,2023.1.3,59.90621083639333,4,
1,exp3.png,exp4.png,,1,0,1,0,0,1,1,1,,,,,,,,,,,,,,,,,,,,,,,,,False,21,22,False,exp3.png,exp4.png,trial_right_image,-1,exp4.png,4,exp4.png,exp3.png,1,3,reversed,correct,0.8030991353147894,1,valid_win,156.1961283999999,9,,,,,,,,,,,,,,,,,,sub_908,2024-03-11_09h44.21.827,Reversal,2023.1.3,59.90621083639333,4,
2,exp1.png,exp2.png,,1,0,1,0,0,2,2,2,,,,,,,,,,,,,,,,,,,,,,,,,False,22,23,True,exp2.png,exp1.png,trial_right_image,-1,exp1.png,4,exp2.png,exp1.png,0,2,non-reversed,incorrect,0.37006632893199,0,valid_lose,161.6938307999999,9,,,,,,,,,,,,,,,,,,sub_908,2024-03-11_09h44.21.827,Reversal,2023.1.3,59.90621083639333,4,
3,exp3.png,exp4.png,,1,0,1,0,0,3,3,3,,,,,,,,,,,,,,,,,,,,,,,,,False,23,24,False,exp3.png,exp4.png,trial_left_image,1,exp3.png,4,exp4.png,exp3.png,0,4,reversed,incorrect,0.030445678880436366,1,invalid_win,166.4086967999997,10,,,,,,,,,,,,,,,,,,sub_908,2024-03-11_09h44.21.827,Reversal,2023.1.3,59.90621083639333,4,
4,exp1.png,exp2.png,,1,0,1,0,0,4,4,4,,,,,,,,,,,,,,,,,,,,,,,,,False,24,25,True,exp2.png,exp1.png,trial_left_image,1,exp2.png,4,exp2.png,exp1.png,1,1,non-reversed,correct,0.7361932346902297,1,valid_win,175.10648619999984,11,,,,,,,,,,,,,,,,,,sub_908,2024-03-11_09h44.21.827,Reversal,2023.1.3,59.90621083639333,4,
5,exp3.png,exp4.png,,1,0,1,0,0,5,5,5,,,,,,,,,,,,,,,,,,,,,,,,,False,25,26,False,exp3.png,exp4.png,trial_left_image,1,exp3.png,4,exp4.png,exp3.png,0,4,reversed,incorrect,0.6844098754561762,0,valid_lose,180.3376361999999,11,,,,,,,,,,,,,,,,,,sub_908,2024-03-11_09h44.21.827,Reversal,2023.1.3,59.90621083639333,4,
6,exp1.png,exp2.png,,1,0,1,0,0,6,6,6,,,,,,,,,,,,,,,,,,,,,,,,,False,26,27,False,exp1.png,exp2.png,trial_left_image,1,exp1.png,4,exp2.png,exp1.png,0,2,non-reversed,incorrect,0.6859273019877445,0,valid_lose,186.23539729999993,11,,,,,,,,,,,,,,,,,,sub_908,2024-03-11_09h44.21.827,Reversal,2023.1.3,59.90621083639333,4,
7,exp3.png,exp4.png,,1,0,1,0,0,7,7,7,,,,,,,,,,,,,,,,,,,,,,,,,False,27,28,False,exp3.png,exp4.png,trial_right_image,-1,exp4.png,4,exp4.png,exp3.png,1,3,reversed,correct,0.3079894917470605,1,valid_win,190.88383919999978,12,,,,,,,,,,,,,,,,,,sub_908,2024-03-11_09h44.21.827,Reversal,2023.1.3,59.90621083639333,4,
8,exp1.png,exp2.png,,1,0,1,0,0,8,8,8,,,,,,,,,,,,,,,,,,,,,,,,,False,28,29,False,exp1.png,exp2.png,trial_right_image,-1,exp2.png,4,exp2.png,exp1.png,1,1,non-reversed,correct,0.1924726060914147,0,invalid_lose,196.09883279999985,12,,,,,,,,,,,,,,,,,,sub_908,2024-03-11_09h44.21.827,Reversal,2023.1.3,59.90621083639333,4,
9,exp3.png,exp4.png,,1,0,1,0,0,9,9,9,,,,,,,,,,,,,,,,,,,,,,,,,False,29,30,False,exp3.png,exp4.png,trial_right_image,-1,exp4.png,4,exp4.png,exp3.png,1,3,reversed,correct,0.9261605410321949,1,valid_win,200.98042499999974,13,,,,,,,,,,,,,,,,,,sub_908,2024-03-11_09h44.21.827,Reversal,2023.1.3,59.90621083639333,4,
10,exp1.png,exp2.png,,1,0,1,0,0,10,10,10,,,,,,,,,,,,,,,,,,,,,,,,,False,30,31,True,exp2.png,exp1.png,trial_left_image,1,exp2.png,4,exp2.png,exp1.png,1,1,non-reversed,correct,0.1038753271384314,0,invalid_lose,205.77883059999976,13,,,,,,,,,,,,,,,,,,sub_908,2024-03-11_09h44.21.827,Reversal,2023.1.3,59.90621083639333,4,
11,exp3.png,exp4.png,,1,0,1,0,0,11,11,11,,,,,,,,,,,,,,,,,,,,,,,,,False,31,32,False,exp3.png,exp4.png,trial_right_image,-1,exp4.png,4,exp4.png,exp3.png,1,3,reversed,correct,0.9795885468845226,1,valid_win,211.04383489999964,14,,,,,,,,,,,,,,,,,,sub_908,2024-03-11_09h44.21.827,Reversal,2023.1.3,59.90621083639333,4,
12,exp1.png,exp2.png,,1,0,1,0,0,12,12,12,,,,,,,,,,,,,,,,,,,,,,,,,False,32,33,True,exp2.png,exp1.png,trial_right_image,-1,exp1.png,4,exp2.png,exp1.png,0,2,non-reversed,incorrect,0.28862992649243113,0,valid_lose,216.09198849999984,14,,,,,,,,,,,,,,,,,,sub_908,2024-03-11_09h44.21.827,Reversal,2023.1.3,59.90621083639333,4,
13,exp3.png,exp4.png,,1,0,1,0,0,13,13,13,,,,,,,,,,,,,,,,,,,,,,,,,False,33,34,True,exp4.png,exp3.png,trial_right_image,-1,exp3.png,4,exp4.png,exp3.png,0,4,reversed,incorrect,0.8939753162033175,0,valid_lose,224.7555758999997,14,,,,,,,,,,,,,,,,,,sub_908,2024-03-11_09h44.21.827,Reversal,2023.1.3,59.90621083639333,4,
14,exp1.png,exp2.png,,1,0,1,0,0,14,14,14,,,,,,,,,,,,,,,,,,,,,,,,,False,34,35,True,exp2.png,exp1.png,trial_left_image,1,exp2.png,4,exp2.png,exp1.png,1,1,non-reversed,correct,0.4713680050422282,1,valid_win,230.5038510999998,15,,,,,,,,,,,,,,,,,,sub_908,2024-03-11_09h44.21.827,Reversal,2023.1.3,59.90621083639333,4,
15,exp3.png,exp4.png,,1,0,1,0,0,15,15,15,,,,,,,,,,,,,,,,,,,,,,,,,False,35,36,True,exp4.png,exp3.png,trial_right_image,-1,exp3.png,4,exp4.png,exp3.png,0,4,reversed,incorrect,0.5376008555887112,0,valid_lose,236.2519395999998,15,,,,,,,,,,,,,,,,,,sub_908,2024-03-11_09h44.21.827,Reversal,2023.1.3,59.90621083639333,4,
16,exp1.png,exp2.png,,1,0,1,0,0,16,16,16,,,,,,,,,,,,,,,,,,,,,,,,,False,36,37,True,exp2.png,exp1.png,trial_left_image,1,exp2.png,4,exp2.png,exp1.png,1,1,non-reversed,correct,0.27594761166882487,1,valid_win,242.36652749999985,16,,,,,,,,,,,,,,,,,,sub_908,2024-03-11_09h44.21.827,Reversal,2023.1.3,59.90621083639333,4,
17,exp3.png,exp4.png,,1,0,1,0,0,17,17,17,,,,,,,,,,,,,,,,,,,,,,,,,False,37,38,True,exp4.png,exp3.png,trial_left_image,1,exp4.png,4,exp4.png,exp3.png,1,3,reversed,correct,0.635979290528563,1,valid_win,248.0979471999999,17,,,,,,,,,,,,,,,,,,sub_908,2024-03-11_09h44.21.827,Reversal,2023.1.3,59.90621083639333,4,
18,exp1.png,exp2.png,,1,0,1,0,0,18,18,18,,,,,,,,,,,,,,,,,,,,,,,,,False,38,39,True,exp2.png,exp1.png,trial_left_image,1,exp2.png,4,exp2.png,exp1.png,1,1,non-reversed,correct,0.9694189086107958,1,valid_win,253.6295981999997,18,,,,,,,,,,,,,,,,,,sub_908,2024-03-11_09h44.21.827,Reversal,2023.1.3,59.90621083639333,4,
19,exp3.png,exp4.png,,1,0,1,0,0,19,19,19,,,,,,,,,,,,,,,,,,,,,,,,,False,39,40,False,exp3.png,exp4.png,trial_left_image,1,exp3.png,4,exp4.png,exp3.png,0,4,reversed,incorrect,0.010276871518362207,1,invalid_win,260.91014789999963,19,,,,,,,,,,,,,,,,,,sub_908,2024-03-11_09h44.21.827,Reversal,2023.1.3,59.90621083639333,4,
20,exp1.png,exp2.png,,1,0,1,0,0,20,20,20,,,,,,,,,,,,,,,,,,,,,,,,,True,,,,,,,,,,,,,,,,,,,,,,,,,,,,,,,,,,,,,,sub_908,2024-03-11_09h44.21.827,Reversal,2023.1.3,59.90621083639333,4,
,,,exp1.png,1,0,1,0,,,,,0,0,0,0,0,0,0,0,,,,,,,,,,,,,,,,,,,,,,,,,,,,,,,,,,,,,,327.8445062999999,1.0,5.342498400000295,"[(1.0, 5.342498400000295)]",,1.0,,,,,,,,,,,,sub_908,2024-03-11_09h44.21.827,Reversal,2023.1.3,59.90621083639333,4,
,,,exp2.png,1,0,1,0,,,,,0,0,0,0,0,1,1,1,,,,,,,,,,,,,,,,,,,,,,,,,,,,,,,,,,,,,,335.05250639999986,100.0,2.360989399999653,"[(100.0, 2.360989399999653)]",,,100.0,,,,,,,,,,,sub_908,2024-03-11_09h44.21.827,Reversal,2023.1.3,59.90621083639333,4,
,,,exp3.png,1,0,1,0,,,,,0,0,0,0,0,2,2,2,,,,,,,,,,,,,,,,,,,,,,,,,,,,,,,,,,,,,,338.53536289999965,1.0,6.17647769999985,"[(1.0, 6.17647769999985)]",,,,1.0,,,,,,,,,,sub_908,2024-03-11_09h44.21.827,Reversal,2023.1.3,59.90621083639333,4,
,,,exp4.png,1,0,1,0,,,,,0,0,0,0,0,3,3,3,,,,,,,,,,,,,,,,,,,,,,,,,,,,,,,,,,,,,,346.16742069999964,100.0,1.926459100000102,"[(100.0, 1.926459100000102)]",100.0,,,,,,,,,,,,,sub_908,2024-03-11_09h44.21.827,Reversal,2023.1.3,59.90621083639333,4,
0,exp1.png,exp2.png,,2,0,2,0,0,0,0,0,,,,,,,,,,,,,,,,,,,,,,,,,False,40,41,False,exp1.png,exp2.png,trial_right_image,-1,exp2.png,4,exp2.png,exp1.png,1,1,non-reversed,correct,0.6175952804890799,1,valid_win,289.9171188,20,,,,,,,,,,,,,,,,,,sub_908,2024-03-11_09h44.21.827,Reversal,2023.1.3,59.90621083639333,4,
1,exp3.png,exp4.png,,2,0,2,0,0,1,1,1,,,,,,,,,,,,,,,,,,,,,,,,,False,41,42,False,exp3.png,exp4.png,trial_left_image,1,exp3.png,4,exp4.png,exp3.png,0,4,reversed,incorrect,0.8851188447399655,0,valid_lose,296.91454909999993,20,,,,,,,,,,,,,,,,,,sub_908,2024-03-11_09h44.21.827,Reversal,2023.1.3,59.90621083639333,4,
2,exp1.png,exp2.png,,2,0,2,0,0,2,2,2,,,,,,,,,,,,,,,,,,,,,,,,,False,42,43,True,exp2.png,exp1.png,trial_right_image,-1,exp1.png,4,exp2.png,exp1.png,0,2,non-reversed,incorrect,0.5546933117057792,0,valid_lose,307.5273877999998,20,,,,,,,,,,,,,,,,,,sub_908,2024-03-11_09h44.21.827,Reversal,2023.1.3,59.90621083639333,4,
3,exp3.png,exp4.png,,2,0,2,0,0,3,3,3,,,,,,,,,,,,,,,,,,,,,,,,,False,43,44,False,exp3.png,exp4.png,trial_right_image,-1,exp4.png,4,exp4.png,exp3.png,1,3,reversed,correct,0.9560719476001965,1,valid_win,313.5101932999996,21,,,,,,,,,,,,,,,,,,sub_908,2024-03-11_09h44.21.827,Reversal,2023.1.3,59.90621083639333,4,
4,exp1.png,exp2.png,,2,0,2,0,0,4,4,4,,,,,,,,,,,,,,,,,,,,,,,,,False,44,45,True,exp2.png,exp1.png,trial_left_image,1,exp2.png,4,exp2.png,exp1.png,1,1,non-reversed,correct,0.6842280759575038,1,valid_win,318.90794689999984,22,,,,,,,,,,,,,,,,,,sub_908,2024-03-11_09h44.21.827,Reversal,2023.1.3,59.90621083639333,4,
5,exp3.png,exp4.png,,2,0,2,0,0,5,5,5,,,,,,,,,,,,,,,,,,,,,,,,,False,45,46,False,exp3.png,exp4.png,trial_right_image,-1,exp4.png,4,exp4.png,exp3.png,1,3,reversed,correct,0.24289702851169193,0,invalid_lose,326.78763979999985,22,,,,,,,,,,,,,,,,,,sub_908,2024-03-11_09h44.21.827,Reversal,2023.1.3,59.90621083639333,4,
6,exp1.png,exp2.png,,2,0,2,0,0,6,6,6,,,,,,,,,,,,,,,,,,,,,,,,,False,46,47,False,exp1.png,exp2.png,trial_right_image,-1,exp2.png,4,exp2.png,exp1.png,1,1,non-reversed,correct,0.8653007584268972,1,valid_win,331.73623169999973,23,,,,,,,,,,,,,,,,,,sub_908,2024-03-11_09h44.21.827,Reversal,2023.1.3,59.90621083639333,4,
7,exp3.png,exp4.png,,2,0,2,0,0,7,7,7,,,,,,,,,,,,,,,,,,,,,,,,,False,47,48,True,exp4.png,exp3.png,trial_right_image,-1,exp3.png,4,exp4.png,exp3.png,0,4,reversed,incorrect,0.4804667449030323,0,valid_lose,337.3008851999998,23,,,,,,,,,,,,,,,,,,sub_908,2024-03-11_09h44.21.827,Reversal,2023.1.3,59.90621083639333,4,
8,exp1.png,exp2.png,,2,0,2,0,0,8,8,8,,,,,,,,,,,,,,,,,,,,,,,,,False,48,49,True,exp2.png,exp1.png,trial_right_image,-1,exp1.png,4,exp2.png,exp1.png,0,2,non-reversed,incorrect,0.37582455717837726,0,valid_lose,344.74811599999975,23,,,,,,,,,,,,,,,,,,sub_908,2024-03-11_09h44.21.827,Reversal,2023.1.3,59.90621083639333,4,
9,exp3.png,exp4.png,,2,0,2,0,0,9,9,9,,,,,,,,,,,,,,,,,,,,,,,,,False,49,50,False,exp3.png,exp4.png,trial_right_image,-1,exp4.png,4,exp4.png,exp3.png,1,3,reversed,correct,0.6916475566012447,1,valid_win,352.1122224999999,24,,,,,,,,,,,,,,,,,,sub_908,2024-03-11_09h44.21.827,Reversal,2023.1.3,59.90621083639333,4,
10,exp1.png,exp2.png,,2,0,2,0,0,10,10,10,,,,,,,,,,,,,,,,,,,,,,,,,False,50,51,True,exp2.png,exp1.png,trial_right_image,-1,exp1.png,4,exp2.png,exp1.png,0,2,non-reversed,incorrect,0.9641086222850206,0,valid_lose,357.4940913999999,24,,,,,,,,,,,,,,,,,,sub_908,2024-03-11_09h44.21.827,Reversal,2023.1.3,59.90621083639333,4,
11,exp3.png,exp4.png,,2,0,2,0,0,11,11,11,,,,,,,,,,,,,,,,,,,,,,,,,False,51,52,False,exp3.png,exp4.png,trial_left_image,1,exp3.png,4,exp4.png,exp3.png,0,4,reversed,incorrect,0.18631949656833513,1,invalid_win,363.9258236999999,25,,,,,,,,,,,,,,,,,,sub_908,2024-03-11_09h44.21.827,Reversal,2023.1.3,59.90621083639333,4,
12,exp1.png,exp2.png,,2,0,2,0,0,12,12,12,,,,,,,,,,,,,,,,,,,,,,,,,False,52,53,False,exp1.png,exp2.png,trial_right_image,-1,exp2.png,4,exp2.png,exp1.png,1,1,non-reversed,correct,0.8876608947076946,1,valid_win,370.7730047,26,,,,,,,,,,,,,,,,,,sub_908,2024-03-11_09h44.21.827,Reversal,2023.1.3,59.90621083639333,4,
13,exp3.png,exp4.png,,2,0,2,0,0,13,13,13,,,,,,,,,,,,,,,,,,,,,,,,,False,53,54,True,exp4.png,exp3.png,trial_right_image,-1,exp3.png,4,exp4.png,exp3.png,0,4,reversed,incorrect,0.7873747827059117,0,valid_lose,376.4050164999999,26,,,,,,,,,,,,,,,,,,sub_908,2024-03-11_09h44.21.827,Reversal,2023.1.3,59.90621083639333,4,
14,exp1.png,exp2.png,,2,0,2,0,0,14,14,14,,,,,,,,,,,,,,,,,,,,,,,,,False,54,55,True,exp2.png,exp1.png,trial_left_image,1,exp2.png,4,exp2.png,exp1.png,1,1,non-reversed,correct,0.6834622797677307,1,valid_win,384.9183865,27,,,,,,,,,,,,,,,,,,sub_908,2024-03-11_09h44.21.827,Reversal,2023.1.3,59.90621083639333,4,
15,exp3.png,exp4.png,,2,0,2,0,0,15,15,15,,,,,,,,,,,,,,,,,,,,,,,,,False,55,56,True,exp4.png,exp3.png,trial_right_image,-1,exp3.png,4,exp4.png,exp3.png,0,4,reversed,incorrect,0.2197868134259281,1,invalid_win,391.18292410000004,28,,,,,,,,,,,,,,,,,,sub_908,2024-03-11_09h44.21.827,Reversal,2023.1.3,59.90621083639333,4,
16,exp1.png,exp2.png,,2,0,2,0,0,16,16,16,,,,,,,,,,,,,,,,,,,,,,,,,False,56,57,True,exp2.png,exp1.png,trial_left_image,1,exp2.png,4,exp2.png,exp1.png,1,1,non-reversed,correct,0.20848199306376936,0,invalid_lose,396.330457,28,,,,,,,,,,,,,,,,,,sub_908,2024-03-11_09h44.21.827,Reversal,2023.1.3,59.90621083639333,4,
17,exp3.png,exp4.png,,2,0,2,0,0,17,17,17,,,,,,,,,,,,,,,,,,,,,,,,,False,57,58,False,exp3.png,exp4.png,trial_right_image,-1,exp4.png,4,exp4.png,exp3.png,1,3,reversed,correct,0.9777021295716463,1,valid_win,401.8629108,29,,,,,,,,,,,,,,,,,,sub_908,2024-03-11_09h44.21.827,Reversal,2023.1.3,59.90621083639333,4,
18,exp1.png,exp2.png,,2,0,2,0,0,18,18,18,,,,,,,,,,,,,,,,,,,,,,,,,False,58,59,True,exp2.png,exp1.png,trial_right_image,-1,exp1.png,4,exp2.png,exp1.png,0,2,non-reversed,incorrect,0.16960296279572395,1,invalid_win,407.1102858999998,30,,,,,,,,,,,,,,,,,,sub_908,2024-03-11_09h44.21.827,Reversal,2023.1.3,59.90621083639333,4,
19,exp3.png,exp4.png,,2,0,2,0,0,19,19,19,,,,,,,,,,,,,,,,,,,,,,,,,False,59,60,False,exp3.png,exp4.png,trial_right_image,-1,exp4.png,4,exp4.png,exp3.png,1,3,reversed,correct,0.34034817881706725,1,valid_win,413.9414850999997,31,,,,,,,,,,,,,,,,,,sub_908,2024-03-11_09h44.21.827,Reversal,2023.1.3,59.90621083639333,4,
20,exp1.png,exp2.png,,2,0,2,0,0,20,20,20,,,,,,,,,,,,,,,,,,,,,,,,,True,,,,,,,,,,,,,,,,,,,,,,,,,,,,,,,,,,,,,,sub_908,2024-03-11_09h44.21.827,Reversal,2023.1.3,59.90621083639333,4,
,,,exp1.png,2,0,2,0,,,,,0,0,0,0,0,0,0,0,,,,,,,,,,,,,,,,,,,,,,,,,,,,,,,,,,,,,,480.87282369999957,1.0,7.713727100000142,"[(1.0, 7.713727100000142)]",,1.0,,,,,,,,,,,,sub_908,2024-03-11_09h44.21.827,Reversal,2023.1.3,59.90621083639333,4,
,,,exp2.png,2,0,2,0,,,,,0,0,0,0,0,1,1,1,,,,,,,,,,,,,,,,,,,,,,,,,,,,,,,,,,,,,,490.2168566999999,82.0,2.927751199999875,"[(82.0, 2.927751199999875)]",,,82.0,,,,,,,,,,,sub_908,2024-03-11_09h44.21.827,Reversal,2023.1.3,59.90621083639333,4,
,,,exp3.png,2,0,2,0,,,,,0,0,0,0,0,2,2,2,,,,,,,,,,,,,,,,,,,,,,,,,,,,,,,,,,,,,,494.16450769999983,1.0,2.3614526999999725,"[(1.0, 2.3614526999999725)]",,,,1.0,,,,,,,,,,sub_908,2024-03-11_09h44.21.827,Reversal,2023.1.3,59.90621083639333,4,
,,,exp4.png,2,0,2,0,,,,,0,0,0,0,0,3,3,3,,,,,,,,,,,,,,,,,,,,,,,,,,,,,,,,,,,,,,497.7145053999998,100.0,1.5963671999998041,"[(100.0, 1.5963671999998041)]",100.0,,,,,,,,,,,,,sub_908,2024-03-11_09h44.21.827,Reversal,2023.1.3,59.90621083639333,4,
0,exp1.png,exp2.png,,3,0,3,0,0,0,0,0,,,,,,,,,,,,,,,,,,,,,,,,,False,60,61,False,exp1.png,exp2.png,trial_right_image,-1,exp2.png,4,exp2.png,exp1.png,1,1,non-reversed,correct,0.31797544917784826,1,valid_win,444.49819449999995,32,,,,,,,,,,,,,,,,,,sub_908,2024-03-11_09h44.21.827,Reversal,2023.1.3,59.90621083639333,4,
1,exp3.png,exp4.png,,3,0,3,0,0,1,1,1,,,,,,,,,,,,,,,,,,,,,,,,,False,61,62,True,exp4.png,exp3.png,trial_left_image,1,exp4.png,4,exp4.png,exp3.png,1,3,reversed,correct,0.3902240406531313,1,valid_win,449.29617499999995,33,,,,,,,,,,,,,,,,,,sub_908,2024-03-11_09h44.21.827,Reversal,2023.1.3,59.90621083639333,4,
2,exp1.png,exp2.png,,3,0,3,0,0,2,2,2,,,,,,,,,,,,,,,,,,,,,,,,,False,62,63,True,exp2.png,exp1.png,trial_left_image,1,exp2.png,4,exp2.png,exp1.png,1,1,non-reversed,correct,0.6733583326115393,1,valid_win,455.32739730000003,34,,,,,,,,,,,,,,,,,,sub_908,2024-03-11_09h44.21.827,Reversal,2023.1.3,59.90621083639333,4,
3,exp3.png,exp4.png,,3,0,3,0,0,3,3,3,,,,,,,,,,,,,,,,,,,,,,,,,False,63,64,True,exp4.png,exp3.png,trial_left_image,1,exp4.png,4,exp4.png,exp3.png,1,3,reversed,correct,0.516952540023246,1,valid_win,460.4757387999998,35,,,,,,,,,,,,,,,,,,sub_908,2024-03-11_09h44.21.827,Reversal,2023.1.3,59.90621083639333,4,
4,exp1.png,exp2.png,,3,0,3,0,0,4,4,4,,,,,,,,,,,,,,,,,,,,,,,,,False,64,65,False,exp1.png,exp2.png,trial_right_image,-1,exp2.png,4,exp2.png,exp1.png,1,1,non-reversed,correct,0.1476283151182579,0,invalid_lose,466.70704829999977,35,,,,,,,,,,,,,,,,,,sub_908,2024-03-11_09h44.21.827,Reversal,2023.1.3,59.90621083639333,4,
5,exp3.png,exp4.png,,3,0,3,0,0,5,5,5,,,,,,,,,,,,,,,,,,,,,,,,,False,65,66,False,exp3.png,exp4.png,trial_right_image,-1,exp4.png,4,exp4.png,exp3.png,1,3,reversed,correct,0.5283949975164473,1,valid_win,472.6215358999998,36,,,,,,,,,,,,,,,,,,sub_908,2024-03-11_09h44.21.827,Reversal,2023.1.3,59.90621083639333,4,
6,exp1.png,exp2.png,,3,0,3,0,0,6,6,6,,,,,,,,,,,,,,,,,,,,,,,,,False,66,67,True,exp2.png,exp1.png,trial_left_image,1,exp2.png,4,exp2.png,exp1.png,1,1,non-reversed,correct,0.9493976629605556,1,valid_win,477.7703830999999,37,,,,,,,,,,,,,,,,,,sub_908,2024-03-11_09h44.21.827,Reversal,2023.1.3,59.90621083639333,4,
7,exp3.png,exp4.png,,3,0,3,0,0,7,7,7,,,,,,,,,,,,,,,,,,,,,,,,,False,67,68,False,exp3.png,exp4.png,trial_right_image,-1,exp4.png,4,exp4.png,exp3.png,1,3,reversed,correct,0.833474762730217,1,valid_win,484.8342819999998,38,,,,,,,,,,,,,,,,,,sub_908,2024-03-11_09h44.21.827,Reversal,2023.1.3,59.90621083639333,4,
8,exp1.png,exp2.png,,3,0,3,0,0,8,8,8,,,,,,,,,,,,,,,,,,,,,,,,,False,68,69,False,exp1.png,exp2.png,trial_right_image,-1,exp2.png,4,exp2.png,exp1.png,1,1,non-reversed,correct,0.27742030631473824,1,valid_win,490.1655578,39,,,,,,,,,,,,,,,,,,sub_908,2024-03-11_09h44.21.827,Reversal,2023.1.3,59.90621083639333,4,
9,exp3.png,exp4.png,,3,0,3,0,0,9,9,9,,,,,,,,,,,,,,,,,,,,,,,,,False,69,70,True,exp4.png,exp3.png,trial_left_image,1,exp4.png,4,exp4.png,exp3.png,1,3,reversed,correct,0.24147750589656936,0,invalid_lose,495.8802175999999,39,,,,,,,,,,,,,,,,,,sub_908,2024-03-11_09h44.21.827,Reversal,2023.1.3,59.90621083639333,4,
10,exp1.png,exp2.png,,3,0,3,0,0,10,10,10,,,,,,,,,,,,,,,,,,,,,,,,,False,70,71,True,exp2.png,exp1.png,trial_left_image,1,exp2.png,4,exp2.png,exp1.png,1,1,non-reversed,correct,0.3504296664014912,1,valid_win,501.8285314,40,,,,,,,,,,,,,,,,,,sub_908,2024-03-11_09h44.21.827,Reversal,2023.1.3,59.90621083639333,4,
11,exp3.png,exp4.png,,3,0,3,0,0,11,11,11,,,,,,,,,,,,,,,,,,,,,,,,,False,71,72,True,exp4.png,exp3.png,trial_left_image,1,exp4.png,4,exp4.png,exp3.png,1,3,reversed,correct,0.19836822522649855,0,invalid_lose,507.6095808,40,,,,,,,,,,,,,,,,,,sub_908,2024-03-11_09h44.21.827,Reversal,2023.1.3,59.90621083639333,4,
12,exp1.png,exp2.png,,3,0,3,0,0,12,12,12,,,,,,,,,,,,,,,,,,,,,,,,,False,72,73,True,exp2.png,exp1.png,trial_left_image,1,exp2.png,4,exp2.png,exp1.png,1,1,non-reversed,correct,0.18658453161869337,0,invalid_lose,512.4744686999998,40,,,,,,,,,,,,,,,,,,sub_908,2024-03-11_09h44.21.827,Reversal,2023.1.3,59.90621083639333,4,
13,exp3.png,exp4.png,,3,0,3,0,0,13,13,13,,,,,,,,,,,,,,,,,,,,,,,,,False,73,74,True,exp4.png,exp3.png,trial_right_image,-1,exp3.png,4,exp4.png,exp3.png,0,4,reversed,incorrect,0.41068931195436076,0,valid_lose,518.1232421,40,,,,,,,,,,,,,,,,,,sub_908,2024-03-11_09h44.21.827,Reversal,2023.1.3,59.90621083639333,4,
14,exp1.png,exp2.png,,3,0,3,0,0,14,14,14,,,,,,,,,,,,,,,,,,,,,,,,,False,74,75,True,exp2.png,exp1.png,trial_left_image,1,exp2.png,4,exp2.png,exp1.png,1,1,non-reversed,correct,0.124404007962165,0,invalid_lose,522.4565371999997,40,,,,,,,,,,,,,,,,,,sub_908,2024-03-11_09h44.21.827,Reversal,2023.1.3,59.90621083639333,4,
15,exp3.png,exp4.png,,3,0,3,0,0,15,15,15,,,,,,,,,,,,,,,,,,,,,,,,,False,75,76,False,exp3.png,exp4.png,trial_right_image,-1,exp4.png,4,exp4.png,exp3.png,1,3,reversed,correct,0.05181931442428056,0,invalid_lose,527.2362645999997,40,,,,,,,,,,,,,,,,,,sub_908,2024-03-11_09h44.21.827,Reversal,2023.1.3,59.90621083639333,4,
16,exp1.png,exp2.png,,3,0,3,0,0,16,16,16,,,,,,,,,,,,,,,,,,,,,,,,,False,76,77,False,exp1.png,exp2.png,trial_left_image,1,exp1.png,4,exp2.png,exp1.png,0,2,non-reversed,incorrect,0.029849444375958267,1,invalid_win,531.6354806999998,41,,,,,,,,,,,,,,,,,,sub_908,2024-03-11_09h44.21.827,Reversal,2023.1.3,59.90621083639333,4,
17,exp3.png,exp4.png,,3,0,3,0,0,17,17,17,,,,,,,,,,,,,,,,,,,,,,,,,False,77,78,False,exp3.png,exp4.png,trial_left_image,1,exp3.png,4,exp4.png,exp3.png,0,4,reversed,incorrect,0.9181029837306205,0,valid_lose,536.0833340999998,41,,,,,,,,,,,,,,,,,,sub_908,2024-03-11_09h44.21.827,Reversal,2023.1.3,59.90621083639333,4,
18,exp1.png,exp2.png,,3,0,3,0,0,18,18,18,,,,,,,,,,,,,,,,,,,,,,,,,False,78,79,False,exp1.png,exp2.png,trial_left_image,1,exp1.png,4,exp2.png,exp1.png,0,2,non-reversed,incorrect,0.6541368860074869,0,valid_lose,541.7145222999998,41,,,,,,,,,,,,,,,,,,sub_908,2024-03-11_09h44.21.827,Reversal,2023.1.3,59.90621083639333,4,
19,exp3.png,exp4.png,,3,0,3,0,0,19,19,19,,,,,,,,,,,,,,,,,,,,,,,,,False,79,80,False,exp3.png,exp4.png,trial_right_image,-1,exp4.png,4,exp4.png,exp3.png,1,3,reversed,correct,0.2776423440944301,1,valid_win,545.8467920999997,42,,,,,,,,,,,,,,,,,,sub_908,2024-03-11_09h44.21.827,Reversal,2023.1.3,59.90621083639333,4,
20,exp1.png,exp2.png,,3,0,3,0,0,20,20,20,,,,,,,,,,,,,,,,,,,,,,,,,True,,,,,,,,,,,,,,,,,,,,,,,,,,,,,,,,,,,,,,sub_908,2024-03-11_09h44.21.827,Reversal,2023.1.3,59.90621083639333,4,
,,,exp1.png,3,0,3,0,,,,,0,0,0,0,0,0,0,0,,,,,,,,,,,,,,,,,,,,,,,,,,,,,,,,,,,,,,612.7684682999998,None,None,[],,,,,,,,,,,,,,sub_908,2024-03-11_09h44.21.827,Reversal,2023.1.3,59.90621083639333,4,
,,,exp2.png,3,0,3,0,,,,,0,0,0,0,0,1,1,1,,,,,,,,,,,,,,,,,,,,,,,,,,,,,,,,,,,,,,617.3076683999998,None,None,[],,,,,,,,,,,,,,sub_908,2024-03-11_09h44.21.827,Reversal,2023.1.3,59.90621083639333,4,
,,,exp3.png,3,0,3,0,,,,,0,0,0,0,0,2,2,2,,,,,,,,,,,,,,,,,,,,,,,,,,,,,,,,,,,,,,620.6213613,None,None,[],,,,,,,,,,,,,,sub_908,2024-03-11_09h44.21.827,Reversal,2023.1.3,59.90621083639333,4,
,,,exp4.png,3,0,3,0,,,,,0,0,0,0,0,3,3,3,,,,,,,,,,,,,,,,,,,,,,,,,,,,,,,,,,,,,,626.8205372999996,None,None,[],,,,,,,,,,,,,,sub_908,2024-03-11_09h44.21.827,Reversal,2023.1.3,59.90621083639333,4,
0,exp1.png,exp2.png,,,,,,,,,,,,,,,,,,0,0,0,0,0,0,0,0,,,,,,,,,False,0,81,True,exp2.png,exp1.png,trial_left_image,1,exp2.png,4,exp2.png,exp1.png,1,1,non-reversed,correct,0.8309817383687089,1,valid_win,568.1897621999997,43,,,,,,,,,564.7376494,,,,,,,,,sub_908,2024-03-11_09h44.21.827,Reversal,2023.1.3,59.90621083639333,4,
1,exp3.png,exp4.png,,,,,,,,,,,,,,,,,,0,0,0,0,0,1,1,1,,,,,,,,,False,1,82,False,exp3.png,exp4.png,trial_right_image,-1,exp4.png,4,exp3.png,exp4.png,1,3,reversed,incorrect,0.41038916442594087,0,valid_lose,574.0369974999999,43,,,,,,,,,,,,,,,,,,sub_908,2024-03-11_09h44.21.827,Reversal,2023.1.3,59.90621083639333,4,
2,exp1.png,exp2.png,,,,,,,,,,,,,,,,,,0,0,0,0,0,2,2,2,,,,,,,,,False,2,83,False,exp1.png,exp2.png,trial_left_image,1,exp1.png,4,exp2.png,exp1.png,0,2,non-reversed,incorrect,0.06355951595514053,1,invalid_win,580.8181436,44,,,,,,,,,,,,,,,,,,sub_908,2024-03-11_09h44.21.827,Reversal,2023.1.3,59.90621083639333,4,
3,exp3.png,exp4.png,,,,,,,,,,,,,,,,,,0,0,0,0,0,3,3,3,,,,,,,,,False,3,84,True,exp4.png,exp3.png,trial_left_image,1,exp4.png,4,exp3.png,exp4.png,1,3,reversed,incorrect,0.7274877203718065,0,valid_lose,586.1993144999997,44,,,,,,,,,,,,,,,,,,sub_908,2024-03-11_09h44.21.827,Reversal,2023.1.3,59.90621083639333,4,
4,exp1.png,exp2.png,,,,,,,,,,,,,,,,,,0,0,0,0,0,4,4,4,,,,,,,,,False,4,85,False,exp1.png,exp2.png,trial_right_image,-1,exp2.png,4,exp2.png,exp1.png,1,1,non-reversed,correct,0.09967286116606733,0,invalid_lose,592.1643775999996,44,,,,,,,,,,,,,,,,,,sub_908,2024-03-11_09h44.21.827,Reversal,2023.1.3,59.90621083639333,4,
5,exp3.png,exp4.png,,,,,,,,,,,,,,,,,,0,0,0,0,0,5,5,5,,,,,,,,,False,5,86,True,exp4.png,exp3.png,trial_left_image,1,exp4.png,4,exp3.png,exp4.png,1,3,reversed,incorrect,0.768373063182145,0,valid_lose,597.9958186999997,44,,,,,,,,,,,,,,,,,,sub_908,2024-03-11_09h44.21.827,Reversal,2023.1.3,59.90621083639333,4,
6,exp1.png,exp2.png,,,,,,,,,,,,,,,,,,0,0,0,0,0,6,6,6,,,,,,,,,False,6,87,False,exp1.png,exp2.png,trial_right_image,-1,exp2.png,4,exp2.png,exp1.png,1,1,non-reversed,correct,0.6864953522626515,1,valid_win,601.9977621999997,45,,,,,,,,,,,,,,,,,,sub_908,2024-03-11_09h44.21.827,Reversal,2023.1.3,59.90621083639333,4,
7,exp3.png,exp4.png,,,,,,,,,,,,,,,,,,0,0,0,0,0,7,7,7,,,,,,,,,False,7,88,True,exp4.png,exp3.png,trial_right_image,-1,exp3.png,4,exp3.png,exp4.png,0,4,reversed,correct,0.03742520358734647,0,invalid_lose,609.0920684999996,45,,,,,,,,,,,,,,,,,,sub_908,2024-03-11_09h44.21.827,Reversal,2023.1.3,59.90621083639333,4,
8,exp1.png,exp2.png,,,,,,,,,,,,,,,,,,0,0,0,0,0,8,8,8,,,,,,,,,False,8,89,True,exp2.png,exp1.png,trial_right_image,-1,exp1.png,4,exp2.png,exp1.png,0,2,non-reversed,incorrect,0.32715453490001467,0,valid_lose,614.2901975999998,45,,,,,,,,,,,,,,,,,,sub_908,2024-03-11_09h44.21.827,Reversal,2023.1.3,59.90621083639333,4,
9,exp3.png,exp4.png,,,,,,,,,,,,,,,,,,0,0,0,0,0,9,9,9,,,,,,,,,False,9,90,False,exp3.png,exp4.png,trial_right_image,-1,exp4.png,4,exp3.png,exp4.png,1,3,reversed,incorrect,0.0760961794514996,1,invalid_win,620.7212360999997,46,,,,,,,,,,,,,,,,,,sub_908,2024-03-11_09h44.21.827,Reversal,2023.1.3,59.90621083639333,4,
10,exp1.png,exp2.png,,,,,,,,,,,,,,,,,,0,0,0,0,0,10,10,10,,,,,,,,,False,10,91,True,exp2.png,exp1.png,trial_left_image,1,exp2.png,4,exp2.png,exp1.png,1,1,non-reversed,correct,0.9767511360190657,1,valid_win,626.3696943999998,47,,,,,,,,,,,,,,,,,,sub_908,2024-03-11_09h44.21.827,Reversal,2023.1.3,59.90621083639333,4,
11,exp3.png,exp4.png,,,,,,,,,,,,,,,,,,0,0,0,0,0,11,11,11,,,,,,,,,False,11,92,True,exp4.png,exp3.png,trial_right_image,-1,exp3.png,4,exp3.png,exp4.png,0,4,reversed,correct,0.11322973282234705,0,invalid_lose,634.3164984,47,,,,,,,,,,,,,,,,,,sub_908,2024-03-11_09h44.21.827,Reversal,2023.1.3,59.90621083639333,4,
12,exp1.png,exp2.png,,,,,,,,,,,,,,,,,,0,0,0,0,0,12,12,12,,,,,,,,,False,12,93,False,exp1.png,exp2.png,trial_right_image,-1,exp2.png,4,exp2.png,exp1.png,1,1,non-reversed,correct,0.639249013007492,1,valid_win,640.0312179999996,48,,,,,,,,,,,,,,,,,,sub_908,2024-03-11_09h44.21.827,Reversal,2023.1.3,59.90621083639333,4,
13,exp3.png,exp4.png,,,,,,,,,,,,,,,,,,0,0,0,0,0,13,13,13,,,,,,,,,False,13,94,True,exp4.png,exp3.png,trial_left_image,1,exp4.png,4,exp3.png,exp4.png,1,3,reversed,incorrect,0.7929502376197457,0,valid_lose,647.1456033999998,48,,,,,,,,,,,,,,,,,,sub_908,2024-03-11_09h44.21.827,Reversal,2023.1.3,59.90621083639333,4,
14,exp1.png,exp2.png,,,,,,,,,,,,,,,,,,0,0,0,0,0,14,14,14,,,,,,,,,False,14,95,True,exp2.png,exp1.png,trial_right_image,-1,exp1.png,4,exp2.png,exp1.png,0,2,non-reversed,incorrect,0.39755997853084,0,valid_lose,652.6603805999998,48,,,,,,,,,,,,,,,,,,sub_908,2024-03-11_09h44.21.827,Reversal,2023.1.3,59.90621083639333,4,
15,exp3.png,exp4.png,,,,,,,,,,,,,,,,,,0,0,0,0,0,15,15,15,,,,,,,,,False,15,96,False,exp3.png,exp4.png,trial_right_image,-1,exp4.png,4,exp3.png,exp4.png,1,3,reversed,incorrect,0.5431722553626158,0,valid_lose,658.5423203999999,48,,,,,,,,,,,,,,,,,,sub_908,2024-03-11_09h44.21.827,Reversal,2023.1.3,59.90621083639333,4,
16,exp1.png,exp2.png,,,,,,,,,,,,,,,,,,0,0,0,0,0,16,16,16,,,,,,,,,False,16,97,False,exp1.png,exp2.png,trial_left_image,1,exp1.png,4,exp2.png,exp1.png,0,2,non-reversed,incorrect,0.8595520140629171,0,valid_lose,663.5400593999998,48,,,,,,,,,,,,,,,,,,sub_908,2024-03-11_09h44.21.827,Reversal,2023.1.3,59.90621083639333,4,
17,exp3.png,exp4.png,,,,,,,,,,,,,,,,,,0,0,0,0,0,17,17,17,,,,,,,,,False,17,98,False,exp3.png,exp4.png,trial_right_image,-1,exp4.png,4,exp3.png,exp4.png,1,3,reversed,incorrect,0.6966574116062895,0,valid_lose,668.4719960999996,48,,,,,,,,,,,,,,,,,,sub_908,2024-03-11_09h44.21.827,Reversal,2023.1.3,59.90621083639333,4,
18,exp1.png,exp2.png,,,,,,,,,,,,,,,,,,0,0,0,0,0,18,18,18,,,,,,,,,False,18,99,False,exp1.png,exp2.png,trial_left_image,1,exp1.png,4,exp2.png,exp1.png,0,2,non-reversed,incorrect,0.5951387153189074,0,valid_lose,672.670188,48,,,,,,,,,,,,,,,,,,sub_908,2024-03-11_09h44.21.827,Reversal,2023.1.3,59.90621083639333,4,
19,exp3.png,exp4.png,,,,,,,,,,,,,,,,,,0,0,0,0,0,19,19,19,,,,,,,,,False,19,100,True,exp4.png,exp3.png,trial_right_image,-1,exp3.png,4,exp3.png,exp4.png,0,4,reversed,correct,0.33341459464796364,1,valid_win,678.4013200999998,49,,,,,,,,,,,,,,,,,,sub_908,2024-03-11_09h44.21.827,Reversal,2023.1.3,59.90621083639333,4,
20,exp1.png,exp2.png,,,,,,,,,,,,,,,,,,0,0,0,0,0,20,20,20,,,,,,,,,True,,,,,,,,,,,,,,,,,,,,,,,,,,,,,,,,,,,,,,sub_908,2024-03-11_09h44.21.827,Reversal,2023.1.3,59.90621083639333,4,
,,,exp1.png,,,,,,,,,,,,,,,,,0,0,0,0,,,,,0,0,0,0,0,0,0,0,,,,,,,,,,,,,,,,,,,,,,745.3314839,None,None,[],,,,,,,,,,,,,,sub_908,2024-03-11_09h44.21.827,Reversal,2023.1.3,59.90621083639333,4,
,,,exp2.png,,,,,,,,,,,,,,,,,0,0,0,0,,,,,0,0,0,0,0,1,1,1,,,,,,,,,,,,,,,,,,,,,,759.8923105999997,None,None,[],,,,,,,,,,,,,,sub_908,2024-03-11_09h44.21.827,Reversal,2023.1.3,59.90621083639333,4,
,,,exp3.png,,,,,,,,,,,,,,,,,0,0,0,0,,,,,0,0,0,0,0,2,2,2,,,,,,,,,,,,,,,,,,,,,,761.3418227999996,16.0,3.627711200000249,"[(16.0, 3.627711200000249)]",,,,16.0,,,,,,,,,,sub_908,2024-03-11_09h44.21.827,Reversal,2023.1.3,59.90621083639333,4,
,,,exp4.png,,,,,,,,,,,,,,,,,0,0,0,0,,,,,0,0,0,0,0,3,3,3,,,,,,,,,,,,,,,,,,,,,,766.1901700999997,81.0,2.2608021999999437,"[(81.0, 2.2608021999999437)]",81.0,,,,,,,,,,,,,sub_908,2024-03-11_09h44.21.827,Reversal,2023.1.3,59.90621083639333,4,
0,exp1.png,exp2.png,,,,,,,,,,,,,,,,,,1,0,1,0,0,0,0,0,,,,,,,,,False,20,101,True,exp2.png,exp1.png,trial_left_image,1,exp2.png,4,exp2.png,exp1.png,1,1,non-reversed,correct,0.01372840179387358,0,invalid_lose,708.2914756999999,49,,,,,,,,,,,,,,,,,,sub_908,2024-03-11_09h44.21.827,Reversal,2023.1.3,59.90621083639333,4,
1,exp3.png,exp4.png,,,,,,,,,,,,,,,,,,1,0,1,0,0,1,1,1,,,,,,,,,False,21,102,False,exp3.png,exp4.png,trial_left_image,1,exp3.png,4,exp3.png,exp4.png,0,4,reversed,correct,0.00870332402517282,0,invalid_lose,714.3230790999996,49,,,,,,,,,,,,,,,,,,sub_908,2024-03-11_09h44.21.827,Reversal,2023.1.3,59.90621083639333,4,
2,exp1.png,exp2.png,,,,,,,,,,,,,,,,,,1,0,1,0,0,2,2,2,,,,,,,,,False,22,103,False,exp1.png,exp2.png,trial_right_image,-1,exp2.png,4,exp2.png,exp1.png,1,1,non-reversed,correct,0.6060416807476989,1,valid_win,718.9877038,50,,,,,,,,,,,,,,,,,,sub_908,2024-03-11_09h44.21.827,Reversal,2023.1.3,59.90621083639333,4,
3,exp3.png,exp4.png,,,,,,,,,,,,,,,,,,1,0,1,0,0,3,3,3,,,,,,,,,False,23,104,False,exp3.png,exp4.png,trial_right_image,-1,exp4.png,4,exp3.png,exp4.png,1,3,reversed,incorrect,0.9701593814067495,0,valid_lose,724.6860583999996,50,,,,,,,,,,,,,,,,,,sub_908,2024-03-11_09h44.21.827,Reversal,2023.1.3,59.90621083639333,4,
4,exp1.png,exp2.png,,,,,,,,,,,,,,,,,,1,0,1,0,0,4,4,4,,,,,,,,,False,24,105,True,exp2.png,exp1.png,trial_left_image,1,exp2.png,4,exp2.png,exp1.png,1,1,non-reversed,correct,0.9932230334610886,1,valid_win,730.6006244999999,51,,,,,,,,,,,,,,,,,,sub_908,2024-03-11_09h44.21.827,Reversal,2023.1.3,59.90621083639333,4,
5,exp3.png,exp4.png,,,,,,,,,,,,,,,,,,1,0,1,0,0,5,5,5,,,,,,,,,False,25,106,False,exp3.png,exp4.png,trial_right_image,-1,exp4.png,4,exp3.png,exp4.png,1,3,reversed,incorrect,0.8974045088744671,0,valid_lose,736.1318760999998,51,,,,,,,,,,,,,,,,,,sub_908,2024-03-11_09h44.21.827,Reversal,2023.1.3,59.90621083639333,4,
6,exp1.png,exp2.png,,,,,,,,,,,,,,,,,,1,0,1,0,0,6,6,6,,,,,,,,,False,26,107,False,exp1.png,exp2.png,trial_right_image,-1,exp2.png,4,exp2.png,exp1.png,1,1,non-reversed,correct,0.37703368218477074,1,valid_win,742.0136201,52,,,,,,,,,,,,,,,,,,sub_908,2024-03-11_09h44.21.827,Reversal,2023.1.3,59.90621083639333,4,
7,exp3.png,exp4.png,,,,,,,,,,,,,,,,,,1,0,1,0,0,7,7,7,,,,,,,,,False,27,108,False,exp3.png,exp4.png,trial_left_image,1,exp3.png,4,exp3.png,exp4.png,0,4,reversed,correct,0.28812002494325417,1,valid_win,746.5449711999995,53,,,,,,,,,,,,,,,,,,sub_908,2024-03-11_09h44.21.827,Reversal,2023.1.3,59.90621083639333,4,
8,exp1.png,exp2.png,,,,,,,,,,,,,,,,,,1,0,1,0,0,8,8,8,,,,,,,,,False,28,109,False,exp1.png,exp2.png,trial_right_image,-1,exp2.png,4,exp2.png,exp1.png,1,1,non-reversed,correct,0.21027494783961087,0,invalid_lose,752.9933214999996,53,,,,,,,,,,,,,,,,,,sub_908,2024-03-11_09h44.21.827,Reversal,2023.1.3,59.90621083639333,4,
9,exp3.png,exp4.png,,,,,,,,,,,,,,,,,,1,0,1,0,0,9,9,9,,,,,,,,,False,29,110,True,exp4.png,exp3.png,trial_right_image,-1,exp3.png,4,exp3.png,exp4.png,0,4,reversed,correct,0.4553285888212991,1,valid_win,758.6076539000001,54,,,,,,,,,,,,,,,,,,sub_908,2024-03-11_09h44.21.827,Reversal,2023.1.3,59.90621083639333,4,
10,exp1.png,exp2.png,,,,,,,,,,,,,,,,,,1,0,1,0,0,10,10,10,,,,,,,,,False,30,111,True,exp2.png,exp1.png,trial_left_image,1,exp2.png,4,exp2.png,exp1.png,1,1,non-reversed,correct,0.725514082795263,1,valid_win,765.1720101999995,55,,,,,,,,,,,,,,,,,,sub_908,2024-03-11_09h44.21.827,Reversal,2023.1.3,59.90621083639333,4,
11,exp3.png,exp4.png,,,,,,,,,,,,,,,,,,1,0,1,0,0,11,11,11,,,,,,,,,False,31,112,True,exp4.png,exp3.png,trial_right_image,-1,exp3.png,4,exp3.png,exp4.png,0,4,reversed,correct,0.0110314058150075,0,invalid_lose,771.8702571999997,55,,,,,,,,,,,,,,,,,,sub_908,2024-03-11_09h44.21.827,Reversal,2023.1.3,59.90621083639333,4,
12,exp1.png,exp2.png,,,,,,,,,,,,,,,,,,1,0,1,0,0,12,12,12,,,,,,,,,False,32,113,False,exp1.png,exp2.png,trial_right_image,-1,exp2.png,4,exp2.png,exp1.png,1,1,non-reversed,correct,0.023499797981172632,0,invalid_lose,780.1003311999998,55,,,,,,,,,,,,,,,,,,sub_908,2024-03-11_09h44.21.827,Reversal,2023.1.3,59.90621083639333,4,
13,exp3.png,exp4.png,,,,,,,,,,,,,,,,,,1,0,1,0,0,13,13,13,,,,,,,,,False,33,114,True,exp4.png,exp3.png,trial_right_image,-1,exp3.png,4,exp3.png,exp4.png,0,4,reversed,correct,0.00063122333360488,0,invalid_lose,786.3652216999994,55,,,,,,,,,,,,,,,,,,sub_908,2024-03-11_09h44.21.827,Reversal,2023.1.3,59.90621083639333,4,
14,exp1.png,exp2.png,,,,,,,,,,,,,,,,,,1,0,1,0,0,14,14,14,,,,,,,,,False,34,115,True,exp2.png,exp1.png,trial_left_image,1,exp2.png,4,exp2.png,exp1.png,1,1,non-reversed,correct,0.2873041399198064,1,valid_win,790.8298798000001,56,,,,,,,,,,,,,,,,,,sub_908,2024-03-11_09h44.21.827,Reversal,2023.1.3,59.90621083639333,4,
15,exp3.png,exp4.png,,,,,,,,,,,,,,,,,,1,0,1,0,0,15,15,15,,,,,,,,,False,35,116,False,exp3.png,exp4.png,trial_left_image,1,exp3.png,4,exp3.png,exp4.png,0,4,reversed,correct,0.22890193720294638,0,invalid_lose,795.9786841,56,,,,,,,,,,,,,,,,,,sub_908,2024-03-11_09h44.21.827,Reversal,2023.1.3,59.90621083639333,4,
16,exp1.png,exp2.png,,,,,,,,,,,,,,,,,,1,0,1,0,0,16,16,16,,,,,,,,,False,36,117,True,exp2.png,exp1.png,trial_left_image,1,exp2.png,4,exp2.png,exp1.png,1,1,non-reversed,correct,0.6303260906633281,1,valid_win,801.5095232999997,57,,,,,,,,,,,,,,,,,,sub_908,2024-03-11_09h44.21.827,Reversal,2023.1.3,59.90621083639333,4,
17,exp3.png,exp4.png,,,,,,,,,,,,,,,,,,1,0,1,0,0,17,17,17,,,,,,,,,False,37,118,True,exp4.png,exp3.png,trial_right_image,-1,exp3.png,4,exp3.png,exp4.png,0,4,reversed,correct,0.9826652364049486,1,valid_win,807.4910570999996,58,,,,,,,,,,,,,,,,,,sub_908,2024-03-11_09h44.21.827,Reversal,2023.1.3,59.90621083639333,4,
18,exp1.png,exp2.png,,,,,,,,,,,,,,,,,,1,0,1,0,0,18,18,18,,,,,,,,,False,38,119,False,exp1.png,exp2.png,trial_right_image,-1,exp2.png,4,exp2.png,exp1.png,1,1,non-reversed,correct,0.2654971881851692,1,valid_win,813.455735,59,,,,,,,,,,,,,,,,,,sub_908,2024-03-11_09h44.21.827,Reversal,2023.1.3,59.90621083639333,4,
19,exp3.png,exp4.png,,,,,,,,,,,,,,,,,,1,0,1,0,0,19,19,19,,,,,,,,,False,39,120,True,exp4.png,exp3.png,trial_right_image,-1,exp3.png,4,exp3.png,exp4.png,0,4,reversed,correct,0.4115321322247045,1,valid_win,818.487173,60,,,,,,,,,,,,,,,,,,sub_908,2024-03-11_09h44.21.827,Reversal,2023.1.3,59.90621083639333,4,
20,exp1.png,exp2.png,,,,,,,,,,,,,,,,,,1,0,1,0,0,20,20,20,,,,,,,,,True,,,,,,,,,,,,,,,,,,,,,,,,,,,,,,,,,,,,,,sub_908,2024-03-11_09h44.21.827,Reversal,2023.1.3,59.90621083639333,4,
,,,exp1.png,,,,,,,,,,,,,,,,,1,0,1,0,,,,,0,0,0,0,0,0,0,0,,,,,,,,,,,,,,,,,,,,,,885.4202041999997,1.0,2.6927198000003045,"[(1.0, 2.6927198000003045)]",,1.0,,,,,,,,,,,,sub_908,2024-03-11_09h44.21.827,Reversal,2023.1.3,59.90621083639333,4,
,,,exp2.png,,,,,,,,,,,,,,,,,1,0,1,0,,,,,0,0,0,0,0,1,1,1,,,,,,,,,,,,,,,,,,,,,,889.2291096999998,100.0,1.9493520000005446,"[(73.0, 1.5461966000002576), (100.0, 1.9493520000005446)]",,,100.0,,,,,,,,,,,sub_908,2024-03-11_09h44.21.827,Reversal,2023.1.3,59.90621083639333,4,
,,,exp3.png,,,,,,,,,,,,,,,,,1,0,1,0,,,,,0,0,0,0,0,2,2,2,,,,,,,,,,,,,,,,,,,,,,892.2133990000002,100.0,2.711406899999929,"[(82.0, 1.2448281999995743), (100.0, 2.711406899999929)]",,,,100.0,,,,,,,,,,sub_908,2024-03-11_09h44.21.827,Reversal,2023.1.3,59.90621083639333,4,
,,,exp4.png,,,,,,,,,,,,,,,,,1,0,1,0,,,,,0,0,0,0,0,3,3,3,,,,,,,,,,,,,,,,,,,,,,895.9133683999999,1.0,1.6435692000004565,"[(1.0, 1.6435692000004565)]",1.0,,,,,,,,,,,,,sub_908,2024-03-11_09h44.21.827,Reversal,2023.1.3,59.90621083639333,4,
0,exp1.png,exp2.png,,,,,,,,,,,,,,,,,,2,0,2,0,0,0,0,0,,,,,,,,,False,40,121,True,exp2.png,exp1.png,trial_right_image,-1,exp1.png,4,exp2.png,exp1.png,0,2,non-reversed,incorrect,0.5203929899629358,0,valid_lose,837.4975651999998,60,,,,,,,,,,,,,,,,,,sub_908,2024-03-11_09h44.21.827,Reversal,2023.1.3,59.90621083639333,4,
1,exp3.png,exp4.png,,,,,,,,,,,,,,,,,,2,0,2,0,0,1,1,1,,,,,,,,,False,41,122,False,exp3.png,exp4.png,trial_right_image,-1,exp4.png,4,exp3.png,exp4.png,1,3,reversed,incorrect,0.1946728276611146,1,invalid_win,843.2623183000001,61,,,,,,,,,,,,,,,,,,sub_908,2024-03-11_09h44.21.827,Reversal,2023.1.3,59.90621083639333,4,
2,exp1.png,exp2.png,,,,,,,,,,,,,,,,,,2,0,2,0,0,2,2,2,,,,,,,,,False,42,123,True,exp2.png,exp1.png,trial_left_image,1,exp2.png,4,exp2.png,exp1.png,1,1,non-reversed,correct,0.6556306875205407,1,valid_win,847.3804907999997,62,,,,,,,,,,,,,,,,,,sub_908,2024-03-11_09h44.21.827,Reversal,2023.1.3,59.90621083639333,4,
3,exp3.png,exp4.png,,,,,,,,,,,,,,,,,,2,0,2,0,0,3,3,3,,,,,,,,,False,43,124,True,exp4.png,exp3.png,trial_left_image,1,exp4.png,4,exp3.png,exp4.png,1,3,reversed,incorrect,0.5796265996741267,0,valid_lose,852.5426882999996,62,,,,,,,,,,,,,,,,,,sub_908,2024-03-11_09h44.21.827,Reversal,2023.1.3,59.90621083639333,4,
4,exp1.png,exp2.png,,,,,,,,,,,,,,,,,,2,0,2,0,0,4,4,4,,,,,,,,,False,44,125,False,exp1.png,exp2.png,trial_right_image,-1,exp2.png,4,exp2.png,exp1.png,1,1,non-reversed,correct,0.6494616854826059,1,valid_win,863.5060330000001,63,,,,,,,,,,,,,,,,,,sub_908,2024-03-11_09h44.21.827,Reversal,2023.1.3,59.90621083639333,4,
5,exp3.png,exp4.png,,,,,,,,,,,,,,,,,,2,0,2,0,0,5,5,5,,,,,,,,,False,45,126,False,exp3.png,exp4.png,trial_left_image,1,exp3.png,4,exp3.png,exp4.png,0,4,reversed,correct,0.9161185513108115,1,valid_win,869.0033370999995,64,,,,,,,,,,,,,,,,,,sub_908,2024-03-11_09h44.21.827,Reversal,2023.1.3,59.90621083639333,4,
6,exp1.png,exp2.png,,,,,,,,,,,,,,,,,,2,0,2,0,0,6,6,6,,,,,,,,,False,46,127,True,exp2.png,exp1.png,trial_right_image,-1,exp1.png,4,exp2.png,exp1.png,0,2,non-reversed,incorrect,0.9249352487843494,0,valid_lose,874.7683403999995,64,,,,,,,,,,,,,,,,,,sub_908,2024-03-11_09h44.21.827,Reversal,2023.1.3,59.90621083639333,4,
7,exp3.png,exp4.png,,,,,,,,,,,,,,,,,,2,0,2,0,0,7,7,7,,,,,,,,,False,47,128,True,exp4.png,exp3.png,trial_left_image,1,exp4.png,4,exp3.png,exp4.png,1,3,reversed,incorrect,0.8348292396262458,0,valid_lose,880.3829480999998,64,,,,,,,,,,,,,,,,,,sub_908,2024-03-11_09h44.21.827,Reversal,2023.1.3,59.90621083639333,4,
8,exp1.png,exp2.png,,,,,,,,,,,,,,,,,,2,0,2,0,0,8,8,8,,,,,,,,,False,48,129,True,exp2.png,exp1.png,trial_left_image,1,exp2.png,4,exp2.png,exp1.png,1,1,non-reversed,correct,0.7040749973040392,1,valid_win,884.7812518999995,65,,,,,,,,,,,,,,,,,,sub_908,2024-03-11_09h44.21.827,Reversal,2023.1.3,59.90621083639333,4,
9,exp3.png,exp4.png,,,,,,,,,,,,,,,,,,2,0,2,0,0,9,9,9,,,,,,,,,False,49,130,False,exp3.png,exp4.png,trial_left_image,1,exp3.png,4,exp3.png,exp4.png,0,4,reversed,correct,0.5238299294257768,1,valid_win,896.2273694,66,,,,,,,,,,,,,,,,,,sub_908,2024-03-11_09h44.21.827,Reversal,2023.1.3,59.90621083639333,4,
10,exp1.png,exp2.png,,,,,,,,,,,,,,,,,,2,0,2,0,0,10,10,10,,,,,,,,,False,50,131,False,exp1.png,exp2.png,trial_right_image,-1,exp2.png,4,exp2.png,exp1.png,1,1,non-reversed,correct,0.5543038317959775,1,valid_win,901.3423290999995,67,,,,,,,,,,,,,,,,,,sub_908,2024-03-11_09h44.21.827,Reversal,2023.1.3,59.90621083639333,4,
11,exp3.png,exp4.png,,,,,,,,,,,,,,,,,,2,0,2,0,0,11,11,11,,,,,,,,,False,51,132,False,exp3.png,exp4.png,trial_left_image,1,exp3.png,4,exp3.png,exp4.png,0,4,reversed,correct,0.13237013344198567,0,invalid_lose,906.8571083000002,67,,,,,,,,,,,,,,,,,,sub_908,2024-03-11_09h44.21.827,Reversal,2023.1.3,59.90621083639333,4,
12,exp1.png,exp2.png,,,,,,,,,,,,,,,,,,2,0,2,0,0,12,12,12,,,,,,,,,False,52,133,False,exp1.png,exp2.png,trial_right_image,-1,exp2.png,4,exp2.png,exp1.png,1,1,non-reversed,correct,0.8698923803449583,1,valid_win,912.1052346000001,68,,,,,,,,,,,,,,,,,,sub_908,2024-03-11_09h44.21.827,Reversal,2023.1.3,59.90621083639333,4,
13,exp3.png,exp4.png,,,,,,,,,,,,,,,,,,2,0,2,0,0,13,13,13,,,,,,,,,False,53,134,True,exp4.png,exp3.png,trial_right_image,-1,exp3.png,4,exp3.png,exp4.png,0,4,reversed,correct,0.6191671296829251,1,valid_win,918.9866740000002,69,,,,,,,,,,,,,,,,,,sub_908,2024-03-11_09h44.21.827,Reversal,2023.1.3,59.90621083639333,4,
14,exp1.png,exp2.png,,,,,,,,,,,,,,,,,,2,0,2,0,0,14,14,14,,,,,,,,,False,54,135,False,exp1.png,exp2.png,trial_right_image,-1,exp2.png,4,exp2.png,exp1.png,1,1,non-reversed,correct,0.43594859464610813,1,valid_win,924.7344812999995,70,,,,,,,,,,,,,,,,,,sub_908,2024-03-11_09h44.21.827,Reversal,2023.1.3,59.90621083639333,4,
15,exp3.png,exp4.png,,,,,,,,,,,,,,,,,,2,0,2,0,0,15,15,15,,,,,,,,,False,55,136,False,exp3.png,exp4.png,trial_left_image,1,exp3.png,4,exp3.png,exp4.png,0,4,reversed,correct,0.3214250512988577,1,valid_win,930.8000762999995,71,,,,,,,,,,,,,,,,,,sub_908,2024-03-11_09h44.21.827,Reversal,2023.1.3,59.90621083639333,4,
16,exp1.png,exp2.png,,,,,,,,,,,,,,,,,,2,0,2,0,0,16,16,16,,,,,,,,,False,56,137,False,exp1.png,exp2.png,trial_right_image,-1,exp2.png,4,exp2.png,exp1.png,1,1,non-reversed,correct,0.9494983973898462,1,valid_win,935.9642409000003,72,,,,,,,,,,,,,,,,,,sub_908,2024-03-11_09h44.21.827,Reversal,2023.1.3,59.90621083639333,4,
17,exp3.png,exp4.png,,,,,,,,,,,,,,,,,,2,0,2,0,0,17,17,17,,,,,,,,,False,57,138,True,exp4.png,exp3.png,trial_right_image,-1,exp3.png,4,exp3.png,exp4.png,0,4,reversed,correct,0.5729903731642568,1,valid_win,941.4286262,73,,,,,,,,,,,,,,,,,,sub_908,2024-03-11_09h44.21.827,Reversal,2023.1.3,59.90621083639333,4,
18,exp1.png,exp2.png,,,,,,,,,,,,,,,,,,2,0,2,0,0,18,18,18,,,,,,,,,False,58,139,True,exp2.png,exp1.png,trial_left_image,1,exp2.png,4,exp2.png,exp1.png,1,1,non-reversed,correct,0.5454657624042842,1,valid_win,946.4943761,74,,,,,,,,,,,,,,,,,,sub_908,2024-03-11_09h44.21.827,Reversal,2023.1.3,59.90621083639333,4,
19,exp3.png,exp4.png,,,,,,,,,,,,,,,,,,2,0,2,0,0,19,19,19,,,,,,,,,False,59,140,True,exp4.png,exp3.png,trial_right_image,-1,exp3.png,4,exp3.png,exp4.png,0,4,reversed,correct,0.8524306172925078,1,valid_win,952.1755997999994,75,,,,,,,,,,,,,,,,,,sub_908,2024-03-11_09h44.21.827,Reversal,2023.1.3,59.90621083639333,4,
20,exp1.png,exp2.png,,,,,,,,,,,,,,,,,,2,0,2,0,0,20,20,20,,,,,,,,,True,,,,,,,,,,,,,,,,,,,,,,,,,,,,,,,,,,,,,,sub_908,2024-03-11_09h44.21.827,Reversal,2023.1.3,59.90621083639333,4,
,,,exp1.png,,,,,,,,,,,,,,,,,2,0,2,0,,,,,0,0,0,0,0,0,0,0,,,,,,,,,,,,,,,,,,,,,,1019.0992466999996,1.0,2.9836506999999983,"[(1.0, 2.9836506999999983)]",,1.0,,,,,,,,,,,,sub_908,2024-03-11_09h44.21.827,Reversal,2023.1.3,59.90621083639333,4,
,,,exp2.png,,,,,,,,,,,,,,,,,2,0,2,0,,,,,0,0,0,0,0,1,1,1,,,,,,,,,,,,,,,,,,,,,,1023.2363643999997,87.0,4.212121999999908,"[(63.0, 2.2808450000002267), (87.0, 4.212121999999908)]",,,87.0,,,,,,,,,,,sub_908,2024-03-11_09h44.21.827,Reversal,2023.1.3,59.90621083639333,4,
,,,exp3.png,,,,,,,,,,,,,,,,,2,0,2,0,,,,,0,0,0,0,0,2,2,2,,,,,,,,,,,,,,,,,,,,,,1028.5176364999998,1.0,2.761586599999646,"[(1.0, 2.761586599999646)]",,,,1.0,,,,,,,,,,sub_908,2024-03-11_09h44.21.827,Reversal,2023.1.3,59.90621083639333,4,
,,,exp4.png,,,,,,,,,,,,,,,,,2,0,2,0,,,,,0,0,0,0,0,3,3,3,,,,,,,,,,,,,,,,,,,,,,1032.5355144999994,73.0,2.0427308999996967,"[(73.0, 2.0427308999996967)]",73.0,,,,,,,,,,,,,sub_908,2024-03-11_09h44.21.827,Reversal,2023.1.3,59.90621083639333,4,
,,,,,,,,,,,,,,,,,,,,,,,,,,,,,,,,,,,,,,,,,,,,,,,,,,,,,,,,75,,,,,,,,,,86,45,41,406.7154472999996,1,space,47.054275000000416,None,sub_908,2024-03-11_09h44.21.827,Reversal,2023.1.3,59.90621083639333,4,
