trial_index,trial_image1_file,trial_image2_file,image_file,learning_outer_loop.thisRepN,learning_outer_loop.thisTrialN,learning_outer_loop.thisN,learning_outer_loop.thisIndex,learning_inner_loop.thisRepN,learning_inner_loop.thisTrialN,learning_inner_loop.thisN,learning_inner_loop.thisIndex,learning_estimation_outer_loop.thisRepN,learning_estimation_outer_loop.thisTrialN,learning_estimation_outer_loop.thisN,learning_estimation_outer_loop.thisIndex,learning_estimation_inner_loop.thisRepN,learning_estimation_inner_loop.thisTrialN,learning_estimation_inner_loop.thisN,learning_estimation_inner_loop.thisIndex,reversal_outer_loop.thisRepN,reversal_outer_loop.thisTrialN,reversal_outer_loop.thisN,reversal_outer_loop.thisIndex,reversal_inner_loop.thisRepN,reversal_inner_loop.thisTrialN,reversal_inner_loop.thisN,reversal_inner_loop.thisIndex,reversal_estimation_outer_loop.thisRepN,reversal_estimation_outer_loop.thisTrialN,reversal_estimation_outer_loop.thisN,reversal_estimation_outer_loop.thisIndex,reversal_estimation_inner_loop.thisRepN,reversal_estimation_inner_loop.thisTrialN,reversal_estimation_inner_loop.thisN,reversal_estimation_inner_loop.thisIndex,skipped,total_trial_counter,trial_num,left_right_flip,left_image_file,right_image_file,clicked_stimulus_side,side,clicked_stimulus,version,high_prob_image_file,low_prob_image_file,choice_a,choice_b,pair_type,correct,trial_feedback_random,reward,trial_type,overall_time_after_trial,score,estimation_exp1.png,estimation_rating.response,estimation_rating.rt,estimation_rating.history,estimation_rating.started,estimation_rating.stopped,estimation_exp2.png,estimation_exp3.png,estimation_exp4.png,total_learning_time,total_correct,learning_correct,reversal_correct,total_reversal_time,extra_block,participant,date,expName,psychopyVersion,frameRate,ver,
0,exp1.png,exp2.png,,0,0,0,0,0,0,0,0,,,,,,,,,,,,,,,,,,,,,,,,,False,0,1,True,exp2.png,exp1.png,trial_right_image,-1,exp1.png,3,exp2.png,exp1.png,0,4,reversed,incorrect,0.5427853464136905,0,valid_lose,15.632482300046831,0,,,,,,,,,,,,,,,,sub_535,2024-06-24_10h38.58.769,Reversal,2022.1.2,60.044589101885045,3,
1,exp3.png,exp4.png,,0,0,0,0,0,1,1,1,,,,,,,,,,,,,,,,,,,,,,,,,False,1,2,False,exp3.png,exp4.png,trial_right_image,-1,exp4.png,3,exp4.png,exp3.png,1,1,non-reversed,correct,0.4735330667926462,1,valid_win,27.298721000086516,1,,,,,,,,,,,,,,,,sub_535,2024-06-24_10h38.58.769,Reversal,2022.1.2,60.044589101885045,3,
2,exp1.png,exp2.png,,0,0,0,0,0,2,2,2,,,,,,,,,,,,,,,,,,,,,,,,,False,2,3,True,exp2.png,exp1.png,trial_left_image,1,exp2.png,3,exp2.png,exp1.png,1,3,reversed,correct,0.3714742530817069,1,valid_win,32.18214020016603,2,,,,,,,,,,,,,,,,sub_535,2024-06-24_10h38.58.769,Reversal,2022.1.2,60.044589101885045,3,
3,exp3.png,exp4.png,,0,0,0,0,0,3,3,3,,,,,,,,,,,,,,,,,,,,,,,,,False,3,4,True,exp4.png,exp3.png,trial_left_image,1,exp4.png,3,exp4.png,exp3.png,1,1,non-reversed,correct,0.3420222211131344,1,valid_win,37.9991188000422,3,,,,,,,,,,,,,,,,sub_535,2024-06-24_10h38.58.769,Reversal,2022.1.2,60.044589101885045,3,
4,exp1.png,exp2.png,,0,0,0,0,0,4,4,4,,,,,,,,,,,,,,,,,,,,,,,,,False,4,5,False,exp1.png,exp2.png,trial_right_image,-1,exp2.png,3,exp2.png,exp1.png,1,3,reversed,correct,0.909737431261441,1,valid_win,43.715315100038424,4,,,,,,,,,,,,,,,,sub_535,2024-06-24_10h38.58.769,Reversal,2022.1.2,60.044589101885045,3,
5,exp3.png,exp4.png,,0,0,0,0,0,5,5,5,,,,,,,,,,,,,,,,,,,,,,,,,False,5,6,False,exp3.png,exp4.png,trial_right_image,-1,exp4.png,3,exp4.png,exp3.png,1,1,non-reversed,correct,0.8135177055230415,1,valid_win,48.28169280011207,5,,,,,,,,,,,,,,,,sub_535,2024-06-24_10h38.58.769,Reversal,2022.1.2,60.044589101885045,3,
6,exp1.png,exp2.png,,0,0,0,0,0,6,6,6,,,,,,,,,,,,,,,,,,,,,,,,,False,6,7,True,exp2.png,exp1.png,trial_left_image,1,exp2.png,3,exp2.png,exp1.png,1,3,reversed,correct,0.5472483242494812,1,valid_win,53.731698100222275,6,,,,,,,,,,,,,,,,sub_535,2024-06-24_10h38.58.769,Reversal,2022.1.2,60.044589101885045,3,
7,exp3.png,exp4.png,,0,0,0,0,0,7,7,7,,,,,,,,,,,,,,,,,,,,,,,,,False,7,8,False,exp3.png,exp4.png,trial_right_image,-1,exp4.png,3,exp4.png,exp3.png,1,1,non-reversed,correct,0.12424182455454158,0,invalid_lose,58.23177060019225,6,,,,,,,,,,,,,,,,sub_535,2024-06-24_10h38.58.769,Reversal,2022.1.2,60.044589101885045,3,
8,exp1.png,exp2.png,,0,0,0,0,0,8,8,8,,,,,,,,,,,,,,,,,,,,,,,,,False,8,9,True,exp2.png,exp1.png,trial_left_image,1,exp2.png,3,exp2.png,exp1.png,1,3,reversed,correct,0.8650759929738373,1,valid_win,63.26510690012947,7,,,,,,,,,,,,,,,,sub_535,2024-06-24_10h38.58.769,Reversal,2022.1.2,60.044589101885045,3,
9,exp3.png,exp4.png,,0,0,0,0,0,9,9,9,,,,,,,,,,,,,,,,,,,,,,,,,False,9,10,True,exp4.png,exp3.png,trial_left_image,1,exp4.png,3,exp4.png,exp3.png,1,1,non-reversed,correct,0.5039183249318919,1,valid_win,67.73165980004705,8,,,,,,,,,,,,,,,,sub_535,2024-06-24_10h38.58.769,Reversal,2022.1.2,60.044589101885045,3,
10,exp1.png,exp2.png,,0,0,0,0,0,10,10,10,,,,,,,,,,,,,,,,,,,,,,,,,False,10,11,False,exp1.png,exp2.png,trial_right_image,-1,exp2.png,3,exp2.png,exp1.png,1,3,reversed,correct,0.944521845412829,1,valid_win,73.04815190006047,9,,,,,,,,,,,,,,,,sub_535,2024-06-24_10h38.58.769,Reversal,2022.1.2,60.044589101885045,3,
11,exp3.png,exp4.png,,0,0,0,0,0,11,11,11,,,,,,,,,,,,,,,,,,,,,,,,,False,11,12,True,exp4.png,exp3.png,trial_left_image,1,exp4.png,3,exp4.png,exp3.png,1,1,non-reversed,correct,0.777277298325188,1,valid_win,79.26466129999608,10,,,,,,,,,,,,,,,,sub_535,2024-06-24_10h38.58.769,Reversal,2022.1.2,60.044589101885045,3,
12,exp1.png,exp2.png,,0,0,0,0,0,12,12,12,,,,,,,,,,,,,,,,,,,,,,,,,False,12,13,False,exp1.png,exp2.png,trial_right_image,-1,exp2.png,3,exp2.png,exp1.png,1,3,reversed,correct,0.21771134674263126,0,invalid_lose,83.9808235000819,10,,,,,,,,,,,,,,,,sub_535,2024-06-24_10h38.58.769,Reversal,2022.1.2,60.044589101885045,3,
13,exp3.png,exp4.png,,0,0,0,0,0,13,13,13,,,,,,,,,,,,,,,,,,,,,,,,,False,13,14,False,exp3.png,exp4.png,trial_right_image,-1,exp4.png,3,exp4.png,exp3.png,1,1,non-reversed,correct,0.43191131435962515,1,valid_win,97.63099360000342,11,,,,,,,,,,,,,,,,sub_535,2024-06-24_10h38.58.769,Reversal,2022.1.2,60.044589101885045,3,
14,exp1.png,exp2.png,,0,0,0,0,0,14,14,14,,,,,,,,,,,,,,,,,,,,,,,,,False,14,15,False,exp1.png,exp2.png,trial_right_image,-1,exp2.png,3,exp2.png,exp1.png,1,3,reversed,correct,0.269632789965466,1,valid_win,103.29750340012833,12,,,,,,,,,,,,,,,,sub_535,2024-06-24_10h38.58.769,Reversal,2022.1.2,60.044589101885045,3,
15,exp3.png,exp4.png,,0,0,0,0,0,15,15,15,,,,,,,,,,,,,,,,,,,,,,,,,False,15,16,True,exp4.png,exp3.png,trial_left_image,1,exp4.png,3,exp4.png,exp3.png,1,1,non-reversed,correct,0.5053206073039795,1,valid_win,110.48112870007753,13,,,,,,,,,,,,,,,,sub_535,2024-06-24_10h38.58.769,Reversal,2022.1.2,60.044589101885045,3,
16,exp1.png,exp2.png,,0,0,0,0,0,16,16,16,,,,,,,,,,,,,,,,,,,,,,,,,False,16,17,True,exp2.png,exp1.png,trial_left_image,1,exp2.png,3,exp2.png,exp1.png,1,3,reversed,correct,0.26527768931287166,1,valid_win,115.9629111001268,14,,,,,,,,,,,,,,,,sub_535,2024-06-24_10h38.58.769,Reversal,2022.1.2,60.044589101885045,3,
17,exp3.png,exp4.png,,0,0,0,0,0,17,17,17,,,,,,,,,,,,,,,,,,,,,,,,,False,17,18,False,exp3.png,exp4.png,trial_right_image,-1,exp4.png,3,exp4.png,exp3.png,1,1,non-reversed,correct,0.5261683411928886,1,valid_win,122.36343460017815,15,,,,,,,,,,,,,,,,sub_535,2024-06-24_10h38.58.769,Reversal,2022.1.2,60.044589101885045,3,
18,exp1.png,exp2.png,,0,0,0,0,0,18,18,18,,,,,,,,,,,,,,,,,,,,,,,,,False,18,19,True,exp2.png,exp1.png,trial_left_image,1,exp2.png,3,exp2.png,exp1.png,1,3,reversed,correct,0.6124365040166032,1,valid_win,129.84682610002346,16,,,,,,,,,,,,,,,,sub_535,2024-06-24_10h38.58.769,Reversal,2022.1.2,60.044589101885045,3,
19,exp3.png,exp4.png,,0,0,0,0,0,19,19,19,,,,,,,,,,,,,,,,,,,,,,,,,False,19,20,False,exp3.png,exp4.png,trial_right_image,-1,exp4.png,3,exp4.png,exp3.png,1,1,non-reversed,correct,0.3464552587524007,1,valid_win,134.69652410014533,17,,,,,,,,,,,,,,,,sub_535,2024-06-24_10h38.58.769,Reversal,2022.1.2,60.044589101885045,3,
20,exp1.png,exp2.png,,0,0,0,0,0,20,20,20,,,,,,,,,,,,,,,,,,,,,,,,,True,,,,,,,,,,,,,,,,,,,,,,,,,,,,,,,,,,,,sub_535,2024-06-24_10h38.58.769,Reversal,2022.1.2,60.044589101885045,3,
,,,exp1.png,0,0,0,0,,,,,0,0,0,0,0,0,0,0,,,,,,,,,,,,,,,,,,,,,,,,,,,,,,,,,,,,,,2.0,2.0,17.909844799898565,"[(2.0, 17.909844799898565)]",193.68439289997332,None,,,,,,,,,,sub_535,2024-06-24_10h38.58.769,Reversal,2022.1.2,60.044589101885045,3,
,,,exp2.png,0,0,0,0,,,,,0,0,0,0,0,1,1,1,,,,,,,,,,,,,,,,,,,,,,,,,,,,,,,,,,,,,,,99.0,5.100780799984932,"[(99.0, 5.100780799984932)]",213.60775880003348,None,99.0,,,,,,,,,sub_535,2024-06-24_10h38.58.769,Reversal,2022.1.2,60.044589101885045,3,
,,,exp3.png,0,0,0,0,,,,,0,0,0,0,0,2,2,2,,,,,,,,,,,,,,,,,,,,,,,,,,,,,,,,,,,,,,,1.0,7.450846699997783,"[(1.0, 7.450846699997783)]",220.28938420000486,None,,1.0,,,,,,,,sub_535,2024-06-24_10h38.58.769,Reversal,2022.1.2,60.044589101885045,3,
,,,exp4.png,0,0,0,0,,,,,0,0,0,0,0,3,3,3,,,,,,,,,,,,,,,,,,,,,,,,,,,,,,,,,,,,,,,100.0,4.533155699959025,"[(100.0, 4.533155699959025)]",229.3053307000082,None,,,100.0,,,,,,,sub_535,2024-06-24_10h38.58.769,Reversal,2022.1.2,60.044589101885045,3,
0,exp1.png,exp2.png,,1,0,1,0,0,0,0,0,,,,,,,,,,,,,,,,,,,,,,,,,False,20,21,False,exp1.png,exp2.png,trial_right_image,-1,exp2.png,3,exp2.png,exp1.png,1,3,reversed,correct,0.706649885321059,1,valid_win,184.39642290002666,18,,,,,,,,,,,,,,,,sub_535,2024-06-24_10h38.58.769,Reversal,2022.1.2,60.044589101885045,3,
1,exp3.png,exp4.png,,1,0,1,0,0,1,1,1,,,,,,,,,,,,,,,,,,,,,,,,,False,21,22,True,exp4.png,exp3.png,trial_left_image,1,exp4.png,3,exp4.png,exp3.png,1,1,non-reversed,correct,0.36352193647482123,1,valid_win,189.32874680007808,19,,,,,,,,,,,,,,,,sub_535,2024-06-24_10h38.58.769,Reversal,2022.1.2,60.044589101885045,3,
2,exp1.png,exp2.png,,1,0,1,0,0,2,2,2,,,,,,,,,,,,,,,,,,,,,,,,,False,22,23,False,exp1.png,exp2.png,trial_right_image,-1,exp2.png,3,exp2.png,exp1.png,1,3,reversed,correct,0.13830085417151006,0,invalid_lose,193.91264770017006,19,,,,,,,,,,,,,,,,sub_535,2024-06-24_10h38.58.769,Reversal,2022.1.2,60.044589101885045,3,
3,exp3.png,exp4.png,,1,0,1,0,0,3,3,3,,,,,,,,,,,,,,,,,,,,,,,,,False,23,24,False,exp3.png,exp4.png,trial_right_image,-1,exp4.png,3,exp4.png,exp3.png,1,1,non-reversed,correct,0.6551332544565633,1,valid_win,205.64542430010624,20,,,,,,,,,,,,,,,,sub_535,2024-06-24_10h38.58.769,Reversal,2022.1.2,60.044589101885045,3,
4,exp1.png,exp2.png,,1,0,1,0,0,4,4,4,,,,,,,,,,,,,,,,,,,,,,,,,False,24,25,True,exp2.png,exp1.png,trial_left_image,1,exp2.png,3,exp2.png,exp1.png,1,3,reversed,correct,0.5786579268221592,1,valid_win,211.1121519000735,21,,,,,,,,,,,,,,,,sub_535,2024-06-24_10h38.58.769,Reversal,2022.1.2,60.044589101885045,3,
5,exp3.png,exp4.png,,1,0,1,0,0,5,5,5,,,,,,,,,,,,,,,,,,,,,,,,,False,25,26,True,exp4.png,exp3.png,trial_left_image,1,exp4.png,3,exp4.png,exp3.png,1,1,non-reversed,correct,0.5110366567677286,1,valid_win,216.04525600001216,22,,,,,,,,,,,,,,,,sub_535,2024-06-24_10h38.58.769,Reversal,2022.1.2,60.044589101885045,3,
6,exp1.png,exp2.png,,1,0,1,0,0,6,6,6,,,,,,,,,,,,,,,,,,,,,,,,,False,26,27,False,exp1.png,exp2.png,trial_right_image,-1,exp2.png,3,exp2.png,exp1.png,1,3,reversed,correct,0.10241019578276678,0,invalid_lose,221.94500760012306,22,,,,,,,,,,,,,,,,sub_535,2024-06-24_10h38.58.769,Reversal,2022.1.2,60.044589101885045,3,
7,exp3.png,exp4.png,,1,0,1,0,0,7,7,7,,,,,,,,,,,,,,,,,,,,,,,,,False,27,28,False,exp3.png,exp4.png,trial_right_image,-1,exp4.png,3,exp4.png,exp3.png,1,1,non-reversed,correct,0.5534382089671585,1,valid_win,232.4947513001971,23,,,,,,,,,,,,,,,,sub_535,2024-06-24_10h38.58.769,Reversal,2022.1.2,60.044589101885045,3,
8,exp1.png,exp2.png,,1,0,1,0,0,8,8,8,,,,,,,,,,,,,,,,,,,,,,,,,False,28,29,True,exp2.png,exp1.png,trial_left_image,1,exp2.png,3,exp2.png,exp1.png,1,3,reversed,correct,0.5648992748608432,1,valid_win,237.67808660003357,24,,,,,,,,,,,,,,,,sub_535,2024-06-24_10h38.58.769,Reversal,2022.1.2,60.044589101885045,3,
9,exp3.png,exp4.png,,1,0,1,0,0,9,9,9,,,,,,,,,,,,,,,,,,,,,,,,,False,29,30,True,exp4.png,exp3.png,trial_left_image,1,exp4.png,3,exp4.png,exp3.png,1,1,non-reversed,correct,0.5758658213306358,1,valid_win,243.86103250016458,25,,,,,,,,,,,,,,,,sub_535,2024-06-24_10h38.58.769,Reversal,2022.1.2,60.044589101885045,3,
10,exp1.png,exp2.png,,1,0,1,0,0,10,10,10,,,,,,,,,,,,,,,,,,,,,,,,,False,30,31,True,exp2.png,exp1.png,trial_left_image,1,exp2.png,3,exp2.png,exp1.png,1,3,reversed,correct,0.9126210285438188,1,valid_win,249.06192090013064,26,,,,,,,,,,,,,,,,sub_535,2024-06-24_10h38.58.769,Reversal,2022.1.2,60.044589101885045,3,
11,exp3.png,exp4.png,,1,0,1,0,0,11,11,11,,,,,,,,,,,,,,,,,,,,,,,,,False,31,32,True,exp4.png,exp3.png,trial_left_image,1,exp4.png,3,exp4.png,exp3.png,1,1,non-reversed,correct,0.4176837403656275,1,valid_win,253.77785080019385,27,,,,,,,,,,,,,,,,sub_535,2024-06-24_10h38.58.769,Reversal,2022.1.2,60.044589101885045,3,
12,exp1.png,exp2.png,,1,0,1,0,0,12,12,12,,,,,,,,,,,,,,,,,,,,,,,,,False,32,33,False,exp1.png,exp2.png,trial_right_image,-1,exp2.png,3,exp2.png,exp1.png,1,3,reversed,correct,0.7420976624434803,1,valid_win,259.328382700216,28,,,,,,,,,,,,,,,,sub_535,2024-06-24_10h38.58.769,Reversal,2022.1.2,60.044589101885045,3,
13,exp3.png,exp4.png,,1,0,1,0,0,13,13,13,,,,,,,,,,,,,,,,,,,,,,,,,False,33,34,False,exp3.png,exp4.png,trial_right_image,-1,exp4.png,3,exp4.png,exp3.png,1,1,non-reversed,correct,0.2886642205998411,1,valid_win,264.4941754001193,29,,,,,,,,,,,,,,,,sub_535,2024-06-24_10h38.58.769,Reversal,2022.1.2,60.044589101885045,3,
14,exp1.png,exp2.png,,1,0,1,0,0,14,14,14,,,,,,,,,,,,,,,,,,,,,,,,,False,34,35,False,exp1.png,exp2.png,trial_right_image,-1,exp2.png,3,exp2.png,exp1.png,1,3,reversed,correct,0.1009980510004006,0,invalid_lose,270.0106352001894,29,,,,,,,,,,,,,,,,sub_535,2024-06-24_10h38.58.769,Reversal,2022.1.2,60.044589101885045,3,
15,exp3.png,exp4.png,,1,0,1,0,0,15,15,15,,,,,,,,,,,,,,,,,,,,,,,,,False,35,36,True,exp4.png,exp3.png,trial_left_image,1,exp4.png,3,exp4.png,exp3.png,1,1,non-reversed,correct,0.5544113426373413,1,valid_win,279.2772301000077,30,,,,,,,,,,,,,,,,sub_535,2024-06-24_10h38.58.769,Reversal,2022.1.2,60.044589101885045,3,
16,exp1.png,exp2.png,,1,0,1,0,0,16,16,16,,,,,,,,,,,,,,,,,,,,,,,,,False,36,37,True,exp2.png,exp1.png,trial_left_image,1,exp2.png,3,exp2.png,exp1.png,1,3,reversed,correct,0.8603060429589916,1,valid_win,284.0776714000385,31,,,,,,,,,,,,,,,,sub_535,2024-06-24_10h38.58.769,Reversal,2022.1.2,60.044589101885045,3,
17,exp3.png,exp4.png,,1,0,1,0,0,17,17,17,,,,,,,,,,,,,,,,,,,,,,,,,False,37,38,False,exp3.png,exp4.png,trial_right_image,-1,exp4.png,3,exp4.png,exp3.png,1,1,non-reversed,correct,0.8081837061235856,1,valid_win,289.0273877000436,32,,,,,,,,,,,,,,,,sub_535,2024-06-24_10h38.58.769,Reversal,2022.1.2,60.044589101885045,3,
18,exp1.png,exp2.png,,1,0,1,0,0,18,18,18,,,,,,,,,,,,,,,,,,,,,,,,,False,38,39,False,exp1.png,exp2.png,trial_right_image,-1,exp2.png,3,exp2.png,exp1.png,1,3,reversed,correct,0.9386372983058606,1,valid_win,294.293696800014,33,,,,,,,,,,,,,,,,sub_535,2024-06-24_10h38.58.769,Reversal,2022.1.2,60.044589101885045,3,
19,exp3.png,exp4.png,,1,0,1,0,0,19,19,19,,,,,,,,,,,,,,,,,,,,,,,,,False,39,40,True,exp4.png,exp3.png,trial_left_image,1,exp4.png,3,exp4.png,exp3.png,1,1,non-reversed,correct,0.7460846005219551,1,valid_win,299.6602955001872,34,,,,,,,,,,,,,,,,sub_535,2024-06-24_10h38.58.769,Reversal,2022.1.2,60.044589101885045,3,
20,exp1.png,exp2.png,,1,0,1,0,0,20,20,20,,,,,,,,,,,,,,,,,,,,,,,,,True,,,,,,,,,,,,,,,,,,,,,,,,,,,,,,,,,,,,sub_535,2024-06-24_10h38.58.769,Reversal,2022.1.2,60.044589101885045,3,
,,,exp1.png,1,0,1,0,,,,,0,0,0,0,0,0,0,0,,,,,,,,,,,,,,,,,,,,,,,,,,,,,,,,,,,,,,2.0,2.0,6.205485200043768,"[(2.0, 6.205485200043768)]",358.6472362000495,None,,,,,,,,,,sub_535,2024-06-24_10h38.58.769,Reversal,2022.1.2,60.044589101885045,3,
,,,exp2.png,1,0,1,0,,,,,0,0,0,0,0,1,1,1,,,,,,,,,,,,,,,,,,,,,,,,,,,,,,,,,,,,,,,98.0,5.070343199884519,"[(98.0, 5.070343199884519)]",366.73300160001963,None,98.0,,,,,,,,,sub_535,2024-06-24_10h38.58.769,Reversal,2022.1.2,60.044589101885045,3,
,,,exp3.png,1,0,1,0,,,,,0,0,0,0,0,2,2,2,,,,,,,,,,,,,,,,,,,,,,,,,,,,,,,,,,,,,,,3.0,7.99788699997589,"[(3.0, 7.99788699997589)]",373.2038632000331,None,,3.0,,,,,,,,sub_535,2024-06-24_10h38.58.769,Reversal,2022.1.2,60.044589101885045,3,
,,,exp4.png,1,0,1,0,,,,,0,0,0,0,0,3,3,3,,,,,,,,,,,,,,,,,,,,,,,,,,,,,,,,,,,,,,,99.0,3.3997859000228345,"[(99.0, 3.3997859000228345)]",382.68689530016854,None,,,99.0,,,,,,,sub_535,2024-06-24_10h38.58.769,Reversal,2022.1.2,60.044589101885045,3,
0,exp1.png,exp2.png,,2,0,2,0,0,0,0,0,,,,,,,,,,,,,,,,,,,,,,,,,False,40,41,False,exp1.png,exp2.png,trial_right_image,-1,exp2.png,3,exp2.png,exp1.png,1,3,reversed,correct,0.7814563781271604,1,valid_win,346.22628240007907,35,,,,,,,,,,,,,,,,sub_535,2024-06-24_10h38.58.769,Reversal,2022.1.2,60.044589101885045,3,
1,exp3.png,exp4.png,,2,0,2,0,0,1,1,1,,,,,,,,,,,,,,,,,,,,,,,,,False,41,42,False,exp3.png,exp4.png,trial_right_image,-1,exp4.png,3,exp4.png,exp3.png,1,1,non-reversed,correct,0.7696065778987249,1,valid_win,353.47550810012035,36,,,,,,,,,,,,,,,,sub_535,2024-06-24_10h38.58.769,Reversal,2022.1.2,60.044589101885045,3,
2,exp1.png,exp2.png,,2,0,2,0,0,2,2,2,,,,,,,,,,,,,,,,,,,,,,,,,False,42,43,True,exp2.png,exp1.png,trial_left_image,1,exp2.png,3,exp2.png,exp1.png,1,3,reversed,correct,0.8383513545540792,1,valid_win,359.55908000003546,37,,,,,,,,,,,,,,,,sub_535,2024-06-24_10h38.58.769,Reversal,2022.1.2,60.044589101885045,3,
3,exp3.png,exp4.png,,2,0,2,0,0,3,3,3,,,,,,,,,,,,,,,,,,,,,,,,,False,43,44,False,exp3.png,exp4.png,trial_right_image,-1,exp4.png,3,exp4.png,exp3.png,1,1,non-reversed,correct,0.35479730366874396,1,valid_win,368.0750604001805,38,,,,,,,,,,,,,,,,sub_535,2024-06-24_10h38.58.769,Reversal,2022.1.2,60.044589101885045,3,
4,exp1.png,exp2.png,,2,0,2,0,0,4,4,4,,,,,,,,,,,,,,,,,,,,,,,,,False,44,45,False,exp1.png,exp2.png,trial_right_image,-1,exp2.png,3,exp2.png,exp1.png,1,3,reversed,correct,0.234613558034522,0,invalid_lose,372.87608600012027,38,,,,,,,,,,,,,,,,sub_535,2024-06-24_10h38.58.769,Reversal,2022.1.2,60.044589101885045,3,
5,exp3.png,exp4.png,,2,0,2,0,0,5,5,5,,,,,,,,,,,,,,,,,,,,,,,,,False,45,46,False,exp3.png,exp4.png,trial_right_image,-1,exp4.png,3,exp4.png,exp3.png,1,1,non-reversed,correct,0.25094049055158263,1,valid_win,378.6926283000503,39,,,,,,,,,,,,,,,,sub_535,2024-06-24_10h38.58.769,Reversal,2022.1.2,60.044589101885045,3,
6,exp1.png,exp2.png,,2,0,2,0,0,6,6,6,,,,,,,,,,,,,,,,,,,,,,,,,False,46,47,False,exp1.png,exp2.png,trial_right_image,-1,exp2.png,3,exp2.png,exp1.png,1,3,reversed,correct,0.6435508862118394,1,valid_win,388.4080484001897,40,,,,,,,,,,,,,,,,sub_535,2024-06-24_10h38.58.769,Reversal,2022.1.2,60.044589101885045,3,
7,exp3.png,exp4.png,,2,0,2,0,0,7,7,7,,,,,,,,,,,,,,,,,,,,,,,,,False,47,48,True,exp4.png,exp3.png,trial_left_image,1,exp4.png,3,exp4.png,exp3.png,1,1,non-reversed,correct,0.22628357395709264,0,invalid_lose,393.9415610001888,40,,,,,,,,,,,,,,,,sub_535,2024-06-24_10h38.58.769,Reversal,2022.1.2,60.044589101885045,3,
8,exp1.png,exp2.png,,2,0,2,0,0,8,8,8,,,,,,,,,,,,,,,,,,,,,,,,,False,48,49,False,exp1.png,exp2.png,trial_right_image,-1,exp2.png,3,exp2.png,exp1.png,1,3,reversed,correct,0.10522669861195744,0,invalid_lose,401.87544600013644,40,,,,,,,,,,,,,,,,sub_535,2024-06-24_10h38.58.769,Reversal,2022.1.2,60.044589101885045,3,
9,exp3.png,exp4.png,,2,0,2,0,0,9,9,9,,,,,,,,,,,,,,,,,,,,,,,,,False,49,50,True,exp4.png,exp3.png,trial_left_image,1,exp4.png,3,exp4.png,exp3.png,1,1,non-reversed,correct,0.7745151446582563,1,valid_win,407.6753272002097,41,,,,,,,,,,,,,,,,sub_535,2024-06-24_10h38.58.769,Reversal,2022.1.2,60.044589101885045,3,
10,exp1.png,exp2.png,,2,0,2,0,0,10,10,10,,,,,,,,,,,,,,,,,,,,,,,,,False,50,51,False,exp1.png,exp2.png,trial_right_image,-1,exp2.png,3,exp2.png,exp1.png,1,3,reversed,correct,0.06292551808204938,0,invalid_lose,412.94172700005583,41,,,,,,,,,,,,,,,,sub_535,2024-06-24_10h38.58.769,Reversal,2022.1.2,60.044589101885045,3,
11,exp3.png,exp4.png,,2,0,2,0,0,11,11,11,,,,,,,,,,,,,,,,,,,,,,,,,False,51,52,True,exp4.png,exp3.png,trial_left_image,1,exp4.png,3,exp4.png,exp3.png,1,1,non-reversed,correct,0.8794077155759381,1,valid_win,417.5413478000555,42,,,,,,,,,,,,,,,,sub_535,2024-06-24_10h38.58.769,Reversal,2022.1.2,60.044589101885045,3,
12,exp1.png,exp2.png,,2,0,2,0,0,12,12,12,,,,,,,,,,,,,,,,,,,,,,,,,False,52,53,False,exp1.png,exp2.png,trial_right_image,-1,exp2.png,3,exp2.png,exp1.png,1,3,reversed,correct,0.862717232918725,1,valid_win,422.6249747001566,43,,,,,,,,,,,,,,,,sub_535,2024-06-24_10h38.58.769,Reversal,2022.1.2,60.044589101885045,3,
13,exp3.png,exp4.png,,2,0,2,0,0,13,13,13,,,,,,,,,,,,,,,,,,,,,,,,,False,53,54,True,exp4.png,exp3.png,trial_left_image,1,exp4.png,3,exp4.png,exp3.png,1,1,non-reversed,correct,0.40858868772875845,1,valid_win,429.15706570004113,44,,,,,,,,,,,,,,,,sub_535,2024-06-24_10h38.58.769,Reversal,2022.1.2,60.044589101885045,3,
14,exp1.png,exp2.png,,2,0,2,0,0,14,14,14,,,,,,,,,,,,,,,,,,,,,,,,,False,54,55,True,exp2.png,exp1.png,trial_left_image,1,exp2.png,3,exp2.png,exp1.png,1,3,reversed,correct,0.25752132893479684,1,valid_win,433.641125400085,45,,,,,,,,,,,,,,,,sub_535,2024-06-24_10h38.58.769,Reversal,2022.1.2,60.044589101885045,3,
15,exp3.png,exp4.png,,2,0,2,0,0,15,15,15,,,,,,,,,,,,,,,,,,,,,,,,,False,55,56,True,exp4.png,exp3.png,trial_left_image,1,exp4.png,3,exp4.png,exp3.png,1,1,non-reversed,correct,0.8806181410854863,1,valid_win,438.0078581001144,46,,,,,,,,,,,,,,,,sub_535,2024-06-24_10h38.58.769,Reversal,2022.1.2,60.044589101885045,3,
16,exp1.png,exp2.png,,2,0,2,0,0,16,16,16,,,,,,,,,,,,,,,,,,,,,,,,,False,56,57,False,exp1.png,exp2.png,trial_left_image,1,exp1.png,3,exp2.png,exp1.png,0,4,reversed,incorrect,0.6338444330383097,0,valid_lose,442.2738574000541,46,,,,,,,,,,,,,,,,sub_535,2024-06-24_10h38.58.769,Reversal,2022.1.2,60.044589101885045,3,
17,exp3.png,exp4.png,,2,0,2,0,0,17,17,17,,,,,,,,,,,,,,,,,,,,,,,,,False,57,58,True,exp4.png,exp3.png,trial_left_image,1,exp4.png,3,exp4.png,exp3.png,1,1,non-reversed,correct,0.3380067641889175,1,valid_win,447.2075771000236,47,,,,,,,,,,,,,,,,sub_535,2024-06-24_10h38.58.769,Reversal,2022.1.2,60.044589101885045,3,
18,exp1.png,exp2.png,,2,0,2,0,0,18,18,18,,,,,,,,,,,,,,,,,,,,,,,,,False,58,59,True,exp2.png,exp1.png,trial_left_image,1,exp2.png,3,exp2.png,exp1.png,1,3,reversed,correct,0.4678081779242126,1,valid_win,452.2739363000728,48,,,,,,,,,,,,,,,,sub_535,2024-06-24_10h38.58.769,Reversal,2022.1.2,60.044589101885045,3,
19,exp3.png,exp4.png,,2,0,2,0,0,19,19,19,,,,,,,,,,,,,,,,,,,,,,,,,False,59,60,True,exp4.png,exp3.png,trial_left_image,1,exp4.png,3,exp4.png,exp3.png,1,1,non-reversed,correct,0.6746227455111355,1,valid_win,456.65723040001467,49,,,,,,,,,,,,,,,,sub_535,2024-06-24_10h38.58.769,Reversal,2022.1.2,60.044589101885045,3,
20,exp1.png,exp2.png,,2,0,2,0,0,20,20,20,,,,,,,,,,,,,,,,,,,,,,,,,True,,,,,,,,,,,,,,,,,,,,,,,,,,,,,,,,,,,,sub_535,2024-06-24_10h38.58.769,Reversal,2022.1.2,60.044589101885045,3,
,,,exp1.png,2,0,2,0,,,,,0,0,0,0,0,0,0,0,,,,,,,,,,,,,,,,,,,,,,,,,,,,,,,,,,,,,,4.0,4.0,6.652648700168356,"[(4.0, 6.652648700168356)]",515.6310205000918,None,,,,,,,,,,sub_535,2024-06-24_10h38.58.769,Reversal,2022.1.2,60.044589101885045,3,
,,,exp2.png,2,0,2,0,,,,,0,0,0,0,0,1,1,1,,,,,,,,,,,,,,,,,,,,,,,,,,,,,,,,,,,,,,,83.0,7.050892400089651,"[(97.0, 2.666860100114718), (83.0, 7.050892400089651)]",523.5318654000293,None,83.0,,,,,,,,,sub_535,2024-06-24_10h38.58.769,Reversal,2022.1.2,60.044589101885045,3,
,,,exp3.png,2,0,2,0,,,,,0,0,0,0,0,2,2,2,,,,,,,,,,,,,,,,,,,,,,,,,,,,,,,,,,,,,,,15.0,5.88197089987807,"[(15.0, 5.88197089987807)]",533.3040512001608,None,,15.0,,,,,,,,sub_535,2024-06-24_10h38.58.769,Reversal,2022.1.2,60.044589101885045,3,
,,,exp4.png,2,0,2,0,,,,,0,0,0,0,0,3,3,3,,,,,,,,,,,,,,,,,,,,,,,,,,,,,,,,,,,,,,,87.0,6.451644599903375,"[(87.0, 6.451644599903375)]",540.6708744000643,None,,,87.0,,,,,,,sub_535,2024-06-24_10h38.58.769,Reversal,2022.1.2,60.044589101885045,3,
0,exp1.png,exp2.png,,,,,,,,,,,,,,,,,,0,0,0,0,0,0,0,0,,,,,,,,,False,0,61,False,exp1.png,exp2.png,trial_right_image,-1,exp2.png,3,exp1.png,exp2.png,1,3,reversed,incorrect,0.7381521431727206,0,valid_lose,496.2566783002112,49,,,,,,,,,,491.9290441002231,,,,,,sub_535,2024-06-24_10h38.58.769,Reversal,2022.1.2,60.044589101885045,3,
1,exp3.png,exp4.png,,,,,,,,,,,,,,,,,,0,0,0,0,0,1,1,1,,,,,,,,,False,1,62,True,exp4.png,exp3.png,trial_right_image,-1,exp3.png,3,exp4.png,exp3.png,0,2,non-reversed,incorrect,0.5347075969678845,0,valid_lose,502.3894144000951,49,,,,,,,,,,,,,,,,sub_535,2024-06-24_10h38.58.769,Reversal,2022.1.2,60.044589101885045,3,
2,exp1.png,exp2.png,,,,,,,,,,,,,,,,,,0,0,0,0,0,2,2,2,,,,,,,,,False,2,63,False,exp1.png,exp2.png,trial_right_image,-1,exp2.png,3,exp1.png,exp2.png,1,3,reversed,incorrect,0.6689275047942904,0,valid_lose,507.4066184000112,49,,,,,,,,,,,,,,,,sub_535,2024-06-24_10h38.58.769,Reversal,2022.1.2,60.044589101885045,3,
3,exp3.png,exp4.png,,,,,,,,,,,,,,,,,,0,0,0,0,0,3,3,3,,,,,,,,,False,3,64,True,exp4.png,exp3.png,trial_left_image,1,exp4.png,3,exp4.png,exp3.png,1,1,non-reversed,correct,0.8286171989940027,1,valid_win,512.1232118001208,50,,,,,,,,,,,,,,,,sub_535,2024-06-24_10h38.58.769,Reversal,2022.1.2,60.044589101885045,3,
4,exp1.png,exp2.png,,,,,,,,,,,,,,,,,,0,0,0,0,0,4,4,4,,,,,,,,,False,4,65,True,exp2.png,exp1.png,trial_left_image,1,exp2.png,3,exp1.png,exp2.png,1,3,reversed,incorrect,0.2523724972970335,0,valid_lose,516.9398089000024,50,,,,,,,,,,,,,,,,sub_535,2024-06-24_10h38.58.769,Reversal,2022.1.2,60.044589101885045,3,
5,exp3.png,exp4.png,,,,,,,,,,,,,,,,,,0,0,0,0,0,5,5,5,,,,,,,,,False,5,66,False,exp3.png,exp4.png,trial_right_image,-1,exp4.png,3,exp4.png,exp3.png,1,1,non-reversed,correct,0.6884301326411627,1,valid_win,522.1388255001511,51,,,,,,,,,,,,,,,,sub_535,2024-06-24_10h38.58.769,Reversal,2022.1.2,60.044589101885045,3,
6,exp1.png,exp2.png,,,,,,,,,,,,,,,,,,0,0,0,0,0,6,6,6,,,,,,,,,False,6,67,True,exp2.png,exp1.png,trial_left_image,1,exp2.png,3,exp1.png,exp2.png,1,3,reversed,incorrect,0.6836057014668493,0,valid_lose,528.2390745000448,51,,,,,,,,,,,,,,,,sub_535,2024-06-24_10h38.58.769,Reversal,2022.1.2,60.044589101885045,3,
7,exp3.png,exp4.png,,,,,,,,,,,,,,,,,,0,0,0,0,0,7,7,7,,,,,,,,,False,7,68,False,exp3.png,exp4.png,trial_right_image,-1,exp4.png,3,exp4.png,exp3.png,1,1,non-reversed,correct,0.8062442578989412,1,valid_win,534.6723935001064,52,,,,,,,,,,,,,,,,sub_535,2024-06-24_10h38.58.769,Reversal,2022.1.2,60.044589101885045,3,
8,exp1.png,exp2.png,,,,,,,,,,,,,,,,,,0,0,0,0,0,8,8,8,,,,,,,,,False,8,69,True,exp2.png,exp1.png,trial_right_image,-1,exp1.png,3,exp1.png,exp2.png,0,4,reversed,correct,0.486279468383095,1,valid_win,542.6060291000176,53,,,,,,,,,,,,,,,,sub_535,2024-06-24_10h38.58.769,Reversal,2022.1.2,60.044589101885045,3,
9,exp3.png,exp4.png,,,,,,,,,,,,,,,,,,0,0,0,0,0,9,9,9,,,,,,,,,False,9,70,False,exp3.png,exp4.png,trial_right_image,-1,exp4.png,3,exp4.png,exp3.png,1,1,non-reversed,correct,0.47151656520239293,1,valid_win,548.5386398001574,54,,,,,,,,,,,,,,,,sub_535,2024-06-24_10h38.58.769,Reversal,2022.1.2,60.044589101885045,3,
10,exp1.png,exp2.png,,,,,,,,,,,,,,,,,,0,0,0,0,0,10,10,10,,,,,,,,,False,10,71,True,exp2.png,exp1.png,trial_right_image,-1,exp1.png,3,exp1.png,exp2.png,0,4,reversed,correct,0.6442067214635168,1,valid_win,554.6892663000617,55,,,,,,,,,,,,,,,,sub_535,2024-06-24_10h38.58.769,Reversal,2022.1.2,60.044589101885045,3,
11,exp3.png,exp4.png,,,,,,,,,,,,,,,,,,0,0,0,0,0,11,11,11,,,,,,,,,False,11,72,False,exp3.png,exp4.png,trial_right_image,-1,exp4.png,3,exp4.png,exp3.png,1,1,non-reversed,correct,0.32611752921152537,1,valid_win,560.2058587002102,56,,,,,,,,,,,,,,,,sub_535,2024-06-24_10h38.58.769,Reversal,2022.1.2,60.044589101885045,3,
12,exp1.png,exp2.png,,,,,,,,,,,,,,,,,,0,0,0,0,0,12,12,12,,,,,,,,,False,12,73,False,exp1.png,exp2.png,trial_left_image,1,exp1.png,3,exp1.png,exp2.png,0,4,reversed,correct,0.5665469551965386,1,valid_win,565.6055956000928,57,,,,,,,,,,,,,,,,sub_535,2024-06-24_10h38.58.769,Reversal,2022.1.2,60.044589101885045,3,
13,exp3.png,exp4.png,,,,,,,,,,,,,,,,,,0,0,0,0,0,13,13,13,,,,,,,,,False,13,74,True,exp4.png,exp3.png,trial_left_image,1,exp4.png,3,exp4.png,exp3.png,1,1,non-reversed,correct,0.1362096833898866,0,invalid_lose,571.5553014001343,57,,,,,,,,,,,,,,,,sub_535,2024-06-24_10h38.58.769,Reversal,2022.1.2,60.044589101885045,3,
14,exp1.png,exp2.png,,,,,,,,,,,,,,,,,,0,0,0,0,0,14,14,14,,,,,,,,,False,14,75,True,exp2.png,exp1.png,trial_right_image,-1,exp1.png,3,exp1.png,exp2.png,0,4,reversed,correct,0.8125107702897263,1,valid_win,578.1380532002077,58,,,,,,,,,,,,,,,,sub_535,2024-06-24_10h38.58.769,Reversal,2022.1.2,60.044589101885045,3,
15,exp3.png,exp4.png,,,,,,,,,,,,,,,,,,0,0,0,0,0,15,15,15,,,,,,,,,False,15,76,True,exp4.png,exp3.png,trial_left_image,1,exp4.png,3,exp4.png,exp3.png,1,1,non-reversed,correct,0.2468656209564959,0,invalid_lose,584.5213815001771,58,,,,,,,,,,,,,,,,sub_535,2024-06-24_10h38.58.769,Reversal,2022.1.2,60.044589101885045,3,
16,exp1.png,exp2.png,,,,,,,,,,,,,,,,,,0,0,0,0,0,16,16,16,,,,,,,,,False,16,77,False,exp1.png,exp2.png,trial_left_image,1,exp1.png,3,exp1.png,exp2.png,0,4,reversed,correct,0.801959340940163,1,valid_win,592.4217580000404,59,,,,,,,,,,,,,,,,sub_535,2024-06-24_10h38.58.769,Reversal,2022.1.2,60.044589101885045,3,
17,exp3.png,exp4.png,,,,,,,,,,,,,,,,,,0,0,0,0,0,17,17,17,,,,,,,,,False,17,78,False,exp3.png,exp4.png,trial_left_image,1,exp3.png,3,exp4.png,exp3.png,0,2,non-reversed,incorrect,0.5650973450324658,0,valid_lose,599.2879302001093,59,,,,,,,,,,,,,,,,sub_535,2024-06-24_10h38.58.769,Reversal,2022.1.2,60.044589101885045,3,
18,exp1.png,exp2.png,,,,,,,,,,,,,,,,,,0,0,0,0,0,18,18,18,,,,,,,,,False,18,79,True,exp2.png,exp1.png,trial_right_image,-1,exp1.png,3,exp1.png,exp2.png,0,4,reversed,correct,0.17667192357417782,0,invalid_lose,606.4048692001961,59,,,,,,,,,,,,,,,,sub_535,2024-06-24_10h38.58.769,Reversal,2022.1.2,60.044589101885045,3,
19,exp3.png,exp4.png,,,,,,,,,,,,,,,,,,0,0,0,0,0,19,19,19,,,,,,,,,False,19,80,False,exp3.png,exp4.png,trial_right_image,-1,exp4.png,3,exp4.png,exp3.png,1,1,non-reversed,correct,0.6851563157496171,1,valid_win,612.470481300028,60,,,,,,,,,,,,,,,,sub_535,2024-06-24_10h38.58.769,Reversal,2022.1.2,60.044589101885045,3,
20,exp1.png,exp2.png,,,,,,,,,,,,,,,,,,0,0,0,0,0,20,20,20,,,,,,,,,True,,,,,,,,,,,,,,,,,,,,,,,,,,,,,,,,,,,,sub_535,2024-06-24_10h38.58.769,Reversal,2022.1.2,60.044589101885045,3,
,,,exp1.png,,,,,,,,,,,,,,,,,0,0,0,0,,,,,0,0,0,0,0,0,0,0,,,,,,,,,,,,,,,,,,,,,,90.0,90.0,6.150928899878636,"[(90.0, 6.150928899878636)]",671.4648762000725,None,,,,,,,,,,sub_535,2024-06-24_10h38.58.769,Reversal,2022.1.2,60.044589101885045,3,
,,,exp2.png,,,,,,,,,,,,,,,,,0,0,0,0,,,,,0,0,0,0,0,1,1,1,,,,,,,,,,,,,,,,,,,,,,,12.0,11.767110799904913,"[(12.0, 11.767110799904913)]",679.2104885999579,None,12.0,,,,,,,,,sub_535,2024-06-24_10h38.58.769,Reversal,2022.1.2,60.044589101885045,3,
,,,exp3.png,,,,,,,,,,,,,,,,,0,0,0,0,,,,,0,0,0,0,0,2,2,2,,,,,,,,,,,,,,,,,,,,,,,15.0,9.284631000133231,"[(15.0, 9.284631000133231)]",692.1829234000761,None,,15.0,,,,,,,,sub_535,2024-06-24_10h38.58.769,Reversal,2022.1.2,60.044589101885045,3,
,,,exp4.png,,,,,,,,,,,,,,,,,0,0,0,0,,,,,0,0,0,0,0,3,3,3,,,,,,,,,,,,,,,,,,,,,,,94.0,5.9007963999174535,"[(94.0, 5.9007963999174535)]",702.7483920000959,None,,,94.0,,,,,,,sub_535,2024-06-24_10h38.58.769,Reversal,2022.1.2,60.044589101885045,3,
0,exp1.png,exp2.png,,,,,,,,,,,,,,,,,,1,0,1,0,0,0,0,0,,,,,,,,,False,20,81,False,exp1.png,exp2.png,trial_right_image,-1,exp2.png,3,exp1.png,exp2.png,1,3,reversed,incorrect,0.765659064419906,0,valid_lose,662.8038535001688,60,,,,,,,,,,,,,,,,sub_535,2024-06-24_10h38.58.769,Reversal,2022.1.2,60.044589101885045,3,
1,exp3.png,exp4.png,,,,,,,,,,,,,,,,,,1,0,1,0,0,1,1,1,,,,,,,,,False,21,82,False,exp3.png,exp4.png,trial_left_image,1,exp3.png,3,exp4.png,exp3.png,0,2,non-reversed,incorrect,0.7668569146342893,0,valid_lose,671.1032829000615,60,,,,,,,,,,,,,,,,sub_535,2024-06-24_10h38.58.769,Reversal,2022.1.2,60.044589101885045,3,
2,exp1.png,exp2.png,,,,,,,,,,,,,,,,,,1,0,1,0,0,2,2,2,,,,,,,,,False,22,83,True,exp2.png,exp1.png,trial_right_image,-1,exp1.png,3,exp1.png,exp2.png,0,4,reversed,correct,0.5282344381661096,1,valid_win,677.2364138001576,61,,,,,,,,,,,,,,,,sub_535,2024-06-24_10h38.58.769,Reversal,2022.1.2,60.044589101885045,3,
3,exp3.png,exp4.png,,,,,,,,,,,,,,,,,,1,0,1,0,0,3,3,3,,,,,,,,,False,23,84,False,exp3.png,exp4.png,trial_right_image,-1,exp4.png,3,exp4.png,exp3.png,1,1,non-reversed,correct,0.25746605227086006,1,valid_win,683.5525284002069,62,,,,,,,,,,,,,,,,sub_535,2024-06-24_10h38.58.769,Reversal,2022.1.2,60.044589101885045,3,
4,exp1.png,exp2.png,,,,,,,,,,,,,,,,,,1,0,1,0,0,4,4,4,,,,,,,,,False,24,85,True,exp2.png,exp1.png,trial_right_image,-1,exp1.png,3,exp1.png,exp2.png,0,4,reversed,correct,0.911944263049471,1,valid_win,688.55264670006,63,,,,,,,,,,,,,,,,sub_535,2024-06-24_10h38.58.769,Reversal,2022.1.2,60.044589101885045,3,
5,exp3.png,exp4.png,,,,,,,,,,,,,,,,,,1,0,1,0,0,5,5,5,,,,,,,,,False,25,86,False,exp3.png,exp4.png,trial_right_image,-1,exp4.png,3,exp4.png,exp3.png,1,1,non-reversed,correct,0.8017970542966584,1,valid_win,694.0524814000819,64,,,,,,,,,,,,,,,,sub_535,2024-06-24_10h38.58.769,Reversal,2022.1.2,60.044589101885045,3,
6,exp1.png,exp2.png,,,,,,,,,,,,,,,,,,1,0,1,0,0,6,6,6,,,,,,,,,False,26,87,True,exp2.png,exp1.png,trial_right_image,-1,exp1.png,3,exp1.png,exp2.png,0,4,reversed,correct,0.8320567226613744,1,valid_win,699.5357154000085,65,,,,,,,,,,,,,,,,sub_535,2024-06-24_10h38.58.769,Reversal,2022.1.2,60.044589101885045,3,
7,exp3.png,exp4.png,,,,,,,,,,,,,,,,,,1,0,1,0,0,7,7,7,,,,,,,,,False,27,88,True,exp4.png,exp3.png,trial_left_image,1,exp4.png,3,exp4.png,exp3.png,1,1,non-reversed,correct,0.5896342625940976,1,valid_win,705.1195186001714,66,,,,,,,,,,,,,,,,sub_535,2024-06-24_10h38.58.769,Reversal,2022.1.2,60.044589101885045,3,
8,exp1.png,exp2.png,,,,,,,,,,,,,,,,,,1,0,1,0,0,8,8,8,,,,,,,,,False,28,89,False,exp1.png,exp2.png,trial_left_image,1,exp1.png,3,exp1.png,exp2.png,0,4,reversed,correct,0.10118814711181134,0,invalid_lose,710.0852515001316,66,,,,,,,,,,,,,,,,sub_535,2024-06-24_10h38.58.769,Reversal,2022.1.2,60.044589101885045,3,
9,exp3.png,exp4.png,,,,,,,,,,,,,,,,,,1,0,1,0,0,9,9,9,,,,,,,,,False,29,90,True,exp4.png,exp3.png,trial_left_image,1,exp4.png,3,exp4.png,exp3.png,1,1,non-reversed,correct,0.8200750486089726,1,valid_win,716.8685195001308,67,,,,,,,,,,,,,,,,sub_535,2024-06-24_10h38.58.769,Reversal,2022.1.2,60.044589101885045,3,
10,exp1.png,exp2.png,,,,,,,,,,,,,,,,,,1,0,1,0,0,10,10,10,,,,,,,,,False,30,91,True,exp2.png,exp1.png,trial_right_image,-1,exp1.png,3,exp1.png,exp2.png,0,4,reversed,correct,0.3958607611149034,1,valid_win,722.0352898000274,68,,,,,,,,,,,,,,,,sub_535,2024-06-24_10h38.58.769,Reversal,2022.1.2,60.044589101885045,3,
11,exp3.png,exp4.png,,,,,,,,,,,,,,,,,,1,0,1,0,0,11,11,11,,,,,,,,,False,31,92,True,exp4.png,exp3.png,trial_left_image,1,exp4.png,3,exp4.png,exp3.png,1,1,non-reversed,correct,0.7730612271858155,1,valid_win,727.1686343001202,69,,,,,,,,,,,,,,,,sub_535,2024-06-24_10h38.58.769,Reversal,2022.1.2,60.044589101885045,3,
12,exp1.png,exp2.png,,,,,,,,,,,,,,,,,,1,0,1,0,0,12,12,12,,,,,,,,,False,32,93,True,exp2.png,exp1.png,trial_right_image,-1,exp1.png,3,exp1.png,exp2.png,0,4,reversed,correct,0.7488385709929445,1,valid_win,732.9855042002164,70,,,,,,,,,,,,,,,,sub_535,2024-06-24_10h38.58.769,Reversal,2022.1.2,60.044589101885045,3,
13,exp3.png,exp4.png,,,,,,,,,,,,,,,,,,1,0,1,0,0,13,13,13,,,,,,,,,False,33,94,True,exp4.png,exp3.png,trial_left_image,1,exp4.png,3,exp4.png,exp3.png,1,1,non-reversed,correct,0.8920441355052702,1,valid_win,738.4023389001377,71,,,,,,,,,,,,,,,,sub_535,2024-06-24_10h38.58.769,Reversal,2022.1.2,60.044589101885045,3,
14,exp1.png,exp2.png,,,,,,,,,,,,,,,,,,1,0,1,0,0,14,14,14,,,,,,,,,False,34,95,False,exp1.png,exp2.png,trial_left_image,1,exp1.png,3,exp1.png,exp2.png,0,4,reversed,correct,0.16013569709115527,0,invalid_lose,744.0517159001902,71,,,,,,,,,,,,,,,,sub_535,2024-06-24_10h38.58.769,Reversal,2022.1.2,60.044589101885045,3,
15,exp3.png,exp4.png,,,,,,,,,,,,,,,,,,1,0,1,0,0,15,15,15,,,,,,,,,False,35,96,False,exp3.png,exp4.png,trial_right_image,-1,exp4.png,3,exp4.png,exp3.png,1,1,non-reversed,correct,0.7320086933741253,1,valid_win,750.0852241001558,72,,,,,,,,,,,,,,,,sub_535,2024-06-24_10h38.58.769,Reversal,2022.1.2,60.044589101885045,3,
16,exp1.png,exp2.png,,,,,,,,,,,,,,,,,,1,0,1,0,0,16,16,16,,,,,,,,,False,36,97,False,exp1.png,exp2.png,trial_left_image,1,exp1.png,3,exp1.png,exp2.png,0,4,reversed,correct,0.5807781912394456,1,valid_win,756.2016694000922,73,,,,,,,,,,,,,,,,sub_535,2024-06-24_10h38.58.769,Reversal,2022.1.2,60.044589101885045,3,
17,exp3.png,exp4.png,,,,,,,,,,,,,,,,,,1,0,1,0,0,17,17,17,,,,,,,,,False,37,98,False,exp3.png,exp4.png,trial_right_image,-1,exp4.png,3,exp4.png,exp3.png,1,1,non-reversed,correct,0.7032657214259133,1,valid_win,761.051507800119,74,,,,,,,,,,,,,,,,sub_535,2024-06-24_10h38.58.769,Reversal,2022.1.2,60.044589101885045,3,
18,exp1.png,exp2.png,,,,,,,,,,,,,,,,,,1,0,1,0,0,18,18,18,,,,,,,,,False,38,99,False,exp1.png,exp2.png,trial_left_image,1,exp1.png,3,exp1.png,exp2.png,0,4,reversed,correct,0.12423600788892031,0,invalid_lose,765.5351493000053,74,,,,,,,,,,,,,,,,sub_535,2024-06-24_10h38.58.769,Reversal,2022.1.2,60.044589101885045,3,
19,exp3.png,exp4.png,,,,,,,,,,,,,,,,,,1,0,1,0,0,19,19,19,,,,,,,,,False,39,100,True,exp4.png,exp3.png,trial_left_image,1,exp4.png,3,exp4.png,exp3.png,1,1,non-reversed,correct,0.4417628917098624,1,valid_win,772.6843621002045,75,,,,,,,,,,,,,,,,sub_535,2024-06-24_10h38.58.769,Reversal,2022.1.2,60.044589101885045,3,
20,exp1.png,exp2.png,,,,,,,,,,,,,,,,,,1,0,1,0,0,20,20,20,,,,,,,,,True,,,,,,,,,,,,,,,,,,,,,,,,,,,,,,,,,,,,sub_535,2024-06-24_10h38.58.769,Reversal,2022.1.2,60.044589101885045,3,
,,,exp1.png,,,,,,,,,,,,,,,,,1,0,1,0,,,,,0,0,0,0,0,0,0,0,,,,,,,,,,,,,,,,,,,,,,93.0,93.0,13.232963899848983,"[(91.0, 6.031434200005606), (95.0, 10.281812399858609), (93.0, 13.232963899848983)]",831.683462300105,None,,,,,,,,,,sub_535,2024-06-24_10h38.58.769,Reversal,2022.1.2,60.044589101885045,3,
,,,exp2.png,,,,,,,,,,,,,,,,,1,0,1,0,,,,,0,0,0,0,0,1,1,1,,,,,,,,,,,,,,,,,,,,,,,7.0,7.2342588000465184,"[(7.0, 7.2342588000465184)]",846.4283468001522,None,7.0,,,,,,,,,sub_535,2024-06-24_10h38.58.769,Reversal,2022.1.2,60.044589101885045,3,
,,,exp3.png,,,,,,,,,,,,,,,,,1,0,1,0,,,,,0,0,0,0,0,2,2,2,,,,,,,,,,,,,,,,,,,,,,,9.0,5.717654100153595,"[(9.0, 5.717654100153595)]",854.9263120000251,None,,9.0,,,,,,,,sub_535,2024-06-24_10h38.58.769,Reversal,2022.1.2,60.044589101885045,3,
,,,exp4.png,,,,,,,,,,,,,,,,,1,0,1,0,,,,,0,0,0,0,0,3,3,3,,,,,,,,,,,,,,,,,,,,,,,94.0,3.68370379996486,"[(94.0, 3.68370379996486)]",862.0104668999556,None,,,94.0,,,,,,,sub_535,2024-06-24_10h38.58.769,Reversal,2022.1.2,60.044589101885045,3,
0,exp1.png,exp2.png,,,,,,,,,,,,,,,,,,2,0,2,0,0,0,0,0,,,,,,,,,False,40,101,False,exp1.png,exp2.png,trial_left_image,1,exp1.png,3,exp1.png,exp2.png,0,4,reversed,correct,0.15247606029665484,0,invalid_lose,814.3177013001405,75,,,,,,,,,,,,,,,,sub_535,2024-06-24_10h38.58.769,Reversal,2022.1.2,60.044589101885045,3,
1,exp3.png,exp4.png,,,,,,,,,,,,,,,,,,2,0,2,0,0,1,1,1,,,,,,,,,False,41,102,False,exp3.png,exp4.png,trial_left_image,1,exp3.png,3,exp4.png,exp3.png,0,2,non-reversed,incorrect,0.20486539884114507,1,invalid_win,820.9841939001344,76,,,,,,,,,,,,,,,,sub_535,2024-06-24_10h38.58.769,Reversal,2022.1.2,60.044589101885045,3,
2,exp1.png,exp2.png,,,,,,,,,,,,,,,,,,2,0,2,0,0,2,2,2,,,,,,,,,False,42,103,False,exp1.png,exp2.png,trial_right_image,-1,exp2.png,3,exp1.png,exp2.png,1,3,reversed,incorrect,0.5239037190555854,0,valid_lose,826.533385100076,76,,,,,,,,,,,,,,,,sub_535,2024-06-24_10h38.58.769,Reversal,2022.1.2,60.044589101885045,3,
3,exp3.png,exp4.png,,,,,,,,,,,,,,,,,,2,0,2,0,0,3,3,3,,,,,,,,,False,43,104,False,exp3.png,exp4.png,trial_left_image,1,exp3.png,3,exp4.png,exp3.png,0,2,non-reversed,incorrect,0.8153700986790458,0,valid_lose,831.9002208001912,76,,,,,,,,,,,,,,,,sub_535,2024-06-24_10h38.58.769,Reversal,2022.1.2,60.044589101885045,3,
4,exp1.png,exp2.png,,,,,,,,,,,,,,,,,,2,0,2,0,0,4,4,4,,,,,,,,,False,44,105,True,exp2.png,exp1.png,trial_left_image,1,exp2.png,3,exp1.png,exp2.png,1,3,reversed,incorrect,0.14503720233457007,1,invalid_win,839.2169847001787,77,,,,,,,,,,,,,,,,sub_535,2024-06-24_10h38.58.769,Reversal,2022.1.2,60.044589101885045,3,
5,exp3.png,exp4.png,,,,,,,,,,,,,,,,,,2,0,2,0,0,5,5,5,,,,,,,,,False,45,106,True,exp4.png,exp3.png,trial_left_image,1,exp4.png,3,exp4.png,exp3.png,1,1,non-reversed,correct,0.18819340956791097,0,invalid_lose,845.7165222000331,77,,,,,,,,,,,,,,,,sub_535,2024-06-24_10h38.58.769,Reversal,2022.1.2,60.044589101885045,3,
6,exp1.png,exp2.png,,,,,,,,,,,,,,,,,,2,0,2,0,0,6,6,6,,,,,,,,,False,46,107,False,exp1.png,exp2.png,trial_right_image,-1,exp2.png,3,exp1.png,exp2.png,1,3,reversed,incorrect,0.8612736398795516,0,valid_lose,851.9500363001134,77,,,,,,,,,,,,,,,,sub_535,2024-06-24_10h38.58.769,Reversal,2022.1.2,60.044589101885045,3,
7,exp3.png,exp4.png,,,,,,,,,,,,,,,,,,2,0,2,0,0,7,7,7,,,,,,,,,False,47,108,False,exp3.png,exp4.png,trial_left_image,1,exp3.png,3,exp4.png,exp3.png,0,2,non-reversed,incorrect,0.6588559995722,0,valid_lose,858.832906300202,77,,,,,,,,,,,,,,,,sub_535,2024-06-24_10h38.58.769,Reversal,2022.1.2,60.044589101885045,3,
8,exp1.png,exp2.png,,,,,,,,,,,,,,,,,,2,0,2,0,0,8,8,8,,,,,,,,,False,48,109,False,exp1.png,exp2.png,trial_right_image,-1,exp2.png,3,exp1.png,exp2.png,1,3,reversed,incorrect,0.11496770686120983,1,invalid_win,867.0496108999941,78,,,,,,,,,,,,,,,,sub_535,2024-06-24_10h38.58.769,Reversal,2022.1.2,60.044589101885045,3,
9,exp3.png,exp4.png,,,,,,,,,,,,,,,,,,2,0,2,0,0,9,9,9,,,,,,,,,False,49,110,True,exp4.png,exp3.png,trial_left_image,1,exp4.png,3,exp4.png,exp3.png,1,1,non-reversed,correct,0.6631004167405111,1,valid_win,872.6166685000062,79,,,,,,,,,,,,,,,,sub_535,2024-06-24_10h38.58.769,Reversal,2022.1.2,60.044589101885045,3,
10,exp1.png,exp2.png,,,,,,,,,,,,,,,,,,2,0,2,0,0,10,10,10,,,,,,,,,False,50,111,True,exp2.png,exp1.png,trial_left_image,1,exp2.png,3,exp1.png,exp2.png,1,3,reversed,incorrect,0.6302753202365932,0,valid_lose,877.716424500104,79,,,,,,,,,,,,,,,,sub_535,2024-06-24_10h38.58.769,Reversal,2022.1.2,60.044589101885045,3,
11,exp3.png,exp4.png,,,,,,,,,,,,,,,,,,2,0,2,0,0,11,11,11,,,,,,,,,False,51,112,True,exp4.png,exp3.png,trial_left_image,1,exp4.png,3,exp4.png,exp3.png,1,1,non-reversed,correct,0.5352921996630091,1,valid_win,883.3828408000991,80,,,,,,,,,,,,,,,,sub_535,2024-06-24_10h38.58.769,Reversal,2022.1.2,60.044589101885045,3,
12,exp1.png,exp2.png,,,,,,,,,,,,,,,,,,2,0,2,0,0,12,12,12,,,,,,,,,False,52,113,False,exp1.png,exp2.png,trial_right_image,-1,exp2.png,3,exp1.png,exp2.png,1,3,reversed,incorrect,0.13459213135910164,1,invalid_win,890.6821772002149,81,,,,,,,,,,,,,,,,sub_535,2024-06-24_10h38.58.769,Reversal,2022.1.2,60.044589101885045,3,
13,exp3.png,exp4.png,,,,,,,,,,,,,,,,,,2,0,2,0,0,13,13,13,,,,,,,,,False,53,114,False,exp3.png,exp4.png,trial_right_image,-1,exp4.png,3,exp4.png,exp3.png,1,1,non-reversed,correct,0.9797808811602541,1,valid_win,895.5658306002151,82,,,,,,,,,,,,,,,,sub_535,2024-06-24_10h38.58.769,Reversal,2022.1.2,60.044589101885045,3,
14,exp1.png,exp2.png,,,,,,,,,,,,,,,,,,2,0,2,0,0,14,14,14,,,,,,,,,False,54,115,False,exp1.png,exp2.png,trial_right_image,-1,exp2.png,3,exp1.png,exp2.png,1,3,reversed,incorrect,0.22481440237219652,1,invalid_win,902.3990465002134,83,,,,,,,,,,,,,,,,sub_535,2024-06-24_10h38.58.769,Reversal,2022.1.2,60.044589101885045,3,
15,exp3.png,exp4.png,,,,,,,,,,,,,,,,,,2,0,2,0,0,15,15,15,,,,,,,,,False,55,116,True,exp4.png,exp3.png,trial_left_image,1,exp4.png,3,exp4.png,exp3.png,1,1,non-reversed,correct,0.0426531432508126,0,invalid_lose,907.8154959999956,83,,,,,,,,,,,,,,,,sub_535,2024-06-24_10h38.58.769,Reversal,2022.1.2,60.044589101885045,3,
16,exp1.png,exp2.png,,,,,,,,,,,,,,,,,,2,0,2,0,0,16,16,16,,,,,,,,,False,56,117,True,exp2.png,exp1.png,trial_left_image,1,exp2.png,3,exp1.png,exp2.png,1,3,reversed,incorrect,0.7716931118717123,0,valid_lose,913.5486330001149,83,,,,,,,,,,,,,,,,sub_535,2024-06-24_10h38.58.769,Reversal,2022.1.2,60.044589101885045,3,
17,exp3.png,exp4.png,,,,,,,,,,,,,,,,,,2,0,2,0,0,17,17,17,,,,,,,,,False,57,118,True,exp4.png,exp3.png,trial_left_image,1,exp4.png,3,exp4.png,exp3.png,1,1,non-reversed,correct,0.5338648343606122,1,valid_win,927.2315899000969,84,,,,,,,,,,,,,,,,sub_535,2024-06-24_10h38.58.769,Reversal,2022.1.2,60.044589101885045,3,
18,exp1.png,exp2.png,,,,,,,,,,,,,,,,,,2,0,2,0,0,18,18,18,,,,,,,,,False,58,119,True,exp2.png,exp1.png,trial_left_image,1,exp2.png,3,exp1.png,exp2.png,1,3,reversed,incorrect,0.15165566538993225,1,invalid_win,934.4318920001388,85,,,,,,,,,,,,,,,,sub_535,2024-06-24_10h38.58.769,Reversal,2022.1.2,60.044589101885045,3,
19,exp3.png,exp4.png,,,,,,,,,,,,,,,,,,2,0,2,0,0,19,19,19,,,,,,,,,False,59,120,True,exp4.png,exp3.png,trial_left_image,1,exp4.png,3,exp4.png,exp3.png,1,1,non-reversed,correct,0.9117070535107762,1,valid_win,940.148248600075,86,,,,,,,,,,,,,,,,sub_535,2024-06-24_10h38.58.769,Reversal,2022.1.2,60.044589101885045,3,
20,exp1.png,exp2.png,,,,,,,,,,,,,,,,,,2,0,2,0,0,20,20,20,,,,,,,,,True,,,,,,,,,,,,,,,,,,,,,,,,,,,,,,,,,,,,sub_535,2024-06-24_10h38.58.769,Reversal,2022.1.2,60.044589101885045,3,
,,,exp1.png,,,,,,,,,,,,,,,,,2,0,2,0,,,,,0,0,0,0,0,0,0,0,,,,,,,,,,,,,,,,,,,,,,4.0,4.0,6.939438399858773,"[(4.0, 6.939438399858773)]",999.134450700134,None,,,,,,,,,,sub_535,2024-06-24_10h38.58.769,Reversal,2022.1.2,60.044589101885045,3,
,,,exp2.png,,,,,,,,,,,,,,,,,2,0,2,0,,,,,0,0,0,0,0,1,1,1,,,,,,,,,,,,,,,,,,,,,,,94.0,4.45150119997561,"[(94.0, 4.45150119997561)]",1008.0372144000139,None,94.0,,,,,,,,,sub_535,2024-06-24_10h38.58.769,Reversal,2022.1.2,60.044589101885045,3,
,,,exp3.png,,,,,,,,,,,,,,,,,2,0,2,0,,,,,0,0,0,0,0,2,2,2,,,,,,,,,,,,,,,,,,,,,,,8.0,6.9816789999604225,"[(8.0, 6.9816789999604225)]",1013.9249877999537,None,,8.0,,,,,,,,sub_535,2024-06-24_10h38.58.769,Reversal,2022.1.2,60.044589101885045,3,
,,,exp4.png,,,,,,,,,,,,,,,,,2,0,2,0,,,,,0,0,0,0,0,3,3,3,,,,,,,,,,,,,,,,,,,,,,,96.0,5.31547120003961,"[(96.0, 5.31547120003961)]",1025.477618600009,None,,,96.0,,,,,,,sub_535,2024-06-24_10h38.58.769,Reversal,2022.1.2,60.044589101885045,3,
,,,,,,,,,,,,,,,,,,,,,,,,,,,,,,,,,,,,,,,,,,,,,,,,,,,,,,,,86,,,,,,,,,,,98,58,40,484.0382311998401,0,,,,,,,
