trial_index,trial_image1_file,trial_image2_file,image_file,learning_outer_loop.thisRepN,learning_outer_loop.thisTrialN,learning_outer_loop.thisN,learning_outer_loop.thisIndex,learning_inner_loop.thisRepN,learning_inner_loop.thisTrialN,learning_inner_loop.thisN,learning_inner_loop.thisIndex,learning_estimation_outer_loop.thisRepN,learning_estimation_outer_loop.thisTrialN,learning_estimation_outer_loop.thisN,learning_estimation_outer_loop.thisIndex,learning_estimation_inner_loop.thisRepN,learning_estimation_inner_loop.thisTrialN,learning_estimation_inner_loop.thisN,learning_estimation_inner_loop.thisIndex,reversal_outer_loop.thisRepN,reversal_outer_loop.thisTrialN,reversal_outer_loop.thisN,reversal_outer_loop.thisIndex,reversal_inner_loop.thisRepN,reversal_inner_loop.thisTrialN,reversal_inner_loop.thisN,reversal_inner_loop.thisIndex,reversal_estimation_outer_loop.thisRepN,reversal_estimation_outer_loop.thisTrialN,reversal_estimation_outer_loop.thisN,reversal_estimation_outer_loop.thisIndex,reversal_estimation_inner_loop.thisRepN,reversal_estimation_inner_loop.thisTrialN,reversal_estimation_inner_loop.thisN,reversal_estimation_inner_loop.thisIndex,skipped,total_trial_counter,trial_num,left_right_flip,left_image_file,right_image_file,clicked_stimulus_side,side,clicked_stimulus,version,high_prob_image_file,low_prob_image_file,choice_a,choice_b,pair_type,correct,trial_feedback_random,reward,trial_type,overall_time_after_trial,score,estimation_exp1.png,estimation_rating.response,estimation_rating.rt,estimation_rating.history,estimation_rating.started,estimation_rating.stopped,estimation_exp2.png,estimation_exp3.png,estimation_exp4.png,total_learning_time,total_correct,learning_correct,reversal_correct,total_reversal_time,extra_block,participant,date,expName,psychopyVersion,frameRate,ver,
0,exp1.png,exp2.png,,0,0,0,0,0,0,0,0,,,,,,,,,,,,,,,,,,,,,,,,,False,0,1,True,exp2.png,exp1.png,trial_right_image,-1,exp1.png,4,exp2.png,exp1.png,0,2,non-reversed,incorrect,0.8206845587542919,0,valid_lose,3.700449199999639,0,,,,,,,,,,,,,,,,sub_392,2024-07-08_17h12.04.108,Reversal,2022.1.2,60.028081136384344,4,
1,exp3.png,exp4.png,,0,0,0,0,0,1,1,1,,,,,,,,,,,,,,,,,,,,,,,,,False,1,2,True,exp4.png,exp3.png,trial_right_image,-1,exp3.png,4,exp4.png,exp3.png,0,4,reversed,incorrect,0.305581439692308,0,valid_lose,8.966663199999857,0,,,,,,,,,,,,,,,,sub_392,2024-07-08_17h12.04.108,Reversal,2022.1.2,60.028081136384344,4,
2,exp1.png,exp2.png,,0,0,0,0,0,2,2,2,,,,,,,,,,,,,,,,,,,,,,,,,False,2,3,True,exp2.png,exp1.png,trial_left_image,1,exp2.png,4,exp2.png,exp1.png,1,1,non-reversed,correct,0.8741588866985056,1,valid_win,13.533072100000027,1,,,,,,,,,,,,,,,,sub_392,2024-07-08_17h12.04.108,Reversal,2022.1.2,60.028081136384344,4,
3,exp3.png,exp4.png,,0,0,0,0,0,3,3,3,,,,,,,,,,,,,,,,,,,,,,,,,False,3,4,False,exp3.png,exp4.png,trial_left_image,1,exp3.png,4,exp4.png,exp3.png,0,4,reversed,incorrect,0.6466621715645833,0,valid_lose,21.733168200000364,1,,,,,,,,,,,,,,,,sub_392,2024-07-08_17h12.04.108,Reversal,2022.1.2,60.028081136384344,4,
4,exp1.png,exp2.png,,0,0,0,0,0,4,4,4,,,,,,,,,,,,,,,,,,,,,,,,,False,4,5,True,exp2.png,exp1.png,trial_right_image,-1,exp1.png,4,exp2.png,exp1.png,0,2,non-reversed,incorrect,0.43235079202272664,0,valid_lose,33.365976000000046,1,,,,,,,,,,,,,,,,sub_392,2024-07-08_17h12.04.108,Reversal,2022.1.2,60.028081136384344,4,
5,exp3.png,exp4.png,,0,0,0,0,0,5,5,5,,,,,,,,,,,,,,,,,,,,,,,,,False,5,6,False,exp3.png,exp4.png,trial_right_image,-1,exp4.png,4,exp4.png,exp3.png,1,3,reversed,correct,0.43269357622664884,1,valid_win,44.215905699999894,2,,,,,,,,,,,,,,,,sub_392,2024-07-08_17h12.04.108,Reversal,2022.1.2,60.028081136384344,4,
6,exp1.png,exp2.png,,0,0,0,0,0,6,6,6,,,,,,,,,,,,,,,,,,,,,,,,,False,6,7,True,exp2.png,exp1.png,trial_left_image,1,exp2.png,4,exp2.png,exp1.png,1,1,non-reversed,correct,0.48898399055578856,1,valid_win,54.899365999999645,3,,,,,,,,,,,,,,,,sub_392,2024-07-08_17h12.04.108,Reversal,2022.1.2,60.028081136384344,4,
7,exp3.png,exp4.png,,0,0,0,0,0,7,7,7,,,,,,,,,,,,,,,,,,,,,,,,,False,7,8,True,exp4.png,exp3.png,trial_right_image,-1,exp3.png,4,exp4.png,exp3.png,0,4,reversed,incorrect,0.7853706598736049,0,valid_lose,64.58270670000002,3,,,,,,,,,,,,,,,,sub_392,2024-07-08_17h12.04.108,Reversal,2022.1.2,60.028081136384344,4,
8,exp1.png,exp2.png,,0,0,0,0,0,8,8,8,,,,,,,,,,,,,,,,,,,,,,,,,False,8,9,False,exp1.png,exp2.png,trial_right_image,-1,exp2.png,4,exp2.png,exp1.png,1,1,non-reversed,correct,0.8579444786858408,1,valid_win,69.44880149999972,4,,,,,,,,,,,,,,,,sub_392,2024-07-08_17h12.04.108,Reversal,2022.1.2,60.028081136384344,4,
9,exp3.png,exp4.png,,0,0,0,0,0,9,9,9,,,,,,,,,,,,,,,,,,,,,,,,,False,9,10,True,exp4.png,exp3.png,trial_left_image,1,exp4.png,4,exp4.png,exp3.png,1,3,reversed,correct,0.9199379378788737,1,valid_win,74.08303280000018,5,,,,,,,,,,,,,,,,sub_392,2024-07-08_17h12.04.108,Reversal,2022.1.2,60.028081136384344,4,
10,exp1.png,exp2.png,,0,0,0,0,0,10,10,10,,,,,,,,,,,,,,,,,,,,,,,,,False,10,11,True,exp2.png,exp1.png,trial_left_image,1,exp2.png,4,exp2.png,exp1.png,1,1,non-reversed,correct,0.6718111532702288,1,valid_win,78.63227480000023,6,,,,,,,,,,,,,,,,sub_392,2024-07-08_17h12.04.108,Reversal,2022.1.2,60.028081136384344,4,
11,exp3.png,exp4.png,,0,0,0,0,0,11,11,11,,,,,,,,,,,,,,,,,,,,,,,,,False,11,12,False,exp3.png,exp4.png,trial_right_image,-1,exp4.png,4,exp4.png,exp3.png,1,3,reversed,correct,0.6617887549381841,1,valid_win,82.69926510000005,7,,,,,,,,,,,,,,,,sub_392,2024-07-08_17h12.04.108,Reversal,2022.1.2,60.028081136384344,4,
12,exp1.png,exp2.png,,0,0,0,0,0,12,12,12,,,,,,,,,,,,,,,,,,,,,,,,,False,12,13,False,exp1.png,exp2.png,trial_right_image,-1,exp2.png,4,exp2.png,exp1.png,1,1,non-reversed,correct,0.8161299215623898,1,valid_win,87.04875100000027,8,,,,,,,,,,,,,,,,sub_392,2024-07-08_17h12.04.108,Reversal,2022.1.2,60.028081136384344,4,
13,exp3.png,exp4.png,,0,0,0,0,0,13,13,13,,,,,,,,,,,,,,,,,,,,,,,,,False,13,14,True,exp4.png,exp3.png,trial_left_image,1,exp4.png,4,exp4.png,exp3.png,1,3,reversed,correct,0.06466089923648344,0,invalid_lose,91.84883509999963,8,,,,,,,,,,,,,,,,sub_392,2024-07-08_17h12.04.108,Reversal,2022.1.2,60.028081136384344,4,
14,exp1.png,exp2.png,,0,0,0,0,0,14,14,14,,,,,,,,,,,,,,,,,,,,,,,,,False,14,15,False,exp1.png,exp2.png,trial_left_image,1,exp1.png,4,exp2.png,exp1.png,0,2,non-reversed,incorrect,0.9134076521558842,0,valid_lose,101.0648226000003,8,,,,,,,,,,,,,,,,sub_392,2024-07-08_17h12.04.108,Reversal,2022.1.2,60.028081136384344,4,
15,exp3.png,exp4.png,,0,0,0,0,0,15,15,15,,,,,,,,,,,,,,,,,,,,,,,,,False,15,16,False,exp3.png,exp4.png,trial_right_image,-1,exp4.png,4,exp4.png,exp3.png,1,3,reversed,correct,0.5302966124646883,1,valid_win,105.74879640000017,9,,,,,,,,,,,,,,,,sub_392,2024-07-08_17h12.04.108,Reversal,2022.1.2,60.028081136384344,4,
16,exp1.png,exp2.png,,0,0,0,0,0,16,16,16,,,,,,,,,,,,,,,,,,,,,,,,,False,16,17,False,exp1.png,exp2.png,trial_right_image,-1,exp2.png,4,exp2.png,exp1.png,1,1,non-reversed,correct,0.36420291626560175,1,valid_win,111.3320064999998,10,,,,,,,,,,,,,,,,sub_392,2024-07-08_17h12.04.108,Reversal,2022.1.2,60.028081136384344,4,
17,exp3.png,exp4.png,,0,0,0,0,0,17,17,17,,,,,,,,,,,,,,,,,,,,,,,,,False,17,18,False,exp3.png,exp4.png,trial_right_image,-1,exp4.png,4,exp4.png,exp3.png,1,3,reversed,correct,0.41271499432386016,1,valid_win,119.83196580000003,11,,,,,,,,,,,,,,,,sub_392,2024-07-08_17h12.04.108,Reversal,2022.1.2,60.028081136384344,4,
18,exp1.png,exp2.png,,0,0,0,0,0,18,18,18,,,,,,,,,,,,,,,,,,,,,,,,,False,18,19,False,exp1.png,exp2.png,trial_right_image,-1,exp2.png,4,exp2.png,exp1.png,1,1,non-reversed,correct,0.6510698935417172,1,valid_win,125.84819930000049,12,,,,,,,,,,,,,,,,sub_392,2024-07-08_17h12.04.108,Reversal,2022.1.2,60.028081136384344,4,
19,exp3.png,exp4.png,,0,0,0,0,0,19,19,19,,,,,,,,,,,,,,,,,,,,,,,,,False,19,20,True,exp4.png,exp3.png,trial_left_image,1,exp4.png,4,exp4.png,exp3.png,1,3,reversed,correct,0.8139047287792412,1,valid_win,131.76469439999983,13,,,,,,,,,,,,,,,,sub_392,2024-07-08_17h12.04.108,Reversal,2022.1.2,60.028081136384344,4,
20,exp1.png,exp2.png,,0,0,0,0,0,20,20,20,,,,,,,,,,,,,,,,,,,,,,,,,True,,,,,,,,,,,,,,,,,,,,,,,,,,,,,,,,,,,,sub_392,2024-07-08_17h12.04.108,Reversal,2022.1.2,60.028081136384344,4,
,,,exp1.png,0,0,0,0,,,,,0,0,0,0,0,0,0,0,,,,,,,,,,,,,,,,,,,,,,,,,,,,,,,,,,,,,,1.0,1.0,6.764132100000097,"[(1.0, 6.764132100000097)]",207.49366649999956,None,,,,,,,,,,sub_392,2024-07-08_17h12.04.108,Reversal,2022.1.2,60.028081136384344,4,
,,,exp2.png,0,0,0,0,,,,,0,0,0,0,0,1,1,1,,,,,,,,,,,,,,,,,,,,,,,,,,,,,,,,,,,,,,,100.0,3.584461800000099,"[(100.0, 3.584461800000099)]",215.7095231000003,None,100.0,,,,,,,,,sub_392,2024-07-08_17h12.04.108,Reversal,2022.1.2,60.028081136384344,4,
,,,exp3.png,0,0,0,0,,,,,0,0,0,0,0,2,2,2,,,,,,,,,,,,,,,,,,,,,,,,,,,,,,,,,,,,,,,8.0,4.381282800000008,"[(8.0, 4.381282800000008)]",220.49598700000024,None,,8.0,,,,,,,,sub_392,2024-07-08_17h12.04.108,Reversal,2022.1.2,60.028081136384344,4,
,,,exp4.png,0,0,0,0,,,,,0,0,0,0,0,3,3,3,,,,,,,,,,,,,,,,,,,,,,,,,,,,,,,,,,,,,,,98.0,2.484963300000345,"[(98.0, 2.484963300000345)]",226.27570749999995,None,,,98.0,,,,,,,sub_392,2024-07-08_17h12.04.108,Reversal,2022.1.2,60.028081136384344,4,
0,exp1.png,exp2.png,,1,0,1,0,0,0,0,0,,,,,,,,,,,,,,,,,,,,,,,,,False,20,21,True,exp2.png,exp1.png,trial_left_image,1,exp2.png,4,exp2.png,exp1.png,1,1,non-reversed,correct,0.3507366437024442,1,valid_win,162.5641037000005,14,,,,,,,,,,,,,,,,sub_392,2024-07-08_17h12.04.108,Reversal,2022.1.2,60.028081136384344,4,
1,exp3.png,exp4.png,,1,0,1,0,0,1,1,1,,,,,,,,,,,,,,,,,,,,,,,,,False,21,22,True,exp4.png,exp3.png,trial_left_image,1,exp4.png,4,exp4.png,exp3.png,1,3,reversed,correct,0.018593275716648372,0,invalid_lose,168.09751340000003,14,,,,,,,,,,,,,,,,sub_392,2024-07-08_17h12.04.108,Reversal,2022.1.2,60.028081136384344,4,
2,exp1.png,exp2.png,,1,0,1,0,0,2,2,2,,,,,,,,,,,,,,,,,,,,,,,,,False,22,23,False,exp1.png,exp2.png,trial_right_image,-1,exp2.png,4,exp2.png,exp1.png,1,1,non-reversed,correct,0.38354097831149014,1,valid_win,172.79693870000028,15,,,,,,,,,,,,,,,,sub_392,2024-07-08_17h12.04.108,Reversal,2022.1.2,60.028081136384344,4,
3,exp3.png,exp4.png,,1,0,1,0,0,3,3,3,,,,,,,,,,,,,,,,,,,,,,,,,False,23,24,True,exp4.png,exp3.png,trial_right_image,-1,exp3.png,4,exp4.png,exp3.png,0,4,reversed,incorrect,0.5921499479688804,0,valid_lose,178.8640623000001,15,,,,,,,,,,,,,,,,sub_392,2024-07-08_17h12.04.108,Reversal,2022.1.2,60.028081136384344,4,
4,exp1.png,exp2.png,,1,0,1,0,0,4,4,4,,,,,,,,,,,,,,,,,,,,,,,,,False,24,25,True,exp2.png,exp1.png,trial_left_image,1,exp2.png,4,exp2.png,exp1.png,1,1,non-reversed,correct,0.3422931409469402,1,valid_win,183.34755330000007,16,,,,,,,,,,,,,,,,sub_392,2024-07-08_17h12.04.108,Reversal,2022.1.2,60.028081136384344,4,
5,exp3.png,exp4.png,,1,0,1,0,0,5,5,5,,,,,,,,,,,,,,,,,,,,,,,,,False,25,26,False,exp3.png,exp4.png,trial_right_image,-1,exp4.png,4,exp4.png,exp3.png,1,3,reversed,correct,0.10304309190481609,0,invalid_lose,189.69677479999973,16,,,,,,,,,,,,,,,,sub_392,2024-07-08_17h12.04.108,Reversal,2022.1.2,60.028081136384344,4,
6,exp1.png,exp2.png,,1,0,1,0,0,6,6,6,,,,,,,,,,,,,,,,,,,,,,,,,False,26,27,True,exp2.png,exp1.png,trial_left_image,1,exp2.png,4,exp2.png,exp1.png,1,1,non-reversed,correct,0.5285192264572247,1,valid_win,194.34723490000033,17,,,,,,,,,,,,,,,,sub_392,2024-07-08_17h12.04.108,Reversal,2022.1.2,60.028081136384344,4,
7,exp3.png,exp4.png,,1,0,1,0,0,7,7,7,,,,,,,,,,,,,,,,,,,,,,,,,False,27,28,True,exp4.png,exp3.png,trial_left_image,1,exp4.png,4,exp4.png,exp3.png,1,3,reversed,correct,0.8330323050202398,1,valid_win,201.16354219999994,18,,,,,,,,,,,,,,,,sub_392,2024-07-08_17h12.04.108,Reversal,2022.1.2,60.028081136384344,4,
8,exp1.png,exp2.png,,1,0,1,0,0,8,8,8,,,,,,,,,,,,,,,,,,,,,,,,,False,28,29,False,exp1.png,exp2.png,trial_right_image,-1,exp2.png,4,exp2.png,exp1.png,1,1,non-reversed,correct,0.7999311373837685,1,valid_win,206.04536149999967,19,,,,,,,,,,,,,,,,sub_392,2024-07-08_17h12.04.108,Reversal,2022.1.2,60.028081136384344,4,
9,exp3.png,exp4.png,,1,0,1,0,0,9,9,9,,,,,,,,,,,,,,,,,,,,,,,,,False,29,30,False,exp3.png,exp4.png,trial_right_image,-1,exp4.png,4,exp4.png,exp3.png,1,3,reversed,correct,0.1706336540833827,0,invalid_lose,212.02955269999984,19,,,,,,,,,,,,,,,,sub_392,2024-07-08_17h12.04.108,Reversal,2022.1.2,60.028081136384344,4,
10,exp1.png,exp2.png,,1,0,1,0,0,10,10,10,,,,,,,,,,,,,,,,,,,,,,,,,False,30,31,False,exp1.png,exp2.png,trial_right_image,-1,exp2.png,4,exp2.png,exp1.png,1,1,non-reversed,correct,0.07936200628816592,0,invalid_lose,216.31391050000002,19,,,,,,,,,,,,,,,,sub_392,2024-07-08_17h12.04.108,Reversal,2022.1.2,60.028081136384344,4,
11,exp3.png,exp4.png,,1,0,1,0,0,11,11,11,,,,,,,,,,,,,,,,,,,,,,,,,False,31,32,False,exp3.png,exp4.png,trial_right_image,-1,exp4.png,4,exp4.png,exp3.png,1,3,reversed,correct,0.4592284714530599,1,valid_win,222.1801164999997,20,,,,,,,,,,,,,,,,sub_392,2024-07-08_17h12.04.108,Reversal,2022.1.2,60.028081136384344,4,
12,exp1.png,exp2.png,,1,0,1,0,0,12,12,12,,,,,,,,,,,,,,,,,,,,,,,,,False,32,33,True,exp2.png,exp1.png,trial_left_image,1,exp2.png,4,exp2.png,exp1.png,1,1,non-reversed,correct,0.6423855568472218,1,valid_win,227.32958119999967,21,,,,,,,,,,,,,,,,sub_392,2024-07-08_17h12.04.108,Reversal,2022.1.2,60.028081136384344,4,
13,exp3.png,exp4.png,,1,0,1,0,0,13,13,13,,,,,,,,,,,,,,,,,,,,,,,,,False,33,34,False,exp3.png,exp4.png,trial_left_image,1,exp3.png,4,exp4.png,exp3.png,0,4,reversed,incorrect,0.4323761226151559,0,valid_lose,233.4623273999996,21,,,,,,,,,,,,,,,,sub_392,2024-07-08_17h12.04.108,Reversal,2022.1.2,60.028081136384344,4,
14,exp1.png,exp2.png,,1,0,1,0,0,14,14,14,,,,,,,,,,,,,,,,,,,,,,,,,False,34,35,True,exp2.png,exp1.png,trial_left_image,1,exp2.png,4,exp2.png,exp1.png,1,1,non-reversed,correct,0.12221588601603173,0,invalid_lose,238.06278620000012,21,,,,,,,,,,,,,,,,sub_392,2024-07-08_17h12.04.108,Reversal,2022.1.2,60.028081136384344,4,
15,exp3.png,exp4.png,,1,0,1,0,0,15,15,15,,,,,,,,,,,,,,,,,,,,,,,,,False,35,36,False,exp3.png,exp4.png,trial_right_image,-1,exp4.png,4,exp4.png,exp3.png,1,3,reversed,correct,0.16205162086698344,0,invalid_lose,243.24576650000017,21,,,,,,,,,,,,,,,,sub_392,2024-07-08_17h12.04.108,Reversal,2022.1.2,60.028081136384344,4,
16,exp1.png,exp2.png,,1,0,1,0,0,16,16,16,,,,,,,,,,,,,,,,,,,,,,,,,False,36,37,True,exp2.png,exp1.png,trial_left_image,1,exp2.png,4,exp2.png,exp1.png,1,1,non-reversed,correct,0.7265035936392827,1,valid_win,248.52892669999983,22,,,,,,,,,,,,,,,,sub_392,2024-07-08_17h12.04.108,Reversal,2022.1.2,60.028081136384344,4,
17,exp3.png,exp4.png,,1,0,1,0,0,17,17,17,,,,,,,,,,,,,,,,,,,,,,,,,False,37,38,False,exp3.png,exp4.png,trial_left_image,1,exp3.png,4,exp4.png,exp3.png,0,4,reversed,incorrect,0.37645300309580065,0,valid_lose,253.86257709999973,22,,,,,,,,,,,,,,,,sub_392,2024-07-08_17h12.04.108,Reversal,2022.1.2,60.028081136384344,4,
18,exp1.png,exp2.png,,1,0,1,0,0,18,18,18,,,,,,,,,,,,,,,,,,,,,,,,,False,38,39,True,exp2.png,exp1.png,trial_left_image,1,exp2.png,4,exp2.png,exp1.png,1,1,non-reversed,correct,0.4902551764532703,1,valid_win,258.1456182000002,23,,,,,,,,,,,,,,,,sub_392,2024-07-08_17h12.04.108,Reversal,2022.1.2,60.028081136384344,4,
19,exp3.png,exp4.png,,1,0,1,0,0,19,19,19,,,,,,,,,,,,,,,,,,,,,,,,,False,39,40,False,exp3.png,exp4.png,trial_left_image,1,exp3.png,4,exp4.png,exp3.png,0,4,reversed,incorrect,0.9906133050071768,0,valid_lose,263.17892029999985,23,,,,,,,,,,,,,,,,sub_392,2024-07-08_17h12.04.108,Reversal,2022.1.2,60.028081136384344,4,
20,exp1.png,exp2.png,,1,0,1,0,0,20,20,20,,,,,,,,,,,,,,,,,,,,,,,,,True,,,,,,,,,,,,,,,,,,,,,,,,,,,,,,,,,,,,sub_392,2024-07-08_17h12.04.108,Reversal,2022.1.2,60.028081136384344,4,
,,,exp1.png,1,0,1,0,,,,,0,0,0,0,0,0,0,0,,,,,,,,,,,,,,,,,,,,,,,,,,,,,,,,,,,,,,,50.0,None,[],338.9156991,None,,,,,,,,,,sub_392,2024-07-08_17h12.04.108,Reversal,2022.1.2,60.028081136384344,4,
,,,exp2.png,1,0,1,0,,,,,0,0,0,0,0,1,1,1,,,,,,,,,,,,,,,,,,,,,,,,,,,,,,,,,,,,,,,94.0,2.301041499999883,"[(94.0, 2.301041499999883)]",344.1225832,None,94.0,,,,,,,,,sub_392,2024-07-08_17h12.04.108,Reversal,2022.1.2,60.028081136384344,4,
,,,exp3.png,1,0,1,0,,,,,0,0,0,0,0,2,2,2,,,,,,,,,,,,,,,,,,,,,,,,,,,,,,,,,,,,,,,31.0,4.233703900000364,"[(31.0, 4.233703900000364)]",347.67266800000016,None,,31.0,,,,,,,,sub_392,2024-07-08_17h12.04.108,Reversal,2022.1.2,60.028081136384344,4,
,,,exp4.png,1,0,1,0,,,,,0,0,0,0,0,3,3,3,,,,,,,,,,,,,,,,,,,,,,,,,,,,,,,,,,,,,,,1.0,2.3677627000006396,"[(1.0, 2.3677627000006396)]",352.72304710000026,None,,,1.0,,,,,,,sub_392,2024-07-08_17h12.04.108,Reversal,2022.1.2,60.028081136384344,4,
0,exp1.png,exp2.png,,2,0,2,0,0,0,0,0,,,,,,,,,,,,,,,,,,,,,,,,,False,40,41,False,exp1.png,exp2.png,trial_right_image,-1,exp2.png,4,exp2.png,exp1.png,1,1,non-reversed,correct,0.10136941301485258,0,invalid_lose,285.61233189999984,23,,,,,,,,,,,,,,,,sub_392,2024-07-08_17h12.04.108,Reversal,2022.1.2,60.028081136384344,4,
1,exp3.png,exp4.png,,2,0,2,0,0,1,1,1,,,,,,,,,,,,,,,,,,,,,,,,,False,41,42,True,exp4.png,exp3.png,trial_left_image,1,exp4.png,4,exp4.png,exp3.png,1,3,reversed,correct,0.4698416069481849,1,valid_win,292.1958156999999,24,,,,,,,,,,,,,,,,sub_392,2024-07-08_17h12.04.108,Reversal,2022.1.2,60.028081136384344,4,
2,exp1.png,exp2.png,,2,0,2,0,0,2,2,2,,,,,,,,,,,,,,,,,,,,,,,,,False,42,43,True,exp2.png,exp1.png,trial_left_image,1,exp2.png,4,exp2.png,exp1.png,1,1,non-reversed,correct,0.07803068152495807,0,invalid_lose,296.7948169000001,24,,,,,,,,,,,,,,,,sub_392,2024-07-08_17h12.04.108,Reversal,2022.1.2,60.028081136384344,4,
3,exp3.png,exp4.png,,2,0,2,0,0,3,3,3,,,,,,,,,,,,,,,,,,,,,,,,,False,43,44,False,exp3.png,exp4.png,trial_right_image,-1,exp4.png,4,exp4.png,exp3.png,1,3,reversed,correct,0.4821511553264207,1,valid_win,303.31177970000044,25,,,,,,,,,,,,,,,,sub_392,2024-07-08_17h12.04.108,Reversal,2022.1.2,60.028081136384344,4,
4,exp1.png,exp2.png,,2,0,2,0,0,4,4,4,,,,,,,,,,,,,,,,,,,,,,,,,False,44,45,True,exp2.png,exp1.png,trial_left_image,1,exp2.png,4,exp2.png,exp1.png,1,1,non-reversed,correct,0.6489489324327677,1,valid_win,308.16183739999997,26,,,,,,,,,,,,,,,,sub_392,2024-07-08_17h12.04.108,Reversal,2022.1.2,60.028081136384344,4,
5,exp3.png,exp4.png,,2,0,2,0,0,5,5,5,,,,,,,,,,,,,,,,,,,,,,,,,False,45,46,True,exp4.png,exp3.png,trial_right_image,-1,exp3.png,4,exp4.png,exp3.png,0,4,reversed,incorrect,0.9843803109101865,0,valid_lose,313.2954342000003,26,,,,,,,,,,,,,,,,sub_392,2024-07-08_17h12.04.108,Reversal,2022.1.2,60.028081136384344,4,
6,exp1.png,exp2.png,,2,0,2,0,0,6,6,6,,,,,,,,,,,,,,,,,,,,,,,,,False,46,47,True,exp2.png,exp1.png,trial_right_image,-1,exp1.png,4,exp2.png,exp1.png,0,2,non-reversed,incorrect,0.2857716615383298,0,valid_lose,318.1287126999996,26,,,,,,,,,,,,,,,,sub_392,2024-07-08_17h12.04.108,Reversal,2022.1.2,60.028081136384344,4,
7,exp3.png,exp4.png,,2,0,2,0,0,7,7,7,,,,,,,,,,,,,,,,,,,,,,,,,False,47,48,False,exp3.png,exp4.png,trial_right_image,-1,exp4.png,4,exp4.png,exp3.png,1,3,reversed,correct,0.6695006693122465,1,valid_win,324.27864320000026,27,,,,,,,,,,,,,,,,sub_392,2024-07-08_17h12.04.108,Reversal,2022.1.2,60.028081136384344,4,
8,exp1.png,exp2.png,,2,0,2,0,0,8,8,8,,,,,,,,,,,,,,,,,,,,,,,,,False,48,49,False,exp1.png,exp2.png,trial_right_image,-1,exp2.png,4,exp2.png,exp1.png,1,1,non-reversed,correct,0.1201653630001871,0,invalid_lose,328.67818460000035,27,,,,,,,,,,,,,,,,sub_392,2024-07-08_17h12.04.108,Reversal,2022.1.2,60.028081136384344,4,
9,exp3.png,exp4.png,,2,0,2,0,0,9,9,9,,,,,,,,,,,,,,,,,,,,,,,,,False,49,50,True,exp4.png,exp3.png,trial_left_image,1,exp4.png,4,exp4.png,exp3.png,1,3,reversed,correct,0.14453687374436497,0,invalid_lose,335.0281203000004,27,,,,,,,,,,,,,,,,sub_392,2024-07-08_17h12.04.108,Reversal,2022.1.2,60.028081136384344,4,
10,exp1.png,exp2.png,,2,0,2,0,0,10,10,10,,,,,,,,,,,,,,,,,,,,,,,,,False,50,51,False,exp1.png,exp2.png,trial_right_image,-1,exp2.png,4,exp2.png,exp1.png,1,1,non-reversed,correct,0.6450546008894688,1,valid_win,339.94494339999983,28,,,,,,,,,,,,,,,,sub_392,2024-07-08_17h12.04.108,Reversal,2022.1.2,60.028081136384344,4,
11,exp3.png,exp4.png,,2,0,2,0,0,11,11,11,,,,,,,,,,,,,,,,,,,,,,,,,False,51,52,False,exp3.png,exp4.png,trial_right_image,-1,exp4.png,4,exp4.png,exp3.png,1,3,reversed,correct,0.01720076756838851,0,invalid_lose,346.72776950000025,28,,,,,,,,,,,,,,,,sub_392,2024-07-08_17h12.04.108,Reversal,2022.1.2,60.028081136384344,4,
12,exp1.png,exp2.png,,2,0,2,0,0,12,12,12,,,,,,,,,,,,,,,,,,,,,,,,,False,52,53,True,exp2.png,exp1.png,trial_left_image,1,exp2.png,4,exp2.png,exp1.png,1,1,non-reversed,correct,0.8207944759413209,1,valid_win,351.7774755999999,29,,,,,,,,,,,,,,,,sub_392,2024-07-08_17h12.04.108,Reversal,2022.1.2,60.028081136384344,4,
13,exp3.png,exp4.png,,2,0,2,0,0,13,13,13,,,,,,,,,,,,,,,,,,,,,,,,,False,53,54,False,exp3.png,exp4.png,trial_right_image,-1,exp4.png,4,exp4.png,exp3.png,1,3,reversed,correct,0.20177905590652545,0,invalid_lose,359.1440044000001,29,,,,,,,,,,,,,,,,sub_392,2024-07-08_17h12.04.108,Reversal,2022.1.2,60.028081136384344,4,
14,exp1.png,exp2.png,,2,0,2,0,0,14,14,14,,,,,,,,,,,,,,,,,,,,,,,,,False,54,55,False,exp1.png,exp2.png,trial_right_image,-1,exp2.png,4,exp2.png,exp1.png,1,1,non-reversed,correct,0.08392350767676038,0,invalid_lose,366.7112393999996,29,,,,,,,,,,,,,,,,sub_392,2024-07-08_17h12.04.108,Reversal,2022.1.2,60.028081136384344,4,
15,exp3.png,exp4.png,,2,0,2,0,0,15,15,15,,,,,,,,,,,,,,,,,,,,,,,,,False,55,56,True,exp4.png,exp3.png,trial_right_image,-1,exp3.png,4,exp4.png,exp3.png,0,4,reversed,incorrect,0.6830981700934173,0,valid_lose,373.21039780000046,29,,,,,,,,,,,,,,,,sub_392,2024-07-08_17h12.04.108,Reversal,2022.1.2,60.028081136384344,4,
16,exp1.png,exp2.png,,2,0,2,0,0,16,16,16,,,,,,,,,,,,,,,,,,,,,,,,,False,56,57,False,exp1.png,exp2.png,trial_left_image,1,exp1.png,4,exp2.png,exp1.png,0,2,non-reversed,incorrect,0.052584338413193876,1,invalid_win,377.6436515000005,30,,,,,,,,,,,,,,,,sub_392,2024-07-08_17h12.04.108,Reversal,2022.1.2,60.028081136384344,4,
17,exp3.png,exp4.png,,2,0,2,0,0,17,17,17,,,,,,,,,,,,,,,,,,,,,,,,,False,57,58,True,exp4.png,exp3.png,trial_left_image,1,exp4.png,4,exp4.png,exp3.png,1,3,reversed,correct,0.4677002191974656,1,valid_win,384.2606443000004,31,,,,,,,,,,,,,,,,sub_392,2024-07-08_17h12.04.108,Reversal,2022.1.2,60.028081136384344,4,
18,exp1.png,exp2.png,,2,0,2,0,0,18,18,18,,,,,,,,,,,,,,,,,,,,,,,,,False,58,59,False,exp1.png,exp2.png,trial_left_image,1,exp1.png,4,exp2.png,exp1.png,0,2,non-reversed,incorrect,0.9738721683451509,0,valid_lose,389.6770333000004,31,,,,,,,,,,,,,,,,sub_392,2024-07-08_17h12.04.108,Reversal,2022.1.2,60.028081136384344,4,
19,exp3.png,exp4.png,,2,0,2,0,0,19,19,19,,,,,,,,,,,,,,,,,,,,,,,,,False,59,60,True,exp4.png,exp3.png,trial_left_image,1,exp4.png,4,exp4.png,exp3.png,1,3,reversed,correct,0.8430879594499728,1,valid_win,395.5769117,32,,,,,,,,,,,,,,,,sub_392,2024-07-08_17h12.04.108,Reversal,2022.1.2,60.028081136384344,4,
20,exp1.png,exp2.png,,2,0,2,0,0,20,20,20,,,,,,,,,,,,,,,,,,,,,,,,,True,,,,,,,,,,,,,,,,,,,,,,,,,,,,,,,,,,,,sub_392,2024-07-08_17h12.04.108,Reversal,2022.1.2,60.028081136384344,4,
,,,exp1.png,2,0,2,0,,,,,0,0,0,0,0,0,0,0,,,,,,,,,,,,,,,,,,,,,,,,,,,,,,,,,,,,,,,50.0,None,[],471.31506979999995,None,,,,,,,,,,sub_392,2024-07-08_17h12.04.108,Reversal,2022.1.2,60.028081136384344,4,
,,,exp2.png,2,0,2,0,,,,,0,0,0,0,0,1,1,1,,,,,,,,,,,,,,,,,,,,,,,,,,,,,,,,,,,,,,,50.0,None,[],477.2026043999995,None,,,,,,,,,,sub_392,2024-07-08_17h12.04.108,Reversal,2022.1.2,60.028081136384344,4,
,,,exp3.png,2,0,2,0,,,,,0,0,0,0,0,2,2,2,,,,,,,,,,,,,,,,,,,,,,,,,,,,,,,,,,,,,,,15.0,2.0161607000000004,"[(15.0, 2.0161607000000004)]",479.22173790000033,None,,15.0,,,,,,,,sub_392,2024-07-08_17h12.04.108,Reversal,2022.1.2,60.028081136384344,4,
,,,exp4.png,2,0,2,0,,,,,0,0,0,0,0,3,3,3,,,,,,,,,,,,,,,,,,,,,,,,,,,,,,,,,,,,,,,50.0,None,[],482.13628119999976,None,,,,,,,,,,sub_392,2024-07-08_17h12.04.108,Reversal,2022.1.2,60.028081136384344,4,
0,exp1.png,exp2.png,,,,,,,,,,,,,,,,,,0,0,0,0,0,0,0,0,,,,,,,,,False,0,61,True,exp2.png,exp1.png,trial_left_image,1,exp2.png,4,exp2.png,exp1.png,1,1,non-reversed,correct,0.6793865486204771,1,valid_win,414.05956530000003,33,,,,,,,,,,412.0244413999999,,,,,,sub_392,2024-07-08_17h12.04.108,Reversal,2022.1.2,60.028081136384344,4,
1,exp3.png,exp4.png,,,,,,,,,,,,,,,,,,0,0,0,0,0,1,1,1,,,,,,,,,False,1,62,True,exp4.png,exp3.png,trial_left_image,1,exp4.png,4,exp3.png,exp4.png,1,3,reversed,incorrect,0.42889149832286044,0,valid_lose,422.59332189999986,33,,,,,,,,,,,,,,,,sub_392,2024-07-08_17h12.04.108,Reversal,2022.1.2,60.028081136384344,4,
2,exp1.png,exp2.png,,,,,,,,,,,,,,,,,,0,0,0,0,0,2,2,2,,,,,,,,,False,2,63,True,exp2.png,exp1.png,trial_left_image,1,exp2.png,4,exp2.png,exp1.png,1,1,non-reversed,correct,0.6870878389329296,1,valid_win,427.22668369999974,34,,,,,,,,,,,,,,,,sub_392,2024-07-08_17h12.04.108,Reversal,2022.1.2,60.028081136384344,4,
3,exp3.png,exp4.png,,,,,,,,,,,,,,,,,,0,0,0,0,0,3,3,3,,,,,,,,,False,3,64,False,exp3.png,exp4.png,trial_right_image,-1,exp4.png,4,exp3.png,exp4.png,1,3,reversed,incorrect,0.5809400299739516,0,valid_lose,433.7930096,34,,,,,,,,,,,,,,,,sub_392,2024-07-08_17h12.04.108,Reversal,2022.1.2,60.028081136384344,4,
4,exp1.png,exp2.png,,,,,,,,,,,,,,,,,,0,0,0,0,0,4,4,4,,,,,,,,,False,4,65,False,exp1.png,exp2.png,trial_right_image,-1,exp2.png,4,exp2.png,exp1.png,1,1,non-reversed,correct,0.3523473649478438,1,valid_win,438.80905540000003,35,,,,,,,,,,,,,,,,sub_392,2024-07-08_17h12.04.108,Reversal,2022.1.2,60.028081136384344,4,
5,exp3.png,exp4.png,,,,,,,,,,,,,,,,,,0,0,0,0,0,5,5,5,,,,,,,,,False,5,66,True,exp4.png,exp3.png,trial_right_image,-1,exp3.png,4,exp3.png,exp4.png,0,4,reversed,correct,0.8434111553534291,1,valid_win,444.32639629999994,36,,,,,,,,,,,,,,,,sub_392,2024-07-08_17h12.04.108,Reversal,2022.1.2,60.028081136384344,4,
6,exp1.png,exp2.png,,,,,,,,,,,,,,,,,,0,0,0,0,0,6,6,6,,,,,,,,,False,6,67,True,exp2.png,exp1.png,trial_left_image,1,exp2.png,4,exp2.png,exp1.png,1,1,non-reversed,correct,0.8535534741122305,1,valid_win,448.8594796999996,37,,,,,,,,,,,,,,,,sub_392,2024-07-08_17h12.04.108,Reversal,2022.1.2,60.028081136384344,4,
7,exp3.png,exp4.png,,,,,,,,,,,,,,,,,,0,0,0,0,0,7,7,7,,,,,,,,,False,7,68,True,exp4.png,exp3.png,trial_right_image,-1,exp3.png,4,exp3.png,exp4.png,0,4,reversed,correct,0.13395148133363377,0,invalid_lose,453.7923215999999,37,,,,,,,,,,,,,,,,sub_392,2024-07-08_17h12.04.108,Reversal,2022.1.2,60.028081136384344,4,
8,exp1.png,exp2.png,,,,,,,,,,,,,,,,,,0,0,0,0,0,8,8,8,,,,,,,,,False,8,69,False,exp1.png,exp2.png,trial_left_image,1,exp1.png,4,exp2.png,exp1.png,0,2,non-reversed,incorrect,0.26025656255330043,0,valid_lose,459.00885629999993,37,,,,,,,,,,,,,,,,sub_392,2024-07-08_17h12.04.108,Reversal,2022.1.2,60.028081136384344,4,
9,exp3.png,exp4.png,,,,,,,,,,,,,,,,,,0,0,0,0,0,9,9,9,,,,,,,,,False,9,70,False,exp3.png,exp4.png,trial_right_image,-1,exp4.png,4,exp3.png,exp4.png,1,3,reversed,incorrect,0.9687051686543146,0,valid_lose,464.0426276999997,37,,,,,,,,,,,,,,,,sub_392,2024-07-08_17h12.04.108,Reversal,2022.1.2,60.028081136384344,4,
10,exp1.png,exp2.png,,,,,,,,,,,,,,,,,,0,0,0,0,0,10,10,10,,,,,,,,,False,10,71,True,exp2.png,exp1.png,trial_left_image,1,exp2.png,4,exp2.png,exp1.png,1,1,non-reversed,correct,0.6923083259142653,1,valid_win,468.47533569999996,38,,,,,,,,,,,,,,,,sub_392,2024-07-08_17h12.04.108,Reversal,2022.1.2,60.028081136384344,4,
11,exp3.png,exp4.png,,,,,,,,,,,,,,,,,,0,0,0,0,0,11,11,11,,,,,,,,,False,11,72,True,exp4.png,exp3.png,trial_right_image,-1,exp3.png,4,exp3.png,exp4.png,0,4,reversed,correct,0.9544541643366328,1,valid_win,474.40871590000006,39,,,,,,,,,,,,,,,,sub_392,2024-07-08_17h12.04.108,Reversal,2022.1.2,60.028081136384344,4,
12,exp1.png,exp2.png,,,,,,,,,,,,,,,,,,0,0,0,0,0,12,12,12,,,,,,,,,False,12,73,True,exp2.png,exp1.png,trial_left_image,1,exp2.png,4,exp2.png,exp1.png,1,1,non-reversed,correct,0.13888694573628868,0,invalid_lose,479.6920909999999,39,,,,,,,,,,,,,,,,sub_392,2024-07-08_17h12.04.108,Reversal,2022.1.2,60.028081136384344,4,
13,exp3.png,exp4.png,,,,,,,,,,,,,,,,,,0,0,0,0,0,13,13,13,,,,,,,,,False,13,74,True,exp4.png,exp3.png,trial_left_image,1,exp4.png,4,exp3.png,exp4.png,1,3,reversed,incorrect,0.5485600175393992,0,valid_lose,487.4251887999999,39,,,,,,,,,,,,,,,,sub_392,2024-07-08_17h12.04.108,Reversal,2022.1.2,60.028081136384344,4,
14,exp1.png,exp2.png,,,,,,,,,,,,,,,,,,0,0,0,0,0,14,14,14,,,,,,,,,False,14,75,False,exp1.png,exp2.png,trial_right_image,-1,exp2.png,4,exp2.png,exp1.png,1,1,non-reversed,correct,0.4131820979119093,1,valid_win,491.7431746000002,40,,,,,,,,,,,,,,,,sub_392,2024-07-08_17h12.04.108,Reversal,2022.1.2,60.028081136384344,4,
15,exp3.png,exp4.png,,,,,,,,,,,,,,,,,,0,0,0,0,0,15,15,15,,,,,,,,,False,15,76,False,exp3.png,exp4.png,trial_right_image,-1,exp4.png,4,exp3.png,exp4.png,1,3,reversed,incorrect,0.21679689213666464,1,invalid_win,496.8750536999996,41,,,,,,,,,,,,,,,,sub_392,2024-07-08_17h12.04.108,Reversal,2022.1.2,60.028081136384344,4,
16,exp1.png,exp2.png,,,,,,,,,,,,,,,,,,0,0,0,0,0,16,16,16,,,,,,,,,False,16,77,False,exp1.png,exp2.png,trial_left_image,1,exp1.png,4,exp2.png,exp1.png,0,2,non-reversed,incorrect,0.13490887185294165,1,invalid_win,501.7748806999998,42,,,,,,,,,,,,,,,,sub_392,2024-07-08_17h12.04.108,Reversal,2022.1.2,60.028081136384344,4,
17,exp3.png,exp4.png,,,,,,,,,,,,,,,,,,0,0,0,0,0,17,17,17,,,,,,,,,False,17,78,False,exp3.png,exp4.png,trial_right_image,-1,exp4.png,4,exp3.png,exp4.png,1,3,reversed,incorrect,0.057540803319884315,1,invalid_win,506.87468609999996,43,,,,,,,,,,,,,,,,sub_392,2024-07-08_17h12.04.108,Reversal,2022.1.2,60.028081136384344,4,
18,exp1.png,exp2.png,,,,,,,,,,,,,,,,,,0,0,0,0,0,18,18,18,,,,,,,,,False,18,79,False,exp1.png,exp2.png,trial_left_image,1,exp1.png,4,exp2.png,exp1.png,0,2,non-reversed,incorrect,0.8178273733137912,0,valid_lose,512.8581034999997,43,,,,,,,,,,,,,,,,sub_392,2024-07-08_17h12.04.108,Reversal,2022.1.2,60.028081136384344,4,
19,exp3.png,exp4.png,,,,,,,,,,,,,,,,,,0,0,0,0,0,19,19,19,,,,,,,,,False,19,80,False,exp3.png,exp4.png,trial_right_image,-1,exp4.png,4,exp3.png,exp4.png,1,3,reversed,incorrect,0.35665304315278146,0,valid_lose,517.4085296000003,43,,,,,,,,,,,,,,,,sub_392,2024-07-08_17h12.04.108,Reversal,2022.1.2,60.028081136384344,4,
20,exp1.png,exp2.png,,,,,,,,,,,,,,,,,,0,0,0,0,0,20,20,20,,,,,,,,,True,,,,,,,,,,,,,,,,,,,,,,,,,,,,,,,,,,,,sub_392,2024-07-08_17h12.04.108,Reversal,2022.1.2,60.028081136384344,4,
,,,exp1.png,,,,,,,,,,,,,,,,,0,0,0,0,,,,,0,0,0,0,0,0,0,0,,,,,,,,,,,,,,,,,,,,,,,50.0,None,[],593.1397557999999,None,,,,,,,,,,sub_392,2024-07-08_17h12.04.108,Reversal,2022.1.2,60.028081136384344,4,
,,,exp2.png,,,,,,,,,,,,,,,,,0,0,0,0,,,,,0,0,0,0,0,1,1,1,,,,,,,,,,,,,,,,,,,,,,,50.0,None,[],596.2506737000003,None,,,,,,,,,,sub_392,2024-07-08_17h12.04.108,Reversal,2022.1.2,60.028081136384344,4,
,,,exp3.png,,,,,,,,,,,,,,,,,0,0,0,0,,,,,0,0,0,0,0,2,2,2,,,,,,,,,,,,,,,,,,,,,,,50.0,None,[],597.3684659999999,None,,,,,,,,,,sub_392,2024-07-08_17h12.04.108,Reversal,2022.1.2,60.028081136384344,4,
,,,exp4.png,,,,,,,,,,,,,,,,,0,0,0,0,,,,,0,0,0,0,0,3,3,3,,,,,,,,,,,,,,,,,,,,,,,50.0,None,[],599.0180109000003,None,,,,,,,,,,sub_392,2024-07-08_17h12.04.108,Reversal,2022.1.2,60.028081136384344,4,
0,exp1.png,exp2.png,,,,,,,,,,,,,,,,,,1,0,1,0,0,0,0,0,,,,,,,,,False,20,81,True,exp2.png,exp1.png,trial_left_image,1,exp2.png,4,exp2.png,exp1.png,1,1,non-reversed,correct,0.17041360006644746,0,invalid_lose,530.3081398000004,43,,,,,,,,,,,,,,,,sub_392,2024-07-08_17h12.04.108,Reversal,2022.1.2,60.028081136384344,4,
1,exp3.png,exp4.png,,,,,,,,,,,,,,,,,,1,0,1,0,0,1,1,1,,,,,,,,,False,21,82,True,exp4.png,exp3.png,trial_left_image,1,exp4.png,4,exp3.png,exp4.png,1,3,reversed,incorrect,0.6147056635255496,0,valid_lose,535.6081580999999,43,,,,,,,,,,,,,,,,sub_392,2024-07-08_17h12.04.108,Reversal,2022.1.2,60.028081136384344,4,
2,exp1.png,exp2.png,,,,,,,,,,,,,,,,,,1,0,1,0,0,2,2,2,,,,,,,,,False,22,83,False,exp1.png,exp2.png,trial_left_image,1,exp1.png,4,exp2.png,exp1.png,0,2,non-reversed,incorrect,0.32982671395941066,0,valid_lose,541.4908568000001,43,,,,,,,,,,,,,,,,sub_392,2024-07-08_17h12.04.108,Reversal,2022.1.2,60.028081136384344,4,
3,exp3.png,exp4.png,,,,,,,,,,,,,,,,,,1,0,1,0,0,3,3,3,,,,,,,,,False,23,84,True,exp4.png,exp3.png,trial_left_image,1,exp4.png,4,exp3.png,exp4.png,1,3,reversed,incorrect,0.10802412723553323,1,invalid_win,546.1245044999996,44,,,,,,,,,,,,,,,,sub_392,2024-07-08_17h12.04.108,Reversal,2022.1.2,60.028081136384344,4,
4,exp1.png,exp2.png,,,,,,,,,,,,,,,,,,1,0,1,0,0,4,4,4,,,,,,,,,False,24,85,False,exp1.png,exp2.png,trial_right_image,-1,exp2.png,4,exp2.png,exp1.png,1,1,non-reversed,correct,0.40136151602021897,1,valid_win,550.8915254000003,45,,,,,,,,,,,,,,,,sub_392,2024-07-08_17h12.04.108,Reversal,2022.1.2,60.028081136384344,4,
5,exp3.png,exp4.png,,,,,,,,,,,,,,,,,,1,0,1,0,0,5,5,5,,,,,,,,,False,25,86,True,exp4.png,exp3.png,trial_right_image,-1,exp3.png,4,exp3.png,exp4.png,0,4,reversed,correct,0.07128525639217231,0,invalid_lose,557.3075169000003,45,,,,,,,,,,,,,,,,sub_392,2024-07-08_17h12.04.108,Reversal,2022.1.2,60.028081136384344,4,
6,exp1.png,exp2.png,,,,,,,,,,,,,,,,,,1,0,1,0,0,6,6,6,,,,,,,,,False,26,87,False,exp1.png,exp2.png,trial_left_image,1,exp1.png,4,exp2.png,exp1.png,0,2,non-reversed,incorrect,0.8484723969084625,0,valid_lose,562.7569616999999,45,,,,,,,,,,,,,,,,sub_392,2024-07-08_17h12.04.108,Reversal,2022.1.2,60.028081136384344,4,
7,exp3.png,exp4.png,,,,,,,,,,,,,,,,,,1,0,1,0,0,7,7,7,,,,,,,,,False,27,88,False,exp3.png,exp4.png,trial_right_image,-1,exp4.png,4,exp3.png,exp4.png,1,3,reversed,incorrect,0.12477073234378344,1,invalid_win,567.2236869999997,46,,,,,,,,,,,,,,,,sub_392,2024-07-08_17h12.04.108,Reversal,2022.1.2,60.028081136384344,4,
8,exp1.png,exp2.png,,,,,,,,,,,,,,,,,,1,0,1,0,0,8,8,8,,,,,,,,,False,28,89,False,exp1.png,exp2.png,trial_right_image,-1,exp2.png,4,exp2.png,exp1.png,1,1,non-reversed,correct,0.4479622071043363,1,valid_win,571.4905330000001,47,,,,,,,,,,,,,,,,sub_392,2024-07-08_17h12.04.108,Reversal,2022.1.2,60.028081136384344,4,
9,exp3.png,exp4.png,,,,,,,,,,,,,,,,,,1,0,1,0,0,9,9,9,,,,,,,,,False,29,90,False,exp3.png,exp4.png,trial_right_image,-1,exp4.png,4,exp3.png,exp4.png,1,3,reversed,incorrect,0.8001761582048907,0,valid_lose,576.4572715000004,47,,,,,,,,,,,,,,,,sub_392,2024-07-08_17h12.04.108,Reversal,2022.1.2,60.028081136384344,4,
10,exp1.png,exp2.png,,,,,,,,,,,,,,,,,,1,0,1,0,0,10,10,10,,,,,,,,,False,30,91,False,exp1.png,exp2.png,trial_left_image,1,exp1.png,4,exp2.png,exp1.png,0,2,non-reversed,incorrect,0.7310650641641157,0,valid_lose,581.7234778000002,47,,,,,,,,,,,,,,,,sub_392,2024-07-08_17h12.04.108,Reversal,2022.1.2,60.028081136384344,4,
11,exp3.png,exp4.png,,,,,,,,,,,,,,,,,,1,0,1,0,0,11,11,11,,,,,,,,,False,31,92,True,exp4.png,exp3.png,trial_left_image,1,exp4.png,4,exp3.png,exp4.png,1,3,reversed,incorrect,0.31669055891164,0,valid_lose,586.2234443999996,47,,,,,,,,,,,,,,,,sub_392,2024-07-08_17h12.04.108,Reversal,2022.1.2,60.028081136384344,4,
12,exp1.png,exp2.png,,,,,,,,,,,,,,,,,,1,0,1,0,0,12,12,12,,,,,,,,,False,32,93,True,exp2.png,exp1.png,trial_right_image,-1,exp1.png,4,exp2.png,exp1.png,0,2,non-reversed,incorrect,0.20827182050775794,1,invalid_win,590.4739083000004,48,,,,,,,,,,,,,,,,sub_392,2024-07-08_17h12.04.108,Reversal,2022.1.2,60.028081136384344,4,
13,exp3.png,exp4.png,,,,,,,,,,,,,,,,,,1,0,1,0,0,13,13,13,,,,,,,,,False,33,94,True,exp4.png,exp3.png,trial_right_image,-1,exp3.png,4,exp3.png,exp4.png,0,4,reversed,correct,0.4292835574885414,1,valid_win,594.9901507000004,49,,,,,,,,,,,,,,,,sub_392,2024-07-08_17h12.04.108,Reversal,2022.1.2,60.028081136384344,4,
14,exp1.png,exp2.png,,,,,,,,,,,,,,,,,,1,0,1,0,0,14,14,14,,,,,,,,,False,34,95,False,exp1.png,exp2.png,trial_right_image,-1,exp2.png,4,exp2.png,exp1.png,1,1,non-reversed,correct,0.9824177134016319,1,valid_win,599.4073336000001,50,,,,,,,,,,,,,,,,sub_392,2024-07-08_17h12.04.108,Reversal,2022.1.2,60.028081136384344,4,
15,exp3.png,exp4.png,,,,,,,,,,,,,,,,,,1,0,1,0,0,15,15,15,,,,,,,,,False,35,96,False,exp3.png,exp4.png,trial_right_image,-1,exp4.png,4,exp3.png,exp4.png,1,3,reversed,incorrect,0.32371813928008075,0,valid_lose,604.2564731000002,50,,,,,,,,,,,,,,,,sub_392,2024-07-08_17h12.04.108,Reversal,2022.1.2,60.028081136384344,4,
16,exp1.png,exp2.png,,,,,,,,,,,,,,,,,,1,0,1,0,0,16,16,16,,,,,,,,,False,36,97,True,exp2.png,exp1.png,trial_left_image,1,exp2.png,4,exp2.png,exp1.png,1,1,non-reversed,correct,0.37623589527549683,1,valid_win,609.0228280000001,51,,,,,,,,,,,,,,,,sub_392,2024-07-08_17h12.04.108,Reversal,2022.1.2,60.028081136384344,4,
17,exp3.png,exp4.png,,,,,,,,,,,,,,,,,,1,0,1,0,0,17,17,17,,,,,,,,,False,37,98,False,exp3.png,exp4.png,trial_right_image,-1,exp4.png,4,exp3.png,exp4.png,1,3,reversed,incorrect,0.8667707151902823,0,valid_lose,614.5731114999999,51,,,,,,,,,,,,,,,,sub_392,2024-07-08_17h12.04.108,Reversal,2022.1.2,60.028081136384344,4,
18,exp1.png,exp2.png,,,,,,,,,,,,,,,,,,1,0,1,0,0,18,18,18,,,,,,,,,False,38,99,True,exp2.png,exp1.png,trial_left_image,1,exp2.png,4,exp2.png,exp1.png,1,1,non-reversed,correct,0.9190524582794158,1,valid_win,620.9397215999998,52,,,,,,,,,,,,,,,,sub_392,2024-07-08_17h12.04.108,Reversal,2022.1.2,60.028081136384344,4,
19,exp3.png,exp4.png,,,,,,,,,,,,,,,,,,1,0,1,0,0,19,19,19,,,,,,,,,False,39,100,True,exp4.png,exp3.png,trial_right_image,-1,exp3.png,4,exp3.png,exp4.png,0,4,reversed,correct,0.9347957210663276,1,valid_win,625.9398401999997,53,,,,,,,,,,,,,,,,sub_392,2024-07-08_17h12.04.108,Reversal,2022.1.2,60.028081136384344,4,
20,exp1.png,exp2.png,,,,,,,,,,,,,,,,,,1,0,1,0,0,20,20,20,,,,,,,,,True,,,,,,,,,,,,,,,,,,,,,,,,,,,,,,,,,,,,sub_392,2024-07-08_17h12.04.108,Reversal,2022.1.2,60.028081136384344,4,
,,,exp1.png,,,,,,,,,,,,,,,,,1,0,1,0,,,,,0,0,0,0,0,0,0,0,,,,,,,,,,,,,,,,,,,,,,,50.0,None,[],701.6704714999996,None,,,,,,,,,,sub_392,2024-07-08_17h12.04.108,Reversal,2022.1.2,60.028081136384344,4,
,,,exp2.png,,,,,,,,,,,,,,,,,1,0,1,0,,,,,0,0,0,0,0,1,1,1,,,,,,,,,,,,,,,,,,,,,,,50.0,None,[],705.5665102000003,None,,,,,,,,,,sub_392,2024-07-08_17h12.04.108,Reversal,2022.1.2,60.028081136384344,4,
,,,exp3.png,,,,,,,,,,,,,,,,,1,0,1,0,,,,,0,0,0,0,0,2,2,2,,,,,,,,,,,,,,,,,,,,,,,50.0,None,[],706.5371322999999,None,,,,,,,,,,sub_392,2024-07-08_17h12.04.108,Reversal,2022.1.2,60.028081136384344,4,
,,,exp4.png,,,,,,,,,,,,,,,,,1,0,1,0,,,,,0,0,0,0,0,3,3,3,,,,,,,,,,,,,,,,,,,,,,,50.0,None,[],707.4839419,None,,,,,,,,,,sub_392,2024-07-08_17h12.04.108,Reversal,2022.1.2,60.028081136384344,4,
0,exp1.png,exp2.png,,,,,,,,,,,,,,,,,,2,0,2,0,0,0,0,0,,,,,,,,,False,40,101,True,exp2.png,exp1.png,trial_right_image,-1,exp1.png,4,exp2.png,exp1.png,0,2,non-reversed,incorrect,0.3843602829755821,0,valid_lose,637.8726501000001,53,,,,,,,,,,,,,,,,sub_392,2024-07-08_17h12.04.108,Reversal,2022.1.2,60.028081136384344,4,
1,exp3.png,exp4.png,,,,,,,,,,,,,,,,,,2,0,2,0,0,1,1,1,,,,,,,,,False,41,102,True,exp4.png,exp3.png,trial_right_image,-1,exp3.png,4,exp3.png,exp4.png,0,4,reversed,correct,0.6024832676961763,1,valid_win,642.4561491000004,54,,,,,,,,,,,,,,,,sub_392,2024-07-08_17h12.04.108,Reversal,2022.1.2,60.028081136384344,4,
2,exp1.png,exp2.png,,,,,,,,,,,,,,,,,,2,0,2,0,0,2,2,2,,,,,,,,,False,42,103,True,exp2.png,exp1.png,trial_left_image,1,exp2.png,4,exp2.png,exp1.png,1,1,non-reversed,correct,0.25718142866492755,1,valid_win,646.8224670999998,55,,,,,,,,,,,,,,,,sub_392,2024-07-08_17h12.04.108,Reversal,2022.1.2,60.028081136384344,4,
3,exp3.png,exp4.png,,,,,,,,,,,,,,,,,,2,0,2,0,0,3,3,3,,,,,,,,,False,43,104,True,exp4.png,exp3.png,trial_left_image,1,exp4.png,4,exp3.png,exp4.png,1,3,reversed,incorrect,0.21655069205072253,1,invalid_win,651.1561582000004,56,,,,,,,,,,,,,,,,sub_392,2024-07-08_17h12.04.108,Reversal,2022.1.2,60.028081136384344,4,
4,exp1.png,exp2.png,,,,,,,,,,,,,,,,,,2,0,2,0,0,4,4,4,,,,,,,,,False,44,105,False,exp1.png,exp2.png,trial_right_image,-1,exp2.png,4,exp2.png,exp1.png,1,1,non-reversed,correct,0.51233575692372,1,valid_win,655.5220062999997,57,,,,,,,,,,,,,,,,sub_392,2024-07-08_17h12.04.108,Reversal,2022.1.2,60.028081136384344,4,
5,exp3.png,exp4.png,,,,,,,,,,,,,,,,,,2,0,2,0,0,5,5,5,,,,,,,,,False,45,106,False,exp3.png,exp4.png,trial_right_image,-1,exp4.png,4,exp3.png,exp4.png,1,3,reversed,incorrect,0.1880429470583993,1,invalid_win,660.3719425999998,58,,,,,,,,,,,,,,,,sub_392,2024-07-08_17h12.04.108,Reversal,2022.1.2,60.028081136384344,4,
6,exp1.png,exp2.png,,,,,,,,,,,,,,,,,,2,0,2,0,0,6,6,6,,,,,,,,,False,46,107,True,exp2.png,exp1.png,trial_left_image,1,exp2.png,4,exp2.png,exp1.png,1,1,non-reversed,correct,0.7002190481453932,1,valid_win,664.7721073000002,59,,,,,,,,,,,,,,,,sub_392,2024-07-08_17h12.04.108,Reversal,2022.1.2,60.028081136384344,4,
7,exp3.png,exp4.png,,,,,,,,,,,,,,,,,,2,0,2,0,0,7,7,7,,,,,,,,,False,47,108,True,exp4.png,exp3.png,trial_right_image,-1,exp3.png,4,exp3.png,exp4.png,0,4,reversed,correct,0.4102489062088791,1,valid_win,669.2064509000002,60,,,,,,,,,,,,,,,,sub_392,2024-07-08_17h12.04.108,Reversal,2022.1.2,60.028081136384344,4,
8,exp1.png,exp2.png,,,,,,,,,,,,,,,,,,2,0,2,0,0,8,8,8,,,,,,,,,False,48,109,False,exp1.png,exp2.png,trial_left_image,1,exp1.png,4,exp2.png,exp1.png,0,2,non-reversed,incorrect,0.7099533943266166,0,valid_lose,674.3056580000002,60,,,,,,,,,,,,,,,,sub_392,2024-07-08_17h12.04.108,Reversal,2022.1.2,60.028081136384344,4,
9,exp3.png,exp4.png,,,,,,,,,,,,,,,,,,2,0,2,0,0,9,9,9,,,,,,,,,False,49,110,True,exp4.png,exp3.png,trial_right_image,-1,exp3.png,4,exp3.png,exp4.png,0,4,reversed,correct,0.2028234414010196,0,invalid_lose,678.3221149999999,60,,,,,,,,,,,,,,,,sub_392,2024-07-08_17h12.04.108,Reversal,2022.1.2,60.028081136384344,4,
10,exp1.png,exp2.png,,,,,,,,,,,,,,,,,,2,0,2,0,0,10,10,10,,,,,,,,,False,50,111,False,exp1.png,exp2.png,trial_right_image,-1,exp2.png,4,exp2.png,exp1.png,1,1,non-reversed,correct,0.7916299529568706,1,valid_win,682.8053624000004,61,,,,,,,,,,,,,,,,sub_392,2024-07-08_17h12.04.108,Reversal,2022.1.2,60.028081136384344,4,
11,exp3.png,exp4.png,,,,,,,,,,,,,,,,,,2,0,2,0,0,11,11,11,,,,,,,,,False,51,112,False,exp3.png,exp4.png,trial_right_image,-1,exp4.png,4,exp3.png,exp4.png,1,3,reversed,incorrect,0.7594370928005342,0,valid_lose,687.2058802000001,61,,,,,,,,,,,,,,,,sub_392,2024-07-08_17h12.04.108,Reversal,2022.1.2,60.028081136384344,4,
12,exp1.png,exp2.png,,,,,,,,,,,,,,,,,,2,0,2,0,0,12,12,12,,,,,,,,,False,52,113,False,exp1.png,exp2.png,trial_left_image,1,exp1.png,4,exp2.png,exp1.png,0,2,non-reversed,incorrect,0.6049663562268226,0,valid_lose,691.2885474000004,61,,,,,,,,,,,,,,,,sub_392,2024-07-08_17h12.04.108,Reversal,2022.1.2,60.028081136384344,4,
13,exp3.png,exp4.png,,,,,,,,,,,,,,,,,,2,0,2,0,0,13,13,13,,,,,,,,,False,53,114,True,exp4.png,exp3.png,trial_right_image,-1,exp3.png,4,exp3.png,exp4.png,0,4,reversed,correct,0.6702038812399714,1,valid_win,695.2386624999999,62,,,,,,,,,,,,,,,,sub_392,2024-07-08_17h12.04.108,Reversal,2022.1.2,60.028081136384344,4,
14,exp1.png,exp2.png,,,,,,,,,,,,,,,,,,2,0,2,0,0,14,14,14,,,,,,,,,False,54,115,False,exp1.png,exp2.png,trial_right_image,-1,exp2.png,4,exp2.png,exp1.png,1,1,non-reversed,correct,0.5227972187785825,1,valid_win,699.5057165999997,63,,,,,,,,,,,,,,,,sub_392,2024-07-08_17h12.04.108,Reversal,2022.1.2,60.028081136384344,4,
15,exp3.png,exp4.png,,,,,,,,,,,,,,,,,,2,0,2,0,0,15,15,15,,,,,,,,,False,55,116,True,exp4.png,exp3.png,trial_left_image,1,exp4.png,4,exp3.png,exp4.png,1,3,reversed,incorrect,0.30171192644337974,0,valid_lose,703.9052729000005,63,,,,,,,,,,,,,,,,sub_392,2024-07-08_17h12.04.108,Reversal,2022.1.2,60.028081136384344,4,
16,exp1.png,exp2.png,,,,,,,,,,,,,,,,,,2,0,2,0,0,16,16,16,,,,,,,,,False,56,117,False,exp1.png,exp2.png,trial_right_image,-1,exp2.png,4,exp2.png,exp1.png,1,1,non-reversed,correct,0.4768220572897519,1,valid_win,707.9050711,64,,,,,,,,,,,,,,,,sub_392,2024-07-08_17h12.04.108,Reversal,2022.1.2,60.028081136384344,4,
17,exp3.png,exp4.png,,,,,,,,,,,,,,,,,,2,0,2,0,0,17,17,17,,,,,,,,,False,57,118,True,exp4.png,exp3.png,trial_left_image,1,exp4.png,4,exp3.png,exp4.png,1,3,reversed,incorrect,0.5533840694769669,0,valid_lose,715.9551241999998,64,,,,,,,,,,,,,,,,sub_392,2024-07-08_17h12.04.108,Reversal,2022.1.2,60.028081136384344,4,
18,exp1.png,exp2.png,,,,,,,,,,,,,,,,,,2,0,2,0,0,18,18,18,,,,,,,,,False,58,119,False,exp1.png,exp2.png,trial_right_image,-1,exp2.png,4,exp2.png,exp1.png,1,1,non-reversed,correct,0.7583279641701399,1,valid_win,722.3064763000002,65,,,,,,,,,,,,,,,,sub_392,2024-07-08_17h12.04.108,Reversal,2022.1.2,60.028081136384344,4,
19,exp3.png,exp4.png,,,,,,,,,,,,,,,,,,2,0,2,0,0,19,19,19,,,,,,,,,False,59,120,False,exp3.png,exp4.png,trial_left_image,1,exp3.png,4,exp3.png,exp4.png,0,4,reversed,correct,0.4353414692000587,1,valid_win,727.9045532,66,,,,,,,,,,,,,,,,sub_392,2024-07-08_17h12.04.108,Reversal,2022.1.2,60.028081136384344,4,
20,exp1.png,exp2.png,,,,,,,,,,,,,,,,,,2,0,2,0,0,20,20,20,,,,,,,,,True,,,,,,,,,,,,,,,,,,,,,,,,,,,,,,,,,,,,sub_392,2024-07-08_17h12.04.108,Reversal,2022.1.2,60.028081136384344,4,
,,,exp1.png,,,,,,,,,,,,,,,,,2,0,2,0,,,,,0,0,0,0,0,0,0,0,,,,,,,,,,,,,,,,,,,,,,,50.0,None,[],803.6356070000002,None,,,,,,,,,,sub_392,2024-07-08_17h12.04.108,Reversal,2022.1.2,60.028081136384344,4,
,,,exp2.png,,,,,,,,,,,,,,,,,2,0,2,0,,,,,0,0,0,0,0,1,1,1,,,,,,,,,,,,,,,,,,,,,,,50.0,None,[],805.9982307999999,None,,,,,,,,,,sub_392,2024-07-08_17h12.04.108,Reversal,2022.1.2,60.028081136384344,4,
,,,exp3.png,,,,,,,,,,,,,,,,,2,0,2,0,,,,,0,0,0,0,0,2,2,2,,,,,,,,,,,,,,,,,,,,,,,50.0,None,[],807.0315631000003,None,,,,,,,,,,sub_392,2024-07-08_17h12.04.108,Reversal,2022.1.2,60.028081136384344,4,
,,,exp4.png,,,,,,,,,,,,,,,,,2,0,2,0,,,,,0,0,0,0,0,3,3,3,,,,,,,,,,,,,,,,,,,,,,,50.0,None,[],808.9676194000003,None,,,,,,,,,,sub_392,2024-07-08_17h12.04.108,Reversal,2022.1.2,60.028081136384344,4,
,,,,,,,,,,,,,,,,,,,,,,,,,,,,,,,,,,,,,,,,,,,,,,,,,,,,,,,,66,,,,,,,,,,,76,45,31,324.71444150000025,0,,,,,,,
