trial_index,trial_image1_file,trial_image2_file,image_file,learning_outer_loop.thisRepN,learning_outer_loop.thisTrialN,learning_outer_loop.thisN,learning_outer_loop.thisIndex,learning_inner_loop.thisRepN,learning_inner_loop.thisTrialN,learning_inner_loop.thisN,learning_inner_loop.thisIndex,learning_estimation_outer_loop.thisRepN,learning_estimation_outer_loop.thisTrialN,learning_estimation_outer_loop.thisN,learning_estimation_outer_loop.thisIndex,learning_estimation_inner_loop.thisRepN,learning_estimation_inner_loop.thisTrialN,learning_estimation_inner_loop.thisN,learning_estimation_inner_loop.thisIndex,reversal_outer_loop.thisRepN,reversal_outer_loop.thisTrialN,reversal_outer_loop.thisN,reversal_outer_loop.thisIndex,reversal_inner_loop.thisRepN,reversal_inner_loop.thisTrialN,reversal_inner_loop.thisN,reversal_inner_loop.thisIndex,reversal_estimation_outer_loop.thisRepN,reversal_estimation_outer_loop.thisTrialN,reversal_estimation_outer_loop.thisN,reversal_estimation_outer_loop.thisIndex,reversal_estimation_inner_loop.thisRepN,reversal_estimation_inner_loop.thisTrialN,reversal_estimation_inner_loop.thisN,reversal_estimation_inner_loop.thisIndex,skipped,total_trial_counter,trial_num,left_right_flip,left_image_file,right_image_file,clicked_stimulus_side,side,clicked_stimulus,version,high_prob_image_file,low_prob_image_file,choice_a,choice_b,pair_type,correct,trial_feedback_random,reward,trial_type,overall_time_after_trial,score,estimation_exp1.png,estimation_rating.response,estimation_rating.rt,estimation_rating.history,estimation_rating.started,estimation_rating.stopped,estimation_exp2.png,estimation_exp3.png,estimation_exp4.png,total_learning_time,total_correct,learning_correct,reversal_correct,total_reversal_time,extra_block,participant,date,expName,psychopyVersion,frameRate,ver,
0,exp1.png,exp2.png,,0,0,0,0,0,0,0,0,,,,,,,,,,,,,,,,,,,,,,,,,False,0,1,False,exp1.png,exp2.png,trial_right_image,-1,exp2.png,4,exp2.png,exp1.png,1,1,non-reversed,correct,0.44442076662677654,1,valid_win,4.899909299994761,1,,,,,,,,,,,,,,,,sub_040,2022-08-22_11h26.02.286,Reversal,2022.1.2,59.9678572289882,4,
1,exp3.png,exp4.png,,0,0,0,0,0,1,1,1,,,,,,,,,,,,,,,,,,,,,,,,,False,1,2,True,exp4.png,exp3.png,trial_left_image,1,exp4.png,4,exp4.png,exp3.png,1,3,reversed,correct,0.9658129809483618,1,valid_win,10.867067899998801,2,,,,,,,,,,,,,,,,sub_040,2022-08-22_11h26.02.286,Reversal,2022.1.2,59.9678572289882,4,
2,exp1.png,exp2.png,,0,0,0,0,0,2,2,2,,,,,,,,,,,,,,,,,,,,,,,,,False,2,3,False,exp1.png,exp2.png,trial_right_image,-1,exp2.png,4,exp2.png,exp1.png,1,1,non-reversed,correct,0.24373014840144402,0,invalid_lose,17.66646860000037,2,,,,,,,,,,,,,,,,sub_040,2022-08-22_11h26.02.286,Reversal,2022.1.2,59.9678572289882,4,
3,exp3.png,exp4.png,,0,0,0,0,0,3,3,3,,,,,,,,,,,,,,,,,,,,,,,,,False,3,4,False,exp3.png,exp4.png,trial_left_image,1,exp3.png,4,exp4.png,exp3.png,0,4,reversed,incorrect,0.47039097254066264,0,valid_lose,23.24921650000033,2,,,,,,,,,,,,,,,,sub_040,2022-08-22_11h26.02.286,Reversal,2022.1.2,59.9678572289882,4,
4,exp1.png,exp2.png,,0,0,0,0,0,4,4,4,,,,,,,,,,,,,,,,,,,,,,,,,False,4,5,False,exp1.png,exp2.png,trial_right_image,-1,exp2.png,4,exp2.png,exp1.png,1,1,non-reversed,correct,0.11763019447860412,0,invalid_lose,28.59988069999963,2,,,,,,,,,,,,,,,,sub_040,2022-08-22_11h26.02.286,Reversal,2022.1.2,59.9678572289882,4,
5,exp3.png,exp4.png,,0,0,0,0,0,5,5,5,,,,,,,,,,,,,,,,,,,,,,,,,False,5,6,True,exp4.png,exp3.png,trial_left_image,1,exp4.png,4,exp4.png,exp3.png,1,3,reversed,correct,0.003725957618292308,0,invalid_lose,34.11610169999767,2,,,,,,,,,,,,,,,,sub_040,2022-08-22_11h26.02.286,Reversal,2022.1.2,59.9678572289882,4,
6,exp1.png,exp2.png,,0,0,0,0,0,6,6,6,,,,,,,,,,,,,,,,,,,,,,,,,False,6,7,True,exp2.png,exp1.png,trial_right_image,-1,exp1.png,4,exp2.png,exp1.png,0,2,non-reversed,incorrect,0.5308981752612657,0,valid_lose,39.53248899999744,2,,,,,,,,,,,,,,,,sub_040,2022-08-22_11h26.02.286,Reversal,2022.1.2,59.9678572289882,4,
7,exp3.png,exp4.png,,0,0,0,0,0,7,7,7,,,,,,,,,,,,,,,,,,,,,,,,,False,7,8,False,exp3.png,exp4.png,trial_right_image,-1,exp4.png,4,exp4.png,exp3.png,1,3,reversed,correct,0.5098361478853426,1,valid_win,44.34910809999565,3,,,,,,,,,,,,,,,,sub_040,2022-08-22_11h26.02.286,Reversal,2022.1.2,59.9678572289882,4,
8,exp1.png,exp2.png,,0,0,0,0,0,8,8,8,,,,,,,,,,,,,,,,,,,,,,,,,False,8,9,True,exp2.png,exp1.png,trial_right_image,-1,exp1.png,4,exp2.png,exp1.png,0,2,non-reversed,incorrect,0.8228986975337217,0,valid_lose,54.96490629999607,3,,,,,,,,,,,,,,,,sub_040,2022-08-22_11h26.02.286,Reversal,2022.1.2,59.9678572289882,4,
9,exp3.png,exp4.png,,0,0,0,0,0,9,9,9,,,,,,,,,,,,,,,,,,,,,,,,,False,9,10,True,exp4.png,exp3.png,trial_right_image,-1,exp3.png,4,exp4.png,exp3.png,0,4,reversed,incorrect,0.41487243428987886,0,valid_lose,60.08215239999845,3,,,,,,,,,,,,,,,,sub_040,2022-08-22_11h26.02.286,Reversal,2022.1.2,59.9678572289882,4,
10,exp1.png,exp2.png,,0,0,0,0,0,10,10,10,,,,,,,,,,,,,,,,,,,,,,,,,False,10,11,False,exp1.png,exp2.png,trial_left_image,1,exp1.png,4,exp2.png,exp1.png,0,2,non-reversed,incorrect,0.7242519594329867,0,valid_lose,64.74870749999536,3,,,,,,,,,,,,,,,,sub_040,2022-08-22_11h26.02.286,Reversal,2022.1.2,59.9678572289882,4,
11,exp3.png,exp4.png,,0,0,0,0,0,11,11,11,,,,,,,,,,,,,,,,,,,,,,,,,False,11,12,True,exp4.png,exp3.png,trial_right_image,-1,exp3.png,4,exp4.png,exp3.png,0,4,reversed,incorrect,0.9454243326749486,0,valid_lose,70.14861799999926,3,,,,,,,,,,,,,,,,sub_040,2022-08-22_11h26.02.286,Reversal,2022.1.2,59.9678572289882,4,
12,exp1.png,exp2.png,,0,0,0,0,0,12,12,12,,,,,,,,,,,,,,,,,,,,,,,,,False,12,13,True,exp2.png,exp1.png,trial_left_image,1,exp2.png,4,exp2.png,exp1.png,1,1,non-reversed,correct,0.8925626963087644,1,valid_win,75.8489988999936,4,,,,,,,,,,,,,,,,sub_040,2022-08-22_11h26.02.286,Reversal,2022.1.2,59.9678572289882,4,
13,exp3.png,exp4.png,,0,0,0,0,0,13,13,13,,,,,,,,,,,,,,,,,,,,,,,,,False,13,14,False,exp3.png,exp4.png,trial_left_image,1,exp3.png,4,exp4.png,exp3.png,0,4,reversed,incorrect,0.3403432642712807,0,valid_lose,81.74883279999631,4,,,,,,,,,,,,,,,,sub_040,2022-08-22_11h26.02.286,Reversal,2022.1.2,59.9678572289882,4,
14,exp1.png,exp2.png,,0,0,0,0,0,14,14,14,,,,,,,,,,,,,,,,,,,,,,,,,False,14,15,False,exp1.png,exp2.png,trial_left_image,1,exp1.png,4,exp2.png,exp1.png,0,2,non-reversed,incorrect,0.33838621211646513,0,valid_lose,86.64875489999395,4,,,,,,,,,,,,,,,,sub_040,2022-08-22_11h26.02.286,Reversal,2022.1.2,59.9678572289882,4,
15,exp3.png,exp4.png,,0,0,0,0,0,15,15,15,,,,,,,,,,,,,,,,,,,,,,,,,False,15,16,False,exp3.png,exp4.png,trial_right_image,-1,exp4.png,4,exp4.png,exp3.png,1,3,reversed,correct,0.5393981281444331,1,valid_win,91.4822142999983,5,,,,,,,,,,,,,,,,sub_040,2022-08-22_11h26.02.286,Reversal,2022.1.2,59.9678572289882,4,
16,exp1.png,exp2.png,,0,0,0,0,0,16,16,16,,,,,,,,,,,,,,,,,,,,,,,,,False,16,17,True,exp2.png,exp1.png,trial_right_image,-1,exp1.png,4,exp2.png,exp1.png,0,2,non-reversed,incorrect,0.8102075563852088,0,valid_lose,96.19813339999382,5,,,,,,,,,,,,,,,,sub_040,2022-08-22_11h26.02.286,Reversal,2022.1.2,59.9678572289882,4,
17,exp3.png,exp4.png,,0,0,0,0,0,17,17,17,,,,,,,,,,,,,,,,,,,,,,,,,False,17,18,True,exp4.png,exp3.png,trial_right_image,-1,exp3.png,4,exp4.png,exp3.png,0,4,reversed,incorrect,0.5551718608582058,0,valid_lose,100.69885959999374,5,,,,,,,,,,,,,,,,sub_040,2022-08-22_11h26.02.286,Reversal,2022.1.2,59.9678572289882,4,
18,exp1.png,exp2.png,,0,0,0,0,0,18,18,18,,,,,,,,,,,,,,,,,,,,,,,,,False,18,19,False,exp1.png,exp2.png,trial_right_image,-1,exp2.png,4,exp2.png,exp1.png,1,1,non-reversed,correct,0.9205280604524111,1,valid_win,105.46502779999719,6,,,,,,,,,,,,,,,,sub_040,2022-08-22_11h26.02.286,Reversal,2022.1.2,59.9678572289882,4,
19,exp3.png,exp4.png,,0,0,0,0,0,19,19,19,,,,,,,,,,,,,,,,,,,,,,,,,False,19,20,True,exp4.png,exp3.png,trial_right_image,-1,exp3.png,4,exp4.png,exp3.png,0,4,reversed,incorrect,0.7889585151415947,0,valid_lose,110.46506429999863,6,,,,,,,,,,,,,,,,sub_040,2022-08-22_11h26.02.286,Reversal,2022.1.2,59.9678572289882,4,
20,exp1.png,exp2.png,,0,0,0,0,0,20,20,20,,,,,,,,,,,,,,,,,,,,,,,,,True,,,,,,,,,,,,,,,,,,,,,,,,,,,,,,,,,,,,sub_040,2022-08-22_11h26.02.286,Reversal,2022.1.2,59.9678572289882,4,
,,,exp1.png,0,0,0,0,,,,,0,0,0,0,0,0,0,0,,,,,,,,,,,,,,,,,,,,,,,,,,,,,,,,,,,,,,70.0,70.0,31.695264300004055,"[(70.0, 31.695264300004055)]",193.91115409999475,None,,,,,,,,,,sub_040,2022-08-22_11h26.02.286,Reversal,2022.1.2,59.9678572289882,4,
,,,exp2.png,0,0,0,0,,,,,0,0,0,0,0,1,1,1,,,,,,,,,,,,,,,,,,,,,,,,,,,,,,,,,,,,,,,84.0,6.466151200002059,"[(84.0, 6.466151200002059)]",229.82075329999498,None,84.0,,,,,,,,,sub_040,2022-08-22_11h26.02.286,Reversal,2022.1.2,59.9678572289882,4,
,,,exp3.png,0,0,0,0,,,,,0,0,0,0,0,2,2,2,,,,,,,,,,,,,,,,,,,,,,,,,,,,,,,,,,,,,,,26.0,4.685205200003111,"[(26.0, 4.685205200003111)]",237.7497155999954,None,,26.0,,,,,,,,sub_040,2022-08-22_11h26.02.286,Reversal,2022.1.2,59.9678572289882,4,
,,,exp4.png,0,0,0,0,,,,,0,0,0,0,0,3,3,3,,,,,,,,,,,,,,,,,,,,,,,,,,,,,,,,,,,,,,,22.0,5.3338780000049155,"[(22.0, 5.3338780000049155)]",243.73342609999963,None,,,22.0,,,,,,,sub_040,2022-08-22_11h26.02.286,Reversal,2022.1.2,59.9678572289882,4,
0,exp1.png,exp2.png,,1,0,1,0,0,0,0,0,,,,,,,,,,,,,,,,,,,,,,,,,False,20,21,False,exp1.png,exp2.png,trial_right_image,-1,exp2.png,4,exp2.png,exp1.png,1,1,non-reversed,correct,0.7473554678766439,1,valid_win,177.0973501999979,7,,,,,,,,,,,,,,,,sub_040,2022-08-22_11h26.02.286,Reversal,2022.1.2,59.9678572289882,4,
1,exp3.png,exp4.png,,1,0,1,0,0,1,1,1,,,,,,,,,,,,,,,,,,,,,,,,,False,21,22,True,exp4.png,exp3.png,trial_left_image,1,exp4.png,4,exp4.png,exp3.png,1,3,reversed,correct,0.7653547488882125,1,valid_win,183.11376649999875,8,,,,,,,,,,,,,,,,sub_040,2022-08-22_11h26.02.286,Reversal,2022.1.2,59.9678572289882,4,
2,exp1.png,exp2.png,,1,0,1,0,0,2,2,2,,,,,,,,,,,,,,,,,,,,,,,,,False,22,23,False,exp1.png,exp2.png,trial_left_image,1,exp1.png,4,exp2.png,exp1.png,0,2,non-reversed,incorrect,0.6540481663302503,0,valid_lose,188.91378959999565,8,,,,,,,,,,,,,,,,sub_040,2022-08-22_11h26.02.286,Reversal,2022.1.2,59.9678572289882,4,
3,exp3.png,exp4.png,,1,0,1,0,0,3,3,3,,,,,,,,,,,,,,,,,,,,,,,,,False,23,24,False,exp3.png,exp4.png,trial_left_image,1,exp3.png,4,exp4.png,exp3.png,0,4,reversed,incorrect,0.486973522979284,0,valid_lose,194.2466901000007,8,,,,,,,,,,,,,,,,sub_040,2022-08-22_11h26.02.286,Reversal,2022.1.2,59.9678572289882,4,
4,exp1.png,exp2.png,,1,0,1,0,0,4,4,4,,,,,,,,,,,,,,,,,,,,,,,,,False,24,25,True,exp2.png,exp1.png,trial_right_image,-1,exp1.png,4,exp2.png,exp1.png,0,2,non-reversed,incorrect,0.8390916722826343,0,valid_lose,199.46323109999503,8,,,,,,,,,,,,,,,,sub_040,2022-08-22_11h26.02.286,Reversal,2022.1.2,59.9678572289882,4,
5,exp3.png,exp4.png,,1,0,1,0,0,5,5,5,,,,,,,,,,,,,,,,,,,,,,,,,False,25,26,False,exp3.png,exp4.png,trial_right_image,-1,exp4.png,4,exp4.png,exp3.png,1,3,reversed,correct,0.9001426998276033,1,valid_win,204.03002189999825,9,,,,,,,,,,,,,,,,sub_040,2022-08-22_11h26.02.286,Reversal,2022.1.2,59.9678572289882,4,
6,exp1.png,exp2.png,,1,0,1,0,0,6,6,6,,,,,,,,,,,,,,,,,,,,,,,,,False,26,27,True,exp2.png,exp1.png,trial_right_image,-1,exp1.png,4,exp2.png,exp1.png,0,2,non-reversed,incorrect,0.5188277523950148,0,valid_lose,209.51355569999578,9,,,,,,,,,,,,,,,,sub_040,2022-08-22_11h26.02.286,Reversal,2022.1.2,59.9678572289882,4,
7,exp3.png,exp4.png,,1,0,1,0,0,7,7,7,,,,,,,,,,,,,,,,,,,,,,,,,False,27,28,True,exp4.png,exp3.png,trial_right_image,-1,exp3.png,4,exp4.png,exp3.png,0,4,reversed,incorrect,0.006208222652383966,1,invalid_win,215.47955369999545,10,,,,,,,,,,,,,,,,sub_040,2022-08-22_11h26.02.286,Reversal,2022.1.2,59.9678572289882,4,
8,exp1.png,exp2.png,,1,0,1,0,0,8,8,8,,,,,,,,,,,,,,,,,,,,,,,,,False,28,29,True,exp2.png,exp1.png,trial_right_image,-1,exp1.png,4,exp2.png,exp1.png,0,2,non-reversed,incorrect,0.9087645079932575,0,valid_lose,221.04627120000077,10,,,,,,,,,,,,,,,,sub_040,2022-08-22_11h26.02.286,Reversal,2022.1.2,59.9678572289882,4,
9,exp3.png,exp4.png,,1,0,1,0,0,9,9,9,,,,,,,,,,,,,,,,,,,,,,,,,False,29,30,False,exp3.png,exp4.png,trial_right_image,-1,exp4.png,4,exp4.png,exp3.png,1,3,reversed,correct,0.2654502044900564,1,valid_win,225.89615009999397,11,,,,,,,,,,,,,,,,sub_040,2022-08-22_11h26.02.286,Reversal,2022.1.2,59.9678572289882,4,
10,exp1.png,exp2.png,,1,0,1,0,0,10,10,10,,,,,,,,,,,,,,,,,,,,,,,,,False,30,31,False,exp1.png,exp2.png,trial_left_image,1,exp1.png,4,exp2.png,exp1.png,0,2,non-reversed,incorrect,0.412348827979364,0,valid_lose,230.513251999997,11,,,,,,,,,,,,,,,,sub_040,2022-08-22_11h26.02.286,Reversal,2022.1.2,59.9678572289882,4,
11,exp3.png,exp4.png,,1,0,1,0,0,11,11,11,,,,,,,,,,,,,,,,,,,,,,,,,False,31,32,False,exp3.png,exp4.png,trial_left_image,1,exp3.png,4,exp4.png,exp3.png,0,4,reversed,incorrect,0.24941325940788228,1,invalid_win,237.37962429999607,12,,,,,,,,,,,,,,,,sub_040,2022-08-22_11h26.02.286,Reversal,2022.1.2,59.9678572289882,4,
12,exp1.png,exp2.png,,1,0,1,0,0,12,12,12,,,,,,,,,,,,,,,,,,,,,,,,,False,32,33,True,exp2.png,exp1.png,trial_left_image,1,exp2.png,4,exp2.png,exp1.png,1,1,non-reversed,correct,0.19121366966829423,0,invalid_lose,242.47920809999778,12,,,,,,,,,,,,,,,,sub_040,2022-08-22_11h26.02.286,Reversal,2022.1.2,59.9678572289882,4,
13,exp3.png,exp4.png,,1,0,1,0,0,13,13,13,,,,,,,,,,,,,,,,,,,,,,,,,False,33,34,False,exp3.png,exp4.png,trial_left_image,1,exp3.png,4,exp4.png,exp3.png,0,4,reversed,incorrect,0.838451816653179,0,valid_lose,247.62867909999477,12,,,,,,,,,,,,,,,,sub_040,2022-08-22_11h26.02.286,Reversal,2022.1.2,59.9678572289882,4,
14,exp1.png,exp2.png,,1,0,1,0,0,14,14,14,,,,,,,,,,,,,,,,,,,,,,,,,False,34,35,False,exp1.png,exp2.png,trial_right_image,-1,exp2.png,4,exp2.png,exp1.png,1,1,non-reversed,correct,0.8611221121137719,1,valid_win,252.31236659999558,13,,,,,,,,,,,,,,,,sub_040,2022-08-22_11h26.02.286,Reversal,2022.1.2,59.9678572289882,4,
15,exp3.png,exp4.png,,1,0,1,0,0,15,15,15,,,,,,,,,,,,,,,,,,,,,,,,,False,35,36,False,exp3.png,exp4.png,trial_right_image,-1,exp4.png,4,exp4.png,exp3.png,1,3,reversed,correct,0.90088871455057,1,valid_win,257.1950947000005,14,,,,,,,,,,,,,,,,sub_040,2022-08-22_11h26.02.286,Reversal,2022.1.2,59.9678572289882,4,
16,exp1.png,exp2.png,,1,0,1,0,0,16,16,16,,,,,,,,,,,,,,,,,,,,,,,,,False,36,37,True,exp2.png,exp1.png,trial_right_image,-1,exp1.png,4,exp2.png,exp1.png,0,2,non-reversed,incorrect,0.9812591213893505,0,valid_lose,261.7460088000007,14,,,,,,,,,,,,,,,,sub_040,2022-08-22_11h26.02.286,Reversal,2022.1.2,59.9678572289882,4,
17,exp3.png,exp4.png,,1,0,1,0,0,17,17,17,,,,,,,,,,,,,,,,,,,,,,,,,False,37,38,True,exp4.png,exp3.png,trial_right_image,-1,exp3.png,4,exp4.png,exp3.png,0,4,reversed,incorrect,0.7177732192667575,0,valid_lose,266.6790338999999,14,,,,,,,,,,,,,,,,sub_040,2022-08-22_11h26.02.286,Reversal,2022.1.2,59.9678572289882,4,
18,exp1.png,exp2.png,,1,0,1,0,0,18,18,18,,,,,,,,,,,,,,,,,,,,,,,,,False,38,39,True,exp2.png,exp1.png,trial_left_image,1,exp2.png,4,exp2.png,exp1.png,1,1,non-reversed,correct,0.35117509566397553,1,valid_win,271.39542309999524,15,,,,,,,,,,,,,,,,sub_040,2022-08-22_11h26.02.286,Reversal,2022.1.2,59.9678572289882,4,
19,exp3.png,exp4.png,,1,0,1,0,0,19,19,19,,,,,,,,,,,,,,,,,,,,,,,,,False,39,40,True,exp4.png,exp3.png,trial_left_image,1,exp4.png,4,exp4.png,exp3.png,1,3,reversed,correct,0.9704880961459696,1,valid_win,275.828276799999,16,,,,,,,,,,,,,,,,sub_040,2022-08-22_11h26.02.286,Reversal,2022.1.2,59.9678572289882,4,
20,exp1.png,exp2.png,,1,0,1,0,0,20,20,20,,,,,,,,,,,,,,,,,,,,,,,,,True,,,,,,,,,,,,,,,,,,,,,,,,,,,,,,,,,,,,sub_040,2022-08-22_11h26.02.286,Reversal,2022.1.2,59.9678572289882,4,
,,,exp1.png,1,0,1,0,,,,,0,0,0,0,0,0,0,0,,,,,,,,,,,,,,,,,,,,,,,,,,,,,,,,,,,,,,81.0,81.0,12.963387099996908,"[(81.0, 12.963387099996908)]",359.2865834999975,None,,,,,,,,,,sub_040,2022-08-22_11h26.02.286,Reversal,2022.1.2,59.9678572289882,4,
,,,exp2.png,1,0,1,0,,,,,0,0,0,0,0,1,1,1,,,,,,,,,,,,,,,,,,,,,,,,,,,,,,,,,,,,,,,79.0,4.802026099998329,"[(79.0, 4.802026099998329)]",375.36747769999783,None,79.0,,,,,,,,,sub_040,2022-08-22_11h26.02.286,Reversal,2022.1.2,59.9678572289882,4,
,,,exp3.png,1,0,1,0,,,,,0,0,0,0,0,2,2,2,,,,,,,,,,,,,,,,,,,,,,,,,,,,,,,,,,,,,,,25.0,4.349141999999119,"[(25.0, 4.349141999999119)]",381.41533279999567,None,,25.0,,,,,,,,sub_040,2022-08-22_11h26.02.286,Reversal,2022.1.2,59.9678572289882,4,
,,,exp4.png,1,0,1,0,,,,,0,0,0,0,0,3,3,3,,,,,,,,,,,,,,,,,,,,,,,,,,,,,,,,,,,,,,,17.0,4.0186231000043335,"[(17.0, 4.0186231000043335)]",387.37917669999297,None,,,17.0,,,,,,,sub_040,2022-08-22_11h26.02.286,Reversal,2022.1.2,59.9678572289882,4,
0,exp1.png,exp2.png,,2,0,2,0,0,0,0,0,,,,,,,,,,,,,,,,,,,,,,,,,False,40,41,False,exp1.png,exp2.png,trial_right_image,-1,exp2.png,4,exp2.png,exp1.png,1,1,non-reversed,correct,0.14922452222239135,0,invalid_lose,315.328402799998,16,,,,,,,,,,,,,,,,sub_040,2022-08-22_11h26.02.286,Reversal,2022.1.2,59.9678572289882,4,
1,exp3.png,exp4.png,,2,0,2,0,0,1,1,1,,,,,,,,,,,,,,,,,,,,,,,,,False,41,42,False,exp3.png,exp4.png,trial_left_image,1,exp3.png,4,exp4.png,exp3.png,0,4,reversed,incorrect,0.6947089729884517,0,valid_lose,321.9285982999936,16,,,,,,,,,,,,,,,,sub_040,2022-08-22_11h26.02.286,Reversal,2022.1.2,59.9678572289882,4,
2,exp1.png,exp2.png,,2,0,2,0,0,2,2,2,,,,,,,,,,,,,,,,,,,,,,,,,False,42,43,False,exp1.png,exp2.png,trial_left_image,1,exp1.png,4,exp2.png,exp1.png,0,2,non-reversed,incorrect,0.3342775728875901,0,valid_lose,328.9111634000001,16,,,,,,,,,,,,,,,,sub_040,2022-08-22_11h26.02.286,Reversal,2022.1.2,59.9678572289882,4,
3,exp3.png,exp4.png,,2,0,2,0,0,3,3,3,,,,,,,,,,,,,,,,,,,,,,,,,False,43,44,False,exp3.png,exp4.png,trial_left_image,1,exp3.png,4,exp4.png,exp3.png,0,4,reversed,incorrect,0.7475361219256667,0,valid_lose,333.84400879999885,16,,,,,,,,,,,,,,,,sub_040,2022-08-22_11h26.02.286,Reversal,2022.1.2,59.9678572289882,4,
4,exp1.png,exp2.png,,2,0,2,0,0,4,4,4,,,,,,,,,,,,,,,,,,,,,,,,,False,44,45,False,exp1.png,exp2.png,trial_left_image,1,exp1.png,4,exp2.png,exp1.png,0,2,non-reversed,incorrect,0.6137163749955222,0,valid_lose,338.677054199994,16,,,,,,,,,,,,,,,,sub_040,2022-08-22_11h26.02.286,Reversal,2022.1.2,59.9678572289882,4,
5,exp3.png,exp4.png,,2,0,2,0,0,5,5,5,,,,,,,,,,,,,,,,,,,,,,,,,False,45,46,True,exp4.png,exp3.png,trial_left_image,1,exp4.png,4,exp4.png,exp3.png,1,3,reversed,correct,0.0915276345686794,0,invalid_lose,343.5947517999957,16,,,,,,,,,,,,,,,,sub_040,2022-08-22_11h26.02.286,Reversal,2022.1.2,59.9678572289882,4,
6,exp1.png,exp2.png,,2,0,2,0,0,6,6,6,,,,,,,,,,,,,,,,,,,,,,,,,False,46,47,False,exp1.png,exp2.png,trial_right_image,-1,exp2.png,4,exp2.png,exp1.png,1,1,non-reversed,correct,0.4071174370878049,1,valid_win,348.4274643999961,17,,,,,,,,,,,,,,,,sub_040,2022-08-22_11h26.02.286,Reversal,2022.1.2,59.9678572289882,4,
7,exp3.png,exp4.png,,2,0,2,0,0,7,7,7,,,,,,,,,,,,,,,,,,,,,,,,,False,47,48,False,exp3.png,exp4.png,trial_right_image,-1,exp4.png,4,exp4.png,exp3.png,1,3,reversed,correct,0.9935368681405355,1,valid_win,353.2276511999953,18,,,,,,,,,,,,,,,,sub_040,2022-08-22_11h26.02.286,Reversal,2022.1.2,59.9678572289882,4,
8,exp1.png,exp2.png,,2,0,2,0,0,8,8,8,,,,,,,,,,,,,,,,,,,,,,,,,False,48,49,True,exp2.png,exp1.png,trial_right_image,-1,exp1.png,4,exp2.png,exp1.png,0,2,non-reversed,incorrect,0.6200104856263182,0,valid_lose,357.76030089999404,18,,,,,,,,,,,,,,,,sub_040,2022-08-22_11h26.02.286,Reversal,2022.1.2,59.9678572289882,4,
9,exp3.png,exp4.png,,2,0,2,0,0,9,9,9,,,,,,,,,,,,,,,,,,,,,,,,,False,49,50,True,exp4.png,exp3.png,trial_left_image,1,exp4.png,4,exp4.png,exp3.png,1,3,reversed,correct,0.058442964244115214,0,invalid_lose,363.3437743999966,18,,,,,,,,,,,,,,,,sub_040,2022-08-22_11h26.02.286,Reversal,2022.1.2,59.9678572289882,4,
10,exp1.png,exp2.png,,2,0,2,0,0,10,10,10,,,,,,,,,,,,,,,,,,,,,,,,,False,50,51,False,exp1.png,exp2.png,trial_left_image,1,exp1.png,4,exp2.png,exp1.png,0,2,non-reversed,incorrect,0.9225370344777095,0,valid_lose,370.4934435999967,18,,,,,,,,,,,,,,,,sub_040,2022-08-22_11h26.02.286,Reversal,2022.1.2,59.9678572289882,4,
11,exp3.png,exp4.png,,2,0,2,0,0,11,11,11,,,,,,,,,,,,,,,,,,,,,,,,,False,51,52,True,exp4.png,exp3.png,trial_right_image,-1,exp3.png,4,exp4.png,exp3.png,0,4,reversed,incorrect,0.1029607004531834,1,invalid_win,375.1436370999945,19,,,,,,,,,,,,,,,,sub_040,2022-08-22_11h26.02.286,Reversal,2022.1.2,59.9678572289882,4,
12,exp1.png,exp2.png,,2,0,2,0,0,12,12,12,,,,,,,,,,,,,,,,,,,,,,,,,False,52,53,True,exp2.png,exp1.png,trial_right_image,-1,exp1.png,4,exp2.png,exp1.png,0,2,non-reversed,incorrect,0.642884486493454,0,valid_lose,380.69382819999737,19,,,,,,,,,,,,,,,,sub_040,2022-08-22_11h26.02.286,Reversal,2022.1.2,59.9678572289882,4,
13,exp3.png,exp4.png,,2,0,2,0,0,13,13,13,,,,,,,,,,,,,,,,,,,,,,,,,False,53,54,False,exp3.png,exp4.png,trial_right_image,-1,exp4.png,4,exp4.png,exp3.png,1,3,reversed,correct,0.9413610064849932,1,valid_win,385.97615309999674,20,,,,,,,,,,,,,,,,sub_040,2022-08-22_11h26.02.286,Reversal,2022.1.2,59.9678572289882,4,
14,exp1.png,exp2.png,,2,0,2,0,0,14,14,14,,,,,,,,,,,,,,,,,,,,,,,,,False,54,55,True,exp2.png,exp1.png,trial_right_image,-1,exp1.png,4,exp2.png,exp1.png,0,2,non-reversed,incorrect,0.9126523096232745,0,valid_lose,392.01056219999737,20,,,,,,,,,,,,,,,,sub_040,2022-08-22_11h26.02.286,Reversal,2022.1.2,59.9678572289882,4,
15,exp3.png,exp4.png,,2,0,2,0,0,15,15,15,,,,,,,,,,,,,,,,,,,,,,,,,False,55,56,False,exp3.png,exp4.png,trial_right_image,-1,exp4.png,4,exp4.png,exp3.png,1,3,reversed,correct,0.7679335828536967,1,valid_win,396.4768094999963,21,,,,,,,,,,,,,,,,sub_040,2022-08-22_11h26.02.286,Reversal,2022.1.2,59.9678572289882,4,
16,exp1.png,exp2.png,,2,0,2,0,0,16,16,16,,,,,,,,,,,,,,,,,,,,,,,,,False,56,57,True,exp2.png,exp1.png,trial_left_image,1,exp2.png,4,exp2.png,exp1.png,1,1,non-reversed,correct,0.8554877044269338,1,valid_win,401.3258041999943,22,,,,,,,,,,,,,,,,sub_040,2022-08-22_11h26.02.286,Reversal,2022.1.2,59.9678572289882,4,
17,exp3.png,exp4.png,,2,0,2,0,0,17,17,17,,,,,,,,,,,,,,,,,,,,,,,,,False,57,58,True,exp4.png,exp3.png,trial_right_image,-1,exp3.png,4,exp4.png,exp3.png,0,4,reversed,incorrect,0.6335240535366491,0,valid_lose,407.2267217999979,22,,,,,,,,,,,,,,,,sub_040,2022-08-22_11h26.02.286,Reversal,2022.1.2,59.9678572289882,4,
18,exp1.png,exp2.png,,2,0,2,0,0,18,18,18,,,,,,,,,,,,,,,,,,,,,,,,,False,58,59,True,exp2.png,exp1.png,trial_left_image,1,exp2.png,4,exp2.png,exp1.png,1,1,non-reversed,correct,0.4748823366349768,1,valid_win,412.6263980999938,23,,,,,,,,,,,,,,,,sub_040,2022-08-22_11h26.02.286,Reversal,2022.1.2,59.9678572289882,4,
19,exp3.png,exp4.png,,2,0,2,0,0,19,19,19,,,,,,,,,,,,,,,,,,,,,,,,,False,59,60,True,exp4.png,exp3.png,trial_left_image,1,exp4.png,4,exp4.png,exp3.png,1,3,reversed,correct,0.49554031379215424,1,valid_win,417.17590319999726,24,,,,,,,,,,,,,,,,sub_040,2022-08-22_11h26.02.286,Reversal,2022.1.2,59.9678572289882,4,
20,exp1.png,exp2.png,,2,0,2,0,0,20,20,20,,,,,,,,,,,,,,,,,,,,,,,,,True,,,,,,,,,,,,,,,,,,,,,,,,,,,,,,,,,,,,sub_040,2022-08-22_11h26.02.286,Reversal,2022.1.2,59.9678572289882,4,
,,,exp1.png,2,0,2,0,,,,,0,0,0,0,0,0,0,0,,,,,,,,,,,,,,,,,,,,,,,,,,,,,,,,,,,,,,21.0,21.0,5.124343600000429,"[(21.0, 5.124343600000429)]",500.6063006999975,None,,,,,,,,,,sub_040,2022-08-22_11h26.02.286,Reversal,2022.1.2,59.9678572289882,4,
,,,exp2.png,2,0,2,0,,,,,0,0,0,0,0,1,1,1,,,,,,,,,,,,,,,,,,,,,,,,,,,,,,,,,,,,,,,26.0,4.085485100004007,"[(26.0, 4.085485100004007)]",507.05937730000005,None,26.0,,,,,,,,,sub_040,2022-08-22_11h26.02.286,Reversal,2022.1.2,59.9678572289882,4,
,,,exp3.png,2,0,2,0,,,,,0,0,0,0,0,2,2,2,,,,,,,,,,,,,,,,,,,,,,,,,,,,,,,,,,,,,,,77.0,6.317395599995507,"[(77.0, 6.317395599995507)]",512.3758743999933,None,,77.0,,,,,,,,sub_040,2022-08-22_11h26.02.286,Reversal,2022.1.2,59.9678572289882,4,
,,,exp4.png,2,0,2,0,,,,,0,0,0,0,0,3,3,3,,,,,,,,,,,,,,,,,,,,,,,,,,,,,,,,,,,,,,,66.0,3.2859562000012374,"[(66.0, 3.2859562000012374)]",519.9794868999961,None,,,66.0,,,,,,,sub_040,2022-08-22_11h26.02.286,Reversal,2022.1.2,59.9678572289882,4,
0,exp1.png,exp2.png,,3,0,3,0,0,0,0,0,,,,,,,,,,,,,,,,,,,,,,,,,False,60,61,True,exp2.png,exp1.png,trial_right_image,-1,exp1.png,4,exp2.png,exp1.png,0,2,non-reversed,incorrect,0.3834877925427347,0,valid_lose,449.5927536999952,24,,,,,,,,,,,,,,,,sub_040,2022-08-22_11h26.02.286,Reversal,2022.1.2,59.9678572289882,4,
1,exp3.png,exp4.png,,3,0,3,0,0,1,1,1,,,,,,,,,,,,,,,,,,,,,,,,,False,61,62,True,exp4.png,exp3.png,trial_left_image,1,exp4.png,4,exp4.png,exp3.png,1,3,reversed,correct,0.6308765608102536,1,valid_win,454.4758079999956,25,,,,,,,,,,,,,,,,sub_040,2022-08-22_11h26.02.286,Reversal,2022.1.2,59.9678572289882,4,
2,exp1.png,exp2.png,,3,0,3,0,0,2,2,2,,,,,,,,,,,,,,,,,,,,,,,,,False,62,63,True,exp2.png,exp1.png,trial_left_image,1,exp2.png,4,exp2.png,exp1.png,1,1,non-reversed,correct,0.36213918903355835,1,valid_win,459.67574619999505,26,,,,,,,,,,,,,,,,sub_040,2022-08-22_11h26.02.286,Reversal,2022.1.2,59.9678572289882,4,
3,exp3.png,exp4.png,,3,0,3,0,0,3,3,3,,,,,,,,,,,,,,,,,,,,,,,,,False,63,64,False,exp3.png,exp4.png,trial_left_image,1,exp3.png,4,exp4.png,exp3.png,0,4,reversed,incorrect,0.19283712566038325,1,invalid_win,464.20913709999877,27,,,,,,,,,,,,,,,,sub_040,2022-08-22_11h26.02.286,Reversal,2022.1.2,59.9678572289882,4,
4,exp1.png,exp2.png,,3,0,3,0,0,4,4,4,,,,,,,,,,,,,,,,,,,,,,,,,False,64,65,True,exp2.png,exp1.png,trial_left_image,1,exp2.png,4,exp2.png,exp1.png,1,1,non-reversed,correct,0.8449871099278408,1,valid_win,468.67501989999437,28,,,,,,,,,,,,,,,,sub_040,2022-08-22_11h26.02.286,Reversal,2022.1.2,59.9678572289882,4,
5,exp3.png,exp4.png,,3,0,3,0,0,5,5,5,,,,,,,,,,,,,,,,,,,,,,,,,False,65,66,False,exp3.png,exp4.png,trial_left_image,1,exp3.png,4,exp4.png,exp3.png,0,4,reversed,incorrect,0.6991954109650413,0,valid_lose,473.4421776999952,28,,,,,,,,,,,,,,,,sub_040,2022-08-22_11h26.02.286,Reversal,2022.1.2,59.9678572289882,4,
6,exp1.png,exp2.png,,3,0,3,0,0,6,6,6,,,,,,,,,,,,,,,,,,,,,,,,,False,66,67,True,exp2.png,exp1.png,trial_right_image,-1,exp1.png,4,exp2.png,exp1.png,0,2,non-reversed,incorrect,0.1997938491575132,1,invalid_win,478.3581794999991,29,,,,,,,,,,,,,,,,sub_040,2022-08-22_11h26.02.286,Reversal,2022.1.2,59.9678572289882,4,
7,exp3.png,exp4.png,,3,0,3,0,0,7,7,7,,,,,,,,,,,,,,,,,,,,,,,,,False,67,68,False,exp3.png,exp4.png,trial_right_image,-1,exp4.png,4,exp4.png,exp3.png,1,3,reversed,correct,0.32924074007454196,1,valid_win,482.641243399994,30,,,,,,,,,,,,,,,,sub_040,2022-08-22_11h26.02.286,Reversal,2022.1.2,59.9678572289882,4,
8,exp1.png,exp2.png,,3,0,3,0,0,8,8,8,,,,,,,,,,,,,,,,,,,,,,,,,False,68,69,True,exp2.png,exp1.png,trial_right_image,-1,exp1.png,4,exp2.png,exp1.png,0,2,non-reversed,incorrect,0.4874238718674404,0,valid_lose,487.3584832999986,30,,,,,,,,,,,,,,,,sub_040,2022-08-22_11h26.02.286,Reversal,2022.1.2,59.9678572289882,4,
9,exp3.png,exp4.png,,3,0,3,0,0,9,9,9,,,,,,,,,,,,,,,,,,,,,,,,,False,69,70,False,exp3.png,exp4.png,trial_left_image,1,exp3.png,4,exp4.png,exp3.png,0,4,reversed,incorrect,0.12499841755608199,1,invalid_win,491.89135220000026,31,,,,,,,,,,,,,,,,sub_040,2022-08-22_11h26.02.286,Reversal,2022.1.2,59.9678572289882,4,
10,exp1.png,exp2.png,,3,0,3,0,0,10,10,10,,,,,,,,,,,,,,,,,,,,,,,,,False,70,71,False,exp1.png,exp2.png,trial_left_image,1,exp1.png,4,exp2.png,exp1.png,0,2,non-reversed,incorrect,0.6948572126392271,0,valid_lose,496.40870729999733,31,,,,,,,,,,,,,,,,sub_040,2022-08-22_11h26.02.286,Reversal,2022.1.2,59.9678572289882,4,
11,exp3.png,exp4.png,,3,0,3,0,0,11,11,11,,,,,,,,,,,,,,,,,,,,,,,,,False,71,72,False,exp3.png,exp4.png,trial_left_image,1,exp3.png,4,exp4.png,exp3.png,0,4,reversed,incorrect,0.7064656297000995,0,valid_lose,501.5412503999978,31,,,,,,,,,,,,,,,,sub_040,2022-08-22_11h26.02.286,Reversal,2022.1.2,59.9678572289882,4,
12,exp1.png,exp2.png,,3,0,3,0,0,12,12,12,,,,,,,,,,,,,,,,,,,,,,,,,False,72,73,False,exp1.png,exp2.png,trial_right_image,-1,exp2.png,4,exp2.png,exp1.png,1,1,non-reversed,correct,0.3833605479287776,1,valid_win,505.97499909999897,32,,,,,,,,,,,,,,,,sub_040,2022-08-22_11h26.02.286,Reversal,2022.1.2,59.9678572289882,4,
13,exp3.png,exp4.png,,3,0,3,0,0,13,13,13,,,,,,,,,,,,,,,,,,,,,,,,,False,73,74,True,exp4.png,exp3.png,trial_right_image,-1,exp3.png,4,exp4.png,exp3.png,0,4,reversed,incorrect,0.7778151003815782,0,valid_lose,510.274202099994,32,,,,,,,,,,,,,,,,sub_040,2022-08-22_11h26.02.286,Reversal,2022.1.2,59.9678572289882,4,
14,exp1.png,exp2.png,,3,0,3,0,0,14,14,14,,,,,,,,,,,,,,,,,,,,,,,,,False,74,75,False,exp1.png,exp2.png,trial_left_image,1,exp1.png,4,exp2.png,exp1.png,0,2,non-reversed,incorrect,0.7353446338413577,0,valid_lose,515.2412650999977,32,,,,,,,,,,,,,,,,sub_040,2022-08-22_11h26.02.286,Reversal,2022.1.2,59.9678572289882,4,
15,exp3.png,exp4.png,,3,0,3,0,0,15,15,15,,,,,,,,,,,,,,,,,,,,,,,,,False,75,76,False,exp3.png,exp4.png,trial_right_image,-1,exp4.png,4,exp4.png,exp3.png,1,3,reversed,correct,0.26907277850381783,1,valid_win,519.8410231999951,33,,,,,,,,,,,,,,,,sub_040,2022-08-22_11h26.02.286,Reversal,2022.1.2,59.9678572289882,4,
16,exp1.png,exp2.png,,3,0,3,0,0,16,16,16,,,,,,,,,,,,,,,,,,,,,,,,,False,76,77,True,exp2.png,exp1.png,trial_right_image,-1,exp1.png,4,exp2.png,exp1.png,0,2,non-reversed,incorrect,0.8820112663990066,0,valid_lose,524.257869999994,33,,,,,,,,,,,,,,,,sub_040,2022-08-22_11h26.02.286,Reversal,2022.1.2,59.9678572289882,4,
17,exp3.png,exp4.png,,3,0,3,0,0,17,17,17,,,,,,,,,,,,,,,,,,,,,,,,,False,77,78,True,exp4.png,exp3.png,trial_right_image,-1,exp3.png,4,exp4.png,exp3.png,0,4,reversed,incorrect,0.7719375476594975,0,valid_lose,528.6069012000007,33,,,,,,,,,,,,,,,,sub_040,2022-08-22_11h26.02.286,Reversal,2022.1.2,59.9678572289882,4,
18,exp1.png,exp2.png,,3,0,3,0,0,18,18,18,,,,,,,,,,,,,,,,,,,,,,,,,False,78,79,False,exp1.png,exp2.png,trial_right_image,-1,exp2.png,4,exp2.png,exp1.png,1,1,non-reversed,correct,0.02249582767019398,0,invalid_lose,533.3078967999973,33,,,,,,,,,,,,,,,,sub_040,2022-08-22_11h26.02.286,Reversal,2022.1.2,59.9678572289882,4,
19,exp3.png,exp4.png,,3,0,3,0,0,19,19,19,,,,,,,,,,,,,,,,,,,,,,,,,False,79,80,True,exp4.png,exp3.png,trial_left_image,1,exp4.png,4,exp4.png,exp3.png,1,3,reversed,correct,0.4659271854906577,1,valid_win,537.7073591000008,34,,,,,,,,,,,,,,,,sub_040,2022-08-22_11h26.02.286,Reversal,2022.1.2,59.9678572289882,4,
20,exp1.png,exp2.png,,3,0,3,0,0,20,20,20,,,,,,,,,,,,,,,,,,,,,,,,,True,,,,,,,,,,,,,,,,,,,,,,,,,,,,,,,,,,,,sub_040,2022-08-22_11h26.02.286,Reversal,2022.1.2,59.9678572289882,4,
,,,exp1.png,3,0,3,0,,,,,0,0,0,0,0,0,0,0,,,,,,,,,,,,,,,,,,,,,,,,,,,,,,,,,,,,,,76.0,76.0,5.284638499993889,"[(76.0, 5.284638499993889)]",621.158170799994,None,,,,,,,,,,sub_040,2022-08-22_11h26.02.286,Reversal,2022.1.2,59.9678572289882,4,
,,,exp2.png,3,0,3,0,,,,,0,0,0,0,0,1,1,1,,,,,,,,,,,,,,,,,,,,,,,,,,,,,,,,,,,,,,,82.0,1.69811060000211,"[(82.0, 1.69811060000211)]",627.3755174999969,None,82.0,,,,,,,,,sub_040,2022-08-22_11h26.02.286,Reversal,2022.1.2,59.9678572289882,4,
,,,exp3.png,3,0,3,0,,,,,0,0,0,0,0,2,2,2,,,,,,,,,,,,,,,,,,,,,,,,,,,,,,,,,,,,,,,27.0,2.2027683000051184,"[(27.0, 2.2027683000051184)]",630.0387463999941,None,,27.0,,,,,,,,sub_040,2022-08-22_11h26.02.286,Reversal,2022.1.2,59.9678572289882,4,
,,,exp4.png,3,0,3,0,,,,,0,0,0,0,0,3,3,3,,,,,,,,,,,,,,,,,,,,,,,,,,,,,,,,,,,,,,,79.0,2.7173399000021163,"[(79.0, 2.7173399000021163)]",633.3728645999945,None,,,79.0,,,,,,,sub_040,2022-08-22_11h26.02.286,Reversal,2022.1.2,59.9678572289882,4,
0,exp1.png,exp2.png,,,,,,,,,,,,,,,,,,0,0,0,0,0,0,0,0,,,,,,,,,False,0,81,False,exp1.png,exp2.png,trial_left_image,1,exp1.png,4,exp2.png,exp1.png,0,2,non-reversed,incorrect,0.21463301246245625,1,invalid_win,559.3900377999962,35,,,,,,,,,,556.1558889999942,,,,,,sub_040,2022-08-22_11h26.02.286,Reversal,2022.1.2,59.9678572289882,4,
1,exp3.png,exp4.png,,,,,,,,,,,,,,,,,,0,0,0,0,0,1,1,1,,,,,,,,,False,1,82,True,exp4.png,exp3.png,trial_right_image,-1,exp3.png,4,exp3.png,exp4.png,0,4,reversed,correct,0.6066196922980659,1,valid_win,567.6237537999987,36,,,,,,,,,,,,,,,,sub_040,2022-08-22_11h26.02.286,Reversal,2022.1.2,59.9678572289882,4,
2,exp1.png,exp2.png,,,,,,,,,,,,,,,,,,0,0,0,0,0,2,2,2,,,,,,,,,False,2,83,True,exp2.png,exp1.png,trial_left_image,1,exp2.png,4,exp2.png,exp1.png,1,1,non-reversed,correct,0.2627449510504307,1,valid_win,572.2564555999998,37,,,,,,,,,,,,,,,,sub_040,2022-08-22_11h26.02.286,Reversal,2022.1.2,59.9678572289882,4,
3,exp3.png,exp4.png,,,,,,,,,,,,,,,,,,0,0,0,0,0,3,3,3,,,,,,,,,False,3,84,True,exp4.png,exp3.png,trial_right_image,-1,exp3.png,4,exp3.png,exp4.png,0,4,reversed,correct,0.6308441475774262,1,valid_win,576.3562869999951,38,,,,,,,,,,,,,,,,sub_040,2022-08-22_11h26.02.286,Reversal,2022.1.2,59.9678572289882,4,
4,exp1.png,exp2.png,,,,,,,,,,,,,,,,,,0,0,0,0,0,4,4,4,,,,,,,,,False,4,85,False,exp1.png,exp2.png,trial_left_image,1,exp1.png,4,exp2.png,exp1.png,0,2,non-reversed,incorrect,0.24893167987036213,1,invalid_win,580.4901425999997,39,,,,,,,,,,,,,,,,sub_040,2022-08-22_11h26.02.286,Reversal,2022.1.2,59.9678572289882,4,
5,exp3.png,exp4.png,,,,,,,,,,,,,,,,,,0,0,0,0,0,5,5,5,,,,,,,,,False,5,86,False,exp3.png,exp4.png,trial_right_image,-1,exp4.png,4,exp3.png,exp4.png,1,3,reversed,incorrect,0.11560022644911627,1,invalid_win,584.5067366999938,40,,,,,,,,,,,,,,,,sub_040,2022-08-22_11h26.02.286,Reversal,2022.1.2,59.9678572289882,4,
6,exp1.png,exp2.png,,,,,,,,,,,,,,,,,,0,0,0,0,0,6,6,6,,,,,,,,,False,6,87,False,exp1.png,exp2.png,trial_left_image,1,exp1.png,4,exp2.png,exp1.png,0,2,non-reversed,incorrect,0.5732554156489315,0,valid_lose,588.6061601999972,40,,,,,,,,,,,,,,,,sub_040,2022-08-22_11h26.02.286,Reversal,2022.1.2,59.9678572289882,4,
7,exp3.png,exp4.png,,,,,,,,,,,,,,,,,,0,0,0,0,0,7,7,7,,,,,,,,,False,7,88,True,exp4.png,exp3.png,trial_left_image,1,exp4.png,4,exp3.png,exp4.png,1,3,reversed,incorrect,0.7186228431327358,0,valid_lose,593.7397031,40,,,,,,,,,,,,,,,,sub_040,2022-08-22_11h26.02.286,Reversal,2022.1.2,59.9678572289882,4,
8,exp1.png,exp2.png,,,,,,,,,,,,,,,,,,0,0,0,0,0,8,8,8,,,,,,,,,False,8,89,True,exp2.png,exp1.png,trial_right_image,-1,exp1.png,4,exp2.png,exp1.png,0,2,non-reversed,incorrect,0.9977359675061037,0,valid_lose,597.9229632999995,40,,,,,,,,,,,,,,,,sub_040,2022-08-22_11h26.02.286,Reversal,2022.1.2,59.9678572289882,4,
9,exp3.png,exp4.png,,,,,,,,,,,,,,,,,,0,0,0,0,0,9,9,9,,,,,,,,,False,9,90,False,exp3.png,exp4.png,trial_right_image,-1,exp4.png,4,exp3.png,exp4.png,1,3,reversed,incorrect,0.9111575333511343,0,valid_lose,601.989839599999,40,,,,,,,,,,,,,,,,sub_040,2022-08-22_11h26.02.286,Reversal,2022.1.2,59.9678572289882,4,
10,exp1.png,exp2.png,,,,,,,,,,,,,,,,,,0,0,0,0,0,10,10,10,,,,,,,,,False,10,91,True,exp2.png,exp1.png,trial_right_image,-1,exp1.png,4,exp2.png,exp1.png,0,2,non-reversed,incorrect,0.019669585530945666,1,invalid_win,606.9391106999974,41,,,,,,,,,,,,,,,,sub_040,2022-08-22_11h26.02.286,Reversal,2022.1.2,59.9678572289882,4,
11,exp3.png,exp4.png,,,,,,,,,,,,,,,,,,0,0,0,0,0,11,11,11,,,,,,,,,False,11,92,False,exp3.png,exp4.png,trial_right_image,-1,exp4.png,4,exp3.png,exp4.png,1,3,reversed,incorrect,0.563679672827409,0,valid_lose,611.2231977999982,41,,,,,,,,,,,,,,,,sub_040,2022-08-22_11h26.02.286,Reversal,2022.1.2,59.9678572289882,4,
12,exp1.png,exp2.png,,,,,,,,,,,,,,,,,,0,0,0,0,0,12,12,12,,,,,,,,,False,12,93,False,exp1.png,exp2.png,trial_right_image,-1,exp2.png,4,exp2.png,exp1.png,1,1,non-reversed,correct,0.1699009801234136,0,invalid_lose,616.5064205999952,41,,,,,,,,,,,,,,,,sub_040,2022-08-22_11h26.02.286,Reversal,2022.1.2,59.9678572289882,4,
13,exp3.png,exp4.png,,,,,,,,,,,,,,,,,,0,0,0,0,0,13,13,13,,,,,,,,,False,13,94,True,exp4.png,exp3.png,trial_left_image,1,exp4.png,4,exp3.png,exp4.png,1,3,reversed,incorrect,0.8936170272501565,0,valid_lose,620.5396208999955,41,,,,,,,,,,,,,,,,sub_040,2022-08-22_11h26.02.286,Reversal,2022.1.2,59.9678572289882,4,
14,exp1.png,exp2.png,,,,,,,,,,,,,,,,,,0,0,0,0,0,14,14,14,,,,,,,,,False,14,95,True,exp2.png,exp1.png,trial_left_image,1,exp2.png,4,exp2.png,exp1.png,1,1,non-reversed,correct,0.004569631116904893,0,invalid_lose,625.3890943000006,41,,,,,,,,,,,,,,,,sub_040,2022-08-22_11h26.02.286,Reversal,2022.1.2,59.9678572289882,4,
15,exp3.png,exp4.png,,,,,,,,,,,,,,,,,,0,0,0,0,0,15,15,15,,,,,,,,,False,15,96,False,exp3.png,exp4.png,trial_right_image,-1,exp4.png,4,exp3.png,exp4.png,1,3,reversed,incorrect,0.04325463559321818,1,invalid_win,629.3560985000004,42,,,,,,,,,,,,,,,,sub_040,2022-08-22_11h26.02.286,Reversal,2022.1.2,59.9678572289882,4,
16,exp1.png,exp2.png,,,,,,,,,,,,,,,,,,0,0,0,0,0,16,16,16,,,,,,,,,False,16,97,False,exp1.png,exp2.png,trial_right_image,-1,exp2.png,4,exp2.png,exp1.png,1,1,non-reversed,correct,0.49993805679458847,1,valid_win,633.7888872999974,43,,,,,,,,,,,,,,,,sub_040,2022-08-22_11h26.02.286,Reversal,2022.1.2,59.9678572289882,4,
17,exp3.png,exp4.png,,,,,,,,,,,,,,,,,,0,0,0,0,0,17,17,17,,,,,,,,,False,17,98,True,exp4.png,exp3.png,trial_right_image,-1,exp3.png,4,exp3.png,exp4.png,0,4,reversed,correct,0.798897403948468,1,valid_win,637.8728316999986,44,,,,,,,,,,,,,,,,sub_040,2022-08-22_11h26.02.286,Reversal,2022.1.2,59.9678572289882,4,
18,exp1.png,exp2.png,,,,,,,,,,,,,,,,,,0,0,0,0,0,18,18,18,,,,,,,,,False,18,99,False,exp1.png,exp2.png,trial_right_image,-1,exp2.png,4,exp2.png,exp1.png,1,1,non-reversed,correct,0.6289827867146277,1,valid_win,642.0562929000007,45,,,,,,,,,,,,,,,,sub_040,2022-08-22_11h26.02.286,Reversal,2022.1.2,59.9678572289882,4,
19,exp3.png,exp4.png,,,,,,,,,,,,,,,,,,0,0,0,0,0,19,19,19,,,,,,,,,False,19,100,True,exp4.png,exp3.png,trial_left_image,1,exp4.png,4,exp3.png,exp4.png,1,3,reversed,incorrect,0.7938492972531511,0,valid_lose,646.0889740999992,45,,,,,,,,,,,,,,,,sub_040,2022-08-22_11h26.02.286,Reversal,2022.1.2,59.9678572289882,4,
20,exp1.png,exp2.png,,,,,,,,,,,,,,,,,,0,0,0,0,0,20,20,20,,,,,,,,,True,,,,,,,,,,,,,,,,,,,,,,,,,,,,,,,,,,,,sub_040,2022-08-22_11h26.02.286,Reversal,2022.1.2,59.9678572289882,4,
,,,exp1.png,,,,,,,,,,,,,,,,,0,0,0,0,,,,,0,0,0,0,0,0,0,0,,,,,,,,,,,,,,,,,,,,,,30.0,30.0,3.4699230999976862,"[(30.0, 3.4699230999976862)]",729.5411053999997,None,,,,,,,,,,sub_040,2022-08-22_11h26.02.286,Reversal,2022.1.2,59.9678572289882,4,
,,,exp2.png,,,,,,,,,,,,,,,,,0,0,0,0,,,,,0,0,0,0,0,1,1,1,,,,,,,,,,,,,,,,,,,,,,,50.0,None,[],733.9437584999978,None,,,,,,,,,,sub_040,2022-08-22_11h26.02.286,Reversal,2022.1.2,59.9678572289882,4,
,,,exp3.png,,,,,,,,,,,,,,,,,0,0,0,0,,,,,0,0,0,0,0,2,2,2,,,,,,,,,,,,,,,,,,,,,,,79.0,2.2825673000043025,"[(79.0, 2.2825673000043025)]",734.3889708999995,None,,79.0,,,,,,,,sub_040,2022-08-22_11h26.02.286,Reversal,2022.1.2,59.9678572289882,4,
,,,exp4.png,,,,,,,,,,,,,,,,,0,0,0,0,,,,,0,0,0,0,0,3,3,3,,,,,,,,,,,,,,,,,,,,,,,26.0,1.8685314000031212,"[(26.0, 1.8685314000031212)]",737.6538075999997,None,,,26.0,,,,,,,sub_040,2022-08-22_11h26.02.286,Reversal,2022.1.2,59.9678572289882,4,
0,exp1.png,exp2.png,,,,,,,,,,,,,,,,,,1,0,1,0,0,0,0,0,,,,,,,,,False,20,101,False,exp1.png,exp2.png,trial_left_image,1,exp1.png,4,exp2.png,exp1.png,0,2,non-reversed,incorrect,0.9313439837232318,0,valid_lose,662.0055802999996,45,,,,,,,,,,,,,,,,sub_040,2022-08-22_11h26.02.286,Reversal,2022.1.2,59.9678572289882,4,
1,exp3.png,exp4.png,,,,,,,,,,,,,,,,,,1,0,1,0,0,1,1,1,,,,,,,,,False,21,102,False,exp3.png,exp4.png,trial_right_image,-1,exp4.png,4,exp3.png,exp4.png,1,3,reversed,incorrect,0.22336071659542633,1,invalid_win,666.1060186999966,46,,,,,,,,,,,,,,,,sub_040,2022-08-22_11h26.02.286,Reversal,2022.1.2,59.9678572289882,4,
2,exp1.png,exp2.png,,,,,,,,,,,,,,,,,,1,0,1,0,0,2,2,2,,,,,,,,,False,22,103,True,exp2.png,exp1.png,trial_right_image,-1,exp1.png,4,exp2.png,exp1.png,0,2,non-reversed,incorrect,0.9070180561792902,0,valid_lose,670.7049007999958,46,,,,,,,,,,,,,,,,sub_040,2022-08-22_11h26.02.286,Reversal,2022.1.2,59.9678572289882,4,
3,exp3.png,exp4.png,,,,,,,,,,,,,,,,,,1,0,1,0,0,3,3,3,,,,,,,,,False,23,104,False,exp3.png,exp4.png,trial_right_image,-1,exp4.png,4,exp3.png,exp4.png,1,3,reversed,incorrect,0.6482834888076966,0,valid_lose,674.6887112999975,46,,,,,,,,,,,,,,,,sub_040,2022-08-22_11h26.02.286,Reversal,2022.1.2,59.9678572289882,4,
4,exp1.png,exp2.png,,,,,,,,,,,,,,,,,,1,0,1,0,0,4,4,4,,,,,,,,,False,24,105,True,exp2.png,exp1.png,trial_left_image,1,exp2.png,4,exp2.png,exp1.png,1,1,non-reversed,correct,0.5439604929872401,1,valid_win,678.9056857999967,47,,,,,,,,,,,,,,,,sub_040,2022-08-22_11h26.02.286,Reversal,2022.1.2,59.9678572289882,4,
5,exp3.png,exp4.png,,,,,,,,,,,,,,,,,,1,0,1,0,0,5,5,5,,,,,,,,,False,25,106,False,exp3.png,exp4.png,trial_left_image,1,exp3.png,4,exp3.png,exp4.png,0,4,reversed,correct,0.9546474801077901,1,valid_win,683.7714674999952,48,,,,,,,,,,,,,,,,sub_040,2022-08-22_11h26.02.286,Reversal,2022.1.2,59.9678572289882,4,
6,exp1.png,exp2.png,,,,,,,,,,,,,,,,,,1,0,1,0,0,6,6,6,,,,,,,,,False,26,107,False,exp1.png,exp2.png,trial_left_image,1,exp1.png,4,exp2.png,exp1.png,0,2,non-reversed,incorrect,0.0036662144129454566,1,invalid_win,687.7718225999997,49,,,,,,,,,,,,,,,,sub_040,2022-08-22_11h26.02.286,Reversal,2022.1.2,59.9678572289882,4,
7,exp3.png,exp4.png,,,,,,,,,,,,,,,,,,1,0,1,0,0,7,7,7,,,,,,,,,False,27,108,True,exp4.png,exp3.png,trial_left_image,1,exp4.png,4,exp3.png,exp4.png,1,3,reversed,incorrect,0.7781452531934155,0,valid_lose,691.8047253999976,49,,,,,,,,,,,,,,,,sub_040,2022-08-22_11h26.02.286,Reversal,2022.1.2,59.9678572289882,4,
8,exp1.png,exp2.png,,,,,,,,,,,,,,,,,,1,0,1,0,0,8,8,8,,,,,,,,,False,28,109,True,exp2.png,exp1.png,trial_right_image,-1,exp1.png,4,exp2.png,exp1.png,0,2,non-reversed,incorrect,0.8290448434632726,0,valid_lose,696.8212983999983,49,,,,,,,,,,,,,,,,sub_040,2022-08-22_11h26.02.286,Reversal,2022.1.2,59.9678572289882,4,
9,exp3.png,exp4.png,,,,,,,,,,,,,,,,,,1,0,1,0,0,9,9,9,,,,,,,,,False,29,110,False,exp3.png,exp4.png,trial_right_image,-1,exp4.png,4,exp3.png,exp4.png,1,3,reversed,incorrect,0.9710354562155638,0,valid_lose,700.8043882999991,49,,,,,,,,,,,,,,,,sub_040,2022-08-22_11h26.02.286,Reversal,2022.1.2,59.9678572289882,4,
10,exp1.png,exp2.png,,,,,,,,,,,,,,,,,,1,0,1,0,0,10,10,10,,,,,,,,,False,30,111,True,exp2.png,exp1.png,trial_left_image,1,exp2.png,4,exp2.png,exp1.png,1,1,non-reversed,correct,0.7612514388138867,1,valid_win,704.8873789999998,50,,,,,,,,,,,,,,,,sub_040,2022-08-22_11h26.02.286,Reversal,2022.1.2,59.9678572289882,4,
11,exp3.png,exp4.png,,,,,,,,,,,,,,,,,,1,0,1,0,0,11,11,11,,,,,,,,,False,31,112,False,exp3.png,exp4.png,trial_left_image,1,exp3.png,4,exp3.png,exp4.png,0,4,reversed,correct,0.8165505732574431,1,valid_win,708.8377725999962,51,,,,,,,,,,,,,,,,sub_040,2022-08-22_11h26.02.286,Reversal,2022.1.2,59.9678572289882,4,
12,exp1.png,exp2.png,,,,,,,,,,,,,,,,,,1,0,1,0,0,12,12,12,,,,,,,,,False,32,113,False,exp1.png,exp2.png,trial_left_image,1,exp1.png,4,exp2.png,exp1.png,0,2,non-reversed,incorrect,0.13238495621662338,1,invalid_win,712.854396799994,52,,,,,,,,,,,,,,,,sub_040,2022-08-22_11h26.02.286,Reversal,2022.1.2,59.9678572289882,4,
13,exp3.png,exp4.png,,,,,,,,,,,,,,,,,,1,0,1,0,0,13,13,13,,,,,,,,,False,33,114,False,exp3.png,exp4.png,trial_left_image,1,exp3.png,4,exp3.png,exp4.png,0,4,reversed,correct,0.7273326861239674,1,valid_win,716.8707055999985,53,,,,,,,,,,,,,,,,sub_040,2022-08-22_11h26.02.286,Reversal,2022.1.2,59.9678572289882,4,
14,exp1.png,exp2.png,,,,,,,,,,,,,,,,,,1,0,1,0,0,14,14,14,,,,,,,,,False,34,115,True,exp2.png,exp1.png,trial_left_image,1,exp2.png,4,exp2.png,exp1.png,1,1,non-reversed,correct,0.1520515698306928,0,invalid_lose,720.8712049999958,53,,,,,,,,,,,,,,,,sub_040,2022-08-22_11h26.02.286,Reversal,2022.1.2,59.9678572289882,4,
15,exp3.png,exp4.png,,,,,,,,,,,,,,,,,,1,0,1,0,0,15,15,15,,,,,,,,,False,35,116,True,exp4.png,exp3.png,trial_right_image,-1,exp3.png,4,exp3.png,exp4.png,0,4,reversed,correct,0.23828298262002168,0,invalid_lose,724.9213458999948,53,,,,,,,,,,,,,,,,sub_040,2022-08-22_11h26.02.286,Reversal,2022.1.2,59.9678572289882,4,
16,exp1.png,exp2.png,,,,,,,,,,,,,,,,,,1,0,1,0,0,16,16,16,,,,,,,,,False,36,117,True,exp2.png,exp1.png,trial_left_image,1,exp2.png,4,exp2.png,exp1.png,1,1,non-reversed,correct,0.8344769195846785,1,valid_win,731.0877282000001,54,,,,,,,,,,,,,,,,sub_040,2022-08-22_11h26.02.286,Reversal,2022.1.2,59.9678572289882,4,
17,exp3.png,exp4.png,,,,,,,,,,,,,,,,,,1,0,1,0,0,17,17,17,,,,,,,,,False,37,118,False,exp3.png,exp4.png,trial_left_image,1,exp3.png,4,exp3.png,exp4.png,0,4,reversed,correct,0.20185093486299943,0,invalid_lose,735.0543827000001,54,,,,,,,,,,,,,,,,sub_040,2022-08-22_11h26.02.286,Reversal,2022.1.2,59.9678572289882,4,
18,exp1.png,exp2.png,,,,,,,,,,,,,,,,,,1,0,1,0,0,18,18,18,,,,,,,,,False,38,119,True,exp2.png,exp1.png,trial_left_image,1,exp2.png,4,exp2.png,exp1.png,1,1,non-reversed,correct,0.901643018655327,1,valid_win,740.1205477999974,55,,,,,,,,,,,,,,,,sub_040,2022-08-22_11h26.02.286,Reversal,2022.1.2,59.9678572289882,4,
19,exp3.png,exp4.png,,,,,,,,,,,,,,,,,,1,0,1,0,0,19,19,19,,,,,,,,,False,39,120,True,exp4.png,exp3.png,trial_right_image,-1,exp3.png,4,exp3.png,exp4.png,0,4,reversed,correct,0.48028810018644663,1,valid_win,744.137350799996,56,,,,,,,,,,,,,,,,sub_040,2022-08-22_11h26.02.286,Reversal,2022.1.2,59.9678572289882,4,
20,exp1.png,exp2.png,,,,,,,,,,,,,,,,,,1,0,1,0,0,20,20,20,,,,,,,,,True,,,,,,,,,,,,,,,,,,,,,,,,,,,,,,,,,,,,sub_040,2022-08-22_11h26.02.286,Reversal,2022.1.2,59.9678572289882,4,
,,,exp1.png,,,,,,,,,,,,,,,,,1,0,1,0,,,,,0,0,0,0,0,0,0,0,,,,,,,,,,,,,,,,,,,,,,88.0,88.0,9.301458800000546,"[(88.0, 9.301458800000546)]",827.5746850999931,None,,,,,,,,,,sub_040,2022-08-22_11h26.02.286,Reversal,2022.1.2,59.9678572289882,4,
,,,exp2.png,,,,,,,,,,,,,,,,,1,0,1,0,,,,,0,0,0,0,0,1,1,1,,,,,,,,,,,,,,,,,,,,,,,86.0,4.9022371000028215,"[(19.0, 2.5353415999998106), (86.0, 4.9022371000028215)]",838.1363412999999,None,86.0,,,,,,,,,sub_040,2022-08-22_11h26.02.286,Reversal,2022.1.2,59.9678572289882,4,
,,,exp3.png,,,,,,,,,,,,,,,,,1,0,1,0,,,,,0,0,0,0,0,2,2,2,,,,,,,,,,,,,,,,,,,,,,,19.0,2.2198874999958207,"[(19.0, 2.2198874999958207)]",844.0709948999938,None,,19.0,,,,,,,,sub_040,2022-08-22_11h26.02.286,Reversal,2022.1.2,59.9678572289882,4,
,,,exp4.png,,,,,,,,,,,,,,,,,1,0,1,0,,,,,0,0,0,0,0,3,3,3,,,,,,,,,,,,,,,,,,,,,,,19.0,1.633943700006057,"[(19.0, 1.633943700006057)]",847.5692548999941,None,,,19.0,,,,,,,sub_040,2022-08-22_11h26.02.286,Reversal,2022.1.2,59.9678572289882,4,
0,exp1.png,exp2.png,,,,,,,,,,,,,,,,,,2,0,2,0,0,0,0,0,,,,,,,,,False,40,121,False,exp1.png,exp2.png,trial_left_image,1,exp1.png,4,exp2.png,exp1.png,0,2,non-reversed,incorrect,0.755392154469178,0,valid_lose,773.1532646999985,56,,,,,,,,,,,,,,,,sub_040,2022-08-22_11h26.02.286,Reversal,2022.1.2,59.9678572289882,4,
1,exp3.png,exp4.png,,,,,,,,,,,,,,,,,,2,0,2,0,0,1,1,1,,,,,,,,,False,41,122,False,exp3.png,exp4.png,trial_left_image,1,exp3.png,4,exp3.png,exp4.png,0,4,reversed,correct,0.9826188544693663,1,valid_win,778.5698533999966,57,,,,,,,,,,,,,,,,sub_040,2022-08-22_11h26.02.286,Reversal,2022.1.2,59.9678572289882,4,
2,exp1.png,exp2.png,,,,,,,,,,,,,,,,,,2,0,2,0,0,2,2,2,,,,,,,,,False,42,123,False,exp1.png,exp2.png,trial_right_image,-1,exp2.png,4,exp2.png,exp1.png,1,1,non-reversed,correct,0.7377000588057174,1,valid_win,782.6698724999951,58,,,,,,,,,,,,,,,,sub_040,2022-08-22_11h26.02.286,Reversal,2022.1.2,59.9678572289882,4,
3,exp3.png,exp4.png,,,,,,,,,,,,,,,,,,2,0,2,0,0,3,3,3,,,,,,,,,False,43,124,True,exp4.png,exp3.png,trial_left_image,1,exp4.png,4,exp3.png,exp4.png,1,3,reversed,incorrect,0.15626768463774787,1,invalid_win,786.7196442999993,59,,,,,,,,,,,,,,,,sub_040,2022-08-22_11h26.02.286,Reversal,2022.1.2,59.9678572289882,4,
4,exp1.png,exp2.png,,,,,,,,,,,,,,,,,,2,0,2,0,0,4,4,4,,,,,,,,,False,44,125,True,exp2.png,exp1.png,trial_right_image,-1,exp1.png,4,exp2.png,exp1.png,0,2,non-reversed,incorrect,0.21224305303467306,1,invalid_win,790.7532289999945,60,,,,,,,,,,,,,,,,sub_040,2022-08-22_11h26.02.286,Reversal,2022.1.2,59.9678572289882,4,
5,exp3.png,exp4.png,,,,,,,,,,,,,,,,,,2,0,2,0,0,5,5,5,,,,,,,,,False,45,126,True,exp4.png,exp3.png,trial_left_image,1,exp4.png,4,exp3.png,exp4.png,1,3,reversed,incorrect,0.7339497394885074,0,valid_lose,794.8865802,60,,,,,,,,,,,,,,,,sub_040,2022-08-22_11h26.02.286,Reversal,2022.1.2,59.9678572289882,4,
6,exp1.png,exp2.png,,,,,,,,,,,,,,,,,,2,0,2,0,0,6,6,6,,,,,,,,,False,46,127,False,exp1.png,exp2.png,trial_left_image,1,exp1.png,4,exp2.png,exp1.png,0,2,non-reversed,incorrect,0.6160279027563206,0,valid_lose,799.719803,60,,,,,,,,,,,,,,,,sub_040,2022-08-22_11h26.02.286,Reversal,2022.1.2,59.9678572289882,4,
7,exp3.png,exp4.png,,,,,,,,,,,,,,,,,,2,0,2,0,0,7,7,7,,,,,,,,,False,47,128,False,exp3.png,exp4.png,trial_right_image,-1,exp4.png,4,exp3.png,exp4.png,1,3,reversed,incorrect,0.8502348606114009,0,valid_lose,804.3530541,60,,,,,,,,,,,,,,,,sub_040,2022-08-22_11h26.02.286,Reversal,2022.1.2,59.9678572289882,4,
8,exp1.png,exp2.png,,,,,,,,,,,,,,,,,,2,0,2,0,0,8,8,8,,,,,,,,,False,48,129,False,exp1.png,exp2.png,trial_right_image,-1,exp2.png,4,exp2.png,exp1.png,1,1,non-reversed,correct,0.581163174222221,1,valid_win,808.2863473999969,61,,,,,,,,,,,,,,,,sub_040,2022-08-22_11h26.02.286,Reversal,2022.1.2,59.9678572289882,4,
9,exp3.png,exp4.png,,,,,,,,,,,,,,,,,,2,0,2,0,0,9,9,9,,,,,,,,,False,49,130,True,exp4.png,exp3.png,trial_right_image,-1,exp3.png,4,exp3.png,exp4.png,0,4,reversed,correct,0.13552319754979436,0,invalid_lose,812.7190628999961,61,,,,,,,,,,,,,,,,sub_040,2022-08-22_11h26.02.286,Reversal,2022.1.2,59.9678572289882,4,
10,exp1.png,exp2.png,,,,,,,,,,,,,,,,,,2,0,2,0,0,10,10,10,,,,,,,,,False,50,131,False,exp1.png,exp2.png,trial_right_image,-1,exp2.png,4,exp2.png,exp1.png,1,1,non-reversed,correct,0.055154273440167656,0,invalid_lose,816.6696449999945,61,,,,,,,,,,,,,,,,sub_040,2022-08-22_11h26.02.286,Reversal,2022.1.2,59.9678572289882,4,
11,exp3.png,exp4.png,,,,,,,,,,,,,,,,,,2,0,2,0,0,11,11,11,,,,,,,,,False,51,132,False,exp3.png,exp4.png,trial_left_image,1,exp3.png,4,exp3.png,exp4.png,0,4,reversed,correct,0.3458897583521834,1,valid_win,820.9525428999987,62,,,,,,,,,,,,,,,,sub_040,2022-08-22_11h26.02.286,Reversal,2022.1.2,59.9678572289882,4,
12,exp1.png,exp2.png,,,,,,,,,,,,,,,,,,2,0,2,0,0,12,12,12,,,,,,,,,False,52,133,False,exp1.png,exp2.png,trial_left_image,1,exp1.png,4,exp2.png,exp1.png,0,2,non-reversed,incorrect,0.8808210593523297,0,valid_lose,824.885999099999,62,,,,,,,,,,,,,,,,sub_040,2022-08-22_11h26.02.286,Reversal,2022.1.2,59.9678572289882,4,
13,exp3.png,exp4.png,,,,,,,,,,,,,,,,,,2,0,2,0,0,13,13,13,,,,,,,,,False,53,134,True,exp4.png,exp3.png,trial_left_image,1,exp4.png,4,exp3.png,exp4.png,1,3,reversed,incorrect,0.9515117654435249,0,valid_lose,828.9021950999959,62,,,,,,,,,,,,,,,,sub_040,2022-08-22_11h26.02.286,Reversal,2022.1.2,59.9678572289882,4,
14,exp1.png,exp2.png,,,,,,,,,,,,,,,,,,2,0,2,0,0,14,14,14,,,,,,,,,False,54,135,True,exp2.png,exp1.png,trial_right_image,-1,exp1.png,4,exp2.png,exp1.png,0,2,non-reversed,incorrect,0.36156168601992533,0,valid_lose,832.9030473999956,62,,,,,,,,,,,,,,,,sub_040,2022-08-22_11h26.02.286,Reversal,2022.1.2,59.9678572289882,4,
15,exp3.png,exp4.png,,,,,,,,,,,,,,,,,,2,0,2,0,0,15,15,15,,,,,,,,,False,55,136,True,exp4.png,exp3.png,trial_left_image,1,exp4.png,4,exp3.png,exp4.png,1,3,reversed,incorrect,0.035738271828242296,1,invalid_win,836.9024233999953,63,,,,,,,,,,,,,,,,sub_040,2022-08-22_11h26.02.286,Reversal,2022.1.2,59.9678572289882,4,
16,exp1.png,exp2.png,,,,,,,,,,,,,,,,,,2,0,2,0,0,16,16,16,,,,,,,,,False,56,137,True,exp2.png,exp1.png,trial_left_image,1,exp2.png,4,exp2.png,exp1.png,1,1,non-reversed,correct,0.5998742226144341,1,valid_win,841.0356137999988,64,,,,,,,,,,,,,,,,sub_040,2022-08-22_11h26.02.286,Reversal,2022.1.2,59.9678572289882,4,
17,exp3.png,exp4.png,,,,,,,,,,,,,,,,,,2,0,2,0,0,17,17,17,,,,,,,,,False,57,138,True,exp4.png,exp3.png,trial_left_image,1,exp4.png,4,exp3.png,exp4.png,1,3,reversed,incorrect,0.897638499311493,0,valid_lose,845.1862340000007,64,,,,,,,,,,,,,,,,sub_040,2022-08-22_11h26.02.286,Reversal,2022.1.2,59.9678572289882,4,
18,exp1.png,exp2.png,,,,,,,,,,,,,,,,,,2,0,2,0,0,18,18,18,,,,,,,,,False,58,139,True,exp2.png,exp1.png,trial_right_image,-1,exp1.png,4,exp2.png,exp1.png,0,2,non-reversed,incorrect,0.7271434842419252,0,valid_lose,849.1525674999939,64,,,,,,,,,,,,,,,,sub_040,2022-08-22_11h26.02.286,Reversal,2022.1.2,59.9678572289882,4,
19,exp3.png,exp4.png,,,,,,,,,,,,,,,,,,2,0,2,0,0,19,19,19,,,,,,,,,False,59,140,False,exp3.png,exp4.png,trial_right_image,-1,exp4.png,4,exp3.png,exp4.png,1,3,reversed,incorrect,0.6537333403610448,0,valid_lose,854.5186665999936,64,,,,,,,,,,,,,,,,sub_040,2022-08-22_11h26.02.286,Reversal,2022.1.2,59.9678572289882,4,
20,exp1.png,exp2.png,,,,,,,,,,,,,,,,,,2,0,2,0,0,20,20,20,,,,,,,,,True,,,,,,,,,,,,,,,,,,,,,,,,,,,,,,,,,,,,sub_040,2022-08-22_11h26.02.286,Reversal,2022.1.2,59.9678572289882,4,
,,,exp1.png,,,,,,,,,,,,,,,,,2,0,2,0,,,,,0,0,0,0,0,0,0,0,,,,,,,,,,,,,,,,,,,,,,84.0,84.0,2.273269799996342,"[(84.0, 2.273269799996342)]",937.9639647999938,None,,,,,,,,,,sub_040,2022-08-22_11h26.02.286,Reversal,2022.1.2,59.9678572289882,4,
,,,exp2.png,,,,,,,,,,,,,,,,,2,0,2,0,,,,,0,0,0,0,0,1,1,1,,,,,,,,,,,,,,,,,,,,,,,83.0,1.8340769999995246,"[(83.0, 1.8340769999995246)]",942.2344352999935,None,83.0,,,,,,,,,sub_040,2022-08-22_11h26.02.286,Reversal,2022.1.2,59.9678572289882,4,
,,,exp3.png,,,,,,,,,,,,,,,,,2,0,2,0,,,,,0,0,0,0,0,2,2,2,,,,,,,,,,,,,,,,,,,,,,,83.0,1.4156023999967147,"[(83.0, 1.4156023999967147)]",945.6371144999939,None,,83.0,,,,,,,,sub_040,2022-08-22_11h26.02.286,Reversal,2022.1.2,59.9678572289882,4,
,,,exp4.png,,,,,,,,,,,,,,,,,2,0,2,0,,,,,0,0,0,0,0,3,3,3,,,,,,,,,,,,,,,,,,,,,,,83.0,1.5338852999993833,"[(83.0, 1.5338852999993833)]",948.0171703999949,None,,,83.0,,,,,,,sub_040,2022-08-22_11h26.02.286,Reversal,2022.1.2,59.9678572289882,4,
,,,,,,,,,,,,,,,,,,,,,,,,,,,,,,,,,,,,,,,,,,,,,,,,,,,,,,,,64,,,,,,,,,,,62,36,26,313.36313670000527,1,,,,,,,
