trial_index,trial_image1_file,trial_image2_file,image_file,learning_outer_loop.thisRepN,learning_outer_loop.thisTrialN,learning_outer_loop.thisN,learning_outer_loop.thisIndex,learning_inner_loop.thisRepN,learning_inner_loop.thisTrialN,learning_inner_loop.thisN,learning_inner_loop.thisIndex,learning_estimation_outer_loop.thisRepN,learning_estimation_outer_loop.thisTrialN,learning_estimation_outer_loop.thisN,learning_estimation_outer_loop.thisIndex,learning_estimation_inner_loop.thisRepN,learning_estimation_inner_loop.thisTrialN,learning_estimation_inner_loop.thisN,learning_estimation_inner_loop.thisIndex,reversal_outer_loop.thisRepN,reversal_outer_loop.thisTrialN,reversal_outer_loop.thisN,reversal_outer_loop.thisIndex,reversal_inner_loop.thisRepN,reversal_inner_loop.thisTrialN,reversal_inner_loop.thisN,reversal_inner_loop.thisIndex,reversal_estimation_outer_loop.thisRepN,reversal_estimation_outer_loop.thisTrialN,reversal_estimation_outer_loop.thisN,reversal_estimation_outer_loop.thisIndex,reversal_estimation_inner_loop.thisRepN,reversal_estimation_inner_loop.thisTrialN,reversal_estimation_inner_loop.thisN,reversal_estimation_inner_loop.thisIndex,skipped,total_trial_counter,trial_num,left_right_flip,left_image_file,right_image_file,clicked_stimulus_side,side,clicked_stimulus,version,high_prob_image_file,low_prob_image_file,choice_a,choice_b,pair_type,correct,trial_feedback_random,reward,trial_type,overall_time_after_trial,score,estimation_rating.started,estimation_exp1.png,estimation_rating.response,estimation_rating.rt,estimation_rating.history,estimation_exp2.png,estimation_exp3.png,estimation_exp4.png,total_learning_time,total_correct,learning_correct,reversal_correct,total_reversal_time,extra_block,participant,date,expName,psychopyVersion,frameRate,ver,
0,exp1.png,exp2.png,,0,0,0,0,0,0,0,0,,,,,,,,,,,,,,,,,,,,,,,,,True,,,,,,,,,,,,,,,,,,,,,,,,,,,,,,,,,,,sub_946,2024-05-26_11h55.07.138,Reversal,2023.1.3,60.0444809514967,2,
1,exp3.png,exp4.png,,0,0,0,0,0,1,1,1,,,,,,,,,,,,,,,,,,,,,,,,,False,0,1,False,exp3.png,exp4.png,trial_left_image,1,exp3.png,2,exp3.png,exp4.png,1,3,reversed,correct,0.2757632309797605,1,valid_win,12.328000900000006,1,,,,,,,,,,,,,,,sub_946,2024-05-26_11h55.07.138,Reversal,2023.1.3,60.0444809514967,2,
2,exp1.png,exp2.png,,0,0,0,0,0,2,2,2,,,,,,,,,,,,,,,,,,,,,,,,,False,1,2,False,exp1.png,exp2.png,trial_left_image,1,exp1.png,2,exp1.png,exp2.png,1,1,non-reversed,correct,0.9934291519142605,1,valid_win,23.75739919999978,2,,,,,,,,,,,,,,,sub_946,2024-05-26_11h55.07.138,Reversal,2023.1.3,60.0444809514967,2,
3,exp3.png,exp4.png,,0,0,0,0,0,3,3,3,,,,,,,,,,,,,,,,,,,,,,,,,False,2,3,False,exp3.png,exp4.png,trial_left_image,1,exp3.png,2,exp3.png,exp4.png,1,3,reversed,correct,0.877591573828744,1,valid_win,35.52008519999981,3,,,,,,,,,,,,,,,sub_946,2024-05-26_11h55.07.138,Reversal,2023.1.3,60.0444809514967,2,
4,exp1.png,exp2.png,,0,0,0,0,0,4,4,4,,,,,,,,,,,,,,,,,,,,,,,,,False,3,4,True,exp2.png,exp1.png,trial_right_image,-1,exp1.png,2,exp1.png,exp2.png,1,1,non-reversed,correct,0.8024077206228065,1,valid_win,44.40043799999967,4,,,,,,,,,,,,,,,sub_946,2024-05-26_11h55.07.138,Reversal,2023.1.3,60.0444809514967,2,
5,exp3.png,exp4.png,,0,0,0,0,0,5,5,5,,,,,,,,,,,,,,,,,,,,,,,,,False,4,5,False,exp3.png,exp4.png,trial_left_image,1,exp3.png,2,exp3.png,exp4.png,1,3,reversed,correct,0.12291781336314866,0,invalid_lose,52.29767389999961,4,,,,,,,,,,,,,,,sub_946,2024-05-26_11h55.07.138,Reversal,2023.1.3,60.0444809514967,2,
6,exp1.png,exp2.png,,0,0,0,0,0,6,6,6,,,,,,,,,,,,,,,,,,,,,,,,,False,5,6,False,exp1.png,exp2.png,trial_left_image,1,exp1.png,2,exp1.png,exp2.png,1,1,non-reversed,correct,0.5281781805364103,1,valid_win,64.97682859999986,5,,,,,,,,,,,,,,,sub_946,2024-05-26_11h55.07.138,Reversal,2023.1.3,60.0444809514967,2,
7,exp3.png,exp4.png,,0,0,0,0,0,7,7,7,,,,,,,,,,,,,,,,,,,,,,,,,False,6,7,True,exp4.png,exp3.png,trial_left_image,1,exp4.png,2,exp3.png,exp4.png,0,4,reversed,incorrect,0.716670038943885,0,valid_lose,80.15617680000014,5,,,,,,,,,,,,,,,sub_946,2024-05-26_11h55.07.138,Reversal,2023.1.3,60.0444809514967,2,
8,exp1.png,exp2.png,,0,0,0,0,0,8,8,8,,,,,,,,,,,,,,,,,,,,,,,,,False,7,8,True,exp2.png,exp1.png,trial_right_image,-1,exp1.png,2,exp1.png,exp2.png,1,1,non-reversed,correct,0.30334060798426954,1,valid_win,87.58564099999967,6,,,,,,,,,,,,,,,sub_946,2024-05-26_11h55.07.138,Reversal,2023.1.3,60.0444809514967,2,
9,exp3.png,exp4.png,,0,0,0,0,0,9,9,9,,,,,,,,,,,,,,,,,,,,,,,,,False,8,9,True,exp4.png,exp3.png,trial_right_image,-1,exp3.png,2,exp3.png,exp4.png,1,3,reversed,correct,0.4603145058260486,1,valid_win,96.26653429999988,7,,,,,,,,,,,,,,,sub_946,2024-05-26_11h55.07.138,Reversal,2023.1.3,60.0444809514967,2,
10,exp1.png,exp2.png,,0,0,0,0,0,10,10,10,,,,,,,,,,,,,,,,,,,,,,,,,False,9,10,False,exp1.png,exp2.png,trial_right_image,-1,exp2.png,2,exp1.png,exp2.png,0,2,non-reversed,incorrect,0.5123119952525251,0,valid_lose,112.62758529999974,7,,,,,,,,,,,,,,,sub_946,2024-05-26_11h55.07.138,Reversal,2023.1.3,60.0444809514967,2,
11,exp3.png,exp4.png,,0,0,0,0,0,11,11,11,,,,,,,,,,,,,,,,,,,,,,,,,False,10,11,True,exp4.png,exp3.png,trial_right_image,-1,exp3.png,2,exp3.png,exp4.png,1,3,reversed,correct,0.17733136304705055,0,invalid_lose,117.25913229999969,7,,,,,,,,,,,,,,,sub_946,2024-05-26_11h55.07.138,Reversal,2023.1.3,60.0444809514967,2,
12,exp1.png,exp2.png,,0,0,0,0,0,12,12,12,,,,,,,,,,,,,,,,,,,,,,,,,False,11,12,False,exp1.png,exp2.png,trial_left_image,1,exp1.png,2,exp1.png,exp2.png,1,1,non-reversed,correct,0.4083705972785532,1,valid_win,123.12365679999948,8,,,,,,,,,,,,,,,sub_946,2024-05-26_11h55.07.138,Reversal,2023.1.3,60.0444809514967,2,
13,exp3.png,exp4.png,,0,0,0,0,0,13,13,13,,,,,,,,,,,,,,,,,,,,,,,,,False,12,13,True,exp4.png,exp3.png,trial_right_image,-1,exp3.png,2,exp3.png,exp4.png,1,3,reversed,correct,0.24053614598579565,0,invalid_lose,130.3544908999993,8,,,,,,,,,,,,,,,sub_946,2024-05-26_11h55.07.138,Reversal,2023.1.3,60.0444809514967,2,
14,exp1.png,exp2.png,,0,0,0,0,0,14,14,14,,,,,,,,,,,,,,,,,,,,,,,,,False,13,14,True,exp2.png,exp1.png,trial_right_image,-1,exp1.png,2,exp1.png,exp2.png,1,1,non-reversed,correct,0.7119714364710462,1,valid_win,135.91927020000003,9,,,,,,,,,,,,,,,sub_946,2024-05-26_11h55.07.138,Reversal,2023.1.3,60.0444809514967,2,
15,exp3.png,exp4.png,,0,0,0,0,0,15,15,15,,,,,,,,,,,,,,,,,,,,,,,,,False,14,15,False,exp3.png,exp4.png,trial_left_image,1,exp3.png,2,exp3.png,exp4.png,1,3,reversed,correct,0.6374343218723679,1,valid_win,142.3170442999999,10,,,,,,,,,,,,,,,sub_946,2024-05-26_11h55.07.138,Reversal,2023.1.3,60.0444809514967,2,
16,exp1.png,exp2.png,,0,0,0,0,0,16,16,16,,,,,,,,,,,,,,,,,,,,,,,,,False,15,16,True,exp2.png,exp1.png,trial_right_image,-1,exp1.png,2,exp1.png,exp2.png,1,1,non-reversed,correct,0.02109815516032032,0,invalid_lose,148.66526749999957,10,,,,,,,,,,,,,,,sub_946,2024-05-26_11h55.07.138,Reversal,2023.1.3,60.0444809514967,2,
17,exp3.png,exp4.png,,0,0,0,0,0,17,17,17,,,,,,,,,,,,,,,,,,,,,,,,,False,16,17,True,exp4.png,exp3.png,trial_right_image,-1,exp3.png,2,exp3.png,exp4.png,1,3,reversed,correct,0.4842636233140156,1,valid_win,153.03007399999933,11,,,,,,,,,,,,,,,sub_946,2024-05-26_11h55.07.138,Reversal,2023.1.3,60.0444809514967,2,
18,exp1.png,exp2.png,,0,0,0,0,0,18,18,18,,,,,,,,,,,,,,,,,,,,,,,,,False,17,18,False,exp1.png,exp2.png,trial_right_image,-1,exp2.png,2,exp1.png,exp2.png,0,2,non-reversed,incorrect,0.07319395456405053,1,invalid_win,158.46164099999987,12,,,,,,,,,,,,,,,sub_946,2024-05-26_11h55.07.138,Reversal,2023.1.3,60.0444809514967,2,
19,exp3.png,exp4.png,,0,0,0,0,0,19,19,19,,,,,,,,,,,,,,,,,,,,,,,,,False,18,19,True,exp4.png,exp3.png,trial_right_image,-1,exp3.png,2,exp3.png,exp4.png,1,3,reversed,correct,0.4027570307230398,1,valid_win,166.2089817999995,13,,,,,,,,,,,,,,,sub_946,2024-05-26_11h55.07.138,Reversal,2023.1.3,60.0444809514967,2,
20,exp1.png,exp2.png,,0,0,0,0,0,20,20,20,,,,,,,,,,,,,,,,,,,,,,,,,False,19,20,False,exp1.png,exp2.png,trial_left_image,1,exp1.png,2,exp1.png,exp2.png,1,1,non-reversed,correct,0.8072221219231223,1,valid_win,172.31099899999936,14,,,,,,,,,,,,,,,sub_946,2024-05-26_11h55.07.138,Reversal,2023.1.3,60.0444809514967,2,
,,,exp1.png,0,0,0,0,,,,,0,0,0,0,0,0,0,0,,,,,,,,,,,,,,,,,,,,,,,,,,,,,,,,,,,,,,270.49365790000047,1.0,1.0,20.143958900000143,"[(77.0, 9.413683099999616), (100.0, 11.24653760000001), (1.0, 20.143958900000143)]",,,,,,,,,,sub_946,2024-05-26_11h55.07.138,Reversal,2023.1.3,60.0444809514967,2,
,,,exp2.png,0,0,0,0,,,,,0,0,0,0,0,1,1,1,,,,,,,,,,,,,,,,,,,,,,,,,,,,,,,,,,,,,,292.5174968000001,,1.0,8.289276500000597,"[(1.0, 4.391565300000366), (1.0, 8.289276500000597)]",1.0,,,,,,,,,sub_946,2024-05-26_11h55.07.138,Reversal,2023.1.3,60.0444809514967,2,
,,,exp3.png,0,0,0,0,,,,,0,0,0,0,0,2,2,2,,,,,,,,,,,,,,,,,,,,,,,,,,,,,,,,,,,,,,302.04528370000025,,100.0,2.3442643000007592,"[(100.0, 2.3442643000007592)]",,100.0,,,,,,,,sub_946,2024-05-26_11h55.07.138,Reversal,2023.1.3,60.0444809514967,2,
,,,exp4.png,0,0,0,0,,,,,0,0,0,0,0,3,3,3,,,,,,,,,,,,,,,,,,,,,,,,,,,,,,,,,,,,,,305.87981709999985,,100.0,3.7390791000007084,"[(100.0, 3.7390791000007084)]",,,100.0,,,,,,,sub_946,2024-05-26_11h55.07.138,Reversal,2023.1.3,60.0444809514967,2,
0,exp1.png,exp2.png,,1,0,1,0,0,0,0,0,,,,,,,,,,,,,,,,,,,,,,,,,True,,,,,,,,,,,,,,,,,,,,,,,,,,,,,,,,,,,sub_946,2024-05-26_11h55.07.138,Reversal,2023.1.3,60.0444809514967,2,
1,exp3.png,exp4.png,,1,0,1,0,0,1,1,1,,,,,,,,,,,,,,,,,,,,,,,,,False,20,21,False,exp3.png,exp4.png,trial_left_image,1,exp3.png,2,exp3.png,exp4.png,1,3,reversed,correct,0.35004022508279153,1,valid_win,219.95747429999938,15,,,,,,,,,,,,,,,sub_946,2024-05-26_11h55.07.138,Reversal,2023.1.3,60.0444809514967,2,
2,exp1.png,exp2.png,,1,0,1,0,0,2,2,2,,,,,,,,,,,,,,,,,,,,,,,,,False,21,22,True,exp2.png,exp1.png,trial_right_image,-1,exp1.png,2,exp1.png,exp2.png,1,1,non-reversed,correct,0.7380549605451071,1,valid_win,225.68890370000008,16,,,,,,,,,,,,,,,sub_946,2024-05-26_11h55.07.138,Reversal,2023.1.3,60.0444809514967,2,
3,exp3.png,exp4.png,,1,0,1,0,0,3,3,3,,,,,,,,,,,,,,,,,,,,,,,,,False,22,23,True,exp4.png,exp3.png,trial_right_image,-1,exp3.png,2,exp3.png,exp4.png,1,3,reversed,correct,0.7286892934698931,1,valid_win,230.43753209999977,17,,,,,,,,,,,,,,,sub_946,2024-05-26_11h55.07.138,Reversal,2023.1.3,60.0444809514967,2,
4,exp1.png,exp2.png,,1,0,1,0,0,4,4,4,,,,,,,,,,,,,,,,,,,,,,,,,False,23,24,False,exp1.png,exp2.png,trial_right_image,-1,exp2.png,2,exp1.png,exp2.png,0,2,non-reversed,incorrect,0.7025873455145002,0,valid_lose,236.76837799999976,17,,,,,,,,,,,,,,,sub_946,2024-05-26_11h55.07.138,Reversal,2023.1.3,60.0444809514967,2,
5,exp3.png,exp4.png,,1,0,1,0,0,5,5,5,,,,,,,,,,,,,,,,,,,,,,,,,False,24,25,False,exp3.png,exp4.png,trial_left_image,1,exp3.png,2,exp3.png,exp4.png,1,3,reversed,correct,0.0071350707688485615,0,invalid_lose,241.05045900000005,17,,,,,,,,,,,,,,,sub_946,2024-05-26_11h55.07.138,Reversal,2023.1.3,60.0444809514967,2,
6,exp1.png,exp2.png,,1,0,1,0,0,6,6,6,,,,,,,,,,,,,,,,,,,,,,,,,False,25,26,True,exp2.png,exp1.png,trial_left_image,1,exp2.png,2,exp1.png,exp2.png,0,2,non-reversed,incorrect,0.040854351449231996,1,invalid_win,249.51434770000014,18,,,,,,,,,,,,,,,sub_946,2024-05-26_11h55.07.138,Reversal,2023.1.3,60.0444809514967,2,
7,exp3.png,exp4.png,,1,0,1,0,0,7,7,7,,,,,,,,,,,,,,,,,,,,,,,,,False,26,27,False,exp3.png,exp4.png,trial_left_image,1,exp3.png,2,exp3.png,exp4.png,1,3,reversed,correct,0.9494830892439483,1,valid_win,253.86275529999966,19,,,,,,,,,,,,,,,sub_946,2024-05-26_11h55.07.138,Reversal,2023.1.3,60.0444809514967,2,
8,exp1.png,exp2.png,,1,0,1,0,0,8,8,8,,,,,,,,,,,,,,,,,,,,,,,,,False,27,28,False,exp1.png,exp2.png,trial_right_image,-1,exp2.png,2,exp1.png,exp2.png,0,2,non-reversed,incorrect,0.26742970333102023,0,valid_lose,259.8608009999998,19,,,,,,,,,,,,,,,sub_946,2024-05-26_11h55.07.138,Reversal,2023.1.3,60.0444809514967,2,
9,exp3.png,exp4.png,,1,0,1,0,0,9,9,9,,,,,,,,,,,,,,,,,,,,,,,,,False,28,29,True,exp4.png,exp3.png,trial_right_image,-1,exp3.png,2,exp3.png,exp4.png,1,3,reversed,correct,0.6998151745982792,1,valid_win,264.14244939999935,20,,,,,,,,,,,,,,,sub_946,2024-05-26_11h55.07.138,Reversal,2023.1.3,60.0444809514967,2,
10,exp1.png,exp2.png,,1,0,1,0,0,10,10,10,,,,,,,,,,,,,,,,,,,,,,,,,False,29,30,True,exp2.png,exp1.png,trial_left_image,1,exp2.png,2,exp1.png,exp2.png,0,2,non-reversed,incorrect,0.5363277262392514,0,valid_lose,269.0908585999996,20,,,,,,,,,,,,,,,sub_946,2024-05-26_11h55.07.138,Reversal,2023.1.3,60.0444809514967,2,
11,exp3.png,exp4.png,,1,0,1,0,0,11,11,11,,,,,,,,,,,,,,,,,,,,,,,,,False,30,31,False,exp3.png,exp4.png,trial_left_image,1,exp3.png,2,exp3.png,exp4.png,1,3,reversed,correct,0.3752251632192457,1,valid_win,273.3560497999997,21,,,,,,,,,,,,,,,sub_946,2024-05-26_11h55.07.138,Reversal,2023.1.3,60.0444809514967,2,
12,exp1.png,exp2.png,,1,0,1,0,0,12,12,12,,,,,,,,,,,,,,,,,,,,,,,,,False,31,32,False,exp1.png,exp2.png,trial_left_image,1,exp1.png,2,exp1.png,exp2.png,1,1,non-reversed,correct,0.6540774695476279,1,valid_win,278.28794839999955,22,,,,,,,,,,,,,,,sub_946,2024-05-26_11h55.07.138,Reversal,2023.1.3,60.0444809514967,2,
13,exp3.png,exp4.png,,1,0,1,0,0,13,13,13,,,,,,,,,,,,,,,,,,,,,,,,,False,32,33,True,exp4.png,exp3.png,trial_right_image,-1,exp3.png,2,exp3.png,exp4.png,1,3,reversed,correct,0.05788721534589003,0,invalid_lose,283.0691962000001,22,,,,,,,,,,,,,,,sub_946,2024-05-26_11h55.07.138,Reversal,2023.1.3,60.0444809514967,2,
14,exp1.png,exp2.png,,1,0,1,0,0,14,14,14,,,,,,,,,,,,,,,,,,,,,,,,,False,33,34,False,exp1.png,exp2.png,trial_left_image,1,exp1.png,2,exp1.png,exp2.png,1,1,non-reversed,correct,0.6141970156579161,1,valid_win,287.13466439999956,23,,,,,,,,,,,,,,,sub_946,2024-05-26_11h55.07.138,Reversal,2023.1.3,60.0444809514967,2,
15,exp3.png,exp4.png,,1,0,1,0,0,15,15,15,,,,,,,,,,,,,,,,,,,,,,,,,False,34,35,True,exp4.png,exp3.png,trial_left_image,1,exp4.png,2,exp3.png,exp4.png,0,4,reversed,incorrect,0.7534315400641661,0,valid_lose,291.48369379999986,23,,,,,,,,,,,,,,,sub_946,2024-05-26_11h55.07.138,Reversal,2023.1.3,60.0444809514967,2,
16,exp1.png,exp2.png,,1,0,1,0,0,16,16,16,,,,,,,,,,,,,,,,,,,,,,,,,False,35,36,True,exp2.png,exp1.png,trial_right_image,-1,exp1.png,2,exp1.png,exp2.png,1,1,non-reversed,correct,0.5353968843552792,1,valid_win,296.2652339999995,24,,,,,,,,,,,,,,,sub_946,2024-05-26_11h55.07.138,Reversal,2023.1.3,60.0444809514967,2,
17,exp3.png,exp4.png,,1,0,1,0,0,17,17,17,,,,,,,,,,,,,,,,,,,,,,,,,False,36,37,True,exp4.png,exp3.png,trial_right_image,-1,exp3.png,2,exp3.png,exp4.png,1,3,reversed,correct,0.9885957494402147,1,valid_win,300.53039119999994,25,,,,,,,,,,,,,,,sub_946,2024-05-26_11h55.07.138,Reversal,2023.1.3,60.0444809514967,2,
18,exp1.png,exp2.png,,1,0,1,0,0,18,18,18,,,,,,,,,,,,,,,,,,,,,,,,,False,37,38,True,exp2.png,exp1.png,trial_right_image,-1,exp1.png,2,exp1.png,exp2.png,1,1,non-reversed,correct,0.15980151099082796,0,invalid_lose,305.2627629999997,25,,,,,,,,,,,,,,,sub_946,2024-05-26_11h55.07.138,Reversal,2023.1.3,60.0444809514967,2,
19,exp3.png,exp4.png,,1,0,1,0,0,19,19,19,,,,,,,,,,,,,,,,,,,,,,,,,False,38,39,False,exp3.png,exp4.png,trial_left_image,1,exp3.png,2,exp3.png,exp4.png,1,3,reversed,correct,0.18740989724784607,0,invalid_lose,310.4276377999995,25,,,,,,,,,,,,,,,sub_946,2024-05-26_11h55.07.138,Reversal,2023.1.3,60.0444809514967,2,
20,exp1.png,exp2.png,,1,0,1,0,0,20,20,20,,,,,,,,,,,,,,,,,,,,,,,,,False,39,40,False,exp1.png,exp2.png,trial_left_image,1,exp1.png,2,exp1.png,exp2.png,1,1,non-reversed,correct,0.9821559067610365,1,valid_win,316.8579904999997,26,,,,,,,,,,,,,,,sub_946,2024-05-26_11h55.07.138,Reversal,2023.1.3,60.0444809514967,2,
,,,exp1.png,1,0,1,0,,,,,0,0,0,0,0,0,0,0,,,,,,,,,,,,,,,,,,,,,,,,,,,,,,,,,,,,,,415.048863,1.0,1.0,3.4888944000003903,"[(1.0, 3.4888944000003903)]",,,,,,,,,,sub_946,2024-05-26_11h55.07.138,Reversal,2023.1.3,60.0444809514967,2,
,,,exp2.png,1,0,1,0,,,,,0,0,0,0,0,1,1,1,,,,,,,,,,,,,,,,,,,,,,,,,,,,,,,,,,,,,,419.9222928999998,,100.0,3.5612928999998985,"[(100.0, 3.5612928999998985)]",100.0,,,,,,,,,sub_946,2024-05-26_11h55.07.138,Reversal,2023.1.3,60.0444809514967,2,
,,,exp3.png,1,0,1,0,,,,,0,0,0,0,0,2,2,2,,,,,,,,,,,,,,,,,,,,,,,,,,,,,,,,,,,,,,424.6212201999997,,1.0,4.309889400000429,"[(1.0, 4.309889400000429)]",,1.0,,,,,,,,sub_946,2024-05-26_11h55.07.138,Reversal,2023.1.3,60.0444809514967,2,
,,,exp4.png,1,0,1,0,,,,,0,0,0,0,0,3,3,3,,,,,,,,,,,,,,,,,,,,,,,,,,,,,,,,,,,,,,429.9988642999997,,100.0,1.779779999999846,"[(100.0, 1.779779999999846)]",,,100.0,,,,,,,sub_946,2024-05-26_11h55.07.138,Reversal,2023.1.3,60.0444809514967,2,
0,exp1.png,exp2.png,,2,0,2,0,0,0,0,0,,,,,,,,,,,,,,,,,,,,,,,,,True,,,,,,,,,,,,,,,,,,,,,,,,,,,,,,,,,,,sub_946,2024-05-26_11h55.07.138,Reversal,2023.1.3,60.0444809514967,2,
1,exp3.png,exp4.png,,2,0,2,0,0,1,1,1,,,,,,,,,,,,,,,,,,,,,,,,,False,40,41,False,exp3.png,exp4.png,trial_right_image,-1,exp4.png,2,exp3.png,exp4.png,0,4,reversed,incorrect,0.3867333059708663,0,valid_lose,344.1987573999995,26,,,,,,,,,,,,,,,sub_946,2024-05-26_11h55.07.138,Reversal,2023.1.3,60.0444809514967,2,
2,exp1.png,exp2.png,,2,0,2,0,0,2,2,2,,,,,,,,,,,,,,,,,,,,,,,,,False,41,42,True,exp2.png,exp1.png,trial_left_image,1,exp2.png,2,exp1.png,exp2.png,0,2,non-reversed,incorrect,0.5205086593154885,0,valid_lose,349.51397409999936,26,,,,,,,,,,,,,,,sub_946,2024-05-26_11h55.07.138,Reversal,2023.1.3,60.0444809514967,2,
3,exp3.png,exp4.png,,2,0,2,0,0,3,3,3,,,,,,,,,,,,,,,,,,,,,,,,,False,42,43,False,exp3.png,exp4.png,trial_left_image,1,exp3.png,2,exp3.png,exp4.png,1,3,reversed,correct,0.5751613241128429,1,valid_win,356.2117723000001,27,,,,,,,,,,,,,,,sub_946,2024-05-26_11h55.07.138,Reversal,2023.1.3,60.0444809514967,2,
4,exp1.png,exp2.png,,2,0,2,0,0,4,4,4,,,,,,,,,,,,,,,,,,,,,,,,,False,43,44,False,exp1.png,exp2.png,trial_right_image,-1,exp2.png,2,exp1.png,exp2.png,0,2,non-reversed,incorrect,0.3201817028463738,0,valid_lose,363.1255407999997,27,,,,,,,,,,,,,,,sub_946,2024-05-26_11h55.07.138,Reversal,2023.1.3,60.0444809514967,2,
5,exp3.png,exp4.png,,2,0,2,0,0,5,5,5,,,,,,,,,,,,,,,,,,,,,,,,,False,44,45,True,exp4.png,exp3.png,trial_left_image,1,exp4.png,2,exp3.png,exp4.png,0,4,reversed,incorrect,0.32261994194292654,0,valid_lose,368.0406533999994,27,,,,,,,,,,,,,,,sub_946,2024-05-26_11h55.07.138,Reversal,2023.1.3,60.0444809514967,2,
6,exp1.png,exp2.png,,2,0,2,0,0,6,6,6,,,,,,,,,,,,,,,,,,,,,,,,,False,45,46,True,exp2.png,exp1.png,trial_right_image,-1,exp1.png,2,exp1.png,exp2.png,1,1,non-reversed,correct,0.416180345371271,1,valid_win,372.3729085999994,28,,,,,,,,,,,,,,,sub_946,2024-05-26_11h55.07.138,Reversal,2023.1.3,60.0444809514967,2,
7,exp3.png,exp4.png,,2,0,2,0,0,7,7,7,,,,,,,,,,,,,,,,,,,,,,,,,False,46,47,True,exp4.png,exp3.png,trial_right_image,-1,exp3.png,2,exp3.png,exp4.png,1,3,reversed,correct,0.9667282432488469,1,valid_win,376.5720741999994,29,,,,,,,,,,,,,,,sub_946,2024-05-26_11h55.07.138,Reversal,2023.1.3,60.0444809514967,2,
8,exp1.png,exp2.png,,2,0,2,0,0,8,8,8,,,,,,,,,,,,,,,,,,,,,,,,,False,47,48,False,exp1.png,exp2.png,trial_right_image,-1,exp2.png,2,exp1.png,exp2.png,0,2,non-reversed,incorrect,0.07177180088419266,1,invalid_win,383.41903209999964,30,,,,,,,,,,,,,,,sub_946,2024-05-26_11h55.07.138,Reversal,2023.1.3,60.0444809514967,2,
9,exp3.png,exp4.png,,2,0,2,0,0,9,9,9,,,,,,,,,,,,,,,,,,,,,,,,,False,48,49,False,exp3.png,exp4.png,trial_left_image,1,exp3.png,2,exp3.png,exp4.png,1,3,reversed,correct,0.9767783032143598,1,valid_win,388.60088519999954,31,,,,,,,,,,,,,,,sub_946,2024-05-26_11h55.07.138,Reversal,2023.1.3,60.0444809514967,2,
10,exp1.png,exp2.png,,2,0,2,0,0,10,10,10,,,,,,,,,,,,,,,,,,,,,,,,,False,49,50,True,exp2.png,exp1.png,trial_left_image,1,exp2.png,2,exp1.png,exp2.png,0,2,non-reversed,incorrect,0.350982018828798,0,valid_lose,394.89876060000006,31,,,,,,,,,,,,,,,sub_946,2024-05-26_11h55.07.138,Reversal,2023.1.3,60.0444809514967,2,
11,exp3.png,exp4.png,,2,0,2,0,0,11,11,11,,,,,,,,,,,,,,,,,,,,,,,,,False,50,51,True,exp4.png,exp3.png,trial_right_image,-1,exp3.png,2,exp3.png,exp4.png,1,3,reversed,correct,0.73562785940054,1,valid_win,401.6461153,32,,,,,,,,,,,,,,,sub_946,2024-05-26_11h55.07.138,Reversal,2023.1.3,60.0444809514967,2,
12,exp1.png,exp2.png,,2,0,2,0,0,12,12,12,,,,,,,,,,,,,,,,,,,,,,,,,False,51,52,False,exp1.png,exp2.png,trial_right_image,-1,exp2.png,2,exp1.png,exp2.png,0,2,non-reversed,incorrect,0.3087034102511331,0,valid_lose,407.29406689999996,32,,,,,,,,,,,,,,,sub_946,2024-05-26_11h55.07.138,Reversal,2023.1.3,60.0444809514967,2,
13,exp3.png,exp4.png,,2,0,2,0,0,13,13,13,,,,,,,,,,,,,,,,,,,,,,,,,False,52,53,True,exp4.png,exp3.png,trial_right_image,-1,exp3.png,2,exp3.png,exp4.png,1,3,reversed,correct,0.6340660533699453,1,valid_win,413.7089271999994,33,,,,,,,,,,,,,,,sub_946,2024-05-26_11h55.07.138,Reversal,2023.1.3,60.0444809514967,2,
14,exp1.png,exp2.png,,2,0,2,0,0,14,14,14,,,,,,,,,,,,,,,,,,,,,,,,,False,53,54,True,exp2.png,exp1.png,trial_right_image,-1,exp1.png,2,exp1.png,exp2.png,1,1,non-reversed,correct,0.3598095300310239,1,valid_win,424.3057297999994,34,,,,,,,,,,,,,,,sub_946,2024-05-26_11h55.07.138,Reversal,2023.1.3,60.0444809514967,2,
15,exp3.png,exp4.png,,2,0,2,0,0,15,15,15,,,,,,,,,,,,,,,,,,,,,,,,,False,54,55,False,exp3.png,exp4.png,trial_left_image,1,exp3.png,2,exp3.png,exp4.png,1,3,reversed,correct,0.06709173124065648,0,invalid_lose,430.8530412,34,,,,,,,,,,,,,,,sub_946,2024-05-26_11h55.07.138,Reversal,2023.1.3,60.0444809514967,2,
16,exp1.png,exp2.png,,2,0,2,0,0,16,16,16,,,,,,,,,,,,,,,,,,,,,,,,,False,55,56,False,exp1.png,exp2.png,trial_left_image,1,exp1.png,2,exp1.png,exp2.png,1,1,non-reversed,correct,0.007338167112833527,0,invalid_lose,437.1007086999998,34,,,,,,,,,,,,,,,sub_946,2024-05-26_11h55.07.138,Reversal,2023.1.3,60.0444809514967,2,
17,exp3.png,exp4.png,,2,0,2,0,0,17,17,17,,,,,,,,,,,,,,,,,,,,,,,,,False,56,57,True,exp4.png,exp3.png,trial_right_image,-1,exp3.png,2,exp3.png,exp4.png,1,3,reversed,correct,0.4291336499392462,1,valid_win,441.3158254,35,,,,,,,,,,,,,,,sub_946,2024-05-26_11h55.07.138,Reversal,2023.1.3,60.0444809514967,2,
18,exp1.png,exp2.png,,2,0,2,0,0,18,18,18,,,,,,,,,,,,,,,,,,,,,,,,,False,57,58,False,exp1.png,exp2.png,trial_left_image,1,exp1.png,2,exp1.png,exp2.png,1,1,non-reversed,correct,0.931301915607937,1,valid_win,446.69744119999996,36,,,,,,,,,,,,,,,sub_946,2024-05-26_11h55.07.138,Reversal,2023.1.3,60.0444809514967,2,
19,exp3.png,exp4.png,,2,0,2,0,0,19,19,19,,,,,,,,,,,,,,,,,,,,,,,,,False,58,59,True,exp4.png,exp3.png,trial_left_image,1,exp4.png,2,exp3.png,exp4.png,0,4,reversed,incorrect,0.8353203446255465,0,valid_lose,452.2459805999997,36,,,,,,,,,,,,,,,sub_946,2024-05-26_11h55.07.138,Reversal,2023.1.3,60.0444809514967,2,
20,exp1.png,exp2.png,,2,0,2,0,0,20,20,20,,,,,,,,,,,,,,,,,,,,,,,,,False,59,60,False,exp1.png,exp2.png,trial_right_image,-1,exp2.png,2,exp1.png,exp2.png,0,2,non-reversed,incorrect,0.21410201483179814,1,invalid_win,456.36105150000003,37,,,,,,,,,,,,,,,sub_946,2024-05-26_11h55.07.138,Reversal,2023.1.3,60.0444809514967,2,
,,,exp1.png,2,0,2,0,,,,,0,0,0,0,0,0,0,0,,,,,,,,,,,,,,,,,,,,,,,,,,,,,,,,,,,,,,554.5485354000002,1.0,1.0,3.8217380000005505,"[(1.0, 3.8217380000005505)]",,,,,,,,,,sub_946,2024-05-26_11h55.07.138,Reversal,2023.1.3,60.0444809514967,2,
,,,exp2.png,2,0,2,0,,,,,0,0,0,0,0,1,1,1,,,,,,,,,,,,,,,,,,,,,,,,,,,,,,,,,,,,,,559.4412296999999,,100.0,1.6936928999994052,"[(100.0, 1.6936928999994052)]",100.0,,,,,,,,,sub_946,2024-05-26_11h55.07.138,Reversal,2023.1.3,60.0444809514967,2,
,,,exp3.png,2,0,2,0,,,,,0,0,0,0,0,2,2,2,,,,,,,,,,,,,,,,,,,,,,,,,,,,,,,,,,,,,,562.1223159000001,,100.0,3.359715900000083,"[(1.0, 2.060923900000489), (100.0, 3.359715900000083)]",,100.0,,,,,,,,sub_946,2024-05-26_11h55.07.138,Reversal,2023.1.3,60.0444809514967,2,
,,,exp4.png,2,0,2,0,,,,,0,0,0,0,0,3,3,3,,,,,,,,,,,,,,,,,,,,,,,,,,,,,,,,,,,,,,566.3897488000002,,1.0,1.295720000000074,"[(1.0, 1.295720000000074)]",,,1.0,,,,,,,sub_946,2024-05-26_11h55.07.138,Reversal,2023.1.3,60.0444809514967,2,
0,exp1.png,exp2.png,,3,0,3,0,0,0,0,0,,,,,,,,,,,,,,,,,,,,,,,,,True,,,,,,,,,,,,,,,,,,,,,,,,,,,,,,,,,,,sub_946,2024-05-26_11h55.07.138,Reversal,2023.1.3,60.0444809514967,2,
1,exp3.png,exp4.png,,3,0,3,0,0,1,1,1,,,,,,,,,,,,,,,,,,,,,,,,,False,60,61,False,exp3.png,exp4.png,trial_left_image,1,exp3.png,2,exp3.png,exp4.png,1,3,reversed,correct,0.581304002912531,1,valid_win,476.7542786999993,38,,,,,,,,,,,,,,,sub_946,2024-05-26_11h55.07.138,Reversal,2023.1.3,60.0444809514967,2,
2,exp1.png,exp2.png,,3,0,3,0,0,2,2,2,,,,,,,,,,,,,,,,,,,,,,,,,False,61,62,False,exp1.png,exp2.png,trial_right_image,-1,exp2.png,2,exp1.png,exp2.png,0,2,non-reversed,incorrect,0.07477071856913209,1,invalid_win,482.63524549999966,39,,,,,,,,,,,,,,,sub_946,2024-05-26_11h55.07.138,Reversal,2023.1.3,60.0444809514967,2,
3,exp3.png,exp4.png,,3,0,3,0,0,3,3,3,,,,,,,,,,,,,,,,,,,,,,,,,False,62,63,True,exp4.png,exp3.png,trial_right_image,-1,exp3.png,2,exp3.png,exp4.png,1,3,reversed,correct,0.13486140965470472,0,invalid_lose,487.1838987000001,39,,,,,,,,,,,,,,,sub_946,2024-05-26_11h55.07.138,Reversal,2023.1.3,60.0444809514967,2,
4,exp1.png,exp2.png,,3,0,3,0,0,4,4,4,,,,,,,,,,,,,,,,,,,,,,,,,False,63,64,False,exp1.png,exp2.png,trial_left_image,1,exp1.png,2,exp1.png,exp2.png,1,1,non-reversed,correct,0.7661126829731825,1,valid_win,492.1820883999999,40,,,,,,,,,,,,,,,sub_946,2024-05-26_11h55.07.138,Reversal,2023.1.3,60.0444809514967,2,
5,exp3.png,exp4.png,,3,0,3,0,0,5,5,5,,,,,,,,,,,,,,,,,,,,,,,,,False,64,65,True,exp4.png,exp3.png,trial_left_image,1,exp4.png,2,exp3.png,exp4.png,0,4,reversed,incorrect,0.3035659514223299,0,valid_lose,496.74714309999945,40,,,,,,,,,,,,,,,sub_946,2024-05-26_11h55.07.138,Reversal,2023.1.3,60.0444809514967,2,
6,exp1.png,exp2.png,,3,0,3,0,0,6,6,6,,,,,,,,,,,,,,,,,,,,,,,,,False,65,66,False,exp1.png,exp2.png,trial_left_image,1,exp1.png,2,exp1.png,exp2.png,1,1,non-reversed,correct,0.12622296062943994,0,invalid_lose,502.0624835999997,40,,,,,,,,,,,,,,,sub_946,2024-05-26_11h55.07.138,Reversal,2023.1.3,60.0444809514967,2,
7,exp3.png,exp4.png,,3,0,3,0,0,7,7,7,,,,,,,,,,,,,,,,,,,,,,,,,False,66,67,True,exp4.png,exp3.png,trial_right_image,-1,exp3.png,2,exp3.png,exp4.png,1,3,reversed,correct,0.7329945964030048,1,valid_win,506.3939086999999,41,,,,,,,,,,,,,,,sub_946,2024-05-26_11h55.07.138,Reversal,2023.1.3,60.0444809514967,2,
8,exp1.png,exp2.png,,3,0,3,0,0,8,8,8,,,,,,,,,,,,,,,,,,,,,,,,,False,67,68,False,exp1.png,exp2.png,trial_left_image,1,exp1.png,2,exp1.png,exp2.png,1,1,non-reversed,correct,0.9900517422330638,1,valid_win,511.1422429999993,42,,,,,,,,,,,,,,,sub_946,2024-05-26_11h55.07.138,Reversal,2023.1.3,60.0444809514967,2,
9,exp3.png,exp4.png,,3,0,3,0,0,9,9,9,,,,,,,,,,,,,,,,,,,,,,,,,False,68,69,False,exp3.png,exp4.png,trial_left_image,1,exp3.png,2,exp3.png,exp4.png,1,3,reversed,correct,0.29378492620472596,1,valid_win,515.4411408999995,43,,,,,,,,,,,,,,,sub_946,2024-05-26_11h55.07.138,Reversal,2023.1.3,60.0444809514967,2,
10,exp1.png,exp2.png,,3,0,3,0,0,10,10,10,,,,,,,,,,,,,,,,,,,,,,,,,False,69,70,True,exp2.png,exp1.png,trial_right_image,-1,exp1.png,2,exp1.png,exp2.png,1,1,non-reversed,correct,0.056843805432682304,0,invalid_lose,520.8888733999993,43,,,,,,,,,,,,,,,sub_946,2024-05-26_11h55.07.138,Reversal,2023.1.3,60.0444809514967,2,
11,exp3.png,exp4.png,,3,0,3,0,0,11,11,11,,,,,,,,,,,,,,,,,,,,,,,,,False,70,71,False,exp3.png,exp4.png,trial_left_image,1,exp3.png,2,exp3.png,exp4.png,1,3,reversed,correct,0.3318672068882639,1,valid_win,525.7044681999996,44,,,,,,,,,,,,,,,sub_946,2024-05-26_11h55.07.138,Reversal,2023.1.3,60.0444809514967,2,
12,exp1.png,exp2.png,,3,0,3,0,0,12,12,12,,,,,,,,,,,,,,,,,,,,,,,,,False,71,72,False,exp1.png,exp2.png,trial_right_image,-1,exp2.png,2,exp1.png,exp2.png,0,2,non-reversed,incorrect,0.2580856805366679,0,valid_lose,532.73495,44,,,,,,,,,,,,,,,sub_946,2024-05-26_11h55.07.138,Reversal,2023.1.3,60.0444809514967,2,
13,exp3.png,exp4.png,,3,0,3,0,0,13,13,13,,,,,,,,,,,,,,,,,,,,,,,,,False,72,73,True,exp4.png,exp3.png,trial_right_image,-1,exp3.png,2,exp3.png,exp4.png,1,3,reversed,correct,0.35433725690248874,1,valid_win,539.5160605000001,45,,,,,,,,,,,,,,,sub_946,2024-05-26_11h55.07.138,Reversal,2023.1.3,60.0444809514967,2,
14,exp1.png,exp2.png,,3,0,3,0,0,14,14,14,,,,,,,,,,,,,,,,,,,,,,,,,False,73,74,True,exp2.png,exp1.png,trial_left_image,1,exp2.png,2,exp1.png,exp2.png,0,2,non-reversed,incorrect,0.8254110712347212,0,valid_lose,544.4977585999995,45,,,,,,,,,,,,,,,sub_946,2024-05-26_11h55.07.138,Reversal,2023.1.3,60.0444809514967,2,
15,exp3.png,exp4.png,,3,0,3,0,0,15,15,15,,,,,,,,,,,,,,,,,,,,,,,,,False,74,75,False,exp3.png,exp4.png,trial_left_image,1,exp3.png,2,exp3.png,exp4.png,1,3,reversed,correct,0.32306977895014133,1,valid_win,549.5795687,46,,,,,,,,,,,,,,,sub_946,2024-05-26_11h55.07.138,Reversal,2023.1.3,60.0444809514967,2,
16,exp1.png,exp2.png,,3,0,3,0,0,16,16,16,,,,,,,,,,,,,,,,,,,,,,,,,False,75,76,True,exp2.png,exp1.png,trial_left_image,1,exp2.png,2,exp1.png,exp2.png,0,2,non-reversed,incorrect,0.5622557908348741,0,valid_lose,554.0945155999998,46,,,,,,,,,,,,,,,sub_946,2024-05-26_11h55.07.138,Reversal,2023.1.3,60.0444809514967,2,
17,exp3.png,exp4.png,,3,0,3,0,0,17,17,17,,,,,,,,,,,,,,,,,,,,,,,,,False,76,77,True,exp4.png,exp3.png,trial_right_image,-1,exp3.png,2,exp3.png,exp4.png,1,3,reversed,correct,0.5629649085234363,1,valid_win,558.0264099999995,47,,,,,,,,,,,,,,,sub_946,2024-05-26_11h55.07.138,Reversal,2023.1.3,60.0444809514967,2,
18,exp1.png,exp2.png,,3,0,3,0,0,18,18,18,,,,,,,,,,,,,,,,,,,,,,,,,False,77,78,True,exp2.png,exp1.png,trial_right_image,-1,exp1.png,2,exp1.png,exp2.png,1,1,non-reversed,correct,0.2846495960176507,1,valid_win,563.0581009999996,48,,,,,,,,,,,,,,,sub_946,2024-05-26_11h55.07.138,Reversal,2023.1.3,60.0444809514967,2,
19,exp3.png,exp4.png,,3,0,3,0,0,19,19,19,,,,,,,,,,,,,,,,,,,,,,,,,False,78,79,True,exp4.png,exp3.png,trial_right_image,-1,exp3.png,2,exp3.png,exp4.png,1,3,reversed,correct,0.7704152047940338,1,valid_win,567.4401717000001,49,,,,,,,,,,,,,,,sub_946,2024-05-26_11h55.07.138,Reversal,2023.1.3,60.0444809514967,2,
20,exp1.png,exp2.png,,3,0,3,0,0,20,20,20,,,,,,,,,,,,,,,,,,,,,,,,,False,79,80,False,exp1.png,exp2.png,trial_left_image,1,exp1.png,2,exp1.png,exp2.png,1,1,non-reversed,correct,0.11820811732030634,0,invalid_lose,573.8382014999997,49,,,,,,,,,,,,,,,sub_946,2024-05-26_11h55.07.138,Reversal,2023.1.3,60.0444809514967,2,
,,,exp1.png,3,0,3,0,,,,,0,0,0,0,0,0,0,0,,,,,,,,,,,,,,,,,,,,,,,,,,,,,,,,,,,,,,672.0329463999997,100.0,100.0,4.165461100000357,"[(100.0, 4.165461100000357)]",,,,,,,,,,sub_946,2024-05-26_11h55.07.138,Reversal,2023.1.3,60.0444809514967,2,
,,,exp2.png,3,0,3,0,,,,,0,0,0,0,0,1,1,1,,,,,,,,,,,,,,,,,,,,,,,,,,,,,,,,,,,,,,677.7679498999996,,1.0,1.1284379999997327,"[(1.0, 1.1284379999997327)]",1.0,,,,,,,,,sub_946,2024-05-26_11h55.07.138,Reversal,2023.1.3,60.0444809514967,2,
,,,exp3.png,3,0,3,0,,,,,0,0,0,0,0,2,2,2,,,,,,,,,,,,,,,,,,,,,,,,,,,,,,,,,,,,,,679.8508519999996,,100.0,1.6936168000001999,"[(100.0, 1.6936168000001999)]",,100.0,,,,,,,,sub_946,2024-05-26_11h55.07.138,Reversal,2023.1.3,60.0444809514967,2,
,,,exp4.png,3,0,3,0,,,,,0,0,0,0,0,3,3,3,,,,,,,,,,,,,,,,,,,,,,,,,,,,,,,,,,,,,,682.6658975999999,,100.0,4.460034699999596,"[(8.0, 1.0108288999999786), (1.0, 2.561283799999728), (100.0, 4.460034699999596)]",,,100.0,,,,,,,sub_946,2024-05-26_11h55.07.138,Reversal,2023.1.3,60.0444809514967,2,
0,exp1.png,exp2.png,,,,,,,,,,,,,,,,,,0,0,0,0,0,0,0,0,,,,,,,,,True,,,,,,,,,,,,,,,,,,,,,,,,,,,,,,,,,,,sub_946,2024-05-26_11h55.07.138,Reversal,2023.1.3,60.0444809514967,2,
1,exp3.png,exp4.png,,,,,,,,,,,,,,,,,,0,0,0,0,0,1,1,1,,,,,,,,,False,0,81,False,exp3.png,exp4.png,trial_left_image,1,exp3.png,2,exp4.png,exp3.png,1,3,reversed,incorrect,0.38688322355918114,0,valid_lose,595.7300609999993,49,,,,,,,,,592.1127608999996,,,,,,sub_946,2024-05-26_11h55.07.138,Reversal,2023.1.3,60.0444809514967,2,
2,exp1.png,exp2.png,,,,,,,,,,,,,,,,,,0,0,0,0,0,2,2,2,,,,,,,,,False,1,82,True,exp2.png,exp1.png,trial_right_image,-1,exp1.png,2,exp1.png,exp2.png,1,1,non-reversed,correct,0.5432911598359274,1,valid_win,600.0622592999998,50,,,,,,,,,,,,,,,sub_946,2024-05-26_11h55.07.138,Reversal,2023.1.3,60.0444809514967,2,
3,exp3.png,exp4.png,,,,,,,,,,,,,,,,,,0,0,0,0,0,3,3,3,,,,,,,,,False,2,83,True,exp4.png,exp3.png,trial_right_image,-1,exp3.png,2,exp4.png,exp3.png,1,3,reversed,incorrect,0.8564028213445107,0,valid_lose,604.9939092999994,50,,,,,,,,,,,,,,,sub_946,2024-05-26_11h55.07.138,Reversal,2023.1.3,60.0444809514967,2,
4,exp1.png,exp2.png,,,,,,,,,,,,,,,,,,0,0,0,0,0,4,4,4,,,,,,,,,False,3,84,False,exp1.png,exp2.png,trial_left_image,1,exp1.png,2,exp1.png,exp2.png,1,1,non-reversed,correct,0.27451170314242734,1,valid_win,609.1429985999994,51,,,,,,,,,,,,,,,sub_946,2024-05-26_11h55.07.138,Reversal,2023.1.3,60.0444809514967,2,
5,exp3.png,exp4.png,,,,,,,,,,,,,,,,,,0,0,0,0,0,5,5,5,,,,,,,,,False,4,85,True,exp4.png,exp3.png,trial_right_image,-1,exp3.png,2,exp4.png,exp3.png,1,3,reversed,incorrect,0.7240285191062161,0,valid_lose,613.2418379999999,51,,,,,,,,,,,,,,,sub_946,2024-05-26_11h55.07.138,Reversal,2023.1.3,60.0444809514967,2,
6,exp1.png,exp2.png,,,,,,,,,,,,,,,,,,0,0,0,0,0,6,6,6,,,,,,,,,False,5,86,False,exp1.png,exp2.png,trial_left_image,1,exp1.png,2,exp1.png,exp2.png,1,1,non-reversed,correct,0.8860467916635935,1,valid_win,617.1737163999996,52,,,,,,,,,,,,,,,sub_946,2024-05-26_11h55.07.138,Reversal,2023.1.3,60.0444809514967,2,
7,exp3.png,exp4.png,,,,,,,,,,,,,,,,,,0,0,0,0,0,7,7,7,,,,,,,,,False,6,87,True,exp4.png,exp3.png,trial_left_image,1,exp4.png,2,exp4.png,exp3.png,0,4,reversed,correct,0.32131606210819663,1,valid_win,621.1383999999998,53,,,,,,,,,,,,,,,sub_946,2024-05-26_11h55.07.138,Reversal,2023.1.3,60.0444809514967,2,
8,exp1.png,exp2.png,,,,,,,,,,,,,,,,,,0,0,0,0,0,8,8,8,,,,,,,,,False,7,88,True,exp2.png,exp1.png,trial_right_image,-1,exp1.png,2,exp1.png,exp2.png,1,1,non-reversed,correct,0.07821783148579331,0,invalid_lose,625.1369950999997,53,,,,,,,,,,,,,,,sub_946,2024-05-26_11h55.07.138,Reversal,2023.1.3,60.0444809514967,2,
9,exp3.png,exp4.png,,,,,,,,,,,,,,,,,,0,0,0,0,0,9,9,9,,,,,,,,,False,8,89,True,exp4.png,exp3.png,trial_left_image,1,exp4.png,2,exp4.png,exp3.png,0,4,reversed,correct,0.2499872571561177,0,invalid_lose,629.1858010999995,53,,,,,,,,,,,,,,,sub_946,2024-05-26_11h55.07.138,Reversal,2023.1.3,60.0444809514967,2,
10,exp1.png,exp2.png,,,,,,,,,,,,,,,,,,0,0,0,0,0,10,10,10,,,,,,,,,False,9,90,True,exp2.png,exp1.png,trial_right_image,-1,exp1.png,2,exp1.png,exp2.png,1,1,non-reversed,correct,0.775364851334655,1,valid_win,633.3180968999995,54,,,,,,,,,,,,,,,sub_946,2024-05-26_11h55.07.138,Reversal,2023.1.3,60.0444809514967,2,
11,exp3.png,exp4.png,,,,,,,,,,,,,,,,,,0,0,0,0,0,11,11,11,,,,,,,,,False,10,91,False,exp3.png,exp4.png,trial_left_image,1,exp3.png,2,exp4.png,exp3.png,1,3,reversed,incorrect,0.6186397207452237,0,valid_lose,637.3497934999996,54,,,,,,,,,,,,,,,sub_946,2024-05-26_11h55.07.138,Reversal,2023.1.3,60.0444809514967,2,
12,exp1.png,exp2.png,,,,,,,,,,,,,,,,,,0,0,0,0,0,12,12,12,,,,,,,,,False,11,92,False,exp1.png,exp2.png,trial_right_image,-1,exp2.png,2,exp1.png,exp2.png,0,2,non-reversed,incorrect,0.921263308492466,0,valid_lose,642.5977119999998,54,,,,,,,,,,,,,,,sub_946,2024-05-26_11h55.07.138,Reversal,2023.1.3,60.0444809514967,2,
13,exp3.png,exp4.png,,,,,,,,,,,,,,,,,,0,0,0,0,0,13,13,13,,,,,,,,,False,12,93,True,exp4.png,exp3.png,trial_left_image,1,exp4.png,2,exp4.png,exp3.png,0,4,reversed,correct,0.9755044084221867,1,valid_win,647.1633320999999,55,,,,,,,,,,,,,,,sub_946,2024-05-26_11h55.07.138,Reversal,2023.1.3,60.0444809514967,2,
14,exp1.png,exp2.png,,,,,,,,,,,,,,,,,,0,0,0,0,0,14,14,14,,,,,,,,,False,13,94,True,exp2.png,exp1.png,trial_right_image,-1,exp1.png,2,exp1.png,exp2.png,1,1,non-reversed,correct,0.5988479485695656,1,valid_win,651.1613848999996,56,,,,,,,,,,,,,,,sub_946,2024-05-26_11h55.07.138,Reversal,2023.1.3,60.0444809514967,2,
15,exp3.png,exp4.png,,,,,,,,,,,,,,,,,,0,0,0,0,0,15,15,15,,,,,,,,,False,14,95,False,exp3.png,exp4.png,trial_right_image,-1,exp4.png,2,exp4.png,exp3.png,0,4,reversed,correct,0.5203527969367119,1,valid_win,655.4765088999993,57,,,,,,,,,,,,,,,sub_946,2024-05-26_11h55.07.138,Reversal,2023.1.3,60.0444809514967,2,
16,exp1.png,exp2.png,,,,,,,,,,,,,,,,,,0,0,0,0,0,16,16,16,,,,,,,,,False,15,96,True,exp2.png,exp1.png,trial_right_image,-1,exp1.png,2,exp1.png,exp2.png,1,1,non-reversed,correct,0.01966053895597708,0,invalid_lose,659.3755806999998,57,,,,,,,,,,,,,,,sub_946,2024-05-26_11h55.07.138,Reversal,2023.1.3,60.0444809514967,2,
17,exp3.png,exp4.png,,,,,,,,,,,,,,,,,,0,0,0,0,0,17,17,17,,,,,,,,,False,16,97,False,exp3.png,exp4.png,trial_right_image,-1,exp4.png,2,exp4.png,exp3.png,0,4,reversed,correct,0.03750124110033293,0,invalid_lose,663.4406550999993,57,,,,,,,,,,,,,,,sub_946,2024-05-26_11h55.07.138,Reversal,2023.1.3,60.0444809514967,2,
18,exp1.png,exp2.png,,,,,,,,,,,,,,,,,,0,0,0,0,0,18,18,18,,,,,,,,,False,17,98,False,exp1.png,exp2.png,trial_left_image,1,exp1.png,2,exp1.png,exp2.png,1,1,non-reversed,correct,0.1370648085759042,0,invalid_lose,667.7391785,57,,,,,,,,,,,,,,,sub_946,2024-05-26_11h55.07.138,Reversal,2023.1.3,60.0444809514967,2,
19,exp3.png,exp4.png,,,,,,,,,,,,,,,,,,0,0,0,0,0,19,19,19,,,,,,,,,False,18,99,False,exp3.png,exp4.png,trial_left_image,1,exp3.png,2,exp4.png,exp3.png,1,3,reversed,incorrect,0.05560934016272334,1,invalid_win,671.6881305999996,58,,,,,,,,,,,,,,,sub_946,2024-05-26_11h55.07.138,Reversal,2023.1.3,60.0444809514967,2,
20,exp1.png,exp2.png,,,,,,,,,,,,,,,,,,0,0,0,0,0,20,20,20,,,,,,,,,False,19,100,False,exp1.png,exp2.png,trial_right_image,-1,exp2.png,2,exp1.png,exp2.png,0,2,non-reversed,incorrect,0.324525367908433,0,valid_lose,676.0532495999996,58,,,,,,,,,,,,,,,sub_946,2024-05-26_11h55.07.138,Reversal,2023.1.3,60.0444809514967,2,
,,,exp1.png,,,,,,,,,,,,,,,,,0,0,0,0,,,,,0,0,0,0,0,0,0,0,,,,,,,,,,,,,,,,,,,,,,774.2505774000001,77.0,77.0,4.14751890000025,"[(100.0, 3.813433100000111), (77.0, 4.14751890000025)]",,,,,,,,,,sub_946,2024-05-26_11h55.07.138,Reversal,2023.1.3,60.0444809514967,2,
,,,exp2.png,,,,,,,,,,,,,,,,,0,0,0,0,,,,,0,0,0,0,0,1,1,1,,,,,,,,,,,,,,,,,,,,,,779.4158583999997,,100.0,4.944014199999401,"[(11.0, 1.728699699999197), (72.0, 3.9454486999993605), (100.0, 4.944014199999401)]",100.0,,,,,,,,,sub_946,2024-05-26_11h55.07.138,Reversal,2023.1.3,60.0444809514967,2,
,,,exp3.png,,,,,,,,,,,,,,,,,0,0,0,0,,,,,0,0,0,0,0,2,2,2,,,,,,,,,,,,,,,,,,,,,,785.4117364000003,,100.0,1.8953488000006473,"[(100.0, 1.8953488000006473)]",,100.0,,,,,,,,sub_946,2024-05-26_11h55.07.138,Reversal,2023.1.3,60.0444809514967,2,
,,,exp4.png,,,,,,,,,,,,,,,,,0,0,0,0,,,,,0,0,0,0,0,3,3,3,,,,,,,,,,,,,,,,,,,,,,788.3128532999999,,1.0,1.0453905000003942,"[(1.0, 1.0453905000003942)]",,,1.0,,,,,,,sub_946,2024-05-26_11h55.07.138,Reversal,2023.1.3,60.0444809514967,2,
0,exp1.png,exp2.png,,,,,,,,,,,,,,,,,,1,0,1,0,0,0,0,0,,,,,,,,,True,,,,,,,,,,,,,,,,,,,,,,,,,,,,,,,,,,,sub_946,2024-05-26_11h55.07.138,Reversal,2023.1.3,60.0444809514967,2,
1,exp3.png,exp4.png,,,,,,,,,,,,,,,,,,1,0,1,0,0,1,1,1,,,,,,,,,False,20,101,True,exp4.png,exp3.png,trial_right_image,-1,exp3.png,2,exp4.png,exp3.png,1,3,reversed,incorrect,0.30176721535361106,0,valid_lose,696.4465079000001,58,,,,,,,,,,,,,,,sub_946,2024-05-26_11h55.07.138,Reversal,2023.1.3,60.0444809514967,2,
2,exp1.png,exp2.png,,,,,,,,,,,,,,,,,,1,0,1,0,0,2,2,2,,,,,,,,,False,21,102,False,exp1.png,exp2.png,trial_right_image,-1,exp2.png,2,exp1.png,exp2.png,0,2,non-reversed,incorrect,0.9325278629711589,0,valid_lose,700.4614697999996,58,,,,,,,,,,,,,,,sub_946,2024-05-26_11h55.07.138,Reversal,2023.1.3,60.0444809514967,2,
3,exp3.png,exp4.png,,,,,,,,,,,,,,,,,,1,0,1,0,0,3,3,3,,,,,,,,,False,22,103,True,exp4.png,exp3.png,trial_right_image,-1,exp3.png,2,exp4.png,exp3.png,1,3,reversed,incorrect,0.5273828170146955,0,valid_lose,704.7102654,58,,,,,,,,,,,,,,,sub_946,2024-05-26_11h55.07.138,Reversal,2023.1.3,60.0444809514967,2,
4,exp1.png,exp2.png,,,,,,,,,,,,,,,,,,1,0,1,0,0,4,4,4,,,,,,,,,False,23,104,True,exp2.png,exp1.png,trial_left_image,1,exp2.png,2,exp1.png,exp2.png,0,2,non-reversed,incorrect,0.8534637954115913,0,valid_lose,708.6756519,58,,,,,,,,,,,,,,,sub_946,2024-05-26_11h55.07.138,Reversal,2023.1.3,60.0444809514967,2,
5,exp3.png,exp4.png,,,,,,,,,,,,,,,,,,1,0,1,0,0,5,5,5,,,,,,,,,False,24,105,False,exp3.png,exp4.png,trial_right_image,-1,exp4.png,2,exp4.png,exp3.png,0,4,reversed,correct,0.5802772807737449,1,valid_win,713.4909774999996,59,,,,,,,,,,,,,,,sub_946,2024-05-26_11h55.07.138,Reversal,2023.1.3,60.0444809514967,2,
6,exp1.png,exp2.png,,,,,,,,,,,,,,,,,,1,0,1,0,0,6,6,6,,,,,,,,,False,25,106,False,exp1.png,exp2.png,trial_left_image,1,exp1.png,2,exp1.png,exp2.png,1,1,non-reversed,correct,0.02146565429306546,0,invalid_lose,717.4055880999995,59,,,,,,,,,,,,,,,sub_946,2024-05-26_11h55.07.138,Reversal,2023.1.3,60.0444809514967,2,
7,exp3.png,exp4.png,,,,,,,,,,,,,,,,,,1,0,1,0,0,7,7,7,,,,,,,,,False,26,107,True,exp4.png,exp3.png,trial_left_image,1,exp4.png,2,exp4.png,exp3.png,0,4,reversed,correct,0.05217266001493703,0,invalid_lose,721.4376800999999,59,,,,,,,,,,,,,,,sub_946,2024-05-26_11h55.07.138,Reversal,2023.1.3,60.0444809514967,2,
8,exp1.png,exp2.png,,,,,,,,,,,,,,,,,,1,0,1,0,0,8,8,8,,,,,,,,,False,27,108,True,exp2.png,exp1.png,trial_right_image,-1,exp1.png,2,exp1.png,exp2.png,1,1,non-reversed,correct,0.3757612909332553,1,valid_win,725.4533692999994,60,,,,,,,,,,,,,,,sub_946,2024-05-26_11h55.07.138,Reversal,2023.1.3,60.0444809514967,2,
9,exp3.png,exp4.png,,,,,,,,,,,,,,,,,,1,0,1,0,0,9,9,9,,,,,,,,,False,28,109,True,exp4.png,exp3.png,trial_right_image,-1,exp3.png,2,exp4.png,exp3.png,1,3,reversed,incorrect,0.7094401385462451,0,valid_lose,729.4350949999998,60,,,,,,,,,,,,,,,sub_946,2024-05-26_11h55.07.138,Reversal,2023.1.3,60.0444809514967,2,
10,exp1.png,exp2.png,,,,,,,,,,,,,,,,,,1,0,1,0,0,10,10,10,,,,,,,,,False,29,110,False,exp1.png,exp2.png,trial_left_image,1,exp1.png,2,exp1.png,exp2.png,1,1,non-reversed,correct,0.19469513298625007,0,invalid_lose,733.6338767999996,60,,,,,,,,,,,,,,,sub_946,2024-05-26_11h55.07.138,Reversal,2023.1.3,60.0444809514967,2,
11,exp3.png,exp4.png,,,,,,,,,,,,,,,,,,1,0,1,0,0,11,11,11,,,,,,,,,False,30,111,True,exp4.png,exp3.png,trial_right_image,-1,exp3.png,2,exp4.png,exp3.png,1,3,reversed,incorrect,0.012043763948592412,1,invalid_win,737.6823590999993,61,,,,,,,,,,,,,,,sub_946,2024-05-26_11h55.07.138,Reversal,2023.1.3,60.0444809514967,2,
12,exp1.png,exp2.png,,,,,,,,,,,,,,,,,,1,0,1,0,0,12,12,12,,,,,,,,,False,31,112,True,exp2.png,exp1.png,trial_right_image,-1,exp1.png,2,exp1.png,exp2.png,1,1,non-reversed,correct,0.7330990647602306,1,valid_win,741.6656948,62,,,,,,,,,,,,,,,sub_946,2024-05-26_11h55.07.138,Reversal,2023.1.3,60.0444809514967,2,
13,exp3.png,exp4.png,,,,,,,,,,,,,,,,,,1,0,1,0,0,13,13,13,,,,,,,,,False,32,113,False,exp3.png,exp4.png,trial_left_image,1,exp3.png,2,exp4.png,exp3.png,1,3,reversed,incorrect,0.15812517494547607,1,invalid_win,746.0460545999995,63,,,,,,,,,,,,,,,sub_946,2024-05-26_11h55.07.138,Reversal,2023.1.3,60.0444809514967,2,
14,exp1.png,exp2.png,,,,,,,,,,,,,,,,,,1,0,1,0,0,14,14,14,,,,,,,,,False,33,114,True,exp2.png,exp1.png,trial_left_image,1,exp2.png,2,exp1.png,exp2.png,0,2,non-reversed,incorrect,0.8011407400940075,0,valid_lose,750.2952619999996,63,,,,,,,,,,,,,,,sub_946,2024-05-26_11h55.07.138,Reversal,2023.1.3,60.0444809514967,2,
15,exp3.png,exp4.png,,,,,,,,,,,,,,,,,,1,0,1,0,0,15,15,15,,,,,,,,,False,34,115,False,exp3.png,exp4.png,trial_right_image,-1,exp4.png,2,exp4.png,exp3.png,0,4,reversed,correct,0.3270498723382901,1,valid_win,754.2931927999998,64,,,,,,,,,,,,,,,sub_946,2024-05-26_11h55.07.138,Reversal,2023.1.3,60.0444809514967,2,
16,exp1.png,exp2.png,,,,,,,,,,,,,,,,,,1,0,1,0,0,16,16,16,,,,,,,,,False,35,116,False,exp1.png,exp2.png,trial_left_image,1,exp1.png,2,exp1.png,exp2.png,1,1,non-reversed,correct,0.3980450097708035,1,valid_win,758.2428775999997,65,,,,,,,,,,,,,,,sub_946,2024-05-26_11h55.07.138,Reversal,2023.1.3,60.0444809514967,2,
17,exp3.png,exp4.png,,,,,,,,,,,,,,,,,,1,0,1,0,0,17,17,17,,,,,,,,,False,36,117,False,exp3.png,exp4.png,trial_left_image,1,exp3.png,2,exp4.png,exp3.png,1,3,reversed,incorrect,0.6770860475491438,0,valid_lose,762.2741851000001,65,,,,,,,,,,,,,,,sub_946,2024-05-26_11h55.07.138,Reversal,2023.1.3,60.0444809514967,2,
18,exp1.png,exp2.png,,,,,,,,,,,,,,,,,,1,0,1,0,0,18,18,18,,,,,,,,,False,37,118,True,exp2.png,exp1.png,trial_right_image,-1,exp1.png,2,exp1.png,exp2.png,1,1,non-reversed,correct,0.06914663408117483,0,invalid_lose,767.1222434000001,65,,,,,,,,,,,,,,,sub_946,2024-05-26_11h55.07.138,Reversal,2023.1.3,60.0444809514967,2,
19,exp3.png,exp4.png,,,,,,,,,,,,,,,,,,1,0,1,0,0,19,19,19,,,,,,,,,False,38,119,False,exp3.png,exp4.png,trial_left_image,1,exp3.png,2,exp4.png,exp3.png,1,3,reversed,incorrect,0.039127686460132316,1,invalid_win,771.0210023999998,66,,,,,,,,,,,,,,,sub_946,2024-05-26_11h55.07.138,Reversal,2023.1.3,60.0444809514967,2,
20,exp1.png,exp2.png,,,,,,,,,,,,,,,,,,1,0,1,0,0,20,20,20,,,,,,,,,False,39,120,False,exp1.png,exp2.png,trial_left_image,1,exp1.png,2,exp1.png,exp2.png,1,1,non-reversed,correct,0.7024829546999767,1,valid_win,774.9867085999995,67,,,,,,,,,,,,,,,sub_946,2024-05-26_11h55.07.138,Reversal,2023.1.3,60.0444809514967,2,
,,,exp1.png,,,,,,,,,,,,,,,,,1,0,1,0,,,,,0,0,0,0,0,0,0,0,,,,,,,,,,,,,,,,,,,,,,873.1718530999997,100.0,100.0,3.041908500000318,"[(100.0, 3.041908500000318)]",,,,,,,,,,sub_946,2024-05-26_11h55.07.138,Reversal,2023.1.3,60.0444809514967,2,
,,,exp2.png,,,,,,,,,,,,,,,,,1,0,1,0,,,,,0,0,0,0,0,1,1,1,,,,,,,,,,,,,,,,,,,,,,877.1926159000004,,1.0,2.5106608999994933,"[(99.0, 1.1270416999996087), (72.0, 1.3268975999999384), (1.0, 2.5106608999994933)]",1.0,,,,,,,,,sub_946,2024-05-26_11h55.07.138,Reversal,2023.1.3,60.0444809514967,2,
,,,exp3.png,,,,,,,,,,,,,,,,,1,0,1,0,,,,,0,0,0,0,0,2,2,2,,,,,,,,,,,,,,,,,,,,,,881.3143240999998,,99.0,1.060974900000474,"[(99.0, 1.060974900000474)]",,99.0,,,,,,,,sub_946,2024-05-26_11h55.07.138,Reversal,2023.1.3,60.0444809514967,2,
,,,exp4.png,,,,,,,,,,,,,,,,,1,0,1,0,,,,,0,0,0,0,0,3,3,3,,,,,,,,,,,,,,,,,,,,,,884.2133507999997,,1.0,1.027984600000309,"[(1.0, 1.027984600000309)]",,,1.0,,,,,,,sub_946,2024-05-26_11h55.07.138,Reversal,2023.1.3,60.0444809514967,2,
0,exp1.png,exp2.png,,,,,,,,,,,,,,,,,,2,0,2,0,0,0,0,0,,,,,,,,,True,,,,,,,,,,,,,,,,,,,,,,,,,,,,,,,,,,,sub_946,2024-05-26_11h55.07.138,Reversal,2023.1.3,60.0444809514967,2,
1,exp3.png,exp4.png,,,,,,,,,,,,,,,,,,2,0,2,0,0,1,1,1,,,,,,,,,False,40,121,False,exp3.png,exp4.png,trial_left_image,1,exp3.png,2,exp4.png,exp3.png,1,3,reversed,incorrect,0.7519934334151934,0,valid_lose,793.1469860999996,67,,,,,,,,,,,,,,,sub_946,2024-05-26_11h55.07.138,Reversal,2023.1.3,60.0444809514967,2,
2,exp1.png,exp2.png,,,,,,,,,,,,,,,,,,2,0,2,0,0,2,2,2,,,,,,,,,False,41,122,False,exp1.png,exp2.png,trial_right_image,-1,exp2.png,2,exp1.png,exp2.png,0,2,non-reversed,incorrect,0.5940571898740359,0,valid_lose,796.9791040999999,67,,,,,,,,,,,,,,,sub_946,2024-05-26_11h55.07.138,Reversal,2023.1.3,60.0444809514967,2,
3,exp3.png,exp4.png,,,,,,,,,,,,,,,,,,2,0,2,0,0,3,3,3,,,,,,,,,False,42,123,False,exp3.png,exp4.png,trial_left_image,1,exp3.png,2,exp4.png,exp3.png,1,3,reversed,incorrect,0.5385085216724717,0,valid_lose,801.1774083,67,,,,,,,,,,,,,,,sub_946,2024-05-26_11h55.07.138,Reversal,2023.1.3,60.0444809514967,2,
4,exp1.png,exp2.png,,,,,,,,,,,,,,,,,,2,0,2,0,0,4,4,4,,,,,,,,,False,43,124,False,exp1.png,exp2.png,trial_left_image,1,exp1.png,2,exp1.png,exp2.png,1,1,non-reversed,correct,0.3688376516581865,1,valid_win,805.1092408999993,68,,,,,,,,,,,,,,,sub_946,2024-05-26_11h55.07.138,Reversal,2023.1.3,60.0444809514967,2,
5,exp3.png,exp4.png,,,,,,,,,,,,,,,,,,2,0,2,0,0,5,5,5,,,,,,,,,False,44,125,True,exp4.png,exp3.png,trial_left_image,1,exp4.png,2,exp4.png,exp3.png,0,4,reversed,correct,0.6908050121635216,1,valid_win,809.2581147000001,69,,,,,,,,,,,,,,,sub_946,2024-05-26_11h55.07.138,Reversal,2023.1.3,60.0444809514967,2,
6,exp1.png,exp2.png,,,,,,,,,,,,,,,,,,2,0,2,0,0,6,6,6,,,,,,,,,False,45,126,False,exp1.png,exp2.png,trial_right_image,-1,exp2.png,2,exp1.png,exp2.png,0,2,non-reversed,incorrect,0.7315454798058758,0,valid_lose,814.2071877999997,69,,,,,,,,,,,,,,,sub_946,2024-05-26_11h55.07.138,Reversal,2023.1.3,60.0444809514967,2,
7,exp3.png,exp4.png,,,,,,,,,,,,,,,,,,2,0,2,0,0,7,7,7,,,,,,,,,False,46,127,True,exp4.png,exp3.png,trial_right_image,-1,exp3.png,2,exp4.png,exp3.png,1,3,reversed,incorrect,0.7475709996762264,0,valid_lose,818.4883770999995,69,,,,,,,,,,,,,,,sub_946,2024-05-26_11h55.07.138,Reversal,2023.1.3,60.0444809514967,2,
8,exp1.png,exp2.png,,,,,,,,,,,,,,,,,,2,0,2,0,0,8,8,8,,,,,,,,,False,47,128,False,exp1.png,exp2.png,trial_left_image,1,exp1.png,2,exp1.png,exp2.png,1,1,non-reversed,correct,0.40376556914688466,1,valid_win,822.8202740999996,70,,,,,,,,,,,,,,,sub_946,2024-05-26_11h55.07.138,Reversal,2023.1.3,60.0444809514967,2,
9,exp3.png,exp4.png,,,,,,,,,,,,,,,,,,2,0,2,0,0,9,9,9,,,,,,,,,False,48,129,True,exp4.png,exp3.png,trial_right_image,-1,exp3.png,2,exp4.png,exp3.png,1,3,reversed,incorrect,0.023664653966782634,1,invalid_win,826.5776780999995,71,,,,,,,,,,,,,,,sub_946,2024-05-26_11h55.07.138,Reversal,2023.1.3,60.0444809514967,2,
10,exp1.png,exp2.png,,,,,,,,,,,,,,,,,,2,0,2,0,0,10,10,10,,,,,,,,,False,49,130,True,exp2.png,exp1.png,trial_right_image,-1,exp1.png,2,exp1.png,exp2.png,1,1,non-reversed,correct,0.5662160458439379,1,valid_win,831.2509252999998,72,,,,,,,,,,,,,,,sub_946,2024-05-26_11h55.07.138,Reversal,2023.1.3,60.0444809514967,2,
11,exp3.png,exp4.png,,,,,,,,,,,,,,,,,,2,0,2,0,0,11,11,11,,,,,,,,,False,50,131,True,exp4.png,exp3.png,trial_right_image,-1,exp3.png,2,exp4.png,exp3.png,1,3,reversed,incorrect,0.4302172968892074,0,valid_lose,835.8993910999998,72,,,,,,,,,,,,,,,sub_946,2024-05-26_11h55.07.138,Reversal,2023.1.3,60.0444809514967,2,
12,exp1.png,exp2.png,,,,,,,,,,,,,,,,,,2,0,2,0,0,12,12,12,,,,,,,,,False,51,132,False,exp1.png,exp2.png,trial_left_image,1,exp1.png,2,exp1.png,exp2.png,1,1,non-reversed,correct,0.6066112682732758,1,valid_win,841.1806970999996,73,,,,,,,,,,,,,,,sub_946,2024-05-26_11h55.07.138,Reversal,2023.1.3,60.0444809514967,2,
13,exp3.png,exp4.png,,,,,,,,,,,,,,,,,,2,0,2,0,0,13,13,13,,,,,,,,,False,52,133,True,exp4.png,exp3.png,trial_left_image,1,exp4.png,2,exp4.png,exp3.png,0,4,reversed,correct,0.5740470323687268,1,valid_win,846.0956601999997,74,,,,,,,,,,,,,,,sub_946,2024-05-26_11h55.07.138,Reversal,2023.1.3,60.0444809514967,2,
14,exp1.png,exp2.png,,,,,,,,,,,,,,,,,,2,0,2,0,0,14,14,14,,,,,,,,,False,53,134,True,exp2.png,exp1.png,trial_right_image,-1,exp1.png,2,exp1.png,exp2.png,1,1,non-reversed,correct,0.8722970680388106,1,valid_win,850.8777477999993,75,,,,,,,,,,,,,,,sub_946,2024-05-26_11h55.07.138,Reversal,2023.1.3,60.0444809514967,2,
15,exp3.png,exp4.png,,,,,,,,,,,,,,,,,,2,0,2,0,0,15,15,15,,,,,,,,,False,54,135,True,exp4.png,exp3.png,trial_right_image,-1,exp3.png,2,exp4.png,exp3.png,1,3,reversed,incorrect,0.8285732620820306,0,valid_lose,854.8260818999997,75,,,,,,,,,,,,,,,sub_946,2024-05-26_11h55.07.138,Reversal,2023.1.3,60.0444809514967,2,
16,exp1.png,exp2.png,,,,,,,,,,,,,,,,,,2,0,2,0,0,16,16,16,,,,,,,,,False,55,136,False,exp1.png,exp2.png,trial_left_image,1,exp1.png,2,exp1.png,exp2.png,1,1,non-reversed,correct,0.42260646661155754,1,valid_win,859.5242294,76,,,,,,,,,,,,,,,sub_946,2024-05-26_11h55.07.138,Reversal,2023.1.3,60.0444809514967,2,
17,exp3.png,exp4.png,,,,,,,,,,,,,,,,,,2,0,2,0,0,17,17,17,,,,,,,,,False,56,137,False,exp3.png,exp4.png,trial_right_image,-1,exp4.png,2,exp4.png,exp3.png,0,4,reversed,correct,0.7955979905464241,1,valid_win,863.7895508000001,77,,,,,,,,,,,,,,,sub_946,2024-05-26_11h55.07.138,Reversal,2023.1.3,60.0444809514967,2,
18,exp1.png,exp2.png,,,,,,,,,,,,,,,,,,2,0,2,0,0,18,18,18,,,,,,,,,False,57,138,False,exp1.png,exp2.png,trial_left_image,1,exp1.png,2,exp1.png,exp2.png,1,1,non-reversed,correct,0.0424672221823813,0,invalid_lose,867.7047373999994,77,,,,,,,,,,,,,,,sub_946,2024-05-26_11h55.07.138,Reversal,2023.1.3,60.0444809514967,2,
19,exp3.png,exp4.png,,,,,,,,,,,,,,,,,,2,0,2,0,0,19,19,19,,,,,,,,,False,58,139,True,exp4.png,exp3.png,trial_right_image,-1,exp3.png,2,exp4.png,exp3.png,1,3,reversed,incorrect,0.7602541092751464,0,valid_lose,873.3197874999996,77,,,,,,,,,,,,,,,sub_946,2024-05-26_11h55.07.138,Reversal,2023.1.3,60.0444809514967,2,
20,exp1.png,exp2.png,,,,,,,,,,,,,,,,,,2,0,2,0,0,20,20,20,,,,,,,,,False,59,140,True,exp2.png,exp1.png,trial_left_image,1,exp2.png,2,exp1.png,exp2.png,0,2,non-reversed,incorrect,0.7838805476260193,0,valid_lose,877.2851817000001,77,,,,,,,,,,,,,,,sub_946,2024-05-26_11h55.07.138,Reversal,2023.1.3,60.0444809514967,2,
,,,exp1.png,,,,,,,,,,,,,,,,,2,0,2,0,,,,,0,0,0,0,0,0,0,0,,,,,,,,,,,,,,,,,,,,,,975.4941912000004,69.0,69.0,2.220191100000193,"[(100.0, 1.9374415000002045), (69.0, 2.220191100000193)]",,,,,,,,,,sub_946,2024-05-26_11h55.07.138,Reversal,2023.1.3,60.0444809514967,2,
,,,exp2.png,,,,,,,,,,,,,,,,,2,0,2,0,,,,,0,0,0,0,0,1,1,1,,,,,,,,,,,,,,,,,,,,,,978.5694454000004,,93.0,0.19283859999995911,"[(93.0, 0.19283859999995911)]",93.0,,,,,,,,,sub_946,2024-05-26_11h55.07.138,Reversal,2023.1.3,60.0444809514967,2,
,,,exp3.png,,,,,,,,,,,,,,,,,2,0,2,0,,,,,0,0,0,0,0,2,2,2,,,,,,,,,,,,,,,,,,,,,,980.0824666999997,,98.0,1.110688000000664,"[(98.0, 1.110688000000664)]",,98.0,,,,,,,,sub_946,2024-05-26_11h55.07.138,Reversal,2023.1.3,60.0444809514967,2,
,,,exp4.png,,,,,,,,,,,,,,,,,2,0,2,0,,,,,0,0,0,0,0,3,3,3,,,,,,,,,,,,,,,,,,,,,,982.2311349000001,,3.0,1.0621407999997245,"[(3.0, 1.0621407999997245)]",,,3.0,,,,,,,sub_946,2024-05-26_11h55.07.138,Reversal,2023.1.3,60.0444809514967,2,
,,,,,,,,,,,,,,,,,,,,,,,,,,,,,,,,,,,,,,,,,,,,,,,,,,,,,,,,77,,,,,,,,,,91,58,33,296.2701164,1,,,,,,,
