trial_index,trial_image1_file,trial_image2_file,image_file,learning_outer_loop.thisRepN,learning_outer_loop.thisTrialN,learning_outer_loop.thisN,learning_outer_loop.thisIndex,learning_inner_loop.thisRepN,learning_inner_loop.thisTrialN,learning_inner_loop.thisN,learning_inner_loop.thisIndex,learning_estimation_outer_loop.thisRepN,learning_estimation_outer_loop.thisTrialN,learning_estimation_outer_loop.thisN,learning_estimation_outer_loop.thisIndex,learning_estimation_inner_loop.thisRepN,learning_estimation_inner_loop.thisTrialN,learning_estimation_inner_loop.thisN,learning_estimation_inner_loop.thisIndex,reversal_outer_loop.thisRepN,reversal_outer_loop.thisTrialN,reversal_outer_loop.thisN,reversal_outer_loop.thisIndex,reversal_inner_loop.thisRepN,reversal_inner_loop.thisTrialN,reversal_inner_loop.thisN,reversal_inner_loop.thisIndex,reversal_estimation_outer_loop.thisRepN,reversal_estimation_outer_loop.thisTrialN,reversal_estimation_outer_loop.thisN,reversal_estimation_outer_loop.thisIndex,reversal_estimation_inner_loop.thisRepN,reversal_estimation_inner_loop.thisTrialN,reversal_estimation_inner_loop.thisN,reversal_estimation_inner_loop.thisIndex,thisRow.t,notes,instructions1.started,instructions1.stopped,instructions2.started,instructions2.stopped,instructions3.started,instructions3.stopped,intstructions4.started,intstructions4.stopped,instructions5.started,instructions5.stopped,mindware_trigger_learning.started,mindware_trigger_learning.stopped,trial.started,skipped,total_trial_counter,trial_num,left_right_flip,left_image_file,right_image_file,clicked_stimulus_side,trial.stopped,side,clicked_stimulus,version,high_prob_image_file,low_prob_image_file,choice_a,choice_b,pair_type,correct,trial_feedback_random,reward,trial_type,overall_time_after_trial,feedback_preparation.started,feedback_preparation.stopped,score,feedback.started,feedback.stopped,estimation.started,estimation_rating.started,estimation.stopped,estimation_exp1.png,estimation_rating.response,estimation_rating.rt,estimation_rating.history,estimation_exp3.png,estimation_exp4.png,estimation_exp2.png,mindware_trigger_reversal.started,mindware_trigger_reversal.stopped,total_learning_time,thank_you.started,total_correct,learning_correct,reversal_correct,total_reversal_time,extra_block,participant,date,expName,psychopyVersion,frameRate,ver,expStart,
0,exp1.png,exp2.png,,0,0,0,0,0,0,0,0,,,,,,,,,,,,,,,,,,,,,,,,,28.791571800000384,,0.023936800000228686,3.665683199999876,3.665714900000239,10.83755740000015,10.837589499999922,17.571275700000115,17.571317400000225,22.603502099999787,22.603579399999944,28.568832199999633,28.601343199999974,28.602581899999677,28.602612100000442,False,0,1,False,exp1.png,exp2.png,trial_left_image,37.21692859999985,1,exp1.png,4,exp2.png,exp1.png,0,2,non-reversed,incorrect,0.1035574923963023,1,invalid_win,8.648730099999739,37.2176427000004,37.83093800000006,1,37.83099070000026,39.62912529999994,,,,,,,,,,,,,,,,,,,,sub_588,2024-11-20_14h56.00.835,Reversal,2023.2.1,60.087379066796764,4,2024-11-20 14h56.27.716789 +0200,
1,exp3.png,exp4.png,,0,0,0,0,0,1,1,1,,,,,,,,,,,,,,,,,,,,,,,,,39.787611599999764,,,,,,,,,,,,39.63011809999989,39.63128219999999,39.631330700000035,False,1,2,True,exp4.png,exp3.png,trial_left_image,42.732344699999885,1,exp4.png,4,exp4.png,exp3.png,1,3,reversed,correct,0.8723331184880906,1,valid_win,14.1640325999997,42.73294140000053,43.34697520000009,2,43.347036899999694,45.145041599999786,,,,,,,,,,,,,,,,,,,,sub_588,2024-11-20_14h56.00.835,Reversal,2023.2.1,60.087379066796764,4,2024-11-20 14h56.27.716789 +0200,
2,exp1.png,exp2.png,,0,0,0,0,0,2,2,2,,,,,,,,,,,,,,,,,,,,,,,,,45.28680369999984,,,,,,,,,,,,45.146145499999875,45.146924800000306,45.146961000000374,False,2,3,False,exp1.png,exp2.png,trial_right_image,48.43109860000004,-1,exp2.png,4,exp2.png,exp1.png,1,1,non-reversed,correct,0.8288456097962007,1,valid_win,19.862648699999227,48.431539899999734,49.04630309999993,3,49.04635010000038,50.84427119999964,,,,,,,,,,,,,,,,,,,,sub_588,2024-11-20_14h56.00.835,Reversal,2023.2.1,60.087379066796764,4,2024-11-20 14h56.27.716789 +0200,
3,exp3.png,exp4.png,,0,0,0,0,0,3,3,3,,,,,,,,,,,,,,,,,,,,,,,,,50.998748400000295,,,,,,,,,,,,50.845167700000275,50.846193100000164,50.84624210000038,False,3,4,True,exp4.png,exp3.png,trial_left_image,54.73149000000012,1,exp4.png,4,exp4.png,exp3.png,1,3,reversed,correct,0.5812795013630764,1,valid_win,26.163390899999285,54.73229970000011,55.34511790000033,4,55.345147,57.14359119999972,,,,,,,,,,,,,,,,,,,,sub_588,2024-11-20_14h56.00.835,Reversal,2023.2.1,60.087379066796764,4,2024-11-20 14h56.27.716789 +0200,
4,exp1.png,exp2.png,,0,0,0,0,0,4,4,4,,,,,,,,,,,,,,,,,,,,,,,,,57.3064916000003,,,,,,,,,,,,57.145080000000235,57.14626810000027,57.14632270000038,False,4,5,True,exp2.png,exp1.png,trial_right_image,61.679521600000044,-1,exp1.png,4,exp2.png,exp1.png,0,2,non-reversed,incorrect,0.05574167580113587,1,invalid_win,33.11106819999986,61.67996049999965,62.294582499999706,5,62.29462560000047,64.0920971000005,,,,,,,,,,,,,,,,,,,,sub_588,2024-11-20_14h56.00.835,Reversal,2023.2.1,60.087379066796764,4,2024-11-20 14h56.27.716789 +0200,
5,exp3.png,exp4.png,,0,0,0,0,0,5,5,5,,,,,,,,,,,,,,,,,,,,,,,,,64.23650999999973,,,,,,,,,,,,64.09262839999974,64.09322650000013,64.09325489999992,False,5,6,True,exp4.png,exp3.png,trial_right_image,70.42823409999983,-1,exp3.png,4,exp4.png,exp3.png,0,4,reversed,incorrect,0.7295184211563243,0,valid_lose,41.85967709999932,70.4285645,71.04318330000024,5,71.04321110000001,72.84125969999968,,,,,,,,,,,,,,,,,,,,sub_588,2024-11-20_14h56.00.835,Reversal,2023.2.1,60.087379066796764,4,2024-11-20 14h56.27.716789 +0200,
6,exp1.png,exp2.png,,0,0,0,0,0,6,6,6,,,,,,,,,,,,,,,,,,,,,,,,,73.00091549999979,,,,,,,,,,,,72.84220660000028,72.84326979999969,72.84333669999978,False,6,7,False,exp1.png,exp2.png,trial_left_image,75.91091770000003,1,exp1.png,4,exp2.png,exp1.png,0,2,non-reversed,incorrect,0.14209413874953558,1,invalid_win,47.34247799999957,75.9113711,76.52663670000038,6,76.52668059999996,78.32390980000037,,,,,,,,,,,,,,,,,,,,sub_588,2024-11-20_14h56.00.835,Reversal,2023.2.1,60.087379066796764,4,2024-11-20 14h56.27.716789 +0200,
7,exp3.png,exp4.png,,0,0,0,0,0,7,7,7,,,,,,,,,,,,,,,,,,,,,,,,,78.46837190000042,,,,,,,,,,,,78.32479090000015,78.32583280000017,78.32588130000022,False,7,8,True,exp4.png,exp3.png,trial_right_image,82.44396870000037,-1,exp3.png,4,exp4.png,exp3.png,0,4,reversed,incorrect,0.19317802204265577,1,invalid_win,53.875613399999565,82.44451170000048,83.05806329999996,7,83.0580903,84.85626310000043,,,,,,,,,,,,,,,,,,,,sub_588,2024-11-20_14h56.00.835,Reversal,2023.2.1,60.087379066796764,4,2024-11-20 14h56.27.716789 +0200,
8,exp1.png,exp2.png,,0,0,0,0,0,8,8,8,,,,,,,,,,,,,,,,,,,,,,,,,85.0064239000003,,,,,,,,,,,,84.85680330000014,84.85746160000053,84.85748990000047,False,8,9,False,exp1.png,exp2.png,trial_left_image,88.39326119999987,1,exp1.png,4,exp2.png,exp1.png,0,2,non-reversed,incorrect,0.6453439049524642,0,valid_lose,59.82505929999934,88.39395810000042,89.0080211000004,7,89.00804890000018,90.80561930000022,,,,,,,,,,,,,,,,,,,,sub_588,2024-11-20_14h56.00.835,Reversal,2023.2.1,60.087379066796764,4,2024-11-20 14h56.27.716789 +0200,
9,exp3.png,exp4.png,,0,0,0,0,0,9,9,9,,,,,,,,,,,,,,,,,,,,,,,,,90.95104619999984,,,,,,,,,,,,90.80657820000033,90.80768619999981,90.80773800000043,False,9,10,True,exp4.png,exp3.png,trial_left_image,93.44293470000048,1,exp4.png,4,exp4.png,exp3.png,1,3,reversed,correct,0.9032641252563405,1,valid_win,64.87456969999948,93.4434683999998,94.05750979999993,8,94.0575458000003,95.85477989999981,,,,,,,,,,,,,,,,,,,,sub_588,2024-11-20_14h56.00.835,Reversal,2023.2.1,60.087379066796764,4,2024-11-20 14h56.27.716789 +0200,
10,exp1.png,exp2.png,,0,0,0,0,0,10,10,10,,,,,,,,,,,,,,,,,,,,,,,,,96.00653750000038,,,,,,,,,,,,95.85539820000031,95.85608550000052,95.85611479999989,False,10,11,False,exp1.png,exp2.png,trial_right_image,98.42469470000015,-1,exp2.png,4,exp2.png,exp1.png,1,1,non-reversed,correct,0.49812435945731826,1,valid_win,69.8562465999994,98.4251390999998,99.04025490000004,9,99.04027380000025,100.83744509999997,,,,,,,,,,,,,,,,,,,,sub_588,2024-11-20_14h56.00.835,Reversal,2023.2.1,60.087379066796764,4,2024-11-20 14h56.27.716789 +0200,
11,exp3.png,exp4.png,,0,0,0,0,0,11,11,11,,,,,,,,,,,,,,,,,,,,,,,,,100.97827609999968,,,,,,,,,,,,100.83791939999992,100.83845610000026,100.83848089999992,False,11,12,False,exp3.png,exp4.png,trial_right_image,103.07386810000025,-1,exp4.png,4,exp4.png,exp3.png,1,3,reversed,correct,0.7190510177766651,1,valid_win,74.50531749999936,103.07420430000002,103.68995790000008,10,103.69000359999973,105.48682009999993,,,,,,,,,,,,,,,,,,,,sub_588,2024-11-20_14h56.00.835,Reversal,2023.2.1,60.087379066796764,4,2024-11-20 14h56.27.716789 +0200,
12,exp1.png,exp2.png,,0,0,0,0,0,12,12,12,,,,,,,,,,,,,,,,,,,,,,,,,105.63284159999967,,,,,,,,,,,,105.48748260000048,105.48827249999977,105.48830859999998,False,12,13,True,exp2.png,exp1.png,trial_left_image,107.8413387999999,1,exp2.png,4,exp2.png,exp1.png,1,1,non-reversed,correct,0.0393260930635847,0,invalid_lose,79.2731791999995,107.8420871999997,108.45498529999986,10,108.45501799999965,110.25324100000034,,,,,,,,,,,,,,,,,,,,sub_588,2024-11-20_14h56.00.835,Reversal,2023.2.1,60.087379066796764,4,2024-11-20 14h56.27.716789 +0200,
13,exp3.png,exp4.png,,0,0,0,0,0,13,13,13,,,,,,,,,,,,,,,,,,,,,,,,,110.40719499999977,,,,,,,,,,,,110.25424199999998,110.25549500000034,110.25555480000003,False,13,14,False,exp3.png,exp4.png,trial_left_image,112.62323060000017,1,exp3.png,4,exp4.png,exp3.png,0,4,reversed,incorrect,0.034864501900182976,1,invalid_win,84.05484129999968,112.62373529999968,113.23781860000054,11,113.23785080000016,115.03646260000005,,,,,,,,,,,,,,,,,,,,sub_588,2024-11-20_14h56.00.835,Reversal,2023.2.1,60.087379066796764,4,2024-11-20 14h56.27.716789 +0200,
14,exp1.png,exp2.png,,0,0,0,0,0,14,14,14,,,,,,,,,,,,,,,,,,,,,,,,,115.19583880000027,,,,,,,,,,,,115.0374526000005,115.03863019999972,115.03868320000038,False,14,15,True,exp2.png,exp1.png,trial_right_image,119.32202649999999,-1,exp1.png,4,exp2.png,exp1.png,0,2,non-reversed,incorrect,0.4434765515180126,0,valid_lose,90.75364739999986,119.32254040000043,119.93733239999983,11,119.93735949999973,121.73519920000035,,,,,,,,,,,,,,,,,,,,sub_588,2024-11-20_14h56.00.835,Reversal,2023.2.1,60.087379066796764,4,2024-11-20 14h56.27.716789 +0200,
15,exp3.png,exp4.png,,0,0,0,0,0,15,15,15,,,,,,,,,,,,,,,,,,,,,,,,,121.88327130000016,,,,,,,,,,,,121.7360918000004,121.73718019999978,121.73724099999981,False,15,16,True,exp4.png,exp3.png,trial_left_image,123.73888110000007,1,exp4.png,4,exp4.png,exp3.png,1,3,reversed,correct,0.43144737541520684,1,valid_win,95.17060559999936,123.73951949999991,124.35327580000012,12,124.3533451000003,126.15108429999964,,,,,,,,,,,,,,,,,,,,sub_588,2024-11-20_14h56.00.835,Reversal,2023.2.1,60.087379066796764,4,2024-11-20 14h56.27.716789 +0200,
16,exp1.png,exp2.png,,0,0,0,0,0,16,16,16,,,,,,,,,,,,,,,,,,,,,,,,,126.29339559999971,,,,,,,,,,,,126.15196680000008,126.15299080000023,126.15303980000044,False,16,17,False,exp1.png,exp2.png,trial_right_image,128.22217069999988,-1,exp2.png,4,exp2.png,exp1.png,1,1,non-reversed,correct,0.513244775081839,1,valid_win,99.65400919999956,128.22291640000003,128.83605650000027,13,128.83610580000004,130.63396620000003,,,,,,,,,,,,,,,,,,,,sub_588,2024-11-20_14h56.00.835,Reversal,2023.2.1,60.087379066796764,4,2024-11-20 14h56.27.716789 +0200,
17,exp3.png,exp4.png,,0,0,0,0,0,17,17,17,,,,,,,,,,,,,,,,,,,,,,,,,130.7881524000004,,,,,,,,,,,,130.63498419999996,130.63607969999975,130.63614589999997,False,17,18,False,exp3.png,exp4.png,trial_right_image,132.53836330000013,-1,exp4.png,4,exp4.png,exp3.png,1,3,reversed,correct,0.5739710581961744,1,valid_win,103.97001389999969,132.53891099999964,133.15188050000052,14,133.1519145000002,134.95019990000037,,,,,,,,,,,,,,,,,,,,sub_588,2024-11-20_14h56.00.835,Reversal,2023.2.1,60.087379066796764,4,2024-11-20 14h56.27.716789 +0200,
18,exp1.png,exp2.png,,0,0,0,0,0,18,18,18,,,,,,,,,,,,,,,,,,,,,,,,,135.09411910000017,,,,,,,,,,,,134.9512149000002,134.95251610000014,134.95259170000008,False,18,19,False,exp1.png,exp2.png,trial_right_image,137.2534682000005,-1,exp2.png,4,exp2.png,exp1.png,1,1,non-reversed,correct,0.8897071369507037,1,valid_win,108.68510289999995,137.2539998000002,137.8681832000002,15,137.86822279999978,139.66672780000044,,,,,,,,,,,,,,,,,,,,sub_588,2024-11-20_14h56.00.835,Reversal,2023.2.1,60.087379066796764,4,2024-11-20 14h56.27.716789 +0200,
19,exp3.png,exp4.png,,0,0,0,0,0,19,19,19,,,,,,,,,,,,,,,,,,,,,,,,,139.81387300000006,,,,,,,,,,,,139.66776800000025,139.6689139,139.66897040000003,False,19,20,True,exp4.png,exp3.png,trial_left_image,141.73624569999993,1,exp4.png,4,exp4.png,exp3.png,1,3,reversed,correct,0.04260285044664103,0,invalid_lose,113.16778469999917,141.73668460000044,142.35097760000008,15,142.35101659999964,144.14907680000033,,,,,,,,,,,,,,,,,,,,sub_588,2024-11-20_14h56.00.835,Reversal,2023.2.1,60.087379066796764,4,2024-11-20 14h56.27.716789 +0200,
20,exp1.png,exp2.png,,0,0,0,0,0,20,20,20,,,,,,,,,,,,,,,,,,,,,,,,,144.3671806000002,,,,,,,,,,,,144.1500729999998,144.15145959999973,144.1515134000001,True,,,,,,,144.24680799999987,,,,,,,,,,,,,,144.24682349999966,144.26360170000044,,144.26362380000046,144.28917309999997,,,,,,,,,,,,,,,,,,,,sub_588,2024-11-20_14h56.00.835,Reversal,2023.2.1,60.087379066796764,4,2024-11-20 14h56.27.716789 +0200,
,,,exp1.png,0,0,0,0,,,,,0,0,0,0,0,0,0,0,,,,,,,,,,,,,,,,,144.3671806000002,,,,,,,,,,,,,,,,,,,,,,,,,,,,,,,,,,,,,,,,,144.29976410000017,144.3671806000002,154.5189462999997,50.0,50.0,8.174743999999919,"[(50.0, 8.174743999999919)]",,,,,,,,,,,,,sub_588,2024-11-20_14h56.00.835,Reversal,2023.2.1,60.087379066796764,4,2024-11-20 14h56.27.716789 +0200,
,,,exp2.png,0,0,0,0,,,,,0,0,0,0,0,1,1,1,,,,,,,,,,,,,,,,,154.58594429999994,,,,,,,,,,,,,,,,,,,,,,,,,,,,,,,,,,,,,,,,,154.52193540000007,154.58594429999994,157.03875549999975,,None,None,[],,,,,,,,,,,,,sub_588,2024-11-20_14h56.00.835,Reversal,2023.2.1,60.087379066796764,4,2024-11-20 14h56.27.716789 +0200,
,,,exp3.png,0,0,0,0,,,,,0,0,0,0,0,2,2,2,,,,,,,,,,,,,,,,,157.10649879999983,,,,,,,,,,,,,,,,,,,,,,,,,,,,,,,,,,,,,,,,,157.0397782,157.10649879999983,166.4870593000005,,23.0,7.496246200000314,"[(23.0, 7.496246200000314)]",23.0,,,,,,,,,,,,sub_588,2024-11-20_14h56.00.835,Reversal,2023.2.1,60.087379066796764,4,2024-11-20 14h56.27.716789 +0200,
,,,exp4.png,0,0,0,0,,,,,0,0,0,0,0,3,3,3,,,,,,,,,,,,,,,,,166.56143470000006,,,,,,,,,,,,,,,,,,,,,,,,,,,,,,,,,,,,,,,,,166.48794100000032,166.56143470000006,175.35335120000036,,76.0,7.526531699999396,"[(81.0, 5.770040499999595), (76.0, 7.526531699999396)]",,76.0,,,,,,,,,,,sub_588,2024-11-20_14h56.00.835,Reversal,2023.2.1,60.087379066796764,4,2024-11-20 14h56.27.716789 +0200,
0,exp1.png,exp2.png,,1,0,1,0,0,0,0,0,,,,,,,,,,,,,,,,,,,,,,,,,175.49600340000052,,,,,,,,,,,,175.3678617000005,175.3690034000001,175.36903619999975,False,20,21,True,exp2.png,exp1.png,trial_left_image,179.1480386000003,1,exp2.png,4,exp2.png,exp1.png,1,1,non-reversed,correct,0.2211945653457239,0,invalid_lose,150.57967439999993,179.14857519999987,179.76285030000054,15,179.76288750000003,181.5610429999997,,,,,,,,,,,,,,,,,,,,sub_588,2024-11-20_14h56.00.835,Reversal,2023.2.1,60.087379066796764,4,2024-11-20 14h56.27.716789 +0200,
1,exp3.png,exp4.png,,1,0,1,0,0,1,1,1,,,,,,,,,,,,,,,,,,,,,,,,,181.72329360000003,,,,,,,,,,,,181.5623660000001,181.56351760000052,181.5635701000001,False,21,22,True,exp4.png,exp3.png,trial_right_image,184.18223490000037,-1,exp3.png,4,exp4.png,exp3.png,0,4,reversed,incorrect,0.73498245448443,0,valid_lose,155.61406139999963,184.18296980000014,184.79520560000037,15,184.7952382000003,186.59382970000024,,,,,,,,,,,,,,,,,,,,sub_588,2024-11-20_14h56.00.835,Reversal,2023.2.1,60.087379066796764,4,2024-11-20 14h56.27.716789 +0200,
2,exp1.png,exp2.png,,1,0,1,0,0,2,2,2,,,,,,,,,,,,,,,,,,,,,,,,,186.73482890000014,,,,,,,,,,,,186.59501999999975,186.59630389999984,186.59636020000016,False,22,23,True,exp2.png,exp1.png,trial_left_image,190.17986139999994,1,exp2.png,4,exp2.png,exp1.png,1,1,non-reversed,correct,0.1168016178698722,0,invalid_lose,161.61150779999934,190.1804062000001,190.7945096000003,15,190.7945408000005,192.59273080000003,,,,,,,,,,,,,,,,,,,,sub_588,2024-11-20_14h56.00.835,Reversal,2023.2.1,60.087379066796764,4,2024-11-20 14h56.27.716789 +0200,
3,exp3.png,exp4.png,,1,0,1,0,0,3,3,3,,,,,,,,,,,,,,,,,,,,,,,,,192.74032830000033,,,,,,,,,,,,192.59389439999995,192.59518959999969,192.5952470000002,False,23,24,False,exp3.png,exp4.png,trial_left_image,195.37889470000027,1,exp3.png,4,exp4.png,exp3.png,0,4,reversed,incorrect,0.6779732408610589,0,valid_lose,166.8105055999995,195.37939730000016,195.99447500000042,15,195.9945157000002,197.7918823,,,,,,,,,,,,,,,,,,,,sub_588,2024-11-20_14h56.00.835,Reversal,2023.2.1,60.087379066796764,4,2024-11-20 14h56.27.716789 +0200,
4,exp1.png,exp2.png,,1,0,1,0,0,4,4,4,,,,,,,,,,,,,,,,,,,,,,,,,197.9366227999999,,,,,,,,,,,,197.79279760000009,197.7940897999997,197.7941649000004,False,24,25,True,exp2.png,exp1.png,trial_right_image,201.02840769999966,-1,exp1.png,4,exp2.png,exp1.png,0,2,non-reversed,incorrect,0.6901528606157907,0,valid_lose,172.46003709999968,201.02893419999964,201.6436222000002,15,201.64366859999973,203.44137210000008,,,,,,,,,,,,,,,,,,,,sub_588,2024-11-20_14h56.00.835,Reversal,2023.2.1,60.087379066796764,4,2024-11-20 14h56.27.716789 +0200,
5,exp3.png,exp4.png,,1,0,1,0,0,5,5,5,,,,,,,,,,,,,,,,,,,,,,,,,203.5988342999999,,,,,,,,,,,,203.4423495000001,203.44337499999983,203.4434223999997,False,25,26,True,exp4.png,exp3.png,trial_left_image,205.02797650000048,1,exp4.png,4,exp4.png,exp3.png,1,3,reversed,correct,0.34338686705456767,1,valid_win,176.45952009999928,205.02841199999966,205.64285879999989,16,205.64290150000033,207.44058070000028,,,,,,,,,,,,,,,,,,,,sub_588,2024-11-20_14h56.00.835,Reversal,2023.2.1,60.087379066796764,4,2024-11-20 14h56.27.716789 +0200,
6,exp1.png,exp2.png,,1,0,1,0,0,6,6,6,,,,,,,,,,,,,,,,,,,,,,,,,207.56334609999976,,,,,,,,,,,,207.44118320000052,207.44180870000037,207.44183340000018,False,26,27,False,exp1.png,exp2.png,trial_right_image,210.1107380000003,-1,exp2.png,4,exp2.png,exp1.png,1,1,non-reversed,correct,0.9102700129339137,1,valid_win,181.54237489999923,210.11127300000044,210.7255457000001,17,210.72558879999997,212.5230528000002,,,,,,,,,,,,,,,,,,,,sub_588,2024-11-20_14h56.00.835,Reversal,2023.2.1,60.087379066796764,4,2024-11-20 14h56.27.716789 +0200,
7,exp3.png,exp4.png,,1,0,1,0,0,7,7,7,,,,,,,,,,,,,,,,,,,,,,,,,212.66480039999988,,,,,,,,,,,,212.5235872000003,212.52422240000033,212.52425099999982,False,27,28,False,exp3.png,exp4.png,trial_right_image,214.9107823000004,-1,exp4.png,4,exp4.png,exp3.png,1,3,reversed,correct,0.9113844338317496,1,valid_win,186.34273289999965,214.9116436000004,215.5246692999999,18,215.5246957999998,217.32294030000048,,,,,,,,,,,,,,,,,,,,sub_588,2024-11-20_14h56.00.835,Reversal,2023.2.1,60.087379066796764,4,2024-11-20 14h56.27.716789 +0200,
8,exp1.png,exp2.png,,1,0,1,0,0,8,8,8,,,,,,,,,,,,,,,,,,,,,,,,,217.4775236000005,,,,,,,,,,,,217.32389010000043,217.3248997999999,217.32494909999969,False,28,29,True,exp2.png,exp1.png,trial_left_image,219.25956419999966,1,exp2.png,4,exp2.png,exp1.png,1,1,non-reversed,correct,0.3426995520783691,1,valid_win,190.6912053999995,219.26010430000042,219.87403509999967,19,219.8740630000002,221.67251130000022,,,,,,,,,,,,,,,,,,,,sub_588,2024-11-20_14h56.00.835,Reversal,2023.2.1,60.087379066796764,4,2024-11-20 14h56.27.716789 +0200,
9,exp3.png,exp4.png,,1,0,1,0,0,9,9,9,,,,,,,,,,,,,,,,,,,,,,,,,221.84598449999976,,,,,,,,,,,,221.67357170000014,221.6747475000002,221.67481109999972,False,29,30,False,exp3.png,exp4.png,trial_right_image,223.67701120000038,-1,exp4.png,4,exp4.png,exp3.png,1,3,reversed,correct,0.24825648445671622,0,invalid_lose,195.10888559999967,223.67779470000005,224.29008760000033,19,224.29010540000036,226.08882280000034,,,,,,,,,,,,,,,,,,,,sub_588,2024-11-20_14h56.00.835,Reversal,2023.2.1,60.087379066796764,4,2024-11-20 14h56.27.716789 +0200,
10,exp1.png,exp2.png,,1,0,1,0,0,10,10,10,,,,,,,,,,,,,,,,,,,,,,,,,226.24188370000047,,,,,,,,,,,,226.0896885000002,226.0908059000003,226.09085400000004,False,30,31,True,exp2.png,exp1.png,trial_left_image,228.37487990000045,1,exp2.png,4,exp2.png,exp1.png,1,1,non-reversed,correct,0.8430520774591881,1,valid_win,199.80640229999972,228.3752940000004,228.9900293999999,20,228.99005060000036,230.7876693999997,,,,,,,,,,,,,,,,,,,,sub_588,2024-11-20_14h56.00.835,Reversal,2023.2.1,60.087379066796764,4,2024-11-20 14h56.27.716789 +0200,
11,exp3.png,exp4.png,,1,0,1,0,0,11,11,11,,,,,,,,,,,,,,,,,,,,,,,,,230.94642720000047,,,,,,,,,,,,230.78865399999995,230.78979739999977,230.78987430000052,False,31,32,False,exp3.png,exp4.png,trial_left_image,233.6406702000004,1,exp3.png,4,exp4.png,exp3.png,0,4,reversed,incorrect,0.18600533653841034,1,invalid_win,205.07221909999953,233.6411109999999,234.25560399999995,21,234.2556413000002,236.05400680000002,,,,,,,,,,,,,,,,,,,,sub_588,2024-11-20_14h56.00.835,Reversal,2023.2.1,60.087379066796764,4,2024-11-20 14h56.27.716789 +0200,
12,exp1.png,exp2.png,,1,0,1,0,0,12,12,12,,,,,,,,,,,,,,,,,,,,,,,,,236.20037020000018,,,,,,,,,,,,236.0550234000002,236.05620610000005,236.05626289999964,False,32,33,False,exp1.png,exp2.png,trial_right_image,239.22361009999986,-1,exp2.png,4,exp2.png,exp1.png,1,1,non-reversed,correct,0.8584199007409253,1,valid_win,210.65523789999952,239.2241352000001,239.83875330000046,22,239.8388057000002,241.6362792,,,,,,,,,,,,,,,,,,,,sub_588,2024-11-20_14h56.00.835,Reversal,2023.2.1,60.087379066796764,4,2024-11-20 14h56.27.716789 +0200,
13,exp3.png,exp4.png,,1,0,1,0,0,13,13,13,,,,,,,,,,,,,,,,,,,,,,,,,241.78519649999998,,,,,,,,,,,,241.63715909999974,241.6381962000005,241.63824440000008,False,33,34,True,exp4.png,exp3.png,trial_right_image,244.9730539000002,-1,exp3.png,4,exp4.png,exp3.png,0,4,reversed,incorrect,0.23352909733967675,1,invalid_win,216.40468169999986,244.97358020000047,245.58740020000005,23,245.58741819999977,247.38572509999995,,,,,,,,,,,,,,,,,,,,sub_588,2024-11-20_14h56.00.835,Reversal,2023.2.1,60.087379066796764,4,2024-11-20 14h56.27.716789 +0200,
14,exp1.png,exp2.png,,1,0,1,0,0,14,14,14,,,,,,,,,,,,,,,,,,,,,,,,,247.53930109999965,,,,,,,,,,,,247.38658880000003,247.38758729999972,247.38763590000053,False,34,35,True,exp2.png,exp1.png,trial_left_image,250.8220013,1,exp2.png,4,exp2.png,exp1.png,1,1,non-reversed,correct,0.2288690293186907,0,invalid_lose,222.25357859999986,250.82247170000028,251.4373843000003,23,251.43741000000045,253.2348466000003,,,,,,,,,,,,,,,,,,,,sub_588,2024-11-20_14h56.00.835,Reversal,2023.2.1,60.087379066796764,4,2024-11-20 14h56.27.716789 +0200,
15,exp3.png,exp4.png,,1,0,1,0,0,15,15,15,,,,,,,,,,,,,,,,,,,,,,,,,253.3870525000002,,,,,,,,,,,,253.23580649999985,253.23691839999992,253.2369767,False,35,36,False,exp3.png,exp4.png,trial_left_image,255.57132720000027,1,exp3.png,4,exp4.png,exp3.png,0,4,reversed,incorrect,0.9988386475023918,0,valid_lose,227.0028530999998,255.57174459999987,256.18602230000033,23,256.1860905000003,257.98442109999996,,,,,,,,,,,,,,,,,,,,sub_588,2024-11-20_14h56.00.835,Reversal,2023.2.1,60.087379066796764,4,2024-11-20 14h56.27.716789 +0200,
16,exp1.png,exp2.png,,1,0,1,0,0,16,16,16,,,,,,,,,,,,,,,,,,,,,,,,,258.1321721000004,,,,,,,,,,,,257.9854412000004,257.9865786999999,257.9866331000003,False,36,37,False,exp1.png,exp2.png,trial_left_image,261.9051625000002,1,exp1.png,4,exp2.png,exp1.png,0,2,non-reversed,incorrect,0.24627271029049902,1,invalid_win,233.3368447999992,261.9057442000003,262.519053,24,262.5190837,264.31686549999995,,,,,,,,,,,,,,,,,,,,sub_588,2024-11-20_14h56.00.835,Reversal,2023.2.1,60.087379066796764,4,2024-11-20 14h56.27.716789 +0200,
17,exp3.png,exp4.png,,1,0,1,0,0,17,17,17,,,,,,,,,,,,,,,,,,,,,,,,,264.4664112999999,,,,,,,,,,,,264.31799109999974,264.31910510000034,264.31915860000026,False,37,38,True,exp4.png,exp3.png,trial_right_image,267.43642249999994,-1,exp3.png,4,exp4.png,exp3.png,0,4,reversed,incorrect,0.3067566946965059,0,valid_lose,238.86797469999965,267.4368678000001,268.0512497999998,24,268.0512765000003,269.8490678999997,,,,,,,,,,,,,,,,,,,,sub_588,2024-11-20_14h56.00.835,Reversal,2023.2.1,60.087379066796764,4,2024-11-20 14h56.27.716789 +0200,
18,exp1.png,exp2.png,,1,0,1,0,0,18,18,18,,,,,,,,,,,,,,,,,,,,,,,,,269.99217599999974,,,,,,,,,,,,269.84963270000026,269.85034559999986,269.85037459999967,False,38,39,False,exp1.png,exp2.png,trial_left_image,273.1524922999997,1,exp1.png,4,exp2.png,exp1.png,0,2,non-reversed,incorrect,0.7541071539295101,0,valid_lose,244.58401529999992,273.15290710000045,273.7671873999998,24,273.7672263000004,275.5651366000002,,,,,,,,,,,,,,,,,,,,sub_588,2024-11-20_14h56.00.835,Reversal,2023.2.1,60.087379066796764,4,2024-11-20 14h56.27.716789 +0200,
19,exp3.png,exp4.png,,1,0,1,0,0,19,19,19,,,,,,,,,,,,,,,,,,,,,,,,,275.72062989999995,,,,,,,,,,,,275.5659321000003,275.56694960000004,275.566992,False,39,40,False,exp3.png,exp4.png,trial_left_image,278.31820229999994,1,exp3.png,4,exp4.png,exp3.png,0,4,reversed,incorrect,0.44554032297365975,0,valid_lose,249.7497399999993,278.31863169999997,278.93306910000047,24,278.9330952999999,280.7315374,,,,,,,,,,,,,,,,,,,,sub_588,2024-11-20_14h56.00.835,Reversal,2023.2.1,60.087379066796764,4,2024-11-20 14h56.27.716789 +0200,
20,exp1.png,exp2.png,,1,0,1,0,0,20,20,20,,,,,,,,,,,,,,,,,,,,,,,,,280.9269064,,,,,,,,,,,,280.73263359999964,280.7340458999997,280.7341306999997,True,,,,,,,280.8182883999998,,,,,,,,,,,,,,280.8183058000004,280.83155689999967,,280.83157440000014,280.84944650000034,,,,,,,,,,,,,,,,,,,,sub_588,2024-11-20_14h56.00.835,Reversal,2023.2.1,60.087379066796764,4,2024-11-20 14h56.27.716789 +0200,
,,,exp1.png,1,0,1,0,,,,,0,0,0,0,0,0,0,0,,,,,,,,,,,,,,,,,280.9269064,,,,,,,,,,,,,,,,,,,,,,,,,,,,,,,,,,,,,,,,,280.8564563,280.9269064,288.61920999999984,21.0,21.0,6.572758299999805,"[(21.0, 6.572758299999805)]",,,,,,,,,,,,,sub_588,2024-11-20_14h56.00.835,Reversal,2023.2.1,60.087379066796764,4,2024-11-20 14h56.27.716789 +0200,
,,,exp2.png,1,0,1,0,,,,,0,0,0,0,0,1,1,1,,,,,,,,,,,,,,,,,288.68946330000017,,,,,,,,,,,,,,,,,,,,,,,,,,,,,,,,,,,,,,,,,288.6201200000005,288.68946330000017,292.0374727999997,,81.0,2.1768703999996433,"[(81.0, 2.1768703999996433)]",,,81.0,,,,,,,,,,sub_588,2024-11-20_14h56.00.835,Reversal,2023.2.1,60.087379066796764,4,2024-11-20 14h56.27.716789 +0200,
,,,exp3.png,1,0,1,0,,,,,0,0,0,0,0,2,2,2,,,,,,,,,,,,,,,,,292.11465450000014,,,,,,,,,,,,,,,,,,,,,,,,,,,,,,,,,,,,,,,,,292.0384168999999,292.11465450000014,295.4042661000003,,71.0,2.206562500000473,"[(71.0, 2.206562500000473)]",71.0,,,,,,,,,,,,sub_588,2024-11-20_14h56.00.835,Reversal,2023.2.1,60.087379066796764,4,2024-11-20 14h56.27.716789 +0200,
,,,exp4.png,1,0,1,0,,,,,0,0,0,0,0,3,3,3,,,,,,,,,,,,,,,,,295.4780754000003,,,,,,,,,,,,,,,,,,,,,,,,,,,,,,,,,,,,,,,,,295.40522489999967,295.4780754000003,301.88837010000043,,31.0,3.8928269000007276,"[(31.0, 3.8928269000007276)]",,31.0,,,,,,,,,,,sub_588,2024-11-20_14h56.00.835,Reversal,2023.2.1,60.087379066796764,4,2024-11-20 14h56.27.716789 +0200,
0,exp1.png,exp2.png,,2,0,2,0,0,0,0,0,,,,,,,,,,,,,,,,,,,,,,,,,302.02376879999974,,,,,,,,,,,,301.9027764000002,301.90371680000044,301.90374429999974,False,40,41,False,exp1.png,exp2.png,trial_left_image,307.04789210000035,1,exp1.png,4,exp2.png,exp1.png,0,2,non-reversed,incorrect,0.10612971982592667,1,invalid_win,278.47943699999996,307.0483290000002,307.66267100000005,25,307.6626994999997,309.4611382000003,,,,,,,,,,,,,,,,,,,,sub_588,2024-11-20_14h56.00.835,Reversal,2023.2.1,60.087379066796764,4,2024-11-20 14h56.27.716789 +0200,
1,exp3.png,exp4.png,,2,0,2,0,0,1,1,1,,,,,,,,,,,,,,,,,,,,,,,,,309.6090595000005,,,,,,,,,,,,309.46221630000036,309.4635208999998,309.4635764000004,False,41,42,True,exp4.png,exp3.png,trial_right_image,312.3143692000003,-1,exp3.png,4,exp4.png,exp3.png,0,4,reversed,incorrect,0.8467322266202821,0,valid_lose,283.74599619999935,312.31489429999965,312.92914850000034,25,312.9291916000002,314.72714819999965,,,,,,,,,,,,,,,,,,,,sub_588,2024-11-20_14h56.00.835,Reversal,2023.2.1,60.087379066796764,4,2024-11-20 14h56.27.716789 +0200,
2,exp1.png,exp2.png,,2,0,2,0,0,2,2,2,,,,,,,,,,,,,,,,,,,,,,,,,314.8756613000005,,,,,,,,,,,,314.72814089999974,314.729249,314.72930480000014,False,42,43,True,exp2.png,exp1.png,trial_right_image,317.2146644000004,-1,exp1.png,4,exp2.png,exp1.png,0,2,non-reversed,incorrect,0.05543466093369209,1,invalid_win,288.64647689999947,317.2153838000004,317.8283621999999,26,317.8283895000004,319.6266931,,,,,,,,,,,,,,,,,,,,sub_588,2024-11-20_14h56.00.835,Reversal,2023.2.1,60.087379066796764,4,2024-11-20 14h56.27.716789 +0200,
3,exp3.png,exp4.png,,2,0,2,0,0,3,3,3,,,,,,,,,,,,,,,,,,,,,,,,,319.7939650999997,,,,,,,,,,,,319.62800210000023,319.6295226000002,319.6295820000005,False,43,44,True,exp4.png,exp3.png,trial_left_image,321.92984069999966,1,exp4.png,4,exp4.png,exp3.png,1,3,reversed,correct,0.524566785534246,1,valid_win,293.3614940999996,321.93039279999994,322.54506670000046,27,322.54511150000053,324.34228669999993,,,,,,,,,,,,,,,,,,,,sub_588,2024-11-20_14h56.00.835,Reversal,2023.2.1,60.087379066796764,4,2024-11-20 14h56.27.716789 +0200,
4,exp1.png,exp2.png,,2,0,2,0,0,4,4,4,,,,,,,,,,,,,,,,,,,,,,,,,324.4990539999999,,,,,,,,,,,,324.34316990000025,324.34421099999963,324.3442608000005,False,44,45,True,exp2.png,exp1.png,trial_right_image,327.19522940000024,-1,exp1.png,4,exp2.png,exp1.png,0,2,non-reversed,incorrect,0.7586293431551392,0,valid_lose,298.6268037,327.1956968000004,327.81058029999986,27,327.8106220999998,329.60798890000024,,,,,,,,,,,,,,,,,,,,sub_588,2024-11-20_14h56.00.835,Reversal,2023.2.1,60.087379066796764,4,2024-11-20 14h56.27.716789 +0200,
5,exp3.png,exp4.png,,2,0,2,0,0,5,5,5,,,,,,,,,,,,,,,,,,,,,,,,,329.7600044999999,,,,,,,,,,,,329.60859080000046,329.6092583999998,329.6092883000001,False,45,46,True,exp4.png,exp3.png,trial_left_image,331.76137910000034,1,exp4.png,4,exp4.png,exp3.png,1,3,reversed,correct,0.27998237789083824,1,valid_win,303.19285299999956,331.7617462999997,332.3763079999999,28,332.3763355000001,334.1742709,,,,,,,,,,,,,,,,,,,,sub_588,2024-11-20_14h56.00.835,Reversal,2023.2.1,60.087379066796764,4,2024-11-20 14h56.27.716789 +0200,
6,exp1.png,exp2.png,,2,0,2,0,0,6,6,6,,,,,,,,,,,,,,,,,,,,,,,,,334.3248835000004,,,,,,,,,,,,334.1748312999998,334.17553940000016,334.17557080000006,False,46,47,False,exp1.png,exp2.png,trial_left_image,337.5273999000001,1,exp1.png,4,exp2.png,exp1.png,0,2,non-reversed,incorrect,0.12508300374276504,1,invalid_win,308.9589126999999,337.52780470000016,338.14241630000015,29,338.1424595999997,339.9403549999997,,,,,,,,,,,,,,,,,,,,sub_588,2024-11-20_14h56.00.835,Reversal,2023.2.1,60.087379066796764,4,2024-11-20 14h56.27.716789 +0200,
7,exp3.png,exp4.png,,2,0,2,0,0,7,7,7,,,,,,,,,,,,,,,,,,,,,,,,,340.0859397000004,,,,,,,,,,,,339.9415651999998,339.94274940000014,339.94279780000033,False,47,48,False,exp3.png,exp4.png,trial_left_image,342.29358180000054,1,exp3.png,4,exp4.png,exp3.png,0,4,reversed,incorrect,0.8354641625421811,0,valid_lose,313.72511719999966,342.29400929999974,342.9084309,29,342.9084574999997,344.70643819999987,,,,,,,,,,,,,,,,,,,,sub_588,2024-11-20_14h56.00.835,Reversal,2023.2.1,60.087379066796764,4,2024-11-20 14h56.27.716789 +0200,
8,exp1.png,exp2.png,,2,0,2,0,0,8,8,8,,,,,,,,,,,,,,,,,,,,,,,,,344.8630152000005,,,,,,,,,,,,344.70734580000044,344.70836450000024,344.7084126999998,False,48,49,True,exp2.png,exp1.png,trial_right_image,346.5096315999999,-1,exp1.png,4,exp2.png,exp1.png,0,2,non-reversed,incorrect,0.9130059607486682,0,valid_lose,317.94114809999974,346.5100602000002,347.1247470999997,29,347.1248088000002,348.92270929999995,,,,,,,,,,,,,,,,,,,,sub_588,2024-11-20_14h56.00.835,Reversal,2023.2.1,60.087379066796764,4,2024-11-20 14h56.27.716789 +0200,
9,exp3.png,exp4.png,,2,0,2,0,0,9,9,9,,,,,,,,,,,,,,,,,,,,,,,,,349.0863261000004,,,,,,,,,,,,348.92393319999974,348.9251512000001,348.9252026000004,False,49,50,False,exp3.png,exp4.png,trial_left_image,351.07559909999964,1,exp3.png,4,exp4.png,exp3.png,0,4,reversed,incorrect,0.033952315669350086,1,invalid_win,322.50714399999924,351.0760357999998,351.6909106000003,30,351.69094120000045,353.4883,,,,,,,,,,,,,,,,,,,,sub_588,2024-11-20_14h56.00.835,Reversal,2023.2.1,60.087379066796764,4,2024-11-20 14h56.27.716789 +0200,
10,exp1.png,exp2.png,,2,0,2,0,0,10,10,10,,,,,,,,,,,,,,,,,,,,,,,,,353.62487969999984,,,,,,,,,,,,353.4889212999997,353.4895956999999,353.4896252999997,False,50,51,False,exp1.png,exp2.png,trial_right_image,356.15849080000044,-1,exp2.png,4,exp2.png,exp1.png,1,1,non-reversed,correct,0.291914650970565,1,valid_win,327.59012409999923,356.15902110000025,356.77338899999995,31,356.7734154,358.5709674,,,,,,,,,,,,,,,,,,,,sub_588,2024-11-20_14h56.00.835,Reversal,2023.2.1,60.087379066796764,4,2024-11-20 14h56.27.716789 +0200,
11,exp3.png,exp4.png,,2,0,2,0,0,11,11,11,,,,,,,,,,,,,,,,,,,,,,,,,358.7024583000002,,,,,,,,,,,,358.57187350000004,358.57261279999966,358.5726504000004,False,51,52,False,exp3.png,exp4.png,trial_right_image,360.91104970000015,-1,exp4.png,4,exp4.png,exp3.png,1,3,reversed,correct,0.4890763411469292,1,valid_win,332.34237329999996,360.91125290000036,361.52275009999994,32,361.5227943,363.32085389999975,,,,,,,,,,,,,,,,,,,,sub_588,2024-11-20_14h56.00.835,Reversal,2023.2.1,60.087379066796764,4,2024-11-20 14h56.27.716789 +0200,
12,exp1.png,exp2.png,,2,0,2,0,0,12,12,12,,,,,,,,,,,,,,,,,,,,,,,,,363.47231530000045,,,,,,,,,,,,363.32172919999994,363.3227675999997,363.3228145000003,False,52,53,False,exp1.png,exp2.png,trial_left_image,365.4248964999997,1,exp1.png,4,exp2.png,exp1.png,0,2,non-reversed,incorrect,0.049043713516705,1,invalid_win,336.8568123999994,365.4257276999997,366.0385833999999,33,366.03861210000014,367.83703010000045,,,,,,,,,,,,,,,,,,,,sub_588,2024-11-20_14h56.00.835,Reversal,2023.2.1,60.087379066796764,4,2024-11-20 14h56.27.716789 +0200,
13,exp3.png,exp4.png,,2,0,2,0,0,13,13,13,,,,,,,,,,,,,,,,,,,,,,,,,367.9877054999997,,,,,,,,,,,,367.83805519999987,367.83945250000033,367.83952899999986,False,53,54,False,exp3.png,exp4.png,trial_left_image,369.87332179999976,1,exp3.png,4,exp4.png,exp3.png,0,4,reversed,incorrect,0.09505337683259873,1,invalid_win,341.30484720000004,369.87373949999983,370.4882938999999,34,370.4883393,372.2863822999998,,,,,,,,,,,,,,,,,,,,sub_588,2024-11-20_14h56.00.835,Reversal,2023.2.1,60.087379066796764,4,2024-11-20 14h56.27.716789 +0200,
14,exp1.png,exp2.png,,2,0,2,0,0,14,14,14,,,,,,,,,,,,,,,,,,,,,,,,,372.44468210000014,,,,,,,,,,,,372.2872683000005,372.2883039999997,372.28835210000034,False,54,55,True,exp2.png,exp1.png,trial_right_image,375.07298939999964,-1,exp1.png,4,exp2.png,exp1.png,0,2,non-reversed,incorrect,0.5461959951268369,0,valid_lose,346.5045169999994,375.0734091000004,375.6877400000003,34,375.6877664000003,377.48508070000025,,,,,,,,,,,,,,,,,,,,sub_588,2024-11-20_14h56.00.835,Reversal,2023.2.1,60.087379066796764,4,2024-11-20 14h56.27.716789 +0200,
15,exp3.png,exp4.png,,2,0,2,0,0,15,15,15,,,,,,,,,,,,,,,,,,,,,,,,,377.62441450000006,,,,,,,,,,,,377.4856202000001,377.48629400000027,377.4863241000003,False,55,56,True,exp4.png,exp3.png,trial_left_image,379.7402983000002,1,exp4.png,4,exp4.png,exp3.png,1,3,reversed,correct,0.32405991700172754,1,valid_win,351.1722572999997,379.74118929999986,380.3538903999997,35,380.3539397000004,382.1517722999997,,,,,,,,,,,,,,,,,,,,sub_588,2024-11-20_14h56.00.835,Reversal,2023.2.1,60.087379066796764,4,2024-11-20 14h56.27.716789 +0200,
16,exp1.png,exp2.png,,2,0,2,0,0,16,16,16,,,,,,,,,,,,,,,,,,,,,,,,,382.30099530000007,,,,,,,,,,,,382.1529341000005,382.15412540000034,382.15418430000045,False,56,57,False,exp1.png,exp2.png,trial_right_image,384.6713497999999,-1,exp2.png,4,exp2.png,exp1.png,1,1,non-reversed,correct,0.8562694895463616,1,valid_win,356.1028772999998,384.6717785999999,385.2859618000002,36,385.2859957999999,387.0844312999998,,,,,,,,,,,,,,,,,,,,sub_588,2024-11-20_14h56.00.835,Reversal,2023.2.1,60.087379066796764,4,2024-11-20 14h56.27.716789 +0200,
17,exp3.png,exp4.png,,2,0,2,0,0,17,17,17,,,,,,,,,,,,,,,,,,,,,,,,,387.23324589999993,,,,,,,,,,,,387.0853109999998,387.0863298000004,387.0863771000004,False,57,58,True,exp4.png,exp3.png,trial_left_image,389.1208815,1,exp4.png,4,exp4.png,exp3.png,1,3,reversed,correct,0.062433160396529463,0,invalid_lose,360.55240799999956,389.12129939999977,389.73553470000024,36,389.73557299999993,391.5333916999998,,,,,,,,,,,,,,,,,,,,sub_588,2024-11-20_14h56.00.835,Reversal,2023.2.1,60.087379066796764,4,2024-11-20 14h56.27.716789 +0200,
18,exp1.png,exp2.png,,2,0,2,0,0,18,18,18,,,,,,,,,,,,,,,,,,,,,,,,,391.67079569999987,,,,,,,,,,,,391.53391180000017,391.5345675999997,391.5345956000001,False,58,59,False,exp1.png,exp2.png,trial_left_image,393.67062559999977,1,exp1.png,4,exp2.png,exp1.png,0,2,non-reversed,incorrect,0.6275496531268189,0,valid_lose,365.10226989999956,393.6711666000001,394.28491850000046,36,394.28493960000014,396.0832719,,,,,,,,,,,,,,,,,,,,sub_588,2024-11-20_14h56.00.835,Reversal,2023.2.1,60.087379066796764,4,2024-11-20 14h56.27.716789 +0200,
19,exp3.png,exp4.png,,2,0,2,0,0,19,19,19,,,,,,,,,,,,,,,,,,,,,,,,,396.23070000000007,,,,,,,,,,,,396.08415890000015,396.08509239999967,396.0851746999997,False,59,60,True,exp4.png,exp3.png,trial_left_image,398.2037701999998,1,exp4.png,4,exp4.png,exp3.png,1,3,reversed,correct,0.6897151198279416,1,valid_win,369.6355896999994,398.2044969999997,398.8175719999999,37,398.81758679999984,400.6155325999998,,,,,,,,,,,,,,,,,,,,sub_588,2024-11-20_14h56.00.835,Reversal,2023.2.1,60.087379066796764,4,2024-11-20 14h56.27.716789 +0200,
20,exp1.png,exp2.png,,2,0,2,0,0,20,20,20,,,,,,,,,,,,,,,,,,,,,,,,,400.81459389999964,,,,,,,,,,,,400.61619210000026,400.6169206000004,400.6169557000003,True,,,,,,,400.7033578999999,,,,,,,,,,,,,,400.70337500000005,400.71655999999984,,400.7165772999997,400.7341599000001,,,,,,,,,,,,,,,,,,,,sub_588,2024-11-20_14h56.00.835,Reversal,2023.2.1,60.087379066796764,4,2024-11-20 14h56.27.716789 +0200,
,,,exp1.png,2,0,2,0,,,,,0,0,0,0,0,0,0,0,,,,,,,,,,,,,,,,,400.81459389999964,,,,,,,,,,,,,,,,,,,,,,,,,,,,,,,,,,,,,,,,,400.7428563000003,400.81459389999964,405.75625500000024,69.0,69.0,3.8305872999999337,"[(69.0, 3.8305872999999337)]",,,,,,,,,,,,,sub_588,2024-11-20_14h56.00.835,Reversal,2023.2.1,60.087379066796764,4,2024-11-20 14h56.27.716789 +0200,
,,,exp2.png,2,0,2,0,,,,,0,0,0,0,0,1,1,1,,,,,,,,,,,,,,,,,405.82705780000015,,,,,,,,,,,,,,,,,,,,,,,,,,,,,,,,,,,,,,,,,405.7574454000005,405.82705780000015,409.1229880000001,,34.0,2.262068700000782,"[(34.0, 2.262068700000782)]",,,34.0,,,,,,,,,,sub_588,2024-11-20_14h56.00.835,Reversal,2023.2.1,60.087379066796764,4,2024-11-20 14h56.27.716789 +0200,
,,,exp3.png,2,0,2,0,,,,,0,0,0,0,0,2,2,2,,,,,,,,,,,,,,,,,409.1995213,,,,,,,,,,,,,,,,,,,,,,,,,,,,,,,,,,,,,,,,,409.12390609999966,409.1995213,413.4860799999997,,64.0,3.189576300000226,"[(64.0, 3.189576300000226)]",64.0,,,,,,,,,,,,sub_588,2024-11-20_14h56.00.835,Reversal,2023.2.1,60.087379066796764,4,2024-11-20 14h56.27.716789 +0200,
,,,exp4.png,2,0,2,0,,,,,0,0,0,0,0,3,3,3,,,,,,,,,,,,,,,,,413.54894440000044,,,,,,,,,,,,,,,,,,,,,,,,,,,,,,,,,,,,,,,,,413.4866522000002,413.54894440000044,416.6721776000004,,35.0,2.2587075999999797,"[(35.0, 2.2587075999999797)]",,35.0,,,,,,,,,,,sub_588,2024-11-20_14h56.00.835,Reversal,2023.2.1,60.087379066796764,4,2024-11-20 14h56.27.716789 +0200,
0,exp1.png,exp2.png,,3,0,3,0,0,0,0,0,,,,,,,,,,,,,,,,,,,,,,,,,416.82392009999967,,,,,,,,,,,,416.6878615000005,416.6889342000004,416.6889798000002,False,60,61,True,exp2.png,exp1.png,trial_right_image,421.75014720000036,-1,exp1.png,4,exp2.png,exp1.png,0,2,non-reversed,incorrect,0.9780439198559782,0,valid_lose,393.1817758999996,421.75067370000033,422.36524929999996,37,422.36529340000016,424.1632503000001,,,,,,,,,,,,,,,,,,,,sub_588,2024-11-20_14h56.00.835,Reversal,2023.2.1,60.087379066796764,4,2024-11-20 14h56.27.716789 +0200,
1,exp3.png,exp4.png,,3,0,3,0,0,1,1,1,,,,,,,,,,,,,,,,,,,,,,,,,424.32095219999974,,,,,,,,,,,,424.16415849999976,424.1652552000005,424.16532430000007,False,61,62,True,exp4.png,exp3.png,trial_right_image,427.2994802000003,-1,exp3.png,4,exp4.png,exp3.png,0,4,reversed,incorrect,0.4240349780549503,0,valid_lose,398.7310625,427.2999557000003,427.91387620000023,37,427.91389549999985,429.71224820000043,,,,,,,,,,,,,,,,,,,,sub_588,2024-11-20_14h56.00.835,Reversal,2023.2.1,60.087379066796764,4,2024-11-20 14h56.27.716789 +0200,
2,exp1.png,exp2.png,,3,0,3,0,0,2,2,2,,,,,,,,,,,,,,,,,,,,,,,,,429.85550520000015,,,,,,,,,,,,429.71317759999965,429.71432470000036,429.7143784,False,62,63,True,exp2.png,exp1.png,trial_right_image,432.58223220000036,-1,exp1.png,4,exp2.png,exp1.png,0,2,non-reversed,incorrect,0.8194163985534025,0,valid_lose,404.01391559999956,432.58281369999986,433.1972702000003,37,433.19729610000013,434.99490070000047,,,,,,,,,,,,,,,,,,,,sub_588,2024-11-20_14h56.00.835,Reversal,2023.2.1,60.087379066796764,4,2024-11-20 14h56.27.716789 +0200,
3,exp3.png,exp4.png,,3,0,3,0,0,3,3,3,,,,,,,,,,,,,,,,,,,,,,,,,435.1467917,,,,,,,,,,,,434.9957569999997,434.9967698999999,434.99681770000007,False,63,64,False,exp3.png,exp4.png,trial_left_image,437.6653796999999,1,exp3.png,4,exp4.png,exp3.png,0,4,reversed,incorrect,0.3037401093892399,0,valid_lose,409.0970250999999,437.6659232000002,438.27929270000004,37,438.2793098000002,440.07756320000044,,,,,,,,,,,,,,,,,,,,sub_588,2024-11-20_14h56.00.835,Reversal,2023.2.1,60.087379066796764,4,2024-11-20 14h56.27.716789 +0200,
4,exp1.png,exp2.png,,3,0,3,0,0,4,4,4,,,,,,,,,,,,,,,,,,,,,,,,,440.2343621,,,,,,,,,,,,440.0785378999999,440.07992269999977,440.08000210000046,False,64,65,False,exp1.png,exp2.png,trial_left_image,442.7140958,1,exp1.png,4,exp2.png,exp1.png,0,2,non-reversed,incorrect,0.36191681690477373,0,valid_lose,414.14573870000004,442.71463649999987,443.3291201000002,37,443.32914979999987,445.12637600000016,,,,,,,,,,,,,,,,,,,,sub_588,2024-11-20_14h56.00.835,Reversal,2023.2.1,60.087379066796764,4,2024-11-20 14h56.27.716789 +0200,
5,exp3.png,exp4.png,,3,0,3,0,0,5,5,5,,,,,,,,,,,,,,,,,,,,,,,,,445.27465850000044,,,,,,,,,,,,445.12701579999975,445.1276178999997,445.12764679999964,False,65,66,False,exp3.png,exp4.png,trial_left_image,447.36362310000004,1,exp3.png,4,exp4.png,exp3.png,0,4,reversed,incorrect,0.8638575698807166,0,valid_lose,418.7952781999993,447.3641763000005,447.9779504999997,37,447.9779761,449.7765476000004,,,,,,,,,,,,,,,,,,,,sub_588,2024-11-20_14h56.00.835,Reversal,2023.2.1,60.087379066796764,4,2024-11-20 14h56.27.716789 +0200,
6,exp1.png,exp2.png,,3,0,3,0,0,6,6,6,,,,,,,,,,,,,,,,,,,,,,,,,449.9241672999997,,,,,,,,,,,,449.7778355999999,449.77908260000004,449.7791507000002,False,66,67,False,exp1.png,exp2.png,trial_right_image,453.3977089,-1,exp2.png,4,exp2.png,exp1.png,1,1,non-reversed,correct,0.862676943149407,1,valid_win,424.82956190000004,453.3984710000004,454.0110612999997,38,454.01108170000043,455.80865520000043,,,,,,,,,,,,,,,,,,,,sub_588,2024-11-20_14h56.00.835,Reversal,2023.2.1,60.087379066796764,4,2024-11-20 14h56.27.716789 +0200,
7,exp3.png,exp4.png,,3,0,3,0,0,7,7,7,,,,,,,,,,,,,,,,,,,,,,,,,455.98198030000003,,,,,,,,,,,,455.80946029999996,455.8103761000002,455.81043320000026,False,67,68,True,exp4.png,exp3.png,trial_left_image,458.1950880000004,1,exp4.png,4,exp4.png,exp3.png,1,3,reversed,correct,0.9162015185415404,1,valid_win,429.6266235999992,458.1955324999999,458.8100497000005,39,458.8100833999997,460.6082556000001,,,,,,,,,,,,,,,,,,,,sub_588,2024-11-20_14h56.00.835,Reversal,2023.2.1,60.087379066796764,4,2024-11-20 14h56.27.716789 +0200,
8,exp1.png,exp2.png,,3,0,3,0,0,8,8,8,,,,,,,,,,,,,,,,,,,,,,,,,460.8370182999997,,,,,,,,,,,,460.6092888000003,460.61049120000007,460.6105413000005,False,68,69,True,exp2.png,exp1.png,trial_left_image,463.67784779999965,1,exp2.png,4,exp2.png,exp1.png,1,1,non-reversed,correct,0.4148749270354738,1,valid_win,435.10937379999996,463.6782656000005,464.29304890000003,40,464.29307700000027,466.0907901999999,,,,,,,,,,,,,,,,,,,,sub_588,2024-11-20_14h56.00.835,Reversal,2023.2.1,60.087379066796764,4,2024-11-20 14h56.27.716789 +0200,
9,exp3.png,exp4.png,,3,0,3,0,0,9,9,9,,,,,,,,,,,,,,,,,,,,,,,,,466.2484175999998,,,,,,,,,,,,466.0918087,466.0928307000004,466.0928796999997,False,69,70,True,exp4.png,exp3.png,trial_left_image,468.0115526999998,1,exp4.png,4,exp4.png,exp3.png,1,3,reversed,correct,0.6031305709653352,1,valid_win,439.44321469999977,468.0121127000002,468.6260019000001,41,468.6260312000004,470.4235644999999,,,,,,,,,,,,,,,,,,,,sub_588,2024-11-20_14h56.00.835,Reversal,2023.2.1,60.087379066796764,4,2024-11-20 14h56.27.716789 +0200,
10,exp1.png,exp2.png,,3,0,3,0,0,10,10,10,,,,,,,,,,,,,,,,,,,,,,,,,470.5700843000004,,,,,,,,,,,,470.4243449000005,470.4251142000003,470.42515379999986,False,70,71,False,exp1.png,exp2.png,trial_right_image,472.5433316999997,-1,exp2.png,4,exp2.png,exp1.png,1,1,non-reversed,correct,0.7695820207900809,1,valid_win,443.9748701999997,472.54376130000037,473.1582279000004,42,473.1582546999998,474.9564513000005,,,,,,,,,,,,,,,,,,,,sub_588,2024-11-20_14h56.00.835,Reversal,2023.2.1,60.087379066796764,4,2024-11-20 14h56.27.716789 +0200,
11,exp3.png,exp4.png,,3,0,3,0,0,11,11,11,,,,,,,,,,,,,,,,,,,,,,,,,475.1058223,,,,,,,,,,,,474.95738789999996,474.95852130000003,474.9585704000001,False,71,72,False,exp3.png,exp4.png,trial_right_image,476.8270067000003,-1,exp4.png,4,exp4.png,exp3.png,1,3,reversed,correct,0.5759440205894362,1,valid_win,448.2586001999998,476.82749539999986,477.44095930000003,43,477.44098589999976,479.23869840000043,,,,,,,,,,,,,,,,,,,,sub_588,2024-11-20_14h56.00.835,Reversal,2023.2.1,60.087379066796764,4,2024-11-20 14h56.27.716789 +0200,
12,exp1.png,exp2.png,,3,0,3,0,0,12,12,12,,,,,,,,,,,,,,,,,,,,,,,,,479.38221520000025,,,,,,,,,,,,479.2392225000003,479.2398922000002,479.23991920000026,False,72,73,False,exp1.png,exp2.png,trial_right_image,481.642734,-1,exp2.png,4,exp2.png,exp1.png,1,1,non-reversed,correct,0.8677189698338268,1,valid_win,453.0743941999999,481.6432918999999,482.2567439000004,44,482.2567706,484.05533860000014,,,,,,,,,,,,,,,,,,,,sub_588,2024-11-20_14h56.00.835,Reversal,2023.2.1,60.087379066796764,4,2024-11-20 14h56.27.716789 +0200,
13,exp3.png,exp4.png,,3,0,3,0,0,13,13,13,,,,,,,,,,,,,,,,,,,,,,,,,484.2081151000002,,,,,,,,,,,,484.0561912000003,484.0572441000004,484.0572911999998,False,73,74,False,exp3.png,exp4.png,trial_right_image,485.84182950000013,-1,exp4.png,4,exp4.png,exp3.png,1,3,reversed,correct,0.3716421897351714,1,valid_win,457.27326959999937,485.8421570999999,486.45663239999976,45,486.45666100000017,488.2547648,,,,,,,,,,,,,,,,,,,,sub_588,2024-11-20_14h56.00.835,Reversal,2023.2.1,60.087379066796764,4,2024-11-20 14h56.27.716789 +0200,
14,exp1.png,exp2.png,,3,0,3,0,0,14,14,14,,,,,,,,,,,,,,,,,,,,,,,,,488.3971147000002,,,,,,,,,,,,488.25564719999966,488.2568361000003,488.2568849999998,False,74,75,True,exp2.png,exp1.png,trial_left_image,490.47428500000024,1,exp2.png,4,exp2.png,exp1.png,1,1,non-reversed,correct,0.7966677903850874,1,valid_win,461.9058318999996,490.4747229000004,491.08922359999997,46,491.0892457,492.8879304000002,,,,,,,,,,,,,,,,,,,,sub_588,2024-11-20_14h56.00.835,Reversal,2023.2.1,60.087379066796764,4,2024-11-20 14h56.27.716789 +0200,
15,exp3.png,exp4.png,,3,0,3,0,0,15,15,15,,,,,,,,,,,,,,,,,,,,,,,,,493.0504976000002,,,,,,,,,,,,492.8890207000004,492.8902245999998,492.89027739999983,False,75,76,True,exp4.png,exp3.png,trial_left_image,494.85739339999964,1,exp4.png,4,exp4.png,exp3.png,1,3,reversed,correct,0.2695837275919899,1,valid_win,466.2889129999994,494.8578053000001,495.4719563999997,47,495.47197659999983,497.2700568,,,,,,,,,,,,,,,,,,,,sub_588,2024-11-20_14h56.00.835,Reversal,2023.2.1,60.087379066796764,4,2024-11-20 14h56.27.716789 +0200,
16,exp1.png,exp2.png,,3,0,3,0,0,16,16,16,,,,,,,,,,,,,,,,,,,,,,,,,497.42293400000017,,,,,,,,,,,,497.2710194000001,497.27209440000024,497.2721422000004,False,76,77,True,exp2.png,exp1.png,trial_left_image,499.37324499999977,1,exp2.png,4,exp2.png,exp1.png,1,1,non-reversed,correct,0.2243959076785842,0,invalid_lose,470.80476029999954,499.37365190000037,499.9882195,47,499.9882512000004,501.78603360000034,,,,,,,,,,,,,,,,,,,,sub_588,2024-11-20_14h56.00.835,Reversal,2023.2.1,60.087379066796764,4,2024-11-20 14h56.27.716789 +0200,
17,exp3.png,exp4.png,,3,0,3,0,0,17,17,17,,,,,,,,,,,,,,,,,,,,,,,,,501.93132570000034,,,,,,,,,,,,501.7865850999997,501.7872397000001,501.78726819999974,False,77,78,False,exp3.png,exp4.png,trial_right_image,504.47273870000026,-1,exp4.png,4,exp4.png,exp3.png,1,3,reversed,correct,0.06828762697148794,0,invalid_lose,475.9043802999995,504.4732775000002,505.08738790000007,47,505.0874199,506.8854226000003,,,,,,,,,,,,,,,,,,,,sub_588,2024-11-20_14h56.00.835,Reversal,2023.2.1,60.087379066796764,4,2024-11-20 14h56.27.716789 +0200,
18,exp1.png,exp2.png,,3,0,3,0,0,18,18,18,,,,,,,,,,,,,,,,,,,,,,,,,507.0244124999999,,,,,,,,,,,,506.8859940000002,506.8866773,506.8867055999999,False,78,79,True,exp2.png,exp1.png,trial_left_image,509.8047569999999,1,exp2.png,4,exp2.png,exp1.png,1,1,non-reversed,correct,0.3284280546654068,1,valid_win,481.2361846999993,509.80507020000005,510.42063510000025,48,510.4206624999997,512.2183485000005,,,,,,,,,,,,,,,,,,,,sub_588,2024-11-20_14h56.00.835,Reversal,2023.2.1,60.087379066796764,4,2024-11-20 14h56.27.716789 +0200,
19,exp3.png,exp4.png,,3,0,3,0,0,19,19,19,,,,,,,,,,,,,,,,,,,,,,,,,512.3738752999998,,,,,,,,,,,,512.2193515999998,512.2205217999999,512.2205782000001,False,79,80,False,exp3.png,exp4.png,trial_right_image,514.3706245000003,-1,exp4.png,4,exp4.png,exp3.png,1,3,reversed,correct,0.9550292493525875,1,valid_win,485.8019918,514.3708782000003,514.9862450999999,49,514.9862885000002,516.7844758000001,,,,,,,,,,,,,,,,,,,,sub_588,2024-11-20_14h56.00.835,Reversal,2023.2.1,60.087379066796764,4,2024-11-20 14h56.27.716789 +0200,
20,exp1.png,exp2.png,,3,0,3,0,0,20,20,20,,,,,,,,,,,,,,,,,,,,,,,,,516.9793560999997,,,,,,,,,,,,516.7854499000005,516.7864737,516.7865251000003,True,,,,,,,516.8745612000002,,,,,,,,,,,,,,516.8745759000003,516.8873917999999,,516.8874083000001,516.9044389000001,,,,,,,,,,,,,,,,,,,,sub_588,2024-11-20_14h56.00.835,Reversal,2023.2.1,60.087379066796764,4,2024-11-20 14h56.27.716789 +0200,
,,,exp1.png,3,0,3,0,,,,,0,0,0,0,0,0,0,0,,,,,,,,,,,,,,,,,516.9793560999997,,,,,,,,,,,,,,,,,,,,,,,,,,,,,,,,,,,,,,,,,516.9120288000004,516.9793560999997,522.5916131000004,10.0,10.0,3.742903999999726,"[(10.0, 3.742903999999726)]",,,,,,,,,,,,,sub_588,2024-11-20_14h56.00.835,Reversal,2023.2.1,60.087379066796764,4,2024-11-20 14h56.27.716789 +0200,
,,,exp2.png,3,0,3,0,,,,,0,0,0,0,0,1,1,1,,,,,,,,,,,,,,,,,522.6593035000005,,,,,,,,,,,,,,,,,,,,,,,,,,,,,,,,,,,,,,,,,522.5928160000003,522.6593035000005,527.1903878000003,,95.0,3.281329200000073,"[(95.0, 3.281329200000073)]",,,95.0,,,,,,,,,,sub_588,2024-11-20_14h56.00.835,Reversal,2023.2.1,60.087379066796764,4,2024-11-20 14h56.27.716789 +0200,
,,,exp3.png,3,0,3,0,,,,,0,0,0,0,0,2,2,2,,,,,,,,,,,,,,,,,527.2614156,,,,,,,,,,,,,,,,,,,,,,,,,,,,,,,,,,,,,,,,,527.1912844999997,527.2614156,530.9899936000002,,5.0,2.41575499999999,"[(5.0, 2.41575499999999)]",5.0,,,,,,,,,,,,sub_588,2024-11-20_14h56.00.835,Reversal,2023.2.1,60.087379066796764,4,2024-11-20 14h56.27.716789 +0200,
,,,exp4.png,3,0,3,0,,,,,0,0,0,0,0,3,3,3,,,,,,,,,,,,,,,,,531.0557863000004,,,,,,,,,,,,,,,,,,,,,,,,,,,,,,,,,,,,,,,,,530.9907252000003,531.0557863000004,535.4546538000004,,95.0,3.232205599999361,"[(95.0, 3.232205599999361)]",,95.0,,,,,,,,,,,sub_588,2024-11-20_14h56.00.835,Reversal,2023.2.1,60.087379066796764,4,2024-11-20 14h56.27.716789 +0200,
0,exp1.png,exp2.png,,,,,,,,,,,,,,,,,,0,0,0,0,0,0,0,0,,,,,,,,,535.5860543999997,,,,,,,,,,,,,,535.4663876000004,False,0,81,False,exp1.png,exp2.png,trial_left_image,542.0845300999999,1,exp1.png,4,exp2.png,exp1.png,0,2,non-reversed,incorrect,0.3731250510437094,0,valid_lose,513.5161441,542.0850419999997,542.6989677000001,49,542.6989825,544.4977293000002,,,,,,,,,,,535.4654792000001,535.4663593000005,506.95933819999937,,,,,,,sub_588,2024-11-20_14h56.00.835,Reversal,2023.2.1,60.087379066796764,4,2024-11-20 14h56.27.716789 +0200,
1,exp3.png,exp4.png,,,,,,,,,,,,,,,,,,0,0,0,0,0,1,1,1,,,,,,,,,544.6511508000003,,,,,,,,,,,,,,544.4998120999999,False,1,82,True,exp4.png,exp3.png,trial_right_image,546.3508014999998,-1,exp3.png,4,exp3.png,exp4.png,0,4,reversed,correct,0.5983513312230134,1,valid_win,517.782537,546.3514415999998,546.9652919999999,50,546.9653200000002,548.7632117000003,,,,,,,,,,,544.4986529999996,544.4997407999999,,,,,,,,sub_588,2024-11-20_14h56.00.835,Reversal,2023.2.1,60.087379066796764,4,2024-11-20 14h56.27.716789 +0200,
2,exp1.png,exp2.png,,,,,,,,,,,,,,,,,,0,0,0,0,0,2,2,2,,,,,,,,,548.9144232999997,,,,,,,,,,,,,,548.7647966000004,False,2,83,True,exp2.png,exp1.png,trial_right_image,550.7007825999999,-1,exp1.png,4,exp2.png,exp1.png,0,2,non-reversed,incorrect,0.3205156548352436,0,valid_lose,522.1324145999997,550.7013118000004,551.3148687000003,50,551.3149149999999,553.1130589000004,,,,,,,,,,,548.7638895999999,548.7647577999996,,,,,,,,sub_588,2024-11-20_14h56.00.835,Reversal,2023.2.1,60.087379066796764,4,2024-11-20 14h56.27.716789 +0200,
3,exp3.png,exp4.png,,,,,,,,,,,,,,,,,,0,0,0,0,0,3,3,3,,,,,,,,,553.2699898999999,,,,,,,,,,,,,,553.1152400999999,False,3,84,True,exp4.png,exp3.png,trial_right_image,555.0329674000004,-1,exp3.png,4,exp3.png,exp4.png,0,4,reversed,correct,0.9226735438636469,1,valid_win,526.4645015999995,555.0333928999999,555.6478973000003,51,555.6479156000005,557.4454283000005,,,,,,,,,,,553.1139681000004,553.1151712000001,,,,,,,,sub_588,2024-11-20_14h56.00.835,Reversal,2023.2.1,60.087379066796764,4,2024-11-20 14h56.27.716789 +0200,
4,exp1.png,exp2.png,,,,,,,,,,,,,,,,,,0,0,0,0,0,4,4,4,,,,,,,,,557.5820825999999,,,,,,,,,,,,,,557.4465295,False,4,85,True,exp2.png,exp1.png,trial_right_image,559.7318946000005,-1,exp1.png,4,exp2.png,exp1.png,0,2,non-reversed,incorrect,0.6997229081176307,0,valid_lose,531.1635020999993,559.7323999,560.3471760000002,51,560.3472250000004,562.1453592999997,,,,,,,,,,,557.4458836000003,557.4464960000005,,,,,,,,sub_588,2024-11-20_14h56.00.835,Reversal,2023.2.1,60.087379066796764,4,2024-11-20 14h56.27.716789 +0200,
5,exp3.png,exp4.png,,,,,,,,,,,,,,,,,,0,0,0,0,0,5,5,5,,,,,,,,,562.3053588000002,,,,,,,,,,,,,,562.1475907000004,False,5,86,False,exp3.png,exp4.png,trial_left_image,564.1819449000004,1,exp3.png,4,exp3.png,exp4.png,0,4,reversed,correct,0.6507942957494719,1,valid_win,535.6136057999993,564.1825031999997,564.7963464000004,52,564.7963710000004,566.5946168,,,,,,,,,,,562.1463726000002,562.1475326999998,,,,,,,,sub_588,2024-11-20_14h56.00.835,Reversal,2023.2.1,60.087379066796764,4,2024-11-20 14h56.27.716789 +0200,
6,exp1.png,exp2.png,,,,,,,,,,,,,,,,,,0,0,0,0,0,6,6,6,,,,,,,,,566.7412402999998,,,,,,,,,,,,,,566.5967323000004,False,6,87,True,exp2.png,exp1.png,trial_left_image,569.4478570000001,1,exp2.png,4,exp2.png,exp1.png,1,1,non-reversed,correct,0.6434286273284543,1,valid_win,540.8794113999993,569.4483056999998,570.0629828000001,53,570.0630313000001,571.8602083000005,,,,,,,,,,,566.5955120999997,566.5966791999999,,,,,,,,sub_588,2024-11-20_14h56.00.835,Reversal,2023.2.1,60.087379066796764,4,2024-11-20 14h56.27.716789 +0200,
7,exp3.png,exp4.png,,,,,,,,,,,,,,,,,,0,0,0,0,0,7,7,7,,,,,,,,,572.0115817000005,,,,,,,,,,,,,,571.8614567000004,False,7,88,False,exp3.png,exp4.png,trial_right_image,575.2148956000001,-1,exp4.png,4,exp3.png,exp4.png,1,3,reversed,incorrect,0.6825305546420327,0,valid_lose,546.6467352,575.2156432000002,575.8288051,53,575.8288285999997,577.6264081999998,,,,,,,,,,,571.8607682000002,571.8614170000001,,,,,,,,sub_588,2024-11-20_14h56.00.835,Reversal,2023.2.1,60.087379066796764,4,2024-11-20 14h56.27.716789 +0200,
8,exp1.png,exp2.png,,,,,,,,,,,,,,,,,,0,0,0,0,0,8,8,8,,,,,,,,,577.7782778999999,,,,,,,,,,,,,,577.6283383999998,False,8,89,True,exp2.png,exp1.png,trial_left_image,580.8130204999998,1,exp2.png,4,exp2.png,exp1.png,1,1,non-reversed,correct,0.586493076203308,1,valid_win,552.2446289999998,580.8135301000002,581.4280645999997,54,581.4281081999998,583.2260385999998,,,,,,,,,,,577.6272907000002,577.6282873,,,,,,,,sub_588,2024-11-20_14h56.00.835,Reversal,2023.2.1,60.087379066796764,4,2024-11-20 14h56.27.716789 +0200,
9,exp3.png,exp4.png,,,,,,,,,,,,,,,,,,0,0,0,0,0,9,9,9,,,,,,,,,583.3812306,,,,,,,,,,,,,,583.2281156999998,False,9,90,True,exp4.png,exp3.png,trial_right_image,585.6454479000004,-1,exp3.png,4,exp3.png,exp4.png,0,4,reversed,correct,0.697813117641744,1,valid_win,557.0770001999999,585.6458918999997,586.2605764999998,55,586.26062,588.0589232000002,,,,,,,,,,,583.2269979000002,583.2280649000004,,,,,,,,sub_588,2024-11-20_14h56.00.835,Reversal,2023.2.1,60.087379066796764,4,2024-11-20 14h56.27.716789 +0200,
10,exp1.png,exp2.png,,,,,,,,,,,,,,,,,,0,0,0,0,0,10,10,10,,,,,,,,,588.2112287,,,,,,,,,,,,,,588.0609746,False,10,91,True,exp2.png,exp1.png,trial_left_image,591.5782802000003,1,exp2.png,4,exp2.png,exp1.png,1,1,non-reversed,correct,0.5086462249874867,1,valid_win,563.0098153999998,591.5787074,592.1935647,56,592.1935977000003,593.9905782000005,,,,,,,,,,,588.0598087999997,588.0609218999998,,,,,,,,sub_588,2024-11-20_14h56.00.835,Reversal,2023.2.1,60.087379066796764,4,2024-11-20 14h56.27.716789 +0200,
11,exp3.png,exp4.png,,,,,,,,,,,,,,,,,,0,0,0,0,0,11,11,11,,,,,,,,,594.1502984999997,,,,,,,,,,,,,,593.9917390999999,False,11,92,False,exp3.png,exp4.png,trial_left_image,596.3440019999998,1,exp3.png,4,exp3.png,exp4.png,0,4,reversed,correct,0.6719885837052656,1,valid_win,567.7755462999994,596.3444378000004,596.9592541000002,57,596.9592817000002,598.7567343000001,,,,,,,,,,,593.9910956000003,593.9917084999997,,,,,,,,sub_588,2024-11-20_14h56.00.835,Reversal,2023.2.1,60.087379066796764,4,2024-11-20 14h56.27.716789 +0200,
12,exp1.png,exp2.png,,,,,,,,,,,,,,,,,,0,0,0,0,0,12,12,12,,,,,,,,,598.8910072999997,,,,,,,,,,,,,,598.7578186000001,False,12,93,False,exp1.png,exp2.png,trial_right_image,601.4936038000005,-1,exp2.png,4,exp2.png,exp1.png,1,1,non-reversed,correct,0.5314176502278475,1,valid_win,572.9252289999995,601.4941269999999,602.1092663,58,602.1092858000002,603.9063917000003,,,,,,,,,,,598.7572545000003,598.7577871000003,,,,,,,,sub_588,2024-11-20_14h56.00.835,Reversal,2023.2.1,60.087379066796764,4,2024-11-20 14h56.27.716789 +0200,
13,exp3.png,exp4.png,,,,,,,,,,,,,,,,,,0,0,0,0,0,13,13,13,,,,,,,,,604.0630068999999,,,,,,,,,,,,,,603.9083504999999,False,13,94,True,exp4.png,exp3.png,trial_right_image,606.0270370999997,-1,exp3.png,4,exp3.png,exp4.png,0,4,reversed,correct,0.7392320796845524,1,valid_win,577.4586611999994,606.0275579999998,606.6410007000004,59,606.6410335999999,608.4388353000004,,,,,,,,,,,603.9073023000001,603.9082988,,,,,,,,sub_588,2024-11-20_14h56.00.835,Reversal,2023.2.1,60.087379066796764,4,2024-11-20 14h56.27.716789 +0200,
14,exp1.png,exp2.png,,,,,,,,,,,,,,,,,,0,0,0,0,0,14,14,14,,,,,,,,,608.5848747,,,,,,,,,,,,,,608.440055,False,14,95,False,exp1.png,exp2.png,trial_right_image,612.4419383000004,-1,exp2.png,4,exp2.png,exp1.png,1,1,non-reversed,correct,0.2851606480549619,1,valid_win,583.8734887999999,612.4423808000001,613.0576327999997,60,613.0577198999999,614.8548625000003,,,,,,,,,,,608.4393688,608.4400242000002,,,,,,,,sub_588,2024-11-20_14h56.00.835,Reversal,2023.2.1,60.087379066796764,4,2024-11-20 14h56.27.716789 +0200,
15,exp3.png,exp4.png,,,,,,,,,,,,,,,,,,0,0,0,0,0,15,15,15,,,,,,,,,615.0136152000005,,,,,,,,,,,,,,614.8561511999997,False,15,96,False,exp3.png,exp4.png,trial_left_image,617.3424130000003,1,exp3.png,4,exp3.png,exp4.png,0,4,reversed,correct,0.3507516489235857,1,valid_win,588.7740733,617.3429818000004,617.9564949000005,61,617.9565388999999,619.7545633,,,,,,,,,,,614.8554122000005,614.8561207000002,,,,,,,,sub_588,2024-11-20_14h56.00.835,Reversal,2023.2.1,60.087379066796764,4,2024-11-20 14h56.27.716789 +0200,
16,exp1.png,exp2.png,,,,,,,,,,,,,,,,,,0,0,0,0,0,16,16,16,,,,,,,,,619.9012008999998,,,,,,,,,,,,,,619.7565886000002,False,16,97,False,exp1.png,exp2.png,trial_right_image,622.0583665000004,-1,exp2.png,4,exp2.png,exp1.png,1,1,non-reversed,correct,0.0505172696980517,0,invalid_lose,593.4902084999994,622.0591218,622.6725441999997,61,622.6725723,624.4706112000003,,,,,,,,,,,619.7554829999999,619.7565366999997,,,,,,,,sub_588,2024-11-20_14h56.00.835,Reversal,2023.2.1,60.087379066796764,4,2024-11-20 14h56.27.716789 +0200,
17,exp3.png,exp4.png,,,,,,,,,,,,,,,,,,0,0,0,0,0,17,17,17,,,,,,,,,624.6265292999997,,,,,,,,,,,,,,624.4728112000003,False,17,98,False,exp3.png,exp4.png,trial_left_image,627.3903301999999,1,exp3.png,4,exp3.png,exp4.png,0,4,reversed,correct,0.4007797001048652,1,valid_win,598.8219478999999,627.3908455000001,628.0053429,62,628.0053857000003,629.8027917,,,,,,,,,,,624.4716095000003,624.4727525999997,,,,,,,,sub_588,2024-11-20_14h56.00.835,Reversal,2023.2.1,60.087379066796764,4,2024-11-20 14h56.27.716789 +0200,
18,exp1.png,exp2.png,,,,,,,,,,,,,,,,,,0,0,0,0,0,18,18,18,,,,,,,,,629.9412481999998,,,,,,,,,,,,,,629.8040375999999,False,18,99,True,exp2.png,exp1.png,trial_left_image,632.2116728000001,1,exp2.png,4,exp2.png,exp1.png,1,1,non-reversed,correct,0.9732845972485585,1,valid_win,603.6430062999998,632.211886,632.8215495000004,63,632.8216334999997,634.6194264000005,,,,,,,,,,,629.8033329,629.8039895000002,,,,,,,,sub_588,2024-11-20_14h56.00.835,Reversal,2023.2.1,60.087379066796764,4,2024-11-20 14h56.27.716789 +0200,
19,exp3.png,exp4.png,,,,,,,,,,,,,,,,,,0,0,0,0,0,19,19,19,,,,,,,,,634.7683425000005,,,,,,,,,,,,,,634.6215504000002,False,19,100,False,exp3.png,exp4.png,trial_left_image,637.0054601000002,1,exp3.png,4,exp3.png,exp4.png,0,4,reversed,correct,0.6913532592293854,1,valid_win,608.4370074999997,637.0058993000002,637.6208605000002,64,637.6208876000001,639.4191977999999,,,,,,,,,,,634.6203824000004,634.6214946999999,,,,,,,,sub_588,2024-11-20_14h56.00.835,Reversal,2023.2.1,60.087379066796764,4,2024-11-20 14h56.27.716789 +0200,
20,exp1.png,exp2.png,,,,,,,,,,,,,,,,,,0,0,0,0,0,20,20,20,,,,,,,,,639.6151925000004,,,,,,,,,,,,,,639.4214168999997,True,,,,,,,639.5105807999998,,,,,,,,,,,,,,639.5105959000002,639.5230167,,639.5230331000002,639.5406509000004,,,,,,,,,,,639.4202274999998,639.4213583999999,,,,,,,,sub_588,2024-11-20_14h56.00.835,Reversal,2023.2.1,60.087379066796764,4,2024-11-20 14h56.27.716789 +0200,
,,,exp1.png,,,,,,,,,,,,,,,,,0,0,0,0,,,,,0,0,0,0,0,0,0,0,639.6151925000004,,,,,,,,,,,,,,,,,,,,,,,,,,,,,,,,,,,,,,,,,639.5479465999997,639.6151925000004,645.4163879999996,6.0,6.0,4.516216799999711,"[(6.0, 4.516216799999711)]",,,,,,,,,,,,,sub_588,2024-11-20_14h56.00.835,Reversal,2023.2.1,60.087379066796764,4,2024-11-20 14h56.27.716789 +0200,
,,,exp2.png,,,,,,,,,,,,,,,,,0,0,0,0,,,,,0,0,0,0,0,1,1,1,645.4942602000001,,,,,,,,,,,,,,,,,,,,,,,,,,,,,,,,,,,,,,,,,645.4188838999999,645.4942602000001,653.6059132999999,,95.0,7.076543900000615,"[(94.0, 3.1120691000005536), (96.0, 4.480743600000096), (95.0, 7.076543900000615)]",,,95.0,,,,,,,,,,sub_588,2024-11-20_14h56.00.835,Reversal,2023.2.1,60.087379066796764,4,2024-11-20 14h56.27.716789 +0200,
,,,exp3.png,,,,,,,,,,,,,,,,,0,0,0,0,,,,,0,0,0,0,0,2,2,2,653.6763087999998,,,,,,,,,,,,,,,,,,,,,,,,,,,,,,,,,,,,,,,,,653.6064758000002,653.6763087999998,656.6062536,,100.0,1.833799099999851,"[(100.0, 1.833799099999851)]",100.0,,,,,,,,,,,,sub_588,2024-11-20_14h56.00.835,Reversal,2023.2.1,60.087379066796764,4,2024-11-20 14h56.27.716789 +0200,
,,,exp4.png,,,,,,,,,,,,,,,,,0,0,0,0,,,,,0,0,0,0,0,3,3,3,656.6748739000004,,,,,,,,,,,,,,,,,,,,,,,,,,,,,,,,,,,,,,,,,656.6070320999997,656.6748739000004,660.3901599999999,,2.0,2.7235789999995177,"[(2.0, 2.7235789999995177)]",,2.0,,,,,,,,,,,sub_588,2024-11-20_14h56.00.835,Reversal,2023.2.1,60.087379066796764,4,2024-11-20 14h56.27.716789 +0200,
0,exp1.png,exp2.png,,,,,,,,,,,,,,,,,,1,0,1,0,0,0,0,0,,,,,,,,,660.5464322999997,,,,,,,,,,,,,,660.4047149999997,False,20,101,False,exp1.png,exp2.png,trial_left_image,667.0018949000005,1,exp1.png,4,exp2.png,exp1.png,0,2,non-reversed,incorrect,0.4754619371619453,0,valid_lose,638.4334051999995,667.0022973000005,667.6163392999997,64,667.6163660000002,669.4148720000003,,,,,,,,,,,660.4036727000002,660.4046780999997,,,,,,,,sub_588,2024-11-20_14h56.00.835,Reversal,2023.2.1,60.087379066796764,4,2024-11-20 14h56.27.716789 +0200,
1,exp3.png,exp4.png,,,,,,,,,,,,,,,,,,1,0,1,0,0,1,1,1,,,,,,,,,669.5694685999997,,,,,,,,,,,,,,669.4169118999998,False,21,102,True,exp4.png,exp3.png,trial_right_image,671.7349870999997,-1,exp3.png,4,exp3.png,exp4.png,0,4,reversed,correct,0.6233588189738126,1,valid_win,643.1665309999998,671.7354230000001,672.3500148000003,65,672.3500519999998,674.1478262,,,,,,,,,,,669.4157886000003,669.4168595000001,,,,,,,,sub_588,2024-11-20_14h56.00.835,Reversal,2023.2.1,60.087379066796764,4,2024-11-20 14h56.27.716789 +0200,
2,exp1.png,exp2.png,,,,,,,,,,,,,,,,,,1,0,1,0,0,2,2,2,,,,,,,,,674.3219871000001,,,,,,,,,,,,,,674.1503006000003,False,22,103,False,exp1.png,exp2.png,trial_left_image,676.1169773000001,1,exp1.png,4,exp2.png,exp1.png,0,2,non-reversed,incorrect,0.17569164895108202,1,invalid_win,647.5484171999997,676.1173037999997,676.7319273000003,66,676.7319668999999,678.5307682000002,,,,,,,,,,,674.1489049000002,674.1502391000004,,,,,,,,sub_588,2024-11-20_14h56.00.835,Reversal,2023.2.1,60.087379066796764,4,2024-11-20 14h56.27.716789 +0200,
3,exp3.png,exp4.png,,,,,,,,,,,,,,,,,,1,0,1,0,0,3,3,3,,,,,,,,,678.6789722000003,,,,,,,,,,,,,,678.5330325000004,False,23,104,False,exp3.png,exp4.png,trial_left_image,680.6518370000003,1,exp3.png,4,exp3.png,exp4.png,0,4,reversed,correct,0.8560840095303239,1,valid_win,652.0836427999993,680.6525496000004,681.2647131000003,67,681.2647352000004,683.0628735,,,,,,,,,,,678.5318286000002,678.5329735000005,,,,,,,,sub_588,2024-11-20_14h56.00.835,Reversal,2023.2.1,60.087379066796764,4,2024-11-20 14h56.27.716789 +0200,
4,exp1.png,exp2.png,,,,,,,,,,,,,,,,,,1,0,1,0,0,4,4,4,,,,,,,,,683.2246919999998,,,,,,,,,,,,,,683.0650119000002,False,24,105,True,exp2.png,exp1.png,trial_right_image,685.2997479000005,-1,exp1.png,4,exp2.png,exp1.png,0,2,non-reversed,incorrect,0.46877018778133206,0,valid_lose,656.7313304999998,685.3002238999998,685.9144779999997,67,685.9145058000004,687.7122686000002,,,,,,,,,,,683.0637808000001,683.0649289000003,,,,,,,,sub_588,2024-11-20_14h56.00.835,Reversal,2023.2.1,60.087379066796764,4,2024-11-20 14h56.27.716789 +0200,
5,exp3.png,exp4.png,,,,,,,,,,,,,,,,,,1,0,1,0,0,5,5,5,,,,,,,,,687.8597271999997,,,,,,,,,,,,,,687.7143180000003,False,25,106,True,exp4.png,exp3.png,trial_right_image,690.2673639000004,-1,exp3.png,4,exp3.png,exp4.png,0,4,reversed,correct,0.4809649377471318,1,valid_win,661.6995027999992,690.2684283999997,690.8800526000005,68,690.8800848999999,692.6782178000003,,,,,,,,,,,687.7132649000005,687.7142661999997,,,,,,,,sub_588,2024-11-20_14h56.00.835,Reversal,2023.2.1,60.087379066796764,4,2024-11-20 14h56.27.716789 +0200,
6,exp1.png,exp2.png,,,,,,,,,,,,,,,,,,1,0,1,0,0,6,6,6,,,,,,,,,692.8270757999999,,,,,,,,,,,,,,692.6797813000003,False,26,107,False,exp1.png,exp2.png,trial_left_image,694.5482067000003,1,exp1.png,4,exp2.png,exp1.png,0,2,non-reversed,incorrect,0.3134300299228069,0,valid_lose,665.9797246999997,694.5486166000001,695.1629891000002,68,695.1630102999998,696.9614947999999,,,,,,,,,,,692.6789048999999,692.6797329999999,,,,,,,,sub_588,2024-11-20_14h56.00.835,Reversal,2023.2.1,60.087379066796764,4,2024-11-20 14h56.27.716789 +0200,
7,exp3.png,exp4.png,,,,,,,,,,,,,,,,,,1,0,1,0,0,7,7,7,,,,,,,,,697.1122313000005,,,,,,,,,,,,,,696.9636632000002,False,27,108,False,exp3.png,exp4.png,trial_left_image,699.9477163000001,1,exp3.png,4,exp3.png,exp4.png,0,4,reversed,correct,0.3541306186866163,1,valid_win,671.3793690999992,699.9482687,700.5628305,69,700.5628574000002,702.3603764999998,,,,,,,,,,,696.9624972000001,696.9636042000002,,,,,,,,sub_588,2024-11-20_14h56.00.835,Reversal,2023.2.1,60.087379066796764,4,2024-11-20 14h56.27.716789 +0200,
8,exp1.png,exp2.png,,,,,,,,,,,,,,,,,,1,0,1,0,0,8,8,8,,,,,,,,,702.5049920000001,,,,,,,,,,,,,,702.3622187999999,False,28,109,False,exp1.png,exp2.png,trial_left_image,705.2312154000001,1,exp1.png,4,exp2.png,exp1.png,0,2,non-reversed,incorrect,0.4510430240098754,0,valid_lose,676.6630069999992,705.2319113000003,705.8452238999998,69,705.845241,707.6430122000002,,,,,,,,,,,702.3611860999999,702.3621734999997,,,,,,,,sub_588,2024-11-20_14h56.00.835,Reversal,2023.2.1,60.087379066796764,4,2024-11-20 14h56.27.716789 +0200,
9,exp3.png,exp4.png,,,,,,,,,,,,,,,,,,1,0,1,0,0,9,9,9,,,,,,,,,707.7955332000001,,,,,,,,,,,,,,707.6451609000005,False,29,110,True,exp4.png,exp3.png,trial_right_image,710.4293301999996,-1,exp3.png,4,exp3.png,exp4.png,0,4,reversed,correct,0.9264145128246317,1,valid_win,681.8608654999998,710.4297566000005,711.0442223,70,711.0442553000003,712.8426420000005,,,,,,,,,,,707.6439258,707.6451059000001,,,,,,,,sub_588,2024-11-20_14h56.00.835,Reversal,2023.2.1,60.087379066796764,4,2024-11-20 14h56.27.716789 +0200,
10,exp1.png,exp2.png,,,,,,,,,,,,,,,,,,1,0,1,0,0,10,10,10,,,,,,,,,712.9877386999997,,,,,,,,,,,,,,712.8447818000004,False,30,111,True,exp2.png,exp1.png,trial_left_image,718.1120763999998,1,exp2.png,4,exp2.png,exp1.png,1,1,non-reversed,correct,0.07840494749032523,0,invalid_lose,689.5437954999998,718.1126936000001,718.7265606000001,70,718.7265888000002,720.5245517000003,,,,,,,,,,,712.8436555999997,712.8447205000002,,,,,,,,sub_588,2024-11-20_14h56.00.835,Reversal,2023.2.1,60.087379066796764,4,2024-11-20 14h56.27.716789 +0200,
11,exp3.png,exp4.png,,,,,,,,,,,,,,,,,,1,0,1,0,0,11,11,11,,,,,,,,,720.6644509999996,,,,,,,,,,,,,,720.5259968,False,31,112,False,exp3.png,exp4.png,trial_left_image,723.0280167999999,1,exp3.png,4,exp3.png,exp4.png,0,4,reversed,correct,0.1588363522891575,0,invalid_lose,694.4595397999992,723.0284320000001,723.6425448,70,723.6425676999997,725.4409728,,,,,,,,,,,720.5252873999998,720.5259561000003,,,,,,,,sub_588,2024-11-20_14h56.00.835,Reversal,2023.2.1,60.087379066796764,4,2024-11-20 14h56.27.716789 +0200,
12,exp1.png,exp2.png,,,,,,,,,,,,,,,,,,1,0,1,0,0,12,12,12,,,,,,,,,725.5909704000005,,,,,,,,,,,,,,725.4429056999998,False,32,113,True,exp2.png,exp1.png,trial_left_image,728.5288718000002,1,exp2.png,4,exp2.png,exp1.png,1,1,non-reversed,correct,0.9929143152994088,1,valid_win,699.9607036999996,728.5296116999998,729.1418865000005,71,729.1419134999996,730.9398013999999,,,,,,,,,,,725.441855,725.4428542000005,,,,,,,,sub_588,2024-11-20_14h56.00.835,Reversal,2023.2.1,60.087379066796764,4,2024-11-20 14h56.27.716789 +0200,
13,exp3.png,exp4.png,,,,,,,,,,,,,,,,,,1,0,1,0,0,13,13,13,,,,,,,,,731.0904261000005,,,,,,,,,,,,,,730.9412911999998,False,33,114,True,exp4.png,exp3.png,trial_left_image,733.7937305000005,1,exp4.png,4,exp3.png,exp4.png,1,3,reversed,incorrect,0.5721341069660949,0,valid_lose,705.2252596999997,733.7941514000004,734.4083153000001,71,734.4083579999997,736.2060357,,,,,,,,,,,730.9404617,730.9412523000001,,,,,,,,sub_588,2024-11-20_14h56.00.835,Reversal,2023.2.1,60.087379066796764,4,2024-11-20 14h56.27.716789 +0200,
14,exp1.png,exp2.png,,,,,,,,,,,,,,,,,,1,0,1,0,0,14,14,14,,,,,,,,,736.3474158999998,,,,,,,,,,,,,,736.2079769000002,False,34,115,True,exp2.png,exp1.png,trial_right_image,738.5434955000001,-1,exp1.png,4,exp2.png,exp1.png,0,2,non-reversed,incorrect,0.38258308325768997,0,valid_lose,709.9752892999995,738.5441972999997,739.1578577,71,739.1578853999999,740.9556257000004,,,,,,,,,,,736.2069239000002,736.2079269000005,,,,,,,,sub_588,2024-11-20_14h56.00.835,Reversal,2023.2.1,60.087379066796764,4,2024-11-20 14h56.27.716789 +0200,
15,exp3.png,exp4.png,,,,,,,,,,,,,,,,,,1,0,1,0,0,15,15,15,,,,,,,,,741.1106941999997,,,,,,,,,,,,,,740.9576139999999,False,35,116,False,exp3.png,exp4.png,trial_left_image,743.4922005999997,1,exp3.png,4,exp3.png,exp4.png,0,4,reversed,correct,0.8428986756117057,1,valid_win,714.9238375999994,743.4927350999997,744.1067515000004,72,744.1067799000002,745.9045512000002,,,,,,,,,,,740.9565228000001,740.9575602000004,,,,,,,,sub_588,2024-11-20_14h56.00.835,Reversal,2023.2.1,60.087379066796764,4,2024-11-20 14h56.27.716789 +0200,
16,exp1.png,exp2.png,,,,,,,,,,,,,,,,,,1,0,1,0,0,16,16,16,,,,,,,,,746.0445660000005,,,,,,,,,,,,,,745.9059533999998,False,36,117,True,exp2.png,exp1.png,trial_right_image,748.9416467000001,-1,exp1.png,4,exp2.png,exp1.png,0,2,non-reversed,incorrect,0.8146407398887959,0,valid_lose,720.3732777999994,748.9421940000002,749.5560495999998,72,749.5560764000002,751.3543314999997,,,,,,,,,,,745.9051799999997,745.9059064000003,,,,,,,,sub_588,2024-11-20_14h56.00.835,Reversal,2023.2.1,60.087379066796764,4,2024-11-20 14h56.27.716789 +0200,
17,exp3.png,exp4.png,,,,,,,,,,,,,,,,,,1,0,1,0,0,17,17,17,,,,,,,,,751.5017727000004,,,,,,,,,,,,,,751.3566582000003,False,37,118,False,exp3.png,exp4.png,trial_left_image,753.8073912,1,exp3.png,4,exp3.png,exp4.png,0,4,reversed,correct,0.7018373433073044,1,valid_win,725.2389158999995,753.8078075000003,754.4220060999996,73,754.4220326000004,756.2203219000003,,,,,,,,,,,751.3554144,751.3566006000001,,,,,,,,sub_588,2024-11-20_14h56.00.835,Reversal,2023.2.1,60.087379066796764,4,2024-11-20 14h56.27.716789 +0200,
18,exp1.png,exp2.png,,,,,,,,,,,,,,,,,,1,0,1,0,0,18,18,18,,,,,,,,,756.3712469000002,,,,,,,,,,,,,,756.2224920999997,False,38,119,False,exp1.png,exp2.png,trial_right_image,758.7064490000002,-1,exp2.png,4,exp2.png,exp1.png,1,1,non-reversed,correct,0.3587387361086134,1,valid_win,730.1379783999992,758.7068706999999,759.3212476999997,74,759.3212742000005,761.1199568000002,,,,,,,,,,,756.2212522999998,756.2224415999999,,,,,,,,sub_588,2024-11-20_14h56.00.835,Reversal,2023.2.1,60.087379066796764,4,2024-11-20 14h56.27.716789 +0200,
19,exp3.png,exp4.png,,,,,,,,,,,,,,,,,,1,0,1,0,0,19,19,19,,,,,,,,,761.2703019999999,,,,,,,,,,,,,,761.1222386,False,39,120,True,exp4.png,exp3.png,trial_left_image,763.0568363000002,1,exp4.png,4,exp3.png,exp4.png,1,3,reversed,incorrect,0.937254249039779,0,valid_lose,734.4886812999994,763.0575906000004,763.6711139999998,74,763.6711463000001,765.4691739,,,,,,,,,,,761.1209797000001,761.1221807000002,,,,,,,,sub_588,2024-11-20_14h56.00.835,Reversal,2023.2.1,60.087379066796764,4,2024-11-20 14h56.27.716789 +0200,
20,exp1.png,exp2.png,,,,,,,,,,,,,,,,,,1,0,1,0,0,20,20,20,,,,,,,,,765.6718315999997,,,,,,,,,,,,,,765.4715079999996,True,,,,,,,765.5666585999998,,,,,,,,,,,,,,765.5666756,765.5795031999996,,765.5795194000002,765.5961232,,,,,,,,,,,765.4702222000005,765.4714364000001,,,,,,,,sub_588,2024-11-20_14h56.00.835,Reversal,2023.2.1,60.087379066796764,4,2024-11-20 14h56.27.716789 +0200,
,,,exp1.png,,,,,,,,,,,,,,,,,1,0,1,0,,,,,0,0,0,0,0,0,0,0,765.6718315999997,,,,,,,,,,,,,,,,,,,,,,,,,,,,,,,,,,,,,,,,,765.6042399999997,765.6718315999997,769.7596393000003,13.0,13.0,3.032604799999717,"[(13.0, 3.032604799999717)]",,,,,,,,,,,,,sub_588,2024-11-20_14h56.00.835,Reversal,2023.2.1,60.087379066796764,4,2024-11-20 14h56.27.716789 +0200,
,,,exp2.png,,,,,,,,,,,,,,,,,1,0,1,0,,,,,0,0,0,0,0,1,1,1,769.8286625000001,,,,,,,,,,,,,,,,,,,,,,,,,,,,,,,,,,,,,,,,,769.7608742000002,769.8286625000001,775.7922067999998,,None,None,[],,,,,,,,,,,,,sub_588,2024-11-20_14h56.00.835,Reversal,2023.2.1,60.087379066796764,4,2024-11-20 14h56.27.716789 +0200,
,,,exp3.png,,,,,,,,,,,,,,,,,1,0,1,0,,,,,0,0,0,0,0,2,2,2,775.8694570999996,,,,,,,,,,,,,,,,,,,,,,,,,,,,,,,,,,,,,,,,,775.7931309000005,775.8694570999996,779.9587591,,87.0,3.1747537000001103,"[(87.0, 3.1747537000001103)]",87.0,,,,,,,,,,,,sub_588,2024-11-20_14h56.00.835,Reversal,2023.2.1,60.087379066796764,4,2024-11-20 14h56.27.716789 +0200,
,,,exp4.png,,,,,,,,,,,,,,,,,1,0,1,0,,,,,0,0,0,0,0,3,3,3,780.0287688999997,,,,,,,,,,,,,,,,,,,,,,,,,,,,,,,,,,,,,,,,,779.9596429000003,780.0287688999997,782.8580577000002,,18.0,1.9514225000002625,"[(18.0, 1.9514225000002625)]",,18.0,,,,,,,,,,,sub_588,2024-11-20_14h56.00.835,Reversal,2023.2.1,60.087379066796764,4,2024-11-20 14h56.27.716789 +0200,
0,exp1.png,exp2.png,,,,,,,,,,,,,,,,,,2,0,2,0,0,0,0,0,,,,,,,,,782.9988086000003,,,,,,,,,,,,,,782.8769030000003,False,40,121,True,exp2.png,exp1.png,trial_left_image,793.3700417999999,1,exp2.png,4,exp2.png,exp1.png,1,1,non-reversed,correct,0.8232102597745735,1,valid_win,764.8017786,793.3706806999999,793.9838571,75,793.9838772000003,795.7831696000003,,,,,,,,,,,782.8756671000001,782.8768699000002,,,,,,,,sub_588,2024-11-20_14h56.00.835,Reversal,2023.2.1,60.087379066796764,4,2024-11-20 14h56.27.716789 +0200,
1,exp3.png,exp4.png,,,,,,,,,,,,,,,,,,2,0,2,0,0,1,1,1,,,,,,,,,795.932511,,,,,,,,,,,,,,795.7853486000004,False,41,122,True,exp4.png,exp3.png,trial_left_image,798.0852747999998,1,exp4.png,4,exp3.png,exp4.png,1,3,reversed,incorrect,0.01972781907024268,1,invalid_win,769.5168580999998,798.0857527999997,798.7002406000001,76,798.7002671,800.4984870999997,,,,,,,,,,,795.7841860999997,795.7852978999999,,,,,,,,sub_588,2024-11-20_14h56.00.835,Reversal,2023.2.1,60.087379066796764,4,2024-11-20 14h56.27.716789 +0200,
2,exp1.png,exp2.png,,,,,,,,,,,,,,,,,,2,0,2,0,0,2,2,2,,,,,,,,,800.6549025000004,,,,,,,,,,,,,,800.5004252999997,False,42,123,False,exp1.png,exp2.png,trial_right_image,803.3510093000004,-1,exp2.png,4,exp2.png,exp1.png,1,1,non-reversed,correct,0.13050061258458123,0,invalid_lose,774.7825445999997,803.3514367999996,803.9659483000005,76,803.9659751999998,805.7639386999999,,,,,,,,,,,800.4993695000003,800.5003724999997,,,,,,,,sub_588,2024-11-20_14h56.00.835,Reversal,2023.2.1,60.087379066796764,4,2024-11-20 14h56.27.716789 +0200,
3,exp3.png,exp4.png,,,,,,,,,,,,,,,,,,2,0,2,0,0,3,3,3,,,,,,,,,805.9040357000003,,,,,,,,,,,,,,805.7658576000003,False,43,124,False,exp3.png,exp4.png,trial_right_image,808.1503976000004,-1,exp4.png,4,exp3.png,exp4.png,1,3,reversed,incorrect,0.8864093981851902,0,valid_lose,779.5820375999992,808.1509349999997,808.7653975000003,76,808.7654245000003,810.5634124999997,,,,,,,,,,,805.7647972000004,805.7658062999999,,,,,,,,sub_588,2024-11-20_14h56.00.835,Reversal,2023.2.1,60.087379066796764,4,2024-11-20 14h56.27.716789 +0200,
4,exp1.png,exp2.png,,,,,,,,,,,,,,,,,,2,0,2,0,0,4,4,4,,,,,,,,,810.7089297000002,,,,,,,,,,,,,,810.5656476000004,False,44,125,False,exp1.png,exp2.png,trial_right_image,812.6989242,-1,exp2.png,4,exp2.png,exp1.png,1,1,non-reversed,correct,0.35269334099649985,1,valid_win,784.1303074999996,812.6991900000003,813.3150808999999,77,813.3151207999999,815.1125388,,,,,,,,,,,810.5643934,810.5655905000003,,,,,,,,sub_588,2024-11-20_14h56.00.835,Reversal,2023.2.1,60.087379066796764,4,2024-11-20 14h56.27.716789 +0200,
5,exp3.png,exp4.png,,,,,,,,,,,,,,,,,,2,0,2,0,0,5,5,5,,,,,,,,,815.2548433000002,,,,,,,,,,,,,,815.1141128999998,False,45,126,True,exp4.png,exp3.png,trial_left_image,817.6159478,1,exp4.png,4,exp3.png,exp4.png,1,3,reversed,incorrect,0.7771024492243781,0,valid_lose,789.0475887999992,817.6164902999999,818.2312306000003,77,818.2312738,820.0284842000001,,,,,,,,,,,815.1132280000002,815.1140746000001,,,,,,,,sub_588,2024-11-20_14h56.00.835,Reversal,2023.2.1,60.087379066796764,4,2024-11-20 14h56.27.716789 +0200,
6,exp1.png,exp2.png,,,,,,,,,,,,,,,,,,2,0,2,0,0,6,6,6,,,,,,,,,820.1743232999997,,,,,,,,,,,,,,820.0297252,False,46,127,False,exp1.png,exp2.png,trial_right_image,822.2821006000004,-1,exp2.png,4,exp2.png,exp1.png,1,1,non-reversed,correct,0.3336884229656487,1,valid_win,793.7138480999993,822.2827470000002,822.8967552000004,78,822.8967822000004,824.6949327000002,,,,,,,,,,,820.0290501999998,820.0296950000002,,,,,,,,sub_588,2024-11-20_14h56.00.835,Reversal,2023.2.1,60.087379066796764,4,2024-11-20 14h56.27.716789 +0200,
7,exp3.png,exp4.png,,,,,,,,,,,,,,,,,,2,0,2,0,0,7,7,7,,,,,,,,,824.8472155,,,,,,,,,,,,,,824.6975832999997,False,47,128,True,exp4.png,exp3.png,trial_left_image,826.6995979000003,1,exp4.png,4,exp3.png,exp4.png,1,3,reversed,incorrect,0.3512373261237396,0,valid_lose,798.1314362999992,826.7003444000002,827.3133876000002,78,827.3134325999999,829.1109729999998,,,,,,,,,,,824.6962132999997,824.6975259999999,,,,,,,,sub_588,2024-11-20_14h56.00.835,Reversal,2023.2.1,60.087379066796764,4,2024-11-20 14h56.27.716789 +0200,
8,exp1.png,exp2.png,,,,,,,,,,,,,,,,,,2,0,2,0,0,8,8,8,,,,,,,,,829.2641346,,,,,,,,,,,,,,829.1129134000003,False,48,129,True,exp2.png,exp1.png,trial_left_image,832.3482056000003,1,exp2.png,4,exp2.png,exp1.png,1,1,non-reversed,correct,0.9005731486295108,1,valid_win,803.7798352,832.3487322000001,832.9623123000001,79,832.9623391000005,834.7602675999997,,,,,,,,,,,829.1118766999998,829.1128473999997,,,,,,,,sub_588,2024-11-20_14h56.00.835,Reversal,2023.2.1,60.087379066796764,4,2024-11-20 14h56.27.716789 +0200,
9,exp3.png,exp4.png,,,,,,,,,,,,,,,,,,2,0,2,0,0,9,9,9,,,,,,,,,834.9111054000005,,,,,,,,,,,,,,834.7623935000001,False,49,130,False,exp3.png,exp4.png,trial_right_image,838.6965201000003,-1,exp4.png,4,exp3.png,exp4.png,1,3,reversed,incorrect,0.4009949348397044,0,valid_lose,810.1279657999994,838.6968530000004,839.3115336999999,79,839.3115600000001,841.1090181999998,,,,,,,,,,,834.7612311000003,834.7623421999997,,,,,,,,sub_588,2024-11-20_14h56.00.835,Reversal,2023.2.1,60.087379066796764,4,2024-11-20 14h56.27.716789 +0200,
10,exp1.png,exp2.png,,,,,,,,,,,,,,,,,,2,0,2,0,0,10,10,10,,,,,,,,,841.2657386999999,,,,,,,,,,,,,,841.1102939000002,False,50,131,True,exp2.png,exp1.png,trial_left_image,843.6643592,1,exp2.png,4,exp2.png,exp1.png,1,1,non-reversed,correct,0.7374971212063623,1,valid_win,815.0961574999992,843.6650672000005,844.2776202000005,80,844.2776419000002,846.0754551999999,,,,,,,,,,,841.1095923000003,841.1102644000002,,,,,,,,sub_588,2024-11-20_14h56.00.835,Reversal,2023.2.1,60.087379066796764,4,2024-11-20 14h56.27.716789 +0200,
11,exp3.png,exp4.png,,,,,,,,,,,,,,,,,,2,0,2,0,0,11,11,11,,,,,,,,,846.2316000999999,,,,,,,,,,,,,,846.0778077000004,False,51,132,True,exp4.png,exp3.png,trial_left_image,848.5786556000003,1,exp4.png,4,exp3.png,exp4.png,1,3,reversed,incorrect,0.7774372671748883,0,valid_lose,820.0102748999998,848.5792099,849.1929392000002,80,849.1929654000005,850.9910910999997,,,,,,,,,,,846.0765481999997,846.0777497999998,,,,,,,,sub_588,2024-11-20_14h56.00.835,Reversal,2023.2.1,60.087379066796764,4,2024-11-20 14h56.27.716789 +0200,
12,exp1.png,exp2.png,,,,,,,,,,,,,,,,,,2,0,2,0,0,12,12,12,,,,,,,,,851.1413687000004,,,,,,,,,,,,,,850.9927102000001,False,52,133,False,exp1.png,exp2.png,trial_right_image,853.0961582,-1,exp2.png,4,exp2.png,exp1.png,1,1,non-reversed,correct,0.2549218597681452,1,valid_win,824.5280436999992,853.0969557999997,853.7100302999997,81,853.7100783000005,855.5078205,,,,,,,,,,,850.9917772999997,850.9926725000005,,,,,,,,sub_588,2024-11-20_14h56.00.835,Reversal,2023.2.1,60.087379066796764,4,2024-11-20 14h56.27.716789 +0200,
13,exp3.png,exp4.png,,,,,,,,,,,,,,,,,,2,0,2,0,0,13,13,13,,,,,,,,,855.6669895000005,,,,,,,,,,,,,,855.5098263999998,False,53,134,True,exp4.png,exp3.png,trial_right_image,857.8288272,-1,exp3.png,4,exp3.png,exp4.png,0,4,reversed,correct,0.9539104300767591,1,valid_win,829.2608393999999,857.8297779000004,858.4429308999997,82,858.4429888000004,860.2400032000005,,,,,,,,,,,855.5087186999999,855.5097745000003,,,,,,,,sub_588,2024-11-20_14h56.00.835,Reversal,2023.2.1,60.087379066796764,4,2024-11-20 14h56.27.716789 +0200,
14,exp1.png,exp2.png,,,,,,,,,,,,,,,,,,2,0,2,0,0,14,14,14,,,,,,,,,860.3847935000003,,,,,,,,,,,,,,860.2412354999997,False,54,135,True,exp2.png,exp1.png,trial_left_image,863.0433825999999,1,exp2.png,4,exp2.png,exp1.png,1,1,non-reversed,correct,0.061794823658252396,0,invalid_lose,834.4749684999997,863.0438632000005,863.6584942999998,82,863.6585422999997,865.4558152999998,,,,,,,,,,,860.2404888000001,860.2412069000002,,,,,,,,sub_588,2024-11-20_14h56.00.835,Reversal,2023.2.1,60.087379066796764,4,2024-11-20 14h56.27.716789 +0200,
15,exp3.png,exp4.png,,,,,,,,,,,,,,,,,,2,0,2,0,0,15,15,15,,,,,,,,,865.5994981000003,,,,,,,,,,,,,,865.4571139999998,False,55,136,False,exp3.png,exp4.png,trial_left_image,869.1606560999999,1,exp3.png,4,exp3.png,exp4.png,0,4,reversed,correct,0.045082880029772454,0,invalid_lose,840.5924440999997,869.1613507000002,869.7744838999997,82,869.7745327000002,871.5721905,,,,,,,,,,,865.4563797000001,865.4570832999998,,,,,,,,sub_588,2024-11-20_14h56.00.835,Reversal,2023.2.1,60.087379066796764,4,2024-11-20 14h56.27.716789 +0200,
16,exp1.png,exp2.png,,,,,,,,,,,,,,,,,,2,0,2,0,0,16,16,16,,,,,,,,,871.7267670000001,,,,,,,,,,,,,,871.5742558000002,False,56,137,False,exp1.png,exp2.png,trial_right_image,874.5421494000002,-1,exp2.png,4,exp2.png,exp1.png,1,1,non-reversed,correct,0.44418840585346053,1,valid_win,845.9736708,874.5425627000004,875.1567992,83,875.1568267000002,876.9540349999997,,,,,,,,,,,871.5731071999999,871.5742043999999,,,,,,,,sub_588,2024-11-20_14h56.00.835,Reversal,2023.2.1,60.087379066796764,4,2024-11-20 14h56.27.716789 +0200,
17,exp3.png,exp4.png,,,,,,,,,,,,,,,,,,2,0,2,0,0,17,17,17,,,,,,,,,877.0995098000003,,,,,,,,,,,,,,876.9548640000003,False,57,138,True,exp4.png,exp3.png,trial_left_image,879.5426254000004,1,exp4.png,4,exp3.png,exp4.png,1,3,reversed,incorrect,0.39338896158392056,0,valid_lose,850.9744056,879.5433124000001,880.1562528000004,83,880.1562804000005,881.9539974999998,,,,,,,,,,,876.9543739999999,876.9548482,,,,,,,,sub_588,2024-11-20_14h56.00.835,Reversal,2023.2.1,60.087379066796764,4,2024-11-20 14h56.27.716789 +0200,
18,exp1.png,exp2.png,,,,,,,,,,,,,,,,,,2,0,2,0,0,18,18,18,,,,,,,,,882.0980354000003,,,,,,,,,,,,,,881.9559581000003,False,58,139,False,exp1.png,exp2.png,trial_right_image,884.6241945000002,-1,exp2.png,4,exp2.png,exp1.png,1,1,non-reversed,correct,0.722646435344924,1,valid_win,856.0558216999998,884.6247186999999,885.2389860000003,84,885.2390212,887.0361135000003,,,,,,,,,,,881.9548820999998,881.9559043999998,,,,,,,,sub_588,2024-11-20_14h56.00.835,Reversal,2023.2.1,60.087379066796764,4,2024-11-20 14h56.27.716789 +0200,
19,exp3.png,exp4.png,,,,,,,,,,,,,,,,,,2,0,2,0,0,19,19,19,,,,,,,,,887.1636489000002,,,,,,,,,,,,,,887.0367947000004,False,59,140,False,exp3.png,exp4.png,trial_left_image,889.7906788999999,1,exp3.png,4,exp3.png,exp4.png,0,4,reversed,correct,0.517534673136267,1,valid_win,861.2222413,889.7911354999997,890.4049106000002,85,890.4049336999997,892.2030013000003,,,,,,,,,,,887.0364226000002,887.0367807000002,,,,,,,,sub_588,2024-11-20_14h56.00.835,Reversal,2023.2.1,60.087379066796764,4,2024-11-20 14h56.27.716789 +0200,
20,exp1.png,exp2.png,,,,,,,,,,,,,,,,,,2,0,2,0,0,20,20,20,,,,,,,,,892.4056566999998,,,,,,,,,,,,,,892.2057268999997,True,,,,,,,892.2952536000003,,,,,,,,,,,,,,892.2952697000001,892.3090551000005,,892.3090715999997,892.3262875,,,,,,,,,,,892.2042090000004,892.2056637000005,,,,,,,,sub_588,2024-11-20_14h56.00.835,Reversal,2023.2.1,60.087379066796764,4,2024-11-20 14h56.27.716789 +0200,
,,,exp1.png,,,,,,,,,,,,,,,,,2,0,2,0,,,,,0,0,0,0,0,0,0,0,892.4056566999998,,,,,,,,,,,,,,,,,,,,,,,,,,,,,,,,,,,,,,,,,892.3372300000001,892.4056566999998,898.4766589000001,14.0,14.0,4.947743699999592,"[(14.0, 4.947743699999592)]",,,,,,,,,,,,,sub_588,2024-11-20_14h56.00.835,Reversal,2023.2.1,60.087379066796764,4,2024-11-20 14h56.27.716789 +0200,
,,,exp2.png,,,,,,,,,,,,,,,,,2,0,2,0,,,,,0,0,0,0,0,1,1,1,898.5454772000003,,,,,,,,,,,,,,,,,,,,,,,,,,,,,,,,,,,,,,,,,898.4778552999996,898.5454772000003,902.7763608000005,,96.0,3.215916500000276,"[(93.0, 1.7611410999998043), (96.0, 3.215916500000276)]",,,96.0,,,,,,,,,,sub_588,2024-11-20_14h56.00.835,Reversal,2023.2.1,60.087379066796764,4,2024-11-20 14h56.27.716789 +0200,
,,,exp3.png,,,,,,,,,,,,,,,,,2,0,2,0,,,,,0,0,0,0,0,2,2,2,902.8485344000001,,,,,,,,,,,,,,,,,,,,,,,,,,,,,,,,,,,,,,,,,902.7773364000004,902.8485344000001,905.7756119000005,,20.0,2.0337381999997888,"[(20.0, 2.0337381999997888)]",20.0,,,,,,,,,,,,sub_588,2024-11-20_14h56.00.835,Reversal,2023.2.1,60.087379066796764,4,2024-11-20 14h56.27.716789 +0200,
,,,exp4.png,,,,,,,,,,,,,,,,,2,0,2,0,,,,,0,0,0,0,0,3,3,3,905.8475140999999,,,,,,,,,,,,,,,,,,,,,,,,,,,,,,,,,,,,,,,,,905.7765277999997,905.8475140999999,907.8423439999997,,83.0,1.102925499999401,"[(83.0, 1.102925499999401)]",,83.0,,,,,,,,,,,sub_588,2024-11-20_14h56.00.835,Reversal,2023.2.1,60.087379066796764,4,2024-11-20 14h56.27.716789 +0200,
,,,,,,,,,,,,,,,,,,,,,,,,,,,,,,,,,,,,,,,,,,,,,,,,,,,,,,,,,,,,,,,,,,,,,,,,,,85,,,,,,,,,,,,,,,,907.8430524000005,84,44,40,372.3148718000002,1,,,,,,,,
