trial_index,trial_image1_file,trial_image2_file,image_file,learning_outer_loop.thisRepN,learning_outer_loop.thisTrialN,learning_outer_loop.thisN,learning_outer_loop.thisIndex,learning_inner_loop.thisRepN,learning_inner_loop.thisTrialN,learning_inner_loop.thisN,learning_inner_loop.thisIndex,learning_estimation_outer_loop.thisRepN,learning_estimation_outer_loop.thisTrialN,learning_estimation_outer_loop.thisN,learning_estimation_outer_loop.thisIndex,learning_estimation_inner_loop.thisRepN,learning_estimation_inner_loop.thisTrialN,learning_estimation_inner_loop.thisN,learning_estimation_inner_loop.thisIndex,reversal_outer_loop.thisRepN,reversal_outer_loop.thisTrialN,reversal_outer_loop.thisN,reversal_outer_loop.thisIndex,reversal_inner_loop.thisRepN,reversal_inner_loop.thisTrialN,reversal_inner_loop.thisN,reversal_inner_loop.thisIndex,reversal_estimation_outer_loop.thisRepN,reversal_estimation_outer_loop.thisTrialN,reversal_estimation_outer_loop.thisN,reversal_estimation_outer_loop.thisIndex,reversal_estimation_inner_loop.thisRepN,reversal_estimation_inner_loop.thisTrialN,reversal_estimation_inner_loop.thisN,reversal_estimation_inner_loop.thisIndex,skipped,total_trial_counter,trial_num,left_right_flip,left_image_file,right_image_file,clicked_stimulus_side,side,clicked_stimulus,version,high_prob_image_file,low_prob_image_file,choice_a,choice_b,pair_type,correct,trial_feedback_random,reward,trial_type,overall_time_after_trial,score,estimation_rating.started,estimation_exp1.png,estimation_rating.response,estimation_rating.rt,estimation_rating.history,estimation_exp2.png,estimation_exp3.png,estimation_exp4.png,total_learning_time,total_correct,learning_correct,reversal_correct,total_reversal_time,extra_block,participant,date,expName,psychopyVersion,frameRate,ver,
0,exp1.png,exp2.png,,0,0,0,0,0,0,0,0,,,,,,,,,,,,,,,,,,,,,,,,,False,0,1,False,exp1.png,exp2.png,trial_right_image,-1,exp2.png,3,exp2.png,exp1.png,1,3,reversed,correct,0.6913416318320182,1,valid_win,16.91081310000027,1,,,,,,,,,,,,,,,sub_367,2024-01-15_10h41.55.472,Reversal,2023.1.3,59.94391647201849,3,
1,exp3.png,exp4.png,,0,0,0,0,0,1,1,1,,,,,,,,,,,,,,,,,,,,,,,,,False,1,2,True,exp4.png,exp3.png,trial_right_image,-1,exp3.png,3,exp4.png,exp3.png,0,2,non-reversed,incorrect,0.6544033944705814,0,valid_lose,23.874561800000265,1,,,,,,,,,,,,,,,sub_367,2024-01-15_10h41.55.472,Reversal,2023.1.3,59.94391647201849,3,
2,exp1.png,exp2.png,,0,0,0,0,0,2,2,2,,,,,,,,,,,,,,,,,,,,,,,,,False,2,3,False,exp1.png,exp2.png,trial_left_image,1,exp1.png,3,exp2.png,exp1.png,0,4,reversed,incorrect,0.1240045310636283,1,invalid_win,28.672872000000098,2,,,,,,,,,,,,,,,sub_367,2024-01-15_10h41.55.472,Reversal,2023.1.3,59.94391647201849,3,
3,exp3.png,exp4.png,,0,0,0,0,0,3,3,3,,,,,,,,,,,,,,,,,,,,,,,,,False,3,4,False,exp3.png,exp4.png,trial_left_image,1,exp3.png,3,exp4.png,exp3.png,0,2,non-reversed,incorrect,0.4290823966104732,0,valid_lose,36.787558800000625,2,,,,,,,,,,,,,,,sub_367,2024-01-15_10h41.55.472,Reversal,2023.1.3,59.94391647201849,3,
4,exp1.png,exp2.png,,0,0,0,0,0,4,4,4,,,,,,,,,,,,,,,,,,,,,,,,,False,4,5,False,exp1.png,exp2.png,trial_left_image,1,exp1.png,3,exp2.png,exp1.png,0,4,reversed,incorrect,0.07569018923194826,1,invalid_win,43.385148800000024,3,,,,,,,,,,,,,,,sub_367,2024-01-15_10h41.55.472,Reversal,2023.1.3,59.94391647201849,3,
5,exp3.png,exp4.png,,0,0,0,0,0,5,5,5,,,,,,,,,,,,,,,,,,,,,,,,,False,5,6,False,exp3.png,exp4.png,trial_right_image,-1,exp4.png,3,exp4.png,exp3.png,1,1,non-reversed,correct,0.4103646350625738,1,valid_win,47.71628899999996,4,,,,,,,,,,,,,,,sub_367,2024-01-15_10h41.55.472,Reversal,2023.1.3,59.94391647201849,3,
6,exp1.png,exp2.png,,0,0,0,0,0,6,6,6,,,,,,,,,,,,,,,,,,,,,,,,,False,6,7,False,exp1.png,exp2.png,trial_left_image,1,exp1.png,3,exp2.png,exp1.png,0,4,reversed,incorrect,0.0965272237328243,1,invalid_win,52.132180900000094,5,,,,,,,,,,,,,,,sub_367,2024-01-15_10h41.55.472,Reversal,2023.1.3,59.94391647201849,3,
7,exp3.png,exp4.png,,0,0,0,0,0,7,7,7,,,,,,,,,,,,,,,,,,,,,,,,,False,7,8,True,exp4.png,exp3.png,trial_right_image,-1,exp3.png,3,exp4.png,exp3.png,0,2,non-reversed,incorrect,0.9984300476727874,0,valid_lose,56.84726630000023,5,,,,,,,,,,,,,,,sub_367,2024-01-15_10h41.55.472,Reversal,2023.1.3,59.94391647201849,3,
8,exp1.png,exp2.png,,0,0,0,0,0,8,8,8,,,,,,,,,,,,,,,,,,,,,,,,,False,8,9,True,exp2.png,exp1.png,trial_right_image,-1,exp1.png,3,exp2.png,exp1.png,0,4,reversed,incorrect,0.39182037232889555,0,valid_lose,60.89526040000055,5,,,,,,,,,,,,,,,sub_367,2024-01-15_10h41.55.472,Reversal,2023.1.3,59.94391647201849,3,
9,exp3.png,exp4.png,,0,0,0,0,0,9,9,9,,,,,,,,,,,,,,,,,,,,,,,,,False,9,10,False,exp3.png,exp4.png,trial_left_image,1,exp3.png,3,exp4.png,exp3.png,0,2,non-reversed,incorrect,0.5896345390095181,0,valid_lose,66.04433490000065,5,,,,,,,,,,,,,,,sub_367,2024-01-15_10h41.55.472,Reversal,2023.1.3,59.94391647201849,3,
10,exp1.png,exp2.png,,0,0,0,0,0,10,10,10,,,,,,,,,,,,,,,,,,,,,,,,,False,10,11,True,exp2.png,exp1.png,trial_right_image,-1,exp1.png,3,exp2.png,exp1.png,0,4,reversed,incorrect,0.7587969180076443,0,valid_lose,71.34179690000019,5,,,,,,,,,,,,,,,sub_367,2024-01-15_10h41.55.472,Reversal,2023.1.3,59.94391647201849,3,
11,exp3.png,exp4.png,,0,0,0,0,0,11,11,11,,,,,,,,,,,,,,,,,,,,,,,,,False,11,12,False,exp3.png,exp4.png,trial_right_image,-1,exp4.png,3,exp4.png,exp3.png,1,1,non-reversed,correct,0.09977256154732339,0,invalid_lose,78.48983289999978,5,,,,,,,,,,,,,,,sub_367,2024-01-15_10h41.55.472,Reversal,2023.1.3,59.94391647201849,3,
12,exp1.png,exp2.png,,0,0,0,0,0,12,12,12,,,,,,,,,,,,,,,,,,,,,,,,,False,12,13,False,exp1.png,exp2.png,trial_left_image,1,exp1.png,3,exp2.png,exp1.png,0,4,reversed,incorrect,0.08795251611820298,1,invalid_win,84.07136249999985,6,,,,,,,,,,,,,,,sub_367,2024-01-15_10h41.55.472,Reversal,2023.1.3,59.94391647201849,3,
13,exp3.png,exp4.png,,0,0,0,0,0,13,13,13,,,,,,,,,,,,,,,,,,,,,,,,,False,13,14,True,exp4.png,exp3.png,trial_left_image,1,exp4.png,3,exp4.png,exp3.png,1,1,non-reversed,correct,0.7401727316407014,1,valid_win,90.61789550000049,7,,,,,,,,,,,,,,,sub_367,2024-01-15_10h41.55.472,Reversal,2023.1.3,59.94391647201849,3,
14,exp1.png,exp2.png,,0,0,0,0,0,14,14,14,,,,,,,,,,,,,,,,,,,,,,,,,False,14,15,True,exp2.png,exp1.png,trial_left_image,1,exp2.png,3,exp2.png,exp1.png,1,3,reversed,correct,0.783102937878077,1,valid_win,96.88387390000025,8,,,,,,,,,,,,,,,sub_367,2024-01-15_10h41.55.472,Reversal,2023.1.3,59.94391647201849,3,
15,exp3.png,exp4.png,,0,0,0,0,0,15,15,15,,,,,,,,,,,,,,,,,,,,,,,,,False,15,16,False,exp3.png,exp4.png,trial_left_image,1,exp3.png,3,exp4.png,exp3.png,0,2,non-reversed,incorrect,0.30073266021481326,0,valid_lose,102.66370830000051,8,,,,,,,,,,,,,,,sub_367,2024-01-15_10h41.55.472,Reversal,2023.1.3,59.94391647201849,3,
16,exp1.png,exp2.png,,0,0,0,0,0,16,16,16,,,,,,,,,,,,,,,,,,,,,,,,,False,16,17,True,exp2.png,exp1.png,trial_right_image,-1,exp1.png,3,exp2.png,exp1.png,0,4,reversed,incorrect,0.09118039392900268,1,invalid_win,106.68071409999993,9,,,,,,,,,,,,,,,sub_367,2024-01-15_10h41.55.472,Reversal,2023.1.3,59.94391647201849,3,
17,exp3.png,exp4.png,,0,0,0,0,0,17,17,17,,,,,,,,,,,,,,,,,,,,,,,,,False,17,18,True,exp4.png,exp3.png,trial_right_image,-1,exp3.png,3,exp4.png,exp3.png,0,2,non-reversed,incorrect,0.6306479279441272,0,valid_lose,110.86244140000053,9,,,,,,,,,,,,,,,sub_367,2024-01-15_10h41.55.472,Reversal,2023.1.3,59.94391647201849,3,
18,exp1.png,exp2.png,,0,0,0,0,0,18,18,18,,,,,,,,,,,,,,,,,,,,,,,,,False,18,19,True,exp2.png,exp1.png,trial_right_image,-1,exp1.png,3,exp2.png,exp1.png,0,4,reversed,incorrect,0.27685288843738265,0,valid_lose,119.40910640000038,9,,,,,,,,,,,,,,,sub_367,2024-01-15_10h41.55.472,Reversal,2023.1.3,59.94391647201849,3,
19,exp3.png,exp4.png,,0,0,0,0,0,19,19,19,,,,,,,,,,,,,,,,,,,,,,,,,False,19,20,True,exp4.png,exp3.png,trial_left_image,1,exp4.png,3,exp4.png,exp3.png,1,1,non-reversed,correct,0.7107245389055823,1,valid_win,124.00813460000063,10,,,,,,,,,,,,,,,sub_367,2024-01-15_10h41.55.472,Reversal,2023.1.3,59.94391647201849,3,
20,exp1.png,exp2.png,,0,0,0,0,0,20,20,20,,,,,,,,,,,,,,,,,,,,,,,,,True,,,,,,,,,,,,,,,,,,,,,,,,,,,,,,,,,,,sub_367,2024-01-15_10h41.55.472,Reversal,2023.1.3,59.94391647201849,3,
,,,exp1.png,0,0,0,0,,,,,0,0,0,0,0,0,0,0,,,,,,,,,,,,,,,,,,,,,,,,,,,,,,,,,,,,,,201.81808490000003,69.0,69.0,10.238057800000206,"[(69.0, 10.238057800000206)]",,,,,,,,,,sub_367,2024-01-15_10h41.55.472,Reversal,2023.1.3,59.94391647201849,3,
,,,exp2.png,0,0,0,0,,,,,0,0,0,0,0,1,1,1,,,,,,,,,,,,,,,,,,,,,,,,,,,,,,,,,,,,,,213.93504889999986,,39.0,4.433404400000654,"[(39.0, 4.433404400000654)]",39.0,,,,,,,,,sub_367,2024-01-15_10h41.55.472,Reversal,2023.1.3,59.94391647201849,3,
,,,exp3.png,0,0,0,0,,,,,0,0,0,0,0,2,2,2,,,,,,,,,,,,,,,,,,,,,,,,,,,,,,,,,,,,,,219.27194959999997,,62.0,4.129615599999852,"[(56.0, 2.2973589000002903), (62.0, 4.129615599999852)]",,62.0,,,,,,,,sub_367,2024-01-15_10h41.55.472,Reversal,2023.1.3,59.94391647201849,3,
,,,exp4.png,0,0,0,0,,,,,0,0,0,0,0,3,3,3,,,,,,,,,,,,,,,,,,,,,,,,,,,,,,,,,,,,,,224.5096698999996,,53.0,4.613999899999726,"[(53.0, 4.613999899999726)]",,,53.0,,,,,,,sub_367,2024-01-15_10h41.55.472,Reversal,2023.1.3,59.94391647201849,3,
0,exp1.png,exp2.png,,1,0,1,0,0,0,0,0,,,,,,,,,,,,,,,,,,,,,,,,,False,20,21,False,exp1.png,exp2.png,trial_right_image,-1,exp2.png,3,exp2.png,exp1.png,1,3,reversed,correct,0.8832275417151658,1,valid_win,158.6463607000005,11,,,,,,,,,,,,,,,sub_367,2024-01-15_10h41.55.472,Reversal,2023.1.3,59.94391647201849,3,
1,exp3.png,exp4.png,,1,0,1,0,0,1,1,1,,,,,,,,,,,,,,,,,,,,,,,,,False,21,22,False,exp3.png,exp4.png,trial_right_image,-1,exp4.png,3,exp4.png,exp3.png,1,1,non-reversed,correct,0.2700185024397267,1,valid_win,165.64381159999994,12,,,,,,,,,,,,,,,sub_367,2024-01-15_10h41.55.472,Reversal,2023.1.3,59.94391647201849,3,
2,exp1.png,exp2.png,,1,0,1,0,0,2,2,2,,,,,,,,,,,,,,,,,,,,,,,,,False,22,23,True,exp2.png,exp1.png,trial_left_image,1,exp2.png,3,exp2.png,exp1.png,1,3,reversed,correct,0.6194428601873494,1,valid_win,172.0586925000007,13,,,,,,,,,,,,,,,sub_367,2024-01-15_10h41.55.472,Reversal,2023.1.3,59.94391647201849,3,
3,exp3.png,exp4.png,,1,0,1,0,0,3,3,3,,,,,,,,,,,,,,,,,,,,,,,,,False,23,24,False,exp3.png,exp4.png,trial_right_image,-1,exp4.png,3,exp4.png,exp3.png,1,1,non-reversed,correct,0.7928335440415104,1,valid_win,176.25667299999986,14,,,,,,,,,,,,,,,sub_367,2024-01-15_10h41.55.472,Reversal,2023.1.3,59.94391647201849,3,
4,exp1.png,exp2.png,,1,0,1,0,0,4,4,4,,,,,,,,,,,,,,,,,,,,,,,,,False,24,25,False,exp1.png,exp2.png,trial_right_image,-1,exp2.png,3,exp2.png,exp1.png,1,3,reversed,correct,0.40337736565621085,1,valid_win,180.70517250000012,15,,,,,,,,,,,,,,,sub_367,2024-01-15_10h41.55.472,Reversal,2023.1.3,59.94391647201849,3,
5,exp3.png,exp4.png,,1,0,1,0,0,5,5,5,,,,,,,,,,,,,,,,,,,,,,,,,False,25,26,True,exp4.png,exp3.png,trial_left_image,1,exp4.png,3,exp4.png,exp3.png,1,1,non-reversed,correct,0.0196318034432309,0,invalid_lose,185.22003700000005,15,,,,,,,,,,,,,,,sub_367,2024-01-15_10h41.55.472,Reversal,2023.1.3,59.94391647201849,3,
6,exp1.png,exp2.png,,1,0,1,0,0,6,6,6,,,,,,,,,,,,,,,,,,,,,,,,,False,26,27,True,exp2.png,exp1.png,trial_right_image,-1,exp1.png,3,exp2.png,exp1.png,0,4,reversed,incorrect,0.6368161335477317,0,valid_lose,191.78556639999988,15,,,,,,,,,,,,,,,sub_367,2024-01-15_10h41.55.472,Reversal,2023.1.3,59.94391647201849,3,
7,exp3.png,exp4.png,,1,0,1,0,0,7,7,7,,,,,,,,,,,,,,,,,,,,,,,,,False,27,28,True,exp4.png,exp3.png,trial_left_image,1,exp4.png,3,exp4.png,exp3.png,1,1,non-reversed,correct,0.09705478278859836,0,invalid_lose,200.66548750000038,15,,,,,,,,,,,,,,,sub_367,2024-01-15_10h41.55.472,Reversal,2023.1.3,59.94391647201849,3,
8,exp1.png,exp2.png,,1,0,1,0,0,8,8,8,,,,,,,,,,,,,,,,,,,,,,,,,False,28,29,True,exp2.png,exp1.png,trial_right_image,-1,exp1.png,3,exp2.png,exp1.png,0,4,reversed,incorrect,0.8439875686310212,0,valid_lose,206.69652180000048,15,,,,,,,,,,,,,,,sub_367,2024-01-15_10h41.55.472,Reversal,2023.1.3,59.94391647201849,3,
9,exp3.png,exp4.png,,1,0,1,0,0,9,9,9,,,,,,,,,,,,,,,,,,,,,,,,,False,29,30,True,exp4.png,exp3.png,trial_left_image,1,exp4.png,3,exp4.png,exp3.png,1,1,non-reversed,correct,0.566095916589585,1,valid_win,212.36062589999983,16,,,,,,,,,,,,,,,sub_367,2024-01-15_10h41.55.472,Reversal,2023.1.3,59.94391647201849,3,
10,exp1.png,exp2.png,,1,0,1,0,0,10,10,10,,,,,,,,,,,,,,,,,,,,,,,,,False,30,31,True,exp2.png,exp1.png,trial_left_image,1,exp2.png,3,exp2.png,exp1.png,1,3,reversed,correct,0.15240922714421745,0,invalid_lose,216.74365940000007,16,,,,,,,,,,,,,,,sub_367,2024-01-15_10h41.55.472,Reversal,2023.1.3,59.94391647201849,3,
11,exp3.png,exp4.png,,1,0,1,0,0,11,11,11,,,,,,,,,,,,,,,,,,,,,,,,,False,31,32,False,exp3.png,exp4.png,trial_right_image,-1,exp4.png,3,exp4.png,exp3.png,1,1,non-reversed,correct,0.5473331047949546,1,valid_win,222.45671690000017,17,,,,,,,,,,,,,,,sub_367,2024-01-15_10h41.55.472,Reversal,2023.1.3,59.94391647201849,3,
12,exp1.png,exp2.png,,1,0,1,0,0,12,12,12,,,,,,,,,,,,,,,,,,,,,,,,,False,32,33,True,exp2.png,exp1.png,trial_right_image,-1,exp1.png,3,exp2.png,exp1.png,0,4,reversed,incorrect,0.5652345466362567,0,valid_lose,228.0059721000007,17,,,,,,,,,,,,,,,sub_367,2024-01-15_10h41.55.472,Reversal,2023.1.3,59.94391647201849,3,
13,exp3.png,exp4.png,,1,0,1,0,0,13,13,13,,,,,,,,,,,,,,,,,,,,,,,,,False,33,34,False,exp3.png,exp4.png,trial_right_image,-1,exp4.png,3,exp4.png,exp3.png,1,1,non-reversed,correct,0.9177037630778055,1,valid_win,235.4701388000003,18,,,,,,,,,,,,,,,sub_367,2024-01-15_10h41.55.472,Reversal,2023.1.3,59.94391647201849,3,
14,exp1.png,exp2.png,,1,0,1,0,0,14,14,14,,,,,,,,,,,,,,,,,,,,,,,,,False,34,35,True,exp2.png,exp1.png,trial_left_image,1,exp2.png,3,exp2.png,exp1.png,1,3,reversed,correct,0.2620153578848232,1,valid_win,240.88433290000012,19,,,,,,,,,,,,,,,sub_367,2024-01-15_10h41.55.472,Reversal,2023.1.3,59.94391647201849,3,
15,exp3.png,exp4.png,,1,0,1,0,0,15,15,15,,,,,,,,,,,,,,,,,,,,,,,,,False,35,36,False,exp3.png,exp4.png,trial_right_image,-1,exp4.png,3,exp4.png,exp3.png,1,1,non-reversed,correct,0.8018470709884306,1,valid_win,245.83388190000005,20,,,,,,,,,,,,,,,sub_367,2024-01-15_10h41.55.472,Reversal,2023.1.3,59.94391647201849,3,
16,exp1.png,exp2.png,,1,0,1,0,0,16,16,16,,,,,,,,,,,,,,,,,,,,,,,,,False,36,37,False,exp1.png,exp2.png,trial_left_image,1,exp1.png,3,exp2.png,exp1.png,0,4,reversed,incorrect,0.21861983007729546,1,invalid_win,250.33227810000062,21,,,,,,,,,,,,,,,sub_367,2024-01-15_10h41.55.472,Reversal,2023.1.3,59.94391647201849,3,
17,exp3.png,exp4.png,,1,0,1,0,0,17,17,17,,,,,,,,,,,,,,,,,,,,,,,,,False,37,38,False,exp3.png,exp4.png,trial_right_image,-1,exp4.png,3,exp4.png,exp3.png,1,1,non-reversed,correct,0.7305771036653181,1,valid_win,254.4141153999999,22,,,,,,,,,,,,,,,sub_367,2024-01-15_10h41.55.472,Reversal,2023.1.3,59.94391647201849,3,
18,exp1.png,exp2.png,,1,0,1,0,0,18,18,18,,,,,,,,,,,,,,,,,,,,,,,,,False,38,39,False,exp1.png,exp2.png,trial_left_image,1,exp1.png,3,exp2.png,exp1.png,0,4,reversed,incorrect,0.5398007623694059,0,valid_lose,258.5296605000003,22,,,,,,,,,,,,,,,sub_367,2024-01-15_10h41.55.472,Reversal,2023.1.3,59.94391647201849,3,
19,exp3.png,exp4.png,,1,0,1,0,0,19,19,19,,,,,,,,,,,,,,,,,,,,,,,,,False,39,40,True,exp4.png,exp3.png,trial_left_image,1,exp4.png,3,exp4.png,exp3.png,1,1,non-reversed,correct,0.9999088798596435,1,valid_win,263.8110065000001,23,,,,,,,,,,,,,,,sub_367,2024-01-15_10h41.55.472,Reversal,2023.1.3,59.94391647201849,3,
20,exp1.png,exp2.png,,1,0,1,0,0,20,20,20,,,,,,,,,,,,,,,,,,,,,,,,,True,,,,,,,,,,,,,,,,,,,,,,,,,,,,,,,,,,,sub_367,2024-01-15_10h41.55.472,Reversal,2023.1.3,59.94391647201849,3,
,,,exp1.png,1,0,1,0,,,,,0,0,0,0,0,0,0,0,,,,,,,,,,,,,,,,,,,,,,,,,,,,,,,,,,,,,,341.6117699999995,56.0,56.0,3.77820950000023,"[(56.0, 3.77820950000023)]",,,,,,,,,,sub_367,2024-01-15_10h41.55.472,Reversal,2023.1.3,59.94391647201849,3,
,,,exp2.png,1,0,1,0,,,,,0,0,0,0,0,1,1,1,,,,,,,,,,,,,,,,,,,,,,,,,,,,,,,,,,,,,,346.3002313999996,,60.0,2.2945325000000594,"[(60.0, 2.2945325000000594)]",60.0,,,,,,,,,sub_367,2024-01-15_10h41.55.472,Reversal,2023.1.3,59.94391647201849,3,
,,,exp3.png,1,0,1,0,,,,,0,0,0,0,0,2,2,2,,,,,,,,,,,,,,,,,,,,,,,,,,,,,,,,,,,,,,349.39509329999964,,38.0,1.7460634999997637,"[(38.0, 1.7460634999997637)]",,38.0,,,,,,,,sub_367,2024-01-15_10h41.55.472,Reversal,2023.1.3,59.94391647201849,3,
,,,exp4.png,1,0,1,0,,,,,0,0,0,0,0,3,3,3,,,,,,,,,,,,,,,,,,,,,,,,,,,,,,,,,,,,,,351.9081166999995,,34.0,2.346795200000088,"[(34.0, 2.346795200000088)]",,,34.0,,,,,,,sub_367,2024-01-15_10h41.55.472,Reversal,2023.1.3,59.94391647201849,3,
0,exp1.png,exp2.png,,2,0,2,0,0,0,0,0,,,,,,,,,,,,,,,,,,,,,,,,,False,40,41,True,exp2.png,exp1.png,trial_right_image,-1,exp1.png,3,exp2.png,exp1.png,0,4,reversed,incorrect,0.24578085229134328,1,invalid_win,285.6367740000005,24,,,,,,,,,,,,,,,sub_367,2024-01-15_10h41.55.472,Reversal,2023.1.3,59.94391647201849,3,
1,exp3.png,exp4.png,,2,0,2,0,0,1,1,1,,,,,,,,,,,,,,,,,,,,,,,,,False,41,42,False,exp3.png,exp4.png,trial_right_image,-1,exp4.png,3,exp4.png,exp3.png,1,1,non-reversed,correct,0.6952390793264063,1,valid_win,291.15110749999985,25,,,,,,,,,,,,,,,sub_367,2024-01-15_10h41.55.472,Reversal,2023.1.3,59.94391647201849,3,
2,exp1.png,exp2.png,,2,0,2,0,0,2,2,2,,,,,,,,,,,,,,,,,,,,,,,,,False,42,43,True,exp2.png,exp1.png,trial_left_image,1,exp2.png,3,exp2.png,exp1.png,1,3,reversed,correct,0.08379146771297519,0,invalid_lose,296.7495441000001,25,,,,,,,,,,,,,,,sub_367,2024-01-15_10h41.55.472,Reversal,2023.1.3,59.94391647201849,3,
3,exp3.png,exp4.png,,2,0,2,0,0,3,3,3,,,,,,,,,,,,,,,,,,,,,,,,,False,43,44,True,exp4.png,exp3.png,trial_left_image,1,exp4.png,3,exp4.png,exp3.png,1,1,non-reversed,correct,0.7574460926525869,1,valid_win,301.43118760000016,26,,,,,,,,,,,,,,,sub_367,2024-01-15_10h41.55.472,Reversal,2023.1.3,59.94391647201849,3,
4,exp1.png,exp2.png,,2,0,2,0,0,4,4,4,,,,,,,,,,,,,,,,,,,,,,,,,False,44,45,False,exp1.png,exp2.png,trial_right_image,-1,exp2.png,3,exp2.png,exp1.png,1,3,reversed,correct,0.020251662251015934,0,invalid_lose,305.7303234000001,26,,,,,,,,,,,,,,,sub_367,2024-01-15_10h41.55.472,Reversal,2023.1.3,59.94391647201849,3,
5,exp3.png,exp4.png,,2,0,2,0,0,5,5,5,,,,,,,,,,,,,,,,,,,,,,,,,False,45,46,True,exp4.png,exp3.png,trial_left_image,1,exp4.png,3,exp4.png,exp3.png,1,1,non-reversed,correct,0.19122180221372864,0,invalid_lose,309.7443228000002,26,,,,,,,,,,,,,,,sub_367,2024-01-15_10h41.55.472,Reversal,2023.1.3,59.94391647201849,3,
6,exp1.png,exp2.png,,2,0,2,0,0,6,6,6,,,,,,,,,,,,,,,,,,,,,,,,,False,46,47,True,exp2.png,exp1.png,trial_left_image,1,exp2.png,3,exp2.png,exp1.png,1,3,reversed,correct,0.8400646223503406,1,valid_win,313.6778707000003,27,,,,,,,,,,,,,,,sub_367,2024-01-15_10h41.55.472,Reversal,2023.1.3,59.94391647201849,3,
7,exp3.png,exp4.png,,2,0,2,0,0,7,7,7,,,,,,,,,,,,,,,,,,,,,,,,,False,47,48,False,exp3.png,exp4.png,trial_right_image,-1,exp4.png,3,exp4.png,exp3.png,1,1,non-reversed,correct,0.7890442600277376,1,valid_win,319.5423486999998,28,,,,,,,,,,,,,,,sub_367,2024-01-15_10h41.55.472,Reversal,2023.1.3,59.94391647201849,3,
8,exp1.png,exp2.png,,2,0,2,0,0,8,8,8,,,,,,,,,,,,,,,,,,,,,,,,,False,48,49,False,exp1.png,exp2.png,trial_left_image,1,exp1.png,3,exp2.png,exp1.png,0,4,reversed,incorrect,0.4020543739415978,0,valid_lose,324.1069363000006,28,,,,,,,,,,,,,,,sub_367,2024-01-15_10h41.55.472,Reversal,2023.1.3,59.94391647201849,3,
9,exp3.png,exp4.png,,2,0,2,0,0,9,9,9,,,,,,,,,,,,,,,,,,,,,,,,,False,49,50,False,exp3.png,exp4.png,trial_right_image,-1,exp4.png,3,exp4.png,exp3.png,1,1,non-reversed,correct,0.13044362744188964,0,invalid_lose,328.83839720000014,28,,,,,,,,,,,,,,,sub_367,2024-01-15_10h41.55.472,Reversal,2023.1.3,59.94391647201849,3,
10,exp1.png,exp2.png,,2,0,2,0,0,10,10,10,,,,,,,,,,,,,,,,,,,,,,,,,False,50,51,True,exp2.png,exp1.png,trial_left_image,1,exp2.png,3,exp2.png,exp1.png,1,3,reversed,correct,0.5533050398486719,1,valid_win,334.1872392000005,29,,,,,,,,,,,,,,,sub_367,2024-01-15_10h41.55.472,Reversal,2023.1.3,59.94391647201849,3,
11,exp3.png,exp4.png,,2,0,2,0,0,11,11,11,,,,,,,,,,,,,,,,,,,,,,,,,False,51,52,False,exp3.png,exp4.png,trial_left_image,1,exp3.png,3,exp4.png,exp3.png,0,2,non-reversed,incorrect,0.23965047564807707,1,invalid_win,339.1176157,30,,,,,,,,,,,,,,,sub_367,2024-01-15_10h41.55.472,Reversal,2023.1.3,59.94391647201849,3,
12,exp1.png,exp2.png,,2,0,2,0,0,12,12,12,,,,,,,,,,,,,,,,,,,,,,,,,False,52,53,True,exp2.png,exp1.png,trial_left_image,1,exp2.png,3,exp2.png,exp1.png,1,3,reversed,correct,0.3958331015298,1,valid_win,343.60047660000055,31,,,,,,,,,,,,,,,sub_367,2024-01-15_10h41.55.472,Reversal,2023.1.3,59.94391647201849,3,
13,exp3.png,exp4.png,,2,0,2,0,0,13,13,13,,,,,,,,,,,,,,,,,,,,,,,,,False,53,54,False,exp3.png,exp4.png,trial_left_image,1,exp3.png,3,exp4.png,exp3.png,0,2,non-reversed,incorrect,0.6554115663368283,0,valid_lose,347.5498322000003,31,,,,,,,,,,,,,,,sub_367,2024-01-15_10h41.55.472,Reversal,2023.1.3,59.94391647201849,3,
14,exp1.png,exp2.png,,2,0,2,0,0,14,14,14,,,,,,,,,,,,,,,,,,,,,,,,,False,54,55,False,exp1.png,exp2.png,trial_right_image,-1,exp2.png,3,exp2.png,exp1.png,1,3,reversed,correct,0.2721780472838643,1,valid_win,351.58082190000005,32,,,,,,,,,,,,,,,sub_367,2024-01-15_10h41.55.472,Reversal,2023.1.3,59.94391647201849,3,
15,exp3.png,exp4.png,,2,0,2,0,0,15,15,15,,,,,,,,,,,,,,,,,,,,,,,,,False,55,56,True,exp4.png,exp3.png,trial_right_image,-1,exp3.png,3,exp4.png,exp3.png,0,2,non-reversed,incorrect,0.1571527168586635,1,invalid_win,355.59674859999996,33,,,,,,,,,,,,,,,sub_367,2024-01-15_10h41.55.472,Reversal,2023.1.3,59.94391647201849,3,
16,exp1.png,exp2.png,,2,0,2,0,0,16,16,16,,,,,,,,,,,,,,,,,,,,,,,,,False,56,57,True,exp2.png,exp1.png,trial_right_image,-1,exp1.png,3,exp2.png,exp1.png,0,4,reversed,incorrect,0.2748491076675449,0,valid_lose,359.5775076,33,,,,,,,,,,,,,,,sub_367,2024-01-15_10h41.55.472,Reversal,2023.1.3,59.94391647201849,3,
17,exp3.png,exp4.png,,2,0,2,0,0,17,17,17,,,,,,,,,,,,,,,,,,,,,,,,,False,57,58,True,exp4.png,exp3.png,trial_right_image,-1,exp3.png,3,exp4.png,exp3.png,0,2,non-reversed,incorrect,0.6758514593333383,0,valid_lose,363.9948752999999,33,,,,,,,,,,,,,,,sub_367,2024-01-15_10h41.55.472,Reversal,2023.1.3,59.94391647201849,3,
18,exp1.png,exp2.png,,2,0,2,0,0,18,18,18,,,,,,,,,,,,,,,,,,,,,,,,,False,58,59,False,exp1.png,exp2.png,trial_right_image,-1,exp2.png,3,exp2.png,exp1.png,1,3,reversed,correct,0.26274860423973667,1,valid_win,370.79098350000004,34,,,,,,,,,,,,,,,sub_367,2024-01-15_10h41.55.472,Reversal,2023.1.3,59.94391647201849,3,
19,exp3.png,exp4.png,,2,0,2,0,0,19,19,19,,,,,,,,,,,,,,,,,,,,,,,,,False,59,60,False,exp3.png,exp4.png,trial_left_image,1,exp3.png,3,exp4.png,exp3.png,0,2,non-reversed,incorrect,0.6102106203974901,0,valid_lose,375.63920450000023,34,,,,,,,,,,,,,,,sub_367,2024-01-15_10h41.55.472,Reversal,2023.1.3,59.94391647201849,3,
20,exp1.png,exp2.png,,2,0,2,0,0,20,20,20,,,,,,,,,,,,,,,,,,,,,,,,,True,,,,,,,,,,,,,,,,,,,,,,,,,,,,,,,,,,,sub_367,2024-01-15_10h41.55.472,Reversal,2023.1.3,59.94391647201849,3,
,,,exp1.png,2,0,2,0,,,,,0,0,0,0,0,0,0,0,,,,,,,,,,,,,,,,,,,,,,,,,,,,,,,,,,,,,,453.4310206,63.0,63.0,5.869359900000745,"[(63.0, 5.869359900000745)]",,,,,,,,,,sub_367,2024-01-15_10h41.55.472,Reversal,2023.1.3,59.94391647201849,3,
,,,exp2.png,2,0,2,0,,,,,0,0,0,0,0,1,1,1,,,,,,,,,,,,,,,,,,,,,,,,,,,,,,,,,,,,,,460.3646958999998,,62.0,2.743407300000399,"[(62.0, 2.743407300000399)]",62.0,,,,,,,,,sub_367,2024-01-15_10h41.55.472,Reversal,2023.1.3,59.94391647201849,3,
,,,exp3.png,2,0,2,0,,,,,0,0,0,0,0,2,2,2,,,,,,,,,,,,,,,,,,,,,,,,,,,,,,,,,,,,,,464.01671199999964,,71.0,1.8034725999996226,"[(71.0, 1.8034725999996226)]",,71.0,,,,,,,,sub_367,2024-01-15_10h41.55.472,Reversal,2023.1.3,59.94391647201849,3,
,,,exp4.png,2,0,2,0,,,,,0,0,0,0,0,3,3,3,,,,,,,,,,,,,,,,,,,,,,,,,,,,,,,,,,,,,,466.9182031,,36.0,1.7289459000003262,"[(36.0, 1.7289459000003262)]",,,36.0,,,,,,,sub_367,2024-01-15_10h41.55.472,Reversal,2023.1.3,59.94391647201849,3,
0,exp1.png,exp2.png,,3,0,3,0,0,0,0,0,,,,,,,,,,,,,,,,,,,,,,,,,False,60,61,False,exp1.png,exp2.png,trial_right_image,-1,exp2.png,3,exp2.png,exp1.png,1,3,reversed,correct,0.15515468290292067,0,invalid_lose,396.15012209999986,34,,,,,,,,,,,,,,,sub_367,2024-01-15_10h41.55.472,Reversal,2023.1.3,59.94391647201849,3,
1,exp3.png,exp4.png,,3,0,3,0,0,1,1,1,,,,,,,,,,,,,,,,,,,,,,,,,False,61,62,False,exp3.png,exp4.png,trial_left_image,1,exp3.png,3,exp4.png,exp3.png,0,2,non-reversed,incorrect,0.6429504526845731,0,valid_lose,400.06523090000064,34,,,,,,,,,,,,,,,sub_367,2024-01-15_10h41.55.472,Reversal,2023.1.3,59.94391647201849,3,
2,exp1.png,exp2.png,,3,0,3,0,0,2,2,2,,,,,,,,,,,,,,,,,,,,,,,,,False,62,63,True,exp2.png,exp1.png,trial_right_image,-1,exp1.png,3,exp2.png,exp1.png,0,4,reversed,incorrect,0.7902220405995464,0,valid_lose,404.03081160000056,34,,,,,,,,,,,,,,,sub_367,2024-01-15_10h41.55.472,Reversal,2023.1.3,59.94391647201849,3,
3,exp3.png,exp4.png,,3,0,3,0,0,3,3,3,,,,,,,,,,,,,,,,,,,,,,,,,False,63,64,False,exp3.png,exp4.png,trial_right_image,-1,exp4.png,3,exp4.png,exp3.png,1,1,non-reversed,correct,0.15446153722466638,0,invalid_lose,408.8286936000004,34,,,,,,,,,,,,,,,sub_367,2024-01-15_10h41.55.472,Reversal,2023.1.3,59.94391647201849,3,
4,exp1.png,exp2.png,,3,0,3,0,0,4,4,4,,,,,,,,,,,,,,,,,,,,,,,,,False,64,65,False,exp1.png,exp2.png,trial_right_image,-1,exp2.png,3,exp2.png,exp1.png,1,3,reversed,correct,0.11229352959709482,0,invalid_lose,413.87715149999985,34,,,,,,,,,,,,,,,sub_367,2024-01-15_10h41.55.472,Reversal,2023.1.3,59.94391647201849,3,
5,exp3.png,exp4.png,,3,0,3,0,0,5,5,5,,,,,,,,,,,,,,,,,,,,,,,,,False,65,66,True,exp4.png,exp3.png,trial_left_image,1,exp4.png,3,exp4.png,exp3.png,1,1,non-reversed,correct,0.7725959505501484,1,valid_win,417.89247010000054,35,,,,,,,,,,,,,,,sub_367,2024-01-15_10h41.55.472,Reversal,2023.1.3,59.94391647201849,3,
6,exp1.png,exp2.png,,3,0,3,0,0,6,6,6,,,,,,,,,,,,,,,,,,,,,,,,,False,66,67,False,exp1.png,exp2.png,trial_left_image,1,exp1.png,3,exp2.png,exp1.png,0,4,reversed,incorrect,0.16223588285924184,1,invalid_win,421.97406150000006,36,,,,,,,,,,,,,,,sub_367,2024-01-15_10h41.55.472,Reversal,2023.1.3,59.94391647201849,3,
7,exp3.png,exp4.png,,3,0,3,0,0,7,7,7,,,,,,,,,,,,,,,,,,,,,,,,,False,67,68,True,exp4.png,exp3.png,trial_left_image,1,exp4.png,3,exp4.png,exp3.png,1,1,non-reversed,correct,0.4433499244754827,1,valid_win,425.8392068000003,37,,,,,,,,,,,,,,,sub_367,2024-01-15_10h41.55.472,Reversal,2023.1.3,59.94391647201849,3,
8,exp1.png,exp2.png,,3,0,3,0,0,8,8,8,,,,,,,,,,,,,,,,,,,,,,,,,False,68,69,False,exp1.png,exp2.png,trial_left_image,1,exp1.png,3,exp2.png,exp1.png,0,4,reversed,incorrect,0.7042603023795297,0,valid_lose,429.72045789999993,37,,,,,,,,,,,,,,,sub_367,2024-01-15_10h41.55.472,Reversal,2023.1.3,59.94391647201849,3,
9,exp3.png,exp4.png,,3,0,3,0,0,9,9,9,,,,,,,,,,,,,,,,,,,,,,,,,False,69,70,False,exp3.png,exp4.png,trial_right_image,-1,exp4.png,3,exp4.png,exp3.png,1,1,non-reversed,correct,0.9987413935658441,1,valid_win,434.02036600000065,38,,,,,,,,,,,,,,,sub_367,2024-01-15_10h41.55.472,Reversal,2023.1.3,59.94391647201849,3,
10,exp1.png,exp2.png,,3,0,3,0,0,10,10,10,,,,,,,,,,,,,,,,,,,,,,,,,False,70,71,True,exp2.png,exp1.png,trial_right_image,-1,exp1.png,3,exp2.png,exp1.png,0,4,reversed,incorrect,0.15220304283626163,1,invalid_win,438.0023476000006,39,,,,,,,,,,,,,,,sub_367,2024-01-15_10h41.55.472,Reversal,2023.1.3,59.94391647201849,3,
11,exp3.png,exp4.png,,3,0,3,0,0,11,11,11,,,,,,,,,,,,,,,,,,,,,,,,,False,71,72,False,exp3.png,exp4.png,trial_left_image,1,exp3.png,3,exp4.png,exp3.png,0,2,non-reversed,incorrect,0.1596525528510484,1,invalid_win,441.9009952000006,40,,,,,,,,,,,,,,,sub_367,2024-01-15_10h41.55.472,Reversal,2023.1.3,59.94391647201849,3,
12,exp1.png,exp2.png,,3,0,3,0,0,12,12,12,,,,,,,,,,,,,,,,,,,,,,,,,False,72,73,False,exp1.png,exp2.png,trial_left_image,1,exp1.png,3,exp2.png,exp1.png,0,4,reversed,incorrect,0.7900784014298595,0,valid_lose,445.74950590000026,40,,,,,,,,,,,,,,,sub_367,2024-01-15_10h41.55.472,Reversal,2023.1.3,59.94391647201849,3,
13,exp3.png,exp4.png,,3,0,3,0,0,13,13,13,,,,,,,,,,,,,,,,,,,,,,,,,False,73,74,True,exp4.png,exp3.png,trial_right_image,-1,exp3.png,3,exp4.png,exp3.png,0,2,non-reversed,incorrect,0.14802138588266855,1,invalid_win,453.13043150000067,41,,,,,,,,,,,,,,,sub_367,2024-01-15_10h41.55.472,Reversal,2023.1.3,59.94391647201849,3,
14,exp1.png,exp2.png,,3,0,3,0,0,14,14,14,,,,,,,,,,,,,,,,,,,,,,,,,False,74,75,True,exp2.png,exp1.png,trial_right_image,-1,exp1.png,3,exp2.png,exp1.png,0,4,reversed,incorrect,0.3355466844162277,0,valid_lose,458.0621191,41,,,,,,,,,,,,,,,sub_367,2024-01-15_10h41.55.472,Reversal,2023.1.3,59.94391647201849,3,
15,exp3.png,exp4.png,,3,0,3,0,0,15,15,15,,,,,,,,,,,,,,,,,,,,,,,,,False,75,76,True,exp4.png,exp3.png,trial_right_image,-1,exp3.png,3,exp4.png,exp3.png,0,2,non-reversed,incorrect,0.224305710978977,1,invalid_win,461.99331340000026,42,,,,,,,,,,,,,,,sub_367,2024-01-15_10h41.55.472,Reversal,2023.1.3,59.94391647201849,3,
16,exp1.png,exp2.png,,3,0,3,0,0,16,16,16,,,,,,,,,,,,,,,,,,,,,,,,,False,76,77,False,exp1.png,exp2.png,trial_left_image,1,exp1.png,3,exp2.png,exp1.png,0,4,reversed,incorrect,0.18204033216816062,1,invalid_win,465.87574529999983,43,,,,,,,,,,,,,,,sub_367,2024-01-15_10h41.55.472,Reversal,2023.1.3,59.94391647201849,3,
17,exp3.png,exp4.png,,3,0,3,0,0,17,17,17,,,,,,,,,,,,,,,,,,,,,,,,,False,77,78,True,exp4.png,exp3.png,trial_right_image,-1,exp3.png,3,exp4.png,exp3.png,0,2,non-reversed,incorrect,0.8438234761283571,0,valid_lose,469.82509389999996,43,,,,,,,,,,,,,,,sub_367,2024-01-15_10h41.55.472,Reversal,2023.1.3,59.94391647201849,3,
18,exp1.png,exp2.png,,3,0,3,0,0,18,18,18,,,,,,,,,,,,,,,,,,,,,,,,,False,78,79,True,exp2.png,exp1.png,trial_right_image,-1,exp1.png,3,exp2.png,exp1.png,0,4,reversed,incorrect,0.4170082768579102,0,valid_lose,474.0904365000006,43,,,,,,,,,,,,,,,sub_367,2024-01-15_10h41.55.472,Reversal,2023.1.3,59.94391647201849,3,
19,exp3.png,exp4.png,,3,0,3,0,0,19,19,19,,,,,,,,,,,,,,,,,,,,,,,,,False,79,80,True,exp4.png,exp3.png,trial_left_image,1,exp4.png,3,exp4.png,exp3.png,1,1,non-reversed,correct,0.7307942444110265,1,valid_win,478.47167510000054,44,,,,,,,,,,,,,,,sub_367,2024-01-15_10h41.55.472,Reversal,2023.1.3,59.94391647201849,3,
20,exp1.png,exp2.png,,3,0,3,0,0,20,20,20,,,,,,,,,,,,,,,,,,,,,,,,,True,,,,,,,,,,,,,,,,,,,,,,,,,,,,,,,,,,,sub_367,2024-01-15_10h41.55.472,Reversal,2023.1.3,59.94391647201849,3,
,,,exp1.png,3,0,3,0,,,,,0,0,0,0,0,0,0,0,,,,,,,,,,,,,,,,,,,,,,,,,,,,,,,,,,,,,,556.2621896999999,40.0,40.0,4.227455000000191,"[(40.0, 4.227455000000191)]",,,,,,,,,,sub_367,2024-01-15_10h41.55.472,Reversal,2023.1.3,59.94391647201849,3,
,,,exp2.png,3,0,3,0,,,,,0,0,0,0,0,1,1,1,,,,,,,,,,,,,,,,,,,,,,,,,,,,,,,,,,,,,,562.3023259000001,,69.0,1.7699953999999707,"[(69.0, 1.7699953999999707)]",69.0,,,,,,,,,sub_367,2024-01-15_10h41.55.472,Reversal,2023.1.3,59.94391647201849,3,
,,,exp3.png,3,0,3,0,,,,,0,0,0,0,0,2,2,2,,,,,,,,,,,,,,,,,,,,,,,,,,,,,,,,,,,,,,564.9684791,,40.0,1.4144479000005958,"[(40.0, 1.4144479000005958)]",,40.0,,,,,,,,sub_367,2024-01-15_10h41.55.472,Reversal,2023.1.3,59.94391647201849,3,
,,,exp4.png,3,0,3,0,,,,,0,0,0,0,0,3,3,3,,,,,,,,,,,,,,,,,,,,,,,,,,,,,,,,,,,,,,567.1950219,,62.0,1.3037874000001466,"[(62.0, 1.3037874000001466)]",,,62.0,,,,,,,sub_367,2024-01-15_10h41.55.472,Reversal,2023.1.3,59.94391647201849,3,
0,exp1.png,exp2.png,,,,,,,,,,,,,,,,,,0,0,0,0,0,0,0,0,,,,,,,,,False,0,81,True,exp2.png,exp1.png,trial_right_image,-1,exp1.png,3,exp1.png,exp2.png,0,4,reversed,correct,0.811973813862053,1,valid_win,497.2654278,45,,,,,,,,,494.0545471000005,,,,,,sub_367,2024-01-15_10h41.55.472,Reversal,2023.1.3,59.94391647201849,3,
1,exp3.png,exp4.png,,,,,,,,,,,,,,,,,,0,0,0,0,0,1,1,1,,,,,,,,,False,1,82,True,exp4.png,exp3.png,trial_right_image,-1,exp3.png,3,exp4.png,exp3.png,0,2,non-reversed,incorrect,0.3611401520298896,0,valid_lose,502.3641593000002,45,,,,,,,,,,,,,,,sub_367,2024-01-15_10h41.55.472,Reversal,2023.1.3,59.94391647201849,3,
2,exp1.png,exp2.png,,,,,,,,,,,,,,,,,,0,0,0,0,0,2,2,2,,,,,,,,,False,2,83,False,exp1.png,exp2.png,trial_right_image,-1,exp2.png,3,exp1.png,exp2.png,1,3,reversed,incorrect,0.9491216831470141,0,valid_lose,506.2458223000003,45,,,,,,,,,,,,,,,sub_367,2024-01-15_10h41.55.472,Reversal,2023.1.3,59.94391647201849,3,
3,exp3.png,exp4.png,,,,,,,,,,,,,,,,,,0,0,0,0,0,3,3,3,,,,,,,,,False,3,84,True,exp4.png,exp3.png,trial_left_image,1,exp4.png,3,exp4.png,exp3.png,1,1,non-reversed,correct,0.12556224447417086,0,invalid_lose,510.14485539999987,45,,,,,,,,,,,,,,,sub_367,2024-01-15_10h41.55.472,Reversal,2023.1.3,59.94391647201849,3,
4,exp1.png,exp2.png,,,,,,,,,,,,,,,,,,0,0,0,0,0,4,4,4,,,,,,,,,False,4,85,True,exp2.png,exp1.png,trial_right_image,-1,exp1.png,3,exp1.png,exp2.png,0,4,reversed,correct,0.16689827780132815,0,invalid_lose,514.0097096999998,45,,,,,,,,,,,,,,,sub_367,2024-01-15_10h41.55.472,Reversal,2023.1.3,59.94391647201849,3,
5,exp3.png,exp4.png,,,,,,,,,,,,,,,,,,0,0,0,0,0,5,5,5,,,,,,,,,False,5,86,False,exp3.png,exp4.png,trial_right_image,-1,exp4.png,3,exp4.png,exp3.png,1,1,non-reversed,correct,0.6023141186076215,1,valid_win,520.0079319000006,46,,,,,,,,,,,,,,,sub_367,2024-01-15_10h41.55.472,Reversal,2023.1.3,59.94391647201849,3,
6,exp1.png,exp2.png,,,,,,,,,,,,,,,,,,0,0,0,0,0,6,6,6,,,,,,,,,False,6,87,True,exp2.png,exp1.png,trial_left_image,1,exp2.png,3,exp1.png,exp2.png,1,3,reversed,incorrect,0.5262461915689011,0,valid_lose,524.4066842000002,46,,,,,,,,,,,,,,,sub_367,2024-01-15_10h41.55.472,Reversal,2023.1.3,59.94391647201849,3,
7,exp3.png,exp4.png,,,,,,,,,,,,,,,,,,0,0,0,0,0,7,7,7,,,,,,,,,False,7,88,False,exp3.png,exp4.png,trial_right_image,-1,exp4.png,3,exp4.png,exp3.png,1,1,non-reversed,correct,0.18147061229984418,0,invalid_lose,528.5885114000002,46,,,,,,,,,,,,,,,sub_367,2024-01-15_10h41.55.472,Reversal,2023.1.3,59.94391647201849,3,
8,exp1.png,exp2.png,,,,,,,,,,,,,,,,,,0,0,0,0,0,8,8,8,,,,,,,,,False,8,89,False,exp1.png,exp2.png,trial_right_image,-1,exp2.png,3,exp1.png,exp2.png,1,3,reversed,incorrect,0.04965515645349461,1,invalid_win,532.8038112000004,47,,,,,,,,,,,,,,,sub_367,2024-01-15_10h41.55.472,Reversal,2023.1.3,59.94391647201849,3,
9,exp3.png,exp4.png,,,,,,,,,,,,,,,,,,0,0,0,0,0,9,9,9,,,,,,,,,False,9,90,False,exp3.png,exp4.png,trial_left_image,1,exp3.png,3,exp4.png,exp3.png,0,2,non-reversed,incorrect,0.7643324409007123,0,valid_lose,541.3509173000002,47,,,,,,,,,,,,,,,sub_367,2024-01-15_10h41.55.472,Reversal,2023.1.3,59.94391647201849,3,
10,exp1.png,exp2.png,,,,,,,,,,,,,,,,,,0,0,0,0,0,10,10,10,,,,,,,,,False,10,91,False,exp1.png,exp2.png,trial_right_image,-1,exp2.png,3,exp1.png,exp2.png,1,3,reversed,incorrect,0.5818069726039794,0,valid_lose,545.3825488000002,47,,,,,,,,,,,,,,,sub_367,2024-01-15_10h41.55.472,Reversal,2023.1.3,59.94391647201849,3,
11,exp3.png,exp4.png,,,,,,,,,,,,,,,,,,0,0,0,0,0,11,11,11,,,,,,,,,False,11,92,False,exp3.png,exp4.png,trial_right_image,-1,exp4.png,3,exp4.png,exp3.png,1,1,non-reversed,correct,0.7335357265430956,1,valid_win,549.2652223000005,48,,,,,,,,,,,,,,,sub_367,2024-01-15_10h41.55.472,Reversal,2023.1.3,59.94391647201849,3,
12,exp1.png,exp2.png,,,,,,,,,,,,,,,,,,0,0,0,0,0,12,12,12,,,,,,,,,False,12,93,False,exp1.png,exp2.png,trial_left_image,1,exp1.png,3,exp1.png,exp2.png,0,4,reversed,correct,0.948627111683747,1,valid_win,553.4787879000005,49,,,,,,,,,,,,,,,sub_367,2024-01-15_10h41.55.472,Reversal,2023.1.3,59.94391647201849,3,
13,exp3.png,exp4.png,,,,,,,,,,,,,,,,,,0,0,0,0,0,13,13,13,,,,,,,,,False,13,94,True,exp4.png,exp3.png,trial_right_image,-1,exp3.png,3,exp4.png,exp3.png,0,2,non-reversed,incorrect,0.5193874739917184,0,valid_lose,557.2292652000006,49,,,,,,,,,,,,,,,sub_367,2024-01-15_10h41.55.472,Reversal,2023.1.3,59.94391647201849,3,
14,exp1.png,exp2.png,,,,,,,,,,,,,,,,,,0,0,0,0,0,14,14,14,,,,,,,,,False,14,95,True,exp2.png,exp1.png,trial_right_image,-1,exp1.png,3,exp1.png,exp2.png,0,4,reversed,correct,0.25940715667459147,1,valid_win,561.0775818000002,50,,,,,,,,,,,,,,,sub_367,2024-01-15_10h41.55.472,Reversal,2023.1.3,59.94391647201849,3,
15,exp3.png,exp4.png,,,,,,,,,,,,,,,,,,0,0,0,0,0,15,15,15,,,,,,,,,False,15,96,True,exp4.png,exp3.png,trial_left_image,1,exp4.png,3,exp4.png,exp3.png,1,1,non-reversed,correct,0.8709030331889416,1,valid_win,565.4933207000004,51,,,,,,,,,,,,,,,sub_367,2024-01-15_10h41.55.472,Reversal,2023.1.3,59.94391647201849,3,
16,exp1.png,exp2.png,,,,,,,,,,,,,,,,,,0,0,0,0,0,16,16,16,,,,,,,,,False,16,97,True,exp2.png,exp1.png,trial_right_image,-1,exp1.png,3,exp1.png,exp2.png,0,4,reversed,correct,0.8276543731727041,1,valid_win,569.3081737000002,52,,,,,,,,,,,,,,,sub_367,2024-01-15_10h41.55.472,Reversal,2023.1.3,59.94391647201849,3,
17,exp3.png,exp4.png,,,,,,,,,,,,,,,,,,0,0,0,0,0,17,17,17,,,,,,,,,False,17,98,False,exp3.png,exp4.png,trial_left_image,1,exp3.png,3,exp4.png,exp3.png,0,2,non-reversed,incorrect,0.21287983864373528,1,invalid_win,573.2906763999999,53,,,,,,,,,,,,,,,sub_367,2024-01-15_10h41.55.472,Reversal,2023.1.3,59.94391647201849,3,
18,exp1.png,exp2.png,,,,,,,,,,,,,,,,,,0,0,0,0,0,18,18,18,,,,,,,,,False,18,99,True,exp2.png,exp1.png,trial_right_image,-1,exp1.png,3,exp1.png,exp2.png,0,4,reversed,correct,0.13820767095987319,0,invalid_lose,577.1887365000002,53,,,,,,,,,,,,,,,sub_367,2024-01-15_10h41.55.472,Reversal,2023.1.3,59.94391647201849,3,
19,exp3.png,exp4.png,,,,,,,,,,,,,,,,,,0,0,0,0,0,19,19,19,,,,,,,,,False,19,100,False,exp3.png,exp4.png,trial_right_image,-1,exp4.png,3,exp4.png,exp3.png,1,1,non-reversed,correct,0.9307942382144142,1,valid_win,580.9707318999999,54,,,,,,,,,,,,,,,sub_367,2024-01-15_10h41.55.472,Reversal,2023.1.3,59.94391647201849,3,
20,exp1.png,exp2.png,,,,,,,,,,,,,,,,,,0,0,0,0,0,20,20,20,,,,,,,,,True,,,,,,,,,,,,,,,,,,,,,,,,,,,,,,,,,,,sub_367,2024-01-15_10h41.55.472,Reversal,2023.1.3,59.94391647201849,3,
,,,exp1.png,,,,,,,,,,,,,,,,,0,0,0,0,,,,,0,0,0,0,0,0,0,0,,,,,,,,,,,,,,,,,,,,,,658.7621973999994,65.0,65.0,1.979463200000282,"[(65.0, 1.979463200000282)]",,,,,,,,,,sub_367,2024-01-15_10h41.55.472,Reversal,2023.1.3,59.94391647201849,3,
,,,exp2.png,,,,,,,,,,,,,,,,,0,0,0,0,,,,,0,0,0,0,0,1,1,1,,,,,,,,,,,,,,,,,,,,,,661.7332645999995,,61.0,1.0406443000001673,"[(61.0, 1.0406443000001673)]",61.0,,,,,,,,,sub_367,2024-01-15_10h41.55.472,Reversal,2023.1.3,59.94391647201849,3,
,,,exp3.png,,,,,,,,,,,,,,,,,0,0,0,0,,,,,0,0,0,0,0,2,2,2,,,,,,,,,,,,,,,,,,,,,,663.5546311999997,,43.0,0.9993262000007235,"[(43.0, 0.9993262000007235)]",,43.0,,,,,,,,sub_367,2024-01-15_10h41.55.472,Reversal,2023.1.3,59.94391647201849,3,
,,,exp4.png,,,,,,,,,,,,,,,,,0,0,0,0,,,,,0,0,0,0,0,3,3,3,,,,,,,,,,,,,,,,,,,,,,665.3642952,,59.0,0.9638832000000548,"[(59.0, 0.9638832000000548)]",,,59.0,,,,,,,sub_367,2024-01-15_10h41.55.472,Reversal,2023.1.3,59.94391647201849,3,
0,exp1.png,exp2.png,,,,,,,,,,,,,,,,,,1,0,1,0,0,0,0,0,,,,,,,,,False,20,101,True,exp2.png,exp1.png,trial_right_image,-1,exp1.png,3,exp1.png,exp2.png,0,4,reversed,correct,0.8516773892827938,1,valid_win,594.9968290000006,55,,,,,,,,,,,,,,,sub_367,2024-01-15_10h41.55.472,Reversal,2023.1.3,59.94391647201849,3,
1,exp3.png,exp4.png,,,,,,,,,,,,,,,,,,1,0,1,0,0,1,1,1,,,,,,,,,False,21,102,False,exp3.png,exp4.png,trial_right_image,-1,exp4.png,3,exp4.png,exp3.png,1,1,non-reversed,correct,0.21705089228107988,0,invalid_lose,599.1514351000005,55,,,,,,,,,,,,,,,sub_367,2024-01-15_10h41.55.472,Reversal,2023.1.3,59.94391647201849,3,
2,exp1.png,exp2.png,,,,,,,,,,,,,,,,,,1,0,1,0,0,2,2,2,,,,,,,,,False,22,103,True,exp2.png,exp1.png,trial_left_image,1,exp2.png,3,exp1.png,exp2.png,1,3,reversed,incorrect,0.4311474994126093,0,valid_lose,603.5940354000004,55,,,,,,,,,,,,,,,sub_367,2024-01-15_10h41.55.472,Reversal,2023.1.3,59.94391647201849,3,
3,exp3.png,exp4.png,,,,,,,,,,,,,,,,,,1,0,1,0,0,3,3,3,,,,,,,,,False,23,104,True,exp4.png,exp3.png,trial_left_image,1,exp4.png,3,exp4.png,exp3.png,1,1,non-reversed,correct,0.11100844283684919,0,invalid_lose,607.9100060999999,55,,,,,,,,,,,,,,,sub_367,2024-01-15_10h41.55.472,Reversal,2023.1.3,59.94391647201849,3,
4,exp1.png,exp2.png,,,,,,,,,,,,,,,,,,1,0,1,0,0,4,4,4,,,,,,,,,False,24,105,False,exp1.png,exp2.png,trial_left_image,1,exp1.png,3,exp1.png,exp2.png,0,4,reversed,correct,0.6222149037008143,1,valid_win,611.7253981000003,56,,,,,,,,,,,,,,,sub_367,2024-01-15_10h41.55.472,Reversal,2023.1.3,59.94391647201849,3,
5,exp3.png,exp4.png,,,,,,,,,,,,,,,,,,1,0,1,0,0,5,5,5,,,,,,,,,False,25,106,False,exp3.png,exp4.png,trial_left_image,1,exp3.png,3,exp4.png,exp3.png,0,2,non-reversed,incorrect,0.1623046946680896,1,invalid_win,615.5574127999998,57,,,,,,,,,,,,,,,sub_367,2024-01-15_10h41.55.472,Reversal,2023.1.3,59.94391647201849,3,
6,exp1.png,exp2.png,,,,,,,,,,,,,,,,,,1,0,1,0,0,6,6,6,,,,,,,,,False,26,107,True,exp2.png,exp1.png,trial_right_image,-1,exp1.png,3,exp1.png,exp2.png,0,4,reversed,correct,0.8631940692252812,1,valid_win,619.4226894000003,58,,,,,,,,,,,,,,,sub_367,2024-01-15_10h41.55.472,Reversal,2023.1.3,59.94391647201849,3,
7,exp3.png,exp4.png,,,,,,,,,,,,,,,,,,1,0,1,0,0,7,7,7,,,,,,,,,False,27,108,True,exp4.png,exp3.png,trial_right_image,-1,exp3.png,3,exp4.png,exp3.png,0,2,non-reversed,incorrect,0.7801475479903887,0,valid_lose,623.7714133999998,58,,,,,,,,,,,,,,,sub_367,2024-01-15_10h41.55.472,Reversal,2023.1.3,59.94391647201849,3,
8,exp1.png,exp2.png,,,,,,,,,,,,,,,,,,1,0,1,0,0,8,8,8,,,,,,,,,False,28,109,False,exp1.png,exp2.png,trial_left_image,1,exp1.png,3,exp1.png,exp2.png,0,4,reversed,correct,0.8053329036151534,1,valid_win,627.6700920000003,59,,,,,,,,,,,,,,,sub_367,2024-01-15_10h41.55.472,Reversal,2023.1.3,59.94391647201849,3,
9,exp3.png,exp4.png,,,,,,,,,,,,,,,,,,1,0,1,0,0,9,9,9,,,,,,,,,False,29,110,True,exp4.png,exp3.png,trial_left_image,1,exp4.png,3,exp4.png,exp3.png,1,1,non-reversed,correct,0.15289383694019443,0,invalid_lose,631.8687144000005,59,,,,,,,,,,,,,,,sub_367,2024-01-15_10h41.55.472,Reversal,2023.1.3,59.94391647201849,3,
10,exp1.png,exp2.png,,,,,,,,,,,,,,,,,,1,0,1,0,0,10,10,10,,,,,,,,,False,30,111,False,exp1.png,exp2.png,trial_right_image,-1,exp2.png,3,exp1.png,exp2.png,1,3,reversed,incorrect,0.8657548369029847,0,valid_lose,636.0173126999998,59,,,,,,,,,,,,,,,sub_367,2024-01-15_10h41.55.472,Reversal,2023.1.3,59.94391647201849,3,
11,exp3.png,exp4.png,,,,,,,,,,,,,,,,,,1,0,1,0,0,11,11,11,,,,,,,,,False,31,112,True,exp4.png,exp3.png,trial_right_image,-1,exp3.png,3,exp4.png,exp3.png,0,2,non-reversed,incorrect,0.28722543070005246,0,valid_lose,639.9157273999999,59,,,,,,,,,,,,,,,sub_367,2024-01-15_10h41.55.472,Reversal,2023.1.3,59.94391647201849,3,
12,exp1.png,exp2.png,,,,,,,,,,,,,,,,,,1,0,1,0,0,12,12,12,,,,,,,,,False,32,113,True,exp2.png,exp1.png,trial_left_image,1,exp2.png,3,exp1.png,exp2.png,1,3,reversed,incorrect,0.828051353566019,0,valid_lose,643.9976855000004,59,,,,,,,,,,,,,,,sub_367,2024-01-15_10h41.55.472,Reversal,2023.1.3,59.94391647201849,3,
13,exp3.png,exp4.png,,,,,,,,,,,,,,,,,,1,0,1,0,0,13,13,13,,,,,,,,,False,33,114,False,exp3.png,exp4.png,trial_left_image,1,exp3.png,3,exp4.png,exp3.png,0,2,non-reversed,incorrect,0.9874073560345503,0,valid_lose,648.2625650999998,59,,,,,,,,,,,,,,,sub_367,2024-01-15_10h41.55.472,Reversal,2023.1.3,59.94391647201849,3,
14,exp1.png,exp2.png,,,,,,,,,,,,,,,,,,1,0,1,0,0,14,14,14,,,,,,,,,False,34,115,True,exp2.png,exp1.png,trial_left_image,1,exp2.png,3,exp1.png,exp2.png,1,3,reversed,incorrect,0.1862402033004681,1,invalid_win,653.3966324000003,60,,,,,,,,,,,,,,,sub_367,2024-01-15_10h41.55.472,Reversal,2023.1.3,59.94391647201849,3,
15,exp3.png,exp4.png,,,,,,,,,,,,,,,,,,1,0,1,0,0,15,15,15,,,,,,,,,False,35,116,False,exp3.png,exp4.png,trial_right_image,-1,exp4.png,3,exp4.png,exp3.png,1,1,non-reversed,correct,0.27258929876635907,1,valid_win,657.5438408999999,61,,,,,,,,,,,,,,,sub_367,2024-01-15_10h41.55.472,Reversal,2023.1.3,59.94391647201849,3,
16,exp1.png,exp2.png,,,,,,,,,,,,,,,,,,1,0,1,0,0,16,16,16,,,,,,,,,False,36,117,False,exp1.png,exp2.png,trial_right_image,-1,exp2.png,3,exp1.png,exp2.png,1,3,reversed,incorrect,0.2739429468812248,0,valid_lose,661.6913337000005,61,,,,,,,,,,,,,,,sub_367,2024-01-15_10h41.55.472,Reversal,2023.1.3,59.94391647201849,3,
17,exp3.png,exp4.png,,,,,,,,,,,,,,,,,,1,0,1,0,0,17,17,17,,,,,,,,,False,37,118,True,exp4.png,exp3.png,trial_right_image,-1,exp3.png,3,exp4.png,exp3.png,0,2,non-reversed,incorrect,0.9942433078415523,0,valid_lose,665.5755506000005,61,,,,,,,,,,,,,,,sub_367,2024-01-15_10h41.55.472,Reversal,2023.1.3,59.94391647201849,3,
18,exp1.png,exp2.png,,,,,,,,,,,,,,,,,,1,0,1,0,0,18,18,18,,,,,,,,,False,38,119,False,exp1.png,exp2.png,trial_right_image,-1,exp2.png,3,exp1.png,exp2.png,1,3,reversed,incorrect,0.6308938112078826,0,valid_lose,670.8573589000007,61,,,,,,,,,,,,,,,sub_367,2024-01-15_10h41.55.472,Reversal,2023.1.3,59.94391647201849,3,
19,exp3.png,exp4.png,,,,,,,,,,,,,,,,,,1,0,1,0,0,19,19,19,,,,,,,,,False,39,120,False,exp3.png,exp4.png,trial_left_image,1,exp3.png,3,exp4.png,exp3.png,0,2,non-reversed,incorrect,0.6516260849653377,0,valid_lose,674.8727384000003,61,,,,,,,,,,,,,,,sub_367,2024-01-15_10h41.55.472,Reversal,2023.1.3,59.94391647201849,3,
20,exp1.png,exp2.png,,,,,,,,,,,,,,,,,,1,0,1,0,0,20,20,20,,,,,,,,,True,,,,,,,,,,,,,,,,,,,,,,,,,,,,,,,,,,,sub_367,2024-01-15_10h41.55.472,Reversal,2023.1.3,59.94391647201849,3,
,,,exp1.png,,,,,,,,,,,,,,,,,1,0,1,0,,,,,0,0,0,0,0,0,0,0,,,,,,,,,,,,,,,,,,,,,,752.6578836999997,54.0,54.0,2.417838700000175,"[(54.0, 2.417838700000175)]",,,,,,,,,,sub_367,2024-01-15_10h41.55.472,Reversal,2023.1.3,59.94391647201849,3,
,,,exp2.png,,,,,,,,,,,,,,,,,1,0,1,0,,,,,0,0,0,0,0,1,1,1,,,,,,,,,,,,,,,,,,,,,,755.8817537999994,,46.0,0.9505908999999519,"[(46.0, 0.9505908999999519)]",46.0,,,,,,,,,sub_367,2024-01-15_10h41.55.472,Reversal,2023.1.3,59.94391647201849,3,
,,,exp3.png,,,,,,,,,,,,,,,,,1,0,1,0,,,,,0,0,0,0,0,2,2,2,,,,,,,,,,,,,,,,,,,,,,757.6745773000002,,58.0,0.8761565000004339,"[(58.0, 0.8761565000004339)]",,58.0,,,,,,,,sub_367,2024-01-15_10h41.55.472,Reversal,2023.1.3,59.94391647201849,3,
,,,exp4.png,,,,,,,,,,,,,,,,,1,0,1,0,,,,,0,0,0,0,0,3,3,3,,,,,,,,,,,,,,,,,,,,,,759.2949057999995,,44.0,1.0369496000002982,"[(44.0, 1.0369496000002982)]",,,44.0,,,,,,,sub_367,2024-01-15_10h41.55.472,Reversal,2023.1.3,59.94391647201849,3,
0,exp1.png,exp2.png,,,,,,,,,,,,,,,,,,2,0,2,0,0,0,0,0,,,,,,,,,False,40,121,False,exp1.png,exp2.png,trial_right_image,-1,exp2.png,3,exp1.png,exp2.png,1,3,reversed,incorrect,0.18931825745566133,1,invalid_win,688.1676711,62,,,,,,,,,,,,,,,sub_367,2024-01-15_10h41.55.472,Reversal,2023.1.3,59.94391647201849,3,
1,exp3.png,exp4.png,,,,,,,,,,,,,,,,,,2,0,2,0,0,1,1,1,,,,,,,,,False,41,122,True,exp4.png,exp3.png,trial_right_image,-1,exp3.png,3,exp4.png,exp3.png,0,2,non-reversed,incorrect,0.7463145541087032,0,valid_lose,692.0498732000005,62,,,,,,,,,,,,,,,sub_367,2024-01-15_10h41.55.472,Reversal,2023.1.3,59.94391647201849,3,
2,exp1.png,exp2.png,,,,,,,,,,,,,,,,,,2,0,2,0,0,2,2,2,,,,,,,,,False,42,123,False,exp1.png,exp2.png,trial_right_image,-1,exp2.png,3,exp1.png,exp2.png,1,3,reversed,incorrect,0.9991252728617855,0,valid_lose,696.7147353,62,,,,,,,,,,,,,,,sub_367,2024-01-15_10h41.55.472,Reversal,2023.1.3,59.94391647201849,3,
3,exp3.png,exp4.png,,,,,,,,,,,,,,,,,,2,0,2,0,0,3,3,3,,,,,,,,,False,43,124,False,exp3.png,exp4.png,trial_left_image,1,exp3.png,3,exp4.png,exp3.png,0,2,non-reversed,incorrect,0.373019248807016,0,valid_lose,700.7969823000003,62,,,,,,,,,,,,,,,sub_367,2024-01-15_10h41.55.472,Reversal,2023.1.3,59.94391647201849,3,
4,exp1.png,exp2.png,,,,,,,,,,,,,,,,,,2,0,2,0,0,4,4,4,,,,,,,,,False,44,125,True,exp2.png,exp1.png,trial_right_image,-1,exp1.png,3,exp1.png,exp2.png,0,4,reversed,correct,0.22932166751359506,0,invalid_lose,704.5955099000003,62,,,,,,,,,,,,,,,sub_367,2024-01-15_10h41.55.472,Reversal,2023.1.3,59.94391647201849,3,
5,exp3.png,exp4.png,,,,,,,,,,,,,,,,,,2,0,2,0,0,5,5,5,,,,,,,,,False,45,126,True,exp4.png,exp3.png,trial_left_image,1,exp4.png,3,exp4.png,exp3.png,1,1,non-reversed,correct,0.10697372505878411,0,invalid_lose,709.5778685000005,62,,,,,,,,,,,,,,,sub_367,2024-01-15_10h41.55.472,Reversal,2023.1.3,59.94391647201849,3,
6,exp1.png,exp2.png,,,,,,,,,,,,,,,,,,2,0,2,0,0,6,6,6,,,,,,,,,False,46,127,True,exp2.png,exp1.png,trial_right_image,-1,exp1.png,3,exp1.png,exp2.png,0,4,reversed,correct,0.7980265920906959,1,valid_win,715.0926198000006,63,,,,,,,,,,,,,,,sub_367,2024-01-15_10h41.55.472,Reversal,2023.1.3,59.94391647201849,3,
7,exp3.png,exp4.png,,,,,,,,,,,,,,,,,,2,0,2,0,0,7,7,7,,,,,,,,,False,47,128,True,exp4.png,exp3.png,trial_left_image,1,exp4.png,3,exp4.png,exp3.png,1,1,non-reversed,correct,0.15929520140672582,0,invalid_lose,722.9565498000002,63,,,,,,,,,,,,,,,sub_367,2024-01-15_10h41.55.472,Reversal,2023.1.3,59.94391647201849,3,
8,exp1.png,exp2.png,,,,,,,,,,,,,,,,,,2,0,2,0,0,8,8,8,,,,,,,,,False,48,129,True,exp2.png,exp1.png,trial_right_image,-1,exp1.png,3,exp1.png,exp2.png,0,4,reversed,correct,0.22311542973638188,0,invalid_lose,726.8880833000003,63,,,,,,,,,,,,,,,sub_367,2024-01-15_10h41.55.472,Reversal,2023.1.3,59.94391647201849,3,
9,exp3.png,exp4.png,,,,,,,,,,,,,,,,,,2,0,2,0,0,9,9,9,,,,,,,,,False,49,130,True,exp4.png,exp3.png,trial_right_image,-1,exp3.png,3,exp4.png,exp3.png,0,2,non-reversed,incorrect,0.05435239094601596,1,invalid_win,730.9372096000006,64,,,,,,,,,,,,,,,sub_367,2024-01-15_10h41.55.472,Reversal,2023.1.3,59.94391647201849,3,
10,exp1.png,exp2.png,,,,,,,,,,,,,,,,,,2,0,2,0,0,10,10,10,,,,,,,,,False,50,131,True,exp2.png,exp1.png,trial_right_image,-1,exp1.png,3,exp1.png,exp2.png,0,4,reversed,correct,0.18254360958341043,0,invalid_lose,734.9187799000001,64,,,,,,,,,,,,,,,sub_367,2024-01-15_10h41.55.472,Reversal,2023.1.3,59.94391647201849,3,
11,exp3.png,exp4.png,,,,,,,,,,,,,,,,,,2,0,2,0,0,11,11,11,,,,,,,,,False,51,132,False,exp3.png,exp4.png,trial_left_image,1,exp3.png,3,exp4.png,exp3.png,0,2,non-reversed,incorrect,0.8415038908697623,0,valid_lose,739.3670099000001,64,,,,,,,,,,,,,,,sub_367,2024-01-15_10h41.55.472,Reversal,2023.1.3,59.94391647201849,3,
12,exp1.png,exp2.png,,,,,,,,,,,,,,,,,,2,0,2,0,0,12,12,12,,,,,,,,,False,52,133,False,exp1.png,exp2.png,trial_right_image,-1,exp2.png,3,exp1.png,exp2.png,1,3,reversed,incorrect,0.8070171948155402,0,valid_lose,743.1810191000004,64,,,,,,,,,,,,,,,sub_367,2024-01-15_10h41.55.472,Reversal,2023.1.3,59.94391647201849,3,
13,exp3.png,exp4.png,,,,,,,,,,,,,,,,,,2,0,2,0,0,13,13,13,,,,,,,,,False,53,134,False,exp3.png,exp4.png,trial_right_image,-1,exp4.png,3,exp4.png,exp3.png,1,1,non-reversed,correct,0.780406993828322,1,valid_win,747.0646732000005,65,,,,,,,,,,,,,,,sub_367,2024-01-15_10h41.55.472,Reversal,2023.1.3,59.94391647201849,3,
14,exp1.png,exp2.png,,,,,,,,,,,,,,,,,,2,0,2,0,0,14,14,14,,,,,,,,,False,54,135,True,exp2.png,exp1.png,trial_right_image,-1,exp1.png,3,exp1.png,exp2.png,0,4,reversed,correct,0.7070401834679221,1,valid_win,751.0799932999998,66,,,,,,,,,,,,,,,sub_367,2024-01-15_10h41.55.472,Reversal,2023.1.3,59.94391647201849,3,
15,exp3.png,exp4.png,,,,,,,,,,,,,,,,,,2,0,2,0,0,15,15,15,,,,,,,,,False,55,136,False,exp3.png,exp4.png,trial_left_image,1,exp3.png,3,exp4.png,exp3.png,0,2,non-reversed,incorrect,0.4179742768489274,0,valid_lose,754.9611493000002,66,,,,,,,,,,,,,,,sub_367,2024-01-15_10h41.55.472,Reversal,2023.1.3,59.94391647201849,3,
16,exp1.png,exp2.png,,,,,,,,,,,,,,,,,,2,0,2,0,0,16,16,16,,,,,,,,,False,56,137,False,exp1.png,exp2.png,trial_left_image,1,exp1.png,3,exp1.png,exp2.png,0,4,reversed,correct,0.42478225968176075,1,valid_win,758.8445345,67,,,,,,,,,,,,,,,sub_367,2024-01-15_10h41.55.472,Reversal,2023.1.3,59.94391647201849,3,
17,exp3.png,exp4.png,,,,,,,,,,,,,,,,,,2,0,2,0,0,17,17,17,,,,,,,,,False,57,138,False,exp3.png,exp4.png,trial_left_image,1,exp3.png,3,exp4.png,exp3.png,0,2,non-reversed,incorrect,0.5516785517490849,0,valid_lose,762.7092923999999,67,,,,,,,,,,,,,,,sub_367,2024-01-15_10h41.55.472,Reversal,2023.1.3,59.94391647201849,3,
18,exp1.png,exp2.png,,,,,,,,,,,,,,,,,,2,0,2,0,0,18,18,18,,,,,,,,,False,58,139,False,exp1.png,exp2.png,trial_left_image,1,exp1.png,3,exp1.png,exp2.png,0,4,reversed,correct,0.6688457659971516,1,valid_win,766.8410629999998,68,,,,,,,,,,,,,,,sub_367,2024-01-15_10h41.55.472,Reversal,2023.1.3,59.94391647201849,3,
19,exp3.png,exp4.png,,,,,,,,,,,,,,,,,,2,0,2,0,0,19,19,19,,,,,,,,,False,59,140,True,exp4.png,exp3.png,trial_right_image,-1,exp3.png,3,exp4.png,exp3.png,0,2,non-reversed,incorrect,0.718600518225062,0,valid_lose,770.6566249000007,68,,,,,,,,,,,,,,,sub_367,2024-01-15_10h41.55.472,Reversal,2023.1.3,59.94391647201849,3,
20,exp1.png,exp2.png,,,,,,,,,,,,,,,,,,2,0,2,0,0,20,20,20,,,,,,,,,True,,,,,,,,,,,,,,,,,,,,,,,,,,,,,,,,,,,sub_367,2024-01-15_10h41.55.472,Reversal,2023.1.3,59.94391647201849,3,
,,,exp1.png,,,,,,,,,,,,,,,,,2,0,2,0,,,,,0,0,0,0,0,0,0,0,,,,,,,,,,,,,,,,,,,,,,848.4422685,56.0,56.0,2.2142468000001827,"[(56.0, 2.2142468000001827)]",,,,,,,,,,sub_367,2024-01-15_10h41.55.472,Reversal,2023.1.3,59.94391647201849,3,
,,,exp2.png,,,,,,,,,,,,,,,,,2,0,2,0,,,,,0,0,0,0,0,1,1,1,,,,,,,,,,,,,,,,,,,,,,851.5390847999997,,44.0,1.2289090000003853,"[(44.0, 1.2289090000003853)]",44.0,,,,,,,,,sub_367,2024-01-15_10h41.55.472,Reversal,2023.1.3,59.94391647201849,3,
,,,exp3.png,,,,,,,,,,,,,,,,,2,0,2,0,,,,,0,0,0,0,0,2,2,2,,,,,,,,,,,,,,,,,,,,,,853.6507796999995,,59.0,0.8840569000003597,"[(59.0, 0.8840569000003597)]",,59.0,,,,,,,,sub_367,2024-01-15_10h41.55.472,Reversal,2023.1.3,59.94391647201849,3,
,,,exp4.png,,,,,,,,,,,,,,,,,2,0,2,0,,,,,0,0,0,0,0,3,3,3,,,,,,,,,,,,,,,,,,,,,,856.3188006999999,,42.0,1.1028611000001547,"[(42.0, 1.1028611000001547)]",,,42.0,,,,,,,sub_367,2024-01-15_10h41.55.472,Reversal,2023.1.3,59.94391647201849,3,
,,,,,,,,,,,,,,,,,,,,,,,,,,,,,,,,,,,,,,,,,,,,,,,,,,,,,,,,68,,,,,,,,,,70,40,30,288.95129989999987,1,,,,,,,
