trial_index,trial_image1_file,trial_image2_file,image_file,learning_outer_loop.thisRepN,learning_outer_loop.thisTrialN,learning_outer_loop.thisN,learning_outer_loop.thisIndex,learning_inner_loop.thisRepN,learning_inner_loop.thisTrialN,learning_inner_loop.thisN,learning_inner_loop.thisIndex,learning_estimation_outer_loop.thisRepN,learning_estimation_outer_loop.thisTrialN,learning_estimation_outer_loop.thisN,learning_estimation_outer_loop.thisIndex,learning_estimation_inner_loop.thisRepN,learning_estimation_inner_loop.thisTrialN,learning_estimation_inner_loop.thisN,learning_estimation_inner_loop.thisIndex,reversal_outer_loop.thisRepN,reversal_outer_loop.thisTrialN,reversal_outer_loop.thisN,reversal_outer_loop.thisIndex,reversal_inner_loop.thisRepN,reversal_inner_loop.thisTrialN,reversal_inner_loop.thisN,reversal_inner_loop.thisIndex,reversal_estimation_outer_loop.thisRepN,reversal_estimation_outer_loop.thisTrialN,reversal_estimation_outer_loop.thisN,reversal_estimation_outer_loop.thisIndex,reversal_estimation_inner_loop.thisRepN,reversal_estimation_inner_loop.thisTrialN,reversal_estimation_inner_loop.thisN,reversal_estimation_inner_loop.thisIndex,skipped,total_trial_counter,trial_num,left_right_flip,left_image_file,right_image_file,clicked_stimulus_side,side,clicked_stimulus,version,high_prob_image_file,low_prob_image_file,choice_a,choice_b,pair_type,correct,trial_feedback_random,reward,trial_type,overall_time_after_trial,score,estimation_rating.started,estimation_exp1.png,estimation_rating.response,estimation_rating.rt,estimation_rating.history,estimation_exp2.png,estimation_exp3.png,estimation_exp4.png,total_learning_time,total_correct,learning_correct,reversal_correct,total_reversal_time,extra_block,end_experiment.keys,end_experiment.rt,end_experiment.duration,participant,date,expName,psychopyVersion,frameRate,ver,
0,exp1.png,exp2.png,,0,0,0,0,0,0,0,0,,,,,,,,,,,,,,,,,,,,,,,,,False,0,1,False,exp1.png,exp2.png,trial_right_image,-1,exp2.png,4,exp2.png,exp1.png,1,1,non-reversed,correct,0.5226657098340604,1,valid_win,4.563360199999806,1,,,,,,,,,,,,,,,,,,sub_920,2024-05-20_16h48.12.171,Reversal,2023.1.3,59.94952250203079,4,
1,exp3.png,exp4.png,,0,0,0,0,0,1,1,1,,,,,,,,,,,,,,,,,,,,,,,,,False,1,2,False,exp3.png,exp4.png,trial_right_image,-1,exp4.png,4,exp4.png,exp3.png,1,3,reversed,correct,0.6250110396974082,1,valid_win,12.461057499999697,2,,,,,,,,,,,,,,,,,,sub_920,2024-05-20_16h48.12.171,Reversal,2023.1.3,59.94952250203079,4,
2,exp1.png,exp2.png,,0,0,0,0,0,2,2,2,,,,,,,,,,,,,,,,,,,,,,,,,False,2,3,True,exp2.png,exp1.png,trial_left_image,1,exp2.png,4,exp2.png,exp1.png,1,1,non-reversed,correct,0.41446097359854006,1,valid_win,17.593196199999966,3,,,,,,,,,,,,,,,,,,sub_920,2024-05-20_16h48.12.171,Reversal,2023.1.3,59.94952250203079,4,
3,exp3.png,exp4.png,,0,0,0,0,0,3,3,3,,,,,,,,,,,,,,,,,,,,,,,,,False,3,4,False,exp3.png,exp4.png,trial_right_image,-1,exp4.png,4,exp4.png,exp3.png,1,3,reversed,correct,0.6242613119391688,1,valid_win,29.305674700000054,4,,,,,,,,,,,,,,,,,,sub_920,2024-05-20_16h48.12.171,Reversal,2023.1.3,59.94952250203079,4,
4,exp1.png,exp2.png,,0,0,0,0,0,4,4,4,,,,,,,,,,,,,,,,,,,,,,,,,False,4,5,True,exp2.png,exp1.png,trial_right_image,-1,exp1.png,4,exp2.png,exp1.png,0,2,non-reversed,incorrect,0.1512149035597221,1,invalid_win,35.17006569999967,5,,,,,,,,,,,,,,,,,,sub_920,2024-05-20_16h48.12.171,Reversal,2023.1.3,59.94952250203079,4,
5,exp3.png,exp4.png,,0,0,0,0,0,5,5,5,,,,,,,,,,,,,,,,,,,,,,,,,False,5,6,True,exp4.png,exp3.png,trial_left_image,1,exp4.png,4,exp4.png,exp3.png,1,3,reversed,correct,0.2726930340975098,1,valid_win,43.58338559999993,6,,,,,,,,,,,,,,,,,,sub_920,2024-05-20_16h48.12.171,Reversal,2023.1.3,59.94952250203079,4,
6,exp1.png,exp2.png,,0,0,0,0,0,6,6,6,,,,,,,,,,,,,,,,,,,,,,,,,False,6,7,True,exp2.png,exp1.png,trial_right_image,-1,exp1.png,4,exp2.png,exp1.png,0,2,non-reversed,incorrect,0.8105663739971812,0,valid_lose,50.81577779999998,6,,,,,,,,,,,,,,,,,,sub_920,2024-05-20_16h48.12.171,Reversal,2023.1.3,59.94952250203079,4,
7,exp3.png,exp4.png,,0,0,0,0,0,7,7,7,,,,,,,,,,,,,,,,,,,,,,,,,False,7,8,True,exp4.png,exp3.png,trial_left_image,1,exp4.png,4,exp4.png,exp3.png,1,3,reversed,correct,0.1788129138072817,0,invalid_lose,55.213023599999815,6,,,,,,,,,,,,,,,,,,sub_920,2024-05-20_16h48.12.171,Reversal,2023.1.3,59.94952250203079,4,
8,exp1.png,exp2.png,,0,0,0,0,0,8,8,8,,,,,,,,,,,,,,,,,,,,,,,,,False,8,9,True,exp2.png,exp1.png,trial_right_image,-1,exp1.png,4,exp2.png,exp1.png,0,2,non-reversed,incorrect,0.08563415649590433,1,invalid_win,61.76096839999991,7,,,,,,,,,,,,,,,,,,sub_920,2024-05-20_16h48.12.171,Reversal,2023.1.3,59.94952250203079,4,
9,exp3.png,exp4.png,,0,0,0,0,0,9,9,9,,,,,,,,,,,,,,,,,,,,,,,,,False,9,10,False,exp3.png,exp4.png,trial_left_image,1,exp3.png,4,exp4.png,exp3.png,0,4,reversed,incorrect,0.3399678398867677,0,valid_lose,70.85786329999974,7,,,,,,,,,,,,,,,,,,sub_920,2024-05-20_16h48.12.171,Reversal,2023.1.3,59.94952250203079,4,
10,exp1.png,exp2.png,,0,0,0,0,0,10,10,10,,,,,,,,,,,,,,,,,,,,,,,,,False,10,11,False,exp1.png,exp2.png,trial_right_image,-1,exp2.png,4,exp2.png,exp1.png,1,1,non-reversed,correct,0.5461348442800407,1,valid_win,75.30602109999973,8,,,,,,,,,,,,,,,,,,sub_920,2024-05-20_16h48.12.171,Reversal,2023.1.3,59.94952250203079,4,
11,exp3.png,exp4.png,,0,0,0,0,0,11,11,11,,,,,,,,,,,,,,,,,,,,,,,,,False,11,12,True,exp4.png,exp3.png,trial_left_image,1,exp4.png,4,exp4.png,exp3.png,1,3,reversed,correct,0.582222905739345,1,valid_win,80.00705779999998,9,,,,,,,,,,,,,,,,,,sub_920,2024-05-20_16h48.12.171,Reversal,2023.1.3,59.94952250203079,4,
12,exp1.png,exp2.png,,0,0,0,0,0,12,12,12,,,,,,,,,,,,,,,,,,,,,,,,,False,12,13,False,exp1.png,exp2.png,trial_right_image,-1,exp2.png,4,exp2.png,exp1.png,1,1,non-reversed,correct,0.03828686029907258,0,invalid_lose,84.16958739999973,9,,,,,,,,,,,,,,,,,,sub_920,2024-05-20_16h48.12.171,Reversal,2023.1.3,59.94952250203079,4,
13,exp3.png,exp4.png,,0,0,0,0,0,13,13,13,,,,,,,,,,,,,,,,,,,,,,,,,False,13,14,True,exp4.png,exp3.png,trial_left_image,1,exp4.png,4,exp4.png,exp3.png,1,3,reversed,correct,0.24165594754766184,0,invalid_lose,90.11774049999985,9,,,,,,,,,,,,,,,,,,sub_920,2024-05-20_16h48.12.171,Reversal,2023.1.3,59.94952250203079,4,
14,exp1.png,exp2.png,,0,0,0,0,0,14,14,14,,,,,,,,,,,,,,,,,,,,,,,,,False,14,15,False,exp1.png,exp2.png,trial_right_image,-1,exp2.png,4,exp2.png,exp1.png,1,1,non-reversed,correct,0.9026277817398567,1,valid_win,96.29924459999984,10,,,,,,,,,,,,,,,,,,sub_920,2024-05-20_16h48.12.171,Reversal,2023.1.3,59.94952250203079,4,
15,exp3.png,exp4.png,,0,0,0,0,0,15,15,15,,,,,,,,,,,,,,,,,,,,,,,,,False,15,16,False,exp3.png,exp4.png,trial_right_image,-1,exp4.png,4,exp4.png,exp3.png,1,3,reversed,correct,0.5739451830852935,1,valid_win,105.17955749999965,11,,,,,,,,,,,,,,,,,,sub_920,2024-05-20_16h48.12.171,Reversal,2023.1.3,59.94952250203079,4,
16,exp1.png,exp2.png,,0,0,0,0,0,16,16,16,,,,,,,,,,,,,,,,,,,,,,,,,False,16,17,False,exp1.png,exp2.png,trial_right_image,-1,exp2.png,4,exp2.png,exp1.png,1,1,non-reversed,correct,0.2991782174426342,1,valid_win,109.99462839999978,12,,,,,,,,,,,,,,,,,,sub_920,2024-05-20_16h48.12.171,Reversal,2023.1.3,59.94952250203079,4,
17,exp3.png,exp4.png,,0,0,0,0,0,17,17,17,,,,,,,,,,,,,,,,,,,,,,,,,False,17,18,True,exp4.png,exp3.png,trial_left_image,1,exp4.png,4,exp4.png,exp3.png,1,3,reversed,correct,0.9169950932447681,1,valid_win,114.8098028999998,13,,,,,,,,,,,,,,,,,,sub_920,2024-05-20_16h48.12.171,Reversal,2023.1.3,59.94952250203079,4,
18,exp1.png,exp2.png,,0,0,0,0,0,18,18,18,,,,,,,,,,,,,,,,,,,,,,,,,False,18,19,True,exp2.png,exp1.png,trial_left_image,1,exp2.png,4,exp2.png,exp1.png,1,1,non-reversed,correct,0.6079460442901605,1,valid_win,119.15795089999983,14,,,,,,,,,,,,,,,,,,sub_920,2024-05-20_16h48.12.171,Reversal,2023.1.3,59.94952250203079,4,
19,exp3.png,exp4.png,,0,0,0,0,0,19,19,19,,,,,,,,,,,,,,,,,,,,,,,,,False,19,20,False,exp3.png,exp4.png,trial_right_image,-1,exp4.png,4,exp4.png,exp3.png,1,3,reversed,correct,0.5542875801449502,1,valid_win,123.8732388999997,15,,,,,,,,,,,,,,,,,,sub_920,2024-05-20_16h48.12.171,Reversal,2023.1.3,59.94952250203079,4,
20,exp1.png,exp2.png,,0,0,0,0,0,20,20,20,,,,,,,,,,,,,,,,,,,,,,,,,True,,,,,,,,,,,,,,,,,,,,,,,,,,,,,,,,,,,,,,sub_920,2024-05-20_16h48.12.171,Reversal,2023.1.3,59.94952250203079,4,
,,,exp1.png,0,0,0,0,,,,,0,0,0,0,0,0,0,0,,,,,,,,,,,,,,,,,,,,,,,,,,,,,,,,,,,,,,200.17724739999994,1.0,1.0,12.383976200000234,"[(1.0, 12.383976200000234)]",,,,,,,,,,,,,sub_920,2024-05-20_16h48.12.171,Reversal,2023.1.3,59.94952250203079,4,
,,,exp2.png,0,0,0,0,,,,,0,0,0,0,0,1,1,1,,,,,,,,,,,,,,,,,,,,,,,,,,,,,,,,,,,,,,213.87952900000028,,100.0,1.9864345999999387,"[(100.0, 1.9864345999999387)]",100.0,,,,,,,,,,,,sub_920,2024-05-20_16h48.12.171,Reversal,2023.1.3,59.94952250203079,4,
,,,exp3.png,0,0,0,0,,,,,0,0,0,0,0,2,2,2,,,,,,,,,,,,,,,,,,,,,,,,,,,,,,,,,,,,,,217.10785870000018,,9.0,5.409113499999876,"[(9.0, 5.409113499999876)]",,9.0,,,,,,,,,,,sub_920,2024-05-20_16h48.12.171,Reversal,2023.1.3,59.94952250203079,4,
,,,exp4.png,0,0,0,0,,,,,0,0,0,0,0,3,3,3,,,,,,,,,,,,,,,,,,,,,,,,,,,,,,,,,,,,,,224.90481130000035,,100.0,2.9417237000002388,"[(96.0, 1.642190600000049), (100.0, 2.9417237000002388)]",,,100.0,,,,,,,,,,sub_920,2024-05-20_16h48.12.171,Reversal,2023.1.3,59.94952250203079,4,
0,exp1.png,exp2.png,,1,0,1,0,0,0,0,0,,,,,,,,,,,,,,,,,,,,,,,,,False,20,21,True,exp2.png,exp1.png,trial_left_image,1,exp2.png,4,exp2.png,exp1.png,1,1,non-reversed,correct,0.6868719411859429,1,valid_win,158.54461869999977,16,,,,,,,,,,,,,,,,,,sub_920,2024-05-20_16h48.12.171,Reversal,2023.1.3,59.94952250203079,4,
1,exp3.png,exp4.png,,1,0,1,0,0,1,1,1,,,,,,,,,,,,,,,,,,,,,,,,,False,21,22,True,exp4.png,exp3.png,trial_left_image,1,exp4.png,4,exp4.png,exp3.png,1,3,reversed,correct,0.7441076491786869,1,valid_win,162.97627710000006,17,,,,,,,,,,,,,,,,,,sub_920,2024-05-20_16h48.12.171,Reversal,2023.1.3,59.94952250203079,4,
2,exp1.png,exp2.png,,1,0,1,0,0,2,2,2,,,,,,,,,,,,,,,,,,,,,,,,,False,22,23,True,exp2.png,exp1.png,trial_left_image,1,exp2.png,4,exp2.png,exp1.png,1,1,non-reversed,correct,0.0799428777503095,0,invalid_lose,167.54188449999992,17,,,,,,,,,,,,,,,,,,sub_920,2024-05-20_16h48.12.171,Reversal,2023.1.3,59.94952250203079,4,
3,exp3.png,exp4.png,,1,0,1,0,0,3,3,3,,,,,,,,,,,,,,,,,,,,,,,,,False,23,24,False,exp3.png,exp4.png,trial_right_image,-1,exp4.png,4,exp4.png,exp3.png,1,3,reversed,correct,0.36122079366063564,1,valid_win,173.13937299999998,18,,,,,,,,,,,,,,,,,,sub_920,2024-05-20_16h48.12.171,Reversal,2023.1.3,59.94952250203079,4,
4,exp1.png,exp2.png,,1,0,1,0,0,4,4,4,,,,,,,,,,,,,,,,,,,,,,,,,False,24,25,False,exp1.png,exp2.png,trial_right_image,-1,exp2.png,4,exp2.png,exp1.png,1,1,non-reversed,correct,0.05627745412633267,0,invalid_lose,178.27116769999975,18,,,,,,,,,,,,,,,,,,sub_920,2024-05-20_16h48.12.171,Reversal,2023.1.3,59.94952250203079,4,
5,exp3.png,exp4.png,,1,0,1,0,0,5,5,5,,,,,,,,,,,,,,,,,,,,,,,,,False,25,26,False,exp3.png,exp4.png,trial_right_image,-1,exp4.png,4,exp4.png,exp3.png,1,3,reversed,correct,0.47967807602831947,1,valid_win,184.56959149999966,19,,,,,,,,,,,,,,,,,,sub_920,2024-05-20_16h48.12.171,Reversal,2023.1.3,59.94952250203079,4,
6,exp1.png,exp2.png,,1,0,1,0,0,6,6,6,,,,,,,,,,,,,,,,,,,,,,,,,False,26,27,True,exp2.png,exp1.png,trial_left_image,1,exp2.png,4,exp2.png,exp1.png,1,1,non-reversed,correct,0.4441439734877135,1,valid_win,190.30075989999978,20,,,,,,,,,,,,,,,,,,sub_920,2024-05-20_16h48.12.171,Reversal,2023.1.3,59.94952250203079,4,
7,exp3.png,exp4.png,,1,0,1,0,0,7,7,7,,,,,,,,,,,,,,,,,,,,,,,,,False,27,28,False,exp3.png,exp4.png,trial_right_image,-1,exp4.png,4,exp4.png,exp3.png,1,3,reversed,correct,0.5875001255117219,1,valid_win,197.94815419999986,21,,,,,,,,,,,,,,,,,,sub_920,2024-05-20_16h48.12.171,Reversal,2023.1.3,59.94952250203079,4,
8,exp1.png,exp2.png,,1,0,1,0,0,8,8,8,,,,,,,,,,,,,,,,,,,,,,,,,False,28,29,False,exp1.png,exp2.png,trial_right_image,-1,exp2.png,4,exp2.png,exp1.png,1,1,non-reversed,correct,0.11041640724789803,0,invalid_lose,203.44606699999986,21,,,,,,,,,,,,,,,,,,sub_920,2024-05-20_16h48.12.171,Reversal,2023.1.3,59.94952250203079,4,
9,exp3.png,exp4.png,,1,0,1,0,0,9,9,9,,,,,,,,,,,,,,,,,,,,,,,,,False,29,30,False,exp3.png,exp4.png,trial_right_image,-1,exp4.png,4,exp4.png,exp3.png,1,3,reversed,correct,0.9831278726628129,1,valid_win,208.14443349999965,22,,,,,,,,,,,,,,,,,,sub_920,2024-05-20_16h48.12.171,Reversal,2023.1.3,59.94952250203079,4,
10,exp1.png,exp2.png,,1,0,1,0,0,10,10,10,,,,,,,,,,,,,,,,,,,,,,,,,False,30,31,True,exp2.png,exp1.png,trial_left_image,1,exp2.png,4,exp2.png,exp1.png,1,1,non-reversed,correct,0.2992940287399236,1,valid_win,213.95931709999968,23,,,,,,,,,,,,,,,,,,sub_920,2024-05-20_16h48.12.171,Reversal,2023.1.3,59.94952250203079,4,
11,exp3.png,exp4.png,,1,0,1,0,0,11,11,11,,,,,,,,,,,,,,,,,,,,,,,,,False,31,32,False,exp3.png,exp4.png,trial_right_image,-1,exp4.png,4,exp4.png,exp3.png,1,3,reversed,correct,0.7849624556098228,1,valid_win,218.60822009999993,24,,,,,,,,,,,,,,,,,,sub_920,2024-05-20_16h48.12.171,Reversal,2023.1.3,59.94952250203079,4,
12,exp1.png,exp2.png,,1,0,1,0,0,12,12,12,,,,,,,,,,,,,,,,,,,,,,,,,False,32,33,True,exp2.png,exp1.png,trial_left_image,1,exp2.png,4,exp2.png,exp1.png,1,1,non-reversed,correct,0.629855305131944,1,valid_win,224.33887830000003,25,,,,,,,,,,,,,,,,,,sub_920,2024-05-20_16h48.12.171,Reversal,2023.1.3,59.94952250203079,4,
13,exp3.png,exp4.png,,1,0,1,0,0,13,13,13,,,,,,,,,,,,,,,,,,,,,,,,,False,33,34,True,exp4.png,exp3.png,trial_left_image,1,exp4.png,4,exp4.png,exp3.png,1,3,reversed,correct,0.27930451190827477,1,valid_win,231.35386530000005,26,,,,,,,,,,,,,,,,,,sub_920,2024-05-20_16h48.12.171,Reversal,2023.1.3,59.94952250203079,4,
14,exp1.png,exp2.png,,1,0,1,0,0,14,14,14,,,,,,,,,,,,,,,,,,,,,,,,,False,34,35,True,exp2.png,exp1.png,trial_left_image,1,exp2.png,4,exp2.png,exp1.png,1,1,non-reversed,correct,0.05342924256711934,0,invalid_lose,237.91771019999987,26,,,,,,,,,,,,,,,,,,sub_920,2024-05-20_16h48.12.171,Reversal,2023.1.3,59.94952250203079,4,
15,exp3.png,exp4.png,,1,0,1,0,0,15,15,15,,,,,,,,,,,,,,,,,,,,,,,,,False,35,36,False,exp3.png,exp4.png,trial_right_image,-1,exp4.png,4,exp4.png,exp3.png,1,3,reversed,correct,0.7761031498506813,1,valid_win,243.86559809999972,27,,,,,,,,,,,,,,,,,,sub_920,2024-05-20_16h48.12.171,Reversal,2023.1.3,59.94952250203079,4,
16,exp1.png,exp2.png,,1,0,1,0,0,16,16,16,,,,,,,,,,,,,,,,,,,,,,,,,False,36,37,True,exp2.png,exp1.png,trial_left_image,1,exp2.png,4,exp2.png,exp1.png,1,1,non-reversed,correct,0.2038708514677785,0,invalid_lose,249.43107569999984,27,,,,,,,,,,,,,,,,,,sub_920,2024-05-20_16h48.12.171,Reversal,2023.1.3,59.94952250203079,4,
17,exp3.png,exp4.png,,1,0,1,0,0,17,17,17,,,,,,,,,,,,,,,,,,,,,,,,,False,37,38,False,exp3.png,exp4.png,trial_right_image,-1,exp4.png,4,exp4.png,exp3.png,1,3,reversed,correct,0.7872334036617075,1,valid_win,254.64551619999975,28,,,,,,,,,,,,,,,,,,sub_920,2024-05-20_16h48.12.171,Reversal,2023.1.3,59.94952250203079,4,
18,exp1.png,exp2.png,,1,0,1,0,0,18,18,18,,,,,,,,,,,,,,,,,,,,,,,,,False,38,39,False,exp1.png,exp2.png,trial_left_image,1,exp1.png,4,exp2.png,exp1.png,0,2,non-reversed,incorrect,0.8648136499666096,0,valid_lose,261.57640649999985,28,,,,,,,,,,,,,,,,,,sub_920,2024-05-20_16h48.12.171,Reversal,2023.1.3,59.94952250203079,4,
19,exp3.png,exp4.png,,1,0,1,0,0,19,19,19,,,,,,,,,,,,,,,,,,,,,,,,,False,39,40,True,exp4.png,exp3.png,trial_left_image,1,exp4.png,4,exp4.png,exp3.png,1,3,reversed,correct,0.7942118284851506,1,valid_win,269.12412189999986,29,,,,,,,,,,,,,,,,,,sub_920,2024-05-20_16h48.12.171,Reversal,2023.1.3,59.94952250203079,4,
20,exp1.png,exp2.png,,1,0,1,0,0,20,20,20,,,,,,,,,,,,,,,,,,,,,,,,,True,,,,,,,,,,,,,,,,,,,,,,,,,,,,,,,,,,,,,,sub_920,2024-05-20_16h48.12.171,Reversal,2023.1.3,59.94952250203079,4,
,,,exp1.png,1,0,1,0,,,,,0,0,0,0,0,0,0,0,,,,,,,,,,,,,,,,,,,,,,,,,,,,,,,,,,,,,,345.38271280000026,,None,None,[],,,,,,,,,,,,,sub_920,2024-05-20_16h48.12.171,Reversal,2023.1.3,59.94952250203079,4,
,,,exp2.png,1,0,1,0,,,,,0,0,0,0,0,1,1,1,,,,,,,,,,,,,,,,,,,,,,,,,,,,,,,,,,,,,,353.4406232000001,,100.0,3.7755897000001823,"[(100.0, 3.7755897000001823)]",100.0,,,,,,,,,,,,sub_920,2024-05-20_16h48.12.171,Reversal,2023.1.3,59.94952250203079,4,
,,,exp3.png,1,0,1,0,,,,,0,0,0,0,0,2,2,2,,,,,,,,,,,,,,,,,,,,,,,,,,,,,,,,,,,,,,358.44002230000024,,20.0,3.3107350999998744,"[(20.0, 3.3107350999998744)]",,20.0,,,,,,,,,,,sub_920,2024-05-20_16h48.12.171,Reversal,2023.1.3,59.94952250203079,4,
,,,exp4.png,1,0,1,0,,,,,0,0,0,0,0,3,3,3,,,,,,,,,,,,,,,,,,,,,,,,,,,,,,,,,,,,,,362.92217789999995,,100.0,5.176102200000059,"[(100.0, 5.176102200000059)]",,,100.0,,,,,,,,,,sub_920,2024-05-20_16h48.12.171,Reversal,2023.1.3,59.94952250203079,4,
0,exp1.png,exp2.png,,2,0,2,0,0,0,0,0,,,,,,,,,,,,,,,,,,,,,,,,,False,40,41,False,exp1.png,exp2.png,trial_left_image,1,exp1.png,4,exp2.png,exp1.png,0,2,non-reversed,incorrect,0.637346399424925,0,valid_lose,301.1629804999998,29,,,,,,,,,,,,,,,,,,sub_920,2024-05-20_16h48.12.171,Reversal,2023.1.3,59.94952250203079,4,
1,exp3.png,exp4.png,,2,0,2,0,0,1,1,1,,,,,,,,,,,,,,,,,,,,,,,,,False,41,42,False,exp3.png,exp4.png,trial_right_image,-1,exp4.png,4,exp4.png,exp3.png,1,3,reversed,correct,0.4360097901461616,1,valid_win,305.8617371,30,,,,,,,,,,,,,,,,,,sub_920,2024-05-20_16h48.12.171,Reversal,2023.1.3,59.94952250203079,4,
2,exp1.png,exp2.png,,2,0,2,0,0,2,2,2,,,,,,,,,,,,,,,,,,,,,,,,,False,42,43,False,exp1.png,exp2.png,trial_right_image,-1,exp2.png,4,exp2.png,exp1.png,1,1,non-reversed,correct,0.8049123442452648,1,valid_win,313.64225529999976,31,,,,,,,,,,,,,,,,,,sub_920,2024-05-20_16h48.12.171,Reversal,2023.1.3,59.94952250203079,4,
3,exp3.png,exp4.png,,2,0,2,0,0,3,3,3,,,,,,,,,,,,,,,,,,,,,,,,,False,43,44,False,exp3.png,exp4.png,trial_right_image,-1,exp4.png,4,exp4.png,exp3.png,1,3,reversed,correct,0.38990301479694023,1,valid_win,319.5236557999997,32,,,,,,,,,,,,,,,,,,sub_920,2024-05-20_16h48.12.171,Reversal,2023.1.3,59.94952250203079,4,
4,exp1.png,exp2.png,,2,0,2,0,0,4,4,4,,,,,,,,,,,,,,,,,,,,,,,,,False,44,45,False,exp1.png,exp2.png,trial_right_image,-1,exp2.png,4,exp2.png,exp1.png,1,1,non-reversed,correct,0.7263446241147028,1,valid_win,326.5378502999997,33,,,,,,,,,,,,,,,,,,sub_920,2024-05-20_16h48.12.171,Reversal,2023.1.3,59.94952250203079,4,
5,exp3.png,exp4.png,,2,0,2,0,0,5,5,5,,,,,,,,,,,,,,,,,,,,,,,,,False,45,46,True,exp4.png,exp3.png,trial_left_image,1,exp4.png,4,exp4.png,exp3.png,1,3,reversed,correct,0.26153372449777534,1,valid_win,336.2180887999998,34,,,,,,,,,,,,,,,,,,sub_920,2024-05-20_16h48.12.171,Reversal,2023.1.3,59.94952250203079,4,
6,exp1.png,exp2.png,,2,0,2,0,0,6,6,6,,,,,,,,,,,,,,,,,,,,,,,,,False,46,47,True,exp2.png,exp1.png,trial_left_image,1,exp2.png,4,exp2.png,exp1.png,1,1,non-reversed,correct,0.44617129720581883,1,valid_win,345.3655083999997,35,,,,,,,,,,,,,,,,,,sub_920,2024-05-20_16h48.12.171,Reversal,2023.1.3,59.94952250203079,4,
7,exp3.png,exp4.png,,2,0,2,0,0,7,7,7,,,,,,,,,,,,,,,,,,,,,,,,,False,47,48,True,exp4.png,exp3.png,trial_left_image,1,exp4.png,4,exp4.png,exp3.png,1,3,reversed,correct,0.7816782779411764,1,valid_win,351.46276799999987,36,,,,,,,,,,,,,,,,,,sub_920,2024-05-20_16h48.12.171,Reversal,2023.1.3,59.94952250203079,4,
8,exp1.png,exp2.png,,2,0,2,0,0,8,8,8,,,,,,,,,,,,,,,,,,,,,,,,,False,48,49,False,exp1.png,exp2.png,trial_right_image,-1,exp2.png,4,exp2.png,exp1.png,1,1,non-reversed,correct,0.7292746146853977,1,valid_win,357.7613535999999,37,,,,,,,,,,,,,,,,,,sub_920,2024-05-20_16h48.12.171,Reversal,2023.1.3,59.94952250203079,4,
9,exp3.png,exp4.png,,2,0,2,0,0,9,9,9,,,,,,,,,,,,,,,,,,,,,,,,,False,49,50,True,exp4.png,exp3.png,trial_left_image,1,exp4.png,4,exp4.png,exp3.png,1,3,reversed,correct,0.8248854136146926,1,valid_win,363.35896479999974,38,,,,,,,,,,,,,,,,,,sub_920,2024-05-20_16h48.12.171,Reversal,2023.1.3,59.94952250203079,4,
10,exp1.png,exp2.png,,2,0,2,0,0,10,10,10,,,,,,,,,,,,,,,,,,,,,,,,,False,50,51,False,exp1.png,exp2.png,trial_right_image,-1,exp2.png,4,exp2.png,exp1.png,1,1,non-reversed,correct,0.5678602566588705,1,valid_win,369.22320949999994,39,,,,,,,,,,,,,,,,,,sub_920,2024-05-20_16h48.12.171,Reversal,2023.1.3,59.94952250203079,4,
11,exp3.png,exp4.png,,2,0,2,0,0,11,11,11,,,,,,,,,,,,,,,,,,,,,,,,,False,51,52,True,exp4.png,exp3.png,trial_left_image,1,exp4.png,4,exp4.png,exp3.png,1,3,reversed,correct,0.7146870309149449,1,valid_win,375.45453150000003,40,,,,,,,,,,,,,,,,,,sub_920,2024-05-20_16h48.12.171,Reversal,2023.1.3,59.94952250203079,4,
12,exp1.png,exp2.png,,2,0,2,0,0,12,12,12,,,,,,,,,,,,,,,,,,,,,,,,,False,52,53,True,exp2.png,exp1.png,trial_left_image,1,exp2.png,4,exp2.png,exp1.png,1,1,non-reversed,correct,0.12040804602585664,0,invalid_lose,380.6695313,40,,,,,,,,,,,,,,,,,,sub_920,2024-05-20_16h48.12.171,Reversal,2023.1.3,59.94952250203079,4,
13,exp3.png,exp4.png,,2,0,2,0,0,13,13,13,,,,,,,,,,,,,,,,,,,,,,,,,False,53,54,True,exp4.png,exp3.png,trial_left_image,1,exp4.png,4,exp4.png,exp3.png,1,3,reversed,correct,0.1777739925762577,0,invalid_lose,385.96757149999985,40,,,,,,,,,,,,,,,,,,sub_920,2024-05-20_16h48.12.171,Reversal,2023.1.3,59.94952250203079,4,
14,exp1.png,exp2.png,,2,0,2,0,0,14,14,14,,,,,,,,,,,,,,,,,,,,,,,,,False,54,55,True,exp2.png,exp1.png,trial_right_image,-1,exp1.png,4,exp2.png,exp1.png,0,2,non-reversed,incorrect,0.6632345957404967,0,valid_lose,394.5814016999998,40,,,,,,,,,,,,,,,,,,sub_920,2024-05-20_16h48.12.171,Reversal,2023.1.3,59.94952250203079,4,
15,exp3.png,exp4.png,,2,0,2,0,0,15,15,15,,,,,,,,,,,,,,,,,,,,,,,,,False,55,56,True,exp4.png,exp3.png,trial_left_image,1,exp4.png,4,exp4.png,exp3.png,1,3,reversed,correct,0.42589869004314806,1,valid_win,399.6138855999998,41,,,,,,,,,,,,,,,,,,sub_920,2024-05-20_16h48.12.171,Reversal,2023.1.3,59.94952250203079,4,
16,exp1.png,exp2.png,,2,0,2,0,0,16,16,16,,,,,,,,,,,,,,,,,,,,,,,,,False,56,57,False,exp1.png,exp2.png,trial_right_image,-1,exp2.png,4,exp2.png,exp1.png,1,1,non-reversed,correct,0.8801508655119131,1,valid_win,405.2944127999999,42,,,,,,,,,,,,,,,,,,sub_920,2024-05-20_16h48.12.171,Reversal,2023.1.3,59.94952250203079,4,
17,exp3.png,exp4.png,,2,0,2,0,0,17,17,17,,,,,,,,,,,,,,,,,,,,,,,,,False,57,58,True,exp4.png,exp3.png,trial_left_image,1,exp4.png,4,exp4.png,exp3.png,1,3,reversed,correct,0.0613695641995301,0,invalid_lose,410.3096197,42,,,,,,,,,,,,,,,,,,sub_920,2024-05-20_16h48.12.171,Reversal,2023.1.3,59.94952250203079,4,
18,exp1.png,exp2.png,,2,0,2,0,0,18,18,18,,,,,,,,,,,,,,,,,,,,,,,,,False,58,59,False,exp1.png,exp2.png,trial_right_image,-1,exp2.png,4,exp2.png,exp1.png,1,1,non-reversed,correct,0.8194122908360774,1,valid_win,416.70775890000004,43,,,,,,,,,,,,,,,,,,sub_920,2024-05-20_16h48.12.171,Reversal,2023.1.3,59.94952250203079,4,
19,exp3.png,exp4.png,,2,0,2,0,0,19,19,19,,,,,,,,,,,,,,,,,,,,,,,,,False,59,60,False,exp3.png,exp4.png,trial_right_image,-1,exp4.png,4,exp4.png,exp3.png,1,3,reversed,correct,0.8304677257579832,1,valid_win,423.50527409999995,44,,,,,,,,,,,,,,,,,,sub_920,2024-05-20_16h48.12.171,Reversal,2023.1.3,59.94952250203079,4,
20,exp1.png,exp2.png,,2,0,2,0,0,20,20,20,,,,,,,,,,,,,,,,,,,,,,,,,True,,,,,,,,,,,,,,,,,,,,,,,,,,,,,,,,,,,,,,sub_920,2024-05-20_16h48.12.171,Reversal,2023.1.3,59.94952250203079,4,
,,,exp1.png,2,0,2,0,,,,,0,0,0,0,0,0,0,0,,,,,,,,,,,,,,,,,,,,,,,,,,,,,,,,,,,,,,499.7698198000003,15.0,15.0,8.650428399999782,"[(15.0, 8.650428399999782)]",,,,,,,,,,,,,sub_920,2024-05-20_16h48.12.171,Reversal,2023.1.3,59.94952250203079,4,
,,,exp2.png,2,0,2,0,,,,,0,0,0,0,0,1,1,1,,,,,,,,,,,,,,,,,,,,,,,,,,,,,,,,,,,,,,509.65351710000004,,95.0,2.196185400000104,"[(95.0, 2.196185400000104)]",95.0,,,,,,,,,,,,sub_920,2024-05-20_16h48.12.171,Reversal,2023.1.3,59.94952250203079,4,
,,,exp3.png,2,0,2,0,,,,,0,0,0,0,0,2,2,2,,,,,,,,,,,,,,,,,,,,,,,,,,,,,,,,,,,,,,513.5190804000003,,63.0,4.028597200000149,"[(63.0, 4.028597200000149)]",,63.0,,,,,,,,,,,sub_920,2024-05-20_16h48.12.171,Reversal,2023.1.3,59.94952250203079,4,
,,,exp4.png,2,0,2,0,,,,,0,0,0,0,0,3,3,3,,,,,,,,,,,,,,,,,,,,,,,,,,,,,,,,,,,,,,518.5361216000001,,100.0,2.3773443999998563,"[(100.0, 2.3773443999998563)]",,,100.0,,,,,,,,,,sub_920,2024-05-20_16h48.12.171,Reversal,2023.1.3,59.94952250203079,4,
0,exp1.png,exp2.png,,,,,,,,,,,,,,,,,,0,0,0,0,0,0,0,0,,,,,,,,,False,0,61,False,exp1.png,exp2.png,trial_right_image,-1,exp2.png,4,exp2.png,exp1.png,1,1,non-reversed,correct,0.4053937113360736,1,valid_win,453.12808270000005,45,,,,,,,,,449.4224697999998,,,,,,,,,sub_920,2024-05-20_16h48.12.171,Reversal,2023.1.3,59.94952250203079,4,
1,exp3.png,exp4.png,,,,,,,,,,,,,,,,,,0,0,0,0,0,1,1,1,,,,,,,,,False,1,62,True,exp4.png,exp3.png,trial_left_image,1,exp4.png,4,exp3.png,exp4.png,1,3,reversed,incorrect,0.7400375650600183,0,valid_lose,458.44360460000007,45,,,,,,,,,,,,,,,,,,sub_920,2024-05-20_16h48.12.171,Reversal,2023.1.3,59.94952250203079,4,
2,exp1.png,exp2.png,,,,,,,,,,,,,,,,,,0,0,0,0,0,2,2,2,,,,,,,,,False,2,63,False,exp1.png,exp2.png,trial_right_image,-1,exp2.png,4,exp2.png,exp1.png,1,1,non-reversed,correct,0.6890300434624417,1,valid_win,462.87507259999984,46,,,,,,,,,,,,,,,,,,sub_920,2024-05-20_16h48.12.171,Reversal,2023.1.3,59.94952250203079,4,
3,exp3.png,exp4.png,,,,,,,,,,,,,,,,,,0,0,0,0,0,3,3,3,,,,,,,,,False,3,64,True,exp4.png,exp3.png,trial_left_image,1,exp4.png,4,exp3.png,exp4.png,1,3,reversed,incorrect,0.9378654874751785,0,valid_lose,471.18946159999996,46,,,,,,,,,,,,,,,,,,sub_920,2024-05-20_16h48.12.171,Reversal,2023.1.3,59.94952250203079,4,
4,exp1.png,exp2.png,,,,,,,,,,,,,,,,,,0,0,0,0,0,4,4,4,,,,,,,,,False,4,65,True,exp2.png,exp1.png,trial_left_image,1,exp2.png,4,exp2.png,exp1.png,1,1,non-reversed,correct,0.8741667613392734,1,valid_win,477.22042520000014,47,,,,,,,,,,,,,,,,,,sub_920,2024-05-20_16h48.12.171,Reversal,2023.1.3,59.94952250203079,4,
5,exp3.png,exp4.png,,,,,,,,,,,,,,,,,,0,0,0,0,0,5,5,5,,,,,,,,,False,5,66,True,exp4.png,exp3.png,trial_right_image,-1,exp3.png,4,exp3.png,exp4.png,0,4,reversed,correct,0.17353205736483068,0,invalid_lose,484.1345851999995,47,,,,,,,,,,,,,,,,,,sub_920,2024-05-20_16h48.12.171,Reversal,2023.1.3,59.94952250203079,4,
6,exp1.png,exp2.png,,,,,,,,,,,,,,,,,,0,0,0,0,0,6,6,6,,,,,,,,,False,6,67,True,exp2.png,exp1.png,trial_left_image,1,exp2.png,4,exp2.png,exp1.png,1,1,non-reversed,correct,0.38722437493794637,1,valid_win,489.96668409999984,48,,,,,,,,,,,,,,,,,,sub_920,2024-05-20_16h48.12.171,Reversal,2023.1.3,59.94952250203079,4,
7,exp3.png,exp4.png,,,,,,,,,,,,,,,,,,0,0,0,0,0,7,7,7,,,,,,,,,False,7,68,True,exp4.png,exp3.png,trial_right_image,-1,exp3.png,4,exp3.png,exp4.png,0,4,reversed,correct,0.42128397406411233,1,valid_win,497.7133088999999,49,,,,,,,,,,,,,,,,,,sub_920,2024-05-20_16h48.12.171,Reversal,2023.1.3,59.94952250203079,4,
8,exp1.png,exp2.png,,,,,,,,,,,,,,,,,,0,0,0,0,0,8,8,8,,,,,,,,,False,8,69,False,exp1.png,exp2.png,trial_right_image,-1,exp2.png,4,exp2.png,exp1.png,1,1,non-reversed,correct,0.7726722844578222,1,valid_win,502.87825749999956,50,,,,,,,,,,,,,,,,,,sub_920,2024-05-20_16h48.12.171,Reversal,2023.1.3,59.94952250203079,4,
9,exp3.png,exp4.png,,,,,,,,,,,,,,,,,,0,0,0,0,0,9,9,9,,,,,,,,,False,9,70,True,exp4.png,exp3.png,trial_right_image,-1,exp3.png,4,exp3.png,exp4.png,0,4,reversed,correct,0.196723415351455,0,invalid_lose,507.7769207000001,50,,,,,,,,,,,,,,,,,,sub_920,2024-05-20_16h48.12.171,Reversal,2023.1.3,59.94952250203079,4,
10,exp1.png,exp2.png,,,,,,,,,,,,,,,,,,0,0,0,0,0,10,10,10,,,,,,,,,False,10,71,False,exp1.png,exp2.png,trial_right_image,-1,exp2.png,4,exp2.png,exp1.png,1,1,non-reversed,correct,0.27448334105119565,1,valid_win,512.0921915999998,51,,,,,,,,,,,,,,,,,,sub_920,2024-05-20_16h48.12.171,Reversal,2023.1.3,59.94952250203079,4,
11,exp3.png,exp4.png,,,,,,,,,,,,,,,,,,0,0,0,0,0,11,11,11,,,,,,,,,False,11,72,False,exp3.png,exp4.png,trial_left_image,1,exp3.png,4,exp3.png,exp4.png,0,4,reversed,correct,0.7606124295651616,1,valid_win,520.7895306999999,52,,,,,,,,,,,,,,,,,,sub_920,2024-05-20_16h48.12.171,Reversal,2023.1.3,59.94952250203079,4,
12,exp1.png,exp2.png,,,,,,,,,,,,,,,,,,0,0,0,0,0,12,12,12,,,,,,,,,False,12,73,False,exp1.png,exp2.png,trial_right_image,-1,exp2.png,4,exp2.png,exp1.png,1,1,non-reversed,correct,0.4918092191966865,1,valid_win,528.0196501,53,,,,,,,,,,,,,,,,,,sub_920,2024-05-20_16h48.12.171,Reversal,2023.1.3,59.94952250203079,4,
13,exp3.png,exp4.png,,,,,,,,,,,,,,,,,,0,0,0,0,0,13,13,13,,,,,,,,,False,13,74,True,exp4.png,exp3.png,trial_left_image,1,exp4.png,4,exp3.png,exp4.png,1,3,reversed,incorrect,0.7402327075124147,0,valid_lose,534.6174893999996,53,,,,,,,,,,,,,,,,,,sub_920,2024-05-20_16h48.12.171,Reversal,2023.1.3,59.94952250203079,4,
14,exp1.png,exp2.png,,,,,,,,,,,,,,,,,,0,0,0,0,0,14,14,14,,,,,,,,,False,14,75,False,exp1.png,exp2.png,trial_right_image,-1,exp2.png,4,exp2.png,exp1.png,1,1,non-reversed,correct,0.7314807361875012,1,valid_win,538.9990974000002,54,,,,,,,,,,,,,,,,,,sub_920,2024-05-20_16h48.12.171,Reversal,2023.1.3,59.94952250203079,4,
15,exp3.png,exp4.png,,,,,,,,,,,,,,,,,,0,0,0,0,0,15,15,15,,,,,,,,,False,15,76,True,exp4.png,exp3.png,trial_left_image,1,exp4.png,4,exp3.png,exp4.png,1,3,reversed,incorrect,0.0812424373156947,1,invalid_win,550.7466423999995,55,,,,,,,,,,,,,,,,,,sub_920,2024-05-20_16h48.12.171,Reversal,2023.1.3,59.94952250203079,4,
16,exp1.png,exp2.png,,,,,,,,,,,,,,,,,,0,0,0,0,0,16,16,16,,,,,,,,,False,16,77,False,exp1.png,exp2.png,trial_right_image,-1,exp2.png,4,exp2.png,exp1.png,1,1,non-reversed,correct,0.006896051464099884,0,invalid_lose,555.0603216999998,55,,,,,,,,,,,,,,,,,,sub_920,2024-05-20_16h48.12.171,Reversal,2023.1.3,59.94952250203079,4,
17,exp3.png,exp4.png,,,,,,,,,,,,,,,,,,0,0,0,0,0,17,17,17,,,,,,,,,False,17,78,True,exp4.png,exp3.png,trial_left_image,1,exp4.png,4,exp3.png,exp4.png,1,3,reversed,incorrect,0.3918265656208485,0,valid_lose,560.6758524999996,55,,,,,,,,,,,,,,,,,,sub_920,2024-05-20_16h48.12.171,Reversal,2023.1.3,59.94952250203079,4,
18,exp1.png,exp2.png,,,,,,,,,,,,,,,,,,0,0,0,0,0,18,18,18,,,,,,,,,False,18,79,False,exp1.png,exp2.png,trial_right_image,-1,exp2.png,4,exp2.png,exp1.png,1,1,non-reversed,correct,0.4696817546521861,1,valid_win,565.0573247000002,56,,,,,,,,,,,,,,,,,,sub_920,2024-05-20_16h48.12.171,Reversal,2023.1.3,59.94952250203079,4,
19,exp3.png,exp4.png,,,,,,,,,,,,,,,,,,0,0,0,0,0,19,19,19,,,,,,,,,False,19,80,False,exp3.png,exp4.png,trial_left_image,1,exp3.png,4,exp3.png,exp4.png,0,4,reversed,correct,0.9632788409719915,1,valid_win,571.2550289999999,57,,,,,,,,,,,,,,,,,,sub_920,2024-05-20_16h48.12.171,Reversal,2023.1.3,59.94952250203079,4,
20,exp1.png,exp2.png,,,,,,,,,,,,,,,,,,0,0,0,0,0,20,20,20,,,,,,,,,True,,,,,,,,,,,,,,,,,,,,,,,,,,,,,,,,,,,,,,sub_920,2024-05-20_16h48.12.171,Reversal,2023.1.3,59.94952250203079,4,
,,,exp1.png,,,,,,,,,,,,,,,,,0,0,0,0,,,,,0,0,0,0,0,0,0,0,,,,,,,,,,,,,,,,,,,,,,647.5081186000002,14.0,14.0,4.581219400000009,"[(23.0, 2.4322125999997297), (14.0, 4.581219400000009)]",,,,,,,,,,,,,sub_920,2024-05-20_16h48.12.171,Reversal,2023.1.3,59.94952250203079,4,
,,,exp2.png,,,,,,,,,,,,,,,,,0,0,0,0,,,,,0,0,0,0,0,1,1,1,,,,,,,,,,,,,,,,,,,,,,653.2556340000006,,96.0,2.5113322999995944,"[(96.0, 2.5113322999995944)]",96.0,,,,,,,,,,,,sub_920,2024-05-20_16h48.12.171,Reversal,2023.1.3,59.94952250203079,4,
,,,exp3.png,,,,,,,,,,,,,,,,,0,0,0,0,,,,,0,0,0,0,0,2,2,2,,,,,,,,,,,,,,,,,,,,,,657.7384648000002,,39.0,3.178506799999923,"[(39.0, 3.178506799999923)]",,39.0,,,,,,,,,,,sub_920,2024-05-20_16h48.12.171,Reversal,2023.1.3,59.94952250203079,4,
,,,exp4.png,,,,,,,,,,,,,,,,,0,0,0,0,,,,,0,0,0,0,0,3,3,3,,,,,,,,,,,,,,,,,,,,,,662.4879176999998,,86.0,1.9095194000001356,"[(86.0, 1.9095194000001356)]",,,86.0,,,,,,,,,,sub_920,2024-05-20_16h48.12.171,Reversal,2023.1.3,59.94952250203079,4,
0,exp1.png,exp2.png,,,,,,,,,,,,,,,,,,1,0,1,0,0,0,0,0,,,,,,,,,False,20,81,True,exp2.png,exp1.png,trial_left_image,1,exp2.png,4,exp2.png,exp1.png,1,1,non-reversed,correct,0.3566565712794676,1,valid_win,594.0477180999997,58,,,,,,,,,,,,,,,,,,sub_920,2024-05-20_16h48.12.171,Reversal,2023.1.3,59.94952250203079,4,
1,exp3.png,exp4.png,,,,,,,,,,,,,,,,,,1,0,1,0,0,1,1,1,,,,,,,,,False,21,82,False,exp3.png,exp4.png,trial_right_image,-1,exp4.png,4,exp3.png,exp4.png,1,3,reversed,incorrect,0.6912867858492897,0,valid_lose,599.5291295999996,58,,,,,,,,,,,,,,,,,,sub_920,2024-05-20_16h48.12.171,Reversal,2023.1.3,59.94952250203079,4,
2,exp1.png,exp2.png,,,,,,,,,,,,,,,,,,1,0,1,0,0,2,2,2,,,,,,,,,False,22,83,True,exp2.png,exp1.png,trial_left_image,1,exp2.png,4,exp2.png,exp1.png,1,1,non-reversed,correct,0.8469989269228821,1,valid_win,604.9102969999994,59,,,,,,,,,,,,,,,,,,sub_920,2024-05-20_16h48.12.171,Reversal,2023.1.3,59.94952250203079,4,
3,exp3.png,exp4.png,,,,,,,,,,,,,,,,,,1,0,1,0,0,3,3,3,,,,,,,,,False,23,84,True,exp4.png,exp3.png,trial_left_image,1,exp4.png,4,exp3.png,exp4.png,1,3,reversed,incorrect,0.7571510084448348,0,valid_lose,610.6915964,59,,,,,,,,,,,,,,,,,,sub_920,2024-05-20_16h48.12.171,Reversal,2023.1.3,59.94952250203079,4,
4,exp1.png,exp2.png,,,,,,,,,,,,,,,,,,1,0,1,0,0,4,4,4,,,,,,,,,False,24,85,True,exp2.png,exp1.png,trial_left_image,1,exp2.png,4,exp2.png,exp1.png,1,1,non-reversed,correct,0.7331585440251769,1,valid_win,615.5236415999998,60,,,,,,,,,,,,,,,,,,sub_920,2024-05-20_16h48.12.171,Reversal,2023.1.3,59.94952250203079,4,
5,exp3.png,exp4.png,,,,,,,,,,,,,,,,,,1,0,1,0,0,5,5,5,,,,,,,,,False,25,86,False,exp3.png,exp4.png,trial_left_image,1,exp3.png,4,exp3.png,exp4.png,0,4,reversed,correct,0.7566396092410655,1,valid_win,623.7872511999994,61,,,,,,,,,,,,,,,,,,sub_920,2024-05-20_16h48.12.171,Reversal,2023.1.3,59.94952250203079,4,
6,exp1.png,exp2.png,,,,,,,,,,,,,,,,,,1,0,1,0,0,6,6,6,,,,,,,,,False,26,87,False,exp1.png,exp2.png,trial_right_image,-1,exp2.png,4,exp2.png,exp1.png,1,1,non-reversed,correct,0.7571479100648919,1,valid_win,628.8023383999998,62,,,,,,,,,,,,,,,,,,sub_920,2024-05-20_16h48.12.171,Reversal,2023.1.3,59.94952250203079,4,
7,exp3.png,exp4.png,,,,,,,,,,,,,,,,,,1,0,1,0,0,7,7,7,,,,,,,,,False,27,88,False,exp3.png,exp4.png,trial_left_image,1,exp3.png,4,exp3.png,exp4.png,0,4,reversed,correct,0.9782822667780255,1,valid_win,635.2505510999999,63,,,,,,,,,,,,,,,,,,sub_920,2024-05-20_16h48.12.171,Reversal,2023.1.3,59.94952250203079,4,
8,exp1.png,exp2.png,,,,,,,,,,,,,,,,,,1,0,1,0,0,8,8,8,,,,,,,,,False,28,89,False,exp1.png,exp2.png,trial_right_image,-1,exp2.png,4,exp2.png,exp1.png,1,1,non-reversed,correct,0.33979108600525476,1,valid_win,639.7150580999996,64,,,,,,,,,,,,,,,,,,sub_920,2024-05-20_16h48.12.171,Reversal,2023.1.3,59.94952250203079,4,
9,exp3.png,exp4.png,,,,,,,,,,,,,,,,,,1,0,1,0,0,9,9,9,,,,,,,,,False,29,90,True,exp4.png,exp3.png,trial_right_image,-1,exp3.png,4,exp3.png,exp4.png,0,4,reversed,correct,0.1811390215903701,0,invalid_lose,649.5456404999995,64,,,,,,,,,,,,,,,,,,sub_920,2024-05-20_16h48.12.171,Reversal,2023.1.3,59.94952250203079,4,
10,exp1.png,exp2.png,,,,,,,,,,,,,,,,,,1,0,1,0,0,10,10,10,,,,,,,,,False,30,91,True,exp2.png,exp1.png,trial_left_image,1,exp2.png,4,exp2.png,exp1.png,1,1,non-reversed,correct,0.28448148572619947,1,valid_win,655.3934281000002,65,,,,,,,,,,,,,,,,,,sub_920,2024-05-20_16h48.12.171,Reversal,2023.1.3,59.94952250203079,4,
11,exp3.png,exp4.png,,,,,,,,,,,,,,,,,,1,0,1,0,0,11,11,11,,,,,,,,,False,31,92,False,exp3.png,exp4.png,trial_right_image,-1,exp4.png,4,exp3.png,exp4.png,1,3,reversed,incorrect,0.5592297008383174,0,valid_lose,661.1246128000002,65,,,,,,,,,,,,,,,,,,sub_920,2024-05-20_16h48.12.171,Reversal,2023.1.3,59.94952250203079,4,
12,exp1.png,exp2.png,,,,,,,,,,,,,,,,,,1,0,1,0,0,12,12,12,,,,,,,,,False,32,93,True,exp2.png,exp1.png,trial_left_image,1,exp2.png,4,exp2.png,exp1.png,1,1,non-reversed,correct,0.9919241541072753,1,valid_win,665.9065689999998,66,,,,,,,,,,,,,,,,,,sub_920,2024-05-20_16h48.12.171,Reversal,2023.1.3,59.94952250203079,4,
13,exp3.png,exp4.png,,,,,,,,,,,,,,,,,,1,0,1,0,0,13,13,13,,,,,,,,,False,33,94,False,exp3.png,exp4.png,trial_left_image,1,exp3.png,4,exp3.png,exp4.png,0,4,reversed,correct,0.24631028258798504,0,invalid_lose,672.1381236999996,66,,,,,,,,,,,,,,,,,,sub_920,2024-05-20_16h48.12.171,Reversal,2023.1.3,59.94952250203079,4,
14,exp1.png,exp2.png,,,,,,,,,,,,,,,,,,1,0,1,0,0,14,14,14,,,,,,,,,False,34,95,False,exp1.png,exp2.png,trial_right_image,-1,exp2.png,4,exp2.png,exp1.png,1,1,non-reversed,correct,0.5946182985309331,1,valid_win,676.4865798999999,67,,,,,,,,,,,,,,,,,,sub_920,2024-05-20_16h48.12.171,Reversal,2023.1.3,59.94952250203079,4,
15,exp3.png,exp4.png,,,,,,,,,,,,,,,,,,1,0,1,0,0,15,15,15,,,,,,,,,False,35,96,False,exp3.png,exp4.png,trial_left_image,1,exp3.png,4,exp3.png,exp4.png,0,4,reversed,correct,0.4775217969295559,1,valid_win,682.6176940999994,68,,,,,,,,,,,,,,,,,,sub_920,2024-05-20_16h48.12.171,Reversal,2023.1.3,59.94952250203079,4,
16,exp1.png,exp2.png,,,,,,,,,,,,,,,,,,1,0,1,0,0,16,16,16,,,,,,,,,False,36,97,True,exp2.png,exp1.png,trial_left_image,1,exp2.png,4,exp2.png,exp1.png,1,1,non-reversed,correct,0.4108577812951154,1,valid_win,688.6658409000001,69,,,,,,,,,,,,,,,,,,sub_920,2024-05-20_16h48.12.171,Reversal,2023.1.3,59.94952250203079,4,
17,exp3.png,exp4.png,,,,,,,,,,,,,,,,,,1,0,1,0,0,17,17,17,,,,,,,,,False,37,98,True,exp4.png,exp3.png,trial_left_image,1,exp4.png,4,exp3.png,exp4.png,1,3,reversed,incorrect,0.23077062012776994,1,invalid_win,694.3138141999998,70,,,,,,,,,,,,,,,,,,sub_920,2024-05-20_16h48.12.171,Reversal,2023.1.3,59.94952250203079,4,
18,exp1.png,exp2.png,,,,,,,,,,,,,,,,,,1,0,1,0,0,18,18,18,,,,,,,,,False,38,99,True,exp2.png,exp1.png,trial_left_image,1,exp2.png,4,exp2.png,exp1.png,1,1,non-reversed,correct,0.5283459445201246,1,valid_win,700.7613321999997,71,,,,,,,,,,,,,,,,,,sub_920,2024-05-20_16h48.12.171,Reversal,2023.1.3,59.94952250203079,4,
19,exp3.png,exp4.png,,,,,,,,,,,,,,,,,,1,0,1,0,0,19,19,19,,,,,,,,,False,39,100,False,exp3.png,exp4.png,trial_right_image,-1,exp4.png,4,exp3.png,exp4.png,1,3,reversed,incorrect,0.4027030848007216,0,valid_lose,705.2434163999997,71,,,,,,,,,,,,,,,,,,sub_920,2024-05-20_16h48.12.171,Reversal,2023.1.3,59.94952250203079,4,
20,exp1.png,exp2.png,,,,,,,,,,,,,,,,,,1,0,1,0,0,20,20,20,,,,,,,,,True,,,,,,,,,,,,,,,,,,,,,,,,,,,,,,,,,,,,,,sub_920,2024-05-20_16h48.12.171,Reversal,2023.1.3,59.94952250203079,4,
,,,exp1.png,,,,,,,,,,,,,,,,,1,0,1,0,,,,,0,0,0,0,0,0,0,0,,,,,,,,,,,,,,,,,,,,,,781.5045184000005,5.0,5.0,2.257264099999702,"[(5.0, 2.257264099999702)]",,,,,,,,,,,,,sub_920,2024-05-20_16h48.12.171,Reversal,2023.1.3,59.94952250203079,4,
,,,exp2.png,,,,,,,,,,,,,,,,,1,0,1,0,,,,,0,0,0,0,0,1,1,1,,,,,,,,,,,,,,,,,,,,,,784.9781058000003,,94.0,1.5777057999994213,"[(94.0, 1.5777057999994213)]",94.0,,,,,,,,,,,,sub_920,2024-05-20_16h48.12.171,Reversal,2023.1.3,59.94952250203079,4,
,,,exp3.png,,,,,,,,,,,,,,,,,1,0,1,0,,,,,0,0,0,0,0,2,2,2,,,,,,,,,,,,,,,,,,,,,,787.6925173000004,,22.0,4.411168999999973,"[(32.0, 3.028393800000231), (22.0, 4.411168999999973)]",,22.0,,,,,,,,,,,sub_920,2024-05-20_16h48.12.171,Reversal,2023.1.3,59.94952250203079,4,
,,,exp4.png,,,,,,,,,,,,,,,,,1,0,1,0,,,,,0,0,0,0,0,3,3,3,,,,,,,,,,,,,,,,,,,,,,793.2763190000001,,78.0,1.2619936999999481,"[(78.0, 1.2619936999999481)]",,,78.0,,,,,,,,,,sub_920,2024-05-20_16h48.12.171,Reversal,2023.1.3,59.94952250203079,4,
0,exp1.png,exp2.png,,,,,,,,,,,,,,,,,,2,0,2,0,0,0,0,0,,,,,,,,,False,40,101,True,exp2.png,exp1.png,trial_left_image,1,exp2.png,4,exp2.png,exp1.png,1,1,non-reversed,correct,0.341291520057722,1,valid_win,725.1874978999995,72,,,,,,,,,,,,,,,,,,sub_920,2024-05-20_16h48.12.171,Reversal,2023.1.3,59.94952250203079,4,
1,exp3.png,exp4.png,,,,,,,,,,,,,,,,,,2,0,2,0,0,1,1,1,,,,,,,,,False,41,102,True,exp4.png,exp3.png,trial_right_image,-1,exp3.png,4,exp3.png,exp4.png,0,4,reversed,correct,0.6682869314337347,1,valid_win,731.2033933000002,73,,,,,,,,,,,,,,,,,,sub_920,2024-05-20_16h48.12.171,Reversal,2023.1.3,59.94952250203079,4,
2,exp1.png,exp2.png,,,,,,,,,,,,,,,,,,2,0,2,0,0,2,2,2,,,,,,,,,False,42,103,True,exp2.png,exp1.png,trial_left_image,1,exp2.png,4,exp2.png,exp1.png,1,1,non-reversed,correct,0.5140307887217389,1,valid_win,739.0481781999997,74,,,,,,,,,,,,,,,,,,sub_920,2024-05-20_16h48.12.171,Reversal,2023.1.3,59.94952250203079,4,
3,exp3.png,exp4.png,,,,,,,,,,,,,,,,,,2,0,2,0,0,3,3,3,,,,,,,,,False,43,104,False,exp3.png,exp4.png,trial_left_image,1,exp3.png,4,exp3.png,exp4.png,0,4,reversed,correct,0.5644310974732214,1,valid_win,743.9807448000001,75,,,,,,,,,,,,,,,,,,sub_920,2024-05-20_16h48.12.171,Reversal,2023.1.3,59.94952250203079,4,
4,exp1.png,exp2.png,,,,,,,,,,,,,,,,,,2,0,2,0,0,4,4,4,,,,,,,,,False,44,105,True,exp2.png,exp1.png,trial_left_image,1,exp2.png,4,exp2.png,exp1.png,1,1,non-reversed,correct,0.37454271833933117,1,valid_win,749.1453225999994,76,,,,,,,,,,,,,,,,,,sub_920,2024-05-20_16h48.12.171,Reversal,2023.1.3,59.94952250203079,4,
5,exp3.png,exp4.png,,,,,,,,,,,,,,,,,,2,0,2,0,0,5,5,5,,,,,,,,,False,45,106,False,exp3.png,exp4.png,trial_left_image,1,exp3.png,4,exp3.png,exp4.png,0,4,reversed,correct,0.23713817522190783,0,invalid_lose,755.1768591,76,,,,,,,,,,,,,,,,,,sub_920,2024-05-20_16h48.12.171,Reversal,2023.1.3,59.94952250203079,4,
6,exp1.png,exp2.png,,,,,,,,,,,,,,,,,,2,0,2,0,0,6,6,6,,,,,,,,,False,46,107,False,exp1.png,exp2.png,trial_right_image,-1,exp2.png,4,exp2.png,exp1.png,1,1,non-reversed,correct,0.630341289441977,1,valid_win,762.3741996999997,77,,,,,,,,,,,,,,,,,,sub_920,2024-05-20_16h48.12.171,Reversal,2023.1.3,59.94952250203079,4,
7,exp3.png,exp4.png,,,,,,,,,,,,,,,,,,2,0,2,0,0,7,7,7,,,,,,,,,False,47,108,False,exp3.png,exp4.png,trial_right_image,-1,exp4.png,4,exp3.png,exp4.png,1,3,reversed,incorrect,0.877063375671347,0,valid_lose,769.8715743000002,77,,,,,,,,,,,,,,,,,,sub_920,2024-05-20_16h48.12.171,Reversal,2023.1.3,59.94952250203079,4,
8,exp1.png,exp2.png,,,,,,,,,,,,,,,,,,2,0,2,0,0,8,8,8,,,,,,,,,False,48,109,False,exp1.png,exp2.png,trial_right_image,-1,exp2.png,4,exp2.png,exp1.png,1,1,non-reversed,correct,0.2833781974295483,1,valid_win,774.2698953999998,78,,,,,,,,,,,,,,,,,,sub_920,2024-05-20_16h48.12.171,Reversal,2023.1.3,59.94952250203079,4,
9,exp3.png,exp4.png,,,,,,,,,,,,,,,,,,2,0,2,0,0,9,9,9,,,,,,,,,False,49,110,True,exp4.png,exp3.png,trial_left_image,1,exp4.png,4,exp3.png,exp4.png,1,3,reversed,incorrect,0.9160389648657359,0,valid_lose,779.5687470000003,78,,,,,,,,,,,,,,,,,,sub_920,2024-05-20_16h48.12.171,Reversal,2023.1.3,59.94952250203079,4,
10,exp1.png,exp2.png,,,,,,,,,,,,,,,,,,2,0,2,0,0,10,10,10,,,,,,,,,False,50,111,True,exp2.png,exp1.png,trial_left_image,1,exp2.png,4,exp2.png,exp1.png,1,1,non-reversed,correct,0.634927052413486,1,valid_win,785.4000785999997,79,,,,,,,,,,,,,,,,,,sub_920,2024-05-20_16h48.12.171,Reversal,2023.1.3,59.94952250203079,4,
11,exp3.png,exp4.png,,,,,,,,,,,,,,,,,,2,0,2,0,0,11,11,11,,,,,,,,,False,51,112,False,exp3.png,exp4.png,trial_left_image,1,exp3.png,4,exp3.png,exp4.png,0,4,reversed,correct,0.3222511525905989,1,valid_win,790.9477532000001,80,,,,,,,,,,,,,,,,,,sub_920,2024-05-20_16h48.12.171,Reversal,2023.1.3,59.94952250203079,4,
12,exp1.png,exp2.png,,,,,,,,,,,,,,,,,,2,0,2,0,0,12,12,12,,,,,,,,,False,52,113,True,exp2.png,exp1.png,trial_left_image,1,exp2.png,4,exp2.png,exp1.png,1,1,non-reversed,correct,0.9636364453680617,1,valid_win,796.029125,81,,,,,,,,,,,,,,,,,,sub_920,2024-05-20_16h48.12.171,Reversal,2023.1.3,59.94952250203079,4,
13,exp3.png,exp4.png,,,,,,,,,,,,,,,,,,2,0,2,0,0,13,13,13,,,,,,,,,False,53,114,False,exp3.png,exp4.png,trial_left_image,1,exp3.png,4,exp3.png,exp4.png,0,4,reversed,correct,0.9193260890934011,1,valid_win,801.1439590999998,82,,,,,,,,,,,,,,,,,,sub_920,2024-05-20_16h48.12.171,Reversal,2023.1.3,59.94952250203079,4,
14,exp1.png,exp2.png,,,,,,,,,,,,,,,,,,2,0,2,0,0,14,14,14,,,,,,,,,False,54,115,False,exp1.png,exp2.png,trial_right_image,-1,exp2.png,4,exp2.png,exp1.png,1,1,non-reversed,correct,0.43601960035225773,1,valid_win,806.0754804999997,83,,,,,,,,,,,,,,,,,,sub_920,2024-05-20_16h48.12.171,Reversal,2023.1.3,59.94952250203079,4,
15,exp3.png,exp4.png,,,,,,,,,,,,,,,,,,2,0,2,0,0,15,15,15,,,,,,,,,False,55,116,True,exp4.png,exp3.png,trial_left_image,1,exp4.png,4,exp3.png,exp4.png,1,3,reversed,incorrect,0.6759819126298092,0,valid_lose,812.3235427,83,,,,,,,,,,,,,,,,,,sub_920,2024-05-20_16h48.12.171,Reversal,2023.1.3,59.94952250203079,4,
16,exp1.png,exp2.png,,,,,,,,,,,,,,,,,,2,0,2,0,0,16,16,16,,,,,,,,,False,56,117,True,exp2.png,exp1.png,trial_left_image,1,exp2.png,4,exp2.png,exp1.png,1,1,non-reversed,correct,0.17344103570654434,0,invalid_lose,817.2385739000001,83,,,,,,,,,,,,,,,,,,sub_920,2024-05-20_16h48.12.171,Reversal,2023.1.3,59.94952250203079,4,
17,exp3.png,exp4.png,,,,,,,,,,,,,,,,,,2,0,2,0,0,17,17,17,,,,,,,,,False,57,118,False,exp3.png,exp4.png,trial_left_image,1,exp3.png,4,exp3.png,exp4.png,0,4,reversed,correct,0.4595847274089738,1,valid_win,825.3710194999994,84,,,,,,,,,,,,,,,,,,sub_920,2024-05-20_16h48.12.171,Reversal,2023.1.3,59.94952250203079,4,
18,exp1.png,exp2.png,,,,,,,,,,,,,,,,,,2,0,2,0,0,18,18,18,,,,,,,,,False,58,119,False,exp1.png,exp2.png,trial_right_image,-1,exp2.png,4,exp2.png,exp1.png,1,1,non-reversed,correct,0.39074727936776454,1,valid_win,829.7178423999994,85,,,,,,,,,,,,,,,,,,sub_920,2024-05-20_16h48.12.171,Reversal,2023.1.3,59.94952250203079,4,
19,exp3.png,exp4.png,,,,,,,,,,,,,,,,,,2,0,2,0,0,19,19,19,,,,,,,,,False,59,120,True,exp4.png,exp3.png,trial_left_image,1,exp4.png,4,exp3.png,exp4.png,1,3,reversed,incorrect,0.2037478347380619,1,invalid_win,837.8315143,86,,,,,,,,,,,,,,,,,,sub_920,2024-05-20_16h48.12.171,Reversal,2023.1.3,59.94952250203079,4,
20,exp1.png,exp2.png,,,,,,,,,,,,,,,,,,2,0,2,0,0,20,20,20,,,,,,,,,True,,,,,,,,,,,,,,,,,,,,,,,,,,,,,,,,,,,,,,sub_920,2024-05-20_16h48.12.171,Reversal,2023.1.3,59.94952250203079,4,
,,,exp1.png,,,,,,,,,,,,,,,,,2,0,2,0,,,,,0,0,0,0,0,0,0,0,,,,,,,,,,,,,,,,,,,,,,914.0851201999999,6.0,6.0,2.8321309000002657,"[(19.0, 2.031764700000167), (6.0, 2.8321309000002657)]",,,,,,,,,,,,,sub_920,2024-05-20_16h48.12.171,Reversal,2023.1.3,59.94952250203079,4,
,,,exp2.png,,,,,,,,,,,,,,,,,2,0,2,0,,,,,0,0,0,0,0,1,1,1,,,,,,,,,,,,,,,,,,,,,,918.2170173999998,,100.0,1.4603879999995115,"[(100.0, 1.4603879999995115)]",100.0,,,,,,,,,,,,sub_920,2024-05-20_16h48.12.171,Reversal,2023.1.3,59.94952250203079,4,
,,,exp3.png,,,,,,,,,,,,,,,,,2,0,2,0,,,,,0,0,0,0,0,2,2,2,,,,,,,,,,,,,,,,,,,,,,920.7974712,,26.0,1.5772505000004458,"[(26.0, 1.5772505000004458)]",,26.0,,,,,,,,,,,sub_920,2024-05-20_16h48.12.171,Reversal,2023.1.3,59.94952250203079,4,
,,,exp4.png,,,,,,,,,,,,,,,,,2,0,2,0,,,,,0,0,0,0,0,3,3,3,,,,,,,,,,,,,,,,,,,,,,923.7979933000001,,77.0,3.8260401999996247,"[(87.0, 1.744474099999934), (71.0, 3.1940346999999747), (77.0, 3.8260401999996247)]",,,77.0,,,,,,,,,,sub_920,2024-05-20_16h48.12.171,Reversal,2023.1.3,59.94952250203079,4,
,,,,,,,,,,,,,,,,,,,,,,,,,,,,,,,,,,,,,,,,,,,,,,,,,,,,,,,,86,,,,,,,,,,99,53,46,405.47157080000034,0,space,71.07476260000067,None,sub_920,2024-05-20_16h48.12.171,Reversal,2023.1.3,59.94952250203079,4,
