trial_index,trial_image1_file,trial_image2_file,image_file,learning_outer_loop.thisRepN,learning_outer_loop.thisTrialN,learning_outer_loop.thisN,learning_outer_loop.thisIndex,learning_inner_loop.thisRepN,learning_inner_loop.thisTrialN,learning_inner_loop.thisN,learning_inner_loop.thisIndex,learning_estimation_outer_loop.thisRepN,learning_estimation_outer_loop.thisTrialN,learning_estimation_outer_loop.thisN,learning_estimation_outer_loop.thisIndex,learning_estimation_inner_loop.thisRepN,learning_estimation_inner_loop.thisTrialN,learning_estimation_inner_loop.thisN,learning_estimation_inner_loop.thisIndex,reversal_outer_loop.thisRepN,reversal_outer_loop.thisTrialN,reversal_outer_loop.thisN,reversal_outer_loop.thisIndex,reversal_inner_loop.thisRepN,reversal_inner_loop.thisTrialN,reversal_inner_loop.thisN,reversal_inner_loop.thisIndex,reversal_estimation_outer_loop.thisRepN,reversal_estimation_outer_loop.thisTrialN,reversal_estimation_outer_loop.thisN,reversal_estimation_outer_loop.thisIndex,reversal_estimation_inner_loop.thisRepN,reversal_estimation_inner_loop.thisTrialN,reversal_estimation_inner_loop.thisN,reversal_estimation_inner_loop.thisIndex,skipped,total_trial_counter,trial_num,left_right_flip,left_image_file,right_image_file,clicked_stimulus_side,side,clicked_stimulus,version,high_prob_image_file,low_prob_image_file,choice_a,choice_b,pair_type,correct,trial_feedback_random,reward,trial_type,overall_time_after_trial,score,estimation_rating.started,estimation_exp1.png,estimation_rating.response,estimation_rating.rt,estimation_rating.history,estimation_exp2.png,total_learning_time,estimation_exp3.png,estimation_exp4.png,total_correct,learning_correct,reversal_correct,total_reversal_time,extra_block,participant,date,expName,psychopyVersion,frameRate,ver,
0,exp1.png,exp2.png,,0,0,0,0,0,0,0,0,,,,,,,,,,,,,,,,,,,,,,,,,True,,,,,,,,,,,,,,,,,,,,,,,,,,,,,,,,,,,sub_816,2024-12-22_12h29.33.442,Reversal,2023.1.3,60.039578089929854,4,
1,exp3.png,exp4.png,,0,0,0,0,0,1,1,1,,,,,,,,,,,,,,,,,,,,,,,,,False,0,1,True,exp4.png,exp3.png,trial_left_image,1,exp4.png,4,exp4.png,exp3.png,1,3,reversed,correct,0.43034038430954125,1,valid_win,14.72746240000015,1,,,,,,,,,,,,,,,sub_816,2024-12-22_12h29.33.442,Reversal,2023.1.3,60.039578089929854,4,
2,exp1.png,exp2.png,,0,0,0,0,0,2,2,2,,,,,,,,,,,,,,,,,,,,,,,,,False,1,2,True,exp2.png,exp1.png,trial_left_image,1,exp2.png,4,exp2.png,exp1.png,1,1,non-reversed,correct,0.9522292254734112,1,valid_win,21.058636699999624,2,,,,,,,,,,,,,,,sub_816,2024-12-22_12h29.33.442,Reversal,2023.1.3,60.039578089929854,4,
3,exp3.png,exp4.png,,0,0,0,0,0,3,3,3,,,,,,,,,,,,,,,,,,,,,,,,,False,2,3,False,exp3.png,exp4.png,trial_right_image,-1,exp4.png,4,exp4.png,exp3.png,1,3,reversed,correct,0.7058010919006917,1,valid_win,26.522444500000347,3,,,,,,,,,,,,,,,sub_816,2024-12-22_12h29.33.442,Reversal,2023.1.3,60.039578089929854,4,
4,exp1.png,exp2.png,,0,0,0,0,0,4,4,4,,,,,,,,,,,,,,,,,,,,,,,,,False,3,4,True,exp2.png,exp1.png,trial_left_image,1,exp2.png,4,exp2.png,exp1.png,1,1,non-reversed,correct,0.34176837803327254,1,valid_win,31.353881799999726,4,,,,,,,,,,,,,,,sub_816,2024-12-22_12h29.33.442,Reversal,2023.1.3,60.039578089929854,4,
5,exp3.png,exp4.png,,0,0,0,0,0,5,5,5,,,,,,,,,,,,,,,,,,,,,,,,,False,4,5,False,exp3.png,exp4.png,trial_right_image,-1,exp4.png,4,exp4.png,exp3.png,1,3,reversed,correct,0.8883595328309503,1,valid_win,37.28559169999971,5,,,,,,,,,,,,,,,sub_816,2024-12-22_12h29.33.442,Reversal,2023.1.3,60.039578089929854,4,
6,exp1.png,exp2.png,,0,0,0,0,0,6,6,6,,,,,,,,,,,,,,,,,,,,,,,,,False,5,6,False,exp1.png,exp2.png,trial_right_image,-1,exp2.png,4,exp2.png,exp1.png,1,1,non-reversed,correct,0.9402646065083098,1,valid_win,41.78363090000039,6,,,,,,,,,,,,,,,sub_816,2024-12-22_12h29.33.442,Reversal,2023.1.3,60.039578089929854,4,
7,exp3.png,exp4.png,,0,0,0,0,0,7,7,7,,,,,,,,,,,,,,,,,,,,,,,,,False,6,7,False,exp3.png,exp4.png,trial_right_image,-1,exp4.png,4,exp4.png,exp3.png,1,3,reversed,correct,0.15798196536934384,0,invalid_lose,46.53302480000002,6,,,,,,,,,,,,,,,sub_816,2024-12-22_12h29.33.442,Reversal,2023.1.3,60.039578089929854,4,
8,exp1.png,exp2.png,,0,0,0,0,0,8,8,8,,,,,,,,,,,,,,,,,,,,,,,,,False,7,8,False,exp1.png,exp2.png,trial_left_image,1,exp1.png,4,exp2.png,exp1.png,0,2,non-reversed,incorrect,0.9185381869609062,0,valid_lose,53.69654309999987,6,,,,,,,,,,,,,,,sub_816,2024-12-22_12h29.33.442,Reversal,2023.1.3,60.039578089929854,4,
9,exp3.png,exp4.png,,0,0,0,0,0,9,9,9,,,,,,,,,,,,,,,,,,,,,,,,,False,8,9,False,exp3.png,exp4.png,trial_right_image,-1,exp4.png,4,exp4.png,exp3.png,1,3,reversed,correct,0.33014166820240143,1,valid_win,61.695038200000454,7,,,,,,,,,,,,,,,sub_816,2024-12-22_12h29.33.442,Reversal,2023.1.3,60.039578089929854,4,
10,exp1.png,exp2.png,,0,0,0,0,0,10,10,10,,,,,,,,,,,,,,,,,,,,,,,,,False,9,10,True,exp2.png,exp1.png,trial_right_image,-1,exp1.png,4,exp2.png,exp1.png,0,2,non-reversed,incorrect,0.8612880262414729,0,valid_lose,68.97465120000015,7,,,,,,,,,,,,,,,sub_816,2024-12-22_12h29.33.442,Reversal,2023.1.3,60.039578089929854,4,
11,exp3.png,exp4.png,,0,0,0,0,0,11,11,11,,,,,,,,,,,,,,,,,,,,,,,,,False,10,11,False,exp3.png,exp4.png,trial_right_image,-1,exp4.png,4,exp4.png,exp3.png,1,3,reversed,correct,0.021465300736291715,0,invalid_lose,74.83918040000026,7,,,,,,,,,,,,,,,sub_816,2024-12-22_12h29.33.442,Reversal,2023.1.3,60.039578089929854,4,
12,exp1.png,exp2.png,,0,0,0,0,0,12,12,12,,,,,,,,,,,,,,,,,,,,,,,,,False,11,12,True,exp2.png,exp1.png,trial_left_image,1,exp2.png,4,exp2.png,exp1.png,1,1,non-reversed,correct,0.9549513778755624,1,valid_win,85.07036519999929,8,,,,,,,,,,,,,,,sub_816,2024-12-22_12h29.33.442,Reversal,2023.1.3,60.039578089929854,4,
13,exp3.png,exp4.png,,0,0,0,0,0,13,13,13,,,,,,,,,,,,,,,,,,,,,,,,,False,12,13,True,exp4.png,exp3.png,trial_right_image,-1,exp3.png,4,exp4.png,exp3.png,0,4,reversed,incorrect,0.2257503899405754,1,invalid_win,92.06749850000051,9,,,,,,,,,,,,,,,sub_816,2024-12-22_12h29.33.442,Reversal,2023.1.3,60.039578089929854,4,
14,exp1.png,exp2.png,,0,0,0,0,0,14,14,14,,,,,,,,,,,,,,,,,,,,,,,,,False,13,14,False,exp1.png,exp2.png,trial_right_image,-1,exp2.png,4,exp2.png,exp1.png,1,1,non-reversed,correct,0.592267285766132,1,valid_win,96.78271160000077,10,,,,,,,,,,,,,,,sub_816,2024-12-22_12h29.33.442,Reversal,2023.1.3,60.039578089929854,4,
15,exp3.png,exp4.png,,0,0,0,0,0,15,15,15,,,,,,,,,,,,,,,,,,,,,,,,,False,14,15,False,exp3.png,exp4.png,trial_left_image,1,exp3.png,4,exp4.png,exp3.png,0,4,reversed,incorrect,0.5606805424043207,0,valid_lose,101.29682329999923,10,,,,,,,,,,,,,,,sub_816,2024-12-22_12h29.33.442,Reversal,2023.1.3,60.039578089929854,4,
16,exp1.png,exp2.png,,0,0,0,0,0,16,16,16,,,,,,,,,,,,,,,,,,,,,,,,,False,15,16,False,exp1.png,exp2.png,trial_right_image,-1,exp2.png,4,exp2.png,exp1.png,1,1,non-reversed,correct,0.134852350566943,0,invalid_lose,108.77862760000062,10,,,,,,,,,,,,,,,sub_816,2024-12-22_12h29.33.442,Reversal,2023.1.3,60.039578089929854,4,
17,exp3.png,exp4.png,,0,0,0,0,0,17,17,17,,,,,,,,,,,,,,,,,,,,,,,,,False,16,17,True,exp4.png,exp3.png,trial_right_image,-1,exp3.png,4,exp4.png,exp3.png,0,4,reversed,incorrect,0.7153056187450814,0,valid_lose,117.80884180000066,10,,,,,,,,,,,,,,,sub_816,2024-12-22_12h29.33.442,Reversal,2023.1.3,60.039578089929854,4,
18,exp1.png,exp2.png,,0,0,0,0,0,18,18,18,,,,,,,,,,,,,,,,,,,,,,,,,False,17,18,True,exp2.png,exp1.png,trial_left_image,1,exp2.png,4,exp2.png,exp1.png,1,1,non-reversed,correct,0.7777458224919594,1,valid_win,127.92240630000015,11,,,,,,,,,,,,,,,sub_816,2024-12-22_12h29.33.442,Reversal,2023.1.3,60.039578089929854,4,
19,exp3.png,exp4.png,,0,0,0,0,0,19,19,19,,,,,,,,,,,,,,,,,,,,,,,,,False,18,19,True,exp4.png,exp3.png,trial_right_image,-1,exp3.png,4,exp4.png,exp3.png,0,4,reversed,incorrect,0.24731209813710409,1,invalid_win,135.3682348000002,12,,,,,,,,,,,,,,,sub_816,2024-12-22_12h29.33.442,Reversal,2023.1.3,60.039578089929854,4,
20,exp1.png,exp2.png,,0,0,0,0,0,20,20,20,,,,,,,,,,,,,,,,,,,,,,,,,False,19,20,True,exp2.png,exp1.png,trial_left_image,1,exp2.png,4,exp2.png,exp1.png,1,1,non-reversed,correct,0.3769514019703154,1,valid_win,141.1175406000002,13,,,,,,,,,,,,,,,sub_816,2024-12-22_12h29.33.442,Reversal,2023.1.3,60.039578089929854,4,
,,,exp1.png,0,0,0,0,,,,,0,0,0,0,0,0,0,0,,,,,,,,,,,,,,,,,,,,,,,,,,,,,,,,,,,,,,259.3292032999998,50.0,50.0,9.016333100000338,"[(50.0, 9.016333100000338)]",,,,,,,,,,sub_816,2024-12-22_12h29.33.442,Reversal,2023.1.3,60.039578089929854,4,
,,,exp2.png,0,0,0,0,,,,,0,0,0,0,0,1,1,1,,,,,,,,,,,,,,,,,,,,,,,,,,,,,,,,,,,,,,273.0580389000006,,68.0,28.81481199999871,"[(68.0, 28.81481199999871)]",68.0,,,,,,,,,sub_816,2024-12-22_12h29.33.442,Reversal,2023.1.3,60.039578089929854,4,
,,,exp3.png,0,0,0,0,,,,,0,0,0,0,0,2,2,2,,,,,,,,,,,,,,,,,,,,,,,,,,,,,,,,,,,,,,304.779902100001,,None,None,[],,,,,,,,,,sub_816,2024-12-22_12h29.33.442,Reversal,2023.1.3,60.039578089929854,4,
,,,exp4.png,0,0,0,0,,,,,0,0,0,0,0,3,3,3,,,,,,,,,,,,,,,,,,,,,,,,,,,,,,,,,,,,,,305.2880055000005,,None,None,[],,,,,,,,,,sub_816,2024-12-22_12h29.33.442,Reversal,2023.1.3,60.039578089929854,4,
0,exp1.png,exp2.png,,1,0,1,0,0,0,0,0,,,,,,,,,,,,,,,,,,,,,,,,,True,,,,,,,,,,,,,,,,,,,,,,,,,,,,,,,,,,,sub_816,2024-12-22_12h29.33.442,Reversal,2023.1.3,60.039578089929854,4,
1,exp3.png,exp4.png,,1,0,1,0,0,1,1,1,,,,,,,,,,,,,,,,,,,,,,,,,False,20,21,True,exp4.png,exp3.png,trial_left_image,1,exp4.png,4,exp4.png,exp3.png,1,3,reversed,correct,0.31502522805042676,1,valid_win,201.36308180000015,14,,,,,,,,,,,,,,,sub_816,2024-12-22_12h29.33.442,Reversal,2023.1.3,60.039578089929854,4,
2,exp1.png,exp2.png,,1,0,1,0,0,2,2,2,,,,,,,,,,,,,,,,,,,,,,,,,False,21,22,True,exp2.png,exp1.png,trial_right_image,-1,exp1.png,4,exp2.png,exp1.png,0,2,non-reversed,incorrect,0.5192221808404265,0,valid_lose,210.06073319999996,14,,,,,,,,,,,,,,,sub_816,2024-12-22_12h29.33.442,Reversal,2023.1.3,60.039578089929854,4,
3,exp3.png,exp4.png,,1,0,1,0,0,3,3,3,,,,,,,,,,,,,,,,,,,,,,,,,False,22,23,True,exp4.png,exp3.png,trial_left_image,1,exp4.png,4,exp4.png,exp3.png,1,3,reversed,correct,0.3867780629545393,1,valid_win,216.12495610000042,15,,,,,,,,,,,,,,,sub_816,2024-12-22_12h29.33.442,Reversal,2023.1.3,60.039578089929854,4,
4,exp1.png,exp2.png,,1,0,1,0,0,4,4,4,,,,,,,,,,,,,,,,,,,,,,,,,False,23,24,False,exp1.png,exp2.png,trial_left_image,1,exp1.png,4,exp2.png,exp1.png,0,2,non-reversed,incorrect,0.1478123011215371,1,invalid_win,221.92226300000038,16,,,,,,,,,,,,,,,sub_816,2024-12-22_12h29.33.442,Reversal,2023.1.3,60.039578089929854,4,
5,exp3.png,exp4.png,,1,0,1,0,0,5,5,5,,,,,,,,,,,,,,,,,,,,,,,,,False,24,25,False,exp3.png,exp4.png,trial_right_image,-1,exp4.png,4,exp4.png,exp3.png,1,3,reversed,correct,0.3089982759852412,1,valid_win,230.55393729999923,17,,,,,,,,,,,,,,,sub_816,2024-12-22_12h29.33.442,Reversal,2023.1.3,60.039578089929854,4,
6,exp1.png,exp2.png,,1,0,1,0,0,6,6,6,,,,,,,,,,,,,,,,,,,,,,,,,False,25,26,True,exp2.png,exp1.png,trial_left_image,1,exp2.png,4,exp2.png,exp1.png,1,1,non-reversed,correct,0.8205907724829977,1,valid_win,238.6026622999998,18,,,,,,,,,,,,,,,sub_816,2024-12-22_12h29.33.442,Reversal,2023.1.3,60.039578089929854,4,
7,exp3.png,exp4.png,,1,0,1,0,0,7,7,7,,,,,,,,,,,,,,,,,,,,,,,,,False,26,27,False,exp3.png,exp4.png,trial_right_image,-1,exp4.png,4,exp4.png,exp3.png,1,3,reversed,correct,0.531897219012856,1,valid_win,244.94906300000002,19,,,,,,,,,,,,,,,sub_816,2024-12-22_12h29.33.442,Reversal,2023.1.3,60.039578089929854,4,
8,exp1.png,exp2.png,,1,0,1,0,0,8,8,8,,,,,,,,,,,,,,,,,,,,,,,,,False,27,28,False,exp1.png,exp2.png,trial_left_image,1,exp1.png,4,exp2.png,exp1.png,0,2,non-reversed,incorrect,0.6831830810582666,0,valid_lose,252.0634981000003,19,,,,,,,,,,,,,,,sub_816,2024-12-22_12h29.33.442,Reversal,2023.1.3,60.039578089929854,4,
9,exp3.png,exp4.png,,1,0,1,0,0,9,9,9,,,,,,,,,,,,,,,,,,,,,,,,,False,28,29,True,exp4.png,exp3.png,trial_left_image,1,exp4.png,4,exp4.png,exp3.png,1,3,reversed,correct,0.6731238576364504,1,valid_win,263.5262676000002,20,,,,,,,,,,,,,,,sub_816,2024-12-22_12h29.33.442,Reversal,2023.1.3,60.039578089929854,4,
10,exp1.png,exp2.png,,1,0,1,0,0,10,10,10,,,,,,,,,,,,,,,,,,,,,,,,,False,29,30,True,exp2.png,exp1.png,trial_right_image,-1,exp1.png,4,exp2.png,exp1.png,0,2,non-reversed,incorrect,0.861965534687212,0,valid_lose,275.00488640000003,20,,,,,,,,,,,,,,,sub_816,2024-12-22_12h29.33.442,Reversal,2023.1.3,60.039578089929854,4,
11,exp3.png,exp4.png,,1,0,1,0,0,11,11,11,,,,,,,,,,,,,,,,,,,,,,,,,False,30,31,False,exp3.png,exp4.png,trial_left_image,1,exp3.png,4,exp4.png,exp3.png,0,4,reversed,incorrect,0.8377125342129693,0,valid_lose,284.7193707999995,20,,,,,,,,,,,,,,,sub_816,2024-12-22_12h29.33.442,Reversal,2023.1.3,60.039578089929854,4,
12,exp1.png,exp2.png,,1,0,1,0,0,12,12,12,,,,,,,,,,,,,,,,,,,,,,,,,False,31,32,False,exp1.png,exp2.png,trial_left_image,1,exp1.png,4,exp2.png,exp1.png,0,2,non-reversed,incorrect,0.8128080507091197,0,valid_lose,296.46388429999934,20,,,,,,,,,,,,,,,sub_816,2024-12-22_12h29.33.442,Reversal,2023.1.3,60.039578089929854,4,
13,exp3.png,exp4.png,,1,0,1,0,0,13,13,13,,,,,,,,,,,,,,,,,,,,,,,,,False,32,33,False,exp3.png,exp4.png,trial_left_image,1,exp3.png,4,exp4.png,exp3.png,0,4,reversed,incorrect,0.41982414583876926,0,valid_lose,304.2957927999996,20,,,,,,,,,,,,,,,sub_816,2024-12-22_12h29.33.442,Reversal,2023.1.3,60.039578089929854,4,
14,exp1.png,exp2.png,,1,0,1,0,0,14,14,14,,,,,,,,,,,,,,,,,,,,,,,,,False,33,34,True,exp2.png,exp1.png,trial_left_image,1,exp2.png,4,exp2.png,exp1.png,1,1,non-reversed,correct,0.014176578897893255,0,invalid_lose,309.8927086999993,20,,,,,,,,,,,,,,,sub_816,2024-12-22_12h29.33.442,Reversal,2023.1.3,60.039578089929854,4,
15,exp3.png,exp4.png,,1,0,1,0,0,15,15,15,,,,,,,,,,,,,,,,,,,,,,,,,False,34,35,False,exp3.png,exp4.png,trial_left_image,1,exp3.png,4,exp4.png,exp3.png,0,4,reversed,incorrect,0.8960049628981805,0,valid_lose,315.2586702000008,20,,,,,,,,,,,,,,,sub_816,2024-12-22_12h29.33.442,Reversal,2023.1.3,60.039578089929854,4,
16,exp1.png,exp2.png,,1,0,1,0,0,16,16,16,,,,,,,,,,,,,,,,,,,,,,,,,False,35,36,False,exp1.png,exp2.png,trial_left_image,1,exp1.png,4,exp2.png,exp1.png,0,2,non-reversed,incorrect,0.5195641664177006,0,valid_lose,319.17331639999975,20,,,,,,,,,,,,,,,sub_816,2024-12-22_12h29.33.442,Reversal,2023.1.3,60.039578089929854,4,
17,exp3.png,exp4.png,,1,0,1,0,0,17,17,17,,,,,,,,,,,,,,,,,,,,,,,,,False,36,37,False,exp3.png,exp4.png,trial_left_image,1,exp3.png,4,exp4.png,exp3.png,0,4,reversed,incorrect,0.6073413265355425,0,valid_lose,322.9555182999993,20,,,,,,,,,,,,,,,sub_816,2024-12-22_12h29.33.442,Reversal,2023.1.3,60.039578089929854,4,
18,exp1.png,exp2.png,,1,0,1,0,0,18,18,18,,,,,,,,,,,,,,,,,,,,,,,,,False,37,38,True,exp2.png,exp1.png,trial_left_image,1,exp2.png,4,exp2.png,exp1.png,1,1,non-reversed,correct,0.08747408258606792,0,invalid_lose,326.6543359999996,20,,,,,,,,,,,,,,,sub_816,2024-12-22_12h29.33.442,Reversal,2023.1.3,60.039578089929854,4,
19,exp3.png,exp4.png,,1,0,1,0,0,19,19,19,,,,,,,,,,,,,,,,,,,,,,,,,False,38,39,True,exp4.png,exp3.png,trial_left_image,1,exp4.png,4,exp4.png,exp3.png,1,3,reversed,correct,0.8489371716962464,1,valid_win,331.0360863999995,21,,,,,,,,,,,,,,,sub_816,2024-12-22_12h29.33.442,Reversal,2023.1.3,60.039578089929854,4,
20,exp1.png,exp2.png,,1,0,1,0,0,20,20,20,,,,,,,,,,,,,,,,,,,,,,,,,False,39,40,True,exp2.png,exp1.png,trial_left_image,1,exp2.png,4,exp2.png,exp1.png,1,1,non-reversed,correct,0.39579555046231707,1,valid_win,334.98621450000064,22,,,,,,,,,,,,,,,sub_816,2024-12-22_12h29.33.442,Reversal,2023.1.3,60.039578089929854,4,
,,,exp1.png,1,0,1,0,,,,,0,0,0,0,0,0,0,0,,,,,,,,,,,,,,,,,,,,,,,,,,,,,,,,,,,,,,453.19543560000056,50.0,50.0,0.03177780000078201,"[(50.0, 0.03177780000078201)]",,,,,,,,,,sub_816,2024-12-22_12h29.33.442,Reversal,2023.1.3,60.039578089929854,4,
,,,exp2.png,1,0,1,0,,,,,0,0,0,0,0,1,1,1,,,,,,,,,,,,,,,,,,,,,,,,,,,,,,,,,,,,,,455.84057329999996,,None,None,[],,,,,,,,,,sub_816,2024-12-22_12h29.33.442,Reversal,2023.1.3,60.039578089929854,4,
,,,exp3.png,1,0,1,0,,,,,0,0,0,0,0,2,2,2,,,,,,,,,,,,,,,,,,,,,,,,,,,,,,,,,,,,,,456.8681252000006,,None,None,[],,,,,,,,,,sub_816,2024-12-22_12h29.33.442,Reversal,2023.1.3,60.039578089929854,4,
,,,exp4.png,1,0,1,0,,,,,0,0,0,0,0,3,3,3,,,,,,,,,,,,,,,,,,,,,,,,,,,,,,,,,,,,,,457.8670791000004,,None,None,[],,,,,,,,,,sub_816,2024-12-22_12h29.33.442,Reversal,2023.1.3,60.039578089929854,4,
0,exp1.png,exp2.png,,2,0,2,0,0,0,0,0,,,,,,,,,,,,,,,,,,,,,,,,,True,,,,,,,,,,,,,,,,,,,,,,,,,,,,,,,,,,,sub_816,2024-12-22_12h29.33.442,Reversal,2023.1.3,60.039578089929854,4,
1,exp3.png,exp4.png,,2,0,2,0,0,1,1,1,,,,,,,,,,,,,,,,,,,,,,,,,False,40,41,False,exp3.png,exp4.png,trial_left_image,1,exp3.png,4,exp4.png,exp3.png,0,4,reversed,incorrect,0.5220276307453113,0,valid_lose,351.7787934000007,22,,,,,,,,,,,,,,,sub_816,2024-12-22_12h29.33.442,Reversal,2023.1.3,60.039578089929854,4,
2,exp1.png,exp2.png,,2,0,2,0,0,2,2,2,,,,,,,,,,,,,,,,,,,,,,,,,False,41,42,True,exp2.png,exp1.png,trial_left_image,1,exp2.png,4,exp2.png,exp1.png,1,1,non-reversed,correct,0.3812612483121858,1,valid_win,357.72791250000046,23,,,,,,,,,,,,,,,sub_816,2024-12-22_12h29.33.442,Reversal,2023.1.3,60.039578089929854,4,
3,exp3.png,exp4.png,,2,0,2,0,0,3,3,3,,,,,,,,,,,,,,,,,,,,,,,,,False,42,43,True,exp4.png,exp3.png,trial_right_image,-1,exp3.png,4,exp4.png,exp3.png,0,4,reversed,incorrect,0.31786665504926015,0,valid_lose,363.4579541000003,23,,,,,,,,,,,,,,,sub_816,2024-12-22_12h29.33.442,Reversal,2023.1.3,60.039578089929854,4,
4,exp1.png,exp2.png,,2,0,2,0,0,4,4,4,,,,,,,,,,,,,,,,,,,,,,,,,False,43,44,False,exp1.png,exp2.png,trial_right_image,-1,exp2.png,4,exp2.png,exp1.png,1,1,non-reversed,correct,0.09366495149092524,0,invalid_lose,370.60676579999927,23,,,,,,,,,,,,,,,sub_816,2024-12-22_12h29.33.442,Reversal,2023.1.3,60.039578089929854,4,
5,exp3.png,exp4.png,,2,0,2,0,0,5,5,5,,,,,,,,,,,,,,,,,,,,,,,,,False,44,45,False,exp3.png,exp4.png,trial_left_image,1,exp3.png,4,exp4.png,exp3.png,0,4,reversed,incorrect,0.644111090317707,0,valid_lose,374.95517350000046,23,,,,,,,,,,,,,,,sub_816,2024-12-22_12h29.33.442,Reversal,2023.1.3,60.039578089929854,4,
6,exp1.png,exp2.png,,2,0,2,0,0,6,6,6,,,,,,,,,,,,,,,,,,,,,,,,,False,45,46,True,exp2.png,exp1.png,trial_left_image,1,exp2.png,4,exp2.png,exp1.png,1,1,non-reversed,correct,0.8121540000909792,1,valid_win,383.5859098000001,24,,,,,,,,,,,,,,,sub_816,2024-12-22_12h29.33.442,Reversal,2023.1.3,60.039578089929854,4,
7,exp3.png,exp4.png,,2,0,2,0,0,7,7,7,,,,,,,,,,,,,,,,,,,,,,,,,False,46,47,True,exp4.png,exp3.png,trial_right_image,-1,exp3.png,4,exp4.png,exp3.png,0,4,reversed,incorrect,0.6197290819785095,0,valid_lose,390.45030810000026,24,,,,,,,,,,,,,,,sub_816,2024-12-22_12h29.33.442,Reversal,2023.1.3,60.039578089929854,4,
8,exp1.png,exp2.png,,2,0,2,0,0,8,8,8,,,,,,,,,,,,,,,,,,,,,,,,,False,47,48,False,exp1.png,exp2.png,trial_left_image,1,exp1.png,4,exp2.png,exp1.png,0,2,non-reversed,incorrect,0.8503476544929237,0,valid_lose,399.1633110999992,24,,,,,,,,,,,,,,,sub_816,2024-12-22_12h29.33.442,Reversal,2023.1.3,60.039578089929854,4,
9,exp3.png,exp4.png,,2,0,2,0,0,9,9,9,,,,,,,,,,,,,,,,,,,,,,,,,False,48,49,True,exp4.png,exp3.png,trial_left_image,1,exp4.png,4,exp4.png,exp3.png,1,3,reversed,correct,0.4250973542587323,1,valid_win,404.51195410000037,25,,,,,,,,,,,,,,,sub_816,2024-12-22_12h29.33.442,Reversal,2023.1.3,60.039578089929854,4,
10,exp1.png,exp2.png,,2,0,2,0,0,10,10,10,,,,,,,,,,,,,,,,,,,,,,,,,False,49,50,True,exp2.png,exp1.png,trial_right_image,-1,exp1.png,4,exp2.png,exp1.png,0,2,non-reversed,incorrect,0.39934258735468287,0,valid_lose,411.6750002000008,25,,,,,,,,,,,,,,,sub_816,2024-12-22_12h29.33.442,Reversal,2023.1.3,60.039578089929854,4,
11,exp3.png,exp4.png,,2,0,2,0,0,11,11,11,,,,,,,,,,,,,,,,,,,,,,,,,False,50,51,False,exp3.png,exp4.png,trial_left_image,1,exp3.png,4,exp4.png,exp3.png,0,4,reversed,incorrect,0.5647136337421467,0,valid_lose,416.1242302999999,25,,,,,,,,,,,,,,,sub_816,2024-12-22_12h29.33.442,Reversal,2023.1.3,60.039578089929854,4,
12,exp1.png,exp2.png,,2,0,2,0,0,12,12,12,,,,,,,,,,,,,,,,,,,,,,,,,False,51,52,False,exp1.png,exp2.png,trial_left_image,1,exp1.png,4,exp2.png,exp1.png,0,2,non-reversed,incorrect,0.9930160635594234,0,valid_lose,421.7220438000004,25,,,,,,,,,,,,,,,sub_816,2024-12-22_12h29.33.442,Reversal,2023.1.3,60.039578089929854,4,
13,exp3.png,exp4.png,,2,0,2,0,0,13,13,13,,,,,,,,,,,,,,,,,,,,,,,,,False,52,53,False,exp3.png,exp4.png,trial_left_image,1,exp3.png,4,exp4.png,exp3.png,0,4,reversed,incorrect,0.7975223921054644,0,valid_lose,428.3714706999999,25,,,,,,,,,,,,,,,sub_816,2024-12-22_12h29.33.442,Reversal,2023.1.3,60.039578089929854,4,
14,exp1.png,exp2.png,,2,0,2,0,0,14,14,14,,,,,,,,,,,,,,,,,,,,,,,,,False,53,54,True,exp2.png,exp1.png,trial_right_image,-1,exp1.png,4,exp2.png,exp1.png,0,2,non-reversed,incorrect,0.16761048444277304,1,invalid_win,433.75132889999986,26,,,,,,,,,,,,,,,sub_816,2024-12-22_12h29.33.442,Reversal,2023.1.3,60.039578089929854,4,
15,exp3.png,exp4.png,,2,0,2,0,0,15,15,15,,,,,,,,,,,,,,,,,,,,,,,,,False,54,55,True,exp4.png,exp3.png,trial_right_image,-1,exp3.png,4,exp4.png,exp3.png,0,4,reversed,incorrect,0.38422220841642596,0,valid_lose,438.3329928999992,26,,,,,,,,,,,,,,,sub_816,2024-12-22_12h29.33.442,Reversal,2023.1.3,60.039578089929854,4,
16,exp1.png,exp2.png,,2,0,2,0,0,16,16,16,,,,,,,,,,,,,,,,,,,,,,,,,False,55,56,True,exp2.png,exp1.png,trial_right_image,-1,exp1.png,4,exp2.png,exp1.png,0,2,non-reversed,incorrect,0.9276352189810989,0,valid_lose,442.6158383000002,26,,,,,,,,,,,,,,,sub_816,2024-12-22_12h29.33.442,Reversal,2023.1.3,60.039578089929854,4,
17,exp3.png,exp4.png,,2,0,2,0,0,17,17,17,,,,,,,,,,,,,,,,,,,,,,,,,False,56,57,True,exp4.png,exp3.png,trial_left_image,1,exp4.png,4,exp4.png,exp3.png,1,3,reversed,correct,0.38253503944826384,1,valid_win,450.57846509999945,27,,,,,,,,,,,,,,,sub_816,2024-12-22_12h29.33.442,Reversal,2023.1.3,60.039578089929854,4,
18,exp1.png,exp2.png,,2,0,2,0,0,18,18,18,,,,,,,,,,,,,,,,,,,,,,,,,False,57,58,False,exp1.png,exp2.png,trial_left_image,1,exp1.png,4,exp2.png,exp1.png,0,2,non-reversed,incorrect,0.26620742176629864,0,valid_lose,457.6441374999995,27,,,,,,,,,,,,,,,sub_816,2024-12-22_12h29.33.442,Reversal,2023.1.3,60.039578089929854,4,
19,exp3.png,exp4.png,,2,0,2,0,0,19,19,19,,,,,,,,,,,,,,,,,,,,,,,,,False,58,59,False,exp3.png,exp4.png,trial_left_image,1,exp3.png,4,exp4.png,exp3.png,0,4,reversed,incorrect,0.1854213371821124,1,invalid_win,462.7911660999998,28,,,,,,,,,,,,,,,sub_816,2024-12-22_12h29.33.442,Reversal,2023.1.3,60.039578089929854,4,
20,exp1.png,exp2.png,,2,0,2,0,0,20,20,20,,,,,,,,,,,,,,,,,,,,,,,,,False,59,60,False,exp1.png,exp2.png,trial_right_image,-1,exp2.png,4,exp2.png,exp1.png,1,1,non-reversed,correct,0.7489295298054698,1,valid_win,467.69149540000035,29,,,,,,,,,,,,,,,sub_816,2024-12-22_12h29.33.442,Reversal,2023.1.3,60.039578089929854,4,
,,,exp1.png,2,0,2,0,,,,,0,0,0,0,0,0,0,0,,,,,,,,,,,,,,,,,,,,,,,,,,,,,,,,,,,,,,585.8932442000005,,None,None,[],,,,,,,,,,sub_816,2024-12-22_12h29.33.442,Reversal,2023.1.3,60.039578089929854,4,
,,,exp2.png,2,0,2,0,,,,,0,0,0,0,0,1,1,1,,,,,,,,,,,,,,,,,,,,,,,,,,,,,,,,,,,,,,588.2268122000005,,None,None,[],,,,,,,,,,sub_816,2024-12-22_12h29.33.442,Reversal,2023.1.3,60.039578089929854,4,
,,,exp3.png,2,0,2,0,,,,,0,0,0,0,0,2,2,2,,,,,,,,,,,,,,,,,,,,,,,,,,,,,,,,,,,,,,589.2290212999997,,None,None,[],,,,,,,,,,sub_816,2024-12-22_12h29.33.442,Reversal,2023.1.3,60.039578089929854,4,
,,,exp4.png,2,0,2,0,,,,,0,0,0,0,0,3,3,3,,,,,,,,,,,,,,,,,,,,,,,,,,,,,,,,,,,,,,590.1894983000002,,None,None,[],,,,,,,,,,sub_816,2024-12-22_12h29.33.442,Reversal,2023.1.3,60.039578089929854,4,
0,exp1.png,exp2.png,,3,0,3,0,0,0,0,0,,,,,,,,,,,,,,,,,,,,,,,,,True,,,,,,,,,,,,,,,,,,,,,,,,,,,,,,,,,,,sub_816,2024-12-22_12h29.33.442,Reversal,2023.1.3,60.039578089929854,4,
1,exp3.png,exp4.png,,3,0,3,0,0,1,1,1,,,,,,,,,,,,,,,,,,,,,,,,,False,60,61,True,exp4.png,exp3.png,trial_right_image,-1,exp3.png,4,exp4.png,exp3.png,0,4,reversed,incorrect,0.18505722737599162,1,invalid_win,479.1703228000006,30,,,,,,,,,,,,,,,sub_816,2024-12-22_12h29.33.442,Reversal,2023.1.3,60.039578089929854,4,
2,exp1.png,exp2.png,,3,0,3,0,0,2,2,2,,,,,,,,,,,,,,,,,,,,,,,,,False,61,62,True,exp2.png,exp1.png,trial_left_image,1,exp2.png,4,exp2.png,exp1.png,1,1,non-reversed,correct,0.9060623950775109,1,valid_win,485.1673329000005,31,,,,,,,,,,,,,,,sub_816,2024-12-22_12h29.33.442,Reversal,2023.1.3,60.039578089929854,4,
3,exp3.png,exp4.png,,3,0,3,0,0,3,3,3,,,,,,,,,,,,,,,,,,,,,,,,,False,62,63,True,exp4.png,exp3.png,trial_right_image,-1,exp3.png,4,exp4.png,exp3.png,0,4,reversed,incorrect,0.9745034120837875,0,valid_lose,490.1493952000001,31,,,,,,,,,,,,,,,sub_816,2024-12-22_12h29.33.442,Reversal,2023.1.3,60.039578089929854,4,
4,exp1.png,exp2.png,,3,0,3,0,0,4,4,4,,,,,,,,,,,,,,,,,,,,,,,,,False,63,64,False,exp1.png,exp2.png,trial_left_image,1,exp1.png,4,exp2.png,exp1.png,0,2,non-reversed,incorrect,0.5182530811720973,0,valid_lose,494.9802691999994,31,,,,,,,,,,,,,,,sub_816,2024-12-22_12h29.33.442,Reversal,2023.1.3,60.039578089929854,4,
5,exp3.png,exp4.png,,3,0,3,0,0,5,5,5,,,,,,,,,,,,,,,,,,,,,,,,,False,64,65,False,exp3.png,exp4.png,trial_left_image,1,exp3.png,4,exp4.png,exp3.png,0,4,reversed,incorrect,0.8055000186201313,0,valid_lose,499.66301360000034,31,,,,,,,,,,,,,,,sub_816,2024-12-22_12h29.33.442,Reversal,2023.1.3,60.039578089929854,4,
6,exp1.png,exp2.png,,3,0,3,0,0,6,6,6,,,,,,,,,,,,,,,,,,,,,,,,,False,65,66,False,exp1.png,exp2.png,trial_left_image,1,exp1.png,4,exp2.png,exp1.png,0,2,non-reversed,incorrect,0.7087473143426396,0,valid_lose,504.6945453999997,31,,,,,,,,,,,,,,,sub_816,2024-12-22_12h29.33.442,Reversal,2023.1.3,60.039578089929854,4,
7,exp3.png,exp4.png,,3,0,3,0,0,7,7,7,,,,,,,,,,,,,,,,,,,,,,,,,False,66,67,False,exp3.png,exp4.png,trial_left_image,1,exp3.png,4,exp4.png,exp3.png,0,4,reversed,incorrect,0.8035466652503345,0,valid_lose,510.94165369999973,31,,,,,,,,,,,,,,,sub_816,2024-12-22_12h29.33.442,Reversal,2023.1.3,60.039578089929854,4,
8,exp1.png,exp2.png,,3,0,3,0,0,8,8,8,,,,,,,,,,,,,,,,,,,,,,,,,False,67,68,True,exp2.png,exp1.png,trial_right_image,-1,exp1.png,4,exp2.png,exp1.png,0,2,non-reversed,incorrect,0.6613169288265164,0,valid_lose,515.3575720999997,31,,,,,,,,,,,,,,,sub_816,2024-12-22_12h29.33.442,Reversal,2023.1.3,60.039578089929854,4,
9,exp3.png,exp4.png,,3,0,3,0,0,9,9,9,,,,,,,,,,,,,,,,,,,,,,,,,False,68,69,False,exp3.png,exp4.png,trial_right_image,-1,exp4.png,4,exp4.png,exp3.png,1,3,reversed,correct,0.8515366697704863,1,valid_win,519.9220607999996,32,,,,,,,,,,,,,,,sub_816,2024-12-22_12h29.33.442,Reversal,2023.1.3,60.039578089929854,4,
10,exp1.png,exp2.png,,3,0,3,0,0,10,10,10,,,,,,,,,,,,,,,,,,,,,,,,,False,69,70,True,exp2.png,exp1.png,trial_right_image,-1,exp1.png,4,exp2.png,exp1.png,0,2,non-reversed,incorrect,0.104844427833655,1,invalid_win,524.1881735999996,33,,,,,,,,,,,,,,,sub_816,2024-12-22_12h29.33.442,Reversal,2023.1.3,60.039578089929854,4,
11,exp3.png,exp4.png,,3,0,3,0,0,11,11,11,,,,,,,,,,,,,,,,,,,,,,,,,False,70,71,False,exp3.png,exp4.png,trial_right_image,-1,exp4.png,4,exp4.png,exp3.png,1,3,reversed,correct,0.4213197294527403,1,valid_win,528.2701553999996,34,,,,,,,,,,,,,,,sub_816,2024-12-22_12h29.33.442,Reversal,2023.1.3,60.039578089929854,4,
12,exp1.png,exp2.png,,3,0,3,0,0,12,12,12,,,,,,,,,,,,,,,,,,,,,,,,,False,71,72,True,exp2.png,exp1.png,trial_right_image,-1,exp1.png,4,exp2.png,exp1.png,0,2,non-reversed,incorrect,0.25144645200834626,0,valid_lose,531.6685006000007,34,,,,,,,,,,,,,,,sub_816,2024-12-22_12h29.33.442,Reversal,2023.1.3,60.039578089929854,4,
13,exp3.png,exp4.png,,3,0,3,0,0,13,13,13,,,,,,,,,,,,,,,,,,,,,,,,,False,72,73,True,exp4.png,exp3.png,trial_right_image,-1,exp3.png,4,exp4.png,exp3.png,0,4,reversed,incorrect,0.560613407380005,0,valid_lose,535.6332526000006,34,,,,,,,,,,,,,,,sub_816,2024-12-22_12h29.33.442,Reversal,2023.1.3,60.039578089929854,4,
14,exp1.png,exp2.png,,3,0,3,0,0,14,14,14,,,,,,,,,,,,,,,,,,,,,,,,,False,73,74,True,exp2.png,exp1.png,trial_right_image,-1,exp1.png,4,exp2.png,exp1.png,0,2,non-reversed,incorrect,0.0249284200481088,1,invalid_win,542.0147581000001,35,,,,,,,,,,,,,,,sub_816,2024-12-22_12h29.33.442,Reversal,2023.1.3,60.039578089929854,4,
15,exp3.png,exp4.png,,3,0,3,0,0,15,15,15,,,,,,,,,,,,,,,,,,,,,,,,,False,74,75,True,exp4.png,exp3.png,trial_right_image,-1,exp3.png,4,exp4.png,exp3.png,0,4,reversed,incorrect,0.7552600114762492,0,valid_lose,546.1297608000004,35,,,,,,,,,,,,,,,sub_816,2024-12-22_12h29.33.442,Reversal,2023.1.3,60.039578089929854,4,
16,exp1.png,exp2.png,,3,0,3,0,0,16,16,16,,,,,,,,,,,,,,,,,,,,,,,,,False,75,76,True,exp2.png,exp1.png,trial_right_image,-1,exp1.png,4,exp2.png,exp1.png,0,2,non-reversed,incorrect,0.26832034857517384,0,valid_lose,550.1459838999999,35,,,,,,,,,,,,,,,sub_816,2024-12-22_12h29.33.442,Reversal,2023.1.3,60.039578089929854,4,
17,exp3.png,exp4.png,,3,0,3,0,0,17,17,17,,,,,,,,,,,,,,,,,,,,,,,,,False,76,77,False,exp3.png,exp4.png,trial_right_image,-1,exp4.png,4,exp4.png,exp3.png,1,3,reversed,correct,0.38099396076712133,1,valid_win,556.1765221999995,36,,,,,,,,,,,,,,,sub_816,2024-12-22_12h29.33.442,Reversal,2023.1.3,60.039578089929854,4,
18,exp1.png,exp2.png,,3,0,3,0,0,18,18,18,,,,,,,,,,,,,,,,,,,,,,,,,False,77,78,False,exp1.png,exp2.png,trial_right_image,-1,exp2.png,4,exp2.png,exp1.png,1,1,non-reversed,correct,0.7387281500797043,1,valid_win,560.0436377999995,37,,,,,,,,,,,,,,,sub_816,2024-12-22_12h29.33.442,Reversal,2023.1.3,60.039578089929854,4,
19,exp3.png,exp4.png,,3,0,3,0,0,19,19,19,,,,,,,,,,,,,,,,,,,,,,,,,False,78,79,False,exp3.png,exp4.png,trial_right_image,-1,exp4.png,4,exp4.png,exp3.png,1,3,reversed,correct,0.3864272543672804,1,valid_win,563.8579921,38,,,,,,,,,,,,,,,sub_816,2024-12-22_12h29.33.442,Reversal,2023.1.3,60.039578089929854,4,
20,exp1.png,exp2.png,,3,0,3,0,0,20,20,20,,,,,,,,,,,,,,,,,,,,,,,,,False,79,80,False,exp1.png,exp2.png,trial_right_image,-1,exp2.png,4,exp2.png,exp1.png,1,1,non-reversed,correct,0.24535243289195263,0,invalid_lose,567.7891433999994,38,,,,,,,,,,,,,,,sub_816,2024-12-22_12h29.33.442,Reversal,2023.1.3,60.039578089929854,4,
,,,exp1.png,3,0,3,0,,,,,0,0,0,0,0,0,0,0,,,,,,,,,,,,,,,,,,,,,,,,,,,,,,,,,,,,,,685.9890991000011,,None,None,[],,,,,,,,,,sub_816,2024-12-22_12h29.33.442,Reversal,2023.1.3,60.039578089929854,4,
,,,exp2.png,3,0,3,0,,,,,0,0,0,0,0,1,1,1,,,,,,,,,,,,,,,,,,,,,,,,,,,,,,,,,,,,,,688.6846796000009,,None,None,[],,,,,,,,,,sub_816,2024-12-22_12h29.33.442,Reversal,2023.1.3,60.039578089929854,4,
,,,exp3.png,3,0,3,0,,,,,0,0,0,0,0,2,2,2,,,,,,,,,,,,,,,,,,,,,,,,,,,,,,,,,,,,,,689.3086667000007,,None,None,[],,,,,,,,,,sub_816,2024-12-22_12h29.33.442,Reversal,2023.1.3,60.039578089929854,4,
,,,exp4.png,3,0,3,0,,,,,0,0,0,0,0,3,3,3,,,,,,,,,,,,,,,,,,,,,,,,,,,,,,,,,,,,,,690.101376300001,,None,None,[],,,,,,,,,,sub_816,2024-12-22_12h29.33.442,Reversal,2023.1.3,60.039578089929854,4,
0,exp1.png,exp2.png,,,,,,,,,,,,,,,,,,0,0,0,0,0,0,0,0,,,,,,,,,True,,,,,,,,,,,,,,,,,,,,,,,,,,,,,,,,,,,sub_816,2024-12-22_12h29.33.442,Reversal,2023.1.3,60.039578089929854,4,
1,exp3.png,exp4.png,,,,,,,,,,,,,,,,,,0,0,0,0,0,1,1,1,,,,,,,,,False,0,81,False,exp3.png,exp4.png,trial_right_image,-1,exp4.png,4,exp3.png,exp4.png,1,3,reversed,incorrect,0.03174253950390005,1,invalid_win,578.3197710999993,39,,,,,,,575.3869221000004,,,,,,,,sub_816,2024-12-22_12h29.33.442,Reversal,2023.1.3,60.039578089929854,4,
2,exp1.png,exp2.png,,,,,,,,,,,,,,,,,,0,0,0,0,0,2,2,2,,,,,,,,,False,1,82,False,exp1.png,exp2.png,trial_right_image,-1,exp2.png,4,exp2.png,exp1.png,1,1,non-reversed,correct,0.562494087409359,1,valid_win,582.2859497999998,40,,,,,,,,,,,,,,,sub_816,2024-12-22_12h29.33.442,Reversal,2023.1.3,60.039578089929854,4,
3,exp3.png,exp4.png,,,,,,,,,,,,,,,,,,0,0,0,0,0,3,3,3,,,,,,,,,False,2,83,True,exp4.png,exp3.png,trial_right_image,-1,exp3.png,4,exp3.png,exp4.png,0,4,reversed,correct,0.07075980769448365,0,invalid_lose,589.4653761999998,40,,,,,,,,,,,,,,,sub_816,2024-12-22_12h29.33.442,Reversal,2023.1.3,60.039578089929854,4,
4,exp1.png,exp2.png,,,,,,,,,,,,,,,,,,0,0,0,0,0,4,4,4,,,,,,,,,False,3,84,True,exp2.png,exp1.png,trial_right_image,-1,exp1.png,4,exp2.png,exp1.png,0,2,non-reversed,incorrect,0.6249518273228012,0,valid_lose,593.5307142000001,40,,,,,,,,,,,,,,,sub_816,2024-12-22_12h29.33.442,Reversal,2023.1.3,60.039578089929854,4,
5,exp3.png,exp4.png,,,,,,,,,,,,,,,,,,0,0,0,0,0,5,5,5,,,,,,,,,False,4,85,False,exp3.png,exp4.png,trial_right_image,-1,exp4.png,4,exp3.png,exp4.png,1,3,reversed,incorrect,0.5071756186885207,0,valid_lose,597.5626231999995,40,,,,,,,,,,,,,,,sub_816,2024-12-22_12h29.33.442,Reversal,2023.1.3,60.039578089929854,4,
6,exp1.png,exp2.png,,,,,,,,,,,,,,,,,,0,0,0,0,0,6,6,6,,,,,,,,,False,5,86,True,exp2.png,exp1.png,trial_right_image,-1,exp1.png,4,exp2.png,exp1.png,0,2,non-reversed,incorrect,0.7129330454533415,0,valid_lose,604.0110132000009,40,,,,,,,,,,,,,,,sub_816,2024-12-22_12h29.33.442,Reversal,2023.1.3,60.039578089929854,4,
7,exp3.png,exp4.png,,,,,,,,,,,,,,,,,,0,0,0,0,0,7,7,7,,,,,,,,,False,6,87,False,exp3.png,exp4.png,trial_right_image,-1,exp4.png,4,exp3.png,exp4.png,1,3,reversed,incorrect,0.7609666802060043,0,valid_lose,608.2270222999996,40,,,,,,,,,,,,,,,sub_816,2024-12-22_12h29.33.442,Reversal,2023.1.3,60.039578089929854,4,
8,exp1.png,exp2.png,,,,,,,,,,,,,,,,,,0,0,0,0,0,8,8,8,,,,,,,,,False,7,88,True,exp2.png,exp1.png,trial_right_image,-1,exp1.png,4,exp2.png,exp1.png,0,2,non-reversed,incorrect,0.27771485191809897,0,valid_lose,612.0921856000004,40,,,,,,,,,,,,,,,sub_816,2024-12-22_12h29.33.442,Reversal,2023.1.3,60.039578089929854,4,
9,exp3.png,exp4.png,,,,,,,,,,,,,,,,,,0,0,0,0,0,9,9,9,,,,,,,,,False,8,89,False,exp3.png,exp4.png,trial_right_image,-1,exp4.png,4,exp3.png,exp4.png,1,3,reversed,incorrect,0.46254481745593656,0,valid_lose,625.9207022999999,40,,,,,,,,,,,,,,,sub_816,2024-12-22_12h29.33.442,Reversal,2023.1.3,60.039578089929854,4,
10,exp1.png,exp2.png,,,,,,,,,,,,,,,,,,0,0,0,0,0,10,10,10,,,,,,,,,False,9,90,True,exp2.png,exp1.png,trial_left_image,1,exp2.png,4,exp2.png,exp1.png,1,1,non-reversed,correct,0.9341014618288391,1,valid_win,631.1188667000006,41,,,,,,,,,,,,,,,sub_816,2024-12-22_12h29.33.442,Reversal,2023.1.3,60.039578089929854,4,
11,exp3.png,exp4.png,,,,,,,,,,,,,,,,,,0,0,0,0,0,11,11,11,,,,,,,,,False,10,91,False,exp3.png,exp4.png,trial_left_image,1,exp3.png,4,exp3.png,exp4.png,0,4,reversed,correct,0.22177252118982516,0,invalid_lose,635.2829941,41,,,,,,,,,,,,,,,sub_816,2024-12-22_12h29.33.442,Reversal,2023.1.3,60.039578089929854,4,
12,exp1.png,exp2.png,,,,,,,,,,,,,,,,,,0,0,0,0,0,12,12,12,,,,,,,,,False,11,92,False,exp1.png,exp2.png,trial_left_image,1,exp1.png,4,exp2.png,exp1.png,0,2,non-reversed,incorrect,0.6061721387347937,0,valid_lose,639.2316265999998,41,,,,,,,,,,,,,,,sub_816,2024-12-22_12h29.33.442,Reversal,2023.1.3,60.039578089929854,4,
13,exp3.png,exp4.png,,,,,,,,,,,,,,,,,,0,0,0,0,0,13,13,13,,,,,,,,,False,12,93,False,exp3.png,exp4.png,trial_right_image,-1,exp4.png,4,exp3.png,exp4.png,1,3,reversed,incorrect,0.3200756846578513,0,valid_lose,643.6637157999994,41,,,,,,,,,,,,,,,sub_816,2024-12-22_12h29.33.442,Reversal,2023.1.3,60.039578089929854,4,
14,exp1.png,exp2.png,,,,,,,,,,,,,,,,,,0,0,0,0,0,14,14,14,,,,,,,,,False,13,94,False,exp1.png,exp2.png,trial_left_image,1,exp1.png,4,exp2.png,exp1.png,0,2,non-reversed,incorrect,0.9780627953084494,0,valid_lose,647.9788489000002,41,,,,,,,,,,,,,,,sub_816,2024-12-22_12h29.33.442,Reversal,2023.1.3,60.039578089929854,4,
15,exp3.png,exp4.png,,,,,,,,,,,,,,,,,,0,0,0,0,0,15,15,15,,,,,,,,,False,14,95,True,exp4.png,exp3.png,trial_right_image,-1,exp3.png,4,exp3.png,exp4.png,0,4,reversed,correct,0.11097120856958387,0,invalid_lose,652.1449737999992,41,,,,,,,,,,,,,,,sub_816,2024-12-22_12h29.33.442,Reversal,2023.1.3,60.039578089929854,4,
16,exp1.png,exp2.png,,,,,,,,,,,,,,,,,,0,0,0,0,0,16,16,16,,,,,,,,,False,15,96,True,exp2.png,exp1.png,trial_right_image,-1,exp1.png,4,exp2.png,exp1.png,0,2,non-reversed,incorrect,0.8339924426676198,0,valid_lose,656.7423820999993,41,,,,,,,,,,,,,,,sub_816,2024-12-22_12h29.33.442,Reversal,2023.1.3,60.039578089929854,4,
17,exp3.png,exp4.png,,,,,,,,,,,,,,,,,,0,0,0,0,0,17,17,17,,,,,,,,,False,16,97,False,exp3.png,exp4.png,trial_left_image,1,exp3.png,4,exp3.png,exp4.png,0,4,reversed,correct,0.44514192095073635,1,valid_win,661.0420254,42,,,,,,,,,,,,,,,sub_816,2024-12-22_12h29.33.442,Reversal,2023.1.3,60.039578089929854,4,
18,exp1.png,exp2.png,,,,,,,,,,,,,,,,,,0,0,0,0,0,18,18,18,,,,,,,,,False,17,98,True,exp2.png,exp1.png,trial_right_image,-1,exp1.png,4,exp2.png,exp1.png,0,2,non-reversed,incorrect,0.027459018988413297,1,invalid_win,665.2730028000005,43,,,,,,,,,,,,,,,sub_816,2024-12-22_12h29.33.442,Reversal,2023.1.3,60.039578089929854,4,
19,exp3.png,exp4.png,,,,,,,,,,,,,,,,,,0,0,0,0,0,19,19,19,,,,,,,,,False,18,99,True,exp4.png,exp3.png,trial_right_image,-1,exp3.png,4,exp3.png,exp4.png,0,4,reversed,correct,0.45106012641507465,1,valid_win,669.5712593000007,44,,,,,,,,,,,,,,,sub_816,2024-12-22_12h29.33.442,Reversal,2023.1.3,60.039578089929854,4,
20,exp1.png,exp2.png,,,,,,,,,,,,,,,,,,0,0,0,0,0,20,20,20,,,,,,,,,False,19,100,True,exp2.png,exp1.png,trial_right_image,-1,exp1.png,4,exp2.png,exp1.png,0,2,non-reversed,incorrect,0.7312851327613016,0,valid_lose,673.6212940999994,44,,,,,,,,,,,,,,,sub_816,2024-12-22_12h29.33.442,Reversal,2023.1.3,60.039578089929854,4,
,,,exp1.png,,,,,,,,,,,,,,,,,0,0,0,0,,,,,0,0,0,0,0,0,0,0,,,,,,,,,,,,,,,,,,,,,,791.8214590000007,,None,None,[],,,,,,,,,,sub_816,2024-12-22_12h29.33.442,Reversal,2023.1.3,60.039578089929854,4,
,,,exp2.png,,,,,,,,,,,,,,,,,0,0,0,0,,,,,0,0,0,0,0,1,1,1,,,,,,,,,,,,,,,,,,,,,,793.4049617000001,,None,None,[],,,,,,,,,,sub_816,2024-12-22_12h29.33.442,Reversal,2023.1.3,60.039578089929854,4,
,,,exp3.png,,,,,,,,,,,,,,,,,0,0,0,0,,,,,0,0,0,0,0,2,2,2,,,,,,,,,,,,,,,,,,,,,,793.9116333000002,,None,None,[],,,,,,,,,,sub_816,2024-12-22_12h29.33.442,Reversal,2023.1.3,60.039578089929854,4,
,,,exp4.png,,,,,,,,,,,,,,,,,0,0,0,0,,,,,0,0,0,0,0,3,3,3,,,,,,,,,,,,,,,,,,,,,,794.9407542999998,,None,None,[],,,,,,,,,,sub_816,2024-12-22_12h29.33.442,Reversal,2023.1.3,60.039578089929854,4,
0,exp1.png,exp2.png,,,,,,,,,,,,,,,,,,1,0,1,0,0,0,0,0,,,,,,,,,True,,,,,,,,,,,,,,,,,,,,,,,,,,,,,,,,,,,sub_816,2024-12-22_12h29.33.442,Reversal,2023.1.3,60.039578089929854,4,
1,exp3.png,exp4.png,,,,,,,,,,,,,,,,,,1,0,1,0,0,1,1,1,,,,,,,,,False,20,101,True,exp4.png,exp3.png,trial_right_image,-1,exp3.png,4,exp3.png,exp4.png,0,4,reversed,correct,0.008220086572898189,0,invalid_lose,682.0182624999998,44,,,,,,,,,,,,,,,sub_816,2024-12-22_12h29.33.442,Reversal,2023.1.3,60.039578089929854,4,
2,exp1.png,exp2.png,,,,,,,,,,,,,,,,,,1,0,1,0,0,2,2,2,,,,,,,,,False,21,102,True,exp2.png,exp1.png,trial_right_image,-1,exp1.png,4,exp2.png,exp1.png,0,2,non-reversed,incorrect,0.48843834759742133,0,valid_lose,686.5656844000005,44,,,,,,,,,,,,,,,sub_816,2024-12-22_12h29.33.442,Reversal,2023.1.3,60.039578089929854,4,
3,exp3.png,exp4.png,,,,,,,,,,,,,,,,,,1,0,1,0,0,3,3,3,,,,,,,,,False,22,103,True,exp4.png,exp3.png,trial_right_image,-1,exp3.png,4,exp3.png,exp4.png,0,4,reversed,correct,0.8246573424962733,1,valid_win,691.0974139000009,45,,,,,,,,,,,,,,,sub_816,2024-12-22_12h29.33.442,Reversal,2023.1.3,60.039578089929854,4,
4,exp1.png,exp2.png,,,,,,,,,,,,,,,,,,1,0,1,0,0,4,4,4,,,,,,,,,False,23,104,True,exp2.png,exp1.png,trial_right_image,-1,exp1.png,4,exp2.png,exp1.png,0,2,non-reversed,incorrect,0.8980518346639503,0,valid_lose,695.8474869000001,45,,,,,,,,,,,,,,,sub_816,2024-12-22_12h29.33.442,Reversal,2023.1.3,60.039578089929854,4,
5,exp3.png,exp4.png,,,,,,,,,,,,,,,,,,1,0,1,0,0,5,5,5,,,,,,,,,False,24,105,False,exp3.png,exp4.png,trial_left_image,1,exp3.png,4,exp3.png,exp4.png,0,4,reversed,correct,0.1435238614750164,0,invalid_lose,700.5453508999999,45,,,,,,,,,,,,,,,sub_816,2024-12-22_12h29.33.442,Reversal,2023.1.3,60.039578089929854,4,
6,exp1.png,exp2.png,,,,,,,,,,,,,,,,,,1,0,1,0,0,6,6,6,,,,,,,,,False,25,106,True,exp2.png,exp1.png,trial_right_image,-1,exp1.png,4,exp2.png,exp1.png,0,2,non-reversed,incorrect,0.8684962903502945,0,valid_lose,705.0603952000001,45,,,,,,,,,,,,,,,sub_816,2024-12-22_12h29.33.442,Reversal,2023.1.3,60.039578089929854,4,
7,exp3.png,exp4.png,,,,,,,,,,,,,,,,,,1,0,1,0,0,7,7,7,,,,,,,,,False,26,107,False,exp3.png,exp4.png,trial_left_image,1,exp3.png,4,exp3.png,exp4.png,0,4,reversed,correct,0.6204855560085655,1,valid_win,709.4244710999992,46,,,,,,,,,,,,,,,sub_816,2024-12-22_12h29.33.442,Reversal,2023.1.3,60.039578089929854,4,
8,exp1.png,exp2.png,,,,,,,,,,,,,,,,,,1,0,1,0,0,8,8,8,,,,,,,,,False,27,108,True,exp2.png,exp1.png,trial_right_image,-1,exp1.png,4,exp2.png,exp1.png,0,2,non-reversed,incorrect,0.11780573366345903,1,invalid_win,713.6407316999994,47,,,,,,,,,,,,,,,sub_816,2024-12-22_12h29.33.442,Reversal,2023.1.3,60.039578089929854,4,
9,exp3.png,exp4.png,,,,,,,,,,,,,,,,,,1,0,1,0,0,9,9,9,,,,,,,,,False,28,109,False,exp3.png,exp4.png,trial_left_image,1,exp3.png,4,exp3.png,exp4.png,0,4,reversed,correct,0.1412180579361787,0,invalid_lose,718.1218171,47,,,,,,,,,,,,,,,sub_816,2024-12-22_12h29.33.442,Reversal,2023.1.3,60.039578089929854,4,
10,exp1.png,exp2.png,,,,,,,,,,,,,,,,,,1,0,1,0,0,10,10,10,,,,,,,,,False,29,110,False,exp1.png,exp2.png,trial_left_image,1,exp1.png,4,exp2.png,exp1.png,0,2,non-reversed,incorrect,0.7539445674906713,0,valid_lose,722.8367753000002,47,,,,,,,,,,,,,,,sub_816,2024-12-22_12h29.33.442,Reversal,2023.1.3,60.039578089929854,4,
11,exp3.png,exp4.png,,,,,,,,,,,,,,,,,,1,0,1,0,0,11,11,11,,,,,,,,,False,30,111,True,exp4.png,exp3.png,trial_right_image,-1,exp3.png,4,exp3.png,exp4.png,0,4,reversed,correct,0.6620793259651854,1,valid_win,727.0532765000007,48,,,,,,,,,,,,,,,sub_816,2024-12-22_12h29.33.442,Reversal,2023.1.3,60.039578089929854,4,
12,exp1.png,exp2.png,,,,,,,,,,,,,,,,,,1,0,1,0,0,12,12,12,,,,,,,,,False,31,112,True,exp2.png,exp1.png,trial_right_image,-1,exp1.png,4,exp2.png,exp1.png,0,2,non-reversed,incorrect,0.5401985727031284,0,valid_lose,731.1006852999999,48,,,,,,,,,,,,,,,sub_816,2024-12-22_12h29.33.442,Reversal,2023.1.3,60.039578089929854,4,
13,exp3.png,exp4.png,,,,,,,,,,,,,,,,,,1,0,1,0,0,13,13,13,,,,,,,,,False,32,113,True,exp4.png,exp3.png,trial_right_image,-1,exp3.png,4,exp3.png,exp4.png,0,4,reversed,correct,0.26648580346611606,1,valid_win,735.3651446999993,49,,,,,,,,,,,,,,,sub_816,2024-12-22_12h29.33.442,Reversal,2023.1.3,60.039578089929854,4,
14,exp1.png,exp2.png,,,,,,,,,,,,,,,,,,1,0,1,0,0,14,14,14,,,,,,,,,False,33,114,False,exp1.png,exp2.png,trial_left_image,1,exp1.png,4,exp2.png,exp1.png,0,2,non-reversed,incorrect,0.9966127029056352,0,valid_lose,739.6489461000001,49,,,,,,,,,,,,,,,sub_816,2024-12-22_12h29.33.442,Reversal,2023.1.3,60.039578089929854,4,
15,exp3.png,exp4.png,,,,,,,,,,,,,,,,,,1,0,1,0,0,15,15,15,,,,,,,,,False,34,115,False,exp3.png,exp4.png,trial_left_image,1,exp3.png,4,exp3.png,exp4.png,0,4,reversed,correct,0.43049302515289734,1,valid_win,743.8642082000006,50,,,,,,,,,,,,,,,sub_816,2024-12-22_12h29.33.442,Reversal,2023.1.3,60.039578089929854,4,
16,exp1.png,exp2.png,,,,,,,,,,,,,,,,,,1,0,1,0,0,16,16,16,,,,,,,,,False,35,116,False,exp1.png,exp2.png,trial_left_image,1,exp1.png,4,exp2.png,exp1.png,0,2,non-reversed,incorrect,0.5435912961173375,0,valid_lose,747.9464040999992,50,,,,,,,,,,,,,,,sub_816,2024-12-22_12h29.33.442,Reversal,2023.1.3,60.039578089929854,4,
17,exp3.png,exp4.png,,,,,,,,,,,,,,,,,,1,0,1,0,0,17,17,17,,,,,,,,,False,36,117,True,exp4.png,exp3.png,trial_right_image,-1,exp3.png,4,exp3.png,exp4.png,0,4,reversed,correct,0.7562456652287493,1,valid_win,752.2111003000009,51,,,,,,,,,,,,,,,sub_816,2024-12-22_12h29.33.442,Reversal,2023.1.3,60.039578089929854,4,
18,exp1.png,exp2.png,,,,,,,,,,,,,,,,,,1,0,1,0,0,18,18,18,,,,,,,,,False,37,118,False,exp1.png,exp2.png,trial_left_image,1,exp1.png,4,exp2.png,exp1.png,0,2,non-reversed,incorrect,0.4616927192753344,0,valid_lose,756.3261213999995,51,,,,,,,,,,,,,,,sub_816,2024-12-22_12h29.33.442,Reversal,2023.1.3,60.039578089929854,4,
19,exp3.png,exp4.png,,,,,,,,,,,,,,,,,,1,0,1,0,0,19,19,19,,,,,,,,,False,38,119,False,exp3.png,exp4.png,trial_left_image,1,exp3.png,4,exp3.png,exp4.png,0,4,reversed,correct,0.14672360007220941,0,invalid_lose,760.4580650000007,51,,,,,,,,,,,,,,,sub_816,2024-12-22_12h29.33.442,Reversal,2023.1.3,60.039578089929854,4,
20,exp1.png,exp2.png,,,,,,,,,,,,,,,,,,1,0,1,0,0,20,20,20,,,,,,,,,False,39,120,False,exp1.png,exp2.png,trial_left_image,1,exp1.png,4,exp2.png,exp1.png,0,2,non-reversed,incorrect,0.38079573373226294,0,valid_lose,764.5553555000006,51,,,,,,,,,,,,,,,sub_816,2024-12-22_12h29.33.442,Reversal,2023.1.3,60.039578089929854,4,
,,,exp1.png,,,,,,,,,,,,,,,,,1,0,1,0,,,,,0,0,0,0,0,0,0,0,,,,,,,,,,,,,,,,,,,,,,882.7533382000001,30.0,30.0,2.5089654000003065,"[(30.0, 2.5089654000003065)]",,,,,,,,,,sub_816,2024-12-22_12h29.33.442,Reversal,2023.1.3,60.039578089929854,4,
,,,exp2.png,,,,,,,,,,,,,,,,,1,0,1,0,,,,,0,0,0,0,0,1,1,1,,,,,,,,,,,,,,,,,,,,,,886.3953343000012,,75.0,2.6381935000008525,"[(75.0, 2.6381935000008525)]",75.0,,,,,,,,,sub_816,2024-12-22_12h29.33.442,Reversal,2023.1.3,60.039578089929854,4,
,,,exp3.png,,,,,,,,,,,,,,,,,1,0,1,0,,,,,0,0,0,0,0,2,2,2,,,,,,,,,,,,,,,,,,,,,,890.0509340999997,,28.0,1.5091411000012158,"[(28.0, 1.5091411000012158)]",,,28.0,,,,,,,sub_816,2024-12-22_12h29.33.442,Reversal,2023.1.3,60.039578089929854,4,
,,,exp4.png,,,,,,,,,,,,,,,,,1,0,1,0,,,,,0,0,0,0,0,3,3,3,,,,,,,,,,,,,,,,,,,,,,893.0383708999998,,74.0,1.746729399999822,"[(74.0, 1.746729399999822)]",,,,74.0,,,,,,sub_816,2024-12-22_12h29.33.442,Reversal,2023.1.3,60.039578089929854,4,
0,exp1.png,exp2.png,,,,,,,,,,,,,,,,,,2,0,2,0,0,0,0,0,,,,,,,,,True,,,,,,,,,,,,,,,,,,,,,,,,,,,,,,,,,,,sub_816,2024-12-22_12h29.33.442,Reversal,2023.1.3,60.039578089929854,4,
1,exp3.png,exp4.png,,,,,,,,,,,,,,,,,,2,0,2,0,0,1,1,1,,,,,,,,,False,40,121,True,exp4.png,exp3.png,trial_right_image,-1,exp3.png,4,exp3.png,exp4.png,0,4,reversed,correct,0.6480237788920798,1,valid_win,782.5011539999996,52,,,,,,,,,,,,,,,sub_816,2024-12-22_12h29.33.442,Reversal,2023.1.3,60.039578089929854,4,
2,exp1.png,exp2.png,,,,,,,,,,,,,,,,,,2,0,2,0,0,2,2,2,,,,,,,,,False,41,122,False,exp1.png,exp2.png,trial_left_image,1,exp1.png,4,exp2.png,exp1.png,0,2,non-reversed,incorrect,0.28957208681560576,0,valid_lose,787.1996624999992,52,,,,,,,,,,,,,,,sub_816,2024-12-22_12h29.33.442,Reversal,2023.1.3,60.039578089929854,4,
3,exp3.png,exp4.png,,,,,,,,,,,,,,,,,,2,0,2,0,0,3,3,3,,,,,,,,,False,42,123,True,exp4.png,exp3.png,trial_right_image,-1,exp3.png,4,exp3.png,exp4.png,0,4,reversed,correct,0.14003385129386547,0,invalid_lose,791.3801299000006,52,,,,,,,,,,,,,,,sub_816,2024-12-22_12h29.33.442,Reversal,2023.1.3,60.039578089929854,4,
4,exp1.png,exp2.png,,,,,,,,,,,,,,,,,,2,0,2,0,0,4,4,4,,,,,,,,,False,43,124,False,exp1.png,exp2.png,trial_left_image,1,exp1.png,4,exp2.png,exp1.png,0,2,non-reversed,incorrect,0.13927837550381383,1,invalid_win,795.9287371999999,53,,,,,,,,,,,,,,,sub_816,2024-12-22_12h29.33.442,Reversal,2023.1.3,60.039578089929854,4,
5,exp3.png,exp4.png,,,,,,,,,,,,,,,,,,2,0,2,0,0,5,5,5,,,,,,,,,False,44,125,True,exp4.png,exp3.png,trial_right_image,-1,exp3.png,4,exp3.png,exp4.png,0,4,reversed,correct,0.9881371187399168,1,valid_win,801.1103602000003,54,,,,,,,,,,,,,,,sub_816,2024-12-22_12h29.33.442,Reversal,2023.1.3,60.039578089929854,4,
6,exp1.png,exp2.png,,,,,,,,,,,,,,,,,,2,0,2,0,0,6,6,6,,,,,,,,,False,45,126,False,exp1.png,exp2.png,trial_left_image,1,exp1.png,4,exp2.png,exp1.png,0,2,non-reversed,incorrect,0.9525109039487761,0,valid_lose,805.3266738000002,54,,,,,,,,,,,,,,,sub_816,2024-12-22_12h29.33.442,Reversal,2023.1.3,60.039578089929854,4,
7,exp3.png,exp4.png,,,,,,,,,,,,,,,,,,2,0,2,0,0,7,7,7,,,,,,,,,False,46,127,True,exp4.png,exp3.png,trial_right_image,-1,exp3.png,4,exp3.png,exp4.png,0,4,reversed,correct,0.9520519930116178,1,valid_win,809.4740667000005,55,,,,,,,,,,,,,,,sub_816,2024-12-22_12h29.33.442,Reversal,2023.1.3,60.039578089929854,4,
8,exp1.png,exp2.png,,,,,,,,,,,,,,,,,,2,0,2,0,0,8,8,8,,,,,,,,,False,47,128,True,exp2.png,exp1.png,trial_right_image,-1,exp1.png,4,exp2.png,exp1.png,0,2,non-reversed,incorrect,0.2933030943694881,0,valid_lose,813.7392706999999,55,,,,,,,,,,,,,,,sub_816,2024-12-22_12h29.33.442,Reversal,2023.1.3,60.039578089929854,4,
9,exp3.png,exp4.png,,,,,,,,,,,,,,,,,,2,0,2,0,0,9,9,9,,,,,,,,,False,48,129,True,exp4.png,exp3.png,trial_right_image,-1,exp3.png,4,exp3.png,exp4.png,0,4,reversed,correct,0.5144647771173847,1,valid_win,817.8219523999996,56,,,,,,,,,,,,,,,sub_816,2024-12-22_12h29.33.442,Reversal,2023.1.3,60.039578089929854,4,
10,exp1.png,exp2.png,,,,,,,,,,,,,,,,,,2,0,2,0,0,10,10,10,,,,,,,,,False,49,130,True,exp2.png,exp1.png,trial_right_image,-1,exp1.png,4,exp2.png,exp1.png,0,2,non-reversed,incorrect,0.5165703464972105,0,valid_lose,822.2193750000006,56,,,,,,,,,,,,,,,sub_816,2024-12-22_12h29.33.442,Reversal,2023.1.3,60.039578089929854,4,
11,exp3.png,exp4.png,,,,,,,,,,,,,,,,,,2,0,2,0,0,11,11,11,,,,,,,,,False,50,131,False,exp3.png,exp4.png,trial_right_image,-1,exp4.png,4,exp3.png,exp4.png,1,3,reversed,incorrect,0.7850759490972066,0,valid_lose,825.4473653999994,56,,,,,,,,,,,,,,,sub_816,2024-12-22_12h29.33.442,Reversal,2023.1.3,60.039578089929854,4,
12,exp1.png,exp2.png,,,,,,,,,,,,,,,,,,2,0,2,0,0,12,12,12,,,,,,,,,False,51,132,False,exp1.png,exp2.png,trial_left_image,1,exp1.png,4,exp2.png,exp1.png,0,2,non-reversed,incorrect,0.4694961316826086,0,valid_lose,829.9357180999996,56,,,,,,,,,,,,,,,sub_816,2024-12-22_12h29.33.442,Reversal,2023.1.3,60.039578089929854,4,
13,exp3.png,exp4.png,,,,,,,,,,,,,,,,,,2,0,2,0,0,13,13,13,,,,,,,,,False,52,133,True,exp4.png,exp3.png,trial_right_image,-1,exp3.png,4,exp3.png,exp4.png,0,4,reversed,correct,0.0750845940692515,0,invalid_lose,834.0663832999999,56,,,,,,,,,,,,,,,sub_816,2024-12-22_12h29.33.442,Reversal,2023.1.3,60.039578089929854,4,
14,exp1.png,exp2.png,,,,,,,,,,,,,,,,,,2,0,2,0,0,14,14,14,,,,,,,,,False,53,134,False,exp1.png,exp2.png,trial_left_image,1,exp1.png,4,exp2.png,exp1.png,0,2,non-reversed,incorrect,0.1481240682716335,1,invalid_win,838.2986223999997,57,,,,,,,,,,,,,,,sub_816,2024-12-22_12h29.33.442,Reversal,2023.1.3,60.039578089929854,4,
15,exp3.png,exp4.png,,,,,,,,,,,,,,,,,,2,0,2,0,0,15,15,15,,,,,,,,,False,54,135,False,exp3.png,exp4.png,trial_left_image,1,exp3.png,4,exp3.png,exp4.png,0,4,reversed,correct,0.9267444821043088,1,valid_win,842.5974827999999,58,,,,,,,,,,,,,,,sub_816,2024-12-22_12h29.33.442,Reversal,2023.1.3,60.039578089929854,4,
16,exp1.png,exp2.png,,,,,,,,,,,,,,,,,,2,0,2,0,0,16,16,16,,,,,,,,,False,55,136,False,exp1.png,exp2.png,trial_left_image,1,exp1.png,4,exp2.png,exp1.png,0,2,non-reversed,incorrect,0.9238424923967902,0,valid_lose,846.7791269999998,58,,,,,,,,,,,,,,,sub_816,2024-12-22_12h29.33.442,Reversal,2023.1.3,60.039578089929854,4,
17,exp3.png,exp4.png,,,,,,,,,,,,,,,,,,2,0,2,0,0,17,17,17,,,,,,,,,False,56,137,False,exp3.png,exp4.png,trial_left_image,1,exp3.png,4,exp3.png,exp4.png,0,4,reversed,correct,0.07957383723215472,0,invalid_lose,850.9111912999997,58,,,,,,,,,,,,,,,sub_816,2024-12-22_12h29.33.442,Reversal,2023.1.3,60.039578089929854,4,
18,exp1.png,exp2.png,,,,,,,,,,,,,,,,,,2,0,2,0,0,18,18,18,,,,,,,,,False,57,138,True,exp2.png,exp1.png,trial_right_image,-1,exp1.png,4,exp2.png,exp1.png,0,2,non-reversed,incorrect,0.6731121863451287,0,valid_lose,855.2248694000009,58,,,,,,,,,,,,,,,sub_816,2024-12-22_12h29.33.442,Reversal,2023.1.3,60.039578089929854,4,
19,exp3.png,exp4.png,,,,,,,,,,,,,,,,,,2,0,2,0,0,19,19,19,,,,,,,,,False,58,139,False,exp3.png,exp4.png,trial_left_image,1,exp3.png,4,exp3.png,exp4.png,0,4,reversed,correct,0.2174002554481902,0,invalid_lose,859.2407961000008,58,,,,,,,,,,,,,,,sub_816,2024-12-22_12h29.33.442,Reversal,2023.1.3,60.039578089929854,4,
20,exp1.png,exp2.png,,,,,,,,,,,,,,,,,,2,0,2,0,0,20,20,20,,,,,,,,,False,59,140,True,exp2.png,exp1.png,trial_right_image,-1,exp1.png,4,exp2.png,exp1.png,0,2,non-reversed,incorrect,0.43164441924376173,0,valid_lose,863.9068122000008,58,,,,,,,,,,,,,,,sub_816,2024-12-22_12h29.33.442,Reversal,2023.1.3,60.039578089929854,4,
,,,exp1.png,,,,,,,,,,,,,,,,,2,0,2,0,,,,,0,0,0,0,0,0,0,0,,,,,,,,,,,,,,,,,,,,,,982.1188935000009,28.0,28.0,2.3261580000016693,"[(28.0, 2.3261580000016693)]",,,,,,,,,,sub_816,2024-12-22_12h29.33.442,Reversal,2023.1.3,60.039578089929854,4,
,,,exp2.png,,,,,,,,,,,,,,,,,2,0,2,0,,,,,0,0,0,0,0,1,1,1,,,,,,,,,,,,,,,,,,,,,,985.5450648000005,,66.0,5.293730400000641,"[(66.0, 5.293730400000641)]",66.0,,,,,,,,,sub_816,2024-12-22_12h29.33.442,Reversal,2023.1.3,60.039578089929854,4,
,,,exp3.png,,,,,,,,,,,,,,,,,2,0,2,0,,,,,0,0,0,0,0,2,2,2,,,,,,,,,,,,,,,,,,,,,,991.9552829000004,,78.0,2.375047800000175,"[(78.0, 2.375047800000175)]",,,78.0,,,,,,,sub_816,2024-12-22_12h29.33.442,Reversal,2023.1.3,60.039578089929854,4,
,,,exp4.png,,,,,,,,,,,,,,,,,2,0,2,0,,,,,0,0,0,0,0,3,3,3,,,,,,,,,,,,,,,,,,,,,,995.7721311000005,,16.0,1.896697399999539,"[(16.0, 1.896697399999539)]",,,,16.0,,,,,,sub_816,2024-12-22_12h29.33.442,Reversal,2023.1.3,60.039578089929854,4,
,,,,,,,,,,,,,,,,,,,,,,,,,,,,,,,,,,,,,,,,,,,,,,,,,,,,,,,,58,,,,,,,,,,63,37,26,307.8164521999988,1,,,,,,,
