trial_index,trial_image1_file,trial_image2_file,image_file,learning_outer_loop.thisRepN,learning_outer_loop.thisTrialN,learning_outer_loop.thisN,learning_outer_loop.thisIndex,learning_inner_loop.thisRepN,learning_inner_loop.thisTrialN,learning_inner_loop.thisN,learning_inner_loop.thisIndex,learning_estimation_outer_loop.thisRepN,learning_estimation_outer_loop.thisTrialN,learning_estimation_outer_loop.thisN,learning_estimation_outer_loop.thisIndex,learning_estimation_inner_loop.thisRepN,learning_estimation_inner_loop.thisTrialN,learning_estimation_inner_loop.thisN,learning_estimation_inner_loop.thisIndex,reversal_outer_loop.thisRepN,reversal_outer_loop.thisTrialN,reversal_outer_loop.thisN,reversal_outer_loop.thisIndex,reversal_inner_loop.thisRepN,reversal_inner_loop.thisTrialN,reversal_inner_loop.thisN,reversal_inner_loop.thisIndex,reversal_estimation_outer_loop.thisRepN,reversal_estimation_outer_loop.thisTrialN,reversal_estimation_outer_loop.thisN,reversal_estimation_outer_loop.thisIndex,reversal_estimation_inner_loop.thisRepN,reversal_estimation_inner_loop.thisTrialN,reversal_estimation_inner_loop.thisN,reversal_estimation_inner_loop.thisIndex,skipped,total_trial_counter,trial_num,left_right_flip,left_image_file,right_image_file,clicked_stimulus_side,side,clicked_stimulus,version,high_prob_image_file,low_prob_image_file,choice_a,choice_b,pair_type,correct,trial_feedback_random,reward,trial_type,overall_time_after_trial,score,estimation_rating.started,estimation_exp1.png,estimation_rating.response,estimation_rating.rt,estimation_rating.history,estimation_exp3.png,estimation_exp4.png,estimation_exp2.png,total_learning_time,total_correct,learning_correct,reversal_correct,total_reversal_time,extra_block,participant,date,expName,psychopyVersion,frameRate,ver,
0,exp1.png,exp2.png,,0,0,0,0,0,0,0,0,,,,,,,,,,,,,,,,,,,,,,,,,False,0,1,False,exp1.png,exp2.png,trial_right_image,-1,exp2.png,2,exp1.png,exp2.png,0,2,non-reversed,incorrect,0.845226510425968,0,valid_lose,5.179786100000456,0,,,,,,,,,,,,,,,sub_442,2023-09-11_09h38.37.328,Reversal,2023.1.3,59.913281516226775,2,
1,exp3.png,exp4.png,,0,0,0,0,0,1,1,1,,,,,,,,,,,,,,,,,,,,,,,,,False,1,2,False,exp3.png,exp4.png,trial_right_image,-1,exp4.png,2,exp3.png,exp4.png,0,4,reversed,incorrect,0.9985380628240045,0,valid_lose,16.925927799999954,0,,,,,,,,,,,,,,,sub_442,2023-09-11_09h38.37.328,Reversal,2023.1.3,59.913281516226775,2,
2,exp1.png,exp2.png,,0,0,0,0,0,2,2,2,,,,,,,,,,,,,,,,,,,,,,,,,False,2,3,True,exp2.png,exp1.png,trial_right_image,-1,exp1.png,2,exp1.png,exp2.png,1,1,non-reversed,correct,0.5559440732856513,1,valid_win,25.539532200000394,1,,,,,,,,,,,,,,,sub_442,2023-09-11_09h38.37.328,Reversal,2023.1.3,59.913281516226775,2,
3,exp3.png,exp4.png,,0,0,0,0,0,3,3,3,,,,,,,,,,,,,,,,,,,,,,,,,False,3,4,False,exp3.png,exp4.png,trial_left_image,1,exp3.png,2,exp3.png,exp4.png,1,3,reversed,correct,0.9755115948409849,1,valid_win,32.803275600000234,2,,,,,,,,,,,,,,,sub_442,2023-09-11_09h38.37.328,Reversal,2023.1.3,59.913281516226775,2,
4,exp1.png,exp2.png,,0,0,0,0,0,4,4,4,,,,,,,,,,,,,,,,,,,,,,,,,False,4,5,True,exp2.png,exp1.png,trial_right_image,-1,exp1.png,2,exp1.png,exp2.png,1,1,non-reversed,correct,0.6466400130935696,1,valid_win,37.684791399999995,3,,,,,,,,,,,,,,,sub_442,2023-09-11_09h38.37.328,Reversal,2023.1.3,59.913281516226775,2,
5,exp3.png,exp4.png,,0,0,0,0,0,5,5,5,,,,,,,,,,,,,,,,,,,,,,,,,False,5,6,False,exp3.png,exp4.png,trial_left_image,1,exp3.png,2,exp3.png,exp4.png,1,3,reversed,correct,0.6057534883665779,1,valid_win,42.767399000000296,4,,,,,,,,,,,,,,,sub_442,2023-09-11_09h38.37.328,Reversal,2023.1.3,59.913281516226775,2,
6,exp1.png,exp2.png,,0,0,0,0,0,6,6,6,,,,,,,,,,,,,,,,,,,,,,,,,False,6,7,False,exp1.png,exp2.png,trial_left_image,1,exp1.png,2,exp1.png,exp2.png,1,1,non-reversed,correct,0.14233066249300008,0,invalid_lose,47.36568850000003,4,,,,,,,,,,,,,,,sub_442,2023-09-11_09h38.37.328,Reversal,2023.1.3,59.913281516226775,2,
7,exp3.png,exp4.png,,0,0,0,0,0,7,7,7,,,,,,,,,,,,,,,,,,,,,,,,,False,7,8,True,exp4.png,exp3.png,trial_left_image,1,exp4.png,2,exp3.png,exp4.png,0,4,reversed,incorrect,0.3960727931210024,0,valid_lose,52.013410399999884,4,,,,,,,,,,,,,,,sub_442,2023-09-11_09h38.37.328,Reversal,2023.1.3,59.913281516226775,2,
8,exp1.png,exp2.png,,0,0,0,0,0,8,8,8,,,,,,,,,,,,,,,,,,,,,,,,,False,8,9,False,exp1.png,exp2.png,trial_right_image,-1,exp2.png,2,exp1.png,exp2.png,0,2,non-reversed,incorrect,0.5204973555048783,0,valid_lose,56.02854860000025,4,,,,,,,,,,,,,,,sub_442,2023-09-11_09h38.37.328,Reversal,2023.1.3,59.913281516226775,2,
9,exp3.png,exp4.png,,0,0,0,0,0,9,9,9,,,,,,,,,,,,,,,,,,,,,,,,,False,9,10,True,exp4.png,exp3.png,trial_right_image,-1,exp3.png,2,exp3.png,exp4.png,1,3,reversed,correct,0.36662762953465344,1,valid_win,60.31366849999995,5,,,,,,,,,,,,,,,sub_442,2023-09-11_09h38.37.328,Reversal,2023.1.3,59.913281516226775,2,
10,exp1.png,exp2.png,,0,0,0,0,0,10,10,10,,,,,,,,,,,,,,,,,,,,,,,,,False,10,11,True,exp2.png,exp1.png,trial_right_image,-1,exp1.png,2,exp1.png,exp2.png,1,1,non-reversed,correct,0.47439984725889317,1,valid_win,64.65930870000011,6,,,,,,,,,,,,,,,sub_442,2023-09-11_09h38.37.328,Reversal,2023.1.3,59.913281516226775,2,
11,exp3.png,exp4.png,,0,0,0,0,0,11,11,11,,,,,,,,,,,,,,,,,,,,,,,,,False,11,12,True,exp4.png,exp3.png,trial_left_image,1,exp4.png,2,exp3.png,exp4.png,0,4,reversed,incorrect,0.36724926272953107,0,valid_lose,70.89074640000035,6,,,,,,,,,,,,,,,sub_442,2023-09-11_09h38.37.328,Reversal,2023.1.3,59.913281516226775,2,
12,exp1.png,exp2.png,,0,0,0,0,0,12,12,12,,,,,,,,,,,,,,,,,,,,,,,,,False,12,13,False,exp1.png,exp2.png,trial_left_image,1,exp1.png,2,exp1.png,exp2.png,1,1,non-reversed,correct,0.706736289065976,1,valid_win,75.22292620000007,7,,,,,,,,,,,,,,,sub_442,2023-09-11_09h38.37.328,Reversal,2023.1.3,59.913281516226775,2,
13,exp3.png,exp4.png,,0,0,0,0,0,13,13,13,,,,,,,,,,,,,,,,,,,,,,,,,False,13,14,False,exp3.png,exp4.png,trial_left_image,1,exp3.png,2,exp3.png,exp4.png,1,3,reversed,correct,0.9876129776762385,1,valid_win,79.87333990000025,8,,,,,,,,,,,,,,,sub_442,2023-09-11_09h38.37.328,Reversal,2023.1.3,59.913281516226775,2,
14,exp1.png,exp2.png,,0,0,0,0,0,14,14,14,,,,,,,,,,,,,,,,,,,,,,,,,False,14,15,False,exp1.png,exp2.png,trial_left_image,1,exp1.png,2,exp1.png,exp2.png,1,1,non-reversed,correct,0.7117369763176694,1,valid_win,84.06917500000054,9,,,,,,,,,,,,,,,sub_442,2023-09-11_09h38.37.328,Reversal,2023.1.3,59.913281516226775,2,
15,exp3.png,exp4.png,,0,0,0,0,0,15,15,15,,,,,,,,,,,,,,,,,,,,,,,,,False,15,16,True,exp4.png,exp3.png,trial_right_image,-1,exp3.png,2,exp3.png,exp4.png,1,3,reversed,correct,0.44992899110583295,1,valid_win,90.05093800000031,10,,,,,,,,,,,,,,,sub_442,2023-09-11_09h38.37.328,Reversal,2023.1.3,59.913281516226775,2,
16,exp1.png,exp2.png,,0,0,0,0,0,16,16,16,,,,,,,,,,,,,,,,,,,,,,,,,False,16,17,True,exp2.png,exp1.png,trial_right_image,-1,exp1.png,2,exp1.png,exp2.png,1,1,non-reversed,correct,0.24975180995164514,0,invalid_lose,94.26627730000018,10,,,,,,,,,,,,,,,sub_442,2023-09-11_09h38.37.328,Reversal,2023.1.3,59.913281516226775,2,
17,exp3.png,exp4.png,,0,0,0,0,0,17,17,17,,,,,,,,,,,,,,,,,,,,,,,,,False,17,18,False,exp3.png,exp4.png,trial_left_image,1,exp3.png,2,exp3.png,exp4.png,1,3,reversed,correct,0.19893883703045412,0,invalid_lose,99.2642437000004,10,,,,,,,,,,,,,,,sub_442,2023-09-11_09h38.37.328,Reversal,2023.1.3,59.913281516226775,2,
18,exp1.png,exp2.png,,0,0,0,0,0,18,18,18,,,,,,,,,,,,,,,,,,,,,,,,,False,18,19,True,exp2.png,exp1.png,trial_right_image,-1,exp1.png,2,exp1.png,exp2.png,1,1,non-reversed,correct,0.34250881856224735,1,valid_win,103.69647880000048,11,,,,,,,,,,,,,,,sub_442,2023-09-11_09h38.37.328,Reversal,2023.1.3,59.913281516226775,2,
19,exp3.png,exp4.png,,0,0,0,0,0,19,19,19,,,,,,,,,,,,,,,,,,,,,,,,,False,19,20,True,exp4.png,exp3.png,trial_right_image,-1,exp3.png,2,exp3.png,exp4.png,1,3,reversed,correct,0.12684758115777528,0,invalid_lose,108.66107210000064,11,,,,,,,,,,,,,,,sub_442,2023-09-11_09h38.37.328,Reversal,2023.1.3,59.913281516226775,2,
20,exp1.png,exp2.png,,0,0,0,0,0,20,20,20,,,,,,,,,,,,,,,,,,,,,,,,,True,,,,,,,,,,,,,,,,,,,,,,,,,,,,,,,,,,,sub_442,2023-09-11_09h38.37.328,Reversal,2023.1.3,59.913281516226775,2,
,,,exp1.png,0,0,0,0,,,,,0,0,0,0,0,0,0,0,,,,,,,,,,,,,,,,,,,,,,,,,,,,,,,,,,,,,,274.5259307999995,100.0,100.0,5.363831800000298,"[(100.0, 5.363831800000298)]",,,,,,,,,,sub_442,2023-09-11_09h38.37.328,Reversal,2023.1.3,59.913281516226775,2,
,,,exp2.png,0,0,0,0,,,,,0,0,0,0,0,1,1,1,,,,,,,,,,,,,,,,,,,,,,,,,,,,,,,,,,,,,,280.96498639999936,,None,None,[],,,,,,,,,,sub_442,2023-09-11_09h38.37.328,Reversal,2023.1.3,59.913281516226775,2,
,,,exp3.png,0,0,0,0,,,,,0,0,0,0,0,2,2,2,,,,,,,,,,,,,,,,,,,,,,,,,,,,,,,,,,,,,,284.58511720000024,,100.0,3.092935700000453,"[(100.0, 3.092935700000453)]",100.0,,,,,,,,,sub_442,2023-09-11_09h38.37.328,Reversal,2023.1.3,59.913281516226775,2,
,,,exp4.png,0,0,0,0,,,,,0,0,0,0,0,3,3,3,,,,,,,,,,,,,,,,,,,,,,,,,,,,,,,,,,,,,,288.7465651000002,,5.0,1.8455260000000635,"[(5.0, 1.8455260000000635)]",,5.0,,,,,,,,sub_442,2023-09-11_09h38.37.328,Reversal,2023.1.3,59.913281516226775,2,
0,exp1.png,exp2.png,,1,0,1,0,0,0,0,0,,,,,,,,,,,,,,,,,,,,,,,,,False,20,21,True,exp2.png,exp1.png,trial_right_image,-1,exp1.png,2,exp1.png,exp2.png,1,1,non-reversed,correct,0.7354623982153574,1,valid_win,130.9534048000005,12,,,,,,,,,,,,,,,sub_442,2023-09-11_09h38.37.328,Reversal,2023.1.3,59.913281516226775,2,
1,exp3.png,exp4.png,,1,0,1,0,0,1,1,1,,,,,,,,,,,,,,,,,,,,,,,,,False,21,22,True,exp4.png,exp3.png,trial_left_image,1,exp4.png,2,exp3.png,exp4.png,0,4,reversed,incorrect,0.4642295186512555,0,valid_lose,135.78540990000056,12,,,,,,,,,,,,,,,sub_442,2023-09-11_09h38.37.328,Reversal,2023.1.3,59.913281516226775,2,
2,exp1.png,exp2.png,,1,0,1,0,0,2,2,2,,,,,,,,,,,,,,,,,,,,,,,,,False,22,23,False,exp1.png,exp2.png,trial_left_image,1,exp1.png,2,exp1.png,exp2.png,1,1,non-reversed,correct,0.1404712189386036,0,invalid_lose,140.20088540000052,12,,,,,,,,,,,,,,,sub_442,2023-09-11_09h38.37.328,Reversal,2023.1.3,59.913281516226775,2,
3,exp3.png,exp4.png,,1,0,1,0,0,3,3,3,,,,,,,,,,,,,,,,,,,,,,,,,False,23,24,True,exp4.png,exp3.png,trial_right_image,-1,exp3.png,2,exp3.png,exp4.png,1,3,reversed,correct,0.06997748349492106,0,invalid_lose,145.1323207000005,12,,,,,,,,,,,,,,,sub_442,2023-09-11_09h38.37.328,Reversal,2023.1.3,59.913281516226775,2,
4,exp1.png,exp2.png,,1,0,1,0,0,4,4,4,,,,,,,,,,,,,,,,,,,,,,,,,False,24,25,True,exp2.png,exp1.png,trial_right_image,-1,exp1.png,2,exp1.png,exp2.png,1,1,non-reversed,correct,0.16568100494635052,0,invalid_lose,149.73123040000064,12,,,,,,,,,,,,,,,sub_442,2023-09-11_09h38.37.328,Reversal,2023.1.3,59.913281516226775,2,
5,exp3.png,exp4.png,,1,0,1,0,0,5,5,5,,,,,,,,,,,,,,,,,,,,,,,,,False,25,26,False,exp3.png,exp4.png,trial_right_image,-1,exp4.png,2,exp3.png,exp4.png,0,4,reversed,incorrect,0.23857083872229312,1,invalid_win,155.81201650000003,13,,,,,,,,,,,,,,,sub_442,2023-09-11_09h38.37.328,Reversal,2023.1.3,59.913281516226775,2,
6,exp1.png,exp2.png,,1,0,1,0,0,6,6,6,,,,,,,,,,,,,,,,,,,,,,,,,False,26,27,False,exp1.png,exp2.png,trial_right_image,-1,exp2.png,2,exp1.png,exp2.png,0,2,non-reversed,incorrect,0.9396606228110834,0,valid_lose,160.11039690000052,13,,,,,,,,,,,,,,,sub_442,2023-09-11_09h38.37.328,Reversal,2023.1.3,59.913281516226775,2,
7,exp3.png,exp4.png,,1,0,1,0,0,7,7,7,,,,,,,,,,,,,,,,,,,,,,,,,False,27,28,True,exp4.png,exp3.png,trial_left_image,1,exp4.png,2,exp3.png,exp4.png,0,4,reversed,incorrect,0.6917288185227513,0,valid_lose,164.97537009999996,13,,,,,,,,,,,,,,,sub_442,2023-09-11_09h38.37.328,Reversal,2023.1.3,59.913281516226775,2,
8,exp1.png,exp2.png,,1,0,1,0,0,8,8,8,,,,,,,,,,,,,,,,,,,,,,,,,False,28,29,True,exp2.png,exp1.png,trial_left_image,1,exp2.png,2,exp1.png,exp2.png,0,2,non-reversed,incorrect,0.3618100595729653,0,valid_lose,171.78979359999994,13,,,,,,,,,,,,,,,sub_442,2023-09-11_09h38.37.328,Reversal,2023.1.3,59.913281516226775,2,
9,exp3.png,exp4.png,,1,0,1,0,0,9,9,9,,,,,,,,,,,,,,,,,,,,,,,,,False,29,30,True,exp4.png,exp3.png,trial_left_image,1,exp4.png,2,exp3.png,exp4.png,0,4,reversed,incorrect,0.10995271034306964,1,invalid_win,177.98812309999994,14,,,,,,,,,,,,,,,sub_442,2023-09-11_09h38.37.328,Reversal,2023.1.3,59.913281516226775,2,
10,exp1.png,exp2.png,,1,0,1,0,0,10,10,10,,,,,,,,,,,,,,,,,,,,,,,,,False,30,31,True,exp2.png,exp1.png,trial_right_image,-1,exp1.png,2,exp1.png,exp2.png,1,1,non-reversed,correct,0.8060219439307623,1,valid_win,182.56976699999996,15,,,,,,,,,,,,,,,sub_442,2023-09-11_09h38.37.328,Reversal,2023.1.3,59.913281516226775,2,
11,exp3.png,exp4.png,,1,0,1,0,0,11,11,11,,,,,,,,,,,,,,,,,,,,,,,,,False,31,32,False,exp3.png,exp4.png,trial_right_image,-1,exp4.png,2,exp3.png,exp4.png,0,4,reversed,incorrect,0.7674192037189727,0,valid_lose,187.1688997000001,15,,,,,,,,,,,,,,,sub_442,2023-09-11_09h38.37.328,Reversal,2023.1.3,59.913281516226775,2,
12,exp1.png,exp2.png,,1,0,1,0,0,12,12,12,,,,,,,,,,,,,,,,,,,,,,,,,False,32,33,False,exp1.png,exp2.png,trial_left_image,1,exp1.png,2,exp1.png,exp2.png,1,1,non-reversed,correct,0.5909507933585687,1,valid_win,191.9167264000007,16,,,,,,,,,,,,,,,sub_442,2023-09-11_09h38.37.328,Reversal,2023.1.3,59.913281516226775,2,
13,exp3.png,exp4.png,,1,0,1,0,0,13,13,13,,,,,,,,,,,,,,,,,,,,,,,,,False,33,34,True,exp4.png,exp3.png,trial_right_image,-1,exp3.png,2,exp3.png,exp4.png,1,3,reversed,correct,0.8207311553757011,1,valid_win,197.44813630000044,17,,,,,,,,,,,,,,,sub_442,2023-09-11_09h38.37.328,Reversal,2023.1.3,59.913281516226775,2,
14,exp1.png,exp2.png,,1,0,1,0,0,14,14,14,,,,,,,,,,,,,,,,,,,,,,,,,False,34,35,False,exp1.png,exp2.png,trial_left_image,1,exp1.png,2,exp1.png,exp2.png,1,1,non-reversed,correct,0.1477442321122353,0,invalid_lose,202.78061570000045,17,,,,,,,,,,,,,,,sub_442,2023-09-11_09h38.37.328,Reversal,2023.1.3,59.913281516226775,2,
15,exp3.png,exp4.png,,1,0,1,0,0,15,15,15,,,,,,,,,,,,,,,,,,,,,,,,,False,35,36,False,exp3.png,exp4.png,trial_right_image,-1,exp4.png,2,exp3.png,exp4.png,0,4,reversed,incorrect,0.7691124122748016,0,valid_lose,207.6275811000005,17,,,,,,,,,,,,,,,sub_442,2023-09-11_09h38.37.328,Reversal,2023.1.3,59.913281516226775,2,
16,exp1.png,exp2.png,,1,0,1,0,0,16,16,16,,,,,,,,,,,,,,,,,,,,,,,,,False,36,37,False,exp1.png,exp2.png,trial_left_image,1,exp1.png,2,exp1.png,exp2.png,1,1,non-reversed,correct,0.21551635496823562,0,invalid_lose,212.89289290000033,17,,,,,,,,,,,,,,,sub_442,2023-09-11_09h38.37.328,Reversal,2023.1.3,59.913281516226775,2,
17,exp3.png,exp4.png,,1,0,1,0,0,17,17,17,,,,,,,,,,,,,,,,,,,,,,,,,False,37,38,False,exp3.png,exp4.png,trial_right_image,-1,exp4.png,2,exp3.png,exp4.png,0,4,reversed,incorrect,0.17607049914267558,1,invalid_win,217.47426730000007,18,,,,,,,,,,,,,,,sub_442,2023-09-11_09h38.37.328,Reversal,2023.1.3,59.913281516226775,2,
18,exp1.png,exp2.png,,1,0,1,0,0,18,18,18,,,,,,,,,,,,,,,,,,,,,,,,,False,38,39,True,exp2.png,exp1.png,trial_right_image,-1,exp1.png,2,exp1.png,exp2.png,1,1,non-reversed,correct,0.5376642426478129,1,valid_win,221.49004839999998,19,,,,,,,,,,,,,,,sub_442,2023-09-11_09h38.37.328,Reversal,2023.1.3,59.913281516226775,2,
19,exp3.png,exp4.png,,1,0,1,0,0,19,19,19,,,,,,,,,,,,,,,,,,,,,,,,,False,39,40,False,exp3.png,exp4.png,trial_right_image,-1,exp4.png,2,exp3.png,exp4.png,0,4,reversed,incorrect,0.6745285524572735,0,valid_lose,226.788098,19,,,,,,,,,,,,,,,sub_442,2023-09-11_09h38.37.328,Reversal,2023.1.3,59.913281516226775,2,
20,exp1.png,exp2.png,,1,0,1,0,0,20,20,20,,,,,,,,,,,,,,,,,,,,,,,,,True,,,,,,,,,,,,,,,,,,,,,,,,,,,,,,,,,,,sub_442,2023-09-11_09h38.37.328,Reversal,2023.1.3,59.913281516226775,2,
,,,exp1.png,1,0,1,0,,,,,0,0,0,0,0,0,0,0,,,,,,,,,,,,,,,,,,,,,,,,,,,,,,,,,,,,,,392.59623779999947,100.0,100.0,6.330460099999982,"[(100.0, 6.330460099999982)]",,,,,,,,,,sub_442,2023-09-11_09h38.37.328,Reversal,2023.1.3,59.913281516226775,2,
,,,exp2.png,1,0,1,0,,,,,0,0,0,0,0,1,1,1,,,,,,,,,,,,,,,,,,,,,,,,,,,,,,,,,,,,,,400.0267527999995,,1.0,5.44206529999974,"[(100.0, 2.81010569999944), (11.0, 4.210368099999869), (1.0, 5.44206529999974)]",,,1.0,,,,,,,sub_442,2023-09-11_09h38.37.328,Reversal,2023.1.3,59.913281516226775,2,
,,,exp3.png,1,0,1,0,,,,,0,0,0,0,0,2,2,2,,,,,,,,,,,,,,,,,,,,,,,,,,,,,,,,,,,,,,406.5943126000002,,92.0,2.7946439999996073,"[(92.0, 2.7946439999996073)]",92.0,,,,,,,,,sub_442,2023-09-11_09h38.37.328,Reversal,2023.1.3,59.913281516226775,2,
,,,exp4.png,1,0,1,0,,,,,0,0,0,0,0,3,3,3,,,,,,,,,,,,,,,,,,,,,,,,,,,,,,,,,,,,,,410.3744686,,1.0,2.9254621999998562,"[(100.0, 1.710180400000354), (1.0, 2.9254621999998562)]",,1.0,,,,,,,,sub_442,2023-09-11_09h38.37.328,Reversal,2023.1.3,59.913281516226775,2,
0,exp1.png,exp2.png,,2,0,2,0,0,0,0,0,,,,,,,,,,,,,,,,,,,,,,,,,False,40,41,False,exp1.png,exp2.png,trial_right_image,-1,exp2.png,2,exp1.png,exp2.png,0,2,non-reversed,incorrect,0.5193573195919423,0,valid_lose,255.24517560000004,19,,,,,,,,,,,,,,,sub_442,2023-09-11_09h38.37.328,Reversal,2023.1.3,59.913281516226775,2,
1,exp3.png,exp4.png,,2,0,2,0,0,1,1,1,,,,,,,,,,,,,,,,,,,,,,,,,False,41,42,True,exp4.png,exp3.png,trial_right_image,-1,exp3.png,2,exp3.png,exp4.png,1,3,reversed,correct,0.8724691200585415,1,valid_win,261.4934578000002,20,,,,,,,,,,,,,,,sub_442,2023-09-11_09h38.37.328,Reversal,2023.1.3,59.913281516226775,2,
2,exp1.png,exp2.png,,2,0,2,0,0,2,2,2,,,,,,,,,,,,,,,,,,,,,,,,,False,42,43,False,exp1.png,exp2.png,trial_left_image,1,exp1.png,2,exp1.png,exp2.png,1,1,non-reversed,correct,0.8246138416137205,1,valid_win,268.55768570000055,21,,,,,,,,,,,,,,,sub_442,2023-09-11_09h38.37.328,Reversal,2023.1.3,59.913281516226775,2,
3,exp3.png,exp4.png,,2,0,2,0,0,3,3,3,,,,,,,,,,,,,,,,,,,,,,,,,False,43,44,True,exp4.png,exp3.png,trial_left_image,1,exp4.png,2,exp3.png,exp4.png,0,4,reversed,incorrect,0.6427572453576488,0,valid_lose,276.52152490000026,21,,,,,,,,,,,,,,,sub_442,2023-09-11_09h38.37.328,Reversal,2023.1.3,59.913281516226775,2,
4,exp1.png,exp2.png,,2,0,2,0,0,4,4,4,,,,,,,,,,,,,,,,,,,,,,,,,False,44,45,False,exp1.png,exp2.png,trial_left_image,1,exp1.png,2,exp1.png,exp2.png,1,1,non-reversed,correct,0.39797794422021404,1,valid_win,281.18665750000036,22,,,,,,,,,,,,,,,sub_442,2023-09-11_09h38.37.328,Reversal,2023.1.3,59.913281516226775,2,
5,exp3.png,exp4.png,,2,0,2,0,0,5,5,5,,,,,,,,,,,,,,,,,,,,,,,,,False,45,46,True,exp4.png,exp3.png,trial_right_image,-1,exp3.png,2,exp3.png,exp4.png,1,3,reversed,correct,0.5622180148267368,1,valid_win,287.2842739000007,23,,,,,,,,,,,,,,,sub_442,2023-09-11_09h38.37.328,Reversal,2023.1.3,59.913281516226775,2,
6,exp1.png,exp2.png,,2,0,2,0,0,6,6,6,,,,,,,,,,,,,,,,,,,,,,,,,False,46,47,True,exp2.png,exp1.png,trial_right_image,-1,exp1.png,2,exp1.png,exp2.png,1,1,non-reversed,correct,0.6412264861989112,1,valid_win,292.33246970000073,24,,,,,,,,,,,,,,,sub_442,2023-09-11_09h38.37.328,Reversal,2023.1.3,59.913281516226775,2,
7,exp3.png,exp4.png,,2,0,2,0,0,7,7,7,,,,,,,,,,,,,,,,,,,,,,,,,False,47,48,True,exp4.png,exp3.png,trial_left_image,1,exp4.png,2,exp3.png,exp4.png,0,4,reversed,incorrect,0.8865445935126356,0,valid_lose,297.79757900000004,24,,,,,,,,,,,,,,,sub_442,2023-09-11_09h38.37.328,Reversal,2023.1.3,59.913281516226775,2,
8,exp1.png,exp2.png,,2,0,2,0,0,8,8,8,,,,,,,,,,,,,,,,,,,,,,,,,False,48,49,True,exp2.png,exp1.png,trial_right_image,-1,exp1.png,2,exp1.png,exp2.png,1,1,non-reversed,correct,0.6724873795899653,1,valid_win,302.2965272000001,25,,,,,,,,,,,,,,,sub_442,2023-09-11_09h38.37.328,Reversal,2023.1.3,59.913281516226775,2,
9,exp3.png,exp4.png,,2,0,2,0,0,9,9,9,,,,,,,,,,,,,,,,,,,,,,,,,False,49,50,False,exp3.png,exp4.png,trial_left_image,1,exp3.png,2,exp3.png,exp4.png,1,3,reversed,correct,0.5747239353461896,1,valid_win,308.3773600000004,26,,,,,,,,,,,,,,,sub_442,2023-09-11_09h38.37.328,Reversal,2023.1.3,59.913281516226775,2,
10,exp1.png,exp2.png,,2,0,2,0,0,10,10,10,,,,,,,,,,,,,,,,,,,,,,,,,False,50,51,True,exp2.png,exp1.png,trial_right_image,-1,exp1.png,2,exp1.png,exp2.png,1,1,non-reversed,correct,0.7730136245124589,1,valid_win,312.7262000999999,27,,,,,,,,,,,,,,,sub_442,2023-09-11_09h38.37.328,Reversal,2023.1.3,59.913281516226775,2,
11,exp3.png,exp4.png,,2,0,2,0,0,11,11,11,,,,,,,,,,,,,,,,,,,,,,,,,False,51,52,False,exp3.png,exp4.png,trial_right_image,-1,exp4.png,2,exp3.png,exp4.png,0,4,reversed,incorrect,0.1901613322192326,1,invalid_win,317.3244706000005,28,,,,,,,,,,,,,,,sub_442,2023-09-11_09h38.37.328,Reversal,2023.1.3,59.913281516226775,2,
12,exp1.png,exp2.png,,2,0,2,0,0,12,12,12,,,,,,,,,,,,,,,,,,,,,,,,,False,52,53,False,exp1.png,exp2.png,trial_left_image,1,exp1.png,2,exp1.png,exp2.png,1,1,non-reversed,correct,0.4968102882837534,1,valid_win,322.5059458000005,29,,,,,,,,,,,,,,,sub_442,2023-09-11_09h38.37.328,Reversal,2023.1.3,59.913281516226775,2,
13,exp3.png,exp4.png,,2,0,2,0,0,13,13,13,,,,,,,,,,,,,,,,,,,,,,,,,False,53,54,True,exp4.png,exp3.png,trial_right_image,-1,exp3.png,2,exp3.png,exp4.png,1,3,reversed,correct,0.27479235800201574,1,valid_win,327.58757479999986,30,,,,,,,,,,,,,,,sub_442,2023-09-11_09h38.37.328,Reversal,2023.1.3,59.913281516226775,2,
14,exp1.png,exp2.png,,2,0,2,0,0,14,14,14,,,,,,,,,,,,,,,,,,,,,,,,,False,54,55,False,exp1.png,exp2.png,trial_left_image,1,exp1.png,2,exp1.png,exp2.png,1,1,non-reversed,correct,0.17498658763511443,0,invalid_lose,331.88656400000036,30,,,,,,,,,,,,,,,sub_442,2023-09-11_09h38.37.328,Reversal,2023.1.3,59.913281516226775,2,
15,exp3.png,exp4.png,,2,0,2,0,0,15,15,15,,,,,,,,,,,,,,,,,,,,,,,,,False,55,56,False,exp3.png,exp4.png,trial_right_image,-1,exp4.png,2,exp3.png,exp4.png,0,4,reversed,incorrect,0.025879284991593754,1,invalid_win,335.78481079999983,31,,,,,,,,,,,,,,,sub_442,2023-09-11_09h38.37.328,Reversal,2023.1.3,59.913281516226775,2,
16,exp1.png,exp2.png,,2,0,2,0,0,16,16,16,,,,,,,,,,,,,,,,,,,,,,,,,False,56,57,True,exp2.png,exp1.png,trial_right_image,-1,exp1.png,2,exp1.png,exp2.png,1,1,non-reversed,correct,0.4866215604231797,1,valid_win,339.9667411999999,32,,,,,,,,,,,,,,,sub_442,2023-09-11_09h38.37.328,Reversal,2023.1.3,59.913281516226775,2,
17,exp3.png,exp4.png,,2,0,2,0,0,17,17,17,,,,,,,,,,,,,,,,,,,,,,,,,False,57,58,True,exp4.png,exp3.png,trial_right_image,-1,exp3.png,2,exp3.png,exp4.png,1,3,reversed,correct,0.753046741483407,1,valid_win,343.86508440000034,33,,,,,,,,,,,,,,,sub_442,2023-09-11_09h38.37.328,Reversal,2023.1.3,59.913281516226775,2,
18,exp1.png,exp2.png,,2,0,2,0,0,18,18,18,,,,,,,,,,,,,,,,,,,,,,,,,False,58,59,False,exp1.png,exp2.png,trial_right_image,-1,exp2.png,2,exp1.png,exp2.png,0,2,non-reversed,incorrect,0.01066326253018346,1,invalid_win,347.81382570000005,34,,,,,,,,,,,,,,,sub_442,2023-09-11_09h38.37.328,Reversal,2023.1.3,59.913281516226775,2,
19,exp3.png,exp4.png,,2,0,2,0,0,19,19,19,,,,,,,,,,,,,,,,,,,,,,,,,False,59,60,False,exp3.png,exp4.png,trial_right_image,-1,exp4.png,2,exp3.png,exp4.png,0,4,reversed,incorrect,0.7217537656375048,0,valid_lose,351.84576090000064,34,,,,,,,,,,,,,,,sub_442,2023-09-11_09h38.37.328,Reversal,2023.1.3,59.913281516226775,2,
20,exp1.png,exp2.png,,2,0,2,0,0,20,20,20,,,,,,,,,,,,,,,,,,,,,,,,,True,,,,,,,,,,,,,,,,,,,,,,,,,,,,,,,,,,,sub_442,2023-09-11_09h38.37.328,Reversal,2023.1.3,59.913281516226775,2,
,,,exp1.png,2,0,2,0,,,,,0,0,0,0,0,0,0,0,,,,,,,,,,,,,,,,,,,,,,,,,,,,,,,,,,,,,,517.6520824999998,97.0,97.0,2.4189499000003707,"[(97.0, 2.4189499000003707)]",,,,,,,,,,sub_442,2023-09-11_09h38.37.328,Reversal,2023.1.3,59.913281516226775,2,
,,,exp2.png,2,0,2,0,,,,,0,0,0,0,0,1,1,1,,,,,,,,,,,,,,,,,,,,,,,,,,,,,,,,,,,,,,521.1345879999999,,97.0,1.4613681000000724,"[(97.0, 1.4613681000000724)]",,,97.0,,,,,,,sub_442,2023-09-11_09h38.37.328,Reversal,2023.1.3,59.913281516226775,2,
,,,exp3.png,2,0,2,0,,,,,0,0,0,0,0,2,2,2,,,,,,,,,,,,,,,,,,,,,,,,,,,,,,,,,,,,,,523.8026555999995,,2.0,1.6594198000002507,"[(2.0, 1.6594198000002507)]",2.0,,,,,,,,,sub_442,2023-09-11_09h38.37.328,Reversal,2023.1.3,59.913281516226775,2,
,,,exp4.png,2,0,2,0,,,,,0,0,0,0,0,3,3,3,,,,,,,,,,,,,,,,,,,,,,,,,,,,,,,,,,,,,,526.5665465000002,,1.0,1.9278198000001794,"[(1.0, 1.9278198000001794)]",,1.0,,,,,,,,sub_442,2023-09-11_09h38.37.328,Reversal,2023.1.3,59.913281516226775,2,
0,exp1.png,exp2.png,,3,0,3,0,0,0,0,0,,,,,,,,,,,,,,,,,,,,,,,,,False,60,61,True,exp2.png,exp1.png,trial_right_image,-1,exp1.png,2,exp1.png,exp2.png,1,1,non-reversed,correct,0.25181720851915024,1,valid_win,372.8725223000001,35,,,,,,,,,,,,,,,sub_442,2023-09-11_09h38.37.328,Reversal,2023.1.3,59.913281516226775,2,
1,exp3.png,exp4.png,,3,0,3,0,0,1,1,1,,,,,,,,,,,,,,,,,,,,,,,,,False,61,62,False,exp3.png,exp4.png,trial_right_image,-1,exp4.png,2,exp3.png,exp4.png,0,4,reversed,incorrect,0.35786823467785356,0,valid_lose,379.170024,35,,,,,,,,,,,,,,,sub_442,2023-09-11_09h38.37.328,Reversal,2023.1.3,59.913281516226775,2,
2,exp1.png,exp2.png,,3,0,3,0,0,2,2,2,,,,,,,,,,,,,,,,,,,,,,,,,False,62,63,True,exp2.png,exp1.png,trial_right_image,-1,exp1.png,2,exp1.png,exp2.png,1,1,non-reversed,correct,0.794572667467098,1,valid_win,383.31863390000035,36,,,,,,,,,,,,,,,sub_442,2023-09-11_09h38.37.328,Reversal,2023.1.3,59.913281516226775,2,
3,exp3.png,exp4.png,,3,0,3,0,0,3,3,3,,,,,,,,,,,,,,,,,,,,,,,,,False,63,64,True,exp4.png,exp3.png,trial_right_image,-1,exp3.png,2,exp3.png,exp4.png,1,3,reversed,correct,0.7728070883310879,1,valid_win,387.2842778000004,37,,,,,,,,,,,,,,,sub_442,2023-09-11_09h38.37.328,Reversal,2023.1.3,59.913281516226775,2,
4,exp1.png,exp2.png,,3,0,3,0,0,4,4,4,,,,,,,,,,,,,,,,,,,,,,,,,False,64,65,False,exp1.png,exp2.png,trial_right_image,-1,exp2.png,2,exp1.png,exp2.png,0,2,non-reversed,incorrect,0.5024524890064188,0,valid_lose,392.1992327000007,37,,,,,,,,,,,,,,,sub_442,2023-09-11_09h38.37.328,Reversal,2023.1.3,59.913281516226775,2,
5,exp3.png,exp4.png,,3,0,3,0,0,5,5,5,,,,,,,,,,,,,,,,,,,,,,,,,False,65,66,False,exp3.png,exp4.png,trial_left_image,1,exp3.png,2,exp3.png,exp4.png,1,3,reversed,correct,0.7086088956101703,1,valid_win,396.34816300000057,38,,,,,,,,,,,,,,,sub_442,2023-09-11_09h38.37.328,Reversal,2023.1.3,59.913281516226775,2,
6,exp1.png,exp2.png,,3,0,3,0,0,6,6,6,,,,,,,,,,,,,,,,,,,,,,,,,False,66,67,False,exp1.png,exp2.png,trial_left_image,1,exp1.png,2,exp1.png,exp2.png,1,1,non-reversed,correct,0.27099346166736304,1,valid_win,400.4133292000006,39,,,,,,,,,,,,,,,sub_442,2023-09-11_09h38.37.328,Reversal,2023.1.3,59.913281516226775,2,
7,exp3.png,exp4.png,,3,0,3,0,0,7,7,7,,,,,,,,,,,,,,,,,,,,,,,,,False,67,68,False,exp3.png,exp4.png,trial_left_image,1,exp3.png,2,exp3.png,exp4.png,1,3,reversed,correct,0.061921385496395365,0,invalid_lose,404.4616470000001,39,,,,,,,,,,,,,,,sub_442,2023-09-11_09h38.37.328,Reversal,2023.1.3,59.913281516226775,2,
8,exp1.png,exp2.png,,3,0,3,0,0,8,8,8,,,,,,,,,,,,,,,,,,,,,,,,,False,68,69,False,exp1.png,exp2.png,trial_right_image,-1,exp2.png,2,exp1.png,exp2.png,0,2,non-reversed,incorrect,0.057733366914024975,1,invalid_win,408.39337460000024,40,,,,,,,,,,,,,,,sub_442,2023-09-11_09h38.37.328,Reversal,2023.1.3,59.913281516226775,2,
9,exp3.png,exp4.png,,3,0,3,0,0,9,9,9,,,,,,,,,,,,,,,,,,,,,,,,,False,69,70,True,exp4.png,exp3.png,trial_right_image,-1,exp3.png,2,exp3.png,exp4.png,1,3,reversed,correct,0.9715355048187033,1,valid_win,412.3086551000006,41,,,,,,,,,,,,,,,sub_442,2023-09-11_09h38.37.328,Reversal,2023.1.3,59.913281516226775,2,
10,exp1.png,exp2.png,,3,0,3,0,0,10,10,10,,,,,,,,,,,,,,,,,,,,,,,,,False,70,71,True,exp2.png,exp1.png,trial_right_image,-1,exp1.png,2,exp1.png,exp2.png,1,1,non-reversed,correct,0.2283709030957014,0,invalid_lose,416.24067640000067,41,,,,,,,,,,,,,,,sub_442,2023-09-11_09h38.37.328,Reversal,2023.1.3,59.913281516226775,2,
11,exp3.png,exp4.png,,3,0,3,0,0,11,11,11,,,,,,,,,,,,,,,,,,,,,,,,,False,71,72,False,exp3.png,exp4.png,trial_right_image,-1,exp4.png,2,exp3.png,exp4.png,0,4,reversed,incorrect,0.18332853333157806,1,invalid_win,420.58945200000016,42,,,,,,,,,,,,,,,sub_442,2023-09-11_09h38.37.328,Reversal,2023.1.3,59.913281516226775,2,
12,exp1.png,exp2.png,,3,0,3,0,0,12,12,12,,,,,,,,,,,,,,,,,,,,,,,,,False,72,73,True,exp2.png,exp1.png,trial_right_image,-1,exp1.png,2,exp1.png,exp2.png,1,1,non-reversed,correct,0.9738347898322234,1,valid_win,424.50468009999986,43,,,,,,,,,,,,,,,sub_442,2023-09-11_09h38.37.328,Reversal,2023.1.3,59.913281516226775,2,
13,exp3.png,exp4.png,,3,0,3,0,0,13,13,13,,,,,,,,,,,,,,,,,,,,,,,,,False,73,74,True,exp4.png,exp3.png,trial_right_image,-1,exp3.png,2,exp3.png,exp4.png,1,3,reversed,correct,0.4512841756005387,1,valid_win,428.67024279999987,44,,,,,,,,,,,,,,,sub_442,2023-09-11_09h38.37.328,Reversal,2023.1.3,59.913281516226775,2,
14,exp1.png,exp2.png,,3,0,3,0,0,14,14,14,,,,,,,,,,,,,,,,,,,,,,,,,False,74,75,True,exp2.png,exp1.png,trial_right_image,-1,exp1.png,2,exp1.png,exp2.png,1,1,non-reversed,correct,0.9684644439037065,1,valid_win,432.5187824000004,45,,,,,,,,,,,,,,,sub_442,2023-09-11_09h38.37.328,Reversal,2023.1.3,59.913281516226775,2,
15,exp3.png,exp4.png,,3,0,3,0,0,15,15,15,,,,,,,,,,,,,,,,,,,,,,,,,False,75,76,False,exp3.png,exp4.png,trial_right_image,-1,exp4.png,2,exp3.png,exp4.png,0,4,reversed,incorrect,0.6083156592413199,0,valid_lose,436.4175984000003,45,,,,,,,,,,,,,,,sub_442,2023-09-11_09h38.37.328,Reversal,2023.1.3,59.913281516226775,2,
16,exp1.png,exp2.png,,3,0,3,0,0,16,16,16,,,,,,,,,,,,,,,,,,,,,,,,,False,76,77,False,exp1.png,exp2.png,trial_right_image,-1,exp2.png,2,exp1.png,exp2.png,0,2,non-reversed,incorrect,0.8301922245225495,0,valid_lose,440.21634150000045,45,,,,,,,,,,,,,,,sub_442,2023-09-11_09h38.37.328,Reversal,2023.1.3,59.913281516226775,2,
17,exp3.png,exp4.png,,3,0,3,0,0,17,17,17,,,,,,,,,,,,,,,,,,,,,,,,,False,77,78,True,exp4.png,exp3.png,trial_right_image,-1,exp3.png,2,exp3.png,exp4.png,1,3,reversed,correct,0.07993711057148556,0,invalid_lose,444.04832890000034,45,,,,,,,,,,,,,,,sub_442,2023-09-11_09h38.37.328,Reversal,2023.1.3,59.913281516226775,2,
18,exp1.png,exp2.png,,3,0,3,0,0,18,18,18,,,,,,,,,,,,,,,,,,,,,,,,,False,78,79,True,exp2.png,exp1.png,trial_right_image,-1,exp1.png,2,exp1.png,exp2.png,1,1,non-reversed,correct,0.04924107361448826,0,invalid_lose,447.8970388000007,45,,,,,,,,,,,,,,,sub_442,2023-09-11_09h38.37.328,Reversal,2023.1.3,59.913281516226775,2,
19,exp3.png,exp4.png,,3,0,3,0,0,19,19,19,,,,,,,,,,,,,,,,,,,,,,,,,False,79,80,False,exp3.png,exp4.png,trial_left_image,1,exp3.png,2,exp3.png,exp4.png,1,3,reversed,correct,0.8775200410247922,1,valid_win,452.17888050000056,46,,,,,,,,,,,,,,,sub_442,2023-09-11_09h38.37.328,Reversal,2023.1.3,59.913281516226775,2,
20,exp1.png,exp2.png,,3,0,3,0,0,20,20,20,,,,,,,,,,,,,,,,,,,,,,,,,True,,,,,,,,,,,,,,,,,,,,,,,,,,,,,,,,,,,sub_442,2023-09-11_09h38.37.328,Reversal,2023.1.3,59.913281516226775,2,
,,,exp1.png,3,0,3,0,,,,,0,0,0,0,0,0,0,0,,,,,,,,,,,,,,,,,,,,,,,,,,,,,,,,,,,,,,617.9995333999996,100.0,100.0,1.8721796999998332,"[(100.0, 1.8721796999998332)]",,,,,,,,,,sub_442,2023-09-11_09h38.37.328,Reversal,2023.1.3,59.913281516226775,2,
,,,exp2.png,3,0,3,0,,,,,0,0,0,0,0,1,1,1,,,,,,,,,,,,,,,,,,,,,,,,,,,,,,,,,,,,,,620.8681864999999,,1.0,1.6116683999998713,"[(1.0, 1.6116683999998713)]",,,1.0,,,,,,,sub_442,2023-09-11_09h38.37.328,Reversal,2023.1.3,59.913281516226775,2,
,,,exp3.png,3,0,3,0,,,,,0,0,0,0,0,2,2,2,,,,,,,,,,,,,,,,,,,,,,,,,,,,,,,,,,,,,,623.5833027999997,,100.0,2.9444634999999835,"[(89.0, 2.078047500000139), (100.0, 2.9444634999999835)]",100.0,,,,,,,,,sub_442,2023-09-11_09h38.37.328,Reversal,2023.1.3,59.913281516226775,2,
,,,exp4.png,3,0,3,0,,,,,0,0,0,0,0,3,3,3,,,,,,,,,,,,,,,,,,,,,,,,,,,,,,,,,,,,,,627.7855826999994,,100.0,1.3603773000004367,"[(100.0, 1.3603773000004367)]",,100.0,,,,,,,,sub_442,2023-09-11_09h38.37.328,Reversal,2023.1.3,59.913281516226775,2,
0,exp1.png,exp2.png,,,,,,,,,,,,,,,,,,0,0,0,0,0,0,0,0,,,,,,,,,False,0,81,False,exp1.png,exp2.png,trial_left_image,1,exp1.png,2,exp1.png,exp2.png,1,1,non-reversed,correct,0.06679311697091872,0,invalid_lose,469.2561185000004,46,,,,,,,,,466.8674325000002,,,,,,sub_442,2023-09-11_09h38.37.328,Reversal,2023.1.3,59.913281516226775,2,
1,exp3.png,exp4.png,,,,,,,,,,,,,,,,,,0,0,0,0,0,1,1,1,,,,,,,,,False,1,82,False,exp3.png,exp4.png,trial_right_image,-1,exp4.png,2,exp4.png,exp3.png,0,4,reversed,correct,0.29280939221381186,1,valid_win,473.80497710000054,47,,,,,,,,,,,,,,,sub_442,2023-09-11_09h38.37.328,Reversal,2023.1.3,59.913281516226775,2,
2,exp1.png,exp2.png,,,,,,,,,,,,,,,,,,0,0,0,0,0,2,2,2,,,,,,,,,False,2,83,True,exp2.png,exp1.png,trial_right_image,-1,exp1.png,2,exp1.png,exp2.png,1,1,non-reversed,correct,0.992796769071146,1,valid_win,477.90365660000043,48,,,,,,,,,,,,,,,sub_442,2023-09-11_09h38.37.328,Reversal,2023.1.3,59.913281516226775,2,
3,exp3.png,exp4.png,,,,,,,,,,,,,,,,,,0,0,0,0,0,3,3,3,,,,,,,,,False,3,84,True,exp4.png,exp3.png,trial_right_image,-1,exp3.png,2,exp4.png,exp3.png,1,3,reversed,incorrect,0.18350126819792112,1,invalid_win,482.4185430000007,49,,,,,,,,,,,,,,,sub_442,2023-09-11_09h38.37.328,Reversal,2023.1.3,59.913281516226775,2,
4,exp1.png,exp2.png,,,,,,,,,,,,,,,,,,0,0,0,0,0,4,4,4,,,,,,,,,False,4,85,True,exp2.png,exp1.png,trial_right_image,-1,exp1.png,2,exp1.png,exp2.png,1,1,non-reversed,correct,0.7754109708033198,1,valid_win,486.6837430000005,50,,,,,,,,,,,,,,,sub_442,2023-09-11_09h38.37.328,Reversal,2023.1.3,59.913281516226775,2,
5,exp3.png,exp4.png,,,,,,,,,,,,,,,,,,0,0,0,0,0,5,5,5,,,,,,,,,False,5,86,True,exp4.png,exp3.png,trial_right_image,-1,exp3.png,2,exp4.png,exp3.png,1,3,reversed,incorrect,0.6893987438977562,0,valid_lose,491.1986665000004,50,,,,,,,,,,,,,,,sub_442,2023-09-11_09h38.37.328,Reversal,2023.1.3,59.913281516226775,2,
6,exp1.png,exp2.png,,,,,,,,,,,,,,,,,,0,0,0,0,0,6,6,6,,,,,,,,,False,6,87,False,exp1.png,exp2.png,trial_left_image,1,exp1.png,2,exp1.png,exp2.png,1,1,non-reversed,correct,0.753383401747319,1,valid_win,495.08111220000046,51,,,,,,,,,,,,,,,sub_442,2023-09-11_09h38.37.328,Reversal,2023.1.3,59.913281516226775,2,
7,exp3.png,exp4.png,,,,,,,,,,,,,,,,,,0,0,0,0,0,7,7,7,,,,,,,,,False,7,88,False,exp3.png,exp4.png,trial_left_image,1,exp3.png,2,exp4.png,exp3.png,1,3,reversed,incorrect,0.31605638061821817,0,valid_lose,499.36355840000033,51,,,,,,,,,,,,,,,sub_442,2023-09-11_09h38.37.328,Reversal,2023.1.3,59.913281516226775,2,
8,exp1.png,exp2.png,,,,,,,,,,,,,,,,,,0,0,0,0,0,8,8,8,,,,,,,,,False,8,89,True,exp2.png,exp1.png,trial_right_image,-1,exp1.png,2,exp1.png,exp2.png,1,1,non-reversed,correct,0.5388401608596466,1,valid_win,503.2787726000006,52,,,,,,,,,,,,,,,sub_442,2023-09-11_09h38.37.328,Reversal,2023.1.3,59.913281516226775,2,
9,exp3.png,exp4.png,,,,,,,,,,,,,,,,,,0,0,0,0,0,9,9,9,,,,,,,,,False,9,90,False,exp3.png,exp4.png,trial_left_image,1,exp3.png,2,exp4.png,exp3.png,1,3,reversed,incorrect,0.6721748268384062,0,valid_lose,509.892597,52,,,,,,,,,,,,,,,sub_442,2023-09-11_09h38.37.328,Reversal,2023.1.3,59.913281516226775,2,
10,exp1.png,exp2.png,,,,,,,,,,,,,,,,,,0,0,0,0,0,10,10,10,,,,,,,,,False,10,91,False,exp1.png,exp2.png,trial_left_image,1,exp1.png,2,exp1.png,exp2.png,1,1,non-reversed,correct,0.25123673941358515,1,valid_win,514.1742537999999,53,,,,,,,,,,,,,,,sub_442,2023-09-11_09h38.37.328,Reversal,2023.1.3,59.913281516226775,2,
11,exp3.png,exp4.png,,,,,,,,,,,,,,,,,,0,0,0,0,0,11,11,11,,,,,,,,,False,11,92,True,exp4.png,exp3.png,trial_right_image,-1,exp3.png,2,exp4.png,exp3.png,1,3,reversed,incorrect,0.1320325694060288,1,invalid_win,519.1394218000005,54,,,,,,,,,,,,,,,sub_442,2023-09-11_09h38.37.328,Reversal,2023.1.3,59.913281516226775,2,
12,exp1.png,exp2.png,,,,,,,,,,,,,,,,,,0,0,0,0,0,12,12,12,,,,,,,,,False,12,93,True,exp2.png,exp1.png,trial_right_image,-1,exp1.png,2,exp1.png,exp2.png,1,1,non-reversed,correct,0.16399335274530857,0,invalid_lose,523.3046533000006,54,,,,,,,,,,,,,,,sub_442,2023-09-11_09h38.37.328,Reversal,2023.1.3,59.913281516226775,2,
13,exp3.png,exp4.png,,,,,,,,,,,,,,,,,,0,0,0,0,0,13,13,13,,,,,,,,,False,13,94,True,exp4.png,exp3.png,trial_left_image,1,exp4.png,2,exp4.png,exp3.png,0,4,reversed,correct,0.7145420880943871,1,valid_win,527.9864401000004,55,,,,,,,,,,,,,,,sub_442,2023-09-11_09h38.37.328,Reversal,2023.1.3,59.913281516226775,2,
14,exp1.png,exp2.png,,,,,,,,,,,,,,,,,,0,0,0,0,0,14,14,14,,,,,,,,,False,14,95,True,exp2.png,exp1.png,trial_right_image,-1,exp1.png,2,exp1.png,exp2.png,1,1,non-reversed,correct,0.0022373204370590427,0,invalid_lose,532.9017672999998,55,,,,,,,,,,,,,,,sub_442,2023-09-11_09h38.37.328,Reversal,2023.1.3,59.913281516226775,2,
15,exp3.png,exp4.png,,,,,,,,,,,,,,,,,,0,0,0,0,0,15,15,15,,,,,,,,,False,15,96,False,exp3.png,exp4.png,trial_left_image,1,exp3.png,2,exp4.png,exp3.png,1,3,reversed,incorrect,0.09173409020296497,1,invalid_win,537.4008362000004,56,,,,,,,,,,,,,,,sub_442,2023-09-11_09h38.37.328,Reversal,2023.1.3,59.913281516226775,2,
16,exp1.png,exp2.png,,,,,,,,,,,,,,,,,,0,0,0,0,0,16,16,16,,,,,,,,,False,16,97,True,exp2.png,exp1.png,trial_left_image,1,exp2.png,2,exp1.png,exp2.png,0,2,non-reversed,incorrect,0.6221987786906884,0,valid_lose,543.1145622000004,56,,,,,,,,,,,,,,,sub_442,2023-09-11_09h38.37.328,Reversal,2023.1.3,59.913281516226775,2,
17,exp3.png,exp4.png,,,,,,,,,,,,,,,,,,0,0,0,0,0,17,17,17,,,,,,,,,False,17,98,False,exp3.png,exp4.png,trial_left_image,1,exp3.png,2,exp4.png,exp3.png,1,3,reversed,incorrect,0.6335118683518828,0,valid_lose,547.6131503000006,56,,,,,,,,,,,,,,,sub_442,2023-09-11_09h38.37.328,Reversal,2023.1.3,59.913281516226775,2,
18,exp1.png,exp2.png,,,,,,,,,,,,,,,,,,0,0,0,0,0,18,18,18,,,,,,,,,False,18,99,False,exp1.png,exp2.png,trial_right_image,-1,exp2.png,2,exp1.png,exp2.png,0,2,non-reversed,incorrect,0.15454837732238014,1,invalid_win,552.1448417000001,57,,,,,,,,,,,,,,,sub_442,2023-09-11_09h38.37.328,Reversal,2023.1.3,59.913281516226775,2,
19,exp3.png,exp4.png,,,,,,,,,,,,,,,,,,0,0,0,0,0,19,19,19,,,,,,,,,False,19,100,False,exp3.png,exp4.png,trial_right_image,-1,exp4.png,2,exp4.png,exp3.png,0,4,reversed,correct,0.5509577898692202,1,valid_win,557.1934070000007,58,,,,,,,,,,,,,,,sub_442,2023-09-11_09h38.37.328,Reversal,2023.1.3,59.913281516226775,2,
20,exp1.png,exp2.png,,,,,,,,,,,,,,,,,,0,0,0,0,0,20,20,20,,,,,,,,,True,,,,,,,,,,,,,,,,,,,,,,,,,,,,,,,,,,,sub_442,2023-09-11_09h38.37.328,Reversal,2023.1.3,59.913281516226775,2,
,,,exp1.png,,,,,,,,,,,,,,,,,0,0,0,0,,,,,0,0,0,0,0,0,0,0,,,,,,,,,,,,,,,,,,,,,,723.0074586000001,1.0,1.0,3.690629799999442,"[(1.0, 3.690629799999442)]",,,,,,,,,,sub_442,2023-09-11_09h38.37.328,Reversal,2023.1.3,59.913281516226775,2,
,,,exp2.png,,,,,,,,,,,,,,,,,0,0,0,0,,,,,0,0,0,0,0,1,1,1,,,,,,,,,,,,,,,,,,,,,,727.8188837999996,,100.0,2.0768060000000332,"[(100.0, 2.0768060000000332)]",,,100.0,,,,,,,sub_442,2023-09-11_09h38.37.328,Reversal,2023.1.3,59.913281516226775,2,
,,,exp3.png,,,,,,,,,,,,,,,,,0,0,0,0,,,,,0,0,0,0,0,2,2,2,,,,,,,,,,,,,,,,,,,,,,730.9146980999994,,1.0,1.6114373000000342,"[(1.0, 1.6114373000000342)]",1.0,,,,,,,,,sub_442,2023-09-11_09h38.37.328,Reversal,2023.1.3,59.913281516226775,2,
,,,exp4.png,,,,,,,,,,,,,,,,,0,0,0,0,,,,,0,0,0,0,0,3,3,3,,,,,,,,,,,,,,,,,,,,,,733.5316950999995,,100.0,1.743649000000005,"[(100.0, 1.743649000000005)]",,100.0,,,,,,,,sub_442,2023-09-11_09h38.37.328,Reversal,2023.1.3,59.913281516226775,2,
0,exp1.png,exp2.png,,,,,,,,,,,,,,,,,,1,0,1,0,0,0,0,0,,,,,,,,,False,20,101,False,exp1.png,exp2.png,trial_right_image,-1,exp2.png,2,exp1.png,exp2.png,0,2,non-reversed,incorrect,0.18761088262503067,1,invalid_win,576.003444,59,,,,,,,,,,,,,,,sub_442,2023-09-11_09h38.37.328,Reversal,2023.1.3,59.913281516226775,2,
1,exp3.png,exp4.png,,,,,,,,,,,,,,,,,,1,0,1,0,0,1,1,1,,,,,,,,,False,21,102,False,exp3.png,exp4.png,trial_left_image,1,exp3.png,2,exp4.png,exp3.png,1,3,reversed,incorrect,0.7266685459833936,0,valid_lose,587.1166551000006,59,,,,,,,,,,,,,,,sub_442,2023-09-11_09h38.37.328,Reversal,2023.1.3,59.913281516226775,2,
2,exp1.png,exp2.png,,,,,,,,,,,,,,,,,,1,0,1,0,0,2,2,2,,,,,,,,,False,22,103,True,exp2.png,exp1.png,trial_right_image,-1,exp1.png,2,exp1.png,exp2.png,1,1,non-reversed,correct,0.7222996915592353,1,valid_win,591.5483609000003,60,,,,,,,,,,,,,,,sub_442,2023-09-11_09h38.37.328,Reversal,2023.1.3,59.913281516226775,2,
3,exp3.png,exp4.png,,,,,,,,,,,,,,,,,,1,0,1,0,0,3,3,3,,,,,,,,,False,23,104,True,exp4.png,exp3.png,trial_left_image,1,exp4.png,2,exp4.png,exp3.png,0,4,reversed,correct,0.25886735201975797,1,valid_win,598.3631114999998,61,,,,,,,,,,,,,,,sub_442,2023-09-11_09h38.37.328,Reversal,2023.1.3,59.913281516226775,2,
4,exp1.png,exp2.png,,,,,,,,,,,,,,,,,,1,0,1,0,0,4,4,4,,,,,,,,,False,24,105,False,exp1.png,exp2.png,trial_left_image,1,exp1.png,2,exp1.png,exp2.png,1,1,non-reversed,correct,0.7445958918392646,1,valid_win,603.5778645999999,62,,,,,,,,,,,,,,,sub_442,2023-09-11_09h38.37.328,Reversal,2023.1.3,59.913281516226775,2,
5,exp3.png,exp4.png,,,,,,,,,,,,,,,,,,1,0,1,0,0,5,5,5,,,,,,,,,False,25,106,False,exp3.png,exp4.png,trial_right_image,-1,exp4.png,2,exp4.png,exp3.png,0,4,reversed,correct,0.5124525948457956,1,valid_win,609.0588364000005,63,,,,,,,,,,,,,,,sub_442,2023-09-11_09h38.37.328,Reversal,2023.1.3,59.913281516226775,2,
6,exp1.png,exp2.png,,,,,,,,,,,,,,,,,,1,0,1,0,0,6,6,6,,,,,,,,,False,26,107,True,exp2.png,exp1.png,trial_right_image,-1,exp1.png,2,exp1.png,exp2.png,1,1,non-reversed,correct,0.9331150576677888,1,valid_win,614.3739300000007,64,,,,,,,,,,,,,,,sub_442,2023-09-11_09h38.37.328,Reversal,2023.1.3,59.913281516226775,2,
7,exp3.png,exp4.png,,,,,,,,,,,,,,,,,,1,0,1,0,0,7,7,7,,,,,,,,,False,27,108,True,exp4.png,exp3.png,trial_right_image,-1,exp3.png,2,exp4.png,exp3.png,1,3,reversed,incorrect,0.9309843450279158,0,valid_lose,619.4225086000006,64,,,,,,,,,,,,,,,sub_442,2023-09-11_09h38.37.328,Reversal,2023.1.3,59.913281516226775,2,
8,exp1.png,exp2.png,,,,,,,,,,,,,,,,,,1,0,1,0,0,8,8,8,,,,,,,,,False,28,109,False,exp1.png,exp2.png,trial_left_image,1,exp1.png,2,exp1.png,exp2.png,1,1,non-reversed,correct,0.6987908444340475,1,valid_win,625.1537861000006,65,,,,,,,,,,,,,,,sub_442,2023-09-11_09h38.37.328,Reversal,2023.1.3,59.913281516226775,2,
9,exp3.png,exp4.png,,,,,,,,,,,,,,,,,,1,0,1,0,0,9,9,9,,,,,,,,,False,29,110,True,exp4.png,exp3.png,trial_left_image,1,exp4.png,2,exp4.png,exp3.png,0,4,reversed,correct,0.17058666758178576,0,invalid_lose,630.8516573000006,65,,,,,,,,,,,,,,,sub_442,2023-09-11_09h38.37.328,Reversal,2023.1.3,59.913281516226775,2,
10,exp1.png,exp2.png,,,,,,,,,,,,,,,,,,1,0,1,0,0,10,10,10,,,,,,,,,False,30,111,False,exp1.png,exp2.png,trial_left_image,1,exp1.png,2,exp1.png,exp2.png,1,1,non-reversed,correct,0.9385407696832014,1,valid_win,636.3172856000001,66,,,,,,,,,,,,,,,sub_442,2023-09-11_09h38.37.328,Reversal,2023.1.3,59.913281516226775,2,
11,exp3.png,exp4.png,,,,,,,,,,,,,,,,,,1,0,1,0,0,11,11,11,,,,,,,,,False,31,112,True,exp4.png,exp3.png,trial_left_image,1,exp4.png,2,exp4.png,exp3.png,0,4,reversed,correct,0.022024108673666776,0,invalid_lose,642.6979889000004,66,,,,,,,,,,,,,,,sub_442,2023-09-11_09h38.37.328,Reversal,2023.1.3,59.913281516226775,2,
12,exp1.png,exp2.png,,,,,,,,,,,,,,,,,,1,0,1,0,0,12,12,12,,,,,,,,,False,32,113,True,exp2.png,exp1.png,trial_right_image,-1,exp1.png,2,exp1.png,exp2.png,1,1,non-reversed,correct,0.22037680376702784,0,invalid_lose,648.2959031,66,,,,,,,,,,,,,,,sub_442,2023-09-11_09h38.37.328,Reversal,2023.1.3,59.913281516226775,2,
13,exp3.png,exp4.png,,,,,,,,,,,,,,,,,,1,0,1,0,0,13,13,13,,,,,,,,,False,33,114,False,exp3.png,exp4.png,trial_left_image,1,exp3.png,2,exp4.png,exp3.png,1,3,reversed,incorrect,0.9726665184501283,0,valid_lose,653.4776737000002,66,,,,,,,,,,,,,,,sub_442,2023-09-11_09h38.37.328,Reversal,2023.1.3,59.913281516226775,2,
14,exp1.png,exp2.png,,,,,,,,,,,,,,,,,,1,0,1,0,0,14,14,14,,,,,,,,,False,34,115,False,exp1.png,exp2.png,trial_left_image,1,exp1.png,2,exp1.png,exp2.png,1,1,non-reversed,correct,0.8880591888795338,1,valid_win,658.9253502000001,67,,,,,,,,,,,,,,,sub_442,2023-09-11_09h38.37.328,Reversal,2023.1.3,59.913281516226775,2,
15,exp3.png,exp4.png,,,,,,,,,,,,,,,,,,1,0,1,0,0,15,15,15,,,,,,,,,False,35,116,False,exp3.png,exp4.png,trial_left_image,1,exp3.png,2,exp4.png,exp3.png,1,3,reversed,incorrect,0.007353041154894657,1,invalid_win,666.9560603999998,68,,,,,,,,,,,,,,,sub_442,2023-09-11_09h38.37.328,Reversal,2023.1.3,59.913281516226775,2,
16,exp1.png,exp2.png,,,,,,,,,,,,,,,,,,1,0,1,0,0,16,16,16,,,,,,,,,False,36,117,True,exp2.png,exp1.png,trial_right_image,-1,exp1.png,2,exp1.png,exp2.png,1,1,non-reversed,correct,0.6357095124194415,1,valid_win,672.8715026999998,69,,,,,,,,,,,,,,,sub_442,2023-09-11_09h38.37.328,Reversal,2023.1.3,59.913281516226775,2,
17,exp3.png,exp4.png,,,,,,,,,,,,,,,,,,1,0,1,0,0,17,17,17,,,,,,,,,False,37,118,True,exp4.png,exp3.png,trial_right_image,-1,exp3.png,2,exp4.png,exp3.png,1,3,reversed,incorrect,0.1389707777216539,1,invalid_win,679.3854635000007,70,,,,,,,,,,,,,,,sub_442,2023-09-11_09h38.37.328,Reversal,2023.1.3,59.913281516226775,2,
18,exp1.png,exp2.png,,,,,,,,,,,,,,,,,,1,0,1,0,0,18,18,18,,,,,,,,,False,38,119,False,exp1.png,exp2.png,trial_left_image,1,exp1.png,2,exp1.png,exp2.png,1,1,non-reversed,correct,0.2317509368003553,0,invalid_lose,684.6172205000003,70,,,,,,,,,,,,,,,sub_442,2023-09-11_09h38.37.328,Reversal,2023.1.3,59.913281516226775,2,
19,exp3.png,exp4.png,,,,,,,,,,,,,,,,,,1,0,1,0,0,19,19,19,,,,,,,,,False,39,120,True,exp4.png,exp3.png,trial_right_image,-1,exp3.png,2,exp4.png,exp3.png,1,3,reversed,incorrect,0.5194442744770259,0,valid_lose,689.1819451000001,70,,,,,,,,,,,,,,,sub_442,2023-09-11_09h38.37.328,Reversal,2023.1.3,59.913281516226775,2,
20,exp1.png,exp2.png,,,,,,,,,,,,,,,,,,1,0,1,0,0,20,20,20,,,,,,,,,True,,,,,,,,,,,,,,,,,,,,,,,,,,,,,,,,,,,sub_442,2023-09-11_09h38.37.328,Reversal,2023.1.3,59.913281516226775,2,
,,,exp1.png,,,,,,,,,,,,,,,,,1,0,1,0,,,,,0,0,0,0,0,0,0,0,,,,,,,,,,,,,,,,,,,,,,854.9938651000002,97.0,97.0,1.7794266999999309,"[(97.0, 1.7794266999999309)]",,,,,,,,,,sub_442,2023-09-11_09h38.37.328,Reversal,2023.1.3,59.913281516226775,2,
,,,exp2.png,,,,,,,,,,,,,,,,,1,0,1,0,,,,,0,0,0,0,0,1,1,1,,,,,,,,,,,,,,,,,,,,,,857.6559809,,93.0,1.411405200000445,"[(93.0, 1.411405200000445)]",,,93.0,,,,,,,sub_442,2023-09-11_09h38.37.328,Reversal,2023.1.3,59.913281516226775,2,
,,,exp3.png,,,,,,,,,,,,,,,,,1,0,1,0,,,,,0,0,0,0,0,2,2,2,,,,,,,,,,,,,,,,,,,,,,860.0032590000001,,100.0,2.3949173999999402,"[(100.0, 2.3949173999999402)]",100.0,,,,,,,,,sub_442,2023-09-11_09h38.37.328,Reversal,2023.1.3,59.913281516226775,2,
,,,exp4.png,,,,,,,,,,,,,,,,,1,0,1,0,,,,,0,0,0,0,0,3,3,3,,,,,,,,,,,,,,,,,,,,,,863.3375027000002,,1.0,2.510164799999984,"[(1.0, 2.510164799999984)]",,1.0,,,,,,,,sub_442,2023-09-11_09h38.37.328,Reversal,2023.1.3,59.913281516226775,2,
0,exp1.png,exp2.png,,,,,,,,,,,,,,,,,,2,0,2,0,0,0,0,0,,,,,,,,,False,40,121,False,exp1.png,exp2.png,trial_left_image,1,exp1.png,2,exp1.png,exp2.png,1,1,non-reversed,correct,0.9416495020057871,1,valid_win,707.7450038000006,71,,,,,,,,,,,,,,,sub_442,2023-09-11_09h38.37.328,Reversal,2023.1.3,59.913281516226775,2,
1,exp3.png,exp4.png,,,,,,,,,,,,,,,,,,2,0,2,0,0,1,1,1,,,,,,,,,False,41,122,True,exp4.png,exp3.png,trial_right_image,-1,exp3.png,2,exp4.png,exp3.png,1,3,reversed,incorrect,0.8900589752277589,0,valid_lose,712.4603035,71,,,,,,,,,,,,,,,sub_442,2023-09-11_09h38.37.328,Reversal,2023.1.3,59.913281516226775,2,
2,exp1.png,exp2.png,,,,,,,,,,,,,,,,,,2,0,2,0,0,2,2,2,,,,,,,,,False,42,123,True,exp2.png,exp1.png,trial_right_image,-1,exp1.png,2,exp1.png,exp2.png,1,1,non-reversed,correct,0.941882875116335,1,valid_win,717.1726030999998,72,,,,,,,,,,,,,,,sub_442,2023-09-11_09h38.37.328,Reversal,2023.1.3,59.913281516226775,2,
3,exp3.png,exp4.png,,,,,,,,,,,,,,,,,,2,0,2,0,0,3,3,3,,,,,,,,,False,43,124,True,exp4.png,exp3.png,trial_left_image,1,exp4.png,2,exp4.png,exp3.png,0,4,reversed,correct,0.8995636995536671,1,valid_win,721.6878526,73,,,,,,,,,,,,,,,sub_442,2023-09-11_09h38.37.328,Reversal,2023.1.3,59.913281516226775,2,
4,exp1.png,exp2.png,,,,,,,,,,,,,,,,,,2,0,2,0,0,4,4,4,,,,,,,,,False,44,125,False,exp1.png,exp2.png,trial_left_image,1,exp1.png,2,exp1.png,exp2.png,1,1,non-reversed,correct,0.8767509476663068,1,valid_win,726.8194339000001,74,,,,,,,,,,,,,,,sub_442,2023-09-11_09h38.37.328,Reversal,2023.1.3,59.913281516226775,2,
5,exp3.png,exp4.png,,,,,,,,,,,,,,,,,,2,0,2,0,0,5,5,5,,,,,,,,,False,45,126,True,exp4.png,exp3.png,trial_left_image,1,exp4.png,2,exp4.png,exp3.png,0,4,reversed,correct,0.7729317455326468,1,valid_win,731.5175669,75,,,,,,,,,,,,,,,sub_442,2023-09-11_09h38.37.328,Reversal,2023.1.3,59.913281516226775,2,
6,exp1.png,exp2.png,,,,,,,,,,,,,,,,,,2,0,2,0,0,6,6,6,,,,,,,,,False,46,127,True,exp2.png,exp1.png,trial_right_image,-1,exp1.png,2,exp1.png,exp2.png,1,1,non-reversed,correct,0.025004580991117242,0,invalid_lose,736.8334107999999,75,,,,,,,,,,,,,,,sub_442,2023-09-11_09h38.37.328,Reversal,2023.1.3,59.913281516226775,2,
7,exp3.png,exp4.png,,,,,,,,,,,,,,,,,,2,0,2,0,0,7,7,7,,,,,,,,,False,47,128,False,exp3.png,exp4.png,trial_right_image,-1,exp4.png,2,exp4.png,exp3.png,0,4,reversed,correct,0.7514630859045113,1,valid_win,743.1975591999999,76,,,,,,,,,,,,,,,sub_442,2023-09-11_09h38.37.328,Reversal,2023.1.3,59.913281516226775,2,
8,exp1.png,exp2.png,,,,,,,,,,,,,,,,,,2,0,2,0,0,8,8,8,,,,,,,,,False,48,129,True,exp2.png,exp1.png,trial_left_image,1,exp2.png,2,exp1.png,exp2.png,0,2,non-reversed,incorrect,0.6580738405501041,0,valid_lose,747.9457877000004,76,,,,,,,,,,,,,,,sub_442,2023-09-11_09h38.37.328,Reversal,2023.1.3,59.913281516226775,2,
9,exp3.png,exp4.png,,,,,,,,,,,,,,,,,,2,0,2,0,0,9,9,9,,,,,,,,,False,49,130,False,exp3.png,exp4.png,trial_right_image,-1,exp4.png,2,exp4.png,exp3.png,0,4,reversed,correct,0.43130332627404355,1,valid_win,752.6448570000002,77,,,,,,,,,,,,,,,sub_442,2023-09-11_09h38.37.328,Reversal,2023.1.3,59.913281516226775,2,
10,exp1.png,exp2.png,,,,,,,,,,,,,,,,,,2,0,2,0,0,10,10,10,,,,,,,,,False,50,131,False,exp1.png,exp2.png,trial_left_image,1,exp1.png,2,exp1.png,exp2.png,1,1,non-reversed,correct,0.30186286505675464,1,valid_win,759.3090601000004,78,,,,,,,,,,,,,,,sub_442,2023-09-11_09h38.37.328,Reversal,2023.1.3,59.913281516226775,2,
11,exp3.png,exp4.png,,,,,,,,,,,,,,,,,,2,0,2,0,0,11,11,11,,,,,,,,,False,51,132,False,exp3.png,exp4.png,trial_right_image,-1,exp4.png,2,exp4.png,exp3.png,0,4,reversed,correct,0.619336421648428,1,valid_win,763.8404823000001,79,,,,,,,,,,,,,,,sub_442,2023-09-11_09h38.37.328,Reversal,2023.1.3,59.913281516226775,2,
12,exp1.png,exp2.png,,,,,,,,,,,,,,,,,,2,0,2,0,0,12,12,12,,,,,,,,,False,52,133,False,exp1.png,exp2.png,trial_right_image,-1,exp2.png,2,exp1.png,exp2.png,0,2,non-reversed,incorrect,0.5570739043272182,0,valid_lose,769.3388478000006,79,,,,,,,,,,,,,,,sub_442,2023-09-11_09h38.37.328,Reversal,2023.1.3,59.913281516226775,2,
13,exp3.png,exp4.png,,,,,,,,,,,,,,,,,,2,0,2,0,0,13,13,13,,,,,,,,,False,53,134,True,exp4.png,exp3.png,trial_left_image,1,exp4.png,2,exp4.png,exp3.png,0,4,reversed,correct,0.9923186358824907,1,valid_win,773.9205719000001,80,,,,,,,,,,,,,,,sub_442,2023-09-11_09h38.37.328,Reversal,2023.1.3,59.913281516226775,2,
14,exp1.png,exp2.png,,,,,,,,,,,,,,,,,,2,0,2,0,0,14,14,14,,,,,,,,,False,54,135,False,exp1.png,exp2.png,trial_left_image,1,exp1.png,2,exp1.png,exp2.png,1,1,non-reversed,correct,0.9294895737871093,1,valid_win,781.1679844,81,,,,,,,,,,,,,,,sub_442,2023-09-11_09h38.37.328,Reversal,2023.1.3,59.913281516226775,2,
15,exp3.png,exp4.png,,,,,,,,,,,,,,,,,,2,0,2,0,0,15,15,15,,,,,,,,,False,55,136,False,exp3.png,exp4.png,trial_right_image,-1,exp4.png,2,exp4.png,exp3.png,0,4,reversed,correct,0.1556774516914089,0,invalid_lose,786.4828825000004,81,,,,,,,,,,,,,,,sub_442,2023-09-11_09h38.37.328,Reversal,2023.1.3,59.913281516226775,2,
16,exp1.png,exp2.png,,,,,,,,,,,,,,,,,,2,0,2,0,0,16,16,16,,,,,,,,,False,56,137,True,exp2.png,exp1.png,trial_right_image,-1,exp1.png,2,exp1.png,exp2.png,1,1,non-reversed,correct,0.8678413763941321,1,valid_win,791.3475317000002,82,,,,,,,,,,,,,,,sub_442,2023-09-11_09h38.37.328,Reversal,2023.1.3,59.913281516226775,2,
17,exp3.png,exp4.png,,,,,,,,,,,,,,,,,,2,0,2,0,0,17,17,17,,,,,,,,,False,57,138,True,exp4.png,exp3.png,trial_left_image,1,exp4.png,2,exp4.png,exp3.png,0,4,reversed,correct,0.7285648922864961,1,valid_win,796.0795293000001,83,,,,,,,,,,,,,,,sub_442,2023-09-11_09h38.37.328,Reversal,2023.1.3,59.913281516226775,2,
18,exp1.png,exp2.png,,,,,,,,,,,,,,,,,,2,0,2,0,0,18,18,18,,,,,,,,,False,58,139,True,exp2.png,exp1.png,trial_right_image,-1,exp1.png,2,exp1.png,exp2.png,1,1,non-reversed,correct,0.20069198351266915,0,invalid_lose,801.7776704000007,83,,,,,,,,,,,,,,,sub_442,2023-09-11_09h38.37.328,Reversal,2023.1.3,59.913281516226775,2,
19,exp3.png,exp4.png,,,,,,,,,,,,,,,,,,2,0,2,0,0,19,19,19,,,,,,,,,False,59,140,False,exp3.png,exp4.png,trial_right_image,-1,exp4.png,2,exp4.png,exp3.png,0,4,reversed,correct,0.7089115394115209,1,valid_win,808.5419034000006,84,,,,,,,,,,,,,,,sub_442,2023-09-11_09h38.37.328,Reversal,2023.1.3,59.913281516226775,2,
20,exp1.png,exp2.png,,,,,,,,,,,,,,,,,,2,0,2,0,0,20,20,20,,,,,,,,,True,,,,,,,,,,,,,,,,,,,,,,,,,,,,,,,,,,,sub_442,2023-09-11_09h38.37.328,Reversal,2023.1.3,59.913281516226775,2,
,,,exp1.png,,,,,,,,,,,,,,,,,2,0,2,0,,,,,0,0,0,0,0,0,0,0,,,,,,,,,,,,,,,,,,,,,,974.3617012999994,99.0,99.0,2.385253499999635,"[(99.0, 2.385253499999635)]",,,,,,,,,,sub_442,2023-09-11_09h38.37.328,Reversal,2023.1.3,59.913281516226775,2,
,,,exp2.png,,,,,,,,,,,,,,,,,2,0,2,0,,,,,0,0,0,0,0,1,1,1,,,,,,,,,,,,,,,,,,,,,,977.6138832999995,,100.0,1.2777170999997907,"[(100.0, 1.2777170999997907)]",,,100.0,,,,,,,sub_442,2023-09-11_09h38.37.328,Reversal,2023.1.3,59.913281516226775,2,
,,,exp3.png,,,,,,,,,,,,,,,,,2,0,2,0,,,,,0,0,0,0,0,2,2,2,,,,,,,,,,,,,,,,,,,,,,979.7982234000001,,1.0,1.2449503000007098,"[(1.0, 1.2449503000007098)]",1.0,,,,,,,,,sub_442,2023-09-11_09h38.37.328,Reversal,2023.1.3,59.913281516226775,2,
,,,exp4.png,,,,,,,,,,,,,,,,,2,0,2,0,,,,,0,0,0,0,0,3,3,3,,,,,,,,,,,,,,,,,,,,,,983.8838660000001,,97.0,3.3428097000005437,"[(1.0, 1.6932701000005181), (97.0, 3.3428097000005437)]",,97.0,,,,,,,,sub_442,2023-09-11_09h38.37.328,Reversal,2023.1.3,59.913281516226775,2,
,,,,,,,,,,,,,,,,,,,,,,,,,,,,,,,,,,,,,,,,,,,,,,,,,,,,,,,,84,,,,,,,,,,93,52,41,357.5246715000003,1,,,,,,,
