trial_index,trial_image1_file,trial_image2_file,image_file,learning_outer_loop.thisRepN,learning_outer_loop.thisTrialN,learning_outer_loop.thisN,learning_outer_loop.thisIndex,learning_inner_loop.thisRepN,learning_inner_loop.thisTrialN,learning_inner_loop.thisN,learning_inner_loop.thisIndex,learning_estimation_outer_loop.thisRepN,learning_estimation_outer_loop.thisTrialN,learning_estimation_outer_loop.thisN,learning_estimation_outer_loop.thisIndex,learning_estimation_inner_loop.thisRepN,learning_estimation_inner_loop.thisTrialN,learning_estimation_inner_loop.thisN,learning_estimation_inner_loop.thisIndex,reversal_outer_loop.thisRepN,reversal_outer_loop.thisTrialN,reversal_outer_loop.thisN,reversal_outer_loop.thisIndex,reversal_inner_loop.thisRepN,reversal_inner_loop.thisTrialN,reversal_inner_loop.thisN,reversal_inner_loop.thisIndex,reversal_estimation_outer_loop.thisRepN,reversal_estimation_outer_loop.thisTrialN,reversal_estimation_outer_loop.thisN,reversal_estimation_outer_loop.thisIndex,reversal_estimation_inner_loop.thisRepN,reversal_estimation_inner_loop.thisTrialN,reversal_estimation_inner_loop.thisN,reversal_estimation_inner_loop.thisIndex,skipped,total_trial_counter,trial_num,left_right_flip,left_image_file,right_image_file,clicked_stimulus_side,side,clicked_stimulus,version,high_prob_image_file,low_prob_image_file,choice_a,choice_b,pair_type,correct,trial_feedback_random,reward,trial_type,overall_time_after_trial,score,estimation_rating.started,estimation_exp1.png,estimation_rating.response,estimation_rating.rt,estimation_rating.history,estimation_exp2.png,estimation_exp3.png,estimation_exp4.png,total_learning_time,total_correct,learning_correct,reversal_correct,total_reversal_time,extra_block,end_experiment.keys,end_experiment.rt,end_experiment.duration,participant,date,expName,psychopyVersion,frameRate,ver,
0,exp1.png,exp2.png,,0,0,0,0,0,0,0,0,,,,,,,,,,,,,,,,,,,,,,,,,True,,,,,,,,,,,,,,,,,,,,,,,,,,,,,,,,,,,,,,sub_921,2024-03-11_13h31.21.850,Reversal,2023.1.3,60.09416756052773,1,
1,exp3.png,exp4.png,,0,0,0,0,0,1,1,1,,,,,,,,,,,,,,,,,,,,,,,,,False,0,1,True,exp4.png,exp3.png,trial_right_image,-1,exp3.png,1,exp3.png,exp4.png,1,1,non-reversed,correct,0.9413401563001905,1,valid_win,3.1317735000011453,1,,,,,,,,,,,,,,,,,,sub_921,2024-03-11_13h31.21.850,Reversal,2023.1.3,60.09416756052773,1,
2,exp1.png,exp2.png,,0,0,0,0,0,2,2,2,,,,,,,,,,,,,,,,,,,,,,,,,False,1,2,True,exp2.png,exp1.png,trial_left_image,1,exp2.png,1,exp1.png,exp2.png,0,4,reversed,incorrect,0.5718087765720622,0,valid_lose,7.779723700001341,1,,,,,,,,,,,,,,,,,,sub_921,2024-03-11_13h31.21.850,Reversal,2023.1.3,60.09416756052773,1,
3,exp3.png,exp4.png,,0,0,0,0,0,3,3,3,,,,,,,,,,,,,,,,,,,,,,,,,False,2,3,True,exp4.png,exp3.png,trial_right_image,-1,exp3.png,1,exp3.png,exp4.png,1,1,non-reversed,correct,0.16273051031359498,0,invalid_lose,12.546321500001795,1,,,,,,,,,,,,,,,,,,sub_921,2024-03-11_13h31.21.850,Reversal,2023.1.3,60.09416756052773,1,
4,exp1.png,exp2.png,,0,0,0,0,0,4,4,4,,,,,,,,,,,,,,,,,,,,,,,,,False,3,4,False,exp1.png,exp2.png,trial_left_image,1,exp1.png,1,exp1.png,exp2.png,1,3,reversed,correct,0.03242435708738345,0,invalid_lose,17.776406799999677,1,,,,,,,,,,,,,,,,,,sub_921,2024-03-11_13h31.21.850,Reversal,2023.1.3,60.09416756052773,1,
5,exp3.png,exp4.png,,0,0,0,0,0,5,5,5,,,,,,,,,,,,,,,,,,,,,,,,,False,4,5,True,exp4.png,exp3.png,trial_right_image,-1,exp3.png,1,exp3.png,exp4.png,1,1,non-reversed,correct,0.6608533748875356,1,valid_win,22.80813780000244,2,,,,,,,,,,,,,,,,,,sub_921,2024-03-11_13h31.21.850,Reversal,2023.1.3,60.09416756052773,1,
6,exp1.png,exp2.png,,0,0,0,0,0,6,6,6,,,,,,,,,,,,,,,,,,,,,,,,,False,5,6,True,exp2.png,exp1.png,trial_right_image,-1,exp1.png,1,exp1.png,exp2.png,1,3,reversed,correct,0.6023087439360499,1,valid_win,27.74013930000001,3,,,,,,,,,,,,,,,,,,sub_921,2024-03-11_13h31.21.850,Reversal,2023.1.3,60.09416756052773,1,
7,exp3.png,exp4.png,,0,0,0,0,0,7,7,7,,,,,,,,,,,,,,,,,,,,,,,,,False,6,7,False,exp3.png,exp4.png,trial_right_image,-1,exp4.png,1,exp3.png,exp4.png,0,2,non-reversed,incorrect,0.9467603795519691,0,valid_lose,32.8214126999992,3,,,,,,,,,,,,,,,,,,sub_921,2024-03-11_13h31.21.850,Reversal,2023.1.3,60.09416756052773,1,
8,exp1.png,exp2.png,,0,0,0,0,0,8,8,8,,,,,,,,,,,,,,,,,,,,,,,,,False,7,8,False,exp1.png,exp2.png,trial_left_image,1,exp1.png,1,exp1.png,exp2.png,1,3,reversed,correct,0.27122867838756604,1,valid_win,37.37003689999983,4,,,,,,,,,,,,,,,,,,sub_921,2024-03-11_13h31.21.850,Reversal,2023.1.3,60.09416756052773,1,
9,exp3.png,exp4.png,,0,0,0,0,0,9,9,9,,,,,,,,,,,,,,,,,,,,,,,,,False,8,9,True,exp4.png,exp3.png,trial_right_image,-1,exp3.png,1,exp3.png,exp4.png,1,1,non-reversed,correct,0.7431197779329525,1,valid_win,41.9207865999997,5,,,,,,,,,,,,,,,,,,sub_921,2024-03-11_13h31.21.850,Reversal,2023.1.3,60.09416756052773,1,
10,exp1.png,exp2.png,,0,0,0,0,0,10,10,10,,,,,,,,,,,,,,,,,,,,,,,,,False,9,10,False,exp1.png,exp2.png,trial_left_image,1,exp1.png,1,exp1.png,exp2.png,1,3,reversed,correct,0.3786314909163043,1,valid_win,46.4173621000009,6,,,,,,,,,,,,,,,,,,sub_921,2024-03-11_13h31.21.850,Reversal,2023.1.3,60.09416756052773,1,
11,exp3.png,exp4.png,,0,0,0,0,0,11,11,11,,,,,,,,,,,,,,,,,,,,,,,,,False,10,11,True,exp4.png,exp3.png,trial_right_image,-1,exp3.png,1,exp3.png,exp4.png,1,1,non-reversed,correct,0.48639649123207795,1,valid_win,50.81588929999998,7,,,,,,,,,,,,,,,,,,sub_921,2024-03-11_13h31.21.850,Reversal,2023.1.3,60.09416756052773,1,
12,exp1.png,exp2.png,,0,0,0,0,0,12,12,12,,,,,,,,,,,,,,,,,,,,,,,,,False,11,12,True,exp2.png,exp1.png,trial_right_image,-1,exp1.png,1,exp1.png,exp2.png,1,3,reversed,correct,0.0639141934209585,0,invalid_lose,55.01433890000044,7,,,,,,,,,,,,,,,,,,sub_921,2024-03-11_13h31.21.850,Reversal,2023.1.3,60.09416756052773,1,
13,exp3.png,exp4.png,,0,0,0,0,0,13,13,13,,,,,,,,,,,,,,,,,,,,,,,,,False,12,13,False,exp3.png,exp4.png,trial_left_image,1,exp3.png,1,exp3.png,exp4.png,1,1,non-reversed,correct,0.18814099940857187,0,invalid_lose,59.67878259999998,7,,,,,,,,,,,,,,,,,,sub_921,2024-03-11_13h31.21.850,Reversal,2023.1.3,60.09416756052773,1,
14,exp1.png,exp2.png,,0,0,0,0,0,14,14,14,,,,,,,,,,,,,,,,,,,,,,,,,False,13,14,False,exp1.png,exp2.png,trial_right_image,-1,exp2.png,1,exp1.png,exp2.png,0,4,reversed,incorrect,0.38800561228311203,0,valid_lose,64.37749540000004,7,,,,,,,,,,,,,,,,,,sub_921,2024-03-11_13h31.21.850,Reversal,2023.1.3,60.09416756052773,1,
15,exp3.png,exp4.png,,0,0,0,0,0,15,15,15,,,,,,,,,,,,,,,,,,,,,,,,,False,14,15,False,exp3.png,exp4.png,trial_left_image,1,exp3.png,1,exp3.png,exp4.png,1,1,non-reversed,correct,0.41742687444866977,1,valid_win,68.82555209999919,8,,,,,,,,,,,,,,,,,,sub_921,2024-03-11_13h31.21.850,Reversal,2023.1.3,60.09416756052773,1,
16,exp1.png,exp2.png,,0,0,0,0,0,16,16,16,,,,,,,,,,,,,,,,,,,,,,,,,False,15,16,False,exp1.png,exp2.png,trial_left_image,1,exp1.png,1,exp1.png,exp2.png,1,3,reversed,correct,0.6372698310548642,1,valid_win,73.10778299999947,9,,,,,,,,,,,,,,,,,,sub_921,2024-03-11_13h31.21.850,Reversal,2023.1.3,60.09416756052773,1,
17,exp3.png,exp4.png,,0,0,0,0,0,17,17,17,,,,,,,,,,,,,,,,,,,,,,,,,False,16,17,False,exp3.png,exp4.png,trial_left_image,1,exp3.png,1,exp3.png,exp4.png,1,1,non-reversed,correct,0.8776089069541343,1,valid_win,77.68921730000147,10,,,,,,,,,,,,,,,,,,sub_921,2024-03-11_13h31.21.850,Reversal,2023.1.3,60.09416756052773,1,
18,exp1.png,exp2.png,,0,0,0,0,0,18,18,18,,,,,,,,,,,,,,,,,,,,,,,,,False,17,18,False,exp1.png,exp2.png,trial_left_image,1,exp1.png,1,exp1.png,exp2.png,1,3,reversed,correct,0.020593155284532316,0,invalid_lose,81.8713639000016,10,,,,,,,,,,,,,,,,,,sub_921,2024-03-11_13h31.21.850,Reversal,2023.1.3,60.09416756052773,1,
19,exp3.png,exp4.png,,0,0,0,0,0,19,19,19,,,,,,,,,,,,,,,,,,,,,,,,,False,18,19,True,exp4.png,exp3.png,trial_right_image,-1,exp3.png,1,exp3.png,exp4.png,1,1,non-reversed,correct,0.5434915665245318,1,valid_win,86.25544110000192,11,,,,,,,,,,,,,,,,,,sub_921,2024-03-11_13h31.21.850,Reversal,2023.1.3,60.09416756052773,1,
20,exp1.png,exp2.png,,0,0,0,0,0,20,20,20,,,,,,,,,,,,,,,,,,,,,,,,,False,19,20,True,exp2.png,exp1.png,trial_right_image,-1,exp1.png,1,exp1.png,exp2.png,1,3,reversed,correct,0.5098236052252486,1,valid_win,90.33529810000255,12,,,,,,,,,,,,,,,,,,sub_921,2024-03-11_13h31.21.850,Reversal,2023.1.3,60.09416756052773,1,
,,,exp1.png,0,0,0,0,,,,,0,0,0,0,0,0,0,0,,,,,,,,,,,,,,,,,,,,,,,,,,,,,,,,,,,,,,154.09569639999972,80.0,80.0,4.971556000000419,"[(80.0, 4.971556000000419)]",,,,,,,,,,,,,sub_921,2024-03-11_13h31.21.850,Reversal,2023.1.3,60.09416756052773,1,
,,,exp2.png,0,0,0,0,,,,,0,0,0,0,0,1,1,1,,,,,,,,,,,,,,,,,,,,,,,,,,,,,,,,,,,,,,160.41672250000192,,27.0,5.108707499999582,"[(22.0, 2.778259299997444), (27.0, 5.108707499999582)]",27.0,,,,,,,,,,,,sub_921,2024-03-11_13h31.21.850,Reversal,2023.1.3,60.09416756052773,1,
,,,exp3.png,0,0,0,0,,,,,0,0,0,0,0,2,2,2,,,,,,,,,,,,,,,,,,,,,,,,,,,,,,,,,,,,,,166.465799900001,,70.0,3.343715000002703,"[(70.0, 3.343715000002703)]",,70.0,,,,,,,,,,,sub_921,2024-03-11_13h31.21.850,Reversal,2023.1.3,60.09416756052773,1,
,,,exp4.png,0,0,0,0,,,,,0,0,0,0,0,3,3,3,,,,,,,,,,,,,,,,,,,,,,,,,,,,,,,,,,,,,,170.5974282999996,,27.0,1.92821449999974,"[(27.0, 1.92821449999974)]",,,27.0,,,,,,,,,,sub_921,2024-03-11_13h31.21.850,Reversal,2023.1.3,60.09416756052773,1,
0,exp1.png,exp2.png,,1,0,1,0,0,0,0,0,,,,,,,,,,,,,,,,,,,,,,,,,True,,,,,,,,,,,,,,,,,,,,,,,,,,,,,,,,,,,,,,sub_921,2024-03-11_13h31.21.850,Reversal,2023.1.3,60.09416756052773,1,
1,exp3.png,exp4.png,,1,0,1,0,0,1,1,1,,,,,,,,,,,,,,,,,,,,,,,,,False,20,21,False,exp3.png,exp4.png,trial_left_image,1,exp3.png,1,exp3.png,exp4.png,1,1,non-reversed,correct,0.20364416366396254,0,invalid_lose,115.51018190000104,12,,,,,,,,,,,,,,,,,,sub_921,2024-03-11_13h31.21.850,Reversal,2023.1.3,60.09416756052773,1,
2,exp1.png,exp2.png,,1,0,1,0,0,2,2,2,,,,,,,,,,,,,,,,,,,,,,,,,False,21,22,False,exp1.png,exp2.png,trial_left_image,1,exp1.png,1,exp1.png,exp2.png,1,3,reversed,correct,0.16113613141398486,0,invalid_lose,119.64187610000226,12,,,,,,,,,,,,,,,,,,sub_921,2024-03-11_13h31.21.850,Reversal,2023.1.3,60.09416756052773,1,
3,exp3.png,exp4.png,,1,0,1,0,0,3,3,3,,,,,,,,,,,,,,,,,,,,,,,,,False,22,23,False,exp3.png,exp4.png,trial_right_image,-1,exp4.png,1,exp3.png,exp4.png,0,2,non-reversed,incorrect,0.031650916471716584,1,invalid_win,124.82319880000068,13,,,,,,,,,,,,,,,,,,sub_921,2024-03-11_13h31.21.850,Reversal,2023.1.3,60.09416756052773,1,
4,exp1.png,exp2.png,,1,0,1,0,0,4,4,4,,,,,,,,,,,,,,,,,,,,,,,,,False,23,24,False,exp1.png,exp2.png,trial_left_image,1,exp1.png,1,exp1.png,exp2.png,1,3,reversed,correct,0.12654632441167324,0,invalid_lose,129.07216909999988,13,,,,,,,,,,,,,,,,,,sub_921,2024-03-11_13h31.21.850,Reversal,2023.1.3,60.09416756052773,1,
5,exp3.png,exp4.png,,1,0,1,0,0,5,5,5,,,,,,,,,,,,,,,,,,,,,,,,,False,24,25,True,exp4.png,exp3.png,trial_right_image,-1,exp3.png,1,exp3.png,exp4.png,1,1,non-reversed,correct,0.3090642310646934,1,valid_win,133.6035391000005,14,,,,,,,,,,,,,,,,,,sub_921,2024-03-11_13h31.21.850,Reversal,2023.1.3,60.09416756052773,1,
6,exp1.png,exp2.png,,1,0,1,0,0,6,6,6,,,,,,,,,,,,,,,,,,,,,,,,,False,25,26,False,exp1.png,exp2.png,trial_right_image,-1,exp2.png,1,exp1.png,exp2.png,0,4,reversed,incorrect,0.3670770127905264,0,valid_lose,137.66923470000256,14,,,,,,,,,,,,,,,,,,sub_921,2024-03-11_13h31.21.850,Reversal,2023.1.3,60.09416756052773,1,
7,exp3.png,exp4.png,,1,0,1,0,0,7,7,7,,,,,,,,,,,,,,,,,,,,,,,,,False,26,27,True,exp4.png,exp3.png,trial_right_image,-1,exp3.png,1,exp3.png,exp4.png,1,1,non-reversed,correct,0.9611193572341532,1,valid_win,142.28419770000255,15,,,,,,,,,,,,,,,,,,sub_921,2024-03-11_13h31.21.850,Reversal,2023.1.3,60.09416756052773,1,
8,exp1.png,exp2.png,,1,0,1,0,0,8,8,8,,,,,,,,,,,,,,,,,,,,,,,,,False,27,28,False,exp1.png,exp2.png,trial_left_image,1,exp1.png,1,exp1.png,exp2.png,1,3,reversed,correct,0.2782338522331813,1,valid_win,146.61627489999955,16,,,,,,,,,,,,,,,,,,sub_921,2024-03-11_13h31.21.850,Reversal,2023.1.3,60.09416756052773,1,
9,exp3.png,exp4.png,,1,0,1,0,0,9,9,9,,,,,,,,,,,,,,,,,,,,,,,,,False,28,29,True,exp4.png,exp3.png,trial_left_image,1,exp4.png,1,exp3.png,exp4.png,0,2,non-reversed,incorrect,0.16618221576205394,1,invalid_win,151.23165770000196,17,,,,,,,,,,,,,,,,,,sub_921,2024-03-11_13h31.21.850,Reversal,2023.1.3,60.09416756052773,1,
10,exp1.png,exp2.png,,1,0,1,0,0,10,10,10,,,,,,,,,,,,,,,,,,,,,,,,,False,29,30,False,exp1.png,exp2.png,trial_left_image,1,exp1.png,1,exp1.png,exp2.png,1,3,reversed,correct,0.5600723572926493,1,valid_win,155.27976870000202,18,,,,,,,,,,,,,,,,,,sub_921,2024-03-11_13h31.21.850,Reversal,2023.1.3,60.09416756052773,1,
11,exp3.png,exp4.png,,1,0,1,0,0,11,11,11,,,,,,,,,,,,,,,,,,,,,,,,,False,30,31,True,exp4.png,exp3.png,trial_left_image,1,exp4.png,1,exp3.png,exp4.png,0,2,non-reversed,incorrect,0.2088251810433822,1,invalid_win,159.97822180000003,19,,,,,,,,,,,,,,,,,,sub_921,2024-03-11_13h31.21.850,Reversal,2023.1.3,60.09416756052773,1,
12,exp1.png,exp2.png,,1,0,1,0,0,12,12,12,,,,,,,,,,,,,,,,,,,,,,,,,False,31,32,False,exp1.png,exp2.png,trial_left_image,1,exp1.png,1,exp1.png,exp2.png,1,3,reversed,correct,0.6132728095495409,1,valid_win,166.99252080000224,20,,,,,,,,,,,,,,,,,,sub_921,2024-03-11_13h31.21.850,Reversal,2023.1.3,60.09416756052773,1,
13,exp3.png,exp4.png,,1,0,1,0,0,13,13,13,,,,,,,,,,,,,,,,,,,,,,,,,False,32,33,True,exp4.png,exp3.png,trial_left_image,1,exp4.png,1,exp3.png,exp4.png,0,2,non-reversed,incorrect,0.6496222846847696,0,valid_lose,171.77401090000058,20,,,,,,,,,,,,,,,,,,sub_921,2024-03-11_13h31.21.850,Reversal,2023.1.3,60.09416756052773,1,
14,exp1.png,exp2.png,,1,0,1,0,0,14,14,14,,,,,,,,,,,,,,,,,,,,,,,,,False,33,34,True,exp2.png,exp1.png,trial_right_image,-1,exp1.png,1,exp1.png,exp2.png,1,3,reversed,correct,0.6325582572404831,1,valid_win,176.75570080000034,21,,,,,,,,,,,,,,,,,,sub_921,2024-03-11_13h31.21.850,Reversal,2023.1.3,60.09416756052773,1,
15,exp3.png,exp4.png,,1,0,1,0,0,15,15,15,,,,,,,,,,,,,,,,,,,,,,,,,False,34,35,True,exp4.png,exp3.png,trial_right_image,-1,exp3.png,1,exp3.png,exp4.png,1,1,non-reversed,correct,0.6553771886783659,1,valid_win,182.53695250000237,22,,,,,,,,,,,,,,,,,,sub_921,2024-03-11_13h31.21.850,Reversal,2023.1.3,60.09416756052773,1,
16,exp1.png,exp2.png,,1,0,1,0,0,16,16,16,,,,,,,,,,,,,,,,,,,,,,,,,False,35,36,True,exp2.png,exp1.png,trial_right_image,-1,exp1.png,1,exp1.png,exp2.png,1,3,reversed,correct,0.6984679789576532,1,valid_win,187.00243079999927,23,,,,,,,,,,,,,,,,,,sub_921,2024-03-11_13h31.21.850,Reversal,2023.1.3,60.09416756052773,1,
17,exp3.png,exp4.png,,1,0,1,0,0,17,17,17,,,,,,,,,,,,,,,,,,,,,,,,,False,36,37,False,exp3.png,exp4.png,trial_left_image,1,exp3.png,1,exp3.png,exp4.png,1,1,non-reversed,correct,0.46436517675110145,1,valid_win,192.55070350000096,24,,,,,,,,,,,,,,,,,,sub_921,2024-03-11_13h31.21.850,Reversal,2023.1.3,60.09416756052773,1,
18,exp1.png,exp2.png,,1,0,1,0,0,18,18,18,,,,,,,,,,,,,,,,,,,,,,,,,False,37,38,True,exp2.png,exp1.png,trial_right_image,-1,exp1.png,1,exp1.png,exp2.png,1,3,reversed,correct,0.8601905030560221,1,valid_win,197.09891659999994,25,,,,,,,,,,,,,,,,,,sub_921,2024-03-11_13h31.21.850,Reversal,2023.1.3,60.09416756052773,1,
19,exp3.png,exp4.png,,1,0,1,0,0,19,19,19,,,,,,,,,,,,,,,,,,,,,,,,,False,38,39,False,exp3.png,exp4.png,trial_left_image,1,exp3.png,1,exp3.png,exp4.png,1,1,non-reversed,correct,0.9380996672816628,1,valid_win,204.21328800000265,26,,,,,,,,,,,,,,,,,,sub_921,2024-03-11_13h31.21.850,Reversal,2023.1.3,60.09416756052773,1,
20,exp1.png,exp2.png,,1,0,1,0,0,20,20,20,,,,,,,,,,,,,,,,,,,,,,,,,False,39,40,True,exp2.png,exp1.png,trial_right_image,-1,exp1.png,1,exp1.png,exp2.png,1,3,reversed,correct,0.5844523414187611,1,valid_win,209.1619009999995,27,,,,,,,,,,,,,,,,,,sub_921,2024-03-11_13h31.21.850,Reversal,2023.1.3,60.09416756052773,1,
,,,exp1.png,1,0,1,0,,,,,0,0,0,0,0,0,0,0,,,,,,,,,,,,,,,,,,,,,,,,,,,,,,,,,,,,,,272.9430248999997,100.0,100.0,2.0318191000005754,"[(100.0, 2.0318191000005754)]",,,,,,,,,,,,,sub_921,2024-03-11_13h31.21.850,Reversal,2023.1.3,60.09416756052773,1,
,,,exp2.png,1,0,1,0,,,,,0,0,0,0,0,1,1,1,,,,,,,,,,,,,,,,,,,,,,,,,,,,,,,,,,,,,,276.2265437999995,,1.0,6.175443899999664,"[(1.0, 6.175443899999664)]",1.0,,,,,,,,,,,,sub_921,2024-03-11_13h31.21.850,Reversal,2023.1.3,60.09416756052773,1,
,,,exp3.png,1,0,1,0,,,,,0,0,0,0,0,2,2,2,,,,,,,,,,,,,,,,,,,,,,,,,,,,,,,,,,,,,,283.5600570000024,,None,None,[],,,,,,,,,,,,,sub_921,2024-03-11_13h31.21.850,Reversal,2023.1.3,60.09416756052773,1,
,,,exp4.png,1,0,1,0,,,,,0,0,0,0,0,3,3,3,,,,,,,,,,,,,,,,,,,,,,,,,,,,,,,,,,,,,,285.04230720000123,,None,None,[],,,,,,,,,,,,,sub_921,2024-03-11_13h31.21.850,Reversal,2023.1.3,60.09416756052773,1,
0,exp1.png,exp2.png,,2,0,2,0,0,0,0,0,,,,,,,,,,,,,,,,,,,,,,,,,True,,,,,,,,,,,,,,,,,,,,,,,,,,,,,,,,,,,,,,sub_921,2024-03-11_13h31.21.850,Reversal,2023.1.3,60.09416756052773,1,
1,exp3.png,exp4.png,,2,0,2,0,0,1,1,1,,,,,,,,,,,,,,,,,,,,,,,,,False,40,41,True,exp4.png,exp3.png,trial_right_image,-1,exp3.png,1,exp3.png,exp4.png,1,1,non-reversed,correct,0.593413718347997,1,valid_win,231.92039040000236,28,,,,,,,,,,,,,,,,,,sub_921,2024-03-11_13h31.21.850,Reversal,2023.1.3,60.09416756052773,1,
2,exp1.png,exp2.png,,2,0,2,0,0,2,2,2,,,,,,,,,,,,,,,,,,,,,,,,,False,41,42,True,exp2.png,exp1.png,trial_right_image,-1,exp1.png,1,exp1.png,exp2.png,1,3,reversed,correct,0.22544371673993813,0,invalid_lose,236.23575469999923,28,,,,,,,,,,,,,,,,,,sub_921,2024-03-11_13h31.21.850,Reversal,2023.1.3,60.09416756052773,1,
3,exp3.png,exp4.png,,2,0,2,0,0,3,3,3,,,,,,,,,,,,,,,,,,,,,,,,,False,42,43,True,exp4.png,exp3.png,trial_right_image,-1,exp3.png,1,exp3.png,exp4.png,1,1,non-reversed,correct,0.8864152760669607,1,valid_win,246.1154248999992,29,,,,,,,,,,,,,,,,,,sub_921,2024-03-11_13h31.21.850,Reversal,2023.1.3,60.09416756052773,1,
4,exp1.png,exp2.png,,2,0,2,0,0,4,4,4,,,,,,,,,,,,,,,,,,,,,,,,,False,43,44,True,exp2.png,exp1.png,trial_left_image,1,exp2.png,1,exp1.png,exp2.png,0,4,reversed,incorrect,0.9768471055325197,0,valid_lose,250.93093249999947,29,,,,,,,,,,,,,,,,,,sub_921,2024-03-11_13h31.21.850,Reversal,2023.1.3,60.09416756052773,1,
5,exp3.png,exp4.png,,2,0,2,0,0,5,5,5,,,,,,,,,,,,,,,,,,,,,,,,,False,44,45,True,exp4.png,exp3.png,trial_right_image,-1,exp3.png,1,exp3.png,exp4.png,1,1,non-reversed,correct,0.06858706555913696,0,invalid_lose,257.16204520000247,29,,,,,,,,,,,,,,,,,,sub_921,2024-03-11_13h31.21.850,Reversal,2023.1.3,60.09416756052773,1,
6,exp1.png,exp2.png,,2,0,2,0,0,6,6,6,,,,,,,,,,,,,,,,,,,,,,,,,False,45,46,True,exp2.png,exp1.png,trial_right_image,-1,exp1.png,1,exp1.png,exp2.png,1,3,reversed,correct,0.1699795582436734,0,invalid_lose,261.3936141000013,29,,,,,,,,,,,,,,,,,,sub_921,2024-03-11_13h31.21.850,Reversal,2023.1.3,60.09416756052773,1,
7,exp3.png,exp4.png,,2,0,2,0,0,7,7,7,,,,,,,,,,,,,,,,,,,,,,,,,False,46,47,False,exp3.png,exp4.png,trial_right_image,-1,exp4.png,1,exp3.png,exp4.png,0,2,non-reversed,incorrect,0.07168861092300871,1,invalid_win,269.20779160000166,30,,,,,,,,,,,,,,,,,,sub_921,2024-03-11_13h31.21.850,Reversal,2023.1.3,60.09416756052773,1,
8,exp1.png,exp2.png,,2,0,2,0,0,8,8,8,,,,,,,,,,,,,,,,,,,,,,,,,False,47,48,False,exp1.png,exp2.png,trial_right_image,-1,exp2.png,1,exp1.png,exp2.png,0,4,reversed,incorrect,0.2905561256020688,0,valid_lose,275.2399482000001,30,,,,,,,,,,,,,,,,,,sub_921,2024-03-11_13h31.21.850,Reversal,2023.1.3,60.09416756052773,1,
9,exp3.png,exp4.png,,2,0,2,0,0,9,9,9,,,,,,,,,,,,,,,,,,,,,,,,,False,48,49,True,exp4.png,exp3.png,trial_left_image,1,exp4.png,1,exp3.png,exp4.png,0,2,non-reversed,incorrect,0.6315070666543227,0,valid_lose,280.6537515000018,30,,,,,,,,,,,,,,,,,,sub_921,2024-03-11_13h31.21.850,Reversal,2023.1.3,60.09416756052773,1,
10,exp1.png,exp2.png,,2,0,2,0,0,10,10,10,,,,,,,,,,,,,,,,,,,,,,,,,False,49,50,False,exp1.png,exp2.png,trial_left_image,1,exp1.png,1,exp1.png,exp2.png,1,3,reversed,correct,0.34566073980022616,1,valid_win,287.01858220000213,31,,,,,,,,,,,,,,,,,,sub_921,2024-03-11_13h31.21.850,Reversal,2023.1.3,60.09416756052773,1,
11,exp3.png,exp4.png,,2,0,2,0,0,11,11,11,,,,,,,,,,,,,,,,,,,,,,,,,False,50,51,False,exp3.png,exp4.png,trial_left_image,1,exp3.png,1,exp3.png,exp4.png,1,1,non-reversed,correct,0.8081872122003545,1,valid_win,293.06660399999964,32,,,,,,,,,,,,,,,,,,sub_921,2024-03-11_13h31.21.850,Reversal,2023.1.3,60.09416756052773,1,
12,exp1.png,exp2.png,,2,0,2,0,0,12,12,12,,,,,,,,,,,,,,,,,,,,,,,,,False,51,52,False,exp1.png,exp2.png,trial_left_image,1,exp1.png,1,exp1.png,exp2.png,1,3,reversed,correct,0.4901588876682922,1,valid_win,298.51453930000207,33,,,,,,,,,,,,,,,,,,sub_921,2024-03-11_13h31.21.850,Reversal,2023.1.3,60.09416756052773,1,
13,exp3.png,exp4.png,,2,0,2,0,0,13,13,13,,,,,,,,,,,,,,,,,,,,,,,,,False,52,53,True,exp4.png,exp3.png,trial_right_image,-1,exp3.png,1,exp3.png,exp4.png,1,1,non-reversed,correct,0.8043892108802881,1,valid_win,308.59430930000235,34,,,,,,,,,,,,,,,,,,sub_921,2024-03-11_13h31.21.850,Reversal,2023.1.3,60.09416756052773,1,
14,exp1.png,exp2.png,,2,0,2,0,0,14,14,14,,,,,,,,,,,,,,,,,,,,,,,,,False,53,54,True,exp2.png,exp1.png,trial_right_image,-1,exp1.png,1,exp1.png,exp2.png,1,3,reversed,correct,0.9980887755998981,1,valid_win,312.99281920000067,35,,,,,,,,,,,,,,,,,,sub_921,2024-03-11_13h31.21.850,Reversal,2023.1.3,60.09416756052773,1,
15,exp3.png,exp4.png,,2,0,2,0,0,15,15,15,,,,,,,,,,,,,,,,,,,,,,,,,False,54,55,False,exp3.png,exp4.png,trial_left_image,1,exp3.png,1,exp3.png,exp4.png,1,1,non-reversed,correct,0.8265861429994803,1,valid_win,319.7070241000001,36,,,,,,,,,,,,,,,,,,sub_921,2024-03-11_13h31.21.850,Reversal,2023.1.3,60.09416756052773,1,
16,exp1.png,exp2.png,,2,0,2,0,0,16,16,16,,,,,,,,,,,,,,,,,,,,,,,,,False,55,56,False,exp1.png,exp2.png,trial_left_image,1,exp1.png,1,exp1.png,exp2.png,1,3,reversed,correct,0.5349262792045968,1,valid_win,324.28854590000265,37,,,,,,,,,,,,,,,,,,sub_921,2024-03-11_13h31.21.850,Reversal,2023.1.3,60.09416756052773,1,
17,exp3.png,exp4.png,,2,0,2,0,0,17,17,17,,,,,,,,,,,,,,,,,,,,,,,,,False,56,57,False,exp3.png,exp4.png,trial_left_image,1,exp3.png,1,exp3.png,exp4.png,1,1,non-reversed,correct,0.7671762593564191,1,valid_win,330.66978129999916,38,,,,,,,,,,,,,,,,,,sub_921,2024-03-11_13h31.21.850,Reversal,2023.1.3,60.09416756052773,1,
18,exp1.png,exp2.png,,2,0,2,0,0,18,18,18,,,,,,,,,,,,,,,,,,,,,,,,,False,57,58,False,exp1.png,exp2.png,trial_left_image,1,exp1.png,1,exp1.png,exp2.png,1,3,reversed,correct,0.3871994731732278,1,valid_win,335.2185520999992,39,,,,,,,,,,,,,,,,,,sub_921,2024-03-11_13h31.21.850,Reversal,2023.1.3,60.09416756052773,1,
19,exp3.png,exp4.png,,2,0,2,0,0,19,19,19,,,,,,,,,,,,,,,,,,,,,,,,,False,58,59,False,exp3.png,exp4.png,trial_left_image,1,exp3.png,1,exp3.png,exp4.png,1,1,non-reversed,correct,0.0980758377735419,0,invalid_lose,340.5332546999998,39,,,,,,,,,,,,,,,,,,sub_921,2024-03-11_13h31.21.850,Reversal,2023.1.3,60.09416756052773,1,
20,exp1.png,exp2.png,,2,0,2,0,0,20,20,20,,,,,,,,,,,,,,,,,,,,,,,,,False,59,60,True,exp2.png,exp1.png,trial_right_image,-1,exp1.png,1,exp1.png,exp2.png,1,3,reversed,correct,0.9845811271704702,1,valid_win,344.7487939999992,40,,,,,,,,,,,,,,,,,,sub_921,2024-03-11_13h31.21.850,Reversal,2023.1.3,60.09416756052773,1,
,,,exp1.png,2,0,2,0,,,,,0,0,0,0,0,0,0,0,,,,,,,,,,,,,,,,,,,,,,,,,,,,,,,,,,,,,,408.531023800002,99.0,99.0,5.944181999999273,"[(99.0, 5.944181999999273)]",,,,,,,,,,,,,sub_921,2024-03-11_13h31.21.850,Reversal,2023.1.3,60.09416756052773,1,
,,,exp2.png,2,0,2,0,,,,,0,0,0,0,0,1,1,1,,,,,,,,,,,,,,,,,,,,,,,,,,,,,,,,,,,,,,416.27974130000075,,79.0,3.7262301000009757,"[(79.0, 3.7262301000009757)]",79.0,,,,,,,,,,,,sub_921,2024-03-11_13h31.21.850,Reversal,2023.1.3,60.09416756052773,1,
,,,exp3.png,2,0,2,0,,,,,0,0,0,0,0,2,2,2,,,,,,,,,,,,,,,,,,,,,,,,,,,,,,,,,,,,,,421.8620826000006,,27.0,1.9599183999998786,"[(27.0, 1.9599183999998786)]",,27.0,,,,,,,,,,,sub_921,2024-03-11_13h31.21.850,Reversal,2023.1.3,60.09416756052773,1,
,,,exp4.png,2,0,2,0,,,,,0,0,0,0,0,3,3,3,,,,,,,,,,,,,,,,,,,,,,,,,,,,,,,,,,,,,,424.62545610000234,,2.0,2.4263165000011213,"[(2.0, 2.4263165000011213)]",,,2.0,,,,,,,,,,sub_921,2024-03-11_13h31.21.850,Reversal,2023.1.3,60.09416756052773,1,
0,exp1.png,exp2.png,,,,,,,,,,,,,,,,,,0,0,0,0,0,0,0,0,,,,,,,,,True,,,,,,,,,,,,,,,,,,,,,,,,,,,,,,,,,,,,,,sub_921,2024-03-11_13h31.21.850,Reversal,2023.1.3,60.09416756052773,1,
1,exp3.png,exp4.png,,,,,,,,,,,,,,,,,,0,0,0,0,0,1,1,1,,,,,,,,,False,0,61,False,exp3.png,exp4.png,trial_right_image,-1,exp4.png,1,exp3.png,exp4.png,0,2,non-reversed,incorrect,0.8495625664043635,0,valid_lose,373.07241440000143,40,,,,,,,,,366.8217579000011,,,,,,,,,sub_921,2024-03-11_13h31.21.850,Reversal,2023.1.3,60.09416756052773,1,
2,exp1.png,exp2.png,,,,,,,,,,,,,,,,,,0,0,0,0,0,2,2,2,,,,,,,,,False,1,62,True,exp2.png,exp1.png,trial_right_image,-1,exp1.png,1,exp2.png,exp1.png,1,3,reversed,incorrect,0.07284525914278395,1,invalid_win,377.2376561000019,41,,,,,,,,,,,,,,,,,,sub_921,2024-03-11_13h31.21.850,Reversal,2023.1.3,60.09416756052773,1,
3,exp3.png,exp4.png,,,,,,,,,,,,,,,,,,0,0,0,0,0,3,3,3,,,,,,,,,False,2,63,True,exp4.png,exp3.png,trial_right_image,-1,exp3.png,1,exp3.png,exp4.png,1,1,non-reversed,correct,0.8353415525124555,1,valid_win,383.0691752999992,42,,,,,,,,,,,,,,,,,,sub_921,2024-03-11_13h31.21.850,Reversal,2023.1.3,60.09416756052773,1,
4,exp1.png,exp2.png,,,,,,,,,,,,,,,,,,0,0,0,0,0,4,4,4,,,,,,,,,False,3,64,False,exp1.png,exp2.png,trial_left_image,1,exp1.png,1,exp2.png,exp1.png,1,3,reversed,incorrect,0.6622920971976813,0,valid_lose,387.95080439999947,42,,,,,,,,,,,,,,,,,,sub_921,2024-03-11_13h31.21.850,Reversal,2023.1.3,60.09416756052773,1,
5,exp3.png,exp4.png,,,,,,,,,,,,,,,,,,0,0,0,0,0,5,5,5,,,,,,,,,False,4,65,False,exp3.png,exp4.png,trial_left_image,1,exp3.png,1,exp3.png,exp4.png,1,1,non-reversed,correct,0.5569847167852515,1,valid_win,398.0314639999997,43,,,,,,,,,,,,,,,,,,sub_921,2024-03-11_13h31.21.850,Reversal,2023.1.3,60.09416756052773,1,
6,exp1.png,exp2.png,,,,,,,,,,,,,,,,,,0,0,0,0,0,6,6,6,,,,,,,,,False,5,66,False,exp1.png,exp2.png,trial_left_image,1,exp1.png,1,exp2.png,exp1.png,1,3,reversed,incorrect,0.5778776170079343,0,valid_lose,402.3794412999996,43,,,,,,,,,,,,,,,,,,sub_921,2024-03-11_13h31.21.850,Reversal,2023.1.3,60.09416756052773,1,
7,exp3.png,exp4.png,,,,,,,,,,,,,,,,,,0,0,0,0,0,7,7,7,,,,,,,,,False,6,67,True,exp4.png,exp3.png,trial_right_image,-1,exp3.png,1,exp3.png,exp4.png,1,1,non-reversed,correct,0.7894330636439489,1,valid_win,406.99412550000125,44,,,,,,,,,,,,,,,,,,sub_921,2024-03-11_13h31.21.850,Reversal,2023.1.3,60.09416756052773,1,
8,exp1.png,exp2.png,,,,,,,,,,,,,,,,,,0,0,0,0,0,8,8,8,,,,,,,,,False,7,68,True,exp2.png,exp1.png,trial_left_image,1,exp2.png,1,exp2.png,exp1.png,0,4,reversed,correct,0.6343239787230639,1,valid_win,412.85879940000086,45,,,,,,,,,,,,,,,,,,sub_921,2024-03-11_13h31.21.850,Reversal,2023.1.3,60.09416756052773,1,
9,exp3.png,exp4.png,,,,,,,,,,,,,,,,,,0,0,0,0,0,9,9,9,,,,,,,,,False,8,69,True,exp4.png,exp3.png,trial_right_image,-1,exp3.png,1,exp3.png,exp4.png,1,1,non-reversed,correct,0.7070298466923017,1,valid_win,418.9397699000001,46,,,,,,,,,,,,,,,,,,sub_921,2024-03-11_13h31.21.850,Reversal,2023.1.3,60.09416756052773,1,
10,exp1.png,exp2.png,,,,,,,,,,,,,,,,,,0,0,0,0,0,10,10,10,,,,,,,,,False,9,70,False,exp1.png,exp2.png,trial_left_image,1,exp1.png,1,exp2.png,exp1.png,1,3,reversed,incorrect,0.18739432290350877,1,invalid_win,423.45490880000216,47,,,,,,,,,,,,,,,,,,sub_921,2024-03-11_13h31.21.850,Reversal,2023.1.3,60.09416756052773,1,
11,exp3.png,exp4.png,,,,,,,,,,,,,,,,,,0,0,0,0,0,11,11,11,,,,,,,,,False,10,71,True,exp4.png,exp3.png,trial_right_image,-1,exp3.png,1,exp3.png,exp4.png,1,1,non-reversed,correct,0.6458037227156576,1,valid_win,428.63683740000124,48,,,,,,,,,,,,,,,,,,sub_921,2024-03-11_13h31.21.850,Reversal,2023.1.3,60.09416756052773,1,
12,exp1.png,exp2.png,,,,,,,,,,,,,,,,,,0,0,0,0,0,12,12,12,,,,,,,,,False,11,72,True,exp2.png,exp1.png,trial_right_image,-1,exp1.png,1,exp2.png,exp1.png,1,3,reversed,incorrect,0.43920395008372726,0,valid_lose,432.7350576000026,48,,,,,,,,,,,,,,,,,,sub_921,2024-03-11_13h31.21.850,Reversal,2023.1.3,60.09416756052773,1,
13,exp3.png,exp4.png,,,,,,,,,,,,,,,,,,0,0,0,0,0,13,13,13,,,,,,,,,False,12,73,True,exp4.png,exp3.png,trial_right_image,-1,exp3.png,1,exp3.png,exp4.png,1,1,non-reversed,correct,0.024185720604576244,0,invalid_lose,437.8504663999993,48,,,,,,,,,,,,,,,,,,sub_921,2024-03-11_13h31.21.850,Reversal,2023.1.3,60.09416756052773,1,
14,exp1.png,exp2.png,,,,,,,,,,,,,,,,,,0,0,0,0,0,14,14,14,,,,,,,,,False,13,74,False,exp1.png,exp2.png,trial_right_image,-1,exp2.png,1,exp2.png,exp1.png,0,4,reversed,correct,0.9198909823223161,1,valid_win,442.0490430000027,49,,,,,,,,,,,,,,,,,,sub_921,2024-03-11_13h31.21.850,Reversal,2023.1.3,60.09416756052773,1,
15,exp3.png,exp4.png,,,,,,,,,,,,,,,,,,0,0,0,0,0,15,15,15,,,,,,,,,False,14,75,False,exp3.png,exp4.png,trial_left_image,1,exp3.png,1,exp3.png,exp4.png,1,1,non-reversed,correct,0.528768263596564,1,valid_win,446.76380810000046,50,,,,,,,,,,,,,,,,,,sub_921,2024-03-11_13h31.21.850,Reversal,2023.1.3,60.09416756052773,1,
16,exp1.png,exp2.png,,,,,,,,,,,,,,,,,,0,0,0,0,0,16,16,16,,,,,,,,,False,15,76,False,exp1.png,exp2.png,trial_right_image,-1,exp2.png,1,exp2.png,exp1.png,0,4,reversed,correct,0.13147609850503805,0,invalid_lose,453.0281701999993,50,,,,,,,,,,,,,,,,,,sub_921,2024-03-11_13h31.21.850,Reversal,2023.1.3,60.09416756052773,1,
17,exp3.png,exp4.png,,,,,,,,,,,,,,,,,,0,0,0,0,0,17,17,17,,,,,,,,,False,16,77,False,exp3.png,exp4.png,trial_right_image,-1,exp4.png,1,exp3.png,exp4.png,0,2,non-reversed,incorrect,0.33602881027835696,0,valid_lose,460.6261478000015,50,,,,,,,,,,,,,,,,,,sub_921,2024-03-11_13h31.21.850,Reversal,2023.1.3,60.09416756052773,1,
18,exp1.png,exp2.png,,,,,,,,,,,,,,,,,,0,0,0,0,0,18,18,18,,,,,,,,,False,17,78,True,exp2.png,exp1.png,trial_right_image,-1,exp1.png,1,exp2.png,exp1.png,1,3,reversed,incorrect,0.16607241488696944,1,invalid_win,464.65788800000155,51,,,,,,,,,,,,,,,,,,sub_921,2024-03-11_13h31.21.850,Reversal,2023.1.3,60.09416756052773,1,
19,exp3.png,exp4.png,,,,,,,,,,,,,,,,,,0,0,0,0,0,19,19,19,,,,,,,,,False,18,79,True,exp4.png,exp3.png,trial_right_image,-1,exp3.png,1,exp3.png,exp4.png,1,1,non-reversed,correct,0.05709639208215178,0,invalid_lose,469.55583520000073,51,,,,,,,,,,,,,,,,,,sub_921,2024-03-11_13h31.21.850,Reversal,2023.1.3,60.09416756052773,1,
20,exp1.png,exp2.png,,,,,,,,,,,,,,,,,,0,0,0,0,0,20,20,20,,,,,,,,,False,19,80,False,exp1.png,exp2.png,trial_left_image,1,exp1.png,1,exp2.png,exp1.png,1,3,reversed,incorrect,0.288714042762403,0,valid_lose,473.98790480000025,51,,,,,,,,,,,,,,,,,,sub_921,2024-03-11_13h31.21.850,Reversal,2023.1.3,60.09416756052773,1,
,,,exp1.png,,,,,,,,,,,,,,,,,0,0,0,0,,,,,0,0,0,0,0,0,0,0,,,,,,,,,,,,,,,,,,,,,,537.7712277999999,,None,None,[],,,,,,,,,,,,,sub_921,2024-03-11_13h31.21.850,Reversal,2023.1.3,60.09416756052773,1,
,,,exp2.png,,,,,,,,,,,,,,,,,0,0,0,0,,,,,0,0,0,0,0,1,1,1,,,,,,,,,,,,,,,,,,,,,,540.6883620000008,,None,None,[],,,,,,,,,,,,,sub_921,2024-03-11_13h31.21.850,Reversal,2023.1.3,60.09416756052773,1,
,,,exp3.png,,,,,,,,,,,,,,,,,0,0,0,0,,,,,0,0,0,0,0,2,2,2,,,,,,,,,,,,,,,,,,,,,,543.2199034000005,,None,None,[],,,,,,,,,,,,,sub_921,2024-03-11_13h31.21.850,Reversal,2023.1.3,60.09416756052773,1,
,,,exp4.png,,,,,,,,,,,,,,,,,0,0,0,0,,,,,0,0,0,0,0,3,3,3,,,,,,,,,,,,,,,,,,,,,,544.3864627000003,,None,None,[],,,,,,,,,,,,,sub_921,2024-03-11_13h31.21.850,Reversal,2023.1.3,60.09416756052773,1,
0,exp1.png,exp2.png,,,,,,,,,,,,,,,,,,1,0,1,0,0,0,0,0,,,,,,,,,True,,,,,,,,,,,,,,,,,,,,,,,,,,,,,,,,,,,,,,sub_921,2024-03-11_13h31.21.850,Reversal,2023.1.3,60.09416756052773,1,
1,exp3.png,exp4.png,,,,,,,,,,,,,,,,,,1,0,1,0,0,1,1,1,,,,,,,,,False,20,81,True,exp4.png,exp3.png,trial_right_image,-1,exp3.png,1,exp3.png,exp4.png,1,1,non-reversed,correct,0.14156413302148319,0,invalid_lose,487.58342579999953,51,,,,,,,,,,,,,,,,,,sub_921,2024-03-11_13h31.21.850,Reversal,2023.1.3,60.09416756052773,1,
2,exp1.png,exp2.png,,,,,,,,,,,,,,,,,,1,0,1,0,0,2,2,2,,,,,,,,,False,21,82,True,exp2.png,exp1.png,trial_left_image,1,exp2.png,1,exp2.png,exp1.png,0,4,reversed,correct,0.6704068398541098,1,valid_win,492.6984635000008,52,,,,,,,,,,,,,,,,,,sub_921,2024-03-11_13h31.21.850,Reversal,2023.1.3,60.09416756052773,1,
3,exp3.png,exp4.png,,,,,,,,,,,,,,,,,,1,0,1,0,0,3,3,3,,,,,,,,,False,22,83,False,exp3.png,exp4.png,trial_left_image,1,exp3.png,1,exp3.png,exp4.png,1,1,non-reversed,correct,0.1460179265894136,0,invalid_lose,497.9464289000025,52,,,,,,,,,,,,,,,,,,sub_921,2024-03-11_13h31.21.850,Reversal,2023.1.3,60.09416756052773,1,
4,exp1.png,exp2.png,,,,,,,,,,,,,,,,,,1,0,1,0,0,4,4,4,,,,,,,,,False,23,84,False,exp1.png,exp2.png,trial_left_image,1,exp1.png,1,exp2.png,exp1.png,1,3,reversed,incorrect,0.11038293423117895,1,invalid_win,503.0446268000014,53,,,,,,,,,,,,,,,,,,sub_921,2024-03-11_13h31.21.850,Reversal,2023.1.3,60.09416756052773,1,
5,exp3.png,exp4.png,,,,,,,,,,,,,,,,,,1,0,1,0,0,5,5,5,,,,,,,,,False,24,85,True,exp4.png,exp3.png,trial_left_image,1,exp4.png,1,exp3.png,exp4.png,0,2,non-reversed,incorrect,0.49841534566725265,0,valid_lose,508.5769093000017,53,,,,,,,,,,,,,,,,,,sub_921,2024-03-11_13h31.21.850,Reversal,2023.1.3,60.09416756052773,1,
6,exp1.png,exp2.png,,,,,,,,,,,,,,,,,,1,0,1,0,0,6,6,6,,,,,,,,,False,25,86,False,exp1.png,exp2.png,trial_left_image,1,exp1.png,1,exp2.png,exp1.png,1,3,reversed,incorrect,0.03914532075694488,1,invalid_win,513.3583261999993,54,,,,,,,,,,,,,,,,,,sub_921,2024-03-11_13h31.21.850,Reversal,2023.1.3,60.09416756052773,1,
7,exp3.png,exp4.png,,,,,,,,,,,,,,,,,,1,0,1,0,0,7,7,7,,,,,,,,,False,26,87,False,exp3.png,exp4.png,trial_right_image,-1,exp4.png,1,exp3.png,exp4.png,0,2,non-reversed,incorrect,0.14708713072330315,1,invalid_win,517.5233853999998,55,,,,,,,,,,,,,,,,,,sub_921,2024-03-11_13h31.21.850,Reversal,2023.1.3,60.09416756052773,1,
8,exp1.png,exp2.png,,,,,,,,,,,,,,,,,,1,0,1,0,0,8,8,8,,,,,,,,,False,27,88,True,exp2.png,exp1.png,trial_right_image,-1,exp1.png,1,exp2.png,exp1.png,1,3,reversed,incorrect,0.8857243978069502,0,valid_lose,525.5537751000011,55,,,,,,,,,,,,,,,,,,sub_921,2024-03-11_13h31.21.850,Reversal,2023.1.3,60.09416756052773,1,
9,exp3.png,exp4.png,,,,,,,,,,,,,,,,,,1,0,1,0,0,9,9,9,,,,,,,,,False,28,89,False,exp3.png,exp4.png,trial_left_image,1,exp3.png,1,exp3.png,exp4.png,1,1,non-reversed,correct,0.3826814532069016,1,valid_win,530.6852526000002,56,,,,,,,,,,,,,,,,,,sub_921,2024-03-11_13h31.21.850,Reversal,2023.1.3,60.09416756052773,1,
10,exp1.png,exp2.png,,,,,,,,,,,,,,,,,,1,0,1,0,0,10,10,10,,,,,,,,,False,29,90,False,exp1.png,exp2.png,trial_left_image,1,exp1.png,1,exp2.png,exp1.png,1,3,reversed,incorrect,0.37779415000725036,0,valid_lose,535.2174778000008,56,,,,,,,,,,,,,,,,,,sub_921,2024-03-11_13h31.21.850,Reversal,2023.1.3,60.09416756052773,1,
11,exp3.png,exp4.png,,,,,,,,,,,,,,,,,,1,0,1,0,0,11,11,11,,,,,,,,,False,30,91,True,exp4.png,exp3.png,trial_right_image,-1,exp3.png,1,exp3.png,exp4.png,1,1,non-reversed,correct,0.35890995673408743,1,valid_win,539.7155464999996,57,,,,,,,,,,,,,,,,,,sub_921,2024-03-11_13h31.21.850,Reversal,2023.1.3,60.09416756052773,1,
12,exp1.png,exp2.png,,,,,,,,,,,,,,,,,,1,0,1,0,0,12,12,12,,,,,,,,,False,31,92,True,exp2.png,exp1.png,trial_right_image,-1,exp1.png,1,exp2.png,exp1.png,1,3,reversed,incorrect,0.6629687920014689,0,valid_lose,544.2646497000023,57,,,,,,,,,,,,,,,,,,sub_921,2024-03-11_13h31.21.850,Reversal,2023.1.3,60.09416756052773,1,
13,exp3.png,exp4.png,,,,,,,,,,,,,,,,,,1,0,1,0,0,13,13,13,,,,,,,,,False,32,93,False,exp3.png,exp4.png,trial_left_image,1,exp3.png,1,exp3.png,exp4.png,1,1,non-reversed,correct,0.987604268439451,1,valid_win,548.7792941000007,58,,,,,,,,,,,,,,,,,,sub_921,2024-03-11_13h31.21.850,Reversal,2023.1.3,60.09416756052773,1,
14,exp1.png,exp2.png,,,,,,,,,,,,,,,,,,1,0,1,0,0,14,14,14,,,,,,,,,False,33,94,False,exp1.png,exp2.png,trial_right_image,-1,exp2.png,1,exp2.png,exp1.png,0,4,reversed,correct,0.5514008019409187,1,valid_win,552.8445561000008,59,,,,,,,,,,,,,,,,,,sub_921,2024-03-11_13h31.21.850,Reversal,2023.1.3,60.09416756052773,1,
15,exp3.png,exp4.png,,,,,,,,,,,,,,,,,,1,0,1,0,0,15,15,15,,,,,,,,,False,34,95,False,exp3.png,exp4.png,trial_left_image,1,exp3.png,1,exp3.png,exp4.png,1,1,non-reversed,correct,0.149619456207023,0,invalid_lose,557.6924958000018,59,,,,,,,,,,,,,,,,,,sub_921,2024-03-11_13h31.21.850,Reversal,2023.1.3,60.09416756052773,1,
16,exp1.png,exp2.png,,,,,,,,,,,,,,,,,,1,0,1,0,0,16,16,16,,,,,,,,,False,35,96,True,exp2.png,exp1.png,trial_left_image,1,exp2.png,1,exp2.png,exp1.png,0,4,reversed,correct,0.15786234116597775,0,invalid_lose,562.6583025,59,,,,,,,,,,,,,,,,,,sub_921,2024-03-11_13h31.21.850,Reversal,2023.1.3,60.09416756052773,1,
17,exp3.png,exp4.png,,,,,,,,,,,,,,,,,,1,0,1,0,0,17,17,17,,,,,,,,,False,36,97,True,exp4.png,exp3.png,trial_right_image,-1,exp3.png,1,exp3.png,exp4.png,1,1,non-reversed,correct,0.27639201795066826,1,valid_win,568.3059654999997,60,,,,,,,,,,,,,,,,,,sub_921,2024-03-11_13h31.21.850,Reversal,2023.1.3,60.09416756052773,1,
18,exp1.png,exp2.png,,,,,,,,,,,,,,,,,,1,0,1,0,0,18,18,18,,,,,,,,,False,37,98,False,exp1.png,exp2.png,trial_right_image,-1,exp2.png,1,exp2.png,exp1.png,0,4,reversed,correct,0.7747785766672636,1,valid_win,574.5374078000023,61,,,,,,,,,,,,,,,,,,sub_921,2024-03-11_13h31.21.850,Reversal,2023.1.3,60.09416756052773,1,
19,exp3.png,exp4.png,,,,,,,,,,,,,,,,,,1,0,1,0,0,19,19,19,,,,,,,,,False,38,99,True,exp4.png,exp3.png,trial_right_image,-1,exp3.png,1,exp3.png,exp4.png,1,1,non-reversed,correct,0.6467019575180515,1,valid_win,579.069102100002,62,,,,,,,,,,,,,,,,,,sub_921,2024-03-11_13h31.21.850,Reversal,2023.1.3,60.09416756052773,1,
20,exp1.png,exp2.png,,,,,,,,,,,,,,,,,,1,0,1,0,0,20,20,20,,,,,,,,,False,39,100,True,exp2.png,exp1.png,trial_left_image,1,exp2.png,1,exp2.png,exp1.png,0,4,reversed,correct,0.3965226864598874,1,valid_win,584.4838020999996,63,,,,,,,,,,,,,,,,,,sub_921,2024-03-11_13h31.21.850,Reversal,2023.1.3,60.09416756052773,1,
,,,exp1.png,,,,,,,,,,,,,,,,,1,0,1,0,,,,,0,0,0,0,0,0,0,0,,,,,,,,,,,,,,,,,,,,,,648.259528300001,18.0,18.0,3.6554725999994844,"[(18.0, 3.6554725999994844)]",,,,,,,,,,,,,sub_921,2024-03-11_13h31.21.850,Reversal,2023.1.3,60.09416756052773,1,
,,,exp2.png,,,,,,,,,,,,,,,,,1,0,1,0,,,,,0,0,0,0,0,1,1,1,,,,,,,,,,,,,,,,,,,,,,652.9823065000019,,79.0,2.2602076000002853,"[(79.0, 2.2602076000002853)]",79.0,,,,,,,,,,,,sub_921,2024-03-11_13h31.21.850,Reversal,2023.1.3,60.09416756052773,1,
,,,exp3.png,,,,,,,,,,,,,,,,,1,0,1,0,,,,,0,0,0,0,0,2,2,2,,,,,,,,,,,,,,,,,,,,,,656.1639963000016,,79.0,2.6600422999981674,"[(79.0, 2.6600422999981674)]",,79.0,,,,,,,,,,,sub_921,2024-03-11_13h31.21.850,Reversal,2023.1.3,60.09416756052773,1,
,,,exp4.png,,,,,,,,,,,,,,,,,1,0,1,0,,,,,0,0,0,0,0,3,3,3,,,,,,,,,,,,,,,,,,,,,,659.8644404000006,,17.0,1.4426344000021345,"[(17.0, 1.4426344000021345)]",,,17.0,,,,,,,,,,sub_921,2024-03-11_13h31.21.850,Reversal,2023.1.3,60.09416756052773,1,
0,exp1.png,exp2.png,,,,,,,,,,,,,,,,,,2,0,2,0,0,0,0,0,,,,,,,,,True,,,,,,,,,,,,,,,,,,,,,,,,,,,,,,,,,,,,,,sub_921,2024-03-11_13h31.21.850,Reversal,2023.1.3,60.09416756052773,1,
1,exp3.png,exp4.png,,,,,,,,,,,,,,,,,,2,0,2,0,0,1,1,1,,,,,,,,,False,40,101,True,exp4.png,exp3.png,trial_right_image,-1,exp3.png,1,exp3.png,exp4.png,1,1,non-reversed,correct,0.8675933050851402,1,valid_win,603.3439177,64,,,,,,,,,,,,,,,,,,sub_921,2024-03-11_13h31.21.850,Reversal,2023.1.3,60.09416756052773,1,
2,exp1.png,exp2.png,,,,,,,,,,,,,,,,,,2,0,2,0,0,2,2,2,,,,,,,,,False,41,102,True,exp2.png,exp1.png,trial_right_image,-1,exp1.png,1,exp2.png,exp1.png,1,3,reversed,incorrect,0.25311046795518144,0,valid_lose,608.1925611000006,64,,,,,,,,,,,,,,,,,,sub_921,2024-03-11_13h31.21.850,Reversal,2023.1.3,60.09416756052773,1,
3,exp3.png,exp4.png,,,,,,,,,,,,,,,,,,2,0,2,0,0,3,3,3,,,,,,,,,False,42,103,False,exp3.png,exp4.png,trial_left_image,1,exp3.png,1,exp3.png,exp4.png,1,1,non-reversed,correct,0.5474431384341617,1,valid_win,612.4741385000016,65,,,,,,,,,,,,,,,,,,sub_921,2024-03-11_13h31.21.850,Reversal,2023.1.3,60.09416756052773,1,
4,exp1.png,exp2.png,,,,,,,,,,,,,,,,,,2,0,2,0,0,4,4,4,,,,,,,,,False,43,104,True,exp2.png,exp1.png,trial_left_image,1,exp2.png,1,exp2.png,exp1.png,0,4,reversed,correct,0.3789739912296157,1,valid_win,616.4562542000021,66,,,,,,,,,,,,,,,,,,sub_921,2024-03-11_13h31.21.850,Reversal,2023.1.3,60.09416756052773,1,
5,exp3.png,exp4.png,,,,,,,,,,,,,,,,,,2,0,2,0,0,5,5,5,,,,,,,,,False,44,105,True,exp4.png,exp3.png,trial_right_image,-1,exp3.png,1,exp3.png,exp4.png,1,1,non-reversed,correct,0.2048677702207986,0,invalid_lose,621.2544543000004,66,,,,,,,,,,,,,,,,,,sub_921,2024-03-11_13h31.21.850,Reversal,2023.1.3,60.09416756052773,1,
6,exp1.png,exp2.png,,,,,,,,,,,,,,,,,,2,0,2,0,0,6,6,6,,,,,,,,,False,45,106,True,exp2.png,exp1.png,trial_left_image,1,exp2.png,1,exp2.png,exp1.png,0,4,reversed,correct,0.13317655207014378,0,invalid_lose,625.8694794000003,66,,,,,,,,,,,,,,,,,,sub_921,2024-03-11_13h31.21.850,Reversal,2023.1.3,60.09416756052773,1,
7,exp3.png,exp4.png,,,,,,,,,,,,,,,,,,2,0,2,0,0,7,7,7,,,,,,,,,False,46,107,False,exp3.png,exp4.png,trial_left_image,1,exp3.png,1,exp3.png,exp4.png,1,1,non-reversed,correct,0.10035983517992164,0,invalid_lose,631.4010278999995,66,,,,,,,,,,,,,,,,,,sub_921,2024-03-11_13h31.21.850,Reversal,2023.1.3,60.09416756052773,1,
8,exp1.png,exp2.png,,,,,,,,,,,,,,,,,,2,0,2,0,0,8,8,8,,,,,,,,,False,47,108,False,exp1.png,exp2.png,trial_right_image,-1,exp2.png,1,exp2.png,exp1.png,0,4,reversed,correct,0.6556570536074164,1,valid_win,635.8662762000022,67,,,,,,,,,,,,,,,,,,sub_921,2024-03-11_13h31.21.850,Reversal,2023.1.3,60.09416756052773,1,
9,exp3.png,exp4.png,,,,,,,,,,,,,,,,,,2,0,2,0,0,9,9,9,,,,,,,,,False,48,109,True,exp4.png,exp3.png,trial_left_image,1,exp4.png,1,exp3.png,exp4.png,0,2,non-reversed,incorrect,0.8929008890073324,0,valid_lose,641.8639590000021,67,,,,,,,,,,,,,,,,,,sub_921,2024-03-11_13h31.21.850,Reversal,2023.1.3,60.09416756052773,1,
10,exp1.png,exp2.png,,,,,,,,,,,,,,,,,,2,0,2,0,0,10,10,10,,,,,,,,,False,49,110,False,exp1.png,exp2.png,trial_right_image,-1,exp2.png,1,exp2.png,exp1.png,0,4,reversed,correct,0.6687093875755558,1,valid_win,646.4958993,68,,,,,,,,,,,,,,,,,,sub_921,2024-03-11_13h31.21.850,Reversal,2023.1.3,60.09416756052773,1,
11,exp3.png,exp4.png,,,,,,,,,,,,,,,,,,2,0,2,0,0,11,11,11,,,,,,,,,False,50,111,True,exp4.png,exp3.png,trial_right_image,-1,exp3.png,1,exp3.png,exp4.png,1,1,non-reversed,correct,0.011621378203779065,0,invalid_lose,650.5279936000006,68,,,,,,,,,,,,,,,,,,sub_921,2024-03-11_13h31.21.850,Reversal,2023.1.3,60.09416756052773,1,
12,exp1.png,exp2.png,,,,,,,,,,,,,,,,,,2,0,2,0,0,12,12,12,,,,,,,,,False,51,112,False,exp1.png,exp2.png,trial_right_image,-1,exp2.png,1,exp2.png,exp1.png,0,4,reversed,correct,0.6500869917766097,1,valid_win,655.7926640000005,69,,,,,,,,,,,,,,,,,,sub_921,2024-03-11_13h31.21.850,Reversal,2023.1.3,60.09416756052773,1,
13,exp3.png,exp4.png,,,,,,,,,,,,,,,,,,2,0,2,0,0,13,13,13,,,,,,,,,False,52,113,True,exp4.png,exp3.png,trial_right_image,-1,exp3.png,1,exp3.png,exp4.png,1,1,non-reversed,correct,0.835729612290542,1,valid_win,661.1243035000007,70,,,,,,,,,,,,,,,,,,sub_921,2024-03-11_13h31.21.850,Reversal,2023.1.3,60.09416756052773,1,
14,exp1.png,exp2.png,,,,,,,,,,,,,,,,,,2,0,2,0,0,14,14,14,,,,,,,,,False,53,114,False,exp1.png,exp2.png,trial_right_image,-1,exp2.png,1,exp2.png,exp1.png,0,4,reversed,correct,0.4606873247266092,1,valid_win,665.4896311000011,71,,,,,,,,,,,,,,,,,,sub_921,2024-03-11_13h31.21.850,Reversal,2023.1.3,60.09416756052773,1,
15,exp3.png,exp4.png,,,,,,,,,,,,,,,,,,2,0,2,0,0,15,15,15,,,,,,,,,False,54,115,False,exp3.png,exp4.png,trial_right_image,-1,exp4.png,1,exp3.png,exp4.png,0,2,non-reversed,incorrect,0.8005458090485517,0,valid_lose,671.0878178999992,71,,,,,,,,,,,,,,,,,,sub_921,2024-03-11_13h31.21.850,Reversal,2023.1.3,60.09416756052773,1,
16,exp1.png,exp2.png,,,,,,,,,,,,,,,,,,2,0,2,0,0,16,16,16,,,,,,,,,False,55,116,True,exp2.png,exp1.png,trial_right_image,-1,exp1.png,1,exp2.png,exp1.png,1,3,reversed,incorrect,0.4199320603616481,0,valid_lose,675.2030100000011,71,,,,,,,,,,,,,,,,,,sub_921,2024-03-11_13h31.21.850,Reversal,2023.1.3,60.09416756052773,1,
17,exp3.png,exp4.png,,,,,,,,,,,,,,,,,,2,0,2,0,0,17,17,17,,,,,,,,,False,56,117,True,exp4.png,exp3.png,trial_right_image,-1,exp3.png,1,exp3.png,exp4.png,1,1,non-reversed,correct,0.7409170966668078,1,valid_win,679.9011768000018,72,,,,,,,,,,,,,,,,,,sub_921,2024-03-11_13h31.21.850,Reversal,2023.1.3,60.09416756052773,1,
18,exp1.png,exp2.png,,,,,,,,,,,,,,,,,,2,0,2,0,0,18,18,18,,,,,,,,,False,57,118,False,exp1.png,exp2.png,trial_right_image,-1,exp2.png,1,exp2.png,exp1.png,0,4,reversed,correct,0.34255635101025694,1,valid_win,687.0152591000005,73,,,,,,,,,,,,,,,,,,sub_921,2024-03-11_13h31.21.850,Reversal,2023.1.3,60.09416756052773,1,
19,exp3.png,exp4.png,,,,,,,,,,,,,,,,,,2,0,2,0,0,19,19,19,,,,,,,,,False,58,119,False,exp3.png,exp4.png,trial_left_image,1,exp3.png,1,exp3.png,exp4.png,1,1,non-reversed,correct,0.9528953999490206,1,valid_win,691.3804971000027,74,,,,,,,,,,,,,,,,,,sub_921,2024-03-11_13h31.21.850,Reversal,2023.1.3,60.09416756052773,1,
20,exp1.png,exp2.png,,,,,,,,,,,,,,,,,,2,0,2,0,0,20,20,20,,,,,,,,,False,59,120,False,exp1.png,exp2.png,trial_right_image,-1,exp2.png,1,exp2.png,exp1.png,0,4,reversed,correct,0.1671664465336008,0,invalid_lose,696.2464005000002,74,,,,,,,,,,,,,,,,,,sub_921,2024-03-11_13h31.21.850,Reversal,2023.1.3,60.09416756052773,1,
,,,exp1.png,,,,,,,,,,,,,,,,,2,0,2,0,,,,,0,0,0,0,0,0,0,0,,,,,,,,,,,,,,,,,,,,,,760.0203402000006,13.0,13.0,3.054799900000944,"[(13.0, 3.054799900000944)]",,,,,,,,,,,,,sub_921,2024-03-11_13h31.21.850,Reversal,2023.1.3,60.09416756052773,1,
,,,exp2.png,,,,,,,,,,,,,,,,,2,0,2,0,,,,,0,0,0,0,0,1,1,1,,,,,,,,,,,,,,,,,,,,,,765.7932082000007,,85.0,1.31185959999857,"[(85.0, 1.31185959999857)]",85.0,,,,,,,,,,,,sub_921,2024-03-11_13h31.21.850,Reversal,2023.1.3,60.09416756052773,1,
,,,exp3.png,,,,,,,,,,,,,,,,,2,0,2,0,,,,,0,0,0,0,0,2,2,2,,,,,,,,,,,,,,,,,,,,,,769.4236907000013,,None,None,[],,,,,,,,,,,,,sub_921,2024-03-11_13h31.21.850,Reversal,2023.1.3,60.09416756052773,1,
,,,exp4.png,,,,,,,,,,,,,,,,,2,0,2,0,,,,,0,0,0,0,0,3,3,3,,,,,,,,,,,,,,,,,,,,,,770.9414926999998,,None,None,[],,,,,,,,,,,,,sub_921,2024-03-11_13h31.21.850,Reversal,2023.1.3,60.09416756052773,1,
,,,,,,,,,,,,,,,,,,,,,,,,,,,,,,,,,,,,,,,,,,,,,,,,,,,,,,,,74,,,,,,,,,,88,48,40,343.68680999999924,0,space,57.58087829999931,None,sub_921,2024-03-11_13h31.21.850,Reversal,2023.1.3,60.09416756052773,1,
