trial_index,trial_image1_file,trial_image2_file,image_file,learning_outer_loop.thisRepN,learning_outer_loop.thisTrialN,learning_outer_loop.thisN,learning_outer_loop.thisIndex,learning_inner_loop.thisRepN,learning_inner_loop.thisTrialN,learning_inner_loop.thisN,learning_inner_loop.thisIndex,learning_estimation_outer_loop.thisRepN,learning_estimation_outer_loop.thisTrialN,learning_estimation_outer_loop.thisN,learning_estimation_outer_loop.thisIndex,learning_estimation_inner_loop.thisRepN,learning_estimation_inner_loop.thisTrialN,learning_estimation_inner_loop.thisN,learning_estimation_inner_loop.thisIndex,reversal_outer_loop.thisRepN,reversal_outer_loop.thisTrialN,reversal_outer_loop.thisN,reversal_outer_loop.thisIndex,reversal_inner_loop.thisRepN,reversal_inner_loop.thisTrialN,reversal_inner_loop.thisN,reversal_inner_loop.thisIndex,reversal_estimation_outer_loop.thisRepN,reversal_estimation_outer_loop.thisTrialN,reversal_estimation_outer_loop.thisN,reversal_estimation_outer_loop.thisIndex,reversal_estimation_inner_loop.thisRepN,reversal_estimation_inner_loop.thisTrialN,reversal_estimation_inner_loop.thisN,reversal_estimation_inner_loop.thisIndex,skipped,total_trial_counter,trial_num,left_right_flip,left_image_file,right_image_file,clicked_stimulus_side,side,clicked_stimulus,version,high_prob_image_file,low_prob_image_file,choice_a,choice_b,pair_type,correct,trial_feedback_random,reward,trial_type,overall_time_after_trial,score,estimation_rating.response,estimation_rating.rt,estimation_rating.history,estimation_rating.started,estimation_rating.stopped,total_learning_time,estimation_exp1.png,estimation_exp2.png,estimation_exp3.png,estimation_exp4.png,total_correct,learning_correct,reversal_correct,total_reversal_time,extra_block,participant,date,expName,psychopyVersion,frameRate,ver,
0,exp1.png,exp2.png,,0,0,0,0,0,0,0,0,,,,,,,,,,,,,,,,,,,,,,,,,False,0,1,True,exp2.png,exp1.png,trial_left_image,1,exp2.png,1,exp1.png,exp2.png,0,4,reversed,incorrect,0.8192631777111615,0,valid_lose,10.812698800000362,0,,,,,,,,,,,,,,,,sub_177,2022-09-20_15h58.31.952,Reversal,2022.1.1,60.06633726299804,1,
1,exp3.png,exp4.png,,0,0,0,0,0,1,1,1,,,,,,,,,,,,,,,,,,,,,,,,,False,1,2,False,exp3.png,exp4.png,trial_right_image,-1,exp4.png,1,exp3.png,exp4.png,0,2,non-reversed,incorrect,0.47550602617768867,0,valid_lose,40.87824819999969,0,,,,,,,,,,,,,,,,sub_177,2022-09-20_15h58.31.952,Reversal,2022.1.1,60.06633726299804,1,
2,exp1.png,exp2.png,,0,0,0,0,0,2,2,2,,,,,,,,,,,,,,,,,,,,,,,,,False,2,3,False,exp1.png,exp2.png,trial_left_image,1,exp1.png,1,exp1.png,exp2.png,1,3,reversed,correct,0.6874406204660215,1,valid_win,56.266645300000164,1,,,,,,,,,,,,,,,,sub_177,2022-09-20_15h58.31.952,Reversal,2022.1.1,60.06633726299804,1,
3,exp3.png,exp4.png,,0,0,0,0,0,3,3,3,,,,,,,,,,,,,,,,,,,,,,,,,False,3,4,True,exp4.png,exp3.png,trial_right_image,-1,exp3.png,1,exp3.png,exp4.png,1,1,non-reversed,correct,0.12310190955324585,0,invalid_lose,61.93028049999975,1,,,,,,,,,,,,,,,,sub_177,2022-09-20_15h58.31.952,Reversal,2022.1.1,60.06633726299804,1,
4,exp1.png,exp2.png,,0,0,0,0,0,4,4,4,,,,,,,,,,,,,,,,,,,,,,,,,False,4,5,True,exp2.png,exp1.png,trial_right_image,-1,exp1.png,1,exp1.png,exp2.png,1,3,reversed,correct,0.44412588218908744,1,valid_win,69.73088209999969,2,,,,,,,,,,,,,,,,sub_177,2022-09-20_15h58.31.952,Reversal,2022.1.1,60.06633726299804,1,
5,exp3.png,exp4.png,,0,0,0,0,0,5,5,5,,,,,,,,,,,,,,,,,,,,,,,,,False,5,6,True,exp4.png,exp3.png,trial_right_image,-1,exp3.png,1,exp3.png,exp4.png,1,1,non-reversed,correct,0.048499368409416044,0,invalid_lose,76.5116909999997,2,,,,,,,,,,,,,,,,sub_177,2022-09-20_15h58.31.952,Reversal,2022.1.1,60.06633726299804,1,
6,exp1.png,exp2.png,,0,0,0,0,0,6,6,6,,,,,,,,,,,,,,,,,,,,,,,,,False,6,7,False,exp1.png,exp2.png,trial_left_image,1,exp1.png,1,exp1.png,exp2.png,1,3,reversed,correct,0.28931990769653637,1,valid_win,90.22699980000016,3,,,,,,,,,,,,,,,,sub_177,2022-09-20_15h58.31.952,Reversal,2022.1.1,60.06633726299804,1,
7,exp3.png,exp4.png,,0,0,0,0,0,7,7,7,,,,,,,,,,,,,,,,,,,,,,,,,False,7,8,True,exp4.png,exp3.png,trial_left_image,1,exp4.png,1,exp3.png,exp4.png,0,2,non-reversed,incorrect,0.6912283276677955,0,valid_lose,98.6610725999999,3,,,,,,,,,,,,,,,,sub_177,2022-09-20_15h58.31.952,Reversal,2022.1.1,60.06633726299804,1,
8,exp1.png,exp2.png,,0,0,0,0,0,8,8,8,,,,,,,,,,,,,,,,,,,,,,,,,False,8,9,False,exp1.png,exp2.png,trial_left_image,1,exp1.png,1,exp1.png,exp2.png,1,3,reversed,correct,0.2199494981685779,0,invalid_lose,103.85859979999987,3,,,,,,,,,,,,,,,,sub_177,2022-09-20_15h58.31.952,Reversal,2022.1.1,60.06633726299804,1,
9,exp3.png,exp4.png,,0,0,0,0,0,9,9,9,,,,,,,,,,,,,,,,,,,,,,,,,False,9,10,False,exp3.png,exp4.png,trial_left_image,1,exp3.png,1,exp3.png,exp4.png,1,1,non-reversed,correct,0.08004264376023085,0,invalid_lose,108.22915680000006,3,,,,,,,,,,,,,,,,sub_177,2022-09-20_15h58.31.952,Reversal,2022.1.1,60.06633726299804,1,
10,exp1.png,exp2.png,,0,0,0,0,0,10,10,10,,,,,,,,,,,,,,,,,,,,,,,,,False,10,11,True,exp2.png,exp1.png,trial_left_image,1,exp2.png,1,exp1.png,exp2.png,0,4,reversed,incorrect,0.3036113332866669,0,valid_lose,112.82367260000046,3,,,,,,,,,,,,,,,,sub_177,2022-09-20_15h58.31.952,Reversal,2022.1.1,60.06633726299804,1,
11,exp3.png,exp4.png,,0,0,0,0,0,11,11,11,,,,,,,,,,,,,,,,,,,,,,,,,False,11,12,False,exp3.png,exp4.png,trial_right_image,-1,exp4.png,1,exp3.png,exp4.png,0,2,non-reversed,incorrect,0.4607134785102026,0,valid_lose,117.40606019999996,3,,,,,,,,,,,,,,,,sub_177,2022-09-20_15h58.31.952,Reversal,2022.1.1,60.06633726299804,1,
12,exp1.png,exp2.png,,0,0,0,0,0,12,12,12,,,,,,,,,,,,,,,,,,,,,,,,,False,12,13,True,exp2.png,exp1.png,trial_right_image,-1,exp1.png,1,exp1.png,exp2.png,1,3,reversed,correct,0.07968261042602176,0,invalid_lose,123.67408570000043,3,,,,,,,,,,,,,,,,sub_177,2022-09-20_15h58.31.952,Reversal,2022.1.1,60.06633726299804,1,
13,exp3.png,exp4.png,,0,0,0,0,0,13,13,13,,,,,,,,,,,,,,,,,,,,,,,,,False,13,14,True,exp4.png,exp3.png,trial_left_image,1,exp4.png,1,exp3.png,exp4.png,0,2,non-reversed,incorrect,0.7814643397679142,0,valid_lose,127.8888022000001,3,,,,,,,,,,,,,,,,sub_177,2022-09-20_15h58.31.952,Reversal,2022.1.1,60.06633726299804,1,
14,exp1.png,exp2.png,,0,0,0,0,0,14,14,14,,,,,,,,,,,,,,,,,,,,,,,,,False,14,15,False,exp1.png,exp2.png,trial_left_image,1,exp1.png,1,exp1.png,exp2.png,1,3,reversed,correct,0.1005867243664601,0,invalid_lose,132.70722230000047,3,,,,,,,,,,,,,,,,sub_177,2022-09-20_15h58.31.952,Reversal,2022.1.1,60.06633726299804,1,
15,exp3.png,exp4.png,,0,0,0,0,0,15,15,15,,,,,,,,,,,,,,,,,,,,,,,,,False,15,16,False,exp3.png,exp4.png,trial_right_image,-1,exp4.png,1,exp3.png,exp4.png,0,2,non-reversed,incorrect,0.7179732782282362,0,valid_lose,137.03854109999975,3,,,,,,,,,,,,,,,,sub_177,2022-09-20_15h58.31.952,Reversal,2022.1.1,60.06633726299804,1,
16,exp1.png,exp2.png,,0,0,0,0,0,16,16,16,,,,,,,,,,,,,,,,,,,,,,,,,False,16,17,False,exp1.png,exp2.png,trial_left_image,1,exp1.png,1,exp1.png,exp2.png,1,3,reversed,correct,0.8552310068638111,1,valid_win,147.48800910000045,4,,,,,,,,,,,,,,,,sub_177,2022-09-20_15h58.31.952,Reversal,2022.1.1,60.06633726299804,1,
17,exp3.png,exp4.png,,0,0,0,0,0,17,17,17,,,,,,,,,,,,,,,,,,,,,,,,,False,17,18,True,exp4.png,exp3.png,trial_left_image,1,exp4.png,1,exp3.png,exp4.png,0,2,non-reversed,incorrect,0.20627684060636098,1,invalid_win,155.26954579999983,5,,,,,,,,,,,,,,,,sub_177,2022-09-20_15h58.31.952,Reversal,2022.1.1,60.06633726299804,1,
18,exp1.png,exp2.png,,0,0,0,0,0,18,18,18,,,,,,,,,,,,,,,,,,,,,,,,,False,18,19,False,exp1.png,exp2.png,trial_left_image,1,exp1.png,1,exp1.png,exp2.png,1,3,reversed,correct,0.476598675264968,1,valid_win,163.73593940000046,6,,,,,,,,,,,,,,,,sub_177,2022-09-20_15h58.31.952,Reversal,2022.1.1,60.06633726299804,1,
19,exp3.png,exp4.png,,0,0,0,0,0,19,19,19,,,,,,,,,,,,,,,,,,,,,,,,,False,19,20,True,exp4.png,exp3.png,trial_left_image,1,exp4.png,1,exp3.png,exp4.png,0,2,non-reversed,incorrect,0.21774946068765477,1,invalid_win,169.60107940000034,7,,,,,,,,,,,,,,,,sub_177,2022-09-20_15h58.31.952,Reversal,2022.1.1,60.06633726299804,1,
20,exp1.png,exp2.png,,0,0,0,0,0,20,20,20,,,,,,,,,,,,,,,,,,,,,,,,,True,,,,,,,,,,,,,,,,,,,,,,,,,,,,,,,,,,,,sub_177,2022-09-20_15h58.31.952,Reversal,2022.1.1,60.06633726299804,1,
,,,exp1.png,0,0,0,0,,,,,0,0,0,0,0,0,0,0,,,,,,,,,,,,,,,,,,,,,,,,,,,,,,,,,,,,,,50.0,None,[],247.6352467000006,None,,,,,,,,,,,sub_177,2022-09-20_15h58.31.952,Reversal,2022.1.1,60.06633726299804,1,
,,,exp2.png,0,0,0,0,,,,,0,0,0,0,0,1,1,1,,,,,,,,,,,,,,,,,,,,,,,,,,,,,,,,,,,,,,50.0,None,[],253.69870150000042,None,,,,,,,,,,,sub_177,2022-09-20_15h58.31.952,Reversal,2022.1.1,60.06633726299804,1,
,,,exp3.png,0,0,0,0,,,,,0,0,0,0,0,2,2,2,,,,,,,,,,,,,,,,,,,,,,,,,,,,,,,,,,,,,,50.0,None,[],257.24891470000057,None,,,,,,,,,,,sub_177,2022-09-20_15h58.31.952,Reversal,2022.1.1,60.06633726299804,1,
,,,exp4.png,0,0,0,0,,,,,0,0,0,0,0,3,3,3,,,,,,,,,,,,,,,,,,,,,,,,,,,,,,,,,,,,,,50.0,None,[],259.6705451000007,None,,,,,,,,,,,sub_177,2022-09-20_15h58.31.952,Reversal,2022.1.1,60.06633726299804,1,
0,exp1.png,exp2.png,,1,0,1,0,0,0,0,0,,,,,,,,,,,,,,,,,,,,,,,,,False,20,21,False,exp1.png,exp2.png,trial_left_image,1,exp1.png,1,exp1.png,exp2.png,1,3,reversed,correct,0.9616661433509675,1,valid_win,190.36436560000038,8,,,,,,,,,,,,,,,,sub_177,2022-09-20_15h58.31.952,Reversal,2022.1.1,60.06633726299804,1,
1,exp3.png,exp4.png,,1,0,1,0,0,1,1,1,,,,,,,,,,,,,,,,,,,,,,,,,False,21,22,False,exp3.png,exp4.png,trial_left_image,1,exp3.png,1,exp3.png,exp4.png,1,1,non-reversed,correct,0.48802769355167297,1,valid_win,195.57086290000007,9,,,,,,,,,,,,,,,,sub_177,2022-09-20_15h58.31.952,Reversal,2022.1.1,60.06633726299804,1,
2,exp1.png,exp2.png,,1,0,1,0,0,2,2,2,,,,,,,,,,,,,,,,,,,,,,,,,False,22,23,True,exp2.png,exp1.png,trial_left_image,1,exp2.png,1,exp1.png,exp2.png,0,4,reversed,incorrect,0.48509635206241475,0,valid_lose,202.93000329999995,9,,,,,,,,,,,,,,,,sub_177,2022-09-20_15h58.31.952,Reversal,2022.1.1,60.06633726299804,1,
3,exp3.png,exp4.png,,1,0,1,0,0,3,3,3,,,,,,,,,,,,,,,,,,,,,,,,,False,23,24,True,exp4.png,exp3.png,trial_left_image,1,exp4.png,1,exp3.png,exp4.png,0,2,non-reversed,incorrect,0.6402449464949815,0,valid_lose,208.7640704000005,9,,,,,,,,,,,,,,,,sub_177,2022-09-20_15h58.31.952,Reversal,2022.1.1,60.06633726299804,1,
4,exp1.png,exp2.png,,1,0,1,0,0,4,4,4,,,,,,,,,,,,,,,,,,,,,,,,,False,24,25,False,exp1.png,exp2.png,trial_left_image,1,exp1.png,1,exp1.png,exp2.png,1,3,reversed,correct,0.4062042997164489,1,valid_win,215.69509870000002,10,,,,,,,,,,,,,,,,sub_177,2022-09-20_15h58.31.952,Reversal,2022.1.1,60.06633726299804,1,
5,exp3.png,exp4.png,,1,0,1,0,0,5,5,5,,,,,,,,,,,,,,,,,,,,,,,,,False,25,26,False,exp3.png,exp4.png,trial_left_image,1,exp3.png,1,exp3.png,exp4.png,1,1,non-reversed,correct,0.3984145021295079,1,valid_win,222.17903780000051,11,,,,,,,,,,,,,,,,sub_177,2022-09-20_15h58.31.952,Reversal,2022.1.1,60.06633726299804,1,
6,exp1.png,exp2.png,,1,0,1,0,0,6,6,6,,,,,,,,,,,,,,,,,,,,,,,,,False,26,27,False,exp1.png,exp2.png,trial_left_image,1,exp1.png,1,exp1.png,exp2.png,1,3,reversed,correct,0.24251264103236114,0,invalid_lose,229.44352660000004,11,,,,,,,,,,,,,,,,sub_177,2022-09-20_15h58.31.952,Reversal,2022.1.1,60.06633726299804,1,
7,exp3.png,exp4.png,,1,0,1,0,0,7,7,7,,,,,,,,,,,,,,,,,,,,,,,,,False,27,28,True,exp4.png,exp3.png,trial_left_image,1,exp4.png,1,exp3.png,exp4.png,0,2,non-reversed,incorrect,0.7426872624344937,0,valid_lose,234.9928928999998,11,,,,,,,,,,,,,,,,sub_177,2022-09-20_15h58.31.952,Reversal,2022.1.1,60.06633726299804,1,
8,exp1.png,exp2.png,,1,0,1,0,0,8,8,8,,,,,,,,,,,,,,,,,,,,,,,,,False,28,29,False,exp1.png,exp2.png,trial_left_image,1,exp1.png,1,exp1.png,exp2.png,1,3,reversed,correct,0.31488981399437155,1,valid_win,241.57495710000057,12,,,,,,,,,,,,,,,,sub_177,2022-09-20_15h58.31.952,Reversal,2022.1.1,60.06633726299804,1,
9,exp3.png,exp4.png,,1,0,1,0,0,9,9,9,,,,,,,,,,,,,,,,,,,,,,,,,False,29,30,True,exp4.png,exp3.png,trial_right_image,-1,exp3.png,1,exp3.png,exp4.png,1,1,non-reversed,correct,0.6364508047568823,1,valid_win,253.65670279999995,13,,,,,,,,,,,,,,,,sub_177,2022-09-20_15h58.31.952,Reversal,2022.1.1,60.06633726299804,1,
10,exp1.png,exp2.png,,1,0,1,0,0,10,10,10,,,,,,,,,,,,,,,,,,,,,,,,,False,30,31,True,exp2.png,exp1.png,trial_left_image,1,exp2.png,1,exp1.png,exp2.png,0,4,reversed,incorrect,0.6351641612672018,0,valid_lose,259.8893415000002,13,,,,,,,,,,,,,,,,sub_177,2022-09-20_15h58.31.952,Reversal,2022.1.1,60.06633726299804,1,
11,exp3.png,exp4.png,,1,0,1,0,0,11,11,11,,,,,,,,,,,,,,,,,,,,,,,,,False,31,32,True,exp4.png,exp3.png,trial_right_image,-1,exp3.png,1,exp3.png,exp4.png,1,1,non-reversed,correct,0.9776485610508896,1,valid_win,265.4386145999997,14,,,,,,,,,,,,,,,,sub_177,2022-09-20_15h58.31.952,Reversal,2022.1.1,60.06633726299804,1,
12,exp1.png,exp2.png,,1,0,1,0,0,12,12,12,,,,,,,,,,,,,,,,,,,,,,,,,False,32,33,False,exp1.png,exp2.png,trial_right_image,-1,exp2.png,1,exp1.png,exp2.png,0,4,reversed,incorrect,0.021971857799268024,1,invalid_win,271.7860889000003,15,,,,,,,,,,,,,,,,sub_177,2022-09-20_15h58.31.952,Reversal,2022.1.1,60.06633726299804,1,
13,exp3.png,exp4.png,,1,0,1,0,0,13,13,13,,,,,,,,,,,,,,,,,,,,,,,,,False,33,34,False,exp3.png,exp4.png,trial_left_image,1,exp3.png,1,exp3.png,exp4.png,1,1,non-reversed,correct,0.4905617798781867,1,valid_win,277.47019610000007,16,,,,,,,,,,,,,,,,sub_177,2022-09-20_15h58.31.952,Reversal,2022.1.1,60.06633726299804,1,
14,exp1.png,exp2.png,,1,0,1,0,0,14,14,14,,,,,,,,,,,,,,,,,,,,,,,,,False,34,35,True,exp2.png,exp1.png,trial_left_image,1,exp2.png,1,exp1.png,exp2.png,0,4,reversed,incorrect,0.576348886242393,0,valid_lose,284.3872257000003,16,,,,,,,,,,,,,,,,sub_177,2022-09-20_15h58.31.952,Reversal,2022.1.1,60.06633726299804,1,
15,exp3.png,exp4.png,,1,0,1,0,0,15,15,15,,,,,,,,,,,,,,,,,,,,,,,,,False,35,36,False,exp3.png,exp4.png,trial_left_image,1,exp3.png,1,exp3.png,exp4.png,1,1,non-reversed,correct,0.07732907482256057,0,invalid_lose,289.6685142000006,16,,,,,,,,,,,,,,,,sub_177,2022-09-20_15h58.31.952,Reversal,2022.1.1,60.06633726299804,1,
16,exp1.png,exp2.png,,1,0,1,0,0,16,16,16,,,,,,,,,,,,,,,,,,,,,,,,,False,36,37,False,exp1.png,exp2.png,trial_right_image,-1,exp2.png,1,exp1.png,exp2.png,0,4,reversed,incorrect,0.9136880831655076,0,valid_lose,296.11856929999976,16,,,,,,,,,,,,,,,,sub_177,2022-09-20_15h58.31.952,Reversal,2022.1.1,60.06633726299804,1,
17,exp3.png,exp4.png,,1,0,1,0,0,17,17,17,,,,,,,,,,,,,,,,,,,,,,,,,False,37,38,True,exp4.png,exp3.png,trial_right_image,-1,exp3.png,1,exp3.png,exp4.png,1,1,non-reversed,correct,0.11143360801655566,0,invalid_lose,301.5176303999997,16,,,,,,,,,,,,,,,,sub_177,2022-09-20_15h58.31.952,Reversal,2022.1.1,60.06633726299804,1,
18,exp1.png,exp2.png,,1,0,1,0,0,18,18,18,,,,,,,,,,,,,,,,,,,,,,,,,False,38,39,True,exp2.png,exp1.png,trial_left_image,1,exp2.png,1,exp1.png,exp2.png,0,4,reversed,incorrect,0.35097727656124555,0,valid_lose,307.91527920000044,16,,,,,,,,,,,,,,,,sub_177,2022-09-20_15h58.31.952,Reversal,2022.1.1,60.06633726299804,1,
19,exp3.png,exp4.png,,1,0,1,0,0,19,19,19,,,,,,,,,,,,,,,,,,,,,,,,,False,39,40,True,exp4.png,exp3.png,trial_right_image,-1,exp3.png,1,exp3.png,exp4.png,1,1,non-reversed,correct,0.7073305419880124,1,valid_win,312.3475672000004,17,,,,,,,,,,,,,,,,sub_177,2022-09-20_15h58.31.952,Reversal,2022.1.1,60.06633726299804,1,
20,exp1.png,exp2.png,,1,0,1,0,0,20,20,20,,,,,,,,,,,,,,,,,,,,,,,,,True,,,,,,,,,,,,,,,,,,,,,,,,,,,,,,,,,,,,sub_177,2022-09-20_15h58.31.952,Reversal,2022.1.1,60.06633726299804,1,
,,,exp1.png,1,0,1,0,,,,,0,0,0,0,0,0,0,0,,,,,,,,,,,,,,,,,,,,,,,,,,,,,,,,,,,,,,50.0,None,[],390.1792114,None,,,,,,,,,,,sub_177,2022-09-20_15h58.31.952,Reversal,2022.1.1,60.06633726299804,1,
,,,exp2.png,1,0,1,0,,,,,0,0,0,0,0,1,1,1,,,,,,,,,,,,,,,,,,,,,,,,,,,,,,,,,,,,,,50.0,None,[],393.8863929000008,None,,,,,,,,,,,sub_177,2022-09-20_15h58.31.952,Reversal,2022.1.1,60.06633726299804,1,
,,,exp3.png,1,0,1,0,,,,,0,0,0,0,0,2,2,2,,,,,,,,,,,,,,,,,,,,,,,,,,,,,,,,,,,,,,50.0,None,[],396.33745140000065,None,,,,,,,,,,,sub_177,2022-09-20_15h58.31.952,Reversal,2022.1.1,60.06633726299804,1,
,,,exp4.png,1,0,1,0,,,,,0,0,0,0,0,3,3,3,,,,,,,,,,,,,,,,,,,,,,,,,,,,,,,,,,,,,,50.0,None,[],397.8326439000002,None,,,,,,,,,,,sub_177,2022-09-20_15h58.31.952,Reversal,2022.1.1,60.06633726299804,1,
0,exp1.png,exp2.png,,2,0,2,0,0,0,0,0,,,,,,,,,,,,,,,,,,,,,,,,,False,40,41,True,exp2.png,exp1.png,trial_left_image,1,exp2.png,1,exp1.png,exp2.png,0,4,reversed,incorrect,0.3562495116083567,0,valid_lose,329.1298493000004,17,,,,,,,,,,,,,,,,sub_177,2022-09-20_15h58.31.952,Reversal,2022.1.1,60.06633726299804,1,
1,exp3.png,exp4.png,,2,0,2,0,0,1,1,1,,,,,,,,,,,,,,,,,,,,,,,,,False,41,42,False,exp3.png,exp4.png,trial_left_image,1,exp3.png,1,exp3.png,exp4.png,1,1,non-reversed,correct,0.8129362001247729,1,valid_win,334.6277882000004,18,,,,,,,,,,,,,,,,sub_177,2022-09-20_15h58.31.952,Reversal,2022.1.1,60.06633726299804,1,
2,exp1.png,exp2.png,,2,0,2,0,0,2,2,2,,,,,,,,,,,,,,,,,,,,,,,,,False,42,43,True,exp2.png,exp1.png,trial_right_image,-1,exp1.png,1,exp1.png,exp2.png,1,3,reversed,correct,0.10630728179968629,0,invalid_lose,340.56120400000054,18,,,,,,,,,,,,,,,,sub_177,2022-09-20_15h58.31.952,Reversal,2022.1.1,60.06633726299804,1,
3,exp3.png,exp4.png,,2,0,2,0,0,3,3,3,,,,,,,,,,,,,,,,,,,,,,,,,False,43,44,True,exp4.png,exp3.png,trial_right_image,-1,exp3.png,1,exp3.png,exp4.png,1,1,non-reversed,correct,0.593873338439746,1,valid_win,345.6099574,19,,,,,,,,,,,,,,,,sub_177,2022-09-20_15h58.31.952,Reversal,2022.1.1,60.06633726299804,1,
4,exp1.png,exp2.png,,2,0,2,0,0,4,4,4,,,,,,,,,,,,,,,,,,,,,,,,,False,44,45,True,exp2.png,exp1.png,trial_left_image,1,exp2.png,1,exp1.png,exp2.png,0,4,reversed,incorrect,0.021920257810244315,1,invalid_win,352.00889689999985,20,,,,,,,,,,,,,,,,sub_177,2022-09-20_15h58.31.952,Reversal,2022.1.1,60.06633726299804,1,
5,exp3.png,exp4.png,,2,0,2,0,0,5,5,5,,,,,,,,,,,,,,,,,,,,,,,,,False,45,46,False,exp3.png,exp4.png,trial_left_image,1,exp3.png,1,exp3.png,exp4.png,1,1,non-reversed,correct,0.7230168316224728,1,valid_win,357.59245379999993,21,,,,,,,,,,,,,,,,sub_177,2022-09-20_15h58.31.952,Reversal,2022.1.1,60.06633726299804,1,
6,exp1.png,exp2.png,,2,0,2,0,0,6,6,6,,,,,,,,,,,,,,,,,,,,,,,,,False,46,47,True,exp2.png,exp1.png,trial_left_image,1,exp2.png,1,exp1.png,exp2.png,0,4,reversed,incorrect,0.767089707394917,0,valid_lose,367.25696119999975,21,,,,,,,,,,,,,,,,sub_177,2022-09-20_15h58.31.952,Reversal,2022.1.1,60.06633726299804,1,
7,exp3.png,exp4.png,,2,0,2,0,0,7,7,7,,,,,,,,,,,,,,,,,,,,,,,,,False,47,48,False,exp3.png,exp4.png,trial_left_image,1,exp3.png,1,exp3.png,exp4.png,1,1,non-reversed,correct,0.20467148083469155,0,invalid_lose,372.77396469999985,21,,,,,,,,,,,,,,,,sub_177,2022-09-20_15h58.31.952,Reversal,2022.1.1,60.06633726299804,1,
8,exp1.png,exp2.png,,2,0,2,0,0,8,8,8,,,,,,,,,,,,,,,,,,,,,,,,,False,48,49,False,exp1.png,exp2.png,trial_right_image,-1,exp2.png,1,exp1.png,exp2.png,0,4,reversed,incorrect,0.0020572556676546894,1,invalid_win,378.3223558999998,22,,,,,,,,,,,,,,,,sub_177,2022-09-20_15h58.31.952,Reversal,2022.1.1,60.06633726299804,1,
9,exp3.png,exp4.png,,2,0,2,0,0,9,9,9,,,,,,,,,,,,,,,,,,,,,,,,,False,49,50,True,exp4.png,exp3.png,trial_right_image,-1,exp3.png,1,exp3.png,exp4.png,1,1,non-reversed,correct,0.2777036605094735,1,valid_win,383.8008987000003,23,,,,,,,,,,,,,,,,sub_177,2022-09-20_15h58.31.952,Reversal,2022.1.1,60.06633726299804,1,
10,exp1.png,exp2.png,,2,0,2,0,0,10,10,10,,,,,,,,,,,,,,,,,,,,,,,,,False,50,51,False,exp1.png,exp2.png,trial_right_image,-1,exp2.png,1,exp1.png,exp2.png,0,4,reversed,incorrect,0.5985065543635832,0,valid_lose,391.3874179000004,23,,,,,,,,,,,,,,,,sub_177,2022-09-20_15h58.31.952,Reversal,2022.1.1,60.06633726299804,1,
11,exp3.png,exp4.png,,2,0,2,0,0,11,11,11,,,,,,,,,,,,,,,,,,,,,,,,,False,51,52,False,exp3.png,exp4.png,trial_left_image,1,exp3.png,1,exp3.png,exp4.png,1,1,non-reversed,correct,0.3637924152892218,1,valid_win,396.5534722000002,24,,,,,,,,,,,,,,,,sub_177,2022-09-20_15h58.31.952,Reversal,2022.1.1,60.06633726299804,1,
12,exp1.png,exp2.png,,2,0,2,0,0,12,12,12,,,,,,,,,,,,,,,,,,,,,,,,,False,52,53,True,exp2.png,exp1.png,trial_left_image,1,exp2.png,1,exp1.png,exp2.png,0,4,reversed,incorrect,0.5442045472234976,0,valid_lose,402.7190977999999,24,,,,,,,,,,,,,,,,sub_177,2022-09-20_15h58.31.952,Reversal,2022.1.1,60.06633726299804,1,
13,exp3.png,exp4.png,,2,0,2,0,0,13,13,13,,,,,,,,,,,,,,,,,,,,,,,,,False,53,54,False,exp3.png,exp4.png,trial_left_image,1,exp3.png,1,exp3.png,exp4.png,1,1,non-reversed,correct,0.07280109584493988,0,invalid_lose,407.93499750000046,24,,,,,,,,,,,,,,,,sub_177,2022-09-20_15h58.31.952,Reversal,2022.1.1,60.06633726299804,1,
14,exp1.png,exp2.png,,2,0,2,0,0,14,14,14,,,,,,,,,,,,,,,,,,,,,,,,,False,54,55,False,exp1.png,exp2.png,trial_right_image,-1,exp2.png,1,exp1.png,exp2.png,0,4,reversed,incorrect,0.7017755380948543,0,valid_lose,417.03430730000036,24,,,,,,,,,,,,,,,,sub_177,2022-09-20_15h58.31.952,Reversal,2022.1.1,60.06633726299804,1,
15,exp3.png,exp4.png,,2,0,2,0,0,15,15,15,,,,,,,,,,,,,,,,,,,,,,,,,False,55,56,False,exp3.png,exp4.png,trial_left_image,1,exp3.png,1,exp3.png,exp4.png,1,1,non-reversed,correct,0.630405622151516,1,valid_win,422.26646400000027,25,,,,,,,,,,,,,,,,sub_177,2022-09-20_15h58.31.952,Reversal,2022.1.1,60.06633726299804,1,
16,exp1.png,exp2.png,,2,0,2,0,0,16,16,16,,,,,,,,,,,,,,,,,,,,,,,,,False,56,57,True,exp2.png,exp1.png,trial_right_image,-1,exp1.png,1,exp1.png,exp2.png,1,3,reversed,correct,0.03208888514695507,0,invalid_lose,427.5335276000005,25,,,,,,,,,,,,,,,,sub_177,2022-09-20_15h58.31.952,Reversal,2022.1.1,60.06633726299804,1,
17,exp3.png,exp4.png,,2,0,2,0,0,17,17,17,,,,,,,,,,,,,,,,,,,,,,,,,False,57,58,True,exp4.png,exp3.png,trial_right_image,-1,exp3.png,1,exp3.png,exp4.png,1,1,non-reversed,correct,0.6547788300899717,1,valid_win,433.06504810000024,26,,,,,,,,,,,,,,,,sub_177,2022-09-20_15h58.31.952,Reversal,2022.1.1,60.06633726299804,1,
18,exp1.png,exp2.png,,2,0,2,0,0,18,18,18,,,,,,,,,,,,,,,,,,,,,,,,,False,58,59,True,exp2.png,exp1.png,trial_left_image,1,exp2.png,1,exp1.png,exp2.png,0,4,reversed,incorrect,0.39780285620368094,0,valid_lose,445.53079160000016,26,,,,,,,,,,,,,,,,sub_177,2022-09-20_15h58.31.952,Reversal,2022.1.1,60.06633726299804,1,
19,exp3.png,exp4.png,,2,0,2,0,0,19,19,19,,,,,,,,,,,,,,,,,,,,,,,,,False,59,60,False,exp3.png,exp4.png,trial_left_image,1,exp3.png,1,exp3.png,exp4.png,1,1,non-reversed,correct,0.6786021094767293,1,valid_win,450.7637929000002,27,,,,,,,,,,,,,,,,sub_177,2022-09-20_15h58.31.952,Reversal,2022.1.1,60.06633726299804,1,
20,exp1.png,exp2.png,,2,0,2,0,0,20,20,20,,,,,,,,,,,,,,,,,,,,,,,,,True,,,,,,,,,,,,,,,,,,,,,,,,,,,,,,,,,,,,sub_177,2022-09-20_15h58.31.952,Reversal,2022.1.1,60.06633726299804,1,
,,,exp1.png,2,0,2,0,,,,,0,0,0,0,0,0,0,0,,,,,,,,,,,,,,,,,,,,,,,,,,,,,,,,,,,,,,50.0,None,[],528.5990117000001,None,,,,,,,,,,,sub_177,2022-09-20_15h58.31.952,Reversal,2022.1.1,60.06633726299804,1,
,,,exp2.png,2,0,2,0,,,,,0,0,0,0,0,1,1,1,,,,,,,,,,,,,,,,,,,,,,,,,,,,,,,,,,,,,,50.0,None,[],531.6176907000008,None,,,,,,,,,,,sub_177,2022-09-20_15h58.31.952,Reversal,2022.1.1,60.06633726299804,1,
,,,exp3.png,2,0,2,0,,,,,0,0,0,0,0,2,2,2,,,,,,,,,,,,,,,,,,,,,,,,,,,,,,,,,,,,,,50.0,None,[],533.0753307000004,None,,,,,,,,,,,sub_177,2022-09-20_15h58.31.952,Reversal,2022.1.1,60.06633726299804,1,
,,,exp4.png,2,0,2,0,,,,,0,0,0,0,0,3,3,3,,,,,,,,,,,,,,,,,,,,,,,,,,,,,,,,,,,,,,50.0,None,[],534.1080256000005,None,,,,,,,,,,,sub_177,2022-09-20_15h58.31.952,Reversal,2022.1.1,60.06633726299804,1,
0,exp1.png,exp2.png,,3,0,3,0,0,0,0,0,,,,,,,,,,,,,,,,,,,,,,,,,False,60,61,True,exp2.png,exp1.png,trial_right_image,-1,exp1.png,1,exp1.png,exp2.png,1,3,reversed,correct,0.8250919778041966,1,valid_win,466.34468470000047,28,,,,,,,,,,,,,,,,sub_177,2022-09-20_15h58.31.952,Reversal,2022.1.1,60.06633726299804,1,
1,exp3.png,exp4.png,,3,0,3,0,0,1,1,1,,,,,,,,,,,,,,,,,,,,,,,,,False,61,62,False,exp3.png,exp4.png,trial_left_image,1,exp3.png,1,exp3.png,exp4.png,1,1,non-reversed,correct,0.4107352358657689,1,valid_win,473.6765495999998,29,,,,,,,,,,,,,,,,sub_177,2022-09-20_15h58.31.952,Reversal,2022.1.1,60.06633726299804,1,
2,exp1.png,exp2.png,,3,0,3,0,0,2,2,2,,,,,,,,,,,,,,,,,,,,,,,,,False,62,63,False,exp1.png,exp2.png,trial_right_image,-1,exp2.png,1,exp1.png,exp2.png,0,4,reversed,incorrect,0.1443538400172405,1,invalid_win,479.51008420000016,30,,,,,,,,,,,,,,,,sub_177,2022-09-20_15h58.31.952,Reversal,2022.1.1,60.06633726299804,1,
3,exp3.png,exp4.png,,3,0,3,0,0,3,3,3,,,,,,,,,,,,,,,,,,,,,,,,,False,63,64,True,exp4.png,exp3.png,trial_right_image,-1,exp3.png,1,exp3.png,exp4.png,1,1,non-reversed,correct,0.6223600241700769,1,valid_win,487.0252341000005,31,,,,,,,,,,,,,,,,sub_177,2022-09-20_15h58.31.952,Reversal,2022.1.1,60.06633726299804,1,
4,exp1.png,exp2.png,,3,0,3,0,0,4,4,4,,,,,,,,,,,,,,,,,,,,,,,,,False,64,65,False,exp1.png,exp2.png,trial_left_image,1,exp1.png,1,exp1.png,exp2.png,1,3,reversed,correct,0.20238328214419699,0,invalid_lose,495.4573811,31,,,,,,,,,,,,,,,,sub_177,2022-09-20_15h58.31.952,Reversal,2022.1.1,60.06633726299804,1,
5,exp3.png,exp4.png,,3,0,3,0,0,5,5,5,,,,,,,,,,,,,,,,,,,,,,,,,False,65,66,False,exp3.png,exp4.png,trial_left_image,1,exp3.png,1,exp3.png,exp4.png,1,1,non-reversed,correct,0.29444531983334155,1,valid_win,500.4570227000004,32,,,,,,,,,,,,,,,,sub_177,2022-09-20_15h58.31.952,Reversal,2022.1.1,60.06633726299804,1,
6,exp1.png,exp2.png,,3,0,3,0,0,6,6,6,,,,,,,,,,,,,,,,,,,,,,,,,False,66,67,False,exp1.png,exp2.png,trial_right_image,-1,exp2.png,1,exp1.png,exp2.png,0,4,reversed,incorrect,0.8023728124826159,0,valid_lose,507.82185780000054,32,,,,,,,,,,,,,,,,sub_177,2022-09-20_15h58.31.952,Reversal,2022.1.1,60.06633726299804,1,
7,exp3.png,exp4.png,,3,0,3,0,0,7,7,7,,,,,,,,,,,,,,,,,,,,,,,,,False,67,68,True,exp4.png,exp3.png,trial_right_image,-1,exp3.png,1,exp3.png,exp4.png,1,1,non-reversed,correct,0.6790912787132725,1,valid_win,513.5885898000006,33,,,,,,,,,,,,,,,,sub_177,2022-09-20_15h58.31.952,Reversal,2022.1.1,60.06633726299804,1,
8,exp1.png,exp2.png,,3,0,3,0,0,8,8,8,,,,,,,,,,,,,,,,,,,,,,,,,False,68,69,True,exp2.png,exp1.png,trial_right_image,-1,exp1.png,1,exp1.png,exp2.png,1,3,reversed,correct,0.43278004918003665,1,valid_win,519.8201303000005,34,,,,,,,,,,,,,,,,sub_177,2022-09-20_15h58.31.952,Reversal,2022.1.1,60.06633726299804,1,
9,exp3.png,exp4.png,,3,0,3,0,0,9,9,9,,,,,,,,,,,,,,,,,,,,,,,,,False,69,70,True,exp4.png,exp3.png,trial_right_image,-1,exp3.png,1,exp3.png,exp4.png,1,1,non-reversed,correct,0.9043902010411529,1,valid_win,525.3364200000005,35,,,,,,,,,,,,,,,,sub_177,2022-09-20_15h58.31.952,Reversal,2022.1.1,60.06633726299804,1,
10,exp1.png,exp2.png,,3,0,3,0,0,10,10,10,,,,,,,,,,,,,,,,,,,,,,,,,False,70,71,False,exp1.png,exp2.png,trial_right_image,-1,exp2.png,1,exp1.png,exp2.png,0,4,reversed,incorrect,0.6299912326573347,0,valid_lose,532.1525890000003,35,,,,,,,,,,,,,,,,sub_177,2022-09-20_15h58.31.952,Reversal,2022.1.1,60.06633726299804,1,
11,exp3.png,exp4.png,,3,0,3,0,0,11,11,11,,,,,,,,,,,,,,,,,,,,,,,,,False,71,72,True,exp4.png,exp3.png,trial_right_image,-1,exp3.png,1,exp3.png,exp4.png,1,1,non-reversed,correct,0.6391002237431402,1,valid_win,537.2350172000006,36,,,,,,,,,,,,,,,,sub_177,2022-09-20_15h58.31.952,Reversal,2022.1.1,60.06633726299804,1,
12,exp1.png,exp2.png,,3,0,3,0,0,12,12,12,,,,,,,,,,,,,,,,,,,,,,,,,False,72,73,True,exp2.png,exp1.png,trial_left_image,1,exp2.png,1,exp1.png,exp2.png,0,4,reversed,incorrect,0.5284776720339402,0,valid_lose,542.4008832,36,,,,,,,,,,,,,,,,sub_177,2022-09-20_15h58.31.952,Reversal,2022.1.1,60.06633726299804,1,
13,exp3.png,exp4.png,,3,0,3,0,0,13,13,13,,,,,,,,,,,,,,,,,,,,,,,,,False,73,74,False,exp3.png,exp4.png,trial_left_image,1,exp3.png,1,exp3.png,exp4.png,1,1,non-reversed,correct,0.027794995302242387,0,invalid_lose,548.1999956999998,36,,,,,,,,,,,,,,,,sub_177,2022-09-20_15h58.31.952,Reversal,2022.1.1,60.06633726299804,1,
14,exp1.png,exp2.png,,3,0,3,0,0,14,14,14,,,,,,,,,,,,,,,,,,,,,,,,,False,74,75,True,exp2.png,exp1.png,trial_right_image,-1,exp1.png,1,exp1.png,exp2.png,1,3,reversed,correct,0.3933400285121965,1,valid_win,552.7002254999998,37,,,,,,,,,,,,,,,,sub_177,2022-09-20_15h58.31.952,Reversal,2022.1.1,60.06633726299804,1,
15,exp3.png,exp4.png,,3,0,3,0,0,15,15,15,,,,,,,,,,,,,,,,,,,,,,,,,False,75,76,False,exp3.png,exp4.png,trial_left_image,1,exp3.png,1,exp3.png,exp4.png,1,1,non-reversed,correct,0.734293567003007,1,valid_win,561.9816317000004,38,,,,,,,,,,,,,,,,sub_177,2022-09-20_15h58.31.952,Reversal,2022.1.1,60.06633726299804,1,
16,exp1.png,exp2.png,,3,0,3,0,0,16,16,16,,,,,,,,,,,,,,,,,,,,,,,,,False,76,77,True,exp2.png,exp1.png,trial_right_image,-1,exp1.png,1,exp1.png,exp2.png,1,3,reversed,correct,0.5280065369714062,1,valid_win,567.4820012,39,,,,,,,,,,,,,,,,sub_177,2022-09-20_15h58.31.952,Reversal,2022.1.1,60.06633726299804,1,
17,exp3.png,exp4.png,,3,0,3,0,0,17,17,17,,,,,,,,,,,,,,,,,,,,,,,,,False,77,78,True,exp4.png,exp3.png,trial_right_image,-1,exp3.png,1,exp3.png,exp4.png,1,1,non-reversed,correct,0.8041565145508203,1,valid_win,572.6135403999997,40,,,,,,,,,,,,,,,,sub_177,2022-09-20_15h58.31.952,Reversal,2022.1.1,60.06633726299804,1,
18,exp1.png,exp2.png,,3,0,3,0,0,18,18,18,,,,,,,,,,,,,,,,,,,,,,,,,False,78,79,False,exp1.png,exp2.png,trial_left_image,1,exp1.png,1,exp1.png,exp2.png,1,3,reversed,correct,0.7953822815732795,1,valid_win,578.1296056000001,41,,,,,,,,,,,,,,,,sub_177,2022-09-20_15h58.31.952,Reversal,2022.1.1,60.06633726299804,1,
19,exp3.png,exp4.png,,3,0,3,0,0,19,19,19,,,,,,,,,,,,,,,,,,,,,,,,,False,79,80,False,exp3.png,exp4.png,trial_left_image,1,exp3.png,1,exp3.png,exp4.png,1,1,non-reversed,correct,0.3128871420522098,1,valid_win,584.4453006000003,42,,,,,,,,,,,,,,,,sub_177,2022-09-20_15h58.31.952,Reversal,2022.1.1,60.06633726299804,1,
20,exp1.png,exp2.png,,3,0,3,0,0,20,20,20,,,,,,,,,,,,,,,,,,,,,,,,,True,,,,,,,,,,,,,,,,,,,,,,,,,,,,,,,,,,,,sub_177,2022-09-20_15h58.31.952,Reversal,2022.1.1,60.06633726299804,1,
,,,exp1.png,3,0,3,0,,,,,0,0,0,0,0,0,0,0,,,,,,,,,,,,,,,,,,,,,,,,,,,,,,,,,,,,,,50.0,None,[],662.2688261000003,None,,,,,,,,,,,sub_177,2022-09-20_15h58.31.952,Reversal,2022.1.1,60.06633726299804,1,
,,,exp2.png,3,0,3,0,,,,,0,0,0,0,0,1,1,1,,,,,,,,,,,,,,,,,,,,,,,,,,,,,,,,,,,,,,50.0,None,[],665.2030864000008,None,,,,,,,,,,,sub_177,2022-09-20_15h58.31.952,Reversal,2022.1.1,60.06633726299804,1,
,,,exp3.png,3,0,3,0,,,,,0,0,0,0,0,2,2,2,,,,,,,,,,,,,,,,,,,,,,,,,,,,,,,,,,,,,,50.0,None,[],666.1383346000002,None,,,,,,,,,,,sub_177,2022-09-20_15h58.31.952,Reversal,2022.1.1,60.06633726299804,1,
,,,exp4.png,3,0,3,0,,,,,0,0,0,0,0,3,3,3,,,,,,,,,,,,,,,,,,,,,,,,,,,,,,,,,,,,,,50.0,None,[],666.4045818000004,None,,,,,,,,,,,sub_177,2022-09-20_15h58.31.952,Reversal,2022.1.1,60.06633726299804,1,
0,exp1.png,exp2.png,,,,,,,,,,,,,,,,,,0,0,0,0,0,0,0,0,,,,,,,,,False,0,81,True,exp2.png,exp1.png,trial_right_image,-1,exp1.png,1,exp2.png,exp1.png,1,3,reversed,incorrect,0.9765030074770475,0,valid_lose,594.5783329000005,42,,,,,,591.7452425000001,,,,,,,,,,sub_177,2022-09-20_15h58.31.952,Reversal,2022.1.1,60.06633726299804,1,
1,exp3.png,exp4.png,,,,,,,,,,,,,,,,,,0,0,0,0,0,1,1,1,,,,,,,,,False,1,82,True,exp4.png,exp3.png,trial_right_image,-1,exp3.png,1,exp3.png,exp4.png,1,1,non-reversed,correct,0.6627532782515698,1,valid_win,599.5106932999997,43,,,,,,,,,,,,,,,,sub_177,2022-09-20_15h58.31.952,Reversal,2022.1.1,60.06633726299804,1,
2,exp1.png,exp2.png,,,,,,,,,,,,,,,,,,0,0,0,0,0,2,2,2,,,,,,,,,False,2,83,False,exp1.png,exp2.png,trial_left_image,1,exp1.png,1,exp2.png,exp1.png,1,3,reversed,incorrect,0.28473326378449426,0,valid_lose,604.8935505999998,43,,,,,,,,,,,,,,,,sub_177,2022-09-20_15h58.31.952,Reversal,2022.1.1,60.06633726299804,1,
3,exp3.png,exp4.png,,,,,,,,,,,,,,,,,,0,0,0,0,0,3,3,3,,,,,,,,,False,3,84,True,exp4.png,exp3.png,trial_right_image,-1,exp3.png,1,exp3.png,exp4.png,1,1,non-reversed,correct,0.3503709254025381,1,valid_win,610.0587431000004,44,,,,,,,,,,,,,,,,sub_177,2022-09-20_15h58.31.952,Reversal,2022.1.1,60.06633726299804,1,
4,exp1.png,exp2.png,,,,,,,,,,,,,,,,,,0,0,0,0,0,4,4,4,,,,,,,,,False,4,85,False,exp1.png,exp2.png,trial_right_image,-1,exp2.png,1,exp2.png,exp1.png,0,4,reversed,correct,0.5115823529307746,1,valid_win,615.9587173,45,,,,,,,,,,,,,,,,sub_177,2022-09-20_15h58.31.952,Reversal,2022.1.1,60.06633726299804,1,
5,exp3.png,exp4.png,,,,,,,,,,,,,,,,,,0,0,0,0,0,5,5,5,,,,,,,,,False,5,86,False,exp3.png,exp4.png,trial_left_image,1,exp3.png,1,exp3.png,exp4.png,1,1,non-reversed,correct,0.5790537516034667,1,valid_win,621.6574455,46,,,,,,,,,,,,,,,,sub_177,2022-09-20_15h58.31.952,Reversal,2022.1.1,60.06633726299804,1,
6,exp1.png,exp2.png,,,,,,,,,,,,,,,,,,0,0,0,0,0,6,6,6,,,,,,,,,False,6,87,False,exp1.png,exp2.png,trial_left_image,1,exp1.png,1,exp2.png,exp1.png,1,3,reversed,incorrect,0.3058609697370771,0,valid_lose,631.5059643000004,46,,,,,,,,,,,,,,,,sub_177,2022-09-20_15h58.31.952,Reversal,2022.1.1,60.06633726299804,1,
7,exp3.png,exp4.png,,,,,,,,,,,,,,,,,,0,0,0,0,0,7,7,7,,,,,,,,,False,7,88,True,exp4.png,exp3.png,trial_right_image,-1,exp3.png,1,exp3.png,exp4.png,1,1,non-reversed,correct,0.839605674270051,1,valid_win,635.9793314999997,47,,,,,,,,,,,,,,,,sub_177,2022-09-20_15h58.31.952,Reversal,2022.1.1,60.06633726299804,1,
8,exp1.png,exp2.png,,,,,,,,,,,,,,,,,,0,0,0,0,0,8,8,8,,,,,,,,,False,8,89,True,exp2.png,exp1.png,trial_left_image,1,exp2.png,1,exp2.png,exp1.png,0,4,reversed,correct,0.02469655615530575,0,invalid_lose,641.2889396999999,47,,,,,,,,,,,,,,,,sub_177,2022-09-20_15h58.31.952,Reversal,2022.1.1,60.06633726299804,1,
9,exp3.png,exp4.png,,,,,,,,,,,,,,,,,,0,0,0,0,0,9,9,9,,,,,,,,,False,9,90,True,exp4.png,exp3.png,trial_right_image,-1,exp3.png,1,exp3.png,exp4.png,1,1,non-reversed,correct,0.39906406597398236,1,valid_win,646.3876674000003,48,,,,,,,,,,,,,,,,sub_177,2022-09-20_15h58.31.952,Reversal,2022.1.1,60.06633726299804,1,
10,exp1.png,exp2.png,,,,,,,,,,,,,,,,,,0,0,0,0,0,10,10,10,,,,,,,,,False,10,91,True,exp2.png,exp1.png,trial_left_image,1,exp2.png,1,exp2.png,exp1.png,0,4,reversed,correct,0.49134458926957847,1,valid_win,651.7539752000002,49,,,,,,,,,,,,,,,,sub_177,2022-09-20_15h58.31.952,Reversal,2022.1.1,60.06633726299804,1,
11,exp3.png,exp4.png,,,,,,,,,,,,,,,,,,0,0,0,0,0,11,11,11,,,,,,,,,False,11,92,True,exp4.png,exp3.png,trial_right_image,-1,exp3.png,1,exp3.png,exp4.png,1,1,non-reversed,correct,0.7752528656763302,1,valid_win,658.1695645,50,,,,,,,,,,,,,,,,sub_177,2022-09-20_15h58.31.952,Reversal,2022.1.1,60.06633726299804,1,
12,exp1.png,exp2.png,,,,,,,,,,,,,,,,,,0,0,0,0,0,12,12,12,,,,,,,,,False,12,93,False,exp1.png,exp2.png,trial_left_image,1,exp1.png,1,exp2.png,exp1.png,1,3,reversed,incorrect,0.87159000653451,0,valid_lose,665.0690139999997,50,,,,,,,,,,,,,,,,sub_177,2022-09-20_15h58.31.952,Reversal,2022.1.1,60.06633726299804,1,
13,exp3.png,exp4.png,,,,,,,,,,,,,,,,,,0,0,0,0,0,13,13,13,,,,,,,,,False,13,94,False,exp3.png,exp4.png,trial_left_image,1,exp3.png,1,exp3.png,exp4.png,1,1,non-reversed,correct,0.8246748845009098,1,valid_win,671.4006043999998,51,,,,,,,,,,,,,,,,sub_177,2022-09-20_15h58.31.952,Reversal,2022.1.1,60.06633726299804,1,
14,exp1.png,exp2.png,,,,,,,,,,,,,,,,,,0,0,0,0,0,14,14,14,,,,,,,,,False,14,95,False,exp1.png,exp2.png,trial_right_image,-1,exp2.png,1,exp2.png,exp1.png,0,4,reversed,correct,0.8116032305197127,1,valid_win,678.2832002000005,52,,,,,,,,,,,,,,,,sub_177,2022-09-20_15h58.31.952,Reversal,2022.1.1,60.06633726299804,1,
15,exp3.png,exp4.png,,,,,,,,,,,,,,,,,,0,0,0,0,0,15,15,15,,,,,,,,,False,15,96,False,exp3.png,exp4.png,trial_left_image,1,exp3.png,1,exp3.png,exp4.png,1,1,non-reversed,correct,0.7212365878008214,1,valid_win,683.7666031999997,53,,,,,,,,,,,,,,,,sub_177,2022-09-20_15h58.31.952,Reversal,2022.1.1,60.06633726299804,1,
16,exp1.png,exp2.png,,,,,,,,,,,,,,,,,,0,0,0,0,0,16,16,16,,,,,,,,,False,16,97,True,exp2.png,exp1.png,trial_left_image,1,exp2.png,1,exp2.png,exp1.png,0,4,reversed,correct,0.826305059859473,1,valid_win,691.2984182999999,54,,,,,,,,,,,,,,,,sub_177,2022-09-20_15h58.31.952,Reversal,2022.1.1,60.06633726299804,1,
17,exp3.png,exp4.png,,,,,,,,,,,,,,,,,,0,0,0,0,0,17,17,17,,,,,,,,,False,17,98,False,exp3.png,exp4.png,trial_left_image,1,exp3.png,1,exp3.png,exp4.png,1,1,non-reversed,correct,0.20567583656907795,0,invalid_lose,696.9974874999998,54,,,,,,,,,,,,,,,,sub_177,2022-09-20_15h58.31.952,Reversal,2022.1.1,60.06633726299804,1,
18,exp1.png,exp2.png,,,,,,,,,,,,,,,,,,0,0,0,0,0,18,18,18,,,,,,,,,False,18,99,True,exp2.png,exp1.png,trial_left_image,1,exp2.png,1,exp2.png,exp1.png,0,4,reversed,correct,0.2566247982751657,1,valid_win,702.7801411999999,55,,,,,,,,,,,,,,,,sub_177,2022-09-20_15h58.31.952,Reversal,2022.1.1,60.06633726299804,1,
19,exp3.png,exp4.png,,,,,,,,,,,,,,,,,,0,0,0,0,0,19,19,19,,,,,,,,,False,19,100,False,exp3.png,exp4.png,trial_left_image,1,exp3.png,1,exp3.png,exp4.png,1,1,non-reversed,correct,0.7093714329547108,1,valid_win,708.6629318000005,56,,,,,,,,,,,,,,,,sub_177,2022-09-20_15h58.31.952,Reversal,2022.1.1,60.06633726299804,1,
20,exp1.png,exp2.png,,,,,,,,,,,,,,,,,,0,0,0,0,0,20,20,20,,,,,,,,,True,,,,,,,,,,,,,,,,,,,,,,,,,,,,,,,,,,,,sub_177,2022-09-20_15h58.31.952,Reversal,2022.1.1,60.06633726299804,1,
,,,exp1.png,,,,,,,,,,,,,,,,,0,0,0,0,,,,,0,0,0,0,0,0,0,0,,,,,,,,,,,,,,,,,,,,,,50.0,None,[],786.7168609,None,,,,,,,,,,,sub_177,2022-09-20_15h58.31.952,Reversal,2022.1.1,60.06633726299804,1,
,,,exp2.png,,,,,,,,,,,,,,,,,0,0,0,0,,,,,0,0,0,0,0,1,1,1,,,,,,,,,,,,,,,,,,,,,,50.0,None,[],790.5239698000005,None,,,,,,,,,,,sub_177,2022-09-20_15h58.31.952,Reversal,2022.1.1,60.06633726299804,1,
,,,exp3.png,,,,,,,,,,,,,,,,,0,0,0,0,,,,,0,0,0,0,0,2,2,2,,,,,,,,,,,,,,,,,,,,,,50.0,None,[],791.6247839000007,None,,,,,,,,,,,sub_177,2022-09-20_15h58.31.952,Reversal,2022.1.1,60.06633726299804,1,
,,,exp4.png,,,,,,,,,,,,,,,,,0,0,0,0,,,,,0,0,0,0,0,3,3,3,,,,,,,,,,,,,,,,,,,,,,50.0,None,[],792.6696299000005,None,,,,,,,,,,,sub_177,2022-09-20_15h58.31.952,Reversal,2022.1.1,60.06633726299804,1,
0,exp1.png,exp2.png,,,,,,,,,,,,,,,,,,1,0,1,0,0,0,0,0,,,,,,,,,False,20,101,True,exp2.png,exp1.png,trial_left_image,1,exp2.png,1,exp2.png,exp1.png,0,4,reversed,correct,0.3137151536428061,1,valid_win,723.2963715000005,57,,,,,,,,,,,,,,,,sub_177,2022-09-20_15h58.31.952,Reversal,2022.1.1,60.06633726299804,1,
1,exp3.png,exp4.png,,,,,,,,,,,,,,,,,,1,0,1,0,0,1,1,1,,,,,,,,,False,21,102,True,exp4.png,exp3.png,trial_right_image,-1,exp3.png,1,exp3.png,exp4.png,1,1,non-reversed,correct,0.6566497454813396,1,valid_win,729.8115943000003,58,,,,,,,,,,,,,,,,sub_177,2022-09-20_15h58.31.952,Reversal,2022.1.1,60.06633726299804,1,
2,exp1.png,exp2.png,,,,,,,,,,,,,,,,,,1,0,1,0,0,2,2,2,,,,,,,,,False,22,103,False,exp1.png,exp2.png,trial_right_image,-1,exp2.png,1,exp2.png,exp1.png,0,4,reversed,correct,0.09524538114012115,0,invalid_lose,735.9281992000006,58,,,,,,,,,,,,,,,,sub_177,2022-09-20_15h58.31.952,Reversal,2022.1.1,60.06633726299804,1,
3,exp3.png,exp4.png,,,,,,,,,,,,,,,,,,1,0,1,0,0,3,3,3,,,,,,,,,False,23,104,True,exp4.png,exp3.png,trial_right_image,-1,exp3.png,1,exp3.png,exp4.png,1,1,non-reversed,correct,0.32616667067804284,1,valid_win,742.4933295000001,59,,,,,,,,,,,,,,,,sub_177,2022-09-20_15h58.31.952,Reversal,2022.1.1,60.06633726299804,1,
4,exp1.png,exp2.png,,,,,,,,,,,,,,,,,,1,0,1,0,0,4,4,4,,,,,,,,,False,24,105,True,exp2.png,exp1.png,trial_left_image,1,exp2.png,1,exp2.png,exp1.png,0,4,reversed,correct,0.3555081948062653,1,valid_win,748.6090684000001,60,,,,,,,,,,,,,,,,sub_177,2022-09-20_15h58.31.952,Reversal,2022.1.1,60.06633726299804,1,
5,exp3.png,exp4.png,,,,,,,,,,,,,,,,,,1,0,1,0,0,5,5,5,,,,,,,,,False,25,106,False,exp3.png,exp4.png,trial_left_image,1,exp3.png,1,exp3.png,exp4.png,1,1,non-reversed,correct,0.11770728415158693,0,invalid_lose,755.5414289999999,60,,,,,,,,,,,,,,,,sub_177,2022-09-20_15h58.31.952,Reversal,2022.1.1,60.06633726299804,1,
6,exp1.png,exp2.png,,,,,,,,,,,,,,,,,,1,0,1,0,0,6,6,6,,,,,,,,,False,26,107,True,exp2.png,exp1.png,trial_left_image,1,exp2.png,1,exp2.png,exp1.png,0,4,reversed,correct,0.6197852946006175,1,valid_win,761.1580024000004,61,,,,,,,,,,,,,,,,sub_177,2022-09-20_15h58.31.952,Reversal,2022.1.1,60.06633726299804,1,
7,exp3.png,exp4.png,,,,,,,,,,,,,,,,,,1,0,1,0,0,7,7,7,,,,,,,,,False,27,108,False,exp3.png,exp4.png,trial_right_image,-1,exp4.png,1,exp3.png,exp4.png,0,2,non-reversed,incorrect,0.05107728171249937,1,invalid_win,767.0575359000004,62,,,,,,,,,,,,,,,,sub_177,2022-09-20_15h58.31.952,Reversal,2022.1.1,60.06633726299804,1,
8,exp1.png,exp2.png,,,,,,,,,,,,,,,,,,1,0,1,0,0,8,8,8,,,,,,,,,False,28,109,False,exp1.png,exp2.png,trial_right_image,-1,exp2.png,1,exp2.png,exp1.png,0,4,reversed,correct,0.11561367232193531,0,invalid_lose,775.1890860000003,62,,,,,,,,,,,,,,,,sub_177,2022-09-20_15h58.31.952,Reversal,2022.1.1,60.06633726299804,1,
9,exp3.png,exp4.png,,,,,,,,,,,,,,,,,,1,0,1,0,0,9,9,9,,,,,,,,,False,29,110,True,exp4.png,exp3.png,trial_right_image,-1,exp3.png,1,exp3.png,exp4.png,1,1,non-reversed,correct,0.5648396368685531,1,valid_win,782.4568422000002,63,,,,,,,,,,,,,,,,sub_177,2022-09-20_15h58.31.952,Reversal,2022.1.1,60.06633726299804,1,
10,exp1.png,exp2.png,,,,,,,,,,,,,,,,,,1,0,1,0,0,10,10,10,,,,,,,,,False,30,111,False,exp1.png,exp2.png,trial_right_image,-1,exp2.png,1,exp2.png,exp1.png,0,4,reversed,correct,0.15789925158405183,0,invalid_lose,788.5372618000001,63,,,,,,,,,,,,,,,,sub_177,2022-09-20_15h58.31.952,Reversal,2022.1.1,60.06633726299804,1,
11,exp3.png,exp4.png,,,,,,,,,,,,,,,,,,1,0,1,0,0,11,11,11,,,,,,,,,False,31,112,True,exp4.png,exp3.png,trial_right_image,-1,exp3.png,1,exp3.png,exp4.png,1,1,non-reversed,correct,0.3924721207868901,1,valid_win,793.7208689999998,64,,,,,,,,,,,,,,,,sub_177,2022-09-20_15h58.31.952,Reversal,2022.1.1,60.06633726299804,1,
12,exp1.png,exp2.png,,,,,,,,,,,,,,,,,,1,0,1,0,0,12,12,12,,,,,,,,,False,32,113,False,exp1.png,exp2.png,trial_right_image,-1,exp2.png,1,exp2.png,exp1.png,0,4,reversed,correct,0.11504376737760025,0,invalid_lose,798.9861842999999,64,,,,,,,,,,,,,,,,sub_177,2022-09-20_15h58.31.952,Reversal,2022.1.1,60.06633726299804,1,
13,exp3.png,exp4.png,,,,,,,,,,,,,,,,,,1,0,1,0,0,13,13,13,,,,,,,,,False,33,114,True,exp4.png,exp3.png,trial_left_image,1,exp4.png,1,exp3.png,exp4.png,0,2,non-reversed,incorrect,0.8022943139355094,0,valid_lose,808.3848613,64,,,,,,,,,,,,,,,,sub_177,2022-09-20_15h58.31.952,Reversal,2022.1.1,60.06633726299804,1,
14,exp1.png,exp2.png,,,,,,,,,,,,,,,,,,1,0,1,0,0,14,14,14,,,,,,,,,False,34,115,False,exp1.png,exp2.png,trial_right_image,-1,exp2.png,1,exp2.png,exp1.png,0,4,reversed,correct,0.7943849023579809,1,valid_win,815.7166020000004,65,,,,,,,,,,,,,,,,sub_177,2022-09-20_15h58.31.952,Reversal,2022.1.1,60.06633726299804,1,
15,exp3.png,exp4.png,,,,,,,,,,,,,,,,,,1,0,1,0,0,15,15,15,,,,,,,,,False,35,116,True,exp4.png,exp3.png,trial_right_image,-1,exp3.png,1,exp3.png,exp4.png,1,1,non-reversed,correct,0.7747139813408057,1,valid_win,819.9397868000005,66,,,,,,,,,,,,,,,,sub_177,2022-09-20_15h58.31.952,Reversal,2022.1.1,60.06633726299804,1,
16,exp1.png,exp2.png,,,,,,,,,,,,,,,,,,1,0,1,0,0,16,16,16,,,,,,,,,False,36,117,False,exp1.png,exp2.png,trial_left_image,1,exp1.png,1,exp2.png,exp1.png,1,3,reversed,incorrect,0.7674872477711436,0,valid_lose,824.8817401000006,66,,,,,,,,,,,,,,,,sub_177,2022-09-20_15h58.31.952,Reversal,2022.1.1,60.06633726299804,1,
17,exp3.png,exp4.png,,,,,,,,,,,,,,,,,,1,0,1,0,0,17,17,17,,,,,,,,,False,37,118,True,exp4.png,exp3.png,trial_right_image,-1,exp3.png,1,exp3.png,exp4.png,1,1,non-reversed,correct,0.18207563257886694,0,invalid_lose,829.0325438999998,66,,,,,,,,,,,,,,,,sub_177,2022-09-20_15h58.31.952,Reversal,2022.1.1,60.06633726299804,1,
18,exp1.png,exp2.png,,,,,,,,,,,,,,,,,,1,0,1,0,0,18,18,18,,,,,,,,,False,38,119,False,exp1.png,exp2.png,trial_right_image,-1,exp2.png,1,exp2.png,exp1.png,0,4,reversed,correct,0.9386954567493571,1,valid_win,834.8315856999998,67,,,,,,,,,,,,,,,,sub_177,2022-09-20_15h58.31.952,Reversal,2022.1.1,60.06633726299804,1,
19,exp3.png,exp4.png,,,,,,,,,,,,,,,,,,1,0,1,0,0,19,19,19,,,,,,,,,False,39,120,False,exp3.png,exp4.png,trial_left_image,1,exp3.png,1,exp3.png,exp4.png,1,1,non-reversed,correct,0.5630479686627564,1,valid_win,839.2413877999998,68,,,,,,,,,,,,,,,,sub_177,2022-09-20_15h58.31.952,Reversal,2022.1.1,60.06633726299804,1,
20,exp1.png,exp2.png,,,,,,,,,,,,,,,,,,1,0,1,0,0,20,20,20,,,,,,,,,True,,,,,,,,,,,,,,,,,,,,,,,,,,,,,,,,,,,,sub_177,2022-09-20_15h58.31.952,Reversal,2022.1.1,60.06633726299804,1,
,,,exp1.png,,,,,,,,,,,,,,,,,1,0,1,0,,,,,0,0,0,0,0,0,0,0,,,,,,,,,,,,,,,,,,,,,,50.0,None,[],917.1796951000006,None,,,,,,,,,,,sub_177,2022-09-20_15h58.31.952,Reversal,2022.1.1,60.06633726299804,1,
,,,exp2.png,,,,,,,,,,,,,,,,,1,0,1,0,,,,,0,0,0,0,0,1,1,1,,,,,,,,,,,,,,,,,,,,,,50.0,None,[],919.6111058000006,None,,,,,,,,,,,sub_177,2022-09-20_15h58.31.952,Reversal,2022.1.1,60.06633726299804,1,
,,,exp3.png,,,,,,,,,,,,,,,,,1,0,1,0,,,,,0,0,0,0,0,2,2,2,,,,,,,,,,,,,,,,,,,,,,50.0,None,[],920.8336409000003,None,,,,,,,,,,,sub_177,2022-09-20_15h58.31.952,Reversal,2022.1.1,60.06633726299804,1,
,,,exp4.png,,,,,,,,,,,,,,,,,1,0,1,0,,,,,0,0,0,0,0,3,3,3,,,,,,,,,,,,,,,,,,,,,,50.0,None,[],921.9464867000006,None,,,,,,,,,,,sub_177,2022-09-20_15h58.31.952,Reversal,2022.1.1,60.06633726299804,1,
0,exp1.png,exp2.png,,,,,,,,,,,,,,,,,,2,0,2,0,0,0,0,0,,,,,,,,,False,40,121,False,exp1.png,exp2.png,trial_right_image,-1,exp2.png,1,exp2.png,exp1.png,0,4,reversed,correct,0.23032465821425607,0,invalid_lose,850.3799624000003,68,,,,,,,,,,,,,,,,sub_177,2022-09-20_15h58.31.952,Reversal,2022.1.1,60.06633726299804,1,
1,exp3.png,exp4.png,,,,,,,,,,,,,,,,,,2,0,2,0,0,1,1,1,,,,,,,,,False,41,122,False,exp3.png,exp4.png,trial_left_image,1,exp3.png,1,exp3.png,exp4.png,1,1,non-reversed,correct,0.3951559624035984,1,valid_win,855.0786376000005,69,,,,,,,,,,,,,,,,sub_177,2022-09-20_15h58.31.952,Reversal,2022.1.1,60.06633726299804,1,
2,exp1.png,exp2.png,,,,,,,,,,,,,,,,,,2,0,2,0,0,2,2,2,,,,,,,,,False,42,123,False,exp1.png,exp2.png,trial_right_image,-1,exp2.png,1,exp2.png,exp1.png,0,4,reversed,correct,0.6493827663074868,1,valid_win,859.7284645999998,70,,,,,,,,,,,,,,,,sub_177,2022-09-20_15h58.31.952,Reversal,2022.1.1,60.06633726299804,1,
3,exp3.png,exp4.png,,,,,,,,,,,,,,,,,,2,0,2,0,0,3,3,3,,,,,,,,,False,43,124,False,exp3.png,exp4.png,trial_left_image,1,exp3.png,1,exp3.png,exp4.png,1,1,non-reversed,correct,0.42689384217955817,1,valid_win,864.1110461999997,71,,,,,,,,,,,,,,,,sub_177,2022-09-20_15h58.31.952,Reversal,2022.1.1,60.06633726299804,1,
4,exp1.png,exp2.png,,,,,,,,,,,,,,,,,,2,0,2,0,0,4,4,4,,,,,,,,,False,44,125,True,exp2.png,exp1.png,trial_left_image,1,exp2.png,1,exp2.png,exp1.png,0,4,reversed,correct,0.9852072668037579,1,valid_win,872.7263788999999,72,,,,,,,,,,,,,,,,sub_177,2022-09-20_15h58.31.952,Reversal,2022.1.1,60.06633726299804,1,
5,exp3.png,exp4.png,,,,,,,,,,,,,,,,,,2,0,2,0,0,5,5,5,,,,,,,,,False,45,126,True,exp4.png,exp3.png,trial_right_image,-1,exp3.png,1,exp3.png,exp4.png,1,1,non-reversed,correct,0.03353938434156223,0,invalid_lose,877.5759509,72,,,,,,,,,,,,,,,,sub_177,2022-09-20_15h58.31.952,Reversal,2022.1.1,60.06633726299804,1,
6,exp1.png,exp2.png,,,,,,,,,,,,,,,,,,2,0,2,0,0,6,6,6,,,,,,,,,False,46,127,False,exp1.png,exp2.png,trial_right_image,-1,exp2.png,1,exp2.png,exp1.png,0,4,reversed,correct,0.04478511942490371,0,invalid_lose,882.8386471000003,72,,,,,,,,,,,,,,,,sub_177,2022-09-20_15h58.31.952,Reversal,2022.1.1,60.06633726299804,1,
7,exp3.png,exp4.png,,,,,,,,,,,,,,,,,,2,0,2,0,0,7,7,7,,,,,,,,,False,47,128,True,exp4.png,exp3.png,trial_right_image,-1,exp3.png,1,exp3.png,exp4.png,1,1,non-reversed,correct,0.5120198897451481,1,valid_win,888.6249383000004,73,,,,,,,,,,,,,,,,sub_177,2022-09-20_15h58.31.952,Reversal,2022.1.1,60.06633726299804,1,
8,exp1.png,exp2.png,,,,,,,,,,,,,,,,,,2,0,2,0,0,8,8,8,,,,,,,,,False,48,129,False,exp1.png,exp2.png,trial_left_image,1,exp1.png,1,exp2.png,exp1.png,1,3,reversed,incorrect,0.10561891954112601,1,invalid_win,893.8305511999997,74,,,,,,,,,,,,,,,,sub_177,2022-09-20_15h58.31.952,Reversal,2022.1.1,60.06633726299804,1,
9,exp3.png,exp4.png,,,,,,,,,,,,,,,,,,2,0,2,0,0,9,9,9,,,,,,,,,False,49,130,True,exp4.png,exp3.png,trial_right_image,-1,exp3.png,1,exp3.png,exp4.png,1,1,non-reversed,correct,0.31461517030705966,1,valid_win,900.5949363,75,,,,,,,,,,,,,,,,sub_177,2022-09-20_15h58.31.952,Reversal,2022.1.1,60.06633726299804,1,
10,exp1.png,exp2.png,,,,,,,,,,,,,,,,,,2,0,2,0,0,10,10,10,,,,,,,,,False,50,131,True,exp2.png,exp1.png,trial_left_image,1,exp2.png,1,exp2.png,exp1.png,0,4,reversed,correct,0.8060689290155323,1,valid_win,905.3663354,76,,,,,,,,,,,,,,,,sub_177,2022-09-20_15h58.31.952,Reversal,2022.1.1,60.06633726299804,1,
11,exp3.png,exp4.png,,,,,,,,,,,,,,,,,,2,0,2,0,0,11,11,11,,,,,,,,,False,51,132,False,exp3.png,exp4.png,trial_right_image,-1,exp4.png,1,exp3.png,exp4.png,0,2,non-reversed,incorrect,0.16508519518932152,1,invalid_win,910.2589011,77,,,,,,,,,,,,,,,,sub_177,2022-09-20_15h58.31.952,Reversal,2022.1.1,60.06633726299804,1,
12,exp1.png,exp2.png,,,,,,,,,,,,,,,,,,2,0,2,0,0,12,12,12,,,,,,,,,False,52,133,True,exp2.png,exp1.png,trial_left_image,1,exp2.png,1,exp2.png,exp1.png,0,4,reversed,correct,0.9703083495137644,1,valid_win,914.7593421000001,78,,,,,,,,,,,,,,,,sub_177,2022-09-20_15h58.31.952,Reversal,2022.1.1,60.06633726299804,1,
13,exp3.png,exp4.png,,,,,,,,,,,,,,,,,,2,0,2,0,0,13,13,13,,,,,,,,,False,53,134,True,exp4.png,exp3.png,trial_right_image,-1,exp3.png,1,exp3.png,exp4.png,1,1,non-reversed,correct,0.9940821808302531,1,valid_win,919.6272797000001,79,,,,,,,,,,,,,,,,sub_177,2022-09-20_15h58.31.952,Reversal,2022.1.1,60.06633726299804,1,
14,exp1.png,exp2.png,,,,,,,,,,,,,,,,,,2,0,2,0,0,14,14,14,,,,,,,,,False,54,135,True,exp2.png,exp1.png,trial_left_image,1,exp2.png,1,exp2.png,exp1.png,0,4,reversed,correct,0.238534171230686,0,invalid_lose,924.7494630000001,79,,,,,,,,,,,,,,,,sub_177,2022-09-20_15h58.31.952,Reversal,2022.1.1,60.06633726299804,1,
15,exp3.png,exp4.png,,,,,,,,,,,,,,,,,,2,0,2,0,0,15,15,15,,,,,,,,,False,55,136,False,exp3.png,exp4.png,trial_left_image,1,exp3.png,1,exp3.png,exp4.png,1,1,non-reversed,correct,0.9784292648964594,1,valid_win,930.9386198000002,80,,,,,,,,,,,,,,,,sub_177,2022-09-20_15h58.31.952,Reversal,2022.1.1,60.06633726299804,1,
16,exp1.png,exp2.png,,,,,,,,,,,,,,,,,,2,0,2,0,0,16,16,16,,,,,,,,,False,56,137,False,exp1.png,exp2.png,trial_right_image,-1,exp2.png,1,exp2.png,exp1.png,0,4,reversed,correct,0.11395773071912452,0,invalid_lose,937.7511452999997,80,,,,,,,,,,,,,,,,sub_177,2022-09-20_15h58.31.952,Reversal,2022.1.1,60.06633726299804,1,
17,exp3.png,exp4.png,,,,,,,,,,,,,,,,,,2,0,2,0,0,17,17,17,,,,,,,,,False,57,138,True,exp4.png,exp3.png,trial_right_image,-1,exp3.png,1,exp3.png,exp4.png,1,1,non-reversed,correct,0.18410339213716964,0,invalid_lose,943.6504712000005,80,,,,,,,,,,,,,,,,sub_177,2022-09-20_15h58.31.952,Reversal,2022.1.1,60.06633726299804,1,
18,exp1.png,exp2.png,,,,,,,,,,,,,,,,,,2,0,2,0,0,18,18,18,,,,,,,,,False,58,139,False,exp1.png,exp2.png,trial_right_image,-1,exp2.png,1,exp2.png,exp1.png,0,4,reversed,correct,0.8465882747248329,1,valid_win,948.4499104000006,81,,,,,,,,,,,,,,,,sub_177,2022-09-20_15h58.31.952,Reversal,2022.1.1,60.06633726299804,1,
19,exp3.png,exp4.png,,,,,,,,,,,,,,,,,,2,0,2,0,0,19,19,19,,,,,,,,,False,59,140,True,exp4.png,exp3.png,trial_left_image,1,exp4.png,1,exp3.png,exp4.png,0,2,non-reversed,incorrect,0.8769579631826465,0,valid_lose,953.6324741999997,81,,,,,,,,,,,,,,,,sub_177,2022-09-20_15h58.31.952,Reversal,2022.1.1,60.06633726299804,1,
20,exp1.png,exp2.png,,,,,,,,,,,,,,,,,,2,0,2,0,0,20,20,20,,,,,,,,,True,,,,,,,,,,,,,,,,,,,,,,,,,,,,,,,,,,,,sub_177,2022-09-20_15h58.31.952,Reversal,2022.1.1,60.06633726299804,1,
,,,exp1.png,,,,,,,,,,,,,,,,,2,0,2,0,,,,,0,0,0,0,0,0,0,0,,,,,,,,,,,,,,,,,,,,,,35.0,4.295096099999682,"[(35.0, 4.295096099999682)]",1031.5466022,None,,35.0,,,,,,,,,sub_177,2022-09-20_15h58.31.952,Reversal,2022.1.1,60.06633726299804,1,
,,,exp2.png,,,,,,,,,,,,,,,,,2,0,2,0,,,,,0,0,0,0,0,1,1,1,,,,,,,,,,,,,,,,,,,,,,38.0,1.4316085999998904,"[(38.0, 1.4316085999998904)]",1037.4350851000008,None,,,38.0,,,,,,,,sub_177,2022-09-20_15h58.31.952,Reversal,2022.1.1,60.06633726299804,1,
,,,exp3.png,,,,,,,,,,,,,,,,,2,0,2,0,,,,,0,0,0,0,0,2,2,2,,,,,,,,,,,,,,,,,,,,,,43.0,0.842879300000277,"[(43.0, 0.842879300000277)]",1040.5456953000003,None,,,,43.0,,,,,,,sub_177,2022-09-20_15h58.31.952,Reversal,2022.1.1,60.06633726299804,1,
,,,exp4.png,,,,,,,,,,,,,,,,,2,0,2,0,,,,,0,0,0,0,0,3,3,3,,,,,,,,,,,,,,,,,,,,,,42.0,0.8259686000001238,"[(42.0, 0.8259686000001238)]",1042.6721378000002,None,,,,,42.0,,,,,,sub_177,2022-09-20_15h58.31.952,Reversal,2022.1.1,60.06633726299804,1,
,,,,,,,,,,,,,,,,,,,,,,,,,,,,,,,,,,,,,,,,,,,,,,,,,,,,,,,,81,,,,,,,,,,,101,51,50,377.4840438000001,1,,,,,,,
