trial_index,trial_image1_file,trial_image2_file,image_file,learning_outer_loop.thisRepN,learning_outer_loop.thisTrialN,learning_outer_loop.thisN,learning_outer_loop.thisIndex,learning_inner_loop.thisRepN,learning_inner_loop.thisTrialN,learning_inner_loop.thisN,learning_inner_loop.thisIndex,learning_estimation_outer_loop.thisRepN,learning_estimation_outer_loop.thisTrialN,learning_estimation_outer_loop.thisN,learning_estimation_outer_loop.thisIndex,learning_estimation_inner_loop.thisRepN,learning_estimation_inner_loop.thisTrialN,learning_estimation_inner_loop.thisN,learning_estimation_inner_loop.thisIndex,reversal_outer_loop.thisRepN,reversal_outer_loop.thisTrialN,reversal_outer_loop.thisN,reversal_outer_loop.thisIndex,reversal_inner_loop.thisRepN,reversal_inner_loop.thisTrialN,reversal_inner_loop.thisN,reversal_inner_loop.thisIndex,reversal_estimation_outer_loop.thisRepN,reversal_estimation_outer_loop.thisTrialN,reversal_estimation_outer_loop.thisN,reversal_estimation_outer_loop.thisIndex,reversal_estimation_inner_loop.thisRepN,reversal_estimation_inner_loop.thisTrialN,reversal_estimation_inner_loop.thisN,reversal_estimation_inner_loop.thisIndex,skipped,total_trial_counter,trial_num,left_right_flip,left_image_file,right_image_file,clicked_stimulus_side,side,clicked_stimulus,version,high_prob_image_file,low_prob_image_file,choice_a,choice_b,pair_type,correct,trial_feedback_random,reward,trial_type,overall_time_after_trial,score,estimation_rating.started,estimation_exp1.png,estimation_rating.response,estimation_rating.rt,estimation_rating.history,estimation_exp2.png,estimation_exp3.png,estimation_exp4.png,total_learning_time,total_correct,learning_correct,reversal_correct,total_reversal_time,extra_block,participant,date,expName,psychopyVersion,frameRate,ver,
0,exp1.png,exp2.png,,0,0,0,0,0,0,0,0,,,,,,,,,,,,,,,,,,,,,,,,,True,,,,,,,,,,,,,,,,,,,,,,,,,,,,,,,,,,,sub_809,2024-09-15_10h49.38.817,Reversal,2023.1.3,59.91389175473956,1,
1,exp3.png,exp4.png,,0,0,0,0,0,1,1,1,,,,,,,,,,,,,,,,,,,,,,,,,False,0,1,True,exp4.png,exp3.png,trial_left_image,1,exp4.png,1,exp3.png,exp4.png,0,2,non-reversed,incorrect,0.04278570058939857,1,invalid_win,3.914260000000013,1,,,,,,,,,,,,,,,sub_809,2024-09-15_10h49.38.817,Reversal,2023.1.3,59.91389175473956,1,
2,exp1.png,exp2.png,,0,0,0,0,0,2,2,2,,,,,,,,,,,,,,,,,,,,,,,,,False,1,2,False,exp1.png,exp2.png,trial_right_image,-1,exp2.png,1,exp1.png,exp2.png,0,4,reversed,incorrect,0.18924532113507075,1,invalid_win,11.745215300000382,2,,,,,,,,,,,,,,,sub_809,2024-09-15_10h49.38.817,Reversal,2023.1.3,59.91389175473956,1,
3,exp3.png,exp4.png,,0,0,0,0,0,3,3,3,,,,,,,,,,,,,,,,,,,,,,,,,False,2,3,False,exp3.png,exp4.png,trial_right_image,-1,exp4.png,1,exp3.png,exp4.png,0,2,non-reversed,incorrect,0.8056204247658413,0,valid_lose,17.942873099999815,2,,,,,,,,,,,,,,,sub_809,2024-09-15_10h49.38.817,Reversal,2023.1.3,59.91389175473956,1,
4,exp1.png,exp2.png,,0,0,0,0,0,4,4,4,,,,,,,,,,,,,,,,,,,,,,,,,False,3,4,False,exp1.png,exp2.png,trial_right_image,-1,exp2.png,1,exp1.png,exp2.png,0,4,reversed,incorrect,0.26513693603567534,0,valid_lose,22.84116180000001,2,,,,,,,,,,,,,,,sub_809,2024-09-15_10h49.38.817,Reversal,2023.1.3,59.91389175473956,1,
5,exp3.png,exp4.png,,0,0,0,0,0,5,5,5,,,,,,,,,,,,,,,,,,,,,,,,,False,4,5,False,exp3.png,exp4.png,trial_left_image,1,exp3.png,1,exp3.png,exp4.png,1,1,non-reversed,correct,0.5546831444680511,1,valid_win,27.04115399999955,3,,,,,,,,,,,,,,,sub_809,2024-09-15_10h49.38.817,Reversal,2023.1.3,59.91389175473956,1,
6,exp1.png,exp2.png,,0,0,0,0,0,6,6,6,,,,,,,,,,,,,,,,,,,,,,,,,False,5,6,True,exp2.png,exp1.png,trial_right_image,-1,exp1.png,1,exp1.png,exp2.png,1,3,reversed,correct,0.22193262303415573,0,invalid_lose,31.2721475999997,3,,,,,,,,,,,,,,,sub_809,2024-09-15_10h49.38.817,Reversal,2023.1.3,59.91389175473956,1,
7,exp3.png,exp4.png,,0,0,0,0,0,7,7,7,,,,,,,,,,,,,,,,,,,,,,,,,False,6,7,True,exp4.png,exp3.png,trial_right_image,-1,exp3.png,1,exp3.png,exp4.png,1,1,non-reversed,correct,0.24775700689928826,0,invalid_lose,35.75298399999974,3,,,,,,,,,,,,,,,sub_809,2024-09-15_10h49.38.817,Reversal,2023.1.3,59.91389175473956,1,
8,exp1.png,exp2.png,,0,0,0,0,0,8,8,8,,,,,,,,,,,,,,,,,,,,,,,,,False,7,8,True,exp2.png,exp1.png,trial_left_image,1,exp2.png,1,exp1.png,exp2.png,0,4,reversed,incorrect,0.3491820950524366,0,valid_lose,40.18489200000022,3,,,,,,,,,,,,,,,sub_809,2024-09-15_10h49.38.817,Reversal,2023.1.3,59.91389175473956,1,
9,exp3.png,exp4.png,,0,0,0,0,0,9,9,9,,,,,,,,,,,,,,,,,,,,,,,,,False,8,9,True,exp4.png,exp3.png,trial_right_image,-1,exp3.png,1,exp3.png,exp4.png,1,1,non-reversed,correct,0.015225971560493434,0,invalid_lose,44.20078039999953,3,,,,,,,,,,,,,,,sub_809,2024-09-15_10h49.38.817,Reversal,2023.1.3,59.91389175473956,1,
10,exp1.png,exp2.png,,0,0,0,0,0,10,10,10,,,,,,,,,,,,,,,,,,,,,,,,,False,9,10,False,exp1.png,exp2.png,trial_right_image,-1,exp2.png,1,exp1.png,exp2.png,0,4,reversed,incorrect,0.8502780495067574,0,valid_lose,48.23231440000018,3,,,,,,,,,,,,,,,sub_809,2024-09-15_10h49.38.817,Reversal,2023.1.3,59.91389175473956,1,
11,exp3.png,exp4.png,,0,0,0,0,0,11,11,11,,,,,,,,,,,,,,,,,,,,,,,,,False,10,11,True,exp4.png,exp3.png,trial_left_image,1,exp4.png,1,exp3.png,exp4.png,0,2,non-reversed,incorrect,0.924827673370592,0,valid_lose,52.29827599999953,3,,,,,,,,,,,,,,,sub_809,2024-09-15_10h49.38.817,Reversal,2023.1.3,59.91389175473956,1,
12,exp1.png,exp2.png,,0,0,0,0,0,12,12,12,,,,,,,,,,,,,,,,,,,,,,,,,False,11,12,False,exp1.png,exp2.png,trial_left_image,1,exp1.png,1,exp1.png,exp2.png,1,3,reversed,correct,0.23716317901133155,0,invalid_lose,56.26387849999992,3,,,,,,,,,,,,,,,sub_809,2024-09-15_10h49.38.817,Reversal,2023.1.3,59.91389175473956,1,
13,exp3.png,exp4.png,,0,0,0,0,0,13,13,13,,,,,,,,,,,,,,,,,,,,,,,,,False,12,13,False,exp3.png,exp4.png,trial_right_image,-1,exp4.png,1,exp3.png,exp4.png,0,2,non-reversed,incorrect,0.9207262895314626,0,valid_lose,60.1620025000002,3,,,,,,,,,,,,,,,sub_809,2024-09-15_10h49.38.817,Reversal,2023.1.3,59.91389175473956,1,
14,exp1.png,exp2.png,,0,0,0,0,0,14,14,14,,,,,,,,,,,,,,,,,,,,,,,,,False,13,14,False,exp1.png,exp2.png,trial_right_image,-1,exp2.png,1,exp1.png,exp2.png,0,4,reversed,incorrect,0.7183134026733132,0,valid_lose,63.72636320000038,3,,,,,,,,,,,,,,,sub_809,2024-09-15_10h49.38.817,Reversal,2023.1.3,59.91389175473956,1,
15,exp3.png,exp4.png,,0,0,0,0,0,15,15,15,,,,,,,,,,,,,,,,,,,,,,,,,False,14,15,True,exp4.png,exp3.png,trial_left_image,1,exp4.png,1,exp3.png,exp4.png,0,2,non-reversed,incorrect,0.23393233553121062,1,invalid_win,68.79192599999988,4,,,,,,,,,,,,,,,sub_809,2024-09-15_10h49.38.817,Reversal,2023.1.3,59.91389175473956,1,
16,exp1.png,exp2.png,,0,0,0,0,0,16,16,16,,,,,,,,,,,,,,,,,,,,,,,,,False,15,16,True,exp2.png,exp1.png,trial_left_image,1,exp2.png,1,exp1.png,exp2.png,0,4,reversed,incorrect,0.3929744164664417,0,valid_lose,74.80719330000011,4,,,,,,,,,,,,,,,sub_809,2024-09-15_10h49.38.817,Reversal,2023.1.3,59.91389175473956,1,
17,exp3.png,exp4.png,,0,0,0,0,0,17,17,17,,,,,,,,,,,,,,,,,,,,,,,,,False,16,17,False,exp3.png,exp4.png,trial_left_image,1,exp3.png,1,exp3.png,exp4.png,1,1,non-reversed,correct,0.403673421333718,1,valid_win,79.52189980000003,5,,,,,,,,,,,,,,,sub_809,2024-09-15_10h49.38.817,Reversal,2023.1.3,59.91389175473956,1,
18,exp1.png,exp2.png,,0,0,0,0,0,18,18,18,,,,,,,,,,,,,,,,,,,,,,,,,False,17,18,True,exp2.png,exp1.png,trial_right_image,-1,exp1.png,1,exp1.png,exp2.png,1,3,reversed,correct,0.5017183760948986,1,valid_win,83.43730059999962,6,,,,,,,,,,,,,,,sub_809,2024-09-15_10h49.38.817,Reversal,2023.1.3,59.91389175473956,1,
19,exp3.png,exp4.png,,0,0,0,0,0,19,19,19,,,,,,,,,,,,,,,,,,,,,,,,,False,18,19,False,exp3.png,exp4.png,trial_left_image,1,exp3.png,1,exp3.png,exp4.png,1,1,non-reversed,correct,0.8228392180081402,1,valid_win,87.45225779999964,7,,,,,,,,,,,,,,,sub_809,2024-09-15_10h49.38.817,Reversal,2023.1.3,59.91389175473956,1,
20,exp1.png,exp2.png,,0,0,0,0,0,20,20,20,,,,,,,,,,,,,,,,,,,,,,,,,False,19,20,True,exp2.png,exp1.png,trial_right_image,-1,exp1.png,1,exp1.png,exp2.png,1,3,reversed,correct,0.4599246758413318,1,valid_win,91.51807009999993,8,,,,,,,,,,,,,,,sub_809,2024-09-15_10h49.38.817,Reversal,2023.1.3,59.91389175473956,1,
,,,exp1.png,0,0,0,0,,,,,0,0,0,0,0,0,0,0,,,,,,,,,,,,,,,,,,,,,,,,,,,,,,,,,,,,,,169.6026665999998,94.0,94.0,8.787260099999912,"[(94.0, 8.787260099999912)]",,,,,,,,,,sub_809,2024-09-15_10h49.38.817,Reversal,2023.1.3,59.91389175473956,1,
,,,exp2.png,0,0,0,0,,,,,0,0,0,0,0,1,1,1,,,,,,,,,,,,,,,,,,,,,,,,,,,,,,,,,,,,,,179.7218600999995,,15.0,4.57426200000009,"[(15.0, 4.57426200000009)]",15.0,,,,,,,,,sub_809,2024-09-15_10h49.38.817,Reversal,2023.1.3,59.91389175473956,1,
,,,exp3.png,0,0,0,0,,,,,0,0,0,0,0,2,2,2,,,,,,,,,,,,,,,,,,,,,,,,,,,,,,,,,,,,,,187.01827390000017,,74.0,5.8746062999998685,"[(74.0, 5.8746062999998685)]",,74.0,,,,,,,,sub_809,2024-09-15_10h49.38.817,Reversal,2023.1.3,59.91389175473956,1,
,,,exp4.png,0,0,0,0,,,,,0,0,0,0,0,3,3,3,,,,,,,,,,,,,,,,,,,,,,,,,,,,,,,,,,,,,,196.41662709999946,,25.0,3.059718900000007,"[(25.0, 3.059718900000007)]",,,25.0,,,,,,,sub_809,2024-09-15_10h49.38.817,Reversal,2023.1.3,59.91389175473956,1,
0,exp1.png,exp2.png,,1,0,1,0,0,0,0,0,,,,,,,,,,,,,,,,,,,,,,,,,True,,,,,,,,,,,,,,,,,,,,,,,,,,,,,,,,,,,sub_809,2024-09-15_10h49.38.817,Reversal,2023.1.3,59.91389175473956,1,
1,exp3.png,exp4.png,,1,0,1,0,0,1,1,1,,,,,,,,,,,,,,,,,,,,,,,,,False,20,21,False,exp3.png,exp4.png,trial_left_image,1,exp3.png,1,exp3.png,exp4.png,1,1,non-reversed,correct,0.869778750848791,1,valid_win,133.13770269999986,9,,,,,,,,,,,,,,,sub_809,2024-09-15_10h49.38.817,Reversal,2023.1.3,59.91389175473956,1,
2,exp1.png,exp2.png,,1,0,1,0,0,2,2,2,,,,,,,,,,,,,,,,,,,,,,,,,False,21,22,True,exp2.png,exp1.png,trial_right_image,-1,exp1.png,1,exp1.png,exp2.png,1,3,reversed,correct,0.8058231032563528,1,valid_win,137.3695773999998,10,,,,,,,,,,,,,,,sub_809,2024-09-15_10h49.38.817,Reversal,2023.1.3,59.91389175473956,1,
3,exp3.png,exp4.png,,1,0,1,0,0,3,3,3,,,,,,,,,,,,,,,,,,,,,,,,,False,22,23,False,exp3.png,exp4.png,trial_left_image,1,exp3.png,1,exp3.png,exp4.png,1,1,non-reversed,correct,0.12429619266601222,0,invalid_lose,141.3848452000002,10,,,,,,,,,,,,,,,sub_809,2024-09-15_10h49.38.817,Reversal,2023.1.3,59.91389175473956,1,
4,exp1.png,exp2.png,,1,0,1,0,0,4,4,4,,,,,,,,,,,,,,,,,,,,,,,,,False,23,24,True,exp2.png,exp1.png,trial_right_image,-1,exp1.png,1,exp1.png,exp2.png,1,3,reversed,correct,0.8235686779194336,1,valid_win,145.5500087999999,11,,,,,,,,,,,,,,,sub_809,2024-09-15_10h49.38.817,Reversal,2023.1.3,59.91389175473956,1,
5,exp3.png,exp4.png,,1,0,1,0,0,5,5,5,,,,,,,,,,,,,,,,,,,,,,,,,False,24,25,False,exp3.png,exp4.png,trial_left_image,1,exp3.png,1,exp3.png,exp4.png,1,1,non-reversed,correct,0.5797090385375406,1,valid_win,149.84871420000036,12,,,,,,,,,,,,,,,sub_809,2024-09-15_10h49.38.817,Reversal,2023.1.3,59.91389175473956,1,
6,exp1.png,exp2.png,,1,0,1,0,0,6,6,6,,,,,,,,,,,,,,,,,,,,,,,,,False,25,26,True,exp2.png,exp1.png,trial_right_image,-1,exp1.png,1,exp1.png,exp2.png,1,3,reversed,correct,0.2845287956709295,1,valid_win,153.88042459999997,13,,,,,,,,,,,,,,,sub_809,2024-09-15_10h49.38.817,Reversal,2023.1.3,59.91389175473956,1,
7,exp3.png,exp4.png,,1,0,1,0,0,7,7,7,,,,,,,,,,,,,,,,,,,,,,,,,False,26,27,True,exp4.png,exp3.png,trial_right_image,-1,exp3.png,1,exp3.png,exp4.png,1,1,non-reversed,correct,0.2047613666793573,0,invalid_lose,158.47832990000006,13,,,,,,,,,,,,,,,sub_809,2024-09-15_10h49.38.817,Reversal,2023.1.3,59.91389175473956,1,
8,exp1.png,exp2.png,,1,0,1,0,0,8,8,8,,,,,,,,,,,,,,,,,,,,,,,,,False,27,28,True,exp2.png,exp1.png,trial_right_image,-1,exp1.png,1,exp1.png,exp2.png,1,3,reversed,correct,0.5399118341261719,1,valid_win,162.4936435999998,14,,,,,,,,,,,,,,,sub_809,2024-09-15_10h49.38.817,Reversal,2023.1.3,59.91389175473956,1,
9,exp3.png,exp4.png,,1,0,1,0,0,9,9,9,,,,,,,,,,,,,,,,,,,,,,,,,False,28,29,False,exp3.png,exp4.png,trial_left_image,1,exp3.png,1,exp3.png,exp4.png,1,1,non-reversed,correct,0.8002394557575269,1,valid_win,166.62552419999975,15,,,,,,,,,,,,,,,sub_809,2024-09-15_10h49.38.817,Reversal,2023.1.3,59.91389175473956,1,
10,exp1.png,exp2.png,,1,0,1,0,0,10,10,10,,,,,,,,,,,,,,,,,,,,,,,,,False,29,30,False,exp1.png,exp2.png,trial_left_image,1,exp1.png,1,exp1.png,exp2.png,1,3,reversed,correct,0.6963568154628305,1,valid_win,172.80722989999958,16,,,,,,,,,,,,,,,sub_809,2024-09-15_10h49.38.817,Reversal,2023.1.3,59.91389175473956,1,
11,exp3.png,exp4.png,,1,0,1,0,0,11,11,11,,,,,,,,,,,,,,,,,,,,,,,,,False,30,31,False,exp3.png,exp4.png,trial_left_image,1,exp3.png,1,exp3.png,exp4.png,1,1,non-reversed,correct,0.6003872957414773,1,valid_win,177.0893742999997,17,,,,,,,,,,,,,,,sub_809,2024-09-15_10h49.38.817,Reversal,2023.1.3,59.91389175473956,1,
12,exp1.png,exp2.png,,1,0,1,0,0,12,12,12,,,,,,,,,,,,,,,,,,,,,,,,,False,31,32,False,exp1.png,exp2.png,trial_left_image,1,exp1.png,1,exp1.png,exp2.png,1,3,reversed,correct,0.3687334903267092,1,valid_win,181.6206801999997,18,,,,,,,,,,,,,,,sub_809,2024-09-15_10h49.38.817,Reversal,2023.1.3,59.91389175473956,1,
13,exp3.png,exp4.png,,1,0,1,0,0,13,13,13,,,,,,,,,,,,,,,,,,,,,,,,,False,32,33,False,exp3.png,exp4.png,trial_left_image,1,exp3.png,1,exp3.png,exp4.png,1,1,non-reversed,correct,0.11930931486890517,0,invalid_lose,185.57017389999965,18,,,,,,,,,,,,,,,sub_809,2024-09-15_10h49.38.817,Reversal,2023.1.3,59.91389175473956,1,
14,exp1.png,exp2.png,,1,0,1,0,0,14,14,14,,,,,,,,,,,,,,,,,,,,,,,,,False,33,34,True,exp2.png,exp1.png,trial_right_image,-1,exp1.png,1,exp1.png,exp2.png,1,3,reversed,correct,0.9342823605438789,1,valid_win,189.63550120000036,19,,,,,,,,,,,,,,,sub_809,2024-09-15_10h49.38.817,Reversal,2023.1.3,59.91389175473956,1,
15,exp3.png,exp4.png,,1,0,1,0,0,15,15,15,,,,,,,,,,,,,,,,,,,,,,,,,False,34,35,True,exp4.png,exp3.png,trial_right_image,-1,exp3.png,1,exp3.png,exp4.png,1,1,non-reversed,correct,0.5166715242200586,1,valid_win,195.03325440000026,20,,,,,,,,,,,,,,,sub_809,2024-09-15_10h49.38.817,Reversal,2023.1.3,59.91389175473956,1,
16,exp1.png,exp2.png,,1,0,1,0,0,16,16,16,,,,,,,,,,,,,,,,,,,,,,,,,False,35,36,True,exp2.png,exp1.png,trial_right_image,-1,exp1.png,1,exp1.png,exp2.png,1,3,reversed,correct,0.7848270806949653,1,valid_win,199.19830879999972,21,,,,,,,,,,,,,,,sub_809,2024-09-15_10h49.38.817,Reversal,2023.1.3,59.91389175473956,1,
17,exp3.png,exp4.png,,1,0,1,0,0,17,17,17,,,,,,,,,,,,,,,,,,,,,,,,,False,36,37,False,exp3.png,exp4.png,trial_right_image,-1,exp4.png,1,exp3.png,exp4.png,0,2,non-reversed,incorrect,0.39257017799669935,0,valid_lose,203.41337790000034,21,,,,,,,,,,,,,,,sub_809,2024-09-15_10h49.38.817,Reversal,2023.1.3,59.91389175473956,1,
18,exp1.png,exp2.png,,1,0,1,0,0,18,18,18,,,,,,,,,,,,,,,,,,,,,,,,,False,37,38,True,exp2.png,exp1.png,trial_right_image,-1,exp1.png,1,exp1.png,exp2.png,1,3,reversed,correct,0.2908625791795474,1,valid_win,207.32931800000006,22,,,,,,,,,,,,,,,sub_809,2024-09-15_10h49.38.817,Reversal,2023.1.3,59.91389175473956,1,
19,exp3.png,exp4.png,,1,0,1,0,0,19,19,19,,,,,,,,,,,,,,,,,,,,,,,,,False,38,39,False,exp3.png,exp4.png,trial_left_image,1,exp3.png,1,exp3.png,exp4.png,1,1,non-reversed,correct,0.7506575437613715,1,valid_win,211.2944023,23,,,,,,,,,,,,,,,sub_809,2024-09-15_10h49.38.817,Reversal,2023.1.3,59.91389175473956,1,
20,exp1.png,exp2.png,,1,0,1,0,0,20,20,20,,,,,,,,,,,,,,,,,,,,,,,,,False,39,40,True,exp2.png,exp1.png,trial_right_image,-1,exp1.png,1,exp1.png,exp2.png,1,3,reversed,correct,0.5611996054865435,1,valid_win,215.39269299999978,24,,,,,,,,,,,,,,,sub_809,2024-09-15_10h49.38.817,Reversal,2023.1.3,59.91389175473956,1,
,,,exp1.png,1,0,1,0,,,,,0,0,0,0,0,0,0,0,,,,,,,,,,,,,,,,,,,,,,,,,,,,,,,,,,,,,,293.46679799999947,96.0,96.0,5.408242900000005,"[(96.0, 5.408242900000005)]",,,,,,,,,,sub_809,2024-09-15_10h49.38.817,Reversal,2023.1.3,59.91389175473956,1,
,,,exp2.png,1,0,1,0,,,,,0,0,0,0,0,1,1,1,,,,,,,,,,,,,,,,,,,,,,,,,,,,,,,,,,,,,,301.7109289,,2.0,3.492838799999845,"[(2.0, 3.492838799999845)]",2.0,,,,,,,,,sub_809,2024-09-15_10h49.38.817,Reversal,2023.1.3,59.91389175473956,1,
,,,exp3.png,1,0,1,0,,,,,0,0,0,0,0,2,2,2,,,,,,,,,,,,,,,,,,,,,,,,,,,,,,,,,,,,,,306.0622886000001,,69.0,10.157634600000165,"[(69.0, 10.157634600000165)]",,69.0,,,,,,,,sub_809,2024-09-15_10h49.38.817,Reversal,2023.1.3,59.91389175473956,1,
,,,exp4.png,1,0,1,0,,,,,0,0,0,0,0,3,3,3,,,,,,,,,,,,,,,,,,,,,,,,,,,,,,,,,,,,,,317.54239830000006,,17.0,4.042211699999825,"[(17.0, 4.042211699999825)]",,,17.0,,,,,,,sub_809,2024-09-15_10h49.38.817,Reversal,2023.1.3,59.91389175473956,1,
0,exp1.png,exp2.png,,2,0,2,0,0,0,0,0,,,,,,,,,,,,,,,,,,,,,,,,,True,,,,,,,,,,,,,,,,,,,,,,,,,,,,,,,,,,,sub_809,2024-09-15_10h49.38.817,Reversal,2023.1.3,59.91389175473956,1,
1,exp3.png,exp4.png,,2,0,2,0,0,1,1,1,,,,,,,,,,,,,,,,,,,,,,,,,False,40,41,True,exp4.png,exp3.png,trial_right_image,-1,exp3.png,1,exp3.png,exp4.png,1,1,non-reversed,correct,0.48401438686180553,1,valid_win,249.26436939999985,25,,,,,,,,,,,,,,,sub_809,2024-09-15_10h49.38.817,Reversal,2023.1.3,59.91389175473956,1,
2,exp1.png,exp2.png,,2,0,2,0,0,2,2,2,,,,,,,,,,,,,,,,,,,,,,,,,False,41,42,False,exp1.png,exp2.png,trial_left_image,1,exp1.png,1,exp1.png,exp2.png,1,3,reversed,correct,0.8779162623661196,1,valid_win,253.76278860000002,26,,,,,,,,,,,,,,,sub_809,2024-09-15_10h49.38.817,Reversal,2023.1.3,59.91389175473956,1,
3,exp3.png,exp4.png,,2,0,2,0,0,3,3,3,,,,,,,,,,,,,,,,,,,,,,,,,False,42,43,True,exp4.png,exp3.png,trial_right_image,-1,exp3.png,1,exp3.png,exp4.png,1,1,non-reversed,correct,0.9702508641782304,1,valid_win,258.02819929999987,27,,,,,,,,,,,,,,,sub_809,2024-09-15_10h49.38.817,Reversal,2023.1.3,59.91389175473956,1,
4,exp1.png,exp2.png,,2,0,2,0,0,4,4,4,,,,,,,,,,,,,,,,,,,,,,,,,False,43,44,False,exp1.png,exp2.png,trial_left_image,1,exp1.png,1,exp1.png,exp2.png,1,3,reversed,correct,0.36225911567518243,1,valid_win,262.07684510000036,28,,,,,,,,,,,,,,,sub_809,2024-09-15_10h49.38.817,Reversal,2023.1.3,59.91389175473956,1,
5,exp3.png,exp4.png,,2,0,2,0,0,5,5,5,,,,,,,,,,,,,,,,,,,,,,,,,False,44,45,False,exp3.png,exp4.png,trial_left_image,1,exp3.png,1,exp3.png,exp4.png,1,1,non-reversed,correct,0.044097937854125635,0,invalid_lose,267.90853809999953,28,,,,,,,,,,,,,,,sub_809,2024-09-15_10h49.38.817,Reversal,2023.1.3,59.91389175473956,1,
6,exp1.png,exp2.png,,2,0,2,0,0,6,6,6,,,,,,,,,,,,,,,,,,,,,,,,,False,45,46,False,exp1.png,exp2.png,trial_left_image,1,exp1.png,1,exp1.png,exp2.png,1,3,reversed,correct,0.7434948434178461,1,valid_win,271.97335420000036,29,,,,,,,,,,,,,,,sub_809,2024-09-15_10h49.38.817,Reversal,2023.1.3,59.91389175473956,1,
7,exp3.png,exp4.png,,2,0,2,0,0,7,7,7,,,,,,,,,,,,,,,,,,,,,,,,,False,46,47,True,exp4.png,exp3.png,trial_right_image,-1,exp3.png,1,exp3.png,exp4.png,1,1,non-reversed,correct,0.721674533572173,1,valid_win,276.1556620000001,30,,,,,,,,,,,,,,,sub_809,2024-09-15_10h49.38.817,Reversal,2023.1.3,59.91389175473956,1,
8,exp1.png,exp2.png,,2,0,2,0,0,8,8,8,,,,,,,,,,,,,,,,,,,,,,,,,False,47,48,True,exp2.png,exp1.png,trial_right_image,-1,exp1.png,1,exp1.png,exp2.png,1,3,reversed,correct,0.11250760083287625,0,invalid_lose,280.2872891999996,30,,,,,,,,,,,,,,,sub_809,2024-09-15_10h49.38.817,Reversal,2023.1.3,59.91389175473956,1,
9,exp3.png,exp4.png,,2,0,2,0,0,9,9,9,,,,,,,,,,,,,,,,,,,,,,,,,False,48,49,False,exp3.png,exp4.png,trial_right_image,-1,exp4.png,1,exp3.png,exp4.png,0,2,non-reversed,incorrect,0.7490089995657562,0,valid_lose,285.31993690000036,30,,,,,,,,,,,,,,,sub_809,2024-09-15_10h49.38.817,Reversal,2023.1.3,59.91389175473956,1,
10,exp1.png,exp2.png,,2,0,2,0,0,10,10,10,,,,,,,,,,,,,,,,,,,,,,,,,False,49,50,False,exp1.png,exp2.png,trial_left_image,1,exp1.png,1,exp1.png,exp2.png,1,3,reversed,correct,0.1143214967121855,0,invalid_lose,289.3013621,30,,,,,,,,,,,,,,,sub_809,2024-09-15_10h49.38.817,Reversal,2023.1.3,59.91389175473956,1,
11,exp3.png,exp4.png,,2,0,2,0,0,11,11,11,,,,,,,,,,,,,,,,,,,,,,,,,False,50,51,True,exp4.png,exp3.png,trial_left_image,1,exp4.png,1,exp3.png,exp4.png,0,2,non-reversed,incorrect,0.9488904961053563,0,valid_lose,293.5827040000004,30,,,,,,,,,,,,,,,sub_809,2024-09-15_10h49.38.817,Reversal,2023.1.3,59.91389175473956,1,
12,exp1.png,exp2.png,,2,0,2,0,0,12,12,12,,,,,,,,,,,,,,,,,,,,,,,,,False,51,52,True,exp2.png,exp1.png,trial_right_image,-1,exp1.png,1,exp1.png,exp2.png,1,3,reversed,correct,0.415584207335279,1,valid_win,298.03219009999975,31,,,,,,,,,,,,,,,sub_809,2024-09-15_10h49.38.817,Reversal,2023.1.3,59.91389175473956,1,
13,exp3.png,exp4.png,,2,0,2,0,0,13,13,13,,,,,,,,,,,,,,,,,,,,,,,,,False,52,53,False,exp3.png,exp4.png,trial_left_image,1,exp3.png,1,exp3.png,exp4.png,1,1,non-reversed,correct,0.5421952574512899,1,valid_win,302.3968941000003,32,,,,,,,,,,,,,,,sub_809,2024-09-15_10h49.38.817,Reversal,2023.1.3,59.91389175473956,1,
14,exp1.png,exp2.png,,2,0,2,0,0,14,14,14,,,,,,,,,,,,,,,,,,,,,,,,,False,53,54,True,exp2.png,exp1.png,trial_right_image,-1,exp1.png,1,exp1.png,exp2.png,1,3,reversed,correct,0.22695160237967094,0,invalid_lose,306.4288839000001,32,,,,,,,,,,,,,,,sub_809,2024-09-15_10h49.38.817,Reversal,2023.1.3,59.91389175473956,1,
15,exp3.png,exp4.png,,2,0,2,0,0,15,15,15,,,,,,,,,,,,,,,,,,,,,,,,,False,54,55,True,exp4.png,exp3.png,trial_left_image,1,exp4.png,1,exp3.png,exp4.png,0,2,non-reversed,incorrect,0.38340317536026536,0,valid_lose,310.47766649999994,32,,,,,,,,,,,,,,,sub_809,2024-09-15_10h49.38.817,Reversal,2023.1.3,59.91389175473956,1,
16,exp1.png,exp2.png,,2,0,2,0,0,16,16,16,,,,,,,,,,,,,,,,,,,,,,,,,False,55,56,True,exp2.png,exp1.png,trial_right_image,-1,exp1.png,1,exp1.png,exp2.png,1,3,reversed,correct,0.2044690353590667,0,invalid_lose,314.7087378999995,32,,,,,,,,,,,,,,,sub_809,2024-09-15_10h49.38.817,Reversal,2023.1.3,59.91389175473956,1,
17,exp3.png,exp4.png,,2,0,2,0,0,17,17,17,,,,,,,,,,,,,,,,,,,,,,,,,False,56,57,False,exp3.png,exp4.png,trial_right_image,-1,exp4.png,1,exp3.png,exp4.png,0,2,non-reversed,incorrect,0.025117179474076212,1,invalid_win,319.7076245999997,33,,,,,,,,,,,,,,,sub_809,2024-09-15_10h49.38.817,Reversal,2023.1.3,59.91389175473956,1,
18,exp1.png,exp2.png,,2,0,2,0,0,18,18,18,,,,,,,,,,,,,,,,,,,,,,,,,False,57,58,False,exp1.png,exp2.png,trial_right_image,-1,exp2.png,1,exp1.png,exp2.png,0,4,reversed,incorrect,0.6245291251403086,0,valid_lose,323.6733113999999,33,,,,,,,,,,,,,,,sub_809,2024-09-15_10h49.38.817,Reversal,2023.1.3,59.91389175473956,1,
19,exp3.png,exp4.png,,2,0,2,0,0,19,19,19,,,,,,,,,,,,,,,,,,,,,,,,,False,58,59,True,exp4.png,exp3.png,trial_left_image,1,exp4.png,1,exp3.png,exp4.png,0,2,non-reversed,incorrect,0.7620160470373865,0,valid_lose,329.00474490000033,33,,,,,,,,,,,,,,,sub_809,2024-09-15_10h49.38.817,Reversal,2023.1.3,59.91389175473956,1,
20,exp1.png,exp2.png,,2,0,2,0,0,20,20,20,,,,,,,,,,,,,,,,,,,,,,,,,False,59,60,False,exp1.png,exp2.png,trial_left_image,1,exp1.png,1,exp1.png,exp2.png,1,3,reversed,correct,0.6679873712486816,1,valid_win,333.4196224999996,34,,,,,,,,,,,,,,,sub_809,2024-09-15_10h49.38.817,Reversal,2023.1.3,59.91389175473956,1,
,,,exp1.png,2,0,2,0,,,,,0,0,0,0,0,0,0,0,,,,,,,,,,,,,,,,,,,,,,,,,,,,,,,,,,,,,,411.5116280000002,53.0,53.0,5.323504799999682,"[(53.0, 5.323504799999682)]",,,,,,,,,,sub_809,2024-09-15_10h49.38.817,Reversal,2023.1.3,59.91389175473956,1,
,,,exp2.png,2,0,2,0,,,,,0,0,0,0,0,1,1,1,,,,,,,,,,,,,,,,,,,,,,,,,,,,,,,,,,,,,,417.44104139999945,,53.0,2.192809699999998,"[(53.0, 2.192809699999998)]",53.0,,,,,,,,,sub_809,2024-09-15_10h49.38.817,Reversal,2023.1.3,59.91389175473956,1,
,,,exp3.png,2,0,2,0,,,,,0,0,0,0,0,2,2,2,,,,,,,,,,,,,,,,,,,,,,,,,,,,,,,,,,,,,,420.2566023999998,,51.0,3.777715000000171,"[(51.0, 3.777715000000171)]",,51.0,,,,,,,,sub_809,2024-09-15_10h49.38.817,Reversal,2023.1.3,59.91389175473956,1,
,,,exp4.png,2,0,2,0,,,,,0,0,0,0,0,3,3,3,,,,,,,,,,,,,,,,,,,,,,,,,,,,,,,,,,,,,,424.73986650000006,,None,None,[],,,,,,,,,,sub_809,2024-09-15_10h49.38.817,Reversal,2023.1.3,59.91389175473956,1,
0,exp1.png,exp2.png,,3,0,3,0,0,0,0,0,,,,,,,,,,,,,,,,,,,,,,,,,True,,,,,,,,,,,,,,,,,,,,,,,,,,,,,,,,,,,sub_809,2024-09-15_10h49.38.817,Reversal,2023.1.3,59.91389175473956,1,
1,exp3.png,exp4.png,,3,0,3,0,0,1,1,1,,,,,,,,,,,,,,,,,,,,,,,,,False,60,61,True,exp4.png,exp3.png,trial_right_image,-1,exp3.png,1,exp3.png,exp4.png,1,1,non-reversed,correct,0.1475850902647846,0,invalid_lose,352.56349450000016,34,,,,,,,,,,,,,,,sub_809,2024-09-15_10h49.38.817,Reversal,2023.1.3,59.91389175473956,1,
2,exp1.png,exp2.png,,3,0,3,0,0,2,2,2,,,,,,,,,,,,,,,,,,,,,,,,,False,61,62,False,exp1.png,exp2.png,trial_left_image,1,exp1.png,1,exp1.png,exp2.png,1,3,reversed,correct,0.748780975794858,1,valid_win,356.7454404,35,,,,,,,,,,,,,,,sub_809,2024-09-15_10h49.38.817,Reversal,2023.1.3,59.91389175473956,1,
3,exp3.png,exp4.png,,3,0,3,0,0,3,3,3,,,,,,,,,,,,,,,,,,,,,,,,,False,62,63,False,exp3.png,exp4.png,trial_right_image,-1,exp4.png,1,exp3.png,exp4.png,0,2,non-reversed,incorrect,0.07531261294233715,1,invalid_win,361.19458120000036,36,,,,,,,,,,,,,,,sub_809,2024-09-15_10h49.38.817,Reversal,2023.1.3,59.91389175473956,1,
4,exp1.png,exp2.png,,3,0,3,0,0,4,4,4,,,,,,,,,,,,,,,,,,,,,,,,,False,63,64,False,exp1.png,exp2.png,trial_right_image,-1,exp2.png,1,exp1.png,exp2.png,0,4,reversed,incorrect,0.8609025084919736,0,valid_lose,365.15903439999965,36,,,,,,,,,,,,,,,sub_809,2024-09-15_10h49.38.817,Reversal,2023.1.3,59.91389175473956,1,
5,exp3.png,exp4.png,,3,0,3,0,0,5,5,5,,,,,,,,,,,,,,,,,,,,,,,,,False,64,65,False,exp3.png,exp4.png,trial_right_image,-1,exp4.png,1,exp3.png,exp4.png,0,2,non-reversed,incorrect,0.047000380588726465,1,invalid_win,369.1073629000002,37,,,,,,,,,,,,,,,sub_809,2024-09-15_10h49.38.817,Reversal,2023.1.3,59.91389175473956,1,
6,exp1.png,exp2.png,,3,0,3,0,0,6,6,6,,,,,,,,,,,,,,,,,,,,,,,,,False,65,66,True,exp2.png,exp1.png,trial_left_image,1,exp2.png,1,exp1.png,exp2.png,0,4,reversed,incorrect,0.571384110644159,0,valid_lose,372.97260800000004,37,,,,,,,,,,,,,,,sub_809,2024-09-15_10h49.38.817,Reversal,2023.1.3,59.91389175473956,1,
7,exp3.png,exp4.png,,3,0,3,0,0,7,7,7,,,,,,,,,,,,,,,,,,,,,,,,,False,66,67,False,exp3.png,exp4.png,trial_right_image,-1,exp4.png,1,exp3.png,exp4.png,0,2,non-reversed,incorrect,0.3579755034724834,0,valid_lose,376.87157769999976,37,,,,,,,,,,,,,,,sub_809,2024-09-15_10h49.38.817,Reversal,2023.1.3,59.91389175473956,1,
8,exp1.png,exp2.png,,3,0,3,0,0,8,8,8,,,,,,,,,,,,,,,,,,,,,,,,,False,67,68,True,exp2.png,exp1.png,trial_right_image,-1,exp1.png,1,exp1.png,exp2.png,1,3,reversed,correct,0.720288237740136,1,valid_win,380.7199737000001,38,,,,,,,,,,,,,,,sub_809,2024-09-15_10h49.38.817,Reversal,2023.1.3,59.91389175473956,1,
9,exp3.png,exp4.png,,3,0,3,0,0,9,9,9,,,,,,,,,,,,,,,,,,,,,,,,,False,68,69,True,exp4.png,exp3.png,trial_right_image,-1,exp3.png,1,exp3.png,exp4.png,1,1,non-reversed,correct,0.6240268446091388,1,valid_win,384.7190204999997,39,,,,,,,,,,,,,,,sub_809,2024-09-15_10h49.38.817,Reversal,2023.1.3,59.91389175473956,1,
10,exp1.png,exp2.png,,3,0,3,0,0,10,10,10,,,,,,,,,,,,,,,,,,,,,,,,,False,69,70,True,exp2.png,exp1.png,trial_left_image,1,exp2.png,1,exp1.png,exp2.png,0,4,reversed,incorrect,0.4585241743810976,0,valid_lose,388.6007348000003,39,,,,,,,,,,,,,,,sub_809,2024-09-15_10h49.38.817,Reversal,2023.1.3,59.91389175473956,1,
11,exp3.png,exp4.png,,3,0,3,0,0,11,11,11,,,,,,,,,,,,,,,,,,,,,,,,,False,70,71,False,exp3.png,exp4.png,trial_left_image,1,exp3.png,1,exp3.png,exp4.png,1,1,non-reversed,correct,0.8195915199133064,1,valid_win,392.58585219999986,40,,,,,,,,,,,,,,,sub_809,2024-09-15_10h49.38.817,Reversal,2023.1.3,59.91389175473956,1,
12,exp1.png,exp2.png,,3,0,3,0,0,12,12,12,,,,,,,,,,,,,,,,,,,,,,,,,False,71,72,True,exp2.png,exp1.png,trial_right_image,-1,exp1.png,1,exp1.png,exp2.png,1,3,reversed,correct,0.5106159389018148,1,valid_win,396.46461309999995,41,,,,,,,,,,,,,,,sub_809,2024-09-15_10h49.38.817,Reversal,2023.1.3,59.91389175473956,1,
13,exp3.png,exp4.png,,3,0,3,0,0,13,13,13,,,,,,,,,,,,,,,,,,,,,,,,,False,72,73,False,exp3.png,exp4.png,trial_left_image,1,exp3.png,1,exp3.png,exp4.png,1,1,non-reversed,correct,0.7484472498045817,1,valid_win,400.4633447999995,42,,,,,,,,,,,,,,,sub_809,2024-09-15_10h49.38.817,Reversal,2023.1.3,59.91389175473956,1,
14,exp1.png,exp2.png,,3,0,3,0,0,14,14,14,,,,,,,,,,,,,,,,,,,,,,,,,False,73,74,False,exp1.png,exp2.png,trial_left_image,1,exp1.png,1,exp1.png,exp2.png,1,3,reversed,correct,0.5462571016219528,1,valid_win,404.52858670000023,43,,,,,,,,,,,,,,,sub_809,2024-09-15_10h49.38.817,Reversal,2023.1.3,59.91389175473956,1,
15,exp3.png,exp4.png,,3,0,3,0,0,15,15,15,,,,,,,,,,,,,,,,,,,,,,,,,False,74,75,True,exp4.png,exp3.png,trial_right_image,-1,exp3.png,1,exp3.png,exp4.png,1,1,non-reversed,correct,0.704587865621803,1,valid_win,408.54468579999957,44,,,,,,,,,,,,,,,sub_809,2024-09-15_10h49.38.817,Reversal,2023.1.3,59.91389175473956,1,
16,exp1.png,exp2.png,,3,0,3,0,0,16,16,16,,,,,,,,,,,,,,,,,,,,,,,,,False,75,76,False,exp1.png,exp2.png,trial_left_image,1,exp1.png,1,exp1.png,exp2.png,1,3,reversed,correct,0.7970558801121613,1,valid_win,412.4261859999997,45,,,,,,,,,,,,,,,sub_809,2024-09-15_10h49.38.817,Reversal,2023.1.3,59.91389175473956,1,
17,exp3.png,exp4.png,,3,0,3,0,0,17,17,17,,,,,,,,,,,,,,,,,,,,,,,,,False,76,77,True,exp4.png,exp3.png,trial_right_image,-1,exp3.png,1,exp3.png,exp4.png,1,1,non-reversed,correct,0.8892090036772119,1,valid_win,416.2746497999997,46,,,,,,,,,,,,,,,sub_809,2024-09-15_10h49.38.817,Reversal,2023.1.3,59.91389175473956,1,
18,exp1.png,exp2.png,,3,0,3,0,0,18,18,18,,,,,,,,,,,,,,,,,,,,,,,,,False,77,78,False,exp1.png,exp2.png,trial_left_image,1,exp1.png,1,exp1.png,exp2.png,1,3,reversed,correct,0.851205931907653,1,valid_win,420.2401471000003,47,,,,,,,,,,,,,,,sub_809,2024-09-15_10h49.38.817,Reversal,2023.1.3,59.91389175473956,1,
19,exp3.png,exp4.png,,3,0,3,0,0,19,19,19,,,,,,,,,,,,,,,,,,,,,,,,,False,78,79,True,exp4.png,exp3.png,trial_right_image,-1,exp3.png,1,exp3.png,exp4.png,1,1,non-reversed,correct,0.7708298423586895,1,valid_win,424.1059561000002,48,,,,,,,,,,,,,,,sub_809,2024-09-15_10h49.38.817,Reversal,2023.1.3,59.91389175473956,1,
20,exp1.png,exp2.png,,3,0,3,0,0,20,20,20,,,,,,,,,,,,,,,,,,,,,,,,,False,79,80,True,exp2.png,exp1.png,trial_right_image,-1,exp1.png,1,exp1.png,exp2.png,1,3,reversed,correct,0.8570356674247341,1,valid_win,428.12107149999974,49,,,,,,,,,,,,,,,sub_809,2024-09-15_10h49.38.817,Reversal,2023.1.3,59.91389175473956,1,
,,,exp1.png,3,0,3,0,,,,,0,0,0,0,0,0,0,0,,,,,,,,,,,,,,,,,,,,,,,,,,,,,,,,,,,,,,506.20877980000023,92.0,92.0,4.7116666000001715,"[(92.0, 4.7116666000001715)]",,,,,,,,,,sub_809,2024-09-15_10h49.38.817,Reversal,2023.1.3,59.91389175473956,1,
,,,exp2.png,3,0,3,0,,,,,0,0,0,0,0,1,1,1,,,,,,,,,,,,,,,,,,,,,,,,,,,,,,,,,,,,,,511.6920414999995,,3.0,3.659464399999706,"[(3.0, 3.659464399999706)]",3.0,,,,,,,,,sub_809,2024-09-15_10h49.38.817,Reversal,2023.1.3,59.91389175473956,1,
,,,exp3.png,3,0,3,0,,,,,0,0,0,0,0,2,2,2,,,,,,,,,,,,,,,,,,,,,,,,,,,,,,,,,,,,,,516.2578217999999,,94.0,3.025982799999838,"[(94.0, 3.025982799999838)]",,94.0,,,,,,,,sub_809,2024-09-15_10h49.38.817,Reversal,2023.1.3,59.91389175473956,1,
,,,exp4.png,3,0,3,0,,,,,0,0,0,0,0,3,3,3,,,,,,,,,,,,,,,,,,,,,,,,,,,,,,,,,,,,,,519.9375885999998,,7.0,3.4606232999994972,"[(50.0, 1.9289200000002893), (7.0, 3.4606232999994972)]",,,7.0,,,,,,,sub_809,2024-09-15_10h49.38.817,Reversal,2023.1.3,59.91389175473956,1,
0,exp1.png,exp2.png,,,,,,,,,,,,,,,,,,0,0,0,0,0,0,0,0,,,,,,,,,True,,,,,,,,,,,,,,,,,,,,,,,,,,,,,,,,,,,sub_809,2024-09-15_10h49.38.817,Reversal,2023.1.3,59.91389175473956,1,
1,exp3.png,exp4.png,,,,,,,,,,,,,,,,,,0,0,0,0,0,1,1,1,,,,,,,,,False,0,81,False,exp3.png,exp4.png,trial_right_image,-1,exp4.png,1,exp3.png,exp4.png,0,2,non-reversed,incorrect,0.9304617259569994,0,valid_lose,449.1973058000003,49,,,,,,,,,448.7121827000001,,,,,,sub_809,2024-09-15_10h49.38.817,Reversal,2023.1.3,59.91389175473956,1,
2,exp1.png,exp2.png,,,,,,,,,,,,,,,,,,0,0,0,0,0,2,2,2,,,,,,,,,False,1,82,False,exp1.png,exp2.png,trial_left_image,1,exp1.png,1,exp2.png,exp1.png,1,3,reversed,incorrect,0.8726548937706858,0,valid_lose,454.76195410000037,49,,,,,,,,,,,,,,,sub_809,2024-09-15_10h49.38.817,Reversal,2023.1.3,59.91389175473956,1,
3,exp3.png,exp4.png,,,,,,,,,,,,,,,,,,0,0,0,0,0,3,3,3,,,,,,,,,False,2,83,True,exp4.png,exp3.png,trial_right_image,-1,exp3.png,1,exp3.png,exp4.png,1,1,non-reversed,correct,0.7556311072241555,1,valid_win,458.9770066000001,50,,,,,,,,,,,,,,,sub_809,2024-09-15_10h49.38.817,Reversal,2023.1.3,59.91389175473956,1,
4,exp1.png,exp2.png,,,,,,,,,,,,,,,,,,0,0,0,0,0,4,4,4,,,,,,,,,False,3,84,True,exp2.png,exp1.png,trial_right_image,-1,exp1.png,1,exp2.png,exp1.png,1,3,reversed,incorrect,0.17652591882263513,1,invalid_win,462.95947499999966,51,,,,,,,,,,,,,,,sub_809,2024-09-15_10h49.38.817,Reversal,2023.1.3,59.91389175473956,1,
5,exp3.png,exp4.png,,,,,,,,,,,,,,,,,,0,0,0,0,0,5,5,5,,,,,,,,,False,4,85,False,exp3.png,exp4.png,trial_left_image,1,exp3.png,1,exp3.png,exp4.png,1,1,non-reversed,correct,0.1683099885706193,0,invalid_lose,467.3913537999997,51,,,,,,,,,,,,,,,sub_809,2024-09-15_10h49.38.817,Reversal,2023.1.3,59.91389175473956,1,
6,exp1.png,exp2.png,,,,,,,,,,,,,,,,,,0,0,0,0,0,6,6,6,,,,,,,,,False,5,86,False,exp1.png,exp2.png,trial_left_image,1,exp1.png,1,exp2.png,exp1.png,1,3,reversed,incorrect,0.6902755951291891,0,valid_lose,471.7401749999999,51,,,,,,,,,,,,,,,sub_809,2024-09-15_10h49.38.817,Reversal,2023.1.3,59.91389175473956,1,
7,exp3.png,exp4.png,,,,,,,,,,,,,,,,,,0,0,0,0,0,7,7,7,,,,,,,,,False,6,87,True,exp4.png,exp3.png,trial_right_image,-1,exp3.png,1,exp3.png,exp4.png,1,1,non-reversed,correct,0.4291217670618893,1,valid_win,475.7048213999997,52,,,,,,,,,,,,,,,sub_809,2024-09-15_10h49.38.817,Reversal,2023.1.3,59.91389175473956,1,
8,exp1.png,exp2.png,,,,,,,,,,,,,,,,,,0,0,0,0,0,8,8,8,,,,,,,,,False,7,88,True,exp2.png,exp1.png,trial_right_image,-1,exp1.png,1,exp2.png,exp1.png,1,3,reversed,incorrect,0.9120775095141008,0,valid_lose,479.8043576,52,,,,,,,,,,,,,,,sub_809,2024-09-15_10h49.38.817,Reversal,2023.1.3,59.91389175473956,1,
9,exp3.png,exp4.png,,,,,,,,,,,,,,,,,,0,0,0,0,0,9,9,9,,,,,,,,,False,8,89,False,exp3.png,exp4.png,trial_right_image,-1,exp4.png,1,exp3.png,exp4.png,0,2,non-reversed,incorrect,0.8645146864335034,0,valid_lose,484.9856893999995,52,,,,,,,,,,,,,,,sub_809,2024-09-15_10h49.38.817,Reversal,2023.1.3,59.91389175473956,1,
10,exp1.png,exp2.png,,,,,,,,,,,,,,,,,,0,0,0,0,0,10,10,10,,,,,,,,,False,9,90,False,exp1.png,exp2.png,trial_left_image,1,exp1.png,1,exp2.png,exp1.png,1,3,reversed,incorrect,0.8109675630738892,0,valid_lose,489.03342470000007,52,,,,,,,,,,,,,,,sub_809,2024-09-15_10h49.38.817,Reversal,2023.1.3,59.91389175473956,1,
11,exp3.png,exp4.png,,,,,,,,,,,,,,,,,,0,0,0,0,0,11,11,11,,,,,,,,,False,10,91,True,exp4.png,exp3.png,trial_right_image,-1,exp3.png,1,exp3.png,exp4.png,1,1,non-reversed,correct,0.8569185816727494,1,valid_win,493.0161269,53,,,,,,,,,,,,,,,sub_809,2024-09-15_10h49.38.817,Reversal,2023.1.3,59.91389175473956,1,
12,exp1.png,exp2.png,,,,,,,,,,,,,,,,,,0,0,0,0,0,12,12,12,,,,,,,,,False,11,92,False,exp1.png,exp2.png,trial_left_image,1,exp1.png,1,exp2.png,exp1.png,1,3,reversed,incorrect,0.5641304370878103,0,valid_lose,498.41375960000005,53,,,,,,,,,,,,,,,sub_809,2024-09-15_10h49.38.817,Reversal,2023.1.3,59.91389175473956,1,
13,exp3.png,exp4.png,,,,,,,,,,,,,,,,,,0,0,0,0,0,13,13,13,,,,,,,,,False,12,93,True,exp4.png,exp3.png,trial_right_image,-1,exp3.png,1,exp3.png,exp4.png,1,1,non-reversed,correct,0.9556907216320853,1,valid_win,502.32976299999973,54,,,,,,,,,,,,,,,sub_809,2024-09-15_10h49.38.817,Reversal,2023.1.3,59.91389175473956,1,
14,exp1.png,exp2.png,,,,,,,,,,,,,,,,,,0,0,0,0,0,14,14,14,,,,,,,,,False,13,94,True,exp2.png,exp1.png,trial_right_image,-1,exp1.png,1,exp2.png,exp1.png,1,3,reversed,incorrect,0.00010968648892528687,1,invalid_win,506.36135790000026,55,,,,,,,,,,,,,,,sub_809,2024-09-15_10h49.38.817,Reversal,2023.1.3,59.91389175473956,1,
15,exp3.png,exp4.png,,,,,,,,,,,,,,,,,,0,0,0,0,0,15,15,15,,,,,,,,,False,14,95,False,exp3.png,exp4.png,trial_right_image,-1,exp4.png,1,exp3.png,exp4.png,0,2,non-reversed,incorrect,0.42220167245653195,0,valid_lose,511.2264065999998,55,,,,,,,,,,,,,,,sub_809,2024-09-15_10h49.38.817,Reversal,2023.1.3,59.91389175473956,1,
16,exp1.png,exp2.png,,,,,,,,,,,,,,,,,,0,0,0,0,0,16,16,16,,,,,,,,,False,15,96,True,exp2.png,exp1.png,trial_right_image,-1,exp1.png,1,exp2.png,exp1.png,1,3,reversed,incorrect,0.6627945969582746,0,valid_lose,515.1747171999996,55,,,,,,,,,,,,,,,sub_809,2024-09-15_10h49.38.817,Reversal,2023.1.3,59.91389175473956,1,
17,exp3.png,exp4.png,,,,,,,,,,,,,,,,,,0,0,0,0,0,17,17,17,,,,,,,,,False,16,97,False,exp3.png,exp4.png,trial_left_image,1,exp3.png,1,exp3.png,exp4.png,1,1,non-reversed,correct,0.1244445374593639,0,invalid_lose,519.9072311,55,,,,,,,,,,,,,,,sub_809,2024-09-15_10h49.38.817,Reversal,2023.1.3,59.91389175473956,1,
18,exp1.png,exp2.png,,,,,,,,,,,,,,,,,,0,0,0,0,0,18,18,18,,,,,,,,,False,17,98,False,exp1.png,exp2.png,trial_left_image,1,exp1.png,1,exp2.png,exp1.png,1,3,reversed,incorrect,0.7939945296895832,0,valid_lose,525.3217162000001,55,,,,,,,,,,,,,,,sub_809,2024-09-15_10h49.38.817,Reversal,2023.1.3,59.91389175473956,1,
19,exp3.png,exp4.png,,,,,,,,,,,,,,,,,,0,0,0,0,0,19,19,19,,,,,,,,,False,18,99,True,exp4.png,exp3.png,trial_right_image,-1,exp3.png,1,exp3.png,exp4.png,1,1,non-reversed,correct,0.5053402421535037,1,valid_win,531.1199459,56,,,,,,,,,,,,,,,sub_809,2024-09-15_10h49.38.817,Reversal,2023.1.3,59.91389175473956,1,
20,exp1.png,exp2.png,,,,,,,,,,,,,,,,,,0,0,0,0,0,20,20,20,,,,,,,,,False,19,100,True,exp2.png,exp1.png,trial_right_image,-1,exp1.png,1,exp2.png,exp1.png,1,3,reversed,incorrect,0.980193054713731,0,valid_lose,535.9512219999997,56,,,,,,,,,,,,,,,sub_809,2024-09-15_10h49.38.817,Reversal,2023.1.3,59.91389175473956,1,
,,,exp1.png,,,,,,,,,,,,,,,,,0,0,0,0,,,,,0,0,0,0,0,0,0,0,,,,,,,,,,,,,,,,,,,,,,614.0248137999997,59.0,59.0,5.80930890000036,"[(59.0, 5.80930890000036)]",,,,,,,,,,sub_809,2024-09-15_10h49.38.817,Reversal,2023.1.3,59.91389175473956,1,
,,,exp2.png,,,,,,,,,,,,,,,,,0,0,0,0,,,,,0,0,0,0,0,1,1,1,,,,,,,,,,,,,,,,,,,,,,620.4564929999997,,45.0,7.690229299999373,"[(45.0, 7.690229299999373)]",45.0,,,,,,,,,sub_809,2024-09-15_10h49.38.817,Reversal,2023.1.3,59.91389175473956,1,
,,,exp3.png,,,,,,,,,,,,,,,,,0,0,0,0,,,,,0,0,0,0,0,2,2,2,,,,,,,,,,,,,,,,,,,,,,628.7876964999996,,67.0,2.159807699999874,"[(67.0, 2.159807699999874)]",,67.0,,,,,,,,sub_809,2024-09-15_10h49.38.817,Reversal,2023.1.3,59.91389175473956,1,
,,,exp4.png,,,,,,,,,,,,,,,,,0,0,0,0,,,,,0,0,0,0,0,3,3,3,,,,,,,,,,,,,,,,,,,,,,631.5686558999996,,37.0,5.073378500000217,"[(37.0, 5.073378500000217)]",,,37.0,,,,,,,sub_809,2024-09-15_10h49.38.817,Reversal,2023.1.3,59.91389175473956,1,
0,exp1.png,exp2.png,,,,,,,,,,,,,,,,,,1,0,1,0,0,0,0,0,,,,,,,,,True,,,,,,,,,,,,,,,,,,,,,,,,,,,,,,,,,,,sub_809,2024-09-15_10h49.38.817,Reversal,2023.1.3,59.91389175473956,1,
1,exp3.png,exp4.png,,,,,,,,,,,,,,,,,,1,0,1,0,0,1,1,1,,,,,,,,,False,20,101,True,exp4.png,exp3.png,trial_right_image,-1,exp3.png,1,exp3.png,exp4.png,1,1,non-reversed,correct,0.3293502904298975,1,valid_win,564.6584991999998,57,,,,,,,,,,,,,,,sub_809,2024-09-15_10h49.38.817,Reversal,2023.1.3,59.91389175473956,1,
2,exp1.png,exp2.png,,,,,,,,,,,,,,,,,,1,0,1,0,0,2,2,2,,,,,,,,,False,21,102,False,exp1.png,exp2.png,trial_left_image,1,exp1.png,1,exp2.png,exp1.png,1,3,reversed,incorrect,0.0835003582560091,1,invalid_win,570.8060383000002,58,,,,,,,,,,,,,,,sub_809,2024-09-15_10h49.38.817,Reversal,2023.1.3,59.91389175473956,1,
3,exp3.png,exp4.png,,,,,,,,,,,,,,,,,,1,0,1,0,0,3,3,3,,,,,,,,,False,22,103,False,exp3.png,exp4.png,trial_right_image,-1,exp4.png,1,exp3.png,exp4.png,0,2,non-reversed,incorrect,0.16336320783988123,1,invalid_win,577.4877551999998,59,,,,,,,,,,,,,,,sub_809,2024-09-15_10h49.38.817,Reversal,2023.1.3,59.91389175473956,1,
4,exp1.png,exp2.png,,,,,,,,,,,,,,,,,,1,0,1,0,0,4,4,4,,,,,,,,,False,23,104,True,exp2.png,exp1.png,trial_left_image,1,exp2.png,1,exp2.png,exp1.png,0,4,reversed,correct,0.15929812418930933,0,invalid_lose,583.4187759999995,59,,,,,,,,,,,,,,,sub_809,2024-09-15_10h49.38.817,Reversal,2023.1.3,59.91389175473956,1,
5,exp3.png,exp4.png,,,,,,,,,,,,,,,,,,1,0,1,0,0,5,5,5,,,,,,,,,False,24,105,True,exp4.png,exp3.png,trial_right_image,-1,exp3.png,1,exp3.png,exp4.png,1,1,non-reversed,correct,0.1257999529460221,0,invalid_lose,590.3665637000004,59,,,,,,,,,,,,,,,sub_809,2024-09-15_10h49.38.817,Reversal,2023.1.3,59.91389175473956,1,
6,exp1.png,exp2.png,,,,,,,,,,,,,,,,,,1,0,1,0,0,6,6,6,,,,,,,,,False,25,106,False,exp1.png,exp2.png,trial_left_image,1,exp1.png,1,exp2.png,exp1.png,1,3,reversed,incorrect,0.2566240125136211,0,valid_lose,594.4980876,59,,,,,,,,,,,,,,,sub_809,2024-09-15_10h49.38.817,Reversal,2023.1.3,59.91389175473956,1,
7,exp3.png,exp4.png,,,,,,,,,,,,,,,,,,1,0,1,0,0,7,7,7,,,,,,,,,False,26,107,True,exp4.png,exp3.png,trial_right_image,-1,exp3.png,1,exp3.png,exp4.png,1,1,non-reversed,correct,0.9571381240327747,1,valid_win,598.4471891000003,60,,,,,,,,,,,,,,,sub_809,2024-09-15_10h49.38.817,Reversal,2023.1.3,59.91389175473956,1,
8,exp1.png,exp2.png,,,,,,,,,,,,,,,,,,1,0,1,0,0,8,8,8,,,,,,,,,False,27,108,True,exp2.png,exp1.png,trial_right_image,-1,exp1.png,1,exp2.png,exp1.png,1,3,reversed,incorrect,0.1996957024252961,1,invalid_win,602.8950463000001,61,,,,,,,,,,,,,,,sub_809,2024-09-15_10h49.38.817,Reversal,2023.1.3,59.91389175473956,1,
9,exp3.png,exp4.png,,,,,,,,,,,,,,,,,,1,0,1,0,0,9,9,9,,,,,,,,,False,28,109,False,exp3.png,exp4.png,trial_right_image,-1,exp4.png,1,exp3.png,exp4.png,0,2,non-reversed,incorrect,0.9593816029708511,0,valid_lose,607.6437340000002,61,,,,,,,,,,,,,,,sub_809,2024-09-15_10h49.38.817,Reversal,2023.1.3,59.91389175473956,1,
10,exp1.png,exp2.png,,,,,,,,,,,,,,,,,,1,0,1,0,0,10,10,10,,,,,,,,,False,29,110,False,exp1.png,exp2.png,trial_left_image,1,exp1.png,1,exp2.png,exp1.png,1,3,reversed,incorrect,0.4912068465470836,0,valid_lose,612.2917863000002,61,,,,,,,,,,,,,,,sub_809,2024-09-15_10h49.38.817,Reversal,2023.1.3,59.91389175473956,1,
11,exp3.png,exp4.png,,,,,,,,,,,,,,,,,,1,0,1,0,0,11,11,11,,,,,,,,,False,30,111,True,exp4.png,exp3.png,trial_right_image,-1,exp3.png,1,exp3.png,exp4.png,1,1,non-reversed,correct,0.4345629501356455,1,valid_win,616.7242139,62,,,,,,,,,,,,,,,sub_809,2024-09-15_10h49.38.817,Reversal,2023.1.3,59.91389175473956,1,
12,exp1.png,exp2.png,,,,,,,,,,,,,,,,,,1,0,1,0,0,12,12,12,,,,,,,,,False,31,112,True,exp2.png,exp1.png,trial_right_image,-1,exp1.png,1,exp2.png,exp1.png,1,3,reversed,incorrect,0.355422382172067,0,valid_lose,621.0577874,62,,,,,,,,,,,,,,,sub_809,2024-09-15_10h49.38.817,Reversal,2023.1.3,59.91389175473956,1,
13,exp3.png,exp4.png,,,,,,,,,,,,,,,,,,1,0,1,0,0,13,13,13,,,,,,,,,False,32,113,False,exp3.png,exp4.png,trial_right_image,-1,exp4.png,1,exp3.png,exp4.png,0,2,non-reversed,incorrect,0.22093922503431906,1,invalid_win,626.1707046000001,63,,,,,,,,,,,,,,,sub_809,2024-09-15_10h49.38.817,Reversal,2023.1.3,59.91389175473956,1,
14,exp1.png,exp2.png,,,,,,,,,,,,,,,,,,1,0,1,0,0,14,14,14,,,,,,,,,False,33,114,False,exp1.png,exp2.png,trial_left_image,1,exp1.png,1,exp2.png,exp1.png,1,3,reversed,incorrect,0.5506577401450441,0,valid_lose,631.5687203999996,63,,,,,,,,,,,,,,,sub_809,2024-09-15_10h49.38.817,Reversal,2023.1.3,59.91389175473956,1,
15,exp3.png,exp4.png,,,,,,,,,,,,,,,,,,1,0,1,0,0,15,15,15,,,,,,,,,False,34,115,True,exp4.png,exp3.png,trial_right_image,-1,exp3.png,1,exp3.png,exp4.png,1,1,non-reversed,correct,0.8822096157049371,1,valid_win,635.9175133999997,64,,,,,,,,,,,,,,,sub_809,2024-09-15_10h49.38.817,Reversal,2023.1.3,59.91389175473956,1,
16,exp1.png,exp2.png,,,,,,,,,,,,,,,,,,1,0,1,0,0,16,16,16,,,,,,,,,False,35,116,False,exp1.png,exp2.png,trial_right_image,-1,exp2.png,1,exp2.png,exp1.png,0,4,reversed,correct,0.8094056492313426,1,valid_win,640.6488534999999,65,,,,,,,,,,,,,,,sub_809,2024-09-15_10h49.38.817,Reversal,2023.1.3,59.91389175473956,1,
17,exp3.png,exp4.png,,,,,,,,,,,,,,,,,,1,0,1,0,0,17,17,17,,,,,,,,,False,36,117,True,exp4.png,exp3.png,trial_right_image,-1,exp3.png,1,exp3.png,exp4.png,1,1,non-reversed,correct,0.0015754329946525703,0,invalid_lose,645.6304756,65,,,,,,,,,,,,,,,sub_809,2024-09-15_10h49.38.817,Reversal,2023.1.3,59.91389175473956,1,
18,exp1.png,exp2.png,,,,,,,,,,,,,,,,,,1,0,1,0,0,18,18,18,,,,,,,,,False,37,118,False,exp1.png,exp2.png,trial_right_image,-1,exp2.png,1,exp2.png,exp1.png,0,4,reversed,correct,0.9551342372350063,1,valid_win,650.0459295,66,,,,,,,,,,,,,,,sub_809,2024-09-15_10h49.38.817,Reversal,2023.1.3,59.91389175473956,1,
19,exp3.png,exp4.png,,,,,,,,,,,,,,,,,,1,0,1,0,0,19,19,19,,,,,,,,,False,38,119,True,exp4.png,exp3.png,trial_left_image,1,exp4.png,1,exp3.png,exp4.png,0,2,non-reversed,incorrect,0.8654072221934613,0,valid_lose,654.4612162000003,66,,,,,,,,,,,,,,,sub_809,2024-09-15_10h49.38.817,Reversal,2023.1.3,59.91389175473956,1,
20,exp1.png,exp2.png,,,,,,,,,,,,,,,,,,1,0,1,0,0,20,20,20,,,,,,,,,False,39,120,False,exp1.png,exp2.png,trial_right_image,-1,exp2.png,1,exp2.png,exp1.png,0,4,reversed,correct,0.5310877261918002,1,valid_win,658.7264697,67,,,,,,,,,,,,,,,sub_809,2024-09-15_10h49.38.817,Reversal,2023.1.3,59.91389175473956,1,
,,,exp1.png,,,,,,,,,,,,,,,,,1,0,1,0,,,,,0,0,0,0,0,0,0,0,,,,,,,,,,,,,,,,,,,,,,736.8133023,21.0,21.0,9.012034700000186,"[(21.0, 9.012034700000186)]",,,,,,,,,,sub_809,2024-09-15_10h49.38.817,Reversal,2023.1.3,59.91389175473956,1,
,,,exp2.png,,,,,,,,,,,,,,,,,1,0,1,0,,,,,0,0,0,0,0,1,1,1,,,,,,,,,,,,,,,,,,,,,,746.4136590999997,,78.0,2.310647600000266,"[(78.0, 2.310647600000266)]",78.0,,,,,,,,,sub_809,2024-09-15_10h49.38.817,Reversal,2023.1.3,59.91389175473956,1,
,,,exp3.png,,,,,,,,,,,,,,,,,1,0,1,0,,,,,0,0,0,0,0,2,2,2,,,,,,,,,,,,,,,,,,,,,,749.3162921000003,,49.0,4.592663699999321,"[(49.0, 4.592663699999321)]",,49.0,,,,,,,,sub_809,2024-09-15_10h49.38.817,Reversal,2023.1.3,59.91389175473956,1,
,,,exp4.png,,,,,,,,,,,,,,,,,1,0,1,0,,,,,0,0,0,0,0,3,3,3,,,,,,,,,,,,,,,,,,,,,,754.5443008000002,,None,None,[],,,,,,,,,,sub_809,2024-09-15_10h49.38.817,Reversal,2023.1.3,59.91389175473956,1,
0,exp1.png,exp2.png,,,,,,,,,,,,,,,,,,2,0,2,0,0,0,0,0,,,,,,,,,True,,,,,,,,,,,,,,,,,,,,,,,,,,,,,,,,,,,sub_809,2024-09-15_10h49.38.817,Reversal,2023.1.3,59.91389175473956,1,
1,exp3.png,exp4.png,,,,,,,,,,,,,,,,,,2,0,2,0,0,1,1,1,,,,,,,,,False,40,121,False,exp3.png,exp4.png,trial_left_image,1,exp3.png,1,exp3.png,exp4.png,1,1,non-reversed,correct,0.5802478359978132,1,valid_win,685.5674407999995,68,,,,,,,,,,,,,,,sub_809,2024-09-15_10h49.38.817,Reversal,2023.1.3,59.91389175473956,1,
2,exp1.png,exp2.png,,,,,,,,,,,,,,,,,,2,0,2,0,0,2,2,2,,,,,,,,,False,41,122,True,exp2.png,exp1.png,trial_right_image,-1,exp1.png,1,exp2.png,exp1.png,1,3,reversed,incorrect,0.5621421295640141,0,valid_lose,692.1485818000001,68,,,,,,,,,,,,,,,sub_809,2024-09-15_10h49.38.817,Reversal,2023.1.3,59.91389175473956,1,
3,exp3.png,exp4.png,,,,,,,,,,,,,,,,,,2,0,2,0,0,3,3,3,,,,,,,,,False,42,123,False,exp3.png,exp4.png,trial_left_image,1,exp3.png,1,exp3.png,exp4.png,1,1,non-reversed,correct,0.1604097447736076,0,invalid_lose,698.1130157999996,68,,,,,,,,,,,,,,,sub_809,2024-09-15_10h49.38.817,Reversal,2023.1.3,59.91389175473956,1,
4,exp1.png,exp2.png,,,,,,,,,,,,,,,,,,2,0,2,0,0,4,4,4,,,,,,,,,False,43,124,True,exp2.png,exp1.png,trial_left_image,1,exp2.png,1,exp2.png,exp1.png,0,4,reversed,correct,0.24543361931107244,0,invalid_lose,702.9285329000004,68,,,,,,,,,,,,,,,sub_809,2024-09-15_10h49.38.817,Reversal,2023.1.3,59.91389175473956,1,
5,exp3.png,exp4.png,,,,,,,,,,,,,,,,,,2,0,2,0,0,5,5,5,,,,,,,,,False,44,125,True,exp4.png,exp3.png,trial_right_image,-1,exp3.png,1,exp3.png,exp4.png,1,1,non-reversed,correct,0.016802505905330722,0,invalid_lose,708.4093784999995,68,,,,,,,,,,,,,,,sub_809,2024-09-15_10h49.38.817,Reversal,2023.1.3,59.91389175473956,1,
6,exp1.png,exp2.png,,,,,,,,,,,,,,,,,,2,0,2,0,0,6,6,6,,,,,,,,,False,45,126,False,exp1.png,exp2.png,trial_right_image,-1,exp2.png,1,exp2.png,exp1.png,0,4,reversed,correct,0.8679784410312782,1,valid_win,712.7579517000004,69,,,,,,,,,,,,,,,sub_809,2024-09-15_10h49.38.817,Reversal,2023.1.3,59.91389175473956,1,
7,exp3.png,exp4.png,,,,,,,,,,,,,,,,,,2,0,2,0,0,7,7,7,,,,,,,,,False,46,127,False,exp3.png,exp4.png,trial_left_image,1,exp3.png,1,exp3.png,exp4.png,1,1,non-reversed,correct,0.20070982156818296,0,invalid_lose,719.7890374999997,69,,,,,,,,,,,,,,,sub_809,2024-09-15_10h49.38.817,Reversal,2023.1.3,59.91389175473956,1,
8,exp1.png,exp2.png,,,,,,,,,,,,,,,,,,2,0,2,0,0,8,8,8,,,,,,,,,False,47,128,True,exp2.png,exp1.png,trial_right_image,-1,exp1.png,1,exp2.png,exp1.png,1,3,reversed,incorrect,0.7089724378211908,0,valid_lose,725.8876557000003,69,,,,,,,,,,,,,,,sub_809,2024-09-15_10h49.38.817,Reversal,2023.1.3,59.91389175473956,1,
9,exp3.png,exp4.png,,,,,,,,,,,,,,,,,,2,0,2,0,0,9,9,9,,,,,,,,,False,48,129,True,exp4.png,exp3.png,trial_right_image,-1,exp3.png,1,exp3.png,exp4.png,1,1,non-reversed,correct,0.7002794033020291,1,valid_win,730.5023664,70,,,,,,,,,,,,,,,sub_809,2024-09-15_10h49.38.817,Reversal,2023.1.3,59.91389175473956,1,
10,exp1.png,exp2.png,,,,,,,,,,,,,,,,,,2,0,2,0,0,10,10,10,,,,,,,,,False,49,130,True,exp2.png,exp1.png,trial_left_image,1,exp2.png,1,exp2.png,exp1.png,0,4,reversed,correct,0.4685502706894803,1,valid_win,737.5675148,71,,,,,,,,,,,,,,,sub_809,2024-09-15_10h49.38.817,Reversal,2023.1.3,59.91389175473956,1,
11,exp3.png,exp4.png,,,,,,,,,,,,,,,,,,2,0,2,0,0,11,11,11,,,,,,,,,False,50,131,False,exp3.png,exp4.png,trial_right_image,-1,exp4.png,1,exp3.png,exp4.png,0,2,non-reversed,incorrect,0.7859399122117912,0,valid_lose,742.3312463000002,71,,,,,,,,,,,,,,,sub_809,2024-09-15_10h49.38.817,Reversal,2023.1.3,59.91389175473956,1,
12,exp1.png,exp2.png,,,,,,,,,,,,,,,,,,2,0,2,0,0,12,12,12,,,,,,,,,False,51,132,False,exp1.png,exp2.png,trial_right_image,-1,exp2.png,1,exp2.png,exp1.png,0,4,reversed,correct,0.3324789690417017,1,valid_win,746.6302672000002,72,,,,,,,,,,,,,,,sub_809,2024-09-15_10h49.38.817,Reversal,2023.1.3,59.91389175473956,1,
13,exp3.png,exp4.png,,,,,,,,,,,,,,,,,,2,0,2,0,0,13,13,13,,,,,,,,,False,52,133,True,exp4.png,exp3.png,trial_right_image,-1,exp3.png,1,exp3.png,exp4.png,1,1,non-reversed,correct,0.6437604986937595,1,valid_win,751.6948746999997,73,,,,,,,,,,,,,,,sub_809,2024-09-15_10h49.38.817,Reversal,2023.1.3,59.91389175473956,1,
14,exp1.png,exp2.png,,,,,,,,,,,,,,,,,,2,0,2,0,0,14,14,14,,,,,,,,,False,53,134,False,exp1.png,exp2.png,trial_right_image,-1,exp2.png,1,exp2.png,exp1.png,0,4,reversed,correct,0.1293700475200552,0,invalid_lose,756.0938946999995,73,,,,,,,,,,,,,,,sub_809,2024-09-15_10h49.38.817,Reversal,2023.1.3,59.91389175473956,1,
15,exp3.png,exp4.png,,,,,,,,,,,,,,,,,,2,0,2,0,0,15,15,15,,,,,,,,,False,54,135,False,exp3.png,exp4.png,trial_left_image,1,exp3.png,1,exp3.png,exp4.png,1,1,non-reversed,correct,0.3095544134308216,1,valid_win,760.5084510999995,74,,,,,,,,,,,,,,,sub_809,2024-09-15_10h49.38.817,Reversal,2023.1.3,59.91389175473956,1,
16,exp1.png,exp2.png,,,,,,,,,,,,,,,,,,2,0,2,0,0,16,16,16,,,,,,,,,False,55,136,False,exp1.png,exp2.png,trial_right_image,-1,exp2.png,1,exp2.png,exp1.png,0,4,reversed,correct,0.2453643570256211,0,invalid_lose,764.7079178000004,74,,,,,,,,,,,,,,,sub_809,2024-09-15_10h49.38.817,Reversal,2023.1.3,59.91389175473956,1,
17,exp3.png,exp4.png,,,,,,,,,,,,,,,,,,2,0,2,0,0,17,17,17,,,,,,,,,False,56,137,True,exp4.png,exp3.png,trial_right_image,-1,exp3.png,1,exp3.png,exp4.png,1,1,non-reversed,correct,0.2999841592681457,1,valid_win,768.7893809999996,75,,,,,,,,,,,,,,,sub_809,2024-09-15_10h49.38.817,Reversal,2023.1.3,59.91389175473956,1,
18,exp1.png,exp2.png,,,,,,,,,,,,,,,,,,2,0,2,0,0,18,18,18,,,,,,,,,False,57,138,True,exp2.png,exp1.png,trial_right_image,-1,exp1.png,1,exp2.png,exp1.png,1,3,reversed,incorrect,0.8509233289704342,0,valid_lose,772.8209987,75,,,,,,,,,,,,,,,sub_809,2024-09-15_10h49.38.817,Reversal,2023.1.3,59.91389175473956,1,
19,exp3.png,exp4.png,,,,,,,,,,,,,,,,,,2,0,2,0,0,19,19,19,,,,,,,,,False,58,139,True,exp4.png,exp3.png,trial_right_image,-1,exp3.png,1,exp3.png,exp4.png,1,1,non-reversed,correct,0.6105571790842949,1,valid_win,776.8870491999996,76,,,,,,,,,,,,,,,sub_809,2024-09-15_10h49.38.817,Reversal,2023.1.3,59.91389175473956,1,
20,exp1.png,exp2.png,,,,,,,,,,,,,,,,,,2,0,2,0,0,20,20,20,,,,,,,,,False,59,140,False,exp1.png,exp2.png,trial_right_image,-1,exp2.png,1,exp2.png,exp1.png,0,4,reversed,correct,0.9930646299353918,1,valid_win,780.9183776999998,77,,,,,,,,,,,,,,,sub_809,2024-09-15_10h49.38.817,Reversal,2023.1.3,59.91389175473956,1,
,,,exp1.png,,,,,,,,,,,,,,,,,2,0,2,0,,,,,0,0,0,0,0,0,0,0,,,,,,,,,,,,,,,,,,,,,,859.0073385999995,,None,None,[],,,,,,,,,,sub_809,2024-09-15_10h49.38.817,Reversal,2023.1.3,59.91389175473956,1,
,,,exp2.png,,,,,,,,,,,,,,,,,2,0,2,0,,,,,0,0,0,0,0,1,1,1,,,,,,,,,,,,,,,,,,,,,,864.6063099000003,,None,None,[],,,,,,,,,,sub_809,2024-09-15_10h49.38.817,Reversal,2023.1.3,59.91389175473956,1,
,,,exp3.png,,,,,,,,,,,,,,,,,2,0,2,0,,,,,0,0,0,0,0,2,2,2,,,,,,,,,,,,,,,,,,,,,,866.1061860999998,,None,None,[],,,,,,,,,,sub_809,2024-09-15_10h49.38.817,Reversal,2023.1.3,59.91389175473956,1,
,,,exp4.png,,,,,,,,,,,,,,,,,2,0,2,0,,,,,0,0,0,0,0,3,3,3,,,,,,,,,,,,,,,,,,,,,,867.6392249,,None,None,[],,,,,,,,,,sub_809,2024-09-15_10h49.38.817,Reversal,2023.1.3,59.91389175473956,1,
,,,,,,,,,,,,,,,,,,,,,,,,,,,,,,,,,,,,,,,,,,,,,,,,,,,,,,,,77,,,,,,,,,,89,56,33,344.61981130000004,1,,,,,,,
