trial_index,trial_image1_file,trial_image2_file,image_file,learning_outer_loop.thisRepN,learning_outer_loop.thisTrialN,learning_outer_loop.thisN,learning_outer_loop.thisIndex,learning_inner_loop.thisRepN,learning_inner_loop.thisTrialN,learning_inner_loop.thisN,learning_inner_loop.thisIndex,learning_estimation_outer_loop.thisRepN,learning_estimation_outer_loop.thisTrialN,learning_estimation_outer_loop.thisN,learning_estimation_outer_loop.thisIndex,learning_estimation_inner_loop.thisRepN,learning_estimation_inner_loop.thisTrialN,learning_estimation_inner_loop.thisN,learning_estimation_inner_loop.thisIndex,reversal_outer_loop.thisRepN,reversal_outer_loop.thisTrialN,reversal_outer_loop.thisN,reversal_outer_loop.thisIndex,reversal_inner_loop.thisRepN,reversal_inner_loop.thisTrialN,reversal_inner_loop.thisN,reversal_inner_loop.thisIndex,reversal_estimation_outer_loop.thisRepN,reversal_estimation_outer_loop.thisTrialN,reversal_estimation_outer_loop.thisN,reversal_estimation_outer_loop.thisIndex,reversal_estimation_inner_loop.thisRepN,reversal_estimation_inner_loop.thisTrialN,reversal_estimation_inner_loop.thisN,reversal_estimation_inner_loop.thisIndex,skipped,total_trial_counter,trial_num,left_right_flip,left_image_file,right_image_file,clicked_stimulus_side,side,clicked_stimulus,version,high_prob_image_file,low_prob_image_file,choice_a,choice_b,pair_type,correct,trial_feedback_random,reward,trial_type,overall_time_after_trial,score,estimation_rating.started,estimation_rating.response,estimation_rating.rt,estimation_rating.history,total_learning_time,total_correct,learning_correct,reversal_correct,total_reversal_time,extra_block,participant,date,expName,psychopyVersion,frameRate,ver,
0,exp1.png,exp2.png,,0,0,0,0,0,0,0,0,,,,,,,,,,,,,,,,,,,,,,,,,False,0,1,False,exp1.png,exp2.png,trial_right_image,-1,exp2.png,4,exp2.png,exp1.png,1,1,non-reversed,correct,0.34617038976040415,1,valid_win,2.1484674000002997,1,,,,,,,,,,,sub_680,2024-12-15_12h49.04.437,Reversal,2023.1.3,59.952002426268514,4,
1,exp3.png,exp4.png,,0,0,0,0,0,1,1,1,,,,,,,,,,,,,,,,,,,,,,,,,False,1,2,True,exp4.png,exp3.png,trial_right_image,-1,exp3.png,4,exp4.png,exp3.png,0,4,reversed,incorrect,0.5781865952784375,0,valid_lose,7.012296900000365,1,,,,,,,,,,,sub_680,2024-12-15_12h49.04.437,Reversal,2023.1.3,59.952002426268514,4,
2,exp1.png,exp2.png,,0,0,0,0,0,2,2,2,,,,,,,,,,,,,,,,,,,,,,,,,False,2,3,True,exp2.png,exp1.png,trial_left_image,1,exp2.png,4,exp2.png,exp1.png,1,1,non-reversed,correct,0.6399980191100781,1,valid_win,11.678597199999786,2,,,,,,,,,,,sub_680,2024-12-15_12h49.04.437,Reversal,2023.1.3,59.952002426268514,4,
3,exp3.png,exp4.png,,0,0,0,0,0,3,3,3,,,,,,,,,,,,,,,,,,,,,,,,,False,3,4,True,exp4.png,exp3.png,trial_left_image,1,exp4.png,4,exp4.png,exp3.png,1,3,reversed,correct,0.3859752700973087,1,valid_win,16.109157000000778,3,,,,,,,,,,,sub_680,2024-12-15_12h49.04.437,Reversal,2023.1.3,59.952002426268514,4,
4,exp1.png,exp2.png,,0,0,0,0,0,4,4,4,,,,,,,,,,,,,,,,,,,,,,,,,False,4,5,False,exp1.png,exp2.png,trial_right_image,-1,exp2.png,4,exp2.png,exp1.png,1,1,non-reversed,correct,0.17469195335108167,0,invalid_lose,20.259558199999447,3,,,,,,,,,,,sub_680,2024-12-15_12h49.04.437,Reversal,2023.1.3,59.952002426268514,4,
5,exp3.png,exp4.png,,0,0,0,0,0,5,5,5,,,,,,,,,,,,,,,,,,,,,,,,,False,5,6,False,exp3.png,exp4.png,trial_right_image,-1,exp4.png,4,exp4.png,exp3.png,1,3,reversed,correct,0.1850082344793208,0,invalid_lose,25.074062600000616,3,,,,,,,,,,,sub_680,2024-12-15_12h49.04.437,Reversal,2023.1.3,59.952002426268514,4,
6,exp1.png,exp2.png,,0,0,0,0,0,6,6,6,,,,,,,,,,,,,,,,,,,,,,,,,False,6,7,False,exp1.png,exp2.png,trial_left_image,1,exp1.png,4,exp2.png,exp1.png,0,2,non-reversed,incorrect,0.7868445026479787,0,valid_lose,29.73964259999957,3,,,,,,,,,,,sub_680,2024-12-15_12h49.04.437,Reversal,2023.1.3,59.952002426268514,4,
7,exp3.png,exp4.png,,0,0,0,0,0,7,7,7,,,,,,,,,,,,,,,,,,,,,,,,,False,7,8,False,exp3.png,exp4.png,trial_right_image,-1,exp4.png,4,exp4.png,exp3.png,1,3,reversed,correct,0.2017112337139242,0,invalid_lose,33.82124599999952,3,,,,,,,,,,,sub_680,2024-12-15_12h49.04.437,Reversal,2023.1.3,59.952002426268514,4,
8,exp1.png,exp2.png,,0,0,0,0,0,8,8,8,,,,,,,,,,,,,,,,,,,,,,,,,False,8,9,True,exp2.png,exp1.png,trial_left_image,1,exp2.png,4,exp2.png,exp1.png,1,1,non-reversed,correct,0.8814906969857366,1,valid_win,38.15212220000103,4,,,,,,,,,,,sub_680,2024-12-15_12h49.04.437,Reversal,2023.1.3,59.952002426268514,4,
9,exp3.png,exp4.png,,0,0,0,0,0,9,9,9,,,,,,,,,,,,,,,,,,,,,,,,,False,9,10,False,exp3.png,exp4.png,trial_left_image,1,exp3.png,4,exp4.png,exp3.png,0,4,reversed,incorrect,0.27835598311321164,0,valid_lose,43.50029480000012,4,,,,,,,,,,,sub_680,2024-12-15_12h49.04.437,Reversal,2023.1.3,59.952002426268514,4,
10,exp1.png,exp2.png,,0,0,0,0,0,10,10,10,,,,,,,,,,,,,,,,,,,,,,,,,False,10,11,False,exp1.png,exp2.png,trial_left_image,1,exp1.png,4,exp2.png,exp1.png,0,2,non-reversed,incorrect,0.30946448212468103,0,valid_lose,48.1332323000006,4,,,,,,,,,,,sub_680,2024-12-15_12h49.04.437,Reversal,2023.1.3,59.952002426268514,4,
11,exp3.png,exp4.png,,0,0,0,0,0,11,11,11,,,,,,,,,,,,,,,,,,,,,,,,,False,11,12,True,exp4.png,exp3.png,trial_right_image,-1,exp3.png,4,exp4.png,exp3.png,0,4,reversed,incorrect,0.9215759846328634,0,valid_lose,52.36407289999988,4,,,,,,,,,,,sub_680,2024-12-15_12h49.04.437,Reversal,2023.1.3,59.952002426268514,4,
12,exp1.png,exp2.png,,0,0,0,0,0,12,12,12,,,,,,,,,,,,,,,,,,,,,,,,,False,12,13,False,exp1.png,exp2.png,trial_left_image,1,exp1.png,4,exp2.png,exp1.png,0,2,non-reversed,incorrect,0.5984453843019959,0,valid_lose,56.21365309999965,4,,,,,,,,,,,sub_680,2024-12-15_12h49.04.437,Reversal,2023.1.3,59.952002426268514,4,
13,exp3.png,exp4.png,,0,0,0,0,0,13,13,13,,,,,,,,,,,,,,,,,,,,,,,,,False,13,14,False,exp3.png,exp4.png,trial_right_image,-1,exp4.png,4,exp4.png,exp3.png,1,3,reversed,correct,0.26506027484883365,1,valid_win,60.311253800000486,5,,,,,,,,,,,sub_680,2024-12-15_12h49.04.437,Reversal,2023.1.3,59.952002426268514,4,
14,exp1.png,exp2.png,,0,0,0,0,0,14,14,14,,,,,,,,,,,,,,,,,,,,,,,,,False,14,15,False,exp1.png,exp2.png,trial_right_image,-1,exp2.png,4,exp2.png,exp1.png,1,1,non-reversed,correct,0.7327828225222913,1,valid_win,64.3772654000004,6,,,,,,,,,,,sub_680,2024-12-15_12h49.04.437,Reversal,2023.1.3,59.952002426268514,4,
15,exp3.png,exp4.png,,0,0,0,0,0,15,15,15,,,,,,,,,,,,,,,,,,,,,,,,,False,15,16,True,exp4.png,exp3.png,trial_right_image,-1,exp3.png,4,exp4.png,exp3.png,0,4,reversed,incorrect,0.11656985419538468,1,invalid_win,68.90827999999965,7,,,,,,,,,,,sub_680,2024-12-15_12h49.04.437,Reversal,2023.1.3,59.952002426268514,4,
16,exp1.png,exp2.png,,0,0,0,0,0,16,16,16,,,,,,,,,,,,,,,,,,,,,,,,,False,16,17,True,exp2.png,exp1.png,trial_left_image,1,exp2.png,4,exp2.png,exp1.png,1,1,non-reversed,correct,0.2832823113688704,1,valid_win,73.00719820000086,8,,,,,,,,,,,sub_680,2024-12-15_12h49.04.437,Reversal,2023.1.3,59.952002426268514,4,
17,exp3.png,exp4.png,,0,0,0,0,0,17,17,17,,,,,,,,,,,,,,,,,,,,,,,,,False,17,18,True,exp4.png,exp3.png,trial_left_image,1,exp4.png,4,exp4.png,exp3.png,1,3,reversed,correct,0.292048058624233,1,valid_win,77.17192389999946,9,,,,,,,,,,,sub_680,2024-12-15_12h49.04.437,Reversal,2023.1.3,59.952002426268514,4,
18,exp1.png,exp2.png,,0,0,0,0,0,18,18,18,,,,,,,,,,,,,,,,,,,,,,,,,False,18,19,True,exp2.png,exp1.png,trial_left_image,1,exp2.png,4,exp2.png,exp1.png,1,1,non-reversed,correct,0.4256336973339525,1,valid_win,81.00569910000013,10,,,,,,,,,,,sub_680,2024-12-15_12h49.04.437,Reversal,2023.1.3,59.952002426268514,4,
19,exp3.png,exp4.png,,0,0,0,0,0,19,19,19,,,,,,,,,,,,,,,,,,,,,,,,,False,19,20,True,exp4.png,exp3.png,trial_right_image,-1,exp3.png,4,exp4.png,exp3.png,0,4,reversed,incorrect,0.09720396462395176,1,invalid_win,84.91925020000053,11,,,,,,,,,,,sub_680,2024-12-15_12h49.04.437,Reversal,2023.1.3,59.952002426268514,4,
20,exp1.png,exp2.png,,0,0,0,0,0,20,20,20,,,,,,,,,,,,,,,,,,,,,,,,,True,,,,,,,,,,,,,,,,,,,,,,,,,,,,,,,sub_680,2024-12-15_12h49.04.437,Reversal,2023.1.3,59.952002426268514,4,
,,,exp1.png,0,0,0,0,,,,,0,0,0,0,0,0,0,0,,,,,,,,,,,,,,,,,,,,,,,,,,,,,,,,,,,,,,177.11341940000057,None,None,[],,,,,,,sub_680,2024-12-15_12h49.04.437,Reversal,2023.1.3,59.952002426268514,4,
,,,exp2.png,0,0,0,0,,,,,0,0,0,0,0,1,1,1,,,,,,,,,,,,,,,,,,,,,,,,,,,,,,,,,,,,,,184.6770644999997,None,None,[],,,,,,,sub_680,2024-12-15_12h49.04.437,Reversal,2023.1.3,59.952002426268514,4,
,,,exp3.png,0,0,0,0,,,,,0,0,0,0,0,2,2,2,,,,,,,,,,,,,,,,,,,,,,,,,,,,,,,,,,,,,,187.31269769999926,None,None,[],,,,,,,sub_680,2024-12-15_12h49.04.437,Reversal,2023.1.3,59.952002426268514,4,
,,,exp4.png,0,0,0,0,,,,,0,0,0,0,0,3,3,3,,,,,,,,,,,,,,,,,,,,,,,,,,,,,,,,,,,,,,189.59188220000033,None,None,[],,,,,,,sub_680,2024-12-15_12h49.04.437,Reversal,2023.1.3,59.952002426268514,4,
0,exp1.png,exp2.png,,1,0,1,0,0,0,0,0,,,,,,,,,,,,,,,,,,,,,,,,,False,20,21,False,exp1.png,exp2.png,trial_right_image,-1,exp2.png,4,exp2.png,exp1.png,1,1,non-reversed,correct,0.9201377596236204,1,valid_win,104.54659290000018,12,,,,,,,,,,,sub_680,2024-12-15_12h49.04.437,Reversal,2023.1.3,59.952002426268514,4,
1,exp3.png,exp4.png,,1,0,1,0,0,1,1,1,,,,,,,,,,,,,,,,,,,,,,,,,False,21,22,True,exp4.png,exp3.png,trial_right_image,-1,exp3.png,4,exp4.png,exp3.png,0,4,reversed,incorrect,0.0011021781047153567,1,invalid_win,108.52830259999973,13,,,,,,,,,,,sub_680,2024-12-15_12h49.04.437,Reversal,2023.1.3,59.952002426268514,4,
2,exp1.png,exp2.png,,1,0,1,0,0,2,2,2,,,,,,,,,,,,,,,,,,,,,,,,,False,22,23,True,exp2.png,exp1.png,trial_right_image,-1,exp1.png,4,exp2.png,exp1.png,0,2,non-reversed,incorrect,0.04973575307511213,1,invalid_win,112.39313729999958,14,,,,,,,,,,,sub_680,2024-12-15_12h49.04.437,Reversal,2023.1.3,59.952002426268514,4,
3,exp3.png,exp4.png,,1,0,1,0,0,3,3,3,,,,,,,,,,,,,,,,,,,,,,,,,False,23,24,True,exp4.png,exp3.png,trial_left_image,1,exp4.png,4,exp4.png,exp3.png,1,3,reversed,correct,0.2567477566827143,1,valid_win,116.22531329999947,15,,,,,,,,,,,sub_680,2024-12-15_12h49.04.437,Reversal,2023.1.3,59.952002426268514,4,
4,exp1.png,exp2.png,,1,0,1,0,0,4,4,4,,,,,,,,,,,,,,,,,,,,,,,,,False,24,25,False,exp1.png,exp2.png,trial_left_image,1,exp1.png,4,exp2.png,exp1.png,0,2,non-reversed,incorrect,0.7842453290473478,0,valid_lose,120.07563780000055,15,,,,,,,,,,,sub_680,2024-12-15_12h49.04.437,Reversal,2023.1.3,59.952002426268514,4,
5,exp3.png,exp4.png,,1,0,1,0,0,5,5,5,,,,,,,,,,,,,,,,,,,,,,,,,False,25,26,False,exp3.png,exp4.png,trial_right_image,-1,exp4.png,4,exp4.png,exp3.png,1,3,reversed,correct,0.9456063474416211,1,valid_win,124.1235689999994,16,,,,,,,,,,,sub_680,2024-12-15_12h49.04.437,Reversal,2023.1.3,59.952002426268514,4,
6,exp1.png,exp2.png,,1,0,1,0,0,6,6,6,,,,,,,,,,,,,,,,,,,,,,,,,False,26,27,False,exp1.png,exp2.png,trial_right_image,-1,exp2.png,4,exp2.png,exp1.png,1,1,non-reversed,correct,0.25784461354391053,1,valid_win,128.2230780000009,17,,,,,,,,,,,sub_680,2024-12-15_12h49.04.437,Reversal,2023.1.3,59.952002426268514,4,
7,exp3.png,exp4.png,,1,0,1,0,0,7,7,7,,,,,,,,,,,,,,,,,,,,,,,,,False,27,28,False,exp3.png,exp4.png,trial_left_image,1,exp3.png,4,exp4.png,exp3.png,0,4,reversed,incorrect,0.6756363779951742,0,valid_lose,132.05365239999992,17,,,,,,,,,,,sub_680,2024-12-15_12h49.04.437,Reversal,2023.1.3,59.952002426268514,4,
8,exp1.png,exp2.png,,1,0,1,0,0,8,8,8,,,,,,,,,,,,,,,,,,,,,,,,,False,28,29,True,exp2.png,exp1.png,trial_right_image,-1,exp1.png,4,exp2.png,exp1.png,0,2,non-reversed,incorrect,0.47562527415190026,0,valid_lose,136.12008210000022,17,,,,,,,,,,,sub_680,2024-12-15_12h49.04.437,Reversal,2023.1.3,59.952002426268514,4,
9,exp3.png,exp4.png,,1,0,1,0,0,9,9,9,,,,,,,,,,,,,,,,,,,,,,,,,False,29,30,False,exp3.png,exp4.png,trial_left_image,1,exp3.png,4,exp4.png,exp3.png,0,4,reversed,incorrect,0.6445065841913309,0,valid_lose,140.50035010000101,17,,,,,,,,,,,sub_680,2024-12-15_12h49.04.437,Reversal,2023.1.3,59.952002426268514,4,
10,exp1.png,exp2.png,,1,0,1,0,0,10,10,10,,,,,,,,,,,,,,,,,,,,,,,,,False,30,31,True,exp2.png,exp1.png,trial_right_image,-1,exp1.png,4,exp2.png,exp1.png,0,2,non-reversed,incorrect,0.384766002399059,0,valid_lose,144.36713749999944,17,,,,,,,,,,,sub_680,2024-12-15_12h49.04.437,Reversal,2023.1.3,59.952002426268514,4,
11,exp3.png,exp4.png,,1,0,1,0,0,11,11,11,,,,,,,,,,,,,,,,,,,,,,,,,False,31,32,False,exp3.png,exp4.png,trial_right_image,-1,exp4.png,4,exp4.png,exp3.png,1,3,reversed,correct,0.983667202779546,1,valid_win,148.19805590000033,18,,,,,,,,,,,sub_680,2024-12-15_12h49.04.437,Reversal,2023.1.3,59.952002426268514,4,
12,exp1.png,exp2.png,,1,0,1,0,0,12,12,12,,,,,,,,,,,,,,,,,,,,,,,,,False,32,33,True,exp2.png,exp1.png,trial_right_image,-1,exp1.png,4,exp2.png,exp1.png,0,2,non-reversed,incorrect,0.003813665425936308,1,invalid_win,151.99668320000092,19,,,,,,,,,,,sub_680,2024-12-15_12h49.04.437,Reversal,2023.1.3,59.952002426268514,4,
13,exp3.png,exp4.png,,1,0,1,0,0,13,13,13,,,,,,,,,,,,,,,,,,,,,,,,,False,33,34,True,exp4.png,exp3.png,trial_right_image,-1,exp3.png,4,exp4.png,exp3.png,0,4,reversed,incorrect,0.7598326654525173,0,valid_lose,157.19564739999987,19,,,,,,,,,,,sub_680,2024-12-15_12h49.04.437,Reversal,2023.1.3,59.952002426268514,4,
14,exp1.png,exp2.png,,1,0,1,0,0,14,14,14,,,,,,,,,,,,,,,,,,,,,,,,,False,34,35,False,exp1.png,exp2.png,trial_right_image,-1,exp2.png,4,exp2.png,exp1.png,1,1,non-reversed,correct,0.014241939215984267,0,invalid_lose,161.99439060000077,19,,,,,,,,,,,sub_680,2024-12-15_12h49.04.437,Reversal,2023.1.3,59.952002426268514,4,
15,exp3.png,exp4.png,,1,0,1,0,0,15,15,15,,,,,,,,,,,,,,,,,,,,,,,,,False,35,36,False,exp3.png,exp4.png,trial_left_image,1,exp3.png,4,exp4.png,exp3.png,0,4,reversed,incorrect,0.06847776381832438,1,invalid_win,169.24178720000054,20,,,,,,,,,,,sub_680,2024-12-15_12h49.04.437,Reversal,2023.1.3,59.952002426268514,4,
16,exp1.png,exp2.png,,1,0,1,0,0,16,16,16,,,,,,,,,,,,,,,,,,,,,,,,,False,36,37,True,exp2.png,exp1.png,trial_left_image,1,exp2.png,4,exp2.png,exp1.png,1,1,non-reversed,correct,0.4550567398154345,1,valid_win,174.93948359999922,21,,,,,,,,,,,sub_680,2024-12-15_12h49.04.437,Reversal,2023.1.3,59.952002426268514,4,
17,exp3.png,exp4.png,,1,0,1,0,0,17,17,17,,,,,,,,,,,,,,,,,,,,,,,,,False,37,38,True,exp4.png,exp3.png,trial_right_image,-1,exp3.png,4,exp4.png,exp3.png,0,4,reversed,incorrect,0.37379750221205077,0,valid_lose,179.53730449999966,21,,,,,,,,,,,sub_680,2024-12-15_12h49.04.437,Reversal,2023.1.3,59.952002426268514,4,
18,exp1.png,exp2.png,,1,0,1,0,0,18,18,18,,,,,,,,,,,,,,,,,,,,,,,,,False,38,39,True,exp2.png,exp1.png,trial_right_image,-1,exp1.png,4,exp2.png,exp1.png,0,2,non-reversed,incorrect,0.6460377157563056,0,valid_lose,183.95324540000001,21,,,,,,,,,,,sub_680,2024-12-15_12h49.04.437,Reversal,2023.1.3,59.952002426268514,4,
19,exp3.png,exp4.png,,1,0,1,0,0,19,19,19,,,,,,,,,,,,,,,,,,,,,,,,,False,39,40,False,exp3.png,exp4.png,trial_left_image,1,exp3.png,4,exp4.png,exp3.png,0,4,reversed,incorrect,0.06379571608366474,1,invalid_win,188.01928899999984,22,,,,,,,,,,,sub_680,2024-12-15_12h49.04.437,Reversal,2023.1.3,59.952002426268514,4,
20,exp1.png,exp2.png,,1,0,1,0,0,20,20,20,,,,,,,,,,,,,,,,,,,,,,,,,True,,,,,,,,,,,,,,,,,,,,,,,,,,,,,,,sub_680,2024-12-15_12h49.04.437,Reversal,2023.1.3,59.952002426268514,4,
,,,exp1.png,1,0,1,0,,,,,0,0,0,0,0,0,0,0,,,,,,,,,,,,,,,,,,,,,,,,,,,,,,,,,,,,,,280.22198430000026,None,None,[],,,,,,,sub_680,2024-12-15_12h49.04.437,Reversal,2023.1.3,59.952002426268514,4,
,,,exp2.png,1,0,1,0,,,,,0,0,0,0,0,1,1,1,,,,,,,,,,,,,,,,,,,,,,,,,,,,,,,,,,,,,,283.3473995000004,None,None,[],,,,,,,sub_680,2024-12-15_12h49.04.437,Reversal,2023.1.3,59.952002426268514,4,
,,,exp3.png,1,0,1,0,,,,,0,0,0,0,0,2,2,2,,,,,,,,,,,,,,,,,,,,,,,,,,,,,,,,,,,,,,285.5747537999996,None,None,[],,,,,,,sub_680,2024-12-15_12h49.04.437,Reversal,2023.1.3,59.952002426268514,4,
,,,exp4.png,1,0,1,0,,,,,0,0,0,0,0,3,3,3,,,,,,,,,,,,,,,,,,,,,,,,,,,,,,,,,,,,,,287.90588840000055,None,None,[],,,,,,,sub_680,2024-12-15_12h49.04.437,Reversal,2023.1.3,59.952002426268514,4,
0,exp1.png,exp2.png,,2,0,2,0,0,0,0,0,,,,,,,,,,,,,,,,,,,,,,,,,False,40,41,False,exp1.png,exp2.png,trial_right_image,-1,exp2.png,4,exp2.png,exp1.png,1,1,non-reversed,correct,0.08315447890091876,0,invalid_lose,202.04722070000025,22,,,,,,,,,,,sub_680,2024-12-15_12h49.04.437,Reversal,2023.1.3,59.952002426268514,4,
1,exp3.png,exp4.png,,2,0,2,0,0,1,1,1,,,,,,,,,,,,,,,,,,,,,,,,,False,41,42,False,exp3.png,exp4.png,trial_right_image,-1,exp4.png,4,exp4.png,exp3.png,1,3,reversed,correct,0.609578272006088,1,valid_win,207.62738030000037,23,,,,,,,,,,,sub_680,2024-12-15_12h49.04.437,Reversal,2023.1.3,59.952002426268514,4,
2,exp1.png,exp2.png,,2,0,2,0,0,2,2,2,,,,,,,,,,,,,,,,,,,,,,,,,False,42,43,False,exp1.png,exp2.png,trial_left_image,1,exp1.png,4,exp2.png,exp1.png,0,2,non-reversed,incorrect,0.6593001928091031,0,valid_lose,214.79212560000087,23,,,,,,,,,,,sub_680,2024-12-15_12h49.04.437,Reversal,2023.1.3,59.952002426268514,4,
3,exp3.png,exp4.png,,2,0,2,0,0,3,3,3,,,,,,,,,,,,,,,,,,,,,,,,,False,43,44,False,exp3.png,exp4.png,trial_right_image,-1,exp4.png,4,exp4.png,exp3.png,1,3,reversed,correct,0.055624370772791476,0,invalid_lose,219.79039720000037,23,,,,,,,,,,,sub_680,2024-12-15_12h49.04.437,Reversal,2023.1.3,59.952002426268514,4,
4,exp1.png,exp2.png,,2,0,2,0,0,4,4,4,,,,,,,,,,,,,,,,,,,,,,,,,False,44,45,True,exp2.png,exp1.png,trial_right_image,-1,exp1.png,4,exp2.png,exp1.png,0,2,non-reversed,incorrect,0.7173810812855766,0,valid_lose,223.58985770000072,23,,,,,,,,,,,sub_680,2024-12-15_12h49.04.437,Reversal,2023.1.3,59.952002426268514,4,
5,exp3.png,exp4.png,,2,0,2,0,0,5,5,5,,,,,,,,,,,,,,,,,,,,,,,,,False,45,46,False,exp3.png,exp4.png,trial_right_image,-1,exp4.png,4,exp4.png,exp3.png,1,3,reversed,correct,0.4230939939559638,1,valid_win,227.38870830000087,24,,,,,,,,,,,sub_680,2024-12-15_12h49.04.437,Reversal,2023.1.3,59.952002426268514,4,
6,exp1.png,exp2.png,,2,0,2,0,0,6,6,6,,,,,,,,,,,,,,,,,,,,,,,,,False,46,47,True,exp2.png,exp1.png,trial_right_image,-1,exp1.png,4,exp2.png,exp1.png,0,2,non-reversed,incorrect,0.8699700587196431,0,valid_lose,231.25406320000002,24,,,,,,,,,,,sub_680,2024-12-15_12h49.04.437,Reversal,2023.1.3,59.952002426268514,4,
7,exp3.png,exp4.png,,2,0,2,0,0,7,7,7,,,,,,,,,,,,,,,,,,,,,,,,,False,47,48,False,exp3.png,exp4.png,trial_right_image,-1,exp4.png,4,exp4.png,exp3.png,1,3,reversed,correct,0.037784234029473396,0,invalid_lose,235.48572480000075,24,,,,,,,,,,,sub_680,2024-12-15_12h49.04.437,Reversal,2023.1.3,59.952002426268514,4,
8,exp1.png,exp2.png,,2,0,2,0,0,8,8,8,,,,,,,,,,,,,,,,,,,,,,,,,False,48,49,False,exp1.png,exp2.png,trial_left_image,1,exp1.png,4,exp2.png,exp1.png,0,2,non-reversed,incorrect,0.9233843039770295,0,valid_lose,239.60117589999936,24,,,,,,,,,,,sub_680,2024-12-15_12h49.04.437,Reversal,2023.1.3,59.952002426268514,4,
9,exp3.png,exp4.png,,2,0,2,0,0,9,9,9,,,,,,,,,,,,,,,,,,,,,,,,,False,49,50,True,exp4.png,exp3.png,trial_right_image,-1,exp3.png,4,exp4.png,exp3.png,0,4,reversed,incorrect,0.652491659659803,0,valid_lose,243.26691390000087,24,,,,,,,,,,,sub_680,2024-12-15_12h49.04.437,Reversal,2023.1.3,59.952002426268514,4,
10,exp1.png,exp2.png,,2,0,2,0,0,10,10,10,,,,,,,,,,,,,,,,,,,,,,,,,False,50,51,False,exp1.png,exp2.png,trial_left_image,1,exp1.png,4,exp2.png,exp1.png,0,2,non-reversed,incorrect,0.5076451933873172,0,valid_lose,247.3492423000007,24,,,,,,,,,,,sub_680,2024-12-15_12h49.04.437,Reversal,2023.1.3,59.952002426268514,4,
11,exp3.png,exp4.png,,2,0,2,0,0,11,11,11,,,,,,,,,,,,,,,,,,,,,,,,,False,51,52,True,exp4.png,exp3.png,trial_left_image,1,exp4.png,4,exp4.png,exp3.png,1,3,reversed,correct,0.7493030333695432,1,valid_win,251.18081569999958,25,,,,,,,,,,,sub_680,2024-12-15_12h49.04.437,Reversal,2023.1.3,59.952002426268514,4,
12,exp1.png,exp2.png,,2,0,2,0,0,12,12,12,,,,,,,,,,,,,,,,,,,,,,,,,False,52,53,True,exp2.png,exp1.png,trial_left_image,1,exp2.png,4,exp2.png,exp1.png,1,1,non-reversed,correct,0.3728795419443268,1,valid_win,255.06246920000012,26,,,,,,,,,,,sub_680,2024-12-15_12h49.04.437,Reversal,2023.1.3,59.952002426268514,4,
13,exp3.png,exp4.png,,2,0,2,0,0,13,13,13,,,,,,,,,,,,,,,,,,,,,,,,,False,53,54,True,exp4.png,exp3.png,trial_left_image,1,exp4.png,4,exp4.png,exp3.png,1,3,reversed,correct,0.4042759050862961,1,valid_win,258.86036609999974,27,,,,,,,,,,,sub_680,2024-12-15_12h49.04.437,Reversal,2023.1.3,59.952002426268514,4,
14,exp1.png,exp2.png,,2,0,2,0,0,14,14,14,,,,,,,,,,,,,,,,,,,,,,,,,False,54,55,False,exp1.png,exp2.png,trial_right_image,-1,exp2.png,4,exp2.png,exp1.png,1,1,non-reversed,correct,0.791640558120277,1,valid_win,262.70925630000056,28,,,,,,,,,,,sub_680,2024-12-15_12h49.04.437,Reversal,2023.1.3,59.952002426268514,4,
15,exp3.png,exp4.png,,2,0,2,0,0,15,15,15,,,,,,,,,,,,,,,,,,,,,,,,,False,55,56,True,exp4.png,exp3.png,trial_right_image,-1,exp3.png,4,exp4.png,exp3.png,0,4,reversed,incorrect,0.1250907645364443,1,invalid_win,266.5905720999999,29,,,,,,,,,,,sub_680,2024-12-15_12h49.04.437,Reversal,2023.1.3,59.952002426268514,4,
16,exp1.png,exp2.png,,2,0,2,0,0,16,16,16,,,,,,,,,,,,,,,,,,,,,,,,,False,56,57,True,exp2.png,exp1.png,trial_right_image,-1,exp1.png,4,exp2.png,exp1.png,0,2,non-reversed,incorrect,0.022422353585492272,1,invalid_win,270.95692059999965,30,,,,,,,,,,,sub_680,2024-12-15_12h49.04.437,Reversal,2023.1.3,59.952002426268514,4,
17,exp3.png,exp4.png,,2,0,2,0,0,17,17,17,,,,,,,,,,,,,,,,,,,,,,,,,False,57,58,True,exp4.png,exp3.png,trial_left_image,1,exp4.png,4,exp4.png,exp3.png,1,3,reversed,correct,0.8214201922851342,1,valid_win,274.8391993000005,31,,,,,,,,,,,sub_680,2024-12-15_12h49.04.437,Reversal,2023.1.3,59.952002426268514,4,
18,exp1.png,exp2.png,,2,0,2,0,0,18,18,18,,,,,,,,,,,,,,,,,,,,,,,,,False,58,59,False,exp1.png,exp2.png,trial_left_image,1,exp1.png,4,exp2.png,exp1.png,0,2,non-reversed,incorrect,0.6036750624975067,0,valid_lose,278.67134179999994,31,,,,,,,,,,,sub_680,2024-12-15_12h49.04.437,Reversal,2023.1.3,59.952002426268514,4,
19,exp3.png,exp4.png,,2,0,2,0,0,19,19,19,,,,,,,,,,,,,,,,,,,,,,,,,False,59,60,True,exp4.png,exp3.png,trial_right_image,-1,exp3.png,4,exp4.png,exp3.png,0,4,reversed,incorrect,0.31256361555352663,0,valid_lose,282.4867825000001,31,,,,,,,,,,,sub_680,2024-12-15_12h49.04.437,Reversal,2023.1.3,59.952002426268514,4,
20,exp1.png,exp2.png,,2,0,2,0,0,20,20,20,,,,,,,,,,,,,,,,,,,,,,,,,True,,,,,,,,,,,,,,,,,,,,,,,,,,,,,,,sub_680,2024-12-15_12h49.04.437,Reversal,2023.1.3,59.952002426268514,4,
,,,exp1.png,2,0,2,0,,,,,0,0,0,0,0,0,0,0,,,,,,,,,,,,,,,,,,,,,,,,,,,,,,,,,,,,,,374.67493139999897,None,None,[],,,,,,,sub_680,2024-12-15_12h49.04.437,Reversal,2023.1.3,59.952002426268514,4,
,,,exp2.png,2,0,2,0,,,,,0,0,0,0,0,1,1,1,,,,,,,,,,,,,,,,,,,,,,,,,,,,,,,,,,,,,,376.58253349999904,None,None,[],,,,,,,sub_680,2024-12-15_12h49.04.437,Reversal,2023.1.3,59.952002426268514,4,
,,,exp3.png,2,0,2,0,,,,,0,0,0,0,0,2,2,2,,,,,,,,,,,,,,,,,,,,,,,,,,,,,,,,,,,,,,377.68972380000014,None,None,[],,,,,,,sub_680,2024-12-15_12h49.04.437,Reversal,2023.1.3,59.952002426268514,4,
,,,exp4.png,2,0,2,0,,,,,0,0,0,0,0,3,3,3,,,,,,,,,,,,,,,,,,,,,,,,,,,,,,,,,,,,,,379.6059260999991,None,None,[],,,,,,,sub_680,2024-12-15_12h49.04.437,Reversal,2023.1.3,59.952002426268514,4,
0,exp1.png,exp2.png,,3,0,3,0,0,0,0,0,,,,,,,,,,,,,,,,,,,,,,,,,False,60,61,True,exp2.png,exp1.png,trial_right_image,-1,exp1.png,4,exp2.png,exp1.png,0,2,non-reversed,incorrect,0.8764734915683375,0,valid_lose,293.34851829999934,31,,,,,,,,,,,sub_680,2024-12-15_12h49.04.437,Reversal,2023.1.3,59.952002426268514,4,
1,exp3.png,exp4.png,,3,0,3,0,0,1,1,1,,,,,,,,,,,,,,,,,,,,,,,,,False,61,62,True,exp4.png,exp3.png,trial_right_image,-1,exp3.png,4,exp4.png,exp3.png,0,4,reversed,incorrect,0.7278044230619681,0,valid_lose,296.3968875999999,31,,,,,,,,,,,sub_680,2024-12-15_12h49.04.437,Reversal,2023.1.3,59.952002426268514,4,
2,exp1.png,exp2.png,,3,0,3,0,0,2,2,2,,,,,,,,,,,,,,,,,,,,,,,,,False,62,63,True,exp2.png,exp1.png,trial_right_image,-1,exp1.png,4,exp2.png,exp1.png,0,2,non-reversed,incorrect,0.5549712668786437,0,valid_lose,300.1804124999999,31,,,,,,,,,,,sub_680,2024-12-15_12h49.04.437,Reversal,2023.1.3,59.952002426268514,4,
3,exp3.png,exp4.png,,3,0,3,0,0,3,3,3,,,,,,,,,,,,,,,,,,,,,,,,,False,63,64,True,exp4.png,exp3.png,trial_right_image,-1,exp3.png,4,exp4.png,exp3.png,0,4,reversed,incorrect,0.30511877573876767,0,valid_lose,303.94564100000025,31,,,,,,,,,,,sub_680,2024-12-15_12h49.04.437,Reversal,2023.1.3,59.952002426268514,4,
4,exp1.png,exp2.png,,3,0,3,0,0,4,4,4,,,,,,,,,,,,,,,,,,,,,,,,,False,64,65,False,exp1.png,exp2.png,trial_left_image,1,exp1.png,4,exp2.png,exp1.png,0,2,non-reversed,incorrect,0.33310949199613393,0,valid_lose,307.9286339999999,31,,,,,,,,,,,sub_680,2024-12-15_12h49.04.437,Reversal,2023.1.3,59.952002426268514,4,
5,exp3.png,exp4.png,,3,0,3,0,0,5,5,5,,,,,,,,,,,,,,,,,,,,,,,,,False,65,66,False,exp3.png,exp4.png,trial_right_image,-1,exp4.png,4,exp4.png,exp3.png,1,3,reversed,correct,0.2969933487896599,1,valid_win,311.7263404000005,32,,,,,,,,,,,sub_680,2024-12-15_12h49.04.437,Reversal,2023.1.3,59.952002426268514,4,
6,exp1.png,exp2.png,,3,0,3,0,0,6,6,6,,,,,,,,,,,,,,,,,,,,,,,,,False,66,67,False,exp1.png,exp2.png,trial_right_image,-1,exp2.png,4,exp2.png,exp1.png,1,1,non-reversed,correct,0.6623836776045021,1,valid_win,315.5591156999999,33,,,,,,,,,,,sub_680,2024-12-15_12h49.04.437,Reversal,2023.1.3,59.952002426268514,4,
7,exp3.png,exp4.png,,3,0,3,0,0,7,7,7,,,,,,,,,,,,,,,,,,,,,,,,,False,67,68,True,exp4.png,exp3.png,trial_right_image,-1,exp3.png,4,exp4.png,exp3.png,0,4,reversed,incorrect,0.30247248590093334,0,valid_lose,319.38917500000025,33,,,,,,,,,,,sub_680,2024-12-15_12h49.04.437,Reversal,2023.1.3,59.952002426268514,4,
8,exp1.png,exp2.png,,3,0,3,0,0,8,8,8,,,,,,,,,,,,,,,,,,,,,,,,,False,68,69,True,exp2.png,exp1.png,trial_right_image,-1,exp1.png,4,exp2.png,exp1.png,0,2,non-reversed,incorrect,0.6241320411278541,0,valid_lose,323.28804610000043,33,,,,,,,,,,,sub_680,2024-12-15_12h49.04.437,Reversal,2023.1.3,59.952002426268514,4,
9,exp3.png,exp4.png,,3,0,3,0,0,9,9,9,,,,,,,,,,,,,,,,,,,,,,,,,False,69,70,False,exp3.png,exp4.png,trial_right_image,-1,exp4.png,4,exp4.png,exp3.png,1,3,reversed,correct,0.5180761862068517,1,valid_win,327.35476689999996,34,,,,,,,,,,,sub_680,2024-12-15_12h49.04.437,Reversal,2023.1.3,59.952002426268514,4,
10,exp1.png,exp2.png,,3,0,3,0,0,10,10,10,,,,,,,,,,,,,,,,,,,,,,,,,False,70,71,False,exp1.png,exp2.png,trial_right_image,-1,exp2.png,4,exp2.png,exp1.png,1,1,non-reversed,correct,0.7351523760289552,1,valid_win,331.8695566000006,35,,,,,,,,,,,sub_680,2024-12-15_12h49.04.437,Reversal,2023.1.3,59.952002426268514,4,
11,exp3.png,exp4.png,,3,0,3,0,0,11,11,11,,,,,,,,,,,,,,,,,,,,,,,,,False,71,72,False,exp3.png,exp4.png,trial_right_image,-1,exp4.png,4,exp4.png,exp3.png,1,3,reversed,correct,0.8211260840840903,1,valid_win,335.7355413999994,36,,,,,,,,,,,sub_680,2024-12-15_12h49.04.437,Reversal,2023.1.3,59.952002426268514,4,
12,exp1.png,exp2.png,,3,0,3,0,0,12,12,12,,,,,,,,,,,,,,,,,,,,,,,,,False,72,73,False,exp1.png,exp2.png,trial_right_image,-1,exp2.png,4,exp2.png,exp1.png,1,1,non-reversed,correct,0.05365544276333967,0,invalid_lose,339.6013273999997,36,,,,,,,,,,,sub_680,2024-12-15_12h49.04.437,Reversal,2023.1.3,59.952002426268514,4,
13,exp3.png,exp4.png,,3,0,3,0,0,13,13,13,,,,,,,,,,,,,,,,,,,,,,,,,False,73,74,True,exp4.png,exp3.png,trial_right_image,-1,exp3.png,4,exp4.png,exp3.png,0,4,reversed,incorrect,0.3432711432976483,0,valid_lose,343.4312768,36,,,,,,,,,,,sub_680,2024-12-15_12h49.04.437,Reversal,2023.1.3,59.952002426268514,4,
14,exp1.png,exp2.png,,3,0,3,0,0,14,14,14,,,,,,,,,,,,,,,,,,,,,,,,,False,74,75,True,exp2.png,exp1.png,trial_right_image,-1,exp1.png,4,exp2.png,exp1.png,0,2,non-reversed,incorrect,0.0847727563239179,1,invalid_win,347.21409850000055,37,,,,,,,,,,,sub_680,2024-12-15_12h49.04.437,Reversal,2023.1.3,59.952002426268514,4,
15,exp3.png,exp4.png,,3,0,3,0,0,15,15,15,,,,,,,,,,,,,,,,,,,,,,,,,False,75,76,False,exp3.png,exp4.png,trial_right_image,-1,exp4.png,4,exp4.png,exp3.png,1,3,reversed,correct,0.8417208292670021,1,valid_win,351.21369890000096,38,,,,,,,,,,,sub_680,2024-12-15_12h49.04.437,Reversal,2023.1.3,59.952002426268514,4,
16,exp1.png,exp2.png,,3,0,3,0,0,16,16,16,,,,,,,,,,,,,,,,,,,,,,,,,False,76,77,False,exp1.png,exp2.png,trial_right_image,-1,exp2.png,4,exp2.png,exp1.png,1,1,non-reversed,correct,0.4304475918849494,1,valid_win,355.04528290000053,39,,,,,,,,,,,sub_680,2024-12-15_12h49.04.437,Reversal,2023.1.3,59.952002426268514,4,
17,exp3.png,exp4.png,,3,0,3,0,0,17,17,17,,,,,,,,,,,,,,,,,,,,,,,,,False,77,78,True,exp4.png,exp3.png,trial_right_image,-1,exp3.png,4,exp4.png,exp3.png,0,4,reversed,incorrect,0.8722306058738423,0,valid_lose,358.87600249999923,39,,,,,,,,,,,sub_680,2024-12-15_12h49.04.437,Reversal,2023.1.3,59.952002426268514,4,
18,exp1.png,exp2.png,,3,0,3,0,0,18,18,18,,,,,,,,,,,,,,,,,,,,,,,,,False,78,79,False,exp1.png,exp2.png,trial_right_image,-1,exp2.png,4,exp2.png,exp1.png,1,1,non-reversed,correct,0.05566614701395589,0,invalid_lose,362.6748219000001,39,,,,,,,,,,,sub_680,2024-12-15_12h49.04.437,Reversal,2023.1.3,59.952002426268514,4,
19,exp3.png,exp4.png,,3,0,3,0,0,19,19,19,,,,,,,,,,,,,,,,,,,,,,,,,False,79,80,True,exp4.png,exp3.png,trial_right_image,-1,exp3.png,4,exp4.png,exp3.png,0,4,reversed,incorrect,0.2989562793337659,0,valid_lose,366.4082827000002,39,,,,,,,,,,,sub_680,2024-12-15_12h49.04.437,Reversal,2023.1.3,59.952002426268514,4,
20,exp1.png,exp2.png,,3,0,3,0,0,20,20,20,,,,,,,,,,,,,,,,,,,,,,,,,True,,,,,,,,,,,,,,,,,,,,,,,,,,,,,,,sub_680,2024-12-15_12h49.04.437,Reversal,2023.1.3,59.952002426268514,4,
,,,exp1.png,3,0,3,0,,,,,0,0,0,0,0,0,0,0,,,,,,,,,,,,,,,,,,,,,,,,,,,,,,,,,,,,,,458.5899079999999,None,None,[],,,,,,,sub_680,2024-12-15_12h49.04.437,Reversal,2023.1.3,59.952002426268514,4,
,,,exp2.png,3,0,3,0,,,,,0,0,0,0,0,1,1,1,,,,,,,,,,,,,,,,,,,,,,,,,,,,,,,,,,,,,,460.24936940000043,None,None,[],,,,,,,sub_680,2024-12-15_12h49.04.437,Reversal,2023.1.3,59.952002426268514,4,
,,,exp3.png,3,0,3,0,,,,,0,0,0,0,0,2,2,2,,,,,,,,,,,,,,,,,,,,,,,,,,,,,,,,,,,,,,461.225454899999,None,None,[],,,,,,,sub_680,2024-12-15_12h49.04.437,Reversal,2023.1.3,59.952002426268514,4,
,,,exp4.png,3,0,3,0,,,,,0,0,0,0,0,3,3,3,,,,,,,,,,,,,,,,,,,,,,,,,,,,,,,,,,,,,,462.10907399999996,None,None,[],,,,,,,sub_680,2024-12-15_12h49.04.437,Reversal,2023.1.3,59.952002426268514,4,
0,exp1.png,exp2.png,,,,,,,,,,,,,,,,,,0,0,0,0,0,0,0,0,,,,,,,,,False,0,81,True,exp2.png,exp1.png,trial_left_image,1,exp2.png,4,exp2.png,exp1.png,1,1,non-reversed,correct,0.6001599366439908,1,valid_win,376.03788689999965,40,,,,,373.76779610000085,,,,,,sub_680,2024-12-15_12h49.04.437,Reversal,2023.1.3,59.952002426268514,4,
1,exp3.png,exp4.png,,,,,,,,,,,,,,,,,,0,0,0,0,0,1,1,1,,,,,,,,,False,1,82,False,exp3.png,exp4.png,trial_left_image,1,exp3.png,4,exp3.png,exp4.png,0,4,reversed,correct,0.1869560233326043,0,invalid_lose,379.9203811999996,40,,,,,,,,,,,sub_680,2024-12-15_12h49.04.437,Reversal,2023.1.3,59.952002426268514,4,
2,exp1.png,exp2.png,,,,,,,,,,,,,,,,,,0,0,0,0,0,2,2,2,,,,,,,,,False,2,83,False,exp1.png,exp2.png,trial_right_image,-1,exp2.png,4,exp2.png,exp1.png,1,1,non-reversed,correct,0.17253349701500498,0,invalid_lose,384.81893560000026,40,,,,,,,,,,,sub_680,2024-12-15_12h49.04.437,Reversal,2023.1.3,59.952002426268514,4,
3,exp3.png,exp4.png,,,,,,,,,,,,,,,,,,0,0,0,0,0,3,3,3,,,,,,,,,False,3,84,False,exp3.png,exp4.png,trial_left_image,1,exp3.png,4,exp3.png,exp4.png,0,4,reversed,correct,0.6149876586671101,1,valid_win,389.1670613999995,41,,,,,,,,,,,sub_680,2024-12-15_12h49.04.437,Reversal,2023.1.3,59.952002426268514,4,
4,exp1.png,exp2.png,,,,,,,,,,,,,,,,,,0,0,0,0,0,4,4,4,,,,,,,,,False,4,85,True,exp2.png,exp1.png,trial_right_image,-1,exp1.png,4,exp2.png,exp1.png,0,2,non-reversed,incorrect,0.823302554527394,0,valid_lose,393.7652779,41,,,,,,,,,,,sub_680,2024-12-15_12h49.04.437,Reversal,2023.1.3,59.952002426268514,4,
5,exp3.png,exp4.png,,,,,,,,,,,,,,,,,,0,0,0,0,0,5,5,5,,,,,,,,,False,5,86,True,exp4.png,exp3.png,trial_right_image,-1,exp3.png,4,exp3.png,exp4.png,0,4,reversed,correct,0.18118844418935254,0,invalid_lose,397.58092919999945,41,,,,,,,,,,,sub_680,2024-12-15_12h49.04.437,Reversal,2023.1.3,59.952002426268514,4,
6,exp1.png,exp2.png,,,,,,,,,,,,,,,,,,0,0,0,0,0,6,6,6,,,,,,,,,False,6,87,True,exp2.png,exp1.png,trial_left_image,1,exp2.png,4,exp2.png,exp1.png,1,1,non-reversed,correct,0.5548231020559747,1,valid_win,401.7626959999998,42,,,,,,,,,,,sub_680,2024-12-15_12h49.04.437,Reversal,2023.1.3,59.952002426268514,4,
7,exp3.png,exp4.png,,,,,,,,,,,,,,,,,,0,0,0,0,0,7,7,7,,,,,,,,,False,7,88,False,exp3.png,exp4.png,trial_left_image,1,exp3.png,4,exp3.png,exp4.png,0,4,reversed,correct,0.5155228597109226,1,valid_win,406.31140419999974,43,,,,,,,,,,,sub_680,2024-12-15_12h49.04.437,Reversal,2023.1.3,59.952002426268514,4,
8,exp1.png,exp2.png,,,,,,,,,,,,,,,,,,0,0,0,0,0,8,8,8,,,,,,,,,False,8,89,False,exp1.png,exp2.png,trial_left_image,1,exp1.png,4,exp2.png,exp1.png,0,2,non-reversed,incorrect,0.8078208376213627,0,valid_lose,410.0920193000002,43,,,,,,,,,,,sub_680,2024-12-15_12h49.04.437,Reversal,2023.1.3,59.952002426268514,4,
9,exp3.png,exp4.png,,,,,,,,,,,,,,,,,,0,0,0,0,0,9,9,9,,,,,,,,,False,9,90,True,exp4.png,exp3.png,trial_right_image,-1,exp3.png,4,exp3.png,exp4.png,0,4,reversed,correct,0.08458176252343164,0,invalid_lose,413.3114378999999,43,,,,,,,,,,,sub_680,2024-12-15_12h49.04.437,Reversal,2023.1.3,59.952002426268514,4,
10,exp1.png,exp2.png,,,,,,,,,,,,,,,,,,0,0,0,0,0,10,10,10,,,,,,,,,False,10,91,False,exp1.png,exp2.png,trial_left_image,1,exp1.png,4,exp2.png,exp1.png,0,2,non-reversed,incorrect,0.5102433142241907,0,valid_lose,417.4065420000006,43,,,,,,,,,,,sub_680,2024-12-15_12h49.04.437,Reversal,2023.1.3,59.952002426268514,4,
11,exp3.png,exp4.png,,,,,,,,,,,,,,,,,,0,0,0,0,0,11,11,11,,,,,,,,,False,11,92,False,exp3.png,exp4.png,trial_right_image,-1,exp4.png,4,exp3.png,exp4.png,1,3,reversed,incorrect,0.24962600443549943,1,invalid_win,421.2546394000001,44,,,,,,,,,,,sub_680,2024-12-15_12h49.04.437,Reversal,2023.1.3,59.952002426268514,4,
12,exp1.png,exp2.png,,,,,,,,,,,,,,,,,,0,0,0,0,0,12,12,12,,,,,,,,,False,12,93,True,exp2.png,exp1.png,trial_right_image,-1,exp1.png,4,exp2.png,exp1.png,0,2,non-reversed,incorrect,0.5310537956420908,0,valid_lose,425.0551095999999,44,,,,,,,,,,,sub_680,2024-12-15_12h49.04.437,Reversal,2023.1.3,59.952002426268514,4,
13,exp3.png,exp4.png,,,,,,,,,,,,,,,,,,0,0,0,0,0,13,13,13,,,,,,,,,False,13,94,False,exp3.png,exp4.png,trial_left_image,1,exp3.png,4,exp3.png,exp4.png,0,4,reversed,correct,0.8004987228890846,1,valid_win,428.9027848000005,45,,,,,,,,,,,sub_680,2024-12-15_12h49.04.437,Reversal,2023.1.3,59.952002426268514,4,
14,exp1.png,exp2.png,,,,,,,,,,,,,,,,,,0,0,0,0,0,14,14,14,,,,,,,,,False,14,95,False,exp1.png,exp2.png,trial_left_image,1,exp1.png,4,exp2.png,exp1.png,0,2,non-reversed,incorrect,0.86305991318443,0,valid_lose,432.73412889999963,45,,,,,,,,,,,sub_680,2024-12-15_12h49.04.437,Reversal,2023.1.3,59.952002426268514,4,
15,exp3.png,exp4.png,,,,,,,,,,,,,,,,,,0,0,0,0,0,15,15,15,,,,,,,,,False,15,96,False,exp3.png,exp4.png,trial_right_image,-1,exp4.png,4,exp3.png,exp4.png,1,3,reversed,incorrect,0.6180447268162407,0,valid_lose,436.5180068999998,45,,,,,,,,,,,sub_680,2024-12-15_12h49.04.437,Reversal,2023.1.3,59.952002426268514,4,
16,exp1.png,exp2.png,,,,,,,,,,,,,,,,,,0,0,0,0,0,16,16,16,,,,,,,,,False,16,97,True,exp2.png,exp1.png,trial_right_image,-1,exp1.png,4,exp2.png,exp1.png,0,2,non-reversed,incorrect,0.6873036604936466,0,valid_lose,440.3648857999997,45,,,,,,,,,,,sub_680,2024-12-15_12h49.04.437,Reversal,2023.1.3,59.952002426268514,4,
17,exp3.png,exp4.png,,,,,,,,,,,,,,,,,,0,0,0,0,0,17,17,17,,,,,,,,,False,17,98,True,exp4.png,exp3.png,trial_right_image,-1,exp3.png,4,exp3.png,exp4.png,0,4,reversed,correct,0.3559618505187355,1,valid_win,443.61827489999996,46,,,,,,,,,,,sub_680,2024-12-15_12h49.04.437,Reversal,2023.1.3,59.952002426268514,4,
18,exp1.png,exp2.png,,,,,,,,,,,,,,,,,,0,0,0,0,0,18,18,18,,,,,,,,,False,18,99,True,exp2.png,exp1.png,trial_right_image,-1,exp1.png,4,exp2.png,exp1.png,0,2,non-reversed,incorrect,0.19121357782533444,1,invalid_win,447.46283419999963,47,,,,,,,,,,,sub_680,2024-12-15_12h49.04.437,Reversal,2023.1.3,59.952002426268514,4,
19,exp3.png,exp4.png,,,,,,,,,,,,,,,,,,0,0,0,0,0,19,19,19,,,,,,,,,False,19,100,True,exp4.png,exp3.png,trial_right_image,-1,exp3.png,4,exp3.png,exp4.png,0,4,reversed,correct,0.7978994952927133,1,valid_win,451.2780708999999,48,,,,,,,,,,,sub_680,2024-12-15_12h49.04.437,Reversal,2023.1.3,59.952002426268514,4,
20,exp1.png,exp2.png,,,,,,,,,,,,,,,,,,0,0,0,0,0,20,20,20,,,,,,,,,True,,,,,,,,,,,,,,,,,,,,,,,,,,,,,,,sub_680,2024-12-15_12h49.04.437,Reversal,2023.1.3,59.952002426268514,4,
,,,exp1.png,,,,,,,,,,,,,,,,,0,0,0,0,,,,,0,0,0,0,0,0,0,0,,,,,,,,,,,,,,,,,,,,,,543.4711286000002,None,None,[],,,,,,,sub_680,2024-12-15_12h49.04.437,Reversal,2023.1.3,59.952002426268514,4,
,,,exp2.png,,,,,,,,,,,,,,,,,0,0,0,0,,,,,0,0,0,0,0,1,1,1,,,,,,,,,,,,,,,,,,,,,,545.2316446999994,None,None,[],,,,,,,sub_680,2024-12-15_12h49.04.437,Reversal,2023.1.3,59.952002426268514,4,
,,,exp3.png,,,,,,,,,,,,,,,,,0,0,0,0,,,,,0,0,0,0,0,2,2,2,,,,,,,,,,,,,,,,,,,,,,547.3434218000002,None,None,[],,,,,,,sub_680,2024-12-15_12h49.04.437,Reversal,2023.1.3,59.952002426268514,4,
,,,exp4.png,,,,,,,,,,,,,,,,,0,0,0,0,,,,,0,0,0,0,0,3,3,3,,,,,,,,,,,,,,,,,,,,,,548.4413076000001,None,None,[],,,,,,,sub_680,2024-12-15_12h49.04.437,Reversal,2023.1.3,59.952002426268514,4,
0,exp1.png,exp2.png,,,,,,,,,,,,,,,,,,1,0,1,0,0,0,0,0,,,,,,,,,False,20,101,False,exp1.png,exp2.png,trial_left_image,1,exp1.png,4,exp2.png,exp1.png,0,2,non-reversed,incorrect,0.8219116668954685,0,valid_lose,462.89041610000095,48,,,,,,,,,,,sub_680,2024-12-15_12h49.04.437,Reversal,2023.1.3,59.952002426268514,4,
1,exp3.png,exp4.png,,,,,,,,,,,,,,,,,,1,0,1,0,0,1,1,1,,,,,,,,,False,21,102,False,exp3.png,exp4.png,trial_right_image,-1,exp4.png,4,exp3.png,exp4.png,1,3,reversed,incorrect,0.2692244200663291,0,valid_lose,466.70724169999994,48,,,,,,,,,,,sub_680,2024-12-15_12h49.04.437,Reversal,2023.1.3,59.952002426268514,4,
2,exp1.png,exp2.png,,,,,,,,,,,,,,,,,,1,0,1,0,0,2,2,2,,,,,,,,,False,22,103,False,exp1.png,exp2.png,trial_left_image,1,exp1.png,4,exp2.png,exp1.png,0,2,non-reversed,incorrect,0.7509907329266425,0,valid_lose,470.7727403000008,48,,,,,,,,,,,sub_680,2024-12-15_12h49.04.437,Reversal,2023.1.3,59.952002426268514,4,
3,exp3.png,exp4.png,,,,,,,,,,,,,,,,,,1,0,1,0,0,3,3,3,,,,,,,,,False,23,104,True,exp4.png,exp3.png,trial_right_image,-1,exp3.png,4,exp3.png,exp4.png,0,4,reversed,correct,0.9595615027705077,1,valid_win,474.5718890999997,49,,,,,,,,,,,sub_680,2024-12-15_12h49.04.437,Reversal,2023.1.3,59.952002426268514,4,
4,exp1.png,exp2.png,,,,,,,,,,,,,,,,,,1,0,1,0,0,4,4,4,,,,,,,,,False,24,105,True,exp2.png,exp1.png,trial_right_image,-1,exp1.png,4,exp2.png,exp1.png,0,2,non-reversed,incorrect,0.5628147643686418,0,valid_lose,477.9029909000001,49,,,,,,,,,,,sub_680,2024-12-15_12h49.04.437,Reversal,2023.1.3,59.952002426268514,4,
5,exp3.png,exp4.png,,,,,,,,,,,,,,,,,,1,0,1,0,0,5,5,5,,,,,,,,,False,25,106,True,exp4.png,exp3.png,trial_right_image,-1,exp3.png,4,exp3.png,exp4.png,0,4,reversed,correct,0.33371941863347865,1,valid_win,481.66958069999964,50,,,,,,,,,,,sub_680,2024-12-15_12h49.04.437,Reversal,2023.1.3,59.952002426268514,4,
6,exp1.png,exp2.png,,,,,,,,,,,,,,,,,,1,0,1,0,0,6,6,6,,,,,,,,,False,26,107,True,exp2.png,exp1.png,trial_right_image,-1,exp1.png,4,exp2.png,exp1.png,0,2,non-reversed,incorrect,0.3678778230179228,0,valid_lose,485.4660920999995,50,,,,,,,,,,,sub_680,2024-12-15_12h49.04.437,Reversal,2023.1.3,59.952002426268514,4,
7,exp3.png,exp4.png,,,,,,,,,,,,,,,,,,1,0,1,0,0,7,7,7,,,,,,,,,False,27,108,True,exp4.png,exp3.png,trial_right_image,-1,exp3.png,4,exp3.png,exp4.png,0,4,reversed,correct,0.4125002829966897,1,valid_win,489.19974550000006,51,,,,,,,,,,,sub_680,2024-12-15_12h49.04.437,Reversal,2023.1.3,59.952002426268514,4,
8,exp1.png,exp2.png,,,,,,,,,,,,,,,,,,1,0,1,0,0,8,8,8,,,,,,,,,False,28,109,False,exp1.png,exp2.png,trial_right_image,-1,exp2.png,4,exp2.png,exp1.png,1,1,non-reversed,correct,0.10868192816214728,0,invalid_lose,493.16572180000003,51,,,,,,,,,,,sub_680,2024-12-15_12h49.04.437,Reversal,2023.1.3,59.952002426268514,4,
9,exp3.png,exp4.png,,,,,,,,,,,,,,,,,,1,0,1,0,0,9,9,9,,,,,,,,,False,29,110,True,exp4.png,exp3.png,trial_right_image,-1,exp3.png,4,exp3.png,exp4.png,0,4,reversed,correct,0.6041442210152104,1,valid_win,497.11388850000003,52,,,,,,,,,,,sub_680,2024-12-15_12h49.04.437,Reversal,2023.1.3,59.952002426268514,4,
10,exp1.png,exp2.png,,,,,,,,,,,,,,,,,,1,0,1,0,0,10,10,10,,,,,,,,,False,30,111,True,exp2.png,exp1.png,trial_right_image,-1,exp1.png,4,exp2.png,exp1.png,0,2,non-reversed,incorrect,0.726958018098208,0,valid_lose,501.06204009999965,52,,,,,,,,,,,sub_680,2024-12-15_12h49.04.437,Reversal,2023.1.3,59.952002426268514,4,
11,exp3.png,exp4.png,,,,,,,,,,,,,,,,,,1,0,1,0,0,11,11,11,,,,,,,,,False,31,112,True,exp4.png,exp3.png,trial_right_image,-1,exp3.png,4,exp3.png,exp4.png,0,4,reversed,correct,0.27426201851580967,1,valid_win,505.4774632999997,53,,,,,,,,,,,sub_680,2024-12-15_12h49.04.437,Reversal,2023.1.3,59.952002426268514,4,
12,exp1.png,exp2.png,,,,,,,,,,,,,,,,,,1,0,1,0,0,12,12,12,,,,,,,,,False,32,113,False,exp1.png,exp2.png,trial_right_image,-1,exp2.png,4,exp2.png,exp1.png,1,1,non-reversed,correct,0.11057025324619407,0,invalid_lose,509.3589164999994,53,,,,,,,,,,,sub_680,2024-12-15_12h49.04.437,Reversal,2023.1.3,59.952002426268514,4,
13,exp3.png,exp4.png,,,,,,,,,,,,,,,,,,1,0,1,0,0,13,13,13,,,,,,,,,False,33,114,False,exp3.png,exp4.png,trial_right_image,-1,exp4.png,4,exp3.png,exp4.png,1,3,reversed,incorrect,0.007154769322092025,1,invalid_win,513.8580504000001,54,,,,,,,,,,,sub_680,2024-12-15_12h49.04.437,Reversal,2023.1.3,59.952002426268514,4,
14,exp1.png,exp2.png,,,,,,,,,,,,,,,,,,1,0,1,0,0,14,14,14,,,,,,,,,False,34,115,False,exp1.png,exp2.png,trial_left_image,1,exp1.png,4,exp2.png,exp1.png,0,2,non-reversed,incorrect,0.1484045984990755,1,invalid_win,517.7554220000002,55,,,,,,,,,,,sub_680,2024-12-15_12h49.04.437,Reversal,2023.1.3,59.952002426268514,4,
15,exp3.png,exp4.png,,,,,,,,,,,,,,,,,,1,0,1,0,0,15,15,15,,,,,,,,,False,35,116,True,exp4.png,exp3.png,trial_right_image,-1,exp3.png,4,exp3.png,exp4.png,0,4,reversed,correct,0.729185677090644,1,valid_win,521.6042584999996,56,,,,,,,,,,,sub_680,2024-12-15_12h49.04.437,Reversal,2023.1.3,59.952002426268514,4,
16,exp1.png,exp2.png,,,,,,,,,,,,,,,,,,1,0,1,0,0,16,16,16,,,,,,,,,False,36,117,False,exp1.png,exp2.png,trial_left_image,1,exp1.png,4,exp2.png,exp1.png,0,2,non-reversed,incorrect,0.8733653519496066,0,valid_lose,525.6210173,56,,,,,,,,,,,sub_680,2024-12-15_12h49.04.437,Reversal,2023.1.3,59.952002426268514,4,
17,exp3.png,exp4.png,,,,,,,,,,,,,,,,,,1,0,1,0,0,17,17,17,,,,,,,,,False,37,118,False,exp3.png,exp4.png,trial_right_image,-1,exp4.png,4,exp3.png,exp4.png,1,3,reversed,incorrect,0.6665570197567828,0,valid_lose,529.5183051000004,56,,,,,,,,,,,sub_680,2024-12-15_12h49.04.437,Reversal,2023.1.3,59.952002426268514,4,
18,exp1.png,exp2.png,,,,,,,,,,,,,,,,,,1,0,1,0,0,18,18,18,,,,,,,,,False,38,119,False,exp1.png,exp2.png,trial_right_image,-1,exp2.png,4,exp2.png,exp1.png,1,1,non-reversed,correct,0.0030957130752320428,0,invalid_lose,533.7511852999996,56,,,,,,,,,,,sub_680,2024-12-15_12h49.04.437,Reversal,2023.1.3,59.952002426268514,4,
19,exp3.png,exp4.png,,,,,,,,,,,,,,,,,,1,0,1,0,0,19,19,19,,,,,,,,,False,39,120,True,exp4.png,exp3.png,trial_right_image,-1,exp3.png,4,exp3.png,exp4.png,0,4,reversed,correct,0.8007589123393346,1,valid_win,538.4333557999998,57,,,,,,,,,,,sub_680,2024-12-15_12h49.04.437,Reversal,2023.1.3,59.952002426268514,4,
20,exp1.png,exp2.png,,,,,,,,,,,,,,,,,,1,0,1,0,0,20,20,20,,,,,,,,,True,,,,,,,,,,,,,,,,,,,,,,,,,,,,,,,sub_680,2024-12-15_12h49.04.437,Reversal,2023.1.3,59.952002426268514,4,
,,,exp1.png,,,,,,,,,,,,,,,,,1,0,1,0,,,,,0,0,0,0,0,0,0,0,,,,,,,,,,,,,,,,,,,,,,630.643237799999,None,None,[],,,,,,,sub_680,2024-12-15_12h49.04.437,Reversal,2023.1.3,59.952002426268514,4,
,,,exp2.png,,,,,,,,,,,,,,,,,1,0,1,0,,,,,0,0,0,0,0,1,1,1,,,,,,,,,,,,,,,,,,,,,,632.3055196999994,None,None,[],,,,,,,sub_680,2024-12-15_12h49.04.437,Reversal,2023.1.3,59.952002426268514,4,
,,,exp3.png,,,,,,,,,,,,,,,,,1,0,1,0,,,,,0,0,0,0,0,2,2,2,,,,,,,,,,,,,,,,,,,,,,633.2566465999989,None,None,[],,,,,,,sub_680,2024-12-15_12h49.04.437,Reversal,2023.1.3,59.952002426268514,4,
,,,exp4.png,,,,,,,,,,,,,,,,,1,0,1,0,,,,,0,0,0,0,0,3,3,3,,,,,,,,,,,,,,,,,,,,,,634.0228716999991,None,None,[],,,,,,,sub_680,2024-12-15_12h49.04.437,Reversal,2023.1.3,59.952002426268514,4,
0,exp1.png,exp2.png,,,,,,,,,,,,,,,,,,2,0,2,0,0,0,0,0,,,,,,,,,False,40,121,True,exp2.png,exp1.png,trial_right_image,-1,exp1.png,4,exp2.png,exp1.png,0,2,non-reversed,incorrect,0.13923213257061173,1,invalid_win,548.2796598000004,58,,,,,,,,,,,sub_680,2024-12-15_12h49.04.437,Reversal,2023.1.3,59.952002426268514,4,
1,exp3.png,exp4.png,,,,,,,,,,,,,,,,,,2,0,2,0,0,1,1,1,,,,,,,,,False,41,122,False,exp3.png,exp4.png,trial_left_image,1,exp3.png,4,exp3.png,exp4.png,0,4,reversed,correct,0.14548380014499318,0,invalid_lose,552.778240900001,58,,,,,,,,,,,sub_680,2024-12-15_12h49.04.437,Reversal,2023.1.3,59.952002426268514,4,
2,exp1.png,exp2.png,,,,,,,,,,,,,,,,,,2,0,2,0,0,2,2,2,,,,,,,,,False,42,123,False,exp1.png,exp2.png,trial_left_image,1,exp1.png,4,exp2.png,exp1.png,0,2,non-reversed,incorrect,0.7803791427407352,0,valid_lose,556.9257316000003,58,,,,,,,,,,,sub_680,2024-12-15_12h49.04.437,Reversal,2023.1.3,59.952002426268514,4,
3,exp3.png,exp4.png,,,,,,,,,,,,,,,,,,2,0,2,0,0,3,3,3,,,,,,,,,False,43,124,True,exp4.png,exp3.png,trial_left_image,1,exp4.png,4,exp3.png,exp4.png,1,3,reversed,incorrect,0.4242863369568046,0,valid_lose,561.5908254000005,58,,,,,,,,,,,sub_680,2024-12-15_12h49.04.437,Reversal,2023.1.3,59.952002426268514,4,
4,exp1.png,exp2.png,,,,,,,,,,,,,,,,,,2,0,2,0,0,4,4,4,,,,,,,,,False,44,125,True,exp2.png,exp1.png,trial_left_image,1,exp2.png,4,exp2.png,exp1.png,1,1,non-reversed,correct,0.19382234739388238,0,invalid_lose,566.3724978999999,58,,,,,,,,,,,sub_680,2024-12-15_12h49.04.437,Reversal,2023.1.3,59.952002426268514,4,
5,exp3.png,exp4.png,,,,,,,,,,,,,,,,,,2,0,2,0,0,5,5,5,,,,,,,,,False,45,126,False,exp3.png,exp4.png,trial_left_image,1,exp3.png,4,exp3.png,exp4.png,0,4,reversed,correct,0.6401287620521421,1,valid_win,571.4872849999992,59,,,,,,,,,,,sub_680,2024-12-15_12h49.04.437,Reversal,2023.1.3,59.952002426268514,4,
6,exp1.png,exp2.png,,,,,,,,,,,,,,,,,,2,0,2,0,0,6,6,6,,,,,,,,,False,46,127,True,exp2.png,exp1.png,trial_right_image,-1,exp1.png,4,exp2.png,exp1.png,0,2,non-reversed,incorrect,0.11039831113684384,1,invalid_win,576.6692927000004,60,,,,,,,,,,,sub_680,2024-12-15_12h49.04.437,Reversal,2023.1.3,59.952002426268514,4,
7,exp3.png,exp4.png,,,,,,,,,,,,,,,,,,2,0,2,0,0,7,7,7,,,,,,,,,False,47,128,True,exp4.png,exp3.png,trial_right_image,-1,exp3.png,4,exp3.png,exp4.png,0,4,reversed,correct,0.6006837132366035,1,valid_win,581.8012632000009,61,,,,,,,,,,,sub_680,2024-12-15_12h49.04.437,Reversal,2023.1.3,59.952002426268514,4,
8,exp1.png,exp2.png,,,,,,,,,,,,,,,,,,2,0,2,0,0,8,8,8,,,,,,,,,False,48,129,False,exp1.png,exp2.png,trial_right_image,-1,exp2.png,4,exp2.png,exp1.png,1,1,non-reversed,correct,0.26139902706253304,1,valid_win,588.1336778999994,62,,,,,,,,,,,sub_680,2024-12-15_12h49.04.437,Reversal,2023.1.3,59.952002426268514,4,
9,exp3.png,exp4.png,,,,,,,,,,,,,,,,,,2,0,2,0,0,9,9,9,,,,,,,,,False,49,130,True,exp4.png,exp3.png,trial_left_image,1,exp4.png,4,exp3.png,exp4.png,1,3,reversed,incorrect,0.9951006666599315,0,valid_lose,593.8480006999998,62,,,,,,,,,,,sub_680,2024-12-15_12h49.04.437,Reversal,2023.1.3,59.952002426268514,4,
10,exp1.png,exp2.png,,,,,,,,,,,,,,,,,,2,0,2,0,0,10,10,10,,,,,,,,,False,50,131,False,exp1.png,exp2.png,trial_right_image,-1,exp2.png,4,exp2.png,exp1.png,1,1,non-reversed,correct,0.17413830629593208,0,invalid_lose,597.6277344000009,62,,,,,,,,,,,sub_680,2024-12-15_12h49.04.437,Reversal,2023.1.3,59.952002426268514,4,
11,exp3.png,exp4.png,,,,,,,,,,,,,,,,,,2,0,2,0,0,11,11,11,,,,,,,,,False,51,132,True,exp4.png,exp3.png,trial_right_image,-1,exp3.png,4,exp3.png,exp4.png,0,4,reversed,correct,0.4898685468915368,1,valid_win,601.3276384000001,63,,,,,,,,,,,sub_680,2024-12-15_12h49.04.437,Reversal,2023.1.3,59.952002426268514,4,
12,exp1.png,exp2.png,,,,,,,,,,,,,,,,,,2,0,2,0,0,12,12,12,,,,,,,,,False,52,133,False,exp1.png,exp2.png,trial_right_image,-1,exp2.png,4,exp2.png,exp1.png,1,1,non-reversed,correct,0.8587786965000744,1,valid_win,605.1254793000007,64,,,,,,,,,,,sub_680,2024-12-15_12h49.04.437,Reversal,2023.1.3,59.952002426268514,4,
13,exp3.png,exp4.png,,,,,,,,,,,,,,,,,,2,0,2,0,0,13,13,13,,,,,,,,,False,53,134,False,exp3.png,exp4.png,trial_right_image,-1,exp4.png,4,exp3.png,exp4.png,1,3,reversed,incorrect,0.18253544314786585,1,invalid_win,609.9757401999996,65,,,,,,,,,,,sub_680,2024-12-15_12h49.04.437,Reversal,2023.1.3,59.952002426268514,4,
14,exp1.png,exp2.png,,,,,,,,,,,,,,,,,,2,0,2,0,0,14,14,14,,,,,,,,,False,54,135,True,exp2.png,exp1.png,trial_right_image,-1,exp1.png,4,exp2.png,exp1.png,0,2,non-reversed,incorrect,0.24417845774579194,1,invalid_win,614.7563073000001,66,,,,,,,,,,,sub_680,2024-12-15_12h49.04.437,Reversal,2023.1.3,59.952002426268514,4,
15,exp3.png,exp4.png,,,,,,,,,,,,,,,,,,2,0,2,0,0,15,15,15,,,,,,,,,False,55,136,True,exp4.png,exp3.png,trial_left_image,1,exp4.png,4,exp3.png,exp4.png,1,3,reversed,incorrect,0.9770692421094401,0,valid_lose,619.8385271000006,66,,,,,,,,,,,sub_680,2024-12-15_12h49.04.437,Reversal,2023.1.3,59.952002426268514,4,
16,exp1.png,exp2.png,,,,,,,,,,,,,,,,,,2,0,2,0,0,16,16,16,,,,,,,,,False,56,137,True,exp2.png,exp1.png,trial_right_image,-1,exp1.png,4,exp2.png,exp1.png,0,2,non-reversed,incorrect,0.43888469347725656,0,valid_lose,623.6372869999996,66,,,,,,,,,,,sub_680,2024-12-15_12h49.04.437,Reversal,2023.1.3,59.952002426268514,4,
17,exp3.png,exp4.png,,,,,,,,,,,,,,,,,,2,0,2,0,0,17,17,17,,,,,,,,,False,57,138,False,exp3.png,exp4.png,trial_right_image,-1,exp4.png,4,exp3.png,exp4.png,1,3,reversed,incorrect,0.8668754600607215,0,valid_lose,627.6023394000003,66,,,,,,,,,,,sub_680,2024-12-15_12h49.04.437,Reversal,2023.1.3,59.952002426268514,4,
18,exp1.png,exp2.png,,,,,,,,,,,,,,,,,,2,0,2,0,0,18,18,18,,,,,,,,,False,58,139,False,exp1.png,exp2.png,trial_right_image,-1,exp2.png,4,exp2.png,exp1.png,1,1,non-reversed,correct,0.7668214694776239,1,valid_win,632.9675473000007,67,,,,,,,,,,,sub_680,2024-12-15_12h49.04.437,Reversal,2023.1.3,59.952002426268514,4,
19,exp3.png,exp4.png,,,,,,,,,,,,,,,,,,2,0,2,0,0,19,19,19,,,,,,,,,False,59,140,False,exp3.png,exp4.png,trial_right_image,-1,exp4.png,4,exp3.png,exp4.png,1,3,reversed,incorrect,0.9910274610924489,0,valid_lose,637.0666514000004,67,,,,,,,,,,,sub_680,2024-12-15_12h49.04.437,Reversal,2023.1.3,59.952002426268514,4,
20,exp1.png,exp2.png,,,,,,,,,,,,,,,,,,2,0,2,0,0,20,20,20,,,,,,,,,True,,,,,,,,,,,,,,,,,,,,,,,,,,,,,,,sub_680,2024-12-15_12h49.04.437,Reversal,2023.1.3,59.952002426268514,4,
,,,exp1.png,,,,,,,,,,,,,,,,,2,0,2,0,,,,,0,0,0,0,0,0,0,0,,,,,,,,,,,,,,,,,,,,,,729.2473805999998,None,None,[],,,,,,,sub_680,2024-12-15_12h49.04.437,Reversal,2023.1.3,59.952002426268514,4,
,,,exp2.png,,,,,,,,,,,,,,,,,2,0,2,0,,,,,0,0,0,0,0,1,1,1,,,,,,,,,,,,,,,,,,,,,,730.8137440999999,None,None,[],,,,,,,sub_680,2024-12-15_12h49.04.437,Reversal,2023.1.3,59.952002426268514,4,
,,,exp3.png,,,,,,,,,,,,,,,,,2,0,2,0,,,,,0,0,0,0,0,2,2,2,,,,,,,,,,,,,,,,,,,,,,731.3799079,None,None,[],,,,,,,sub_680,2024-12-15_12h49.04.437,Reversal,2023.1.3,59.952002426268514,4,
,,,exp4.png,,,,,,,,,,,,,,,,,2,0,2,0,,,,,0,0,0,0,0,3,3,3,,,,,,,,,,,,,,,,,,,,,,732.4278479999994,None,None,[],,,,,,,sub_680,2024-12-15_12h49.04.437,Reversal,2023.1.3,59.952002426268514,4,
,,,,,,,,,,,,,,,,,,,,,,,,,,,,,,,,,,,,,,,,,,,,,,,,,,,,,,,,67,,,,,,68,38,30,270.14943139999923,1,,,,,,,
