trial_index,trial_image1_file,trial_image2_file,image_file,learning_outer_loop.thisRepN,learning_outer_loop.thisTrialN,learning_outer_loop.thisN,learning_outer_loop.thisIndex,learning_inner_loop.thisRepN,learning_inner_loop.thisTrialN,learning_inner_loop.thisN,learning_inner_loop.thisIndex,learning_estimation_outer_loop.thisRepN,learning_estimation_outer_loop.thisTrialN,learning_estimation_outer_loop.thisN,learning_estimation_outer_loop.thisIndex,learning_estimation_inner_loop.thisRepN,learning_estimation_inner_loop.thisTrialN,learning_estimation_inner_loop.thisN,learning_estimation_inner_loop.thisIndex,reversal_outer_loop.thisRepN,reversal_outer_loop.thisTrialN,reversal_outer_loop.thisN,reversal_outer_loop.thisIndex,reversal_inner_loop.thisRepN,reversal_inner_loop.thisTrialN,reversal_inner_loop.thisN,reversal_inner_loop.thisIndex,reversal_estimation_outer_loop.thisRepN,reversal_estimation_outer_loop.thisTrialN,reversal_estimation_outer_loop.thisN,reversal_estimation_outer_loop.thisIndex,reversal_estimation_inner_loop.thisRepN,reversal_estimation_inner_loop.thisTrialN,reversal_estimation_inner_loop.thisN,reversal_estimation_inner_loop.thisIndex,thisRow.t,notes,instructions1.started,instructions1.stopped,instructions2.started,instructions2.stopped,instructions3.started,instructions3.stopped,intstructions4.started,intstructions4.stopped,instructions5.started,instructions5.stopped,mindware_trigger_learning.started,mindware_trigger_learning.stopped,trial.started,skipped,trial.stopped,feedback_preparation.started,feedback_preparation.stopped,feedback.started,feedback.stopped,total_trial_counter,trial_num,left_right_flip,left_image_file,right_image_file,clicked_stimulus_side,side,clicked_stimulus,version,high_prob_image_file,low_prob_image_file,choice_a,choice_b,pair_type,correct,trial_feedback_random,reward,trial_type,overall_time_after_trial,score,estimation.started,estimation_rating.started,estimation.stopped,estimation_exp1.png,estimation_rating.response,estimation_rating.rt,estimation_rating.history,estimation_exp2.png,estimation_exp3.png,estimation_exp4.png,mindware_trigger_reversal.started,mindware_trigger_reversal.stopped,total_learning_time,thank_you.started,total_correct,learning_correct,reversal_correct,total_reversal_time,extra_block,participant,date,expName,psychopyVersion,frameRate,ver,expStart,
0,exp1.png,exp2.png,,0,0,0,0,0,0,0,0,,,,,,,,,,,,,,,,,,,,,,,,,54.284652900000765,,0.013041600000178732,29.072742700000163,29.072792599999957,33.53764610000053,33.5376767000007,40.70545570000013,40.705507800000305,46.81984840000041,46.81989930000054,53.919393900000614,53.94957330000034,53.95064380000076,53.950676000000385,True,54.08248580000054,54.082524500000545,54.11158570000043,54.111600700000054,54.12723360000018,,,,,,,,,,,,,,,,,,,,,,,,,,,,,,,,,,,,,,,,sub_818,2024-12-08_11h58.41.535,Reversal,2023.2.1,59.958364911532364,2,2024-12-08 11h58.53.827061 +0200,
1,exp3.png,exp4.png,,0,0,0,0,0,1,1,1,,,,,,,,,,,,,,,,,,,,,,,,,54.284652900000765,,,,,,,,,,,,54.12749460000032,54.127749200000835,54.127761500000815,False,59.233211600000686,59.233747799999946,59.84786240000085,59.847905399999945,61.646376200000304,0,1,True,exp4.png,exp3.png,trial_left_image,1,exp4.png,2,exp3.png,exp4.png,0,4,reversed,incorrect,0.4748718689752488,0,valid_lose,5.314276699999937,0,,,,,,,,,,,,,,,,,,,,sub_818,2024-12-08_11h58.41.535,Reversal,2023.2.1,59.958364911532364,2,2024-12-08 11h58.53.827061 +0200,
2,exp1.png,exp2.png,,0,0,0,0,0,2,2,2,,,,,,,,,,,,,,,,,,,,,,,,,61.825643900000614,,,,,,,,,,,,61.64751560000059,61.64872950000063,61.64878610000051,False,65.49931250000009,65.49983180000072,66.11412689999997,66.1141563000001,67.91157370000019,1,2,True,exp2.png,exp1.png,trial_left_image,1,exp2.png,2,exp1.png,exp2.png,0,2,non-reversed,incorrect,0.8001017462442942,0,valid_lose,11.580360599999949,0,,,,,,,,,,,,,,,,,,,,sub_818,2024-12-08_11h58.41.535,Reversal,2023.2.1,59.958364911532364,2,2024-12-08 11h58.53.827061 +0200,
3,exp3.png,exp4.png,,0,0,0,0,0,3,3,3,,,,,,,,,,,,,,,,,,,,,,,,,68.06912809999994,,,,,,,,,,,,67.91245920000074,67.91346420000082,67.91351410000061,False,70.56558940000014,70.56631470000048,71.17967350000072,71.17970370000057,72.97802600000068,2,3,False,exp3.png,exp4.png,trial_left_image,1,exp3.png,2,exp3.png,exp4.png,1,3,reversed,correct,0.4357182509226537,1,valid_win,16.646832200000063,1,,,,,,,,,,,,,,,,,,,,sub_818,2024-12-08_11h58.41.535,Reversal,2023.2.1,59.958364911532364,2,2024-12-08 11h58.53.827061 +0200,
4,exp1.png,exp2.png,,0,0,0,0,0,4,4,4,,,,,,,,,,,,,,,,,,,,,,,,,73.12724680000065,,,,,,,,,,,,72.97905880000053,72.98023600000033,72.9802922000008,False,75.34728200000063,75.34784290000061,75.96286970000074,75.96289640000032,77.76043780000055,3,4,True,exp2.png,exp1.png,trial_right_image,-1,exp1.png,2,exp1.png,exp2.png,1,1,non-reversed,correct,0.2700528537530412,1,valid_win,21.42837359999976,2,,,,,,,,,,,,,,,,,,,,sub_818,2024-12-08_11h58.41.535,Reversal,2023.2.1,59.958364911532364,2,2024-12-08 11h58.53.827061 +0200,
5,exp3.png,exp4.png,,0,0,0,0,0,5,5,5,,,,,,,,,,,,,,,,,,,,,,,,,77.91582160000053,,,,,,,,,,,,77.76144420000037,77.76253970000016,77.76259520000076,False,81.23016000000007,81.23059490000014,81.8446597000002,81.84469080000054,83.64302490000046,4,5,True,exp4.png,exp3.png,trial_right_image,-1,exp3.png,2,exp3.png,exp4.png,1,3,reversed,correct,0.34464952635985235,1,valid_win,27.311128800000006,3,,,,,,,,,,,,,,,,,,,,sub_818,2024-12-08_11h58.41.535,Reversal,2023.2.1,59.958364911532364,2,2024-12-08 11h58.53.827061 +0200,
6,exp1.png,exp2.png,,0,0,0,0,0,6,6,6,,,,,,,,,,,,,,,,,,,,,,,,,83.79132879999997,,,,,,,,,,,,83.64400540000042,83.64516090000052,83.64521740000055,False,87.0296330000001,87.03056480000032,87.64449800000057,87.64454320000004,89.44217000000026,5,6,True,exp2.png,exp1.png,trial_right_image,-1,exp1.png,2,exp1.png,exp2.png,1,1,non-reversed,correct,0.32629834431017724,1,valid_win,33.11107919999995,4,,,,,,,,,,,,,,,,,,,,sub_818,2024-12-08_11h58.41.535,Reversal,2023.2.1,59.958364911532364,2,2024-12-08 11h58.53.827061 +0200,
7,exp3.png,exp4.png,,0,0,0,0,0,7,7,7,,,,,,,,,,,,,,,,,,,,,,,,,89.59505090000039,,,,,,,,,,,,89.44306360000064,89.44404610000038,89.44409580000047,False,91.51342720000048,91.51413840000077,92.12713600000006,92.12717659999998,93.92527580000024,6,7,False,exp3.png,exp4.png,trial_left_image,1,exp3.png,2,exp3.png,exp4.png,1,3,reversed,correct,0.7660641636287467,1,valid_win,37.59465799999998,5,,,,,,,,,,,,,,,,,,,,sub_818,2024-12-08_11h58.41.535,Reversal,2023.2.1,59.958364911532364,2,2024-12-08 11h58.53.827061 +0200,
8,exp1.png,exp2.png,,0,0,0,0,0,8,8,8,,,,,,,,,,,,,,,,,,,,,,,,,94.07384280000042,,,,,,,,,,,,93.92649240000083,93.92766310000025,93.92771940000057,False,95.9617704000002,95.96233640000082,96.57631680000031,96.57635730000038,98.37433540000075,7,8,True,exp2.png,exp1.png,trial_right_image,-1,exp1.png,2,exp1.png,exp2.png,1,1,non-reversed,correct,0.7583050682621711,1,valid_win,42.04286409999986,6,,,,,,,,,,,,,,,,,,,,sub_818,2024-12-08_11h58.41.535,Reversal,2023.2.1,59.958364911532364,2,2024-12-08 11h58.53.827061 +0200,
9,exp3.png,exp4.png,,0,0,0,0,0,9,9,9,,,,,,,,,,,,,,,,,,,,,,,,,98.54335480000009,,,,,,,,,,,,98.37525570000071,98.37619590000031,98.37624520000008,False,101.56067640000037,101.5612073000002,102.17605100000037,102.17609830000038,103.97386030000052,8,9,False,exp3.png,exp4.png,trial_left_image,1,exp3.png,2,exp3.png,exp4.png,1,3,reversed,correct,0.7926826521913584,1,valid_win,47.64173549999941,7,,,,,,,,,,,,,,,,,,,,sub_818,2024-12-08_11h58.41.535,Reversal,2023.2.1,59.958364911532364,2,2024-12-08 11h58.53.827061 +0200,
10,exp1.png,exp2.png,,0,0,0,0,0,10,10,10,,,,,,,,,,,,,,,,,,,,,,,,,104.14119410000058,,,,,,,,,,,,103.97504430000026,103.97634259999995,103.97640160000083,False,105.97644070000024,105.97679860000062,106.5918457000007,106.59189230000084,108.39003660000071,9,10,False,exp1.png,exp2.png,trial_left_image,1,exp1.png,2,exp1.png,exp2.png,1,1,non-reversed,correct,0.332809381283078,1,valid_win,52.05733809999947,8,,,,,,,,,,,,,,,,,,,,sub_818,2024-12-08_11h58.41.535,Reversal,2023.2.1,59.958364911532364,2,2024-12-08 11h58.53.827061 +0200,
11,exp3.png,exp4.png,,0,0,0,0,0,11,11,11,,,,,,,,,,,,,,,,,,,,,,,,,108.53765590000057,,,,,,,,,,,,108.39105420000033,108.39230970000062,108.39239780000025,False,110.44288580000011,110.44331630000033,111.05853240000033,111.05857970000034,112.85648700000002,10,11,False,exp3.png,exp4.png,trial_left_image,1,exp3.png,2,exp3.png,exp4.png,1,3,reversed,correct,0.42918230117639067,1,valid_win,56.52385139999933,9,,,,,,,,,,,,,,,,,,,,sub_818,2024-12-08_11h58.41.535,Reversal,2023.2.1,59.958364911532364,2,2024-12-08 11h58.53.827061 +0200,
12,exp1.png,exp2.png,,0,0,0,0,0,12,12,12,,,,,,,,,,,,,,,,,,,,,,,,,113.00774490000003,,,,,,,,,,,,112.85740840000017,112.85850240000036,112.85858090000056,False,114.85975800000051,114.8605376000005,115.47365740000077,115.47368210000059,117.27210900000046,11,12,True,exp2.png,exp1.png,trial_right_image,-1,exp1.png,2,exp1.png,exp2.png,1,1,non-reversed,correct,0.3011538564851237,1,valid_win,60.941047599999365,10,,,,,,,,,,,,,,,,,,,,sub_818,2024-12-08_11h58.41.535,Reversal,2023.2.1,59.958364911532364,2,2024-12-08 11h58.53.827061 +0200,
13,exp3.png,exp4.png,,0,0,0,0,0,13,13,13,,,,,,,,,,,,,,,,,,,,,,,,,117.43430179999996,,,,,,,,,,,,117.27308810000068,117.27431109999998,117.27436770000077,False,119.5256588000002,119.52631340000062,120.14035660000081,120.14040190000014,121.93805659999998,12,13,True,exp4.png,exp3.png,trial_right_image,-1,exp3.png,2,exp3.png,exp4.png,1,3,reversed,correct,0.21128114099473727,0,invalid_lose,65.60683679999966,10,,,,,,,,,,,,,,,,,,,,sub_818,2024-12-08_11h58.41.535,Reversal,2023.2.1,59.958364911532364,2,2024-12-08 11h58.53.827061 +0200,
14,exp1.png,exp2.png,,0,0,0,0,0,14,14,14,,,,,,,,,,,,,,,,,,,,,,,,,122.09696450000047,,,,,,,,,,,,121.93891630000053,121.94005210000068,121.94010210000033,False,125.50751650000075,125.50803300000007,126.12312960000054,126.12317729999995,127.92057100000056,13,14,False,exp1.png,exp2.png,trial_left_image,1,exp1.png,2,exp1.png,exp2.png,1,1,non-reversed,correct,0.4321681953043528,1,valid_win,71.58856099999957,11,,,,,,,,,,,,,,,,,,,,sub_818,2024-12-08_11h58.41.535,Reversal,2023.2.1,59.958364911532364,2,2024-12-08 11h58.53.827061 +0200,
15,exp3.png,exp4.png,,0,0,0,0,0,15,15,15,,,,,,,,,,,,,,,,,,,,,,,,,128.0822347000003,,,,,,,,,,,,127.92144310000003,127.92245640000056,127.92250610000065,False,130.39133680000032,130.39207440000064,131.00575879999997,131.00581090000014,132.80338740000025,14,15,False,exp3.png,exp4.png,trial_left_image,1,exp3.png,2,exp3.png,exp4.png,1,3,reversed,correct,0.3720503118922657,1,valid_win,76.47259329999997,12,,,,,,,,,,,,,,,,,,,,sub_818,2024-12-08_11h58.41.535,Reversal,2023.2.1,59.958364911532364,2,2024-12-08 11h58.53.827061 +0200,
16,exp1.png,exp2.png,,0,0,0,0,0,16,16,16,,,,,,,,,,,,,,,,,,,,,,,,,132.95401370000036,,,,,,,,,,,,132.80437100000017,132.80548850000014,132.80554440000014,False,134.64108430000033,134.64193410000007,135.25549870000032,135.25558810000075,137.05257340000026,15,16,False,exp1.png,exp2.png,trial_left_image,1,exp1.png,2,exp1.png,exp2.png,1,1,non-reversed,correct,0.6488282422468855,1,valid_win,80.72244699999919,13,,,,,,,,,,,,,,,,,,,,sub_818,2024-12-08_11h58.41.535,Reversal,2023.2.1,59.958364911532364,2,2024-12-08 11h58.53.827061 +0200,
17,exp3.png,exp4.png,,0,0,0,0,0,17,17,17,,,,,,,,,,,,,,,,,,,,,,,,,137.21465680000074,,,,,,,,,,,,137.0532477000006,137.0542144000001,137.05425540000033,False,141.4227608000001,141.42328460000044,142.03681940000024,142.0368406000007,143.8359859000002,16,17,False,exp3.png,exp4.png,trial_left_image,1,exp3.png,2,exp3.png,exp4.png,1,3,reversed,correct,0.04663628960832111,0,invalid_lose,87.50381429999925,13,,,,,,,,,,,,,,,,,,,,sub_818,2024-12-08_11h58.41.535,Reversal,2023.2.1,59.958364911532364,2,2024-12-08 11h58.53.827061 +0200,
18,exp1.png,exp2.png,,0,0,0,0,0,18,18,18,,,,,,,,,,,,,,,,,,,,,,,,,144.0054450000007,,,,,,,,,,,,143.83692130000054,143.83794790000047,143.8379986,False,151.60578570000052,151.60651990000042,152.2201042000006,152.2201511000003,154.01714820000052,17,18,False,exp1.png,exp2.png,trial_left_image,1,exp1.png,2,exp1.png,exp2.png,1,1,non-reversed,correct,0.026769924400962486,0,invalid_lose,97.68703819999973,13,,,,,,,,,,,,,,,,,,,,sub_818,2024-12-08_11h58.41.535,Reversal,2023.2.1,59.958364911532364,2,2024-12-08 11h58.53.827061 +0200,
19,exp3.png,exp4.png,,0,0,0,0,0,19,19,19,,,,,,,,,,,,,,,,,,,,,,,,,154.17418440000074,,,,,,,,,,,,154.01818710000043,154.0190777000007,154.01913140000033,False,159.3043230000003,159.30520479999996,159.91848170000048,159.9185294000008,161.71663640000043,18,19,True,exp4.png,exp3.png,trial_right_image,-1,exp3.png,2,exp3.png,exp4.png,1,3,reversed,correct,0.8537215497114151,1,valid_win,105.38571299999967,14,,,,,,,,,,,,,,,,,,,,sub_818,2024-12-08_11h58.41.535,Reversal,2023.2.1,59.958364911532364,2,2024-12-08 11h58.53.827061 +0200,
20,exp1.png,exp2.png,,0,0,0,0,0,20,20,20,,,,,,,,,,,,,,,,,,,,,,,,,161.87023320000026,,,,,,,,,,,,161.71756510000068,161.71878090000064,161.71884540000065,False,166.61908230000063,166.61961659999997,167.23369720000028,167.2337221000007,169.03208630000063,19,20,True,exp2.png,exp1.png,trial_right_image,-1,exp1.png,2,exp1.png,exp2.png,1,1,non-reversed,correct,0.16552392848859265,0,invalid_lose,112.70014459999948,14,,,,,,,,,,,,,,,,,,,,sub_818,2024-12-08_11h58.41.535,Reversal,2023.2.1,59.958364911532364,2,2024-12-08 11h58.53.827061 +0200,
,,,exp1.png,0,0,0,0,,,,,0,0,0,0,0,0,0,0,,,,,,,,,,,,,,,,,169.13224420000006,,,,,,,,,,,,,,,,,,,,,,,,,,,,,,,,,,,,,,,,,169.06784600000083,169.13224420000006,179.32048340000074,69.0,69.0,8.55630359999941,"[(69.0, 8.55630359999941)]",,,,,,,,,,,,,sub_818,2024-12-08_11h58.41.535,Reversal,2023.2.1,59.958364911532364,2,2024-12-08 11h58.53.827061 +0200,
,,,exp2.png,0,0,0,0,,,,,0,0,0,0,0,1,1,1,,,,,,,,,,,,,,,,,179.39206360000026,,,,,,,,,,,,,,,,,,,,,,,,,,,,,,,,,,,,,,,,,179.32445890000054,179.39206360000026,184.85487310000008,,25.0,4.284699400000136,"[(25.0, 4.284699400000136)]",25.0,,,,,,,,,,,,sub_818,2024-12-08_11h58.41.535,Reversal,2023.2.1,59.958364911532364,2,2024-12-08 11h58.53.827061 +0200,
,,,exp3.png,0,0,0,0,,,,,0,0,0,0,0,2,2,2,,,,,,,,,,,,,,,,,184.92538330000025,,,,,,,,,,,,,,,,,,,,,,,,,,,,,,,,,,,,,,,,,184.8558096000006,184.92538330000025,190.22024130000045,,75.0,3.2666864000002533,"[(75.0, 3.2666864000002533)]",,75.0,,,,,,,,,,,sub_818,2024-12-08_11h58.41.535,Reversal,2023.2.1,59.958364911532364,2,2024-12-08 11h58.53.827061 +0200,
,,,exp4.png,0,0,0,0,,,,,0,0,0,0,0,3,3,3,,,,,,,,,,,,,,,,,190.29143890000068,,,,,,,,,,,,,,,,,,,,,,,,,,,,,,,,,,,,,,,,,190.22132430000056,190.29143890000068,193.45640490000005,,None,None,[],,,,,,,,,,,,,sub_818,2024-12-08_11h58.41.535,Reversal,2023.2.1,59.958364911532364,2,2024-12-08 11h58.53.827061 +0200,
0,exp1.png,exp2.png,,1,0,1,0,0,0,0,0,,,,,,,,,,,,,,,,,,,,,,,,,193.73007440000038,,,,,,,,,,,,193.46941779999997,193.47052430000076,193.4705554000002,True,193.5543669000008,193.55438260000028,193.56837480000013,193.56839060000038,193.58719199999996,,,,,,,,,,,,,,,,,,,,,,,,,,,,,,,,,,,,,,,,sub_818,2024-12-08_11h58.41.535,Reversal,2023.2.1,59.958364911532364,2,2024-12-08 11h58.53.827061 +0200,
1,exp3.png,exp4.png,,1,0,1,0,0,1,1,1,,,,,,,,,,,,,,,,,,,,,,,,,193.73007440000038,,,,,,,,,,,,193.5874405000004,193.5877145000004,193.58772650000083,False,196.23265830000037,196.23313660000076,196.84673350000048,196.84677550000015,198.64489960000083,20,21,True,exp4.png,exp3.png,trial_right_image,-1,exp3.png,2,exp3.png,exp4.png,1,3,reversed,correct,0.24137866785699524,0,invalid_lose,142.31366849999995,14,,,,,,,,,,,,,,,,,,,,sub_818,2024-12-08_11h58.41.535,Reversal,2023.2.1,59.958364911532364,2,2024-12-08 11h58.53.827061 +0200,
2,exp1.png,exp2.png,,1,0,1,0,0,2,2,2,,,,,,,,,,,,,,,,,,,,,,,,,198.80418940000072,,,,,,,,,,,,198.64574800000082,198.64686820000043,198.64691760000005,False,200.51492640000015,200.51544640000066,201.12988210000003,201.1299280000003,202.92784010000014,21,22,True,exp2.png,exp1.png,trial_right_image,-1,exp1.png,2,exp1.png,exp2.png,1,1,non-reversed,correct,0.8366514426385834,1,valid_win,146.5959757999999,15,,,,,,,,,,,,,,,,,,,,sub_818,2024-12-08_11h58.41.535,Reversal,2023.2.1,59.958364911532364,2,2024-12-08 11h58.53.827061 +0200,
3,exp3.png,exp4.png,,1,0,1,0,0,3,3,3,,,,,,,,,,,,,,,,,,,,,,,,,203.0759908,,,,,,,,,,,,202.9287077000008,202.92968689999998,202.92973530000017,False,205.16388600000028,205.16441790000044,205.77863210000032,205.77865720000045,207.57656920000045,22,23,False,exp3.png,exp4.png,trial_left_image,1,exp3.png,2,exp3.png,exp4.png,1,3,reversed,correct,0.5032760453574149,1,valid_win,151.24494779999986,16,,,,,,,,,,,,,,,,,,,,sub_818,2024-12-08_11h58.41.535,Reversal,2023.2.1,59.958364911532364,2,2024-12-08 11h58.53.827061 +0200,
4,exp1.png,exp2.png,,1,0,1,0,0,4,4,4,,,,,,,,,,,,,,,,,,,,,,,,,207.7225298000003,,,,,,,,,,,,207.57712100000026,207.5777506000004,207.5777796000002,False,209.33085970000047,209.3315665,209.94547630000034,209.94551850000062,211.74331220000022,23,24,True,exp2.png,exp1.png,trial_right_image,-1,exp1.png,2,exp1.png,exp2.png,1,1,non-reversed,correct,0.6671156231715857,1,valid_win,155.4120841999993,17,,,,,,,,,,,,,,,,,,,,sub_818,2024-12-08_11h58.41.535,Reversal,2023.2.1,59.958364911532364,2,2024-12-08 11h58.53.827061 +0200,
5,exp3.png,exp4.png,,1,0,1,0,0,5,5,5,,,,,,,,,,,,,,,,,,,,,,,,,211.88598700000057,,,,,,,,,,,,211.74417070000072,211.7453699000007,211.74542140000085,False,213.66452330000084,213.6652636000008,214.27807570000004,214.2781199000001,216.0754747000001,24,25,False,exp3.png,exp4.png,trial_left_image,1,exp3.png,2,exp3.png,exp4.png,1,3,reversed,correct,0.005598531985048005,0,invalid_lose,159.74578309999924,17,,,,,,,,,,,,,,,,,,,,sub_818,2024-12-08_11h58.41.535,Reversal,2023.2.1,59.958364911532364,2,2024-12-08 11h58.53.827061 +0200,
6,exp1.png,exp2.png,,1,0,1,0,0,6,6,6,,,,,,,,,,,,,,,,,,,,,,,,,216.22639580000032,,,,,,,,,,,,216.07599850000042,216.07672000000002,216.07674980000047,False,218.1454029000006,218.1458592000008,218.7607024000008,218.76072790000035,220.55874870000025,25,26,False,exp1.png,exp2.png,trial_left_image,1,exp1.png,2,exp1.png,exp2.png,1,1,non-reversed,correct,0.0613413354695973,0,invalid_lose,164.22639339999932,17,,,,,,,,,,,,,,,,,,,,sub_818,2024-12-08_11h58.41.535,Reversal,2023.2.1,59.958364911532364,2,2024-12-08 11h58.53.827061 +0200,
7,exp3.png,exp4.png,,1,0,1,0,0,7,7,7,,,,,,,,,,,,,,,,,,,,,,,,,220.70128680000016,,,,,,,,,,,,220.5597187000003,220.56089560000055,220.56095189999996,False,222.34634110000025,222.3469025000004,222.9600915000001,222.96013830000084,224.75812440000027,26,27,True,exp4.png,exp3.png,trial_right_image,-1,exp3.png,2,exp3.png,exp4.png,1,3,reversed,correct,0.04970943513179893,0,invalid_lose,168.42742699999962,17,,,,,,,,,,,,,,,,,,,,sub_818,2024-12-08_11h58.41.535,Reversal,2023.2.1,59.958364911532364,2,2024-12-08 11h58.53.827061 +0200,
8,exp1.png,exp2.png,,1,0,1,0,0,8,8,8,,,,,,,,,,,,,,,,,,,,,,,,,224.90603940000074,,,,,,,,,,,,224.7591041000005,224.76017000000047,224.76022550000016,False,226.67760630000066,226.67802840000058,227.29312760000084,227.29317400000036,229.0912726000006,27,28,False,exp1.png,exp2.png,trial_left_image,1,exp1.png,2,exp1.png,exp2.png,1,1,non-reversed,correct,0.33126848923325714,1,valid_win,172.75856579999981,18,,,,,,,,,,,,,,,,,,,,sub_818,2024-12-08_11h58.41.535,Reversal,2023.2.1,59.958364911532364,2,2024-12-08 11h58.53.827061 +0200,
9,exp3.png,exp4.png,,1,0,1,0,0,9,9,9,,,,,,,,,,,,,,,,,,,,,,,,,229.26501120000012,,,,,,,,,,,,229.09227800000008,229.0935481000006,229.09360280000055,False,231.44432760000018,231.44485330000043,232.0591527000006,232.05919390000054,233.8569262000001,28,29,False,exp3.png,exp4.png,trial_left_image,1,exp3.png,2,exp3.png,exp4.png,1,3,reversed,correct,0.012373888050408954,0,invalid_lose,177.52538249999998,18,,,,,,,,,,,,,,,,,,,,sub_818,2024-12-08_11h58.41.535,Reversal,2023.2.1,59.958364911532364,2,2024-12-08 11h58.53.827061 +0200,
10,exp1.png,exp2.png,,1,0,1,0,0,10,10,10,,,,,,,,,,,,,,,,,,,,,,,,,234.00125370000023,,,,,,,,,,,,233.85790440000073,233.85914910000065,233.8592432000005,False,235.67777540000043,235.67833690000043,236.29182820000005,236.29186890000074,238.09018710000055,29,30,False,exp1.png,exp2.png,trial_left_image,1,exp1.png,2,exp1.png,exp2.png,1,1,non-reversed,correct,0.00048456361144388893,0,invalid_lose,181.75886639999953,18,,,,,,,,,,,,,,,,,,,,sub_818,2024-12-08_11h58.41.535,Reversal,2023.2.1,59.958364911532364,2,2024-12-08 11h58.53.827061 +0200,
11,exp3.png,exp4.png,,1,0,1,0,0,11,11,11,,,,,,,,,,,,,,,,,,,,,,,,,238.24627200000032,,,,,,,,,,,,238.09125180000046,238.09238220000043,238.0924382000003,False,240.1106935000007,240.1113150000001,240.7244892000008,240.72453160000077,242.5224201000001,30,31,False,exp3.png,exp4.png,trial_right_image,-1,exp4.png,2,exp3.png,exp4.png,0,4,reversed,incorrect,0.2825810361133618,0,valid_lose,186.1918425999993,18,,,,,,,,,,,,,,,,,,,,sub_818,2024-12-08_11h58.41.535,Reversal,2023.2.1,59.958364911532364,2,2024-12-08 11h58.53.827061 +0200,
12,exp1.png,exp2.png,,1,0,1,0,0,12,12,12,,,,,,,,,,,,,,,,,,,,,,,,,242.68215150000015,,,,,,,,,,,,242.52332380000007,242.5243220000002,242.52437090000058,False,244.4775651,244.47827010000037,245.09058170000026,245.09062040000026,246.88868510000066,31,32,True,exp2.png,exp1.png,trial_left_image,1,exp2.png,2,exp1.png,exp2.png,0,2,non-reversed,incorrect,0.5592135008588907,0,valid_lose,190.55878949999988,18,,,,,,,,,,,,,,,,,,,,sub_818,2024-12-08_11h58.41.535,Reversal,2023.2.1,59.958364911532364,2,2024-12-08 11h58.53.827061 +0200,
13,exp3.png,exp4.png,,1,0,1,0,0,13,13,13,,,,,,,,,,,,,,,,,,,,,,,,,247.07159290000072,,,,,,,,,,,,246.89013140000043,246.89143010000043,246.89148530000057,False,248.67492890000085,248.67547670000022,249.29025910000018,249.29032820000066,251.08777610000016,32,33,False,exp3.png,exp4.png,trial_left_image,1,exp3.png,2,exp3.png,exp4.png,1,3,reversed,correct,0.8060458581132769,1,valid_win,194.7560053999996,19,,,,,,,,,,,,,,,,,,,,sub_818,2024-12-08_11h58.41.535,Reversal,2023.2.1,59.958364911532364,2,2024-12-08 11h58.53.827061 +0200,
14,exp1.png,exp2.png,,1,0,1,0,0,14,14,14,,,,,,,,,,,,,,,,,,,,,,,,,251.23371260000022,,,,,,,,,,,,251.08856379999997,251.08956050000052,251.08960360000037,False,252.87588219999998,252.87660649999998,253.4894557000007,253.48948700000074,255.28745680000065,33,34,False,exp1.png,exp2.png,trial_left_image,1,exp1.png,2,exp1.png,exp2.png,1,1,non-reversed,correct,0.39719145474957607,1,valid_win,198.9571253999993,20,,,,,,,,,,,,,,,,,,,,sub_818,2024-12-08_11h58.41.535,Reversal,2023.2.1,59.958364911532364,2,2024-12-08 11h58.53.827061 +0200,
15,exp3.png,exp4.png,,1,0,1,0,0,15,15,15,,,,,,,,,,,,,,,,,,,,,,,,,255.4523577,,,,,,,,,,,,255.2883395000008,255.28935440000078,255.28940290000082,False,257.0241622000003,257.0246579000004,257.6395459000005,257.6395867000001,259.4372577000004,34,35,True,exp4.png,exp3.png,trial_right_image,-1,exp3.png,2,exp3.png,exp4.png,1,3,reversed,correct,0.6880461983052607,1,valid_win,203.10519309999927,21,,,,,,,,,,,,,,,,,,,,sub_818,2024-12-08_11h58.41.535,Reversal,2023.2.1,59.958364911532364,2,2024-12-08 11h58.53.827061 +0200,
16,exp1.png,exp2.png,,1,0,1,0,0,16,16,16,,,,,,,,,,,,,,,,,,,,,,,,,259.59826950000024,,,,,,,,,,,,259.4382587,259.4393920000002,259.43944790000023,False,261.1910176000001,261.1915576000001,261.80545040000015,261.80549580000024,263.6035279000007,35,36,True,exp2.png,exp1.png,trial_right_image,-1,exp1.png,2,exp1.png,exp2.png,1,1,non-reversed,correct,0.14554260009659847,0,invalid_lose,207.27207569999973,21,,,,,,,,,,,,,,,,,,,,sub_818,2024-12-08_11h58.41.535,Reversal,2023.2.1,59.958364911532364,2,2024-12-08 11h58.53.827061 +0200,
17,exp3.png,exp4.png,,1,0,1,0,0,17,17,17,,,,,,,,,,,,,,,,,,,,,,,,,263.75327670000024,,,,,,,,,,,,263.60454890000074,263.60568130000047,263.6057369,False,265.47324520000075,265.47379,266.08786260000034,266.08788770000046,267.8859009000007,36,37,False,exp3.png,exp4.png,trial_left_image,1,exp3.png,2,exp3.png,exp4.png,1,3,reversed,correct,0.4544736717143997,1,valid_win,211.55431919999955,22,,,,,,,,,,,,,,,,,,,,sub_818,2024-12-08_11h58.41.535,Reversal,2023.2.1,59.958364911532364,2,2024-12-08 11h58.53.827061 +0200,
18,exp1.png,exp2.png,,1,0,1,0,0,18,18,18,,,,,,,,,,,,,,,,,,,,,,,,,268.0432567000007,,,,,,,,,,,,267.88677180000013,267.8877826000007,267.88783030000013,False,269.5234315000007,269.5242255000003,270.13734170000043,270.13736700000027,271.93544080000083,37,38,True,exp2.png,exp1.png,trial_right_image,-1,exp1.png,2,exp1.png,exp2.png,1,1,non-reversed,correct,0.24042074779843725,0,invalid_lose,215.60474319999958,22,,,,,,,,,,,,,,,,,,,,sub_818,2024-12-08_11h58.41.535,Reversal,2023.2.1,59.958364911532364,2,2024-12-08 11h58.53.827061 +0200,
19,exp3.png,exp4.png,,1,0,1,0,0,19,19,19,,,,,,,,,,,,,,,,,,,,,,,,,272.0758201000008,,,,,,,,,,,,271.9364149000003,271.9375720000007,271.9376282000003,False,273.5215723000001,273.52194959999997,274.1366424000007,274.1366680000001,275.9347107000003,38,39,True,exp4.png,exp3.png,trial_right_image,-1,exp3.png,2,exp3.png,exp4.png,1,3,reversed,correct,0.6569486309742208,1,valid_win,219.60248649999994,23,,,,,,,,,,,,,,,,,,,,sub_818,2024-12-08_11h58.41.535,Reversal,2023.2.1,59.958364911532364,2,2024-12-08 11h58.53.827061 +0200,
20,exp1.png,exp2.png,,1,0,1,0,0,20,20,20,,,,,,,,,,,,,,,,,,,,,,,,,276.07665500000076,,,,,,,,,,,,275.9355877000007,275.9365735000001,275.93664609999996,False,277.87104550000004,277.87147730000015,278.4867068000003,278.48675360000016,280.2846259000007,39,40,True,exp2.png,exp1.png,trial_right_image,-1,exp1.png,2,exp1.png,exp2.png,1,1,non-reversed,correct,0.628049472388598,1,valid_win,223.95201259999976,24,,,,,,,,,,,,,,,,,,,,sub_818,2024-12-08_11h58.41.535,Reversal,2023.2.1,59.958364911532364,2,2024-12-08 11h58.53.827061 +0200,
,,,exp1.png,1,0,1,0,,,,,0,0,0,0,0,0,0,0,,,,,,,,,,,,,,,,,280.3878658000003,,,,,,,,,,,,,,,,,,,,,,,,,,,,,,,,,,,,,,,,,280.31392850000066,280.3878658000003,284.4882935000005,50.0,50.0,3.076270200000181,"[(50.0, 0.029891700000007404), (50.0, 3.076270200000181)]",,,,,,,,,,,,,sub_818,2024-12-08_11h58.41.535,Reversal,2023.2.1,59.958364911532364,2,2024-12-08 11h58.53.827061 +0200,
,,,exp2.png,1,0,1,0,,,,,0,0,0,0,0,1,1,1,,,,,,,,,,,,,,,,,284.55973130000075,,,,,,,,,,,,,,,,,,,,,,,,,,,,,,,,,,,,,,,,,284.48900649999996,284.55973130000075,284.9737588000007,,None,None,[],,,,,,,,,,,,,sub_818,2024-12-08_11h58.41.535,Reversal,2023.2.1,59.958364911532364,2,2024-12-08 11h58.53.827061 +0200,
,,,exp3.png,1,0,1,0,,,,,0,0,0,0,0,2,2,2,,,,,,,,,,,,,,,,,285.0458142000007,,,,,,,,,,,,,,,,,,,,,,,,,,,,,,,,,,,,,,,,,284.97445250000055,285.0458142000007,288.2409503000008,,48.0,2.0844939999997223,"[(48.0, 2.0844939999997223)]",,48.0,,,,,,,,,,,sub_818,2024-12-08_11h58.41.535,Reversal,2023.2.1,59.958364911532364,2,2024-12-08 11h58.53.827061 +0200,
,,,exp4.png,1,0,1,0,,,,,0,0,0,0,0,3,3,3,,,,,,,,,,,,,,,,,288.3101609000005,,,,,,,,,,,,,,,,,,,,,,,,,,,,,,,,,,,,,,,,,288.2418453,288.3101609000005,290.2057581000008,,None,None,[],,,,,,,,,,,,,sub_818,2024-12-08_11h58.41.535,Reversal,2023.2.1,59.958364911532364,2,2024-12-08 11h58.53.827061 +0200,
0,exp1.png,exp2.png,,2,0,2,0,0,0,0,0,,,,,,,,,,,,,,,,,,,,,,,,,290.4608291000004,,,,,,,,,,,,290.21768520000023,290.2185993000003,290.2186186000008,True,290.29323470000054,290.2932501000005,290.3076980000005,290.30771520000053,290.3258472000007,,,,,,,,,,,,,,,,,,,,,,,,,,,,,,,,,,,,,,,,sub_818,2024-12-08_11h58.41.535,Reversal,2023.2.1,59.958364911532364,2,2024-12-08 11h58.53.827061 +0200,
1,exp3.png,exp4.png,,2,0,2,0,0,1,1,1,,,,,,,,,,,,,,,,,,,,,,,,,290.4608291000004,,,,,,,,,,,,290.326094,290.32639330000075,290.3264054000001,False,292.2703173,292.27102940000077,292.88450340000054,292.88455050000084,294.6820535000006,40,41,False,exp3.png,exp4.png,trial_left_image,1,exp3.png,2,exp3.png,exp4.png,1,3,reversed,correct,0.18153367619703265,0,invalid_lose,238.35154859999966,24,,,,,,,,,,,,,,,,,,,,sub_818,2024-12-08_11h58.41.535,Reversal,2023.2.1,59.958364911532364,2,2024-12-08 11h58.53.827061 +0200,
2,exp1.png,exp2.png,,2,0,2,0,0,2,2,2,,,,,,,,,,,,,,,,,,,,,,,,,294.82635130000017,,,,,,,,,,,,294.6826621,294.68342960000064,294.68346570000085,False,296.51903240000047,296.51956300000074,297.1340450000007,297.13408849999996,298.93181150000055,41,42,False,exp1.png,exp2.png,trial_left_image,1,exp1.png,2,exp1.png,exp2.png,1,1,non-reversed,correct,0.30198577032378837,1,valid_win,242.60009229999923,25,,,,,,,,,,,,,,,,,,,,sub_818,2024-12-08_11h58.41.535,Reversal,2023.2.1,59.958364911532364,2,2024-12-08 11h58.53.827061 +0200,
3,exp3.png,exp4.png,,2,0,2,0,0,3,3,3,,,,,,,,,,,,,,,,,,,,,,,,,299.0798878000005,,,,,,,,,,,,298.9326662000003,298.9336381000003,298.9336856,False,300.76857220000056,300.76907890000075,301.3842831000002,301.3843123000006,303.18083520000073,42,43,True,exp4.png,exp3.png,trial_right_image,-1,exp3.png,2,exp3.png,exp4.png,1,3,reversed,correct,0.4396479132392872,1,valid_win,246.8495929999999,26,,,,,,,,,,,,,,,,,,,,sub_818,2024-12-08_11h58.41.535,Reversal,2023.2.1,59.958364911532364,2,2024-12-08 11h58.53.827061 +0200,
4,exp1.png,exp2.png,,2,0,2,0,0,4,4,4,,,,,,,,,,,,,,,,,,,,,,,,,303.32099689999995,,,,,,,,,,,,303.18135410000014,303.1819813000002,303.1820097,False,305.2182969000005,305.2187216000002,305.8333766000005,305.8334186000002,307.6309424000001,43,44,True,exp2.png,exp1.png,trial_right_image,-1,exp1.png,2,exp1.png,exp2.png,1,1,non-reversed,correct,0.4108319470638112,1,valid_win,251.29925569999978,27,,,,,,,,,,,,,,,,,,,,sub_818,2024-12-08_11h58.41.535,Reversal,2023.2.1,59.958364911532364,2,2024-12-08 11h58.53.827061 +0200,
5,exp3.png,exp4.png,,2,0,2,0,0,5,5,5,,,,,,,,,,,,,,,,,,,,,,,,,307.7801692000003,,,,,,,,,,,,307.6319962000007,307.6331792000001,307.6332344000002,False,309.65151010000045,309.65224620000026,310.2670665000005,310.26711539999997,312.063435,44,45,True,exp4.png,exp3.png,trial_right_image,-1,exp3.png,2,exp3.png,exp4.png,1,3,reversed,correct,0.10693785018332791,0,invalid_lose,255.7327654999999,27,,,,,,,,,,,,,,,,,,,,sub_818,2024-12-08_11h58.41.535,Reversal,2023.2.1,59.958364911532364,2,2024-12-08 11h58.53.827061 +0200,
6,exp1.png,exp2.png,,2,0,2,0,0,6,6,6,,,,,,,,,,,,,,,,,,,,,,,,,312.20821950000027,,,,,,,,,,,,312.0643305000003,312.06555730000036,312.0656082000005,False,313.5676964000004,313.5683377000005,314.1816826000004,314.1817269000003,315.97982930000035,45,46,True,exp2.png,exp1.png,trial_right_image,-1,exp1.png,2,exp1.png,exp2.png,1,1,non-reversed,correct,0.20319916535793958,0,invalid_lose,259.6488608999998,27,,,,,,,,,,,,,,,,,,,,sub_818,2024-12-08_11h58.41.535,Reversal,2023.2.1,59.958364911532364,2,2024-12-08 11h58.53.827061 +0200,
7,exp3.png,exp4.png,,2,0,2,0,0,7,7,7,,,,,,,,,,,,,,,,,,,,,,,,,316.1366009000003,,,,,,,,,,,,315.98081060000004,315.9821028000006,315.98215849999997,False,318.26621539999996,318.26664400000027,318.88207350000084,318.88211780000074,320.6794314000008,46,47,False,exp3.png,exp4.png,trial_left_image,1,exp3.png,2,exp3.png,exp4.png,1,3,reversed,correct,0.11383844802382681,0,invalid_lose,264.3471794999996,27,,,,,,,,,,,,,,,,,,,,sub_818,2024-12-08_11h58.41.535,Reversal,2023.2.1,59.958364911532364,2,2024-12-08 11h58.53.827061 +0200,
8,exp1.png,exp2.png,,2,0,2,0,0,8,8,8,,,,,,,,,,,,,,,,,,,,,,,,,320.8359506000006,,,,,,,,,,,,320.6803428000003,320.6814077000008,320.68145710000044,False,322.1006393000007,322.1015939000008,322.71394469999996,322.71399100000053,324.5117362000001,47,48,True,exp2.png,exp1.png,trial_right_image,-1,exp1.png,2,exp1.png,exp2.png,1,1,non-reversed,correct,0.9760182671685049,1,valid_win,268.18210739999995,28,,,,,,,,,,,,,,,,,,,,sub_818,2024-12-08_11h58.41.535,Reversal,2023.2.1,59.958364911532364,2,2024-12-08 11h58.53.827061 +0200,
9,exp3.png,exp4.png,,2,0,2,0,0,9,9,9,,,,,,,,,,,,,,,,,,,,,,,,,324.6517244000006,,,,,,,,,,,,324.5126340000006,324.5136999000006,324.51377540000067,False,326.8484281000001,326.84907920000023,327.46305610000036,327.46307700000034,329.2617889000003,48,49,False,exp3.png,exp4.png,trial_right_image,-1,exp4.png,2,exp3.png,exp4.png,0,4,reversed,incorrect,0.3983867943851993,0,valid_lose,272.9296016999997,28,,,,,,,,,,,,,,,,,,,,sub_818,2024-12-08_11h58.41.535,Reversal,2023.2.1,59.958364911532364,2,2024-12-08 11h58.53.827061 +0200,
10,exp1.png,exp2.png,,2,0,2,0,0,10,10,10,,,,,,,,,,,,,,,,,,,,,,,,,329.40994730000057,,,,,,,,,,,,329.26285129999997,329.2640179,329.2640728000006,False,330.9816539000003,330.98234310000043,331.5960675000006,331.5961145000001,333.3940177000004,49,50,False,exp1.png,exp2.png,trial_right_image,-1,exp2.png,2,exp1.png,exp2.png,0,2,non-reversed,incorrect,0.16351709352874866,1,invalid_win,277.06285429999934,29,,,,,,,,,,,,,,,,,,,,sub_818,2024-12-08_11h58.41.535,Reversal,2023.2.1,59.958364911532364,2,2024-12-08 11h58.53.827061 +0200,
11,exp3.png,exp4.png,,2,0,2,0,0,11,11,11,,,,,,,,,,,,,,,,,,,,,,,,,333.53671310000027,,,,,,,,,,,,333.3950044000003,333.39610900000025,333.39616410000053,False,335.0140710000005,335.0144998000005,335.6290089000004,335.6290490000001,337.42703130000064,50,51,True,exp4.png,exp3.png,trial_left_image,1,exp4.png,2,exp3.png,exp4.png,0,4,reversed,incorrect,0.2636493562869925,0,valid_lose,281.0950213999995,29,,,,,,,,,,,,,,,,,,,,sub_818,2024-12-08_11h58.41.535,Reversal,2023.2.1,59.958364911532364,2,2024-12-08 11h58.53.827061 +0200,
12,exp1.png,exp2.png,,2,0,2,0,0,12,12,12,,,,,,,,,,,,,,,,,,,,,,,,,337.5686762000005,,,,,,,,,,,,337.4280209000008,337.42916500000047,337.42921939999997,False,339.26371500000005,339.2641142000002,339.87833050000063,339.8783693000005,341.67616870000074,51,52,True,exp2.png,exp1.png,trial_right_image,-1,exp1.png,2,exp1.png,exp2.png,1,1,non-reversed,correct,0.027346445996057844,0,invalid_lose,285.3446543,29,,,,,,,,,,,,,,,,,,,,sub_818,2024-12-08_11h58.41.535,Reversal,2023.2.1,59.958364911532364,2,2024-12-08 11h58.53.827061 +0200,
13,exp3.png,exp4.png,,2,0,2,0,0,13,13,13,,,,,,,,,,,,,,,,,,,,,,,,,341.83661890000076,,,,,,,,,,,,341.6770426000003,341.6780709000004,341.6781202000002,False,344.64782490000016,344.64874640000016,345.2611336,345.2611762000006,347.0592708000004,52,53,False,exp3.png,exp4.png,trial_left_image,1,exp3.png,2,exp3.png,exp4.png,1,3,reversed,correct,0.6815954907606862,1,valid_win,290.72925469999973,30,,,,,,,,,,,,,,,,,,,,sub_818,2024-12-08_11h58.41.535,Reversal,2023.2.1,59.958364911532364,2,2024-12-08 11h58.53.827061 +0200,
14,exp1.png,exp2.png,,2,0,2,0,0,14,14,14,,,,,,,,,,,,,,,,,,,,,,,,,347.2118956000004,,,,,,,,,,,,347.0602959000007,347.0615624000002,347.0616204000007,False,348.47917850000067,348.4796812000004,349.0938603000004,349.09388520000084,350.8918297,53,54,False,exp1.png,exp2.png,trial_left_image,1,exp1.png,2,exp1.png,exp2.png,1,1,non-reversed,correct,0.5457427074733225,1,valid_win,294.56021299999975,31,,,,,,,,,,,,,,,,,,,,sub_818,2024-12-08_11h58.41.535,Reversal,2023.2.1,59.958364911532364,2,2024-12-08 11h58.53.827061 +0200,
15,exp3.png,exp4.png,,2,0,2,0,0,15,15,15,,,,,,,,,,,,,,,,,,,,,,,,,351.0642374000008,,,,,,,,,,,,350.89283950000026,350.89394960000027,350.89400430000023,False,353.34596990000045,353.3466662000001,353.95977029999995,353.95981050000046,355.75796290000017,54,55,False,exp3.png,exp4.png,trial_left_image,1,exp3.png,2,exp3.png,exp4.png,1,3,reversed,correct,0.743993989794999,1,valid_win,299.4271853,32,,,,,,,,,,,,,,,,,,,,sub_818,2024-12-08_11h58.41.535,Reversal,2023.2.1,59.958364911532364,2,2024-12-08 11h58.53.827061 +0200,
16,exp1.png,exp2.png,,2,0,2,0,0,16,16,16,,,,,,,,,,,,,,,,,,,,,,,,,355.9060810000001,,,,,,,,,,,,355.7589874000005,355.7601344000004,355.76019050000014,False,357.66098950000014,357.6614681000001,358.27663440000015,358.2766781,360.0741014000005,55,56,False,exp1.png,exp2.png,trial_left_image,1,exp1.png,2,exp1.png,exp2.png,1,1,non-reversed,correct,0.6193555953634271,1,valid_win,303.7419997999996,33,,,,,,,,,,,,,,,,,,,,sub_818,2024-12-08_11h58.41.535,Reversal,2023.2.1,59.958364911532364,2,2024-12-08 11h58.53.827061 +0200,
17,exp3.png,exp4.png,,2,0,2,0,0,17,17,17,,,,,,,,,,,,,,,,,,,,,,,,,360.22627100000045,,,,,,,,,,,,360.0749587,360.0759775000006,360.07602660000066,False,361.5600050000003,361.5602948000005,362.17541810000057,362.17545900000005,363.9735887000006,56,57,False,exp3.png,exp4.png,trial_left_image,1,exp3.png,2,exp3.png,exp4.png,1,3,reversed,correct,0.7217340458707048,1,valid_win,307.64083589999973,34,,,,,,,,,,,,,,,,,,,,sub_818,2024-12-08_11h58.41.535,Reversal,2023.2.1,59.958364911532364,2,2024-12-08 11h58.53.827061 +0200,
18,exp1.png,exp2.png,,2,0,2,0,0,18,18,18,,,,,,,,,,,,,,,,,,,,,,,,,364.11297710000053,,,,,,,,,,,,363.9745608000003,363.97570630000064,363.97576019999997,False,365.7288242000004,365.7296511000004,366.34160599999996,366.34163660000013,368.13955890000034,57,58,True,exp2.png,exp1.png,trial_right_image,-1,exp1.png,2,exp1.png,exp2.png,1,1,non-reversed,correct,0.21327584695127855,0,invalid_lose,311.81016649999947,34,,,,,,,,,,,,,,,,,,,,sub_818,2024-12-08_11h58.41.535,Reversal,2023.2.1,59.958364911532364,2,2024-12-08 11h58.53.827061 +0200,
19,exp3.png,exp4.png,,2,0,2,0,0,19,19,19,,,,,,,,,,,,,,,,,,,,,,,,,368.3070851000002,,,,,,,,,,,,368.1404332000002,368.1414199000001,368.1414897000004,False,369.85978420000083,369.86037660000056,370.4745967000008,370.47463640000024,372.2725280000004,58,59,True,exp4.png,exp3.png,trial_right_image,-1,exp3.png,2,exp3.png,exp4.png,1,3,reversed,correct,0.37124477761356833,1,valid_win,315.9409044999993,35,,,,,,,,,,,,,,,,,,,,sub_818,2024-12-08_11h58.41.535,Reversal,2023.2.1,59.958364911532364,2,2024-12-08 11h58.53.827061 +0200,
20,exp1.png,exp2.png,,2,0,2,0,0,20,20,20,,,,,,,,,,,,,,,,,,,,,,,,,372.4158430000007,,,,,,,,,,,,372.27349700000013,372.27460599999995,372.27466000000004,False,374.8766052000001,374.87724049999997,375.4909559000007,375.49100350000026,377.28848760000074,59,60,True,exp2.png,exp1.png,trial_right_image,-1,exp1.png,2,exp1.png,exp2.png,1,1,non-reversed,correct,0.4903517414664118,1,valid_win,320.95776359999945,36,,,,,,,,,,,,,,,,,,,,sub_818,2024-12-08_11h58.41.535,Reversal,2023.2.1,59.958364911532364,2,2024-12-08 11h58.53.827061 +0200,
,,,exp1.png,2,0,2,0,,,,,0,0,0,0,0,0,0,0,,,,,,,,,,,,,,,,,377.39139820000037,,,,,,,,,,,,,,,,,,,,,,,,,,,,,,,,,,,,,,,,,377.31719410000005,377.39139820000037,382.61204799999996,55.0,55.0,3.8423430000002554,"[(55.0, 3.8423430000002554)]",,,,,,,,,,,,,sub_818,2024-12-08_11h58.41.535,Reversal,2023.2.1,59.958364911532364,2,2024-12-08 11h58.53.827061 +0200,
,,,exp2.png,2,0,2,0,,,,,0,0,0,0,0,1,1,1,,,,,,,,,,,,,,,,,382.6851669000007,,,,,,,,,,,,,,,,,,,,,,,,,,,,,,,,,,,,,,,,,382.6132277000006,382.6851669000007,385.85860740000044,,42.0,2.3936496999995143,"[(42.0, 2.3936496999995143)]",42.0,,,,,,,,,,,,sub_818,2024-12-08_11h58.41.535,Reversal,2023.2.1,59.958364911532364,2,2024-12-08 11h58.53.827061 +0200,
,,,exp3.png,2,0,2,0,,,,,0,0,0,0,0,2,2,2,,,,,,,,,,,,,,,,,385.92312740000034,,,,,,,,,,,,,,,,,,,,,,,,,,,,,,,,,,,,,,,,,385.8591483,385.92312740000034,392.1175722000007,,60.0,3.0052787000004173,"[(60.0, 3.0052787000004173)]",,60.0,,,,,,,,,,,sub_818,2024-12-08_11h58.41.535,Reversal,2023.2.1,59.958364911532364,2,2024-12-08 11h58.53.827061 +0200,
,,,exp4.png,2,0,2,0,,,,,0,0,0,0,0,3,3,3,,,,,,,,,,,,,,,,,392.19862530000046,,,,,,,,,,,,,,,,,,,,,,,,,,,,,,,,,,,,,,,,,392.1185228000004,392.19862530000046,396.09355760000017,,44.0,3.0654620000004797,"[(61.0, 0.8414363000001686), (44.0, 3.0654620000004797)]",,,44.0,,,,,,,,,,sub_818,2024-12-08_11h58.41.535,Reversal,2023.2.1,59.958364911532364,2,2024-12-08 11h58.53.827061 +0200,
0,exp1.png,exp2.png,,,,,,,,,,,,,,,,,,0,0,0,0,0,0,0,0,,,,,,,,,396.3679280000006,,,,,,,,,,,,,,396.1103561,True,396.18510590000005,396.18512720000035,396.1993669000003,396.1994029000007,396.21774490000007,,,,,,,,,,,,,,,,,,,,,,,,,,,,,,,396.10929620000024,396.1103307000003,,,,,,,,sub_818,2024-12-08_11h58.41.535,Reversal,2023.2.1,59.958364911532364,2,2024-12-08 11h58.53.827061 +0200,
1,exp3.png,exp4.png,,,,,,,,,,,,,,,,,,0,0,0,0,0,1,1,1,,,,,,,,,396.3679280000006,,,,,,,,,,,,,,396.2182586000008,False,398.25645820000045,398.2569960000001,398.87081620000026,398.8708419000004,400.66866410000057,0,61,False,exp3.png,exp4.png,trial_left_image,1,exp3.png,2,exp4.png,exp3.png,1,3,reversed,incorrect,0.20682243010014634,1,invalid_win,344.3375155999993,37,,,,,,,,,,,396.21798220000073,396.2182459000005,342.37065559999974,,,,,,,sub_818,2024-12-08_11h58.41.535,Reversal,2023.2.1,59.958364911532364,2,2024-12-08 11h58.53.827061 +0200,
2,exp1.png,exp2.png,,,,,,,,,,,,,,,,,,0,0,0,0,0,2,2,2,,,,,,,,,400.81833200000074,,,,,,,,,,,,,,400.6706008000001,False,402.4400819000002,402.44118440000057,403.0540591000008,403.05410740000025,404.85116350000044,1,62,False,exp1.png,exp2.png,trial_left_image,1,exp1.png,2,exp1.png,exp2.png,1,1,non-reversed,correct,0.33171976589349983,1,valid_win,348.5216757999997,38,,,,,,,,,,,400.66955700000017,400.6705501000006,,,,,,,,sub_818,2024-12-08_11h58.41.535,Reversal,2023.2.1,59.958364911532364,2,2024-12-08 11h58.53.827061 +0200,
3,exp3.png,exp4.png,,,,,,,,,,,,,,,,,,0,0,0,0,0,3,3,3,,,,,,,,,404.9841531000002,,,,,,,,,,,,,,404.85198630000014,False,406.6717073,406.67222650000076,407.28659660000085,407.2866345000002,409.0838809000006,2,63,True,exp4.png,exp3.png,trial_right_image,-1,exp3.png,2,exp4.png,exp3.png,1,3,reversed,incorrect,0.004694506162460477,1,invalid_win,352.75275559999955,39,,,,,,,,,,,404.85152910000033,404.85196650000034,,,,,,,,sub_818,2024-12-08_11h58.41.535,Reversal,2023.2.1,59.958364911532364,2,2024-12-08 11h58.53.827061 +0200,
4,exp1.png,exp2.png,,,,,,,,,,,,,,,,,,0,0,0,0,0,4,4,4,,,,,,,,,409.2306511000006,,,,,,,,,,,,,,409.0851177000004,False,410.8883487000003,410.8888676000006,411.5028359000007,411.50287580000077,413.29981060000046,3,64,True,exp2.png,exp1.png,trial_right_image,-1,exp1.png,2,exp1.png,exp2.png,1,1,non-reversed,correct,0.01962502217300144,0,invalid_lose,356.9693972999994,39,,,,,,,,,,,409.0844517000005,409.0850667000004,,,,,,,,sub_818,2024-12-08_11h58.41.535,Reversal,2023.2.1,59.958364911532364,2,2024-12-08 11h58.53.827061 +0200,
5,exp3.png,exp4.png,,,,,,,,,,,,,,,,,,0,0,0,0,0,5,5,5,,,,,,,,,413.4411647000006,,,,,,,,,,,,,,413.3010013000003,False,414.88817630000085,414.8888850000003,415.50151540000024,415.50153950000004,417.3002116000007,4,65,False,exp3.png,exp4.png,trial_left_image,1,exp3.png,2,exp4.png,exp3.png,1,3,reversed,incorrect,0.4095833447214099,0,valid_lose,360.96940409999934,39,,,,,,,,,,,413.3003370000006,413.30097060000026,,,,,,,,sub_818,2024-12-08_11h58.41.535,Reversal,2023.2.1,59.958364911532364,2,2024-12-08 11h58.53.827061 +0200,
6,exp1.png,exp2.png,,,,,,,,,,,,,,,,,,0,0,0,0,0,6,6,6,,,,,,,,,417.4491981000001,,,,,,,,,,,,,,417.3024079000006,False,418.97111700000005,418.9719145000008,419.5843696000002,419.5843941000003,421.3828590000003,5,66,True,exp2.png,exp1.png,trial_right_image,-1,exp1.png,2,exp1.png,exp2.png,1,1,non-reversed,correct,0.4768161614771371,1,valid_win,365.0524335,40,,,,,,,,,,,417.30120980000083,417.30235059999995,,,,,,,,sub_818,2024-12-08_11h58.41.535,Reversal,2023.2.1,59.958364911532364,2,2024-12-08 11h58.53.827061 +0200,
7,exp3.png,exp4.png,,,,,,,,,,,,,,,,,,0,0,0,0,0,7,7,7,,,,,,,,,421.5281945000006,,,,,,,,,,,,,,421.38502100000005,False,423.1527091000007,423.15324520000013,423.7673940000004,423.7674334000003,425.5655146000008,6,67,False,exp3.png,exp4.png,trial_left_image,1,exp3.png,2,exp4.png,exp3.png,1,3,reversed,incorrect,0.6976084312450611,0,valid_lose,369.2337625,40,,,,,,,,,,,421.3838258000005,421.38496340000074,,,,,,,,sub_818,2024-12-08_11h58.41.535,Reversal,2023.2.1,59.958364911532364,2,2024-12-08 11h58.53.827061 +0200,
8,exp1.png,exp2.png,,,,,,,,,,,,,,,,,,0,0,0,0,0,8,8,8,,,,,,,,,425.71234470000036,,,,,,,,,,,,,,425.56770060000053,False,427.95244900000034,427.95298960000036,428.5666108000005,428.56664010000077,430.3656357,7,68,False,exp1.png,exp2.png,trial_right_image,-1,exp2.png,2,exp1.png,exp2.png,0,2,non-reversed,incorrect,0.6385070079534828,0,valid_lose,374.03351889999976,40,,,,,,,,,,,425.56652810000014,425.5676422000006,,,,,,,,sub_818,2024-12-08_11h58.41.535,Reversal,2023.2.1,59.958364911532364,2,2024-12-08 11h58.53.827061 +0200,
9,exp3.png,exp4.png,,,,,,,,,,,,,,,,,,0,0,0,0,0,9,9,9,,,,,,,,,430.51283240000066,,,,,,,,,,,,,,430.3678137000006,False,431.7358453000006,431.7365703000005,432.3497389000004,432.34978390000015,434.1477981000007,8,69,True,exp4.png,exp3.png,trial_left_image,1,exp4.png,2,exp4.png,exp3.png,0,4,reversed,correct,0.343448623308376,1,valid_win,377.81708979999985,41,,,,,,,,,,,430.36665560000074,430.3677555000004,,,,,,,,sub_818,2024-12-08_11h58.41.535,Reversal,2023.2.1,59.958364911532364,2,2024-12-08 11h58.53.827061 +0200,
10,exp1.png,exp2.png,,,,,,,,,,,,,,,,,,0,0,0,0,0,10,10,10,,,,,,,,,434.29694480000035,,,,,,,,,,,,,,434.1498693000003,False,435.71864090000054,435.7193494000003,436.3324597000001,436.3324852000005,438.13034940000034,9,70,True,exp2.png,exp1.png,trial_right_image,-1,exp1.png,2,exp1.png,exp2.png,1,1,non-reversed,correct,0.4670647562515814,1,valid_win,381.79986969999936,42,,,,,,,,,,,434.1487085000008,434.14981380000063,,,,,,,,sub_818,2024-12-08_11h58.41.535,Reversal,2023.2.1,59.958364911532364,2,2024-12-08 11h58.53.827061 +0200,
11,exp3.png,exp4.png,,,,,,,,,,,,,,,,,,0,0,0,0,0,11,11,11,,,,,,,,,438.2822184000006,,,,,,,,,,,,,,438.1323160000002,False,439.6339957,439.6345248000007,440.2485619000008,440.24859280000055,442.0466741,10,71,False,exp3.png,exp4.png,trial_left_image,1,exp3.png,2,exp4.png,exp3.png,1,3,reversed,incorrect,0.6987020466682962,0,valid_lose,385.7150535999999,42,,,,,,,,,,,438.1312271000006,438.1322633,,,,,,,,sub_818,2024-12-08_11h58.41.535,Reversal,2023.2.1,59.958364911532364,2,2024-12-08 11h58.53.827061 +0200,
12,exp1.png,exp2.png,,,,,,,,,,,,,,,,,,0,0,0,0,0,12,12,12,,,,,,,,,442.1919394000006,,,,,,,,,,,,,,442.0485993000002,False,443.09745960000055,443.09770910000043,443.6982897000007,443.69832080000015,445.5128263000006,11,72,False,exp1.png,exp2.png,trial_left_image,1,exp1.png,2,exp1.png,exp2.png,1,1,non-reversed,correct,0.921408328969234,1,valid_win,389.17825509999966,43,,,,,,,,,,,442.0475484000008,442.0485477000002,,,,,,,,sub_818,2024-12-08_11h58.41.535,Reversal,2023.2.1,59.958364911532364,2,2024-12-08 11h58.53.827061 +0200,
13,exp3.png,exp4.png,,,,,,,,,,,,,,,,,,0,0,0,0,0,13,13,13,,,,,,,,,445.6504416000007,,,,,,,,,,,,,,445.51445330000024,False,447.1162456000002,447.1167673,447.7309627000004,447.7310030000008,449.5290027000001,12,73,True,exp4.png,exp3.png,trial_right_image,-1,exp3.png,2,exp4.png,exp3.png,1,3,reversed,incorrect,0.5895465266591147,0,valid_lose,393.19729689999986,43,,,,,,,,,,,445.5135033000006,445.51441500000055,,,,,,,,sub_818,2024-12-08_11h58.41.535,Reversal,2023.2.1,59.958364911532364,2,2024-12-08 11h58.53.827061 +0200,
14,exp1.png,exp2.png,,,,,,,,,,,,,,,,,,0,0,0,0,0,14,14,14,,,,,,,,,449.67223040000044,,,,,,,,,,,,,,449.5309384000002,False,451.1325067000007,451.1330342000001,451.7468920000001,451.7469176000004,453.54515450000054,13,74,True,exp2.png,exp1.png,trial_right_image,-1,exp1.png,2,exp1.png,exp2.png,1,1,non-reversed,correct,0.3520692590236306,1,valid_win,397.21356489999926,44,,,,,,,,,,,449.52988560000085,449.53088730000036,,,,,,,,sub_818,2024-12-08_11h58.41.535,Reversal,2023.2.1,59.958364911532364,2,2024-12-08 11h58.53.827061 +0200,
15,exp3.png,exp4.png,,,,,,,,,,,,,,,,,,0,0,0,0,0,15,15,15,,,,,,,,,453.6907377000007,,,,,,,,,,,,,,453.54709960000037,False,455.01542020000034,455.01594660000046,455.6301981000006,455.6302334000002,457.42823060000046,14,75,False,exp3.png,exp4.png,trial_left_image,1,exp3.png,2,exp4.png,exp3.png,1,3,reversed,incorrect,0.4951123276409055,0,valid_lose,401.09647659999973,44,,,,,,,,,,,453.54605600000014,453.54704670000046,,,,,,,,sub_818,2024-12-08_11h58.41.535,Reversal,2023.2.1,59.958364911532364,2,2024-12-08 11h58.53.827061 +0200,
16,exp1.png,exp2.png,,,,,,,,,,,,,,,,,,0,0,0,0,0,16,16,16,,,,,,,,,457.57213090000005,,,,,,,,,,,,,,457.4305757000002,False,458.8658180000002,458.86651840000013,459.4798823000001,459.47992240000076,461.2778610000005,15,76,True,exp2.png,exp1.png,trial_right_image,-1,exp1.png,2,exp1.png,exp2.png,1,1,non-reversed,correct,0.18143716833864176,0,invalid_lose,404.9470382999998,44,,,,,,,,,,,457.4292578000004,457.43048480000016,,,,,,,,sub_818,2024-12-08_11h58.41.535,Reversal,2023.2.1,59.958364911532364,2,2024-12-08 11h58.53.827061 +0200,
17,exp3.png,exp4.png,,,,,,,,,,,,,,,,,,0,0,0,0,0,17,17,17,,,,,,,,,461.4201258000003,,,,,,,,,,,,,,461.28018520000023,False,463.0141972000001,463.01472770000055,463.62879710000016,463.6288271000003,465.4274066000007,16,77,False,exp3.png,exp4.png,trial_right_image,-1,exp4.png,2,exp4.png,exp3.png,0,4,reversed,correct,0.008057874766405626,0,invalid_lose,409.0952572999995,44,,,,,,,,,,,461.2788653000007,461.2801266000006,,,,,,,,sub_818,2024-12-08_11h58.41.535,Reversal,2023.2.1,59.958364911532364,2,2024-12-08 11h58.53.827061 +0200,
18,exp1.png,exp2.png,,,,,,,,,,,,,,,,,,0,0,0,0,0,18,18,18,,,,,,,,,465.5723547000007,,,,,,,,,,,,,,465.4297266000003,False,466.24664290000055,466.24694760000057,466.86218780000036,466.8622303000002,468.66016280000076,17,78,False,exp1.png,exp2.png,trial_left_image,1,exp1.png,2,exp1.png,exp2.png,1,1,non-reversed,correct,0.4398957524005538,1,valid_win,412.3274902999992,45,,,,,,,,,,,465.4284518000004,465.4296679000008,,,,,,,,sub_818,2024-12-08_11h58.41.535,Reversal,2023.2.1,59.958364911532364,2,2024-12-08 11h58.53.827061 +0200,
19,exp3.png,exp4.png,,,,,,,,,,,,,,,,,,0,0,0,0,0,19,19,19,,,,,,,,,468.80718720000004,,,,,,,,,,,,,,468.66209550000076,False,470.1314095000007,470.13250530000005,470.7448652000003,470.74491280000075,472.5427896000001,18,79,True,exp4.png,exp3.png,trial_left_image,1,exp4.png,2,exp4.png,exp3.png,0,4,reversed,correct,0.7450131116608293,1,valid_win,416.2130019999995,46,,,,,,,,,,,468.6610487000007,468.66204350000044,,,,,,,,sub_818,2024-12-08_11h58.41.535,Reversal,2023.2.1,59.958364911532364,2,2024-12-08 11h58.53.827061 +0200,
20,exp1.png,exp2.png,,,,,,,,,,,,,,,,,,0,0,0,0,0,20,20,20,,,,,,,,,472.6974630000004,,,,,,,,,,,,,,472.5447354000007,False,473.9308583000002,473.9313892,474.5445245000001,474.54457040000034,476.34194170000046,19,80,True,exp2.png,exp1.png,trial_left_image,1,exp2.png,2,exp1.png,exp2.png,0,2,non-reversed,incorrect,0.5262882426790547,0,valid_lose,420.0119182999997,46,,,,,,,,,,,472.5436514000003,472.5446842000001,,,,,,,,sub_818,2024-12-08_11h58.41.535,Reversal,2023.2.1,59.958364911532364,2,2024-12-08 11h58.53.827061 +0200,
,,,exp1.png,,,,,,,,,,,,,,,,,0,0,0,0,,,,,0,0,0,0,0,0,0,0,476.42155660000026,,,,,,,,,,,,,,,,,,,,,,,,,,,,,,,,,,,,,,,,,476.3539040000005,476.42155660000026,479.1509076000002,,None,None,[],,,,,,,,,,,,,sub_818,2024-12-08_11h58.41.535,Reversal,2023.2.1,59.958364911532364,2,2024-12-08 11h58.53.827061 +0200,
,,,exp2.png,,,,,,,,,,,,,,,,,0,0,0,0,,,,,0,0,0,0,0,1,1,1,479.22480500000074,,,,,,,,,,,,,,,,,,,,,,,,,,,,,,,,,,,,,,,,,479.15209660000073,479.22480500000074,480.9172750000007,,None,None,[],,,,,,,,,,,,,sub_818,2024-12-08_11h58.41.535,Reversal,2023.2.1,59.958364911532364,2,2024-12-08 11h58.53.827061 +0200,
,,,exp3.png,,,,,,,,,,,,,,,,,0,0,0,0,,,,,0,0,0,0,0,2,2,2,480.9939097000006,,,,,,,,,,,,,,,,,,,,,,,,,,,,,,,,,,,,,,,,,480.9180980000001,480.9939097000006,482.6174486,,None,None,[],,,,,,,,,,,,,sub_818,2024-12-08_11h58.41.535,Reversal,2023.2.1,59.958364911532364,2,2024-12-08 11h58.53.827061 +0200,
,,,exp4.png,,,,,,,,,,,,,,,,,0,0,0,0,,,,,0,0,0,0,0,3,3,3,482.68912850000015,,,,,,,,,,,,,,,,,,,,,,,,,,,,,,,,,,,,,,,,,482.61826700000074,482.68912850000015,483.89903720000075,,None,None,[],,,,,,,,,,,,,sub_818,2024-12-08_11h58.41.535,Reversal,2023.2.1,59.958364911532364,2,2024-12-08 11h58.53.827061 +0200,
0,exp1.png,exp2.png,,,,,,,,,,,,,,,,,,1,0,1,0,0,0,0,0,,,,,,,,,484.1612281000007,,,,,,,,,,,,,,483.91232930000024,True,483.98381229999995,483.9838281000002,483.9970032000001,483.99703580000005,484.01495910000085,,,,,,,,,,,,,,,,,,,,,,,,,,,,,,,483.9112662000007,483.91230760000053,,,,,,,,sub_818,2024-12-08_11h58.41.535,Reversal,2023.2.1,59.958364911532364,2,2024-12-08 11h58.53.827061 +0200,
1,exp3.png,exp4.png,,,,,,,,,,,,,,,,,,1,0,1,0,0,1,1,1,,,,,,,,,484.1612281000007,,,,,,,,,,,,,,484.01551740000014,False,486.5613411000004,486.5618867000003,487.17639810000037,487.17643880000014,488.9748204000007,20,81,True,exp4.png,exp3.png,trial_left_image,1,exp4.png,2,exp4.png,exp3.png,0,4,reversed,correct,0.8407863356401001,1,valid_win,432.6424164,47,,,,,,,,,,,484.0152128,484.01550360000056,,,,,,,,sub_818,2024-12-08_11h58.41.535,Reversal,2023.2.1,59.958364911532364,2,2024-12-08 11h58.53.827061 +0200,
2,exp1.png,exp2.png,,,,,,,,,,,,,,,,,,1,0,1,0,0,2,2,2,,,,,,,,,489.1190105000005,,,,,,,,,,,,,,488.9770617000004,False,490.67745749999995,490.67793100000017,491.2923692000004,491.29239700000016,493.0902601000007,21,82,False,exp1.png,exp2.png,trial_right_image,-1,exp2.png,2,exp1.png,exp2.png,0,2,non-reversed,incorrect,0.32727115212343905,0,valid_lose,436.7584632999997,47,,,,,,,,,,,488.97585230000004,488.9770029000001,,,,,,,,sub_818,2024-12-08_11h58.41.535,Reversal,2023.2.1,59.958364911532364,2,2024-12-08 11h58.53.827061 +0200,
3,exp3.png,exp4.png,,,,,,,,,,,,,,,,,,1,0,1,0,0,3,3,3,,,,,,,,,493.2324105000007,,,,,,,,,,,,,,493.09217250000074,False,494.89368809999996,494.8942138000002,495.5083882000008,495.5084164,497.30618649999997,22,83,False,exp3.png,exp4.png,trial_right_image,-1,exp4.png,2,exp4.png,exp3.png,0,4,reversed,correct,0.5848995985667519,1,valid_win,440.97474339999917,48,,,,,,,,,,,493.0911409,493.09212150000076,,,,,,,,sub_818,2024-12-08_11h58.41.535,Reversal,2023.2.1,59.958364911532364,2,2024-12-08 11h58.53.827061 +0200,
4,exp1.png,exp2.png,,,,,,,,,,,,,,,,,,1,0,1,0,0,4,4,4,,,,,,,,,497.4779210000006,,,,,,,,,,,,,,497.3083512000003,False,498.9764240000004,498.9769451000002,499.5907442000007,499.59076920000007,501.3890099,23,84,False,exp1.png,exp2.png,trial_right_image,-1,exp2.png,2,exp1.png,exp2.png,0,2,non-reversed,incorrect,0.17560384837723875,1,invalid_win,445.0574741999999,49,,,,,,,,,,,497.3071731,497.3082933000005,,,,,,,,sub_818,2024-12-08_11h58.41.535,Reversal,2023.2.1,59.958364911532364,2,2024-12-08 11h58.53.827061 +0200,
5,exp3.png,exp4.png,,,,,,,,,,,,,,,,,,1,0,1,0,0,5,5,5,,,,,,,,,501.5320345,,,,,,,,,,,,,,501.3909762000003,False,503.26009260000046,503.26064940000015,503.87363280000045,503.87367370000084,505.67185320000044,24,85,True,exp4.png,exp3.png,trial_left_image,1,exp4.png,2,exp4.png,exp3.png,0,4,reversed,correct,0.7357484715682745,1,valid_win,449.3411785999997,50,,,,,,,,,,,501.38989949999996,501.3909244000006,,,,,,,,sub_818,2024-12-08_11h58.41.535,Reversal,2023.2.1,59.958364911532364,2,2024-12-08 11h58.53.827061 +0200,
6,exp1.png,exp2.png,,,,,,,,,,,,,,,,,,1,0,1,0,0,6,6,6,,,,,,,,,505.82688099999996,,,,,,,,,,,,,,505.6737656000005,False,507.65865140000005,507.65917380000064,508.27283239999997,508.2728582,510.0710213000002,25,86,True,exp2.png,exp1.png,trial_left_image,1,exp2.png,2,exp1.png,exp2.png,0,2,non-reversed,incorrect,0.23475998570021073,1,invalid_win,453.73970239999926,51,,,,,,,,,,,505.67273280000063,505.6737135000003,,,,,,,,sub_818,2024-12-08_11h58.41.535,Reversal,2023.2.1,59.958364911532364,2,2024-12-08 11h58.53.827061 +0200,
7,exp3.png,exp4.png,,,,,,,,,,,,,,,,,,1,0,1,0,0,7,7,7,,,,,,,,,510.22050130000025,,,,,,,,,,,,,,510.0725340000008,False,511.84130110000024,511.8419391000007,512.4563115000001,512.4563370000005,514.2538395000001,26,87,True,exp4.png,exp3.png,trial_left_image,1,exp4.png,2,exp4.png,exp3.png,0,4,reversed,correct,0.8050720270044724,1,valid_win,457.9224631999996,52,,,,,,,,,,,510.07168960000035,510.07249580000007,,,,,,,,sub_818,2024-12-08_11h58.41.535,Reversal,2023.2.1,59.958364911532364,2,2024-12-08 11h58.53.827061 +0200,
8,exp1.png,exp2.png,,,,,,,,,,,,,,,,,,1,0,1,0,0,8,8,8,,,,,,,,,514.3898718,,,,,,,,,,,,,,514.2558253000007,False,516.1744827000002,516.1750013000001,516.7885553000006,516.7885856000003,518.5870422000007,27,88,False,exp1.png,exp2.png,trial_right_image,-1,exp2.png,2,exp1.png,exp2.png,0,2,non-reversed,incorrect,0.6414587078313236,0,valid_lose,462.2555350999992,52,,,,,,,,,,,514.2547515000006,514.2557736000008,,,,,,,,sub_818,2024-12-08_11h58.41.535,Reversal,2023.2.1,59.958364911532364,2,2024-12-08 11h58.53.827061 +0200,
9,exp3.png,exp4.png,,,,,,,,,,,,,,,,,,1,0,1,0,0,9,9,9,,,,,,,,,518.7463646000006,,,,,,,,,,,,,,518.5895410000003,False,520.8746598000007,520.8755647000007,521.4885212000008,521.4885536000002,523.2863777000002,28,89,False,exp3.png,exp4.png,trial_right_image,-1,exp4.png,2,exp4.png,exp3.png,0,4,reversed,correct,0.3287950390834645,1,valid_win,466.9560770999997,53,,,,,,,,,,,518.5880265000005,518.5894758000004,,,,,,,,sub_818,2024-12-08_11h58.41.535,Reversal,2023.2.1,59.958364911532364,2,2024-12-08 11h58.53.827061 +0200,
10,exp1.png,exp2.png,,,,,,,,,,,,,,,,,,1,0,1,0,0,10,10,10,,,,,,,,,523.4379194000003,,,,,,,,,,,,,,523.2886158000001,False,524.9897003000005,524.9901932000002,525.6044369000001,525.6044618000005,527.4021252000002,29,90,True,exp2.png,exp1.png,trial_left_image,1,exp2.png,2,exp1.png,exp2.png,0,2,non-reversed,incorrect,0.9700063329590707,0,valid_lose,471.0707247,53,,,,,,,,,,,523.2875871000006,523.2885356000006,,,,,,,,sub_818,2024-12-08_11h58.41.535,Reversal,2023.2.1,59.958364911532364,2,2024-12-08 11h58.53.827061 +0200,
11,exp3.png,exp4.png,,,,,,,,,,,,,,,,,,1,0,1,0,0,11,11,11,,,,,,,,,527.5643054000002,,,,,,,,,,,,,,527.4040792000005,False,529.0556936000003,529.0562443000008,529.6700734000005,529.6700956000004,531.4686523,30,91,True,exp4.png,exp3.png,trial_left_image,1,exp4.png,2,exp4.png,exp3.png,0,4,reversed,correct,0.5080382368478389,1,valid_win,475.13676379999924,54,,,,,,,,,,,527.4030135000003,527.4040285000001,,,,,,,,sub_818,2024-12-08_11h58.41.535,Reversal,2023.2.1,59.958364911532364,2,2024-12-08 11h58.53.827061 +0200,
12,exp1.png,exp2.png,,,,,,,,,,,,,,,,,,1,0,1,0,0,12,12,12,,,,,,,,,531.6118227000006,,,,,,,,,,,,,,531.4712682000008,False,533.7725316000005,533.7731948,534.3864737000004,534.3865145,536.1842456000004,31,92,False,exp1.png,exp2.png,trial_right_image,-1,exp2.png,2,exp1.png,exp2.png,0,2,non-reversed,incorrect,0.37309041920873043,0,valid_lose,479.8537185999994,54,,,,,,,,,,,531.4699336000003,531.4712113000005,,,,,,,,sub_818,2024-12-08_11h58.41.535,Reversal,2023.2.1,59.958364911532364,2,2024-12-08 11h58.53.827061 +0200,
13,exp3.png,exp4.png,,,,,,,,,,,,,,,,,,1,0,1,0,0,13,13,13,,,,,,,,,536.3277678000004,,,,,,,,,,,,,,536.1854951000005,False,538.3046952000004,538.3051267000001,538.9200385000004,538.9200909000001,540.7173710000006,32,93,False,exp3.png,exp4.png,trial_right_image,-1,exp4.png,2,exp4.png,exp3.png,0,4,reversed,correct,0.852341080041081,1,valid_win,484.38566269999956,55,,,,,,,,,,,536.1848254000006,536.1854647,,,,,,,,sub_818,2024-12-08_11h58.41.535,Reversal,2023.2.1,59.958364911532364,2,2024-12-08 11h58.53.827061 +0200,
14,exp1.png,exp2.png,,,,,,,,,,,,,,,,,,1,0,1,0,0,14,14,14,,,,,,,,,540.8729059000007,,,,,,,,,,,,,,540.7199221000001,False,542.5043532,542.5048346000003,543.1188645000002,543.1189059000008,544.9173922,33,94,False,exp1.png,exp2.png,trial_left_image,1,exp1.png,2,exp1.png,exp2.png,1,1,non-reversed,correct,0.579215662820504,1,valid_win,488.5853694999996,56,,,,,,,,,,,540.7185965000008,540.7198558,,,,,,,,sub_818,2024-12-08_11h58.41.535,Reversal,2023.2.1,59.958364911532364,2,2024-12-08 11h58.53.827061 +0200,
15,exp3.png,exp4.png,,,,,,,,,,,,,,,,,,1,0,1,0,0,15,15,15,,,,,,,,,545.0782013000007,,,,,,,,,,,,,,544.9195314000008,False,546.7196261000008,546.7200726000001,547.3350765000005,547.3351254000008,549.1332354000006,34,95,True,exp4.png,exp3.png,trial_left_image,1,exp4.png,2,exp4.png,exp3.png,0,4,reversed,correct,0.3011710162201219,1,valid_win,492.8006084999997,57,,,,,,,,,,,544.9184298,544.9194774000007,,,,,,,,sub_818,2024-12-08_11h58.41.535,Reversal,2023.2.1,59.958364911532364,2,2024-12-08 11h58.53.827061 +0200,
16,exp1.png,exp2.png,,,,,,,,,,,,,,,,,,1,0,1,0,0,16,16,16,,,,,,,,,549.2789676000002,,,,,,,,,,,,,,549.1355144000008,False,550.6710252000003,550.6713988000001,551.2849163000001,551.2849627000005,553.0823818000008,35,96,True,exp2.png,exp1.png,trial_left_image,1,exp2.png,2,exp1.png,exp2.png,0,2,non-reversed,incorrect,0.7427151029722965,0,valid_lose,496.7518907999993,57,,,,,,,,,,,549.1342776000001,549.1354570000003,,,,,,,,sub_818,2024-12-08_11h58.41.535,Reversal,2023.2.1,59.958364911532364,2,2024-12-08 11h58.53.827061 +0200,
17,exp3.png,exp4.png,,,,,,,,,,,,,,,,,,1,0,1,0,0,17,17,17,,,,,,,,,553.2206981000008,,,,,,,,,,,,,,553.0848690000003,False,555.3696285000005,555.3703791000007,555.9838223000006,555.9838545000002,557.7818691000002,36,97,False,exp3.png,exp4.png,trial_right_image,-1,exp4.png,2,exp4.png,exp3.png,0,4,reversed,correct,0.7654818908992432,1,valid_win,501.4508982999996,58,,,,,,,,,,,553.0836097000001,553.0847995000004,,,,,,,,sub_818,2024-12-08_11h58.41.535,Reversal,2023.2.1,59.958364911532364,2,2024-12-08 11h58.53.827061 +0200,
18,exp1.png,exp2.png,,,,,,,,,,,,,,,,,,1,0,1,0,0,18,18,18,,,,,,,,,557.9297542000004,,,,,,,,,,,,,,557.7840638000007,False,559.8182995000006,559.8188351000008,560.4332115000007,560.4332532000008,562.2307944000004,37,98,False,exp1.png,exp2.png,trial_left_image,1,exp1.png,2,exp1.png,exp2.png,1,1,non-reversed,correct,0.4169182179949048,1,valid_win,505.89936339999986,59,,,,,,,,,,,557.7828481000006,557.7840056000005,,,,,,,,sub_818,2024-12-08_11h58.41.535,Reversal,2023.2.1,59.958364911532364,2,2024-12-08 11h58.53.827061 +0200,
19,exp3.png,exp4.png,,,,,,,,,,,,,,,,,,1,0,1,0,0,19,19,19,,,,,,,,,562.3936575000007,,,,,,,,,,,,,,562.2326223,False,565.3521843000008,565.3528866000006,565.9667934000008,565.9668394,567.7644044000008,38,99,True,exp4.png,exp3.png,trial_left_image,1,exp4.png,2,exp4.png,exp3.png,0,4,reversed,correct,0.253226966628719,1,valid_win,511.4334065999992,60,,,,,,,,,,,562.2315381000008,562.2325720000008,,,,,,,,sub_818,2024-12-08_11h58.41.535,Reversal,2023.2.1,59.958364911532364,2,2024-12-08 11h58.53.827061 +0200,
20,exp1.png,exp2.png,,,,,,,,,,,,,,,,,,1,0,1,0,0,20,20,20,,,,,,,,,567.9164406,,,,,,,,,,,,,,567.7666834000001,False,569.8684037000003,569.8691344000008,570.4820534,570.4821036000003,572.2798043000003,39,100,True,exp2.png,exp1.png,trial_right_image,-1,exp1.png,2,exp1.png,exp2.png,1,1,non-reversed,correct,0.9160592145433336,1,valid_win,515.9496517999996,61,,,,,,,,,,,567.7654692000006,567.7666243000003,,,,,,,,sub_818,2024-12-08_11h58.41.535,Reversal,2023.2.1,59.958364911532364,2,2024-12-08 11h58.53.827061 +0200,
,,,exp1.png,,,,,,,,,,,,,,,,,1,0,1,0,,,,,0,0,0,0,0,0,0,0,572.3936530000001,,,,,,,,,,,,,,,,,,,,,,,,,,,,,,,,,,,,,,,,,572.3100031000004,572.3936530000001,577.7035887000002,84.0,84.0,4.479767599999832,"[(84.0, 4.479767599999832)]",,,,,,,,,,,,,sub_818,2024-12-08_11h58.41.535,Reversal,2023.2.1,59.958364911532364,2,2024-12-08 11h58.53.827061 +0200,
,,,exp2.png,,,,,,,,,,,,,,,,,1,0,1,0,,,,,0,0,0,0,0,1,1,1,577.7826583000005,,,,,,,,,,,,,,,,,,,,,,,,,,,,,,,,,,,,,,,,,577.7047825,577.7826583000005,581.2366110000003,,25.0,2.6205418999998074,"[(25.0, 2.6205418999998074)]",25.0,,,,,,,,,,,,sub_818,2024-12-08_11h58.41.535,Reversal,2023.2.1,59.958364911532364,2,2024-12-08 11h58.53.827061 +0200,
,,,exp3.png,,,,,,,,,,,,,,,,,1,0,1,0,,,,,0,0,0,0,0,2,2,2,581.3110116000007,,,,,,,,,,,,,,,,,,,,,,,,,,,,,,,,,,,,,,,,,581.2375139000005,581.3110116000007,586.4023190000007,,25.0,3.8525179000007483,"[(25.0, 3.8525179000007483)]",,25.0,,,,,,,,,,,sub_818,2024-12-08_11h58.41.535,Reversal,2023.2.1,59.958364911532364,2,2024-12-08 11h58.53.827061 +0200,
,,,exp4.png,,,,,,,,,,,,,,,,,1,0,1,0,,,,,0,0,0,0,0,3,3,3,586.4821160000001,,,,,,,,,,,,,,,,,,,,,,,,,,,,,,,,,,,,,,,,,586.4032101000003,586.4821160000001,589.7207265000006,,83.0,2.521885299999667,"[(83.0, 2.521885299999667)]",,,83.0,,,,,,,,,,sub_818,2024-12-08_11h58.41.535,Reversal,2023.2.1,59.958364911532364,2,2024-12-08 11h58.53.827061 +0200,
0,exp1.png,exp2.png,,,,,,,,,,,,,,,,,,2,0,2,0,0,0,0,0,,,,,,,,,590.0060441000005,,,,,,,,,,,,,,589.7369808000003,True,589.8195811000005,589.8195978000003,589.8331031000007,589.8331186000005,589.8521964000001,,,,,,,,,,,,,,,,,,,,,,,,,,,,,,,589.7357795000007,589.7369489000002,,,,,,,,sub_818,2024-12-08_11h58.41.535,Reversal,2023.2.1,59.958364911532364,2,2024-12-08 11h58.53.827061 +0200,
1,exp3.png,exp4.png,,,,,,,,,,,,,,,,,,2,0,2,0,0,1,1,1,,,,,,,,,590.0060441000005,,,,,,,,,,,,,,589.8527423000005,False,591.7478696000007,591.7484185000003,592.3629767000002,592.3630061000003,594.1604231000001,40,101,True,exp4.png,exp3.png,trial_left_image,1,exp4.png,2,exp4.png,exp3.png,0,4,reversed,correct,0.2996772460177314,1,valid_win,537.8289473999994,62,,,,,,,,,,,589.8524428000001,589.8527296000002,,,,,,,,sub_818,2024-12-08_11h58.41.535,Reversal,2023.2.1,59.958364911532364,2,2024-12-08 11h58.53.827061 +0200,
2,exp1.png,exp2.png,,,,,,,,,,,,,,,,,,2,0,2,0,0,2,2,2,,,,,,,,,594.3138699000001,,,,,,,,,,,,,,594.1623801000005,False,595.7813491000006,595.7820730000003,596.3954405000004,596.3954895000006,598.1934196000002,41,102,True,exp2.png,exp1.png,trial_left_image,1,exp2.png,2,exp1.png,exp2.png,0,2,non-reversed,incorrect,0.1099424262769314,1,invalid_win,541.8625912999996,63,,,,,,,,,,,594.1613045000004,594.1623286000004,,,,,,,,sub_818,2024-12-08_11h58.41.535,Reversal,2023.2.1,59.958364911532364,2,2024-12-08 11h58.53.827061 +0200,
3,exp3.png,exp4.png,,,,,,,,,,,,,,,,,,2,0,2,0,0,3,3,3,,,,,,,,,598.3393233000006,,,,,,,,,,,,,,598.1956196000001,False,599.8464583000004,599.8470045000004,600.4618819000007,600.4619302000001,602.2595015000006,42,103,False,exp3.png,exp4.png,trial_right_image,-1,exp4.png,2,exp4.png,exp3.png,0,4,reversed,correct,0.03414574574892271,0,invalid_lose,545.9275148999996,63,,,,,,,,,,,598.1944104000004,598.1955621000006,,,,,,,,sub_818,2024-12-08_11h58.41.535,Reversal,2023.2.1,59.958364911532364,2,2024-12-08 11h58.53.827061 +0200,
4,exp1.png,exp2.png,,,,,,,,,,,,,,,,,,2,0,2,0,0,4,4,4,,,,,,,,,602.4046592000004,,,,,,,,,,,,,,602.2619565000005,False,603.8805200000006,603.8810661000007,604.4938696000008,604.493899,606.2919726,43,104,False,exp1.png,exp2.png,trial_right_image,-1,exp2.png,2,exp1.png,exp2.png,0,2,non-reversed,incorrect,0.6563532120532181,0,valid_lose,549.9615944999996,63,,,,,,,,,,,602.2604700000002,602.2618876000006,,,,,,,,sub_818,2024-12-08_11h58.41.535,Reversal,2023.2.1,59.958364911532364,2,2024-12-08 11h58.53.827061 +0200,
5,exp3.png,exp4.png,,,,,,,,,,,,,,,,,,2,0,2,0,0,5,5,5,,,,,,,,,606.4398276000002,,,,,,,,,,,,,,606.2933644000004,False,607.9785280000006,607.9791153000006,608.5941271000002,608.5941679000007,610.3913377000008,44,105,True,exp4.png,exp3.png,trial_left_image,1,exp4.png,2,exp4.png,exp3.png,0,4,reversed,correct,0.9957602910023559,1,valid_win,554.0596428999997,64,,,,,,,,,,,606.2925830000004,606.2933295000003,,,,,,,,sub_818,2024-12-08_11h58.41.535,Reversal,2023.2.1,59.958364911532364,2,2024-12-08 11h58.53.827061 +0200,
6,exp1.png,exp2.png,,,,,,,,,,,,,,,,,,2,0,2,0,0,6,6,6,,,,,,,,,610.535954,,,,,,,,,,,,,,610.3928960000003,False,612.7963678000006,612.7970960000002,613.4098631000006,613.4099028,615.2078384000006,45,106,True,exp2.png,exp1.png,trial_left_image,1,exp2.png,2,exp1.png,exp2.png,0,2,non-reversed,incorrect,0.6578959961780481,0,valid_lose,558.8776148999996,64,,,,,,,,,,,610.3920323000002,610.3928577000006,,,,,,,,sub_818,2024-12-08_11h58.41.535,Reversal,2023.2.1,59.958364911532364,2,2024-12-08 11h58.53.827061 +0200,
7,exp3.png,exp4.png,,,,,,,,,,,,,,,,,,2,0,2,0,0,7,7,7,,,,,,,,,615.3732792000001,,,,,,,,,,,,,,615.2100586000006,False,616.7786060000008,616.7794113,617.3934229000006,617.3934713000008,619.1911211000006,46,107,True,exp4.png,exp3.png,trial_left_image,1,exp4.png,2,exp4.png,exp3.png,0,4,reversed,correct,0.5999076506235437,1,valid_win,562.8599076,65,,,,,,,,,,,615.2088456000001,615.2099999000002,,,,,,,,sub_818,2024-12-08_11h58.41.535,Reversal,2023.2.1,59.958364911532364,2,2024-12-08 11h58.53.827061 +0200,
8,exp1.png,exp2.png,,,,,,,,,,,,,,,,,,2,0,2,0,0,8,8,8,,,,,,,,,619.3331977000007,,,,,,,,,,,,,,619.1931110000005,False,621.2610110000005,621.2614507000008,621.8758233000008,621.8758500000004,623.6732202000003,47,108,False,exp1.png,exp2.png,trial_left_image,1,exp1.png,2,exp1.png,exp2.png,1,1,non-reversed,correct,0.6715704913518876,1,valid_win,567.3419703999998,66,,,,,,,,,,,619.1920403000004,619.1930598000008,,,,,,,,sub_818,2024-12-08_11h58.41.535,Reversal,2023.2.1,59.958364911532364,2,2024-12-08 11h58.53.827061 +0200,
9,exp3.png,exp4.png,,,,,,,,,,,,,,,,,,2,0,2,0,0,9,9,9,,,,,,,,,623.8267840000008,,,,,,,,,,,,,,623.6751530000001,False,625.6434325,625.6439710000004,626.2580520000001,626.2580979000004,628.0560454000006,48,109,True,exp4.png,exp3.png,trial_left_image,1,exp4.png,2,exp4.png,exp3.png,0,4,reversed,correct,0.768423929841089,1,valid_win,571.7245002,67,,,,,,,,,,,623.6741501000006,623.6751004000007,,,,,,,,sub_818,2024-12-08_11h58.41.535,Reversal,2023.2.1,59.958364911532364,2,2024-12-08 11h58.53.827061 +0200,
10,exp1.png,exp2.png,,,,,,,,,,,,,,,,,,2,0,2,0,0,10,10,10,,,,,,,,,628.2117747000002,,,,,,,,,,,,,,628.0579408000003,False,630.0763704000001,630.0769303000006,630.6911544000004,630.6911956000004,632.4888125000007,49,110,False,exp1.png,exp2.png,trial_left_image,1,exp1.png,2,exp1.png,exp2.png,1,1,non-reversed,correct,0.7783366547647229,1,valid_win,576.1574597999997,68,,,,,,,,,,,628.0569065,628.0578889000008,,,,,,,,sub_818,2024-12-08_11h58.41.535,Reversal,2023.2.1,59.958364911532364,2,2024-12-08 11h58.53.827061 +0200,
11,exp3.png,exp4.png,,,,,,,,,,,,,,,,,,2,0,2,0,0,11,11,11,,,,,,,,,632.6641964,,,,,,,,,,,,,,632.4912101,False,634.4263429000002,634.4271530000005,635.0399919000001,635.0400387,636.8383692000007,50,111,False,exp3.png,exp4.png,trial_right_image,-1,exp4.png,2,exp4.png,exp3.png,0,4,reversed,correct,0.25379582869864026,1,valid_win,580.5076672999994,69,,,,,,,,,,,632.4899246000004,632.4911553000002,,,,,,,,sub_818,2024-12-08_11h58.41.535,Reversal,2023.2.1,59.958364911532364,2,2024-12-08 11h58.53.827061 +0200,
12,exp1.png,exp2.png,,,,,,,,,,,,,,,,,,2,0,2,0,0,12,12,12,,,,,,,,,636.989399,,,,,,,,,,,,,,636.8398858,False,638.9090054000008,638.9093866000003,639.5228752000003,639.5228921000007,641.3204432000002,51,112,True,exp2.png,exp1.png,trial_right_image,-1,exp1.png,2,exp1.png,exp2.png,1,1,non-reversed,correct,0.5515376388996166,1,valid_win,584.9899270999995,70,,,,,,,,,,,636.8390575000003,636.8398452000001,,,,,,,,sub_818,2024-12-08_11h58.41.535,Reversal,2023.2.1,59.958364911532364,2,2024-12-08 11h58.53.827061 +0200,
13,exp3.png,exp4.png,,,,,,,,,,,,,,,,,,2,0,2,0,0,13,13,13,,,,,,,,,641.4822963000006,,,,,,,,,,,,,,641.3217005000006,False,643.3401734000008,643.3404166,643.9552919000007,643.9553062000005,645.7533022000007,52,113,True,exp4.png,exp3.png,trial_left_image,1,exp4.png,2,exp4.png,exp3.png,0,4,reversed,correct,0.5973635107804215,1,valid_win,589.4209622999997,71,,,,,,,,,,,641.3209740000002,641.3216697000007,,,,,,,,sub_818,2024-12-08_11h58.41.535,Reversal,2023.2.1,59.958364911532364,2,2024-12-08 11h58.53.827061 +0200,
14,exp1.png,exp2.png,,,,,,,,,,,,,,,,,,2,0,2,0,0,14,14,14,,,,,,,,,645.9137324000003,,,,,,,,,,,,,,645.7545752000005,False,647.6925575000005,647.6934613000003,648.3056376000004,648.3057063000006,650.1026955000007,53,114,False,exp1.png,exp2.png,trial_left_image,1,exp1.png,2,exp1.png,exp2.png,1,1,non-reversed,correct,0.5231721846907604,1,valid_win,593.7739710999995,72,,,,,,,,,,,645.7538402,645.7545426000006,,,,,,,,sub_818,2024-12-08_11h58.41.535,Reversal,2023.2.1,59.958364911532364,2,2024-12-08 11h58.53.827061 +0200,
15,exp3.png,exp4.png,,,,,,,,,,,,,,,,,,2,0,2,0,0,15,15,15,,,,,,,,,650.2626907000003,,,,,,,,,,,,,,650.1039527000003,False,652.0403444000003,652.0409382000007,652.6550348000001,652.6550941000005,654.4527742,54,115,False,exp3.png,exp4.png,trial_right_image,-1,exp4.png,2,exp4.png,exp3.png,0,4,reversed,correct,0.34679247018989634,1,valid_win,598.1214572999997,73,,,,,,,,,,,650.1032122000006,650.1039182000004,,,,,,,,sub_818,2024-12-08_11h58.41.535,Reversal,2023.2.1,59.958364911532364,2,2024-12-08 11h58.53.827061 +0200,
16,exp1.png,exp2.png,,,,,,,,,,,,,,,,,,2,0,2,0,0,16,16,16,,,,,,,,,654.6059803000007,,,,,,,,,,,,,,654.4548023000007,False,657.1057285000006,657.1062740000007,657.7209998000008,657.7210557000008,659.5186423000005,55,116,True,exp2.png,exp1.png,trial_right_image,-1,exp1.png,2,exp1.png,exp2.png,1,1,non-reversed,correct,0.29572645596640224,1,valid_win,603.1868032999992,74,,,,,,,,,,,654.4536389000004,654.4547502000005,,,,,,,,sub_818,2024-12-08_11h58.41.535,Reversal,2023.2.1,59.958364911532364,2,2024-12-08 11h58.53.827061 +0200,
17,exp3.png,exp4.png,,,,,,,,,,,,,,,,,,2,0,2,0,0,17,17,17,,,,,,,,,659.6756592000002,,,,,,,,,,,,,,659.5205812000004,False,661.6218913000002,661.6223158000003,662.2362700000003,662.2362959000002,664.0348332000003,56,117,False,exp3.png,exp4.png,trial_right_image,-1,exp4.png,2,exp4.png,exp3.png,0,4,reversed,correct,0.6776521786866441,1,valid_win,607.7028516,75,,,,,,,,,,,659.5195082,659.5205300000007,,,,,,,,sub_818,2024-12-08_11h58.41.535,Reversal,2023.2.1,59.958364911532364,2,2024-12-08 11h58.53.827061 +0200,
18,exp1.png,exp2.png,,,,,,,,,,,,,,,,,,2,0,2,0,0,18,18,18,,,,,,,,,664.1822867000001,,,,,,,,,,,,,,664.0370557000006,False,665.9879381000001,665.9884959000001,666.6038881000004,666.6039386000002,668.4012770000008,57,118,True,exp2.png,exp1.png,trial_right_image,-1,exp1.png,2,exp1.png,exp2.png,1,1,non-reversed,correct,0.7532414442713319,1,valid_win,612.0690242999999,76,,,,,,,,,,,664.0358443000005,664.0369969000003,,,,,,,,sub_818,2024-12-08_11h58.41.535,Reversal,2023.2.1,59.958364911532364,2,2024-12-08 11h58.53.827061 +0200,
19,exp3.png,exp4.png,,,,,,,,,,,,,,,,,,2,0,2,0,0,19,19,19,,,,,,,,,668.5602874000006,,,,,,,,,,,,,,668.4035401000001,False,670.4206920000006,670.4213151000004,671.0354799000006,671.0355089000004,672.8334643000007,58,119,False,exp3.png,exp4.png,trial_right_image,-1,exp4.png,2,exp4.png,exp3.png,0,4,reversed,correct,0.911961486404619,1,valid_win,616.5018323999993,77,,,,,,,,,,,668.4022228000003,668.4034838000007,,,,,,,,sub_818,2024-12-08_11h58.41.535,Reversal,2023.2.1,59.958364911532364,2,2024-12-08 11h58.53.827061 +0200,
20,exp1.png,exp2.png,,,,,,,,,,,,,,,,,,2,0,2,0,0,20,20,20,,,,,,,,,672.9854892000003,,,,,,,,,,,,,,672.8355279000007,False,674.5367836000005,674.5372124000005,675.1512737000003,675.1513005000006,676.9498489000007,59,120,False,exp1.png,exp2.png,trial_left_image,1,exp1.png,2,exp1.png,exp2.png,1,1,non-reversed,correct,0.5402158937225944,1,valid_win,620.6177470999992,78,,,,,,,,,,,672.8343526000008,672.8354660000005,,,,,,,,sub_818,2024-12-08_11h58.41.535,Reversal,2023.2.1,59.958364911532364,2,2024-12-08 11h58.53.827061 +0200,
,,,exp1.png,,,,,,,,,,,,,,,,,2,0,2,0,,,,,0,0,0,0,0,0,0,0,677.0500392000004,,,,,,,,,,,,,,,,,,,,,,,,,,,,,,,,,,,,,,,,,676.9784219000003,677.0500392000004,683.2876552000007,95.0,95.0,4.670924300000479,"[(95.0, 4.670924300000479)]",,,,,,,,,,,,,sub_818,2024-12-08_11h58.41.535,Reversal,2023.2.1,59.958364911532364,2,2024-12-08 11h58.53.827061 +0200,
,,,exp2.png,,,,,,,,,,,,,,,,,2,0,2,0,,,,,0,0,0,0,0,1,1,1,683.3574085,,,,,,,,,,,,,,,,,,,,,,,,,,,,,,,,,,,,,,,,,683.2884475000001,683.3574085,688.7076933000008,,8.0,4.597205699999904,"[(8.0, 4.597205699999904)]",8.0,,,,,,,,,,,,sub_818,2024-12-08_11h58.41.535,Reversal,2023.2.1,59.958364911532364,2,2024-12-08 11h58.53.827061 +0200,
,,,exp3.png,,,,,,,,,,,,,,,,,2,0,2,0,,,,,0,0,0,0,0,2,2,2,688.7879598,,,,,,,,,,,,,,,,,,,,,,,,,,,,,,,,,,,,,,,,,688.7088464000008,688.7879598,692.0890196,,6.0,2.3362781999994695,"[(6.0, 2.3362781999994695)]",,6.0,,,,,,,,,,,sub_818,2024-12-08_11h58.41.535,Reversal,2023.2.1,59.958364911532364,2,2024-12-08 11h58.53.827061 +0200,
,,,exp4.png,,,,,,,,,,,,,,,,,2,0,2,0,,,,,0,0,0,0,0,3,3,3,692.1586295000006,,,,,,,,,,,,,,,,,,,,,,,,,,,,,,,,,,,,,,,,,692.0899409000003,692.1586295000006,695.1884420000006,,94.0,2.278656100000262,"[(94.0, 2.278656100000262)]",,,94.0,,,,,,,,,,sub_818,2024-12-08_11h58.41.535,Reversal,2023.2.1,59.958364911532364,2,2024-12-08 11h58.53.827061 +0200,
,,,,,,,,,,,,,,,,,,,,,,,,,,,,,,,,,,,,,,,,,,,,,,,,,,,,,,,,,,,,,,,,,,,,,,,,,,,,78,,,,,,,,,,,,,,695.1891401000003,94,53,41,298.8990699999995,0,,,,,,,,
