trial_index,trial_image1_file,trial_image2_file,image_file,learning_outer_loop.thisRepN,learning_outer_loop.thisTrialN,learning_outer_loop.thisN,learning_outer_loop.thisIndex,learning_inner_loop.thisRepN,learning_inner_loop.thisTrialN,learning_inner_loop.thisN,learning_inner_loop.thisIndex,learning_estimation_outer_loop.thisRepN,learning_estimation_outer_loop.thisTrialN,learning_estimation_outer_loop.thisN,learning_estimation_outer_loop.thisIndex,learning_estimation_inner_loop.thisRepN,learning_estimation_inner_loop.thisTrialN,learning_estimation_inner_loop.thisN,learning_estimation_inner_loop.thisIndex,reversal_outer_loop.thisRepN,reversal_outer_loop.thisTrialN,reversal_outer_loop.thisN,reversal_outer_loop.thisIndex,reversal_inner_loop.thisRepN,reversal_inner_loop.thisTrialN,reversal_inner_loop.thisN,reversal_inner_loop.thisIndex,reversal_estimation_outer_loop.thisRepN,reversal_estimation_outer_loop.thisTrialN,reversal_estimation_outer_loop.thisN,reversal_estimation_outer_loop.thisIndex,reversal_estimation_inner_loop.thisRepN,reversal_estimation_inner_loop.thisTrialN,reversal_estimation_inner_loop.thisN,reversal_estimation_inner_loop.thisIndex,skipped,total_trial_counter,trial_num,left_right_flip,left_image_file,right_image_file,clicked_stimulus_side,side,clicked_stimulus,version,high_prob_image_file,low_prob_image_file,choice_a,choice_b,pair_type,correct,trial_feedback_random,reward,trial_type,overall_time_after_trial,score,estimation_rating.response,estimation_rating.rt,estimation_rating.history,estimation_rating.started,estimation_rating.stopped,estimation_exp1.png,estimation_exp3.png,estimation_exp4.png,estimation_exp2.png,total_learning_time,total_correct,learning_correct,reversal_correct,total_reversal_time,extra_block,participant,date,expName,psychopyVersion,frameRate,ver,
0,exp1.png,exp2.png,,0,0,0,0,0,0,0,0,,,,,,,,,,,,,,,,,,,,,,,,,False,0,1,False,exp1.png,exp2.png,trial_right_image,-1,exp2.png,4,exp2.png,exp1.png,1,1,non-reversed,correct,0.26165522413512854,1,valid_win,2.314973500004271,1,,,,,,,,,,,,,,,,sub_008,2022-11-06_10h42.21.831,Reversal,2022.1.1,60.01064589279669,4,
1,exp3.png,exp4.png,,0,0,0,0,0,1,1,1,,,,,,,,,,,,,,,,,,,,,,,,,False,1,2,False,exp3.png,exp4.png,trial_left_image,1,exp3.png,4,exp4.png,exp3.png,0,4,reversed,incorrect,0.2747623365401859,0,valid_lose,8.78067160001956,1,,,,,,,,,,,,,,,,sub_008,2022-11-06_10h42.21.831,Reversal,2022.1.1,60.01064589279669,4,
2,exp1.png,exp2.png,,0,0,0,0,0,2,2,2,,,,,,,,,,,,,,,,,,,,,,,,,False,2,3,True,exp2.png,exp1.png,trial_right_image,-1,exp1.png,4,exp2.png,exp1.png,0,2,non-reversed,incorrect,0.5284583699301955,0,valid_lose,15.746585400018375,1,,,,,,,,,,,,,,,,sub_008,2022-11-06_10h42.21.831,Reversal,2022.1.1,60.01064589279669,4,
3,exp3.png,exp4.png,,0,0,0,0,0,3,3,3,,,,,,,,,,,,,,,,,,,,,,,,,False,3,4,True,exp4.png,exp3.png,trial_right_image,-1,exp3.png,4,exp4.png,exp3.png,0,4,reversed,incorrect,0.4824444009060199,0,valid_lose,24.24492620001547,1,,,,,,,,,,,,,,,,sub_008,2022-11-06_10h42.21.831,Reversal,2022.1.1,60.01064589279669,4,
4,exp1.png,exp2.png,,0,0,0,0,0,4,4,4,,,,,,,,,,,,,,,,,,,,,,,,,False,4,5,True,exp2.png,exp1.png,trial_left_image,1,exp2.png,4,exp2.png,exp1.png,1,1,non-reversed,correct,0.9043624430823147,1,valid_win,33.111195000004955,2,,,,,,,,,,,,,,,,sub_008,2022-11-06_10h42.21.831,Reversal,2022.1.1,60.01064589279669,4,
5,exp3.png,exp4.png,,0,0,0,0,0,5,5,5,,,,,,,,,,,,,,,,,,,,,,,,,False,5,6,False,exp3.png,exp4.png,trial_left_image,1,exp3.png,4,exp4.png,exp3.png,0,4,reversed,incorrect,0.13730596868791245,1,invalid_win,42.90964290002012,3,,,,,,,,,,,,,,,,sub_008,2022-11-06_10h42.21.831,Reversal,2022.1.1,60.01064589279669,4,
6,exp1.png,exp2.png,,0,0,0,0,0,6,6,6,,,,,,,,,,,,,,,,,,,,,,,,,False,6,7,False,exp1.png,exp2.png,trial_right_image,-1,exp2.png,4,exp2.png,exp1.png,1,1,non-reversed,correct,0.5195363922808623,1,valid_win,52.59139220000361,4,,,,,,,,,,,,,,,,sub_008,2022-11-06_10h42.21.831,Reversal,2022.1.1,60.01064589279669,4,
7,exp3.png,exp4.png,,0,0,0,0,0,7,7,7,,,,,,,,,,,,,,,,,,,,,,,,,False,7,8,True,exp4.png,exp3.png,trial_left_image,1,exp4.png,4,exp4.png,exp3.png,1,3,reversed,correct,0.9091536858172538,1,valid_win,58.10715349999373,5,,,,,,,,,,,,,,,,sub_008,2022-11-06_10h42.21.831,Reversal,2022.1.1,60.01064589279669,4,
8,exp1.png,exp2.png,,0,0,0,0,0,8,8,8,,,,,,,,,,,,,,,,,,,,,,,,,False,8,9,True,exp2.png,exp1.png,trial_left_image,1,exp2.png,4,exp2.png,exp1.png,1,1,non-reversed,correct,0.3046501157835366,1,valid_win,67.44050550000975,6,,,,,,,,,,,,,,,,sub_008,2022-11-06_10h42.21.831,Reversal,2022.1.1,60.01064589279669,4,
9,exp3.png,exp4.png,,0,0,0,0,0,9,9,9,,,,,,,,,,,,,,,,,,,,,,,,,False,9,10,True,exp4.png,exp3.png,trial_right_image,-1,exp3.png,4,exp4.png,exp3.png,0,4,reversed,incorrect,0.5485497282897995,0,valid_lose,73.05553490002058,6,,,,,,,,,,,,,,,,sub_008,2022-11-06_10h42.21.831,Reversal,2022.1.1,60.01064589279669,4,
10,exp1.png,exp2.png,,0,0,0,0,0,10,10,10,,,,,,,,,,,,,,,,,,,,,,,,,False,10,11,False,exp1.png,exp2.png,trial_right_image,-1,exp2.png,4,exp2.png,exp1.png,1,1,non-reversed,correct,0.6580507418307764,1,valid_win,82.23793030000525,7,,,,,,,,,,,,,,,,sub_008,2022-11-06_10h42.21.831,Reversal,2022.1.1,60.01064589279669,4,
11,exp3.png,exp4.png,,0,0,0,0,0,11,11,11,,,,,,,,,,,,,,,,,,,,,,,,,False,11,12,False,exp3.png,exp4.png,trial_left_image,1,exp3.png,4,exp4.png,exp3.png,0,4,reversed,incorrect,0.26484916271056524,0,valid_lose,88.93746720001218,7,,,,,,,,,,,,,,,,sub_008,2022-11-06_10h42.21.831,Reversal,2022.1.1,60.01064589279669,4,
12,exp1.png,exp2.png,,0,0,0,0,0,12,12,12,,,,,,,,,,,,,,,,,,,,,,,,,False,12,13,True,exp2.png,exp1.png,trial_right_image,-1,exp1.png,4,exp2.png,exp1.png,0,2,non-reversed,incorrect,0.15725710673801074,1,invalid_win,93.62094799999613,8,,,,,,,,,,,,,,,,sub_008,2022-11-06_10h42.21.831,Reversal,2022.1.1,60.01064589279669,4,
13,exp3.png,exp4.png,,0,0,0,0,0,13,13,13,,,,,,,,,,,,,,,,,,,,,,,,,False,13,14,False,exp3.png,exp4.png,trial_right_image,-1,exp4.png,4,exp4.png,exp3.png,1,3,reversed,correct,0.6826783139394625,1,valid_win,103.5182965999993,9,,,,,,,,,,,,,,,,sub_008,2022-11-06_10h42.21.831,Reversal,2022.1.1,60.01064589279669,4,
14,exp1.png,exp2.png,,0,0,0,0,0,14,14,14,,,,,,,,,,,,,,,,,,,,,,,,,False,14,15,False,exp1.png,exp2.png,trial_left_image,1,exp1.png,4,exp2.png,exp1.png,0,2,non-reversed,incorrect,0.9100766583153707,0,valid_lose,108.00264750001952,9,,,,,,,,,,,,,,,,sub_008,2022-11-06_10h42.21.831,Reversal,2022.1.1,60.01064589279669,4,
15,exp3.png,exp4.png,,0,0,0,0,0,15,15,15,,,,,,,,,,,,,,,,,,,,,,,,,False,15,16,False,exp3.png,exp4.png,trial_left_image,1,exp3.png,4,exp4.png,exp3.png,0,4,reversed,incorrect,0.7239038204945673,0,valid_lose,113.65076899999985,9,,,,,,,,,,,,,,,,sub_008,2022-11-06_10h42.21.831,Reversal,2022.1.1,60.01064589279669,4,
16,exp1.png,exp2.png,,0,0,0,0,0,16,16,16,,,,,,,,,,,,,,,,,,,,,,,,,False,16,17,True,exp2.png,exp1.png,trial_left_image,1,exp2.png,4,exp2.png,exp1.png,1,1,non-reversed,correct,0.5476336159171074,1,valid_win,118.34969110001111,10,,,,,,,,,,,,,,,,sub_008,2022-11-06_10h42.21.831,Reversal,2022.1.1,60.01064589279669,4,
17,exp3.png,exp4.png,,0,0,0,0,0,17,17,17,,,,,,,,,,,,,,,,,,,,,,,,,False,17,18,True,exp4.png,exp3.png,trial_right_image,-1,exp3.png,4,exp4.png,exp3.png,0,4,reversed,incorrect,0.23150302544591617,1,invalid_win,125.44865090001258,11,,,,,,,,,,,,,,,,sub_008,2022-11-06_10h42.21.831,Reversal,2022.1.1,60.01064589279669,4,
18,exp1.png,exp2.png,,0,0,0,0,0,18,18,18,,,,,,,,,,,,,,,,,,,,,,,,,False,18,19,True,exp2.png,exp1.png,trial_right_image,-1,exp1.png,4,exp2.png,exp1.png,0,2,non-reversed,incorrect,0.2619166168183593,0,valid_lose,129.98238760000095,11,,,,,,,,,,,,,,,,sub_008,2022-11-06_10h42.21.831,Reversal,2022.1.1,60.01064589279669,4,
19,exp3.png,exp4.png,,0,0,0,0,0,19,19,19,,,,,,,,,,,,,,,,,,,,,,,,,False,19,20,False,exp3.png,exp4.png,trial_left_image,1,exp3.png,4,exp4.png,exp3.png,0,4,reversed,incorrect,0.9503737064202439,0,valid_lose,135.14848600002006,11,,,,,,,,,,,,,,,,sub_008,2022-11-06_10h42.21.831,Reversal,2022.1.1,60.01064589279669,4,
20,exp1.png,exp2.png,,0,0,0,0,0,20,20,20,,,,,,,,,,,,,,,,,,,,,,,,,True,,,,,,,,,,,,,,,,,,,,,,,,,,,,,,,,,,,,sub_008,2022-11-06_10h42.21.831,Reversal,2022.1.1,60.01064589279669,4,
,,,exp1.png,0,0,0,0,,,,,0,0,0,0,0,0,0,0,,,,,,,,,,,,,,,,,,,,,,,,,,,,,,,,,,,,,,50.0,None,[],230.75456770000164,None,,,,,,,,,,,sub_008,2022-11-06_10h42.21.831,Reversal,2022.1.1,60.01064589279669,4,
,,,exp2.png,0,0,0,0,,,,,0,0,0,0,0,1,1,1,,,,,,,,,,,,,,,,,,,,,,,,,,,,,,,,,,,,,,50.0,None,[],253.7190607000084,None,,,,,,,,,,,sub_008,2022-11-06_10h42.21.831,Reversal,2022.1.1,60.01064589279669,4,
,,,exp3.png,0,0,0,0,,,,,0,0,0,0,0,2,2,2,,,,,,,,,,,,,,,,,,,,,,,,,,,,,,,,,,,,,,50.0,None,[],254.19864370001596,None,,,,,,,,,,,sub_008,2022-11-06_10h42.21.831,Reversal,2022.1.1,60.01064589279669,4,
,,,exp4.png,0,0,0,0,,,,,0,0,0,0,0,3,3,3,,,,,,,,,,,,,,,,,,,,,,,,,,,,,,,,,,,,,,50.0,None,[],254.662804600026,None,,,,,,,,,,,sub_008,2022-11-06_10h42.21.831,Reversal,2022.1.1,60.01064589279669,4,
0,exp1.png,exp2.png,,1,0,1,0,0,0,0,0,,,,,,,,,,,,,,,,,,,,,,,,,False,20,21,True,exp2.png,exp1.png,trial_left_image,1,exp2.png,4,exp2.png,exp1.png,1,1,non-reversed,correct,0.4796716641039718,1,valid_win,162.6243167000066,12,,,,,,,,,,,,,,,,sub_008,2022-11-06_10h42.21.831,Reversal,2022.1.1,60.01064589279669,4,
1,exp3.png,exp4.png,,1,0,1,0,0,1,1,1,,,,,,,,,,,,,,,,,,,,,,,,,False,21,22,True,exp4.png,exp3.png,trial_left_image,1,exp4.png,4,exp4.png,exp3.png,1,3,reversed,correct,0.8441625830070801,1,valid_win,171.22612490001484,13,,,,,,,,,,,,,,,,sub_008,2022-11-06_10h42.21.831,Reversal,2022.1.1,60.01064589279669,4,
2,exp1.png,exp2.png,,1,0,1,0,0,2,2,2,,,,,,,,,,,,,,,,,,,,,,,,,False,22,23,True,exp2.png,exp1.png,trial_right_image,-1,exp1.png,4,exp2.png,exp1.png,0,2,non-reversed,incorrect,0.6673495159338975,0,valid_lose,177.04382600000827,13,,,,,,,,,,,,,,,,sub_008,2022-11-06_10h42.21.831,Reversal,2022.1.1,60.01064589279669,4,
3,exp3.png,exp4.png,,1,0,1,0,0,3,3,3,,,,,,,,,,,,,,,,,,,,,,,,,False,23,24,False,exp3.png,exp4.png,trial_left_image,1,exp3.png,4,exp4.png,exp3.png,0,4,reversed,incorrect,0.43614007154884193,0,valid_lose,181.87555300001986,13,,,,,,,,,,,,,,,,sub_008,2022-11-06_10h42.21.831,Reversal,2022.1.1,60.01064589279669,4,
4,exp1.png,exp2.png,,1,0,1,0,0,4,4,4,,,,,,,,,,,,,,,,,,,,,,,,,False,24,25,False,exp1.png,exp2.png,trial_right_image,-1,exp2.png,4,exp2.png,exp1.png,1,1,non-reversed,correct,0.45615622916885823,1,valid_win,186.0749216999975,14,,,,,,,,,,,,,,,,sub_008,2022-11-06_10h42.21.831,Reversal,2022.1.1,60.01064589279669,4,
5,exp3.png,exp4.png,,1,0,1,0,0,5,5,5,,,,,,,,,,,,,,,,,,,,,,,,,False,25,26,True,exp4.png,exp3.png,trial_right_image,-1,exp3.png,4,exp4.png,exp3.png,0,4,reversed,incorrect,0.3015835202087832,0,valid_lose,190.67388930000016,14,,,,,,,,,,,,,,,,sub_008,2022-11-06_10h42.21.831,Reversal,2022.1.1,60.01064589279669,4,
6,exp1.png,exp2.png,,1,0,1,0,0,6,6,6,,,,,,,,,,,,,,,,,,,,,,,,,False,26,27,True,exp2.png,exp1.png,trial_right_image,-1,exp1.png,4,exp2.png,exp1.png,0,2,non-reversed,incorrect,0.5430715446197215,0,valid_lose,197.89163749999716,14,,,,,,,,,,,,,,,,sub_008,2022-11-06_10h42.21.831,Reversal,2022.1.1,60.01064589279669,4,
7,exp3.png,exp4.png,,1,0,1,0,0,7,7,7,,,,,,,,,,,,,,,,,,,,,,,,,False,27,28,False,exp3.png,exp4.png,trial_right_image,-1,exp4.png,4,exp4.png,exp3.png,1,3,reversed,correct,0.5265800260073416,1,valid_win,203.33913360000588,15,,,,,,,,,,,,,,,,sub_008,2022-11-06_10h42.21.831,Reversal,2022.1.1,60.01064589279669,4,
8,exp1.png,exp2.png,,1,0,1,0,0,8,8,8,,,,,,,,,,,,,,,,,,,,,,,,,False,28,29,True,exp2.png,exp1.png,trial_left_image,1,exp2.png,4,exp2.png,exp1.png,1,1,non-reversed,correct,0.37705792039313135,1,valid_win,207.83834720001323,16,,,,,,,,,,,,,,,,sub_008,2022-11-06_10h42.21.831,Reversal,2022.1.1,60.01064589279669,4,
9,exp3.png,exp4.png,,1,0,1,0,0,9,9,9,,,,,,,,,,,,,,,,,,,,,,,,,False,29,30,True,exp4.png,exp3.png,trial_right_image,-1,exp3.png,4,exp4.png,exp3.png,0,4,reversed,incorrect,0.7423395104144338,0,valid_lose,215.07101899999543,16,,,,,,,,,,,,,,,,sub_008,2022-11-06_10h42.21.831,Reversal,2022.1.1,60.01064589279669,4,
10,exp1.png,exp2.png,,1,0,1,0,0,10,10,10,,,,,,,,,,,,,,,,,,,,,,,,,False,30,31,False,exp1.png,exp2.png,trial_left_image,1,exp1.png,4,exp2.png,exp1.png,0,2,non-reversed,incorrect,0.1505662567108661,1,invalid_win,219.5041174000071,17,,,,,,,,,,,,,,,,sub_008,2022-11-06_10h42.21.831,Reversal,2022.1.1,60.01064589279669,4,
11,exp3.png,exp4.png,,1,0,1,0,0,11,11,11,,,,,,,,,,,,,,,,,,,,,,,,,False,31,32,False,exp3.png,exp4.png,trial_left_image,1,exp3.png,4,exp4.png,exp3.png,0,4,reversed,incorrect,0.9235604662212744,0,valid_lose,224.03624489999493,17,,,,,,,,,,,,,,,,sub_008,2022-11-06_10h42.21.831,Reversal,2022.1.1,60.01064589279669,4,
12,exp1.png,exp2.png,,1,0,1,0,0,12,12,12,,,,,,,,,,,,,,,,,,,,,,,,,False,32,33,False,exp1.png,exp2.png,trial_right_image,-1,exp2.png,4,exp2.png,exp1.png,1,1,non-reversed,correct,0.9262028415647985,1,valid_win,228.0857334000175,18,,,,,,,,,,,,,,,,sub_008,2022-11-06_10h42.21.831,Reversal,2022.1.1,60.01064589279669,4,
13,exp3.png,exp4.png,,1,0,1,0,0,13,13,13,,,,,,,,,,,,,,,,,,,,,,,,,False,33,34,False,exp3.png,exp4.png,trial_right_image,-1,exp4.png,4,exp4.png,exp3.png,1,3,reversed,correct,0.26466647732944715,1,valid_win,232.50158579999697,19,,,,,,,,,,,,,,,,sub_008,2022-11-06_10h42.21.831,Reversal,2022.1.1,60.01064589279669,4,
14,exp1.png,exp2.png,,1,0,1,0,0,14,14,14,,,,,,,,,,,,,,,,,,,,,,,,,False,34,35,False,exp1.png,exp2.png,trial_left_image,1,exp1.png,4,exp2.png,exp1.png,0,2,non-reversed,incorrect,0.2690230604445386,0,valid_lose,236.45102540001972,19,,,,,,,,,,,,,,,,sub_008,2022-11-06_10h42.21.831,Reversal,2022.1.1,60.01064589279669,4,
15,exp3.png,exp4.png,,1,0,1,0,0,15,15,15,,,,,,,,,,,,,,,,,,,,,,,,,False,35,36,True,exp4.png,exp3.png,trial_right_image,-1,exp3.png,4,exp4.png,exp3.png,0,4,reversed,incorrect,0.6603670667208378,0,valid_lose,240.38473310001427,19,,,,,,,,,,,,,,,,sub_008,2022-11-06_10h42.21.831,Reversal,2022.1.1,60.01064589279669,4,
16,exp1.png,exp2.png,,1,0,1,0,0,16,16,16,,,,,,,,,,,,,,,,,,,,,,,,,False,36,37,True,exp2.png,exp1.png,trial_left_image,1,exp2.png,4,exp2.png,exp1.png,1,1,non-reversed,correct,0.738950391321068,1,valid_win,244.6362719000026,20,,,,,,,,,,,,,,,,sub_008,2022-11-06_10h42.21.831,Reversal,2022.1.1,60.01064589279669,4,
17,exp3.png,exp4.png,,1,0,1,0,0,17,17,17,,,,,,,,,,,,,,,,,,,,,,,,,False,37,38,False,exp3.png,exp4.png,trial_left_image,1,exp3.png,4,exp4.png,exp3.png,0,4,reversed,incorrect,0.3677686170472745,0,valid_lose,249.2333049000008,20,,,,,,,,,,,,,,,,sub_008,2022-11-06_10h42.21.831,Reversal,2022.1.1,60.01064589279669,4,
18,exp1.png,exp2.png,,1,0,1,0,0,18,18,18,,,,,,,,,,,,,,,,,,,,,,,,,False,38,39,True,exp2.png,exp1.png,trial_right_image,-1,exp1.png,4,exp2.png,exp1.png,0,2,non-reversed,incorrect,0.5092786311880712,0,valid_lose,253.39959700001054,20,,,,,,,,,,,,,,,,sub_008,2022-11-06_10h42.21.831,Reversal,2022.1.1,60.01064589279669,4,
19,exp3.png,exp4.png,,1,0,1,0,0,19,19,19,,,,,,,,,,,,,,,,,,,,,,,,,False,39,40,False,exp3.png,exp4.png,trial_left_image,1,exp3.png,4,exp4.png,exp3.png,0,4,reversed,incorrect,0.2610927826689311,0,valid_lose,257.43428879999556,20,,,,,,,,,,,,,,,,sub_008,2022-11-06_10h42.21.831,Reversal,2022.1.1,60.01064589279669,4,
20,exp1.png,exp2.png,,1,0,1,0,0,20,20,20,,,,,,,,,,,,,,,,,,,,,,,,,True,,,,,,,,,,,,,,,,,,,,,,,,,,,,,,,,,,,,sub_008,2022-11-06_10h42.21.831,Reversal,2022.1.1,60.01064589279669,4,
,,,exp1.png,1,0,1,0,,,,,0,0,0,0,0,0,0,0,,,,,,,,,,,,,,,,,,,,,,,,,,,,,,,,,,,,,,76.0,2.3729049999965355,"[(50.0, 0.027400099992519245), (76.0, 2.3729049999965355)]",353.0593453000183,None,76.0,,,,,,,,,,sub_008,2022-11-06_10h42.21.831,Reversal,2022.1.1,60.01064589279669,4,
,,,exp2.png,1,0,1,0,,,,,0,0,0,0,0,1,1,1,,,,,,,,,,,,,,,,,,,,,,,,,,,,,,,,,,,,,,50.0,None,[],356.30035710000084,None,,,,,,,,,,,sub_008,2022-11-06_10h42.21.831,Reversal,2022.1.1,60.01064589279669,4,
,,,exp3.png,1,0,1,0,,,,,0,0,0,0,0,2,2,2,,,,,,,,,,,,,,,,,,,,,,,,,,,,,,,,,,,,,,36.0,3.672327700012829,"[(36.0, 3.672327700012829)]",363.38374770001974,None,,36.0,,,,,,,,,sub_008,2022-11-06_10h42.21.831,Reversal,2022.1.1,60.01064589279669,4,
,,,exp4.png,1,0,1,0,,,,,0,0,0,0,0,3,3,3,,,,,,,,,,,,,,,,,,,,,,,,,,,,,,,,,,,,,,66.0,2.2407279000035487,"[(66.0, 2.2407279000035487)]",367.86505960000795,None,,,66.0,,,,,,,,sub_008,2022-11-06_10h42.21.831,Reversal,2022.1.1,60.01064589279669,4,
0,exp1.png,exp2.png,,2,0,2,0,0,0,0,0,,,,,,,,,,,,,,,,,,,,,,,,,False,40,41,True,exp2.png,exp1.png,trial_left_image,1,exp2.png,4,exp2.png,exp1.png,1,1,non-reversed,correct,0.5113388119698042,1,valid_win,281.11313569999766,21,,,,,,,,,,,,,,,,sub_008,2022-11-06_10h42.21.831,Reversal,2022.1.1,60.01064589279669,4,
1,exp3.png,exp4.png,,2,0,2,0,0,1,1,1,,,,,,,,,,,,,,,,,,,,,,,,,False,41,42,False,exp3.png,exp4.png,trial_right_image,-1,exp4.png,4,exp4.png,exp3.png,1,3,reversed,correct,0.8738033988287985,1,valid_win,286.1123819000204,22,,,,,,,,,,,,,,,,sub_008,2022-11-06_10h42.21.831,Reversal,2022.1.1,60.01064589279669,4,
2,exp1.png,exp2.png,,2,0,2,0,0,2,2,2,,,,,,,,,,,,,,,,,,,,,,,,,False,42,43,False,exp1.png,exp2.png,trial_left_image,1,exp1.png,4,exp2.png,exp1.png,0,2,non-reversed,incorrect,0.9016978437137704,0,valid_lose,298.9263629000052,22,,,,,,,,,,,,,,,,sub_008,2022-11-06_10h42.21.831,Reversal,2022.1.1,60.01064589279669,4,
3,exp3.png,exp4.png,,2,0,2,0,0,3,3,3,,,,,,,,,,,,,,,,,,,,,,,,,False,43,44,False,exp3.png,exp4.png,trial_right_image,-1,exp4.png,4,exp4.png,exp3.png,1,3,reversed,correct,0.9124811040248533,1,valid_win,302.86007960001007,23,,,,,,,,,,,,,,,,sub_008,2022-11-06_10h42.21.831,Reversal,2022.1.1,60.01064589279669,4,
4,exp1.png,exp2.png,,2,0,2,0,0,4,4,4,,,,,,,,,,,,,,,,,,,,,,,,,False,44,45,False,exp1.png,exp2.png,trial_right_image,-1,exp2.png,4,exp2.png,exp1.png,1,1,non-reversed,correct,0.3277751916953249,1,valid_win,307.14257650001673,24,,,,,,,,,,,,,,,,sub_008,2022-11-06_10h42.21.831,Reversal,2022.1.1,60.01064589279669,4,
5,exp3.png,exp4.png,,2,0,2,0,0,5,5,5,,,,,,,,,,,,,,,,,,,,,,,,,False,45,46,True,exp4.png,exp3.png,trial_left_image,1,exp4.png,4,exp4.png,exp3.png,1,3,reversed,correct,0.8090156658505105,1,valid_win,311.6415272000013,25,,,,,,,,,,,,,,,,sub_008,2022-11-06_10h42.21.831,Reversal,2022.1.1,60.01064589279669,4,
6,exp1.png,exp2.png,,2,0,2,0,0,6,6,6,,,,,,,,,,,,,,,,,,,,,,,,,False,46,47,True,exp2.png,exp1.png,trial_left_image,1,exp2.png,4,exp2.png,exp1.png,1,1,non-reversed,correct,0.8727371091582026,1,valid_win,316.0576119000034,26,,,,,,,,,,,,,,,,sub_008,2022-11-06_10h42.21.831,Reversal,2022.1.1,60.01064589279669,4,
7,exp3.png,exp4.png,,2,0,2,0,0,7,7,7,,,,,,,,,,,,,,,,,,,,,,,,,False,47,48,False,exp3.png,exp4.png,trial_right_image,-1,exp4.png,4,exp4.png,exp3.png,1,3,reversed,correct,0.4824163974742489,1,valid_win,319.97523670000373,27,,,,,,,,,,,,,,,,sub_008,2022-11-06_10h42.21.831,Reversal,2022.1.1,60.01064589279669,4,
8,exp1.png,exp2.png,,2,0,2,0,0,8,8,8,,,,,,,,,,,,,,,,,,,,,,,,,False,48,49,False,exp1.png,exp2.png,trial_left_image,1,exp1.png,4,exp2.png,exp1.png,0,2,non-reversed,incorrect,0.10513393872191457,1,invalid_win,324.2899285000167,28,,,,,,,,,,,,,,,,sub_008,2022-11-06_10h42.21.831,Reversal,2022.1.1,60.01064589279669,4,
9,exp3.png,exp4.png,,2,0,2,0,0,9,9,9,,,,,,,,,,,,,,,,,,,,,,,,,False,49,50,False,exp3.png,exp4.png,trial_right_image,-1,exp4.png,4,exp4.png,exp3.png,1,3,reversed,correct,0.8248414643460512,1,valid_win,328.20620290000807,29,,,,,,,,,,,,,,,,sub_008,2022-11-06_10h42.21.831,Reversal,2022.1.1,60.01064589279669,4,
10,exp1.png,exp2.png,,2,0,2,0,0,10,10,10,,,,,,,,,,,,,,,,,,,,,,,,,False,50,51,True,exp2.png,exp1.png,trial_right_image,-1,exp1.png,4,exp2.png,exp1.png,0,2,non-reversed,incorrect,0.5096715018937686,0,valid_lose,332.1560707000026,29,,,,,,,,,,,,,,,,sub_008,2022-11-06_10h42.21.831,Reversal,2022.1.1,60.01064589279669,4,
11,exp3.png,exp4.png,,2,0,2,0,0,11,11,11,,,,,,,,,,,,,,,,,,,,,,,,,False,51,52,True,exp4.png,exp3.png,trial_left_image,1,exp4.png,4,exp4.png,exp3.png,1,3,reversed,correct,0.08804541609690586,0,invalid_lose,336.18836400000146,29,,,,,,,,,,,,,,,,sub_008,2022-11-06_10h42.21.831,Reversal,2022.1.1,60.01064589279669,4,
12,exp1.png,exp2.png,,2,0,2,0,0,12,12,12,,,,,,,,,,,,,,,,,,,,,,,,,False,52,53,False,exp1.png,exp2.png,trial_left_image,1,exp1.png,4,exp2.png,exp1.png,0,2,non-reversed,incorrect,0.4804973621118114,0,valid_lose,340.6382245999994,29,,,,,,,,,,,,,,,,sub_008,2022-11-06_10h42.21.831,Reversal,2022.1.1,60.01064589279669,4,
13,exp3.png,exp4.png,,2,0,2,0,0,13,13,13,,,,,,,,,,,,,,,,,,,,,,,,,False,53,54,True,exp4.png,exp3.png,trial_right_image,-1,exp3.png,4,exp4.png,exp3.png,0,4,reversed,incorrect,0.4315948444891071,0,valid_lose,344.4902449999936,29,,,,,,,,,,,,,,,,sub_008,2022-11-06_10h42.21.831,Reversal,2022.1.1,60.01064589279669,4,
14,exp1.png,exp2.png,,2,0,2,0,0,14,14,14,,,,,,,,,,,,,,,,,,,,,,,,,False,54,55,False,exp1.png,exp2.png,trial_left_image,1,exp1.png,4,exp2.png,exp1.png,0,2,non-reversed,incorrect,0.20989316768888933,1,invalid_win,348.47069570000167,30,,,,,,,,,,,,,,,,sub_008,2022-11-06_10h42.21.831,Reversal,2022.1.1,60.01064589279669,4,
15,exp3.png,exp4.png,,2,0,2,0,0,15,15,15,,,,,,,,,,,,,,,,,,,,,,,,,False,55,56,True,exp4.png,exp3.png,trial_right_image,-1,exp3.png,4,exp4.png,exp3.png,0,4,reversed,incorrect,0.3520238060548977,0,valid_lose,352.45298649999313,30,,,,,,,,,,,,,,,,sub_008,2022-11-06_10h42.21.831,Reversal,2022.1.1,60.01064589279669,4,
16,exp1.png,exp2.png,,2,0,2,0,0,16,16,16,,,,,,,,,,,,,,,,,,,,,,,,,False,56,57,True,exp2.png,exp1.png,trial_left_image,1,exp2.png,4,exp2.png,exp1.png,1,1,non-reversed,correct,0.2694437633120941,1,valid_win,356.48517980001634,31,,,,,,,,,,,,,,,,sub_008,2022-11-06_10h42.21.831,Reversal,2022.1.1,60.01064589279669,4,
17,exp3.png,exp4.png,,2,0,2,0,0,17,17,17,,,,,,,,,,,,,,,,,,,,,,,,,False,57,58,True,exp4.png,exp3.png,trial_left_image,1,exp4.png,4,exp4.png,exp3.png,1,3,reversed,correct,0.6684477293072997,1,valid_win,360.5686830000195,32,,,,,,,,,,,,,,,,sub_008,2022-11-06_10h42.21.831,Reversal,2022.1.1,60.01064589279669,4,
18,exp1.png,exp2.png,,2,0,2,0,0,18,18,18,,,,,,,,,,,,,,,,,,,,,,,,,False,58,59,False,exp1.png,exp2.png,trial_left_image,1,exp1.png,4,exp2.png,exp1.png,0,2,non-reversed,incorrect,0.6521812548196803,0,valid_lose,364.668513600016,32,,,,,,,,,,,,,,,,sub_008,2022-11-06_10h42.21.831,Reversal,2022.1.1,60.01064589279669,4,
19,exp3.png,exp4.png,,2,0,2,0,0,19,19,19,,,,,,,,,,,,,,,,,,,,,,,,,False,59,60,True,exp4.png,exp3.png,trial_right_image,-1,exp3.png,4,exp4.png,exp3.png,0,4,reversed,incorrect,0.25185883286501853,0,valid_lose,368.8343632000033,32,,,,,,,,,,,,,,,,sub_008,2022-11-06_10h42.21.831,Reversal,2022.1.1,60.01064589279669,4,
20,exp1.png,exp2.png,,2,0,2,0,0,20,20,20,,,,,,,,,,,,,,,,,,,,,,,,,True,,,,,,,,,,,,,,,,,,,,,,,,,,,,,,,,,,,,sub_008,2022-11-06_10h42.21.831,Reversal,2022.1.1,60.01064589279669,4,
,,,exp1.png,2,0,2,0,,,,,0,0,0,0,0,0,0,0,,,,,,,,,,,,,,,,,,,,,,,,,,,,,,,,,,,,,,50.0,None,[],464.45015680001234,None,,,,,,,,,,,sub_008,2022-11-06_10h42.21.831,Reversal,2022.1.1,60.01064589279669,4,
,,,exp2.png,2,0,2,0,,,,,0,0,0,0,0,1,1,1,,,,,,,,,,,,,,,,,,,,,,,,,,,,,,,,,,,,,,50.0,None,[],470.666698200017,None,,,,,,,,,,,sub_008,2022-11-06_10h42.21.831,Reversal,2022.1.1,60.01064589279669,4,
,,,exp3.png,2,0,2,0,,,,,0,0,0,0,0,2,2,2,,,,,,,,,,,,,,,,,,,,,,,,,,,,,,,,,,,,,,50.0,None,[],473.33442490000743,None,,,,,,,,,,,sub_008,2022-11-06_10h42.21.831,Reversal,2022.1.1,60.01064589279669,4,
,,,exp4.png,2,0,2,0,,,,,0,0,0,0,0,3,3,3,,,,,,,,,,,,,,,,,,,,,,,,,,,,,,,,,,,,,,50.0,None,[],474.7542003999988,None,,,,,,,,,,,sub_008,2022-11-06_10h42.21.831,Reversal,2022.1.1,60.01064589279669,4,
0,exp1.png,exp2.png,,3,0,3,0,0,0,0,0,,,,,,,,,,,,,,,,,,,,,,,,,False,60,61,True,exp2.png,exp1.png,trial_left_image,1,exp2.png,4,exp2.png,exp1.png,1,1,non-reversed,correct,0.12351626569812257,0,invalid_lose,384.58248700000695,32,,,,,,,,,,,,,,,,sub_008,2022-11-06_10h42.21.831,Reversal,2022.1.1,60.01064589279669,4,
1,exp3.png,exp4.png,,3,0,3,0,0,1,1,1,,,,,,,,,,,,,,,,,,,,,,,,,False,61,62,True,exp4.png,exp3.png,trial_right_image,-1,exp3.png,4,exp4.png,exp3.png,0,4,reversed,incorrect,0.08763075485978011,1,invalid_win,388.53196730001946,33,,,,,,,,,,,,,,,,sub_008,2022-11-06_10h42.21.831,Reversal,2022.1.1,60.01064589279669,4,
2,exp1.png,exp2.png,,3,0,3,0,0,2,2,2,,,,,,,,,,,,,,,,,,,,,,,,,False,62,63,False,exp1.png,exp2.png,trial_right_image,-1,exp2.png,4,exp2.png,exp1.png,1,1,non-reversed,correct,0.4838634122273331,1,valid_win,393.3314188999939,34,,,,,,,,,,,,,,,,sub_008,2022-11-06_10h42.21.831,Reversal,2022.1.1,60.01064589279669,4,
3,exp3.png,exp4.png,,3,0,3,0,0,3,3,3,,,,,,,,,,,,,,,,,,,,,,,,,False,63,64,True,exp4.png,exp3.png,trial_left_image,1,exp4.png,4,exp4.png,exp3.png,1,3,reversed,correct,0.8453141061156997,1,valid_win,397.43104130000575,35,,,,,,,,,,,,,,,,sub_008,2022-11-06_10h42.21.831,Reversal,2022.1.1,60.01064589279669,4,
4,exp1.png,exp2.png,,3,0,3,0,0,4,4,4,,,,,,,,,,,,,,,,,,,,,,,,,False,64,65,False,exp1.png,exp2.png,trial_right_image,-1,exp2.png,4,exp2.png,exp1.png,1,1,non-reversed,correct,0.16949749432471783,0,invalid_lose,401.6798978000006,35,,,,,,,,,,,,,,,,sub_008,2022-11-06_10h42.21.831,Reversal,2022.1.1,60.01064589279669,4,
5,exp3.png,exp4.png,,3,0,3,0,0,5,5,5,,,,,,,,,,,,,,,,,,,,,,,,,False,65,66,True,exp4.png,exp3.png,trial_left_image,1,exp4.png,4,exp4.png,exp3.png,1,3,reversed,correct,0.7718952219356375,1,valid_win,405.73021710000467,36,,,,,,,,,,,,,,,,sub_008,2022-11-06_10h42.21.831,Reversal,2022.1.1,60.01064589279669,4,
6,exp1.png,exp2.png,,3,0,3,0,0,6,6,6,,,,,,,,,,,,,,,,,,,,,,,,,False,66,67,False,exp1.png,exp2.png,trial_left_image,1,exp1.png,4,exp2.png,exp1.png,0,2,non-reversed,incorrect,0.6489329917390418,0,valid_lose,409.7791584999941,36,,,,,,,,,,,,,,,,sub_008,2022-11-06_10h42.21.831,Reversal,2022.1.1,60.01064589279669,4,
7,exp3.png,exp4.png,,3,0,3,0,0,7,7,7,,,,,,,,,,,,,,,,,,,,,,,,,False,67,68,True,exp4.png,exp3.png,trial_right_image,-1,exp3.png,4,exp4.png,exp3.png,0,4,reversed,incorrect,0.5524675242060402,0,valid_lose,413.69665570001234,36,,,,,,,,,,,,,,,,sub_008,2022-11-06_10h42.21.831,Reversal,2022.1.1,60.01064589279669,4,
8,exp1.png,exp2.png,,3,0,3,0,0,8,8,8,,,,,,,,,,,,,,,,,,,,,,,,,False,68,69,False,exp1.png,exp2.png,trial_left_image,1,exp1.png,4,exp2.png,exp1.png,0,2,non-reversed,incorrect,0.9464005777326567,0,valid_lose,417.9123829000164,36,,,,,,,,,,,,,,,,sub_008,2022-11-06_10h42.21.831,Reversal,2022.1.1,60.01064589279669,4,
9,exp3.png,exp4.png,,3,0,3,0,0,9,9,9,,,,,,,,,,,,,,,,,,,,,,,,,False,69,70,True,exp4.png,exp3.png,trial_right_image,-1,exp3.png,4,exp4.png,exp3.png,0,4,reversed,incorrect,0.025391594589928124,1,invalid_win,421.794323500013,37,,,,,,,,,,,,,,,,sub_008,2022-11-06_10h42.21.831,Reversal,2022.1.1,60.01064589279669,4,
10,exp1.png,exp2.png,,3,0,3,0,0,10,10,10,,,,,,,,,,,,,,,,,,,,,,,,,False,70,71,True,exp2.png,exp1.png,trial_right_image,-1,exp1.png,4,exp2.png,exp1.png,0,2,non-reversed,incorrect,0.14085258999967853,1,invalid_win,425.74503910000203,38,,,,,,,,,,,,,,,,sub_008,2022-11-06_10h42.21.831,Reversal,2022.1.1,60.01064589279669,4,
11,exp3.png,exp4.png,,3,0,3,0,0,11,11,11,,,,,,,,,,,,,,,,,,,,,,,,,False,71,72,False,exp3.png,exp4.png,trial_left_image,1,exp3.png,4,exp4.png,exp3.png,0,4,reversed,incorrect,0.9067301194709663,0,valid_lose,430.2935087000078,38,,,,,,,,,,,,,,,,sub_008,2022-11-06_10h42.21.831,Reversal,2022.1.1,60.01064589279669,4,
12,exp1.png,exp2.png,,3,0,3,0,0,12,12,12,,,,,,,,,,,,,,,,,,,,,,,,,False,72,73,False,exp1.png,exp2.png,trial_right_image,-1,exp2.png,4,exp2.png,exp1.png,1,1,non-reversed,correct,0.5059006189617136,1,valid_win,434.24471590001485,39,,,,,,,,,,,,,,,,sub_008,2022-11-06_10h42.21.831,Reversal,2022.1.1,60.01064589279669,4,
13,exp3.png,exp4.png,,3,0,3,0,0,13,13,13,,,,,,,,,,,,,,,,,,,,,,,,,False,73,74,True,exp4.png,exp3.png,trial_right_image,-1,exp3.png,4,exp4.png,exp3.png,0,4,reversed,incorrect,0.020835837286554804,1,invalid_win,438.3920410000137,40,,,,,,,,,,,,,,,,sub_008,2022-11-06_10h42.21.831,Reversal,2022.1.1,60.01064589279669,4,
14,exp1.png,exp2.png,,3,0,3,0,0,14,14,14,,,,,,,,,,,,,,,,,,,,,,,,,False,74,75,True,exp2.png,exp1.png,trial_right_image,-1,exp1.png,4,exp2.png,exp1.png,0,2,non-reversed,incorrect,0.791922037965375,0,valid_lose,442.32460849999916,40,,,,,,,,,,,,,,,,sub_008,2022-11-06_10h42.21.831,Reversal,2022.1.1,60.01064589279669,4,
15,exp3.png,exp4.png,,3,0,3,0,0,15,15,15,,,,,,,,,,,,,,,,,,,,,,,,,False,75,76,False,exp3.png,exp4.png,trial_left_image,1,exp3.png,4,exp4.png,exp3.png,0,4,reversed,incorrect,0.27155586373578,0,valid_lose,446.276153600018,40,,,,,,,,,,,,,,,,sub_008,2022-11-06_10h42.21.831,Reversal,2022.1.1,60.01064589279669,4,
16,exp1.png,exp2.png,,3,0,3,0,0,16,16,16,,,,,,,,,,,,,,,,,,,,,,,,,False,76,77,False,exp1.png,exp2.png,trial_right_image,-1,exp2.png,4,exp2.png,exp1.png,1,1,non-reversed,correct,0.5457056343225476,1,valid_win,450.1567930000019,41,,,,,,,,,,,,,,,,sub_008,2022-11-06_10h42.21.831,Reversal,2022.1.1,60.01064589279669,4,
17,exp3.png,exp4.png,,3,0,3,0,0,17,17,17,,,,,,,,,,,,,,,,,,,,,,,,,False,77,78,False,exp3.png,exp4.png,trial_right_image,-1,exp4.png,4,exp4.png,exp3.png,1,3,reversed,correct,0.3904815466968967,1,valid_win,454.42318120002165,42,,,,,,,,,,,,,,,,sub_008,2022-11-06_10h42.21.831,Reversal,2022.1.1,60.01064589279669,4,
18,exp1.png,exp2.png,,3,0,3,0,0,18,18,18,,,,,,,,,,,,,,,,,,,,,,,,,False,78,79,False,exp1.png,exp2.png,trial_left_image,1,exp1.png,4,exp2.png,exp1.png,0,2,non-reversed,incorrect,0.06946874679777337,1,invalid_win,458.37268950001453,43,,,,,,,,,,,,,,,,sub_008,2022-11-06_10h42.21.831,Reversal,2022.1.1,60.01064589279669,4,
19,exp3.png,exp4.png,,3,0,3,0,0,19,19,19,,,,,,,,,,,,,,,,,,,,,,,,,False,79,80,True,exp4.png,exp3.png,trial_left_image,1,exp4.png,4,exp4.png,exp3.png,1,3,reversed,correct,0.6757111870585613,1,valid_win,462.6741854000138,44,,,,,,,,,,,,,,,,sub_008,2022-11-06_10h42.21.831,Reversal,2022.1.1,60.01064589279669,4,
20,exp1.png,exp2.png,,3,0,3,0,0,20,20,20,,,,,,,,,,,,,,,,,,,,,,,,,True,,,,,,,,,,,,,,,,,,,,,,,,,,,,,,,,,,,,sub_008,2022-11-06_10h42.21.831,Reversal,2022.1.1,60.01064589279669,4,
,,,exp1.png,3,0,3,0,,,,,0,0,0,0,0,0,0,0,,,,,,,,,,,,,,,,,,,,,,,,,,,,,,,,,,,,,,65.0,5.647620500007179,"[(65.0, 5.647620500007179)]",558.2890927999979,None,65.0,,,,,,,,,,sub_008,2022-11-06_10h42.21.831,Reversal,2022.1.1,60.01064589279669,4,
,,,exp2.png,3,0,3,0,,,,,0,0,0,0,0,1,1,1,,,,,,,,,,,,,,,,,,,,,,,,,,,,,,,,,,,,,,73.0,1.291843599989079,"[(73.0, 1.291843599989079)]",565.1046818000032,None,,,,73.0,,,,,,,sub_008,2022-11-06_10h42.21.831,Reversal,2022.1.1,60.01064589279669,4,
,,,exp3.png,3,0,3,0,,,,,0,0,0,0,0,2,2,2,,,,,,,,,,,,,,,,,,,,,,,,,,,,,,,,,,,,,,92.0,1.387572600011481,"[(92.0, 1.387572600011481)]",567.6255483000132,None,,92.0,,,,,,,,,sub_008,2022-11-06_10h42.21.831,Reversal,2022.1.1,60.01064589279669,4,
,,,exp4.png,3,0,3,0,,,,,0,0,0,0,0,3,3,3,,,,,,,,,,,,,,,,,,,,,,,,,,,,,,,,,,,,,,7.0,1.5075597999966703,"[(7.0, 1.5075597999966703)]",570.3385685000103,None,,,7.0,,,,,,,,sub_008,2022-11-06_10h42.21.831,Reversal,2022.1.1,60.01064589279669,4,
0,exp1.png,exp2.png,,,,,,,,,,,,,,,,,,0,0,0,0,0,0,0,0,,,,,,,,,False,0,81,True,exp2.png,exp1.png,trial_right_image,-1,exp1.png,4,exp2.png,exp1.png,0,2,non-reversed,incorrect,0.45187342927094387,0,valid_lose,482.1371909000154,44,,,,,,,,,,479.81319919999805,,,,,,sub_008,2022-11-06_10h42.21.831,Reversal,2022.1.1,60.01064589279669,4,
1,exp3.png,exp4.png,,,,,,,,,,,,,,,,,,0,0,0,0,0,1,1,1,,,,,,,,,False,1,82,True,exp4.png,exp3.png,trial_left_image,1,exp4.png,4,exp3.png,exp4.png,1,3,reversed,incorrect,0.778654832451892,0,valid_lose,486.35301849999814,44,,,,,,,,,,,,,,,,sub_008,2022-11-06_10h42.21.831,Reversal,2022.1.1,60.01064589279669,4,
2,exp1.png,exp2.png,,,,,,,,,,,,,,,,,,0,0,0,0,0,2,2,2,,,,,,,,,False,2,83,False,exp1.png,exp2.png,trial_right_image,-1,exp2.png,4,exp2.png,exp1.png,1,1,non-reversed,correct,0.6961374801324325,1,valid_win,490.3015602999949,45,,,,,,,,,,,,,,,,sub_008,2022-11-06_10h42.21.831,Reversal,2022.1.1,60.01064589279669,4,
3,exp3.png,exp4.png,,,,,,,,,,,,,,,,,,0,0,0,0,0,3,3,3,,,,,,,,,False,3,84,False,exp3.png,exp4.png,trial_right_image,-1,exp4.png,4,exp3.png,exp4.png,1,3,reversed,incorrect,0.32634158263572677,0,valid_lose,494.384570299997,45,,,,,,,,,,,,,,,,sub_008,2022-11-06_10h42.21.831,Reversal,2022.1.1,60.01064589279669,4,
4,exp1.png,exp2.png,,,,,,,,,,,,,,,,,,0,0,0,0,0,4,4,4,,,,,,,,,False,4,85,False,exp1.png,exp2.png,trial_left_image,1,exp1.png,4,exp2.png,exp1.png,0,2,non-reversed,incorrect,0.8753722498647079,0,valid_lose,498.58705200001714,45,,,,,,,,,,,,,,,,sub_008,2022-11-06_10h42.21.831,Reversal,2022.1.1,60.01064589279669,4,
5,exp3.png,exp4.png,,,,,,,,,,,,,,,,,,0,0,0,0,0,5,5,5,,,,,,,,,False,5,86,False,exp3.png,exp4.png,trial_right_image,-1,exp4.png,4,exp3.png,exp4.png,1,3,reversed,incorrect,0.7138003022200474,0,valid_lose,502.55038709999644,45,,,,,,,,,,,,,,,,sub_008,2022-11-06_10h42.21.831,Reversal,2022.1.1,60.01064589279669,4,
6,exp1.png,exp2.png,,,,,,,,,,,,,,,,,,0,0,0,0,0,6,6,6,,,,,,,,,False,6,87,True,exp2.png,exp1.png,trial_right_image,-1,exp1.png,4,exp2.png,exp1.png,0,2,non-reversed,incorrect,0.7254115672577591,0,valid_lose,507.2329005000065,45,,,,,,,,,,,,,,,,sub_008,2022-11-06_10h42.21.831,Reversal,2022.1.1,60.01064589279669,4,
7,exp3.png,exp4.png,,,,,,,,,,,,,,,,,,0,0,0,0,0,7,7,7,,,,,,,,,False,7,88,False,exp3.png,exp4.png,trial_left_image,1,exp3.png,4,exp3.png,exp4.png,0,4,reversed,correct,0.19991057196875306,0,invalid_lose,511.2164396000153,45,,,,,,,,,,,,,,,,sub_008,2022-11-06_10h42.21.831,Reversal,2022.1.1,60.01064589279669,4,
8,exp1.png,exp2.png,,,,,,,,,,,,,,,,,,0,0,0,0,0,8,8,8,,,,,,,,,False,8,89,True,exp2.png,exp1.png,trial_right_image,-1,exp1.png,4,exp2.png,exp1.png,0,2,non-reversed,incorrect,0.8735126593982205,0,valid_lose,515.1326595999999,45,,,,,,,,,,,,,,,,sub_008,2022-11-06_10h42.21.831,Reversal,2022.1.1,60.01064589279669,4,
9,exp3.png,exp4.png,,,,,,,,,,,,,,,,,,0,0,0,0,0,9,9,9,,,,,,,,,False,9,90,False,exp3.png,exp4.png,trial_left_image,1,exp3.png,4,exp3.png,exp4.png,0,4,reversed,correct,0.35209061959897203,1,valid_win,519.2344430999947,46,,,,,,,,,,,,,,,,sub_008,2022-11-06_10h42.21.831,Reversal,2022.1.1,60.01064589279669,4,
10,exp1.png,exp2.png,,,,,,,,,,,,,,,,,,0,0,0,0,0,10,10,10,,,,,,,,,False,10,91,False,exp1.png,exp2.png,trial_left_image,1,exp1.png,4,exp2.png,exp1.png,0,2,non-reversed,incorrect,0.02267445040987004,1,invalid_win,523.1978539999982,47,,,,,,,,,,,,,,,,sub_008,2022-11-06_10h42.21.831,Reversal,2022.1.1,60.01064589279669,4,
11,exp3.png,exp4.png,,,,,,,,,,,,,,,,,,0,0,0,0,0,11,11,11,,,,,,,,,False,11,92,True,exp4.png,exp3.png,trial_right_image,-1,exp3.png,4,exp3.png,exp4.png,0,4,reversed,correct,0.002304987223925581,0,invalid_lose,527.1475643000158,47,,,,,,,,,,,,,,,,sub_008,2022-11-06_10h42.21.831,Reversal,2022.1.1,60.01064589279669,4,
12,exp1.png,exp2.png,,,,,,,,,,,,,,,,,,0,0,0,0,0,12,12,12,,,,,,,,,False,12,93,False,exp1.png,exp2.png,trial_right_image,-1,exp2.png,4,exp2.png,exp1.png,1,1,non-reversed,correct,0.4573699026226826,1,valid_win,531.0801138000097,48,,,,,,,,,,,,,,,,sub_008,2022-11-06_10h42.21.831,Reversal,2022.1.1,60.01064589279669,4,
13,exp3.png,exp4.png,,,,,,,,,,,,,,,,,,0,0,0,0,0,13,13,13,,,,,,,,,False,13,94,False,exp3.png,exp4.png,trial_right_image,-1,exp4.png,4,exp3.png,exp4.png,1,3,reversed,incorrect,0.9246203854444698,0,valid_lose,534.9800746999972,48,,,,,,,,,,,,,,,,sub_008,2022-11-06_10h42.21.831,Reversal,2022.1.1,60.01064589279669,4,
14,exp1.png,exp2.png,,,,,,,,,,,,,,,,,,0,0,0,0,0,14,14,14,,,,,,,,,False,14,95,True,exp2.png,exp1.png,trial_left_image,1,exp2.png,4,exp2.png,exp1.png,1,1,non-reversed,correct,0.5465798882945259,1,valid_win,539.3478377000138,49,,,,,,,,,,,,,,,,sub_008,2022-11-06_10h42.21.831,Reversal,2022.1.1,60.01064589279669,4,
15,exp3.png,exp4.png,,,,,,,,,,,,,,,,,,0,0,0,0,0,15,15,15,,,,,,,,,False,15,96,True,exp4.png,exp3.png,trial_left_image,1,exp4.png,4,exp3.png,exp4.png,1,3,reversed,incorrect,0.4414404755032727,0,valid_lose,543.5281571999949,49,,,,,,,,,,,,,,,,sub_008,2022-11-06_10h42.21.831,Reversal,2022.1.1,60.01064589279669,4,
16,exp1.png,exp2.png,,,,,,,,,,,,,,,,,,0,0,0,0,0,16,16,16,,,,,,,,,False,16,97,True,exp2.png,exp1.png,trial_right_image,-1,exp1.png,4,exp2.png,exp1.png,0,2,non-reversed,incorrect,0.683945945966346,0,valid_lose,547.3777604000061,49,,,,,,,,,,,,,,,,sub_008,2022-11-06_10h42.21.831,Reversal,2022.1.1,60.01064589279669,4,
17,exp3.png,exp4.png,,,,,,,,,,,,,,,,,,0,0,0,0,0,17,17,17,,,,,,,,,False,17,98,False,exp3.png,exp4.png,trial_right_image,-1,exp4.png,4,exp3.png,exp4.png,1,3,reversed,incorrect,0.8469773281974622,0,valid_lose,551.3111786000081,49,,,,,,,,,,,,,,,,sub_008,2022-11-06_10h42.21.831,Reversal,2022.1.1,60.01064589279669,4,
18,exp1.png,exp2.png,,,,,,,,,,,,,,,,,,0,0,0,0,0,18,18,18,,,,,,,,,False,18,99,True,exp2.png,exp1.png,trial_right_image,-1,exp1.png,4,exp2.png,exp1.png,0,2,non-reversed,incorrect,0.1602535264544681,1,invalid_win,554.7270160000189,50,,,,,,,,,,,,,,,,sub_008,2022-11-06_10h42.21.831,Reversal,2022.1.1,60.01064589279669,4,
19,exp3.png,exp4.png,,,,,,,,,,,,,,,,,,0,0,0,0,0,19,19,19,,,,,,,,,False,19,100,True,exp4.png,exp3.png,trial_right_image,-1,exp3.png,4,exp3.png,exp4.png,0,4,reversed,correct,0.2636541613912312,1,valid_win,558.6596217000042,51,,,,,,,,,,,,,,,,sub_008,2022-11-06_10h42.21.831,Reversal,2022.1.1,60.01064589279669,4,
20,exp1.png,exp2.png,,,,,,,,,,,,,,,,,,0,0,0,0,0,20,20,20,,,,,,,,,True,,,,,,,,,,,,,,,,,,,,,,,,,,,,,,,,,,,,sub_008,2022-11-06_10h42.21.831,Reversal,2022.1.1,60.01064589279669,4,
,,,exp1.png,,,,,,,,,,,,,,,,,0,0,0,0,,,,,0,0,0,0,0,0,0,0,,,,,,,,,,,,,,,,,,,,,,50.0,None,[],654.2693270000163,None,,,,,,,,,,,sub_008,2022-11-06_10h42.21.831,Reversal,2022.1.1,60.01064589279669,4,
,,,exp2.png,,,,,,,,,,,,,,,,,0,0,0,0,,,,,0,0,0,0,0,1,1,1,,,,,,,,,,,,,,,,,,,,,,50.0,None,[],662.9957616000029,None,,,,,,,,,,,sub_008,2022-11-06_10h42.21.831,Reversal,2022.1.1,60.01064589279669,4,
,,,exp3.png,,,,,,,,,,,,,,,,,0,0,0,0,,,,,0,0,0,0,0,2,2,2,,,,,,,,,,,,,,,,,,,,,,50.0,None,[],664.827790100011,None,,,,,,,,,,,sub_008,2022-11-06_10h42.21.831,Reversal,2022.1.1,60.01064589279669,4,
,,,exp4.png,,,,,,,,,,,,,,,,,0,0,0,0,,,,,0,0,0,0,0,3,3,3,,,,,,,,,,,,,,,,,,,,,,50.0,None,[],668.5724973000179,None,,,,,,,,,,,sub_008,2022-11-06_10h42.21.831,Reversal,2022.1.1,60.01064589279669,4,
0,exp1.png,exp2.png,,,,,,,,,,,,,,,,,,1,0,1,0,0,0,0,0,,,,,,,,,False,20,101,True,exp2.png,exp1.png,trial_left_image,1,exp2.png,4,exp2.png,exp1.png,1,1,non-reversed,correct,0.6989639335197471,1,valid_win,578.7400268000201,52,,,,,,,,,,,,,,,,sub_008,2022-11-06_10h42.21.831,Reversal,2022.1.1,60.01064589279669,4,
1,exp3.png,exp4.png,,,,,,,,,,,,,,,,,,1,0,1,0,0,1,1,1,,,,,,,,,False,21,102,True,exp4.png,exp3.png,trial_left_image,1,exp4.png,4,exp3.png,exp4.png,1,3,reversed,incorrect,0.6256004053878821,0,valid_lose,591.3887052999926,52,,,,,,,,,,,,,,,,sub_008,2022-11-06_10h42.21.831,Reversal,2022.1.1,60.01064589279669,4,
2,exp1.png,exp2.png,,,,,,,,,,,,,,,,,,1,0,1,0,0,2,2,2,,,,,,,,,False,22,103,True,exp2.png,exp1.png,trial_right_image,-1,exp1.png,4,exp2.png,exp1.png,0,2,non-reversed,incorrect,0.07152518558851828,1,invalid_win,601.8049904000072,53,,,,,,,,,,,,,,,,sub_008,2022-11-06_10h42.21.831,Reversal,2022.1.1,60.01064589279669,4,
3,exp3.png,exp4.png,,,,,,,,,,,,,,,,,,1,0,1,0,0,3,3,3,,,,,,,,,False,23,104,True,exp4.png,exp3.png,trial_left_image,1,exp4.png,4,exp3.png,exp4.png,1,3,reversed,incorrect,0.6065564983094961,0,valid_lose,609.0043254000193,53,,,,,,,,,,,,,,,,sub_008,2022-11-06_10h42.21.831,Reversal,2022.1.1,60.01064589279669,4,
4,exp1.png,exp2.png,,,,,,,,,,,,,,,,,,1,0,1,0,0,4,4,4,,,,,,,,,False,24,105,False,exp1.png,exp2.png,trial_left_image,1,exp1.png,4,exp2.png,exp1.png,0,2,non-reversed,incorrect,0.4019812725277889,0,valid_lose,614.0707772000169,53,,,,,,,,,,,,,,,,sub_008,2022-11-06_10h42.21.831,Reversal,2022.1.1,60.01064589279669,4,
5,exp3.png,exp4.png,,,,,,,,,,,,,,,,,,1,0,1,0,0,5,5,5,,,,,,,,,False,25,106,True,exp4.png,exp3.png,trial_right_image,-1,exp3.png,4,exp3.png,exp4.png,0,4,reversed,correct,0.999430175495123,1,valid_win,618.985405000014,54,,,,,,,,,,,,,,,,sub_008,2022-11-06_10h42.21.831,Reversal,2022.1.1,60.01064589279669,4,
6,exp1.png,exp2.png,,,,,,,,,,,,,,,,,,1,0,1,0,0,6,6,6,,,,,,,,,False,26,107,True,exp2.png,exp1.png,trial_right_image,-1,exp1.png,4,exp2.png,exp1.png,0,2,non-reversed,incorrect,0.46029712976159554,0,valid_lose,625.6520589000138,54,,,,,,,,,,,,,,,,sub_008,2022-11-06_10h42.21.831,Reversal,2022.1.1,60.01064589279669,4,
7,exp3.png,exp4.png,,,,,,,,,,,,,,,,,,1,0,1,0,0,7,7,7,,,,,,,,,False,27,108,False,exp3.png,exp4.png,trial_left_image,1,exp3.png,4,exp3.png,exp4.png,0,4,reversed,correct,0.33369385365995385,1,valid_win,630.8361987000098,55,,,,,,,,,,,,,,,,sub_008,2022-11-06_10h42.21.831,Reversal,2022.1.1,60.01064589279669,4,
8,exp1.png,exp2.png,,,,,,,,,,,,,,,,,,1,0,1,0,0,8,8,8,,,,,,,,,False,28,109,False,exp1.png,exp2.png,trial_left_image,1,exp1.png,4,exp2.png,exp1.png,0,2,non-reversed,incorrect,0.929550346702178,0,valid_lose,635.3668816999998,55,,,,,,,,,,,,,,,,sub_008,2022-11-06_10h42.21.831,Reversal,2022.1.1,60.01064589279669,4,
9,exp3.png,exp4.png,,,,,,,,,,,,,,,,,,1,0,1,0,0,9,9,9,,,,,,,,,False,29,110,False,exp3.png,exp4.png,trial_right_image,-1,exp4.png,4,exp3.png,exp4.png,1,3,reversed,incorrect,0.9618718865044644,0,valid_lose,639.4490733999992,55,,,,,,,,,,,,,,,,sub_008,2022-11-06_10h42.21.831,Reversal,2022.1.1,60.01064589279669,4,
10,exp1.png,exp2.png,,,,,,,,,,,,,,,,,,1,0,1,0,0,10,10,10,,,,,,,,,False,30,111,False,exp1.png,exp2.png,trial_left_image,1,exp1.png,4,exp2.png,exp1.png,0,2,non-reversed,incorrect,0.3000090520105273,0,valid_lose,643.4834151999967,55,,,,,,,,,,,,,,,,sub_008,2022-11-06_10h42.21.831,Reversal,2022.1.1,60.01064589279669,4,
11,exp3.png,exp4.png,,,,,,,,,,,,,,,,,,1,0,1,0,0,11,11,11,,,,,,,,,False,31,112,False,exp3.png,exp4.png,trial_right_image,-1,exp4.png,4,exp3.png,exp4.png,1,3,reversed,incorrect,0.8684241014914208,0,valid_lose,647.5495424999972,55,,,,,,,,,,,,,,,,sub_008,2022-11-06_10h42.21.831,Reversal,2022.1.1,60.01064589279669,4,
12,exp1.png,exp2.png,,,,,,,,,,,,,,,,,,1,0,1,0,0,12,12,12,,,,,,,,,False,32,113,True,exp2.png,exp1.png,trial_right_image,-1,exp1.png,4,exp2.png,exp1.png,0,2,non-reversed,incorrect,0.9389254539247978,0,valid_lose,651.4975983000186,55,,,,,,,,,,,,,,,,sub_008,2022-11-06_10h42.21.831,Reversal,2022.1.1,60.01064589279669,4,
13,exp3.png,exp4.png,,,,,,,,,,,,,,,,,,1,0,1,0,0,13,13,13,,,,,,,,,False,33,114,False,exp3.png,exp4.png,trial_right_image,-1,exp4.png,4,exp3.png,exp4.png,1,3,reversed,incorrect,0.7767652577209746,0,valid_lose,655.88332980001,55,,,,,,,,,,,,,,,,sub_008,2022-11-06_10h42.21.831,Reversal,2022.1.1,60.01064589279669,4,
14,exp1.png,exp2.png,,,,,,,,,,,,,,,,,,1,0,1,0,0,14,14,14,,,,,,,,,False,34,115,True,exp2.png,exp1.png,trial_left_image,1,exp2.png,4,exp2.png,exp1.png,1,1,non-reversed,correct,0.05974229176351964,0,invalid_lose,659.8640911999973,55,,,,,,,,,,,,,,,,sub_008,2022-11-06_10h42.21.831,Reversal,2022.1.1,60.01064589279669,4,
15,exp3.png,exp4.png,,,,,,,,,,,,,,,,,,1,0,1,0,0,15,15,15,,,,,,,,,False,35,116,True,exp4.png,exp3.png,trial_left_image,1,exp4.png,4,exp3.png,exp4.png,1,3,reversed,incorrect,0.6881318077957852,0,valid_lose,664.2965001999983,55,,,,,,,,,,,,,,,,sub_008,2022-11-06_10h42.21.831,Reversal,2022.1.1,60.01064589279669,4,
16,exp1.png,exp2.png,,,,,,,,,,,,,,,,,,1,0,1,0,0,16,16,16,,,,,,,,,False,36,117,False,exp1.png,exp2.png,trial_left_image,1,exp1.png,4,exp2.png,exp1.png,0,2,non-reversed,incorrect,0.09968986479711905,1,invalid_win,668.5955947000184,56,,,,,,,,,,,,,,,,sub_008,2022-11-06_10h42.21.831,Reversal,2022.1.1,60.01064589279669,4,
17,exp3.png,exp4.png,,,,,,,,,,,,,,,,,,1,0,1,0,0,17,17,17,,,,,,,,,False,37,118,True,exp4.png,exp3.png,trial_right_image,-1,exp3.png,4,exp3.png,exp4.png,0,4,reversed,correct,0.02408139280270405,0,invalid_lose,673.0298004000215,56,,,,,,,,,,,,,,,,sub_008,2022-11-06_10h42.21.831,Reversal,2022.1.1,60.01064589279669,4,
18,exp1.png,exp2.png,,,,,,,,,,,,,,,,,,1,0,1,0,0,18,18,18,,,,,,,,,False,38,119,False,exp1.png,exp2.png,trial_left_image,1,exp1.png,4,exp2.png,exp1.png,0,2,non-reversed,incorrect,0.3064807163391786,0,valid_lose,677.7283690000186,56,,,,,,,,,,,,,,,,sub_008,2022-11-06_10h42.21.831,Reversal,2022.1.1,60.01064589279669,4,
19,exp3.png,exp4.png,,,,,,,,,,,,,,,,,,1,0,1,0,0,19,19,19,,,,,,,,,False,39,120,False,exp3.png,exp4.png,trial_right_image,-1,exp4.png,4,exp3.png,exp4.png,1,3,reversed,incorrect,0.7642320778396785,0,valid_lose,681.7608271000208,56,,,,,,,,,,,,,,,,sub_008,2022-11-06_10h42.21.831,Reversal,2022.1.1,60.01064589279669,4,
20,exp1.png,exp2.png,,,,,,,,,,,,,,,,,,1,0,1,0,0,20,20,20,,,,,,,,,True,,,,,,,,,,,,,,,,,,,,,,,,,,,,,,,,,,,,sub_008,2022-11-06_10h42.21.831,Reversal,2022.1.1,60.01064589279669,4,
,,,exp1.png,,,,,,,,,,,,,,,,,1,0,1,0,,,,,0,0,0,0,0,0,0,0,,,,,,,,,,,,,,,,,,,,,,76.0,4.495467999979155,"[(71.0, 3.7629362999869045), (76.0, 4.495467999979155)]",777.379277400003,None,76.0,,,,,,,,,,sub_008,2022-11-06_10h42.21.831,Reversal,2022.1.1,60.01064589279669,4,
,,,exp2.png,,,,,,,,,,,,,,,,,1,0,1,0,,,,,0,0,0,0,0,1,1,1,,,,,,,,,,,,,,,,,,,,,,11.0,3.7436739999975543,"[(11.0, 3.7436739999975543)]",782.8239691000199,None,,,,11.0,,,,,,,sub_008,2022-11-06_10h42.21.831,Reversal,2022.1.1,60.01064589279669,4,
,,,exp3.png,,,,,,,,,,,,,,,,,1,0,1,0,,,,,0,0,0,0,0,2,2,2,,,,,,,,,,,,,,,,,,,,,,76.0,5.671991600014735,"[(76.0, 5.671991600014735)]",787.9103399000014,None,,76.0,,,,,,,,,sub_008,2022-11-06_10h42.21.831,Reversal,2022.1.1,60.01064589279669,4,
,,,exp4.png,,,,,,,,,,,,,,,,,1,0,1,0,,,,,0,0,0,0,0,3,3,3,,,,,,,,,,,,,,,,,,,,,,15.0,1.6708511000033468,"[(15.0, 1.6708511000033468)]",794.5336507000029,None,,,15.0,,,,,,,,sub_008,2022-11-06_10h42.21.831,Reversal,2022.1.1,60.01064589279669,4,
0,exp1.png,exp2.png,,,,,,,,,,,,,,,,,,2,0,2,0,0,0,0,0,,,,,,,,,False,40,121,True,exp2.png,exp1.png,trial_right_image,-1,exp1.png,4,exp2.png,exp1.png,0,2,non-reversed,incorrect,0.029667760494736517,1,invalid_win,706.3737745000108,57,,,,,,,,,,,,,,,,sub_008,2022-11-06_10h42.21.831,Reversal,2022.1.1,60.01064589279669,4,
1,exp3.png,exp4.png,,,,,,,,,,,,,,,,,,2,0,2,0,0,1,1,1,,,,,,,,,False,41,122,False,exp3.png,exp4.png,trial_right_image,-1,exp4.png,4,exp3.png,exp4.png,1,3,reversed,incorrect,0.40976649990088676,0,valid_lose,712.4403953000146,57,,,,,,,,,,,,,,,,sub_008,2022-11-06_10h42.21.831,Reversal,2022.1.1,60.01064589279669,4,
2,exp1.png,exp2.png,,,,,,,,,,,,,,,,,,2,0,2,0,0,2,2,2,,,,,,,,,False,42,123,False,exp1.png,exp2.png,trial_left_image,1,exp1.png,4,exp2.png,exp1.png,0,2,non-reversed,incorrect,0.7248145620065668,0,valid_lose,717.1060525999928,57,,,,,,,,,,,,,,,,sub_008,2022-11-06_10h42.21.831,Reversal,2022.1.1,60.01064589279669,4,
3,exp3.png,exp4.png,,,,,,,,,,,,,,,,,,2,0,2,0,0,3,3,3,,,,,,,,,False,43,124,False,exp3.png,exp4.png,trial_left_image,1,exp3.png,4,exp3.png,exp4.png,0,4,reversed,correct,0.8803648646420331,1,valid_win,722.1392242000147,58,,,,,,,,,,,,,,,,sub_008,2022-11-06_10h42.21.831,Reversal,2022.1.1,60.01064589279669,4,
4,exp1.png,exp2.png,,,,,,,,,,,,,,,,,,2,0,2,0,0,4,4,4,,,,,,,,,False,44,125,True,exp2.png,exp1.png,trial_right_image,-1,exp1.png,4,exp2.png,exp1.png,0,2,non-reversed,incorrect,0.7117183502491756,0,valid_lose,730.9373555000057,58,,,,,,,,,,,,,,,,sub_008,2022-11-06_10h42.21.831,Reversal,2022.1.1,60.01064589279669,4,
5,exp3.png,exp4.png,,,,,,,,,,,,,,,,,,2,0,2,0,0,5,5,5,,,,,,,,,False,45,126,True,exp4.png,exp3.png,trial_left_image,1,exp4.png,4,exp3.png,exp4.png,1,3,reversed,incorrect,0.4954138405016977,0,valid_lose,735.1539390000107,58,,,,,,,,,,,,,,,,sub_008,2022-11-06_10h42.21.831,Reversal,2022.1.1,60.01064589279669,4,
6,exp1.png,exp2.png,,,,,,,,,,,,,,,,,,2,0,2,0,0,6,6,6,,,,,,,,,False,46,127,True,exp2.png,exp1.png,trial_left_image,1,exp2.png,4,exp2.png,exp1.png,1,1,non-reversed,correct,0.8330026981758287,1,valid_win,739.6704238000093,59,,,,,,,,,,,,,,,,sub_008,2022-11-06_10h42.21.831,Reversal,2022.1.1,60.01064589279669,4,
7,exp3.png,exp4.png,,,,,,,,,,,,,,,,,,2,0,2,0,0,7,7,7,,,,,,,,,False,47,128,False,exp3.png,exp4.png,trial_left_image,1,exp3.png,4,exp3.png,exp4.png,0,4,reversed,correct,0.44201668679520534,1,valid_win,744.7361397000204,60,,,,,,,,,,,,,,,,sub_008,2022-11-06_10h42.21.831,Reversal,2022.1.1,60.01064589279669,4,
8,exp1.png,exp2.png,,,,,,,,,,,,,,,,,,2,0,2,0,0,8,8,8,,,,,,,,,False,48,129,True,exp2.png,exp1.png,trial_right_image,-1,exp1.png,4,exp2.png,exp1.png,0,2,non-reversed,incorrect,0.6789542765238976,0,valid_lose,750.2679153000063,60,,,,,,,,,,,,,,,,sub_008,2022-11-06_10h42.21.831,Reversal,2022.1.1,60.01064589279669,4,
9,exp3.png,exp4.png,,,,,,,,,,,,,,,,,,2,0,2,0,0,9,9,9,,,,,,,,,False,49,130,False,exp3.png,exp4.png,trial_left_image,1,exp3.png,4,exp3.png,exp4.png,0,4,reversed,correct,0.20491759756612882,0,invalid_lose,755.1012428000104,60,,,,,,,,,,,,,,,,sub_008,2022-11-06_10h42.21.831,Reversal,2022.1.1,60.01064589279669,4,
10,exp1.png,exp2.png,,,,,,,,,,,,,,,,,,2,0,2,0,0,10,10,10,,,,,,,,,False,50,131,False,exp1.png,exp2.png,trial_right_image,-1,exp2.png,4,exp2.png,exp1.png,1,1,non-reversed,correct,0.8021920678187334,1,valid_win,759.068314300006,61,,,,,,,,,,,,,,,,sub_008,2022-11-06_10h42.21.831,Reversal,2022.1.1,60.01064589279669,4,
11,exp3.png,exp4.png,,,,,,,,,,,,,,,,,,2,0,2,0,0,11,11,11,,,,,,,,,False,51,132,True,exp4.png,exp3.png,trial_left_image,1,exp4.png,4,exp3.png,exp4.png,1,3,reversed,incorrect,0.11057162125350029,1,invalid_win,764.9327938000206,62,,,,,,,,,,,,,,,,sub_008,2022-11-06_10h42.21.831,Reversal,2022.1.1,60.01064589279669,4,
12,exp1.png,exp2.png,,,,,,,,,,,,,,,,,,2,0,2,0,0,12,12,12,,,,,,,,,False,52,133,True,exp2.png,exp1.png,trial_right_image,-1,exp1.png,4,exp2.png,exp1.png,0,2,non-reversed,incorrect,0.25071755810976915,0,valid_lose,769.7332005000208,62,,,,,,,,,,,,,,,,sub_008,2022-11-06_10h42.21.831,Reversal,2022.1.1,60.01064589279669,4,
13,exp3.png,exp4.png,,,,,,,,,,,,,,,,,,2,0,2,0,0,13,13,13,,,,,,,,,False,53,134,False,exp3.png,exp4.png,trial_left_image,1,exp3.png,4,exp3.png,exp4.png,0,4,reversed,correct,0.1302529227907867,0,invalid_lose,774.1320500000147,62,,,,,,,,,,,,,,,,sub_008,2022-11-06_10h42.21.831,Reversal,2022.1.1,60.01064589279669,4,
14,exp1.png,exp2.png,,,,,,,,,,,,,,,,,,2,0,2,0,0,14,14,14,,,,,,,,,False,54,135,False,exp1.png,exp2.png,trial_right_image,-1,exp2.png,4,exp2.png,exp1.png,1,1,non-reversed,correct,0.7563495596373306,1,valid_win,778.0815863000171,63,,,,,,,,,,,,,,,,sub_008,2022-11-06_10h42.21.831,Reversal,2022.1.1,60.01064589279669,4,
15,exp3.png,exp4.png,,,,,,,,,,,,,,,,,,2,0,2,0,0,15,15,15,,,,,,,,,False,55,136,True,exp4.png,exp3.png,trial_left_image,1,exp4.png,4,exp3.png,exp4.png,1,3,reversed,incorrect,0.056185437326302656,1,invalid_win,787.0651126000157,64,,,,,,,,,,,,,,,,sub_008,2022-11-06_10h42.21.831,Reversal,2022.1.1,60.01064589279669,4,
16,exp1.png,exp2.png,,,,,,,,,,,,,,,,,,2,0,2,0,0,16,16,16,,,,,,,,,False,56,137,False,exp1.png,exp2.png,trial_left_image,1,exp1.png,4,exp2.png,exp1.png,0,2,non-reversed,incorrect,0.6867718228028381,0,valid_lose,791.2470766000042,64,,,,,,,,,,,,,,,,sub_008,2022-11-06_10h42.21.831,Reversal,2022.1.1,60.01064589279669,4,
17,exp3.png,exp4.png,,,,,,,,,,,,,,,,,,2,0,2,0,0,17,17,17,,,,,,,,,False,57,138,False,exp3.png,exp4.png,trial_right_image,-1,exp4.png,4,exp3.png,exp4.png,1,3,reversed,incorrect,0.5920083538957733,0,valid_lose,795.1135716999997,64,,,,,,,,,,,,,,,,sub_008,2022-11-06_10h42.21.831,Reversal,2022.1.1,60.01064589279669,4,
18,exp1.png,exp2.png,,,,,,,,,,,,,,,,,,2,0,2,0,0,18,18,18,,,,,,,,,False,58,139,True,exp2.png,exp1.png,trial_left_image,1,exp2.png,4,exp2.png,exp1.png,1,1,non-reversed,correct,0.3278417100631653,1,valid_win,799.0459863000142,65,,,,,,,,,,,,,,,,sub_008,2022-11-06_10h42.21.831,Reversal,2022.1.1,60.01064589279669,4,
19,exp3.png,exp4.png,,,,,,,,,,,,,,,,,,2,0,2,0,0,19,19,19,,,,,,,,,False,59,140,True,exp4.png,exp3.png,trial_left_image,1,exp4.png,4,exp3.png,exp4.png,1,3,reversed,incorrect,0.02106595838369374,1,invalid_win,803.646902700013,66,,,,,,,,,,,,,,,,sub_008,2022-11-06_10h42.21.831,Reversal,2022.1.1,60.01064589279669,4,
20,exp1.png,exp2.png,,,,,,,,,,,,,,,,,,2,0,2,0,0,20,20,20,,,,,,,,,True,,,,,,,,,,,,,,,,,,,,,,,,,,,,,,,,,,,,sub_008,2022-11-06_10h42.21.831,Reversal,2022.1.1,60.01064589279669,4,
,,,exp1.png,,,,,,,,,,,,,,,,,2,0,2,0,,,,,0,0,0,0,0,0,0,0,,,,,,,,,,,,,,,,,,,,,,73.0,9.08334380001179,"[(73.0, 9.08334380001179)]",899.2601876000117,None,73.0,,,,,,,,,,sub_008,2022-11-06_10h42.21.831,Reversal,2022.1.1,60.01064589279669,4,
,,,exp2.png,,,,,,,,,,,,,,,,,2,0,2,0,,,,,0,0,0,0,0,1,1,1,,,,,,,,,,,,,,,,,,,,,,32.0,4.188442600017879,"[(32.0, 4.188442600017879)]",909.2635563000222,None,,,,32.0,,,,,,,sub_008,2022-11-06_10h42.21.831,Reversal,2022.1.1,60.01064589279669,4,
,,,exp3.png,,,,,,,,,,,,,,,,,2,0,2,0,,,,,0,0,0,0,0,2,2,2,,,,,,,,,,,,,,,,,,,,,,76.0,2.079614800022682,"[(76.0, 2.079614800022682)]",915.2378739000123,None,,76.0,,,,,,,,,sub_008,2022-11-06_10h42.21.831,Reversal,2022.1.1,60.01064589279669,4,
,,,exp4.png,,,,,,,,,,,,,,,,,2,0,2,0,,,,,0,0,0,0,0,3,3,3,,,,,,,,,,,,,,,,,,,,,,100.0,2.2200620000076015,"[(100.0, 2.2200620000076015)]",918.3980232000176,None,,,100.0,,,,,,,,sub_008,2022-11-06_10h42.21.831,Reversal,2022.1.1,60.01064589279669,4,
,,,,,,,,,,,,,,,,,,,,,,,,,,,,,,,,,,,,,,,,,,,,,,,,,,,,,,,,66,,,,,,,,,,,56,36,20,348.99804259999655,1,,,,,,,
