trial_index,trial_image1_file,trial_image2_file,image_file,learning_outer_loop.thisRepN,learning_outer_loop.thisTrialN,learning_outer_loop.thisN,learning_outer_loop.thisIndex,learning_inner_loop.thisRepN,learning_inner_loop.thisTrialN,learning_inner_loop.thisN,learning_inner_loop.thisIndex,learning_estimation_outer_loop.thisRepN,learning_estimation_outer_loop.thisTrialN,learning_estimation_outer_loop.thisN,learning_estimation_outer_loop.thisIndex,learning_estimation_inner_loop.thisRepN,learning_estimation_inner_loop.thisTrialN,learning_estimation_inner_loop.thisN,learning_estimation_inner_loop.thisIndex,reversal_outer_loop.thisRepN,reversal_outer_loop.thisTrialN,reversal_outer_loop.thisN,reversal_outer_loop.thisIndex,reversal_inner_loop.thisRepN,reversal_inner_loop.thisTrialN,reversal_inner_loop.thisN,reversal_inner_loop.thisIndex,reversal_estimation_outer_loop.thisRepN,reversal_estimation_outer_loop.thisTrialN,reversal_estimation_outer_loop.thisN,reversal_estimation_outer_loop.thisIndex,reversal_estimation_inner_loop.thisRepN,reversal_estimation_inner_loop.thisTrialN,reversal_estimation_inner_loop.thisN,reversal_estimation_inner_loop.thisIndex,skipped,total_trial_counter,trial_num,left_right_flip,left_image_file,right_image_file,clicked_stimulus_side,side,clicked_stimulus,version,high_prob_image_file,low_prob_image_file,choice_a,choice_b,pair_type,correct,trial_feedback_random,reward,trial_type,overall_time_after_trial,score,estimation_rating.started,estimation_exp1.png,estimation_rating.response,estimation_rating.rt,estimation_rating.history,estimation_exp3.png,estimation_exp4.png,estimation_exp2.png,total_learning_time,total_correct,learning_correct,reversal_correct,total_reversal_time,extra_block,participant,date,expName,psychopyVersion,frameRate,ver,
0,exp1.png,exp2.png,,0,0,0,0,0,0,0,0,,,,,,,,,,,,,,,,,,,,,,,,,True,,,,,,,,,,,,,,,,,,,,,,,,,,,,,,,,,,,sub_545,2023-12-25_11h33.20.412,Reversal,2023.1.3,60.01640848602364,1,
1,exp3.png,exp4.png,,0,0,0,0,0,1,1,1,,,,,,,,,,,,,,,,,,,,,,,,,False,0,1,False,exp3.png,exp4.png,trial_left_image,1,exp3.png,1,exp3.png,exp4.png,1,1,non-reversed,correct,0.9474214423997604,1,valid_win,3.798203299999841,1,,,,,,,,,,,,,,,sub_545,2023-12-25_11h33.20.412,Reversal,2023.1.3,60.01640848602364,1,
2,exp1.png,exp2.png,,0,0,0,0,0,2,2,2,,,,,,,,,,,,,,,,,,,,,,,,,False,1,2,False,exp1.png,exp2.png,trial_right_image,-1,exp2.png,1,exp1.png,exp2.png,0,4,reversed,incorrect,0.5222010046531982,0,valid_lose,15.227578699999867,1,,,,,,,,,,,,,,,sub_545,2023-12-25_11h33.20.412,Reversal,2023.1.3,60.01640848602364,1,
3,exp3.png,exp4.png,,0,0,0,0,0,3,3,3,,,,,,,,,,,,,,,,,,,,,,,,,False,2,3,True,exp4.png,exp3.png,trial_left_image,1,exp4.png,1,exp3.png,exp4.png,0,2,non-reversed,incorrect,0.6644226697687401,0,valid_lose,20.7255339000003,1,,,,,,,,,,,,,,,sub_545,2023-12-25_11h33.20.412,Reversal,2023.1.3,60.01640848602364,1,
4,exp1.png,exp2.png,,0,0,0,0,0,4,4,4,,,,,,,,,,,,,,,,,,,,,,,,,False,3,4,False,exp1.png,exp2.png,trial_left_image,1,exp1.png,1,exp1.png,exp2.png,1,3,reversed,correct,0.6179729042891557,1,valid_win,26.62351480000052,2,,,,,,,,,,,,,,,sub_545,2023-12-25_11h33.20.412,Reversal,2023.1.3,60.01640848602364,1,
5,exp3.png,exp4.png,,0,0,0,0,0,5,5,5,,,,,,,,,,,,,,,,,,,,,,,,,False,4,5,False,exp3.png,exp4.png,trial_left_image,1,exp3.png,1,exp3.png,exp4.png,1,1,non-reversed,correct,0.6786870776306442,1,valid_win,35.12102760000016,3,,,,,,,,,,,,,,,sub_545,2023-12-25_11h33.20.412,Reversal,2023.1.3,60.01640848602364,1,
6,exp1.png,exp2.png,,0,0,0,0,0,6,6,6,,,,,,,,,,,,,,,,,,,,,,,,,False,5,6,False,exp1.png,exp2.png,trial_left_image,1,exp1.png,1,exp1.png,exp2.png,1,3,reversed,correct,0.2953736689361819,1,valid_win,39.935901200000444,4,,,,,,,,,,,,,,,sub_545,2023-12-25_11h33.20.412,Reversal,2023.1.3,60.01640848602364,1,
7,exp3.png,exp4.png,,0,0,0,0,0,7,7,7,,,,,,,,,,,,,,,,,,,,,,,,,False,6,7,True,exp4.png,exp3.png,trial_right_image,-1,exp3.png,1,exp3.png,exp4.png,1,1,non-reversed,correct,0.4696693492176309,1,valid_win,45.4839348000005,5,,,,,,,,,,,,,,,sub_545,2023-12-25_11h33.20.412,Reversal,2023.1.3,60.01640848602364,1,
8,exp1.png,exp2.png,,0,0,0,0,0,8,8,8,,,,,,,,,,,,,,,,,,,,,,,,,False,7,8,False,exp1.png,exp2.png,trial_left_image,1,exp1.png,1,exp1.png,exp2.png,1,3,reversed,correct,0.6724666900472744,1,valid_win,49.93263030000071,6,,,,,,,,,,,,,,,sub_545,2023-12-25_11h33.20.412,Reversal,2023.1.3,60.01640848602364,1,
9,exp3.png,exp4.png,,0,0,0,0,0,9,9,9,,,,,,,,,,,,,,,,,,,,,,,,,False,8,9,True,exp4.png,exp3.png,trial_right_image,-1,exp3.png,1,exp3.png,exp4.png,1,1,non-reversed,correct,0.01373179303909644,0,invalid_lose,54.16470879999997,6,,,,,,,,,,,,,,,sub_545,2023-12-25_11h33.20.412,Reversal,2023.1.3,60.01640848602364,1,
10,exp1.png,exp2.png,,0,0,0,0,0,10,10,10,,,,,,,,,,,,,,,,,,,,,,,,,False,9,10,True,exp2.png,exp1.png,trial_left_image,1,exp2.png,1,exp1.png,exp2.png,0,4,reversed,incorrect,0.04959777438092827,1,invalid_win,59.22909140000047,7,,,,,,,,,,,,,,,sub_545,2023-12-25_11h33.20.412,Reversal,2023.1.3,60.01640848602364,1,
11,exp3.png,exp4.png,,0,0,0,0,0,11,11,11,,,,,,,,,,,,,,,,,,,,,,,,,False,10,11,True,exp4.png,exp3.png,trial_left_image,1,exp4.png,1,exp3.png,exp4.png,0,2,non-reversed,incorrect,0.8043334839749803,0,valid_lose,63.52768079999987,7,,,,,,,,,,,,,,,sub_545,2023-12-25_11h33.20.412,Reversal,2023.1.3,60.01640848602364,1,
12,exp1.png,exp2.png,,0,0,0,0,0,12,12,12,,,,,,,,,,,,,,,,,,,,,,,,,False,11,12,True,exp2.png,exp1.png,trial_left_image,1,exp2.png,1,exp1.png,exp2.png,0,4,reversed,incorrect,0.6335712874270728,0,valid_lose,67.62624550000055,7,,,,,,,,,,,,,,,sub_545,2023-12-25_11h33.20.412,Reversal,2023.1.3,60.01640848602364,1,
13,exp3.png,exp4.png,,0,0,0,0,0,13,13,13,,,,,,,,,,,,,,,,,,,,,,,,,False,12,13,True,exp4.png,exp3.png,trial_right_image,-1,exp3.png,1,exp3.png,exp4.png,1,1,non-reversed,correct,0.06773224596459526,0,invalid_lose,72.05891900000006,7,,,,,,,,,,,,,,,sub_545,2023-12-25_11h33.20.412,Reversal,2023.1.3,60.01640848602364,1,
14,exp1.png,exp2.png,,0,0,0,0,0,14,14,14,,,,,,,,,,,,,,,,,,,,,,,,,False,13,14,False,exp1.png,exp2.png,trial_left_image,1,exp1.png,1,exp1.png,exp2.png,1,3,reversed,correct,0.199967762452116,0,invalid_lose,80.3721873000004,7,,,,,,,,,,,,,,,sub_545,2023-12-25_11h33.20.412,Reversal,2023.1.3,60.01640848602364,1,
15,exp3.png,exp4.png,,0,0,0,0,0,15,15,15,,,,,,,,,,,,,,,,,,,,,,,,,False,14,15,True,exp4.png,exp3.png,trial_right_image,-1,exp3.png,1,exp3.png,exp4.png,1,1,non-reversed,correct,0.030902030004913206,0,invalid_lose,85.87031480000041,7,,,,,,,,,,,,,,,sub_545,2023-12-25_11h33.20.412,Reversal,2023.1.3,60.01640848602364,1,
16,exp1.png,exp2.png,,0,0,0,0,0,16,16,16,,,,,,,,,,,,,,,,,,,,,,,,,False,15,16,False,exp1.png,exp2.png,trial_right_image,-1,exp2.png,1,exp1.png,exp2.png,0,4,reversed,incorrect,0.057446045866106354,1,invalid_win,90.08564750000005,8,,,,,,,,,,,,,,,sub_545,2023-12-25_11h33.20.412,Reversal,2023.1.3,60.01640848602364,1,
17,exp3.png,exp4.png,,0,0,0,0,0,17,17,17,,,,,,,,,,,,,,,,,,,,,,,,,False,16,17,True,exp4.png,exp3.png,trial_left_image,1,exp4.png,1,exp3.png,exp4.png,0,2,non-reversed,incorrect,0.13164791213777738,1,invalid_win,94.35036850000051,9,,,,,,,,,,,,,,,sub_545,2023-12-25_11h33.20.412,Reversal,2023.1.3,60.01640848602364,1,
18,exp1.png,exp2.png,,0,0,0,0,0,18,18,18,,,,,,,,,,,,,,,,,,,,,,,,,False,17,18,True,exp2.png,exp1.png,trial_left_image,1,exp2.png,1,exp1.png,exp2.png,0,4,reversed,incorrect,0.8321595983031908,0,valid_lose,99.29878150000059,9,,,,,,,,,,,,,,,sub_545,2023-12-25_11h33.20.412,Reversal,2023.1.3,60.01640848602364,1,
19,exp3.png,exp4.png,,0,0,0,0,0,19,19,19,,,,,,,,,,,,,,,,,,,,,,,,,False,18,19,False,exp3.png,exp4.png,trial_left_image,1,exp3.png,1,exp3.png,exp4.png,1,1,non-reversed,correct,0.08553571376057689,0,invalid_lose,105.83031480000045,9,,,,,,,,,,,,,,,sub_545,2023-12-25_11h33.20.412,Reversal,2023.1.3,60.01640848602364,1,
20,exp1.png,exp2.png,,0,0,0,0,0,20,20,20,,,,,,,,,,,,,,,,,,,,,,,,,False,19,20,False,exp1.png,exp2.png,trial_left_image,1,exp1.png,1,exp1.png,exp2.png,1,3,reversed,correct,0.04182140045783933,0,invalid_lose,112.59500290000051,9,,,,,,,,,,,,,,,sub_545,2023-12-25_11h33.20.412,Reversal,2023.1.3,60.01640848602364,1,
,,,exp1.png,0,0,0,0,,,,,0,0,0,0,0,0,0,0,,,,,,,,,,,,,,,,,,,,,,,,,,,,,,,,,,,,,,186.74928869999985,76.0,76.0,8.389656100000138,"[(76.0, 8.389656100000138)]",,,,,,,,,,sub_545,2023-12-25_11h33.20.412,Reversal,2023.1.3,60.01640848602364,1,
,,,exp2.png,0,0,0,0,,,,,0,0,0,0,0,1,1,1,,,,,,,,,,,,,,,,,,,,,,,,,,,,,,,,,,,,,,195.92006420000052,,None,None,[],,,,,,,,,,sub_545,2023-12-25_11h33.20.412,Reversal,2023.1.3,60.01640848602364,1,
,,,exp3.png,0,0,0,0,,,,,0,0,0,0,0,2,2,2,,,,,,,,,,,,,,,,,,,,,,,,,,,,,,,,,,,,,,198.98637729999973,,76.0,5.0263990000003105,"[(76.0, 5.0263990000003105)]",76.0,,,,,,,,,sub_545,2023-12-25_11h33.20.412,Reversal,2023.1.3,60.01640848602364,1,
,,,exp4.png,0,0,0,0,,,,,0,0,0,0,0,3,3,3,,,,,,,,,,,,,,,,,,,,,,,,,,,,,,,,,,,,,,204.55319260000033,,None,None,[],,,,,,,,,,sub_545,2023-12-25_11h33.20.412,Reversal,2023.1.3,60.01640848602364,1,
0,exp1.png,exp2.png,,1,0,1,0,0,0,0,0,,,,,,,,,,,,,,,,,,,,,,,,,True,,,,,,,,,,,,,,,,,,,,,,,,,,,,,,,,,,,sub_545,2023-12-25_11h33.20.412,Reversal,2023.1.3,60.01640848602364,1,
1,exp3.png,exp4.png,,1,0,1,0,0,1,1,1,,,,,,,,,,,,,,,,,,,,,,,,,False,20,21,True,exp4.png,exp3.png,trial_right_image,-1,exp3.png,1,exp3.png,exp4.png,1,1,non-reversed,correct,0.08974899853693175,0,invalid_lose,142.86783530000048,9,,,,,,,,,,,,,,,sub_545,2023-12-25_11h33.20.412,Reversal,2023.1.3,60.01640848602364,1,
2,exp1.png,exp2.png,,1,0,1,0,0,2,2,2,,,,,,,,,,,,,,,,,,,,,,,,,False,21,22,True,exp2.png,exp1.png,trial_left_image,1,exp2.png,1,exp1.png,exp2.png,0,4,reversed,incorrect,0.32198800679721795,0,valid_lose,148.36566299999959,9,,,,,,,,,,,,,,,sub_545,2023-12-25_11h33.20.412,Reversal,2023.1.3,60.01640848602364,1,
3,exp3.png,exp4.png,,1,0,1,0,0,3,3,3,,,,,,,,,,,,,,,,,,,,,,,,,False,22,23,False,exp3.png,exp4.png,trial_right_image,-1,exp4.png,1,exp3.png,exp4.png,0,2,non-reversed,incorrect,0.16939459327307405,1,invalid_win,153.14790939999966,10,,,,,,,,,,,,,,,sub_545,2023-12-25_11h33.20.412,Reversal,2023.1.3,60.01640848602364,1,
4,exp1.png,exp2.png,,1,0,1,0,0,4,4,4,,,,,,,,,,,,,,,,,,,,,,,,,False,23,24,True,exp2.png,exp1.png,trial_left_image,1,exp2.png,1,exp1.png,exp2.png,0,4,reversed,incorrect,0.3748182327442815,0,valid_lose,157.81274949999988,10,,,,,,,,,,,,,,,sub_545,2023-12-25_11h33.20.412,Reversal,2023.1.3,60.01640848602364,1,
5,exp3.png,exp4.png,,1,0,1,0,0,5,5,5,,,,,,,,,,,,,,,,,,,,,,,,,False,24,25,True,exp4.png,exp3.png,trial_left_image,1,exp4.png,1,exp3.png,exp4.png,0,2,non-reversed,incorrect,0.19286356270318972,1,invalid_win,163.69437030000063,11,,,,,,,,,,,,,,,sub_545,2023-12-25_11h33.20.412,Reversal,2023.1.3,60.01640848602364,1,
6,exp1.png,exp2.png,,1,0,1,0,0,6,6,6,,,,,,,,,,,,,,,,,,,,,,,,,False,25,26,False,exp1.png,exp2.png,trial_left_image,1,exp1.png,1,exp1.png,exp2.png,1,3,reversed,correct,0.8429874786127274,1,valid_win,168.14261910000005,12,,,,,,,,,,,,,,,sub_545,2023-12-25_11h33.20.412,Reversal,2023.1.3,60.01640848602364,1,
7,exp3.png,exp4.png,,1,0,1,0,0,7,7,7,,,,,,,,,,,,,,,,,,,,,,,,,False,26,27,False,exp3.png,exp4.png,trial_right_image,-1,exp4.png,1,exp3.png,exp4.png,0,2,non-reversed,incorrect,0.48637592480668457,0,valid_lose,172.62435370000003,12,,,,,,,,,,,,,,,sub_545,2023-12-25_11h33.20.412,Reversal,2023.1.3,60.01640848602364,1,
8,exp1.png,exp2.png,,1,0,1,0,0,8,8,8,,,,,,,,,,,,,,,,,,,,,,,,,False,27,28,False,exp1.png,exp2.png,trial_right_image,-1,exp2.png,1,exp1.png,exp2.png,0,4,reversed,incorrect,0.12146717290461173,1,invalid_win,178.37201110000115,13,,,,,,,,,,,,,,,sub_545,2023-12-25_11h33.20.412,Reversal,2023.1.3,60.01640848602364,1,
9,exp3.png,exp4.png,,1,0,1,0,0,9,9,9,,,,,,,,,,,,,,,,,,,,,,,,,False,28,29,True,exp4.png,exp3.png,trial_right_image,-1,exp3.png,1,exp3.png,exp4.png,1,1,non-reversed,correct,0.8385310806589376,1,valid_win,185.5701579000006,14,,,,,,,,,,,,,,,sub_545,2023-12-25_11h33.20.412,Reversal,2023.1.3,60.01640848602364,1,
10,exp1.png,exp2.png,,1,0,1,0,0,10,10,10,,,,,,,,,,,,,,,,,,,,,,,,,False,29,30,True,exp2.png,exp1.png,trial_right_image,-1,exp1.png,1,exp1.png,exp2.png,1,3,reversed,correct,0.10490013841302681,0,invalid_lose,190.55163280000033,14,,,,,,,,,,,,,,,sub_545,2023-12-25_11h33.20.412,Reversal,2023.1.3,60.01640848602364,1,
11,exp3.png,exp4.png,,1,0,1,0,0,11,11,11,,,,,,,,,,,,,,,,,,,,,,,,,False,30,31,True,exp4.png,exp3.png,trial_right_image,-1,exp3.png,1,exp3.png,exp4.png,1,1,non-reversed,correct,0.0807396484232189,0,invalid_lose,195.7496813000007,14,,,,,,,,,,,,,,,sub_545,2023-12-25_11h33.20.412,Reversal,2023.1.3,60.01640848602364,1,
12,exp1.png,exp2.png,,1,0,1,0,0,12,12,12,,,,,,,,,,,,,,,,,,,,,,,,,False,31,32,False,exp1.png,exp2.png,trial_right_image,-1,exp2.png,1,exp1.png,exp2.png,0,4,reversed,incorrect,0.599811320696486,0,valid_lose,203.04733580000084,14,,,,,,,,,,,,,,,sub_545,2023-12-25_11h33.20.412,Reversal,2023.1.3,60.01640848602364,1,
13,exp3.png,exp4.png,,1,0,1,0,0,13,13,13,,,,,,,,,,,,,,,,,,,,,,,,,False,32,33,True,exp4.png,exp3.png,trial_right_image,-1,exp3.png,1,exp3.png,exp4.png,1,1,non-reversed,correct,0.7769053224478851,1,valid_win,207.97914220000075,15,,,,,,,,,,,,,,,sub_545,2023-12-25_11h33.20.412,Reversal,2023.1.3,60.01640848602364,1,
14,exp1.png,exp2.png,,1,0,1,0,0,14,14,14,,,,,,,,,,,,,,,,,,,,,,,,,False,33,34,False,exp1.png,exp2.png,trial_left_image,1,exp1.png,1,exp1.png,exp2.png,1,3,reversed,correct,0.7932623782358552,1,valid_win,212.07784579999952,16,,,,,,,,,,,,,,,sub_545,2023-12-25_11h33.20.412,Reversal,2023.1.3,60.01640848602364,1,
15,exp3.png,exp4.png,,1,0,1,0,0,15,15,15,,,,,,,,,,,,,,,,,,,,,,,,,False,34,35,False,exp3.png,exp4.png,trial_right_image,-1,exp4.png,1,exp3.png,exp4.png,0,2,non-reversed,incorrect,0.5903705162237773,0,valid_lose,216.4423756999995,16,,,,,,,,,,,,,,,sub_545,2023-12-25_11h33.20.412,Reversal,2023.1.3,60.01640848602364,1,
16,exp1.png,exp2.png,,1,0,1,0,0,16,16,16,,,,,,,,,,,,,,,,,,,,,,,,,False,35,36,False,exp1.png,exp2.png,trial_right_image,-1,exp2.png,1,exp1.png,exp2.png,0,4,reversed,incorrect,0.27118437448837185,0,valid_lose,224.27352169999995,16,,,,,,,,,,,,,,,sub_545,2023-12-25_11h33.20.412,Reversal,2023.1.3,60.01640848602364,1,
17,exp3.png,exp4.png,,1,0,1,0,0,17,17,17,,,,,,,,,,,,,,,,,,,,,,,,,False,36,37,False,exp3.png,exp4.png,trial_left_image,1,exp3.png,1,exp3.png,exp4.png,1,1,non-reversed,correct,0.9192286319022244,1,valid_win,228.9382386999996,17,,,,,,,,,,,,,,,sub_545,2023-12-25_11h33.20.412,Reversal,2023.1.3,60.01640848602364,1,
18,exp1.png,exp2.png,,1,0,1,0,0,18,18,18,,,,,,,,,,,,,,,,,,,,,,,,,False,37,38,False,exp1.png,exp2.png,trial_left_image,1,exp1.png,1,exp1.png,exp2.png,1,3,reversed,correct,0.7768796917998803,1,valid_win,233.17016840000088,18,,,,,,,,,,,,,,,sub_545,2023-12-25_11h33.20.412,Reversal,2023.1.3,60.01640848602364,1,
19,exp3.png,exp4.png,,1,0,1,0,0,19,19,19,,,,,,,,,,,,,,,,,,,,,,,,,False,38,39,True,exp4.png,exp3.png,trial_right_image,-1,exp3.png,1,exp3.png,exp4.png,1,1,non-reversed,correct,0.5129379343344072,1,valid_win,242.31725769999957,19,,,,,,,,,,,,,,,sub_545,2023-12-25_11h33.20.412,Reversal,2023.1.3,60.01640848602364,1,
20,exp1.png,exp2.png,,1,0,1,0,0,20,20,20,,,,,,,,,,,,,,,,,,,,,,,,,False,39,40,True,exp2.png,exp1.png,trial_right_image,-1,exp1.png,1,exp1.png,exp2.png,1,3,reversed,correct,0.7657589695918917,1,valid_win,247.06560120000086,20,,,,,,,,,,,,,,,sub_545,2023-12-25_11h33.20.412,Reversal,2023.1.3,60.01640848602364,1,
,,,exp1.png,1,0,1,0,,,,,0,0,0,0,0,0,0,0,,,,,,,,,,,,,,,,,,,,,,,,,,,,,,,,,,,,,,321.2262217999996,76.0,76.0,6.495134099999632,"[(76.0, 6.495134099999632)]",,,,,,,,,,sub_545,2023-12-25_11h33.20.412,Reversal,2023.1.3,60.01640848602364,1,
,,,exp2.png,1,0,1,0,,,,,0,0,0,0,0,1,1,1,,,,,,,,,,,,,,,,,,,,,,,,,,,,,,,,,,,,,,329.32436939999934,,None,None,[],,,,,,,,,,sub_545,2023-12-25_11h33.20.412,Reversal,2023.1.3,60.01640848602364,1,
,,,exp3.png,1,0,1,0,,,,,0,0,0,0,0,2,2,2,,,,,,,,,,,,,,,,,,,,,,,,,,,,,,,,,,,,,,330.9572690999994,,78.0,2.5784916000011435,"[(78.0, 2.5784916000011435)]",78.0,,,,,,,,,sub_545,2023-12-25_11h33.20.412,Reversal,2023.1.3,60.01640848602364,1,
,,,exp4.png,1,0,1,0,,,,,0,0,0,0,0,3,3,3,,,,,,,,,,,,,,,,,,,,,,,,,,,,,,,,,,,,,,334.39099410000017,,77.0,1.4441798999996536,"[(77.0, 1.4441798999996536)]",,77.0,,,,,,,,sub_545,2023-12-25_11h33.20.412,Reversal,2023.1.3,60.01640848602364,1,
0,exp1.png,exp2.png,,2,0,2,0,0,0,0,0,,,,,,,,,,,,,,,,,,,,,,,,,True,,,,,,,,,,,,,,,,,,,,,,,,,,,,,,,,,,,sub_545,2023-12-25_11h33.20.412,Reversal,2023.1.3,60.01640848602364,1,
1,exp3.png,exp4.png,,2,0,2,0,0,1,1,1,,,,,,,,,,,,,,,,,,,,,,,,,False,40,41,False,exp3.png,exp4.png,trial_right_image,-1,exp4.png,1,exp3.png,exp4.png,0,2,non-reversed,incorrect,0.8399690323907298,0,valid_lose,269.5414678999996,20,,,,,,,,,,,,,,,sub_545,2023-12-25_11h33.20.412,Reversal,2023.1.3,60.01640848602364,1,
2,exp1.png,exp2.png,,2,0,2,0,0,2,2,2,,,,,,,,,,,,,,,,,,,,,,,,,False,41,42,True,exp2.png,exp1.png,trial_right_image,-1,exp1.png,1,exp1.png,exp2.png,1,3,reversed,correct,0.8542692879887918,1,valid_win,273.5398646000003,21,,,,,,,,,,,,,,,sub_545,2023-12-25_11h33.20.412,Reversal,2023.1.3,60.01640848602364,1,
3,exp3.png,exp4.png,,2,0,2,0,0,3,3,3,,,,,,,,,,,,,,,,,,,,,,,,,False,42,43,False,exp3.png,exp4.png,trial_left_image,1,exp3.png,1,exp3.png,exp4.png,1,1,non-reversed,correct,0.4125233378930103,1,valid_win,279.2547674999996,22,,,,,,,,,,,,,,,sub_545,2023-12-25_11h33.20.412,Reversal,2023.1.3,60.01640848602364,1,
4,exp1.png,exp2.png,,2,0,2,0,0,4,4,4,,,,,,,,,,,,,,,,,,,,,,,,,False,43,44,False,exp1.png,exp2.png,trial_left_image,1,exp1.png,1,exp1.png,exp2.png,1,3,reversed,correct,0.4511443164953929,1,valid_win,283.77027200000066,23,,,,,,,,,,,,,,,sub_545,2023-12-25_11h33.20.412,Reversal,2023.1.3,60.01640848602364,1,
5,exp3.png,exp4.png,,2,0,2,0,0,5,5,5,,,,,,,,,,,,,,,,,,,,,,,,,False,44,45,True,exp4.png,exp3.png,trial_right_image,-1,exp3.png,1,exp3.png,exp4.png,1,1,non-reversed,correct,0.6013124608391245,1,valid_win,288.2016766000006,24,,,,,,,,,,,,,,,sub_545,2023-12-25_11h33.20.412,Reversal,2023.1.3,60.01640848602364,1,
6,exp1.png,exp2.png,,2,0,2,0,0,6,6,6,,,,,,,,,,,,,,,,,,,,,,,,,False,45,46,False,exp1.png,exp2.png,trial_left_image,1,exp1.png,1,exp1.png,exp2.png,1,3,reversed,correct,0.2903205187840543,1,valid_win,292.4169635999997,25,,,,,,,,,,,,,,,sub_545,2023-12-25_11h33.20.412,Reversal,2023.1.3,60.01640848602364,1,
7,exp3.png,exp4.png,,2,0,2,0,0,7,7,7,,,,,,,,,,,,,,,,,,,,,,,,,False,46,47,False,exp3.png,exp4.png,trial_left_image,1,exp3.png,1,exp3.png,exp4.png,1,1,non-reversed,correct,0.83874593784859,1,valid_win,296.46550110000044,26,,,,,,,,,,,,,,,sub_545,2023-12-25_11h33.20.412,Reversal,2023.1.3,60.01640848602364,1,
8,exp1.png,exp2.png,,2,0,2,0,0,8,8,8,,,,,,,,,,,,,,,,,,,,,,,,,False,47,48,True,exp2.png,exp1.png,trial_right_image,-1,exp1.png,1,exp1.png,exp2.png,1,3,reversed,correct,0.8754610892178547,1,valid_win,300.89794619999975,27,,,,,,,,,,,,,,,sub_545,2023-12-25_11h33.20.412,Reversal,2023.1.3,60.01640848602364,1,
9,exp3.png,exp4.png,,2,0,2,0,0,9,9,9,,,,,,,,,,,,,,,,,,,,,,,,,False,48,49,False,exp3.png,exp4.png,trial_left_image,1,exp3.png,1,exp3.png,exp4.png,1,1,non-reversed,correct,0.7342092355525349,1,valid_win,305.17921509999996,28,,,,,,,,,,,,,,,sub_545,2023-12-25_11h33.20.412,Reversal,2023.1.3,60.01640848602364,1,
10,exp1.png,exp2.png,,2,0,2,0,0,10,10,10,,,,,,,,,,,,,,,,,,,,,,,,,False,49,50,True,exp2.png,exp1.png,trial_right_image,-1,exp1.png,1,exp1.png,exp2.png,1,3,reversed,correct,0.30166953663747553,1,valid_win,309.3614800999994,29,,,,,,,,,,,,,,,sub_545,2023-12-25_11h33.20.412,Reversal,2023.1.3,60.01640848602364,1,
11,exp3.png,exp4.png,,2,0,2,0,0,11,11,11,,,,,,,,,,,,,,,,,,,,,,,,,False,50,51,False,exp3.png,exp4.png,trial_left_image,1,exp3.png,1,exp3.png,exp4.png,1,1,non-reversed,correct,0.7884899567000818,1,valid_win,313.6435682000001,30,,,,,,,,,,,,,,,sub_545,2023-12-25_11h33.20.412,Reversal,2023.1.3,60.01640848602364,1,
12,exp1.png,exp2.png,,2,0,2,0,0,12,12,12,,,,,,,,,,,,,,,,,,,,,,,,,False,51,52,True,exp2.png,exp1.png,trial_right_image,-1,exp1.png,1,exp1.png,exp2.png,1,3,reversed,correct,0.5347057129992172,1,valid_win,317.64208940000117,31,,,,,,,,,,,,,,,sub_545,2023-12-25_11h33.20.412,Reversal,2023.1.3,60.01640848602364,1,
13,exp3.png,exp4.png,,2,0,2,0,0,13,13,13,,,,,,,,,,,,,,,,,,,,,,,,,False,52,53,False,exp3.png,exp4.png,trial_left_image,1,exp3.png,1,exp3.png,exp4.png,1,1,non-reversed,correct,0.1708460825277719,0,invalid_lose,324.0729942000007,31,,,,,,,,,,,,,,,sub_545,2023-12-25_11h33.20.412,Reversal,2023.1.3,60.01640848602364,1,
14,exp1.png,exp2.png,,2,0,2,0,0,14,14,14,,,,,,,,,,,,,,,,,,,,,,,,,False,53,54,True,exp2.png,exp1.png,trial_left_image,1,exp2.png,1,exp1.png,exp2.png,0,4,reversed,incorrect,0.2651336478294207,0,valid_lose,329.1047236000004,31,,,,,,,,,,,,,,,sub_545,2023-12-25_11h33.20.412,Reversal,2023.1.3,60.01640848602364,1,
15,exp3.png,exp4.png,,2,0,2,0,0,15,15,15,,,,,,,,,,,,,,,,,,,,,,,,,False,54,55,True,exp4.png,exp3.png,trial_left_image,1,exp4.png,1,exp3.png,exp4.png,0,2,non-reversed,incorrect,0.3559260982458068,0,valid_lose,334.26959290000104,31,,,,,,,,,,,,,,,sub_545,2023-12-25_11h33.20.412,Reversal,2023.1.3,60.01640848602364,1,
16,exp1.png,exp2.png,,2,0,2,0,0,16,16,16,,,,,,,,,,,,,,,,,,,,,,,,,False,55,56,True,exp2.png,exp1.png,trial_right_image,-1,exp1.png,1,exp1.png,exp2.png,1,3,reversed,correct,0.20395473082012672,0,invalid_lose,339.68435390000104,31,,,,,,,,,,,,,,,sub_545,2023-12-25_11h33.20.412,Reversal,2023.1.3,60.01640848602364,1,
17,exp3.png,exp4.png,,2,0,2,0,0,17,17,17,,,,,,,,,,,,,,,,,,,,,,,,,False,56,57,False,exp3.png,exp4.png,trial_right_image,-1,exp4.png,1,exp3.png,exp4.png,0,2,non-reversed,incorrect,0.5151433446516037,0,valid_lose,346.0487256999995,31,,,,,,,,,,,,,,,sub_545,2023-12-25_11h33.20.412,Reversal,2023.1.3,60.01640848602364,1,
18,exp1.png,exp2.png,,2,0,2,0,0,18,18,18,,,,,,,,,,,,,,,,,,,,,,,,,False,57,58,False,exp1.png,exp2.png,trial_left_image,1,exp1.png,1,exp1.png,exp2.png,1,3,reversed,correct,0.018410527718940695,0,invalid_lose,350.21390689999953,31,,,,,,,,,,,,,,,sub_545,2023-12-25_11h33.20.412,Reversal,2023.1.3,60.01640848602364,1,
19,exp3.png,exp4.png,,2,0,2,0,0,19,19,19,,,,,,,,,,,,,,,,,,,,,,,,,False,58,59,True,exp4.png,exp3.png,trial_left_image,1,exp4.png,1,exp3.png,exp4.png,0,2,non-reversed,incorrect,0.2169624659974959,1,invalid_win,357.47811400000046,32,,,,,,,,,,,,,,,sub_545,2023-12-25_11h33.20.412,Reversal,2023.1.3,60.01640848602364,1,
20,exp1.png,exp2.png,,2,0,2,0,0,20,20,20,,,,,,,,,,,,,,,,,,,,,,,,,False,59,60,True,exp2.png,exp1.png,trial_left_image,1,exp2.png,1,exp1.png,exp2.png,0,4,reversed,incorrect,0.33922735792228287,0,valid_lose,362.259778300001,32,,,,,,,,,,,,,,,sub_545,2023-12-25_11h33.20.412,Reversal,2023.1.3,60.01640848602364,1,
,,,exp1.png,2,0,2,0,,,,,0,0,0,0,0,0,0,0,,,,,,,,,,,,,,,,,,,,,,,,,,,,,,,,,,,,,,436.42327680000017,75.0,75.0,2.7930278000003455,"[(75.0, 2.7930278000003455)]",,,,,,,,,,sub_545,2023-12-25_11h33.20.412,Reversal,2023.1.3,60.01640848602364,1,
,,,exp2.png,2,0,2,0,,,,,0,0,0,0,0,1,1,1,,,,,,,,,,,,,,,,,,,,,,,,,,,,,,,,,,,,,,441.3870425999994,,73.0,1.0278543999993417,"[(73.0, 1.0278543999993417)]",,,73.0,,,,,,,sub_545,2023-12-25_11h33.20.412,Reversal,2023.1.3,60.01640848602364,1,
,,,exp3.png,2,0,2,0,,,,,0,0,0,0,0,2,2,2,,,,,,,,,,,,,,,,,,,,,,,,,,,,,,,,,,,,,,443.3198831999998,,78.0,1.4442051999994874,"[(78.0, 1.4442051999994874)]",78.0,,,,,,,,,sub_545,2023-12-25_11h33.20.412,Reversal,2023.1.3,60.01640848602364,1,
,,,exp4.png,2,0,2,0,,,,,0,0,0,0,0,3,3,3,,,,,,,,,,,,,,,,,,,,,,,,,,,,,,,,,,,,,,446.18457900000067,,24.0,1.8453253999996377,"[(24.0, 1.8453253999996377)]",,24.0,,,,,,,,sub_545,2023-12-25_11h33.20.412,Reversal,2023.1.3,60.01640848602364,1,
0,exp1.png,exp2.png,,3,0,3,0,0,0,0,0,,,,,,,,,,,,,,,,,,,,,,,,,True,,,,,,,,,,,,,,,,,,,,,,,,,,,,,,,,,,,sub_545,2023-12-25_11h33.20.412,Reversal,2023.1.3,60.01640848602364,1,
1,exp3.png,exp4.png,,3,0,3,0,0,1,1,1,,,,,,,,,,,,,,,,,,,,,,,,,False,60,61,False,exp3.png,exp4.png,trial_right_image,-1,exp4.png,1,exp3.png,exp4.png,0,2,non-reversed,incorrect,0.6994376919198569,0,valid_lose,379.6876431999999,32,,,,,,,,,,,,,,,sub_545,2023-12-25_11h33.20.412,Reversal,2023.1.3,60.01640848602364,1,
2,exp1.png,exp2.png,,3,0,3,0,0,2,2,2,,,,,,,,,,,,,,,,,,,,,,,,,False,61,62,True,exp2.png,exp1.png,trial_right_image,-1,exp1.png,1,exp1.png,exp2.png,1,3,reversed,correct,0.5806034599605744,1,valid_win,384.5023725000001,33,,,,,,,,,,,,,,,sub_545,2023-12-25_11h33.20.412,Reversal,2023.1.3,60.01640848602364,1,
3,exp3.png,exp4.png,,3,0,3,0,0,3,3,3,,,,,,,,,,,,,,,,,,,,,,,,,False,62,63,False,exp3.png,exp4.png,trial_left_image,1,exp3.png,1,exp3.png,exp4.png,1,1,non-reversed,correct,0.4799391897458677,1,valid_win,390.0171173000008,34,,,,,,,,,,,,,,,sub_545,2023-12-25_11h33.20.412,Reversal,2023.1.3,60.01640848602364,1,
4,exp1.png,exp2.png,,3,0,3,0,0,4,4,4,,,,,,,,,,,,,,,,,,,,,,,,,False,63,64,False,exp1.png,exp2.png,trial_left_image,1,exp1.png,1,exp1.png,exp2.png,1,3,reversed,correct,0.01659490402011432,0,invalid_lose,394.96581460000107,34,,,,,,,,,,,,,,,sub_545,2023-12-25_11h33.20.412,Reversal,2023.1.3,60.01640848602364,1,
5,exp3.png,exp4.png,,3,0,3,0,0,5,5,5,,,,,,,,,,,,,,,,,,,,,,,,,False,64,65,True,exp4.png,exp3.png,trial_left_image,1,exp4.png,1,exp3.png,exp4.png,0,2,non-reversed,incorrect,0.5823057694404015,0,valid_lose,399.63084170000093,34,,,,,,,,,,,,,,,sub_545,2023-12-25_11h33.20.412,Reversal,2023.1.3,60.01640848602364,1,
6,exp1.png,exp2.png,,3,0,3,0,0,6,6,6,,,,,,,,,,,,,,,,,,,,,,,,,False,65,66,True,exp2.png,exp1.png,trial_right_image,-1,exp1.png,1,exp1.png,exp2.png,1,3,reversed,correct,0.553860715825353,1,valid_win,408.31092550000085,35,,,,,,,,,,,,,,,sub_545,2023-12-25_11h33.20.412,Reversal,2023.1.3,60.01640848602364,1,
7,exp3.png,exp4.png,,3,0,3,0,0,7,7,7,,,,,,,,,,,,,,,,,,,,,,,,,False,66,67,True,exp4.png,exp3.png,trial_right_image,-1,exp3.png,1,exp3.png,exp4.png,1,1,non-reversed,correct,0.07201726284256638,0,invalid_lose,412.72619510000095,35,,,,,,,,,,,,,,,sub_545,2023-12-25_11h33.20.412,Reversal,2023.1.3,60.01640848602364,1,
8,exp1.png,exp2.png,,3,0,3,0,0,8,8,8,,,,,,,,,,,,,,,,,,,,,,,,,False,67,68,False,exp1.png,exp2.png,trial_right_image,-1,exp2.png,1,exp1.png,exp2.png,0,4,reversed,incorrect,0.5249045638379863,0,valid_lose,418.9577827000003,35,,,,,,,,,,,,,,,sub_545,2023-12-25_11h33.20.412,Reversal,2023.1.3,60.01640848602364,1,
9,exp3.png,exp4.png,,3,0,3,0,0,9,9,9,,,,,,,,,,,,,,,,,,,,,,,,,False,68,69,True,exp4.png,exp3.png,trial_right_image,-1,exp3.png,1,exp3.png,exp4.png,1,1,non-reversed,correct,0.979016679725852,1,valid_win,424.7391154000006,36,,,,,,,,,,,,,,,sub_545,2023-12-25_11h33.20.412,Reversal,2023.1.3,60.01640848602364,1,
10,exp1.png,exp2.png,,3,0,3,0,0,10,10,10,,,,,,,,,,,,,,,,,,,,,,,,,False,69,70,False,exp1.png,exp2.png,trial_left_image,1,exp1.png,1,exp1.png,exp2.png,1,3,reversed,correct,0.4525662192380122,1,valid_win,431.1707345999994,37,,,,,,,,,,,,,,,sub_545,2023-12-25_11h33.20.412,Reversal,2023.1.3,60.01640848602364,1,
11,exp3.png,exp4.png,,3,0,3,0,0,11,11,11,,,,,,,,,,,,,,,,,,,,,,,,,False,70,71,False,exp3.png,exp4.png,trial_left_image,1,exp3.png,1,exp3.png,exp4.png,1,1,non-reversed,correct,0.44218840412967875,1,valid_win,435.5686802000009,38,,,,,,,,,,,,,,,sub_545,2023-12-25_11h33.20.412,Reversal,2023.1.3,60.01640848602364,1,
12,exp1.png,exp2.png,,3,0,3,0,0,12,12,12,,,,,,,,,,,,,,,,,,,,,,,,,False,71,72,True,exp2.png,exp1.png,trial_right_image,-1,exp1.png,1,exp1.png,exp2.png,1,3,reversed,correct,0.5625863086604355,1,valid_win,440.2667157999995,39,,,,,,,,,,,,,,,sub_545,2023-12-25_11h33.20.412,Reversal,2023.1.3,60.01640848602364,1,
13,exp3.png,exp4.png,,3,0,3,0,0,13,13,13,,,,,,,,,,,,,,,,,,,,,,,,,False,72,73,True,exp4.png,exp3.png,trial_right_image,-1,exp3.png,1,exp3.png,exp4.png,1,1,non-reversed,correct,0.4765323994511341,1,valid_win,445.6484200999994,40,,,,,,,,,,,,,,,sub_545,2023-12-25_11h33.20.412,Reversal,2023.1.3,60.01640848602364,1,
14,exp1.png,exp2.png,,3,0,3,0,0,14,14,14,,,,,,,,,,,,,,,,,,,,,,,,,False,73,74,True,exp2.png,exp1.png,trial_right_image,-1,exp1.png,1,exp1.png,exp2.png,1,3,reversed,correct,0.6319626972235841,1,valid_win,449.86355260000073,41,,,,,,,,,,,,,,,sub_545,2023-12-25_11h33.20.412,Reversal,2023.1.3,60.01640848602364,1,
15,exp3.png,exp4.png,,3,0,3,0,0,15,15,15,,,,,,,,,,,,,,,,,,,,,,,,,False,74,75,False,exp3.png,exp4.png,trial_left_image,1,exp3.png,1,exp3.png,exp4.png,1,1,non-reversed,correct,0.014325997792174139,0,invalid_lose,454.5288258999999,41,,,,,,,,,,,,,,,sub_545,2023-12-25_11h33.20.412,Reversal,2023.1.3,60.01640848602364,1,
16,exp1.png,exp2.png,,3,0,3,0,0,16,16,16,,,,,,,,,,,,,,,,,,,,,,,,,False,75,76,False,exp1.png,exp2.png,trial_right_image,-1,exp2.png,1,exp1.png,exp2.png,0,4,reversed,incorrect,0.8885860374705988,0,valid_lose,460.1777757000009,41,,,,,,,,,,,,,,,sub_545,2023-12-25_11h33.20.412,Reversal,2023.1.3,60.01640848602364,1,
17,exp3.png,exp4.png,,3,0,3,0,0,17,17,17,,,,,,,,,,,,,,,,,,,,,,,,,False,76,77,True,exp4.png,exp3.png,trial_left_image,1,exp4.png,1,exp3.png,exp4.png,0,2,non-reversed,incorrect,0.10130921085002309,1,invalid_win,464.30859150000015,42,,,,,,,,,,,,,,,sub_545,2023-12-25_11h33.20.412,Reversal,2023.1.3,60.01640848602364,1,
18,exp1.png,exp2.png,,3,0,3,0,0,18,18,18,,,,,,,,,,,,,,,,,,,,,,,,,False,77,78,False,exp1.png,exp2.png,trial_left_image,1,exp1.png,1,exp1.png,exp2.png,1,3,reversed,correct,0.8494346155662378,1,valid_win,468.4570556999997,43,,,,,,,,,,,,,,,sub_545,2023-12-25_11h33.20.412,Reversal,2023.1.3,60.01640848602364,1,
19,exp3.png,exp4.png,,3,0,3,0,0,19,19,19,,,,,,,,,,,,,,,,,,,,,,,,,False,78,79,True,exp4.png,exp3.png,trial_left_image,1,exp4.png,1,exp3.png,exp4.png,0,2,non-reversed,incorrect,0.13205055335797833,1,invalid_win,472.4233379999996,44,,,,,,,,,,,,,,,sub_545,2023-12-25_11h33.20.412,Reversal,2023.1.3,60.01640848602364,1,
20,exp1.png,exp2.png,,3,0,3,0,0,20,20,20,,,,,,,,,,,,,,,,,,,,,,,,,False,79,80,False,exp1.png,exp2.png,trial_left_image,1,exp1.png,1,exp1.png,exp2.png,1,3,reversed,correct,0.5335239447828249,1,valid_win,476.57181070000024,45,,,,,,,,,,,,,,,sub_545,2023-12-25_11h33.20.412,Reversal,2023.1.3,60.01640848602364,1,
,,,exp1.png,3,0,3,0,,,,,0,0,0,0,0,0,0,0,,,,,,,,,,,,,,,,,,,,,,,,,,,,,,,,,,,,,,550.7193960000004,74.0,74.0,1.6596233000000211,"[(74.0, 1.6596233000000211)]",,,,,,,,,,sub_545,2023-12-25_11h33.20.412,Reversal,2023.1.3,60.01640848602364,1,
,,,exp2.png,3,0,3,0,,,,,0,0,0,0,0,1,1,1,,,,,,,,,,,,,,,,,,,,,,,,,,,,,,,,,,,,,,553.6341439999997,,74.0,0.9292010000008304,"[(74.0, 0.9292010000008304)]",,,74.0,,,,,,,sub_545,2023-12-25_11h33.20.412,Reversal,2023.1.3,60.01640848602364,1,
,,,exp3.png,3,0,3,0,,,,,0,0,0,0,0,2,2,2,,,,,,,,,,,,,,,,,,,,,,,,,,,,,,,,,,,,,,555.5149400000009,,74.0,1.5100132999996276,"[(74.0, 1.5100132999996276)]",74.0,,,,,,,,,sub_545,2023-12-25_11h33.20.412,Reversal,2023.1.3,60.01640848602364,1,
,,,exp4.png,3,0,3,0,,,,,0,0,0,0,0,3,3,3,,,,,,,,,,,,,,,,,,,,,,,,,,,,,,,,,,,,,,557.7987284999999,,75.0,1.1101433000003453,"[(75.0, 1.1101433000003453)]",,75.0,,,,,,,,sub_545,2023-12-25_11h33.20.412,Reversal,2023.1.3,60.01640848602364,1,
0,exp1.png,exp2.png,,,,,,,,,,,,,,,,,,0,0,0,0,0,0,0,0,,,,,,,,,True,,,,,,,,,,,,,,,,,,,,,,,,,,,,,,,,,,,sub_545,2023-12-25_11h33.20.412,Reversal,2023.1.3,60.01640848602364,1,
1,exp3.png,exp4.png,,,,,,,,,,,,,,,,,,0,0,0,0,0,1,1,1,,,,,,,,,False,0,81,False,exp3.png,exp4.png,trial_right_image,-1,exp4.png,1,exp3.png,exp4.png,0,2,non-reversed,incorrect,0.3382020196478499,0,valid_lose,491.21614619999946,45,,,,,,,,,488.1822038,,,,,,sub_545,2023-12-25_11h33.20.412,Reversal,2023.1.3,60.01640848602364,1,
2,exp1.png,exp2.png,,,,,,,,,,,,,,,,,,0,0,0,0,0,2,2,2,,,,,,,,,False,1,82,False,exp1.png,exp2.png,trial_left_image,1,exp1.png,1,exp2.png,exp1.png,1,3,reversed,incorrect,0.4339638953048558,0,valid_lose,495.2984110999996,45,,,,,,,,,,,,,,,sub_545,2023-12-25_11h33.20.412,Reversal,2023.1.3,60.01640848602364,1,
3,exp3.png,exp4.png,,,,,,,,,,,,,,,,,,0,0,0,0,0,3,3,3,,,,,,,,,False,2,83,True,exp4.png,exp3.png,trial_right_image,-1,exp3.png,1,exp3.png,exp4.png,1,1,non-reversed,correct,0.8836677636828517,1,valid_win,499.81348809999963,46,,,,,,,,,,,,,,,sub_545,2023-12-25_11h33.20.412,Reversal,2023.1.3,60.01640848602364,1,
4,exp1.png,exp2.png,,,,,,,,,,,,,,,,,,0,0,0,0,0,4,4,4,,,,,,,,,False,3,84,True,exp2.png,exp1.png,trial_right_image,-1,exp1.png,1,exp2.png,exp1.png,1,3,reversed,incorrect,0.9728623128635384,0,valid_lose,503.81255090000104,46,,,,,,,,,,,,,,,sub_545,2023-12-25_11h33.20.412,Reversal,2023.1.3,60.01640848602364,1,
5,exp3.png,exp4.png,,,,,,,,,,,,,,,,,,0,0,0,0,0,5,5,5,,,,,,,,,False,4,85,True,exp4.png,exp3.png,trial_left_image,1,exp4.png,1,exp3.png,exp4.png,0,2,non-reversed,incorrect,0.8054615395085509,0,valid_lose,509.12704100000064,46,,,,,,,,,,,,,,,sub_545,2023-12-25_11h33.20.412,Reversal,2023.1.3,60.01640848602364,1,
6,exp1.png,exp2.png,,,,,,,,,,,,,,,,,,0,0,0,0,0,6,6,6,,,,,,,,,False,5,86,False,exp1.png,exp2.png,trial_left_image,1,exp1.png,1,exp2.png,exp1.png,1,3,reversed,incorrect,0.06724871850098901,1,invalid_win,513.6593487,47,,,,,,,,,,,,,,,sub_545,2023-12-25_11h33.20.412,Reversal,2023.1.3,60.01640848602364,1,
7,exp3.png,exp4.png,,,,,,,,,,,,,,,,,,0,0,0,0,0,7,7,7,,,,,,,,,False,6,87,False,exp3.png,exp4.png,trial_left_image,1,exp3.png,1,exp3.png,exp4.png,1,1,non-reversed,correct,0.09471377430101313,0,invalid_lose,517.6574069999997,47,,,,,,,,,,,,,,,sub_545,2023-12-25_11h33.20.412,Reversal,2023.1.3,60.01640848602364,1,
8,exp1.png,exp2.png,,,,,,,,,,,,,,,,,,0,0,0,0,0,8,8,8,,,,,,,,,False,7,88,True,exp2.png,exp1.png,trial_left_image,1,exp2.png,1,exp2.png,exp1.png,0,4,reversed,correct,0.31721091648642574,1,valid_win,522.0560581,48,,,,,,,,,,,,,,,sub_545,2023-12-25_11h33.20.412,Reversal,2023.1.3,60.01640848602364,1,
9,exp3.png,exp4.png,,,,,,,,,,,,,,,,,,0,0,0,0,0,9,9,9,,,,,,,,,False,8,89,True,exp4.png,exp3.png,trial_right_image,-1,exp3.png,1,exp3.png,exp4.png,1,1,non-reversed,correct,0.1935881832970141,0,invalid_lose,526.088069800001,48,,,,,,,,,,,,,,,sub_545,2023-12-25_11h33.20.412,Reversal,2023.1.3,60.01640848602364,1,
10,exp1.png,exp2.png,,,,,,,,,,,,,,,,,,0,0,0,0,0,10,10,10,,,,,,,,,False,9,90,True,exp2.png,exp1.png,trial_left_image,1,exp2.png,1,exp2.png,exp1.png,0,4,reversed,correct,0.8209827473536341,1,valid_win,530.0035619,49,,,,,,,,,,,,,,,sub_545,2023-12-25_11h33.20.412,Reversal,2023.1.3,60.01640848602364,1,
11,exp3.png,exp4.png,,,,,,,,,,,,,,,,,,0,0,0,0,0,11,11,11,,,,,,,,,False,10,91,True,exp4.png,exp3.png,trial_left_image,1,exp4.png,1,exp3.png,exp4.png,0,2,non-reversed,incorrect,0.3183171185039597,0,valid_lose,533.9355065999998,49,,,,,,,,,,,,,,,sub_545,2023-12-25_11h33.20.412,Reversal,2023.1.3,60.01640848602364,1,
12,exp1.png,exp2.png,,,,,,,,,,,,,,,,,,0,0,0,0,0,12,12,12,,,,,,,,,False,11,92,True,exp2.png,exp1.png,trial_left_image,1,exp2.png,1,exp2.png,exp1.png,0,4,reversed,correct,0.948267781898298,1,valid_win,537.9011572999998,50,,,,,,,,,,,,,,,sub_545,2023-12-25_11h33.20.412,Reversal,2023.1.3,60.01640848602364,1,
13,exp3.png,exp4.png,,,,,,,,,,,,,,,,,,0,0,0,0,0,13,13,13,,,,,,,,,False,12,93,False,exp3.png,exp4.png,trial_left_image,1,exp3.png,1,exp3.png,exp4.png,1,1,non-reversed,correct,0.7317116800163291,1,valid_win,542.2492582999994,51,,,,,,,,,,,,,,,sub_545,2023-12-25_11h33.20.412,Reversal,2023.1.3,60.01640848602364,1,
14,exp1.png,exp2.png,,,,,,,,,,,,,,,,,,0,0,0,0,0,14,14,14,,,,,,,,,False,13,94,False,exp1.png,exp2.png,trial_left_image,1,exp1.png,1,exp2.png,exp1.png,1,3,reversed,incorrect,0.8608775570945875,0,valid_lose,549.2134670999994,51,,,,,,,,,,,,,,,sub_545,2023-12-25_11h33.20.412,Reversal,2023.1.3,60.01640848602364,1,
15,exp3.png,exp4.png,,,,,,,,,,,,,,,,,,0,0,0,0,0,15,15,15,,,,,,,,,False,14,95,False,exp3.png,exp4.png,trial_left_image,1,exp3.png,1,exp3.png,exp4.png,1,1,non-reversed,correct,0.5994623455594478,1,valid_win,553.1458157999996,52,,,,,,,,,,,,,,,sub_545,2023-12-25_11h33.20.412,Reversal,2023.1.3,60.01640848602364,1,
16,exp1.png,exp2.png,,,,,,,,,,,,,,,,,,0,0,0,0,0,16,16,16,,,,,,,,,False,15,96,False,exp1.png,exp2.png,trial_right_image,-1,exp2.png,1,exp2.png,exp1.png,0,4,reversed,correct,0.20619677203338183,0,invalid_lose,557.0109151000006,52,,,,,,,,,,,,,,,sub_545,2023-12-25_11h33.20.412,Reversal,2023.1.3,60.01640848602364,1,
17,exp3.png,exp4.png,,,,,,,,,,,,,,,,,,0,0,0,0,0,17,17,17,,,,,,,,,False,16,97,False,exp3.png,exp4.png,trial_left_image,1,exp3.png,1,exp3.png,exp4.png,1,1,non-reversed,correct,0.8171605341080607,1,valid_win,561.9428815000001,53,,,,,,,,,,,,,,,sub_545,2023-12-25_11h33.20.412,Reversal,2023.1.3,60.01640848602364,1,
18,exp1.png,exp2.png,,,,,,,,,,,,,,,,,,0,0,0,0,0,18,18,18,,,,,,,,,False,17,98,False,exp1.png,exp2.png,trial_left_image,1,exp1.png,1,exp2.png,exp1.png,1,3,reversed,incorrect,0.2944876516377304,0,valid_lose,567.4907807999998,53,,,,,,,,,,,,,,,sub_545,2023-12-25_11h33.20.412,Reversal,2023.1.3,60.01640848602364,1,
19,exp3.png,exp4.png,,,,,,,,,,,,,,,,,,0,0,0,0,0,19,19,19,,,,,,,,,False,18,99,True,exp4.png,exp3.png,trial_right_image,-1,exp3.png,1,exp3.png,exp4.png,1,1,non-reversed,correct,0.705208247654209,1,valid_win,571.6554932999998,54,,,,,,,,,,,,,,,sub_545,2023-12-25_11h33.20.412,Reversal,2023.1.3,60.01640848602364,1,
20,exp1.png,exp2.png,,,,,,,,,,,,,,,,,,0,0,0,0,0,20,20,20,,,,,,,,,False,19,100,True,exp2.png,exp1.png,trial_left_image,1,exp2.png,1,exp2.png,exp1.png,0,4,reversed,correct,0.3343657714266569,1,valid_win,575.7877951,55,,,,,,,,,,,,,,,sub_545,2023-12-25_11h33.20.412,Reversal,2023.1.3,60.01640848602364,1,
,,,exp1.png,,,,,,,,,,,,,,,,,0,0,0,0,,,,,0,0,0,0,0,0,0,0,,,,,,,,,,,,,,,,,,,,,,649.9450206000001,72.0,72.0,1.4330188000003545,"[(72.0, 1.4330188000003545)]",,,,,,,,,,sub_545,2023-12-25_11h33.20.412,Reversal,2023.1.3,60.01640848602364,1,
,,,exp2.png,,,,,,,,,,,,,,,,,0,0,0,0,,,,,0,0,0,0,0,1,1,1,,,,,,,,,,,,,,,,,,,,,,652.2647904000005,,78.0,1.0106436000005488,"[(78.0, 1.0106436000005488)]",,,78.0,,,,,,,sub_545,2023-12-25_11h33.20.412,Reversal,2023.1.3,60.01640848602364,1,
,,,exp3.png,,,,,,,,,,,,,,,,,0,0,0,0,,,,,0,0,0,0,0,2,2,2,,,,,,,,,,,,,,,,,,,,,,654.2173060000005,,76.0,0.949289599999247,"[(76.0, 0.949289599999247)]",76.0,,,,,,,,,sub_545,2023-12-25_11h33.20.412,Reversal,2023.1.3,60.01640848602364,1,
,,,exp4.png,,,,,,,,,,,,,,,,,0,0,0,0,,,,,0,0,0,0,0,3,3,3,,,,,,,,,,,,,,,,,,,,,,655.9822445999998,,71.0,0.8429306999987602,"[(71.0, 0.8429306999987602)]",,71.0,,,,,,,,sub_545,2023-12-25_11h33.20.412,Reversal,2023.1.3,60.01640848602364,1,
0,exp1.png,exp2.png,,,,,,,,,,,,,,,,,,1,0,1,0,0,0,0,0,,,,,,,,,True,,,,,,,,,,,,,,,,,,,,,,,,,,,,,,,,,,,sub_545,2023-12-25_11h33.20.412,Reversal,2023.1.3,60.01640848602364,1,
1,exp3.png,exp4.png,,,,,,,,,,,,,,,,,,1,0,1,0,0,1,1,1,,,,,,,,,False,20,101,False,exp3.png,exp4.png,trial_right_image,-1,exp4.png,1,exp3.png,exp4.png,0,2,non-reversed,incorrect,0.7410746698917369,0,valid_lose,588.3999785999995,55,,,,,,,,,,,,,,,sub_545,2023-12-25_11h33.20.412,Reversal,2023.1.3,60.01640848602364,1,
2,exp1.png,exp2.png,,,,,,,,,,,,,,,,,,1,0,1,0,0,2,2,2,,,,,,,,,False,21,102,False,exp1.png,exp2.png,trial_right_image,-1,exp2.png,1,exp2.png,exp1.png,0,4,reversed,correct,0.5281556976170046,1,valid_win,592.7322121999996,56,,,,,,,,,,,,,,,sub_545,2023-12-25_11h33.20.412,Reversal,2023.1.3,60.01640848602364,1,
3,exp3.png,exp4.png,,,,,,,,,,,,,,,,,,1,0,1,0,0,3,3,3,,,,,,,,,False,22,103,True,exp4.png,exp3.png,trial_left_image,1,exp4.png,1,exp3.png,exp4.png,0,2,non-reversed,incorrect,0.34615746187639895,0,valid_lose,596.780605500001,56,,,,,,,,,,,,,,,sub_545,2023-12-25_11h33.20.412,Reversal,2023.1.3,60.01640848602364,1,
4,exp1.png,exp2.png,,,,,,,,,,,,,,,,,,1,0,1,0,0,4,4,4,,,,,,,,,False,23,104,True,exp2.png,exp1.png,trial_left_image,1,exp2.png,1,exp2.png,exp1.png,0,4,reversed,correct,0.1975635664946762,0,invalid_lose,600.7791764000003,56,,,,,,,,,,,,,,,sub_545,2023-12-25_11h33.20.412,Reversal,2023.1.3,60.01640848602364,1,
5,exp3.png,exp4.png,,,,,,,,,,,,,,,,,,1,0,1,0,0,5,5,5,,,,,,,,,False,24,105,False,exp3.png,exp4.png,trial_left_image,1,exp3.png,1,exp3.png,exp4.png,1,1,non-reversed,correct,0.6960539622887832,1,valid_win,607.9270724999997,57,,,,,,,,,,,,,,,sub_545,2023-12-25_11h33.20.412,Reversal,2023.1.3,60.01640848602364,1,
6,exp1.png,exp2.png,,,,,,,,,,,,,,,,,,1,0,1,0,0,6,6,6,,,,,,,,,False,25,106,True,exp2.png,exp1.png,trial_right_image,-1,exp1.png,1,exp2.png,exp1.png,1,3,reversed,incorrect,0.8976436195791723,0,valid_lose,612.1088565,57,,,,,,,,,,,,,,,sub_545,2023-12-25_11h33.20.412,Reversal,2023.1.3,60.01640848602364,1,
7,exp3.png,exp4.png,,,,,,,,,,,,,,,,,,1,0,1,0,0,7,7,7,,,,,,,,,False,26,107,True,exp4.png,exp3.png,trial_right_image,-1,exp3.png,1,exp3.png,exp4.png,1,1,non-reversed,correct,0.5051336365530326,1,valid_win,616.0577177000005,58,,,,,,,,,,,,,,,sub_545,2023-12-25_11h33.20.412,Reversal,2023.1.3,60.01640848602364,1,
8,exp1.png,exp2.png,,,,,,,,,,,,,,,,,,1,0,1,0,0,8,8,8,,,,,,,,,False,27,108,True,exp2.png,exp1.png,trial_left_image,1,exp2.png,1,exp2.png,exp1.png,0,4,reversed,correct,0.5957984464495842,1,valid_win,620.8228322999994,59,,,,,,,,,,,,,,,sub_545,2023-12-25_11h33.20.412,Reversal,2023.1.3,60.01640848602364,1,
9,exp3.png,exp4.png,,,,,,,,,,,,,,,,,,1,0,1,0,0,9,9,9,,,,,,,,,False,28,109,False,exp3.png,exp4.png,trial_left_image,1,exp3.png,1,exp3.png,exp4.png,1,1,non-reversed,correct,0.04534717999943316,0,invalid_lose,624.9378196000007,59,,,,,,,,,,,,,,,sub_545,2023-12-25_11h33.20.412,Reversal,2023.1.3,60.01640848602364,1,
10,exp1.png,exp2.png,,,,,,,,,,,,,,,,,,1,0,1,0,0,10,10,10,,,,,,,,,False,29,110,False,exp1.png,exp2.png,trial_left_image,1,exp1.png,1,exp2.png,exp1.png,1,3,reversed,incorrect,0.18792498708339078,1,invalid_win,629.4866671999998,60,,,,,,,,,,,,,,,sub_545,2023-12-25_11h33.20.412,Reversal,2023.1.3,60.01640848602364,1,
11,exp3.png,exp4.png,,,,,,,,,,,,,,,,,,1,0,1,0,0,11,11,11,,,,,,,,,False,30,111,True,exp4.png,exp3.png,trial_left_image,1,exp4.png,1,exp3.png,exp4.png,0,2,non-reversed,incorrect,0.23162472672849777,1,invalid_win,633.5183422,61,,,,,,,,,,,,,,,sub_545,2023-12-25_11h33.20.412,Reversal,2023.1.3,60.01640848602364,1,
12,exp1.png,exp2.png,,,,,,,,,,,,,,,,,,1,0,1,0,0,12,12,12,,,,,,,,,False,31,112,True,exp2.png,exp1.png,trial_right_image,-1,exp1.png,1,exp2.png,exp1.png,1,3,reversed,incorrect,0.33405017919327806,0,valid_lose,637.9332012000004,61,,,,,,,,,,,,,,,sub_545,2023-12-25_11h33.20.412,Reversal,2023.1.3,60.01640848602364,1,
13,exp3.png,exp4.png,,,,,,,,,,,,,,,,,,1,0,1,0,0,13,13,13,,,,,,,,,False,32,113,False,exp3.png,exp4.png,trial_right_image,-1,exp4.png,1,exp3.png,exp4.png,0,2,non-reversed,incorrect,0.7120151978637254,0,valid_lose,641.9487417000009,61,,,,,,,,,,,,,,,sub_545,2023-12-25_11h33.20.412,Reversal,2023.1.3,60.01640848602364,1,
14,exp1.png,exp2.png,,,,,,,,,,,,,,,,,,1,0,1,0,0,14,14,14,,,,,,,,,False,33,114,False,exp1.png,exp2.png,trial_right_image,-1,exp2.png,1,exp2.png,exp1.png,0,4,reversed,correct,0.6963096761746682,1,valid_win,646.7472416999999,62,,,,,,,,,,,,,,,sub_545,2023-12-25_11h33.20.412,Reversal,2023.1.3,60.01640848602364,1,
15,exp3.png,exp4.png,,,,,,,,,,,,,,,,,,1,0,1,0,0,15,15,15,,,,,,,,,False,34,115,True,exp4.png,exp3.png,trial_left_image,1,exp4.png,1,exp3.png,exp4.png,0,2,non-reversed,incorrect,0.9550485709289404,0,valid_lose,651.3453259000007,62,,,,,,,,,,,,,,,sub_545,2023-12-25_11h33.20.412,Reversal,2023.1.3,60.01640848602364,1,
16,exp1.png,exp2.png,,,,,,,,,,,,,,,,,,1,0,1,0,0,16,16,16,,,,,,,,,False,35,116,False,exp1.png,exp2.png,trial_right_image,-1,exp2.png,1,exp2.png,exp1.png,0,4,reversed,correct,0.6551517744001536,1,valid_win,655.4439745000009,63,,,,,,,,,,,,,,,sub_545,2023-12-25_11h33.20.412,Reversal,2023.1.3,60.01640848602364,1,
17,exp3.png,exp4.png,,,,,,,,,,,,,,,,,,1,0,1,0,0,17,17,17,,,,,,,,,False,36,117,True,exp4.png,exp3.png,trial_right_image,-1,exp3.png,1,exp3.png,exp4.png,1,1,non-reversed,correct,0.40294272007724774,1,valid_win,659.3430082000004,64,,,,,,,,,,,,,,,sub_545,2023-12-25_11h33.20.412,Reversal,2023.1.3,60.01640848602364,1,
18,exp1.png,exp2.png,,,,,,,,,,,,,,,,,,1,0,1,0,0,18,18,18,,,,,,,,,False,37,118,False,exp1.png,exp2.png,trial_right_image,-1,exp2.png,1,exp2.png,exp1.png,0,4,reversed,correct,0.1892773204488104,0,invalid_lose,663.4086501000011,64,,,,,,,,,,,,,,,sub_545,2023-12-25_11h33.20.412,Reversal,2023.1.3,60.01640848602364,1,
19,exp3.png,exp4.png,,,,,,,,,,,,,,,,,,1,0,1,0,0,19,19,19,,,,,,,,,False,38,119,False,exp3.png,exp4.png,trial_right_image,-1,exp4.png,1,exp3.png,exp4.png,0,2,non-reversed,incorrect,0.4202735891658901,0,valid_lose,667.4067201999997,64,,,,,,,,,,,,,,,sub_545,2023-12-25_11h33.20.412,Reversal,2023.1.3,60.01640848602364,1,
20,exp1.png,exp2.png,,,,,,,,,,,,,,,,,,1,0,1,0,0,20,20,20,,,,,,,,,False,39,120,True,exp2.png,exp1.png,trial_right_image,-1,exp1.png,1,exp2.png,exp1.png,1,3,reversed,incorrect,0.685516621885251,0,valid_lose,672.1059599999999,64,,,,,,,,,,,,,,,sub_545,2023-12-25_11h33.20.412,Reversal,2023.1.3,60.01640848602364,1,
,,,exp1.png,,,,,,,,,,,,,,,,,1,0,1,0,,,,,0,0,0,0,0,0,0,0,,,,,,,,,,,,,,,,,,,,,,746.2634567000005,76.0,76.0,1.4663682999998855,"[(76.0, 1.4663682999998855)]",,,,,,,,,,sub_545,2023-12-25_11h33.20.412,Reversal,2023.1.3,60.01640848602364,1,
,,,exp2.png,,,,,,,,,,,,,,,,,1,0,1,0,,,,,0,0,0,0,0,1,1,1,,,,,,,,,,,,,,,,,,,,,,748.5495444000007,,73.0,0.8109234000003198,"[(73.0, 0.8109234000003198)]",,,73.0,,,,,,,sub_545,2023-12-25_11h33.20.412,Reversal,2023.1.3,60.01640848602364,1,
,,,exp3.png,,,,,,,,,,,,,,,,,1,0,1,0,,,,,0,0,0,0,0,2,2,2,,,,,,,,,,,,,,,,,,,,,,750.1841767999995,,73.0,0.6933474000015849,"[(73.0, 0.6933474000015849)]",73.0,,,,,,,,,sub_545,2023-12-25_11h33.20.412,Reversal,2023.1.3,60.01640848602364,1,
,,,exp4.png,,,,,,,,,,,,,,,,,1,0,1,0,,,,,0,0,0,0,0,3,3,3,,,,,,,,,,,,,,,,,,,,,,751.6655866000001,,76.0,0.7770390999994561,"[(76.0, 0.7770390999994561)]",,76.0,,,,,,,,sub_545,2023-12-25_11h33.20.412,Reversal,2023.1.3,60.01640848602364,1,
0,exp1.png,exp2.png,,,,,,,,,,,,,,,,,,2,0,2,0,0,0,0,0,,,,,,,,,True,,,,,,,,,,,,,,,,,,,,,,,,,,,,,,,,,,,sub_545,2023-12-25_11h33.20.412,Reversal,2023.1.3,60.01640848602364,1,
1,exp3.png,exp4.png,,,,,,,,,,,,,,,,,,2,0,2,0,0,1,1,1,,,,,,,,,False,40,121,False,exp3.png,exp4.png,trial_right_image,-1,exp4.png,1,exp3.png,exp4.png,0,2,non-reversed,incorrect,0.19768633858800388,1,invalid_win,684.0680388999999,65,,,,,,,,,,,,,,,sub_545,2023-12-25_11h33.20.412,Reversal,2023.1.3,60.01640848602364,1,
2,exp1.png,exp2.png,,,,,,,,,,,,,,,,,,2,0,2,0,0,2,2,2,,,,,,,,,False,41,122,False,exp1.png,exp2.png,trial_left_image,1,exp1.png,1,exp2.png,exp1.png,1,3,reversed,incorrect,0.6715952135730053,0,valid_lose,688.4497242000007,65,,,,,,,,,,,,,,,sub_545,2023-12-25_11h33.20.412,Reversal,2023.1.3,60.01640848602364,1,
3,exp3.png,exp4.png,,,,,,,,,,,,,,,,,,2,0,2,0,0,3,3,3,,,,,,,,,False,42,123,False,exp3.png,exp4.png,trial_right_image,-1,exp4.png,1,exp3.png,exp4.png,0,2,non-reversed,incorrect,0.0963917013821346,1,invalid_win,692.3982604000003,66,,,,,,,,,,,,,,,sub_545,2023-12-25_11h33.20.412,Reversal,2023.1.3,60.01640848602364,1,
4,exp1.png,exp2.png,,,,,,,,,,,,,,,,,,2,0,2,0,0,4,4,4,,,,,,,,,False,43,124,True,exp2.png,exp1.png,trial_right_image,-1,exp1.png,1,exp2.png,exp1.png,1,3,reversed,incorrect,0.09824255365926038,1,invalid_win,698.2300678000001,67,,,,,,,,,,,,,,,sub_545,2023-12-25_11h33.20.412,Reversal,2023.1.3,60.01640848602364,1,
5,exp3.png,exp4.png,,,,,,,,,,,,,,,,,,2,0,2,0,0,5,5,5,,,,,,,,,False,44,125,True,exp4.png,exp3.png,trial_left_image,1,exp4.png,1,exp3.png,exp4.png,0,2,non-reversed,incorrect,0.7278881515774575,0,valid_lose,702.5113475000007,67,,,,,,,,,,,,,,,sub_545,2023-12-25_11h33.20.412,Reversal,2023.1.3,60.01640848602364,1,
6,exp1.png,exp2.png,,,,,,,,,,,,,,,,,,2,0,2,0,0,6,6,6,,,,,,,,,False,45,126,True,exp2.png,exp1.png,trial_right_image,-1,exp1.png,1,exp2.png,exp1.png,1,3,reversed,incorrect,0.1797619100220339,1,invalid_win,706.6270530000011,68,,,,,,,,,,,,,,,sub_545,2023-12-25_11h33.20.412,Reversal,2023.1.3,60.01640848602364,1,
7,exp3.png,exp4.png,,,,,,,,,,,,,,,,,,2,0,2,0,0,7,7,7,,,,,,,,,False,46,127,True,exp4.png,exp3.png,trial_right_image,-1,exp3.png,1,exp3.png,exp4.png,1,1,non-reversed,correct,0.5167037869859931,1,valid_win,710.5924542000002,69,,,,,,,,,,,,,,,sub_545,2023-12-25_11h33.20.412,Reversal,2023.1.3,60.01640848602364,1,
8,exp1.png,exp2.png,,,,,,,,,,,,,,,,,,2,0,2,0,0,8,8,8,,,,,,,,,False,47,128,False,exp1.png,exp2.png,trial_right_image,-1,exp2.png,1,exp2.png,exp1.png,0,4,reversed,correct,0.34731673119471274,1,valid_win,715.873793400001,70,,,,,,,,,,,,,,,sub_545,2023-12-25_11h33.20.412,Reversal,2023.1.3,60.01640848602364,1,
9,exp3.png,exp4.png,,,,,,,,,,,,,,,,,,2,0,2,0,0,9,9,9,,,,,,,,,False,48,129,True,exp4.png,exp3.png,trial_right_image,-1,exp3.png,1,exp3.png,exp4.png,1,1,non-reversed,correct,0.13278316343683305,0,invalid_lose,722.1075327999997,70,,,,,,,,,,,,,,,sub_545,2023-12-25_11h33.20.412,Reversal,2023.1.3,60.01640848602364,1,
10,exp1.png,exp2.png,,,,,,,,,,,,,,,,,,2,0,2,0,0,10,10,10,,,,,,,,,False,49,130,False,exp1.png,exp2.png,trial_left_image,1,exp1.png,1,exp2.png,exp1.png,1,3,reversed,incorrect,0.5734798601619634,0,valid_lose,726.9537700999999,70,,,,,,,,,,,,,,,sub_545,2023-12-25_11h33.20.412,Reversal,2023.1.3,60.01640848602364,1,
11,exp3.png,exp4.png,,,,,,,,,,,,,,,,,,2,0,2,0,0,11,11,11,,,,,,,,,False,50,131,True,exp4.png,exp3.png,trial_right_image,-1,exp3.png,1,exp3.png,exp4.png,1,1,non-reversed,correct,0.8499508230038003,1,valid_win,732.3181558000006,71,,,,,,,,,,,,,,,sub_545,2023-12-25_11h33.20.412,Reversal,2023.1.3,60.01640848602364,1,
12,exp1.png,exp2.png,,,,,,,,,,,,,,,,,,2,0,2,0,0,12,12,12,,,,,,,,,False,51,132,True,exp2.png,exp1.png,trial_left_image,1,exp2.png,1,exp2.png,exp1.png,0,4,reversed,correct,0.627271225183248,1,valid_win,736.5196139999998,72,,,,,,,,,,,,,,,sub_545,2023-12-25_11h33.20.412,Reversal,2023.1.3,60.01640848602364,1,
13,exp3.png,exp4.png,,,,,,,,,,,,,,,,,,2,0,2,0,0,13,13,13,,,,,,,,,False,52,133,False,exp3.png,exp4.png,trial_left_image,1,exp3.png,1,exp3.png,exp4.png,1,1,non-reversed,correct,0.46049392270375944,1,valid_win,741.0156539999998,73,,,,,,,,,,,,,,,sub_545,2023-12-25_11h33.20.412,Reversal,2023.1.3,60.01640848602364,1,
14,exp1.png,exp2.png,,,,,,,,,,,,,,,,,,2,0,2,0,0,14,14,14,,,,,,,,,False,53,134,True,exp2.png,exp1.png,trial_right_image,-1,exp1.png,1,exp2.png,exp1.png,1,3,reversed,incorrect,0.923573696092898,0,valid_lose,746.1301023000005,73,,,,,,,,,,,,,,,sub_545,2023-12-25_11h33.20.412,Reversal,2023.1.3,60.01640848602364,1,
15,exp3.png,exp4.png,,,,,,,,,,,,,,,,,,2,0,2,0,0,15,15,15,,,,,,,,,False,54,135,False,exp3.png,exp4.png,trial_left_image,1,exp3.png,1,exp3.png,exp4.png,1,1,non-reversed,correct,0.9894781249954877,1,valid_win,750.1295041000003,74,,,,,,,,,,,,,,,sub_545,2023-12-25_11h33.20.412,Reversal,2023.1.3,60.01640848602364,1,
16,exp1.png,exp2.png,,,,,,,,,,,,,,,,,,2,0,2,0,0,16,16,16,,,,,,,,,False,55,136,False,exp1.png,exp2.png,trial_right_image,-1,exp2.png,1,exp2.png,exp1.png,0,4,reversed,correct,0.1487282592817487,0,invalid_lose,754.1940975999996,74,,,,,,,,,,,,,,,sub_545,2023-12-25_11h33.20.412,Reversal,2023.1.3,60.01640848602364,1,
17,exp3.png,exp4.png,,,,,,,,,,,,,,,,,,2,0,2,0,0,17,17,17,,,,,,,,,False,56,137,True,exp4.png,exp3.png,trial_right_image,-1,exp3.png,1,exp3.png,exp4.png,1,1,non-reversed,correct,0.5605703615476285,1,valid_win,758.3594896000004,75,,,,,,,,,,,,,,,sub_545,2023-12-25_11h33.20.412,Reversal,2023.1.3,60.01640848602364,1,
18,exp1.png,exp2.png,,,,,,,,,,,,,,,,,,2,0,2,0,0,18,18,18,,,,,,,,,False,57,138,False,exp1.png,exp2.png,trial_left_image,1,exp1.png,1,exp2.png,exp1.png,1,3,reversed,incorrect,0.2154654859581112,1,invalid_win,762.657706500001,76,,,,,,,,,,,,,,,sub_545,2023-12-25_11h33.20.412,Reversal,2023.1.3,60.01640848602364,1,
19,exp3.png,exp4.png,,,,,,,,,,,,,,,,,,2,0,2,0,0,19,19,19,,,,,,,,,False,58,139,True,exp4.png,exp3.png,trial_right_image,-1,exp3.png,1,exp3.png,exp4.png,1,1,non-reversed,correct,0.20319463262212445,0,invalid_lose,766.4733492999994,76,,,,,,,,,,,,,,,sub_545,2023-12-25_11h33.20.412,Reversal,2023.1.3,60.01640848602364,1,
20,exp1.png,exp2.png,,,,,,,,,,,,,,,,,,2,0,2,0,0,20,20,20,,,,,,,,,False,59,140,False,exp1.png,exp2.png,trial_right_image,-1,exp2.png,1,exp2.png,exp1.png,0,4,reversed,correct,0.23281020461437907,0,invalid_lose,770.3555212000001,76,,,,,,,,,,,,,,,sub_545,2023-12-25_11h33.20.412,Reversal,2023.1.3,60.01640848602364,1,
,,,exp1.png,,,,,,,,,,,,,,,,,2,0,2,0,,,,,0,0,0,0,0,0,0,0,,,,,,,,,,,,,,,,,,,,,,844.5220098000009,70.0,70.0,1.1104032000002917,"[(70.0, 1.1104032000002917)]",,,,,,,,,,sub_545,2023-12-25_11h33.20.412,Reversal,2023.1.3,60.01640848602364,1,
,,,exp2.png,,,,,,,,,,,,,,,,,2,0,2,0,,,,,0,0,0,0,0,1,1,1,,,,,,,,,,,,,,,,,,,,,,846.4331490000004,,72.0,0.695363400000133,"[(72.0, 0.695363400000133)]",,,72.0,,,,,,,sub_545,2023-12-25_11h33.20.412,Reversal,2023.1.3,60.01640848602364,1,
,,,exp3.png,,,,,,,,,,,,,,,,,2,0,2,0,,,,,0,0,0,0,0,2,2,2,,,,,,,,,,,,,,,,,,,,,,847.8989469999997,,73.0,0.6601090000003751,"[(73.0, 0.6601090000003751)]",73.0,,,,,,,,,sub_545,2023-12-25_11h33.20.412,Reversal,2023.1.3,60.01640848602364,1,
,,,exp4.png,,,,,,,,,,,,,,,,,2,0,2,0,,,,,0,0,0,0,0,3,3,3,,,,,,,,,,,,,,,,,,,,,,850.0645117000004,,71.0,0.7287363999985246,"[(71.0, 0.7287363999985246)]",,71.0,,,,,,,,sub_545,2023-12-25_11h33.20.412,Reversal,2023.1.3,60.01640848602364,1,
,,,,,,,,,,,,,,,,,,,,,,,,,,,,,,,,,,,,,,,,,,,,,,,,,,,,,,,,76,,,,,,,,,,84,51,33,291.6544809999996,1,,,,,,,
