trial_index,trial_image1_file,trial_image2_file,image_file,learning_outer_loop.thisRepN,learning_outer_loop.thisTrialN,learning_outer_loop.thisN,learning_outer_loop.thisIndex,learning_inner_loop.thisRepN,learning_inner_loop.thisTrialN,learning_inner_loop.thisN,learning_inner_loop.thisIndex,learning_estimation_outer_loop.thisRepN,learning_estimation_outer_loop.thisTrialN,learning_estimation_outer_loop.thisN,learning_estimation_outer_loop.thisIndex,learning_estimation_inner_loop.thisRepN,learning_estimation_inner_loop.thisTrialN,learning_estimation_inner_loop.thisN,learning_estimation_inner_loop.thisIndex,reversal_outer_loop.thisRepN,reversal_outer_loop.thisTrialN,reversal_outer_loop.thisN,reversal_outer_loop.thisIndex,reversal_inner_loop.thisRepN,reversal_inner_loop.thisTrialN,reversal_inner_loop.thisN,reversal_inner_loop.thisIndex,reversal_estimation_outer_loop.thisRepN,reversal_estimation_outer_loop.thisTrialN,reversal_estimation_outer_loop.thisN,reversal_estimation_outer_loop.thisIndex,reversal_estimation_inner_loop.thisRepN,reversal_estimation_inner_loop.thisTrialN,reversal_estimation_inner_loop.thisN,reversal_estimation_inner_loop.thisIndex,skipped,total_trial_counter,trial_num,left_right_flip,left_image_file,right_image_file,clicked_stimulus_side,side,clicked_stimulus,version,high_prob_image_file,low_prob_image_file,choice_a,choice_b,pair_type,correct,trial_feedback_random,reward,trial_type,overall_time_after_trial,score,estimation_rating.started,estimation_exp1.png,estimation_rating.response,estimation_rating.rt,estimation_rating.history,estimation_exp3.png,estimation_exp4.png,total_learning_time,total_correct,learning_correct,reversal_correct,total_reversal_time,extra_block,end_experiment.keys,end_experiment.rt,end_experiment.duration,participant,date,expName,psychopyVersion,frameRate,ver,
0,exp1.png,exp2.png,,0,0,0,0,0,0,0,0,,,,,,,,,,,,,,,,,,,,,,,,,False,0,1,True,exp2.png,exp1.png,trial_right_image,-1,exp1.png,3,exp2.png,exp1.png,0,4,reversed,incorrect,0.8070138025585998,0,valid_lose,7.72803279999971,0,,,,,,,,,,,,,,,,,sub_207,2025-03-02_11h24.30.123,Reversal,2023.1.3,60.14874785346953,3,
1,exp3.png,exp4.png,,0,0,0,0,0,1,1,1,,,,,,,,,,,,,,,,,,,,,,,,,False,1,2,False,exp3.png,exp4.png,trial_right_image,-1,exp4.png,3,exp4.png,exp3.png,1,1,non-reversed,correct,0.13473867020270747,0,invalid_lose,14.642510399999992,0,,,,,,,,,,,,,,,,,sub_207,2025-03-02_11h24.30.123,Reversal,2023.1.3,60.14874785346953,3,
2,exp1.png,exp2.png,,0,0,0,0,0,2,2,2,,,,,,,,,,,,,,,,,,,,,,,,,False,2,3,True,exp2.png,exp1.png,trial_right_image,-1,exp1.png,3,exp2.png,exp1.png,0,4,reversed,incorrect,0.44106348844034293,0,valid_lose,22.08975499999997,0,,,,,,,,,,,,,,,,,sub_207,2025-03-02_11h24.30.123,Reversal,2023.1.3,60.14874785346953,3,
3,exp3.png,exp4.png,,0,0,0,0,0,3,3,3,,,,,,,,,,,,,,,,,,,,,,,,,False,3,4,True,exp4.png,exp3.png,trial_left_image,1,exp4.png,3,exp4.png,exp3.png,1,1,non-reversed,correct,0.7862234166875869,1,valid_win,32.26992160000009,1,,,,,,,,,,,,,,,,,sub_207,2025-03-02_11h24.30.123,Reversal,2023.1.3,60.14874785346953,3,
4,exp1.png,exp2.png,,0,0,0,0,0,4,4,4,,,,,,,,,,,,,,,,,,,,,,,,,False,4,5,False,exp1.png,exp2.png,trial_left_image,1,exp1.png,3,exp2.png,exp1.png,0,4,reversed,incorrect,0.24167466449897845,1,invalid_win,37.68528789999982,2,,,,,,,,,,,,,,,,,sub_207,2025-03-02_11h24.30.123,Reversal,2023.1.3,60.14874785346953,3,
5,exp3.png,exp4.png,,0,0,0,0,0,5,5,5,,,,,,,,,,,,,,,,,,,,,,,,,False,5,6,True,exp4.png,exp3.png,trial_left_image,1,exp4.png,3,exp4.png,exp3.png,1,1,non-reversed,correct,0.9235701392894472,1,valid_win,47.0156221999996,3,,,,,,,,,,,,,,,,,sub_207,2025-03-02_11h24.30.123,Reversal,2023.1.3,60.14874785346953,3,
6,exp1.png,exp2.png,,0,0,0,0,0,6,6,6,,,,,,,,,,,,,,,,,,,,,,,,,False,6,7,True,exp2.png,exp1.png,trial_left_image,1,exp2.png,3,exp2.png,exp1.png,1,3,reversed,correct,0.7367073822099609,1,valid_win,54.71245649999946,4,,,,,,,,,,,,,,,,,sub_207,2025-03-02_11h24.30.123,Reversal,2023.1.3,60.14874785346953,3,
7,exp3.png,exp4.png,,0,0,0,0,0,7,7,7,,,,,,,,,,,,,,,,,,,,,,,,,False,7,8,True,exp4.png,exp3.png,trial_left_image,1,exp4.png,3,exp4.png,exp3.png,1,1,non-reversed,correct,0.05929699370904373,0,invalid_lose,59.9439339999999,4,,,,,,,,,,,,,,,,,sub_207,2025-03-02_11h24.30.123,Reversal,2023.1.3,60.14874785346953,3,
8,exp1.png,exp2.png,,0,0,0,0,0,8,8,8,,,,,,,,,,,,,,,,,,,,,,,,,False,8,9,False,exp1.png,exp2.png,trial_left_image,1,exp1.png,3,exp2.png,exp1.png,0,4,reversed,incorrect,0.6030947571751925,0,valid_lose,64.52556350000032,4,,,,,,,,,,,,,,,,,sub_207,2025-03-02_11h24.30.123,Reversal,2023.1.3,60.14874785346953,3,
9,exp3.png,exp4.png,,0,0,0,0,0,9,9,9,,,,,,,,,,,,,,,,,,,,,,,,,False,9,10,False,exp3.png,exp4.png,trial_right_image,-1,exp4.png,3,exp4.png,exp3.png,1,1,non-reversed,correct,0.40544378603852693,1,valid_win,79.43730799999958,5,,,,,,,,,,,,,,,,,sub_207,2025-03-02_11h24.30.123,Reversal,2023.1.3,60.14874785346953,3,
10,exp1.png,exp2.png,,0,0,0,0,0,10,10,10,,,,,,,,,,,,,,,,,,,,,,,,,False,10,11,False,exp1.png,exp2.png,trial_right_image,-1,exp2.png,3,exp2.png,exp1.png,1,3,reversed,correct,0.7949099895463717,1,valid_win,94.18205859999944,6,,,,,,,,,,,,,,,,,sub_207,2025-03-02_11h24.30.123,Reversal,2023.1.3,60.14874785346953,3,
11,exp3.png,exp4.png,,0,0,0,0,0,11,11,11,,,,,,,,,,,,,,,,,,,,,,,,,False,11,12,False,exp3.png,exp4.png,trial_left_image,1,exp3.png,3,exp4.png,exp3.png,0,2,non-reversed,incorrect,0.34335346340113493,0,valid_lose,100.77971220000018,6,,,,,,,,,,,,,,,,,sub_207,2025-03-02_11h24.30.123,Reversal,2023.1.3,60.14874785346953,3,
12,exp1.png,exp2.png,,0,0,0,0,0,12,12,12,,,,,,,,,,,,,,,,,,,,,,,,,False,12,13,True,exp2.png,exp1.png,trial_left_image,1,exp2.png,3,exp2.png,exp1.png,1,3,reversed,correct,0.25267766101969313,1,valid_win,106.14502389999961,7,,,,,,,,,,,,,,,,,sub_207,2025-03-02_11h24.30.123,Reversal,2023.1.3,60.14874785346953,3,
13,exp3.png,exp4.png,,0,0,0,0,0,13,13,13,,,,,,,,,,,,,,,,,,,,,,,,,False,13,14,False,exp3.png,exp4.png,trial_left_image,1,exp3.png,3,exp4.png,exp3.png,0,2,non-reversed,incorrect,0.8411789999407431,0,valid_lose,110.4933659999997,7,,,,,,,,,,,,,,,,,sub_207,2025-03-02_11h24.30.123,Reversal,2023.1.3,60.14874785346953,3,
14,exp1.png,exp2.png,,0,0,0,0,0,14,14,14,,,,,,,,,,,,,,,,,,,,,,,,,False,14,15,True,exp2.png,exp1.png,trial_left_image,1,exp2.png,3,exp2.png,exp1.png,1,3,reversed,correct,0.9870947503803735,1,valid_win,124.52221379999992,8,,,,,,,,,,,,,,,,,sub_207,2025-03-02_11h24.30.123,Reversal,2023.1.3,60.14874785346953,3,
15,exp3.png,exp4.png,,0,0,0,0,0,15,15,15,,,,,,,,,,,,,,,,,,,,,,,,,False,15,16,True,exp4.png,exp3.png,trial_left_image,1,exp4.png,3,exp4.png,exp3.png,1,1,non-reversed,correct,0.008104723501943023,0,invalid_lose,129.35407099999975,8,,,,,,,,,,,,,,,,,sub_207,2025-03-02_11h24.30.123,Reversal,2023.1.3,60.14874785346953,3,
16,exp1.png,exp2.png,,0,0,0,0,0,16,16,16,,,,,,,,,,,,,,,,,,,,,,,,,False,16,17,False,exp1.png,exp2.png,trial_right_image,-1,exp2.png,3,exp2.png,exp1.png,1,3,reversed,correct,0.014468157267859327,0,invalid_lose,133.9858105000003,8,,,,,,,,,,,,,,,,,sub_207,2025-03-02_11h24.30.123,Reversal,2023.1.3,60.14874785346953,3,
17,exp3.png,exp4.png,,0,0,0,0,0,17,17,17,,,,,,,,,,,,,,,,,,,,,,,,,False,17,18,False,exp3.png,exp4.png,trial_left_image,1,exp3.png,3,exp4.png,exp3.png,0,2,non-reversed,incorrect,0.9889480771024979,0,valid_lose,138.9172405999998,8,,,,,,,,,,,,,,,,,sub_207,2025-03-02_11h24.30.123,Reversal,2023.1.3,60.14874785346953,3,
18,exp1.png,exp2.png,,0,0,0,0,0,18,18,18,,,,,,,,,,,,,,,,,,,,,,,,,False,18,19,False,exp1.png,exp2.png,trial_right_image,-1,exp2.png,3,exp2.png,exp1.png,1,3,reversed,correct,0.9739478531879638,1,valid_win,143.48240749999968,9,,,,,,,,,,,,,,,,,sub_207,2025-03-02_11h24.30.123,Reversal,2023.1.3,60.14874785346953,3,
19,exp3.png,exp4.png,,0,0,0,0,0,19,19,19,,,,,,,,,,,,,,,,,,,,,,,,,False,19,20,True,exp4.png,exp3.png,trial_right_image,-1,exp3.png,3,exp4.png,exp3.png,0,2,non-reversed,incorrect,0.011867017983604233,1,invalid_win,148.34725830000025,10,,,,,,,,,,,,,,,,,sub_207,2025-03-02_11h24.30.123,Reversal,2023.1.3,60.14874785346953,3,
20,exp1.png,exp2.png,,0,0,0,0,0,20,20,20,,,,,,,,,,,,,,,,,,,,,,,,,True,,,,,,,,,,,,,,,,,,,,,,,,,,,,,,,,,,,,,sub_207,2025-03-02_11h24.30.123,Reversal,2023.1.3,60.14874785346953,3,
,,,exp1.png,0,0,0,0,,,,,0,0,0,0,0,0,0,0,,,,,,,,,,,,,,,,,,,,,,,,,,,,,,,,,,,,,,222.61763340000016,1.0,1.0,13.577276199999687,"[(1.0, 13.577276199999687)]",,,,,,,,,,,,sub_207,2025-03-02_11h24.30.123,Reversal,2023.1.3,60.14874785346953,3,
,,,exp2.png,0,0,0,0,,,,,0,0,0,0,0,1,1,1,,,,,,,,,,,,,,,,,,,,,,,,,,,,,,,,,,,,,,237.87700959999984,,None,None,[],,,,,,,,,,,,sub_207,2025-03-02_11h24.30.123,Reversal,2023.1.3,60.14874785346953,3,
,,,exp3.png,0,0,0,0,,,,,0,0,0,0,0,2,2,2,,,,,,,,,,,,,,,,,,,,,,,,,,,,,,,,,,,,,,247.6234483999997,,80.0,2.9919996000007814,"[(80.0, 2.9919996000007814)]",80.0,,,,,,,,,,,sub_207,2025-03-02_11h24.30.123,Reversal,2023.1.3,60.14874785346953,3,
,,,exp4.png,0,0,0,0,,,,,0,0,0,0,0,3,3,3,,,,,,,,,,,,,,,,,,,,,,,,,,,,,,,,,,,,,,251.50330589999976,,73.0,1.6953965999991851,"[(73.0, 1.6953965999991851)]",,73.0,,,,,,,,,,sub_207,2025-03-02_11h24.30.123,Reversal,2023.1.3,60.14874785346953,3,
0,exp1.png,exp2.png,,1,0,1,0,0,0,0,0,,,,,,,,,,,,,,,,,,,,,,,,,False,20,21,True,exp2.png,exp1.png,trial_left_image,1,exp2.png,3,exp2.png,exp1.png,1,3,reversed,correct,0.24616636578348416,0,invalid_lose,186.08459029999995,10,,,,,,,,,,,,,,,,,sub_207,2025-03-02_11h24.30.123,Reversal,2023.1.3,60.14874785346953,3,
1,exp3.png,exp4.png,,1,0,1,0,0,1,1,1,,,,,,,,,,,,,,,,,,,,,,,,,False,21,22,False,exp3.png,exp4.png,trial_right_image,-1,exp4.png,3,exp4.png,exp3.png,1,1,non-reversed,correct,0.9869580925245134,1,valid_win,205.04482629999984,11,,,,,,,,,,,,,,,,,sub_207,2025-03-02_11h24.30.123,Reversal,2023.1.3,60.14874785346953,3,
2,exp1.png,exp2.png,,1,0,1,0,0,2,2,2,,,,,,,,,,,,,,,,,,,,,,,,,False,22,23,True,exp2.png,exp1.png,trial_left_image,1,exp2.png,3,exp2.png,exp1.png,1,3,reversed,correct,0.5569587356867002,1,valid_win,211.3265438999997,12,,,,,,,,,,,,,,,,,sub_207,2025-03-02_11h24.30.123,Reversal,2023.1.3,60.14874785346953,3,
3,exp3.png,exp4.png,,1,0,1,0,0,3,3,3,,,,,,,,,,,,,,,,,,,,,,,,,False,23,24,True,exp4.png,exp3.png,trial_left_image,1,exp4.png,3,exp4.png,exp3.png,1,1,non-reversed,correct,0.5553641888858586,1,valid_win,216.80744529999993,13,,,,,,,,,,,,,,,,,sub_207,2025-03-02_11h24.30.123,Reversal,2023.1.3,60.14874785346953,3,
4,exp1.png,exp2.png,,1,0,1,0,0,4,4,4,,,,,,,,,,,,,,,,,,,,,,,,,False,24,25,True,exp2.png,exp1.png,trial_left_image,1,exp2.png,3,exp2.png,exp1.png,1,3,reversed,correct,0.7977479441811423,1,valid_win,222.82224880000012,14,,,,,,,,,,,,,,,,,sub_207,2025-03-02_11h24.30.123,Reversal,2023.1.3,60.14874785346953,3,
5,exp3.png,exp4.png,,1,0,1,0,0,5,5,5,,,,,,,,,,,,,,,,,,,,,,,,,False,25,26,True,exp4.png,exp3.png,trial_left_image,1,exp4.png,3,exp4.png,exp3.png,1,1,non-reversed,correct,0.5355638752644464,1,valid_win,228.66985120000027,15,,,,,,,,,,,,,,,,,sub_207,2025-03-02_11h24.30.123,Reversal,2023.1.3,60.14874785346953,3,
6,exp1.png,exp2.png,,1,0,1,0,0,6,6,6,,,,,,,,,,,,,,,,,,,,,,,,,False,26,27,False,exp1.png,exp2.png,trial_right_image,-1,exp2.png,3,exp2.png,exp1.png,1,3,reversed,correct,0.0665392404734454,0,invalid_lose,233.76859439999953,15,,,,,,,,,,,,,,,,,sub_207,2025-03-02_11h24.30.123,Reversal,2023.1.3,60.14874785346953,3,
7,exp3.png,exp4.png,,1,0,1,0,0,7,7,7,,,,,,,,,,,,,,,,,,,,,,,,,False,27,28,False,exp3.png,exp4.png,trial_right_image,-1,exp4.png,3,exp4.png,exp3.png,1,1,non-reversed,correct,0.24645184527776487,0,invalid_lose,238.68333749999965,15,,,,,,,,,,,,,,,,,sub_207,2025-03-02_11h24.30.123,Reversal,2023.1.3,60.14874785346953,3,
8,exp1.png,exp2.png,,1,0,1,0,0,8,8,8,,,,,,,,,,,,,,,,,,,,,,,,,False,28,29,False,exp1.png,exp2.png,trial_right_image,-1,exp2.png,3,exp2.png,exp1.png,1,3,reversed,correct,0.690244381695359,1,valid_win,244.6144476999998,16,,,,,,,,,,,,,,,,,sub_207,2025-03-02_11h24.30.123,Reversal,2023.1.3,60.14874785346953,3,
9,exp3.png,exp4.png,,1,0,1,0,0,9,9,9,,,,,,,,,,,,,,,,,,,,,,,,,False,29,30,True,exp4.png,exp3.png,trial_left_image,1,exp4.png,3,exp4.png,exp3.png,1,1,non-reversed,correct,0.9889344413401507,1,valid_win,251.06227039999976,17,,,,,,,,,,,,,,,,,sub_207,2025-03-02_11h24.30.123,Reversal,2023.1.3,60.14874785346953,3,
10,exp1.png,exp2.png,,1,0,1,0,0,10,10,10,,,,,,,,,,,,,,,,,,,,,,,,,False,30,31,True,exp2.png,exp1.png,trial_left_image,1,exp2.png,3,exp2.png,exp1.png,1,3,reversed,correct,0.2008928811119527,0,invalid_lose,257.86017879999963,17,,,,,,,,,,,,,,,,,sub_207,2025-03-02_11h24.30.123,Reversal,2023.1.3,60.14874785346953,3,
11,exp3.png,exp4.png,,1,0,1,0,0,11,11,11,,,,,,,,,,,,,,,,,,,,,,,,,False,31,32,False,exp3.png,exp4.png,trial_right_image,-1,exp4.png,3,exp4.png,exp3.png,1,1,non-reversed,correct,0.5507238801969514,1,valid_win,262.7249480999999,18,,,,,,,,,,,,,,,,,sub_207,2025-03-02_11h24.30.123,Reversal,2023.1.3,60.14874785346953,3,
12,exp1.png,exp2.png,,1,0,1,0,0,12,12,12,,,,,,,,,,,,,,,,,,,,,,,,,False,32,33,False,exp1.png,exp2.png,trial_left_image,1,exp1.png,3,exp2.png,exp1.png,0,4,reversed,incorrect,0.5141167985371907,0,valid_lose,268.1404655999995,18,,,,,,,,,,,,,,,,,sub_207,2025-03-02_11h24.30.123,Reversal,2023.1.3,60.14874785346953,3,
13,exp3.png,exp4.png,,1,0,1,0,0,13,13,13,,,,,,,,,,,,,,,,,,,,,,,,,False,33,34,False,exp3.png,exp4.png,trial_right_image,-1,exp4.png,3,exp4.png,exp3.png,1,1,non-reversed,correct,0.8262357658569477,1,valid_win,273.0718257999997,19,,,,,,,,,,,,,,,,,sub_207,2025-03-02_11h24.30.123,Reversal,2023.1.3,60.14874785346953,3,
14,exp1.png,exp2.png,,1,0,1,0,0,14,14,14,,,,,,,,,,,,,,,,,,,,,,,,,False,34,35,False,exp1.png,exp2.png,trial_right_image,-1,exp2.png,3,exp2.png,exp1.png,1,3,reversed,correct,0.95883113803126,1,valid_win,279.2197282999996,20,,,,,,,,,,,,,,,,,sub_207,2025-03-02_11h24.30.123,Reversal,2023.1.3,60.14874785346953,3,
15,exp3.png,exp4.png,,1,0,1,0,0,15,15,15,,,,,,,,,,,,,,,,,,,,,,,,,False,35,36,False,exp3.png,exp4.png,trial_right_image,-1,exp4.png,3,exp4.png,exp3.png,1,1,non-reversed,correct,0.7512607933803379,1,valid_win,283.53437159999976,21,,,,,,,,,,,,,,,,,sub_207,2025-03-02_11h24.30.123,Reversal,2023.1.3,60.14874785346953,3,
16,exp1.png,exp2.png,,1,0,1,0,0,16,16,16,,,,,,,,,,,,,,,,,,,,,,,,,False,36,37,True,exp2.png,exp1.png,trial_right_image,-1,exp1.png,3,exp2.png,exp1.png,0,4,reversed,incorrect,0.7609526310361351,0,valid_lose,288.9663095999995,21,,,,,,,,,,,,,,,,,sub_207,2025-03-02_11h24.30.123,Reversal,2023.1.3,60.14874785346953,3,
17,exp3.png,exp4.png,,1,0,1,0,0,17,17,17,,,,,,,,,,,,,,,,,,,,,,,,,False,37,38,True,exp4.png,exp3.png,trial_left_image,1,exp4.png,3,exp4.png,exp3.png,1,1,non-reversed,correct,0.9646831517508129,1,valid_win,293.58186899999964,22,,,,,,,,,,,,,,,,,sub_207,2025-03-02_11h24.30.123,Reversal,2023.1.3,60.14874785346953,3,
18,exp1.png,exp2.png,,1,0,1,0,0,18,18,18,,,,,,,,,,,,,,,,,,,,,,,,,False,38,39,False,exp1.png,exp2.png,trial_right_image,-1,exp2.png,3,exp2.png,exp1.png,1,3,reversed,correct,0.9954704818430312,1,valid_win,298.6465275999999,23,,,,,,,,,,,,,,,,,sub_207,2025-03-02_11h24.30.123,Reversal,2023.1.3,60.14874785346953,3,
19,exp3.png,exp4.png,,1,0,1,0,0,19,19,19,,,,,,,,,,,,,,,,,,,,,,,,,False,39,40,True,exp4.png,exp3.png,trial_left_image,1,exp4.png,3,exp4.png,exp3.png,1,1,non-reversed,correct,0.9791624188271959,1,valid_win,303.4782573000002,24,,,,,,,,,,,,,,,,,sub_207,2025-03-02_11h24.30.123,Reversal,2023.1.3,60.14874785346953,3,
20,exp1.png,exp2.png,,1,0,1,0,0,20,20,20,,,,,,,,,,,,,,,,,,,,,,,,,True,,,,,,,,,,,,,,,,,,,,,,,,,,,,,,,,,,,,,sub_207,2025-03-02_11h24.30.123,Reversal,2023.1.3,60.14874785346953,3,
,,,exp1.png,1,0,1,0,,,,,0,0,0,0,0,0,0,0,,,,,,,,,,,,,,,,,,,,,,,,,,,,,,,,,,,,,,377.76154210000004,,None,None,[],,,,,,,,,,,,sub_207,2025-03-02_11h24.30.123,Reversal,2023.1.3,60.14874785346953,3,
,,,exp2.png,1,0,1,0,,,,,0,0,0,0,0,1,1,1,,,,,,,,,,,,,,,,,,,,,,,,,,,,,,,,,,,,,,384.85794669999996,,None,None,[],,,,,,,,,,,,sub_207,2025-03-02_11h24.30.123,Reversal,2023.1.3,60.14874785346953,3,
,,,exp3.png,1,0,1,0,,,,,0,0,0,0,0,2,2,2,,,,,,,,,,,,,,,,,,,,,,,,,,,,,,,,,,,,,,386.9085468000003,,1.0,2.193704500000422,"[(1.0, 2.193704500000422)]",1.0,,,,,,,,,,,sub_207,2025-03-02_11h24.30.123,Reversal,2023.1.3,60.14874785346953,3,
,,,exp4.png,1,0,1,0,,,,,0,0,0,0,0,3,3,3,,,,,,,,,,,,,,,,,,,,,,,,,,,,,,,,,,,,,,390.3910222000004,,100.0,1.2784805999999662,"[(100.0, 1.2784805999999662)]",,100.0,,,,,,,,,,sub_207,2025-03-02_11h24.30.123,Reversal,2023.1.3,60.14874785346953,3,
0,exp1.png,exp2.png,,2,0,2,0,0,0,0,0,,,,,,,,,,,,,,,,,,,,,,,,,False,40,41,False,exp1.png,exp2.png,trial_right_image,-1,exp2.png,3,exp2.png,exp1.png,1,3,reversed,correct,0.4084832043807056,1,valid_win,325.68731969999953,25,,,,,,,,,,,,,,,,,sub_207,2025-03-02_11h24.30.123,Reversal,2023.1.3,60.14874785346953,3,
1,exp3.png,exp4.png,,2,0,2,0,0,1,1,1,,,,,,,,,,,,,,,,,,,,,,,,,False,41,42,False,exp3.png,exp4.png,trial_right_image,-1,exp4.png,3,exp4.png,exp3.png,1,1,non-reversed,correct,0.2896298621588379,1,valid_win,330.7020671,26,,,,,,,,,,,,,,,,,sub_207,2025-03-02_11h24.30.123,Reversal,2023.1.3,60.14874785346953,3,
2,exp1.png,exp2.png,,2,0,2,0,0,2,2,2,,,,,,,,,,,,,,,,,,,,,,,,,False,42,43,False,exp1.png,exp2.png,trial_right_image,-1,exp2.png,3,exp2.png,exp1.png,1,3,reversed,correct,0.4997306055588332,1,valid_win,335.5674164000002,27,,,,,,,,,,,,,,,,,sub_207,2025-03-02_11h24.30.123,Reversal,2023.1.3,60.14874785346953,3,
3,exp3.png,exp4.png,,2,0,2,0,0,3,3,3,,,,,,,,,,,,,,,,,,,,,,,,,False,43,44,False,exp3.png,exp4.png,trial_right_image,-1,exp4.png,3,exp4.png,exp3.png,1,1,non-reversed,correct,0.017186441820112752,0,invalid_lose,340.53226149999955,27,,,,,,,,,,,,,,,,,sub_207,2025-03-02_11h24.30.123,Reversal,2023.1.3,60.14874785346953,3,
4,exp1.png,exp2.png,,2,0,2,0,0,4,4,4,,,,,,,,,,,,,,,,,,,,,,,,,False,44,45,True,exp2.png,exp1.png,trial_right_image,-1,exp1.png,3,exp2.png,exp1.png,0,4,reversed,incorrect,0.3045558439060164,0,valid_lose,349.51336679999986,27,,,,,,,,,,,,,,,,,sub_207,2025-03-02_11h24.30.123,Reversal,2023.1.3,60.14874785346953,3,
5,exp3.png,exp4.png,,2,0,2,0,0,5,5,5,,,,,,,,,,,,,,,,,,,,,,,,,False,45,46,False,exp3.png,exp4.png,trial_right_image,-1,exp4.png,3,exp4.png,exp3.png,1,1,non-reversed,correct,0.24601876820323088,0,invalid_lose,353.9775731999998,27,,,,,,,,,,,,,,,,,sub_207,2025-03-02_11h24.30.123,Reversal,2023.1.3,60.14874785346953,3,
6,exp1.png,exp2.png,,2,0,2,0,0,6,6,6,,,,,,,,,,,,,,,,,,,,,,,,,False,46,47,False,exp1.png,exp2.png,trial_right_image,-1,exp2.png,3,exp2.png,exp1.png,1,3,reversed,correct,0.5774449089736182,1,valid_win,358.65945360000023,28,,,,,,,,,,,,,,,,,sub_207,2025-03-02_11h24.30.123,Reversal,2023.1.3,60.14874785346953,3,
7,exp3.png,exp4.png,,2,0,2,0,0,7,7,7,,,,,,,,,,,,,,,,,,,,,,,,,False,47,48,True,exp4.png,exp3.png,trial_left_image,1,exp4.png,3,exp4.png,exp3.png,1,1,non-reversed,correct,0.0005830472456802571,0,invalid_lose,364.0908263000001,28,,,,,,,,,,,,,,,,,sub_207,2025-03-02_11h24.30.123,Reversal,2023.1.3,60.14874785346953,3,
8,exp1.png,exp2.png,,2,0,2,0,0,8,8,8,,,,,,,,,,,,,,,,,,,,,,,,,False,48,49,True,exp2.png,exp1.png,trial_right_image,-1,exp1.png,3,exp2.png,exp1.png,0,4,reversed,incorrect,0.8617123785918447,0,valid_lose,370.1726487999995,28,,,,,,,,,,,,,,,,,sub_207,2025-03-02_11h24.30.123,Reversal,2023.1.3,60.14874785346953,3,
9,exp3.png,exp4.png,,2,0,2,0,0,9,9,9,,,,,,,,,,,,,,,,,,,,,,,,,False,49,50,True,exp4.png,exp3.png,trial_right_image,-1,exp3.png,3,exp4.png,exp3.png,0,2,non-reversed,incorrect,0.8365447095158471,0,valid_lose,374.9706752000002,28,,,,,,,,,,,,,,,,,sub_207,2025-03-02_11h24.30.123,Reversal,2023.1.3,60.14874785346953,3,
10,exp1.png,exp2.png,,2,0,2,0,0,10,10,10,,,,,,,,,,,,,,,,,,,,,,,,,False,50,51,True,exp2.png,exp1.png,trial_left_image,1,exp2.png,3,exp2.png,exp1.png,1,3,reversed,correct,0.09458998565172028,0,invalid_lose,380.85189209999953,28,,,,,,,,,,,,,,,,,sub_207,2025-03-02_11h24.30.123,Reversal,2023.1.3,60.14874785346953,3,
11,exp3.png,exp4.png,,2,0,2,0,0,11,11,11,,,,,,,,,,,,,,,,,,,,,,,,,False,51,52,True,exp4.png,exp3.png,trial_left_image,1,exp4.png,3,exp4.png,exp3.png,1,1,non-reversed,correct,0.5218194961221658,1,valid_win,389.79907319999984,29,,,,,,,,,,,,,,,,,sub_207,2025-03-02_11h24.30.123,Reversal,2023.1.3,60.14874785346953,3,
12,exp1.png,exp2.png,,2,0,2,0,0,12,12,12,,,,,,,,,,,,,,,,,,,,,,,,,False,52,53,False,exp1.png,exp2.png,trial_left_image,1,exp1.png,3,exp2.png,exp1.png,0,4,reversed,incorrect,0.6394711512163511,0,valid_lose,395.46355250000033,29,,,,,,,,,,,,,,,,,sub_207,2025-03-02_11h24.30.123,Reversal,2023.1.3,60.14874785346953,3,
13,exp3.png,exp4.png,,2,0,2,0,0,13,13,13,,,,,,,,,,,,,,,,,,,,,,,,,False,53,54,True,exp4.png,exp3.png,trial_left_image,1,exp4.png,3,exp4.png,exp3.png,1,1,non-reversed,correct,0.9579617546113509,1,valid_win,400.56231359999947,30,,,,,,,,,,,,,,,,,sub_207,2025-03-02_11h24.30.123,Reversal,2023.1.3,60.14874785346953,3,
14,exp1.png,exp2.png,,2,0,2,0,0,14,14,14,,,,,,,,,,,,,,,,,,,,,,,,,False,54,55,False,exp1.png,exp2.png,trial_right_image,-1,exp2.png,3,exp2.png,exp1.png,1,3,reversed,correct,0.28795392622607585,1,valid_win,404.7271314999998,31,,,,,,,,,,,,,,,,,sub_207,2025-03-02_11h24.30.123,Reversal,2023.1.3,60.14874785346953,3,
15,exp3.png,exp4.png,,2,0,2,0,0,15,15,15,,,,,,,,,,,,,,,,,,,,,,,,,False,55,56,True,exp4.png,exp3.png,trial_left_image,1,exp4.png,3,exp4.png,exp3.png,1,1,non-reversed,correct,0.8128402303610555,1,valid_win,408.65937140000005,32,,,,,,,,,,,,,,,,,sub_207,2025-03-02_11h24.30.123,Reversal,2023.1.3,60.14874785346953,3,
16,exp1.png,exp2.png,,2,0,2,0,0,16,16,16,,,,,,,,,,,,,,,,,,,,,,,,,False,56,57,False,exp1.png,exp2.png,trial_right_image,-1,exp2.png,3,exp2.png,exp1.png,1,3,reversed,correct,0.9060896796033424,1,valid_win,412.4913101000002,33,,,,,,,,,,,,,,,,,sub_207,2025-03-02_11h24.30.123,Reversal,2023.1.3,60.14874785346953,3,
17,exp3.png,exp4.png,,2,0,2,0,0,17,17,17,,,,,,,,,,,,,,,,,,,,,,,,,False,57,58,True,exp4.png,exp3.png,trial_left_image,1,exp4.png,3,exp4.png,exp3.png,1,1,non-reversed,correct,0.33672981661666934,1,valid_win,416.3398908999998,34,,,,,,,,,,,,,,,,,sub_207,2025-03-02_11h24.30.123,Reversal,2023.1.3,60.14874785346953,3,
18,exp1.png,exp2.png,,2,0,2,0,0,18,18,18,,,,,,,,,,,,,,,,,,,,,,,,,False,58,59,False,exp1.png,exp2.png,trial_right_image,-1,exp2.png,3,exp2.png,exp1.png,1,3,reversed,correct,0.579574832190303,1,valid_win,420.40549980000014,35,,,,,,,,,,,,,,,,,sub_207,2025-03-02_11h24.30.123,Reversal,2023.1.3,60.14874785346953,3,
19,exp3.png,exp4.png,,2,0,2,0,0,19,19,19,,,,,,,,,,,,,,,,,,,,,,,,,False,59,60,True,exp4.png,exp3.png,trial_left_image,1,exp4.png,3,exp4.png,exp3.png,1,1,non-reversed,correct,0.8095068089375212,1,valid_win,424.27062209999985,36,,,,,,,,,,,,,,,,,sub_207,2025-03-02_11h24.30.123,Reversal,2023.1.3,60.14874785346953,3,
20,exp1.png,exp2.png,,2,0,2,0,0,20,20,20,,,,,,,,,,,,,,,,,,,,,,,,,True,,,,,,,,,,,,,,,,,,,,,,,,,,,,,,,,,,,,,sub_207,2025-03-02_11h24.30.123,Reversal,2023.1.3,60.14874785346953,3,
,,,exp1.png,2,0,2,0,,,,,0,0,0,0,0,0,0,0,,,,,,,,,,,,,,,,,,,,,,,,,,,,,,,,,,,,,,498.56369670000004,,None,None,[],,,,,,,,,,,,sub_207,2025-03-02_11h24.30.123,Reversal,2023.1.3,60.14874785346953,3,
,,,exp2.png,2,0,2,0,,,,,0,0,0,0,0,1,1,1,,,,,,,,,,,,,,,,,,,,,,,,,,,,,,,,,,,,,,502.0026740000003,,None,None,[],,,,,,,,,,,,sub_207,2025-03-02_11h24.30.123,Reversal,2023.1.3,60.14874785346953,3,
,,,exp3.png,2,0,2,0,,,,,0,0,0,0,0,2,2,2,,,,,,,,,,,,,,,,,,,,,,,,,,,,,,,,,,,,,,502.8038538999999,,None,None,[],,,,,,,,,,,,sub_207,2025-03-02_11h24.30.123,Reversal,2023.1.3,60.14874785346953,3,
,,,exp4.png,2,0,2,0,,,,,0,0,0,0,0,3,3,3,,,,,,,,,,,,,,,,,,,,,,,,,,,,,,,,,,,,,,503.65353330000016,,None,None,[],,,,,,,,,,,,sub_207,2025-03-02_11h24.30.123,Reversal,2023.1.3,60.14874785346953,3,
0,exp1.png,exp2.png,,,,,,,,,,,,,,,,,,0,0,0,0,0,0,0,0,,,,,,,,,False,0,61,True,exp2.png,exp1.png,trial_left_image,1,exp2.png,3,exp1.png,exp2.png,1,3,reversed,incorrect,0.6223732368143808,0,valid_lose,440.1818037000003,36,,,,,,,,432.8068850999998,,,,,,,,,sub_207,2025-03-02_11h24.30.123,Reversal,2023.1.3,60.14874785346953,3,
1,exp3.png,exp4.png,,,,,,,,,,,,,,,,,,0,0,0,0,0,1,1,1,,,,,,,,,False,1,62,False,exp3.png,exp4.png,trial_right_image,-1,exp4.png,3,exp4.png,exp3.png,1,1,non-reversed,correct,0.21141302402311357,0,invalid_lose,444.81396589999986,36,,,,,,,,,,,,,,,,,sub_207,2025-03-02_11h24.30.123,Reversal,2023.1.3,60.14874785346953,3,
2,exp1.png,exp2.png,,,,,,,,,,,,,,,,,,0,0,0,0,0,2,2,2,,,,,,,,,False,2,63,True,exp2.png,exp1.png,trial_right_image,-1,exp1.png,3,exp1.png,exp2.png,0,4,reversed,correct,0.9327419985031985,1,valid_win,450.79461079999965,37,,,,,,,,,,,,,,,,,sub_207,2025-03-02_11h24.30.123,Reversal,2023.1.3,60.14874785346953,3,
3,exp3.png,exp4.png,,,,,,,,,,,,,,,,,,0,0,0,0,0,3,3,3,,,,,,,,,False,3,64,True,exp4.png,exp3.png,trial_left_image,1,exp4.png,3,exp4.png,exp3.png,1,1,non-reversed,correct,0.9479055616919412,1,valid_win,454.6768357000001,38,,,,,,,,,,,,,,,,,sub_207,2025-03-02_11h24.30.123,Reversal,2023.1.3,60.14874785346953,3,
4,exp1.png,exp2.png,,,,,,,,,,,,,,,,,,0,0,0,0,0,4,4,4,,,,,,,,,False,4,65,True,exp2.png,exp1.png,trial_right_image,-1,exp1.png,3,exp1.png,exp2.png,0,4,reversed,correct,0.646354824202329,1,valid_win,458.4921664000003,39,,,,,,,,,,,,,,,,,sub_207,2025-03-02_11h24.30.123,Reversal,2023.1.3,60.14874785346953,3,
5,exp3.png,exp4.png,,,,,,,,,,,,,,,,,,0,0,0,0,0,5,5,5,,,,,,,,,False,5,66,False,exp3.png,exp4.png,trial_left_image,1,exp3.png,3,exp4.png,exp3.png,0,2,non-reversed,incorrect,0.5986599530834803,0,valid_lose,462.2910243999995,39,,,,,,,,,,,,,,,,,sub_207,2025-03-02_11h24.30.123,Reversal,2023.1.3,60.14874785346953,3,
6,exp1.png,exp2.png,,,,,,,,,,,,,,,,,,0,0,0,0,0,6,6,6,,,,,,,,,False,6,67,True,exp2.png,exp1.png,trial_right_image,-1,exp1.png,3,exp1.png,exp2.png,0,4,reversed,correct,0.18155452320161258,0,invalid_lose,467.3230599999997,39,,,,,,,,,,,,,,,,,sub_207,2025-03-02_11h24.30.123,Reversal,2023.1.3,60.14874785346953,3,
7,exp3.png,exp4.png,,,,,,,,,,,,,,,,,,0,0,0,0,0,7,7,7,,,,,,,,,False,7,68,True,exp4.png,exp3.png,trial_right_image,-1,exp3.png,3,exp4.png,exp3.png,0,2,non-reversed,incorrect,0.3078283580994211,0,valid_lose,472.68779279999944,39,,,,,,,,,,,,,,,,,sub_207,2025-03-02_11h24.30.123,Reversal,2023.1.3,60.14874785346953,3,
8,exp1.png,exp2.png,,,,,,,,,,,,,,,,,,0,0,0,0,0,8,8,8,,,,,,,,,False,8,69,False,exp1.png,exp2.png,trial_right_image,-1,exp2.png,3,exp1.png,exp2.png,1,3,reversed,incorrect,0.4745857309237771,0,valid_lose,477.6025864000003,39,,,,,,,,,,,,,,,,,sub_207,2025-03-02_11h24.30.123,Reversal,2023.1.3,60.14874785346953,3,
9,exp3.png,exp4.png,,,,,,,,,,,,,,,,,,0,0,0,0,0,9,9,9,,,,,,,,,False,9,70,False,exp3.png,exp4.png,trial_left_image,1,exp3.png,3,exp4.png,exp3.png,0,2,non-reversed,incorrect,0.2195673458323738,1,invalid_win,481.4350767999995,40,,,,,,,,,,,,,,,,,sub_207,2025-03-02_11h24.30.123,Reversal,2023.1.3,60.14874785346953,3,
10,exp1.png,exp2.png,,,,,,,,,,,,,,,,,,0,0,0,0,0,10,10,10,,,,,,,,,False,10,71,False,exp1.png,exp2.png,trial_right_image,-1,exp2.png,3,exp1.png,exp2.png,1,3,reversed,incorrect,0.20957890748179064,1,invalid_win,486.5335990000003,41,,,,,,,,,,,,,,,,,sub_207,2025-03-02_11h24.30.123,Reversal,2023.1.3,60.14874785346953,3,
11,exp3.png,exp4.png,,,,,,,,,,,,,,,,,,0,0,0,0,0,11,11,11,,,,,,,,,False,11,72,False,exp3.png,exp4.png,trial_left_image,1,exp3.png,3,exp4.png,exp3.png,0,2,non-reversed,incorrect,0.6479065253198444,0,valid_lose,491.3643468,41,,,,,,,,,,,,,,,,,sub_207,2025-03-02_11h24.30.123,Reversal,2023.1.3,60.14874785346953,3,
12,exp1.png,exp2.png,,,,,,,,,,,,,,,,,,0,0,0,0,0,12,12,12,,,,,,,,,False,12,73,False,exp1.png,exp2.png,trial_left_image,1,exp1.png,3,exp1.png,exp2.png,0,4,reversed,correct,0.9906472412171776,1,valid_win,495.2966772999998,42,,,,,,,,,,,,,,,,,sub_207,2025-03-02_11h24.30.123,Reversal,2023.1.3,60.14874785346953,3,
13,exp3.png,exp4.png,,,,,,,,,,,,,,,,,,0,0,0,0,0,13,13,13,,,,,,,,,False,13,74,True,exp4.png,exp3.png,trial_right_image,-1,exp3.png,3,exp4.png,exp3.png,0,2,non-reversed,incorrect,0.07914619696813474,1,invalid_win,499.11294670000007,43,,,,,,,,,,,,,,,,,sub_207,2025-03-02_11h24.30.123,Reversal,2023.1.3,60.14874785346953,3,
14,exp1.png,exp2.png,,,,,,,,,,,,,,,,,,0,0,0,0,0,14,14,14,,,,,,,,,False,14,75,False,exp1.png,exp2.png,trial_left_image,1,exp1.png,3,exp1.png,exp2.png,0,4,reversed,correct,0.8577456819449487,1,valid_win,502.9607305999998,44,,,,,,,,,,,,,,,,,sub_207,2025-03-02_11h24.30.123,Reversal,2023.1.3,60.14874785346953,3,
15,exp3.png,exp4.png,,,,,,,,,,,,,,,,,,0,0,0,0,0,15,15,15,,,,,,,,,False,15,76,True,exp4.png,exp3.png,trial_right_image,-1,exp3.png,3,exp4.png,exp3.png,0,2,non-reversed,incorrect,0.8225350209506517,0,valid_lose,506.8591239999996,44,,,,,,,,,,,,,,,,,sub_207,2025-03-02_11h24.30.123,Reversal,2023.1.3,60.14874785346953,3,
16,exp1.png,exp2.png,,,,,,,,,,,,,,,,,,0,0,0,0,0,16,16,16,,,,,,,,,False,16,77,False,exp1.png,exp2.png,trial_right_image,-1,exp2.png,3,exp1.png,exp2.png,1,3,reversed,incorrect,0.3494544746727434,0,valid_lose,511.70745949999946,44,,,,,,,,,,,,,,,,,sub_207,2025-03-02_11h24.30.123,Reversal,2023.1.3,60.14874785346953,3,
17,exp3.png,exp4.png,,,,,,,,,,,,,,,,,,0,0,0,0,0,17,17,17,,,,,,,,,False,17,78,True,exp4.png,exp3.png,trial_left_image,1,exp4.png,3,exp4.png,exp3.png,1,1,non-reversed,correct,0.017421143340176082,0,invalid_lose,515.5897564999996,44,,,,,,,,,,,,,,,,,sub_207,2025-03-02_11h24.30.123,Reversal,2023.1.3,60.14874785346953,3,
18,exp1.png,exp2.png,,,,,,,,,,,,,,,,,,0,0,0,0,0,18,18,18,,,,,,,,,False,18,79,False,exp1.png,exp2.png,trial_left_image,1,exp1.png,3,exp1.png,exp2.png,0,4,reversed,correct,0.1065849650539128,0,invalid_lose,521.6210550999995,44,,,,,,,,,,,,,,,,,sub_207,2025-03-02_11h24.30.123,Reversal,2023.1.3,60.14874785346953,3,
19,exp3.png,exp4.png,,,,,,,,,,,,,,,,,,0,0,0,0,0,19,19,19,,,,,,,,,False,19,80,True,exp4.png,exp3.png,trial_left_image,1,exp4.png,3,exp4.png,exp3.png,1,1,non-reversed,correct,0.7121582970115801,1,valid_win,526.7528401,45,,,,,,,,,,,,,,,,,sub_207,2025-03-02_11h24.30.123,Reversal,2023.1.3,60.14874785346953,3,
20,exp1.png,exp2.png,,,,,,,,,,,,,,,,,,0,0,0,0,0,20,20,20,,,,,,,,,True,,,,,,,,,,,,,,,,,,,,,,,,,,,,,,,,,,,,,sub_207,2025-03-02_11h24.30.123,Reversal,2023.1.3,60.14874785346953,3,
,,,exp1.png,,,,,,,,,,,,,,,,,0,0,0,0,,,,,0,0,0,0,0,0,0,0,,,,,,,,,,,,,,,,,,,,,,601.0363188000001,,None,None,[],,,,,,,,,,,,sub_207,2025-03-02_11h24.30.123,Reversal,2023.1.3,60.14874785346953,3,
,,,exp2.png,,,,,,,,,,,,,,,,,0,0,0,0,,,,,0,0,0,0,0,1,1,1,,,,,,,,,,,,,,,,,,,,,,603.5655857000002,,None,None,[],,,,,,,,,,,,sub_207,2025-03-02_11h24.30.123,Reversal,2023.1.3,60.14874785346953,3,
,,,exp3.png,,,,,,,,,,,,,,,,,0,0,0,0,,,,,0,0,0,0,0,2,2,2,,,,,,,,,,,,,,,,,,,,,,604.5340666000002,,None,None,[],,,,,,,,,,,,sub_207,2025-03-02_11h24.30.123,Reversal,2023.1.3,60.14874785346953,3,
,,,exp4.png,,,,,,,,,,,,,,,,,0,0,0,0,,,,,0,0,0,0,0,3,3,3,,,,,,,,,,,,,,,,,,,,,,605.4025087,,None,None,[],,,,,,,,,,,,sub_207,2025-03-02_11h24.30.123,Reversal,2023.1.3,60.14874785346953,3,
0,exp1.png,exp2.png,,,,,,,,,,,,,,,,,,1,0,1,0,0,0,0,0,,,,,,,,,False,20,81,False,exp1.png,exp2.png,trial_right_image,-1,exp2.png,3,exp1.png,exp2.png,1,3,reversed,incorrect,0.4009627816673971,0,valid_lose,538.9988416999995,45,,,,,,,,,,,,,,,,,sub_207,2025-03-02_11h24.30.123,Reversal,2023.1.3,60.14874785346953,3,
1,exp3.png,exp4.png,,,,,,,,,,,,,,,,,,1,0,1,0,0,1,1,1,,,,,,,,,False,21,82,False,exp3.png,exp4.png,trial_right_image,-1,exp4.png,3,exp4.png,exp3.png,1,1,non-reversed,correct,0.42206557571990155,1,valid_win,544.3296229999996,46,,,,,,,,,,,,,,,,,sub_207,2025-03-02_11h24.30.123,Reversal,2023.1.3,60.14874785346953,3,
2,exp1.png,exp2.png,,,,,,,,,,,,,,,,,,1,0,1,0,0,2,2,2,,,,,,,,,False,22,83,False,exp1.png,exp2.png,trial_left_image,1,exp1.png,3,exp1.png,exp2.png,0,4,reversed,correct,0.4960755608718743,1,valid_win,548.6121125999998,47,,,,,,,,,,,,,,,,,sub_207,2025-03-02_11h24.30.123,Reversal,2023.1.3,60.14874785346953,3,
3,exp3.png,exp4.png,,,,,,,,,,,,,,,,,,1,0,1,0,0,3,3,3,,,,,,,,,False,23,84,True,exp4.png,exp3.png,trial_right_image,-1,exp3.png,3,exp4.png,exp3.png,0,2,non-reversed,incorrect,0.1739778745701943,1,invalid_win,552.4936423999998,48,,,,,,,,,,,,,,,,,sub_207,2025-03-02_11h24.30.123,Reversal,2023.1.3,60.14874785346953,3,
4,exp1.png,exp2.png,,,,,,,,,,,,,,,,,,1,0,1,0,0,4,4,4,,,,,,,,,False,24,85,True,exp2.png,exp1.png,trial_left_image,1,exp2.png,3,exp1.png,exp2.png,1,3,reversed,incorrect,0.08360453831890835,1,invalid_win,556.4260573000001,49,,,,,,,,,,,,,,,,,sub_207,2025-03-02_11h24.30.123,Reversal,2023.1.3,60.14874785346953,3,
5,exp3.png,exp4.png,,,,,,,,,,,,,,,,,,1,0,1,0,0,5,5,5,,,,,,,,,False,25,86,True,exp4.png,exp3.png,trial_right_image,-1,exp3.png,3,exp4.png,exp3.png,0,2,non-reversed,incorrect,0.47186579622297675,0,valid_lose,560.3917412000001,49,,,,,,,,,,,,,,,,,sub_207,2025-03-02_11h24.30.123,Reversal,2023.1.3,60.14874785346953,3,
6,exp1.png,exp2.png,,,,,,,,,,,,,,,,,,1,0,1,0,0,6,6,6,,,,,,,,,False,26,87,False,exp1.png,exp2.png,trial_right_image,-1,exp2.png,3,exp1.png,exp2.png,1,3,reversed,incorrect,0.5031070467455807,0,valid_lose,564.7063403000002,49,,,,,,,,,,,,,,,,,sub_207,2025-03-02_11h24.30.123,Reversal,2023.1.3,60.14874785346953,3,
7,exp3.png,exp4.png,,,,,,,,,,,,,,,,,,1,0,1,0,0,7,7,7,,,,,,,,,False,27,88,False,exp3.png,exp4.png,trial_left_image,1,exp3.png,3,exp4.png,exp3.png,0,2,non-reversed,incorrect,0.05343684260420112,1,invalid_win,570.0212897000001,50,,,,,,,,,,,,,,,,,sub_207,2025-03-02_11h24.30.123,Reversal,2023.1.3,60.14874785346953,3,
8,exp1.png,exp2.png,,,,,,,,,,,,,,,,,,1,0,1,0,0,8,8,8,,,,,,,,,False,28,89,False,exp1.png,exp2.png,trial_right_image,-1,exp2.png,3,exp1.png,exp2.png,1,3,reversed,incorrect,0.302299402509038,0,valid_lose,574.3366919999999,50,,,,,,,,,,,,,,,,,sub_207,2025-03-02_11h24.30.123,Reversal,2023.1.3,60.14874785346953,3,
9,exp3.png,exp4.png,,,,,,,,,,,,,,,,,,1,0,1,0,0,9,9,9,,,,,,,,,False,29,90,True,exp4.png,exp3.png,trial_left_image,1,exp4.png,3,exp4.png,exp3.png,1,1,non-reversed,correct,0.7049221750279963,1,valid_win,578.8683900999995,51,,,,,,,,,,,,,,,,,sub_207,2025-03-02_11h24.30.123,Reversal,2023.1.3,60.14874785346953,3,
10,exp1.png,exp2.png,,,,,,,,,,,,,,,,,,1,0,1,0,0,10,10,10,,,,,,,,,False,30,91,False,exp1.png,exp2.png,trial_left_image,1,exp1.png,3,exp1.png,exp2.png,0,4,reversed,correct,0.36537307304280764,1,valid_win,582.7173645000003,52,,,,,,,,,,,,,,,,,sub_207,2025-03-02_11h24.30.123,Reversal,2023.1.3,60.14874785346953,3,
11,exp3.png,exp4.png,,,,,,,,,,,,,,,,,,1,0,1,0,0,11,11,11,,,,,,,,,False,31,92,False,exp3.png,exp4.png,trial_left_image,1,exp3.png,3,exp4.png,exp3.png,0,2,non-reversed,incorrect,0.8561239065921329,0,valid_lose,586.5326083,52,,,,,,,,,,,,,,,,,sub_207,2025-03-02_11h24.30.123,Reversal,2023.1.3,60.14874785346953,3,
12,exp1.png,exp2.png,,,,,,,,,,,,,,,,,,1,0,1,0,0,12,12,12,,,,,,,,,False,32,93,True,exp2.png,exp1.png,trial_right_image,-1,exp1.png,3,exp1.png,exp2.png,0,4,reversed,correct,0.5573876644667819,1,valid_win,590.5143913000002,53,,,,,,,,,,,,,,,,,sub_207,2025-03-02_11h24.30.123,Reversal,2023.1.3,60.14874785346953,3,
13,exp3.png,exp4.png,,,,,,,,,,,,,,,,,,1,0,1,0,0,13,13,13,,,,,,,,,False,33,94,True,exp4.png,exp3.png,trial_right_image,-1,exp3.png,3,exp4.png,exp3.png,0,2,non-reversed,incorrect,0.9058589008957836,0,valid_lose,594.3640599,53,,,,,,,,,,,,,,,,,sub_207,2025-03-02_11h24.30.123,Reversal,2023.1.3,60.14874785346953,3,
14,exp1.png,exp2.png,,,,,,,,,,,,,,,,,,1,0,1,0,0,14,14,14,,,,,,,,,False,34,95,True,exp2.png,exp1.png,trial_left_image,1,exp2.png,3,exp1.png,exp2.png,1,3,reversed,incorrect,0.9826752628091084,0,valid_lose,598.4449857,53,,,,,,,,,,,,,,,,,sub_207,2025-03-02_11h24.30.123,Reversal,2023.1.3,60.14874785346953,3,
15,exp3.png,exp4.png,,,,,,,,,,,,,,,,,,1,0,1,0,0,15,15,15,,,,,,,,,False,35,96,False,exp3.png,exp4.png,trial_right_image,-1,exp4.png,3,exp4.png,exp3.png,1,1,non-reversed,correct,0.2810596110334549,1,valid_win,602.2935552999998,54,,,,,,,,,,,,,,,,,sub_207,2025-03-02_11h24.30.123,Reversal,2023.1.3,60.14874785346953,3,
16,exp1.png,exp2.png,,,,,,,,,,,,,,,,,,1,0,1,0,0,16,16,16,,,,,,,,,False,36,97,True,exp2.png,exp1.png,trial_left_image,1,exp2.png,3,exp1.png,exp2.png,1,3,reversed,incorrect,0.2669261119274259,0,valid_lose,606.9257189,54,,,,,,,,,,,,,,,,,sub_207,2025-03-02_11h24.30.123,Reversal,2023.1.3,60.14874785346953,3,
17,exp3.png,exp4.png,,,,,,,,,,,,,,,,,,1,0,1,0,0,17,17,17,,,,,,,,,False,37,98,False,exp3.png,exp4.png,trial_right_image,-1,exp4.png,3,exp4.png,exp3.png,1,1,non-reversed,correct,0.34173967074043843,1,valid_win,610.8078718999996,55,,,,,,,,,,,,,,,,,sub_207,2025-03-02_11h24.30.123,Reversal,2023.1.3,60.14874785346953,3,
18,exp1.png,exp2.png,,,,,,,,,,,,,,,,,,1,0,1,0,0,18,18,18,,,,,,,,,False,38,99,True,exp2.png,exp1.png,trial_right_image,-1,exp1.png,3,exp1.png,exp2.png,0,4,reversed,correct,0.1496424453191898,0,invalid_lose,614.6893822000002,55,,,,,,,,,,,,,,,,,sub_207,2025-03-02_11h24.30.123,Reversal,2023.1.3,60.14874785346953,3,
19,exp3.png,exp4.png,,,,,,,,,,,,,,,,,,1,0,1,0,0,19,19,19,,,,,,,,,False,39,100,True,exp4.png,exp3.png,trial_left_image,1,exp4.png,3,exp4.png,exp3.png,1,1,non-reversed,correct,0.3458124915985811,1,valid_win,620.8039208999999,56,,,,,,,,,,,,,,,,,sub_207,2025-03-02_11h24.30.123,Reversal,2023.1.3,60.14874785346953,3,
20,exp1.png,exp2.png,,,,,,,,,,,,,,,,,,1,0,1,0,0,20,20,20,,,,,,,,,True,,,,,,,,,,,,,,,,,,,,,,,,,,,,,,,,,,,,,sub_207,2025-03-02_11h24.30.123,Reversal,2023.1.3,60.14874785346953,3,
,,,exp1.png,,,,,,,,,,,,,,,,,1,0,1,0,,,,,0,0,0,0,0,0,0,0,,,,,,,,,,,,,,,,,,,,,,695.0858785,,None,None,[],,,,,,,,,,,,sub_207,2025-03-02_11h24.30.123,Reversal,2023.1.3,60.14874785346953,3,
,,,exp2.png,,,,,,,,,,,,,,,,,1,0,1,0,,,,,0,0,0,0,0,1,1,1,,,,,,,,,,,,,,,,,,,,,,697.8415212999998,,None,None,[],,,,,,,,,,,,sub_207,2025-03-02_11h24.30.123,Reversal,2023.1.3,60.14874785346953,3,
,,,exp3.png,,,,,,,,,,,,,,,,,1,0,1,0,,,,,0,0,0,0,0,2,2,2,,,,,,,,,,,,,,,,,,,,,,698.3032402999997,,None,None,[],,,,,,,,,,,,sub_207,2025-03-02_11h24.30.123,Reversal,2023.1.3,60.14874785346953,3,
,,,exp4.png,,,,,,,,,,,,,,,,,1,0,1,0,,,,,0,0,0,0,0,3,3,3,,,,,,,,,,,,,,,,,,,,,,698.8374221000004,,None,None,[],,,,,,,,,,,,sub_207,2025-03-02_11h24.30.123,Reversal,2023.1.3,60.14874785346953,3,
0,exp1.png,exp2.png,,,,,,,,,,,,,,,,,,2,0,2,0,0,0,0,0,,,,,,,,,False,40,101,True,exp2.png,exp1.png,trial_left_image,1,exp2.png,3,exp1.png,exp2.png,1,3,reversed,incorrect,0.8768878168461808,0,valid_lose,631.3337868999997,56,,,,,,,,,,,,,,,,,sub_207,2025-03-02_11h24.30.123,Reversal,2023.1.3,60.14874785346953,3,
1,exp3.png,exp4.png,,,,,,,,,,,,,,,,,,2,0,2,0,0,1,1,1,,,,,,,,,False,41,102,True,exp4.png,exp3.png,trial_left_image,1,exp4.png,3,exp4.png,exp3.png,1,1,non-reversed,correct,0.18658299163542635,0,invalid_lose,636.4821388999999,56,,,,,,,,,,,,,,,,,sub_207,2025-03-02_11h24.30.123,Reversal,2023.1.3,60.14874785346953,3,
2,exp1.png,exp2.png,,,,,,,,,,,,,,,,,,2,0,2,0,0,2,2,2,,,,,,,,,False,42,103,False,exp1.png,exp2.png,trial_left_image,1,exp1.png,3,exp1.png,exp2.png,0,4,reversed,correct,0.7084611152872438,1,valid_win,641.8805057,57,,,,,,,,,,,,,,,,,sub_207,2025-03-02_11h24.30.123,Reversal,2023.1.3,60.14874785346953,3,
3,exp3.png,exp4.png,,,,,,,,,,,,,,,,,,2,0,2,0,0,3,3,3,,,,,,,,,False,43,104,False,exp3.png,exp4.png,trial_left_image,1,exp3.png,3,exp4.png,exp3.png,0,2,non-reversed,incorrect,0.2878173467391064,0,valid_lose,646.7283496999999,57,,,,,,,,,,,,,,,,,sub_207,2025-03-02_11h24.30.123,Reversal,2023.1.3,60.14874785346953,3,
4,exp1.png,exp2.png,,,,,,,,,,,,,,,,,,2,0,2,0,0,4,4,4,,,,,,,,,False,44,105,True,exp2.png,exp1.png,trial_right_image,-1,exp1.png,3,exp1.png,exp2.png,0,4,reversed,correct,0.8779071015255284,1,valid_win,651.6104231999998,58,,,,,,,,,,,,,,,,,sub_207,2025-03-02_11h24.30.123,Reversal,2023.1.3,60.14874785346953,3,
5,exp3.png,exp4.png,,,,,,,,,,,,,,,,,,2,0,2,0,0,5,5,5,,,,,,,,,False,45,106,False,exp3.png,exp4.png,trial_right_image,-1,exp4.png,3,exp4.png,exp3.png,1,1,non-reversed,correct,0.996463207539901,1,valid_win,655.6116477999994,59,,,,,,,,,,,,,,,,,sub_207,2025-03-02_11h24.30.123,Reversal,2023.1.3,60.14874785346953,3,
6,exp1.png,exp2.png,,,,,,,,,,,,,,,,,,2,0,2,0,0,6,6,6,,,,,,,,,False,46,107,False,exp1.png,exp2.png,trial_left_image,1,exp1.png,3,exp1.png,exp2.png,0,4,reversed,correct,0.9777623713005473,1,valid_win,659.5742359999995,60,,,,,,,,,,,,,,,,,sub_207,2025-03-02_11h24.30.123,Reversal,2023.1.3,60.14874785346953,3,
7,exp3.png,exp4.png,,,,,,,,,,,,,,,,,,2,0,2,0,0,7,7,7,,,,,,,,,False,47,108,True,exp4.png,exp3.png,trial_right_image,-1,exp3.png,3,exp4.png,exp3.png,0,2,non-reversed,incorrect,0.5068950854250515,0,valid_lose,664.0892051999999,60,,,,,,,,,,,,,,,,,sub_207,2025-03-02_11h24.30.123,Reversal,2023.1.3,60.14874785346953,3,
8,exp1.png,exp2.png,,,,,,,,,,,,,,,,,,2,0,2,0,0,8,8,8,,,,,,,,,False,48,109,True,exp2.png,exp1.png,trial_right_image,-1,exp1.png,3,exp1.png,exp2.png,0,4,reversed,correct,0.06624999748903782,0,invalid_lose,668.3380580000003,60,,,,,,,,,,,,,,,,,sub_207,2025-03-02_11h24.30.123,Reversal,2023.1.3,60.14874785346953,3,
9,exp3.png,exp4.png,,,,,,,,,,,,,,,,,,2,0,2,0,0,9,9,9,,,,,,,,,False,49,110,False,exp3.png,exp4.png,trial_left_image,1,exp3.png,3,exp4.png,exp3.png,0,2,non-reversed,incorrect,0.9998590756299524,0,valid_lose,673.3530818999998,60,,,,,,,,,,,,,,,,,sub_207,2025-03-02_11h24.30.123,Reversal,2023.1.3,60.14874785346953,3,
10,exp1.png,exp2.png,,,,,,,,,,,,,,,,,,2,0,2,0,0,10,10,10,,,,,,,,,False,50,111,True,exp2.png,exp1.png,trial_left_image,1,exp2.png,3,exp1.png,exp2.png,1,3,reversed,incorrect,0.09215633610213647,1,invalid_win,678.2682629000001,61,,,,,,,,,,,,,,,,,sub_207,2025-03-02_11h24.30.123,Reversal,2023.1.3,60.14874785346953,3,
11,exp3.png,exp4.png,,,,,,,,,,,,,,,,,,2,0,2,0,0,11,11,11,,,,,,,,,False,51,112,False,exp3.png,exp4.png,trial_right_image,-1,exp4.png,3,exp4.png,exp3.png,1,1,non-reversed,correct,0.25472553893375594,1,valid_win,685.2823296999995,62,,,,,,,,,,,,,,,,,sub_207,2025-03-02_11h24.30.123,Reversal,2023.1.3,60.14874785346953,3,
12,exp1.png,exp2.png,,,,,,,,,,,,,,,,,,2,0,2,0,0,12,12,12,,,,,,,,,False,52,113,True,exp2.png,exp1.png,trial_right_image,-1,exp1.png,3,exp1.png,exp2.png,0,4,reversed,correct,0.7248248466354966,1,valid_win,691.4306464000001,63,,,,,,,,,,,,,,,,,sub_207,2025-03-02_11h24.30.123,Reversal,2023.1.3,60.14874785346953,3,
13,exp3.png,exp4.png,,,,,,,,,,,,,,,,,,2,0,2,0,0,13,13,13,,,,,,,,,False,53,114,False,exp3.png,exp4.png,trial_left_image,1,exp3.png,3,exp4.png,exp3.png,0,2,non-reversed,incorrect,0.21128873803250647,1,invalid_win,695.4792144000003,64,,,,,,,,,,,,,,,,,sub_207,2025-03-02_11h24.30.123,Reversal,2023.1.3,60.14874785346953,3,
14,exp1.png,exp2.png,,,,,,,,,,,,,,,,,,2,0,2,0,0,14,14,14,,,,,,,,,False,54,115,True,exp2.png,exp1.png,trial_right_image,-1,exp1.png,3,exp1.png,exp2.png,0,4,reversed,correct,0.9784525565269536,1,valid_win,699.5275198999998,65,,,,,,,,,,,,,,,,,sub_207,2025-03-02_11h24.30.123,Reversal,2023.1.3,60.14874785346953,3,
15,exp3.png,exp4.png,,,,,,,,,,,,,,,,,,2,0,2,0,0,15,15,15,,,,,,,,,False,55,116,False,exp3.png,exp4.png,trial_left_image,1,exp3.png,3,exp4.png,exp3.png,0,2,non-reversed,incorrect,0.9730246488305855,0,valid_lose,703.5094128000001,65,,,,,,,,,,,,,,,,,sub_207,2025-03-02_11h24.30.123,Reversal,2023.1.3,60.14874785346953,3,
16,exp1.png,exp2.png,,,,,,,,,,,,,,,,,,2,0,2,0,0,16,16,16,,,,,,,,,False,56,117,True,exp2.png,exp1.png,trial_right_image,-1,exp1.png,3,exp1.png,exp2.png,0,4,reversed,correct,0.7773332215062743,1,valid_win,707.6081778999996,66,,,,,,,,,,,,,,,,,sub_207,2025-03-02_11h24.30.123,Reversal,2023.1.3,60.14874785346953,3,
17,exp3.png,exp4.png,,,,,,,,,,,,,,,,,,2,0,2,0,0,17,17,17,,,,,,,,,False,57,118,False,exp3.png,exp4.png,trial_left_image,1,exp3.png,3,exp4.png,exp3.png,0,2,non-reversed,incorrect,0.9686531125213467,0,valid_lose,712.4069432999995,66,,,,,,,,,,,,,,,,,sub_207,2025-03-02_11h24.30.123,Reversal,2023.1.3,60.14874785346953,3,
18,exp1.png,exp2.png,,,,,,,,,,,,,,,,,,2,0,2,0,0,18,18,18,,,,,,,,,False,58,119,True,exp2.png,exp1.png,trial_left_image,1,exp2.png,3,exp1.png,exp2.png,1,3,reversed,incorrect,0.10745963083828658,1,invalid_win,716.8716346000001,67,,,,,,,,,,,,,,,,,sub_207,2025-03-02_11h24.30.123,Reversal,2023.1.3,60.14874785346953,3,
19,exp3.png,exp4.png,,,,,,,,,,,,,,,,,,2,0,2,0,0,19,19,19,,,,,,,,,False,59,120,False,exp3.png,exp4.png,trial_right_image,-1,exp4.png,3,exp4.png,exp3.png,1,1,non-reversed,correct,0.2710700758459005,1,valid_win,721.8369302000001,68,,,,,,,,,,,,,,,,,sub_207,2025-03-02_11h24.30.123,Reversal,2023.1.3,60.14874785346953,3,
20,exp1.png,exp2.png,,,,,,,,,,,,,,,,,,2,0,2,0,0,20,20,20,,,,,,,,,True,,,,,,,,,,,,,,,,,,,,,,,,,,,,,,,,,,,,,sub_207,2025-03-02_11h24.30.123,Reversal,2023.1.3,60.14874785346953,3,
,,,exp1.png,,,,,,,,,,,,,,,,,2,0,2,0,,,,,0,0,0,0,0,0,0,0,,,,,,,,,,,,,,,,,,,,,,796.1295426999995,,None,None,[],,,,,,,,,,,,sub_207,2025-03-02_11h24.30.123,Reversal,2023.1.3,60.14874785346953,3,
,,,exp2.png,,,,,,,,,,,,,,,,,2,0,2,0,,,,,0,0,0,0,0,1,1,1,,,,,,,,,,,,,,,,,,,,,,802.2201388000003,,None,None,[],,,,,,,,,,,,sub_207,2025-03-02_11h24.30.123,Reversal,2023.1.3,60.14874785346953,3,
,,,exp3.png,,,,,,,,,,,,,,,,,2,0,2,0,,,,,0,0,0,0,0,2,2,2,,,,,,,,,,,,,,,,,,,,,,802.6846765,,None,None,[],,,,,,,,,,,,sub_207,2025-03-02_11h24.30.123,Reversal,2023.1.3,60.14874785346953,3,
,,,exp4.png,,,,,,,,,,,,,,,,,2,0,2,0,,,,,0,0,0,0,0,3,3,3,,,,,,,,,,,,,,,,,,,,,,803.5849521,,None,None,[],,,,,,,,,,,,sub_207,2025-03-02_11h24.30.123,Reversal,2023.1.3,60.14874785346953,3,
,,,,,,,,,,,,,,,,,,,,,,,,,,,,,,,,,,,,,,,,,,,,,,,,,,,,,,,,68,,,,,,,,,76,46,30,299.8938410999999,0,space,13.033943600000384,None,sub_207,2025-03-02_11h24.30.123,Reversal,2023.1.3,60.14874785346953,3,
