trial_index,trial_image1_file,trial_image2_file,image_file,learning_outer_loop.thisRepN,learning_outer_loop.thisTrialN,learning_outer_loop.thisN,learning_outer_loop.thisIndex,learning_inner_loop.thisRepN,learning_inner_loop.thisTrialN,learning_inner_loop.thisN,learning_inner_loop.thisIndex,learning_estimation_outer_loop.thisRepN,learning_estimation_outer_loop.thisTrialN,learning_estimation_outer_loop.thisN,learning_estimation_outer_loop.thisIndex,learning_estimation_inner_loop.thisRepN,learning_estimation_inner_loop.thisTrialN,learning_estimation_inner_loop.thisN,learning_estimation_inner_loop.thisIndex,reversal_outer_loop.thisRepN,reversal_outer_loop.thisTrialN,reversal_outer_loop.thisN,reversal_outer_loop.thisIndex,reversal_inner_loop.thisRepN,reversal_inner_loop.thisTrialN,reversal_inner_loop.thisN,reversal_inner_loop.thisIndex,reversal_estimation_outer_loop.thisRepN,reversal_estimation_outer_loop.thisTrialN,reversal_estimation_outer_loop.thisN,reversal_estimation_outer_loop.thisIndex,reversal_estimation_inner_loop.thisRepN,reversal_estimation_inner_loop.thisTrialN,reversal_estimation_inner_loop.thisN,reversal_estimation_inner_loop.thisIndex,skipped,total_trial_counter,trial_num,left_right_flip,left_image_file,right_image_file,clicked_stimulus_side,side,clicked_stimulus,version,high_prob_image_file,low_prob_image_file,choice_a,choice_b,pair_type,correct,trial_feedback_random,reward,trial_type,overall_time_after_trial,score,estimation_rating.started,estimation_exp1.png,estimation_rating.response,estimation_rating.rt,estimation_rating.history,estimation_exp2.png,estimation_exp3.png,estimation_exp4.png,total_learning_time,total_correct,learning_correct,reversal_correct,total_reversal_time,extra_block,participant,date,expName,psychopyVersion,frameRate,ver,
0,exp1.png,exp2.png,,0,0,0,0,0,0,0,0,,,,,,,,,,,,,,,,,,,,,,,,,False,0,1,True,exp2.png,exp1.png,trial_right_image,-1,exp1.png,2,exp1.png,exp2.png,1,1,non-reversed,correct,0.021924396241813415,0,invalid_lose,6.112467700000252,0,,,,,,,,,,,,,,,sub_462,2024-03-03_11h10.14.875,Reversal,2023.1.3,59.91672773181376,2,
1,exp3.png,exp4.png,,0,0,0,0,0,1,1,1,,,,,,,,,,,,,,,,,,,,,,,,,False,1,2,False,exp3.png,exp4.png,trial_right_image,-1,exp4.png,2,exp3.png,exp4.png,0,4,reversed,incorrect,0.9784890527821714,0,valid_lose,11.177012900000136,0,,,,,,,,,,,,,,,sub_462,2024-03-03_11h10.14.875,Reversal,2023.1.3,59.91672773181376,2,
2,exp1.png,exp2.png,,0,0,0,0,0,2,2,2,,,,,,,,,,,,,,,,,,,,,,,,,False,2,3,True,exp2.png,exp1.png,trial_right_image,-1,exp1.png,2,exp1.png,exp2.png,1,1,non-reversed,correct,0.7609589874198828,1,valid_win,17.541833300000235,1,,,,,,,,,,,,,,,sub_462,2024-03-03_11h10.14.875,Reversal,2023.1.3,59.91672773181376,2,
3,exp3.png,exp4.png,,0,0,0,0,0,3,3,3,,,,,,,,,,,,,,,,,,,,,,,,,False,3,4,False,exp3.png,exp4.png,trial_left_image,1,exp3.png,2,exp3.png,exp4.png,1,3,reversed,correct,0.337230358560091,1,valid_win,22.956415900000138,2,,,,,,,,,,,,,,,sub_462,2024-03-03_11h10.14.875,Reversal,2023.1.3,59.91672773181376,2,
4,exp1.png,exp2.png,,0,0,0,0,0,4,4,4,,,,,,,,,,,,,,,,,,,,,,,,,False,4,5,False,exp1.png,exp2.png,trial_left_image,1,exp1.png,2,exp1.png,exp2.png,1,1,non-reversed,correct,0.8156169882187669,1,valid_win,27.87179900000001,3,,,,,,,,,,,,,,,sub_462,2024-03-03_11h10.14.875,Reversal,2023.1.3,59.91672773181376,2,
5,exp3.png,exp4.png,,0,0,0,0,0,5,5,5,,,,,,,,,,,,,,,,,,,,,,,,,False,5,6,True,exp4.png,exp3.png,trial_right_image,-1,exp3.png,2,exp3.png,exp4.png,1,3,reversed,correct,0.9561166999637585,1,valid_win,32.419906699999956,4,,,,,,,,,,,,,,,sub_462,2024-03-03_11h10.14.875,Reversal,2023.1.3,59.91672773181376,2,
6,exp1.png,exp2.png,,0,0,0,0,0,6,6,6,,,,,,,,,,,,,,,,,,,,,,,,,False,6,7,True,exp2.png,exp1.png,trial_right_image,-1,exp1.png,2,exp1.png,exp2.png,1,1,non-reversed,correct,0.8389465998849032,1,valid_win,36.901914600000055,5,,,,,,,,,,,,,,,sub_462,2024-03-03_11h10.14.875,Reversal,2023.1.3,59.91672773181376,2,
7,exp3.png,exp4.png,,0,0,0,0,0,7,7,7,,,,,,,,,,,,,,,,,,,,,,,,,False,7,8,False,exp3.png,exp4.png,trial_left_image,1,exp3.png,2,exp3.png,exp4.png,1,3,reversed,correct,0.0566878424374293,0,invalid_lose,41.316679099999874,5,,,,,,,,,,,,,,,sub_462,2024-03-03_11h10.14.875,Reversal,2023.1.3,59.91672773181376,2,
8,exp1.png,exp2.png,,0,0,0,0,0,8,8,8,,,,,,,,,,,,,,,,,,,,,,,,,False,8,9,False,exp1.png,exp2.png,trial_left_image,1,exp1.png,2,exp1.png,exp2.png,1,1,non-reversed,correct,0.07649387683757713,0,invalid_lose,46.78202160000001,5,,,,,,,,,,,,,,,sub_462,2024-03-03_11h10.14.875,Reversal,2023.1.3,59.91672773181376,2,
9,exp3.png,exp4.png,,0,0,0,0,0,9,9,9,,,,,,,,,,,,,,,,,,,,,,,,,False,9,10,False,exp3.png,exp4.png,trial_left_image,1,exp3.png,2,exp3.png,exp4.png,1,3,reversed,correct,0.9989878110303938,1,valid_win,53.41301969999995,6,,,,,,,,,,,,,,,sub_462,2024-03-03_11h10.14.875,Reversal,2023.1.3,59.91672773181376,2,
10,exp1.png,exp2.png,,0,0,0,0,0,10,10,10,,,,,,,,,,,,,,,,,,,,,,,,,False,10,11,True,exp2.png,exp1.png,trial_left_image,1,exp2.png,2,exp1.png,exp2.png,0,2,non-reversed,incorrect,0.769301194579662,0,valid_lose,58.129115100000035,6,,,,,,,,,,,,,,,sub_462,2024-03-03_11h10.14.875,Reversal,2023.1.3,59.91672773181376,2,
11,exp3.png,exp4.png,,0,0,0,0,0,11,11,11,,,,,,,,,,,,,,,,,,,,,,,,,False,11,12,True,exp4.png,exp3.png,trial_right_image,-1,exp3.png,2,exp3.png,exp4.png,1,3,reversed,correct,0.44674676870516583,1,valid_win,63.293007000000216,7,,,,,,,,,,,,,,,sub_462,2024-03-03_11h10.14.875,Reversal,2023.1.3,59.91672773181376,2,
12,exp1.png,exp2.png,,0,0,0,0,0,12,12,12,,,,,,,,,,,,,,,,,,,,,,,,,False,12,13,False,exp1.png,exp2.png,trial_right_image,-1,exp2.png,2,exp1.png,exp2.png,0,2,non-reversed,incorrect,0.28666108533213475,0,valid_lose,68.40785499999993,7,,,,,,,,,,,,,,,sub_462,2024-03-03_11h10.14.875,Reversal,2023.1.3,59.91672773181376,2,
13,exp3.png,exp4.png,,0,0,0,0,0,13,13,13,,,,,,,,,,,,,,,,,,,,,,,,,False,13,14,False,exp3.png,exp4.png,trial_left_image,1,exp3.png,2,exp3.png,exp4.png,1,3,reversed,correct,0.153188705200212,0,invalid_lose,73.58987620000016,7,,,,,,,,,,,,,,,sub_462,2024-03-03_11h10.14.875,Reversal,2023.1.3,59.91672773181376,2,
14,exp1.png,exp2.png,,0,0,0,0,0,14,14,14,,,,,,,,,,,,,,,,,,,,,,,,,False,14,15,False,exp1.png,exp2.png,trial_left_image,1,exp1.png,2,exp1.png,exp2.png,1,1,non-reversed,correct,0.009934438543320212,0,invalid_lose,79.85389470000018,7,,,,,,,,,,,,,,,sub_462,2024-03-03_11h10.14.875,Reversal,2023.1.3,59.91672773181376,2,
15,exp3.png,exp4.png,,0,0,0,0,0,15,15,15,,,,,,,,,,,,,,,,,,,,,,,,,False,15,16,False,exp3.png,exp4.png,trial_right_image,-1,exp4.png,2,exp3.png,exp4.png,0,4,reversed,incorrect,0.8033954189092688,0,valid_lose,85.13593739999988,7,,,,,,,,,,,,,,,sub_462,2024-03-03_11h10.14.875,Reversal,2023.1.3,59.91672773181376,2,
16,exp1.png,exp2.png,,0,0,0,0,0,16,16,16,,,,,,,,,,,,,,,,,,,,,,,,,False,16,17,True,exp2.png,exp1.png,trial_right_image,-1,exp1.png,2,exp1.png,exp2.png,1,1,non-reversed,correct,0.8032210196146995,1,valid_win,89.90055040000016,8,,,,,,,,,,,,,,,sub_462,2024-03-03_11h10.14.875,Reversal,2023.1.3,59.91672773181376,2,
17,exp3.png,exp4.png,,0,0,0,0,0,17,17,17,,,,,,,,,,,,,,,,,,,,,,,,,False,17,18,True,exp4.png,exp3.png,trial_right_image,-1,exp3.png,2,exp3.png,exp4.png,1,3,reversed,correct,0.5239265990724957,1,valid_win,94.79914899999994,9,,,,,,,,,,,,,,,sub_462,2024-03-03_11h10.14.875,Reversal,2023.1.3,59.91672773181376,2,
18,exp1.png,exp2.png,,0,0,0,0,0,18,18,18,,,,,,,,,,,,,,,,,,,,,,,,,False,18,19,True,exp2.png,exp1.png,trial_right_image,-1,exp1.png,2,exp1.png,exp2.png,1,1,non-reversed,correct,0.718689287221835,1,valid_win,101.11388840000018,10,,,,,,,,,,,,,,,sub_462,2024-03-03_11h10.14.875,Reversal,2023.1.3,59.91672773181376,2,
19,exp3.png,exp4.png,,0,0,0,0,0,19,19,19,,,,,,,,,,,,,,,,,,,,,,,,,False,19,20,True,exp4.png,exp3.png,trial_right_image,-1,exp3.png,2,exp3.png,exp4.png,1,3,reversed,correct,0.8090374927720014,1,valid_win,106.0951556,11,,,,,,,,,,,,,,,sub_462,2024-03-03_11h10.14.875,Reversal,2023.1.3,59.91672773181376,2,
20,exp1.png,exp2.png,,0,0,0,0,0,20,20,20,,,,,,,,,,,,,,,,,,,,,,,,,True,,,,,,,,,,,,,,,,,,,,,,,,,,,,,,,,,,,sub_462,2024-03-03_11h10.14.875,Reversal,2023.1.3,59.91672773181376,2,
,,,exp1.png,0,0,0,0,,,,,0,0,0,0,0,0,0,0,,,,,,,,,,,,,,,,,,,,,,,,,,,,,,,,,,,,,,316.88641210000014,100.0,100.0,17.021984299999986,"[(100.0, 17.021984299999986)]",,,,,,,,,,sub_462,2024-03-03_11h10.14.875,Reversal,2023.1.3,59.91672773181376,2,
,,,exp2.png,0,0,0,0,,,,,0,0,0,0,0,1,1,1,,,,,,,,,,,,,,,,,,,,,,,,,,,,,,,,,,,,,,335.0016227000001,,5.0,2.676320399999895,"[(5.0, 2.676320399999895)]",5.0,,,,,,,,,sub_462,2024-03-03_11h10.14.875,Reversal,2023.1.3,59.91672773181376,2,
,,,exp3.png,0,0,0,0,,,,,0,0,0,0,0,2,2,2,,,,,,,,,,,,,,,,,,,,,,,,,,,,,,,,,,,,,,338.89472509999996,,100.0,2.2941461000000345,"[(100.0, 2.2941461000000345)]",,100.0,,,,,,,,sub_462,2024-03-03_11h10.14.875,Reversal,2023.1.3,59.91672773181376,2,
,,,exp4.png,0,0,0,0,,,,,0,0,0,0,0,3,3,3,,,,,,,,,,,,,,,,,,,,,,,,,,,,,,,,,,,,,,342.07940800000006,,None,None,[],,,,,,,,,,sub_462,2024-03-03_11h10.14.875,Reversal,2023.1.3,59.91672773181376,2,
0,exp1.png,exp2.png,,1,0,1,0,0,0,0,0,,,,,,,,,,,,,,,,,,,,,,,,,False,20,21,False,exp1.png,exp2.png,trial_left_image,1,exp1.png,2,exp1.png,exp2.png,1,1,non-reversed,correct,0.7401468694235618,1,valid_win,142.26656660000026,12,,,,,,,,,,,,,,,sub_462,2024-03-03_11h10.14.875,Reversal,2023.1.3,59.91672773181376,2,
1,exp3.png,exp4.png,,1,0,1,0,0,1,1,1,,,,,,,,,,,,,,,,,,,,,,,,,False,21,22,True,exp4.png,exp3.png,trial_right_image,-1,exp3.png,2,exp3.png,exp4.png,1,3,reversed,correct,0.9507920779456799,1,valid_win,147.46528369999987,13,,,,,,,,,,,,,,,sub_462,2024-03-03_11h10.14.875,Reversal,2023.1.3,59.91672773181376,2,
2,exp1.png,exp2.png,,1,0,1,0,0,2,2,2,,,,,,,,,,,,,,,,,,,,,,,,,False,22,23,True,exp2.png,exp1.png,trial_right_image,-1,exp1.png,2,exp1.png,exp2.png,1,1,non-reversed,correct,0.8121909278161463,1,valid_win,152.26276940000025,14,,,,,,,,,,,,,,,sub_462,2024-03-03_11h10.14.875,Reversal,2023.1.3,59.91672773181376,2,
3,exp3.png,exp4.png,,1,0,1,0,0,3,3,3,,,,,,,,,,,,,,,,,,,,,,,,,False,23,24,True,exp4.png,exp3.png,trial_right_image,-1,exp3.png,2,exp3.png,exp4.png,1,3,reversed,correct,0.6213437607342762,1,valid_win,156.8946444000003,15,,,,,,,,,,,,,,,sub_462,2024-03-03_11h10.14.875,Reversal,2023.1.3,59.91672773181376,2,
4,exp1.png,exp2.png,,1,0,1,0,0,4,4,4,,,,,,,,,,,,,,,,,,,,,,,,,False,24,25,False,exp1.png,exp2.png,trial_left_image,1,exp1.png,2,exp1.png,exp2.png,1,1,non-reversed,correct,0.2191056917100659,0,invalid_lose,161.45978940000032,15,,,,,,,,,,,,,,,sub_462,2024-03-03_11h10.14.875,Reversal,2023.1.3,59.91672773181376,2,
5,exp3.png,exp4.png,,1,0,1,0,0,5,5,5,,,,,,,,,,,,,,,,,,,,,,,,,False,25,26,True,exp4.png,exp3.png,trial_right_image,-1,exp3.png,2,exp3.png,exp4.png,1,3,reversed,correct,0.8895686446701168,1,valid_win,166.59122640000032,16,,,,,,,,,,,,,,,sub_462,2024-03-03_11h10.14.875,Reversal,2023.1.3,59.91672773181376,2,
6,exp1.png,exp2.png,,1,0,1,0,0,6,6,6,,,,,,,,,,,,,,,,,,,,,,,,,False,26,27,False,exp1.png,exp2.png,trial_left_image,1,exp1.png,2,exp1.png,exp2.png,1,1,non-reversed,correct,0.5521737186127673,1,valid_win,173.25572450000027,17,,,,,,,,,,,,,,,sub_462,2024-03-03_11h10.14.875,Reversal,2023.1.3,59.91672773181376,2,
7,exp3.png,exp4.png,,1,0,1,0,0,7,7,7,,,,,,,,,,,,,,,,,,,,,,,,,False,27,28,True,exp4.png,exp3.png,trial_right_image,-1,exp3.png,2,exp3.png,exp4.png,1,3,reversed,correct,0.9529141897865363,1,valid_win,178.0051567999999,18,,,,,,,,,,,,,,,sub_462,2024-03-03_11h10.14.875,Reversal,2023.1.3,59.91672773181376,2,
8,exp1.png,exp2.png,,1,0,1,0,0,8,8,8,,,,,,,,,,,,,,,,,,,,,,,,,False,28,29,True,exp2.png,exp1.png,trial_right_image,-1,exp1.png,2,exp1.png,exp2.png,1,1,non-reversed,correct,0.33065801400246997,1,valid_win,182.7866713000003,19,,,,,,,,,,,,,,,sub_462,2024-03-03_11h10.14.875,Reversal,2023.1.3,59.91672773181376,2,
9,exp3.png,exp4.png,,1,0,1,0,0,9,9,9,,,,,,,,,,,,,,,,,,,,,,,,,False,29,30,True,exp4.png,exp3.png,trial_right_image,-1,exp3.png,2,exp3.png,exp4.png,1,3,reversed,correct,0.4701752080306384,1,valid_win,189.1341010000001,20,,,,,,,,,,,,,,,sub_462,2024-03-03_11h10.14.875,Reversal,2023.1.3,59.91672773181376,2,
10,exp1.png,exp2.png,,1,0,1,0,0,10,10,10,,,,,,,,,,,,,,,,,,,,,,,,,False,30,31,False,exp1.png,exp2.png,trial_left_image,1,exp1.png,2,exp1.png,exp2.png,1,1,non-reversed,correct,0.9179870056216867,1,valid_win,193.63224360000004,21,,,,,,,,,,,,,,,sub_462,2024-03-03_11h10.14.875,Reversal,2023.1.3,59.91672773181376,2,
11,exp3.png,exp4.png,,1,0,1,0,0,11,11,11,,,,,,,,,,,,,,,,,,,,,,,,,False,31,32,False,exp3.png,exp4.png,trial_left_image,1,exp3.png,2,exp3.png,exp4.png,1,3,reversed,correct,0.6263928047719144,1,valid_win,199.29766710000013,22,,,,,,,,,,,,,,,sub_462,2024-03-03_11h10.14.875,Reversal,2023.1.3,59.91672773181376,2,
12,exp1.png,exp2.png,,1,0,1,0,0,12,12,12,,,,,,,,,,,,,,,,,,,,,,,,,False,32,33,False,exp1.png,exp2.png,trial_left_image,1,exp1.png,2,exp1.png,exp2.png,1,1,non-reversed,correct,0.4250144942343761,1,valid_win,204.7126573999999,23,,,,,,,,,,,,,,,sub_462,2024-03-03_11h10.14.875,Reversal,2023.1.3,59.91672773181376,2,
13,exp3.png,exp4.png,,1,0,1,0,0,13,13,13,,,,,,,,,,,,,,,,,,,,,,,,,False,33,34,False,exp3.png,exp4.png,trial_left_image,1,exp3.png,2,exp3.png,exp4.png,1,3,reversed,correct,0.19702458696194103,0,invalid_lose,209.12757710000005,23,,,,,,,,,,,,,,,sub_462,2024-03-03_11h10.14.875,Reversal,2023.1.3,59.91672773181376,2,
14,exp1.png,exp2.png,,1,0,1,0,0,14,14,14,,,,,,,,,,,,,,,,,,,,,,,,,False,34,35,True,exp2.png,exp1.png,trial_right_image,-1,exp1.png,2,exp1.png,exp2.png,1,1,non-reversed,correct,0.9581051842989757,1,valid_win,215.4586416000002,24,,,,,,,,,,,,,,,sub_462,2024-03-03_11h10.14.875,Reversal,2023.1.3,59.91672773181376,2,
15,exp3.png,exp4.png,,1,0,1,0,0,15,15,15,,,,,,,,,,,,,,,,,,,,,,,,,False,35,36,False,exp3.png,exp4.png,trial_right_image,-1,exp4.png,2,exp3.png,exp4.png,0,4,reversed,incorrect,0.14400211086773906,1,invalid_win,221.15707410000005,25,,,,,,,,,,,,,,,sub_462,2024-03-03_11h10.14.875,Reversal,2023.1.3,59.91672773181376,2,
16,exp1.png,exp2.png,,1,0,1,0,0,16,16,16,,,,,,,,,,,,,,,,,,,,,,,,,False,36,37,False,exp1.png,exp2.png,trial_left_image,1,exp1.png,2,exp1.png,exp2.png,1,1,non-reversed,correct,0.00470505335008331,0,invalid_lose,226.2549541000003,25,,,,,,,,,,,,,,,sub_462,2024-03-03_11h10.14.875,Reversal,2023.1.3,59.91672773181376,2,
17,exp3.png,exp4.png,,1,0,1,0,0,17,17,17,,,,,,,,,,,,,,,,,,,,,,,,,False,37,38,False,exp3.png,exp4.png,trial_left_image,1,exp3.png,2,exp3.png,exp4.png,1,3,reversed,correct,0.1280263693040451,0,invalid_lose,233.10367440000027,25,,,,,,,,,,,,,,,sub_462,2024-03-03_11h10.14.875,Reversal,2023.1.3,59.91672773181376,2,
18,exp1.png,exp2.png,,1,0,1,0,0,18,18,18,,,,,,,,,,,,,,,,,,,,,,,,,False,38,39,True,exp2.png,exp1.png,trial_right_image,-1,exp1.png,2,exp1.png,exp2.png,1,1,non-reversed,correct,0.555889326564221,1,valid_win,239.06738339999993,26,,,,,,,,,,,,,,,sub_462,2024-03-03_11h10.14.875,Reversal,2023.1.3,59.91672773181376,2,
19,exp3.png,exp4.png,,1,0,1,0,0,19,19,19,,,,,,,,,,,,,,,,,,,,,,,,,False,39,40,True,exp4.png,exp3.png,trial_right_image,-1,exp3.png,2,exp3.png,exp4.png,1,3,reversed,correct,0.6067493639782562,1,valid_win,247.94729619999998,27,,,,,,,,,,,,,,,sub_462,2024-03-03_11h10.14.875,Reversal,2023.1.3,59.91672773181376,2,
20,exp1.png,exp2.png,,1,0,1,0,0,20,20,20,,,,,,,,,,,,,,,,,,,,,,,,,True,,,,,,,,,,,,,,,,,,,,,,,,,,,,,,,,,,,sub_462,2024-03-03_11h10.14.875,Reversal,2023.1.3,59.91672773181376,2,
,,,exp1.png,1,0,1,0,,,,,0,0,0,0,0,0,0,0,,,,,,,,,,,,,,,,,,,,,,,,,,,,,,,,,,,,,,458.7383165000001,100.0,100.0,7.1139923000000636,"[(100.0, 7.1139923000000636)]",,,,,,,,,,sub_462,2024-03-03_11h10.14.875,Reversal,2023.1.3,59.91672773181376,2,
,,,exp2.png,1,0,1,0,,,,,0,0,0,0,0,1,1,1,,,,,,,,,,,,,,,,,,,,,,,,,,,,,,,,,,,,,,466.78524930000003,,7.0,1.7962455000001682,"[(7.0, 1.7962455000001682)]",7.0,,,,,,,,,sub_462,2024-03-03_11h10.14.875,Reversal,2023.1.3,59.91672773181376,2,
,,,exp3.png,1,0,1,0,,,,,0,0,0,0,0,2,2,2,,,,,,,,,,,,,,,,,,,,,,,,,,,,,,,,,,,,,,469.66972799999985,,76.0,4.658655000000181,"[(76.0, 4.658655000000181)]",,76.0,,,,,,,,sub_462,2024-03-03_11h10.14.875,Reversal,2023.1.3,59.91672773181376,2,
,,,exp4.png,1,0,1,0,,,,,0,0,0,0,0,3,3,3,,,,,,,,,,,,,,,,,,,,,,,,,,,,,,,,,,,,,,475.16687120000006,,1.0,2.3430637999999817,"[(1.0, 2.3430637999999817)]",,,1.0,,,,,,,sub_462,2024-03-03_11h10.14.875,Reversal,2023.1.3,59.91672773181376,2,
0,exp1.png,exp2.png,,2,0,2,0,0,0,0,0,,,,,,,,,,,,,,,,,,,,,,,,,False,40,41,False,exp1.png,exp2.png,trial_left_image,1,exp1.png,2,exp1.png,exp2.png,1,1,non-reversed,correct,0.6789533403405608,1,valid_win,273.85558889999993,28,,,,,,,,,,,,,,,sub_462,2024-03-03_11h10.14.875,Reversal,2023.1.3,59.91672773181376,2,
1,exp3.png,exp4.png,,2,0,2,0,0,1,1,1,,,,,,,,,,,,,,,,,,,,,,,,,False,41,42,False,exp3.png,exp4.png,trial_left_image,1,exp3.png,2,exp3.png,exp4.png,1,3,reversed,correct,0.6752831017164389,1,valid_win,280.4697209000001,29,,,,,,,,,,,,,,,sub_462,2024-03-03_11h10.14.875,Reversal,2023.1.3,59.91672773181376,2,
2,exp1.png,exp2.png,,2,0,2,0,0,2,2,2,,,,,,,,,,,,,,,,,,,,,,,,,False,42,43,True,exp2.png,exp1.png,trial_right_image,-1,exp1.png,2,exp1.png,exp2.png,1,1,non-reversed,correct,0.8353672252939905,1,valid_win,285.60191669999995,30,,,,,,,,,,,,,,,sub_462,2024-03-03_11h10.14.875,Reversal,2023.1.3,59.91672773181376,2,
3,exp3.png,exp4.png,,2,0,2,0,0,3,3,3,,,,,,,,,,,,,,,,,,,,,,,,,False,43,44,True,exp4.png,exp3.png,trial_right_image,-1,exp3.png,2,exp3.png,exp4.png,1,3,reversed,correct,0.12967665696547326,0,invalid_lose,292.4655032999999,30,,,,,,,,,,,,,,,sub_462,2024-03-03_11h10.14.875,Reversal,2023.1.3,59.91672773181376,2,
4,exp1.png,exp2.png,,2,0,2,0,0,4,4,4,,,,,,,,,,,,,,,,,,,,,,,,,False,44,45,False,exp1.png,exp2.png,trial_left_image,1,exp1.png,2,exp1.png,exp2.png,1,1,non-reversed,correct,0.45510278641621293,1,valid_win,297.8141206,31,,,,,,,,,,,,,,,sub_462,2024-03-03_11h10.14.875,Reversal,2023.1.3,59.91672773181376,2,
5,exp3.png,exp4.png,,2,0,2,0,0,5,5,5,,,,,,,,,,,,,,,,,,,,,,,,,False,45,46,False,exp3.png,exp4.png,trial_right_image,-1,exp4.png,2,exp3.png,exp4.png,0,4,reversed,incorrect,0.42526061208332677,0,valid_lose,303.5952794,31,,,,,,,,,,,,,,,sub_462,2024-03-03_11h10.14.875,Reversal,2023.1.3,59.91672773181376,2,
6,exp1.png,exp2.png,,2,0,2,0,0,6,6,6,,,,,,,,,,,,,,,,,,,,,,,,,False,46,47,False,exp1.png,exp2.png,trial_left_image,1,exp1.png,2,exp1.png,exp2.png,1,1,non-reversed,correct,0.4164868297662524,1,valid_win,309.44323639999993,32,,,,,,,,,,,,,,,sub_462,2024-03-03_11h10.14.875,Reversal,2023.1.3,59.91672773181376,2,
7,exp3.png,exp4.png,,2,0,2,0,0,7,7,7,,,,,,,,,,,,,,,,,,,,,,,,,False,47,48,True,exp4.png,exp3.png,trial_left_image,1,exp4.png,2,exp3.png,exp4.png,0,4,reversed,incorrect,0.9456304824798496,0,valid_lose,315.1919576999999,32,,,,,,,,,,,,,,,sub_462,2024-03-03_11h10.14.875,Reversal,2023.1.3,59.91672773181376,2,
8,exp1.png,exp2.png,,2,0,2,0,0,8,8,8,,,,,,,,,,,,,,,,,,,,,,,,,False,48,49,True,exp2.png,exp1.png,trial_right_image,-1,exp1.png,2,exp1.png,exp2.png,1,1,non-reversed,correct,0.6959336022623057,1,valid_win,320.1727768999999,33,,,,,,,,,,,,,,,sub_462,2024-03-03_11h10.14.875,Reversal,2023.1.3,59.91672773181376,2,
9,exp3.png,exp4.png,,2,0,2,0,0,9,9,9,,,,,,,,,,,,,,,,,,,,,,,,,False,49,50,True,exp4.png,exp3.png,trial_left_image,1,exp4.png,2,exp3.png,exp4.png,0,4,reversed,incorrect,0.013634590153909887,1,invalid_win,326.3207047000001,34,,,,,,,,,,,,,,,sub_462,2024-03-03_11h10.14.875,Reversal,2023.1.3,59.91672773181376,2,
10,exp1.png,exp2.png,,2,0,2,0,0,10,10,10,,,,,,,,,,,,,,,,,,,,,,,,,False,50,51,True,exp2.png,exp1.png,trial_right_image,-1,exp1.png,2,exp1.png,exp2.png,1,1,non-reversed,correct,0.1923958575627791,0,invalid_lose,331.16987340000014,34,,,,,,,,,,,,,,,sub_462,2024-03-03_11h10.14.875,Reversal,2023.1.3,59.91672773181376,2,
11,exp3.png,exp4.png,,2,0,2,0,0,11,11,11,,,,,,,,,,,,,,,,,,,,,,,,,False,51,52,False,exp3.png,exp4.png,trial_right_image,-1,exp4.png,2,exp3.png,exp4.png,0,4,reversed,incorrect,0.9536726155720845,0,valid_lose,336.65063450000025,34,,,,,,,,,,,,,,,sub_462,2024-03-03_11h10.14.875,Reversal,2023.1.3,59.91672773181376,2,
12,exp1.png,exp2.png,,2,0,2,0,0,12,12,12,,,,,,,,,,,,,,,,,,,,,,,,,False,52,53,True,exp2.png,exp1.png,trial_right_image,-1,exp1.png,2,exp1.png,exp2.png,1,1,non-reversed,correct,0.32435224460206613,1,valid_win,341.03245800000013,35,,,,,,,,,,,,,,,sub_462,2024-03-03_11h10.14.875,Reversal,2023.1.3,59.91672773181376,2,
13,exp3.png,exp4.png,,2,0,2,0,0,13,13,13,,,,,,,,,,,,,,,,,,,,,,,,,False,53,54,False,exp3.png,exp4.png,trial_left_image,1,exp3.png,2,exp3.png,exp4.png,1,3,reversed,correct,0.8363134135397412,1,valid_win,345.8145264,36,,,,,,,,,,,,,,,sub_462,2024-03-03_11h10.14.875,Reversal,2023.1.3,59.91672773181376,2,
14,exp1.png,exp2.png,,2,0,2,0,0,14,14,14,,,,,,,,,,,,,,,,,,,,,,,,,False,54,55,False,exp1.png,exp2.png,trial_left_image,1,exp1.png,2,exp1.png,exp2.png,1,1,non-reversed,correct,0.32572121338539217,1,valid_win,350.62922400000025,37,,,,,,,,,,,,,,,sub_462,2024-03-03_11h10.14.875,Reversal,2023.1.3,59.91672773181376,2,
15,exp3.png,exp4.png,,2,0,2,0,0,15,15,15,,,,,,,,,,,,,,,,,,,,,,,,,False,55,56,True,exp4.png,exp3.png,trial_left_image,1,exp4.png,2,exp3.png,exp4.png,0,4,reversed,incorrect,0.49106523679911895,0,valid_lose,356.8111951000001,37,,,,,,,,,,,,,,,sub_462,2024-03-03_11h10.14.875,Reversal,2023.1.3,59.91672773181376,2,
16,exp1.png,exp2.png,,2,0,2,0,0,16,16,16,,,,,,,,,,,,,,,,,,,,,,,,,False,56,57,True,exp2.png,exp1.png,trial_right_image,-1,exp1.png,2,exp1.png,exp2.png,1,1,non-reversed,correct,0.2977780732728883,1,valid_win,361.94297770000003,38,,,,,,,,,,,,,,,sub_462,2024-03-03_11h10.14.875,Reversal,2023.1.3,59.91672773181376,2,
17,exp3.png,exp4.png,,2,0,2,0,0,17,17,17,,,,,,,,,,,,,,,,,,,,,,,,,False,57,58,False,exp3.png,exp4.png,trial_left_image,1,exp3.png,2,exp3.png,exp4.png,1,3,reversed,correct,0.5036326638298457,1,valid_win,366.9078509000001,39,,,,,,,,,,,,,,,sub_462,2024-03-03_11h10.14.875,Reversal,2023.1.3,59.91672773181376,2,
18,exp1.png,exp2.png,,2,0,2,0,0,18,18,18,,,,,,,,,,,,,,,,,,,,,,,,,False,58,59,True,exp2.png,exp1.png,trial_right_image,-1,exp1.png,2,exp1.png,exp2.png,1,1,non-reversed,correct,0.41979753172577783,1,valid_win,371.78881649999994,40,,,,,,,,,,,,,,,sub_462,2024-03-03_11h10.14.875,Reversal,2023.1.3,59.91672773181376,2,
19,exp3.png,exp4.png,,2,0,2,0,0,19,19,19,,,,,,,,,,,,,,,,,,,,,,,,,False,59,60,False,exp3.png,exp4.png,trial_left_image,1,exp3.png,2,exp3.png,exp4.png,1,3,reversed,correct,0.4923149367843255,1,valid_win,376.22063909999997,41,,,,,,,,,,,,,,,sub_462,2024-03-03_11h10.14.875,Reversal,2023.1.3,59.91672773181376,2,
20,exp1.png,exp2.png,,2,0,2,0,0,20,20,20,,,,,,,,,,,,,,,,,,,,,,,,,True,,,,,,,,,,,,,,,,,,,,,,,,,,,,,,,,,,,sub_462,2024-03-03_11h10.14.875,Reversal,2023.1.3,59.91672773181376,2,
,,,exp1.png,2,0,2,0,,,,,0,0,0,0,0,0,0,0,,,,,,,,,,,,,,,,,,,,,,,,,,,,,,,,,,,,,,587.0172618000001,100.0,100.0,2.876851699999861,"[(100.0, 2.876851699999861)]",,,,,,,,,,sub_462,2024-03-03_11h10.14.875,Reversal,2023.1.3,59.91672773181376,2,
,,,exp2.png,2,0,2,0,,,,,0,0,0,0,0,1,1,1,,,,,,,,,,,,,,,,,,,,,,,,,,,,,,,,,,,,,,590.8610288,,1.0,1.6435453999997662,"[(1.0, 1.6435453999997662)]",1.0,,,,,,,,,sub_462,2024-03-03_11h10.14.875,Reversal,2023.1.3,59.91672773181376,2,
,,,exp3.png,2,0,2,0,,,,,0,0,0,0,0,2,2,2,,,,,,,,,,,,,,,,,,,,,,,,,,,,,,,,,,,,,,594.1443109000002,,None,None,[],,,,,,,,,,sub_462,2024-03-03_11h10.14.875,Reversal,2023.1.3,59.91672773181376,2,
,,,exp4.png,2,0,2,0,,,,,0,0,0,0,0,3,3,3,,,,,,,,,,,,,,,,,,,,,,,,,,,,,,,,,,,,,,595.7771318999999,,None,None,[],,,,,,,,,,sub_462,2024-03-03_11h10.14.875,Reversal,2023.1.3,59.91672773181376,2,
0,exp1.png,exp2.png,,3,0,3,0,0,0,0,0,,,,,,,,,,,,,,,,,,,,,,,,,False,60,61,True,exp2.png,exp1.png,trial_right_image,-1,exp1.png,2,exp1.png,exp2.png,1,1,non-reversed,correct,0.8222293624912913,1,valid_win,391.3653194000003,42,,,,,,,,,,,,,,,sub_462,2024-03-03_11h10.14.875,Reversal,2023.1.3,59.91672773181376,2,
1,exp3.png,exp4.png,,3,0,3,0,0,1,1,1,,,,,,,,,,,,,,,,,,,,,,,,,False,61,62,False,exp3.png,exp4.png,trial_left_image,1,exp3.png,2,exp3.png,exp4.png,1,3,reversed,correct,0.555930056825777,1,valid_win,395.76406270000007,43,,,,,,,,,,,,,,,sub_462,2024-03-03_11h10.14.875,Reversal,2023.1.3,59.91672773181376,2,
2,exp1.png,exp2.png,,3,0,3,0,0,2,2,2,,,,,,,,,,,,,,,,,,,,,,,,,False,62,63,False,exp1.png,exp2.png,trial_left_image,1,exp1.png,2,exp1.png,exp2.png,1,1,non-reversed,correct,0.5312934000777016,1,valid_win,399.97907220000025,44,,,,,,,,,,,,,,,sub_462,2024-03-03_11h10.14.875,Reversal,2023.1.3,59.91672773181376,2,
3,exp3.png,exp4.png,,3,0,3,0,0,3,3,3,,,,,,,,,,,,,,,,,,,,,,,,,False,63,64,True,exp4.png,exp3.png,trial_right_image,-1,exp3.png,2,exp3.png,exp4.png,1,3,reversed,correct,0.43737448987437544,1,valid_win,404.1610814999999,45,,,,,,,,,,,,,,,sub_462,2024-03-03_11h10.14.875,Reversal,2023.1.3,59.91672773181376,2,
4,exp1.png,exp2.png,,3,0,3,0,0,4,4,4,,,,,,,,,,,,,,,,,,,,,,,,,False,64,65,True,exp2.png,exp1.png,trial_right_image,-1,exp1.png,2,exp1.png,exp2.png,1,1,non-reversed,correct,0.6791805084288122,1,valid_win,408.9426438999999,46,,,,,,,,,,,,,,,sub_462,2024-03-03_11h10.14.875,Reversal,2023.1.3,59.91672773181376,2,
5,exp3.png,exp4.png,,3,0,3,0,0,5,5,5,,,,,,,,,,,,,,,,,,,,,,,,,False,65,66,False,exp3.png,exp4.png,trial_left_image,1,exp3.png,2,exp3.png,exp4.png,1,3,reversed,correct,0.3797580173993307,1,valid_win,413.24151800000027,47,,,,,,,,,,,,,,,sub_462,2024-03-03_11h10.14.875,Reversal,2023.1.3,59.91672773181376,2,
6,exp1.png,exp2.png,,3,0,3,0,0,6,6,6,,,,,,,,,,,,,,,,,,,,,,,,,False,66,67,False,exp1.png,exp2.png,trial_left_image,1,exp1.png,2,exp1.png,exp2.png,1,1,non-reversed,correct,0.8357277518477225,1,valid_win,417.5234177000002,48,,,,,,,,,,,,,,,sub_462,2024-03-03_11h10.14.875,Reversal,2023.1.3,59.91672773181376,2,
7,exp3.png,exp4.png,,3,0,3,0,0,7,7,7,,,,,,,,,,,,,,,,,,,,,,,,,False,67,68,True,exp4.png,exp3.png,trial_right_image,-1,exp3.png,2,exp3.png,exp4.png,1,3,reversed,correct,0.03033907239381506,0,invalid_lose,421.7716985000002,48,,,,,,,,,,,,,,,sub_462,2024-03-03_11h10.14.875,Reversal,2023.1.3,59.91672773181376,2,
8,exp1.png,exp2.png,,3,0,3,0,0,8,8,8,,,,,,,,,,,,,,,,,,,,,,,,,False,68,69,True,exp2.png,exp1.png,trial_right_image,-1,exp1.png,2,exp1.png,exp2.png,1,1,non-reversed,correct,0.27536504131237693,1,valid_win,429.8860743,49,,,,,,,,,,,,,,,sub_462,2024-03-03_11h10.14.875,Reversal,2023.1.3,59.91672773181376,2,
9,exp3.png,exp4.png,,3,0,3,0,0,9,9,9,,,,,,,,,,,,,,,,,,,,,,,,,False,69,70,True,exp4.png,exp3.png,trial_right_image,-1,exp3.png,2,exp3.png,exp4.png,1,3,reversed,correct,0.5340817044125084,1,valid_win,436.2168439000002,50,,,,,,,,,,,,,,,sub_462,2024-03-03_11h10.14.875,Reversal,2023.1.3,59.91672773181376,2,
10,exp1.png,exp2.png,,3,0,3,0,0,10,10,10,,,,,,,,,,,,,,,,,,,,,,,,,False,70,71,True,exp2.png,exp1.png,trial_right_image,-1,exp1.png,2,exp1.png,exp2.png,1,1,non-reversed,correct,0.2944317134286155,1,valid_win,441.2984391,51,,,,,,,,,,,,,,,sub_462,2024-03-03_11h10.14.875,Reversal,2023.1.3,59.91672773181376,2,
11,exp3.png,exp4.png,,3,0,3,0,0,11,11,11,,,,,,,,,,,,,,,,,,,,,,,,,False,71,72,False,exp3.png,exp4.png,trial_left_image,1,exp3.png,2,exp3.png,exp4.png,1,3,reversed,correct,0.5679677045839144,1,valid_win,447.54740230000016,52,,,,,,,,,,,,,,,sub_462,2024-03-03_11h10.14.875,Reversal,2023.1.3,59.91672773181376,2,
12,exp1.png,exp2.png,,3,0,3,0,0,12,12,12,,,,,,,,,,,,,,,,,,,,,,,,,False,72,73,False,exp1.png,exp2.png,trial_left_image,1,exp1.png,2,exp1.png,exp2.png,1,1,non-reversed,correct,0.7138101406464986,1,valid_win,452.04603110000016,53,,,,,,,,,,,,,,,sub_462,2024-03-03_11h10.14.875,Reversal,2023.1.3,59.91672773181376,2,
13,exp3.png,exp4.png,,3,0,3,0,0,13,13,13,,,,,,,,,,,,,,,,,,,,,,,,,False,73,74,False,exp3.png,exp4.png,trial_left_image,1,exp3.png,2,exp3.png,exp4.png,1,3,reversed,correct,0.7496407135491908,1,valid_win,458.00955250000015,54,,,,,,,,,,,,,,,sub_462,2024-03-03_11h10.14.875,Reversal,2023.1.3,59.91672773181376,2,
14,exp1.png,exp2.png,,3,0,3,0,0,14,14,14,,,,,,,,,,,,,,,,,,,,,,,,,False,74,75,False,exp1.png,exp2.png,trial_left_image,1,exp1.png,2,exp1.png,exp2.png,1,1,non-reversed,correct,0.7873837037237752,1,valid_win,462.3414723000001,55,,,,,,,,,,,,,,,sub_462,2024-03-03_11h10.14.875,Reversal,2023.1.3,59.91672773181376,2,
15,exp3.png,exp4.png,,3,0,3,0,0,15,15,15,,,,,,,,,,,,,,,,,,,,,,,,,False,75,76,True,exp4.png,exp3.png,trial_right_image,-1,exp3.png,2,exp3.png,exp4.png,1,3,reversed,correct,0.6389842140419729,1,valid_win,467.63996270000007,56,,,,,,,,,,,,,,,sub_462,2024-03-03_11h10.14.875,Reversal,2023.1.3,59.91672773181376,2,
16,exp1.png,exp2.png,,3,0,3,0,0,16,16,16,,,,,,,,,,,,,,,,,,,,,,,,,False,76,77,False,exp1.png,exp2.png,trial_left_image,1,exp1.png,2,exp1.png,exp2.png,1,1,non-reversed,correct,0.09112411544018739,0,invalid_lose,472.6387302000003,56,,,,,,,,,,,,,,,sub_462,2024-03-03_11h10.14.875,Reversal,2023.1.3,59.91672773181376,2,
17,exp3.png,exp4.png,,3,0,3,0,0,17,17,17,,,,,,,,,,,,,,,,,,,,,,,,,False,77,78,True,exp4.png,exp3.png,trial_right_image,-1,exp3.png,2,exp3.png,exp4.png,1,3,reversed,correct,0.5245454406865265,1,valid_win,478.0202174000001,57,,,,,,,,,,,,,,,sub_462,2024-03-03_11h10.14.875,Reversal,2023.1.3,59.91672773181376,2,
18,exp1.png,exp2.png,,3,0,3,0,0,18,18,18,,,,,,,,,,,,,,,,,,,,,,,,,False,78,79,False,exp1.png,exp2.png,trial_left_image,1,exp1.png,2,exp1.png,exp2.png,1,1,non-reversed,correct,0.5412460927452972,1,valid_win,484.4184454000001,58,,,,,,,,,,,,,,,sub_462,2024-03-03_11h10.14.875,Reversal,2023.1.3,59.91672773181376,2,
19,exp3.png,exp4.png,,3,0,3,0,0,19,19,19,,,,,,,,,,,,,,,,,,,,,,,,,False,79,80,True,exp4.png,exp3.png,trial_right_image,-1,exp3.png,2,exp3.png,exp4.png,1,3,reversed,correct,0.26824277217392567,1,valid_win,490.0830016,59,,,,,,,,,,,,,,,sub_462,2024-03-03_11h10.14.875,Reversal,2023.1.3,59.91672773181376,2,
20,exp1.png,exp2.png,,3,0,3,0,0,20,20,20,,,,,,,,,,,,,,,,,,,,,,,,,True,,,,,,,,,,,,,,,,,,,,,,,,,,,,,,,,,,,sub_462,2024-03-03_11h10.14.875,Reversal,2023.1.3,59.91672773181376,2,
,,,exp1.png,3,0,3,0,,,,,0,0,0,0,0,0,0,0,,,,,,,,,,,,,,,,,,,,,,,,,,,,,,,,,,,,,,700.8683686999998,100.0,100.0,2.171123600000101,"[(100.0, 2.171123600000101)]",,,,,,,,,,sub_462,2024-03-03_11h10.14.875,Reversal,2023.1.3,59.91672773181376,2,
,,,exp2.png,3,0,3,0,,,,,0,0,0,0,0,1,1,1,,,,,,,,,,,,,,,,,,,,,,,,,,,,,,,,,,,,,,703.9882241,,None,None,[],,,,,,,,,,sub_462,2024-03-03_11h10.14.875,Reversal,2023.1.3,59.91672773181376,2,
,,,exp3.png,3,0,3,0,,,,,0,0,0,0,0,2,2,2,,,,,,,,,,,,,,,,,,,,,,,,,,,,,,,,,,,,,,708.1042560000001,,None,None,[],,,,,,,,,,sub_462,2024-03-03_11h10.14.875,Reversal,2023.1.3,59.91672773181376,2,
,,,exp4.png,3,0,3,0,,,,,0,0,0,0,0,3,3,3,,,,,,,,,,,,,,,,,,,,,,,,,,,,,,,,,,,,,,711.7523323,,4.0,2.995180099999743,"[(4.0, 2.995180099999743)]",,,4.0,,,,,,,sub_462,2024-03-03_11h10.14.875,Reversal,2023.1.3,59.91672773181376,2,
0,exp1.png,exp2.png,,,,,,,,,,,,,,,,,,0,0,0,0,0,0,0,0,,,,,,,,,False,0,81,False,exp1.png,exp2.png,trial_left_image,1,exp1.png,2,exp1.png,exp2.png,1,1,non-reversed,correct,0.35040078938901953,1,valid_win,510.5251613999999,60,,,,,,,,,507.55437660000007,,,,,,sub_462,2024-03-03_11h10.14.875,Reversal,2023.1.3,59.91672773181376,2,
1,exp3.png,exp4.png,,,,,,,,,,,,,,,,,,0,0,0,0,0,1,1,1,,,,,,,,,False,1,82,False,exp3.png,exp4.png,trial_left_image,1,exp3.png,2,exp4.png,exp3.png,1,3,reversed,incorrect,0.4235358662238312,0,valid_lose,515.8899726,60,,,,,,,,,,,,,,,sub_462,2024-03-03_11h10.14.875,Reversal,2023.1.3,59.91672773181376,2,
2,exp1.png,exp2.png,,,,,,,,,,,,,,,,,,0,0,0,0,0,2,2,2,,,,,,,,,False,2,83,False,exp1.png,exp2.png,trial_left_image,1,exp1.png,2,exp1.png,exp2.png,1,1,non-reversed,correct,0.9474838391865562,1,valid_win,523.1043491,61,,,,,,,,,,,,,,,sub_462,2024-03-03_11h10.14.875,Reversal,2023.1.3,59.91672773181376,2,
3,exp3.png,exp4.png,,,,,,,,,,,,,,,,,,0,0,0,0,0,3,3,3,,,,,,,,,False,3,84,True,exp4.png,exp3.png,trial_left_image,1,exp4.png,2,exp4.png,exp3.png,0,4,reversed,correct,0.15418910888583992,0,invalid_lose,529.0705244999999,61,,,,,,,,,,,,,,,sub_462,2024-03-03_11h10.14.875,Reversal,2023.1.3,59.91672773181376,2,
4,exp1.png,exp2.png,,,,,,,,,,,,,,,,,,0,0,0,0,0,4,4,4,,,,,,,,,False,4,85,True,exp2.png,exp1.png,trial_right_image,-1,exp1.png,2,exp1.png,exp2.png,1,1,non-reversed,correct,0.07780414201485897,0,invalid_lose,534.2512921000002,61,,,,,,,,,,,,,,,sub_462,2024-03-03_11h10.14.875,Reversal,2023.1.3,59.91672773181376,2,
5,exp3.png,exp4.png,,,,,,,,,,,,,,,,,,0,0,0,0,0,5,5,5,,,,,,,,,False,5,86,False,exp3.png,exp4.png,trial_left_image,1,exp3.png,2,exp4.png,exp3.png,1,3,reversed,incorrect,0.7635566209619837,0,valid_lose,542.3149381000003,61,,,,,,,,,,,,,,,sub_462,2024-03-03_11h10.14.875,Reversal,2023.1.3,59.91672773181376,2,
6,exp1.png,exp2.png,,,,,,,,,,,,,,,,,,0,0,0,0,0,6,6,6,,,,,,,,,False,6,87,False,exp1.png,exp2.png,trial_left_image,1,exp1.png,2,exp1.png,exp2.png,1,1,non-reversed,correct,0.4178050420213596,1,valid_win,548.0297743000001,62,,,,,,,,,,,,,,,sub_462,2024-03-03_11h10.14.875,Reversal,2023.1.3,59.91672773181376,2,
7,exp3.png,exp4.png,,,,,,,,,,,,,,,,,,0,0,0,0,0,7,7,7,,,,,,,,,False,7,88,True,exp4.png,exp3.png,trial_left_image,1,exp4.png,2,exp4.png,exp3.png,0,4,reversed,correct,0.6714592512593024,1,valid_win,553.1456301000003,63,,,,,,,,,,,,,,,sub_462,2024-03-03_11h10.14.875,Reversal,2023.1.3,59.91672773181376,2,
8,exp1.png,exp2.png,,,,,,,,,,,,,,,,,,0,0,0,0,0,8,8,8,,,,,,,,,False,8,89,True,exp2.png,exp1.png,trial_right_image,-1,exp1.png,2,exp1.png,exp2.png,1,1,non-reversed,correct,0.09455547104749717,0,invalid_lose,557.9433125,63,,,,,,,,,,,,,,,sub_462,2024-03-03_11h10.14.875,Reversal,2023.1.3,59.91672773181376,2,
9,exp3.png,exp4.png,,,,,,,,,,,,,,,,,,0,0,0,0,0,9,9,9,,,,,,,,,False,9,90,True,exp4.png,exp3.png,trial_left_image,1,exp4.png,2,exp4.png,exp3.png,0,4,reversed,correct,0.5515074887900322,1,valid_win,562.6256304000003,64,,,,,,,,,,,,,,,sub_462,2024-03-03_11h10.14.875,Reversal,2023.1.3,59.91672773181376,2,
10,exp1.png,exp2.png,,,,,,,,,,,,,,,,,,0,0,0,0,0,10,10,10,,,,,,,,,False,10,91,False,exp1.png,exp2.png,trial_right_image,-1,exp2.png,2,exp1.png,exp2.png,0,2,non-reversed,incorrect,0.26998301278374626,0,valid_lose,566.8895771000002,64,,,,,,,,,,,,,,,sub_462,2024-03-03_11h10.14.875,Reversal,2023.1.3,59.91672773181376,2,
11,exp3.png,exp4.png,,,,,,,,,,,,,,,,,,0,0,0,0,0,11,11,11,,,,,,,,,False,11,92,False,exp3.png,exp4.png,trial_right_image,-1,exp4.png,2,exp4.png,exp3.png,0,4,reversed,correct,0.14170494993470018,0,invalid_lose,571.7213257000003,64,,,,,,,,,,,,,,,sub_462,2024-03-03_11h10.14.875,Reversal,2023.1.3,59.91672773181376,2,
12,exp1.png,exp2.png,,,,,,,,,,,,,,,,,,0,0,0,0,0,12,12,12,,,,,,,,,False,12,93,True,exp2.png,exp1.png,trial_right_image,-1,exp1.png,2,exp1.png,exp2.png,1,1,non-reversed,correct,0.5301739534913537,1,valid_win,576.5862155,65,,,,,,,,,,,,,,,sub_462,2024-03-03_11h10.14.875,Reversal,2023.1.3,59.91672773181376,2,
13,exp3.png,exp4.png,,,,,,,,,,,,,,,,,,0,0,0,0,0,13,13,13,,,,,,,,,False,13,94,False,exp3.png,exp4.png,trial_left_image,1,exp3.png,2,exp4.png,exp3.png,1,3,reversed,incorrect,0.5951434476728601,0,valid_lose,588.8825166000001,65,,,,,,,,,,,,,,,sub_462,2024-03-03_11h10.14.875,Reversal,2023.1.3,59.91672773181376,2,
14,exp1.png,exp2.png,,,,,,,,,,,,,,,,,,0,0,0,0,0,14,14,14,,,,,,,,,False,14,95,True,exp2.png,exp1.png,trial_right_image,-1,exp1.png,2,exp1.png,exp2.png,1,1,non-reversed,correct,0.1448739014063588,0,invalid_lose,595.2966321999997,65,,,,,,,,,,,,,,,sub_462,2024-03-03_11h10.14.875,Reversal,2023.1.3,59.91672773181376,2,
15,exp3.png,exp4.png,,,,,,,,,,,,,,,,,,0,0,0,0,0,15,15,15,,,,,,,,,False,15,96,False,exp3.png,exp4.png,trial_left_image,1,exp3.png,2,exp4.png,exp3.png,1,3,reversed,incorrect,0.5500239553207765,0,valid_lose,603.6438596000003,65,,,,,,,,,,,,,,,sub_462,2024-03-03_11h10.14.875,Reversal,2023.1.3,59.91672773181376,2,
16,exp1.png,exp2.png,,,,,,,,,,,,,,,,,,0,0,0,0,0,16,16,16,,,,,,,,,False,16,97,False,exp1.png,exp2.png,trial_left_image,1,exp1.png,2,exp1.png,exp2.png,1,1,non-reversed,correct,0.25989474049822014,1,valid_win,609.9915372,66,,,,,,,,,,,,,,,sub_462,2024-03-03_11h10.14.875,Reversal,2023.1.3,59.91672773181376,2,
17,exp3.png,exp4.png,,,,,,,,,,,,,,,,,,0,0,0,0,0,17,17,17,,,,,,,,,False,17,98,True,exp4.png,exp3.png,trial_left_image,1,exp4.png,2,exp4.png,exp3.png,0,4,reversed,correct,0.2219184531345788,0,invalid_lose,619.2052158000001,66,,,,,,,,,,,,,,,sub_462,2024-03-03_11h10.14.875,Reversal,2023.1.3,59.91672773181376,2,
18,exp1.png,exp2.png,,,,,,,,,,,,,,,,,,0,0,0,0,0,18,18,18,,,,,,,,,False,18,99,True,exp2.png,exp1.png,trial_right_image,-1,exp1.png,2,exp1.png,exp2.png,1,1,non-reversed,correct,0.4460165457343066,1,valid_win,624.0035928000002,67,,,,,,,,,,,,,,,sub_462,2024-03-03_11h10.14.875,Reversal,2023.1.3,59.91672773181376,2,
19,exp3.png,exp4.png,,,,,,,,,,,,,,,,,,0,0,0,0,0,19,19,19,,,,,,,,,False,19,100,True,exp4.png,exp3.png,trial_right_image,-1,exp3.png,2,exp4.png,exp3.png,1,3,reversed,incorrect,0.9399691724720065,0,valid_lose,628.6519601000005,67,,,,,,,,,,,,,,,sub_462,2024-03-03_11h10.14.875,Reversal,2023.1.3,59.91672773181376,2,
20,exp1.png,exp2.png,,,,,,,,,,,,,,,,,,0,0,0,0,0,20,20,20,,,,,,,,,True,,,,,,,,,,,,,,,,,,,,,,,,,,,,,,,,,,,sub_462,2024-03-03_11h10.14.875,Reversal,2023.1.3,59.91672773181376,2,
,,,exp1.png,,,,,,,,,,,,,,,,,0,0,0,0,,,,,0,0,0,0,0,0,0,0,,,,,,,,,,,,,,,,,,,,,,839.4582935999997,100.0,100.0,3.0169528999995237,"[(100.0, 3.0169528999995237)]",,,,,,,,,,sub_462,2024-03-03_11h10.14.875,Reversal,2023.1.3,59.91672773181376,2,
,,,exp2.png,,,,,,,,,,,,,,,,,0,0,0,0,,,,,0,0,0,0,0,1,1,1,,,,,,,,,,,,,,,,,,,,,,843.4074569000004,,None,None,[],,,,,,,,,,sub_462,2024-03-03_11h10.14.875,Reversal,2023.1.3,59.91672773181376,2,
,,,exp3.png,,,,,,,,,,,,,,,,,0,0,0,0,,,,,0,0,0,0,0,2,2,2,,,,,,,,,,,,,,,,,,,,,,846.9741701000003,,None,None,[],,,,,,,,,,sub_462,2024-03-03_11h10.14.875,Reversal,2023.1.3,59.91672773181376,2,
,,,exp4.png,,,,,,,,,,,,,,,,,0,0,0,0,,,,,0,0,0,0,0,3,3,3,,,,,,,,,,,,,,,,,,,,,,848.809193,,None,None,[],,,,,,,,,,sub_462,2024-03-03_11h10.14.875,Reversal,2023.1.3,59.91672773181376,2,
0,exp1.png,exp2.png,,,,,,,,,,,,,,,,,,1,0,1,0,0,0,0,0,,,,,,,,,False,20,101,True,exp2.png,exp1.png,trial_right_image,-1,exp1.png,2,exp1.png,exp2.png,1,1,non-reversed,correct,0.12160964029477905,0,invalid_lose,647.1800801000004,67,,,,,,,,,,,,,,,sub_462,2024-03-03_11h10.14.875,Reversal,2023.1.3,59.91672773181376,2,
1,exp3.png,exp4.png,,,,,,,,,,,,,,,,,,1,0,1,0,0,1,1,1,,,,,,,,,False,21,102,False,exp3.png,exp4.png,trial_right_image,-1,exp4.png,2,exp4.png,exp3.png,0,4,reversed,correct,0.5388174626120757,1,valid_win,652.7937253000005,68,,,,,,,,,,,,,,,sub_462,2024-03-03_11h10.14.875,Reversal,2023.1.3,59.91672773181376,2,
2,exp1.png,exp2.png,,,,,,,,,,,,,,,,,,1,0,1,0,0,2,2,2,,,,,,,,,False,22,103,False,exp1.png,exp2.png,trial_left_image,1,exp1.png,2,exp1.png,exp2.png,1,1,non-reversed,correct,0.944389023987159,1,valid_win,658.3085203000005,69,,,,,,,,,,,,,,,sub_462,2024-03-03_11h10.14.875,Reversal,2023.1.3,59.91672773181376,2,
3,exp3.png,exp4.png,,,,,,,,,,,,,,,,,,1,0,1,0,0,3,3,3,,,,,,,,,False,23,104,False,exp3.png,exp4.png,trial_right_image,-1,exp4.png,2,exp4.png,exp3.png,0,4,reversed,correct,0.2413371400859674,0,invalid_lose,663.5901512000005,69,,,,,,,,,,,,,,,sub_462,2024-03-03_11h10.14.875,Reversal,2023.1.3,59.91672773181376,2,
4,exp1.png,exp2.png,,,,,,,,,,,,,,,,,,1,0,1,0,0,4,4,4,,,,,,,,,False,24,105,True,exp2.png,exp1.png,trial_right_image,-1,exp1.png,2,exp1.png,exp2.png,1,1,non-reversed,correct,0.1553796245661736,0,invalid_lose,669.4716081000001,69,,,,,,,,,,,,,,,sub_462,2024-03-03_11h10.14.875,Reversal,2023.1.3,59.91672773181376,2,
5,exp3.png,exp4.png,,,,,,,,,,,,,,,,,,1,0,1,0,0,5,5,5,,,,,,,,,False,25,106,False,exp3.png,exp4.png,trial_left_image,1,exp3.png,2,exp4.png,exp3.png,1,3,reversed,incorrect,0.9061042341658228,0,valid_lose,676.0370556000003,69,,,,,,,,,,,,,,,sub_462,2024-03-03_11h10.14.875,Reversal,2023.1.3,59.91672773181376,2,
6,exp1.png,exp2.png,,,,,,,,,,,,,,,,,,1,0,1,0,0,6,6,6,,,,,,,,,False,26,107,True,exp2.png,exp1.png,trial_right_image,-1,exp1.png,2,exp1.png,exp2.png,1,1,non-reversed,correct,0.9213602843572971,1,valid_win,680.9342535999999,70,,,,,,,,,,,,,,,sub_462,2024-03-03_11h10.14.875,Reversal,2023.1.3,59.91672773181376,2,
7,exp3.png,exp4.png,,,,,,,,,,,,,,,,,,1,0,1,0,0,7,7,7,,,,,,,,,False,27,108,True,exp4.png,exp3.png,trial_right_image,-1,exp3.png,2,exp4.png,exp3.png,1,3,reversed,incorrect,0.31887894419582297,0,valid_lose,691.6644302,70,,,,,,,,,,,,,,,sub_462,2024-03-03_11h10.14.875,Reversal,2023.1.3,59.91672773181376,2,
8,exp1.png,exp2.png,,,,,,,,,,,,,,,,,,1,0,1,0,0,8,8,8,,,,,,,,,False,28,109,False,exp1.png,exp2.png,trial_left_image,1,exp1.png,2,exp1.png,exp2.png,1,1,non-reversed,correct,0.3757556797551158,1,valid_win,697.0300683,71,,,,,,,,,,,,,,,sub_462,2024-03-03_11h10.14.875,Reversal,2023.1.3,59.91672773181376,2,
9,exp3.png,exp4.png,,,,,,,,,,,,,,,,,,1,0,1,0,0,9,9,9,,,,,,,,,False,29,110,True,exp4.png,exp3.png,trial_left_image,1,exp4.png,2,exp4.png,exp3.png,0,4,reversed,correct,0.2952991066321533,1,valid_win,702.8603860999997,72,,,,,,,,,,,,,,,sub_462,2024-03-03_11h10.14.875,Reversal,2023.1.3,59.91672773181376,2,
10,exp1.png,exp2.png,,,,,,,,,,,,,,,,,,1,0,1,0,0,10,10,10,,,,,,,,,False,30,111,False,exp1.png,exp2.png,trial_left_image,1,exp1.png,2,exp1.png,exp2.png,1,1,non-reversed,correct,0.4651383136925872,1,valid_win,709.6593852000001,73,,,,,,,,,,,,,,,sub_462,2024-03-03_11h10.14.875,Reversal,2023.1.3,59.91672773181376,2,
11,exp3.png,exp4.png,,,,,,,,,,,,,,,,,,1,0,1,0,0,11,11,11,,,,,,,,,False,31,112,True,exp4.png,exp3.png,trial_left_image,1,exp4.png,2,exp4.png,exp3.png,0,4,reversed,correct,0.6888413859604426,1,valid_win,714.9564786000005,74,,,,,,,,,,,,,,,sub_462,2024-03-03_11h10.14.875,Reversal,2023.1.3,59.91672773181376,2,
12,exp1.png,exp2.png,,,,,,,,,,,,,,,,,,1,0,1,0,0,12,12,12,,,,,,,,,False,32,113,True,exp2.png,exp1.png,trial_right_image,-1,exp1.png,2,exp1.png,exp2.png,1,1,non-reversed,correct,0.10449680376195236,0,invalid_lose,720.0382277000003,74,,,,,,,,,,,,,,,sub_462,2024-03-03_11h10.14.875,Reversal,2023.1.3,59.91672773181376,2,
13,exp3.png,exp4.png,,,,,,,,,,,,,,,,,,1,0,1,0,0,13,13,13,,,,,,,,,False,33,114,True,exp4.png,exp3.png,trial_left_image,1,exp4.png,2,exp4.png,exp3.png,0,4,reversed,correct,0.7412559359813592,1,valid_win,727.4858418999997,75,,,,,,,,,,,,,,,sub_462,2024-03-03_11h10.14.875,Reversal,2023.1.3,59.91672773181376,2,
14,exp1.png,exp2.png,,,,,,,,,,,,,,,,,,1,0,1,0,0,14,14,14,,,,,,,,,False,34,115,False,exp1.png,exp2.png,trial_left_image,1,exp1.png,2,exp1.png,exp2.png,1,1,non-reversed,correct,0.28336968582973243,1,valid_win,733.7501112000004,76,,,,,,,,,,,,,,,sub_462,2024-03-03_11h10.14.875,Reversal,2023.1.3,59.91672773181376,2,
15,exp3.png,exp4.png,,,,,,,,,,,,,,,,,,1,0,1,0,0,15,15,15,,,,,,,,,False,35,116,False,exp3.png,exp4.png,trial_right_image,-1,exp4.png,2,exp4.png,exp3.png,0,4,reversed,correct,0.10024200469520328,0,invalid_lose,742.2812311000002,76,,,,,,,,,,,,,,,sub_462,2024-03-03_11h10.14.875,Reversal,2023.1.3,59.91672773181376,2,
16,exp1.png,exp2.png,,,,,,,,,,,,,,,,,,1,0,1,0,0,16,16,16,,,,,,,,,False,36,117,True,exp2.png,exp1.png,trial_right_image,-1,exp1.png,2,exp1.png,exp2.png,1,1,non-reversed,correct,0.8605469379606978,1,valid_win,747.1463066000001,77,,,,,,,,,,,,,,,sub_462,2024-03-03_11h10.14.875,Reversal,2023.1.3,59.91672773181376,2,
17,exp3.png,exp4.png,,,,,,,,,,,,,,,,,,1,0,1,0,0,17,17,17,,,,,,,,,False,37,118,False,exp3.png,exp4.png,trial_left_image,1,exp3.png,2,exp4.png,exp3.png,1,3,reversed,incorrect,0.4543360072752366,0,valid_lose,754.4093065000002,77,,,,,,,,,,,,,,,sub_462,2024-03-03_11h10.14.875,Reversal,2023.1.3,59.91672773181376,2,
18,exp1.png,exp2.png,,,,,,,,,,,,,,,,,,1,0,1,0,0,18,18,18,,,,,,,,,False,38,119,False,exp1.png,exp2.png,trial_left_image,1,exp1.png,2,exp1.png,exp2.png,1,1,non-reversed,correct,0.26650106957269504,1,valid_win,759.4746661000004,78,,,,,,,,,,,,,,,sub_462,2024-03-03_11h10.14.875,Reversal,2023.1.3,59.91672773181376,2,
19,exp3.png,exp4.png,,,,,,,,,,,,,,,,,,1,0,1,0,0,19,19,19,,,,,,,,,False,39,120,True,exp4.png,exp3.png,trial_right_image,-1,exp3.png,2,exp4.png,exp3.png,1,3,reversed,incorrect,0.7882395586554534,0,valid_lose,766.7060011999997,78,,,,,,,,,,,,,,,sub_462,2024-03-03_11h10.14.875,Reversal,2023.1.3,59.91672773181376,2,
20,exp1.png,exp2.png,,,,,,,,,,,,,,,,,,1,0,1,0,0,20,20,20,,,,,,,,,True,,,,,,,,,,,,,,,,,,,,,,,,,,,,,,,,,,,sub_462,2024-03-03_11h10.14.875,Reversal,2023.1.3,59.91672773181376,2,
,,,exp1.png,,,,,,,,,,,,,,,,,1,0,1,0,,,,,0,0,0,0,0,0,0,0,,,,,,,,,,,,,,,,,,,,,,977.4989957999996,100.0,100.0,2.860835199999201,"[(100.0, 2.860835199999201)]",,,,,,,,,,sub_462,2024-03-03_11h10.14.875,Reversal,2023.1.3,59.91672773181376,2,
,,,exp2.png,,,,,,,,,,,,,,,,,1,0,1,0,,,,,0,0,0,0,0,1,1,1,,,,,,,,,,,,,,,,,,,,,,981.2451241999997,,None,None,[],,,,,,,,,,sub_462,2024-03-03_11h10.14.875,Reversal,2023.1.3,59.91672773181376,2,
,,,exp3.png,,,,,,,,,,,,,,,,,1,0,1,0,,,,,0,0,0,0,0,2,2,2,,,,,,,,,,,,,,,,,,,,,,982.6610940999999,,None,None,[],,,,,,,,,,sub_462,2024-03-03_11h10.14.875,Reversal,2023.1.3,59.91672773181376,2,
,,,exp4.png,,,,,,,,,,,,,,,,,1,0,1,0,,,,,0,0,0,0,0,3,3,3,,,,,,,,,,,,,,,,,,,,,,984.1437059999998,,None,None,[],,,,,,,,,,sub_462,2024-03-03_11h10.14.875,Reversal,2023.1.3,59.91672773181376,2,
0,exp1.png,exp2.png,,,,,,,,,,,,,,,,,,2,0,2,0,0,0,0,0,,,,,,,,,False,40,121,True,exp2.png,exp1.png,trial_right_image,-1,exp1.png,2,exp1.png,exp2.png,1,1,non-reversed,correct,0.9348009849462116,1,valid_win,780.8671448,79,,,,,,,,,,,,,,,sub_462,2024-03-03_11h10.14.875,Reversal,2023.1.3,59.91672773181376,2,
1,exp3.png,exp4.png,,,,,,,,,,,,,,,,,,2,0,2,0,0,1,1,1,,,,,,,,,False,41,122,False,exp3.png,exp4.png,trial_left_image,1,exp3.png,2,exp4.png,exp3.png,1,3,reversed,incorrect,0.5179348434636386,0,valid_lose,795.7295285000005,79,,,,,,,,,,,,,,,sub_462,2024-03-03_11h10.14.875,Reversal,2023.1.3,59.91672773181376,2,
2,exp1.png,exp2.png,,,,,,,,,,,,,,,,,,2,0,2,0,0,2,2,2,,,,,,,,,False,42,123,False,exp1.png,exp2.png,trial_left_image,1,exp1.png,2,exp1.png,exp2.png,1,1,non-reversed,correct,0.41464409301437977,1,valid_win,803.0598802999998,80,,,,,,,,,,,,,,,sub_462,2024-03-03_11h10.14.875,Reversal,2023.1.3,59.91672773181376,2,
3,exp3.png,exp4.png,,,,,,,,,,,,,,,,,,2,0,2,0,0,3,3,3,,,,,,,,,False,43,124,False,exp3.png,exp4.png,trial_right_image,-1,exp4.png,2,exp4.png,exp3.png,0,4,reversed,correct,0.16716062965085488,0,invalid_lose,808.5085192000001,80,,,,,,,,,,,,,,,sub_462,2024-03-03_11h10.14.875,Reversal,2023.1.3,59.91672773181376,2,
4,exp1.png,exp2.png,,,,,,,,,,,,,,,,,,2,0,2,0,0,4,4,4,,,,,,,,,False,44,125,False,exp1.png,exp2.png,trial_left_image,1,exp1.png,2,exp1.png,exp2.png,1,1,non-reversed,correct,0.6419504282922951,1,valid_win,814.1566512000004,81,,,,,,,,,,,,,,,sub_462,2024-03-03_11h10.14.875,Reversal,2023.1.3,59.91672773181376,2,
5,exp3.png,exp4.png,,,,,,,,,,,,,,,,,,2,0,2,0,0,5,5,5,,,,,,,,,False,45,126,True,exp4.png,exp3.png,trial_left_image,1,exp4.png,2,exp4.png,exp3.png,0,4,reversed,correct,0.8479196262864327,1,valid_win,819.5049050000002,82,,,,,,,,,,,,,,,sub_462,2024-03-03_11h10.14.875,Reversal,2023.1.3,59.91672773181376,2,
6,exp1.png,exp2.png,,,,,,,,,,,,,,,,,,2,0,2,0,0,6,6,6,,,,,,,,,False,46,127,True,exp2.png,exp1.png,trial_left_image,1,exp2.png,2,exp1.png,exp2.png,0,2,non-reversed,incorrect,0.94539593255949,0,valid_lose,823.8032477000002,82,,,,,,,,,,,,,,,sub_462,2024-03-03_11h10.14.875,Reversal,2023.1.3,59.91672773181376,2,
7,exp3.png,exp4.png,,,,,,,,,,,,,,,,,,2,0,2,0,0,7,7,7,,,,,,,,,False,47,128,True,exp4.png,exp3.png,trial_left_image,1,exp4.png,2,exp4.png,exp3.png,0,4,reversed,correct,0.6288101268473634,1,valid_win,831.6671167999998,83,,,,,,,,,,,,,,,sub_462,2024-03-03_11h10.14.875,Reversal,2023.1.3,59.91672773181376,2,
8,exp1.png,exp2.png,,,,,,,,,,,,,,,,,,2,0,2,0,0,8,8,8,,,,,,,,,False,48,129,True,exp2.png,exp1.png,trial_right_image,-1,exp1.png,2,exp1.png,exp2.png,1,1,non-reversed,correct,0.7954176777238569,1,valid_win,840.1142734,84,,,,,,,,,,,,,,,sub_462,2024-03-03_11h10.14.875,Reversal,2023.1.3,59.91672773181376,2,
9,exp3.png,exp4.png,,,,,,,,,,,,,,,,,,2,0,2,0,0,9,9,9,,,,,,,,,False,49,130,True,exp4.png,exp3.png,trial_left_image,1,exp4.png,2,exp4.png,exp3.png,0,4,reversed,correct,0.5352028555522129,1,valid_win,845.1455203,85,,,,,,,,,,,,,,,sub_462,2024-03-03_11h10.14.875,Reversal,2023.1.3,59.91672773181376,2,
10,exp1.png,exp2.png,,,,,,,,,,,,,,,,,,2,0,2,0,0,10,10,10,,,,,,,,,False,50,131,False,exp1.png,exp2.png,trial_left_image,1,exp1.png,2,exp1.png,exp2.png,1,1,non-reversed,correct,0.7441581382712854,1,valid_win,850.0278490000005,86,,,,,,,,,,,,,,,sub_462,2024-03-03_11h10.14.875,Reversal,2023.1.3,59.91672773181376,2,
11,exp3.png,exp4.png,,,,,,,,,,,,,,,,,,2,0,2,0,0,11,11,11,,,,,,,,,False,51,132,False,exp3.png,exp4.png,trial_right_image,-1,exp4.png,2,exp4.png,exp3.png,0,4,reversed,correct,0.3042054315546968,1,valid_win,855.4922785000003,87,,,,,,,,,,,,,,,sub_462,2024-03-03_11h10.14.875,Reversal,2023.1.3,59.91672773181376,2,
12,exp1.png,exp2.png,,,,,,,,,,,,,,,,,,2,0,2,0,0,12,12,12,,,,,,,,,False,52,133,False,exp1.png,exp2.png,trial_left_image,1,exp1.png,2,exp1.png,exp2.png,1,1,non-reversed,correct,0.14459531405537673,0,invalid_lose,860.3242947000003,87,,,,,,,,,,,,,,,sub_462,2024-03-03_11h10.14.875,Reversal,2023.1.3,59.91672773181376,2,
13,exp3.png,exp4.png,,,,,,,,,,,,,,,,,,2,0,2,0,0,13,13,13,,,,,,,,,False,53,134,False,exp3.png,exp4.png,trial_right_image,-1,exp4.png,2,exp4.png,exp3.png,0,4,reversed,correct,0.4011594385205117,1,valid_win,868.8051915000001,88,,,,,,,,,,,,,,,sub_462,2024-03-03_11h10.14.875,Reversal,2023.1.3,59.91672773181376,2,
14,exp1.png,exp2.png,,,,,,,,,,,,,,,,,,2,0,2,0,0,14,14,14,,,,,,,,,False,54,135,True,exp2.png,exp1.png,trial_right_image,-1,exp1.png,2,exp1.png,exp2.png,1,1,non-reversed,correct,0.5072126153805192,1,valid_win,875.3858476,89,,,,,,,,,,,,,,,sub_462,2024-03-03_11h10.14.875,Reversal,2023.1.3,59.91672773181376,2,
15,exp3.png,exp4.png,,,,,,,,,,,,,,,,,,2,0,2,0,0,15,15,15,,,,,,,,,False,55,136,True,exp4.png,exp3.png,trial_left_image,1,exp4.png,2,exp4.png,exp3.png,0,4,reversed,correct,0.775429569630577,1,valid_win,880.4844722000003,90,,,,,,,,,,,,,,,sub_462,2024-03-03_11h10.14.875,Reversal,2023.1.3,59.91672773181376,2,
16,exp1.png,exp2.png,,,,,,,,,,,,,,,,,,2,0,2,0,0,16,16,16,,,,,,,,,False,56,137,True,exp2.png,exp1.png,trial_right_image,-1,exp1.png,2,exp1.png,exp2.png,1,1,non-reversed,correct,0.02180152171722549,0,invalid_lose,885.5650778000004,90,,,,,,,,,,,,,,,sub_462,2024-03-03_11h10.14.875,Reversal,2023.1.3,59.91672773181376,2,
17,exp3.png,exp4.png,,,,,,,,,,,,,,,,,,2,0,2,0,0,17,17,17,,,,,,,,,False,57,138,False,exp3.png,exp4.png,trial_left_image,1,exp3.png,2,exp4.png,exp3.png,1,3,reversed,incorrect,0.5017841446041058,0,valid_lose,890.6143478999998,90,,,,,,,,,,,,,,,sub_462,2024-03-03_11h10.14.875,Reversal,2023.1.3,59.91672773181376,2,
18,exp1.png,exp2.png,,,,,,,,,,,,,,,,,,2,0,2,0,0,18,18,18,,,,,,,,,False,58,139,False,exp1.png,exp2.png,trial_left_image,1,exp1.png,2,exp1.png,exp2.png,1,1,non-reversed,correct,0.2640002027912852,1,valid_win,896.0460561000004,91,,,,,,,,,,,,,,,sub_462,2024-03-03_11h10.14.875,Reversal,2023.1.3,59.91672773181376,2,
19,exp3.png,exp4.png,,,,,,,,,,,,,,,,,,2,0,2,0,0,19,19,19,,,,,,,,,False,59,140,True,exp4.png,exp3.png,trial_left_image,1,exp4.png,2,exp4.png,exp3.png,0,4,reversed,correct,0.9241600670689554,1,valid_win,903.8090161000005,92,,,,,,,,,,,,,,,sub_462,2024-03-03_11h10.14.875,Reversal,2023.1.3,59.91672773181376,2,
20,exp1.png,exp2.png,,,,,,,,,,,,,,,,,,2,0,2,0,0,20,20,20,,,,,,,,,True,,,,,,,,,,,,,,,,,,,,,,,,,,,,,,,,,,,sub_462,2024-03-03_11h10.14.875,Reversal,2023.1.3,59.91672773181376,2,
,,,exp1.png,,,,,,,,,,,,,,,,,2,0,2,0,,,,,0,0,0,0,0,0,0,0,,,,,,,,,,,,,,,,,,,,,,1114.6116843999998,,None,None,[],,,,,,,,,,sub_462,2024-03-03_11h10.14.875,Reversal,2023.1.3,59.91672773181376,2,
,,,exp2.png,,,,,,,,,,,,,,,,,2,0,2,0,,,,,0,0,0,0,0,1,1,1,,,,,,,,,,,,,,,,,,,,,,1118.9007932000004,,None,None,[],,,,,,,,,,sub_462,2024-03-03_11h10.14.875,Reversal,2023.1.3,59.91672773181376,2,
,,,exp3.png,,,,,,,,,,,,,,,,,2,0,2,0,,,,,0,0,0,0,0,2,2,2,,,,,,,,,,,,,,,,,,,,,,1122.4477068999995,,None,None,[],,,,,,,,,,sub_462,2024-03-03_11h10.14.875,Reversal,2023.1.3,59.91672773181376,2,
,,,exp4.png,,,,,,,,,,,,,,,,,2,0,2,0,,,,,0,0,0,0,0,3,3,3,,,,,,,,,,,,,,,,,,,,,,1125.5165897999996,,100.0,2.408823400000074,"[(100.0, 2.408823400000074)]",,,100.0,,,,,,,sub_462,2024-03-03_11h10.14.875,Reversal,2023.1.3,59.91672773181376,2,
,,,,,,,,,,,,,,,,,,,,,,,,,,,,,,,,,,,,,,,,,,,,,,,,,,,,,,,,92,,,,,,,,,,117,70,47,413.2333782999999,1,,,,,,,
