trial_index,trial_image1_file,trial_image2_file,image_file,learning_outer_loop.thisRepN,learning_outer_loop.thisTrialN,learning_outer_loop.thisN,learning_outer_loop.thisIndex,learning_inner_loop.thisRepN,learning_inner_loop.thisTrialN,learning_inner_loop.thisN,learning_inner_loop.thisIndex,learning_estimation_outer_loop.thisRepN,learning_estimation_outer_loop.thisTrialN,learning_estimation_outer_loop.thisN,learning_estimation_outer_loop.thisIndex,learning_estimation_inner_loop.thisRepN,learning_estimation_inner_loop.thisTrialN,learning_estimation_inner_loop.thisN,learning_estimation_inner_loop.thisIndex,reversal_outer_loop.thisRepN,reversal_outer_loop.thisTrialN,reversal_outer_loop.thisN,reversal_outer_loop.thisIndex,reversal_inner_loop.thisRepN,reversal_inner_loop.thisTrialN,reversal_inner_loop.thisN,reversal_inner_loop.thisIndex,reversal_estimation_outer_loop.thisRepN,reversal_estimation_outer_loop.thisTrialN,reversal_estimation_outer_loop.thisN,reversal_estimation_outer_loop.thisIndex,reversal_estimation_inner_loop.thisRepN,reversal_estimation_inner_loop.thisTrialN,reversal_estimation_inner_loop.thisN,reversal_estimation_inner_loop.thisIndex,skipped,total_trial_counter,trial_num,left_right_flip,left_image_file,right_image_file,clicked_stimulus_side,side,clicked_stimulus,version,high_prob_image_file,low_prob_image_file,choice_a,choice_b,pair_type,correct,trial_feedback_random,reward,trial_type,overall_time_after_trial,score,estimation_exp1.png,estimation_rating.response,estimation_rating.rt,estimation_rating.history,estimation_rating.started,estimation_rating.stopped,estimation_exp3.png,estimation_exp4.png,estimation_exp2.png,total_learning_time,total_correct,learning_correct,reversal_correct,total_reversal_time,extra_block,participant,date,expName,psychopyVersion,frameRate,ver,
0,exp1.png,exp2.png,,0,0,0,0,0,0,0,0,,,,,,,,,,,,,,,,,,,,,,,,,False,0,1,False,exp1.png,exp2.png,trial_left_image,1,exp1.png,4,exp2.png,exp1.png,0,2,non-reversed,incorrect,0.3988030999542119,0,valid_lose,5.283882800000356,0,,,,,,,,,,,,,,,,sub_880,2025-04-04_10h21.40.933,Reversal,2022.1.2,59.9425869901309,4,
1,exp3.png,exp4.png,,0,0,0,0,0,1,1,1,,,,,,,,,,,,,,,,,,,,,,,,,False,1,2,True,exp4.png,exp3.png,trial_right_image,-1,exp3.png,4,exp4.png,exp3.png,0,4,reversed,incorrect,0.8974301177779332,0,valid_lose,17.34999980000066,0,,,,,,,,,,,,,,,,sub_880,2025-04-04_10h21.40.933,Reversal,2022.1.2,59.9425869901309,4,
2,exp1.png,exp2.png,,0,0,0,0,0,2,2,2,,,,,,,,,,,,,,,,,,,,,,,,,False,2,3,True,exp2.png,exp1.png,trial_left_image,1,exp2.png,4,exp2.png,exp1.png,1,1,non-reversed,correct,0.7001600524107234,1,valid_win,31.399454500000502,1,,,,,,,,,,,,,,,,sub_880,2025-04-04_10h21.40.933,Reversal,2022.1.2,59.9425869901309,4,
3,exp3.png,exp4.png,,0,0,0,0,0,3,3,3,,,,,,,,,,,,,,,,,,,,,,,,,False,3,4,False,exp3.png,exp4.png,trial_right_image,-1,exp4.png,4,exp4.png,exp3.png,1,3,reversed,correct,0.9566228624498165,1,valid_win,37.93268460000036,2,,,,,,,,,,,,,,,,sub_880,2025-04-04_10h21.40.933,Reversal,2022.1.2,59.9425869901309,4,
4,exp1.png,exp2.png,,0,0,0,0,0,4,4,4,,,,,,,,,,,,,,,,,,,,,,,,,False,4,5,True,exp2.png,exp1.png,trial_left_image,1,exp2.png,4,exp2.png,exp1.png,1,1,non-reversed,correct,0.3748997865482616,1,valid_win,43.38292080000065,3,,,,,,,,,,,,,,,,sub_880,2025-04-04_10h21.40.933,Reversal,2022.1.2,59.9425869901309,4,
5,exp3.png,exp4.png,,0,0,0,0,0,5,5,5,,,,,,,,,,,,,,,,,,,,,,,,,False,5,6,True,exp4.png,exp3.png,trial_left_image,1,exp4.png,4,exp4.png,exp3.png,1,3,reversed,correct,0.3152551766128937,1,valid_win,48.56570060000013,4,,,,,,,,,,,,,,,,sub_880,2025-04-04_10h21.40.933,Reversal,2022.1.2,59.9425869901309,4,
6,exp1.png,exp2.png,,0,0,0,0,0,6,6,6,,,,,,,,,,,,,,,,,,,,,,,,,False,6,7,True,exp2.png,exp1.png,trial_left_image,1,exp2.png,4,exp2.png,exp1.png,1,1,non-reversed,correct,0.22554153264897148,0,invalid_lose,53.514933700000256,4,,,,,,,,,,,,,,,,sub_880,2025-04-04_10h21.40.933,Reversal,2022.1.2,59.9425869901309,4,
7,exp3.png,exp4.png,,0,0,0,0,0,7,7,7,,,,,,,,,,,,,,,,,,,,,,,,,False,7,8,True,exp4.png,exp3.png,trial_left_image,1,exp4.png,4,exp4.png,exp3.png,1,3,reversed,correct,0.038210101716313005,0,invalid_lose,63.182496000000356,4,,,,,,,,,,,,,,,,sub_880,2025-04-04_10h21.40.933,Reversal,2022.1.2,59.9425869901309,4,
8,exp1.png,exp2.png,,0,0,0,0,0,8,8,8,,,,,,,,,,,,,,,,,,,,,,,,,False,8,9,False,exp1.png,exp2.png,trial_left_image,1,exp1.png,4,exp2.png,exp1.png,0,2,non-reversed,incorrect,0.4980344017328271,0,valid_lose,73.73211910000009,4,,,,,,,,,,,,,,,,sub_880,2025-04-04_10h21.40.933,Reversal,2022.1.2,59.9425869901309,4,
9,exp3.png,exp4.png,,0,0,0,0,0,9,9,9,,,,,,,,,,,,,,,,,,,,,,,,,False,9,10,False,exp3.png,exp4.png,trial_right_image,-1,exp4.png,4,exp4.png,exp3.png,1,3,reversed,correct,0.29139822844127716,1,valid_win,82.24883769999997,5,,,,,,,,,,,,,,,,sub_880,2025-04-04_10h21.40.933,Reversal,2022.1.2,59.9425869901309,4,
10,exp1.png,exp2.png,,0,0,0,0,0,10,10,10,,,,,,,,,,,,,,,,,,,,,,,,,False,10,11,True,exp2.png,exp1.png,trial_left_image,1,exp2.png,4,exp2.png,exp1.png,1,1,non-reversed,correct,0.7640724171182235,1,valid_win,91.1988564000003,6,,,,,,,,,,,,,,,,sub_880,2025-04-04_10h21.40.933,Reversal,2022.1.2,59.9425869901309,4,
11,exp3.png,exp4.png,,0,0,0,0,0,11,11,11,,,,,,,,,,,,,,,,,,,,,,,,,False,11,12,True,exp4.png,exp3.png,trial_left_image,1,exp4.png,4,exp4.png,exp3.png,1,3,reversed,correct,0.7094917979730475,1,valid_win,102.99816720000035,7,,,,,,,,,,,,,,,,sub_880,2025-04-04_10h21.40.933,Reversal,2022.1.2,59.9425869901309,4,
12,exp1.png,exp2.png,,0,0,0,0,0,12,12,12,,,,,,,,,,,,,,,,,,,,,,,,,False,12,13,False,exp1.png,exp2.png,trial_left_image,1,exp1.png,4,exp2.png,exp1.png,0,2,non-reversed,incorrect,0.831344099674691,0,valid_lose,110.1478786000007,7,,,,,,,,,,,,,,,,sub_880,2025-04-04_10h21.40.933,Reversal,2022.1.2,59.9425869901309,4,
13,exp3.png,exp4.png,,0,0,0,0,0,13,13,13,,,,,,,,,,,,,,,,,,,,,,,,,False,13,14,True,exp4.png,exp3.png,trial_left_image,1,exp4.png,4,exp4.png,exp3.png,1,3,reversed,correct,0.7598409058728537,1,valid_win,117.03120110000054,8,,,,,,,,,,,,,,,,sub_880,2025-04-04_10h21.40.933,Reversal,2022.1.2,59.9425869901309,4,
14,exp1.png,exp2.png,,0,0,0,0,0,14,14,14,,,,,,,,,,,,,,,,,,,,,,,,,False,14,15,False,exp1.png,exp2.png,trial_right_image,-1,exp2.png,4,exp2.png,exp1.png,1,1,non-reversed,correct,0.17151371750990896,0,invalid_lose,128.31434119999994,8,,,,,,,,,,,,,,,,sub_880,2025-04-04_10h21.40.933,Reversal,2022.1.2,59.9425869901309,4,
15,exp3.png,exp4.png,,0,0,0,0,0,15,15,15,,,,,,,,,,,,,,,,,,,,,,,,,False,15,16,False,exp3.png,exp4.png,trial_right_image,-1,exp4.png,4,exp4.png,exp3.png,1,3,reversed,correct,0.5496512787930513,1,valid_win,138.13065490000008,9,,,,,,,,,,,,,,,,sub_880,2025-04-04_10h21.40.933,Reversal,2022.1.2,59.9425869901309,4,
16,exp1.png,exp2.png,,0,0,0,0,0,16,16,16,,,,,,,,,,,,,,,,,,,,,,,,,False,16,17,True,exp2.png,exp1.png,trial_right_image,-1,exp1.png,4,exp2.png,exp1.png,0,2,non-reversed,incorrect,0.7443960521702154,0,valid_lose,143.9975312000006,9,,,,,,,,,,,,,,,,sub_880,2025-04-04_10h21.40.933,Reversal,2022.1.2,59.9425869901309,4,
17,exp3.png,exp4.png,,0,0,0,0,0,17,17,17,,,,,,,,,,,,,,,,,,,,,,,,,False,17,18,False,exp3.png,exp4.png,trial_right_image,-1,exp4.png,4,exp4.png,exp3.png,1,3,reversed,correct,0.2978501693799511,1,valid_win,149.3639520000006,10,,,,,,,,,,,,,,,,sub_880,2025-04-04_10h21.40.933,Reversal,2022.1.2,59.9425869901309,4,
18,exp1.png,exp2.png,,0,0,0,0,0,18,18,18,,,,,,,,,,,,,,,,,,,,,,,,,False,18,19,False,exp1.png,exp2.png,trial_left_image,1,exp1.png,4,exp2.png,exp1.png,0,2,non-reversed,incorrect,0.49753644139635345,0,valid_lose,154.13069460000042,10,,,,,,,,,,,,,,,,sub_880,2025-04-04_10h21.40.933,Reversal,2022.1.2,59.9425869901309,4,
19,exp3.png,exp4.png,,0,0,0,0,0,19,19,19,,,,,,,,,,,,,,,,,,,,,,,,,False,19,20,False,exp3.png,exp4.png,trial_right_image,-1,exp4.png,4,exp4.png,exp3.png,1,3,reversed,correct,0.40190176987481685,1,valid_win,158.94697590000033,11,,,,,,,,,,,,,,,,sub_880,2025-04-04_10h21.40.933,Reversal,2022.1.2,59.9425869901309,4,
20,exp1.png,exp2.png,,0,0,0,0,0,20,20,20,,,,,,,,,,,,,,,,,,,,,,,,,True,,,,,,,,,,,,,,,,,,,,,,,,,,,,,,,,,,,,sub_880,2025-04-04_10h21.40.933,Reversal,2022.1.2,59.9425869901309,4,
,,,exp1.png,0,0,0,0,,,,,0,0,0,0,0,0,0,0,,,,,,,,,,,,,,,,,,,,,,,,,,,,,,,,,,,,,,50.0,50.0,14.781429300000127,"[(50.0, 11.981216000000131), (50.0, 14.781429300000127)]",264.6507044,None,,,,,,,,,,sub_880,2025-04-04_10h21.40.933,Reversal,2022.1.2,59.9425869901309,4,
,,,exp2.png,0,0,0,0,,,,,0,0,0,0,0,1,1,1,,,,,,,,,,,,,,,,,,,,,,,,,,,,,,,,,,,,,,,50.0,None,[],280.84247009999945,None,,,,,,,,,,sub_880,2025-04-04_10h21.40.933,Reversal,2022.1.2,59.9425869901309,4,
,,,exp3.png,0,0,0,0,,,,,0,0,0,0,0,2,2,2,,,,,,,,,,,,,,,,,,,,,,,,,,,,,,,,,,,,,,,11.0,4.682577900000069,"[(1.0, 2.934106800000336), (11.0, 4.682577900000069)]",286.20715199999995,None,11.0,,,,,,,,,sub_880,2025-04-04_10h21.40.933,Reversal,2022.1.2,59.9425869901309,4,
,,,exp4.png,0,0,0,0,,,,,0,0,0,0,0,3,3,3,,,,,,,,,,,,,,,,,,,,,,,,,,,,,,,,,,,,,,,91.0,3.049531399999978,"[(91.0, 3.049531399999978)]",293.5870384,None,,91.0,,,,,,,,sub_880,2025-04-04_10h21.40.933,Reversal,2022.1.2,59.9425869901309,4,
0,exp1.png,exp2.png,,1,0,1,0,0,0,0,0,,,,,,,,,,,,,,,,,,,,,,,,,False,20,21,False,exp1.png,exp2.png,trial_right_image,-1,exp2.png,4,exp2.png,exp1.png,1,1,non-reversed,correct,0.2680696719891509,1,valid_win,196.88000400000055,12,,,,,,,,,,,,,,,,sub_880,2025-04-04_10h21.40.933,Reversal,2022.1.2,59.9425869901309,4,
1,exp3.png,exp4.png,,1,0,1,0,0,1,1,1,,,,,,,,,,,,,,,,,,,,,,,,,False,21,22,True,exp4.png,exp3.png,trial_left_image,1,exp4.png,4,exp4.png,exp3.png,1,3,reversed,correct,0.49639850570983446,1,valid_win,202.0794878000006,13,,,,,,,,,,,,,,,,sub_880,2025-04-04_10h21.40.933,Reversal,2022.1.2,59.9425869901309,4,
2,exp1.png,exp2.png,,1,0,1,0,0,2,2,2,,,,,,,,,,,,,,,,,,,,,,,,,False,22,23,True,exp2.png,exp1.png,trial_right_image,-1,exp1.png,4,exp2.png,exp1.png,0,2,non-reversed,incorrect,0.8347250463548965,0,valid_lose,207.07990359999985,13,,,,,,,,,,,,,,,,sub_880,2025-04-04_10h21.40.933,Reversal,2022.1.2,59.9425869901309,4,
3,exp3.png,exp4.png,,1,0,1,0,0,3,3,3,,,,,,,,,,,,,,,,,,,,,,,,,False,23,24,False,exp3.png,exp4.png,trial_right_image,-1,exp4.png,4,exp4.png,exp3.png,1,3,reversed,correct,0.6888779235501672,1,valid_win,211.84680300000036,14,,,,,,,,,,,,,,,,sub_880,2025-04-04_10h21.40.933,Reversal,2022.1.2,59.9425869901309,4,
4,exp1.png,exp2.png,,1,0,1,0,0,4,4,4,,,,,,,,,,,,,,,,,,,,,,,,,False,24,25,False,exp1.png,exp2.png,trial_left_image,1,exp1.png,4,exp2.png,exp1.png,0,2,non-reversed,incorrect,0.6395299942830814,0,valid_lose,220.1290558999999,14,,,,,,,,,,,,,,,,sub_880,2025-04-04_10h21.40.933,Reversal,2022.1.2,59.9425869901309,4,
5,exp3.png,exp4.png,,1,0,1,0,0,5,5,5,,,,,,,,,,,,,,,,,,,,,,,,,False,25,26,True,exp4.png,exp3.png,trial_left_image,1,exp4.png,4,exp4.png,exp3.png,1,3,reversed,correct,0.9550874699664176,1,valid_win,225.14649250000002,15,,,,,,,,,,,,,,,,sub_880,2025-04-04_10h21.40.933,Reversal,2022.1.2,59.9425869901309,4,
6,exp1.png,exp2.png,,1,0,1,0,0,6,6,6,,,,,,,,,,,,,,,,,,,,,,,,,False,26,27,True,exp2.png,exp1.png,trial_left_image,1,exp2.png,4,exp2.png,exp1.png,1,1,non-reversed,correct,0.0952264323946177,0,invalid_lose,229.96240080000007,15,,,,,,,,,,,,,,,,sub_880,2025-04-04_10h21.40.933,Reversal,2022.1.2,59.9425869901309,4,
7,exp3.png,exp4.png,,1,0,1,0,0,7,7,7,,,,,,,,,,,,,,,,,,,,,,,,,False,27,28,True,exp4.png,exp3.png,trial_left_image,1,exp4.png,4,exp4.png,exp3.png,1,3,reversed,correct,0.09002055249606955,0,invalid_lose,234.7454013000006,15,,,,,,,,,,,,,,,,sub_880,2025-04-04_10h21.40.933,Reversal,2022.1.2,59.9425869901309,4,
8,exp1.png,exp2.png,,1,0,1,0,0,8,8,8,,,,,,,,,,,,,,,,,,,,,,,,,False,28,29,False,exp1.png,exp2.png,trial_right_image,-1,exp2.png,4,exp2.png,exp1.png,1,1,non-reversed,correct,0.8350801885148007,1,valid_win,239.49557280000045,16,,,,,,,,,,,,,,,,sub_880,2025-04-04_10h21.40.933,Reversal,2022.1.2,59.9425869901309,4,
9,exp3.png,exp4.png,,1,0,1,0,0,9,9,9,,,,,,,,,,,,,,,,,,,,,,,,,False,29,30,True,exp4.png,exp3.png,trial_left_image,1,exp4.png,4,exp4.png,exp3.png,1,3,reversed,correct,0.45651867883931296,1,valid_win,246.57887550000032,17,,,,,,,,,,,,,,,,sub_880,2025-04-04_10h21.40.933,Reversal,2022.1.2,59.9425869901309,4,
10,exp1.png,exp2.png,,1,0,1,0,0,10,10,10,,,,,,,,,,,,,,,,,,,,,,,,,False,30,31,False,exp1.png,exp2.png,trial_right_image,-1,exp2.png,4,exp2.png,exp1.png,1,1,non-reversed,correct,0.694508417888192,1,valid_win,251.27889680000044,18,,,,,,,,,,,,,,,,sub_880,2025-04-04_10h21.40.933,Reversal,2022.1.2,59.9425869901309,4,
11,exp3.png,exp4.png,,1,0,1,0,0,11,11,11,,,,,,,,,,,,,,,,,,,,,,,,,False,31,32,True,exp4.png,exp3.png,trial_left_image,1,exp4.png,4,exp4.png,exp3.png,1,3,reversed,correct,0.2195414158283806,0,invalid_lose,255.9779148000007,18,,,,,,,,,,,,,,,,sub_880,2025-04-04_10h21.40.933,Reversal,2022.1.2,59.9425869901309,4,
12,exp1.png,exp2.png,,1,0,1,0,0,12,12,12,,,,,,,,,,,,,,,,,,,,,,,,,False,32,33,False,exp1.png,exp2.png,trial_right_image,-1,exp2.png,4,exp2.png,exp1.png,1,1,non-reversed,correct,0.11646018634331179,0,invalid_lose,264.9619380000004,18,,,,,,,,,,,,,,,,sub_880,2025-04-04_10h21.40.933,Reversal,2022.1.2,59.9425869901309,4,
13,exp3.png,exp4.png,,1,0,1,0,0,13,13,13,,,,,,,,,,,,,,,,,,,,,,,,,False,33,34,True,exp4.png,exp3.png,trial_left_image,1,exp4.png,4,exp4.png,exp3.png,1,3,reversed,correct,0.2119245040398432,0,invalid_lose,275.2951557000006,18,,,,,,,,,,,,,,,,sub_880,2025-04-04_10h21.40.933,Reversal,2022.1.2,59.9425869901309,4,
14,exp1.png,exp2.png,,1,0,1,0,0,14,14,14,,,,,,,,,,,,,,,,,,,,,,,,,False,34,35,True,exp2.png,exp1.png,trial_right_image,-1,exp1.png,4,exp2.png,exp1.png,0,2,non-reversed,incorrect,0.9006641650542249,0,valid_lose,279.9783345000005,18,,,,,,,,,,,,,,,,sub_880,2025-04-04_10h21.40.933,Reversal,2022.1.2,59.9425869901309,4,
15,exp3.png,exp4.png,,1,0,1,0,0,15,15,15,,,,,,,,,,,,,,,,,,,,,,,,,False,35,36,False,exp3.png,exp4.png,trial_right_image,-1,exp4.png,4,exp4.png,exp3.png,1,3,reversed,correct,0.18329814853104287,0,invalid_lose,285.17816310000035,18,,,,,,,,,,,,,,,,sub_880,2025-04-04_10h21.40.933,Reversal,2022.1.2,59.9425869901309,4,
16,exp1.png,exp2.png,,1,0,1,0,0,16,16,16,,,,,,,,,,,,,,,,,,,,,,,,,False,36,37,False,exp1.png,exp2.png,trial_left_image,1,exp1.png,4,exp2.png,exp1.png,0,2,non-reversed,incorrect,0.6791244631339789,0,valid_lose,289.97798690000036,18,,,,,,,,,,,,,,,,sub_880,2025-04-04_10h21.40.933,Reversal,2022.1.2,59.9425869901309,4,
17,exp3.png,exp4.png,,1,0,1,0,0,17,17,17,,,,,,,,,,,,,,,,,,,,,,,,,False,37,38,False,exp3.png,exp4.png,trial_right_image,-1,exp4.png,4,exp4.png,exp3.png,1,3,reversed,correct,0.8096497079295412,1,valid_win,294.8284706000004,19,,,,,,,,,,,,,,,,sub_880,2025-04-04_10h21.40.933,Reversal,2022.1.2,59.9425869901309,4,
18,exp1.png,exp2.png,,1,0,1,0,0,18,18,18,,,,,,,,,,,,,,,,,,,,,,,,,False,38,39,False,exp1.png,exp2.png,trial_right_image,-1,exp2.png,4,exp2.png,exp1.png,1,1,non-reversed,correct,0.9069587719448736,1,valid_win,299.5108200000004,20,,,,,,,,,,,,,,,,sub_880,2025-04-04_10h21.40.933,Reversal,2022.1.2,59.9425869901309,4,
19,exp3.png,exp4.png,,1,0,1,0,0,19,19,19,,,,,,,,,,,,,,,,,,,,,,,,,False,39,40,True,exp4.png,exp3.png,trial_left_image,1,exp4.png,4,exp4.png,exp3.png,1,3,reversed,correct,0.47053231565767273,1,valid_win,307.24443620000056,21,,,,,,,,,,,,,,,,sub_880,2025-04-04_10h21.40.933,Reversal,2022.1.2,59.9425869901309,4,
20,exp1.png,exp2.png,,1,0,1,0,0,20,20,20,,,,,,,,,,,,,,,,,,,,,,,,,True,,,,,,,,,,,,,,,,,,,,,,,,,,,,,,,,,,,,sub_880,2025-04-04_10h21.40.933,Reversal,2022.1.2,59.9425869901309,4,
,,,exp1.png,1,0,1,0,,,,,0,0,0,0,0,0,0,0,,,,,,,,,,,,,,,,,,,,,,,,,,,,,,,,,,,,,,86.0,86.0,3.1947190999999293,"[(86.0, 3.1947190999999293)]",412.9593772999997,None,,,,,,,,,,sub_880,2025-04-04_10h21.40.933,Reversal,2022.1.2,59.9425869901309,4,
,,,exp2.png,1,0,1,0,,,,,0,0,0,0,0,1,1,1,,,,,,,,,,,,,,,,,,,,,,,,,,,,,,,,,,,,,,,88.0,1.951299100000142,"[(88.0, 1.951299100000142)]",417.1475783999995,None,,,88.0,,,,,,,sub_880,2025-04-04_10h21.40.933,Reversal,2022.1.2,59.9425869901309,4,
,,,exp3.png,1,0,1,0,,,,,0,0,0,0,0,2,2,2,,,,,,,,,,,,,,,,,,,,,,,,,,,,,,,,,,,,,,,17.0,1.8013155000007828,"[(17.0, 1.8013155000007828)]",420.08141969999997,None,17.0,,,,,,,,,sub_880,2025-04-04_10h21.40.933,Reversal,2022.1.2,59.9425869901309,4,
,,,exp4.png,1,0,1,0,,,,,0,0,0,0,0,3,3,3,,,,,,,,,,,,,,,,,,,,,,,,,,,,,,,,,,,,,,,86.0,1.8989551000004212,"[(86.0, 1.8989551000004212)]",423.75012269999934,None,,86.0,,,,,,,,sub_880,2025-04-04_10h21.40.933,Reversal,2022.1.2,59.9425869901309,4,
0,exp1.png,exp2.png,,2,0,2,0,0,0,0,0,,,,,,,,,,,,,,,,,,,,,,,,,False,40,41,True,exp2.png,exp1.png,trial_left_image,1,exp2.png,4,exp2.png,exp1.png,1,1,non-reversed,correct,0.10366934119127802,0,invalid_lose,326.8106353000003,21,,,,,,,,,,,,,,,,sub_880,2025-04-04_10h21.40.933,Reversal,2022.1.2,59.9425869901309,4,
1,exp3.png,exp4.png,,2,0,2,0,0,1,1,1,,,,,,,,,,,,,,,,,,,,,,,,,False,41,42,True,exp4.png,exp3.png,trial_left_image,1,exp4.png,4,exp4.png,exp3.png,1,3,reversed,correct,0.9192652812210279,1,valid_win,331.17738400000053,22,,,,,,,,,,,,,,,,sub_880,2025-04-04_10h21.40.933,Reversal,2022.1.2,59.9425869901309,4,
2,exp1.png,exp2.png,,2,0,2,0,0,2,2,2,,,,,,,,,,,,,,,,,,,,,,,,,False,42,43,False,exp1.png,exp2.png,trial_left_image,1,exp1.png,4,exp2.png,exp1.png,0,2,non-reversed,incorrect,0.619073731205366,0,valid_lose,336.5445770000006,22,,,,,,,,,,,,,,,,sub_880,2025-04-04_10h21.40.933,Reversal,2022.1.2,59.9425869901309,4,
3,exp3.png,exp4.png,,2,0,2,0,0,3,3,3,,,,,,,,,,,,,,,,,,,,,,,,,False,43,44,False,exp3.png,exp4.png,trial_right_image,-1,exp4.png,4,exp4.png,exp3.png,1,3,reversed,correct,0.05552150600097561,0,invalid_lose,341.0773927,22,,,,,,,,,,,,,,,,sub_880,2025-04-04_10h21.40.933,Reversal,2022.1.2,59.9425869901309,4,
4,exp1.png,exp2.png,,2,0,2,0,0,4,4,4,,,,,,,,,,,,,,,,,,,,,,,,,False,44,45,False,exp1.png,exp2.png,trial_left_image,1,exp1.png,4,exp2.png,exp1.png,0,2,non-reversed,incorrect,0.22782433096590726,1,invalid_win,346.02687200000037,23,,,,,,,,,,,,,,,,sub_880,2025-04-04_10h21.40.933,Reversal,2022.1.2,59.9425869901309,4,
5,exp3.png,exp4.png,,2,0,2,0,0,5,5,5,,,,,,,,,,,,,,,,,,,,,,,,,False,45,46,False,exp3.png,exp4.png,trial_right_image,-1,exp4.png,4,exp4.png,exp3.png,1,3,reversed,correct,0.6916916827827203,1,valid_win,350.8105798000006,24,,,,,,,,,,,,,,,,sub_880,2025-04-04_10h21.40.933,Reversal,2022.1.2,59.9425869901309,4,
6,exp1.png,exp2.png,,2,0,2,0,0,6,6,6,,,,,,,,,,,,,,,,,,,,,,,,,False,46,47,True,exp2.png,exp1.png,trial_left_image,1,exp2.png,4,exp2.png,exp1.png,1,1,non-reversed,correct,0.2823708350088754,1,valid_win,356.07748919999995,25,,,,,,,,,,,,,,,,sub_880,2025-04-04_10h21.40.933,Reversal,2022.1.2,59.9425869901309,4,
7,exp3.png,exp4.png,,2,0,2,0,0,7,7,7,,,,,,,,,,,,,,,,,,,,,,,,,False,47,48,False,exp3.png,exp4.png,trial_right_image,-1,exp4.png,4,exp4.png,exp3.png,1,3,reversed,correct,0.24764113309110736,0,invalid_lose,361.07740980000017,25,,,,,,,,,,,,,,,,sub_880,2025-04-04_10h21.40.933,Reversal,2022.1.2,59.9425869901309,4,
8,exp1.png,exp2.png,,2,0,2,0,0,8,8,8,,,,,,,,,,,,,,,,,,,,,,,,,False,48,49,True,exp2.png,exp1.png,trial_left_image,1,exp2.png,4,exp2.png,exp1.png,1,1,non-reversed,correct,0.688207818213889,1,valid_win,365.67703600000004,26,,,,,,,,,,,,,,,,sub_880,2025-04-04_10h21.40.933,Reversal,2022.1.2,59.9425869901309,4,
9,exp3.png,exp4.png,,2,0,2,0,0,9,9,9,,,,,,,,,,,,,,,,,,,,,,,,,False,49,50,True,exp4.png,exp3.png,trial_left_image,1,exp4.png,4,exp4.png,exp3.png,1,3,reversed,correct,0.24040426859655117,0,invalid_lose,370.19217220000064,26,,,,,,,,,,,,,,,,sub_880,2025-04-04_10h21.40.933,Reversal,2022.1.2,59.9425869901309,4,
10,exp1.png,exp2.png,,2,0,2,0,0,10,10,10,,,,,,,,,,,,,,,,,,,,,,,,,False,50,51,True,exp2.png,exp1.png,trial_left_image,1,exp2.png,4,exp2.png,exp1.png,1,1,non-reversed,correct,0.18171490831803716,0,invalid_lose,375.55967450000026,26,,,,,,,,,,,,,,,,sub_880,2025-04-04_10h21.40.933,Reversal,2022.1.2,59.9425869901309,4,
11,exp3.png,exp4.png,,2,0,2,0,0,11,11,11,,,,,,,,,,,,,,,,,,,,,,,,,False,51,52,False,exp3.png,exp4.png,trial_right_image,-1,exp4.png,4,exp4.png,exp3.png,1,3,reversed,correct,0.5796497497811138,1,valid_win,380.2598590000007,27,,,,,,,,,,,,,,,,sub_880,2025-04-04_10h21.40.933,Reversal,2022.1.2,59.9425869901309,4,
12,exp1.png,exp2.png,,2,0,2,0,0,12,12,12,,,,,,,,,,,,,,,,,,,,,,,,,False,52,53,False,exp1.png,exp2.png,trial_left_image,1,exp1.png,4,exp2.png,exp1.png,0,2,non-reversed,incorrect,0.21167266159056708,1,invalid_win,386.20994470000005,28,,,,,,,,,,,,,,,,sub_880,2025-04-04_10h21.40.933,Reversal,2022.1.2,59.9425869901309,4,
13,exp3.png,exp4.png,,2,0,2,0,0,13,13,13,,,,,,,,,,,,,,,,,,,,,,,,,False,53,54,True,exp4.png,exp3.png,trial_left_image,1,exp4.png,4,exp4.png,exp3.png,1,3,reversed,correct,0.29046205042115036,1,valid_win,391.07645740000044,29,,,,,,,,,,,,,,,,sub_880,2025-04-04_10h21.40.933,Reversal,2022.1.2,59.9425869901309,4,
14,exp1.png,exp2.png,,2,0,2,0,0,14,14,14,,,,,,,,,,,,,,,,,,,,,,,,,False,54,55,False,exp1.png,exp2.png,trial_right_image,-1,exp2.png,4,exp2.png,exp1.png,1,1,non-reversed,correct,0.7762675988520004,1,valid_win,395.59291310000026,30,,,,,,,,,,,,,,,,sub_880,2025-04-04_10h21.40.933,Reversal,2022.1.2,59.9425869901309,4,
15,exp3.png,exp4.png,,2,0,2,0,0,15,15,15,,,,,,,,,,,,,,,,,,,,,,,,,False,55,56,True,exp4.png,exp3.png,trial_left_image,1,exp4.png,4,exp4.png,exp3.png,1,3,reversed,correct,0.6397446739480339,1,valid_win,400.0759450000005,31,,,,,,,,,,,,,,,,sub_880,2025-04-04_10h21.40.933,Reversal,2022.1.2,59.9425869901309,4,
16,exp1.png,exp2.png,,2,0,2,0,0,16,16,16,,,,,,,,,,,,,,,,,,,,,,,,,False,56,57,False,exp1.png,exp2.png,trial_right_image,-1,exp2.png,4,exp2.png,exp1.png,1,1,non-reversed,correct,0.9092088421041498,1,valid_win,404.52615810000043,32,,,,,,,,,,,,,,,,sub_880,2025-04-04_10h21.40.933,Reversal,2022.1.2,59.9425869901309,4,
17,exp3.png,exp4.png,,2,0,2,0,0,17,17,17,,,,,,,,,,,,,,,,,,,,,,,,,False,57,58,False,exp3.png,exp4.png,trial_right_image,-1,exp4.png,4,exp4.png,exp3.png,1,3,reversed,correct,0.8038148867307202,1,valid_win,408.99267580000014,33,,,,,,,,,,,,,,,,sub_880,2025-04-04_10h21.40.933,Reversal,2022.1.2,59.9425869901309,4,
18,exp1.png,exp2.png,,2,0,2,0,0,18,18,18,,,,,,,,,,,,,,,,,,,,,,,,,False,58,59,True,exp2.png,exp1.png,trial_left_image,1,exp2.png,4,exp2.png,exp1.png,1,1,non-reversed,correct,0.28992482800035757,1,valid_win,413.5595036000004,34,,,,,,,,,,,,,,,,sub_880,2025-04-04_10h21.40.933,Reversal,2022.1.2,59.9425869901309,4,
19,exp3.png,exp4.png,,2,0,2,0,0,19,19,19,,,,,,,,,,,,,,,,,,,,,,,,,False,59,60,True,exp4.png,exp3.png,trial_left_image,1,exp4.png,4,exp4.png,exp3.png,1,3,reversed,correct,0.26316997823035615,1,valid_win,418.3092408000002,35,,,,,,,,,,,,,,,,sub_880,2025-04-04_10h21.40.933,Reversal,2022.1.2,59.9425869901309,4,
20,exp1.png,exp2.png,,2,0,2,0,0,20,20,20,,,,,,,,,,,,,,,,,,,,,,,,,True,,,,,,,,,,,,,,,,,,,,,,,,,,,,,,,,,,,,sub_880,2025-04-04_10h21.40.933,Reversal,2022.1.2,59.9425869901309,4,
,,,exp1.png,2,0,2,0,,,,,0,0,0,0,0,0,0,0,,,,,,,,,,,,,,,,,,,,,,,,,,,,,,,,,,,,,,91.0,91.0,2.9692572000003565,"[(91.0, 2.9692572000003565)]",523.9972328999993,None,,,,,,,,,,sub_880,2025-04-04_10h21.40.933,Reversal,2022.1.2,59.9425869901309,4,
,,,exp2.png,2,0,2,0,,,,,0,0,0,0,0,1,1,1,,,,,,,,,,,,,,,,,,,,,,,,,,,,,,,,,,,,,,,88.0,1.449197699999786,"[(88.0, 1.449197699999786)]",527.9641562999996,None,,,88.0,,,,,,,sub_880,2025-04-04_10h21.40.933,Reversal,2022.1.2,59.9425869901309,4,
,,,exp3.png,2,0,2,0,,,,,0,0,0,0,0,2,2,2,,,,,,,,,,,,,,,,,,,,,,,,,,,,,,,,,,,,,,,52.0,5.3179675999999745,"[(34.0, 1.5147059000000809), (62.0, 2.8483079999996335), (49.0, 4.348662699999295), (52.0, 5.3179675999999745)]",530.9317519999995,None,52.0,,,,,,,,,sub_880,2025-04-04_10h21.40.933,Reversal,2022.1.2,59.9425869901309,4,
,,,exp4.png,2,0,2,0,,,,,0,0,0,0,0,3,3,3,,,,,,,,,,,,,,,,,,,,,,,,,,,,,,,,,,,,,,,74.0,1.9491744999995717,"[(74.0, 1.9491744999995717)]",536.9824177999999,None,,74.0,,,,,,,,sub_880,2025-04-04_10h21.40.933,Reversal,2022.1.2,59.9425869901309,4,
0,exp1.png,exp2.png,,,,,,,,,,,,,,,,,,0,0,0,0,0,0,0,0,,,,,,,,,False,0,61,True,exp2.png,exp1.png,trial_left_image,1,exp2.png,4,exp2.png,exp1.png,1,1,non-reversed,correct,0.6122347391860825,1,valid_win,441.19199000000026,36,,,,,,,,,,436.49505240000053,,,,,,sub_880,2025-04-04_10h21.40.933,Reversal,2022.1.2,59.9425869901309,4,
1,exp3.png,exp4.png,,,,,,,,,,,,,,,,,,0,0,0,0,0,1,1,1,,,,,,,,,False,1,62,False,exp3.png,exp4.png,trial_right_image,-1,exp4.png,4,exp3.png,exp4.png,1,3,reversed,incorrect,0.9684923807895242,0,valid_lose,446.5754835000007,36,,,,,,,,,,,,,,,,sub_880,2025-04-04_10h21.40.933,Reversal,2022.1.2,59.9425869901309,4,
2,exp1.png,exp2.png,,,,,,,,,,,,,,,,,,0,0,0,0,0,2,2,2,,,,,,,,,False,2,63,False,exp1.png,exp2.png,trial_left_image,1,exp1.png,4,exp2.png,exp1.png,0,2,non-reversed,incorrect,0.8805796905954997,0,valid_lose,451.24265040000046,36,,,,,,,,,,,,,,,,sub_880,2025-04-04_10h21.40.933,Reversal,2022.1.2,59.9425869901309,4,
3,exp3.png,exp4.png,,,,,,,,,,,,,,,,,,0,0,0,0,0,3,3,3,,,,,,,,,False,3,64,False,exp3.png,exp4.png,trial_left_image,1,exp3.png,4,exp3.png,exp4.png,0,4,reversed,correct,0.28304114594644514,1,valid_win,455.6242744000001,37,,,,,,,,,,,,,,,,sub_880,2025-04-04_10h21.40.933,Reversal,2022.1.2,59.9425869901309,4,
4,exp1.png,exp2.png,,,,,,,,,,,,,,,,,,0,0,0,0,0,4,4,4,,,,,,,,,False,4,65,False,exp1.png,exp2.png,trial_right_image,-1,exp2.png,4,exp2.png,exp1.png,1,1,non-reversed,correct,0.7356687716420958,1,valid_win,460.25867879999987,38,,,,,,,,,,,,,,,,sub_880,2025-04-04_10h21.40.933,Reversal,2022.1.2,59.9425869901309,4,
5,exp3.png,exp4.png,,,,,,,,,,,,,,,,,,0,0,0,0,0,5,5,5,,,,,,,,,False,5,66,False,exp3.png,exp4.png,trial_left_image,1,exp3.png,4,exp3.png,exp4.png,0,4,reversed,correct,0.07243992134231969,0,invalid_lose,465.2413796999999,38,,,,,,,,,,,,,,,,sub_880,2025-04-04_10h21.40.933,Reversal,2022.1.2,59.9425869901309,4,
6,exp1.png,exp2.png,,,,,,,,,,,,,,,,,,0,0,0,0,0,6,6,6,,,,,,,,,False,6,67,False,exp1.png,exp2.png,trial_right_image,-1,exp2.png,4,exp2.png,exp1.png,1,1,non-reversed,correct,0.9209361219283954,1,valid_win,473.2743842,39,,,,,,,,,,,,,,,,sub_880,2025-04-04_10h21.40.933,Reversal,2022.1.2,59.9425869901309,4,
7,exp3.png,exp4.png,,,,,,,,,,,,,,,,,,0,0,0,0,0,7,7,7,,,,,,,,,False,7,68,False,exp3.png,exp4.png,trial_right_image,-1,exp4.png,4,exp3.png,exp4.png,1,3,reversed,incorrect,0.7828991616033971,0,valid_lose,479.0751482000005,39,,,,,,,,,,,,,,,,sub_880,2025-04-04_10h21.40.933,Reversal,2022.1.2,59.9425869901309,4,
8,exp1.png,exp2.png,,,,,,,,,,,,,,,,,,0,0,0,0,0,8,8,8,,,,,,,,,False,8,69,True,exp2.png,exp1.png,trial_left_image,1,exp2.png,4,exp2.png,exp1.png,1,1,non-reversed,correct,0.8328936911749456,1,valid_win,485.2917924000003,40,,,,,,,,,,,,,,,,sub_880,2025-04-04_10h21.40.933,Reversal,2022.1.2,59.9425869901309,4,
9,exp3.png,exp4.png,,,,,,,,,,,,,,,,,,0,0,0,0,0,9,9,9,,,,,,,,,False,9,70,False,exp3.png,exp4.png,trial_left_image,1,exp3.png,4,exp3.png,exp4.png,0,4,reversed,correct,0.5697644059248144,1,valid_win,490.2078010000005,41,,,,,,,,,,,,,,,,sub_880,2025-04-04_10h21.40.933,Reversal,2022.1.2,59.9425869901309,4,
10,exp1.png,exp2.png,,,,,,,,,,,,,,,,,,0,0,0,0,0,10,10,10,,,,,,,,,False,10,71,True,exp2.png,exp1.png,trial_right_image,-1,exp1.png,4,exp2.png,exp1.png,0,2,non-reversed,incorrect,0.9651222159528173,0,valid_lose,495.92465020000054,41,,,,,,,,,,,,,,,,sub_880,2025-04-04_10h21.40.933,Reversal,2022.1.2,59.9425869901309,4,
11,exp3.png,exp4.png,,,,,,,,,,,,,,,,,,0,0,0,0,0,11,11,11,,,,,,,,,False,11,72,True,exp4.png,exp3.png,trial_left_image,1,exp4.png,4,exp3.png,exp4.png,1,3,reversed,incorrect,0.7985668694388035,0,valid_lose,500.67442800000026,41,,,,,,,,,,,,,,,,sub_880,2025-04-04_10h21.40.933,Reversal,2022.1.2,59.9425869901309,4,
12,exp1.png,exp2.png,,,,,,,,,,,,,,,,,,0,0,0,0,0,12,12,12,,,,,,,,,False,12,73,False,exp1.png,exp2.png,trial_right_image,-1,exp2.png,4,exp2.png,exp1.png,1,1,non-reversed,correct,0.09196579639533442,0,invalid_lose,505.8904026,41,,,,,,,,,,,,,,,,sub_880,2025-04-04_10h21.40.933,Reversal,2022.1.2,59.9425869901309,4,
13,exp3.png,exp4.png,,,,,,,,,,,,,,,,,,0,0,0,0,0,13,13,13,,,,,,,,,False,13,74,True,exp4.png,exp3.png,trial_right_image,-1,exp3.png,4,exp3.png,exp4.png,0,4,reversed,correct,0.42862776463183194,1,valid_win,510.7911537,42,,,,,,,,,,,,,,,,sub_880,2025-04-04_10h21.40.933,Reversal,2022.1.2,59.9425869901309,4,
14,exp1.png,exp2.png,,,,,,,,,,,,,,,,,,0,0,0,0,0,14,14,14,,,,,,,,,False,14,75,True,exp2.png,exp1.png,trial_left_image,1,exp2.png,4,exp2.png,exp1.png,1,1,non-reversed,correct,0.30666751047177765,1,valid_win,520.5243251000002,43,,,,,,,,,,,,,,,,sub_880,2025-04-04_10h21.40.933,Reversal,2022.1.2,59.9425869901309,4,
15,exp3.png,exp4.png,,,,,,,,,,,,,,,,,,0,0,0,0,0,15,15,15,,,,,,,,,False,15,76,True,exp4.png,exp3.png,trial_right_image,-1,exp3.png,4,exp3.png,exp4.png,0,4,reversed,correct,0.14118342922490512,0,invalid_lose,525.1568958000007,43,,,,,,,,,,,,,,,,sub_880,2025-04-04_10h21.40.933,Reversal,2022.1.2,59.9425869901309,4,
16,exp1.png,exp2.png,,,,,,,,,,,,,,,,,,0,0,0,0,0,16,16,16,,,,,,,,,False,16,77,True,exp2.png,exp1.png,trial_left_image,1,exp2.png,4,exp2.png,exp1.png,1,1,non-reversed,correct,0.9950455262402114,1,valid_win,529.8564495999999,44,,,,,,,,,,,,,,,,sub_880,2025-04-04_10h21.40.933,Reversal,2022.1.2,59.9425869901309,4,
17,exp3.png,exp4.png,,,,,,,,,,,,,,,,,,0,0,0,0,0,17,17,17,,,,,,,,,False,17,78,True,exp4.png,exp3.png,trial_right_image,-1,exp3.png,4,exp3.png,exp4.png,0,4,reversed,correct,0.28832950916113154,1,valid_win,535.9236733000007,45,,,,,,,,,,,,,,,,sub_880,2025-04-04_10h21.40.933,Reversal,2022.1.2,59.9425869901309,4,
18,exp1.png,exp2.png,,,,,,,,,,,,,,,,,,0,0,0,0,0,18,18,18,,,,,,,,,False,18,79,False,exp1.png,exp2.png,trial_left_image,1,exp1.png,4,exp2.png,exp1.png,0,2,non-reversed,incorrect,0.5412578349920422,0,valid_lose,541.3573024000007,45,,,,,,,,,,,,,,,,sub_880,2025-04-04_10h21.40.933,Reversal,2022.1.2,59.9425869901309,4,
19,exp3.png,exp4.png,,,,,,,,,,,,,,,,,,0,0,0,0,0,19,19,19,,,,,,,,,False,19,80,True,exp4.png,exp3.png,trial_right_image,-1,exp3.png,4,exp3.png,exp4.png,0,4,reversed,correct,0.8729541808527252,1,valid_win,545.8232026000005,46,,,,,,,,,,,,,,,,sub_880,2025-04-04_10h21.40.933,Reversal,2022.1.2,59.9425869901309,4,
20,exp1.png,exp2.png,,,,,,,,,,,,,,,,,,0,0,0,0,0,20,20,20,,,,,,,,,True,,,,,,,,,,,,,,,,,,,,,,,,,,,,,,,,,,,,sub_880,2025-04-04_10h21.40.933,Reversal,2022.1.2,59.9425869901309,4,
,,,exp1.png,,,,,,,,,,,,,,,,,0,0,0,0,,,,,0,0,0,0,0,0,0,0,,,,,,,,,,,,,,,,,,,,,,62.0,62.0,2.803185599999779,"[(62.0, 2.803185599999779)]",651.5274596999998,None,,,,,,,,,,sub_880,2025-04-04_10h21.40.933,Reversal,2022.1.2,59.9425869901309,4,
,,,exp2.png,,,,,,,,,,,,,,,,,0,0,0,0,,,,,0,0,0,0,0,1,1,1,,,,,,,,,,,,,,,,,,,,,,,65.0,1.1009928000003129,"[(65.0, 1.1009928000003129)]",655.0435179999995,None,,,65.0,,,,,,,sub_880,2025-04-04_10h21.40.933,Reversal,2022.1.2,59.9425869901309,4,
,,,exp3.png,,,,,,,,,,,,,,,,,0,0,0,0,,,,,0,0,0,0,0,2,2,2,,,,,,,,,,,,,,,,,,,,,,,50.0,None,[],656.9093524,None,,,,,,,,,,sub_880,2025-04-04_10h21.40.933,Reversal,2022.1.2,59.9425869901309,4,
,,,exp4.png,,,,,,,,,,,,,,,,,0,0,0,0,,,,,0,0,0,0,0,3,3,3,,,,,,,,,,,,,,,,,,,,,,,64.0,0.9316112999995312,"[(64.0, 0.9316112999995312)]",658.8953083999995,None,,64.0,,,,,,,,sub_880,2025-04-04_10h21.40.933,Reversal,2022.1.2,59.9425869901309,4,
0,exp1.png,exp2.png,,,,,,,,,,,,,,,,,,1,0,1,0,0,0,0,0,,,,,,,,,False,20,81,False,exp1.png,exp2.png,trial_right_image,-1,exp2.png,4,exp2.png,exp1.png,1,1,non-reversed,correct,0.7830920558678361,1,valid_win,559.4559757000006,47,,,,,,,,,,,,,,,,sub_880,2025-04-04_10h21.40.933,Reversal,2022.1.2,59.9425869901309,4,
1,exp3.png,exp4.png,,,,,,,,,,,,,,,,,,1,0,1,0,0,1,1,1,,,,,,,,,False,21,82,True,exp4.png,exp3.png,trial_right_image,-1,exp3.png,4,exp3.png,exp4.png,0,4,reversed,correct,0.08520443777855957,0,invalid_lose,565.1069229000004,47,,,,,,,,,,,,,,,,sub_880,2025-04-04_10h21.40.933,Reversal,2022.1.2,59.9425869901309,4,
2,exp1.png,exp2.png,,,,,,,,,,,,,,,,,,1,0,1,0,0,2,2,2,,,,,,,,,False,22,83,False,exp1.png,exp2.png,trial_left_image,1,exp1.png,4,exp2.png,exp1.png,0,2,non-reversed,incorrect,0.3748896335638333,0,valid_lose,571.4064713000007,47,,,,,,,,,,,,,,,,sub_880,2025-04-04_10h21.40.933,Reversal,2022.1.2,59.9425869901309,4,
3,exp3.png,exp4.png,,,,,,,,,,,,,,,,,,1,0,1,0,0,3,3,3,,,,,,,,,False,23,84,False,exp3.png,exp4.png,trial_left_image,1,exp3.png,4,exp3.png,exp4.png,0,4,reversed,correct,0.4845331920868219,1,valid_win,575.6565088000007,48,,,,,,,,,,,,,,,,sub_880,2025-04-04_10h21.40.933,Reversal,2022.1.2,59.9425869901309,4,
4,exp1.png,exp2.png,,,,,,,,,,,,,,,,,,1,0,1,0,0,4,4,4,,,,,,,,,False,24,85,False,exp1.png,exp2.png,trial_right_image,-1,exp2.png,4,exp2.png,exp1.png,1,1,non-reversed,correct,0.8282591967173984,1,valid_win,580.2398462000001,49,,,,,,,,,,,,,,,,sub_880,2025-04-04_10h21.40.933,Reversal,2022.1.2,59.9425869901309,4,
5,exp3.png,exp4.png,,,,,,,,,,,,,,,,,,1,0,1,0,0,5,5,5,,,,,,,,,False,25,86,False,exp3.png,exp4.png,trial_left_image,1,exp3.png,4,exp3.png,exp4.png,0,4,reversed,correct,0.9744742899142942,1,valid_win,584.9228860000003,50,,,,,,,,,,,,,,,,sub_880,2025-04-04_10h21.40.933,Reversal,2022.1.2,59.9425869901309,4,
6,exp1.png,exp2.png,,,,,,,,,,,,,,,,,,1,0,1,0,0,6,6,6,,,,,,,,,False,26,87,False,exp1.png,exp2.png,trial_right_image,-1,exp2.png,4,exp2.png,exp1.png,1,1,non-reversed,correct,0.3238515263974405,1,valid_win,589.8388574999999,51,,,,,,,,,,,,,,,,sub_880,2025-04-04_10h21.40.933,Reversal,2022.1.2,59.9425869901309,4,
7,exp3.png,exp4.png,,,,,,,,,,,,,,,,,,1,0,1,0,0,7,7,7,,,,,,,,,False,27,88,False,exp3.png,exp4.png,trial_left_image,1,exp3.png,4,exp3.png,exp4.png,0,4,reversed,correct,0.39730736908537645,1,valid_win,594.7884938000007,52,,,,,,,,,,,,,,,,sub_880,2025-04-04_10h21.40.933,Reversal,2022.1.2,59.9425869901309,4,
8,exp1.png,exp2.png,,,,,,,,,,,,,,,,,,1,0,1,0,0,8,8,8,,,,,,,,,False,28,89,True,exp2.png,exp1.png,trial_right_image,-1,exp1.png,4,exp2.png,exp1.png,0,2,non-reversed,incorrect,0.8996083879615601,0,valid_lose,599.3721517000004,52,,,,,,,,,,,,,,,,sub_880,2025-04-04_10h21.40.933,Reversal,2022.1.2,59.9425869901309,4,
9,exp3.png,exp4.png,,,,,,,,,,,,,,,,,,1,0,1,0,0,9,9,9,,,,,,,,,False,29,90,True,exp4.png,exp3.png,trial_right_image,-1,exp3.png,4,exp3.png,exp4.png,0,4,reversed,correct,0.3691742640867438,1,valid_win,604.7561857999999,53,,,,,,,,,,,,,,,,sub_880,2025-04-04_10h21.40.933,Reversal,2022.1.2,59.9425869901309,4,
10,exp1.png,exp2.png,,,,,,,,,,,,,,,,,,1,0,1,0,0,10,10,10,,,,,,,,,False,30,91,False,exp1.png,exp2.png,trial_left_image,1,exp1.png,4,exp2.png,exp1.png,0,2,non-reversed,incorrect,0.3845700396926577,0,valid_lose,611.0055628999999,53,,,,,,,,,,,,,,,,sub_880,2025-04-04_10h21.40.933,Reversal,2022.1.2,59.9425869901309,4,
11,exp3.png,exp4.png,,,,,,,,,,,,,,,,,,1,0,1,0,0,11,11,11,,,,,,,,,False,31,92,True,exp4.png,exp3.png,trial_right_image,-1,exp3.png,4,exp3.png,exp4.png,0,4,reversed,correct,0.9790164323924243,1,valid_win,615.9395556,54,,,,,,,,,,,,,,,,sub_880,2025-04-04_10h21.40.933,Reversal,2022.1.2,59.9425869901309,4,
12,exp1.png,exp2.png,,,,,,,,,,,,,,,,,,1,0,1,0,0,12,12,12,,,,,,,,,False,32,93,True,exp2.png,exp1.png,trial_left_image,1,exp2.png,4,exp2.png,exp1.png,1,1,non-reversed,correct,0.047734485076230015,0,invalid_lose,620.3384892000004,54,,,,,,,,,,,,,,,,sub_880,2025-04-04_10h21.40.933,Reversal,2022.1.2,59.9425869901309,4,
13,exp3.png,exp4.png,,,,,,,,,,,,,,,,,,1,0,1,0,0,13,13,13,,,,,,,,,False,33,94,True,exp4.png,exp3.png,trial_right_image,-1,exp3.png,4,exp3.png,exp4.png,0,4,reversed,correct,0.5151125829756428,1,valid_win,625.2222215000002,55,,,,,,,,,,,,,,,,sub_880,2025-04-04_10h21.40.933,Reversal,2022.1.2,59.9425869901309,4,
14,exp1.png,exp2.png,,,,,,,,,,,,,,,,,,1,0,1,0,0,14,14,14,,,,,,,,,False,34,95,True,exp2.png,exp1.png,trial_left_image,1,exp2.png,4,exp2.png,exp1.png,1,1,non-reversed,correct,0.5758945363870551,1,valid_win,629.8213724000007,56,,,,,,,,,,,,,,,,sub_880,2025-04-04_10h21.40.933,Reversal,2022.1.2,59.9425869901309,4,
15,exp3.png,exp4.png,,,,,,,,,,,,,,,,,,1,0,1,0,0,15,15,15,,,,,,,,,False,35,96,True,exp4.png,exp3.png,trial_right_image,-1,exp3.png,4,exp3.png,exp4.png,0,4,reversed,correct,0.22217496812506776,0,invalid_lose,634.4714463999999,56,,,,,,,,,,,,,,,,sub_880,2025-04-04_10h21.40.933,Reversal,2022.1.2,59.9425869901309,4,
16,exp1.png,exp2.png,,,,,,,,,,,,,,,,,,1,0,1,0,0,16,16,16,,,,,,,,,False,36,97,False,exp1.png,exp2.png,trial_left_image,1,exp1.png,4,exp2.png,exp1.png,0,2,non-reversed,incorrect,0.07492237331450646,1,invalid_win,639.0715112000007,57,,,,,,,,,,,,,,,,sub_880,2025-04-04_10h21.40.933,Reversal,2022.1.2,59.9425869901309,4,
17,exp3.png,exp4.png,,,,,,,,,,,,,,,,,,1,0,1,0,0,17,17,17,,,,,,,,,False,37,98,False,exp3.png,exp4.png,trial_right_image,-1,exp4.png,4,exp3.png,exp4.png,1,3,reversed,incorrect,0.4926103494668934,0,valid_lose,643.9387806000004,57,,,,,,,,,,,,,,,,sub_880,2025-04-04_10h21.40.933,Reversal,2022.1.2,59.9425869901309,4,
18,exp1.png,exp2.png,,,,,,,,,,,,,,,,,,1,0,1,0,0,18,18,18,,,,,,,,,False,38,99,True,exp2.png,exp1.png,trial_left_image,1,exp2.png,4,exp2.png,exp1.png,1,1,non-reversed,correct,0.004408494009864206,0,invalid_lose,648.5885173000006,57,,,,,,,,,,,,,,,,sub_880,2025-04-04_10h21.40.933,Reversal,2022.1.2,59.9425869901309,4,
19,exp3.png,exp4.png,,,,,,,,,,,,,,,,,,1,0,1,0,0,19,19,19,,,,,,,,,False,39,100,True,exp4.png,exp3.png,trial_right_image,-1,exp3.png,4,exp3.png,exp4.png,0,4,reversed,correct,0.625531151616685,1,valid_win,654.1552542,58,,,,,,,,,,,,,,,,sub_880,2025-04-04_10h21.40.933,Reversal,2022.1.2,59.9425869901309,4,
20,exp1.png,exp2.png,,,,,,,,,,,,,,,,,,1,0,1,0,0,20,20,20,,,,,,,,,True,,,,,,,,,,,,,,,,,,,,,,,,,,,,,,,,,,,,sub_880,2025-04-04_10h21.40.933,Reversal,2022.1.2,59.9425869901309,4,
,,,exp1.png,,,,,,,,,,,,,,,,,1,0,1,0,,,,,0,0,0,0,0,0,0,0,,,,,,,,,,,,,,,,,,,,,,65.0,65.0,2.369873799999368,"[(65.0, 2.369873799999368)]",759.8610929999995,None,,,,,,,,,,sub_880,2025-04-04_10h21.40.933,Reversal,2022.1.2,59.9425869901309,4,
,,,exp2.png,,,,,,,,,,,,,,,,,1,0,1,0,,,,,0,0,0,0,0,1,1,1,,,,,,,,,,,,,,,,,,,,,,,65.0,1.0678932999999233,"[(65.0, 1.0678932999999233)]",763.0593159,None,,,65.0,,,,,,,sub_880,2025-04-04_10h21.40.933,Reversal,2022.1.2,59.9425869901309,4,
,,,exp3.png,,,,,,,,,,,,,,,,,1,0,1,0,,,,,0,0,0,0,0,2,2,2,,,,,,,,,,,,,,,,,,,,,,,57.0,2.065198600000258,"[(57.0, 2.065198600000258)]",764.9433036999999,None,57.0,,,,,,,,,sub_880,2025-04-04_10h21.40.933,Reversal,2022.1.2,59.9425869901309,4,
,,,exp4.png,,,,,,,,,,,,,,,,,1,0,1,0,,,,,0,0,0,0,0,3,3,3,,,,,,,,,,,,,,,,,,,,,,,58.0,1.6845625999994809,"[(58.0, 1.6845625999994809)]",767.7580360000002,None,,58.0,,,,,,,,sub_880,2025-04-04_10h21.40.933,Reversal,2022.1.2,59.9425869901309,4,
0,exp1.png,exp2.png,,,,,,,,,,,,,,,,,,2,0,2,0,0,0,0,0,,,,,,,,,False,40,101,True,exp2.png,exp1.png,trial_left_image,1,exp2.png,4,exp2.png,exp1.png,1,1,non-reversed,correct,0.22772348264495756,0,invalid_lose,669.0213656000005,58,,,,,,,,,,,,,,,,sub_880,2025-04-04_10h21.40.933,Reversal,2022.1.2,59.9425869901309,4,
1,exp3.png,exp4.png,,,,,,,,,,,,,,,,,,2,0,2,0,0,1,1,1,,,,,,,,,False,41,102,False,exp3.png,exp4.png,trial_left_image,1,exp3.png,4,exp3.png,exp4.png,0,4,reversed,correct,0.9698209283108089,1,valid_win,673.3548412999999,59,,,,,,,,,,,,,,,,sub_880,2025-04-04_10h21.40.933,Reversal,2022.1.2,59.9425869901309,4,
2,exp1.png,exp2.png,,,,,,,,,,,,,,,,,,2,0,2,0,0,2,2,2,,,,,,,,,False,42,103,False,exp1.png,exp2.png,trial_left_image,1,exp1.png,4,exp2.png,exp1.png,0,2,non-reversed,incorrect,0.7773780431763451,0,valid_lose,679.9047208000002,59,,,,,,,,,,,,,,,,sub_880,2025-04-04_10h21.40.933,Reversal,2022.1.2,59.9425869901309,4,
3,exp3.png,exp4.png,,,,,,,,,,,,,,,,,,2,0,2,0,0,3,3,3,,,,,,,,,False,43,104,True,exp4.png,exp3.png,trial_right_image,-1,exp3.png,4,exp3.png,exp4.png,0,4,reversed,correct,0.121404469835378,0,invalid_lose,684.5213348000007,59,,,,,,,,,,,,,,,,sub_880,2025-04-04_10h21.40.933,Reversal,2022.1.2,59.9425869901309,4,
4,exp1.png,exp2.png,,,,,,,,,,,,,,,,,,2,0,2,0,0,4,4,4,,,,,,,,,False,44,105,True,exp2.png,exp1.png,trial_left_image,1,exp2.png,4,exp2.png,exp1.png,1,1,non-reversed,correct,0.9013011223683624,1,valid_win,689.0046462,60,,,,,,,,,,,,,,,,sub_880,2025-04-04_10h21.40.933,Reversal,2022.1.2,59.9425869901309,4,
5,exp3.png,exp4.png,,,,,,,,,,,,,,,,,,2,0,2,0,0,5,5,5,,,,,,,,,False,45,106,False,exp3.png,exp4.png,trial_right_image,-1,exp4.png,4,exp3.png,exp4.png,1,3,reversed,incorrect,0.0033934099382089133,1,invalid_win,693.4203723,61,,,,,,,,,,,,,,,,sub_880,2025-04-04_10h21.40.933,Reversal,2022.1.2,59.9425869901309,4,
6,exp1.png,exp2.png,,,,,,,,,,,,,,,,,,2,0,2,0,0,6,6,6,,,,,,,,,False,46,107,False,exp1.png,exp2.png,trial_left_image,1,exp1.png,4,exp2.png,exp1.png,0,2,non-reversed,incorrect,0.5239258445085659,0,valid_lose,697.7209492000002,61,,,,,,,,,,,,,,,,sub_880,2025-04-04_10h21.40.933,Reversal,2022.1.2,59.9425869901309,4,
7,exp3.png,exp4.png,,,,,,,,,,,,,,,,,,2,0,2,0,0,7,7,7,,,,,,,,,False,47,108,False,exp3.png,exp4.png,trial_right_image,-1,exp4.png,4,exp3.png,exp4.png,1,3,reversed,incorrect,0.5020106150549615,0,valid_lose,703.3209145999999,61,,,,,,,,,,,,,,,,sub_880,2025-04-04_10h21.40.933,Reversal,2022.1.2,59.9425869901309,4,
8,exp1.png,exp2.png,,,,,,,,,,,,,,,,,,2,0,2,0,0,8,8,8,,,,,,,,,False,48,109,True,exp2.png,exp1.png,trial_right_image,-1,exp1.png,4,exp2.png,exp1.png,0,2,non-reversed,incorrect,0.7773284267622556,0,valid_lose,708.1539085000004,61,,,,,,,,,,,,,,,,sub_880,2025-04-04_10h21.40.933,Reversal,2022.1.2,59.9425869901309,4,
9,exp3.png,exp4.png,,,,,,,,,,,,,,,,,,2,0,2,0,0,9,9,9,,,,,,,,,False,49,110,True,exp4.png,exp3.png,trial_right_image,-1,exp3.png,4,exp3.png,exp4.png,0,4,reversed,correct,0.34603434911233943,1,valid_win,712.5203207000004,62,,,,,,,,,,,,,,,,sub_880,2025-04-04_10h21.40.933,Reversal,2022.1.2,59.9425869901309,4,
10,exp1.png,exp2.png,,,,,,,,,,,,,,,,,,2,0,2,0,0,10,10,10,,,,,,,,,False,50,111,False,exp1.png,exp2.png,trial_right_image,-1,exp2.png,4,exp2.png,exp1.png,1,1,non-reversed,correct,0.8998319646117698,1,valid_win,716.8869590000004,63,,,,,,,,,,,,,,,,sub_880,2025-04-04_10h21.40.933,Reversal,2022.1.2,59.9425869901309,4,
11,exp3.png,exp4.png,,,,,,,,,,,,,,,,,,2,0,2,0,0,11,11,11,,,,,,,,,False,51,112,False,exp3.png,exp4.png,trial_left_image,1,exp3.png,4,exp3.png,exp4.png,0,4,reversed,correct,0.24925217051369053,0,invalid_lose,721.1708552,63,,,,,,,,,,,,,,,,sub_880,2025-04-04_10h21.40.933,Reversal,2022.1.2,59.9425869901309,4,
12,exp1.png,exp2.png,,,,,,,,,,,,,,,,,,2,0,2,0,0,12,12,12,,,,,,,,,False,52,113,True,exp2.png,exp1.png,trial_right_image,-1,exp1.png,4,exp2.png,exp1.png,0,2,non-reversed,incorrect,0.5043644816412944,0,valid_lose,725.5695960000003,63,,,,,,,,,,,,,,,,sub_880,2025-04-04_10h21.40.933,Reversal,2022.1.2,59.9425869901309,4,
13,exp3.png,exp4.png,,,,,,,,,,,,,,,,,,2,0,2,0,0,13,13,13,,,,,,,,,False,53,114,True,exp4.png,exp3.png,trial_right_image,-1,exp3.png,4,exp3.png,exp4.png,0,4,reversed,correct,0.46911633789359464,1,valid_win,729.6538663000001,64,,,,,,,,,,,,,,,,sub_880,2025-04-04_10h21.40.933,Reversal,2022.1.2,59.9425869901309,4,
14,exp1.png,exp2.png,,,,,,,,,,,,,,,,,,2,0,2,0,0,14,14,14,,,,,,,,,False,54,115,False,exp1.png,exp2.png,trial_left_image,1,exp1.png,4,exp2.png,exp1.png,0,2,non-reversed,incorrect,0.04268747198900458,1,invalid_win,734.1366318999999,65,,,,,,,,,,,,,,,,sub_880,2025-04-04_10h21.40.933,Reversal,2022.1.2,59.9425869901309,4,
15,exp3.png,exp4.png,,,,,,,,,,,,,,,,,,2,0,2,0,0,15,15,15,,,,,,,,,False,55,116,True,exp4.png,exp3.png,trial_right_image,-1,exp3.png,4,exp3.png,exp4.png,0,4,reversed,correct,0.8763397228887976,1,valid_win,739.1537379000001,66,,,,,,,,,,,,,,,,sub_880,2025-04-04_10h21.40.933,Reversal,2022.1.2,59.9425869901309,4,
16,exp1.png,exp2.png,,,,,,,,,,,,,,,,,,2,0,2,0,0,16,16,16,,,,,,,,,False,56,117,False,exp1.png,exp2.png,trial_left_image,1,exp1.png,4,exp2.png,exp1.png,0,2,non-reversed,incorrect,0.29859465782229755,0,valid_lose,743.6026452000006,66,,,,,,,,,,,,,,,,sub_880,2025-04-04_10h21.40.933,Reversal,2022.1.2,59.9425869901309,4,
17,exp3.png,exp4.png,,,,,,,,,,,,,,,,,,2,0,2,0,0,17,17,17,,,,,,,,,False,57,118,False,exp3.png,exp4.png,trial_left_image,1,exp3.png,4,exp3.png,exp4.png,0,4,reversed,correct,0.14561871281066208,0,invalid_lose,747.8695455000006,66,,,,,,,,,,,,,,,,sub_880,2025-04-04_10h21.40.933,Reversal,2022.1.2,59.9425869901309,4,
18,exp1.png,exp2.png,,,,,,,,,,,,,,,,,,2,0,2,0,0,18,18,18,,,,,,,,,False,58,119,True,exp2.png,exp1.png,trial_right_image,-1,exp1.png,4,exp2.png,exp1.png,0,2,non-reversed,incorrect,0.7607091767408243,0,valid_lose,752.2034393000004,66,,,,,,,,,,,,,,,,sub_880,2025-04-04_10h21.40.933,Reversal,2022.1.2,59.9425869901309,4,
19,exp3.png,exp4.png,,,,,,,,,,,,,,,,,,2,0,2,0,0,19,19,19,,,,,,,,,False,59,120,True,exp4.png,exp3.png,trial_left_image,1,exp4.png,4,exp3.png,exp4.png,1,3,reversed,incorrect,0.9183088464363688,0,valid_lose,756.4866261000006,66,,,,,,,,,,,,,,,,sub_880,2025-04-04_10h21.40.933,Reversal,2022.1.2,59.9425869901309,4,
20,exp1.png,exp2.png,,,,,,,,,,,,,,,,,,2,0,2,0,0,20,20,20,,,,,,,,,True,,,,,,,,,,,,,,,,,,,,,,,,,,,,,,,,,,,,sub_880,2025-04-04_10h21.40.933,Reversal,2022.1.2,59.9425869901309,4,
,,,exp1.png,,,,,,,,,,,,,,,,,2,0,2,0,,,,,0,0,0,0,0,0,0,0,,,,,,,,,,,,,,,,,,,,,,66.0,66.0,1.9689895000001343,"[(66.0, 1.9689895000001343)]",862.1940103999996,None,,,,,,,,,,sub_880,2025-04-04_10h21.40.933,Reversal,2022.1.2,59.9425869901309,4,
,,,exp2.png,,,,,,,,,,,,,,,,,2,0,2,0,,,,,0,0,0,0,0,1,1,1,,,,,,,,,,,,,,,,,,,,,,,67.0,1.668782900000224,"[(59.0, 0.8845682000001034), (67.0, 1.668782900000224)]",864.9234163000001,None,,,67.0,,,,,,,sub_880,2025-04-04_10h21.40.933,Reversal,2022.1.2,59.9425869901309,4,
,,,exp3.png,,,,,,,,,,,,,,,,,2,0,2,0,,,,,0,0,0,0,0,2,2,2,,,,,,,,,,,,,,,,,,,,,,,87.0,2.718090999999731,"[(92.0, 1.4186435000001438), (87.0, 2.718090999999731)]",867.4063295999995,None,87.0,,,,,,,,,sub_880,2025-04-04_10h21.40.933,Reversal,2022.1.2,59.9425869901309,4,
,,,exp4.png,,,,,,,,,,,,,,,,,2,0,2,0,,,,,0,0,0,0,0,3,3,3,,,,,,,,,,,,,,,,,,,,,,,70.0,1.4969848999999158,"[(70.0, 1.4969848999999158)]",870.9758771999996,None,,70.0,,,,,,,,sub_880,2025-04-04_10h21.40.933,Reversal,2022.1.2,59.9425869901309,4,
,,,,,,,,,,,,,,,,,,,,,,,,,,,,,,,,,,,,,,,,,,,,,,,,,,,,,,,,66,,,,,,,,,,,86,47,39,333.4921934999993,0,,,,,,,
