trial_index,trial_image1_file,trial_image2_file,image_file,learning_outer_loop.thisRepN,learning_outer_loop.thisTrialN,learning_outer_loop.thisN,learning_outer_loop.thisIndex,learning_inner_loop.thisRepN,learning_inner_loop.thisTrialN,learning_inner_loop.thisN,learning_inner_loop.thisIndex,learning_estimation_outer_loop.thisRepN,learning_estimation_outer_loop.thisTrialN,learning_estimation_outer_loop.thisN,learning_estimation_outer_loop.thisIndex,learning_estimation_inner_loop.thisRepN,learning_estimation_inner_loop.thisTrialN,learning_estimation_inner_loop.thisN,learning_estimation_inner_loop.thisIndex,reversal_outer_loop.thisRepN,reversal_outer_loop.thisTrialN,reversal_outer_loop.thisN,reversal_outer_loop.thisIndex,reversal_inner_loop.thisRepN,reversal_inner_loop.thisTrialN,reversal_inner_loop.thisN,reversal_inner_loop.thisIndex,reversal_estimation_outer_loop.thisRepN,reversal_estimation_outer_loop.thisTrialN,reversal_estimation_outer_loop.thisN,reversal_estimation_outer_loop.thisIndex,reversal_estimation_inner_loop.thisRepN,reversal_estimation_inner_loop.thisTrialN,reversal_estimation_inner_loop.thisN,reversal_estimation_inner_loop.thisIndex,skipped,total_trial_counter,trial_num,left_right_flip,left_image_file,right_image_file,clicked_stimulus_side,side,clicked_stimulus,version,high_prob_image_file,low_prob_image_file,choice_a,choice_b,pair_type,correct,trial_feedback_random,reward,trial_type,overall_time_after_trial,score,estimation_exp1.png,estimation_rating.response,estimation_rating.rt,estimation_rating.history,estimation_rating.started,estimation_rating.stopped,estimation_exp2.png,estimation_exp3.png,estimation_exp4.png,total_learning_time,total_correct,learning_correct,reversal_correct,total_reversal_time,extra_block,end_experiment.keys,end_experiment.rt,participant,date,expName,psychopyVersion,frameRate,ver,
0,exp1.png,exp2.png,,0,0,0,0,0,0,0,0,,,,,,,,,,,,,,,,,,,,,,,,,False,0,1,True,exp2.png,exp1.png,trial_left_image,1,exp2.png,3,exp2.png,exp1.png,1,3,reversed,correct,0.051856123722465286,0,invalid_lose,3.865668799960986,0,,,,,,,,,,,,,,,,,,sub_899,2025-03-21_10h55.06.557,Reversal,2022.1.2,60.02386544701902,3,
1,exp3.png,exp4.png,,0,0,0,0,0,1,1,1,,,,,,,,,,,,,,,,,,,,,,,,,False,1,2,True,exp4.png,exp3.png,trial_right_image,-1,exp3.png,3,exp4.png,exp3.png,0,2,non-reversed,incorrect,0.49213276040914755,0,valid_lose,10.765860999934375,0,,,,,,,,,,,,,,,,,,sub_899,2025-03-21_10h55.06.557,Reversal,2022.1.2,60.02386544701902,3,
2,exp1.png,exp2.png,,0,0,0,0,0,2,2,2,,,,,,,,,,,,,,,,,,,,,,,,,False,2,3,False,exp1.png,exp2.png,trial_right_image,-1,exp2.png,3,exp2.png,exp1.png,1,3,reversed,correct,0.41286644184294596,1,valid_win,15.748869800008833,1,,,,,,,,,,,,,,,,,,sub_899,2025-03-21_10h55.06.557,Reversal,2022.1.2,60.02386544701902,3,
3,exp3.png,exp4.png,,0,0,0,0,0,3,3,3,,,,,,,,,,,,,,,,,,,,,,,,,False,3,4,False,exp3.png,exp4.png,trial_left_image,1,exp3.png,3,exp4.png,exp3.png,0,2,non-reversed,incorrect,0.6020530311852854,0,valid_lose,22.99874610011466,1,,,,,,,,,,,,,,,,,,sub_899,2025-03-21_10h55.06.557,Reversal,2022.1.2,60.02386544701902,3,
4,exp1.png,exp2.png,,0,0,0,0,0,4,4,4,,,,,,,,,,,,,,,,,,,,,,,,,False,4,5,False,exp1.png,exp2.png,trial_right_image,-1,exp2.png,3,exp2.png,exp1.png,1,3,reversed,correct,0.8180478103403241,1,valid_win,27.365756100043654,2,,,,,,,,,,,,,,,,,,sub_899,2025-03-21_10h55.06.557,Reversal,2022.1.2,60.02386544701902,3,
5,exp3.png,exp4.png,,0,0,0,0,0,5,5,5,,,,,,,,,,,,,,,,,,,,,,,,,False,5,6,True,exp4.png,exp3.png,trial_left_image,1,exp4.png,3,exp4.png,exp3.png,1,1,non-reversed,correct,0.05057674173798943,0,invalid_lose,32.065364700043574,2,,,,,,,,,,,,,,,,,,sub_899,2025-03-21_10h55.06.557,Reversal,2022.1.2,60.02386544701902,3,
6,exp1.png,exp2.png,,0,0,0,0,0,6,6,6,,,,,,,,,,,,,,,,,,,,,,,,,False,6,7,True,exp2.png,exp1.png,trial_right_image,-1,exp1.png,3,exp2.png,exp1.png,0,4,reversed,incorrect,0.6426071605241391,0,valid_lose,40.582306700060144,2,,,,,,,,,,,,,,,,,,sub_899,2025-03-21_10h55.06.557,Reversal,2022.1.2,60.02386544701902,3,
7,exp3.png,exp4.png,,0,0,0,0,0,7,7,7,,,,,,,,,,,,,,,,,,,,,,,,,False,7,8,False,exp3.png,exp4.png,trial_right_image,-1,exp4.png,3,exp4.png,exp3.png,1,1,non-reversed,correct,0.3577663799725851,1,valid_win,45.38179220003076,3,,,,,,,,,,,,,,,,,,sub_899,2025-03-21_10h55.06.557,Reversal,2022.1.2,60.02386544701902,3,
8,exp1.png,exp2.png,,0,0,0,0,0,8,8,8,,,,,,,,,,,,,,,,,,,,,,,,,False,8,9,True,exp2.png,exp1.png,trial_left_image,1,exp2.png,3,exp2.png,exp1.png,1,3,reversed,correct,0.1499433843595689,0,invalid_lose,52.29835469997488,3,,,,,,,,,,,,,,,,,,sub_899,2025-03-21_10h55.06.557,Reversal,2022.1.2,60.02386544701902,3,
9,exp3.png,exp4.png,,0,0,0,0,0,9,9,9,,,,,,,,,,,,,,,,,,,,,,,,,False,9,10,True,exp4.png,exp3.png,trial_right_image,-1,exp3.png,3,exp4.png,exp3.png,0,2,non-reversed,incorrect,0.8212610426391057,0,valid_lose,58.031574100023136,3,,,,,,,,,,,,,,,,,,sub_899,2025-03-21_10h55.06.557,Reversal,2022.1.2,60.02386544701902,3,
10,exp1.png,exp2.png,,0,0,0,0,0,10,10,10,,,,,,,,,,,,,,,,,,,,,,,,,False,10,11,True,exp2.png,exp1.png,trial_left_image,1,exp2.png,3,exp2.png,exp1.png,1,3,reversed,correct,0.4536716997374396,1,valid_win,62.931502300081775,4,,,,,,,,,,,,,,,,,,sub_899,2025-03-21_10h55.06.557,Reversal,2022.1.2,60.02386544701902,3,
11,exp3.png,exp4.png,,0,0,0,0,0,11,11,11,,,,,,,,,,,,,,,,,,,,,,,,,False,11,12,False,exp3.png,exp4.png,trial_right_image,-1,exp4.png,3,exp4.png,exp3.png,1,1,non-reversed,correct,0.7022170117219747,1,valid_win,68.01457040011883,5,,,,,,,,,,,,,,,,,,sub_899,2025-03-21_10h55.06.557,Reversal,2022.1.2,60.02386544701902,3,
12,exp1.png,exp2.png,,0,0,0,0,0,12,12,12,,,,,,,,,,,,,,,,,,,,,,,,,False,12,13,False,exp1.png,exp2.png,trial_right_image,-1,exp2.png,3,exp2.png,exp1.png,1,3,reversed,correct,0.6578941612986606,1,valid_win,73.21494790003635,6,,,,,,,,,,,,,,,,,,sub_899,2025-03-21_10h55.06.557,Reversal,2022.1.2,60.02386544701902,3,
13,exp3.png,exp4.png,,0,0,0,0,0,13,13,13,,,,,,,,,,,,,,,,,,,,,,,,,False,13,14,False,exp3.png,exp4.png,trial_right_image,-1,exp4.png,3,exp4.png,exp3.png,1,1,non-reversed,correct,0.801527797237906,1,valid_win,78.24787000007927,7,,,,,,,,,,,,,,,,,,sub_899,2025-03-21_10h55.06.557,Reversal,2022.1.2,60.02386544701902,3,
14,exp1.png,exp2.png,,0,0,0,0,0,14,14,14,,,,,,,,,,,,,,,,,,,,,,,,,False,14,15,False,exp1.png,exp2.png,trial_right_image,-1,exp2.png,3,exp2.png,exp1.png,1,3,reversed,correct,0.04985434564558,0,invalid_lose,83.11438919999637,7,,,,,,,,,,,,,,,,,,sub_899,2025-03-21_10h55.06.557,Reversal,2022.1.2,60.02386544701902,3,
15,exp3.png,exp4.png,,0,0,0,0,0,15,15,15,,,,,,,,,,,,,,,,,,,,,,,,,False,15,16,False,exp3.png,exp4.png,trial_right_image,-1,exp4.png,3,exp4.png,exp3.png,1,1,non-reversed,correct,0.41348841306933015,1,valid_win,88.69917339994572,8,,,,,,,,,,,,,,,,,,sub_899,2025-03-21_10h55.06.557,Reversal,2022.1.2,60.02386544701902,3,
16,exp1.png,exp2.png,,0,0,0,0,0,16,16,16,,,,,,,,,,,,,,,,,,,,,,,,,False,16,17,False,exp1.png,exp2.png,trial_right_image,-1,exp2.png,3,exp2.png,exp1.png,1,3,reversed,correct,0.7255693363866936,1,valid_win,94.23097350005992,9,,,,,,,,,,,,,,,,,,sub_899,2025-03-21_10h55.06.557,Reversal,2022.1.2,60.02386544701902,3,
17,exp3.png,exp4.png,,0,0,0,0,0,17,17,17,,,,,,,,,,,,,,,,,,,,,,,,,False,17,18,True,exp4.png,exp3.png,trial_left_image,1,exp4.png,3,exp4.png,exp3.png,1,1,non-reversed,correct,0.9769224254538792,1,valid_win,98.91403520014137,10,,,,,,,,,,,,,,,,,,sub_899,2025-03-21_10h55.06.557,Reversal,2022.1.2,60.02386544701902,3,
18,exp1.png,exp2.png,,0,0,0,0,0,18,18,18,,,,,,,,,,,,,,,,,,,,,,,,,False,18,19,True,exp2.png,exp1.png,trial_left_image,1,exp2.png,3,exp2.png,exp1.png,1,3,reversed,correct,0.7702121379893254,1,valid_win,103.43166869995184,11,,,,,,,,,,,,,,,,,,sub_899,2025-03-21_10h55.06.557,Reversal,2022.1.2,60.02386544701902,3,
19,exp3.png,exp4.png,,0,0,0,0,0,19,19,19,,,,,,,,,,,,,,,,,,,,,,,,,False,19,20,True,exp4.png,exp3.png,trial_left_image,1,exp4.png,3,exp4.png,exp3.png,1,1,non-reversed,correct,0.5942995568209524,1,valid_win,109.11388160008937,12,,,,,,,,,,,,,,,,,,sub_899,2025-03-21_10h55.06.557,Reversal,2022.1.2,60.02386544701902,3,
20,exp1.png,exp2.png,,0,0,0,0,0,20,20,20,,,,,,,,,,,,,,,,,,,,,,,,,True,,,,,,,,,,,,,,,,,,,,,,,,,,,,,,,,,,,,,,sub_899,2025-03-21_10h55.06.557,Reversal,2022.1.2,60.02386544701902,3,
,,,exp1.png,0,0,0,0,,,,,0,0,0,0,0,0,0,0,,,,,,,,,,,,,,,,,,,,,,,,,,,,,,,,,,,,,,100.0,100.0,13.247294200118631,"[(100.0, 12.846616200171411), (100.0, 13.247294200118631)]",189.37327480013482,None,,,,,,,,,,,,sub_899,2025-03-21_10h55.06.557,Reversal,2022.1.2,60.02386544701902,3,
,,,exp2.png,0,0,0,0,,,,,0,0,0,0,0,1,1,1,,,,,,,,,,,,,,,,,,,,,,,,,,,,,,,,,,,,,,,100.0,18.625512100057676,"[(99.0, 9.258128899848089), (95.0, 11.824987099971622), (100.0, 18.625512100057676)]",207.81056520016864,None,100.0,,,,,,,,,,,sub_899,2025-03-21_10h55.06.557,Reversal,2022.1.2,60.02386544701902,3,
,,,exp3.png,0,0,0,0,,,,,0,0,0,0,0,2,2,2,,,,,,,,,,,,,,,,,,,,,,,,,,,,,,,,,,,,,,,2.0,20.630925400182605,"[(2.0, 20.630925400182605)]",229.72013210016303,None,,2.0,,,,,,,,,,sub_899,2025-03-21_10h55.06.557,Reversal,2022.1.2,60.02386544701902,3,
,,,exp4.png,0,0,0,0,,,,,0,0,0,0,0,3,3,3,,,,,,,,,,,,,,,,,,,,,,,,,,,,,,,,,,,,,,,86.0,15.354017399949953,"[(53.0, 7.606440499890596), (53.0, 8.638681099982932), (53.0, 9.087047799956053), (69.0, 10.805427999934182), (73.0, 12.021844799863175), (73.0, 13.005499999970198), (73.0, 13.521830099867657), (73.0, 14.203381599858403), (86.0, 15.354017399949953)]",253.3333172001876,None,,,86.0,,,,,,,,,sub_899,2025-03-21_10h55.06.557,Reversal,2022.1.2,60.02386544701902,3,
0,exp1.png,exp2.png,,1,0,1,0,0,0,0,0,,,,,,,,,,,,,,,,,,,,,,,,,False,20,21,False,exp1.png,exp2.png,trial_right_image,-1,exp2.png,3,exp2.png,exp1.png,1,3,reversed,correct,0.9685651234336236,1,valid_win,199.1143775000237,13,,,,,,,,,,,,,,,,,,sub_899,2025-03-21_10h55.06.557,Reversal,2022.1.2,60.02386544701902,3,
1,exp3.png,exp4.png,,1,0,1,0,0,1,1,1,,,,,,,,,,,,,,,,,,,,,,,,,False,21,22,False,exp3.png,exp4.png,trial_right_image,-1,exp4.png,3,exp4.png,exp3.png,1,1,non-reversed,correct,0.5028043633575521,1,valid_win,204.0306601000484,14,,,,,,,,,,,,,,,,,,sub_899,2025-03-21_10h55.06.557,Reversal,2022.1.2,60.02386544701902,3,
2,exp1.png,exp2.png,,1,0,1,0,0,2,2,2,,,,,,,,,,,,,,,,,,,,,,,,,False,22,23,False,exp1.png,exp2.png,trial_right_image,-1,exp2.png,3,exp2.png,exp1.png,1,3,reversed,correct,0.1895976480799042,0,invalid_lose,208.71449310006574,14,,,,,,,,,,,,,,,,,,sub_899,2025-03-21_10h55.06.557,Reversal,2022.1.2,60.02386544701902,3,
3,exp3.png,exp4.png,,1,0,1,0,0,3,3,3,,,,,,,,,,,,,,,,,,,,,,,,,False,23,24,True,exp4.png,exp3.png,trial_left_image,1,exp4.png,3,exp4.png,exp3.png,1,1,non-reversed,correct,0.6265876701911678,1,valid_win,213.49550770013593,15,,,,,,,,,,,,,,,,,,sub_899,2025-03-21_10h55.06.557,Reversal,2022.1.2,60.02386544701902,3,
4,exp1.png,exp2.png,,1,0,1,0,0,4,4,4,,,,,,,,,,,,,,,,,,,,,,,,,False,24,25,True,exp2.png,exp1.png,trial_left_image,1,exp2.png,3,exp2.png,exp1.png,1,3,reversed,correct,0.3467815015323863,1,valid_win,218.64583669998683,16,,,,,,,,,,,,,,,,,,sub_899,2025-03-21_10h55.06.557,Reversal,2022.1.2,60.02386544701902,3,
5,exp3.png,exp4.png,,1,0,1,0,0,5,5,5,,,,,,,,,,,,,,,,,,,,,,,,,False,25,26,False,exp3.png,exp4.png,trial_right_image,-1,exp4.png,3,exp4.png,exp3.png,1,1,non-reversed,correct,0.9819246314341259,1,valid_win,223.5786713999696,17,,,,,,,,,,,,,,,,,,sub_899,2025-03-21_10h55.06.557,Reversal,2022.1.2,60.02386544701902,3,
6,exp1.png,exp2.png,,1,0,1,0,0,6,6,6,,,,,,,,,,,,,,,,,,,,,,,,,False,26,27,False,exp1.png,exp2.png,trial_right_image,-1,exp2.png,3,exp2.png,exp1.png,1,3,reversed,correct,0.6325867496140868,1,valid_win,228.07901780004613,18,,,,,,,,,,,,,,,,,,sub_899,2025-03-21_10h55.06.557,Reversal,2022.1.2,60.02386544701902,3,
7,exp3.png,exp4.png,,1,0,1,0,0,7,7,7,,,,,,,,,,,,,,,,,,,,,,,,,False,27,28,True,exp4.png,exp3.png,trial_left_image,1,exp4.png,3,exp4.png,exp3.png,1,1,non-reversed,correct,0.6414745847224673,1,valid_win,232.52840570011176,19,,,,,,,,,,,,,,,,,,sub_899,2025-03-21_10h55.06.557,Reversal,2022.1.2,60.02386544701902,3,
8,exp1.png,exp2.png,,1,0,1,0,0,8,8,8,,,,,,,,,,,,,,,,,,,,,,,,,False,28,29,True,exp2.png,exp1.png,trial_left_image,1,exp2.png,3,exp2.png,exp1.png,1,3,reversed,correct,0.6214288698365891,1,valid_win,237.31170590012334,20,,,,,,,,,,,,,,,,,,sub_899,2025-03-21_10h55.06.557,Reversal,2022.1.2,60.02386544701902,3,
9,exp3.png,exp4.png,,1,0,1,0,0,9,9,9,,,,,,,,,,,,,,,,,,,,,,,,,False,29,30,True,exp4.png,exp3.png,trial_left_image,1,exp4.png,3,exp4.png,exp3.png,1,1,non-reversed,correct,0.07788764760904532,0,invalid_lose,242.8787042000331,20,,,,,,,,,,,,,,,,,,sub_899,2025-03-21_10h55.06.557,Reversal,2022.1.2,60.02386544701902,3,
10,exp1.png,exp2.png,,1,0,1,0,0,10,10,10,,,,,,,,,,,,,,,,,,,,,,,,,False,30,31,False,exp1.png,exp2.png,trial_right_image,-1,exp2.png,3,exp2.png,exp1.png,1,3,reversed,correct,0.8285390439921396,1,valid_win,248.41162290005013,21,,,,,,,,,,,,,,,,,,sub_899,2025-03-21_10h55.06.557,Reversal,2022.1.2,60.02386544701902,3,
11,exp3.png,exp4.png,,1,0,1,0,0,11,11,11,,,,,,,,,,,,,,,,,,,,,,,,,False,31,32,False,exp3.png,exp4.png,trial_right_image,-1,exp4.png,3,exp4.png,exp3.png,1,1,non-reversed,correct,0.1949641702377416,0,invalid_lose,252.7116586000193,21,,,,,,,,,,,,,,,,,,sub_899,2025-03-21_10h55.06.557,Reversal,2022.1.2,60.02386544701902,3,
12,exp1.png,exp2.png,,1,0,1,0,0,12,12,12,,,,,,,,,,,,,,,,,,,,,,,,,False,32,33,True,exp2.png,exp1.png,trial_left_image,1,exp2.png,3,exp2.png,exp1.png,1,3,reversed,correct,0.8004774505336774,1,valid_win,258.0613394000102,22,,,,,,,,,,,,,,,,,,sub_899,2025-03-21_10h55.06.557,Reversal,2022.1.2,60.02386544701902,3,
13,exp3.png,exp4.png,,1,0,1,0,0,13,13,13,,,,,,,,,,,,,,,,,,,,,,,,,False,33,34,True,exp4.png,exp3.png,trial_left_image,1,exp4.png,3,exp4.png,exp3.png,1,1,non-reversed,correct,0.21532455937856243,0,invalid_lose,263.01097820000723,22,,,,,,,,,,,,,,,,,,sub_899,2025-03-21_10h55.06.557,Reversal,2022.1.2,60.02386544701902,3,
14,exp1.png,exp2.png,,1,0,1,0,0,14,14,14,,,,,,,,,,,,,,,,,,,,,,,,,False,34,35,False,exp1.png,exp2.png,trial_right_image,-1,exp2.png,3,exp2.png,exp1.png,1,3,reversed,correct,0.9364363823183512,1,valid_win,268.02778270002455,23,,,,,,,,,,,,,,,,,,sub_899,2025-03-21_10h55.06.557,Reversal,2022.1.2,60.02386544701902,3,
15,exp3.png,exp4.png,,1,0,1,0,0,15,15,15,,,,,,,,,,,,,,,,,,,,,,,,,False,35,36,True,exp4.png,exp3.png,trial_left_image,1,exp4.png,3,exp4.png,exp3.png,1,1,non-reversed,correct,0.17222988581819254,0,invalid_lose,273.34442810015753,23,,,,,,,,,,,,,,,,,,sub_899,2025-03-21_10h55.06.557,Reversal,2022.1.2,60.02386544701902,3,
16,exp1.png,exp2.png,,1,0,1,0,0,16,16,16,,,,,,,,,,,,,,,,,,,,,,,,,False,36,37,False,exp1.png,exp2.png,trial_right_image,-1,exp2.png,3,exp2.png,exp1.png,1,3,reversed,correct,0.40495661561168794,1,valid_win,278.0448164001573,24,,,,,,,,,,,,,,,,,,sub_899,2025-03-21_10h55.06.557,Reversal,2022.1.2,60.02386544701902,3,
17,exp3.png,exp4.png,,1,0,1,0,0,17,17,17,,,,,,,,,,,,,,,,,,,,,,,,,False,37,38,False,exp3.png,exp4.png,trial_left_image,1,exp3.png,3,exp4.png,exp3.png,0,2,non-reversed,incorrect,0.04837343129834826,1,invalid_win,284.12789480015635,25,,,,,,,,,,,,,,,,,,sub_899,2025-03-21_10h55.06.557,Reversal,2022.1.2,60.02386544701902,3,
18,exp1.png,exp2.png,,1,0,1,0,0,18,18,18,,,,,,,,,,,,,,,,,,,,,,,,,False,38,39,True,exp2.png,exp1.png,trial_right_image,-1,exp1.png,3,exp2.png,exp1.png,0,4,reversed,incorrect,0.7766228382705849,0,valid_lose,290.277351600118,25,,,,,,,,,,,,,,,,,,sub_899,2025-03-21_10h55.06.557,Reversal,2022.1.2,60.02386544701902,3,
19,exp3.png,exp4.png,,1,0,1,0,0,19,19,19,,,,,,,,,,,,,,,,,,,,,,,,,False,39,40,True,exp4.png,exp3.png,trial_left_image,1,exp4.png,3,exp4.png,exp3.png,1,1,non-reversed,correct,0.7660237940128304,1,valid_win,295.0611177999526,26,,,,,,,,,,,,,,,,,,sub_899,2025-03-21_10h55.06.557,Reversal,2022.1.2,60.02386544701902,3,
20,exp1.png,exp2.png,,1,0,1,0,0,20,20,20,,,,,,,,,,,,,,,,,,,,,,,,,True,,,,,,,,,,,,,,,,,,,,,,,,,,,,,,,,,,,,,,sub_899,2025-03-21_10h55.06.557,Reversal,2022.1.2,60.02386544701902,3,
,,,exp1.png,1,0,1,0,,,,,0,0,0,0,0,0,0,0,,,,,,,,,,,,,,,,,,,,,,,,,,,,,,,,,,,,,,67.0,67.0,12.940240500029176,"[(62.0, 9.154869199963287), (62.0, 9.506044500041753), (67.0, 12.190336900064722), (67.0, 12.940240500029176)]",375.32690530014224,None,,,,,,,,,,,,sub_899,2025-03-21_10h55.06.557,Reversal,2022.1.2,60.02386544701902,3,
,,,exp2.png,1,0,1,0,,,,,0,0,0,0,0,1,1,1,,,,,,,,,,,,,,,,,,,,,,,,,,,,,,,,,,,,,,,60.0,10.665891799842939,"[(59.0, 9.033674399834126), (60.0, 9.983425799990073), (60.0, 10.665891799842939)]",389.42631410015747,None,60.0,,,,,,,,,,,sub_899,2025-03-21_10h55.06.557,Reversal,2022.1.2,60.02386544701902,3,
,,,exp3.png,1,0,1,0,,,,,0,0,0,0,0,2,2,2,,,,,,,,,,,,,,,,,,,,,,,,,,,,,,,,,,,,,,,50.0,None,[],401.24573580012657,None,,,,,,,,,,,,sub_899,2025-03-21_10h55.06.557,Reversal,2022.1.2,60.02386544701902,3,
,,,exp4.png,1,0,1,0,,,,,0,0,0,0,0,3,3,3,,,,,,,,,,,,,,,,,,,,,,,,,,,,,,,,,,,,,,,100.0,5.7822934000287205,"[(100.0, 5.7822934000287205)]",404.6538548001554,None,,,100.0,,,,,,,,,sub_899,2025-03-21_10h55.06.557,Reversal,2022.1.2,60.02386544701902,3,
0,exp1.png,exp2.png,,2,0,2,0,0,0,0,0,,,,,,,,,,,,,,,,,,,,,,,,,False,40,41,True,exp2.png,exp1.png,trial_left_image,1,exp2.png,3,exp2.png,exp1.png,1,3,reversed,correct,0.4784438352018059,1,valid_win,340.12658170005307,27,,,,,,,,,,,,,,,,,,sub_899,2025-03-21_10h55.06.557,Reversal,2022.1.2,60.02386544701902,3,
1,exp3.png,exp4.png,,2,0,2,0,0,1,1,1,,,,,,,,,,,,,,,,,,,,,,,,,False,41,42,True,exp4.png,exp3.png,trial_left_image,1,exp4.png,3,exp4.png,exp3.png,1,1,non-reversed,correct,0.6097593101872281,1,valid_win,344.9098148001358,28,,,,,,,,,,,,,,,,,,sub_899,2025-03-21_10h55.06.557,Reversal,2022.1.2,60.02386544701902,3,
2,exp1.png,exp2.png,,2,0,2,0,0,2,2,2,,,,,,,,,,,,,,,,,,,,,,,,,False,42,43,True,exp2.png,exp1.png,trial_left_image,1,exp2.png,3,exp2.png,exp1.png,1,3,reversed,correct,0.797211978952714,1,valid_win,349.60964599996805,29,,,,,,,,,,,,,,,,,,sub_899,2025-03-21_10h55.06.557,Reversal,2022.1.2,60.02386544701902,3,
3,exp3.png,exp4.png,,2,0,2,0,0,3,3,3,,,,,,,,,,,,,,,,,,,,,,,,,False,43,44,True,exp4.png,exp3.png,trial_left_image,1,exp4.png,3,exp4.png,exp3.png,1,1,non-reversed,correct,0.5302254097871747,1,valid_win,354.2762462000828,30,,,,,,,,,,,,,,,,,,sub_899,2025-03-21_10h55.06.557,Reversal,2022.1.2,60.02386544701902,3,
4,exp1.png,exp2.png,,2,0,2,0,0,4,4,4,,,,,,,,,,,,,,,,,,,,,,,,,False,44,45,False,exp1.png,exp2.png,trial_right_image,-1,exp2.png,3,exp2.png,exp1.png,1,3,reversed,correct,0.24814243941786807,0,invalid_lose,358.60941909998655,30,,,,,,,,,,,,,,,,,,sub_899,2025-03-21_10h55.06.557,Reversal,2022.1.2,60.02386544701902,3,
5,exp3.png,exp4.png,,2,0,2,0,0,5,5,5,,,,,,,,,,,,,,,,,,,,,,,,,False,45,46,False,exp3.png,exp4.png,trial_right_image,-1,exp4.png,3,exp4.png,exp3.png,1,1,non-reversed,correct,0.32179930143042157,1,valid_win,363.4927485000808,31,,,,,,,,,,,,,,,,,,sub_899,2025-03-21_10h55.06.557,Reversal,2022.1.2,60.02386544701902,3,
6,exp1.png,exp2.png,,2,0,2,0,0,6,6,6,,,,,,,,,,,,,,,,,,,,,,,,,False,46,47,False,exp1.png,exp2.png,trial_right_image,-1,exp2.png,3,exp2.png,exp1.png,1,3,reversed,correct,0.7653523589183278,1,valid_win,369.01024179998785,32,,,,,,,,,,,,,,,,,,sub_899,2025-03-21_10h55.06.557,Reversal,2022.1.2,60.02386544701902,3,
7,exp3.png,exp4.png,,2,0,2,0,0,7,7,7,,,,,,,,,,,,,,,,,,,,,,,,,False,47,48,False,exp3.png,exp4.png,trial_right_image,-1,exp4.png,3,exp4.png,exp3.png,1,1,non-reversed,correct,0.23482970941785508,0,invalid_lose,373.42667430010624,32,,,,,,,,,,,,,,,,,,sub_899,2025-03-21_10h55.06.557,Reversal,2022.1.2,60.02386544701902,3,
8,exp1.png,exp2.png,,2,0,2,0,0,8,8,8,,,,,,,,,,,,,,,,,,,,,,,,,False,48,49,True,exp2.png,exp1.png,trial_left_image,1,exp2.png,3,exp2.png,exp1.png,1,3,reversed,correct,0.5059004035679382,1,valid_win,377.7593447000254,33,,,,,,,,,,,,,,,,,,sub_899,2025-03-21_10h55.06.557,Reversal,2022.1.2,60.02386544701902,3,
9,exp3.png,exp4.png,,2,0,2,0,0,9,9,9,,,,,,,,,,,,,,,,,,,,,,,,,False,49,50,False,exp3.png,exp4.png,trial_right_image,-1,exp4.png,3,exp4.png,exp3.png,1,1,non-reversed,correct,0.03366259728279508,0,invalid_lose,381.7599895999301,33,,,,,,,,,,,,,,,,,,sub_899,2025-03-21_10h55.06.557,Reversal,2022.1.2,60.02386544701902,3,
10,exp1.png,exp2.png,,2,0,2,0,0,10,10,10,,,,,,,,,,,,,,,,,,,,,,,,,False,50,51,True,exp2.png,exp1.png,trial_left_image,1,exp2.png,3,exp2.png,exp1.png,1,3,reversed,correct,0.7147582287965335,1,valid_win,386.54248629999347,34,,,,,,,,,,,,,,,,,,sub_899,2025-03-21_10h55.06.557,Reversal,2022.1.2,60.02386544701902,3,
11,exp3.png,exp4.png,,2,0,2,0,0,11,11,11,,,,,,,,,,,,,,,,,,,,,,,,,False,51,52,True,exp4.png,exp3.png,trial_left_image,1,exp4.png,3,exp4.png,exp3.png,1,1,non-reversed,correct,0.15266009238377387,0,invalid_lose,391.50919499993324,34,,,,,,,,,,,,,,,,,,sub_899,2025-03-21_10h55.06.557,Reversal,2022.1.2,60.02386544701902,3,
12,exp1.png,exp2.png,,2,0,2,0,0,12,12,12,,,,,,,,,,,,,,,,,,,,,,,,,False,52,53,False,exp1.png,exp2.png,trial_right_image,-1,exp2.png,3,exp2.png,exp1.png,1,3,reversed,correct,0.3730636976271824,1,valid_win,396.392152100103,35,,,,,,,,,,,,,,,,,,sub_899,2025-03-21_10h55.06.557,Reversal,2022.1.2,60.02386544701902,3,
13,exp3.png,exp4.png,,2,0,2,0,0,13,13,13,,,,,,,,,,,,,,,,,,,,,,,,,False,53,54,True,exp4.png,exp3.png,trial_left_image,1,exp4.png,3,exp4.png,exp3.png,1,1,non-reversed,correct,0.29571951844186983,1,valid_win,401.05889240000397,36,,,,,,,,,,,,,,,,,,sub_899,2025-03-21_10h55.06.557,Reversal,2022.1.2,60.02386544701902,3,
14,exp1.png,exp2.png,,2,0,2,0,0,14,14,14,,,,,,,,,,,,,,,,,,,,,,,,,False,54,55,False,exp1.png,exp2.png,trial_right_image,-1,exp2.png,3,exp2.png,exp1.png,1,3,reversed,correct,0.09780829215079978,0,invalid_lose,406.9925693999976,36,,,,,,,,,,,,,,,,,,sub_899,2025-03-21_10h55.06.557,Reversal,2022.1.2,60.02386544701902,3,
15,exp3.png,exp4.png,,2,0,2,0,0,15,15,15,,,,,,,,,,,,,,,,,,,,,,,,,False,55,56,True,exp4.png,exp3.png,trial_left_image,1,exp4.png,3,exp4.png,exp3.png,1,1,non-reversed,correct,0.8257785376453167,1,valid_win,412.97609050013125,37,,,,,,,,,,,,,,,,,,sub_899,2025-03-21_10h55.06.557,Reversal,2022.1.2,60.02386544701902,3,
16,exp1.png,exp2.png,,2,0,2,0,0,16,16,16,,,,,,,,,,,,,,,,,,,,,,,,,False,56,57,False,exp1.png,exp2.png,trial_left_image,1,exp1.png,3,exp2.png,exp1.png,0,4,reversed,incorrect,0.4521156504263135,0,valid_lose,419.05889119999483,37,,,,,,,,,,,,,,,,,,sub_899,2025-03-21_10h55.06.557,Reversal,2022.1.2,60.02386544701902,3,
17,exp3.png,exp4.png,,2,0,2,0,0,17,17,17,,,,,,,,,,,,,,,,,,,,,,,,,False,57,58,False,exp3.png,exp4.png,trial_right_image,-1,exp4.png,3,exp4.png,exp3.png,1,1,non-reversed,correct,0.35470950384417865,1,valid_win,423.65880220010877,38,,,,,,,,,,,,,,,,,,sub_899,2025-03-21_10h55.06.557,Reversal,2022.1.2,60.02386544701902,3,
18,exp1.png,exp2.png,,2,0,2,0,0,18,18,18,,,,,,,,,,,,,,,,,,,,,,,,,False,58,59,True,exp2.png,exp1.png,trial_right_image,-1,exp1.png,3,exp2.png,exp1.png,0,4,reversed,incorrect,0.7568763832948201,0,valid_lose,428.825611300068,38,,,,,,,,,,,,,,,,,,sub_899,2025-03-21_10h55.06.557,Reversal,2022.1.2,60.02386544701902,3,
19,exp3.png,exp4.png,,2,0,2,0,0,19,19,19,,,,,,,,,,,,,,,,,,,,,,,,,False,59,60,False,exp3.png,exp4.png,trial_right_image,-1,exp4.png,3,exp4.png,exp3.png,1,1,non-reversed,correct,0.3376447613672686,1,valid_win,433.5914888000116,39,,,,,,,,,,,,,,,,,,sub_899,2025-03-21_10h55.06.557,Reversal,2022.1.2,60.02386544701902,3,
20,exp1.png,exp2.png,,2,0,2,0,0,20,20,20,,,,,,,,,,,,,,,,,,,,,,,,,True,,,,,,,,,,,,,,,,,,,,,,,,,,,,,,,,,,,,,,sub_899,2025-03-21_10h55.06.557,Reversal,2022.1.2,60.02386544701902,3,
,,,exp1.png,2,0,2,0,,,,,0,0,0,0,0,0,0,0,,,,,,,,,,,,,,,,,,,,,,,,,,,,,,,,,,,,,,67.0,67.0,11.202164100017399,"[(67.0, 10.333625600207597), (67.0, 11.202164100017399)]",513.852637700038,None,,,,,,,,,,,,sub_899,2025-03-21_10h55.06.557,Reversal,2022.1.2,60.02386544701902,3,
,,,exp2.png,2,0,2,0,,,,,0,0,0,0,0,1,1,1,,,,,,,,,,,,,,,,,,,,,,,,,,,,,,,,,,,,,,,100.0,12.628915200009942,"[(63.0, 10.329557599965483), (100.0, 12.628915200009942)]",526.781905699987,None,100.0,,,,,,,,,,,sub_899,2025-03-21_10h55.06.557,Reversal,2022.1.2,60.02386544701902,3,
,,,exp3.png,2,0,2,0,,,,,0,0,0,0,0,2,2,2,,,,,,,,,,,,,,,,,,,,,,,,,,,,,,,,,,,,,,,50.0,None,[],541.3275148000102,None,,,,,,,,,,,,sub_899,2025-03-21_10h55.06.557,Reversal,2022.1.2,60.02386544701902,3,
,,,exp4.png,2,0,2,0,,,,,0,0,0,0,0,3,3,3,,,,,,,,,,,,,,,,,,,,,,,,,,,,,,,,,,,,,,,69.0,6.817429599817842,"[(69.0, 6.817429599817842)]",548.8544741000514,None,,,69.0,,,,,,,,,sub_899,2025-03-21_10h55.06.557,Reversal,2022.1.2,60.02386544701902,3,
0,exp1.png,exp2.png,,,,,,,,,,,,,,,,,,0,0,0,0,0,0,0,0,,,,,,,,,False,0,61,True,exp2.png,exp1.png,trial_left_image,1,exp2.png,3,exp1.png,exp2.png,1,3,reversed,incorrect,0.3859580424559933,0,valid_lose,483.35758650000207,39,,,,,,,,,,479.2644517000299,,,,,,,,sub_899,2025-03-21_10h55.06.557,Reversal,2022.1.2,60.02386544701902,3,
1,exp3.png,exp4.png,,,,,,,,,,,,,,,,,,0,0,0,0,0,1,1,1,,,,,,,,,False,1,62,False,exp3.png,exp4.png,trial_right_image,-1,exp4.png,3,exp4.png,exp3.png,1,1,non-reversed,correct,0.5178955092502336,1,valid_win,489.173919999972,40,,,,,,,,,,,,,,,,,,sub_899,2025-03-21_10h55.06.557,Reversal,2022.1.2,60.02386544701902,3,
2,exp1.png,exp2.png,,,,,,,,,,,,,,,,,,0,0,0,0,0,2,2,2,,,,,,,,,False,2,63,True,exp2.png,exp1.png,trial_left_image,1,exp2.png,3,exp1.png,exp2.png,1,3,reversed,incorrect,0.6589663057725254,0,valid_lose,495.3404701000545,40,,,,,,,,,,,,,,,,,,sub_899,2025-03-21_10h55.06.557,Reversal,2022.1.2,60.02386544701902,3,
3,exp3.png,exp4.png,,,,,,,,,,,,,,,,,,0,0,0,0,0,3,3,3,,,,,,,,,False,3,64,False,exp3.png,exp4.png,trial_right_image,-1,exp4.png,3,exp4.png,exp3.png,1,1,non-reversed,correct,0.7556126210088483,1,valid_win,500.20735709997825,41,,,,,,,,,,,,,,,,,,sub_899,2025-03-21_10h55.06.557,Reversal,2022.1.2,60.02386544701902,3,
4,exp1.png,exp2.png,,,,,,,,,,,,,,,,,,0,0,0,0,0,4,4,4,,,,,,,,,False,4,65,True,exp2.png,exp1.png,trial_left_image,1,exp2.png,3,exp1.png,exp2.png,1,3,reversed,incorrect,0.5615247171420236,0,valid_lose,504.8738782000728,41,,,,,,,,,,,,,,,,,,sub_899,2025-03-21_10h55.06.557,Reversal,2022.1.2,60.02386544701902,3,
5,exp3.png,exp4.png,,,,,,,,,,,,,,,,,,0,0,0,0,0,5,5,5,,,,,,,,,False,5,66,True,exp4.png,exp3.png,trial_left_image,1,exp4.png,3,exp4.png,exp3.png,1,1,non-reversed,correct,0.5375914112152568,1,valid_win,511.07403880008496,42,,,,,,,,,,,,,,,,,,sub_899,2025-03-21_10h55.06.557,Reversal,2022.1.2,60.02386544701902,3,
6,exp1.png,exp2.png,,,,,,,,,,,,,,,,,,0,0,0,0,0,6,6,6,,,,,,,,,False,6,67,True,exp2.png,exp1.png,trial_left_image,1,exp2.png,3,exp1.png,exp2.png,1,3,reversed,incorrect,0.9739431796648288,0,valid_lose,515.8734153001569,42,,,,,,,,,,,,,,,,,,sub_899,2025-03-21_10h55.06.557,Reversal,2022.1.2,60.02386544701902,3,
7,exp3.png,exp4.png,,,,,,,,,,,,,,,,,,0,0,0,0,0,7,7,7,,,,,,,,,False,7,68,False,exp3.png,exp4.png,trial_right_image,-1,exp4.png,3,exp4.png,exp3.png,1,1,non-reversed,correct,0.5142297114594605,1,valid_win,520.5909021999687,43,,,,,,,,,,,,,,,,,,sub_899,2025-03-21_10h55.06.557,Reversal,2022.1.2,60.02386544701902,3,
8,exp1.png,exp2.png,,,,,,,,,,,,,,,,,,0,0,0,0,0,8,8,8,,,,,,,,,False,8,69,False,exp1.png,exp2.png,trial_right_image,-1,exp2.png,3,exp1.png,exp2.png,1,3,reversed,incorrect,0.2881894926689773,0,valid_lose,525.4404150999617,43,,,,,,,,,,,,,,,,,,sub_899,2025-03-21_10h55.06.557,Reversal,2022.1.2,60.02386544701902,3,
9,exp3.png,exp4.png,,,,,,,,,,,,,,,,,,0,0,0,0,0,9,9,9,,,,,,,,,False,9,70,True,exp4.png,exp3.png,trial_left_image,1,exp4.png,3,exp4.png,exp3.png,1,1,non-reversed,correct,0.9452664097190746,1,valid_win,530.4232141999528,44,,,,,,,,,,,,,,,,,,sub_899,2025-03-21_10h55.06.557,Reversal,2022.1.2,60.02386544701902,3,
10,exp1.png,exp2.png,,,,,,,,,,,,,,,,,,0,0,0,0,0,10,10,10,,,,,,,,,False,10,71,False,exp1.png,exp2.png,trial_right_image,-1,exp2.png,3,exp1.png,exp2.png,1,3,reversed,incorrect,0.2130568297232981,1,invalid_win,535.6563794999383,45,,,,,,,,,,,,,,,,,,sub_899,2025-03-21_10h55.06.557,Reversal,2022.1.2,60.02386544701902,3,
11,exp3.png,exp4.png,,,,,,,,,,,,,,,,,,0,0,0,0,0,11,11,11,,,,,,,,,False,11,72,False,exp3.png,exp4.png,trial_right_image,-1,exp4.png,3,exp4.png,exp3.png,1,1,non-reversed,correct,0.6567982553237527,1,valid_win,541.6093580999877,46,,,,,,,,,,,,,,,,,,sub_899,2025-03-21_10h55.06.557,Reversal,2022.1.2,60.02386544701902,3,
12,exp1.png,exp2.png,,,,,,,,,,,,,,,,,,0,0,0,0,0,12,12,12,,,,,,,,,False,12,73,True,exp2.png,exp1.png,trial_right_image,-1,exp1.png,3,exp1.png,exp2.png,0,4,reversed,correct,0.5795419634750827,1,valid_win,549.6561897001229,47,,,,,,,,,,,,,,,,,,sub_899,2025-03-21_10h55.06.557,Reversal,2022.1.2,60.02386544701902,3,
13,exp3.png,exp4.png,,,,,,,,,,,,,,,,,,0,0,0,0,0,13,13,13,,,,,,,,,False,13,74,True,exp4.png,exp3.png,trial_left_image,1,exp4.png,3,exp4.png,exp3.png,1,1,non-reversed,correct,0.9981191272712722,1,valid_win,555.0231331000105,48,,,,,,,,,,,,,,,,,,sub_899,2025-03-21_10h55.06.557,Reversal,2022.1.2,60.02386544701902,3,
14,exp1.png,exp2.png,,,,,,,,,,,,,,,,,,0,0,0,0,0,14,14,14,,,,,,,,,False,14,75,False,exp1.png,exp2.png,trial_left_image,1,exp1.png,3,exp1.png,exp2.png,0,4,reversed,correct,0.6734343204945954,1,valid_win,560.6895864999387,49,,,,,,,,,,,,,,,,,,sub_899,2025-03-21_10h55.06.557,Reversal,2022.1.2,60.02386544701902,3,
15,exp3.png,exp4.png,,,,,,,,,,,,,,,,,,0,0,0,0,0,15,15,15,,,,,,,,,False,15,76,True,exp4.png,exp3.png,trial_left_image,1,exp4.png,3,exp4.png,exp3.png,1,1,non-reversed,correct,0.7993136739567225,1,valid_win,565.6224567999598,50,,,,,,,,,,,,,,,,,,sub_899,2025-03-21_10h55.06.557,Reversal,2022.1.2,60.02386544701902,3,
16,exp1.png,exp2.png,,,,,,,,,,,,,,,,,,0,0,0,0,0,16,16,16,,,,,,,,,False,16,77,False,exp1.png,exp2.png,trial_right_image,-1,exp2.png,3,exp1.png,exp2.png,1,3,reversed,incorrect,0.6547838911190007,0,valid_lose,570.3723566001281,50,,,,,,,,,,,,,,,,,,sub_899,2025-03-21_10h55.06.557,Reversal,2022.1.2,60.02386544701902,3,
17,exp3.png,exp4.png,,,,,,,,,,,,,,,,,,0,0,0,0,0,17,17,17,,,,,,,,,False,17,78,False,exp3.png,exp4.png,trial_right_image,-1,exp4.png,3,exp4.png,exp3.png,1,1,non-reversed,correct,0.011827833646474883,0,invalid_lose,575.1723168999888,50,,,,,,,,,,,,,,,,,,sub_899,2025-03-21_10h55.06.557,Reversal,2022.1.2,60.02386544701902,3,
18,exp1.png,exp2.png,,,,,,,,,,,,,,,,,,0,0,0,0,0,18,18,18,,,,,,,,,False,18,79,False,exp1.png,exp2.png,trial_left_image,1,exp1.png,3,exp1.png,exp2.png,0,4,reversed,correct,0.41513733519651863,1,valid_win,581.2390775000677,51,,,,,,,,,,,,,,,,,,sub_899,2025-03-21_10h55.06.557,Reversal,2022.1.2,60.02386544701902,3,
19,exp3.png,exp4.png,,,,,,,,,,,,,,,,,,0,0,0,0,0,19,19,19,,,,,,,,,False,19,80,True,exp4.png,exp3.png,trial_left_image,1,exp4.png,3,exp4.png,exp3.png,1,1,non-reversed,correct,0.4733594163822544,1,valid_win,587.1721342999954,52,,,,,,,,,,,,,,,,,,sub_899,2025-03-21_10h55.06.557,Reversal,2022.1.2,60.02386544701902,3,
20,exp1.png,exp2.png,,,,,,,,,,,,,,,,,,0,0,0,0,0,20,20,20,,,,,,,,,True,,,,,,,,,,,,,,,,,,,,,,,,,,,,,,,,,,,,,,sub_899,2025-03-21_10h55.06.557,Reversal,2022.1.2,60.02386544701902,3,
,,,exp1.png,,,,,,,,,,,,,,,,,0,0,0,0,,,,,0,0,0,0,0,0,0,0,,,,,,,,,,,,,,,,,,,,,,,50.0,None,[],667.4144682001788,None,,,,,,,,,,,,sub_899,2025-03-21_10h55.06.557,Reversal,2022.1.2,60.02386544701902,3,
,,,exp2.png,,,,,,,,,,,,,,,,,0,0,0,0,,,,,0,0,0,0,0,1,1,1,,,,,,,,,,,,,,,,,,,,,,,99.0,10.463970399927348,"[(99.0, 10.463970399927348)]",672.5010734000243,None,99.0,,,,,,,,,,,sub_899,2025-03-21_10h55.06.557,Reversal,2022.1.2,60.02386544701902,3,
,,,exp3.png,,,,,,,,,,,,,,,,,0,0,0,0,,,,,0,0,0,0,0,2,2,2,,,,,,,,,,,,,,,,,,,,,,,23.0,11.934268800076097,"[(49.0, 7.201176899950951), (49.0, 8.451907400041819), (23.0, 11.934268800076097)]",685.4060100000352,None,,23.0,,,,,,,,,,sub_899,2025-03-21_10h55.06.557,Reversal,2022.1.2,60.02386544701902,3,
,,,exp4.png,,,,,,,,,,,,,,,,,0,0,0,0,,,,,0,0,0,0,0,3,3,3,,,,,,,,,,,,,,,,,,,,,,,100.0,12.116046300157905,"[(100.0, 12.116046300157905)]",699.2630505000707,None,,,100.0,,,,,,,,,sub_899,2025-03-21_10h55.06.557,Reversal,2022.1.2,60.02386544701902,3,
0,exp1.png,exp2.png,,,,,,,,,,,,,,,,,,1,0,1,0,0,0,0,0,,,,,,,,,False,20,81,False,exp1.png,exp2.png,trial_right_image,-1,exp2.png,3,exp1.png,exp2.png,1,3,reversed,incorrect,0.9519950156640279,0,valid_lose,638.8057250001002,52,,,,,,,,,,,,,,,,,,sub_899,2025-03-21_10h55.06.557,Reversal,2022.1.2,60.02386544701902,3,
1,exp3.png,exp4.png,,,,,,,,,,,,,,,,,,1,0,1,0,0,1,1,1,,,,,,,,,False,21,82,True,exp4.png,exp3.png,trial_left_image,1,exp4.png,3,exp4.png,exp3.png,1,1,non-reversed,correct,0.951720941222513,1,valid_win,643.8043323999736,53,,,,,,,,,,,,,,,,,,sub_899,2025-03-21_10h55.06.557,Reversal,2022.1.2,60.02386544701902,3,
2,exp1.png,exp2.png,,,,,,,,,,,,,,,,,,1,0,1,0,0,2,2,2,,,,,,,,,False,22,83,True,exp2.png,exp1.png,trial_left_image,1,exp2.png,3,exp1.png,exp2.png,1,3,reversed,incorrect,0.763325548401608,0,valid_lose,648.8711141000967,53,,,,,,,,,,,,,,,,,,sub_899,2025-03-21_10h55.06.557,Reversal,2022.1.2,60.02386544701902,3,
3,exp3.png,exp4.png,,,,,,,,,,,,,,,,,,1,0,1,0,0,3,3,3,,,,,,,,,False,23,84,True,exp4.png,exp3.png,trial_left_image,1,exp4.png,3,exp4.png,exp3.png,1,1,non-reversed,correct,0.2781802953038197,1,valid_win,655.7043920999859,54,,,,,,,,,,,,,,,,,,sub_899,2025-03-21_10h55.06.557,Reversal,2022.1.2,60.02386544701902,3,
4,exp1.png,exp2.png,,,,,,,,,,,,,,,,,,1,0,1,0,0,4,4,4,,,,,,,,,False,24,85,False,exp1.png,exp2.png,trial_right_image,-1,exp2.png,3,exp1.png,exp2.png,1,3,reversed,incorrect,0.6306798599704021,0,valid_lose,660.5542071999516,54,,,,,,,,,,,,,,,,,,sub_899,2025-03-21_10h55.06.557,Reversal,2022.1.2,60.02386544701902,3,
5,exp3.png,exp4.png,,,,,,,,,,,,,,,,,,1,0,1,0,0,5,5,5,,,,,,,,,False,25,86,False,exp3.png,exp4.png,trial_right_image,-1,exp4.png,3,exp4.png,exp3.png,1,1,non-reversed,correct,0.3283838415932345,1,valid_win,665.4706902001053,55,,,,,,,,,,,,,,,,,,sub_899,2025-03-21_10h55.06.557,Reversal,2022.1.2,60.02386544701902,3,
6,exp1.png,exp2.png,,,,,,,,,,,,,,,,,,1,0,1,0,0,6,6,6,,,,,,,,,False,26,87,True,exp2.png,exp1.png,trial_left_image,1,exp2.png,3,exp1.png,exp2.png,1,3,reversed,incorrect,0.4416423516469268,0,valid_lose,671.3873046000954,55,,,,,,,,,,,,,,,,,,sub_899,2025-03-21_10h55.06.557,Reversal,2022.1.2,60.02386544701902,3,
7,exp3.png,exp4.png,,,,,,,,,,,,,,,,,,1,0,1,0,0,7,7,7,,,,,,,,,False,27,88,True,exp4.png,exp3.png,trial_left_image,1,exp4.png,3,exp4.png,exp3.png,1,1,non-reversed,correct,0.36982180230994177,1,valid_win,678.003814100055,56,,,,,,,,,,,,,,,,,,sub_899,2025-03-21_10h55.06.557,Reversal,2022.1.2,60.02386544701902,3,
8,exp1.png,exp2.png,,,,,,,,,,,,,,,,,,1,0,1,0,0,8,8,8,,,,,,,,,False,28,89,True,exp2.png,exp1.png,trial_left_image,1,exp2.png,3,exp1.png,exp2.png,1,3,reversed,incorrect,0.04471367509426383,1,invalid_win,683.5206238999963,57,,,,,,,,,,,,,,,,,,sub_899,2025-03-21_10h55.06.557,Reversal,2022.1.2,60.02386544701902,3,
9,exp3.png,exp4.png,,,,,,,,,,,,,,,,,,1,0,1,0,0,9,9,9,,,,,,,,,False,29,90,False,exp3.png,exp4.png,trial_right_image,-1,exp4.png,3,exp4.png,exp3.png,1,1,non-reversed,correct,0.171563127735605,0,invalid_lose,689.7715574000031,57,,,,,,,,,,,,,,,,,,sub_899,2025-03-21_10h55.06.557,Reversal,2022.1.2,60.02386544701902,3,
10,exp1.png,exp2.png,,,,,,,,,,,,,,,,,,1,0,1,0,0,10,10,10,,,,,,,,,False,30,91,True,exp2.png,exp1.png,trial_left_image,1,exp2.png,3,exp1.png,exp2.png,1,3,reversed,incorrect,0.4750139442967213,0,valid_lose,694.7371732001193,57,,,,,,,,,,,,,,,,,,sub_899,2025-03-21_10h55.06.557,Reversal,2022.1.2,60.02386544701902,3,
11,exp3.png,exp4.png,,,,,,,,,,,,,,,,,,1,0,1,0,0,11,11,11,,,,,,,,,False,31,92,False,exp3.png,exp4.png,trial_right_image,-1,exp4.png,3,exp4.png,exp3.png,1,1,non-reversed,correct,0.7227764741577609,1,valid_win,699.1204548999667,58,,,,,,,,,,,,,,,,,,sub_899,2025-03-21_10h55.06.557,Reversal,2022.1.2,60.02386544701902,3,
12,exp1.png,exp2.png,,,,,,,,,,,,,,,,,,1,0,1,0,0,12,12,12,,,,,,,,,False,32,93,True,exp2.png,exp1.png,trial_left_image,1,exp2.png,3,exp1.png,exp2.png,1,3,reversed,incorrect,0.4544715750367533,0,valid_lose,704.4538420001045,58,,,,,,,,,,,,,,,,,,sub_899,2025-03-21_10h55.06.557,Reversal,2022.1.2,60.02386544701902,3,
13,exp3.png,exp4.png,,,,,,,,,,,,,,,,,,1,0,1,0,0,13,13,13,,,,,,,,,False,33,94,False,exp3.png,exp4.png,trial_left_image,1,exp3.png,3,exp4.png,exp3.png,0,2,non-reversed,incorrect,0.4187560742685593,0,valid_lose,709.0699670000467,58,,,,,,,,,,,,,,,,,,sub_899,2025-03-21_10h55.06.557,Reversal,2022.1.2,60.02386544701902,3,
14,exp1.png,exp2.png,,,,,,,,,,,,,,,,,,1,0,1,0,0,14,14,14,,,,,,,,,False,34,95,True,exp2.png,exp1.png,trial_left_image,1,exp2.png,3,exp1.png,exp2.png,1,3,reversed,incorrect,0.6356664327840066,0,valid_lose,715.4865615000017,58,,,,,,,,,,,,,,,,,,sub_899,2025-03-21_10h55.06.557,Reversal,2022.1.2,60.02386544701902,3,
15,exp3.png,exp4.png,,,,,,,,,,,,,,,,,,1,0,1,0,0,15,15,15,,,,,,,,,False,35,96,False,exp3.png,exp4.png,trial_right_image,-1,exp4.png,3,exp4.png,exp3.png,1,1,non-reversed,correct,0.8893091502669265,1,valid_win,720.1864235999528,59,,,,,,,,,,,,,,,,,,sub_899,2025-03-21_10h55.06.557,Reversal,2022.1.2,60.02386544701902,3,
16,exp1.png,exp2.png,,,,,,,,,,,,,,,,,,1,0,1,0,0,16,16,16,,,,,,,,,False,36,97,False,exp1.png,exp2.png,trial_right_image,-1,exp2.png,3,exp1.png,exp2.png,1,3,reversed,incorrect,0.7787131218473148,0,valid_lose,724.8196503999643,59,,,,,,,,,,,,,,,,,,sub_899,2025-03-21_10h55.06.557,Reversal,2022.1.2,60.02386544701902,3,
17,exp3.png,exp4.png,,,,,,,,,,,,,,,,,,1,0,1,0,0,17,17,17,,,,,,,,,False,37,98,False,exp3.png,exp4.png,trial_right_image,-1,exp4.png,3,exp4.png,exp3.png,1,1,non-reversed,correct,0.48841180570585363,1,valid_win,729.5865977001376,60,,,,,,,,,,,,,,,,,,sub_899,2025-03-21_10h55.06.557,Reversal,2022.1.2,60.02386544701902,3,
18,exp1.png,exp2.png,,,,,,,,,,,,,,,,,,1,0,1,0,0,18,18,18,,,,,,,,,False,38,99,True,exp2.png,exp1.png,trial_left_image,1,exp2.png,3,exp1.png,exp2.png,1,3,reversed,incorrect,0.5002606998070783,0,valid_lose,734.8860425001476,60,,,,,,,,,,,,,,,,,,sub_899,2025-03-21_10h55.06.557,Reversal,2022.1.2,60.02386544701902,3,
19,exp3.png,exp4.png,,,,,,,,,,,,,,,,,,1,0,1,0,0,19,19,19,,,,,,,,,False,39,100,False,exp3.png,exp4.png,trial_right_image,-1,exp4.png,3,exp4.png,exp3.png,1,1,non-reversed,correct,0.283664337371751,1,valid_win,741.2692794001196,61,,,,,,,,,,,,,,,,,,sub_899,2025-03-21_10h55.06.557,Reversal,2022.1.2,60.02386544701902,3,
20,exp1.png,exp2.png,,,,,,,,,,,,,,,,,,1,0,1,0,0,20,20,20,,,,,,,,,True,,,,,,,,,,,,,,,,,,,,,,,,,,,,,,,,,,,,,,sub_899,2025-03-21_10h55.06.557,Reversal,2022.1.2,60.02386544701902,3,
,,,exp1.png,,,,,,,,,,,,,,,,,1,0,1,0,,,,,0,0,0,0,0,0,0,0,,,,,,,,,,,,,,,,,,,,,,,50.0,None,[],821.5103772999719,None,,,,,,,,,,,,sub_899,2025-03-21_10h55.06.557,Reversal,2022.1.2,60.02386544701902,3,
,,,exp2.png,,,,,,,,,,,,,,,,,1,0,1,0,,,,,0,0,0,0,0,1,1,1,,,,,,,,,,,,,,,,,,,,,,,50.0,None,[],828.7777830001432,None,,,,,,,,,,,,sub_899,2025-03-21_10h55.06.557,Reversal,2022.1.2,60.02386544701902,3,
,,,exp3.png,,,,,,,,,,,,,,,,,1,0,1,0,,,,,0,0,0,0,0,2,2,2,,,,,,,,,,,,,,,,,,,,,,,50.0,None,[],832.5285867999773,None,,,,,,,,,,,,sub_899,2025-03-21_10h55.06.557,Reversal,2022.1.2,60.02386544701902,3,
,,,exp4.png,,,,,,,,,,,,,,,,,1,0,1,0,,,,,0,0,0,0,0,3,3,3,,,,,,,,,,,,,,,,,,,,,,,100.0,6.249255900038406,"[(100.0, 6.249255900038406)]",840.4003490000032,None,,,100.0,,,,,,,,,sub_899,2025-03-21_10h55.06.557,Reversal,2022.1.2,60.02386544701902,3,
0,exp1.png,exp2.png,,,,,,,,,,,,,,,,,,2,0,2,0,0,0,0,0,,,,,,,,,False,40,101,False,exp1.png,exp2.png,trial_right_image,-1,exp2.png,3,exp1.png,exp2.png,1,3,reversed,incorrect,0.21299319406234107,1,invalid_win,776.2524516000412,62,,,,,,,,,,,,,,,,,,sub_899,2025-03-21_10h55.06.557,Reversal,2022.1.2,60.02386544701902,3,
1,exp3.png,exp4.png,,,,,,,,,,,,,,,,,,2,0,2,0,0,1,1,1,,,,,,,,,False,41,102,False,exp3.png,exp4.png,trial_right_image,-1,exp4.png,3,exp4.png,exp3.png,1,1,non-reversed,correct,0.26625506497561857,1,valid_win,782.035615199944,63,,,,,,,,,,,,,,,,,,sub_899,2025-03-21_10h55.06.557,Reversal,2022.1.2,60.02386544701902,3,
2,exp1.png,exp2.png,,,,,,,,,,,,,,,,,,2,0,2,0,0,2,2,2,,,,,,,,,False,42,103,True,exp2.png,exp1.png,trial_left_image,1,exp2.png,3,exp1.png,exp2.png,1,3,reversed,incorrect,0.818480024102036,0,valid_lose,787.8684257999994,63,,,,,,,,,,,,,,,,,,sub_899,2025-03-21_10h55.06.557,Reversal,2022.1.2,60.02386544701902,3,
3,exp3.png,exp4.png,,,,,,,,,,,,,,,,,,2,0,2,0,0,3,3,3,,,,,,,,,False,43,104,False,exp3.png,exp4.png,trial_right_image,-1,exp4.png,3,exp4.png,exp3.png,1,1,non-reversed,correct,0.9659010210441161,1,valid_win,793.3684054999612,64,,,,,,,,,,,,,,,,,,sub_899,2025-03-21_10h55.06.557,Reversal,2022.1.2,60.02386544701902,3,
4,exp1.png,exp2.png,,,,,,,,,,,,,,,,,,2,0,2,0,0,4,4,4,,,,,,,,,False,44,105,True,exp2.png,exp1.png,trial_right_image,-1,exp1.png,3,exp1.png,exp2.png,0,4,reversed,correct,0.195283390809722,0,invalid_lose,798.602092300076,64,,,,,,,,,,,,,,,,,,sub_899,2025-03-21_10h55.06.557,Reversal,2022.1.2,60.02386544701902,3,
5,exp3.png,exp4.png,,,,,,,,,,,,,,,,,,2,0,2,0,0,5,5,5,,,,,,,,,False,45,106,False,exp3.png,exp4.png,trial_right_image,-1,exp4.png,3,exp4.png,exp3.png,1,1,non-reversed,correct,0.3303517281423225,1,valid_win,808.185203100089,65,,,,,,,,,,,,,,,,,,sub_899,2025-03-21_10h55.06.557,Reversal,2022.1.2,60.02386544701902,3,
6,exp1.png,exp2.png,,,,,,,,,,,,,,,,,,2,0,2,0,0,6,6,6,,,,,,,,,False,46,107,False,exp1.png,exp2.png,trial_right_image,-1,exp2.png,3,exp1.png,exp2.png,1,3,reversed,incorrect,0.5793898397610205,0,valid_lose,813.8351201000623,65,,,,,,,,,,,,,,,,,,sub_899,2025-03-21_10h55.06.557,Reversal,2022.1.2,60.02386544701902,3,
7,exp3.png,exp4.png,,,,,,,,,,,,,,,,,,2,0,2,0,0,7,7,7,,,,,,,,,False,47,108,True,exp4.png,exp3.png,trial_right_image,-1,exp3.png,3,exp4.png,exp3.png,0,2,non-reversed,incorrect,0.7260210462350823,0,valid_lose,820.0847531000618,65,,,,,,,,,,,,,,,,,,sub_899,2025-03-21_10h55.06.557,Reversal,2022.1.2,60.02386544701902,3,
8,exp1.png,exp2.png,,,,,,,,,,,,,,,,,,2,0,2,0,0,8,8,8,,,,,,,,,False,48,109,False,exp1.png,exp2.png,trial_right_image,-1,exp2.png,3,exp1.png,exp2.png,1,3,reversed,incorrect,0.6283774537826282,0,valid_lose,824.5688611001242,65,,,,,,,,,,,,,,,,,,sub_899,2025-03-21_10h55.06.557,Reversal,2022.1.2,60.02386544701902,3,
9,exp3.png,exp4.png,,,,,,,,,,,,,,,,,,2,0,2,0,0,9,9,9,,,,,,,,,False,49,110,False,exp3.png,exp4.png,trial_left_image,1,exp3.png,3,exp4.png,exp3.png,0,2,non-reversed,incorrect,0.3568606219121614,0,valid_lose,829.5512250999454,65,,,,,,,,,,,,,,,,,,sub_899,2025-03-21_10h55.06.557,Reversal,2022.1.2,60.02386544701902,3,
10,exp1.png,exp2.png,,,,,,,,,,,,,,,,,,2,0,2,0,0,10,10,10,,,,,,,,,False,50,111,True,exp2.png,exp1.png,trial_left_image,1,exp2.png,3,exp1.png,exp2.png,1,3,reversed,incorrect,0.9929065830220065,0,valid_lose,837.1182494000532,65,,,,,,,,,,,,,,,,,,sub_899,2025-03-21_10h55.06.557,Reversal,2022.1.2,60.02386544701902,3,
11,exp3.png,exp4.png,,,,,,,,,,,,,,,,,,2,0,2,0,0,11,11,11,,,,,,,,,False,51,112,True,exp4.png,exp3.png,trial_left_image,1,exp4.png,3,exp4.png,exp3.png,1,1,non-reversed,correct,0.8317900419576338,1,valid_win,842.8508325000294,66,,,,,,,,,,,,,,,,,,sub_899,2025-03-21_10h55.06.557,Reversal,2022.1.2,60.02386544701902,3,
12,exp1.png,exp2.png,,,,,,,,,,,,,,,,,,2,0,2,0,0,12,12,12,,,,,,,,,False,52,113,True,exp2.png,exp1.png,trial_right_image,-1,exp1.png,3,exp1.png,exp2.png,0,4,reversed,correct,0.5166206736969422,1,valid_win,848.7349616000429,67,,,,,,,,,,,,,,,,,,sub_899,2025-03-21_10h55.06.557,Reversal,2022.1.2,60.02386544701902,3,
13,exp3.png,exp4.png,,,,,,,,,,,,,,,,,,2,0,2,0,0,13,13,13,,,,,,,,,False,53,114,True,exp4.png,exp3.png,trial_left_image,1,exp4.png,3,exp4.png,exp3.png,1,1,non-reversed,correct,0.8188341717174719,1,valid_win,853.9673242999706,68,,,,,,,,,,,,,,,,,,sub_899,2025-03-21_10h55.06.557,Reversal,2022.1.2,60.02386544701902,3,
14,exp1.png,exp2.png,,,,,,,,,,,,,,,,,,2,0,2,0,0,14,14,14,,,,,,,,,False,54,115,False,exp1.png,exp2.png,trial_right_image,-1,exp2.png,3,exp1.png,exp2.png,1,3,reversed,incorrect,0.8883613992199288,0,valid_lose,859.4841684000567,68,,,,,,,,,,,,,,,,,,sub_899,2025-03-21_10h55.06.557,Reversal,2022.1.2,60.02386544701902,3,
15,exp3.png,exp4.png,,,,,,,,,,,,,,,,,,2,0,2,0,0,15,15,15,,,,,,,,,False,55,116,True,exp4.png,exp3.png,trial_left_image,1,exp4.png,3,exp4.png,exp3.png,1,1,non-reversed,correct,0.5431677201767673,1,valid_win,864.8172453001607,69,,,,,,,,,,,,,,,,,,sub_899,2025-03-21_10h55.06.557,Reversal,2022.1.2,60.02386544701902,3,
16,exp1.png,exp2.png,,,,,,,,,,,,,,,,,,2,0,2,0,0,16,16,16,,,,,,,,,False,56,117,True,exp2.png,exp1.png,trial_left_image,1,exp2.png,3,exp1.png,exp2.png,1,3,reversed,incorrect,0.8138083814116006,0,valid_lose,871.1344384001568,69,,,,,,,,,,,,,,,,,,sub_899,2025-03-21_10h55.06.557,Reversal,2022.1.2,60.02386544701902,3,
17,exp3.png,exp4.png,,,,,,,,,,,,,,,,,,2,0,2,0,0,17,17,17,,,,,,,,,False,57,118,False,exp3.png,exp4.png,trial_right_image,-1,exp4.png,3,exp4.png,exp3.png,1,1,non-reversed,correct,0.15800732713525656,0,invalid_lose,875.4671781000216,69,,,,,,,,,,,,,,,,,,sub_899,2025-03-21_10h55.06.557,Reversal,2022.1.2,60.02386544701902,3,
18,exp1.png,exp2.png,,,,,,,,,,,,,,,,,,2,0,2,0,0,18,18,18,,,,,,,,,False,58,119,False,exp1.png,exp2.png,trial_left_image,1,exp1.png,3,exp1.png,exp2.png,0,4,reversed,correct,0.31304782481891624,1,valid_win,880.4669107000809,70,,,,,,,,,,,,,,,,,,sub_899,2025-03-21_10h55.06.557,Reversal,2022.1.2,60.02386544701902,3,
19,exp3.png,exp4.png,,,,,,,,,,,,,,,,,,2,0,2,0,0,19,19,19,,,,,,,,,False,59,120,True,exp4.png,exp3.png,trial_left_image,1,exp4.png,3,exp4.png,exp3.png,1,1,non-reversed,correct,0.55551188970557,1,valid_win,886.8834007000551,71,,,,,,,,,,,,,,,,,,sub_899,2025-03-21_10h55.06.557,Reversal,2022.1.2,60.02386544701902,3,
20,exp1.png,exp2.png,,,,,,,,,,,,,,,,,,2,0,2,0,0,20,20,20,,,,,,,,,True,,,,,,,,,,,,,,,,,,,,,,,,,,,,,,,,,,,,,,sub_899,2025-03-21_10h55.06.557,Reversal,2022.1.2,60.02386544701902,3,
,,,exp1.png,,,,,,,,,,,,,,,,,2,0,2,0,,,,,0,0,0,0,0,0,0,0,,,,,,,,,,,,,,,,,,,,,,,50.0,None,[],967.1232181000523,None,,,,,,,,,,,,sub_899,2025-03-21_10h55.06.557,Reversal,2022.1.2,60.02386544701902,3,
,,,exp2.png,,,,,,,,,,,,,,,,,2,0,2,0,,,,,0,0,0,0,0,1,1,1,,,,,,,,,,,,,,,,,,,,,,,99.0,7.466709699947387,"[(99.0, 7.466709699947387)]",972.1424995001871,None,99.0,,,,,,,,,,,sub_899,2025-03-21_10h55.06.557,Reversal,2022.1.2,60.02386544701902,3,
,,,exp3.png,,,,,,,,,,,,,,,,,2,0,2,0,,,,,0,0,0,0,0,2,2,2,,,,,,,,,,,,,,,,,,,,,,,50.0,None,[],981.37911790004,None,,,,,,,,,,,,sub_899,2025-03-21_10h55.06.557,Reversal,2022.1.2,60.02386544701902,3,
,,,exp4.png,,,,,,,,,,,,,,,,,2,0,2,0,,,,,0,0,0,0,0,3,3,3,,,,,,,,,,,,,,,,,,,,,,,100.0,5.797258699778467,"[(100.0, 5.797258699778467)]",987.7185312001966,None,,,100.0,,,,,,,,,sub_899,2025-03-21_10h55.06.557,Reversal,2022.1.2,60.02386544701902,3,
,,,,,,,,,,,,,,,,,,,,,,,,,,,,,,,,,,,,,,,,,,,,,,,,,,,,,,,,71,,,,,,,,,,,85,52,33,438.2738536999095,0,space,44.5992006000597,sub_899,2025-03-21_10h55.06.557,Reversal,2022.1.2,60.02386544701902,3,
