trial_index,trial_image1_file,trial_image2_file,image_file,learning_outer_loop.thisRepN,learning_outer_loop.thisTrialN,learning_outer_loop.thisN,learning_outer_loop.thisIndex,learning_inner_loop.thisRepN,learning_inner_loop.thisTrialN,learning_inner_loop.thisN,learning_inner_loop.thisIndex,learning_estimation_outer_loop.thisRepN,learning_estimation_outer_loop.thisTrialN,learning_estimation_outer_loop.thisN,learning_estimation_outer_loop.thisIndex,learning_estimation_inner_loop.thisRepN,learning_estimation_inner_loop.thisTrialN,learning_estimation_inner_loop.thisN,learning_estimation_inner_loop.thisIndex,reversal_outer_loop.thisRepN,reversal_outer_loop.thisTrialN,reversal_outer_loop.thisN,reversal_outer_loop.thisIndex,reversal_inner_loop.thisRepN,reversal_inner_loop.thisTrialN,reversal_inner_loop.thisN,reversal_inner_loop.thisIndex,reversal_estimation_outer_loop.thisRepN,reversal_estimation_outer_loop.thisTrialN,reversal_estimation_outer_loop.thisN,reversal_estimation_outer_loop.thisIndex,reversal_estimation_inner_loop.thisRepN,reversal_estimation_inner_loop.thisTrialN,reversal_estimation_inner_loop.thisN,reversal_estimation_inner_loop.thisIndex,skipped,total_trial_counter,trial_num,left_right_flip,left_image_file,right_image_file,clicked_stimulus_side,side,clicked_stimulus,version,high_prob_image_file,low_prob_image_file,choice_a,choice_b,pair_type,correct,trial_feedback_random,reward,trial_type,overall_time_after_trial,score,estimation_rating.response,estimation_rating.rt,estimation_rating.history,estimation_rating.started,estimation_rating.stopped,estimation_exp2.png,estimation_exp3.png,estimation_exp4.png,estimation_exp1.png,total_learning_time,total_correct,learning_correct,reversal_correct,total_reversal_time,extra_block,participant,date,expName,psychopyVersion,frameRate,ver,
0,exp1.png,exp2.png,,0,0,0,0,0,0,0,0,,,,,,,,,,,,,,,,,,,,,,,,,True,,,,,,,,,,,,,,,,,,,,,,,,,,,,,,,,,,,,sub_477,2024-12-15_11h49.18.236,Reversal,2022.1.2,60.014031289544846,1,
1,exp3.png,exp4.png,,0,0,0,0,0,1,1,1,,,,,,,,,,,,,,,,,,,,,,,,,False,0,1,False,exp3.png,exp4.png,trial_right_image,-1,exp4.png,1,exp3.png,exp4.png,0,2,non-reversed,incorrect,0.6015520067142263,0,valid_lose,6.250184099888429,0,,,,,,,,,,,,,,,,sub_477,2024-12-15_11h49.18.236,Reversal,2022.1.2,60.014031289544846,1,
2,exp1.png,exp2.png,,0,0,0,0,0,2,2,2,,,,,,,,,,,,,,,,,,,,,,,,,False,1,2,False,exp1.png,exp2.png,trial_right_image,-1,exp2.png,1,exp1.png,exp2.png,0,4,reversed,incorrect,0.3665043634473971,0,valid_lose,16.950198899954557,0,,,,,,,,,,,,,,,,sub_477,2024-12-15_11h49.18.236,Reversal,2022.1.2,60.014031289544846,1,
3,exp3.png,exp4.png,,0,0,0,0,0,3,3,3,,,,,,,,,,,,,,,,,,,,,,,,,False,2,3,True,exp4.png,exp3.png,trial_right_image,-1,exp3.png,1,exp3.png,exp4.png,1,1,non-reversed,correct,0.7221321480861315,1,valid_win,27.483784599928185,1,,,,,,,,,,,,,,,,sub_477,2024-12-15_11h49.18.236,Reversal,2022.1.2,60.014031289544846,1,
4,exp1.png,exp2.png,,0,0,0,0,0,4,4,4,,,,,,,,,,,,,,,,,,,,,,,,,False,3,4,False,exp1.png,exp2.png,trial_left_image,1,exp1.png,1,exp1.png,exp2.png,1,3,reversed,correct,0.08853929005188499,0,invalid_lose,40.36628089984879,1,,,,,,,,,,,,,,,,sub_477,2024-12-15_11h49.18.236,Reversal,2022.1.2,60.014031289544846,1,
5,exp3.png,exp4.png,,0,0,0,0,0,5,5,5,,,,,,,,,,,,,,,,,,,,,,,,,False,4,5,True,exp4.png,exp3.png,trial_right_image,-1,exp3.png,1,exp3.png,exp4.png,1,1,non-reversed,correct,0.7517928227277239,1,valid_win,55.01634109998122,2,,,,,,,,,,,,,,,,sub_477,2024-12-15_11h49.18.236,Reversal,2022.1.2,60.014031289544846,1,
6,exp1.png,exp2.png,,0,0,0,0,0,6,6,6,,,,,,,,,,,,,,,,,,,,,,,,,False,5,6,True,exp2.png,exp1.png,trial_left_image,1,exp2.png,1,exp1.png,exp2.png,0,4,reversed,incorrect,0.24582358854070785,1,invalid_win,63.54882129980251,3,,,,,,,,,,,,,,,,sub_477,2024-12-15_11h49.18.236,Reversal,2022.1.2,60.014031289544846,1,
7,exp3.png,exp4.png,,0,0,0,0,0,7,7,7,,,,,,,,,,,,,,,,,,,,,,,,,False,6,7,False,exp3.png,exp4.png,trial_right_image,-1,exp4.png,1,exp3.png,exp4.png,0,2,non-reversed,incorrect,0.38524384912677956,0,valid_lose,72.31550449994393,3,,,,,,,,,,,,,,,,sub_477,2024-12-15_11h49.18.236,Reversal,2022.1.2,60.014031289544846,1,
8,exp1.png,exp2.png,,0,0,0,0,0,8,8,8,,,,,,,,,,,,,,,,,,,,,,,,,False,7,8,False,exp1.png,exp2.png,trial_right_image,-1,exp2.png,1,exp1.png,exp2.png,0,4,reversed,incorrect,0.17947230481637078,1,invalid_win,82.83207899983972,4,,,,,,,,,,,,,,,,sub_477,2024-12-15_11h49.18.236,Reversal,2022.1.2,60.014031289544846,1,
9,exp3.png,exp4.png,,0,0,0,0,0,9,9,9,,,,,,,,,,,,,,,,,,,,,,,,,False,8,9,False,exp3.png,exp4.png,trial_left_image,1,exp3.png,1,exp3.png,exp4.png,1,1,non-reversed,correct,0.9719088975186583,1,valid_win,87.79872859991156,5,,,,,,,,,,,,,,,,sub_477,2024-12-15_11h49.18.236,Reversal,2022.1.2,60.014031289544846,1,
10,exp1.png,exp2.png,,0,0,0,0,0,10,10,10,,,,,,,,,,,,,,,,,,,,,,,,,False,9,10,False,exp1.png,exp2.png,trial_right_image,-1,exp2.png,1,exp1.png,exp2.png,0,4,reversed,incorrect,0.975493962349126,0,valid_lose,93.94821919989772,5,,,,,,,,,,,,,,,,sub_477,2024-12-15_11h49.18.236,Reversal,2022.1.2,60.014031289544846,1,
11,exp3.png,exp4.png,,0,0,0,0,0,11,11,11,,,,,,,,,,,,,,,,,,,,,,,,,False,10,11,True,exp4.png,exp3.png,trial_left_image,1,exp4.png,1,exp3.png,exp4.png,0,2,non-reversed,incorrect,0.23351125931821848,1,invalid_win,98.8152970999945,6,,,,,,,,,,,,,,,,sub_477,2024-12-15_11h49.18.236,Reversal,2022.1.2,60.014031289544846,1,
12,exp1.png,exp2.png,,0,0,0,0,0,12,12,12,,,,,,,,,,,,,,,,,,,,,,,,,False,11,12,False,exp1.png,exp2.png,trial_left_image,1,exp1.png,1,exp1.png,exp2.png,1,3,reversed,correct,0.35647765664454967,1,valid_win,107.43203159980476,7,,,,,,,,,,,,,,,,sub_477,2024-12-15_11h49.18.236,Reversal,2022.1.2,60.014031289544846,1,
13,exp3.png,exp4.png,,0,0,0,0,0,13,13,13,,,,,,,,,,,,,,,,,,,,,,,,,False,12,13,False,exp3.png,exp4.png,trial_left_image,1,exp3.png,1,exp3.png,exp4.png,1,1,non-reversed,correct,0.5357767240234382,1,valid_win,115.41458049998619,8,,,,,,,,,,,,,,,,sub_477,2024-12-15_11h49.18.236,Reversal,2022.1.2,60.014031289544846,1,
14,exp1.png,exp2.png,,0,0,0,0,0,14,14,14,,,,,,,,,,,,,,,,,,,,,,,,,False,13,14,True,exp2.png,exp1.png,trial_right_image,-1,exp1.png,1,exp1.png,exp2.png,1,3,reversed,correct,0.47433217468028777,1,valid_win,124.04786259983666,9,,,,,,,,,,,,,,,,sub_477,2024-12-15_11h49.18.236,Reversal,2022.1.2,60.014031289544846,1,
15,exp3.png,exp4.png,,0,0,0,0,0,15,15,15,,,,,,,,,,,,,,,,,,,,,,,,,False,14,15,True,exp4.png,exp3.png,trial_right_image,-1,exp3.png,1,exp3.png,exp4.png,1,1,non-reversed,correct,0.178716735574863,0,invalid_lose,132.96398509992287,9,,,,,,,,,,,,,,,,sub_477,2024-12-15_11h49.18.236,Reversal,2022.1.2,60.014031289544846,1,
16,exp1.png,exp2.png,,0,0,0,0,0,16,16,16,,,,,,,,,,,,,,,,,,,,,,,,,False,15,16,True,exp2.png,exp1.png,trial_right_image,-1,exp1.png,1,exp1.png,exp2.png,1,3,reversed,correct,0.7842444743360542,1,valid_win,138.51352169993334,10,,,,,,,,,,,,,,,,sub_477,2024-12-15_11h49.18.236,Reversal,2022.1.2,60.014031289544846,1,
17,exp3.png,exp4.png,,0,0,0,0,0,17,17,17,,,,,,,,,,,,,,,,,,,,,,,,,False,16,17,True,exp4.png,exp3.png,trial_right_image,-1,exp3.png,1,exp3.png,exp4.png,1,1,non-reversed,correct,0.013327932310565727,0,invalid_lose,145.44735289993696,10,,,,,,,,,,,,,,,,sub_477,2024-12-15_11h49.18.236,Reversal,2022.1.2,60.014031289544846,1,
18,exp1.png,exp2.png,,0,0,0,0,0,18,18,18,,,,,,,,,,,,,,,,,,,,,,,,,False,17,18,False,exp1.png,exp2.png,trial_left_image,1,exp1.png,1,exp1.png,exp2.png,1,3,reversed,correct,0.8410206955492425,1,valid_win,150.1976042999886,11,,,,,,,,,,,,,,,,sub_477,2024-12-15_11h49.18.236,Reversal,2022.1.2,60.014031289544846,1,
19,exp3.png,exp4.png,,0,0,0,0,0,19,19,19,,,,,,,,,,,,,,,,,,,,,,,,,False,18,19,True,exp4.png,exp3.png,trial_left_image,1,exp4.png,1,exp3.png,exp4.png,0,2,non-reversed,incorrect,0.7468202178278267,0,valid_lose,158.36394609999843,11,,,,,,,,,,,,,,,,sub_477,2024-12-15_11h49.18.236,Reversal,2022.1.2,60.014031289544846,1,
20,exp1.png,exp2.png,,0,0,0,0,0,20,20,20,,,,,,,,,,,,,,,,,,,,,,,,,False,19,20,True,exp2.png,exp1.png,trial_right_image,-1,exp1.png,1,exp1.png,exp2.png,1,3,reversed,correct,0.2403504113311724,0,invalid_lose,165.18043459998444,11,,,,,,,,,,,,,,,,sub_477,2024-12-15_11h49.18.236,Reversal,2022.1.2,60.014031289544846,1,
,,,exp1.png,0,0,0,0,,,,,0,0,0,0,0,0,0,0,,,,,,,,,,,,,,,,,,,,,,,,,,,,,,,,,,,,,,50.0,None,[],278.0120149999857,None,,,,,,,,,,,sub_477,2024-12-15_11h49.18.236,Reversal,2022.1.2,60.014031289544846,1,
,,,exp2.png,0,0,0,0,,,,,0,0,0,0,0,1,1,1,,,,,,,,,,,,,,,,,,,,,,,,,,,,,,,,,,,,,,76.0,22.266485100146383,"[(55.0, 2.7176522000227123), (50.0, 13.033441600156948), (76.0, 22.266485100146383)]",288.68665749998763,None,76.0,,,,,,,,,,sub_477,2024-12-15_11h49.18.236,Reversal,2022.1.2,60.014031289544846,1,
,,,exp3.png,0,0,0,0,,,,,0,0,0,0,0,2,2,2,,,,,,,,,,,,,,,,,,,,,,,,,,,,,,,,,,,,,,80.0,13.467998499982059,"[(80.0, 13.467998499982059)]",312.0375990001485,None,,80.0,,,,,,,,,sub_477,2024-12-15_11h49.18.236,Reversal,2022.1.2,60.014031289544846,1,
,,,exp4.png,0,0,0,0,,,,,0,0,0,0,0,3,3,3,,,,,,,,,,,,,,,,,,,,,,,,,,,,,,,,,,,,,,68.0,12.05089750001207,"[(68.0, 12.05089750001207)]",327.61949499999173,None,,,68.0,,,,,,,,sub_477,2024-12-15_11h49.18.236,Reversal,2022.1.2,60.014031289544846,1,
0,exp1.png,exp2.png,,1,0,1,0,0,0,0,0,,,,,,,,,,,,,,,,,,,,,,,,,True,,,,,,,,,,,,,,,,,,,,,,,,,,,,,,,,,,,,sub_477,2024-12-15_11h49.18.236,Reversal,2022.1.2,60.014031289544846,1,
1,exp3.png,exp4.png,,1,0,1,0,0,1,1,1,,,,,,,,,,,,,,,,,,,,,,,,,False,20,21,True,exp4.png,exp3.png,trial_right_image,-1,exp3.png,1,exp3.png,exp4.png,1,1,non-reversed,correct,0.17242690051548915,0,invalid_lose,236.99594139982946,11,,,,,,,,,,,,,,,,sub_477,2024-12-15_11h49.18.236,Reversal,2022.1.2,60.014031289544846,1,
2,exp1.png,exp2.png,,1,0,1,0,0,2,2,2,,,,,,,,,,,,,,,,,,,,,,,,,False,21,22,True,exp2.png,exp1.png,trial_right_image,-1,exp1.png,1,exp1.png,exp2.png,1,3,reversed,correct,0.4896500014799904,1,valid_win,244.69583059987053,12,,,,,,,,,,,,,,,,sub_477,2024-12-15_11h49.18.236,Reversal,2022.1.2,60.014031289544846,1,
3,exp3.png,exp4.png,,1,0,1,0,0,3,3,3,,,,,,,,,,,,,,,,,,,,,,,,,False,22,23,True,exp4.png,exp3.png,trial_left_image,1,exp4.png,1,exp3.png,exp4.png,0,2,non-reversed,incorrect,0.7780528744615379,0,valid_lose,251.7786369000096,12,,,,,,,,,,,,,,,,sub_477,2024-12-15_11h49.18.236,Reversal,2022.1.2,60.014031289544846,1,
4,exp1.png,exp2.png,,1,0,1,0,0,4,4,4,,,,,,,,,,,,,,,,,,,,,,,,,False,23,24,False,exp1.png,exp2.png,trial_left_image,1,exp1.png,1,exp1.png,exp2.png,1,3,reversed,correct,0.8124747857615753,1,valid_win,255.9624770998489,13,,,,,,,,,,,,,,,,sub_477,2024-12-15_11h49.18.236,Reversal,2022.1.2,60.014031289544846,1,
5,exp3.png,exp4.png,,1,0,1,0,0,5,5,5,,,,,,,,,,,,,,,,,,,,,,,,,False,24,25,False,exp3.png,exp4.png,trial_left_image,1,exp3.png,1,exp3.png,exp4.png,1,1,non-reversed,correct,0.3024151142266772,1,valid_win,261.4941254998557,14,,,,,,,,,,,,,,,,sub_477,2024-12-15_11h49.18.236,Reversal,2022.1.2,60.014031289544846,1,
6,exp1.png,exp2.png,,1,0,1,0,0,6,6,6,,,,,,,,,,,,,,,,,,,,,,,,,False,25,26,True,exp2.png,exp1.png,trial_right_image,-1,exp1.png,1,exp1.png,exp2.png,1,3,reversed,correct,0.8956277632693338,1,valid_win,266.7619676999748,15,,,,,,,,,,,,,,,,sub_477,2024-12-15_11h49.18.236,Reversal,2022.1.2,60.014031289544846,1,
7,exp3.png,exp4.png,,1,0,1,0,0,7,7,7,,,,,,,,,,,,,,,,,,,,,,,,,False,26,27,False,exp3.png,exp4.png,trial_right_image,-1,exp4.png,1,exp3.png,exp4.png,0,2,non-reversed,incorrect,0.15596779194003763,1,invalid_win,270.69431129982695,16,,,,,,,,,,,,,,,,sub_477,2024-12-15_11h49.18.236,Reversal,2022.1.2,60.014031289544846,1,
8,exp1.png,exp2.png,,1,0,1,0,0,8,8,8,,,,,,,,,,,,,,,,,,,,,,,,,False,27,28,True,exp2.png,exp1.png,trial_left_image,1,exp2.png,1,exp1.png,exp2.png,0,4,reversed,incorrect,0.26181085651850156,0,valid_lose,275.1452563998755,16,,,,,,,,,,,,,,,,sub_477,2024-12-15_11h49.18.236,Reversal,2022.1.2,60.014031289544846,1,
9,exp3.png,exp4.png,,1,0,1,0,0,9,9,9,,,,,,,,,,,,,,,,,,,,,,,,,False,28,29,True,exp4.png,exp3.png,trial_left_image,1,exp4.png,1,exp3.png,exp4.png,0,2,non-reversed,incorrect,0.7928583555313513,0,valid_lose,279.6616169998888,16,,,,,,,,,,,,,,,,sub_477,2024-12-15_11h49.18.236,Reversal,2022.1.2,60.014031289544846,1,
10,exp1.png,exp2.png,,1,0,1,0,0,10,10,10,,,,,,,,,,,,,,,,,,,,,,,,,False,29,30,True,exp2.png,exp1.png,trial_right_image,-1,exp1.png,1,exp1.png,exp2.png,1,3,reversed,correct,0.20087419723596067,0,invalid_lose,285.4446767999325,16,,,,,,,,,,,,,,,,sub_477,2024-12-15_11h49.18.236,Reversal,2022.1.2,60.014031289544846,1,
11,exp3.png,exp4.png,,1,0,1,0,0,11,11,11,,,,,,,,,,,,,,,,,,,,,,,,,False,30,31,False,exp3.png,exp4.png,trial_right_image,-1,exp4.png,1,exp3.png,exp4.png,0,2,non-reversed,incorrect,0.8931554713686873,0,valid_lose,289.4282966000028,16,,,,,,,,,,,,,,,,sub_477,2024-12-15_11h49.18.236,Reversal,2022.1.2,60.014031289544846,1,
12,exp1.png,exp2.png,,1,0,1,0,0,12,12,12,,,,,,,,,,,,,,,,,,,,,,,,,False,31,32,False,exp1.png,exp2.png,trial_right_image,-1,exp2.png,1,exp1.png,exp2.png,0,4,reversed,incorrect,0.1523989558222404,1,invalid_win,293.0244226998184,17,,,,,,,,,,,,,,,,sub_477,2024-12-15_11h49.18.236,Reversal,2022.1.2,60.014031289544846,1,
13,exp3.png,exp4.png,,1,0,1,0,0,13,13,13,,,,,,,,,,,,,,,,,,,,,,,,,False,32,33,False,exp3.png,exp4.png,trial_right_image,-1,exp4.png,1,exp3.png,exp4.png,0,2,non-reversed,incorrect,0.9798637022433717,0,valid_lose,296.9250660999678,17,,,,,,,,,,,,,,,,sub_477,2024-12-15_11h49.18.236,Reversal,2022.1.2,60.014031289544846,1,
14,exp1.png,exp2.png,,1,0,1,0,0,14,14,14,,,,,,,,,,,,,,,,,,,,,,,,,False,33,34,False,exp1.png,exp2.png,trial_right_image,-1,exp2.png,1,exp1.png,exp2.png,0,4,reversed,incorrect,0.542409387318398,0,valid_lose,301.328501699958,17,,,,,,,,,,,,,,,,sub_477,2024-12-15_11h49.18.236,Reversal,2022.1.2,60.014031289544846,1,
15,exp3.png,exp4.png,,1,0,1,0,0,15,15,15,,,,,,,,,,,,,,,,,,,,,,,,,False,34,35,True,exp4.png,exp3.png,trial_right_image,-1,exp3.png,1,exp3.png,exp4.png,1,1,non-reversed,correct,0.5374573824041772,1,valid_win,305.026269499911,18,,,,,,,,,,,,,,,,sub_477,2024-12-15_11h49.18.236,Reversal,2022.1.2,60.014031289544846,1,
16,exp1.png,exp2.png,,1,0,1,0,0,16,16,16,,,,,,,,,,,,,,,,,,,,,,,,,False,35,36,True,exp2.png,exp1.png,trial_left_image,1,exp2.png,1,exp1.png,exp2.png,0,4,reversed,incorrect,0.2977876294054367,0,valid_lose,309.07785529992543,18,,,,,,,,,,,,,,,,sub_477,2024-12-15_11h49.18.236,Reversal,2022.1.2,60.014031289544846,1,
17,exp3.png,exp4.png,,1,0,1,0,0,17,17,17,,,,,,,,,,,,,,,,,,,,,,,,,False,36,37,False,exp3.png,exp4.png,trial_left_image,1,exp3.png,1,exp3.png,exp4.png,1,1,non-reversed,correct,0.7238585565006386,1,valid_win,312.69366170000285,19,,,,,,,,,,,,,,,,sub_477,2024-12-15_11h49.18.236,Reversal,2022.1.2,60.014031289544846,1,
18,exp1.png,exp2.png,,1,0,1,0,0,18,18,18,,,,,,,,,,,,,,,,,,,,,,,,,False,37,38,False,exp1.png,exp2.png,trial_left_image,1,exp1.png,1,exp1.png,exp2.png,1,3,reversed,correct,0.2132709480457452,0,invalid_lose,319.2940948999021,19,,,,,,,,,,,,,,,,sub_477,2024-12-15_11h49.18.236,Reversal,2022.1.2,60.014031289544846,1,
19,exp3.png,exp4.png,,1,0,1,0,0,19,19,19,,,,,,,,,,,,,,,,,,,,,,,,,False,38,39,False,exp3.png,exp4.png,trial_left_image,1,exp3.png,1,exp3.png,exp4.png,1,1,non-reversed,correct,0.5092817428800414,1,valid_win,323.7785082999617,20,,,,,,,,,,,,,,,,sub_477,2024-12-15_11h49.18.236,Reversal,2022.1.2,60.014031289544846,1,
20,exp1.png,exp2.png,,1,0,1,0,0,20,20,20,,,,,,,,,,,,,,,,,,,,,,,,,False,39,40,True,exp2.png,exp1.png,trial_right_image,-1,exp1.png,1,exp1.png,exp2.png,1,3,reversed,correct,0.5175959175912036,1,valid_win,331.0277734999545,21,,,,,,,,,,,,,,,,sub_477,2024-12-15_11h49.18.236,Reversal,2022.1.2,60.014031289544846,1,
,,,exp1.png,1,0,1,0,,,,,0,0,0,0,0,0,0,0,,,,,,,,,,,,,,,,,,,,,,,,,,,,,,,,,,,,,,50.0,None,[],443.86491370014846,None,,,,,,,,,,,sub_477,2024-12-15_11h49.18.236,Reversal,2022.1.2,60.014031289544846,1,
,,,exp2.png,1,0,1,0,,,,,0,0,0,0,0,1,1,1,,,,,,,,,,,,,,,,,,,,,,,,,,,,,,,,,,,,,,50.0,None,[],453.7115388000384,None,,,,,,,,,,,sub_477,2024-12-15_11h49.18.236,Reversal,2022.1.2,60.014031289544846,1,
,,,exp3.png,1,0,1,0,,,,,0,0,0,0,0,2,2,2,,,,,,,,,,,,,,,,,,,,,,,,,,,,,,,,,,,,,,50.0,None,[],455.63061810005456,None,,,,,,,,,,,sub_477,2024-12-15_11h49.18.236,Reversal,2022.1.2,60.014031289544846,1,
,,,exp4.png,1,0,1,0,,,,,0,0,0,0,0,3,3,3,,,,,,,,,,,,,,,,,,,,,,,,,,,,,,,,,,,,,,50.0,None,[],456.0798226001207,None,,,,,,,,,,,sub_477,2024-12-15_11h49.18.236,Reversal,2022.1.2,60.014031289544846,1,
0,exp1.png,exp2.png,,2,0,2,0,0,0,0,0,,,,,,,,,,,,,,,,,,,,,,,,,True,,,,,,,,,,,,,,,,,,,,,,,,,,,,,,,,,,,,sub_477,2024-12-15_11h49.18.236,Reversal,2022.1.2,60.014031289544846,1,
1,exp3.png,exp4.png,,2,0,2,0,0,1,1,1,,,,,,,,,,,,,,,,,,,,,,,,,False,40,41,True,exp4.png,exp3.png,trial_right_image,-1,exp3.png,1,exp3.png,exp4.png,1,1,non-reversed,correct,0.9420231793625622,1,valid_win,353.1938997998368,22,,,,,,,,,,,,,,,,sub_477,2024-12-15_11h49.18.236,Reversal,2022.1.2,60.014031289544846,1,
2,exp1.png,exp2.png,,2,0,2,0,0,2,2,2,,,,,,,,,,,,,,,,,,,,,,,,,False,41,42,False,exp1.png,exp2.png,trial_left_image,1,exp1.png,1,exp1.png,exp2.png,1,3,reversed,correct,0.8756863658132957,1,valid_win,358.0938671999611,23,,,,,,,,,,,,,,,,sub_477,2024-12-15_11h49.18.236,Reversal,2022.1.2,60.014031289544846,1,
3,exp3.png,exp4.png,,2,0,2,0,0,3,3,3,,,,,,,,,,,,,,,,,,,,,,,,,False,42,43,False,exp3.png,exp4.png,trial_left_image,1,exp3.png,1,exp3.png,exp4.png,1,1,non-reversed,correct,0.875707119409426,1,valid_win,364.12684919987805,24,,,,,,,,,,,,,,,,sub_477,2024-12-15_11h49.18.236,Reversal,2022.1.2,60.014031289544846,1,
4,exp1.png,exp2.png,,2,0,2,0,0,4,4,4,,,,,,,,,,,,,,,,,,,,,,,,,False,43,44,False,exp1.png,exp2.png,trial_left_image,1,exp1.png,1,exp1.png,exp2.png,1,3,reversed,correct,0.38224386183086045,1,valid_win,369.31014749989845,25,,,,,,,,,,,,,,,,sub_477,2024-12-15_11h49.18.236,Reversal,2022.1.2,60.014031289544846,1,
5,exp3.png,exp4.png,,2,0,2,0,0,5,5,5,,,,,,,,,,,,,,,,,,,,,,,,,False,44,45,False,exp3.png,exp4.png,trial_right_image,-1,exp4.png,1,exp3.png,exp4.png,0,2,non-reversed,incorrect,0.7592280065697807,0,valid_lose,378.9931180998683,25,,,,,,,,,,,,,,,,sub_477,2024-12-15_11h49.18.236,Reversal,2022.1.2,60.014031289544846,1,
6,exp1.png,exp2.png,,2,0,2,0,0,6,6,6,,,,,,,,,,,,,,,,,,,,,,,,,False,45,46,True,exp2.png,exp1.png,trial_right_image,-1,exp1.png,1,exp1.png,exp2.png,1,3,reversed,correct,0.6664791977304355,1,valid_win,383.84320359979756,26,,,,,,,,,,,,,,,,sub_477,2024-12-15_11h49.18.236,Reversal,2022.1.2,60.014031289544846,1,
7,exp3.png,exp4.png,,2,0,2,0,0,7,7,7,,,,,,,,,,,,,,,,,,,,,,,,,False,46,47,True,exp4.png,exp3.png,trial_right_image,-1,exp3.png,1,exp3.png,exp4.png,1,1,non-reversed,correct,0.48032572094973947,1,valid_win,389.00927389995195,27,,,,,,,,,,,,,,,,sub_477,2024-12-15_11h49.18.236,Reversal,2022.1.2,60.014031289544846,1,
8,exp1.png,exp2.png,,2,0,2,0,0,8,8,8,,,,,,,,,,,,,,,,,,,,,,,,,False,47,48,False,exp1.png,exp2.png,trial_left_image,1,exp1.png,1,exp1.png,exp2.png,1,3,reversed,correct,0.15233952204985013,0,invalid_lose,395.00999749987386,27,,,,,,,,,,,,,,,,sub_477,2024-12-15_11h49.18.236,Reversal,2022.1.2,60.014031289544846,1,
9,exp3.png,exp4.png,,2,0,2,0,0,9,9,9,,,,,,,,,,,,,,,,,,,,,,,,,False,48,49,False,exp3.png,exp4.png,trial_left_image,1,exp3.png,1,exp3.png,exp4.png,1,1,non-reversed,correct,0.863374852623166,1,valid_win,400.5929731999058,28,,,,,,,,,,,,,,,,sub_477,2024-12-15_11h49.18.236,Reversal,2022.1.2,60.014031289544846,1,
10,exp1.png,exp2.png,,2,0,2,0,0,10,10,10,,,,,,,,,,,,,,,,,,,,,,,,,False,49,50,True,exp2.png,exp1.png,trial_right_image,-1,exp1.png,1,exp1.png,exp2.png,1,3,reversed,correct,0.3010558058662892,1,valid_win,406.34230169979855,29,,,,,,,,,,,,,,,,sub_477,2024-12-15_11h49.18.236,Reversal,2022.1.2,60.014031289544846,1,
11,exp3.png,exp4.png,,2,0,2,0,0,11,11,11,,,,,,,,,,,,,,,,,,,,,,,,,False,50,51,False,exp3.png,exp4.png,trial_left_image,1,exp3.png,1,exp3.png,exp4.png,1,1,non-reversed,correct,0.816634751573522,1,valid_win,412.55962069984525,30,,,,,,,,,,,,,,,,sub_477,2024-12-15_11h49.18.236,Reversal,2022.1.2,60.014031289544846,1,
12,exp1.png,exp2.png,,2,0,2,0,0,12,12,12,,,,,,,,,,,,,,,,,,,,,,,,,False,51,52,True,exp2.png,exp1.png,trial_left_image,1,exp2.png,1,exp1.png,exp2.png,0,4,reversed,incorrect,0.0066535236025404565,1,invalid_win,420.14289179979824,31,,,,,,,,,,,,,,,,sub_477,2024-12-15_11h49.18.236,Reversal,2022.1.2,60.014031289544846,1,
13,exp3.png,exp4.png,,2,0,2,0,0,13,13,13,,,,,,,,,,,,,,,,,,,,,,,,,False,52,53,False,exp3.png,exp4.png,trial_right_image,-1,exp4.png,1,exp3.png,exp4.png,0,2,non-reversed,incorrect,0.5626450397372731,0,valid_lose,425.025729799876,31,,,,,,,,,,,,,,,,sub_477,2024-12-15_11h49.18.236,Reversal,2022.1.2,60.014031289544846,1,
14,exp1.png,exp2.png,,2,0,2,0,0,14,14,14,,,,,,,,,,,,,,,,,,,,,,,,,False,53,54,True,exp2.png,exp1.png,trial_right_image,-1,exp1.png,1,exp1.png,exp2.png,1,3,reversed,correct,0.3379866562254644,1,valid_win,431.0925198998302,32,,,,,,,,,,,,,,,,sub_477,2024-12-15_11h49.18.236,Reversal,2022.1.2,60.014031289544846,1,
15,exp3.png,exp4.png,,2,0,2,0,0,15,15,15,,,,,,,,,,,,,,,,,,,,,,,,,False,54,55,True,exp4.png,exp3.png,trial_right_image,-1,exp3.png,1,exp3.png,exp4.png,1,1,non-reversed,correct,0.9025557401865971,1,valid_win,436.4756871999707,33,,,,,,,,,,,,,,,,sub_477,2024-12-15_11h49.18.236,Reversal,2022.1.2,60.014031289544846,1,
16,exp1.png,exp2.png,,2,0,2,0,0,16,16,16,,,,,,,,,,,,,,,,,,,,,,,,,False,55,56,True,exp2.png,exp1.png,trial_right_image,-1,exp1.png,1,exp1.png,exp2.png,1,3,reversed,correct,0.3999440953184109,1,valid_win,441.74191490001976,34,,,,,,,,,,,,,,,,sub_477,2024-12-15_11h49.18.236,Reversal,2022.1.2,60.014031289544846,1,
17,exp3.png,exp4.png,,2,0,2,0,0,17,17,17,,,,,,,,,,,,,,,,,,,,,,,,,False,56,57,False,exp3.png,exp4.png,trial_left_image,1,exp3.png,1,exp3.png,exp4.png,1,1,non-reversed,correct,0.5470985321769375,1,valid_win,447.2419524998404,35,,,,,,,,,,,,,,,,sub_477,2024-12-15_11h49.18.236,Reversal,2022.1.2,60.014031289544846,1,
18,exp1.png,exp2.png,,2,0,2,0,0,18,18,18,,,,,,,,,,,,,,,,,,,,,,,,,False,57,58,True,exp2.png,exp1.png,trial_right_image,-1,exp1.png,1,exp1.png,exp2.png,1,3,reversed,correct,0.5794429050022307,1,valid_win,451.94177989987656,36,,,,,,,,,,,,,,,,sub_477,2024-12-15_11h49.18.236,Reversal,2022.1.2,60.014031289544846,1,
19,exp3.png,exp4.png,,2,0,2,0,0,19,19,19,,,,,,,,,,,,,,,,,,,,,,,,,False,58,59,True,exp4.png,exp3.png,trial_right_image,-1,exp3.png,1,exp3.png,exp4.png,1,1,non-reversed,correct,0.8758997282271733,1,valid_win,458.0584872998297,37,,,,,,,,,,,,,,,,sub_477,2024-12-15_11h49.18.236,Reversal,2022.1.2,60.014031289544846,1,
20,exp1.png,exp2.png,,2,0,2,0,0,20,20,20,,,,,,,,,,,,,,,,,,,,,,,,,False,59,60,False,exp1.png,exp2.png,trial_left_image,1,exp1.png,1,exp1.png,exp2.png,1,3,reversed,correct,0.9950447227872681,1,valid_win,462.74226660002023,38,,,,,,,,,,,,,,,,sub_477,2024-12-15_11h49.18.236,Reversal,2022.1.2,60.014031289544846,1,
,,,exp1.png,2,0,2,0,,,,,0,0,0,0,0,0,0,0,,,,,,,,,,,,,,,,,,,,,,,,,,,,,,,,,,,,,,80.0,6.363450099946931,"[(80.0, 6.363450099946931)]",575.5970776001923,None,,,,80.0,,,,,,,sub_477,2024-12-15_11h49.18.236,Reversal,2022.1.2,60.014031289544846,1,
,,,exp2.png,2,0,2,0,,,,,0,0,0,0,0,1,1,1,,,,,,,,,,,,,,,,,,,,,,,,,,,,,,,,,,,,,,50.0,None,[],583.6240938000847,None,,,,,,,,,,,sub_477,2024-12-15_11h49.18.236,Reversal,2022.1.2,60.014031289544846,1,
,,,exp3.png,2,0,2,0,,,,,0,0,0,0,0,2,2,2,,,,,,,,,,,,,,,,,,,,,,,,,,,,,,,,,,,,,,50.0,None,[],585.308246599976,None,,,,,,,,,,,sub_477,2024-12-15_11h49.18.236,Reversal,2022.1.2,60.014031289544846,1,
,,,exp4.png,2,0,2,0,,,,,0,0,0,0,0,3,3,3,,,,,,,,,,,,,,,,,,,,,,,,,,,,,,,,,,,,,,50.0,None,[],586.8096374000888,None,,,,,,,,,,,sub_477,2024-12-15_11h49.18.236,Reversal,2022.1.2,60.014031289544846,1,
0,exp1.png,exp2.png,,,,,,,,,,,,,,,,,,0,0,0,0,0,0,0,0,,,,,,,,,True,,,,,,,,,,,,,,,,,,,,,,,,,,,,,,,,,,,,sub_477,2024-12-15_11h49.18.236,Reversal,2022.1.2,60.014031289544846,1,
1,exp3.png,exp4.png,,,,,,,,,,,,,,,,,,0,0,0,0,0,1,1,1,,,,,,,,,False,0,61,False,exp3.png,exp4.png,trial_left_image,1,exp3.png,1,exp3.png,exp4.png,1,1,non-reversed,correct,0.5730279331743804,1,valid_win,482.3077934999019,39,,,,,,,,,,478.00802399986424,,,,,,sub_477,2024-12-15_11h49.18.236,Reversal,2022.1.2,60.014031289544846,1,
2,exp1.png,exp2.png,,,,,,,,,,,,,,,,,,0,0,0,0,0,2,2,2,,,,,,,,,False,1,62,True,exp2.png,exp1.png,trial_right_image,-1,exp1.png,1,exp2.png,exp1.png,1,3,reversed,incorrect,0.0775052017187342,1,invalid_win,487.10795749980025,40,,,,,,,,,,,,,,,,sub_477,2024-12-15_11h49.18.236,Reversal,2022.1.2,60.014031289544846,1,
3,exp3.png,exp4.png,,,,,,,,,,,,,,,,,,0,0,0,0,0,3,3,3,,,,,,,,,False,2,63,False,exp3.png,exp4.png,trial_left_image,1,exp3.png,1,exp3.png,exp4.png,1,1,non-reversed,correct,0.6954506164847744,1,valid_win,491.9912158998195,41,,,,,,,,,,,,,,,,sub_477,2024-12-15_11h49.18.236,Reversal,2022.1.2,60.014031289544846,1,
4,exp1.png,exp2.png,,,,,,,,,,,,,,,,,,0,0,0,0,0,4,4,4,,,,,,,,,False,3,64,True,exp2.png,exp1.png,trial_right_image,-1,exp1.png,1,exp2.png,exp1.png,1,3,reversed,incorrect,0.19914611821939598,1,invalid_win,497.873719799798,42,,,,,,,,,,,,,,,,sub_477,2024-12-15_11h49.18.236,Reversal,2022.1.2,60.014031289544846,1,
5,exp3.png,exp4.png,,,,,,,,,,,,,,,,,,0,0,0,0,0,5,5,5,,,,,,,,,False,4,65,False,exp3.png,exp4.png,trial_left_image,1,exp3.png,1,exp3.png,exp4.png,1,1,non-reversed,correct,0.23943514302647073,0,invalid_lose,502.8572540997993,42,,,,,,,,,,,,,,,,sub_477,2024-12-15_11h49.18.236,Reversal,2022.1.2,60.014031289544846,1,
6,exp1.png,exp2.png,,,,,,,,,,,,,,,,,,0,0,0,0,0,6,6,6,,,,,,,,,False,5,66,False,exp1.png,exp2.png,trial_left_image,1,exp1.png,1,exp2.png,exp1.png,1,3,reversed,incorrect,0.9320204410346091,0,valid_lose,507.22113219997846,42,,,,,,,,,,,,,,,,sub_477,2024-12-15_11h49.18.236,Reversal,2022.1.2,60.014031289544846,1,
7,exp3.png,exp4.png,,,,,,,,,,,,,,,,,,0,0,0,0,0,7,7,7,,,,,,,,,False,6,67,False,exp3.png,exp4.png,trial_left_image,1,exp3.png,1,exp3.png,exp4.png,1,1,non-reversed,correct,0.5987553260739216,1,valid_win,512.2577607999556,43,,,,,,,,,,,,,,,,sub_477,2024-12-15_11h49.18.236,Reversal,2022.1.2,60.014031289544846,1,
8,exp1.png,exp2.png,,,,,,,,,,,,,,,,,,0,0,0,0,0,8,8,8,,,,,,,,,False,7,68,True,exp2.png,exp1.png,trial_right_image,-1,exp1.png,1,exp2.png,exp1.png,1,3,reversed,incorrect,0.7722443478969782,0,valid_lose,517.2244337999728,43,,,,,,,,,,,,,,,,sub_477,2024-12-15_11h49.18.236,Reversal,2022.1.2,60.014031289544846,1,
9,exp3.png,exp4.png,,,,,,,,,,,,,,,,,,0,0,0,0,0,9,9,9,,,,,,,,,False,8,69,True,exp4.png,exp3.png,trial_right_image,-1,exp3.png,1,exp3.png,exp4.png,1,1,non-reversed,correct,0.17883775387941403,0,invalid_lose,521.6552450999152,43,,,,,,,,,,,,,,,,sub_477,2024-12-15_11h49.18.236,Reversal,2022.1.2,60.014031289544846,1,
10,exp1.png,exp2.png,,,,,,,,,,,,,,,,,,0,0,0,0,0,10,10,10,,,,,,,,,False,9,70,True,exp2.png,exp1.png,trial_right_image,-1,exp1.png,1,exp2.png,exp1.png,1,3,reversed,incorrect,0.8665531233581979,0,valid_lose,526.3725180998445,43,,,,,,,,,,,,,,,,sub_477,2024-12-15_11h49.18.236,Reversal,2022.1.2,60.014031289544846,1,
11,exp3.png,exp4.png,,,,,,,,,,,,,,,,,,0,0,0,0,0,11,11,11,,,,,,,,,False,10,71,True,exp4.png,exp3.png,trial_right_image,-1,exp3.png,1,exp3.png,exp4.png,1,1,non-reversed,correct,0.000685617670111105,0,invalid_lose,530.5706606998574,43,,,,,,,,,,,,,,,,sub_477,2024-12-15_11h49.18.236,Reversal,2022.1.2,60.014031289544846,1,
12,exp1.png,exp2.png,,,,,,,,,,,,,,,,,,0,0,0,0,0,12,12,12,,,,,,,,,False,11,72,True,exp2.png,exp1.png,trial_right_image,-1,exp1.png,1,exp2.png,exp1.png,1,3,reversed,incorrect,0.7538038008828833,0,valid_lose,540.5070623999927,43,,,,,,,,,,,,,,,,sub_477,2024-12-15_11h49.18.236,Reversal,2022.1.2,60.014031289544846,1,
13,exp3.png,exp4.png,,,,,,,,,,,,,,,,,,0,0,0,0,0,13,13,13,,,,,,,,,False,12,73,False,exp3.png,exp4.png,trial_left_image,1,exp3.png,1,exp3.png,exp4.png,1,1,non-reversed,correct,0.01856998954132061,0,invalid_lose,545.9069230000023,43,,,,,,,,,,,,,,,,sub_477,2024-12-15_11h49.18.236,Reversal,2022.1.2,60.014031289544846,1,
14,exp1.png,exp2.png,,,,,,,,,,,,,,,,,,0,0,0,0,0,14,14,14,,,,,,,,,False,13,74,False,exp1.png,exp2.png,trial_right_image,-1,exp2.png,1,exp2.png,exp1.png,0,4,reversed,correct,0.3727637215783458,1,valid_win,550.7405101999175,44,,,,,,,,,,,,,,,,sub_477,2024-12-15_11h49.18.236,Reversal,2022.1.2,60.014031289544846,1,
15,exp3.png,exp4.png,,,,,,,,,,,,,,,,,,0,0,0,0,0,15,15,15,,,,,,,,,False,14,75,False,exp3.png,exp4.png,trial_right_image,-1,exp4.png,1,exp3.png,exp4.png,0,2,non-reversed,incorrect,0.9082795940752189,0,valid_lose,554.8052184998523,44,,,,,,,,,,,,,,,,sub_477,2024-12-15_11h49.18.236,Reversal,2022.1.2,60.014031289544846,1,
16,exp1.png,exp2.png,,,,,,,,,,,,,,,,,,0,0,0,0,0,16,16,16,,,,,,,,,False,15,76,True,exp2.png,exp1.png,trial_left_image,1,exp2.png,1,exp2.png,exp1.png,0,4,reversed,correct,0.26970788421052583,1,valid_win,559.2736101998016,45,,,,,,,,,,,,,,,,sub_477,2024-12-15_11h49.18.236,Reversal,2022.1.2,60.014031289544846,1,
17,exp3.png,exp4.png,,,,,,,,,,,,,,,,,,0,0,0,0,0,17,17,17,,,,,,,,,False,16,77,True,exp4.png,exp3.png,trial_left_image,1,exp4.png,1,exp3.png,exp4.png,0,2,non-reversed,incorrect,0.6864958462966986,0,valid_lose,564.3898502998054,45,,,,,,,,,,,,,,,,sub_477,2024-12-15_11h49.18.236,Reversal,2022.1.2,60.014031289544846,1,
18,exp1.png,exp2.png,,,,,,,,,,,,,,,,,,0,0,0,0,0,18,18,18,,,,,,,,,False,17,78,False,exp1.png,exp2.png,trial_left_image,1,exp1.png,1,exp2.png,exp1.png,1,3,reversed,incorrect,0.02198376696843718,1,invalid_win,570.173549399944,46,,,,,,,,,,,,,,,,sub_477,2024-12-15_11h49.18.236,Reversal,2022.1.2,60.014031289544846,1,
19,exp3.png,exp4.png,,,,,,,,,,,,,,,,,,0,0,0,0,0,19,19,19,,,,,,,,,False,18,79,True,exp4.png,exp3.png,trial_right_image,-1,exp3.png,1,exp3.png,exp4.png,1,1,non-reversed,correct,0.4758256481478126,1,valid_win,578.572936499957,47,,,,,,,,,,,,,,,,sub_477,2024-12-15_11h49.18.236,Reversal,2022.1.2,60.014031289544846,1,
20,exp1.png,exp2.png,,,,,,,,,,,,,,,,,,0,0,0,0,0,20,20,20,,,,,,,,,False,19,80,False,exp1.png,exp2.png,trial_left_image,1,exp1.png,1,exp2.png,exp1.png,1,3,reversed,incorrect,0.08746091210913265,1,invalid_win,583.5898101998027,48,,,,,,,,,,,,,,,,sub_477,2024-12-15_11h49.18.236,Reversal,2022.1.2,60.014031289544846,1,
,,,exp1.png,,,,,,,,,,,,,,,,,0,0,0,0,,,,,0,0,0,0,0,0,0,0,,,,,,,,,,,,,,,,,,,,,,50.0,None,[],696.4277995000593,None,,,,,,,,,,,sub_477,2024-12-15_11h49.18.236,Reversal,2022.1.2,60.014031289544846,1,
,,,exp2.png,,,,,,,,,,,,,,,,,0,0,0,0,,,,,0,0,0,0,0,1,1,1,,,,,,,,,,,,,,,,,,,,,,50.0,None,[],699.5056106999982,None,,,,,,,,,,,sub_477,2024-12-15_11h49.18.236,Reversal,2022.1.2,60.014031289544846,1,
,,,exp3.png,,,,,,,,,,,,,,,,,0,0,0,0,,,,,0,0,0,0,0,2,2,2,,,,,,,,,,,,,,,,,,,,,,50.0,None,[],700.1549912001938,None,,,,,,,,,,,sub_477,2024-12-15_11h49.18.236,Reversal,2022.1.2,60.014031289544846,1,
,,,exp4.png,,,,,,,,,,,,,,,,,0,0,0,0,,,,,0,0,0,0,0,3,3,3,,,,,,,,,,,,,,,,,,,,,,50.0,None,[],701.08898520004,None,,,,,,,,,,,sub_477,2024-12-15_11h49.18.236,Reversal,2022.1.2,60.014031289544846,1,
0,exp1.png,exp2.png,,,,,,,,,,,,,,,,,,1,0,1,0,0,0,0,0,,,,,,,,,True,,,,,,,,,,,,,,,,,,,,,,,,,,,,,,,,,,,,sub_477,2024-12-15_11h49.18.236,Reversal,2022.1.2,60.014031289544846,1,
1,exp3.png,exp4.png,,,,,,,,,,,,,,,,,,1,0,1,0,0,1,1,1,,,,,,,,,False,20,81,True,exp4.png,exp3.png,trial_left_image,1,exp4.png,1,exp3.png,exp4.png,0,2,non-reversed,incorrect,0.3039848257531248,0,valid_lose,596.6224053998012,48,,,,,,,,,,,,,,,,sub_477,2024-12-15_11h49.18.236,Reversal,2022.1.2,60.014031289544846,1,
2,exp1.png,exp2.png,,,,,,,,,,,,,,,,,,1,0,1,0,0,2,2,2,,,,,,,,,False,21,82,True,exp2.png,exp1.png,trial_right_image,-1,exp1.png,1,exp2.png,exp1.png,1,3,reversed,incorrect,0.5928012239263922,0,valid_lose,601.0888493999373,48,,,,,,,,,,,,,,,,sub_477,2024-12-15_11h49.18.236,Reversal,2022.1.2,60.014031289544846,1,
3,exp3.png,exp4.png,,,,,,,,,,,,,,,,,,1,0,1,0,0,3,3,3,,,,,,,,,False,22,83,True,exp4.png,exp3.png,trial_right_image,-1,exp3.png,1,exp3.png,exp4.png,1,1,non-reversed,correct,0.5451105828213364,1,valid_win,605.1217876998708,49,,,,,,,,,,,,,,,,sub_477,2024-12-15_11h49.18.236,Reversal,2022.1.2,60.014031289544846,1,
4,exp1.png,exp2.png,,,,,,,,,,,,,,,,,,1,0,1,0,0,4,4,4,,,,,,,,,False,23,84,False,exp1.png,exp2.png,trial_left_image,1,exp1.png,1,exp2.png,exp1.png,1,3,reversed,incorrect,0.46726541830422774,0,valid_lose,609.9889592998661,49,,,,,,,,,,,,,,,,sub_477,2024-12-15_11h49.18.236,Reversal,2022.1.2,60.014031289544846,1,
5,exp3.png,exp4.png,,,,,,,,,,,,,,,,,,1,0,1,0,0,5,5,5,,,,,,,,,False,24,85,True,exp4.png,exp3.png,trial_right_image,-1,exp3.png,1,exp3.png,exp4.png,1,1,non-reversed,correct,0.9850704983589743,1,valid_win,615.3554432999808,50,,,,,,,,,,,,,,,,sub_477,2024-12-15_11h49.18.236,Reversal,2022.1.2,60.014031289544846,1,
6,exp1.png,exp2.png,,,,,,,,,,,,,,,,,,1,0,1,0,0,6,6,6,,,,,,,,,False,25,86,False,exp1.png,exp2.png,trial_left_image,1,exp1.png,1,exp2.png,exp1.png,1,3,reversed,incorrect,0.19397428862281474,1,invalid_win,620.188773999922,51,,,,,,,,,,,,,,,,sub_477,2024-12-15_11h49.18.236,Reversal,2022.1.2,60.014031289544846,1,
7,exp3.png,exp4.png,,,,,,,,,,,,,,,,,,1,0,1,0,0,7,7,7,,,,,,,,,False,26,87,False,exp3.png,exp4.png,trial_left_image,1,exp3.png,1,exp3.png,exp4.png,1,1,non-reversed,correct,0.7436386075542873,1,valid_win,625.0558199000079,52,,,,,,,,,,,,,,,,sub_477,2024-12-15_11h49.18.236,Reversal,2022.1.2,60.014031289544846,1,
8,exp1.png,exp2.png,,,,,,,,,,,,,,,,,,1,0,1,0,0,8,8,8,,,,,,,,,False,27,88,True,exp2.png,exp1.png,trial_right_image,-1,exp1.png,1,exp2.png,exp1.png,1,3,reversed,incorrect,0.37465176934732036,0,valid_lose,633.6057973999996,52,,,,,,,,,,,,,,,,sub_477,2024-12-15_11h49.18.236,Reversal,2022.1.2,60.014031289544846,1,
9,exp3.png,exp4.png,,,,,,,,,,,,,,,,,,1,0,1,0,0,9,9,9,,,,,,,,,False,28,89,False,exp3.png,exp4.png,trial_right_image,-1,exp4.png,1,exp3.png,exp4.png,0,2,non-reversed,incorrect,0.1224382082930654,1,invalid_win,636.5217828999739,53,,,,,,,,,,,,,,,,sub_477,2024-12-15_11h49.18.236,Reversal,2022.1.2,60.014031289544846,1,
10,exp1.png,exp2.png,,,,,,,,,,,,,,,,,,1,0,1,0,0,10,10,10,,,,,,,,,False,29,90,False,exp1.png,exp2.png,trial_right_image,-1,exp2.png,1,exp2.png,exp1.png,0,4,reversed,correct,0.7101787557163125,1,valid_win,646.0718733998947,54,,,,,,,,,,,,,,,,sub_477,2024-12-15_11h49.18.236,Reversal,2022.1.2,60.014031289544846,1,
11,exp3.png,exp4.png,,,,,,,,,,,,,,,,,,1,0,1,0,0,11,11,11,,,,,,,,,False,30,91,False,exp3.png,exp4.png,trial_right_image,-1,exp4.png,1,exp3.png,exp4.png,0,2,non-reversed,incorrect,0.3995445485609884,0,valid_lose,651.1394129998516,54,,,,,,,,,,,,,,,,sub_477,2024-12-15_11h49.18.236,Reversal,2022.1.2,60.014031289544846,1,
12,exp1.png,exp2.png,,,,,,,,,,,,,,,,,,1,0,1,0,0,12,12,12,,,,,,,,,False,31,92,True,exp2.png,exp1.png,trial_left_image,1,exp2.png,1,exp2.png,exp1.png,0,4,reversed,correct,0.18176936307798908,0,invalid_lose,657.1046962998807,54,,,,,,,,,,,,,,,,sub_477,2024-12-15_11h49.18.236,Reversal,2022.1.2,60.014031289544846,1,
13,exp3.png,exp4.png,,,,,,,,,,,,,,,,,,1,0,1,0,0,13,13,13,,,,,,,,,False,32,93,True,exp4.png,exp3.png,trial_right_image,-1,exp3.png,1,exp3.png,exp4.png,1,1,non-reversed,correct,0.46503409345831637,1,valid_win,661.6049300997984,55,,,,,,,,,,,,,,,,sub_477,2024-12-15_11h49.18.236,Reversal,2022.1.2,60.014031289544846,1,
14,exp1.png,exp2.png,,,,,,,,,,,,,,,,,,1,0,1,0,0,14,14,14,,,,,,,,,False,33,94,True,exp2.png,exp1.png,trial_right_image,-1,exp1.png,1,exp2.png,exp1.png,1,3,reversed,incorrect,0.15029451186452014,1,invalid_win,667.4548022998497,56,,,,,,,,,,,,,,,,sub_477,2024-12-15_11h49.18.236,Reversal,2022.1.2,60.014031289544846,1,
15,exp3.png,exp4.png,,,,,,,,,,,,,,,,,,1,0,1,0,0,15,15,15,,,,,,,,,False,34,95,False,exp3.png,exp4.png,trial_left_image,1,exp3.png,1,exp3.png,exp4.png,1,1,non-reversed,correct,0.2518717247822807,1,valid_win,674.0376581999008,57,,,,,,,,,,,,,,,,sub_477,2024-12-15_11h49.18.236,Reversal,2022.1.2,60.014031289544846,1,
16,exp1.png,exp2.png,,,,,,,,,,,,,,,,,,1,0,1,0,0,16,16,16,,,,,,,,,False,35,96,False,exp1.png,exp2.png,trial_left_image,1,exp1.png,1,exp2.png,exp1.png,1,3,reversed,incorrect,0.7344969132673265,0,valid_lose,680.8375840999652,57,,,,,,,,,,,,,,,,sub_477,2024-12-15_11h49.18.236,Reversal,2022.1.2,60.014031289544846,1,
17,exp3.png,exp4.png,,,,,,,,,,,,,,,,,,1,0,1,0,0,17,17,17,,,,,,,,,False,36,97,False,exp3.png,exp4.png,trial_right_image,-1,exp4.png,1,exp3.png,exp4.png,0,2,non-reversed,incorrect,0.5067137972581922,0,valid_lose,685.6876729999203,57,,,,,,,,,,,,,,,,sub_477,2024-12-15_11h49.18.236,Reversal,2022.1.2,60.014031289544846,1,
18,exp1.png,exp2.png,,,,,,,,,,,,,,,,,,1,0,1,0,0,18,18,18,,,,,,,,,False,37,98,False,exp1.png,exp2.png,trial_right_image,-1,exp2.png,1,exp2.png,exp1.png,0,4,reversed,correct,0.6475236978568809,1,valid_win,690.1034710998647,58,,,,,,,,,,,,,,,,sub_477,2024-12-15_11h49.18.236,Reversal,2022.1.2,60.014031289544846,1,
19,exp3.png,exp4.png,,,,,,,,,,,,,,,,,,1,0,1,0,0,19,19,19,,,,,,,,,False,38,99,True,exp4.png,exp3.png,trial_left_image,1,exp4.png,1,exp3.png,exp4.png,0,2,non-reversed,incorrect,0.2875786645044991,0,valid_lose,695.5542534999549,58,,,,,,,,,,,,,,,,sub_477,2024-12-15_11h49.18.236,Reversal,2022.1.2,60.014031289544846,1,
20,exp1.png,exp2.png,,,,,,,,,,,,,,,,,,1,0,1,0,0,20,20,20,,,,,,,,,False,39,100,True,exp2.png,exp1.png,trial_right_image,-1,exp1.png,1,exp2.png,exp1.png,1,3,reversed,incorrect,0.6813891499985422,0,valid_lose,702.4869638998061,58,,,,,,,,,,,,,,,,sub_477,2024-12-15_11h49.18.236,Reversal,2022.1.2,60.014031289544846,1,
,,,exp1.png,,,,,,,,,,,,,,,,,1,0,1,0,,,,,0,0,0,0,0,0,0,0,,,,,,,,,,,,,,,,,,,,,,54.0,1.4814130999147892,"[(54.0, 1.4814130999147892)]",815.3268077000976,None,,,,54.0,,,,,,,sub_477,2024-12-15_11h49.18.236,Reversal,2022.1.2,60.014031289544846,1,
,,,exp2.png,,,,,,,,,,,,,,,,,1,0,1,0,,,,,0,0,0,0,0,1,1,1,,,,,,,,,,,,,,,,,,,,,,50.0,None,[],817.7078744000755,None,,,,,,,,,,,sub_477,2024-12-15_11h49.18.236,Reversal,2022.1.2,60.014031289544846,1,
,,,exp3.png,,,,,,,,,,,,,,,,,1,0,1,0,,,,,0,0,0,0,0,2,2,2,,,,,,,,,,,,,,,,,,,,,,50.0,None,[],818.1543894000351,None,,,,,,,,,,,sub_477,2024-12-15_11h49.18.236,Reversal,2022.1.2,60.014031289544846,1,
,,,exp4.png,,,,,,,,,,,,,,,,,1,0,1,0,,,,,0,0,0,0,0,3,3,3,,,,,,,,,,,,,,,,,,,,,,50.0,None,[],819.3213176999707,None,,,,,,,,,,,sub_477,2024-12-15_11h49.18.236,Reversal,2022.1.2,60.014031289544846,1,
0,exp1.png,exp2.png,,,,,,,,,,,,,,,,,,2,0,2,0,0,0,0,0,,,,,,,,,True,,,,,,,,,,,,,,,,,,,,,,,,,,,,,,,,,,,,sub_477,2024-12-15_11h49.18.236,Reversal,2022.1.2,60.014031289544846,1,
1,exp3.png,exp4.png,,,,,,,,,,,,,,,,,,2,0,2,0,0,1,1,1,,,,,,,,,False,40,101,True,exp4.png,exp3.png,trial_left_image,1,exp4.png,1,exp3.png,exp4.png,0,2,non-reversed,incorrect,0.35659503082572275,0,valid_lose,717.4702545998152,58,,,,,,,,,,,,,,,,sub_477,2024-12-15_11h49.18.236,Reversal,2022.1.2,60.014031289544846,1,
2,exp1.png,exp2.png,,,,,,,,,,,,,,,,,,2,0,2,0,0,2,2,2,,,,,,,,,False,41,102,True,exp2.png,exp1.png,trial_left_image,1,exp2.png,1,exp2.png,exp1.png,0,4,reversed,correct,0.7366137530414006,1,valid_win,723.4203839998227,59,,,,,,,,,,,,,,,,sub_477,2024-12-15_11h49.18.236,Reversal,2022.1.2,60.014031289544846,1,
3,exp3.png,exp4.png,,,,,,,,,,,,,,,,,,2,0,2,0,0,3,3,3,,,,,,,,,False,42,103,False,exp3.png,exp4.png,trial_right_image,-1,exp4.png,1,exp3.png,exp4.png,0,2,non-reversed,incorrect,0.19280154481674927,1,invalid_win,728.4034427998122,60,,,,,,,,,,,,,,,,sub_477,2024-12-15_11h49.18.236,Reversal,2022.1.2,60.014031289544846,1,
4,exp1.png,exp2.png,,,,,,,,,,,,,,,,,,2,0,2,0,0,4,4,4,,,,,,,,,False,43,104,False,exp1.png,exp2.png,trial_left_image,1,exp1.png,1,exp2.png,exp1.png,1,3,reversed,incorrect,0.6402253902722055,0,valid_lose,735.7532181998249,60,,,,,,,,,,,,,,,,sub_477,2024-12-15_11h49.18.236,Reversal,2022.1.2,60.014031289544846,1,
5,exp3.png,exp4.png,,,,,,,,,,,,,,,,,,2,0,2,0,0,5,5,5,,,,,,,,,False,44,105,False,exp3.png,exp4.png,trial_left_image,1,exp3.png,1,exp3.png,exp4.png,1,1,non-reversed,correct,0.5211427597462235,1,valid_win,741.2851082999259,61,,,,,,,,,,,,,,,,sub_477,2024-12-15_11h49.18.236,Reversal,2022.1.2,60.014031289544846,1,
6,exp1.png,exp2.png,,,,,,,,,,,,,,,,,,2,0,2,0,0,6,6,6,,,,,,,,,False,45,106,True,exp2.png,exp1.png,trial_right_image,-1,exp1.png,1,exp2.png,exp1.png,1,3,reversed,incorrect,0.5078259321254887,0,valid_lose,746.0371693000197,61,,,,,,,,,,,,,,,,sub_477,2024-12-15_11h49.18.236,Reversal,2022.1.2,60.014031289544846,1,
7,exp3.png,exp4.png,,,,,,,,,,,,,,,,,,2,0,2,0,0,7,7,7,,,,,,,,,False,46,107,True,exp4.png,exp3.png,trial_right_image,-1,exp3.png,1,exp3.png,exp4.png,1,1,non-reversed,correct,0.8195559175221058,1,valid_win,750.4497441998683,62,,,,,,,,,,,,,,,,sub_477,2024-12-15_11h49.18.236,Reversal,2022.1.2,60.014031289544846,1,
8,exp1.png,exp2.png,,,,,,,,,,,,,,,,,,2,0,2,0,0,8,8,8,,,,,,,,,False,47,108,True,exp2.png,exp1.png,trial_right_image,-1,exp1.png,1,exp2.png,exp1.png,1,3,reversed,incorrect,0.28244865620440485,0,valid_lose,757.1030641000252,62,,,,,,,,,,,,,,,,sub_477,2024-12-15_11h49.18.236,Reversal,2022.1.2,60.014031289544846,1,
9,exp3.png,exp4.png,,,,,,,,,,,,,,,,,,2,0,2,0,0,9,9,9,,,,,,,,,False,48,109,False,exp3.png,exp4.png,trial_right_image,-1,exp4.png,1,exp3.png,exp4.png,0,2,non-reversed,incorrect,0.14310466172186698,1,invalid_win,763.202856299933,63,,,,,,,,,,,,,,,,sub_477,2024-12-15_11h49.18.236,Reversal,2022.1.2,60.014031289544846,1,
10,exp1.png,exp2.png,,,,,,,,,,,,,,,,,,2,0,2,0,0,10,10,10,,,,,,,,,False,49,110,True,exp2.png,exp1.png,trial_left_image,1,exp2.png,1,exp2.png,exp1.png,0,4,reversed,correct,0.985616541450279,1,valid_win,767.0524744999129,64,,,,,,,,,,,,,,,,sub_477,2024-12-15_11h49.18.236,Reversal,2022.1.2,60.014031289544846,1,
11,exp3.png,exp4.png,,,,,,,,,,,,,,,,,,2,0,2,0,0,11,11,11,,,,,,,,,False,50,111,False,exp3.png,exp4.png,trial_right_image,-1,exp4.png,1,exp3.png,exp4.png,0,2,non-reversed,incorrect,0.7914353394626744,0,valid_lose,771.8514163999353,64,,,,,,,,,,,,,,,,sub_477,2024-12-15_11h49.18.236,Reversal,2022.1.2,60.014031289544846,1,
12,exp1.png,exp2.png,,,,,,,,,,,,,,,,,,2,0,2,0,0,12,12,12,,,,,,,,,False,51,112,False,exp1.png,exp2.png,trial_left_image,1,exp1.png,1,exp2.png,exp1.png,1,3,reversed,incorrect,0.5162080330666697,0,valid_lose,780.6027775998227,64,,,,,,,,,,,,,,,,sub_477,2024-12-15_11h49.18.236,Reversal,2022.1.2,60.014031289544846,1,
13,exp3.png,exp4.png,,,,,,,,,,,,,,,,,,2,0,2,0,0,13,13,13,,,,,,,,,False,52,113,False,exp3.png,exp4.png,trial_right_image,-1,exp4.png,1,exp3.png,exp4.png,0,2,non-reversed,incorrect,0.320493875449798,0,valid_lose,787.0193572000135,64,,,,,,,,,,,,,,,,sub_477,2024-12-15_11h49.18.236,Reversal,2022.1.2,60.014031289544846,1,
14,exp1.png,exp2.png,,,,,,,,,,,,,,,,,,2,0,2,0,0,14,14,14,,,,,,,,,False,53,114,False,exp1.png,exp2.png,trial_right_image,-1,exp2.png,1,exp2.png,exp1.png,0,4,reversed,correct,0.448839793187951,1,valid_win,792.2693787999451,65,,,,,,,,,,,,,,,,sub_477,2024-12-15_11h49.18.236,Reversal,2022.1.2,60.014031289544846,1,
15,exp3.png,exp4.png,,,,,,,,,,,,,,,,,,2,0,2,0,0,15,15,15,,,,,,,,,False,54,115,True,exp4.png,exp3.png,trial_left_image,1,exp4.png,1,exp3.png,exp4.png,0,2,non-reversed,incorrect,0.9037253813520083,0,valid_lose,797.3193548999261,65,,,,,,,,,,,,,,,,sub_477,2024-12-15_11h49.18.236,Reversal,2022.1.2,60.014031289544846,1,
16,exp1.png,exp2.png,,,,,,,,,,,,,,,,,,2,0,2,0,0,16,16,16,,,,,,,,,False,55,116,False,exp1.png,exp2.png,trial_left_image,1,exp1.png,1,exp2.png,exp1.png,1,3,reversed,incorrect,0.795577518738032,0,valid_lose,803.2691946998239,65,,,,,,,,,,,,,,,,sub_477,2024-12-15_11h49.18.236,Reversal,2022.1.2,60.014031289544846,1,
17,exp3.png,exp4.png,,,,,,,,,,,,,,,,,,2,0,2,0,0,17,17,17,,,,,,,,,False,56,117,True,exp4.png,exp3.png,trial_left_image,1,exp4.png,1,exp3.png,exp4.png,0,2,non-reversed,incorrect,0.9502755451103724,0,valid_lose,808.0024904999882,65,,,,,,,,,,,,,,,,sub_477,2024-12-15_11h49.18.236,Reversal,2022.1.2,60.014031289544846,1,
18,exp1.png,exp2.png,,,,,,,,,,,,,,,,,,2,0,2,0,0,18,18,18,,,,,,,,,False,57,118,True,exp2.png,exp1.png,trial_left_image,1,exp2.png,1,exp2.png,exp1.png,0,4,reversed,correct,0.04462752487441679,0,invalid_lose,813.3857503999025,65,,,,,,,,,,,,,,,,sub_477,2024-12-15_11h49.18.236,Reversal,2022.1.2,60.014031289544846,1,
19,exp3.png,exp4.png,,,,,,,,,,,,,,,,,,2,0,2,0,0,19,19,19,,,,,,,,,False,58,119,True,exp4.png,exp3.png,trial_left_image,1,exp4.png,1,exp3.png,exp4.png,0,2,non-reversed,incorrect,0.49556485195333433,0,valid_lose,818.8348346999846,65,,,,,,,,,,,,,,,,sub_477,2024-12-15_11h49.18.236,Reversal,2022.1.2,60.014031289544846,1,
20,exp1.png,exp2.png,,,,,,,,,,,,,,,,,,2,0,2,0,0,20,20,20,,,,,,,,,False,59,120,False,exp1.png,exp2.png,trial_right_image,-1,exp2.png,1,exp2.png,exp1.png,0,4,reversed,correct,0.49850461256790135,1,valid_win,823.6190913999453,66,,,,,,,,,,,,,,,,sub_477,2024-12-15_11h49.18.236,Reversal,2022.1.2,60.014031289544846,1,
,,,exp1.png,,,,,,,,,,,,,,,,,2,0,2,0,,,,,0,0,0,0,0,0,0,0,,,,,,,,,,,,,,,,,,,,,,61.0,3.382067099912092,"[(61.0, 3.382067099912092)]",936.472675899975,None,,,,61.0,,,,,,,sub_477,2024-12-15_11h49.18.236,Reversal,2022.1.2,60.014031289544846,1,
,,,exp2.png,,,,,,,,,,,,,,,,,2,0,2,0,,,,,0,0,0,0,0,1,1,1,,,,,,,,,,,,,,,,,,,,,,50.0,None,[],941.2757918999996,None,,,,,,,,,,,sub_477,2024-12-15_11h49.18.236,Reversal,2022.1.2,60.014031289544846,1,
,,,exp3.png,,,,,,,,,,,,,,,,,2,0,2,0,,,,,0,0,0,0,0,2,2,2,,,,,,,,,,,,,,,,,,,,,,50.0,None,[],941.7220887001604,None,,,,,,,,,,,sub_477,2024-12-15_11h49.18.236,Reversal,2022.1.2,60.014031289544846,1,
,,,exp4.png,,,,,,,,,,,,,,,,,2,0,2,0,,,,,0,0,0,0,0,3,3,3,,,,,,,,,,,,,,,,,,,,,,50.0,None,[],943.50214960007,None,,,,,,,,,,,sub_477,2024-12-15_11h49.18.236,Reversal,2022.1.2,60.014031289544846,1,
,,,,,,,,,,,,,,,,,,,,,,,,,,,,,,,,,,,,,,,,,,,,,,,,,,,,,,,,66,,,,,,,,,,,65,40,25,357.2780300001614,0,,,,,,,
