trial_index,trial_image1_file,trial_image2_file,image_file,learning_outer_loop.thisRepN,learning_outer_loop.thisTrialN,learning_outer_loop.thisN,learning_outer_loop.thisIndex,learning_inner_loop.thisRepN,learning_inner_loop.thisTrialN,learning_inner_loop.thisN,learning_inner_loop.thisIndex,learning_estimation_outer_loop.thisRepN,learning_estimation_outer_loop.thisTrialN,learning_estimation_outer_loop.thisN,learning_estimation_outer_loop.thisIndex,learning_estimation_inner_loop.thisRepN,learning_estimation_inner_loop.thisTrialN,learning_estimation_inner_loop.thisN,learning_estimation_inner_loop.thisIndex,reversal_outer_loop.thisRepN,reversal_outer_loop.thisTrialN,reversal_outer_loop.thisN,reversal_outer_loop.thisIndex,reversal_inner_loop.thisRepN,reversal_inner_loop.thisTrialN,reversal_inner_loop.thisN,reversal_inner_loop.thisIndex,reversal_estimation_outer_loop.thisRepN,reversal_estimation_outer_loop.thisTrialN,reversal_estimation_outer_loop.thisN,reversal_estimation_outer_loop.thisIndex,reversal_estimation_inner_loop.thisRepN,reversal_estimation_inner_loop.thisTrialN,reversal_estimation_inner_loop.thisN,reversal_estimation_inner_loop.thisIndex,skipped,total_trial_counter,trial_num,left_right_flip,left_image_file,right_image_file,clicked_stimulus_side,side,clicked_stimulus,version,high_prob_image_file,low_prob_image_file,choice_a,choice_b,pair_type,correct,trial_feedback_random,reward,trial_type,overall_time_after_trial,score,estimation_exp1.png,estimation_rating.response,estimation_rating.rt,estimation_rating.history,estimation_rating.started,estimation_rating.stopped,estimation_exp2.png,estimation_exp3.png,estimation_exp4.png,total_learning_time,total_correct,learning_correct,reversal_correct,total_reversal_time,extra_block,participant,date,expName,psychopyVersion,frameRate,ver,
0,exp1.png,exp2.png,,0,0,0,0,0,0,0,0,,,,,,,,,,,,,,,,,,,,,,,,,False,0,1,False,exp1.png,exp2.png,trial_right_image,-1,exp2.png,3,exp2.png,exp1.png,1,3,reversed,correct,0.2673378603788905,1,valid_win,19.833702800096944,1,,,,,,,,,,,,,,,,sub_107,2022-11-11_10h14.08.304,Reversal,2022.1.2,60.036766572152786,3,
1,exp3.png,exp4.png,,0,0,0,0,0,1,1,1,,,,,,,,,,,,,,,,,,,,,,,,,False,1,2,True,exp4.png,exp3.png,trial_right_image,-1,exp3.png,3,exp4.png,exp3.png,0,2,non-reversed,incorrect,0.6964551720608936,0,valid_lose,28.549297800054774,1,,,,,,,,,,,,,,,,sub_107,2022-11-11_10h14.08.304,Reversal,2022.1.2,60.036766572152786,3,
2,exp1.png,exp2.png,,0,0,0,0,0,2,2,2,,,,,,,,,,,,,,,,,,,,,,,,,False,2,3,False,exp1.png,exp2.png,trial_right_image,-1,exp2.png,3,exp2.png,exp1.png,1,3,reversed,correct,0.186555966683421,0,invalid_lose,35.84870130009949,1,,,,,,,,,,,,,,,,sub_107,2022-11-11_10h14.08.304,Reversal,2022.1.2,60.036766572152786,3,
3,exp3.png,exp4.png,,0,0,0,0,0,3,3,3,,,,,,,,,,,,,,,,,,,,,,,,,False,3,4,False,exp3.png,exp4.png,trial_left_image,1,exp3.png,3,exp4.png,exp3.png,0,2,non-reversed,incorrect,0.5004117770070875,0,valid_lose,45.89989609993063,1,,,,,,,,,,,,,,,,sub_107,2022-11-11_10h14.08.304,Reversal,2022.1.2,60.036766572152786,3,
4,exp1.png,exp2.png,,0,0,0,0,0,4,4,4,,,,,,,,,,,,,,,,,,,,,,,,,False,4,5,False,exp1.png,exp2.png,trial_left_image,1,exp1.png,3,exp2.png,exp1.png,0,4,reversed,incorrect,0.4148139803392843,0,valid_lose,57.249230300076306,1,,,,,,,,,,,,,,,,sub_107,2022-11-11_10h14.08.304,Reversal,2022.1.2,60.036766572152786,3,
5,exp3.png,exp4.png,,0,0,0,0,0,5,5,5,,,,,,,,,,,,,,,,,,,,,,,,,False,5,6,False,exp3.png,exp4.png,trial_right_image,-1,exp4.png,3,exp4.png,exp3.png,1,1,non-reversed,correct,0.807278214723686,1,valid_win,61.98177299997769,2,,,,,,,,,,,,,,,,sub_107,2022-11-11_10h14.08.304,Reversal,2022.1.2,60.036766572152786,3,
6,exp1.png,exp2.png,,0,0,0,0,0,6,6,6,,,,,,,,,,,,,,,,,,,,,,,,,False,6,7,True,exp2.png,exp1.png,trial_right_image,-1,exp1.png,3,exp2.png,exp1.png,0,4,reversed,incorrect,0.7573969976953852,0,valid_lose,66.68115919991396,2,,,,,,,,,,,,,,,,sub_107,2022-11-11_10h14.08.304,Reversal,2022.1.2,60.036766572152786,3,
7,exp3.png,exp4.png,,0,0,0,0,0,7,7,7,,,,,,,,,,,,,,,,,,,,,,,,,False,7,8,True,exp4.png,exp3.png,trial_left_image,1,exp4.png,3,exp4.png,exp3.png,1,1,non-reversed,correct,0.652881814937856,1,valid_win,72.23124550003558,3,,,,,,,,,,,,,,,,sub_107,2022-11-11_10h14.08.304,Reversal,2022.1.2,60.036766572152786,3,
8,exp1.png,exp2.png,,0,0,0,0,0,8,8,8,,,,,,,,,,,,,,,,,,,,,,,,,False,8,9,True,exp2.png,exp1.png,trial_left_image,1,exp2.png,3,exp2.png,exp1.png,1,3,reversed,correct,0.7340228754259693,1,valid_win,77.3145437000785,4,,,,,,,,,,,,,,,,sub_107,2022-11-11_10h14.08.304,Reversal,2022.1.2,60.036766572152786,3,
9,exp3.png,exp4.png,,0,0,0,0,0,9,9,9,,,,,,,,,,,,,,,,,,,,,,,,,False,9,10,True,exp4.png,exp3.png,trial_left_image,1,exp4.png,3,exp4.png,exp3.png,1,1,non-reversed,correct,0.989819272128539,1,valid_win,81.78230229998007,5,,,,,,,,,,,,,,,,sub_107,2022-11-11_10h14.08.304,Reversal,2022.1.2,60.036766572152786,3,
10,exp1.png,exp2.png,,0,0,0,0,0,10,10,10,,,,,,,,,,,,,,,,,,,,,,,,,False,10,11,True,exp2.png,exp1.png,trial_left_image,1,exp2.png,3,exp2.png,exp1.png,1,3,reversed,correct,0.3877554933326297,1,valid_win,86.09816420008428,6,,,,,,,,,,,,,,,,sub_107,2022-11-11_10h14.08.304,Reversal,2022.1.2,60.036766572152786,3,
11,exp3.png,exp4.png,,0,0,0,0,0,11,11,11,,,,,,,,,,,,,,,,,,,,,,,,,False,11,12,True,exp4.png,exp3.png,trial_left_image,1,exp4.png,3,exp4.png,exp3.png,1,1,non-reversed,correct,0.5924597620515337,1,valid_win,90.41401809989475,7,,,,,,,,,,,,,,,,sub_107,2022-11-11_10h14.08.304,Reversal,2022.1.2,60.036766572152786,3,
12,exp1.png,exp2.png,,0,0,0,0,0,12,12,12,,,,,,,,,,,,,,,,,,,,,,,,,False,12,13,False,exp1.png,exp2.png,trial_right_image,-1,exp2.png,3,exp2.png,exp1.png,1,3,reversed,correct,0.7899957094351384,1,valid_win,95.16445889999159,8,,,,,,,,,,,,,,,,sub_107,2022-11-11_10h14.08.304,Reversal,2022.1.2,60.036766572152786,3,
13,exp3.png,exp4.png,,0,0,0,0,0,13,13,13,,,,,,,,,,,,,,,,,,,,,,,,,False,13,14,True,exp4.png,exp3.png,trial_left_image,1,exp4.png,3,exp4.png,exp3.png,1,1,non-reversed,correct,0.6247923888762831,1,valid_win,99.46435300004669,9,,,,,,,,,,,,,,,,sub_107,2022-11-11_10h14.08.304,Reversal,2022.1.2,60.036766572152786,3,
14,exp1.png,exp2.png,,0,0,0,0,0,14,14,14,,,,,,,,,,,,,,,,,,,,,,,,,False,14,15,False,exp1.png,exp2.png,trial_right_image,-1,exp2.png,3,exp2.png,exp1.png,1,3,reversed,correct,0.4447942243853543,1,valid_win,104.29754619998857,10,,,,,,,,,,,,,,,,sub_107,2022-11-11_10h14.08.304,Reversal,2022.1.2,60.036766572152786,3,
15,exp3.png,exp4.png,,0,0,0,0,0,15,15,15,,,,,,,,,,,,,,,,,,,,,,,,,False,15,16,False,exp3.png,exp4.png,trial_right_image,-1,exp4.png,3,exp4.png,exp3.png,1,1,non-reversed,correct,0.5010064919908188,1,valid_win,108.66374820005149,11,,,,,,,,,,,,,,,,sub_107,2022-11-11_10h14.08.304,Reversal,2022.1.2,60.036766572152786,3,
16,exp1.png,exp2.png,,0,0,0,0,0,16,16,16,,,,,,,,,,,,,,,,,,,,,,,,,False,16,17,False,exp1.png,exp2.png,trial_right_image,-1,exp2.png,3,exp2.png,exp1.png,1,3,reversed,correct,0.7803363274412979,1,valid_win,113.29706080001779,12,,,,,,,,,,,,,,,,sub_107,2022-11-11_10h14.08.304,Reversal,2022.1.2,60.036766572152786,3,
17,exp3.png,exp4.png,,0,0,0,0,0,17,17,17,,,,,,,,,,,,,,,,,,,,,,,,,False,17,18,True,exp4.png,exp3.png,trial_left_image,1,exp4.png,3,exp4.png,exp3.png,1,1,non-reversed,correct,0.7776340945811703,1,valid_win,117.73024099995382,13,,,,,,,,,,,,,,,,sub_107,2022-11-11_10h14.08.304,Reversal,2022.1.2,60.036766572152786,3,
18,exp1.png,exp2.png,,0,0,0,0,0,18,18,18,,,,,,,,,,,,,,,,,,,,,,,,,False,18,19,True,exp2.png,exp1.png,trial_left_image,1,exp2.png,3,exp2.png,exp1.png,1,3,reversed,correct,0.5733343052103128,1,valid_win,122.18070939998142,14,,,,,,,,,,,,,,,,sub_107,2022-11-11_10h14.08.304,Reversal,2022.1.2,60.036766572152786,3,
19,exp3.png,exp4.png,,0,0,0,0,0,19,19,19,,,,,,,,,,,,,,,,,,,,,,,,,False,19,20,False,exp3.png,exp4.png,trial_right_image,-1,exp4.png,3,exp4.png,exp3.png,1,1,non-reversed,correct,0.7813140709859756,1,valid_win,126.63040810008533,15,,,,,,,,,,,,,,,,sub_107,2022-11-11_10h14.08.304,Reversal,2022.1.2,60.036766572152786,3,
20,exp1.png,exp2.png,,0,0,0,0,0,20,20,20,,,,,,,,,,,,,,,,,,,,,,,,,True,,,,,,,,,,,,,,,,,,,,,,,,,,,,,,,,,,,,sub_107,2022-11-11_10h14.08.304,Reversal,2022.1.2,60.036766572152786,3,
,,,exp1.png,0,0,0,0,,,,,0,0,0,0,0,0,0,0,,,,,,,,,,,,,,,,,,,,,,,,,,,,,,,,,,,,,,6.0,6.0,9.570420099887997,"[(6.0, 9.570420099887997)]",326.40060339984484,None,,,,,,,,,,sub_107,2022-11-11_10h14.08.304,Reversal,2022.1.2,60.036766572152786,3,
,,,exp2.png,0,0,0,0,,,,,0,0,0,0,0,1,1,1,,,,,,,,,,,,,,,,,,,,,,,,,,,,,,,,,,,,,,,96.0,3.93439060007222,"[(53.0, 3.051688800100237), (96.0, 3.93439060007222)]",337.25779920001514,None,96.0,,,,,,,,,sub_107,2022-11-11_10h14.08.304,Reversal,2022.1.2,60.036766572152786,3,
,,,exp3.png,0,0,0,0,,,,,0,0,0,0,0,2,2,2,,,,,,,,,,,,,,,,,,,,,,,,,,,,,,,,,,,,,,,6.0,4.383133699884638,"[(34.0, 3.083108799997717), (6.0, 4.383133699884638)]",342.38038799981587,None,,6.0,,,,,,,,sub_107,2022-11-11_10h14.08.304,Reversal,2022.1.2,60.036766572152786,3,
,,,exp4.png,0,0,0,0,,,,,0,0,0,0,0,3,3,3,,,,,,,,,,,,,,,,,,,,,,,,,,,,,,,,,,,,,,,98.0,2.1320662000216544,"[(98.0, 2.1320662000216544)]",347.95877689984627,None,,,98.0,,,,,,,sub_107,2022-11-11_10h14.08.304,Reversal,2022.1.2,60.036766572152786,3,
0,exp1.png,exp2.png,,1,0,1,0,0,0,0,0,,,,,,,,,,,,,,,,,,,,,,,,,False,20,21,True,exp2.png,exp1.png,trial_left_image,1,exp2.png,3,exp2.png,exp1.png,1,3,reversed,correct,0.9333585304636075,1,valid_win,156.92985940002836,16,,,,,,,,,,,,,,,,sub_107,2022-11-11_10h14.08.304,Reversal,2022.1.2,60.036766572152786,3,
1,exp3.png,exp4.png,,1,0,1,0,0,1,1,1,,,,,,,,,,,,,,,,,,,,,,,,,False,21,22,True,exp4.png,exp3.png,trial_left_image,1,exp4.png,3,exp4.png,exp3.png,1,1,non-reversed,correct,0.8717464462185449,1,valid_win,161.2793441999238,17,,,,,,,,,,,,,,,,sub_107,2022-11-11_10h14.08.304,Reversal,2022.1.2,60.036766572152786,3,
2,exp1.png,exp2.png,,1,0,1,0,0,2,2,2,,,,,,,,,,,,,,,,,,,,,,,,,False,22,23,False,exp1.png,exp2.png,trial_right_image,-1,exp2.png,3,exp2.png,exp1.png,1,3,reversed,correct,0.35369754564316913,1,valid_win,165.74765980010852,18,,,,,,,,,,,,,,,,sub_107,2022-11-11_10h14.08.304,Reversal,2022.1.2,60.036766572152786,3,
3,exp3.png,exp4.png,,1,0,1,0,0,3,3,3,,,,,,,,,,,,,,,,,,,,,,,,,False,23,24,False,exp3.png,exp4.png,trial_right_image,-1,exp4.png,3,exp4.png,exp3.png,1,1,non-reversed,correct,0.8579671340171366,1,valid_win,170.11400859989226,19,,,,,,,,,,,,,,,,sub_107,2022-11-11_10h14.08.304,Reversal,2022.1.2,60.036766572152786,3,
4,exp1.png,exp2.png,,1,0,1,0,0,4,4,4,,,,,,,,,,,,,,,,,,,,,,,,,False,24,25,True,exp2.png,exp1.png,trial_left_image,1,exp2.png,3,exp2.png,exp1.png,1,3,reversed,correct,0.1504279165292698,0,invalid_lose,174.51397500000894,19,,,,,,,,,,,,,,,,sub_107,2022-11-11_10h14.08.304,Reversal,2022.1.2,60.036766572152786,3,
5,exp3.png,exp4.png,,1,0,1,0,0,5,5,5,,,,,,,,,,,,,,,,,,,,,,,,,False,25,26,True,exp4.png,exp3.png,trial_left_image,1,exp4.png,3,exp4.png,exp3.png,1,1,non-reversed,correct,0.6078111501137027,1,valid_win,178.94798070006073,20,,,,,,,,,,,,,,,,sub_107,2022-11-11_10h14.08.304,Reversal,2022.1.2,60.036766572152786,3,
6,exp1.png,exp2.png,,1,0,1,0,0,6,6,6,,,,,,,,,,,,,,,,,,,,,,,,,False,26,27,True,exp2.png,exp1.png,trial_left_image,1,exp2.png,3,exp2.png,exp1.png,1,3,reversed,correct,0.7466484217343673,1,valid_win,183.31363099999726,21,,,,,,,,,,,,,,,,sub_107,2022-11-11_10h14.08.304,Reversal,2022.1.2,60.036766572152786,3,
7,exp3.png,exp4.png,,1,0,1,0,0,7,7,7,,,,,,,,,,,,,,,,,,,,,,,,,False,27,28,True,exp4.png,exp3.png,trial_left_image,1,exp4.png,3,exp4.png,exp3.png,1,1,non-reversed,correct,0.14436891256552442,0,invalid_lose,187.73056669998914,21,,,,,,,,,,,,,,,,sub_107,2022-11-11_10h14.08.304,Reversal,2022.1.2,60.036766572152786,3,
8,exp1.png,exp2.png,,1,0,1,0,0,8,8,8,,,,,,,,,,,,,,,,,,,,,,,,,False,28,29,False,exp1.png,exp2.png,trial_right_image,-1,exp2.png,3,exp2.png,exp1.png,1,3,reversed,correct,0.26878397124670983,1,valid_win,192.68040800001472,22,,,,,,,,,,,,,,,,sub_107,2022-11-11_10h14.08.304,Reversal,2022.1.2,60.036766572152786,3,
9,exp3.png,exp4.png,,1,0,1,0,0,9,9,9,,,,,,,,,,,,,,,,,,,,,,,,,False,29,30,True,exp4.png,exp3.png,trial_right_image,-1,exp3.png,3,exp4.png,exp3.png,0,2,non-reversed,incorrect,0.41544458863044964,0,valid_lose,197.2470452999696,22,,,,,,,,,,,,,,,,sub_107,2022-11-11_10h14.08.304,Reversal,2022.1.2,60.036766572152786,3,
10,exp1.png,exp2.png,,1,0,1,0,0,10,10,10,,,,,,,,,,,,,,,,,,,,,,,,,False,30,31,False,exp1.png,exp2.png,trial_right_image,-1,exp2.png,3,exp2.png,exp1.png,1,3,reversed,correct,0.5523306565978556,1,valid_win,201.76351279998198,23,,,,,,,,,,,,,,,,sub_107,2022-11-11_10h14.08.304,Reversal,2022.1.2,60.036766572152786,3,
11,exp3.png,exp4.png,,1,0,1,0,0,11,11,11,,,,,,,,,,,,,,,,,,,,,,,,,False,31,32,False,exp3.png,exp4.png,trial_right_image,-1,exp4.png,3,exp4.png,exp3.png,1,1,non-reversed,correct,0.22910770884424436,0,invalid_lose,206.39664719998837,23,,,,,,,,,,,,,,,,sub_107,2022-11-11_10h14.08.304,Reversal,2022.1.2,60.036766572152786,3,
12,exp1.png,exp2.png,,1,0,1,0,0,12,12,12,,,,,,,,,,,,,,,,,,,,,,,,,False,32,33,False,exp1.png,exp2.png,trial_right_image,-1,exp2.png,3,exp2.png,exp1.png,1,3,reversed,correct,0.6974497425555495,1,valid_win,211.19581900001504,24,,,,,,,,,,,,,,,,sub_107,2022-11-11_10h14.08.304,Reversal,2022.1.2,60.036766572152786,3,
13,exp3.png,exp4.png,,1,0,1,0,0,13,13,13,,,,,,,,,,,,,,,,,,,,,,,,,False,33,34,True,exp4.png,exp3.png,trial_right_image,-1,exp3.png,3,exp4.png,exp3.png,0,2,non-reversed,incorrect,0.6870313198330248,0,valid_lose,216.99543979996815,24,,,,,,,,,,,,,,,,sub_107,2022-11-11_10h14.08.304,Reversal,2022.1.2,60.036766572152786,3,
14,exp1.png,exp2.png,,1,0,1,0,0,14,14,14,,,,,,,,,,,,,,,,,,,,,,,,,False,34,35,False,exp1.png,exp2.png,trial_right_image,-1,exp2.png,3,exp2.png,exp1.png,1,3,reversed,correct,0.1593916818010488,0,invalid_lose,221.6619361001067,24,,,,,,,,,,,,,,,,sub_107,2022-11-11_10h14.08.304,Reversal,2022.1.2,60.036766572152786,3,
15,exp3.png,exp4.png,,1,0,1,0,0,15,15,15,,,,,,,,,,,,,,,,,,,,,,,,,False,35,36,False,exp3.png,exp4.png,trial_left_image,1,exp3.png,3,exp4.png,exp3.png,0,2,non-reversed,incorrect,0.2789677974878666,0,valid_lose,225.8283434000332,24,,,,,,,,,,,,,,,,sub_107,2022-11-11_10h14.08.304,Reversal,2022.1.2,60.036766572152786,3,
16,exp1.png,exp2.png,,1,0,1,0,0,16,16,16,,,,,,,,,,,,,,,,,,,,,,,,,False,36,37,True,exp2.png,exp1.png,trial_left_image,1,exp2.png,3,exp2.png,exp1.png,1,3,reversed,correct,0.06454722902602239,0,invalid_lose,231.14483130001463,24,,,,,,,,,,,,,,,,sub_107,2022-11-11_10h14.08.304,Reversal,2022.1.2,60.036766572152786,3,
17,exp3.png,exp4.png,,1,0,1,0,0,17,17,17,,,,,,,,,,,,,,,,,,,,,,,,,False,37,38,False,exp3.png,exp4.png,trial_right_image,-1,exp4.png,3,exp4.png,exp3.png,1,1,non-reversed,correct,0.9609500478202477,1,valid_win,235.6783569001127,25,,,,,,,,,,,,,,,,sub_107,2022-11-11_10h14.08.304,Reversal,2022.1.2,60.036766572152786,3,
18,exp1.png,exp2.png,,1,0,1,0,0,18,18,18,,,,,,,,,,,,,,,,,,,,,,,,,False,38,39,False,exp1.png,exp2.png,trial_right_image,-1,exp2.png,3,exp2.png,exp1.png,1,3,reversed,correct,0.6936766352706158,1,valid_win,240.09467029990628,26,,,,,,,,,,,,,,,,sub_107,2022-11-11_10h14.08.304,Reversal,2022.1.2,60.036766572152786,3,
19,exp3.png,exp4.png,,1,0,1,0,0,19,19,19,,,,,,,,,,,,,,,,,,,,,,,,,False,39,40,True,exp4.png,exp3.png,trial_right_image,-1,exp3.png,3,exp4.png,exp3.png,0,2,non-reversed,incorrect,0.053837332101439594,1,invalid_win,244.5117925000377,27,,,,,,,,,,,,,,,,sub_107,2022-11-11_10h14.08.304,Reversal,2022.1.2,60.036766572152786,3,
20,exp1.png,exp2.png,,1,0,1,0,0,20,20,20,,,,,,,,,,,,,,,,,,,,,,,,,True,,,,,,,,,,,,,,,,,,,,,,,,,,,,,,,,,,,,sub_107,2022-11-11_10h14.08.304,Reversal,2022.1.2,60.036766572152786,3,
,,,exp1.png,1,0,1,0,,,,,0,0,0,0,0,0,0,0,,,,,,,,,,,,,,,,,,,,,,,,,,,,,,,,,,,,,,98.0,98.0,5.760960399871692,"[(98.0, 5.760960399871692)]",444.2796314000152,None,,,,,,,,,,sub_107,2022-11-11_10h14.08.304,Reversal,2022.1.2,60.036766572152786,3,
,,,exp2.png,1,0,1,0,,,,,0,0,0,0,0,1,1,1,,,,,,,,,,,,,,,,,,,,,,,,,,,,,,,,,,,,,,,1.0,3.8335562001448125,"[(15.0, 2.5174424999859184), (1.0, 3.8335562001448125)]",451.20390719990246,None,1.0,,,,,,,,,sub_107,2022-11-11_10h14.08.304,Reversal,2022.1.2,60.036766572152786,3,
,,,exp3.png,1,0,1,0,,,,,0,0,0,0,0,2,2,2,,,,,,,,,,,,,,,,,,,,,,,,,,,,,,,,,,,,,,,76.0,5.016178600024432,"[(76.0, 5.016178600024432)]",456.10489419987425,None,,76.0,,,,,,,,sub_107,2022-11-11_10h14.08.304,Reversal,2022.1.2,60.036766572152786,3,
,,,exp4.png,1,0,1,0,,,,,0,0,0,0,0,3,3,3,,,,,,,,,,,,,,,,,,,,,,,,,,,,,,,,,,,,,,,27.0,2.834212200017646,"[(27.0, 2.834212200017646)]",462.23557869996876,None,,,27.0,,,,,,,sub_107,2022-11-11_10h14.08.304,Reversal,2022.1.2,60.036766572152786,3,
0,exp1.png,exp2.png,,2,0,2,0,0,0,0,0,,,,,,,,,,,,,,,,,,,,,,,,,False,40,41,False,exp1.png,exp2.png,trial_right_image,-1,exp2.png,3,exp2.png,exp1.png,1,3,reversed,correct,0.5111189949778923,1,valid_win,270.9440013000276,28,,,,,,,,,,,,,,,,sub_107,2022-11-11_10h14.08.304,Reversal,2022.1.2,60.036766572152786,3,
1,exp3.png,exp4.png,,2,0,2,0,0,1,1,1,,,,,,,,,,,,,,,,,,,,,,,,,False,41,42,False,exp3.png,exp4.png,trial_right_image,-1,exp4.png,3,exp4.png,exp3.png,1,1,non-reversed,correct,0.023126381631051185,0,invalid_lose,275.1444572999608,28,,,,,,,,,,,,,,,,sub_107,2022-11-11_10h14.08.304,Reversal,2022.1.2,60.036766572152786,3,
2,exp1.png,exp2.png,,2,0,2,0,0,2,2,2,,,,,,,,,,,,,,,,,,,,,,,,,False,42,43,True,exp2.png,exp1.png,trial_left_image,1,exp2.png,3,exp2.png,exp1.png,1,3,reversed,correct,0.01749454869400513,0,invalid_lose,280.3777493000962,28,,,,,,,,,,,,,,,,sub_107,2022-11-11_10h14.08.304,Reversal,2022.1.2,60.036766572152786,3,
3,exp3.png,exp4.png,,2,0,2,0,0,3,3,3,,,,,,,,,,,,,,,,,,,,,,,,,False,43,44,True,exp4.png,exp3.png,trial_right_image,-1,exp3.png,3,exp4.png,exp3.png,0,2,non-reversed,incorrect,0.9831478491688698,0,valid_lose,285.9951647000853,28,,,,,,,,,,,,,,,,sub_107,2022-11-11_10h14.08.304,Reversal,2022.1.2,60.036766572152786,3,
4,exp1.png,exp2.png,,2,0,2,0,0,4,4,4,,,,,,,,,,,,,,,,,,,,,,,,,False,44,45,False,exp1.png,exp2.png,trial_right_image,-1,exp2.png,3,exp2.png,exp1.png,1,3,reversed,correct,0.9697891585695015,1,valid_win,291.54521379992366,29,,,,,,,,,,,,,,,,sub_107,2022-11-11_10h14.08.304,Reversal,2022.1.2,60.036766572152786,3,
5,exp3.png,exp4.png,,2,0,2,0,0,5,5,5,,,,,,,,,,,,,,,,,,,,,,,,,False,45,46,False,exp3.png,exp4.png,trial_left_image,1,exp3.png,3,exp4.png,exp3.png,0,2,non-reversed,incorrect,0.07420180453858694,1,invalid_win,297.29371350002475,30,,,,,,,,,,,,,,,,sub_107,2022-11-11_10h14.08.304,Reversal,2022.1.2,60.036766572152786,3,
6,exp1.png,exp2.png,,2,0,2,0,0,6,6,6,,,,,,,,,,,,,,,,,,,,,,,,,False,46,47,True,exp2.png,exp1.png,trial_left_image,1,exp2.png,3,exp2.png,exp1.png,1,3,reversed,correct,0.7155300730865761,1,valid_win,302.9268698999658,31,,,,,,,,,,,,,,,,sub_107,2022-11-11_10h14.08.304,Reversal,2022.1.2,60.036766572152786,3,
7,exp3.png,exp4.png,,2,0,2,0,0,7,7,7,,,,,,,,,,,,,,,,,,,,,,,,,False,47,48,True,exp4.png,exp3.png,trial_right_image,-1,exp3.png,3,exp4.png,exp3.png,0,2,non-reversed,incorrect,0.38554360585355574,0,valid_lose,308.86050450010225,31,,,,,,,,,,,,,,,,sub_107,2022-11-11_10h14.08.304,Reversal,2022.1.2,60.036766572152786,3,
8,exp1.png,exp2.png,,2,0,2,0,0,8,8,8,,,,,,,,,,,,,,,,,,,,,,,,,False,48,49,True,exp2.png,exp1.png,trial_left_image,1,exp2.png,3,exp2.png,exp1.png,1,3,reversed,correct,0.04365613038014349,0,invalid_lose,313.72740299999714,31,,,,,,,,,,,,,,,,sub_107,2022-11-11_10h14.08.304,Reversal,2022.1.2,60.036766572152786,3,
9,exp3.png,exp4.png,,2,0,2,0,0,9,9,9,,,,,,,,,,,,,,,,,,,,,,,,,False,49,50,True,exp4.png,exp3.png,trial_right_image,-1,exp3.png,3,exp4.png,exp3.png,0,2,non-reversed,incorrect,0.18737187453990867,1,invalid_win,318.0104886998888,32,,,,,,,,,,,,,,,,sub_107,2022-11-11_10h14.08.304,Reversal,2022.1.2,60.036766572152786,3,
10,exp1.png,exp2.png,,2,0,2,0,0,10,10,10,,,,,,,,,,,,,,,,,,,,,,,,,False,50,51,False,exp1.png,exp2.png,trial_right_image,-1,exp2.png,3,exp2.png,exp1.png,1,3,reversed,correct,0.7303980567865211,1,valid_win,322.3931515000295,33,,,,,,,,,,,,,,,,sub_107,2022-11-11_10h14.08.304,Reversal,2022.1.2,60.036766572152786,3,
11,exp3.png,exp4.png,,2,0,2,0,0,11,11,11,,,,,,,,,,,,,,,,,,,,,,,,,False,51,52,False,exp3.png,exp4.png,trial_right_image,-1,exp4.png,3,exp4.png,exp3.png,1,1,non-reversed,correct,0.04883249159519154,0,invalid_lose,326.67662789998576,33,,,,,,,,,,,,,,,,sub_107,2022-11-11_10h14.08.304,Reversal,2022.1.2,60.036766572152786,3,
12,exp1.png,exp2.png,,2,0,2,0,0,12,12,12,,,,,,,,,,,,,,,,,,,,,,,,,False,52,53,True,exp2.png,exp1.png,trial_left_image,1,exp2.png,3,exp2.png,exp1.png,1,3,reversed,correct,0.9753364687100485,1,valid_win,331.7265653000213,34,,,,,,,,,,,,,,,,sub_107,2022-11-11_10h14.08.304,Reversal,2022.1.2,60.036766572152786,3,
13,exp3.png,exp4.png,,2,0,2,0,0,13,13,13,,,,,,,,,,,,,,,,,,,,,,,,,False,53,54,False,exp3.png,exp4.png,trial_left_image,1,exp3.png,3,exp4.png,exp3.png,0,2,non-reversed,incorrect,0.08246532933072737,1,invalid_win,337.1762872999534,35,,,,,,,,,,,,,,,,sub_107,2022-11-11_10h14.08.304,Reversal,2022.1.2,60.036766572152786,3,
14,exp1.png,exp2.png,,2,0,2,0,0,14,14,14,,,,,,,,,,,,,,,,,,,,,,,,,False,54,55,True,exp2.png,exp1.png,trial_left_image,1,exp2.png,3,exp2.png,exp1.png,1,3,reversed,correct,0.3416312108498277,1,valid_win,341.6931167000439,36,,,,,,,,,,,,,,,,sub_107,2022-11-11_10h14.08.304,Reversal,2022.1.2,60.036766572152786,3,
15,exp3.png,exp4.png,,2,0,2,0,0,15,15,15,,,,,,,,,,,,,,,,,,,,,,,,,False,55,56,True,exp4.png,exp3.png,trial_right_image,-1,exp3.png,3,exp4.png,exp3.png,0,2,non-reversed,incorrect,0.858749793506691,0,valid_lose,346.3927430000622,36,,,,,,,,,,,,,,,,sub_107,2022-11-11_10h14.08.304,Reversal,2022.1.2,60.036766572152786,3,
16,exp1.png,exp2.png,,2,0,2,0,0,16,16,16,,,,,,,,,,,,,,,,,,,,,,,,,False,56,57,False,exp1.png,exp2.png,trial_right_image,-1,exp2.png,3,exp2.png,exp1.png,1,3,reversed,correct,0.3714496435606611,1,valid_win,351.27587800007313,37,,,,,,,,,,,,,,,,sub_107,2022-11-11_10h14.08.304,Reversal,2022.1.2,60.036766572152786,3,
17,exp3.png,exp4.png,,2,0,2,0,0,17,17,17,,,,,,,,,,,,,,,,,,,,,,,,,False,57,58,False,exp3.png,exp4.png,trial_left_image,1,exp3.png,3,exp4.png,exp3.png,0,2,non-reversed,incorrect,0.96314554495127,0,valid_lose,356.9926760001108,37,,,,,,,,,,,,,,,,sub_107,2022-11-11_10h14.08.304,Reversal,2022.1.2,60.036766572152786,3,
18,exp1.png,exp2.png,,2,0,2,0,0,18,18,18,,,,,,,,,,,,,,,,,,,,,,,,,False,58,59,True,exp2.png,exp1.png,trial_left_image,1,exp2.png,3,exp2.png,exp1.png,1,3,reversed,correct,0.6336422976347665,1,valid_win,362.2097503999248,38,,,,,,,,,,,,,,,,sub_107,2022-11-11_10h14.08.304,Reversal,2022.1.2,60.036766572152786,3,
19,exp3.png,exp4.png,,2,0,2,0,0,19,19,19,,,,,,,,,,,,,,,,,,,,,,,,,False,59,60,False,exp3.png,exp4.png,trial_left_image,1,exp3.png,3,exp4.png,exp3.png,0,2,non-reversed,incorrect,0.9961075473491681,0,valid_lose,372.32663280004635,38,,,,,,,,,,,,,,,,sub_107,2022-11-11_10h14.08.304,Reversal,2022.1.2,60.036766572152786,3,
20,exp1.png,exp2.png,,2,0,2,0,0,20,20,20,,,,,,,,,,,,,,,,,,,,,,,,,True,,,,,,,,,,,,,,,,,,,,,,,,,,,,,,,,,,,,sub_107,2022-11-11_10h14.08.304,Reversal,2022.1.2,60.036766572152786,3,
,,,exp1.png,2,0,2,0,,,,,0,0,0,0,0,0,0,0,,,,,,,,,,,,,,,,,,,,,,,,,,,,,,,,,,,,,,12.0,12.0,6.622513300040737,"[(12.0, 6.622513300040737)]",572.1177125999238,None,,,,,,,,,,sub_107,2022-11-11_10h14.08.304,Reversal,2022.1.2,60.036766572152786,3,
,,,exp2.png,2,0,2,0,,,,,0,0,0,0,0,1,1,1,,,,,,,,,,,,,,,,,,,,,,,,,,,,,,,,,,,,,,,86.0,2.9343653998803347,"[(86.0, 2.9343653998803347)]",579.634544499917,None,86.0,,,,,,,,,sub_107,2022-11-11_10h14.08.304,Reversal,2022.1.2,60.036766572152786,3,
,,,exp3.png,2,0,2,0,,,,,0,0,0,0,0,2,2,2,,,,,,,,,,,,,,,,,,,,,,,,,,,,,,,,,,,,,,,20.0,1.8329394001048058,"[(20.0, 1.8329394001048058)]",585.4010788998567,None,,20.0,,,,,,,,sub_107,2022-11-11_10h14.08.304,Reversal,2022.1.2,60.036766572152786,3,
,,,exp4.png,2,0,2,0,,,,,0,0,0,0,0,3,3,3,,,,,,,,,,,,,,,,,,,,,,,,,,,,,,,,,,,,,,,71.0,1.835373500129208,"[(71.0, 1.835373500129208)]",588.1001780999359,None,,,71.0,,,,,,,sub_107,2022-11-11_10h14.08.304,Reversal,2022.1.2,60.036766572152786,3,
0,exp1.png,exp2.png,,3,0,3,0,0,0,0,0,,,,,,,,,,,,,,,,,,,,,,,,,False,60,61,False,exp1.png,exp2.png,trial_right_image,-1,exp2.png,3,exp2.png,exp1.png,1,3,reversed,correct,0.9177068345879064,1,valid_win,394.92833320004866,39,,,,,,,,,,,,,,,,sub_107,2022-11-11_10h14.08.304,Reversal,2022.1.2,60.036766572152786,3,
1,exp3.png,exp4.png,,3,0,3,0,0,1,1,1,,,,,,,,,,,,,,,,,,,,,,,,,False,61,62,False,exp3.png,exp4.png,trial_right_image,-1,exp4.png,3,exp4.png,exp3.png,1,1,non-reversed,correct,0.45102787299036984,1,valid_win,399.1593361000996,40,,,,,,,,,,,,,,,,sub_107,2022-11-11_10h14.08.304,Reversal,2022.1.2,60.036766572152786,3,
2,exp1.png,exp2.png,,3,0,3,0,0,2,2,2,,,,,,,,,,,,,,,,,,,,,,,,,False,62,63,True,exp2.png,exp1.png,trial_left_image,1,exp2.png,3,exp2.png,exp1.png,1,3,reversed,correct,0.7532068964428164,1,valid_win,403.37579669989645,41,,,,,,,,,,,,,,,,sub_107,2022-11-11_10h14.08.304,Reversal,2022.1.2,60.036766572152786,3,
3,exp3.png,exp4.png,,3,0,3,0,0,3,3,3,,,,,,,,,,,,,,,,,,,,,,,,,False,63,64,False,exp3.png,exp4.png,trial_right_image,-1,exp4.png,3,exp4.png,exp3.png,1,1,non-reversed,correct,0.5548018198848782,1,valid_win,407.5915959000122,42,,,,,,,,,,,,,,,,sub_107,2022-11-11_10h14.08.304,Reversal,2022.1.2,60.036766572152786,3,
4,exp1.png,exp2.png,,3,0,3,0,0,4,4,4,,,,,,,,,,,,,,,,,,,,,,,,,False,64,65,True,exp2.png,exp1.png,trial_left_image,1,exp2.png,3,exp2.png,exp1.png,1,3,reversed,correct,0.7792039150882473,1,valid_win,411.6749396000523,43,,,,,,,,,,,,,,,,sub_107,2022-11-11_10h14.08.304,Reversal,2022.1.2,60.036766572152786,3,
5,exp3.png,exp4.png,,3,0,3,0,0,5,5,5,,,,,,,,,,,,,,,,,,,,,,,,,False,65,66,False,exp3.png,exp4.png,trial_right_image,-1,exp4.png,3,exp4.png,exp3.png,1,1,non-reversed,correct,0.8578860214854415,1,valid_win,415.90819710004143,44,,,,,,,,,,,,,,,,sub_107,2022-11-11_10h14.08.304,Reversal,2022.1.2,60.036766572152786,3,
6,exp1.png,exp2.png,,3,0,3,0,0,6,6,6,,,,,,,,,,,,,,,,,,,,,,,,,False,66,67,True,exp2.png,exp1.png,trial_left_image,1,exp2.png,3,exp2.png,exp1.png,1,3,reversed,correct,0.7587543886409247,1,valid_win,419.9747661999427,45,,,,,,,,,,,,,,,,sub_107,2022-11-11_10h14.08.304,Reversal,2022.1.2,60.036766572152786,3,
7,exp3.png,exp4.png,,3,0,3,0,0,7,7,7,,,,,,,,,,,,,,,,,,,,,,,,,False,67,68,False,exp3.png,exp4.png,trial_right_image,-1,exp4.png,3,exp4.png,exp3.png,1,1,non-reversed,correct,0.6649946210467634,1,valid_win,424.1584632000886,46,,,,,,,,,,,,,,,,sub_107,2022-11-11_10h14.08.304,Reversal,2022.1.2,60.036766572152786,3,
8,exp1.png,exp2.png,,3,0,3,0,0,8,8,8,,,,,,,,,,,,,,,,,,,,,,,,,False,68,69,False,exp1.png,exp2.png,trial_right_image,-1,exp2.png,3,exp2.png,exp1.png,1,3,reversed,correct,0.007760436790164249,0,invalid_lose,428.8414487000555,46,,,,,,,,,,,,,,,,sub_107,2022-11-11_10h14.08.304,Reversal,2022.1.2,60.036766572152786,3,
9,exp3.png,exp4.png,,3,0,3,0,0,9,9,9,,,,,,,,,,,,,,,,,,,,,,,,,False,69,70,True,exp4.png,exp3.png,trial_right_image,-1,exp3.png,3,exp4.png,exp3.png,0,2,non-reversed,incorrect,0.6287347051667395,0,valid_lose,433.7086610000115,46,,,,,,,,,,,,,,,,sub_107,2022-11-11_10h14.08.304,Reversal,2022.1.2,60.036766572152786,3,
10,exp1.png,exp2.png,,3,0,3,0,0,10,10,10,,,,,,,,,,,,,,,,,,,,,,,,,False,70,71,True,exp2.png,exp1.png,trial_left_image,1,exp2.png,3,exp2.png,exp1.png,1,3,reversed,correct,0.7882553922549619,1,valid_win,438.69131070002913,47,,,,,,,,,,,,,,,,sub_107,2022-11-11_10h14.08.304,Reversal,2022.1.2,60.036766572152786,3,
11,exp3.png,exp4.png,,3,0,3,0,0,11,11,11,,,,,,,,,,,,,,,,,,,,,,,,,False,71,72,True,exp4.png,exp3.png,trial_left_image,1,exp4.png,3,exp4.png,exp3.png,1,1,non-reversed,correct,0.6663803217702945,1,valid_win,443.1582394998986,48,,,,,,,,,,,,,,,,sub_107,2022-11-11_10h14.08.304,Reversal,2022.1.2,60.036766572152786,3,
12,exp1.png,exp2.png,,3,0,3,0,0,12,12,12,,,,,,,,,,,,,,,,,,,,,,,,,False,72,73,False,exp1.png,exp2.png,trial_right_image,-1,exp2.png,3,exp2.png,exp1.png,1,3,reversed,correct,0.029379959063269512,0,invalid_lose,447.11021630000323,48,,,,,,,,,,,,,,,,sub_107,2022-11-11_10h14.08.304,Reversal,2022.1.2,60.036766572152786,3,
13,exp3.png,exp4.png,,3,0,3,0,0,13,13,13,,,,,,,,,,,,,,,,,,,,,,,,,False,73,74,True,exp4.png,exp3.png,trial_left_image,1,exp4.png,3,exp4.png,exp3.png,1,1,non-reversed,correct,0.021358049553881653,0,invalid_lose,451.1909845001064,48,,,,,,,,,,,,,,,,sub_107,2022-11-11_10h14.08.304,Reversal,2022.1.2,60.036766572152786,3,
14,exp1.png,exp2.png,,3,0,3,0,0,14,14,14,,,,,,,,,,,,,,,,,,,,,,,,,False,74,75,True,exp2.png,exp1.png,trial_right_image,-1,exp1.png,3,exp2.png,exp1.png,0,4,reversed,incorrect,0.6293464576029197,0,valid_lose,456.441217900021,48,,,,,,,,,,,,,,,,sub_107,2022-11-11_10h14.08.304,Reversal,2022.1.2,60.036766572152786,3,
15,exp3.png,exp4.png,,3,0,3,0,0,15,15,15,,,,,,,,,,,,,,,,,,,,,,,,,False,75,76,False,exp3.png,exp4.png,trial_right_image,-1,exp4.png,3,exp4.png,exp3.png,1,1,non-reversed,correct,0.20677974002441524,0,invalid_lose,462.84082580008544,48,,,,,,,,,,,,,,,,sub_107,2022-11-11_10h14.08.304,Reversal,2022.1.2,60.036766572152786,3,
16,exp1.png,exp2.png,,3,0,3,0,0,16,16,16,,,,,,,,,,,,,,,,,,,,,,,,,False,76,77,True,exp2.png,exp1.png,trial_left_image,1,exp2.png,3,exp2.png,exp1.png,1,3,reversed,correct,0.5781510863208956,1,valid_win,466.9907998999115,49,,,,,,,,,,,,,,,,sub_107,2022-11-11_10h14.08.304,Reversal,2022.1.2,60.036766572152786,3,
17,exp3.png,exp4.png,,3,0,3,0,0,17,17,17,,,,,,,,,,,,,,,,,,,,,,,,,False,77,78,True,exp4.png,exp3.png,trial_left_image,1,exp4.png,3,exp4.png,exp3.png,1,1,non-reversed,correct,0.9535768378480067,1,valid_win,471.07405750011094,50,,,,,,,,,,,,,,,,sub_107,2022-11-11_10h14.08.304,Reversal,2022.1.2,60.036766572152786,3,
18,exp1.png,exp2.png,,3,0,3,0,0,18,18,18,,,,,,,,,,,,,,,,,,,,,,,,,False,78,79,False,exp1.png,exp2.png,trial_left_image,1,exp1.png,3,exp2.png,exp1.png,0,4,reversed,incorrect,0.6744628610146375,0,valid_lose,475.1240693998989,50,,,,,,,,,,,,,,,,sub_107,2022-11-11_10h14.08.304,Reversal,2022.1.2,60.036766572152786,3,
19,exp3.png,exp4.png,,3,0,3,0,0,19,19,19,,,,,,,,,,,,,,,,,,,,,,,,,False,79,80,False,exp3.png,exp4.png,trial_right_image,-1,exp4.png,3,exp4.png,exp3.png,1,1,non-reversed,correct,0.9722313183671611,1,valid_win,482.20724590006284,51,,,,,,,,,,,,,,,,sub_107,2022-11-11_10h14.08.304,Reversal,2022.1.2,60.036766572152786,3,
20,exp1.png,exp2.png,,3,0,3,0,0,20,20,20,,,,,,,,,,,,,,,,,,,,,,,,,True,,,,,,,,,,,,,,,,,,,,,,,,,,,,,,,,,,,,sub_107,2022-11-11_10h14.08.304,Reversal,2022.1.2,60.036766572152786,3,
,,,exp1.png,3,0,3,0,,,,,0,0,0,0,0,0,0,0,,,,,,,,,,,,,,,,,,,,,,,,,,,,,,,,,,,,,,71.0,71.0,3.230257200077176,"[(71.0, 3.230257200077176)]",682.0037802997977,None,,,,,,,,,,sub_107,2022-11-11_10h14.08.304,Reversal,2022.1.2,60.036766572152786,3,
,,,exp2.png,3,0,3,0,,,,,0,0,0,0,0,1,1,1,,,,,,,,,,,,,,,,,,,,,,,,,,,,,,,,,,,,,,,78.0,1.6004172000102699,"[(78.0, 1.6004172000102699)]",686.1645029999781,None,78.0,,,,,,,,,sub_107,2022-11-11_10h14.08.304,Reversal,2022.1.2,60.036766572152786,3,
,,,exp3.png,3,0,3,0,,,,,0,0,0,0,0,2,2,2,,,,,,,,,,,,,,,,,,,,,,,,,,,,,,,,,,,,,,,62.0,2.8353364998474717,"[(62.0, 2.8353364998474717)]",688.7314087999985,None,,62.0,,,,,,,,sub_107,2022-11-11_10h14.08.304,Reversal,2022.1.2,60.036766572152786,3,
,,,exp4.png,3,0,3,0,,,,,0,0,0,0,0,3,3,3,,,,,,,,,,,,,,,,,,,,,,,,,,,,,,,,,,,,,,,87.0,1.834723599953577,"[(87.0, 1.834723599953577)]",692.4154179999605,None,,,87.0,,,,,,,sub_107,2022-11-11_10h14.08.304,Reversal,2022.1.2,60.036766572152786,3,
0,exp1.png,exp2.png,,,,,,,,,,,,,,,,,,0,0,0,0,0,0,0,0,,,,,,,,,False,0,81,True,exp2.png,exp1.png,trial_left_image,1,exp2.png,3,exp1.png,exp2.png,1,3,reversed,incorrect,0.30948302263276395,0,valid_lose,499.7901584999636,51,,,,,,,,,,497.97709889989346,,,,,,sub_107,2022-11-11_10h14.08.304,Reversal,2022.1.2,60.036766572152786,3,
1,exp3.png,exp4.png,,,,,,,,,,,,,,,,,,0,0,0,0,0,1,1,1,,,,,,,,,False,1,82,True,exp4.png,exp3.png,trial_left_image,1,exp4.png,3,exp4.png,exp3.png,1,1,non-reversed,correct,0.6207995160608535,1,valid_win,503.97319220006466,52,,,,,,,,,,,,,,,,sub_107,2022-11-11_10h14.08.304,Reversal,2022.1.2,60.036766572152786,3,
2,exp1.png,exp2.png,,,,,,,,,,,,,,,,,,0,0,0,0,0,2,2,2,,,,,,,,,False,2,83,False,exp1.png,exp2.png,trial_right_image,-1,exp2.png,3,exp1.png,exp2.png,1,3,reversed,incorrect,0.6512238363297682,0,valid_lose,510.2416481000837,52,,,,,,,,,,,,,,,,sub_107,2022-11-11_10h14.08.304,Reversal,2022.1.2,60.036766572152786,3,
3,exp3.png,exp4.png,,,,,,,,,,,,,,,,,,0,0,0,0,0,3,3,3,,,,,,,,,False,3,84,True,exp4.png,exp3.png,trial_left_image,1,exp4.png,3,exp4.png,exp3.png,1,1,non-reversed,correct,0.2475308127633583,0,invalid_lose,514.2235858000349,52,,,,,,,,,,,,,,,,sub_107,2022-11-11_10h14.08.304,Reversal,2022.1.2,60.036766572152786,3,
4,exp1.png,exp2.png,,,,,,,,,,,,,,,,,,0,0,0,0,0,4,4,4,,,,,,,,,False,4,85,False,exp1.png,exp2.png,trial_right_image,-1,exp2.png,3,exp1.png,exp2.png,1,3,reversed,incorrect,0.964924045274778,0,valid_lose,518.3915156999137,52,,,,,,,,,,,,,,,,sub_107,2022-11-11_10h14.08.304,Reversal,2022.1.2,60.036766572152786,3,
5,exp3.png,exp4.png,,,,,,,,,,,,,,,,,,0,0,0,0,0,5,5,5,,,,,,,,,False,5,86,False,exp3.png,exp4.png,trial_left_image,1,exp3.png,3,exp4.png,exp3.png,0,2,non-reversed,incorrect,0.6669847531747509,0,valid_lose,522.4746024999768,52,,,,,,,,,,,,,,,,sub_107,2022-11-11_10h14.08.304,Reversal,2022.1.2,60.036766572152786,3,
6,exp1.png,exp2.png,,,,,,,,,,,,,,,,,,0,0,0,0,0,6,6,6,,,,,,,,,False,6,87,False,exp1.png,exp2.png,trial_right_image,-1,exp2.png,3,exp1.png,exp2.png,1,3,reversed,incorrect,0.25868525438752377,0,valid_lose,526.6907758000307,52,,,,,,,,,,,,,,,,sub_107,2022-11-11_10h14.08.304,Reversal,2022.1.2,60.036766572152786,3,
7,exp3.png,exp4.png,,,,,,,,,,,,,,,,,,0,0,0,0,0,7,7,7,,,,,,,,,False,7,88,True,exp4.png,exp3.png,trial_left_image,1,exp4.png,3,exp4.png,exp3.png,1,1,non-reversed,correct,0.4991740451492168,1,valid_win,530.7407297999598,53,,,,,,,,,,,,,,,,sub_107,2022-11-11_10h14.08.304,Reversal,2022.1.2,60.036766572152786,3,
8,exp1.png,exp2.png,,,,,,,,,,,,,,,,,,0,0,0,0,0,8,8,8,,,,,,,,,False,8,89,True,exp2.png,exp1.png,trial_left_image,1,exp2.png,3,exp1.png,exp2.png,1,3,reversed,incorrect,0.3483949082577723,0,valid_lose,534.9076040000655,53,,,,,,,,,,,,,,,,sub_107,2022-11-11_10h14.08.304,Reversal,2022.1.2,60.036766572152786,3,
9,exp3.png,exp4.png,,,,,,,,,,,,,,,,,,0,0,0,0,0,9,9,9,,,,,,,,,False,9,90,True,exp4.png,exp3.png,trial_left_image,1,exp4.png,3,exp4.png,exp3.png,1,1,non-reversed,correct,0.7995232030604186,1,valid_win,539.5070481000002,54,,,,,,,,,,,,,,,,sub_107,2022-11-11_10h14.08.304,Reversal,2022.1.2,60.036766572152786,3,
10,exp1.png,exp2.png,,,,,,,,,,,,,,,,,,0,0,0,0,0,10,10,10,,,,,,,,,False,10,91,False,exp1.png,exp2.png,trial_right_image,-1,exp2.png,3,exp1.png,exp2.png,1,3,reversed,incorrect,0.9832852622714118,0,valid_lose,543.6731855999678,54,,,,,,,,,,,,,,,,sub_107,2022-11-11_10h14.08.304,Reversal,2022.1.2,60.036766572152786,3,
11,exp3.png,exp4.png,,,,,,,,,,,,,,,,,,0,0,0,0,0,11,11,11,,,,,,,,,False,11,92,True,exp4.png,exp3.png,trial_left_image,1,exp4.png,3,exp4.png,exp3.png,1,1,non-reversed,correct,0.838410770854875,1,valid_win,547.9557515000924,55,,,,,,,,,,,,,,,,sub_107,2022-11-11_10h14.08.304,Reversal,2022.1.2,60.036766572152786,3,
12,exp1.png,exp2.png,,,,,,,,,,,,,,,,,,0,0,0,0,0,12,12,12,,,,,,,,,False,12,93,False,exp1.png,exp2.png,trial_left_image,1,exp1.png,3,exp1.png,exp2.png,0,4,reversed,correct,0.6400520798495996,1,valid_win,551.9892867999151,56,,,,,,,,,,,,,,,,sub_107,2022-11-11_10h14.08.304,Reversal,2022.1.2,60.036766572152786,3,
13,exp3.png,exp4.png,,,,,,,,,,,,,,,,,,0,0,0,0,0,13,13,13,,,,,,,,,False,13,94,True,exp4.png,exp3.png,trial_right_image,-1,exp3.png,3,exp4.png,exp3.png,0,2,non-reversed,incorrect,0.9273653525317926,0,valid_lose,557.338868000079,56,,,,,,,,,,,,,,,,sub_107,2022-11-11_10h14.08.304,Reversal,2022.1.2,60.036766572152786,3,
14,exp1.png,exp2.png,,,,,,,,,,,,,,,,,,0,0,0,0,0,14,14,14,,,,,,,,,False,14,95,False,exp1.png,exp2.png,trial_left_image,1,exp1.png,3,exp1.png,exp2.png,0,4,reversed,correct,0.09027801557243709,0,invalid_lose,561.3390488000587,56,,,,,,,,,,,,,,,,sub_107,2022-11-11_10h14.08.304,Reversal,2022.1.2,60.036766572152786,3,
15,exp3.png,exp4.png,,,,,,,,,,,,,,,,,,0,0,0,0,0,15,15,15,,,,,,,,,False,15,96,True,exp4.png,exp3.png,trial_right_image,-1,exp3.png,3,exp4.png,exp3.png,0,2,non-reversed,incorrect,0.7869446372824866,0,valid_lose,565.623152300017,56,,,,,,,,,,,,,,,,sub_107,2022-11-11_10h14.08.304,Reversal,2022.1.2,60.036766572152786,3,
16,exp1.png,exp2.png,,,,,,,,,,,,,,,,,,0,0,0,0,0,16,16,16,,,,,,,,,False,16,97,False,exp1.png,exp2.png,trial_left_image,1,exp1.png,3,exp1.png,exp2.png,0,4,reversed,correct,0.3025269823238035,1,valid_win,569.7071394000668,57,,,,,,,,,,,,,,,,sub_107,2022-11-11_10h14.08.304,Reversal,2022.1.2,60.036766572152786,3,
17,exp3.png,exp4.png,,,,,,,,,,,,,,,,,,0,0,0,0,0,17,17,17,,,,,,,,,False,17,98,False,exp3.png,exp4.png,trial_left_image,1,exp3.png,3,exp4.png,exp3.png,0,2,non-reversed,incorrect,0.7013013818602664,0,valid_lose,573.8575685000978,57,,,,,,,,,,,,,,,,sub_107,2022-11-11_10h14.08.304,Reversal,2022.1.2,60.036766572152786,3,
18,exp1.png,exp2.png,,,,,,,,,,,,,,,,,,0,0,0,0,0,18,18,18,,,,,,,,,False,18,99,False,exp1.png,exp2.png,trial_right_image,-1,exp2.png,3,exp1.png,exp2.png,1,3,reversed,incorrect,0.6542000061578526,0,valid_lose,578.0902227999177,57,,,,,,,,,,,,,,,,sub_107,2022-11-11_10h14.08.304,Reversal,2022.1.2,60.036766572152786,3,
19,exp3.png,exp4.png,,,,,,,,,,,,,,,,,,0,0,0,0,0,19,19,19,,,,,,,,,False,19,100,True,exp4.png,exp3.png,trial_left_image,1,exp4.png,3,exp4.png,exp3.png,1,1,non-reversed,correct,0.29850010127711135,1,valid_win,582.1392719000578,58,,,,,,,,,,,,,,,,sub_107,2022-11-11_10h14.08.304,Reversal,2022.1.2,60.036766572152786,3,
20,exp1.png,exp2.png,,,,,,,,,,,,,,,,,,0,0,0,0,0,20,20,20,,,,,,,,,True,,,,,,,,,,,,,,,,,,,,,,,,,,,,,,,,,,,,sub_107,2022-11-11_10h14.08.304,Reversal,2022.1.2,60.036766572152786,3,
,,,exp1.png,,,,,,,,,,,,,,,,,0,0,0,0,,,,,0,0,0,0,0,0,0,0,,,,,,,,,,,,,,,,,,,,,,68.0,68.0,2.214128299849108,"[(68.0, 2.214128299849108)]",781.9394980999641,None,,,,,,,,,,sub_107,2022-11-11_10h14.08.304,Reversal,2022.1.2,60.036766572152786,3,
,,,exp2.png,,,,,,,,,,,,,,,,,0,0,0,0,,,,,0,0,0,0,0,1,1,1,,,,,,,,,,,,,,,,,,,,,,,68.0,1.6174093000590801,"[(68.0, 1.6174093000590801)]",785.013494499959,None,68.0,,,,,,,,,sub_107,2022-11-11_10h14.08.304,Reversal,2022.1.2,60.036766572152786,3,
,,,exp3.png,,,,,,,,,,,,,,,,,0,0,0,0,,,,,0,0,0,0,0,2,2,2,,,,,,,,,,,,,,,,,,,,,,,28.0,1.934946200111881,"[(49.0, 1.3329720001202077), (28.0, 1.934946200111881)]",787.5634852999356,None,,28.0,,,,,,,,sub_107,2022-11-11_10h14.08.304,Reversal,2022.1.2,60.036766572152786,3,
,,,exp4.png,,,,,,,,,,,,,,,,,0,0,0,0,,,,,0,0,0,0,0,3,3,3,,,,,,,,,,,,,,,,,,,,,,,71.0,1.4858829998411238,"[(71.0, 1.4858829998411238)]",790.3310106999706,None,,,71.0,,,,,,,sub_107,2022-11-11_10h14.08.304,Reversal,2022.1.2,60.036766572152786,3,
0,exp1.png,exp2.png,,,,,,,,,,,,,,,,,,1,0,1,0,0,0,0,0,,,,,,,,,False,20,101,False,exp1.png,exp2.png,trial_right_image,-1,exp2.png,3,exp1.png,exp2.png,1,3,reversed,incorrect,0.11764951661954715,1,invalid_win,597.7222927000839,59,,,,,,,,,,,,,,,,sub_107,2022-11-11_10h14.08.304,Reversal,2022.1.2,60.036766572152786,3,
1,exp3.png,exp4.png,,,,,,,,,,,,,,,,,,1,0,1,0,0,1,1,1,,,,,,,,,False,21,102,True,exp4.png,exp3.png,trial_right_image,-1,exp3.png,3,exp4.png,exp3.png,0,2,non-reversed,incorrect,0.3379007151801158,0,valid_lose,602.4716161999386,59,,,,,,,,,,,,,,,,sub_107,2022-11-11_10h14.08.304,Reversal,2022.1.2,60.036766572152786,3,
2,exp1.png,exp2.png,,,,,,,,,,,,,,,,,,1,0,1,0,0,2,2,2,,,,,,,,,False,22,103,False,exp1.png,exp2.png,trial_right_image,-1,exp2.png,3,exp1.png,exp2.png,1,3,reversed,incorrect,0.7640788999425674,0,valid_lose,606.6885710998904,59,,,,,,,,,,,,,,,,sub_107,2022-11-11_10h14.08.304,Reversal,2022.1.2,60.036766572152786,3,
3,exp3.png,exp4.png,,,,,,,,,,,,,,,,,,1,0,1,0,0,3,3,3,,,,,,,,,False,23,104,False,exp3.png,exp4.png,trial_left_image,1,exp3.png,3,exp4.png,exp3.png,0,2,non-reversed,incorrect,0.8458197656033012,0,valid_lose,610.73837799998,59,,,,,,,,,,,,,,,,sub_107,2022-11-11_10h14.08.304,Reversal,2022.1.2,60.036766572152786,3,
4,exp1.png,exp2.png,,,,,,,,,,,,,,,,,,1,0,1,0,0,4,4,4,,,,,,,,,False,24,105,True,exp2.png,exp1.png,trial_right_image,-1,exp1.png,3,exp1.png,exp2.png,0,4,reversed,correct,0.05471860519344418,0,invalid_lose,614.7715940000489,59,,,,,,,,,,,,,,,,sub_107,2022-11-11_10h14.08.304,Reversal,2022.1.2,60.036766572152786,3,
5,exp3.png,exp4.png,,,,,,,,,,,,,,,,,,1,0,1,0,0,5,5,5,,,,,,,,,False,25,106,False,exp3.png,exp4.png,trial_left_image,1,exp3.png,3,exp4.png,exp3.png,0,2,non-reversed,incorrect,0.1235811519040797,1,invalid_win,618.7547416000161,60,,,,,,,,,,,,,,,,sub_107,2022-11-11_10h14.08.304,Reversal,2022.1.2,60.036766572152786,3,
6,exp1.png,exp2.png,,,,,,,,,,,,,,,,,,1,0,1,0,0,6,6,6,,,,,,,,,False,26,107,False,exp1.png,exp2.png,trial_left_image,1,exp1.png,3,exp1.png,exp2.png,0,4,reversed,correct,0.759393860719511,1,valid_win,623.139104800066,61,,,,,,,,,,,,,,,,sub_107,2022-11-11_10h14.08.304,Reversal,2022.1.2,60.036766572152786,3,
7,exp3.png,exp4.png,,,,,,,,,,,,,,,,,,1,0,1,0,0,7,7,7,,,,,,,,,False,27,108,False,exp3.png,exp4.png,trial_left_image,1,exp3.png,3,exp4.png,exp3.png,0,2,non-reversed,incorrect,0.8822198057836668,0,valid_lose,627.2552970999386,61,,,,,,,,,,,,,,,,sub_107,2022-11-11_10h14.08.304,Reversal,2022.1.2,60.036766572152786,3,
8,exp1.png,exp2.png,,,,,,,,,,,,,,,,,,1,0,1,0,0,8,8,8,,,,,,,,,False,28,109,True,exp2.png,exp1.png,trial_right_image,-1,exp1.png,3,exp1.png,exp2.png,0,4,reversed,correct,0.05395029024777975,0,invalid_lose,631.4882978999522,61,,,,,,,,,,,,,,,,sub_107,2022-11-11_10h14.08.304,Reversal,2022.1.2,60.036766572152786,3,
9,exp3.png,exp4.png,,,,,,,,,,,,,,,,,,1,0,1,0,0,9,9,9,,,,,,,,,False,29,110,False,exp3.png,exp4.png,trial_left_image,1,exp3.png,3,exp4.png,exp3.png,0,2,non-reversed,incorrect,0.15121830898238198,1,invalid_win,635.4893094000872,62,,,,,,,,,,,,,,,,sub_107,2022-11-11_10h14.08.304,Reversal,2022.1.2,60.036766572152786,3,
10,exp1.png,exp2.png,,,,,,,,,,,,,,,,,,1,0,1,0,0,10,10,10,,,,,,,,,False,30,111,True,exp2.png,exp1.png,trial_left_image,1,exp2.png,3,exp1.png,exp2.png,1,3,reversed,incorrect,0.17101702767843263,1,invalid_win,638.7789177000523,63,,,,,,,,,,,,,,,,sub_107,2022-11-11_10h14.08.304,Reversal,2022.1.2,60.036766572152786,3,
11,exp3.png,exp4.png,,,,,,,,,,,,,,,,,,1,0,1,0,0,11,11,11,,,,,,,,,False,31,112,True,exp4.png,exp3.png,trial_left_image,1,exp4.png,3,exp4.png,exp3.png,1,1,non-reversed,correct,0.42101875902086305,1,valid_win,642.7709969000425,64,,,,,,,,,,,,,,,,sub_107,2022-11-11_10h14.08.304,Reversal,2022.1.2,60.036766572152786,3,
12,exp1.png,exp2.png,,,,,,,,,,,,,,,,,,1,0,1,0,0,12,12,12,,,,,,,,,False,32,113,True,exp2.png,exp1.png,trial_left_image,1,exp2.png,3,exp1.png,exp2.png,1,3,reversed,incorrect,0.08442031711375775,1,invalid_win,646.9707988000009,65,,,,,,,,,,,,,,,,sub_107,2022-11-11_10h14.08.304,Reversal,2022.1.2,60.036766572152786,3,
13,exp3.png,exp4.png,,,,,,,,,,,,,,,,,,1,0,1,0,0,13,13,13,,,,,,,,,False,33,114,True,exp4.png,exp3.png,trial_left_image,1,exp4.png,3,exp4.png,exp3.png,1,1,non-reversed,correct,0.19023435199178973,0,invalid_lose,651.0873366000596,65,,,,,,,,,,,,,,,,sub_107,2022-11-11_10h14.08.304,Reversal,2022.1.2,60.036766572152786,3,
14,exp1.png,exp2.png,,,,,,,,,,,,,,,,,,1,0,1,0,0,14,14,14,,,,,,,,,False,34,115,False,exp1.png,exp2.png,trial_left_image,1,exp1.png,3,exp1.png,exp2.png,0,4,reversed,correct,0.3871199397418279,1,valid_win,655.4873289000243,66,,,,,,,,,,,,,,,,sub_107,2022-11-11_10h14.08.304,Reversal,2022.1.2,60.036766572152786,3,
15,exp3.png,exp4.png,,,,,,,,,,,,,,,,,,1,0,1,0,0,15,15,15,,,,,,,,,False,35,116,True,exp4.png,exp3.png,trial_left_image,1,exp4.png,3,exp4.png,exp3.png,1,1,non-reversed,correct,0.5380886464343531,1,valid_win,658.9707414000295,67,,,,,,,,,,,,,,,,sub_107,2022-11-11_10h14.08.304,Reversal,2022.1.2,60.036766572152786,3,
16,exp1.png,exp2.png,,,,,,,,,,,,,,,,,,1,0,1,0,0,16,16,16,,,,,,,,,False,36,117,True,exp2.png,exp1.png,trial_left_image,1,exp2.png,3,exp1.png,exp2.png,1,3,reversed,incorrect,0.553032210235112,0,valid_lose,663.0876863999292,67,,,,,,,,,,,,,,,,sub_107,2022-11-11_10h14.08.304,Reversal,2022.1.2,60.036766572152786,3,
17,exp3.png,exp4.png,,,,,,,,,,,,,,,,,,1,0,1,0,0,17,17,17,,,,,,,,,False,37,118,True,exp4.png,exp3.png,trial_left_image,1,exp4.png,3,exp4.png,exp3.png,1,1,non-reversed,correct,0.19620735374986498,0,invalid_lose,672.7701522998977,67,,,,,,,,,,,,,,,,sub_107,2022-11-11_10h14.08.304,Reversal,2022.1.2,60.036766572152786,3,
18,exp1.png,exp2.png,,,,,,,,,,,,,,,,,,1,0,1,0,0,18,18,18,,,,,,,,,False,38,119,False,exp1.png,exp2.png,trial_right_image,-1,exp2.png,3,exp1.png,exp2.png,1,3,reversed,incorrect,0.6242588061565034,0,valid_lose,676.6206793999299,67,,,,,,,,,,,,,,,,sub_107,2022-11-11_10h14.08.304,Reversal,2022.1.2,60.036766572152786,3,
19,exp3.png,exp4.png,,,,,,,,,,,,,,,,,,1,0,1,0,0,19,19,19,,,,,,,,,False,39,120,False,exp3.png,exp4.png,trial_left_image,1,exp3.png,3,exp4.png,exp3.png,0,2,non-reversed,incorrect,0.33769394162741795,0,valid_lose,679.9299957999028,67,,,,,,,,,,,,,,,,sub_107,2022-11-11_10h14.08.304,Reversal,2022.1.2,60.036766572152786,3,
20,exp1.png,exp2.png,,,,,,,,,,,,,,,,,,1,0,1,0,0,20,20,20,,,,,,,,,True,,,,,,,,,,,,,,,,,,,,,,,,,,,,,,,,,,,,sub_107,2022-11-11_10h14.08.304,Reversal,2022.1.2,60.036766572152786,3,
,,,exp1.png,,,,,,,,,,,,,,,,,1,0,1,0,,,,,0,0,0,0,0,0,0,0,,,,,,,,,,,,,,,,,,,,,,56.0,56.0,0.5688298000022769,"[(56.0, 0.5688298000022769)]",879.7158080998342,None,,,,,,,,,,sub_107,2022-11-11_10h14.08.304,Reversal,2022.1.2,60.036766572152786,3,
,,,exp2.png,,,,,,,,,,,,,,,,,1,0,1,0,,,,,0,0,0,0,0,1,1,1,,,,,,,,,,,,,,,,,,,,,,,35.0,1.0666990999598056,"[(35.0, 1.0666990999598056)]",882.411817099899,None,35.0,,,,,,,,,sub_107,2022-11-11_10h14.08.304,Reversal,2022.1.2,60.036766572152786,3,
,,,exp3.png,,,,,,,,,,,,,,,,,1,0,1,0,,,,,0,0,0,0,0,2,2,2,,,,,,,,,,,,,,,,,,,,,,,74.0,0.9677595999091864,"[(74.0, 0.9677595999091864)]",884.3457449998241,None,,74.0,,,,,,,,sub_107,2022-11-11_10h14.08.304,Reversal,2022.1.2,60.036766572152786,3,
,,,exp4.png,,,,,,,,,,,,,,,,,1,0,1,0,,,,,0,0,0,0,0,3,3,3,,,,,,,,,,,,,,,,,,,,,,,69.0,0.9810178000479937,"[(69.0, 0.9810178000479937)]",886.1642977998126,None,,,69.0,,,,,,,sub_107,2022-11-11_10h14.08.304,Reversal,2022.1.2,60.036766572152786,3,
0,exp1.png,exp2.png,,,,,,,,,,,,,,,,,,2,0,2,0,0,0,0,0,,,,,,,,,False,40,121,True,exp2.png,exp1.png,trial_left_image,1,exp2.png,3,exp1.png,exp2.png,1,3,reversed,incorrect,0.634189450183982,0,valid_lose,692.3366338999476,67,,,,,,,,,,,,,,,,sub_107,2022-11-11_10h14.08.304,Reversal,2022.1.2,60.036766572152786,3,
1,exp3.png,exp4.png,,,,,,,,,,,,,,,,,,2,0,2,0,0,1,1,1,,,,,,,,,False,41,122,True,exp4.png,exp3.png,trial_right_image,-1,exp3.png,3,exp4.png,exp3.png,0,2,non-reversed,incorrect,0.2626241772272849,0,valid_lose,696.3702473999001,67,,,,,,,,,,,,,,,,sub_107,2022-11-11_10h14.08.304,Reversal,2022.1.2,60.036766572152786,3,
2,exp1.png,exp2.png,,,,,,,,,,,,,,,,,,2,0,2,0,0,2,2,2,,,,,,,,,False,42,123,True,exp2.png,exp1.png,trial_left_image,1,exp2.png,3,exp1.png,exp2.png,1,3,reversed,incorrect,0.4169543724608076,0,valid_lose,700.2702387999743,67,,,,,,,,,,,,,,,,sub_107,2022-11-11_10h14.08.304,Reversal,2022.1.2,60.036766572152786,3,
3,exp3.png,exp4.png,,,,,,,,,,,,,,,,,,2,0,2,0,0,3,3,3,,,,,,,,,False,43,124,True,exp4.png,exp3.png,trial_left_image,1,exp4.png,3,exp4.png,exp3.png,1,1,non-reversed,correct,0.96338530522957,1,valid_win,704.2201561999973,68,,,,,,,,,,,,,,,,sub_107,2022-11-11_10h14.08.304,Reversal,2022.1.2,60.036766572152786,3,
4,exp1.png,exp2.png,,,,,,,,,,,,,,,,,,2,0,2,0,0,4,4,4,,,,,,,,,False,44,125,False,exp1.png,exp2.png,trial_left_image,1,exp1.png,3,exp1.png,exp2.png,0,4,reversed,correct,0.31733435467574755,1,valid_win,708.6193939000368,69,,,,,,,,,,,,,,,,sub_107,2022-11-11_10h14.08.304,Reversal,2022.1.2,60.036766572152786,3,
5,exp3.png,exp4.png,,,,,,,,,,,,,,,,,,2,0,2,0,0,5,5,5,,,,,,,,,False,45,126,True,exp4.png,exp3.png,trial_left_image,1,exp4.png,3,exp4.png,exp3.png,1,1,non-reversed,correct,0.8082937255762442,1,valid_win,712.7029556999914,70,,,,,,,,,,,,,,,,sub_107,2022-11-11_10h14.08.304,Reversal,2022.1.2,60.036766572152786,3,
6,exp1.png,exp2.png,,,,,,,,,,,,,,,,,,2,0,2,0,0,6,6,6,,,,,,,,,False,46,127,False,exp1.png,exp2.png,trial_left_image,1,exp1.png,3,exp1.png,exp2.png,0,4,reversed,correct,0.10032314050406876,0,invalid_lose,719.2200251000468,70,,,,,,,,,,,,,,,,sub_107,2022-11-11_10h14.08.304,Reversal,2022.1.2,60.036766572152786,3,
7,exp3.png,exp4.png,,,,,,,,,,,,,,,,,,2,0,2,0,0,7,7,7,,,,,,,,,False,47,128,False,exp3.png,exp4.png,trial_left_image,1,exp3.png,3,exp4.png,exp3.png,0,2,non-reversed,incorrect,0.3841963511600376,0,valid_lose,723.3531333000865,70,,,,,,,,,,,,,,,,sub_107,2022-11-11_10h14.08.304,Reversal,2022.1.2,60.036766572152786,3,
8,exp1.png,exp2.png,,,,,,,,,,,,,,,,,,2,0,2,0,0,8,8,8,,,,,,,,,False,48,129,False,exp1.png,exp2.png,trial_left_image,1,exp1.png,3,exp1.png,exp2.png,0,4,reversed,correct,0.7332072557856318,1,valid_win,727.9032018000726,71,,,,,,,,,,,,,,,,sub_107,2022-11-11_10h14.08.304,Reversal,2022.1.2,60.036766572152786,3,
9,exp3.png,exp4.png,,,,,,,,,,,,,,,,,,2,0,2,0,0,9,9,9,,,,,,,,,False,49,130,False,exp3.png,exp4.png,trial_left_image,1,exp3.png,3,exp4.png,exp3.png,0,2,non-reversed,incorrect,0.3031428159916534,0,valid_lose,732.4882277001161,71,,,,,,,,,,,,,,,,sub_107,2022-11-11_10h14.08.304,Reversal,2022.1.2,60.036766572152786,3,
10,exp1.png,exp2.png,,,,,,,,,,,,,,,,,,2,0,2,0,0,10,10,10,,,,,,,,,False,50,131,False,exp1.png,exp2.png,trial_left_image,1,exp1.png,3,exp1.png,exp2.png,0,4,reversed,correct,0.47361709183774914,1,valid_win,736.9189561000094,72,,,,,,,,,,,,,,,,sub_107,2022-11-11_10h14.08.304,Reversal,2022.1.2,60.036766572152786,3,
11,exp3.png,exp4.png,,,,,,,,,,,,,,,,,,2,0,2,0,0,11,11,11,,,,,,,,,False,51,132,False,exp3.png,exp4.png,trial_right_image,-1,exp4.png,3,exp4.png,exp3.png,1,1,non-reversed,correct,0.6340484411720423,1,valid_win,741.0026827000547,73,,,,,,,,,,,,,,,,sub_107,2022-11-11_10h14.08.304,Reversal,2022.1.2,60.036766572152786,3,
12,exp1.png,exp2.png,,,,,,,,,,,,,,,,,,2,0,2,0,0,12,12,12,,,,,,,,,False,52,133,False,exp1.png,exp2.png,trial_left_image,1,exp1.png,3,exp1.png,exp2.png,0,4,reversed,correct,0.012962532440531915,0,invalid_lose,745.3194951999467,73,,,,,,,,,,,,,,,,sub_107,2022-11-11_10h14.08.304,Reversal,2022.1.2,60.036766572152786,3,
13,exp3.png,exp4.png,,,,,,,,,,,,,,,,,,2,0,2,0,0,13,13,13,,,,,,,,,False,53,134,True,exp4.png,exp3.png,trial_left_image,1,exp4.png,3,exp4.png,exp3.png,1,1,non-reversed,correct,0.09833106226128008,0,invalid_lose,749.6357175000012,73,,,,,,,,,,,,,,,,sub_107,2022-11-11_10h14.08.304,Reversal,2022.1.2,60.036766572152786,3,
14,exp1.png,exp2.png,,,,,,,,,,,,,,,,,,2,0,2,0,0,14,14,14,,,,,,,,,False,54,135,True,exp2.png,exp1.png,trial_right_image,-1,exp1.png,3,exp1.png,exp2.png,0,4,reversed,correct,0.44078171770796115,1,valid_win,756.2689684999641,74,,,,,,,,,,,,,,,,sub_107,2022-11-11_10h14.08.304,Reversal,2022.1.2,60.036766572152786,3,
15,exp3.png,exp4.png,,,,,,,,,,,,,,,,,,2,0,2,0,0,15,15,15,,,,,,,,,False,55,136,False,exp3.png,exp4.png,trial_right_image,-1,exp4.png,3,exp4.png,exp3.png,1,1,non-reversed,correct,0.7339407063693927,1,valid_win,761.118490899913,75,,,,,,,,,,,,,,,,sub_107,2022-11-11_10h14.08.304,Reversal,2022.1.2,60.036766572152786,3,
16,exp1.png,exp2.png,,,,,,,,,,,,,,,,,,2,0,2,0,0,16,16,16,,,,,,,,,False,56,137,True,exp2.png,exp1.png,trial_right_image,-1,exp1.png,3,exp1.png,exp2.png,0,4,reversed,correct,0.902167334897996,1,valid_win,765.6026626999956,76,,,,,,,,,,,,,,,,sub_107,2022-11-11_10h14.08.304,Reversal,2022.1.2,60.036766572152786,3,
17,exp3.png,exp4.png,,,,,,,,,,,,,,,,,,2,0,2,0,0,17,17,17,,,,,,,,,False,57,138,False,exp3.png,exp4.png,trial_right_image,-1,exp4.png,3,exp4.png,exp3.png,1,1,non-reversed,correct,0.08354589749773578,0,invalid_lose,770.5183925000019,76,,,,,,,,,,,,,,,,sub_107,2022-11-11_10h14.08.304,Reversal,2022.1.2,60.036766572152786,3,
18,exp1.png,exp2.png,,,,,,,,,,,,,,,,,,2,0,2,0,0,18,18,18,,,,,,,,,False,58,139,True,exp2.png,exp1.png,trial_right_image,-1,exp1.png,3,exp1.png,exp2.png,0,4,reversed,correct,0.5848223334595442,1,valid_win,775.4516920999158,77,,,,,,,,,,,,,,,,sub_107,2022-11-11_10h14.08.304,Reversal,2022.1.2,60.036766572152786,3,
19,exp3.png,exp4.png,,,,,,,,,,,,,,,,,,2,0,2,0,0,19,19,19,,,,,,,,,False,59,140,True,exp4.png,exp3.png,trial_right_image,-1,exp3.png,3,exp4.png,exp3.png,0,2,non-reversed,incorrect,0.18117237514092865,1,invalid_win,784.084862699965,78,,,,,,,,,,,,,,,,sub_107,2022-11-11_10h14.08.304,Reversal,2022.1.2,60.036766572152786,3,
20,exp1.png,exp2.png,,,,,,,,,,,,,,,,,,2,0,2,0,0,20,20,20,,,,,,,,,True,,,,,,,,,,,,,,,,,,,,,,,,,,,,,,,,,,,,sub_107,2022-11-11_10h14.08.304,Reversal,2022.1.2,60.036766572152786,3,
,,,exp1.png,,,,,,,,,,,,,,,,,2,0,2,0,,,,,0,0,0,0,0,0,0,0,,,,,,,,,,,,,,,,,,,,,,68.0,68.0,2.0263320999220014,"[(68.0, 2.0263320999220014)]",983.870112999808,None,,,,,,,,,,sub_107,2022-11-11_10h14.08.304,Reversal,2022.1.2,60.036766572152786,3,
,,,exp2.png,,,,,,,,,,,,,,,,,2,0,2,0,,,,,0,0,0,0,0,1,1,1,,,,,,,,,,,,,,,,,,,,,,,63.0,1.1013007999863476,"[(63.0, 1.1013007999863476)]",986.9275096999481,None,63.0,,,,,,,,,sub_107,2022-11-11_10h14.08.304,Reversal,2022.1.2,60.036766572152786,3,
,,,exp3.png,,,,,,,,,,,,,,,,,2,0,2,0,,,,,0,0,0,0,0,2,2,2,,,,,,,,,,,,,,,,,,,,,,,56.0,1.9504700999241322,"[(56.0, 1.9504700999241322)]",989.228227699874,None,,56.0,,,,,,,,sub_107,2022-11-11_10h14.08.304,Reversal,2022.1.2,60.036766572152786,3,
,,,exp4.png,,,,,,,,,,,,,,,,,2,0,2,0,,,,,0,0,0,0,0,3,3,3,,,,,,,,,,,,,,,,,,,,,,,50.0,None,[],991.5510515999049,None,,,,,,,,,,sub_107,2022-11-11_10h14.08.304,Reversal,2022.1.2,60.036766572152786,3,
,,,,,,,,,,,,,,,,,,,,,,,,,,,,,,,,,,,,,,,,,,,,,,,,,,,,,,,,78,,,,,,,,,,,92,61,31,296.7276381000411,1,,,,,,,
