trial_index,trial_image1_file,trial_image2_file,image_file,learning_outer_loop.thisRepN,learning_outer_loop.thisTrialN,learning_outer_loop.thisN,learning_outer_loop.thisIndex,learning_inner_loop.thisRepN,learning_inner_loop.thisTrialN,learning_inner_loop.thisN,learning_inner_loop.thisIndex,learning_estimation_outer_loop.thisRepN,learning_estimation_outer_loop.thisTrialN,learning_estimation_outer_loop.thisN,learning_estimation_outer_loop.thisIndex,learning_estimation_inner_loop.thisRepN,learning_estimation_inner_loop.thisTrialN,learning_estimation_inner_loop.thisN,learning_estimation_inner_loop.thisIndex,reversal_outer_loop.thisRepN,reversal_outer_loop.thisTrialN,reversal_outer_loop.thisN,reversal_outer_loop.thisIndex,reversal_inner_loop.thisRepN,reversal_inner_loop.thisTrialN,reversal_inner_loop.thisN,reversal_inner_loop.thisIndex,reversal_estimation_outer_loop.thisRepN,reversal_estimation_outer_loop.thisTrialN,reversal_estimation_outer_loop.thisN,reversal_estimation_outer_loop.thisIndex,reversal_estimation_inner_loop.thisRepN,reversal_estimation_inner_loop.thisTrialN,reversal_estimation_inner_loop.thisN,reversal_estimation_inner_loop.thisIndex,skipped,total_trial_counter,trial_num,left_right_flip,left_image_file,right_image_file,clicked_stimulus_side,side,clicked_stimulus,version,high_prob_image_file,low_prob_image_file,choice_a,choice_b,pair_type,correct,trial_feedback_random,reward,trial_type,overall_time_after_trial,score,estimation_rating.started,estimation_rating.response,estimation_rating.rt,estimation_rating.history,total_learning_time,total_correct,learning_correct,reversal_correct,total_reversal_time,extra_block,participant,date,expName,psychopyVersion,frameRate,ver,
0,exp1.png,exp2.png,,0,0,0,0,0,0,0,0,,,,,,,,,,,,,,,,,,,,,,,,,False,0,1,False,exp1.png,exp2.png,trial_right_image,-1,exp2.png,2,exp1.png,exp2.png,0,2,non-reversed,incorrect,0.9085443161863583,0,valid_lose,5.229824000000008,0,,,,,,,,,,,sub_622,2024-09-16_11h04.14.012,Reversal,2023.1.3,59.92085653279865,2,
1,exp3.png,exp4.png,,0,0,0,0,0,1,1,1,,,,,,,,,,,,,,,,,,,,,,,,,False,1,2,False,exp3.png,exp4.png,trial_right_image,-1,exp4.png,2,exp3.png,exp4.png,0,4,reversed,incorrect,0.4466377646664774,0,valid_lose,10.710463600000367,0,,,,,,,,,,,sub_622,2024-09-16_11h04.14.012,Reversal,2023.1.3,59.92085653279865,2,
2,exp1.png,exp2.png,,0,0,0,0,0,2,2,2,,,,,,,,,,,,,,,,,,,,,,,,,False,2,3,True,exp2.png,exp1.png,trial_right_image,-1,exp1.png,2,exp1.png,exp2.png,1,1,non-reversed,correct,0.43712851899826,1,valid_win,16.625283500000478,1,,,,,,,,,,,sub_622,2024-09-16_11h04.14.012,Reversal,2023.1.3,59.92085653279865,2,
3,exp3.png,exp4.png,,0,0,0,0,0,3,3,3,,,,,,,,,,,,,,,,,,,,,,,,,False,3,4,True,exp4.png,exp3.png,trial_left_image,1,exp4.png,2,exp3.png,exp4.png,0,4,reversed,incorrect,0.5018431638888288,0,valid_lose,22.35646900000029,1,,,,,,,,,,,sub_622,2024-09-16_11h04.14.012,Reversal,2023.1.3,59.92085653279865,2,
4,exp1.png,exp2.png,,0,0,0,0,0,4,4,4,,,,,,,,,,,,,,,,,,,,,,,,,False,4,5,False,exp1.png,exp2.png,trial_left_image,1,exp1.png,2,exp1.png,exp2.png,1,1,non-reversed,correct,0.09267378873522036,0,invalid_lose,27.921331999999893,1,,,,,,,,,,,sub_622,2024-09-16_11h04.14.012,Reversal,2023.1.3,59.92085653279865,2,
5,exp3.png,exp4.png,,0,0,0,0,0,5,5,5,,,,,,,,,,,,,,,,,,,,,,,,,False,5,6,True,exp4.png,exp3.png,trial_left_image,1,exp4.png,2,exp3.png,exp4.png,0,4,reversed,incorrect,0.02467928261755792,1,invalid_win,33.58575660000042,2,,,,,,,,,,,sub_622,2024-09-16_11h04.14.012,Reversal,2023.1.3,59.92085653279865,2,
6,exp1.png,exp2.png,,0,0,0,0,0,6,6,6,,,,,,,,,,,,,,,,,,,,,,,,,False,6,7,True,exp2.png,exp1.png,trial_right_image,-1,exp1.png,2,exp1.png,exp2.png,1,1,non-reversed,correct,0.30640553332306464,1,valid_win,38.85100770000008,3,,,,,,,,,,,sub_622,2024-09-16_11h04.14.012,Reversal,2023.1.3,59.92085653279865,2,
7,exp3.png,exp4.png,,0,0,0,0,0,7,7,7,,,,,,,,,,,,,,,,,,,,,,,,,False,7,8,True,exp4.png,exp3.png,trial_left_image,1,exp4.png,2,exp3.png,exp4.png,0,4,reversed,incorrect,0.4361990065079593,0,valid_lose,43.3501511000004,3,,,,,,,,,,,sub_622,2024-09-16_11h04.14.012,Reversal,2023.1.3,59.92085653279865,2,
8,exp1.png,exp2.png,,0,0,0,0,0,8,8,8,,,,,,,,,,,,,,,,,,,,,,,,,False,8,9,True,exp2.png,exp1.png,trial_left_image,1,exp2.png,2,exp1.png,exp2.png,0,2,non-reversed,incorrect,0.4426683162560515,0,valid_lose,48.99877170000036,3,,,,,,,,,,,sub_622,2024-09-16_11h04.14.012,Reversal,2023.1.3,59.92085653279865,2,
9,exp3.png,exp4.png,,0,0,0,0,0,9,9,9,,,,,,,,,,,,,,,,,,,,,,,,,False,9,10,False,exp3.png,exp4.png,trial_left_image,1,exp3.png,2,exp3.png,exp4.png,1,3,reversed,correct,0.6823698472282973,1,valid_win,54.179052200000115,4,,,,,,,,,,,sub_622,2024-09-16_11h04.14.012,Reversal,2023.1.3,59.92085653279865,2,
10,exp1.png,exp2.png,,0,0,0,0,0,10,10,10,,,,,,,,,,,,,,,,,,,,,,,,,False,10,11,False,exp1.png,exp2.png,trial_left_image,1,exp1.png,2,exp1.png,exp2.png,1,1,non-reversed,correct,0.7167366525041906,1,valid_win,58.5790035,5,,,,,,,,,,,sub_622,2024-09-16_11h04.14.012,Reversal,2023.1.3,59.92085653279865,2,
11,exp3.png,exp4.png,,0,0,0,0,0,11,11,11,,,,,,,,,,,,,,,,,,,,,,,,,False,11,12,False,exp3.png,exp4.png,trial_right_image,-1,exp4.png,2,exp3.png,exp4.png,0,4,reversed,incorrect,0.044618304535971376,1,invalid_win,62.7761258999999,6,,,,,,,,,,,sub_622,2024-09-16_11h04.14.012,Reversal,2023.1.3,59.92085653279865,2,
12,exp1.png,exp2.png,,0,0,0,0,0,12,12,12,,,,,,,,,,,,,,,,,,,,,,,,,False,12,13,False,exp1.png,exp2.png,trial_left_image,1,exp1.png,2,exp1.png,exp2.png,1,1,non-reversed,correct,0.8278877873433909,1,valid_win,66.97606580000047,7,,,,,,,,,,,sub_622,2024-09-16_11h04.14.012,Reversal,2023.1.3,59.92085653279865,2,
13,exp3.png,exp4.png,,0,0,0,0,0,13,13,13,,,,,,,,,,,,,,,,,,,,,,,,,False,13,14,True,exp4.png,exp3.png,trial_right_image,-1,exp3.png,2,exp3.png,exp4.png,1,3,reversed,correct,0.23463664102171644,0,invalid_lose,71.02466940000068,7,,,,,,,,,,,sub_622,2024-09-16_11h04.14.012,Reversal,2023.1.3,59.92085653279865,2,
14,exp1.png,exp2.png,,0,0,0,0,0,14,14,14,,,,,,,,,,,,,,,,,,,,,,,,,False,14,15,False,exp1.png,exp2.png,trial_right_image,-1,exp2.png,2,exp1.png,exp2.png,0,2,non-reversed,incorrect,0.79839790874206,0,valid_lose,75.17188570000053,7,,,,,,,,,,,sub_622,2024-09-16_11h04.14.012,Reversal,2023.1.3,59.92085653279865,2,
15,exp3.png,exp4.png,,0,0,0,0,0,15,15,15,,,,,,,,,,,,,,,,,,,,,,,,,False,15,16,True,exp4.png,exp3.png,trial_right_image,-1,exp3.png,2,exp3.png,exp4.png,1,3,reversed,correct,0.24160460452357957,0,invalid_lose,79.27154240000073,7,,,,,,,,,,,sub_622,2024-09-16_11h04.14.012,Reversal,2023.1.3,59.92085653279865,2,
16,exp1.png,exp2.png,,0,0,0,0,0,16,16,16,,,,,,,,,,,,,,,,,,,,,,,,,False,16,17,True,exp2.png,exp1.png,trial_left_image,1,exp2.png,2,exp1.png,exp2.png,0,2,non-reversed,incorrect,0.9484190071264532,0,valid_lose,83.25254370000039,7,,,,,,,,,,,sub_622,2024-09-16_11h04.14.012,Reversal,2023.1.3,59.92085653279865,2,
17,exp3.png,exp4.png,,0,0,0,0,0,17,17,17,,,,,,,,,,,,,,,,,,,,,,,,,False,17,18,False,exp3.png,exp4.png,trial_left_image,1,exp3.png,2,exp3.png,exp4.png,1,3,reversed,correct,0.49227913037921367,1,valid_win,87.15124560000004,8,,,,,,,,,,,sub_622,2024-09-16_11h04.14.012,Reversal,2023.1.3,59.92085653279865,2,
18,exp1.png,exp2.png,,0,0,0,0,0,18,18,18,,,,,,,,,,,,,,,,,,,,,,,,,False,18,19,False,exp1.png,exp2.png,trial_right_image,-1,exp2.png,2,exp1.png,exp2.png,0,2,non-reversed,incorrect,0.8735057627646022,0,valid_lose,91.25045510000018,8,,,,,,,,,,,sub_622,2024-09-16_11h04.14.012,Reversal,2023.1.3,59.92085653279865,2,
19,exp3.png,exp4.png,,0,0,0,0,0,19,19,19,,,,,,,,,,,,,,,,,,,,,,,,,False,19,20,True,exp4.png,exp3.png,trial_right_image,-1,exp3.png,2,exp3.png,exp4.png,1,3,reversed,correct,0.16542821290211684,0,invalid_lose,95.15012900000056,8,,,,,,,,,,,sub_622,2024-09-16_11h04.14.012,Reversal,2023.1.3,59.92085653279865,2,
20,exp1.png,exp2.png,,0,0,0,0,0,20,20,20,,,,,,,,,,,,,,,,,,,,,,,,,True,,,,,,,,,,,,,,,,,,,,,,,,,,,,,,,sub_622,2024-09-16_11h04.14.012,Reversal,2023.1.3,59.92085653279865,2,
,,,exp1.png,0,0,0,0,,,,,0,0,0,0,0,0,0,0,,,,,,,,,,,,,,,,,,,,,,,,,,,,,,,,,,,,,,173.22817579999992,None,None,[],,,,,,,sub_622,2024-09-16_11h04.14.012,Reversal,2023.1.3,59.92085653279865,2,
,,,exp2.png,0,0,0,0,,,,,0,0,0,0,0,1,1,1,,,,,,,,,,,,,,,,,,,,,,,,,,,,,,,,,,,,,,183.06098289999954,None,None,[],,,,,,,sub_622,2024-09-16_11h04.14.012,Reversal,2023.1.3,59.92085653279865,2,
,,,exp3.png,0,0,0,0,,,,,0,0,0,0,0,2,2,2,,,,,,,,,,,,,,,,,,,,,,,,,,,,,,,,,,,,,,187.65553239999917,None,None,[],,,,,,,sub_622,2024-09-16_11h04.14.012,Reversal,2023.1.3,59.92085653279865,2,
,,,exp4.png,0,0,0,0,,,,,0,0,0,0,0,3,3,3,,,,,,,,,,,,,,,,,,,,,,,,,,,,,,,,,,,,,,189.38895669999965,None,None,[],,,,,,,sub_622,2024-09-16_11h04.14.012,Reversal,2023.1.3,59.92085653279865,2,
0,exp1.png,exp2.png,,1,0,1,0,0,0,0,0,,,,,,,,,,,,,,,,,,,,,,,,,False,20,21,False,exp1.png,exp2.png,trial_right_image,-1,exp2.png,2,exp1.png,exp2.png,0,2,non-reversed,incorrect,0.047195617052248506,1,invalid_win,119.7742889000001,9,,,,,,,,,,,sub_622,2024-09-16_11h04.14.012,Reversal,2023.1.3,59.92085653279865,2,
1,exp3.png,exp4.png,,1,0,1,0,0,1,1,1,,,,,,,,,,,,,,,,,,,,,,,,,False,21,22,True,exp4.png,exp3.png,trial_right_image,-1,exp3.png,2,exp3.png,exp4.png,1,3,reversed,correct,0.10284559549427275,0,invalid_lose,123.79038140000011,9,,,,,,,,,,,sub_622,2024-09-16_11h04.14.012,Reversal,2023.1.3,59.92085653279865,2,
2,exp1.png,exp2.png,,1,0,1,0,0,2,2,2,,,,,,,,,,,,,,,,,,,,,,,,,False,22,23,True,exp2.png,exp1.png,trial_right_image,-1,exp1.png,2,exp1.png,exp2.png,1,1,non-reversed,correct,0.25884847552182466,1,valid_win,127.88855890000013,10,,,,,,,,,,,sub_622,2024-09-16_11h04.14.012,Reversal,2023.1.3,59.92085653279865,2,
3,exp3.png,exp4.png,,1,0,1,0,0,3,3,3,,,,,,,,,,,,,,,,,,,,,,,,,False,23,24,True,exp4.png,exp3.png,trial_left_image,1,exp4.png,2,exp3.png,exp4.png,0,4,reversed,incorrect,0.7117460930488803,0,valid_lose,132.3372603000007,10,,,,,,,,,,,sub_622,2024-09-16_11h04.14.012,Reversal,2023.1.3,59.92085653279865,2,
4,exp1.png,exp2.png,,1,0,1,0,0,4,4,4,,,,,,,,,,,,,,,,,,,,,,,,,False,24,25,True,exp2.png,exp1.png,trial_left_image,1,exp2.png,2,exp1.png,exp2.png,0,2,non-reversed,incorrect,0.01240519665094153,1,invalid_win,136.25148350000018,11,,,,,,,,,,,sub_622,2024-09-16_11h04.14.012,Reversal,2023.1.3,59.92085653279865,2,
5,exp3.png,exp4.png,,1,0,1,0,0,5,5,5,,,,,,,,,,,,,,,,,,,,,,,,,False,25,26,False,exp3.png,exp4.png,trial_right_image,-1,exp4.png,2,exp3.png,exp4.png,0,4,reversed,incorrect,0.5847998698531053,0,valid_lose,140.18494740000006,11,,,,,,,,,,,sub_622,2024-09-16_11h04.14.012,Reversal,2023.1.3,59.92085653279865,2,
6,exp1.png,exp2.png,,1,0,1,0,0,6,6,6,,,,,,,,,,,,,,,,,,,,,,,,,False,26,27,True,exp2.png,exp1.png,trial_right_image,-1,exp1.png,2,exp1.png,exp2.png,1,1,non-reversed,correct,0.04099728515087764,0,invalid_lose,144.35011590000067,11,,,,,,,,,,,sub_622,2024-09-16_11h04.14.012,Reversal,2023.1.3,59.92085653279865,2,
7,exp3.png,exp4.png,,1,0,1,0,0,7,7,7,,,,,,,,,,,,,,,,,,,,,,,,,False,27,28,False,exp3.png,exp4.png,trial_right_image,-1,exp4.png,2,exp3.png,exp4.png,0,4,reversed,incorrect,0.7992934766839822,0,valid_lose,148.33045560000028,11,,,,,,,,,,,sub_622,2024-09-16_11h04.14.012,Reversal,2023.1.3,59.92085653279865,2,
8,exp1.png,exp2.png,,1,0,1,0,0,8,8,8,,,,,,,,,,,,,,,,,,,,,,,,,False,28,29,True,exp2.png,exp1.png,trial_right_image,-1,exp1.png,2,exp1.png,exp2.png,1,1,non-reversed,correct,0.11775916467219716,0,invalid_lose,152.39588770000046,11,,,,,,,,,,,sub_622,2024-09-16_11h04.14.012,Reversal,2023.1.3,59.92085653279865,2,
9,exp3.png,exp4.png,,1,0,1,0,0,9,9,9,,,,,,,,,,,,,,,,,,,,,,,,,False,29,30,True,exp4.png,exp3.png,trial_right_image,-1,exp3.png,2,exp3.png,exp4.png,1,3,reversed,correct,0.3194684042166025,1,valid_win,156.39439579999998,12,,,,,,,,,,,sub_622,2024-09-16_11h04.14.012,Reversal,2023.1.3,59.92085653279865,2,
10,exp1.png,exp2.png,,1,0,1,0,0,10,10,10,,,,,,,,,,,,,,,,,,,,,,,,,False,30,31,False,exp1.png,exp2.png,trial_right_image,-1,exp2.png,2,exp1.png,exp2.png,0,2,non-reversed,incorrect,0.3497401089933784,0,valid_lose,160.64312719999998,12,,,,,,,,,,,sub_622,2024-09-16_11h04.14.012,Reversal,2023.1.3,59.92085653279865,2,
11,exp3.png,exp4.png,,1,0,1,0,0,11,11,11,,,,,,,,,,,,,,,,,,,,,,,,,False,31,32,False,exp3.png,exp4.png,trial_right_image,-1,exp4.png,2,exp3.png,exp4.png,0,4,reversed,incorrect,0.19345251696826715,1,invalid_win,164.60855830000037,13,,,,,,,,,,,sub_622,2024-09-16_11h04.14.012,Reversal,2023.1.3,59.92085653279865,2,
12,exp1.png,exp2.png,,1,0,1,0,0,12,12,12,,,,,,,,,,,,,,,,,,,,,,,,,False,32,33,False,exp1.png,exp2.png,trial_left_image,1,exp1.png,2,exp1.png,exp2.png,1,1,non-reversed,correct,0.8134296509036179,1,valid_win,168.80694240000048,14,,,,,,,,,,,sub_622,2024-09-16_11h04.14.012,Reversal,2023.1.3,59.92085653279865,2,
13,exp3.png,exp4.png,,1,0,1,0,0,13,13,13,,,,,,,,,,,,,,,,,,,,,,,,,False,33,34,True,exp4.png,exp3.png,trial_right_image,-1,exp3.png,2,exp3.png,exp4.png,1,3,reversed,correct,0.7535870636685659,1,valid_win,172.8723555000006,15,,,,,,,,,,,sub_622,2024-09-16_11h04.14.012,Reversal,2023.1.3,59.92085653279865,2,
14,exp1.png,exp2.png,,1,0,1,0,0,14,14,14,,,,,,,,,,,,,,,,,,,,,,,,,False,34,35,False,exp1.png,exp2.png,trial_right_image,-1,exp2.png,2,exp1.png,exp2.png,0,2,non-reversed,incorrect,0.12132963311281175,1,invalid_win,176.90450839999994,16,,,,,,,,,,,sub_622,2024-09-16_11h04.14.012,Reversal,2023.1.3,59.92085653279865,2,
15,exp3.png,exp4.png,,1,0,1,0,0,15,15,15,,,,,,,,,,,,,,,,,,,,,,,,,False,35,36,False,exp3.png,exp4.png,trial_right_image,-1,exp4.png,2,exp3.png,exp4.png,0,4,reversed,incorrect,0.7320633899965832,0,valid_lose,181.05273300000044,16,,,,,,,,,,,sub_622,2024-09-16_11h04.14.012,Reversal,2023.1.3,59.92085653279865,2,
16,exp1.png,exp2.png,,1,0,1,0,0,16,16,16,,,,,,,,,,,,,,,,,,,,,,,,,False,36,37,True,exp2.png,exp1.png,trial_right_image,-1,exp1.png,2,exp1.png,exp2.png,1,1,non-reversed,correct,0.6250001423169246,1,valid_win,184.9856275000002,17,,,,,,,,,,,sub_622,2024-09-16_11h04.14.012,Reversal,2023.1.3,59.92085653279865,2,
17,exp3.png,exp4.png,,1,0,1,0,0,17,17,17,,,,,,,,,,,,,,,,,,,,,,,,,False,37,38,False,exp3.png,exp4.png,trial_left_image,1,exp3.png,2,exp3.png,exp4.png,1,3,reversed,correct,0.21051268549348734,0,invalid_lose,189.08412620000036,17,,,,,,,,,,,sub_622,2024-09-16_11h04.14.012,Reversal,2023.1.3,59.92085653279865,2,
18,exp1.png,exp2.png,,1,0,1,0,0,18,18,18,,,,,,,,,,,,,,,,,,,,,,,,,False,38,39,True,exp2.png,exp1.png,trial_left_image,1,exp2.png,2,exp1.png,exp2.png,0,2,non-reversed,incorrect,0.546272449748943,0,valid_lose,193.4157982000006,17,,,,,,,,,,,sub_622,2024-09-16_11h04.14.012,Reversal,2023.1.3,59.92085653279865,2,
19,exp3.png,exp4.png,,1,0,1,0,0,19,19,19,,,,,,,,,,,,,,,,,,,,,,,,,False,39,40,False,exp3.png,exp4.png,trial_left_image,1,exp3.png,2,exp3.png,exp4.png,1,3,reversed,correct,0.23489293435928804,0,invalid_lose,197.4802425000007,17,,,,,,,,,,,sub_622,2024-09-16_11h04.14.012,Reversal,2023.1.3,59.92085653279865,2,
20,exp1.png,exp2.png,,1,0,1,0,0,20,20,20,,,,,,,,,,,,,,,,,,,,,,,,,True,,,,,,,,,,,,,,,,,,,,,,,,,,,,,,,sub_622,2024-09-16_11h04.14.012,Reversal,2023.1.3,59.92085653279865,2,
,,,exp1.png,1,0,1,0,,,,,0,0,0,0,0,0,0,0,,,,,,,,,,,,,,,,,,,,,,,,,,,,,,,,,,,,,,275.5606874999994,None,None,[],,,,,,,sub_622,2024-09-16_11h04.14.012,Reversal,2023.1.3,59.92085653279865,2,
,,,exp2.png,1,0,1,0,,,,,0,0,0,0,0,1,1,1,,,,,,,,,,,,,,,,,,,,,,,,,,,,,,,,,,,,,,279.4299938999993,None,None,[],,,,,,,sub_622,2024-09-16_11h04.14.012,Reversal,2023.1.3,59.92085653279865,2,
,,,exp3.png,1,0,1,0,,,,,0,0,0,0,0,2,2,2,,,,,,,,,,,,,,,,,,,,,,,,,,,,,,,,,,,,,,281.13619819999985,None,None,[],,,,,,,sub_622,2024-09-16_11h04.14.012,Reversal,2023.1.3,59.92085653279865,2,
,,,exp4.png,1,0,1,0,,,,,0,0,0,0,0,3,3,3,,,,,,,,,,,,,,,,,,,,,,,,,,,,,,,,,,,,,,282.80984249999983,None,None,[],,,,,,,sub_622,2024-09-16_11h04.14.012,Reversal,2023.1.3,59.92085653279865,2,
0,exp1.png,exp2.png,,2,0,2,0,0,0,0,0,,,,,,,,,,,,,,,,,,,,,,,,,False,40,41,False,exp1.png,exp2.png,trial_left_image,1,exp1.png,2,exp1.png,exp2.png,1,1,non-reversed,correct,0.8843286469773737,1,valid_win,211.37551310000072,18,,,,,,,,,,,sub_622,2024-09-16_11h04.14.012,Reversal,2023.1.3,59.92085653279865,2,
1,exp3.png,exp4.png,,2,0,2,0,0,1,1,1,,,,,,,,,,,,,,,,,,,,,,,,,False,41,42,False,exp3.png,exp4.png,trial_right_image,-1,exp4.png,2,exp3.png,exp4.png,0,4,reversed,incorrect,0.2663201566206914,0,valid_lose,215.4422553000004,18,,,,,,,,,,,sub_622,2024-09-16_11h04.14.012,Reversal,2023.1.3,59.92085653279865,2,
2,exp1.png,exp2.png,,2,0,2,0,0,2,2,2,,,,,,,,,,,,,,,,,,,,,,,,,False,42,43,False,exp1.png,exp2.png,trial_right_image,-1,exp2.png,2,exp1.png,exp2.png,0,2,non-reversed,incorrect,0.016734084121475146,1,invalid_win,219.39167540000017,19,,,,,,,,,,,sub_622,2024-09-16_11h04.14.012,Reversal,2023.1.3,59.92085653279865,2,
3,exp3.png,exp4.png,,2,0,2,0,0,3,3,3,,,,,,,,,,,,,,,,,,,,,,,,,False,43,44,False,exp3.png,exp4.png,trial_right_image,-1,exp4.png,2,exp3.png,exp4.png,0,4,reversed,incorrect,0.38436484511187974,0,valid_lose,223.53963269999986,19,,,,,,,,,,,sub_622,2024-09-16_11h04.14.012,Reversal,2023.1.3,59.92085653279865,2,
4,exp1.png,exp2.png,,2,0,2,0,0,4,4,4,,,,,,,,,,,,,,,,,,,,,,,,,False,44,45,True,exp2.png,exp1.png,trial_right_image,-1,exp1.png,2,exp1.png,exp2.png,1,1,non-reversed,correct,0.9069423658061763,1,valid_win,227.50504660000024,20,,,,,,,,,,,sub_622,2024-09-16_11h04.14.012,Reversal,2023.1.3,59.92085653279865,2,
5,exp3.png,exp4.png,,2,0,2,0,0,5,5,5,,,,,,,,,,,,,,,,,,,,,,,,,False,45,46,False,exp3.png,exp4.png,trial_right_image,-1,exp4.png,2,exp3.png,exp4.png,0,4,reversed,incorrect,0.5787569021503977,0,valid_lose,231.5698108000006,20,,,,,,,,,,,sub_622,2024-09-16_11h04.14.012,Reversal,2023.1.3,59.92085653279865,2,
6,exp1.png,exp2.png,,2,0,2,0,0,6,6,6,,,,,,,,,,,,,,,,,,,,,,,,,False,46,47,True,exp2.png,exp1.png,trial_right_image,-1,exp1.png,2,exp1.png,exp2.png,1,1,non-reversed,correct,0.15809449921321195,0,invalid_lose,235.46805180000047,20,,,,,,,,,,,sub_622,2024-09-16_11h04.14.012,Reversal,2023.1.3,59.92085653279865,2,
7,exp3.png,exp4.png,,2,0,2,0,0,7,7,7,,,,,,,,,,,,,,,,,,,,,,,,,False,47,48,True,exp4.png,exp3.png,trial_right_image,-1,exp3.png,2,exp3.png,exp4.png,1,3,reversed,correct,0.2751776120637256,1,valid_win,239.3519894000001,21,,,,,,,,,,,sub_622,2024-09-16_11h04.14.012,Reversal,2023.1.3,59.92085653279865,2,
8,exp1.png,exp2.png,,2,0,2,0,0,8,8,8,,,,,,,,,,,,,,,,,,,,,,,,,False,48,49,True,exp2.png,exp1.png,trial_right_image,-1,exp1.png,2,exp1.png,exp2.png,1,1,non-reversed,correct,0.7392543783739844,1,valid_win,243.3497127999999,22,,,,,,,,,,,sub_622,2024-09-16_11h04.14.012,Reversal,2023.1.3,59.92085653279865,2,
9,exp3.png,exp4.png,,2,0,2,0,0,9,9,9,,,,,,,,,,,,,,,,,,,,,,,,,False,49,50,False,exp3.png,exp4.png,trial_right_image,-1,exp4.png,2,exp3.png,exp4.png,0,4,reversed,incorrect,0.9067647652102475,0,valid_lose,247.4152154000003,22,,,,,,,,,,,sub_622,2024-09-16_11h04.14.012,Reversal,2023.1.3,59.92085653279865,2,
10,exp1.png,exp2.png,,2,0,2,0,0,10,10,10,,,,,,,,,,,,,,,,,,,,,,,,,False,50,51,False,exp1.png,exp2.png,trial_left_image,1,exp1.png,2,exp1.png,exp2.png,1,1,non-reversed,correct,0.25396388069746845,1,valid_win,251.59751400000005,23,,,,,,,,,,,sub_622,2024-09-16_11h04.14.012,Reversal,2023.1.3,59.92085653279865,2,
11,exp3.png,exp4.png,,2,0,2,0,0,11,11,11,,,,,,,,,,,,,,,,,,,,,,,,,False,51,52,True,exp4.png,exp3.png,trial_left_image,1,exp4.png,2,exp3.png,exp4.png,0,4,reversed,incorrect,0.19507771221264836,1,invalid_win,255.64429850000033,24,,,,,,,,,,,sub_622,2024-09-16_11h04.14.012,Reversal,2023.1.3,59.92085653279865,2,
12,exp1.png,exp2.png,,2,0,2,0,0,12,12,12,,,,,,,,,,,,,,,,,,,,,,,,,False,52,53,True,exp2.png,exp1.png,trial_left_image,1,exp2.png,2,exp1.png,exp2.png,0,2,non-reversed,incorrect,0.20648883470625412,1,invalid_win,259.6277060000002,25,,,,,,,,,,,sub_622,2024-09-16_11h04.14.012,Reversal,2023.1.3,59.92085653279865,2,
13,exp3.png,exp4.png,,2,0,2,0,0,13,13,13,,,,,,,,,,,,,,,,,,,,,,,,,False,53,54,True,exp4.png,exp3.png,trial_left_image,1,exp4.png,2,exp3.png,exp4.png,0,4,reversed,incorrect,0.4431362973110049,0,valid_lose,263.6432668000007,25,,,,,,,,,,,sub_622,2024-09-16_11h04.14.012,Reversal,2023.1.3,59.92085653279865,2,
14,exp1.png,exp2.png,,2,0,2,0,0,14,14,14,,,,,,,,,,,,,,,,,,,,,,,,,False,54,55,True,exp2.png,exp1.png,trial_left_image,1,exp2.png,2,exp1.png,exp2.png,0,2,non-reversed,incorrect,0.1895647662729325,1,invalid_win,267.6079415000004,26,,,,,,,,,,,sub_622,2024-09-16_11h04.14.012,Reversal,2023.1.3,59.92085653279865,2,
15,exp3.png,exp4.png,,2,0,2,0,0,15,15,15,,,,,,,,,,,,,,,,,,,,,,,,,False,55,56,True,exp4.png,exp3.png,trial_right_image,-1,exp3.png,2,exp3.png,exp4.png,1,3,reversed,correct,0.06057967467949765,0,invalid_lose,271.45550300000014,26,,,,,,,,,,,sub_622,2024-09-16_11h04.14.012,Reversal,2023.1.3,59.92085653279865,2,
16,exp1.png,exp2.png,,2,0,2,0,0,16,16,16,,,,,,,,,,,,,,,,,,,,,,,,,False,56,57,True,exp2.png,exp1.png,trial_right_image,-1,exp1.png,2,exp1.png,exp2.png,1,1,non-reversed,correct,0.6568725735676696,1,valid_win,276.35410409999986,27,,,,,,,,,,,sub_622,2024-09-16_11h04.14.012,Reversal,2023.1.3,59.92085653279865,2,
17,exp3.png,exp4.png,,2,0,2,0,0,17,17,17,,,,,,,,,,,,,,,,,,,,,,,,,False,57,58,False,exp3.png,exp4.png,trial_right_image,-1,exp4.png,2,exp3.png,exp4.png,0,4,reversed,incorrect,0.9504069743587705,0,valid_lose,280.41859569999997,27,,,,,,,,,,,sub_622,2024-09-16_11h04.14.012,Reversal,2023.1.3,59.92085653279865,2,
18,exp1.png,exp2.png,,2,0,2,0,0,18,18,18,,,,,,,,,,,,,,,,,,,,,,,,,False,58,59,False,exp1.png,exp2.png,trial_right_image,-1,exp2.png,2,exp1.png,exp2.png,0,2,non-reversed,incorrect,0.5136584774740746,0,valid_lose,284.5194835000002,27,,,,,,,,,,,sub_622,2024-09-16_11h04.14.012,Reversal,2023.1.3,59.92085653279865,2,
19,exp3.png,exp4.png,,2,0,2,0,0,19,19,19,,,,,,,,,,,,,,,,,,,,,,,,,False,59,60,False,exp3.png,exp4.png,trial_right_image,-1,exp4.png,2,exp3.png,exp4.png,0,4,reversed,incorrect,0.8857373975424858,0,valid_lose,288.5332292000003,27,,,,,,,,,,,sub_622,2024-09-16_11h04.14.012,Reversal,2023.1.3,59.92085653279865,2,
20,exp1.png,exp2.png,,2,0,2,0,0,20,20,20,,,,,,,,,,,,,,,,,,,,,,,,,True,,,,,,,,,,,,,,,,,,,,,,,,,,,,,,,sub_622,2024-09-16_11h04.14.012,Reversal,2023.1.3,59.92085653279865,2,
,,,exp1.png,2,0,2,0,,,,,0,0,0,0,0,0,0,0,,,,,,,,,,,,,,,,,,,,,,,,,,,,,,,,,,,,,,366.64545839999937,None,None,[],,,,,,,sub_622,2024-09-16_11h04.14.012,Reversal,2023.1.3,59.92085653279865,2,
,,,exp2.png,2,0,2,0,,,,,0,0,0,0,0,1,1,1,,,,,,,,,,,,,,,,,,,,,,,,,,,,,,,,,,,,,,368.83728840000003,None,None,[],,,,,,,sub_622,2024-09-16_11h04.14.012,Reversal,2023.1.3,59.92085653279865,2,
,,,exp3.png,2,0,2,0,,,,,0,0,0,0,0,2,2,2,,,,,,,,,,,,,,,,,,,,,,,,,,,,,,,,,,,,,,370.32035779999933,None,None,[],,,,,,,sub_622,2024-09-16_11h04.14.012,Reversal,2023.1.3,59.92085653279865,2,
,,,exp4.png,2,0,2,0,,,,,0,0,0,0,0,3,3,3,,,,,,,,,,,,,,,,,,,,,,,,,,,,,,,,,,,,,,371.97155069999917,None,None,[],,,,,,,sub_622,2024-09-16_11h04.14.012,Reversal,2023.1.3,59.92085653279865,2,
0,exp1.png,exp2.png,,3,0,3,0,0,0,0,0,,,,,,,,,,,,,,,,,,,,,,,,,False,60,61,False,exp1.png,exp2.png,trial_right_image,-1,exp2.png,2,exp1.png,exp2.png,0,2,non-reversed,incorrect,0.6419375255182921,0,valid_lose,299.5978488999999,27,,,,,,,,,,,sub_622,2024-09-16_11h04.14.012,Reversal,2023.1.3,59.92085653279865,2,
1,exp3.png,exp4.png,,3,0,3,0,0,1,1,1,,,,,,,,,,,,,,,,,,,,,,,,,False,61,62,True,exp4.png,exp3.png,trial_right_image,-1,exp3.png,2,exp3.png,exp4.png,1,3,reversed,correct,0.6206438079835205,1,valid_win,303.4614242000007,28,,,,,,,,,,,sub_622,2024-09-16_11h04.14.012,Reversal,2023.1.3,59.92085653279865,2,
2,exp1.png,exp2.png,,3,0,3,0,0,2,2,2,,,,,,,,,,,,,,,,,,,,,,,,,False,62,63,True,exp2.png,exp1.png,trial_right_image,-1,exp1.png,2,exp1.png,exp2.png,1,1,non-reversed,correct,0.7831342224477821,1,valid_win,307.5111024000007,29,,,,,,,,,,,sub_622,2024-09-16_11h04.14.012,Reversal,2023.1.3,59.92085653279865,2,
3,exp3.png,exp4.png,,3,0,3,0,0,3,3,3,,,,,,,,,,,,,,,,,,,,,,,,,False,63,64,False,exp3.png,exp4.png,trial_right_image,-1,exp4.png,2,exp3.png,exp4.png,0,4,reversed,incorrect,0.23013074220991336,1,invalid_win,311.5769592000006,30,,,,,,,,,,,sub_622,2024-09-16_11h04.14.012,Reversal,2023.1.3,59.92085653279865,2,
4,exp1.png,exp2.png,,3,0,3,0,0,4,4,4,,,,,,,,,,,,,,,,,,,,,,,,,False,64,65,True,exp2.png,exp1.png,trial_right_image,-1,exp1.png,2,exp1.png,exp2.png,1,1,non-reversed,correct,0.8496316460919683,1,valid_win,315.4752120000003,31,,,,,,,,,,,sub_622,2024-09-16_11h04.14.012,Reversal,2023.1.3,59.92085653279865,2,
5,exp3.png,exp4.png,,3,0,3,0,0,5,5,5,,,,,,,,,,,,,,,,,,,,,,,,,False,65,66,False,exp3.png,exp4.png,trial_right_image,-1,exp4.png,2,exp3.png,exp4.png,0,4,reversed,incorrect,0.24789043832615665,1,invalid_win,319.4239881000003,32,,,,,,,,,,,sub_622,2024-09-16_11h04.14.012,Reversal,2023.1.3,59.92085653279865,2,
6,exp1.png,exp2.png,,3,0,3,0,0,6,6,6,,,,,,,,,,,,,,,,,,,,,,,,,False,66,67,False,exp1.png,exp2.png,trial_right_image,-1,exp2.png,2,exp1.png,exp2.png,0,2,non-reversed,incorrect,0.7337878726498894,0,valid_lose,323.70658710000043,32,,,,,,,,,,,sub_622,2024-09-16_11h04.14.012,Reversal,2023.1.3,59.92085653279865,2,
7,exp3.png,exp4.png,,3,0,3,0,0,7,7,7,,,,,,,,,,,,,,,,,,,,,,,,,False,67,68,True,exp4.png,exp3.png,trial_right_image,-1,exp3.png,2,exp3.png,exp4.png,1,3,reversed,correct,0.38917673688639676,1,valid_win,327.80396610000025,33,,,,,,,,,,,sub_622,2024-09-16_11h04.14.012,Reversal,2023.1.3,59.92085653279865,2,
8,exp1.png,exp2.png,,3,0,3,0,0,8,8,8,,,,,,,,,,,,,,,,,,,,,,,,,False,68,69,False,exp1.png,exp2.png,trial_left_image,1,exp1.png,2,exp1.png,exp2.png,1,1,non-reversed,correct,0.9674371166925185,1,valid_win,331.7192934000004,34,,,,,,,,,,,sub_622,2024-09-16_11h04.14.012,Reversal,2023.1.3,59.92085653279865,2,
9,exp3.png,exp4.png,,3,0,3,0,0,9,9,9,,,,,,,,,,,,,,,,,,,,,,,,,False,69,70,True,exp4.png,exp3.png,trial_left_image,1,exp4.png,2,exp3.png,exp4.png,0,4,reversed,incorrect,0.708641422793826,0,valid_lose,335.718605,34,,,,,,,,,,,sub_622,2024-09-16_11h04.14.012,Reversal,2023.1.3,59.92085653279865,2,
10,exp1.png,exp2.png,,3,0,3,0,0,10,10,10,,,,,,,,,,,,,,,,,,,,,,,,,False,70,71,True,exp2.png,exp1.png,trial_left_image,1,exp2.png,2,exp1.png,exp2.png,0,2,non-reversed,incorrect,0.3737646254487872,0,valid_lose,339.73331060000055,34,,,,,,,,,,,sub_622,2024-09-16_11h04.14.012,Reversal,2023.1.3,59.92085653279865,2,
11,exp3.png,exp4.png,,3,0,3,0,0,11,11,11,,,,,,,,,,,,,,,,,,,,,,,,,False,71,72,False,exp3.png,exp4.png,trial_left_image,1,exp3.png,2,exp3.png,exp4.png,1,3,reversed,correct,0.17359927118794904,0,invalid_lose,343.59822930000064,34,,,,,,,,,,,sub_622,2024-09-16_11h04.14.012,Reversal,2023.1.3,59.92085653279865,2,
12,exp1.png,exp2.png,,3,0,3,0,0,12,12,12,,,,,,,,,,,,,,,,,,,,,,,,,False,72,73,True,exp2.png,exp1.png,trial_left_image,1,exp2.png,2,exp1.png,exp2.png,0,2,non-reversed,incorrect,0.26089472798255064,0,valid_lose,347.6478640000005,34,,,,,,,,,,,sub_622,2024-09-16_11h04.14.012,Reversal,2023.1.3,59.92085653279865,2,
13,exp3.png,exp4.png,,3,0,3,0,0,13,13,13,,,,,,,,,,,,,,,,,,,,,,,,,False,73,74,True,exp4.png,exp3.png,trial_left_image,1,exp4.png,2,exp3.png,exp4.png,0,4,reversed,incorrect,0.7631601972930812,0,valid_lose,351.5469528000003,34,,,,,,,,,,,sub_622,2024-09-16_11h04.14.012,Reversal,2023.1.3,59.92085653279865,2,
14,exp1.png,exp2.png,,3,0,3,0,0,14,14,14,,,,,,,,,,,,,,,,,,,,,,,,,False,74,75,False,exp1.png,exp2.png,trial_left_image,1,exp1.png,2,exp1.png,exp2.png,1,1,non-reversed,correct,0.32965886297754066,1,valid_win,355.6447831000005,35,,,,,,,,,,,sub_622,2024-09-16_11h04.14.012,Reversal,2023.1.3,59.92085653279865,2,
15,exp3.png,exp4.png,,3,0,3,0,0,15,15,15,,,,,,,,,,,,,,,,,,,,,,,,,False,75,76,False,exp3.png,exp4.png,trial_right_image,-1,exp4.png,2,exp3.png,exp4.png,0,4,reversed,incorrect,0.599112799698657,0,valid_lose,359.74355019999985,35,,,,,,,,,,,sub_622,2024-09-16_11h04.14.012,Reversal,2023.1.3,59.92085653279865,2,
16,exp1.png,exp2.png,,3,0,3,0,0,16,16,16,,,,,,,,,,,,,,,,,,,,,,,,,False,76,77,True,exp2.png,exp1.png,trial_right_image,-1,exp1.png,2,exp1.png,exp2.png,1,1,non-reversed,correct,0.1357732023689261,0,invalid_lose,363.6089062000001,35,,,,,,,,,,,sub_622,2024-09-16_11h04.14.012,Reversal,2023.1.3,59.92085653279865,2,
17,exp3.png,exp4.png,,3,0,3,0,0,17,17,17,,,,,,,,,,,,,,,,,,,,,,,,,False,77,78,False,exp3.png,exp4.png,trial_right_image,-1,exp4.png,2,exp3.png,exp4.png,0,4,reversed,incorrect,0.9163859714124051,0,valid_lose,367.4402600000003,35,,,,,,,,,,,sub_622,2024-09-16_11h04.14.012,Reversal,2023.1.3,59.92085653279865,2,
18,exp1.png,exp2.png,,3,0,3,0,0,18,18,18,,,,,,,,,,,,,,,,,,,,,,,,,False,78,79,False,exp1.png,exp2.png,trial_right_image,-1,exp2.png,2,exp1.png,exp2.png,0,2,non-reversed,incorrect,0.7241579700835147,0,valid_lose,371.30520049999996,35,,,,,,,,,,,sub_622,2024-09-16_11h04.14.012,Reversal,2023.1.3,59.92085653279865,2,
19,exp3.png,exp4.png,,3,0,3,0,0,19,19,19,,,,,,,,,,,,,,,,,,,,,,,,,False,79,80,True,exp4.png,exp3.png,trial_right_image,-1,exp3.png,2,exp3.png,exp4.png,1,3,reversed,correct,0.44020007441458997,1,valid_win,375.13731370000005,36,,,,,,,,,,,sub_622,2024-09-16_11h04.14.012,Reversal,2023.1.3,59.92085653279865,2,
20,exp1.png,exp2.png,,3,0,3,0,0,20,20,20,,,,,,,,,,,,,,,,,,,,,,,,,True,,,,,,,,,,,,,,,,,,,,,,,,,,,,,,,sub_622,2024-09-16_11h04.14.012,Reversal,2023.1.3,59.92085653279865,2,
,,,exp1.png,3,0,3,0,,,,,0,0,0,0,0,0,0,0,,,,,,,,,,,,,,,,,,,,,,,,,,,,,,,,,,,,,,453.2174320999993,None,None,[],,,,,,,sub_622,2024-09-16_11h04.14.012,Reversal,2023.1.3,59.92085653279865,2,
,,,exp2.png,3,0,3,0,,,,,0,0,0,0,0,1,1,1,,,,,,,,,,,,,,,,,,,,,,,,,,,,,,,,,,,,,,455.3432583999993,None,None,[],,,,,,,sub_622,2024-09-16_11h04.14.012,Reversal,2023.1.3,59.92085653279865,2,
,,,exp3.png,3,0,3,0,,,,,0,0,0,0,0,2,2,2,,,,,,,,,,,,,,,,,,,,,,,,,,,,,,,,,,,,,,457.48329079999985,None,None,[],,,,,,,sub_622,2024-09-16_11h04.14.012,Reversal,2023.1.3,59.92085653279865,2,
,,,exp4.png,3,0,3,0,,,,,0,0,0,0,0,3,3,3,,,,,,,,,,,,,,,,,,,,,,,,,,,,,,,,,,,,,,459.1215274999995,None,None,[],,,,,,,sub_622,2024-09-16_11h04.14.012,Reversal,2023.1.3,59.92085653279865,2,
0,exp1.png,exp2.png,,,,,,,,,,,,,,,,,,0,0,0,0,0,0,0,0,,,,,,,,,False,0,81,False,exp1.png,exp2.png,trial_right_image,-1,exp2.png,2,exp1.png,exp2.png,0,2,non-reversed,incorrect,0.8979987505779974,0,valid_lose,386.51856099999986,36,,,,,385.00799370000004,,,,,,sub_622,2024-09-16_11h04.14.012,Reversal,2023.1.3,59.92085653279865,2,
1,exp3.png,exp4.png,,,,,,,,,,,,,,,,,,0,0,0,0,0,1,1,1,,,,,,,,,False,1,82,True,exp4.png,exp3.png,trial_right_image,-1,exp3.png,2,exp4.png,exp3.png,1,3,reversed,incorrect,0.031087030151614292,1,invalid_win,390.4988344000003,37,,,,,,,,,,,sub_622,2024-09-16_11h04.14.012,Reversal,2023.1.3,59.92085653279865,2,
2,exp1.png,exp2.png,,,,,,,,,,,,,,,,,,0,0,0,0,0,2,2,2,,,,,,,,,False,2,83,True,exp2.png,exp1.png,trial_right_image,-1,exp1.png,2,exp1.png,exp2.png,1,1,non-reversed,correct,0.7033461399841009,1,valid_win,394.33142080000016,38,,,,,,,,,,,sub_622,2024-09-16_11h04.14.012,Reversal,2023.1.3,59.92085653279865,2,
3,exp3.png,exp4.png,,,,,,,,,,,,,,,,,,0,0,0,0,0,3,3,3,,,,,,,,,False,3,84,False,exp3.png,exp4.png,trial_right_image,-1,exp4.png,2,exp4.png,exp3.png,0,4,reversed,correct,0.07888090981379703,0,invalid_lose,398.1792652000004,38,,,,,,,,,,,sub_622,2024-09-16_11h04.14.012,Reversal,2023.1.3,59.92085653279865,2,
4,exp1.png,exp2.png,,,,,,,,,,,,,,,,,,0,0,0,0,0,4,4,4,,,,,,,,,False,4,85,True,exp2.png,exp1.png,trial_right_image,-1,exp1.png,2,exp1.png,exp2.png,1,1,non-reversed,correct,0.5817218644639005,1,valid_win,402.1441478000006,39,,,,,,,,,,,sub_622,2024-09-16_11h04.14.012,Reversal,2023.1.3,59.92085653279865,2,
5,exp3.png,exp4.png,,,,,,,,,,,,,,,,,,0,0,0,0,0,5,5,5,,,,,,,,,False,5,86,False,exp3.png,exp4.png,trial_right_image,-1,exp4.png,2,exp4.png,exp3.png,0,4,reversed,correct,0.4123340005485435,1,valid_win,406.0275599000006,40,,,,,,,,,,,sub_622,2024-09-16_11h04.14.012,Reversal,2023.1.3,59.92085653279865,2,
6,exp1.png,exp2.png,,,,,,,,,,,,,,,,,,0,0,0,0,0,6,6,6,,,,,,,,,False,6,87,False,exp1.png,exp2.png,trial_left_image,1,exp1.png,2,exp1.png,exp2.png,1,1,non-reversed,correct,0.3553640806040843,1,valid_win,409.95904659999997,41,,,,,,,,,,,sub_622,2024-09-16_11h04.14.012,Reversal,2023.1.3,59.92085653279865,2,
7,exp3.png,exp4.png,,,,,,,,,,,,,,,,,,0,0,0,0,0,7,7,7,,,,,,,,,False,7,88,False,exp3.png,exp4.png,trial_left_image,1,exp3.png,2,exp4.png,exp3.png,1,3,reversed,incorrect,0.4327662149360282,0,valid_lose,413.8421537000004,41,,,,,,,,,,,sub_622,2024-09-16_11h04.14.012,Reversal,2023.1.3,59.92085653279865,2,
8,exp1.png,exp2.png,,,,,,,,,,,,,,,,,,0,0,0,0,0,8,8,8,,,,,,,,,False,8,89,False,exp1.png,exp2.png,trial_left_image,1,exp1.png,2,exp1.png,exp2.png,1,1,non-reversed,correct,0.044628878166315,0,invalid_lose,417.73943360000067,41,,,,,,,,,,,sub_622,2024-09-16_11h04.14.012,Reversal,2023.1.3,59.92085653279865,2,
9,exp3.png,exp4.png,,,,,,,,,,,,,,,,,,0,0,0,0,0,9,9,9,,,,,,,,,False,9,90,True,exp4.png,exp3.png,trial_left_image,1,exp4.png,2,exp4.png,exp3.png,0,4,reversed,correct,0.4434619254029155,1,valid_win,421.75659390000055,42,,,,,,,,,,,sub_622,2024-09-16_11h04.14.012,Reversal,2023.1.3,59.92085653279865,2,
10,exp1.png,exp2.png,,,,,,,,,,,,,,,,,,0,0,0,0,0,10,10,10,,,,,,,,,False,10,91,False,exp1.png,exp2.png,trial_left_image,1,exp1.png,2,exp1.png,exp2.png,1,1,non-reversed,correct,0.3827876479250144,1,valid_win,425.7369253000006,43,,,,,,,,,,,sub_622,2024-09-16_11h04.14.012,Reversal,2023.1.3,59.92085653279865,2,
11,exp3.png,exp4.png,,,,,,,,,,,,,,,,,,0,0,0,0,0,11,11,11,,,,,,,,,False,11,92,True,exp4.png,exp3.png,trial_left_image,1,exp4.png,2,exp4.png,exp3.png,0,4,reversed,correct,0.5234023525401065,1,valid_win,429.80299210000067,44,,,,,,,,,,,sub_622,2024-09-16_11h04.14.012,Reversal,2023.1.3,59.92085653279865,2,
12,exp1.png,exp2.png,,,,,,,,,,,,,,,,,,0,0,0,0,0,12,12,12,,,,,,,,,False,12,93,False,exp1.png,exp2.png,trial_left_image,1,exp1.png,2,exp1.png,exp2.png,1,1,non-reversed,correct,0.7692174761466649,1,valid_win,433.8841486000001,45,,,,,,,,,,,sub_622,2024-09-16_11h04.14.012,Reversal,2023.1.3,59.92085653279865,2,
13,exp3.png,exp4.png,,,,,,,,,,,,,,,,,,0,0,0,0,0,13,13,13,,,,,,,,,False,13,94,True,exp4.png,exp3.png,trial_left_image,1,exp4.png,2,exp4.png,exp3.png,0,4,reversed,correct,0.17725225936093536,0,invalid_lose,437.83416060000036,45,,,,,,,,,,,sub_622,2024-09-16_11h04.14.012,Reversal,2023.1.3,59.92085653279865,2,
14,exp1.png,exp2.png,,,,,,,,,,,,,,,,,,0,0,0,0,0,14,14,14,,,,,,,,,False,14,95,True,exp2.png,exp1.png,trial_left_image,1,exp2.png,2,exp1.png,exp2.png,0,2,non-reversed,incorrect,0.6065003932951917,0,valid_lose,441.83147869999993,45,,,,,,,,,,,sub_622,2024-09-16_11h04.14.012,Reversal,2023.1.3,59.92085653279865,2,
15,exp3.png,exp4.png,,,,,,,,,,,,,,,,,,0,0,0,0,0,15,15,15,,,,,,,,,False,15,96,False,exp3.png,exp4.png,trial_left_image,1,exp3.png,2,exp4.png,exp3.png,1,3,reversed,incorrect,0.5066877963539171,0,valid_lose,445.3967095000007,45,,,,,,,,,,,sub_622,2024-09-16_11h04.14.012,Reversal,2023.1.3,59.92085653279865,2,
16,exp1.png,exp2.png,,,,,,,,,,,,,,,,,,0,0,0,0,0,16,16,16,,,,,,,,,False,16,97,False,exp1.png,exp2.png,trial_left_image,1,exp1.png,2,exp1.png,exp2.png,1,1,non-reversed,correct,0.10951296654182363,0,invalid_lose,449.46289250000063,45,,,,,,,,,,,sub_622,2024-09-16_11h04.14.012,Reversal,2023.1.3,59.92085653279865,2,
17,exp3.png,exp4.png,,,,,,,,,,,,,,,,,,0,0,0,0,0,17,17,17,,,,,,,,,False,17,98,True,exp4.png,exp3.png,trial_left_image,1,exp4.png,2,exp4.png,exp3.png,0,4,reversed,correct,0.3744101707020816,1,valid_win,453.4947594000005,46,,,,,,,,,,,sub_622,2024-09-16_11h04.14.012,Reversal,2023.1.3,59.92085653279865,2,
18,exp1.png,exp2.png,,,,,,,,,,,,,,,,,,0,0,0,0,0,18,18,18,,,,,,,,,False,18,99,True,exp2.png,exp1.png,trial_left_image,1,exp2.png,2,exp1.png,exp2.png,0,2,non-reversed,incorrect,0.9653443758800911,0,valid_lose,457.45964189999995,46,,,,,,,,,,,sub_622,2024-09-16_11h04.14.012,Reversal,2023.1.3,59.92085653279865,2,
19,exp3.png,exp4.png,,,,,,,,,,,,,,,,,,0,0,0,0,0,19,19,19,,,,,,,,,False,19,100,True,exp4.png,exp3.png,trial_left_image,1,exp4.png,2,exp4.png,exp3.png,0,4,reversed,correct,0.2714002720862688,1,valid_win,461.42479230000026,47,,,,,,,,,,,sub_622,2024-09-16_11h04.14.012,Reversal,2023.1.3,59.92085653279865,2,
20,exp1.png,exp2.png,,,,,,,,,,,,,,,,,,0,0,0,0,0,20,20,20,,,,,,,,,True,,,,,,,,,,,,,,,,,,,,,,,,,,,,,,,sub_622,2024-09-16_11h04.14.012,Reversal,2023.1.3,59.92085653279865,2,
,,,exp1.png,,,,,,,,,,,,,,,,,0,0,0,0,,,,,0,0,0,0,0,0,0,0,,,,,,,,,,,,,,,,,,,,,,539.5057804999997,None,None,[],,,,,,,sub_622,2024-09-16_11h04.14.012,Reversal,2023.1.3,59.92085653279865,2,
,,,exp2.png,,,,,,,,,,,,,,,,,0,0,0,0,,,,,0,0,0,0,0,1,1,1,,,,,,,,,,,,,,,,,,,,,,541.9209482999995,None,None,[],,,,,,,sub_622,2024-09-16_11h04.14.012,Reversal,2023.1.3,59.92085653279865,2,
,,,exp3.png,,,,,,,,,,,,,,,,,0,0,0,0,,,,,0,0,0,0,0,2,2,2,,,,,,,,,,,,,,,,,,,,,,543.1698809999998,None,None,[],,,,,,,sub_622,2024-09-16_11h04.14.012,Reversal,2023.1.3,59.92085653279865,2,
,,,exp4.png,,,,,,,,,,,,,,,,,0,0,0,0,,,,,0,0,0,0,0,3,3,3,,,,,,,,,,,,,,,,,,,,,,544.3492823999995,None,None,[],,,,,,,sub_622,2024-09-16_11h04.14.012,Reversal,2023.1.3,59.92085653279865,2,
0,exp1.png,exp2.png,,,,,,,,,,,,,,,,,,1,0,1,0,0,0,0,0,,,,,,,,,False,20,101,False,exp1.png,exp2.png,trial_right_image,-1,exp2.png,2,exp1.png,exp2.png,0,2,non-reversed,incorrect,0.23206176342077567,1,invalid_win,472.25572550000015,48,,,,,,,,,,,sub_622,2024-09-16_11h04.14.012,Reversal,2023.1.3,59.92085653279865,2,
1,exp3.png,exp4.png,,,,,,,,,,,,,,,,,,1,0,1,0,0,1,1,1,,,,,,,,,False,21,102,False,exp3.png,exp4.png,trial_right_image,-1,exp4.png,2,exp4.png,exp3.png,0,4,reversed,correct,0.05323982585652187,0,invalid_lose,476.13667930000065,48,,,,,,,,,,,sub_622,2024-09-16_11h04.14.012,Reversal,2023.1.3,59.92085653279865,2,
2,exp1.png,exp2.png,,,,,,,,,,,,,,,,,,1,0,1,0,0,2,2,2,,,,,,,,,False,22,103,True,exp2.png,exp1.png,trial_left_image,1,exp2.png,2,exp1.png,exp2.png,0,2,non-reversed,incorrect,0.582457379048837,0,valid_lose,480.1193573999999,48,,,,,,,,,,,sub_622,2024-09-16_11h04.14.012,Reversal,2023.1.3,59.92085653279865,2,
3,exp3.png,exp4.png,,,,,,,,,,,,,,,,,,1,0,1,0,0,3,3,3,,,,,,,,,False,23,104,True,exp4.png,exp3.png,trial_left_image,1,exp4.png,2,exp4.png,exp3.png,0,4,reversed,correct,0.3142355685046182,1,valid_win,484.1169103000002,49,,,,,,,,,,,sub_622,2024-09-16_11h04.14.012,Reversal,2023.1.3,59.92085653279865,2,
4,exp1.png,exp2.png,,,,,,,,,,,,,,,,,,1,0,1,0,0,4,4,4,,,,,,,,,False,24,105,False,exp1.png,exp2.png,trial_left_image,1,exp1.png,2,exp1.png,exp2.png,1,1,non-reversed,correct,0.9306911264763291,1,valid_win,488.14900750000015,50,,,,,,,,,,,sub_622,2024-09-16_11h04.14.012,Reversal,2023.1.3,59.92085653279865,2,
5,exp3.png,exp4.png,,,,,,,,,,,,,,,,,,1,0,1,0,0,5,5,5,,,,,,,,,False,25,106,False,exp3.png,exp4.png,trial_left_image,1,exp3.png,2,exp4.png,exp3.png,1,3,reversed,incorrect,0.8934662446861379,0,valid_lose,492.1985383000001,50,,,,,,,,,,,sub_622,2024-09-16_11h04.14.012,Reversal,2023.1.3,59.92085653279865,2,
6,exp1.png,exp2.png,,,,,,,,,,,,,,,,,,1,0,1,0,0,6,6,6,,,,,,,,,False,26,107,True,exp2.png,exp1.png,trial_left_image,1,exp2.png,2,exp1.png,exp2.png,0,2,non-reversed,incorrect,0.3668861794526146,0,valid_lose,496.08079760000055,50,,,,,,,,,,,sub_622,2024-09-16_11h04.14.012,Reversal,2023.1.3,59.92085653279865,2,
7,exp3.png,exp4.png,,,,,,,,,,,,,,,,,,1,0,1,0,0,7,7,7,,,,,,,,,False,27,108,False,exp3.png,exp4.png,trial_left_image,1,exp3.png,2,exp4.png,exp3.png,1,3,reversed,incorrect,0.14889045916745747,1,invalid_win,499.97944430000007,51,,,,,,,,,,,sub_622,2024-09-16_11h04.14.012,Reversal,2023.1.3,59.92085653279865,2,
8,exp1.png,exp2.png,,,,,,,,,,,,,,,,,,1,0,1,0,0,8,8,8,,,,,,,,,False,28,109,True,exp2.png,exp1.png,trial_left_image,1,exp2.png,2,exp1.png,exp2.png,0,2,non-reversed,incorrect,0.2769513817572594,0,valid_lose,503.91098039999997,51,,,,,,,,,,,sub_622,2024-09-16_11h04.14.012,Reversal,2023.1.3,59.92085653279865,2,
9,exp3.png,exp4.png,,,,,,,,,,,,,,,,,,1,0,1,0,0,9,9,9,,,,,,,,,False,29,110,True,exp4.png,exp3.png,trial_left_image,1,exp4.png,2,exp4.png,exp3.png,0,4,reversed,correct,0.3520285723542038,1,valid_win,507.79368260000047,52,,,,,,,,,,,sub_622,2024-09-16_11h04.14.012,Reversal,2023.1.3,59.92085653279865,2,
10,exp1.png,exp2.png,,,,,,,,,,,,,,,,,,1,0,1,0,0,10,10,10,,,,,,,,,False,30,111,False,exp1.png,exp2.png,trial_left_image,1,exp1.png,2,exp1.png,exp2.png,1,1,non-reversed,correct,0.15486967843015476,0,invalid_lose,511.8082860000004,52,,,,,,,,,,,sub_622,2024-09-16_11h04.14.012,Reversal,2023.1.3,59.92085653279865,2,
11,exp3.png,exp4.png,,,,,,,,,,,,,,,,,,1,0,1,0,0,11,11,11,,,,,,,,,False,31,112,True,exp4.png,exp3.png,trial_left_image,1,exp4.png,2,exp4.png,exp3.png,0,4,reversed,correct,0.29810945901354435,1,valid_win,515.8555381000006,53,,,,,,,,,,,sub_622,2024-09-16_11h04.14.012,Reversal,2023.1.3,59.92085653279865,2,
12,exp1.png,exp2.png,,,,,,,,,,,,,,,,,,1,0,1,0,0,12,12,12,,,,,,,,,False,32,113,True,exp2.png,exp1.png,trial_left_image,1,exp2.png,2,exp1.png,exp2.png,0,2,non-reversed,incorrect,0.9148772383893718,0,valid_lose,519.9394093000001,53,,,,,,,,,,,sub_622,2024-09-16_11h04.14.012,Reversal,2023.1.3,59.92085653279865,2,
13,exp3.png,exp4.png,,,,,,,,,,,,,,,,,,1,0,1,0,0,13,13,13,,,,,,,,,False,33,114,False,exp3.png,exp4.png,trial_left_image,1,exp3.png,2,exp4.png,exp3.png,1,3,reversed,incorrect,0.10186088760129819,1,invalid_win,523.7696845,54,,,,,,,,,,,sub_622,2024-09-16_11h04.14.012,Reversal,2023.1.3,59.92085653279865,2,
14,exp1.png,exp2.png,,,,,,,,,,,,,,,,,,1,0,1,0,0,14,14,14,,,,,,,,,False,34,115,True,exp2.png,exp1.png,trial_left_image,1,exp2.png,2,exp1.png,exp2.png,0,2,non-reversed,incorrect,0.34137387806475716,0,valid_lose,527.8035091000002,54,,,,,,,,,,,sub_622,2024-09-16_11h04.14.012,Reversal,2023.1.3,59.92085653279865,2,
15,exp3.png,exp4.png,,,,,,,,,,,,,,,,,,1,0,1,0,0,15,15,15,,,,,,,,,False,35,116,False,exp3.png,exp4.png,trial_left_image,1,exp3.png,2,exp4.png,exp3.png,1,3,reversed,incorrect,0.6753144650849885,0,valid_lose,531.8360280000006,54,,,,,,,,,,,sub_622,2024-09-16_11h04.14.012,Reversal,2023.1.3,59.92085653279865,2,
16,exp1.png,exp2.png,,,,,,,,,,,,,,,,,,1,0,1,0,0,16,16,16,,,,,,,,,False,36,117,False,exp1.png,exp2.png,trial_left_image,1,exp1.png,2,exp1.png,exp2.png,1,1,non-reversed,correct,0.10562637002832553,0,invalid_lose,535.6824112000004,54,,,,,,,,,,,sub_622,2024-09-16_11h04.14.012,Reversal,2023.1.3,59.92085653279865,2,
17,exp3.png,exp4.png,,,,,,,,,,,,,,,,,,1,0,1,0,0,17,17,17,,,,,,,,,False,37,118,True,exp4.png,exp3.png,trial_left_image,1,exp4.png,2,exp4.png,exp3.png,0,4,reversed,correct,0.5065969858169505,1,valid_win,539.665590300001,55,,,,,,,,,,,sub_622,2024-09-16_11h04.14.012,Reversal,2023.1.3,59.92085653279865,2,
18,exp1.png,exp2.png,,,,,,,,,,,,,,,,,,1,0,1,0,0,18,18,18,,,,,,,,,False,38,119,False,exp1.png,exp2.png,trial_right_image,-1,exp2.png,2,exp1.png,exp2.png,0,2,non-reversed,incorrect,0.28330427528508895,0,valid_lose,543.8145339000002,55,,,,,,,,,,,sub_622,2024-09-16_11h04.14.012,Reversal,2023.1.3,59.92085653279865,2,
19,exp3.png,exp4.png,,,,,,,,,,,,,,,,,,1,0,1,0,0,19,19,19,,,,,,,,,False,39,120,True,exp4.png,exp3.png,trial_right_image,-1,exp3.png,2,exp4.png,exp3.png,1,3,reversed,incorrect,0.10553252533470436,1,invalid_win,547.9463943999999,56,,,,,,,,,,,sub_622,2024-09-16_11h04.14.012,Reversal,2023.1.3,59.92085653279865,2,
20,exp1.png,exp2.png,,,,,,,,,,,,,,,,,,1,0,1,0,0,20,20,20,,,,,,,,,True,,,,,,,,,,,,,,,,,,,,,,,,,,,,,,,sub_622,2024-09-16_11h04.14.012,Reversal,2023.1.3,59.92085653279865,2,
,,,exp1.png,,,,,,,,,,,,,,,,,1,0,1,0,,,,,0,0,0,0,0,0,0,0,,,,,,,,,,,,,,,,,,,,,,626.0280991999998,None,None,[],,,,,,,sub_622,2024-09-16_11h04.14.012,Reversal,2023.1.3,59.92085653279865,2,
,,,exp2.png,,,,,,,,,,,,,,,,,1,0,1,0,,,,,0,0,0,0,0,1,1,1,,,,,,,,,,,,,,,,,,,,,,628.0010646000001,None,None,[],,,,,,,sub_622,2024-09-16_11h04.14.012,Reversal,2023.1.3,59.92085653279865,2,
,,,exp3.png,,,,,,,,,,,,,,,,,1,0,1,0,,,,,0,0,0,0,0,2,2,2,,,,,,,,,,,,,,,,,,,,,,629.3734022999988,None,None,[],,,,,,,sub_622,2024-09-16_11h04.14.012,Reversal,2023.1.3,59.92085653279865,2,
,,,exp4.png,,,,,,,,,,,,,,,,,1,0,1,0,,,,,0,0,0,0,0,3,3,3,,,,,,,,,,,,,,,,,,,,,,630.4074386000002,None,None,[],,,,,,,sub_622,2024-09-16_11h04.14.012,Reversal,2023.1.3,59.92085653279865,2,
0,exp1.png,exp2.png,,,,,,,,,,,,,,,,,,2,0,2,0,0,0,0,0,,,,,,,,,False,40,121,True,exp2.png,exp1.png,trial_right_image,-1,exp1.png,2,exp1.png,exp2.png,1,1,non-reversed,correct,0.05556752615991056,0,invalid_lose,557.8594436000003,56,,,,,,,,,,,sub_622,2024-09-16_11h04.14.012,Reversal,2023.1.3,59.92085653279865,2,
1,exp3.png,exp4.png,,,,,,,,,,,,,,,,,,2,0,2,0,0,1,1,1,,,,,,,,,False,41,122,False,exp3.png,exp4.png,trial_right_image,-1,exp4.png,2,exp4.png,exp3.png,0,4,reversed,correct,0.873915985945924,1,valid_win,562.0408542000005,57,,,,,,,,,,,sub_622,2024-09-16_11h04.14.012,Reversal,2023.1.3,59.92085653279865,2,
2,exp1.png,exp2.png,,,,,,,,,,,,,,,,,,2,0,2,0,0,2,2,2,,,,,,,,,False,42,123,False,exp1.png,exp2.png,trial_right_image,-1,exp2.png,2,exp1.png,exp2.png,0,2,non-reversed,incorrect,0.14334700792810695,1,invalid_win,566.2890219000001,58,,,,,,,,,,,sub_622,2024-09-16_11h04.14.012,Reversal,2023.1.3,59.92085653279865,2,
3,exp3.png,exp4.png,,,,,,,,,,,,,,,,,,2,0,2,0,0,3,3,3,,,,,,,,,False,43,124,True,exp4.png,exp3.png,trial_left_image,1,exp4.png,2,exp4.png,exp3.png,0,4,reversed,correct,0.6165946937465223,1,valid_win,570.272135700001,59,,,,,,,,,,,sub_622,2024-09-16_11h04.14.012,Reversal,2023.1.3,59.92085653279865,2,
4,exp1.png,exp2.png,,,,,,,,,,,,,,,,,,2,0,2,0,0,4,4,4,,,,,,,,,False,44,125,True,exp2.png,exp1.png,trial_left_image,1,exp2.png,2,exp1.png,exp2.png,0,2,non-reversed,incorrect,0.9088813745016383,0,valid_lose,574.1529568000005,59,,,,,,,,,,,sub_622,2024-09-16_11h04.14.012,Reversal,2023.1.3,59.92085653279865,2,
5,exp3.png,exp4.png,,,,,,,,,,,,,,,,,,2,0,2,0,0,5,5,5,,,,,,,,,False,45,126,False,exp3.png,exp4.png,trial_left_image,1,exp3.png,2,exp4.png,exp3.png,1,3,reversed,incorrect,0.6402696534941424,0,valid_lose,578.0527129000002,59,,,,,,,,,,,sub_622,2024-09-16_11h04.14.012,Reversal,2023.1.3,59.92085653279865,2,
6,exp1.png,exp2.png,,,,,,,,,,,,,,,,,,2,0,2,0,0,6,6,6,,,,,,,,,False,46,127,False,exp1.png,exp2.png,trial_left_image,1,exp1.png,2,exp1.png,exp2.png,1,1,non-reversed,correct,0.7524930108309252,1,valid_win,582.1331941000008,60,,,,,,,,,,,sub_622,2024-09-16_11h04.14.012,Reversal,2023.1.3,59.92085653279865,2,
7,exp3.png,exp4.png,,,,,,,,,,,,,,,,,,2,0,2,0,0,7,7,7,,,,,,,,,False,47,128,True,exp4.png,exp3.png,trial_left_image,1,exp4.png,2,exp4.png,exp3.png,0,4,reversed,correct,0.01825612673070154,0,invalid_lose,586.1164671000006,60,,,,,,,,,,,sub_622,2024-09-16_11h04.14.012,Reversal,2023.1.3,59.92085653279865,2,
8,exp1.png,exp2.png,,,,,,,,,,,,,,,,,,2,0,2,0,0,8,8,8,,,,,,,,,False,48,129,True,exp2.png,exp1.png,trial_left_image,1,exp2.png,2,exp1.png,exp2.png,0,2,non-reversed,incorrect,0.23300697523562197,1,invalid_win,590.0815187999997,61,,,,,,,,,,,sub_622,2024-09-16_11h04.14.012,Reversal,2023.1.3,59.92085653279865,2,
9,exp3.png,exp4.png,,,,,,,,,,,,,,,,,,2,0,2,0,0,9,9,9,,,,,,,,,False,49,130,False,exp3.png,exp4.png,trial_left_image,1,exp3.png,2,exp4.png,exp3.png,1,3,reversed,incorrect,0.7700576068713402,0,valid_lose,594.1300945000003,61,,,,,,,,,,,sub_622,2024-09-16_11h04.14.012,Reversal,2023.1.3,59.92085653279865,2,
10,exp1.png,exp2.png,,,,,,,,,,,,,,,,,,2,0,2,0,0,10,10,10,,,,,,,,,False,50,131,True,exp2.png,exp1.png,trial_left_image,1,exp2.png,2,exp1.png,exp2.png,0,2,non-reversed,incorrect,0.1409587826778661,1,invalid_win,598.0611686000011,62,,,,,,,,,,,sub_622,2024-09-16_11h04.14.012,Reversal,2023.1.3,59.92085653279865,2,
11,exp3.png,exp4.png,,,,,,,,,,,,,,,,,,2,0,2,0,0,11,11,11,,,,,,,,,False,51,132,True,exp4.png,exp3.png,trial_left_image,1,exp4.png,2,exp4.png,exp3.png,0,4,reversed,correct,0.7620483974176259,1,valid_win,602.1281465000011,63,,,,,,,,,,,sub_622,2024-09-16_11h04.14.012,Reversal,2023.1.3,59.92085653279865,2,
12,exp1.png,exp2.png,,,,,,,,,,,,,,,,,,2,0,2,0,0,12,12,12,,,,,,,,,False,52,133,True,exp2.png,exp1.png,trial_left_image,1,exp2.png,2,exp1.png,exp2.png,0,2,non-reversed,incorrect,0.432651280750028,0,valid_lose,606.0749608000006,63,,,,,,,,,,,sub_622,2024-09-16_11h04.14.012,Reversal,2023.1.3,59.92085653279865,2,
13,exp3.png,exp4.png,,,,,,,,,,,,,,,,,,2,0,2,0,0,13,13,13,,,,,,,,,False,53,134,False,exp3.png,exp4.png,trial_left_image,1,exp3.png,2,exp4.png,exp3.png,1,3,reversed,incorrect,0.7853696407748157,0,valid_lose,610.0260077000003,63,,,,,,,,,,,sub_622,2024-09-16_11h04.14.012,Reversal,2023.1.3,59.92085653279865,2,
14,exp1.png,exp2.png,,,,,,,,,,,,,,,,,,2,0,2,0,0,14,14,14,,,,,,,,,False,54,135,True,exp2.png,exp1.png,trial_left_image,1,exp2.png,2,exp1.png,exp2.png,0,2,non-reversed,incorrect,0.8309671171408759,0,valid_lose,614.1893206000004,63,,,,,,,,,,,sub_622,2024-09-16_11h04.14.012,Reversal,2023.1.3,59.92085653279865,2,
15,exp3.png,exp4.png,,,,,,,,,,,,,,,,,,2,0,2,0,0,15,15,15,,,,,,,,,False,55,136,True,exp4.png,exp3.png,trial_left_image,1,exp4.png,2,exp4.png,exp3.png,0,4,reversed,correct,0.931263181066931,1,valid_win,618.1204257999998,64,,,,,,,,,,,sub_622,2024-09-16_11h04.14.012,Reversal,2023.1.3,59.92085653279865,2,
16,exp1.png,exp2.png,,,,,,,,,,,,,,,,,,2,0,2,0,0,16,16,16,,,,,,,,,False,56,137,False,exp1.png,exp2.png,trial_left_image,1,exp1.png,2,exp1.png,exp2.png,1,1,non-reversed,correct,0.3423229165523427,1,valid_win,622.0043618,65,,,,,,,,,,,sub_622,2024-09-16_11h04.14.012,Reversal,2023.1.3,59.92085653279865,2,
17,exp3.png,exp4.png,,,,,,,,,,,,,,,,,,2,0,2,0,0,17,17,17,,,,,,,,,False,57,138,False,exp3.png,exp4.png,trial_left_image,1,exp3.png,2,exp4.png,exp3.png,1,3,reversed,incorrect,0.8121166488678342,0,valid_lose,625.8529469000005,65,,,,,,,,,,,sub_622,2024-09-16_11h04.14.012,Reversal,2023.1.3,59.92085653279865,2,
18,exp1.png,exp2.png,,,,,,,,,,,,,,,,,,2,0,2,0,0,18,18,18,,,,,,,,,False,58,139,False,exp1.png,exp2.png,trial_left_image,1,exp1.png,2,exp1.png,exp2.png,1,1,non-reversed,correct,0.3810114029008952,1,valid_win,629.8180929000009,66,,,,,,,,,,,sub_622,2024-09-16_11h04.14.012,Reversal,2023.1.3,59.92085653279865,2,
19,exp3.png,exp4.png,,,,,,,,,,,,,,,,,,2,0,2,0,0,19,19,19,,,,,,,,,False,59,140,False,exp3.png,exp4.png,trial_left_image,1,exp3.png,2,exp4.png,exp3.png,1,3,reversed,incorrect,0.5703672066106815,0,valid_lose,633.7674127999999,66,,,,,,,,,,,sub_622,2024-09-16_11h04.14.012,Reversal,2023.1.3,59.92085653279865,2,
20,exp1.png,exp2.png,,,,,,,,,,,,,,,,,,2,0,2,0,0,20,20,20,,,,,,,,,True,,,,,,,,,,,,,,,,,,,,,,,,,,,,,,,sub_622,2024-09-16_11h04.14.012,Reversal,2023.1.3,59.92085653279865,2,
,,,exp1.png,,,,,,,,,,,,,,,,,2,0,2,0,,,,,0,0,0,0,0,0,0,0,,,,,,,,,,,,,,,,,,,,,,711.8646605999993,None,None,[],,,,,,,sub_622,2024-09-16_11h04.14.012,Reversal,2023.1.3,59.92085653279865,2,
,,,exp2.png,,,,,,,,,,,,,,,,,2,0,2,0,,,,,0,0,0,0,0,1,1,1,,,,,,,,,,,,,,,,,,,,,,713.8862651999998,None,None,[],,,,,,,sub_622,2024-09-16_11h04.14.012,Reversal,2023.1.3,59.92085653279865,2,
,,,exp3.png,,,,,,,,,,,,,,,,,2,0,2,0,,,,,0,0,0,0,0,2,2,2,,,,,,,,,,,,,,,,,,,,,,715.0630075999989,None,None,[],,,,,,,sub_622,2024-09-16_11h04.14.012,Reversal,2023.1.3,59.92085653279865,2,
,,,exp4.png,,,,,,,,,,,,,,,,,2,0,2,0,,,,,0,0,0,0,0,3,3,3,,,,,,,,,,,,,,,,,,,,,,716.1005572999993,None,None,[],,,,,,,sub_622,2024-09-16_11h04.14.012,Reversal,2023.1.3,59.92085653279865,2,
,,,,,,,,,,,,,,,,,,,,,,,,,,,,,,,,,,,,,,,,,,,,,,,,,,,,,,,,66,,,,,,68,37,31,256.5933606999997,1,,,,,,,
