trial_index,trial_image1_file,trial_image2_file,image_file,learning_outer_loop.thisRepN,learning_outer_loop.thisTrialN,learning_outer_loop.thisN,learning_outer_loop.thisIndex,learning_inner_loop.thisRepN,learning_inner_loop.thisTrialN,learning_inner_loop.thisN,learning_inner_loop.thisIndex,learning_estimation_outer_loop.thisRepN,learning_estimation_outer_loop.thisTrialN,learning_estimation_outer_loop.thisN,learning_estimation_outer_loop.thisIndex,learning_estimation_inner_loop.thisRepN,learning_estimation_inner_loop.thisTrialN,learning_estimation_inner_loop.thisN,learning_estimation_inner_loop.thisIndex,reversal_outer_loop.thisRepN,reversal_outer_loop.thisTrialN,reversal_outer_loop.thisN,reversal_outer_loop.thisIndex,reversal_inner_loop.thisRepN,reversal_inner_loop.thisTrialN,reversal_inner_loop.thisN,reversal_inner_loop.thisIndex,reversal_estimation_outer_loop.thisRepN,reversal_estimation_outer_loop.thisTrialN,reversal_estimation_outer_loop.thisN,reversal_estimation_outer_loop.thisIndex,reversal_estimation_inner_loop.thisRepN,reversal_estimation_inner_loop.thisTrialN,reversal_estimation_inner_loop.thisN,reversal_estimation_inner_loop.thisIndex,skipped,total_trial_counter,trial_num,left_right_flip,left_image_file,right_image_file,clicked_stimulus_side,side,clicked_stimulus,version,high_prob_image_file,low_prob_image_file,choice_a,choice_b,pair_type,correct,trial_feedback_random,reward,trial_type,overall_time_after_trial,score,estimation_exp1.png,estimation_rating.response,estimation_rating.rt,estimation_rating.history,estimation_rating.started,estimation_rating.stopped,estimation_exp2.png,estimation_exp3.png,estimation_exp4.png,total_learning_time,total_correct,learning_correct,reversal_correct,total_reversal_time,extra_block,participant,date,expName,psychopyVersion,frameRate,ver,
0,exp1.png,exp2.png,,0,0,0,0,0,0,0,0,,,,,,,,,,,,,,,,,,,,,,,,,True,,,,,,,,,,,,,,,,,,,,,,,,,,,,,,,,,,,,sub_1557,2025-02-26_14h22.44.231,Reversal,2022.1.2,59.875399335011366,1,
1,exp3.png,exp4.png,,0,0,0,0,0,1,1,1,,,,,,,,,,,,,,,,,,,,,,,,,False,0,1,True,exp4.png,exp3.png,trial_left_image,1,exp4.png,1,exp3.png,exp4.png,0,2,non-reversed,incorrect,0.0665410187346489,1,invalid_win,5.882821999490261,1,,,,,,,,,,,,,,,,sub_1557,2025-02-26_14h22.44.231,Reversal,2022.1.2,59.875399335011366,1,
2,exp1.png,exp2.png,,0,0,0,0,0,2,2,2,,,,,,,,,,,,,,,,,,,,,,,,,False,1,2,False,exp1.png,exp2.png,trial_left_image,1,exp1.png,1,exp1.png,exp2.png,1,3,reversed,correct,0.4393202896592897,1,valid_win,11.866251999512315,2,,,,,,,,,,,,,,,,sub_1557,2025-02-26_14h22.44.231,Reversal,2022.1.2,59.875399335011366,1,
3,exp3.png,exp4.png,,0,0,0,0,0,3,3,3,,,,,,,,,,,,,,,,,,,,,,,,,False,2,3,False,exp3.png,exp4.png,trial_right_image,-1,exp4.png,1,exp3.png,exp4.png,0,2,non-reversed,incorrect,0.4026905773224121,0,valid_lose,17.616805600002408,2,,,,,,,,,,,,,,,,sub_1557,2025-02-26_14h22.44.231,Reversal,2022.1.2,59.875399335011366,1,
4,exp1.png,exp2.png,,0,0,0,0,0,4,4,4,,,,,,,,,,,,,,,,,,,,,,,,,False,3,4,True,exp2.png,exp1.png,trial_right_image,-1,exp1.png,1,exp1.png,exp2.png,1,3,reversed,correct,0.6632392534193027,1,valid_win,45.49899519979954,3,,,,,,,,,,,,,,,,sub_1557,2025-02-26_14h22.44.231,Reversal,2022.1.2,59.875399335011366,1,
5,exp3.png,exp4.png,,0,0,0,0,0,5,5,5,,,,,,,,,,,,,,,,,,,,,,,,,False,4,5,False,exp3.png,exp4.png,trial_right_image,-1,exp4.png,1,exp3.png,exp4.png,0,2,non-reversed,incorrect,0.22677548279022464,1,invalid_win,53.11555389966816,4,,,,,,,,,,,,,,,,sub_1557,2025-02-26_14h22.44.231,Reversal,2022.1.2,59.875399335011366,1,
6,exp1.png,exp2.png,,0,0,0,0,0,6,6,6,,,,,,,,,,,,,,,,,,,,,,,,,False,5,6,True,exp2.png,exp1.png,trial_left_image,1,exp2.png,1,exp1.png,exp2.png,0,4,reversed,incorrect,0.8000331359565244,0,valid_lose,57.8149741999805,4,,,,,,,,,,,,,,,,sub_1557,2025-02-26_14h22.44.231,Reversal,2022.1.2,59.875399335011366,1,
7,exp3.png,exp4.png,,0,0,0,0,0,7,7,7,,,,,,,,,,,,,,,,,,,,,,,,,False,6,7,False,exp3.png,exp4.png,trial_right_image,-1,exp4.png,1,exp3.png,exp4.png,0,2,non-reversed,incorrect,0.9878668385633766,0,valid_lose,63.982362899929285,4,,,,,,,,,,,,,,,,sub_1557,2025-02-26_14h22.44.231,Reversal,2022.1.2,59.875399335011366,1,
8,exp1.png,exp2.png,,0,0,0,0,0,8,8,8,,,,,,,,,,,,,,,,,,,,,,,,,False,7,8,True,exp2.png,exp1.png,trial_left_image,1,exp2.png,1,exp1.png,exp2.png,0,4,reversed,incorrect,0.2109595241460409,1,invalid_win,69.54871299955994,5,,,,,,,,,,,,,,,,sub_1557,2025-02-26_14h22.44.231,Reversal,2022.1.2,59.875399335011366,1,
9,exp3.png,exp4.png,,0,0,0,0,0,9,9,9,,,,,,,,,,,,,,,,,,,,,,,,,False,8,9,False,exp3.png,exp4.png,trial_right_image,-1,exp4.png,1,exp3.png,exp4.png,0,2,non-reversed,incorrect,0.45049156481078434,0,valid_lose,75.6647507995367,5,,,,,,,,,,,,,,,,sub_1557,2025-02-26_14h22.44.231,Reversal,2022.1.2,59.875399335011366,1,
10,exp1.png,exp2.png,,0,0,0,0,0,10,10,10,,,,,,,,,,,,,,,,,,,,,,,,,False,9,10,False,exp1.png,exp2.png,trial_left_image,1,exp1.png,1,exp1.png,exp2.png,1,3,reversed,correct,0.7417396037142029,1,valid_win,82.21522019989789,6,,,,,,,,,,,,,,,,sub_1557,2025-02-26_14h22.44.231,Reversal,2022.1.2,59.875399335011366,1,
11,exp3.png,exp4.png,,0,0,0,0,0,11,11,11,,,,,,,,,,,,,,,,,,,,,,,,,False,10,11,True,exp4.png,exp3.png,trial_right_image,-1,exp3.png,1,exp3.png,exp4.png,1,1,non-reversed,correct,0.4815511609200225,1,valid_win,88.33175519946963,7,,,,,,,,,,,,,,,,sub_1557,2025-02-26_14h22.44.231,Reversal,2022.1.2,59.875399335011366,1,
12,exp1.png,exp2.png,,0,0,0,0,0,12,12,12,,,,,,,,,,,,,,,,,,,,,,,,,False,11,12,True,exp2.png,exp1.png,trial_right_image,-1,exp1.png,1,exp1.png,exp2.png,1,3,reversed,correct,0.519008941210195,1,valid_win,93.76448649913073,8,,,,,,,,,,,,,,,,sub_1557,2025-02-26_14h22.44.231,Reversal,2022.1.2,59.875399335011366,1,
13,exp3.png,exp4.png,,0,0,0,0,0,13,13,13,,,,,,,,,,,,,,,,,,,,,,,,,False,12,13,True,exp4.png,exp3.png,trial_left_image,1,exp4.png,1,exp3.png,exp4.png,0,2,non-reversed,incorrect,0.015774644380592617,1,invalid_win,99.6474889991805,9,,,,,,,,,,,,,,,,sub_1557,2025-02-26_14h22.44.231,Reversal,2022.1.2,59.875399335011366,1,
14,exp1.png,exp2.png,,0,0,0,0,0,14,14,14,,,,,,,,,,,,,,,,,,,,,,,,,False,13,14,True,exp2.png,exp1.png,trial_right_image,-1,exp1.png,1,exp1.png,exp2.png,1,3,reversed,correct,0.2500102851513424,1,valid_win,105.14797709975392,10,,,,,,,,,,,,,,,,sub_1557,2025-02-26_14h22.44.231,Reversal,2022.1.2,59.875399335011366,1,
15,exp3.png,exp4.png,,0,0,0,0,0,15,15,15,,,,,,,,,,,,,,,,,,,,,,,,,False,14,15,False,exp3.png,exp4.png,trial_right_image,-1,exp4.png,1,exp3.png,exp4.png,0,2,non-reversed,incorrect,0.8696048504128828,0,valid_lose,111.93117039930075,10,,,,,,,,,,,,,,,,sub_1557,2025-02-26_14h22.44.231,Reversal,2022.1.2,59.875399335011366,1,
16,exp1.png,exp2.png,,0,0,0,0,0,16,16,16,,,,,,,,,,,,,,,,,,,,,,,,,False,15,16,True,exp2.png,exp1.png,trial_left_image,1,exp2.png,1,exp1.png,exp2.png,0,4,reversed,incorrect,0.4003332424428282,0,valid_lose,116.664286499843,10,,,,,,,,,,,,,,,,sub_1557,2025-02-26_14h22.44.231,Reversal,2022.1.2,59.875399335011366,1,
17,exp3.png,exp4.png,,0,0,0,0,0,17,17,17,,,,,,,,,,,,,,,,,,,,,,,,,False,16,17,False,exp3.png,exp4.png,trial_right_image,-1,exp4.png,1,exp3.png,exp4.png,0,2,non-reversed,incorrect,0.27774538804834925,0,valid_lose,121.83075119927526,10,,,,,,,,,,,,,,,,sub_1557,2025-02-26_14h22.44.231,Reversal,2022.1.2,59.875399335011366,1,
18,exp1.png,exp2.png,,0,0,0,0,0,18,18,18,,,,,,,,,,,,,,,,,,,,,,,,,False,17,18,False,exp1.png,exp2.png,trial_left_image,1,exp1.png,1,exp1.png,exp2.png,1,3,reversed,correct,0.0151706542506993,0,invalid_lose,126.64751349948347,10,,,,,,,,,,,,,,,,sub_1557,2025-02-26_14h22.44.231,Reversal,2022.1.2,59.875399335011366,1,
19,exp3.png,exp4.png,,0,0,0,0,0,19,19,19,,,,,,,,,,,,,,,,,,,,,,,,,False,18,19,False,exp3.png,exp4.png,trial_right_image,-1,exp4.png,1,exp3.png,exp4.png,0,2,non-reversed,incorrect,0.4775214612417269,0,valid_lose,131.91412469930947,10,,,,,,,,,,,,,,,,sub_1557,2025-02-26_14h22.44.231,Reversal,2022.1.2,59.875399335011366,1,
20,exp1.png,exp2.png,,0,0,0,0,0,20,20,20,,,,,,,,,,,,,,,,,,,,,,,,,False,19,20,True,exp2.png,exp1.png,trial_left_image,1,exp2.png,1,exp1.png,exp2.png,0,4,reversed,incorrect,0.8891759699041654,0,valid_lose,136.31479559931904,10,,,,,,,,,,,,,,,,sub_1557,2025-02-26_14h22.44.231,Reversal,2022.1.2,59.875399335011366,1,
,,,exp1.png,0,0,0,0,,,,,0,0,0,0,0,0,0,0,,,,,,,,,,,,,,,,,,,,,,,,,,,,,,,,,,,,,,45.0,45.0,14.55245570000261,"[(45.0, 14.55245570000261)]",200.9358431994915,None,,,,,,,,,,sub_1557,2025-02-26_14h22.44.231,Reversal,2022.1.2,59.875399335011366,1,
,,,exp2.png,0,0,0,0,,,,,0,0,0,0,0,1,1,1,,,,,,,,,,,,,,,,,,,,,,,,,,,,,,,,,,,,,,,43.0,6.017800600267947,"[(43.0, 6.017800600267947)]",217.25236729998142,None,43.0,,,,,,,,,sub_1557,2025-02-26_14h22.44.231,Reversal,2022.1.2,59.875399335011366,1,
,,,exp3.png,0,0,0,0,,,,,0,0,0,0,0,2,2,2,,,,,,,,,,,,,,,,,,,,,,,,,,,,,,,,,,,,,,,44.0,2.384509800001979,"[(44.0, 2.384509800001979)]",224.80064039956778,None,,44.0,,,,,,,,sub_1557,2025-02-26_14h22.44.231,Reversal,2022.1.2,59.875399335011366,1,
,,,exp4.png,0,0,0,0,,,,,0,0,0,0,0,3,3,3,,,,,,,,,,,,,,,,,,,,,,,,,,,,,,,,,,,,,,,54.0,2.2338952999562025,"[(54.0, 2.2338952999562025)]",228.66863350011408,None,,,54.0,,,,,,,sub_1557,2025-02-26_14h22.44.231,Reversal,2022.1.2,59.875399335011366,1,
0,exp1.png,exp2.png,,1,0,1,0,0,0,0,0,,,,,,,,,,,,,,,,,,,,,,,,,True,,,,,,,,,,,,,,,,,,,,,,,,,,,,,,,,,,,,sub_1557,2025-02-26_14h22.44.231,Reversal,2022.1.2,59.875399335011366,1,
1,exp3.png,exp4.png,,1,0,1,0,0,1,1,1,,,,,,,,,,,,,,,,,,,,,,,,,False,20,21,True,exp4.png,exp3.png,trial_left_image,1,exp4.png,1,exp3.png,exp4.png,0,2,non-reversed,incorrect,0.7921768906830162,0,valid_lose,175.81330839917064,10,,,,,,,,,,,,,,,,sub_1557,2025-02-26_14h22.44.231,Reversal,2022.1.2,59.875399335011366,1,
2,exp1.png,exp2.png,,1,0,1,0,0,2,2,2,,,,,,,,,,,,,,,,,,,,,,,,,False,21,22,False,exp1.png,exp2.png,trial_left_image,1,exp1.png,1,exp1.png,exp2.png,1,3,reversed,correct,0.3814839350258338,1,valid_win,181.6301782997325,11,,,,,,,,,,,,,,,,sub_1557,2025-02-26_14h22.44.231,Reversal,2022.1.2,59.875399335011366,1,
3,exp3.png,exp4.png,,1,0,1,0,0,3,3,3,,,,,,,,,,,,,,,,,,,,,,,,,False,22,23,True,exp4.png,exp3.png,trial_right_image,-1,exp3.png,1,exp3.png,exp4.png,1,1,non-reversed,correct,0.3022193679316876,1,valid_win,186.84628779999912,12,,,,,,,,,,,,,,,,sub_1557,2025-02-26_14h22.44.231,Reversal,2022.1.2,59.875399335011366,1,
4,exp1.png,exp2.png,,1,0,1,0,0,4,4,4,,,,,,,,,,,,,,,,,,,,,,,,,False,23,24,False,exp1.png,exp2.png,trial_left_image,1,exp1.png,1,exp1.png,exp2.png,1,3,reversed,correct,0.7394825656433827,1,valid_win,192.79608339909464,13,,,,,,,,,,,,,,,,sub_1557,2025-02-26_14h22.44.231,Reversal,2022.1.2,59.875399335011366,1,
5,exp3.png,exp4.png,,1,0,1,0,0,5,5,5,,,,,,,,,,,,,,,,,,,,,,,,,False,24,25,False,exp3.png,exp4.png,trial_left_image,1,exp3.png,1,exp3.png,exp4.png,1,1,non-reversed,correct,0.03193288965305274,0,invalid_lose,197.61319259926677,13,,,,,,,,,,,,,,,,sub_1557,2025-02-26_14h22.44.231,Reversal,2022.1.2,59.875399335011366,1,
6,exp1.png,exp2.png,,1,0,1,0,0,6,6,6,,,,,,,,,,,,,,,,,,,,,,,,,False,25,26,False,exp1.png,exp2.png,trial_left_image,1,exp1.png,1,exp1.png,exp2.png,1,3,reversed,correct,0.16788484385065428,0,invalid_lose,203.04647279996425,13,,,,,,,,,,,,,,,,sub_1557,2025-02-26_14h22.44.231,Reversal,2022.1.2,59.875399335011366,1,
7,exp3.png,exp4.png,,1,0,1,0,0,7,7,7,,,,,,,,,,,,,,,,,,,,,,,,,False,26,27,False,exp3.png,exp4.png,trial_right_image,-1,exp4.png,1,exp3.png,exp4.png,0,2,non-reversed,incorrect,0.37153845254200657,0,valid_lose,208.19644969981164,13,,,,,,,,,,,,,,,,sub_1557,2025-02-26_14h22.44.231,Reversal,2022.1.2,59.875399335011366,1,
8,exp1.png,exp2.png,,1,0,1,0,0,8,8,8,,,,,,,,,,,,,,,,,,,,,,,,,False,27,28,True,exp2.png,exp1.png,trial_left_image,1,exp2.png,1,exp1.png,exp2.png,0,4,reversed,incorrect,0.46103927420073854,0,valid_lose,212.99572459980845,13,,,,,,,,,,,,,,,,sub_1557,2025-02-26_14h22.44.231,Reversal,2022.1.2,59.875399335011366,1,
9,exp3.png,exp4.png,,1,0,1,0,0,9,9,9,,,,,,,,,,,,,,,,,,,,,,,,,False,28,29,False,exp3.png,exp4.png,trial_left_image,1,exp3.png,1,exp3.png,exp4.png,1,1,non-reversed,correct,0.14316783548542567,0,invalid_lose,218.129401399754,13,,,,,,,,,,,,,,,,sub_1557,2025-02-26_14h22.44.231,Reversal,2022.1.2,59.875399335011366,1,
10,exp1.png,exp2.png,,1,0,1,0,0,10,10,10,,,,,,,,,,,,,,,,,,,,,,,,,False,29,30,True,exp2.png,exp1.png,trial_right_image,-1,exp1.png,1,exp1.png,exp2.png,1,3,reversed,correct,0.8937074886361513,1,valid_win,222.6955573996529,14,,,,,,,,,,,,,,,,sub_1557,2025-02-26_14h22.44.231,Reversal,2022.1.2,59.875399335011366,1,
11,exp3.png,exp4.png,,1,0,1,0,0,11,11,11,,,,,,,,,,,,,,,,,,,,,,,,,False,30,31,False,exp3.png,exp4.png,trial_right_image,-1,exp4.png,1,exp3.png,exp4.png,0,2,non-reversed,incorrect,0.8078062317350794,0,valid_lose,228.04565929993987,14,,,,,,,,,,,,,,,,sub_1557,2025-02-26_14h22.44.231,Reversal,2022.1.2,59.875399335011366,1,
12,exp1.png,exp2.png,,1,0,1,0,0,12,12,12,,,,,,,,,,,,,,,,,,,,,,,,,False,31,32,True,exp2.png,exp1.png,trial_right_image,-1,exp1.png,1,exp1.png,exp2.png,1,3,reversed,correct,0.6619327430602656,1,valid_win,233.01230269949883,15,,,,,,,,,,,,,,,,sub_1557,2025-02-26_14h22.44.231,Reversal,2022.1.2,59.875399335011366,1,
13,exp3.png,exp4.png,,1,0,1,0,0,13,13,13,,,,,,,,,,,,,,,,,,,,,,,,,False,32,33,True,exp4.png,exp3.png,trial_left_image,1,exp4.png,1,exp3.png,exp4.png,0,2,non-reversed,incorrect,0.43772933683604043,0,valid_lose,238.1786369998008,15,,,,,,,,,,,,,,,,sub_1557,2025-02-26_14h22.44.231,Reversal,2022.1.2,59.875399335011366,1,
14,exp1.png,exp2.png,,1,0,1,0,0,14,14,14,,,,,,,,,,,,,,,,,,,,,,,,,False,33,34,False,exp1.png,exp2.png,trial_left_image,1,exp1.png,1,exp1.png,exp2.png,1,3,reversed,correct,0.6101936629332845,1,valid_win,242.92860289942473,16,,,,,,,,,,,,,,,,sub_1557,2025-02-26_14h22.44.231,Reversal,2022.1.2,59.875399335011366,1,
15,exp3.png,exp4.png,,1,0,1,0,0,15,15,15,,,,,,,,,,,,,,,,,,,,,,,,,False,34,35,True,exp4.png,exp3.png,trial_left_image,1,exp4.png,1,exp3.png,exp4.png,0,2,non-reversed,incorrect,0.9073078707164735,0,valid_lose,249.3618751997128,16,,,,,,,,,,,,,,,,sub_1557,2025-02-26_14h22.44.231,Reversal,2022.1.2,59.875399335011366,1,
16,exp1.png,exp2.png,,1,0,1,0,0,16,16,16,,,,,,,,,,,,,,,,,,,,,,,,,False,35,36,True,exp2.png,exp1.png,trial_right_image,-1,exp1.png,1,exp1.png,exp2.png,1,3,reversed,correct,0.6679015821334366,1,valid_win,254.19475729949772,17,,,,,,,,,,,,,,,,sub_1557,2025-02-26_14h22.44.231,Reversal,2022.1.2,59.875399335011366,1,
17,exp3.png,exp4.png,,1,0,1,0,0,17,17,17,,,,,,,,,,,,,,,,,,,,,,,,,False,36,37,True,exp4.png,exp3.png,trial_right_image,-1,exp3.png,1,exp3.png,exp4.png,1,1,non-reversed,correct,0.3088542726097251,1,valid_win,261.1617241995409,18,,,,,,,,,,,,,,,,sub_1557,2025-02-26_14h22.44.231,Reversal,2022.1.2,59.875399335011366,1,
18,exp1.png,exp2.png,,1,0,1,0,0,18,18,18,,,,,,,,,,,,,,,,,,,,,,,,,False,37,38,False,exp1.png,exp2.png,trial_left_image,1,exp1.png,1,exp1.png,exp2.png,1,3,reversed,correct,0.9452625640168411,1,valid_win,266.06142759975046,19,,,,,,,,,,,,,,,,sub_1557,2025-02-26_14h22.44.231,Reversal,2022.1.2,59.875399335011366,1,
19,exp3.png,exp4.png,,1,0,1,0,0,19,19,19,,,,,,,,,,,,,,,,,,,,,,,,,False,38,39,True,exp4.png,exp3.png,trial_right_image,-1,exp3.png,1,exp3.png,exp4.png,1,1,non-reversed,correct,0.4023844351057,1,valid_win,271.72823219932616,20,,,,,,,,,,,,,,,,sub_1557,2025-02-26_14h22.44.231,Reversal,2022.1.2,59.875399335011366,1,
20,exp1.png,exp2.png,,1,0,1,0,0,20,20,20,,,,,,,,,,,,,,,,,,,,,,,,,False,39,40,False,exp1.png,exp2.png,trial_left_image,1,exp1.png,1,exp1.png,exp2.png,1,3,reversed,correct,0.9223667791416799,1,valid_win,276.69465499930084,21,,,,,,,,,,,,,,,,sub_1557,2025-02-26_14h22.44.231,Reversal,2022.1.2,59.875399335011366,1,
,,,exp1.png,1,0,1,0,,,,,0,0,0,0,0,0,0,0,,,,,,,,,,,,,,,,,,,,,,,,,,,,,,,,,,,,,,78.0,78.0,7.681209499947727,"[(78.0, 7.681209499947727)]",341.33540069963783,None,,,,,,,,,,sub_1557,2025-02-26_14h22.44.231,Reversal,2022.1.2,59.875399335011366,1,
,,,exp2.png,1,0,1,0,,,,,0,0,0,0,0,1,1,1,,,,,,,,,,,,,,,,,,,,,,,,,,,,,,,,,,,,,,,19.0,2.65101720020175,"[(19.0, 2.65101720020175)]",350.7804108997807,None,19.0,,,,,,,,,sub_1557,2025-02-26_14h22.44.231,Reversal,2022.1.2,59.875399335011366,1,
,,,exp3.png,1,0,1,0,,,,,0,0,0,0,0,2,2,2,,,,,,,,,,,,,,,,,,,,,,,,,,,,,,,,,,,,,,,70.0,4.101497800089419,"[(67.0, 1.936018600128591), (70.0, 4.101497800089419)]",354.7459340002388,None,,70.0,,,,,,,,sub_1557,2025-02-26_14h22.44.231,Reversal,2022.1.2,59.875399335011366,1,
,,,exp4.png,1,0,1,0,,,,,0,0,0,0,0,3,3,3,,,,,,,,,,,,,,,,,,,,,,,,,,,,,,,,,,,,,,,35.0,1.949778700247407,"[(35.0, 1.949778700247407)]",360.15103430021554,None,,,35.0,,,,,,,sub_1557,2025-02-26_14h22.44.231,Reversal,2022.1.2,59.875399335011366,1,
0,exp1.png,exp2.png,,2,0,2,0,0,0,0,0,,,,,,,,,,,,,,,,,,,,,,,,,True,,,,,,,,,,,,,,,,,,,,,,,,,,,,,,,,,,,,sub_1557,2025-02-26_14h22.44.231,Reversal,2022.1.2,59.875399335011366,1,
1,exp3.png,exp4.png,,2,0,2,0,0,1,1,1,,,,,,,,,,,,,,,,,,,,,,,,,False,40,41,False,exp3.png,exp4.png,trial_left_image,1,exp3.png,1,exp3.png,exp4.png,1,1,non-reversed,correct,0.6647047624589836,1,valid_win,304.3271514996886,22,,,,,,,,,,,,,,,,sub_1557,2025-02-26_14h22.44.231,Reversal,2022.1.2,59.875399335011366,1,
2,exp1.png,exp2.png,,2,0,2,0,0,2,2,2,,,,,,,,,,,,,,,,,,,,,,,,,False,41,42,False,exp1.png,exp2.png,trial_left_image,1,exp1.png,1,exp1.png,exp2.png,1,3,reversed,correct,0.22025663878049961,0,invalid_lose,309.144603099674,22,,,,,,,,,,,,,,,,sub_1557,2025-02-26_14h22.44.231,Reversal,2022.1.2,59.875399335011366,1,
3,exp3.png,exp4.png,,2,0,2,0,0,3,3,3,,,,,,,,,,,,,,,,,,,,,,,,,False,42,43,False,exp3.png,exp4.png,trial_left_image,1,exp3.png,1,exp3.png,exp4.png,1,1,non-reversed,correct,0.28326606203302596,1,valid_win,315.89400799944997,23,,,,,,,,,,,,,,,,sub_1557,2025-02-26_14h22.44.231,Reversal,2022.1.2,59.875399335011366,1,
4,exp1.png,exp2.png,,2,0,2,0,0,4,4,4,,,,,,,,,,,,,,,,,,,,,,,,,False,43,44,False,exp1.png,exp2.png,trial_left_image,1,exp1.png,1,exp1.png,exp2.png,1,3,reversed,correct,0.5723225025922144,1,valid_win,320.8937540994957,24,,,,,,,,,,,,,,,,sub_1557,2025-02-26_14h22.44.231,Reversal,2022.1.2,59.875399335011366,1,
5,exp3.png,exp4.png,,2,0,2,0,0,5,5,5,,,,,,,,,,,,,,,,,,,,,,,,,False,44,45,True,exp4.png,exp3.png,trial_right_image,-1,exp3.png,1,exp3.png,exp4.png,1,1,non-reversed,correct,0.1472949756650176,0,invalid_lose,329.26086199935526,24,,,,,,,,,,,,,,,,sub_1557,2025-02-26_14h22.44.231,Reversal,2022.1.2,59.875399335011366,1,
6,exp1.png,exp2.png,,2,0,2,0,0,6,6,6,,,,,,,,,,,,,,,,,,,,,,,,,False,45,46,False,exp1.png,exp2.png,trial_left_image,1,exp1.png,1,exp1.png,exp2.png,1,3,reversed,correct,0.6811784129541729,1,valid_win,334.1098600998521,25,,,,,,,,,,,,,,,,sub_1557,2025-02-26_14h22.44.231,Reversal,2022.1.2,59.875399335011366,1,
7,exp3.png,exp4.png,,2,0,2,0,0,7,7,7,,,,,,,,,,,,,,,,,,,,,,,,,False,46,47,True,exp4.png,exp3.png,trial_left_image,1,exp4.png,1,exp3.png,exp4.png,0,2,non-reversed,incorrect,0.547950004914216,0,valid_lose,339.6771003995091,25,,,,,,,,,,,,,,,,sub_1557,2025-02-26_14h22.44.231,Reversal,2022.1.2,59.875399335011366,1,
8,exp1.png,exp2.png,,2,0,2,0,0,8,8,8,,,,,,,,,,,,,,,,,,,,,,,,,False,47,48,True,exp2.png,exp1.png,trial_right_image,-1,exp1.png,1,exp1.png,exp2.png,1,3,reversed,correct,0.9816883662912369,1,valid_win,345.2438506996259,26,,,,,,,,,,,,,,,,sub_1557,2025-02-26_14h22.44.231,Reversal,2022.1.2,59.875399335011366,1,
9,exp3.png,exp4.png,,2,0,2,0,0,9,9,9,,,,,,,,,,,,,,,,,,,,,,,,,False,48,49,True,exp4.png,exp3.png,trial_right_image,-1,exp3.png,1,exp3.png,exp4.png,1,1,non-reversed,correct,0.0013092668230104687,0,invalid_lose,352.4266683999449,26,,,,,,,,,,,,,,,,sub_1557,2025-02-26_14h22.44.231,Reversal,2022.1.2,59.875399335011366,1,
10,exp1.png,exp2.png,,2,0,2,0,0,10,10,10,,,,,,,,,,,,,,,,,,,,,,,,,False,49,50,True,exp2.png,exp1.png,trial_left_image,1,exp2.png,1,exp1.png,exp2.png,0,4,reversed,incorrect,0.8687920931284059,0,valid_lose,357.37658939976245,26,,,,,,,,,,,,,,,,sub_1557,2025-02-26_14h22.44.231,Reversal,2022.1.2,59.875399335011366,1,
11,exp3.png,exp4.png,,2,0,2,0,0,11,11,11,,,,,,,,,,,,,,,,,,,,,,,,,False,50,51,False,exp3.png,exp4.png,trial_left_image,1,exp3.png,1,exp3.png,exp4.png,1,1,non-reversed,correct,0.24437527114086655,0,invalid_lose,365.00971989985555,26,,,,,,,,,,,,,,,,sub_1557,2025-02-26_14h22.44.231,Reversal,2022.1.2,59.875399335011366,1,
12,exp1.png,exp2.png,,2,0,2,0,0,12,12,12,,,,,,,,,,,,,,,,,,,,,,,,,False,51,52,True,exp2.png,exp1.png,trial_right_image,-1,exp1.png,1,exp1.png,exp2.png,1,3,reversed,correct,0.34486665198414235,1,valid_win,370.1267263991758,27,,,,,,,,,,,,,,,,sub_1557,2025-02-26_14h22.44.231,Reversal,2022.1.2,59.875399335011366,1,
13,exp3.png,exp4.png,,2,0,2,0,0,13,13,13,,,,,,,,,,,,,,,,,,,,,,,,,False,52,53,False,exp3.png,exp4.png,trial_right_image,-1,exp4.png,1,exp3.png,exp4.png,0,2,non-reversed,incorrect,0.773578763286043,0,valid_lose,375.4928599996492,27,,,,,,,,,,,,,,,,sub_1557,2025-02-26_14h22.44.231,Reversal,2022.1.2,59.875399335011366,1,
14,exp1.png,exp2.png,,2,0,2,0,0,14,14,14,,,,,,,,,,,,,,,,,,,,,,,,,False,53,54,False,exp1.png,exp2.png,trial_left_image,1,exp1.png,1,exp1.png,exp2.png,1,3,reversed,correct,0.1148558492001367,0,invalid_lose,380.5259790997952,27,,,,,,,,,,,,,,,,sub_1557,2025-02-26_14h22.44.231,Reversal,2022.1.2,59.875399335011366,1,
15,exp3.png,exp4.png,,2,0,2,0,0,15,15,15,,,,,,,,,,,,,,,,,,,,,,,,,False,54,55,True,exp4.png,exp3.png,trial_left_image,1,exp4.png,1,exp3.png,exp4.png,0,2,non-reversed,incorrect,0.9975685718272913,0,valid_lose,385.74295409955084,27,,,,,,,,,,,,,,,,sub_1557,2025-02-26_14h22.44.231,Reversal,2022.1.2,59.875399335011366,1,
16,exp1.png,exp2.png,,2,0,2,0,0,16,16,16,,,,,,,,,,,,,,,,,,,,,,,,,False,55,56,False,exp1.png,exp2.png,trial_left_image,1,exp1.png,1,exp1.png,exp2.png,1,3,reversed,correct,0.1530772576148517,0,invalid_lose,391.14322519954294,27,,,,,,,,,,,,,,,,sub_1557,2025-02-26_14h22.44.231,Reversal,2022.1.2,59.875399335011366,1,
17,exp3.png,exp4.png,,2,0,2,0,0,17,17,17,,,,,,,,,,,,,,,,,,,,,,,,,False,56,57,True,exp4.png,exp3.png,trial_right_image,-1,exp3.png,1,exp3.png,exp4.png,1,1,non-reversed,correct,0.8139493276969255,1,valid_win,396.07637149933726,28,,,,,,,,,,,,,,,,sub_1557,2025-02-26_14h22.44.231,Reversal,2022.1.2,59.875399335011366,1,
18,exp1.png,exp2.png,,2,0,2,0,0,18,18,18,,,,,,,,,,,,,,,,,,,,,,,,,False,57,58,False,exp1.png,exp2.png,trial_left_image,1,exp1.png,1,exp1.png,exp2.png,1,3,reversed,correct,0.48872553741739455,1,valid_win,401.14253949932754,29,,,,,,,,,,,,,,,,sub_1557,2025-02-26_14h22.44.231,Reversal,2022.1.2,59.875399335011366,1,
19,exp3.png,exp4.png,,2,0,2,0,0,19,19,19,,,,,,,,,,,,,,,,,,,,,,,,,False,58,59,True,exp4.png,exp3.png,trial_right_image,-1,exp3.png,1,exp3.png,exp4.png,1,1,non-reversed,correct,0.21649589433678318,0,invalid_lose,406.65939599927515,29,,,,,,,,,,,,,,,,sub_1557,2025-02-26_14h22.44.231,Reversal,2022.1.2,59.875399335011366,1,
20,exp1.png,exp2.png,,2,0,2,0,0,20,20,20,,,,,,,,,,,,,,,,,,,,,,,,,False,59,60,True,exp2.png,exp1.png,trial_right_image,-1,exp1.png,1,exp1.png,exp2.png,1,3,reversed,correct,0.4065136322718853,1,valid_win,412.7088591000065,30,,,,,,,,,,,,,,,,sub_1557,2025-02-26_14h22.44.231,Reversal,2022.1.2,59.875399335011366,1,
,,,exp1.png,2,0,2,0,,,,,0,0,0,0,0,0,0,0,,,,,,,,,,,,,,,,,,,,,,,,,,,,,,,,,,,,,,74.0,74.0,4.529753599315882,"[(74.0, 4.529753599315882)]",477.35267459973693,None,,,,,,,,,,sub_1557,2025-02-26_14h22.44.231,Reversal,2022.1.2,59.875399335011366,1,
,,,exp2.png,2,0,2,0,,,,,0,0,0,0,0,1,1,1,,,,,,,,,,,,,,,,,,,,,,,,,,,,,,,,,,,,,,,30.0,5.652503699995577,"[(21.0, 2.685759600251913), (30.0, 5.652503699995577)]",483.7439722996205,None,30.0,,,,,,,,,sub_1557,2025-02-26_14h22.44.231,Reversal,2022.1.2,59.875399335011366,1,
,,,exp3.png,2,0,2,0,,,,,0,0,0,0,0,2,2,2,,,,,,,,,,,,,,,,,,,,,,,,,,,,,,,,,,,,,,,42.0,2.7189304996281862,"[(42.0, 2.7189304996281862)]",490.89683059975505,None,,42.0,,,,,,,,sub_1557,2025-02-26_14h22.44.231,Reversal,2022.1.2,59.875399335011366,1,
,,,exp4.png,2,0,2,0,,,,,0,0,0,0,0,3,3,3,,,,,,,,,,,,,,,,,,,,,,,,,,,,,,,,,,,,,,,39.0,2.551869800314307,"[(39.0, 2.551869800314307)]",494.76219910010695,None,,,39.0,,,,,,,sub_1557,2025-02-26_14h22.44.231,Reversal,2022.1.2,59.875399335011366,1,
0,exp1.png,exp2.png,,,,,,,,,,,,,,,,,,0,0,0,0,0,0,0,0,,,,,,,,,True,,,,,,,,,,,,,,,,,,,,,,,,,,,,,,,,,,,,sub_1557,2025-02-26_14h22.44.231,Reversal,2022.1.2,59.875399335011366,1,
1,exp3.png,exp4.png,,,,,,,,,,,,,,,,,,0,0,0,0,0,1,1,1,,,,,,,,,False,0,61,False,exp3.png,exp4.png,trial_left_image,1,exp3.png,1,exp3.png,exp4.png,1,1,non-reversed,correct,0.4276276784210993,1,valid_win,439.3246183991432,31,,,,,,,,,,436.447327199392,,,,,,sub_1557,2025-02-26_14h22.44.231,Reversal,2022.1.2,59.875399335011366,1,
2,exp1.png,exp2.png,,,,,,,,,,,,,,,,,,0,0,0,0,0,2,2,2,,,,,,,,,False,1,62,False,exp1.png,exp2.png,trial_left_image,1,exp1.png,1,exp2.png,exp1.png,1,3,reversed,incorrect,0.12754969173892716,1,invalid_win,444.57516669947654,32,,,,,,,,,,,,,,,,sub_1557,2025-02-26_14h22.44.231,Reversal,2022.1.2,59.875399335011366,1,
3,exp3.png,exp4.png,,,,,,,,,,,,,,,,,,0,0,0,0,0,3,3,3,,,,,,,,,False,2,63,True,exp4.png,exp3.png,trial_right_image,-1,exp3.png,1,exp3.png,exp4.png,1,1,non-reversed,correct,0.10380885181617372,0,invalid_lose,452.9246990997344,32,,,,,,,,,,,,,,,,sub_1557,2025-02-26_14h22.44.231,Reversal,2022.1.2,59.875399335011366,1,
4,exp1.png,exp2.png,,,,,,,,,,,,,,,,,,0,0,0,0,0,4,4,4,,,,,,,,,False,3,64,True,exp2.png,exp1.png,trial_right_image,-1,exp1.png,1,exp2.png,exp1.png,1,3,reversed,incorrect,0.7516264455094749,0,valid_lose,458.6244496991858,32,,,,,,,,,,,,,,,,sub_1557,2025-02-26_14h22.44.231,Reversal,2022.1.2,59.875399335011366,1,
5,exp3.png,exp4.png,,,,,,,,,,,,,,,,,,0,0,0,0,0,5,5,5,,,,,,,,,False,4,65,True,exp4.png,exp3.png,trial_left_image,1,exp4.png,1,exp3.png,exp4.png,0,2,non-reversed,incorrect,0.5606462808540509,0,valid_lose,463.7084531998262,32,,,,,,,,,,,,,,,,sub_1557,2025-02-26_14h22.44.231,Reversal,2022.1.2,59.875399335011366,1,
6,exp1.png,exp2.png,,,,,,,,,,,,,,,,,,0,0,0,0,0,6,6,6,,,,,,,,,False,5,66,False,exp1.png,exp2.png,trial_left_image,1,exp1.png,1,exp2.png,exp1.png,1,3,reversed,incorrect,0.4680553423567708,0,valid_lose,468.5747857997194,32,,,,,,,,,,,,,,,,sub_1557,2025-02-26_14h22.44.231,Reversal,2022.1.2,59.875399335011366,1,
7,exp3.png,exp4.png,,,,,,,,,,,,,,,,,,0,0,0,0,0,7,7,7,,,,,,,,,False,6,67,True,exp4.png,exp3.png,trial_left_image,1,exp4.png,1,exp3.png,exp4.png,0,2,non-reversed,incorrect,0.9704970359106715,0,valid_lose,473.64150269981474,32,,,,,,,,,,,,,,,,sub_1557,2025-02-26_14h22.44.231,Reversal,2022.1.2,59.875399335011366,1,
8,exp1.png,exp2.png,,,,,,,,,,,,,,,,,,0,0,0,0,0,8,8,8,,,,,,,,,False,7,68,True,exp2.png,exp1.png,trial_right_image,-1,exp1.png,1,exp2.png,exp1.png,1,3,reversed,incorrect,0.9901012717734766,0,valid_lose,478.69084739964455,32,,,,,,,,,,,,,,,,sub_1557,2025-02-26_14h22.44.231,Reversal,2022.1.2,59.875399335011366,1,
9,exp3.png,exp4.png,,,,,,,,,,,,,,,,,,0,0,0,0,0,9,9,9,,,,,,,,,False,8,69,False,exp3.png,exp4.png,trial_left_image,1,exp3.png,1,exp3.png,exp4.png,1,1,non-reversed,correct,0.25942206128382606,1,valid_win,484.9241348998621,33,,,,,,,,,,,,,,,,sub_1557,2025-02-26_14h22.44.231,Reversal,2022.1.2,59.875399335011366,1,
10,exp1.png,exp2.png,,,,,,,,,,,,,,,,,,0,0,0,0,0,10,10,10,,,,,,,,,False,9,70,False,exp1.png,exp2.png,trial_left_image,1,exp1.png,1,exp2.png,exp1.png,1,3,reversed,incorrect,0.9641631313762393,0,valid_lose,490.65773999970406,33,,,,,,,,,,,,,,,,sub_1557,2025-02-26_14h22.44.231,Reversal,2022.1.2,59.875399335011366,1,
11,exp3.png,exp4.png,,,,,,,,,,,,,,,,,,0,0,0,0,0,11,11,11,,,,,,,,,False,10,71,True,exp4.png,exp3.png,trial_right_image,-1,exp3.png,1,exp3.png,exp4.png,1,1,non-reversed,correct,0.33143064403611044,1,valid_win,495.757764599286,34,,,,,,,,,,,,,,,,sub_1557,2025-02-26_14h22.44.231,Reversal,2022.1.2,59.875399335011366,1,
12,exp1.png,exp2.png,,,,,,,,,,,,,,,,,,0,0,0,0,0,12,12,12,,,,,,,,,False,11,72,False,exp1.png,exp2.png,trial_left_image,1,exp1.png,1,exp2.png,exp1.png,1,3,reversed,incorrect,0.3699341673451587,0,valid_lose,500.55730989947915,34,,,,,,,,,,,,,,,,sub_1557,2025-02-26_14h22.44.231,Reversal,2022.1.2,59.875399335011366,1,
13,exp3.png,exp4.png,,,,,,,,,,,,,,,,,,0,0,0,0,0,13,13,13,,,,,,,,,False,12,73,False,exp3.png,exp4.png,trial_left_image,1,exp3.png,1,exp3.png,exp4.png,1,1,non-reversed,correct,0.5009949939192404,1,valid_win,505.95771809946746,35,,,,,,,,,,,,,,,,sub_1557,2025-02-26_14h22.44.231,Reversal,2022.1.2,59.875399335011366,1,
14,exp1.png,exp2.png,,,,,,,,,,,,,,,,,,0,0,0,0,0,14,14,14,,,,,,,,,False,13,74,False,exp1.png,exp2.png,trial_right_image,-1,exp2.png,1,exp2.png,exp1.png,0,4,reversed,correct,0.2520244592847781,1,valid_win,513.0069096991792,36,,,,,,,,,,,,,,,,sub_1557,2025-02-26_14h22.44.231,Reversal,2022.1.2,59.875399335011366,1,
15,exp3.png,exp4.png,,,,,,,,,,,,,,,,,,0,0,0,0,0,15,15,15,,,,,,,,,False,14,75,True,exp4.png,exp3.png,trial_right_image,-1,exp3.png,1,exp3.png,exp4.png,1,1,non-reversed,correct,0.1909181373150366,0,invalid_lose,519.1734694996849,36,,,,,,,,,,,,,,,,sub_1557,2025-02-26_14h22.44.231,Reversal,2022.1.2,59.875399335011366,1,
16,exp1.png,exp2.png,,,,,,,,,,,,,,,,,,0,0,0,0,0,16,16,16,,,,,,,,,False,15,76,True,exp2.png,exp1.png,trial_left_image,1,exp2.png,1,exp2.png,exp1.png,0,4,reversed,correct,0.3711197802745134,1,valid_win,523.7735609998927,37,,,,,,,,,,,,,,,,sub_1557,2025-02-26_14h22.44.231,Reversal,2022.1.2,59.875399335011366,1,
17,exp3.png,exp4.png,,,,,,,,,,,,,,,,,,0,0,0,0,0,17,17,17,,,,,,,,,False,16,77,False,exp3.png,exp4.png,trial_right_image,-1,exp4.png,1,exp3.png,exp4.png,0,2,non-reversed,incorrect,0.7529441977482563,0,valid_lose,529.6403564997017,37,,,,,,,,,,,,,,,,sub_1557,2025-02-26_14h22.44.231,Reversal,2022.1.2,59.875399335011366,1,
18,exp1.png,exp2.png,,,,,,,,,,,,,,,,,,0,0,0,0,0,18,18,18,,,,,,,,,False,17,78,True,exp2.png,exp1.png,trial_right_image,-1,exp1.png,1,exp2.png,exp1.png,1,3,reversed,incorrect,0.5737008419027699,0,valid_lose,534.6395799992606,37,,,,,,,,,,,,,,,,sub_1557,2025-02-26_14h22.44.231,Reversal,2022.1.2,59.875399335011366,1,
19,exp3.png,exp4.png,,,,,,,,,,,,,,,,,,0,0,0,0,0,19,19,19,,,,,,,,,False,18,79,True,exp4.png,exp3.png,trial_left_image,1,exp4.png,1,exp3.png,exp4.png,0,2,non-reversed,incorrect,0.28664627144385135,0,valid_lose,539.5234180996194,37,,,,,,,,,,,,,,,,sub_1557,2025-02-26_14h22.44.231,Reversal,2022.1.2,59.875399335011366,1,
20,exp1.png,exp2.png,,,,,,,,,,,,,,,,,,0,0,0,0,0,20,20,20,,,,,,,,,False,19,80,False,exp1.png,exp2.png,trial_left_image,1,exp1.png,1,exp2.png,exp1.png,1,3,reversed,incorrect,0.47139456870061913,0,valid_lose,544.2563857994974,37,,,,,,,,,,,,,,,,sub_1557,2025-02-26_14h22.44.231,Reversal,2022.1.2,59.875399335011366,1,
,,,exp1.png,,,,,,,,,,,,,,,,,0,0,0,0,,,,,0,0,0,0,0,0,0,0,,,,,,,,,,,,,,,,,,,,,,43.0,43.0,2.7580894995480776,"[(43.0, 2.7580894995480776)]",608.9031758001074,None,,,,,,,,,,sub_1557,2025-02-26_14h22.44.231,Reversal,2022.1.2,59.875399335011366,1,
,,,exp2.png,,,,,,,,,,,,,,,,,0,0,0,0,,,,,0,0,0,0,0,1,1,1,,,,,,,,,,,,,,,,,,,,,,,45.0,2.5501202000305057,"[(45.0, 2.5501202000305057)]",612.8423609994352,None,45.0,,,,,,,,,sub_1557,2025-02-26_14h22.44.231,Reversal,2022.1.2,59.875399335011366,1,
,,,exp3.png,,,,,,,,,,,,,,,,,0,0,0,0,,,,,0,0,0,0,0,2,2,2,,,,,,,,,,,,,,,,,,,,,,,55.0,2.6016398007050157,"[(55.0, 2.6016398007050157)]",616.5422347001731,None,,55.0,,,,,,,,sub_1557,2025-02-26_14h22.44.231,Reversal,2022.1.2,59.875399335011366,1,
,,,exp4.png,,,,,,,,,,,,,,,,,0,0,0,0,,,,,0,0,0,0,0,3,3,3,,,,,,,,,,,,,,,,,,,,,,,53.0,1.8500800002366304,"[(53.0, 1.8500800002366304)]",620.4966107998043,None,,,53.0,,,,,,,sub_1557,2025-02-26_14h22.44.231,Reversal,2022.1.2,59.875399335011366,1,
0,exp1.png,exp2.png,,,,,,,,,,,,,,,,,,1,0,1,0,0,0,0,0,,,,,,,,,True,,,,,,,,,,,,,,,,,,,,,,,,,,,,,,,,,,,,sub_1557,2025-02-26_14h22.44.231,Reversal,2022.1.2,59.875399335011366,1,
1,exp3.png,exp4.png,,,,,,,,,,,,,,,,,,1,0,1,0,0,1,1,1,,,,,,,,,False,20,81,True,exp4.png,exp3.png,trial_left_image,1,exp4.png,1,exp3.png,exp4.png,0,2,non-reversed,incorrect,0.08075546087911523,1,invalid_win,563.7730994997546,38,,,,,,,,,,,,,,,,sub_1557,2025-02-26_14h22.44.231,Reversal,2022.1.2,59.875399335011366,1,
2,exp1.png,exp2.png,,,,,,,,,,,,,,,,,,1,0,1,0,0,2,2,2,,,,,,,,,False,21,82,True,exp2.png,exp1.png,trial_left_image,1,exp2.png,1,exp2.png,exp1.png,0,4,reversed,correct,0.46751044890034255,1,valid_win,570.2056442992762,39,,,,,,,,,,,,,,,,sub_1557,2025-02-26_14h22.44.231,Reversal,2022.1.2,59.875399335011366,1,
3,exp3.png,exp4.png,,,,,,,,,,,,,,,,,,1,0,1,0,0,3,3,3,,,,,,,,,False,22,83,True,exp4.png,exp3.png,trial_right_image,-1,exp3.png,1,exp3.png,exp4.png,1,1,non-reversed,correct,0.8338518940528106,1,valid_win,577.4224617993459,40,,,,,,,,,,,,,,,,sub_1557,2025-02-26_14h22.44.231,Reversal,2022.1.2,59.875399335011366,1,
4,exp1.png,exp2.png,,,,,,,,,,,,,,,,,,1,0,1,0,0,4,4,4,,,,,,,,,False,23,84,False,exp1.png,exp2.png,trial_left_image,1,exp1.png,1,exp2.png,exp1.png,1,3,reversed,incorrect,0.8073310436783243,0,valid_lose,584.8227827996016,40,,,,,,,,,,,,,,,,sub_1557,2025-02-26_14h22.44.231,Reversal,2022.1.2,59.875399335011366,1,
5,exp3.png,exp4.png,,,,,,,,,,,,,,,,,,1,0,1,0,0,5,5,5,,,,,,,,,False,24,85,True,exp4.png,exp3.png,trial_right_image,-1,exp3.png,1,exp3.png,exp4.png,1,1,non-reversed,correct,0.7793119584012772,1,valid_win,589.9389529991895,41,,,,,,,,,,,,,,,,sub_1557,2025-02-26_14h22.44.231,Reversal,2022.1.2,59.875399335011366,1,
6,exp1.png,exp2.png,,,,,,,,,,,,,,,,,,1,0,1,0,0,6,6,6,,,,,,,,,False,25,86,False,exp1.png,exp2.png,trial_right_image,-1,exp2.png,1,exp2.png,exp1.png,0,4,reversed,correct,0.8543001026496605,1,valid_win,595.7884881999344,42,,,,,,,,,,,,,,,,sub_1557,2025-02-26_14h22.44.231,Reversal,2022.1.2,59.875399335011366,1,
7,exp3.png,exp4.png,,,,,,,,,,,,,,,,,,1,0,1,0,0,7,7,7,,,,,,,,,False,26,87,False,exp3.png,exp4.png,trial_right_image,-1,exp4.png,1,exp3.png,exp4.png,0,2,non-reversed,incorrect,0.9376139124423273,0,valid_lose,601.2555635999888,42,,,,,,,,,,,,,,,,sub_1557,2025-02-26_14h22.44.231,Reversal,2022.1.2,59.875399335011366,1,
8,exp1.png,exp2.png,,,,,,,,,,,,,,,,,,1,0,1,0,0,8,8,8,,,,,,,,,False,27,88,True,exp2.png,exp1.png,trial_left_image,1,exp2.png,1,exp2.png,exp1.png,0,4,reversed,correct,0.03606831343633987,0,invalid_lose,606.2387148998678,42,,,,,,,,,,,,,,,,sub_1557,2025-02-26_14h22.44.231,Reversal,2022.1.2,59.875399335011366,1,
9,exp3.png,exp4.png,,,,,,,,,,,,,,,,,,1,0,1,0,0,9,9,9,,,,,,,,,False,28,89,False,exp3.png,exp4.png,trial_left_image,1,exp3.png,1,exp3.png,exp4.png,1,1,non-reversed,correct,0.5189948188147541,1,valid_win,611.555137399584,43,,,,,,,,,,,,,,,,sub_1557,2025-02-26_14h22.44.231,Reversal,2022.1.2,59.875399335011366,1,
10,exp1.png,exp2.png,,,,,,,,,,,,,,,,,,1,0,1,0,0,10,10,10,,,,,,,,,False,29,90,False,exp1.png,exp2.png,trial_right_image,-1,exp2.png,1,exp2.png,exp1.png,0,4,reversed,correct,0.7277877632018014,1,valid_win,617.4549729991704,44,,,,,,,,,,,,,,,,sub_1557,2025-02-26_14h22.44.231,Reversal,2022.1.2,59.875399335011366,1,
11,exp3.png,exp4.png,,,,,,,,,,,,,,,,,,1,0,1,0,0,11,11,11,,,,,,,,,False,30,91,False,exp3.png,exp4.png,trial_left_image,1,exp3.png,1,exp3.png,exp4.png,1,1,non-reversed,correct,0.32589167668487073,1,valid_win,623.2048740992323,45,,,,,,,,,,,,,,,,sub_1557,2025-02-26_14h22.44.231,Reversal,2022.1.2,59.875399335011366,1,
12,exp1.png,exp2.png,,,,,,,,,,,,,,,,,,1,0,1,0,0,12,12,12,,,,,,,,,False,31,92,False,exp1.png,exp2.png,trial_right_image,-1,exp2.png,1,exp2.png,exp1.png,0,4,reversed,correct,0.9660943836746229,1,valid_win,630.6384667996317,46,,,,,,,,,,,,,,,,sub_1557,2025-02-26_14h22.44.231,Reversal,2022.1.2,59.875399335011366,1,
13,exp3.png,exp4.png,,,,,,,,,,,,,,,,,,1,0,1,0,0,13,13,13,,,,,,,,,False,32,93,True,exp4.png,exp3.png,trial_right_image,-1,exp3.png,1,exp3.png,exp4.png,1,1,non-reversed,correct,0.1526102728613853,0,invalid_lose,636.1382631994784,46,,,,,,,,,,,,,,,,sub_1557,2025-02-26_14h22.44.231,Reversal,2022.1.2,59.875399335011366,1,
14,exp1.png,exp2.png,,,,,,,,,,,,,,,,,,1,0,1,0,0,14,14,14,,,,,,,,,False,33,94,False,exp1.png,exp2.png,trial_left_image,1,exp1.png,1,exp2.png,exp1.png,1,3,reversed,incorrect,0.4380289614395051,0,valid_lose,643.1045373994857,46,,,,,,,,,,,,,,,,sub_1557,2025-02-26_14h22.44.231,Reversal,2022.1.2,59.875399335011366,1,
15,exp3.png,exp4.png,,,,,,,,,,,,,,,,,,1,0,1,0,0,15,15,15,,,,,,,,,False,34,95,True,exp4.png,exp3.png,trial_right_image,-1,exp3.png,1,exp3.png,exp4.png,1,1,non-reversed,correct,0.1550256136143353,0,invalid_lose,648.4712041998282,46,,,,,,,,,,,,,,,,sub_1557,2025-02-26_14h22.44.231,Reversal,2022.1.2,59.875399335011366,1,
16,exp1.png,exp2.png,,,,,,,,,,,,,,,,,,1,0,1,0,0,16,16,16,,,,,,,,,False,35,96,False,exp1.png,exp2.png,trial_left_image,1,exp1.png,1,exp2.png,exp1.png,1,3,reversed,incorrect,0.5074231183122765,0,valid_lose,653.1206076992676,46,,,,,,,,,,,,,,,,sub_1557,2025-02-26_14h22.44.231,Reversal,2022.1.2,59.875399335011366,1,
17,exp3.png,exp4.png,,,,,,,,,,,,,,,,,,1,0,1,0,0,17,17,17,,,,,,,,,False,36,97,True,exp4.png,exp3.png,trial_right_image,-1,exp3.png,1,exp3.png,exp4.png,1,1,non-reversed,correct,0.6982972027443315,1,valid_win,657.9057179996744,47,,,,,,,,,,,,,,,,sub_1557,2025-02-26_14h22.44.231,Reversal,2022.1.2,59.875399335011366,1,
18,exp1.png,exp2.png,,,,,,,,,,,,,,,,,,1,0,1,0,0,18,18,18,,,,,,,,,False,37,98,True,exp2.png,exp1.png,trial_left_image,1,exp2.png,1,exp2.png,exp1.png,0,4,reversed,correct,0.8395073912168063,1,valid_win,663.2373477993533,48,,,,,,,,,,,,,,,,sub_1557,2025-02-26_14h22.44.231,Reversal,2022.1.2,59.875399335011366,1,
19,exp3.png,exp4.png,,,,,,,,,,,,,,,,,,1,0,1,0,0,19,19,19,,,,,,,,,False,38,99,False,exp3.png,exp4.png,trial_left_image,1,exp3.png,1,exp3.png,exp4.png,1,1,non-reversed,correct,0.11317746158181519,0,invalid_lose,668.2710716994479,48,,,,,,,,,,,,,,,,sub_1557,2025-02-26_14h22.44.231,Reversal,2022.1.2,59.875399335011366,1,
20,exp1.png,exp2.png,,,,,,,,,,,,,,,,,,1,0,1,0,0,20,20,20,,,,,,,,,False,39,100,True,exp2.png,exp1.png,trial_right_image,-1,exp1.png,1,exp2.png,exp1.png,1,3,reversed,incorrect,0.8503069199922272,0,valid_lose,673.0044205999002,48,,,,,,,,,,,,,,,,sub_1557,2025-02-26_14h22.44.231,Reversal,2022.1.2,59.875399335011366,1,
,,,exp1.png,,,,,,,,,,,,,,,,,1,0,1,0,,,,,0,0,0,0,0,0,0,0,,,,,,,,,,,,,,,,,,,,,,36.0,36.0,2.996834499761462,"[(36.0, 2.996834499761462)]",737.629572100006,None,,,,,,,,,,sub_1557,2025-02-26_14h22.44.231,Reversal,2022.1.2,59.875399335011366,1,
,,,exp2.png,,,,,,,,,,,,,,,,,1,0,1,0,,,,,0,0,0,0,0,1,1,1,,,,,,,,,,,,,,,,,,,,,,,56.0,3.333499200642109,"[(56.0, 3.333499200642109)]",742.4097020002082,None,56.0,,,,,,,,,sub_1557,2025-02-26_14h22.44.231,Reversal,2022.1.2,59.875399335011366,1,
,,,exp3.png,,,,,,,,,,,,,,,,,1,0,1,0,,,,,0,0,0,0,0,2,2,2,,,,,,,,,,,,,,,,,,,,,,,59.0,1.4675843995064497,"[(59.0, 1.4675843995064497)]",746.9248567000031,None,,59.0,,,,,,,,sub_1557,2025-02-26_14h22.44.231,Reversal,2022.1.2,59.875399335011366,1,
,,,exp4.png,,,,,,,,,,,,,,,,,1,0,1,0,,,,,0,0,0,0,0,3,3,3,,,,,,,,,,,,,,,,,,,,,,,44.0,1.4331706995144486,"[(44.0, 1.4331706995144486)]",749.7749642999843,None,,,44.0,,,,,,,sub_1557,2025-02-26_14h22.44.231,Reversal,2022.1.2,59.875399335011366,1,
0,exp1.png,exp2.png,,,,,,,,,,,,,,,,,,2,0,2,0,0,0,0,0,,,,,,,,,True,,,,,,,,,,,,,,,,,,,,,,,,,,,,,,,,,,,,sub_1557,2025-02-26_14h22.44.231,Reversal,2022.1.2,59.875399335011366,1,
1,exp3.png,exp4.png,,,,,,,,,,,,,,,,,,2,0,2,0,0,1,1,1,,,,,,,,,False,40,101,True,exp4.png,exp3.png,trial_right_image,-1,exp3.png,1,exp3.png,exp4.png,1,1,non-reversed,correct,0.5665683475292617,1,valid_win,692.6699943998829,49,,,,,,,,,,,,,,,,sub_1557,2025-02-26_14h22.44.231,Reversal,2022.1.2,59.875399335011366,1,
2,exp1.png,exp2.png,,,,,,,,,,,,,,,,,,2,0,2,0,0,2,2,2,,,,,,,,,False,41,102,False,exp1.png,exp2.png,trial_right_image,-1,exp2.png,1,exp2.png,exp1.png,0,4,reversed,correct,0.17602813517125193,0,invalid_lose,698.5200789999217,49,,,,,,,,,,,,,,,,sub_1557,2025-02-26_14h22.44.231,Reversal,2022.1.2,59.875399335011366,1,
3,exp3.png,exp4.png,,,,,,,,,,,,,,,,,,2,0,2,0,0,3,3,3,,,,,,,,,False,42,103,False,exp3.png,exp4.png,trial_left_image,1,exp3.png,1,exp3.png,exp4.png,1,1,non-reversed,correct,0.9302870915444479,1,valid_win,703.3039142992347,50,,,,,,,,,,,,,,,,sub_1557,2025-02-26_14h22.44.231,Reversal,2022.1.2,59.875399335011366,1,
4,exp1.png,exp2.png,,,,,,,,,,,,,,,,,,2,0,2,0,0,4,4,4,,,,,,,,,False,43,104,False,exp1.png,exp2.png,trial_left_image,1,exp1.png,1,exp2.png,exp1.png,1,3,reversed,incorrect,0.3109848477090975,0,valid_lose,708.9373288992792,50,,,,,,,,,,,,,,,,sub_1557,2025-02-26_14h22.44.231,Reversal,2022.1.2,59.875399335011366,1,
5,exp3.png,exp4.png,,,,,,,,,,,,,,,,,,2,0,2,0,0,5,5,5,,,,,,,,,False,44,105,True,exp4.png,exp3.png,trial_right_image,-1,exp3.png,1,exp3.png,exp4.png,1,1,non-reversed,correct,0.795055541229261,1,valid_win,714.3539184993133,51,,,,,,,,,,,,,,,,sub_1557,2025-02-26_14h22.44.231,Reversal,2022.1.2,59.875399335011366,1,
6,exp1.png,exp2.png,,,,,,,,,,,,,,,,,,2,0,2,0,0,6,6,6,,,,,,,,,False,45,106,True,exp2.png,exp1.png,trial_left_image,1,exp2.png,1,exp2.png,exp1.png,0,4,reversed,correct,0.1711922038766781,0,invalid_lose,720.2699768999591,51,,,,,,,,,,,,,,,,sub_1557,2025-02-26_14h22.44.231,Reversal,2022.1.2,59.875399335011366,1,
7,exp3.png,exp4.png,,,,,,,,,,,,,,,,,,2,0,2,0,0,7,7,7,,,,,,,,,False,46,107,False,exp3.png,exp4.png,trial_left_image,1,exp3.png,1,exp3.png,exp4.png,1,1,non-reversed,correct,0.21213380547955163,0,invalid_lose,725.2190263997763,51,,,,,,,,,,,,,,,,sub_1557,2025-02-26_14h22.44.231,Reversal,2022.1.2,59.875399335011366,1,
8,exp1.png,exp2.png,,,,,,,,,,,,,,,,,,2,0,2,0,0,8,8,8,,,,,,,,,False,47,108,True,exp2.png,exp1.png,trial_right_image,-1,exp1.png,1,exp2.png,exp1.png,1,3,reversed,incorrect,0.5356224311637912,0,valid_lose,730.3030460998416,51,,,,,,,,,,,,,,,,sub_1557,2025-02-26_14h22.44.231,Reversal,2022.1.2,59.875399335011366,1,
9,exp3.png,exp4.png,,,,,,,,,,,,,,,,,,2,0,2,0,0,9,9,9,,,,,,,,,False,48,109,True,exp4.png,exp3.png,trial_right_image,-1,exp3.png,1,exp3.png,exp4.png,1,1,non-reversed,correct,0.11191182306092118,0,invalid_lose,735.1532183997333,51,,,,,,,,,,,,,,,,sub_1557,2025-02-26_14h22.44.231,Reversal,2022.1.2,59.875399335011366,1,
10,exp1.png,exp2.png,,,,,,,,,,,,,,,,,,2,0,2,0,0,10,10,10,,,,,,,,,False,49,110,False,exp1.png,exp2.png,trial_left_image,1,exp1.png,1,exp2.png,exp1.png,1,3,reversed,incorrect,0.06932256360835554,1,invalid_win,739.8192386999726,52,,,,,,,,,,,,,,,,sub_1557,2025-02-26_14h22.44.231,Reversal,2022.1.2,59.875399335011366,1,
11,exp3.png,exp4.png,,,,,,,,,,,,,,,,,,2,0,2,0,0,11,11,11,,,,,,,,,False,50,111,False,exp3.png,exp4.png,trial_left_image,1,exp3.png,1,exp3.png,exp4.png,1,1,non-reversed,correct,0.5591082702396896,1,valid_win,744.5860560992733,53,,,,,,,,,,,,,,,,sub_1557,2025-02-26_14h22.44.231,Reversal,2022.1.2,59.875399335011366,1,
12,exp1.png,exp2.png,,,,,,,,,,,,,,,,,,2,0,2,0,0,12,12,12,,,,,,,,,False,51,112,False,exp1.png,exp2.png,trial_right_image,-1,exp2.png,1,exp2.png,exp1.png,0,4,reversed,correct,0.6658462516438965,1,valid_win,750.4361715996638,54,,,,,,,,,,,,,,,,sub_1557,2025-02-26_14h22.44.231,Reversal,2022.1.2,59.875399335011366,1,
13,exp3.png,exp4.png,,,,,,,,,,,,,,,,,,2,0,2,0,0,13,13,13,,,,,,,,,False,52,113,True,exp4.png,exp3.png,trial_right_image,-1,exp3.png,1,exp3.png,exp4.png,1,1,non-reversed,correct,0.5855655642732502,1,valid_win,755.7528047999367,55,,,,,,,,,,,,,,,,sub_1557,2025-02-26_14h22.44.231,Reversal,2022.1.2,59.875399335011366,1,
14,exp1.png,exp2.png,,,,,,,,,,,,,,,,,,2,0,2,0,0,14,14,14,,,,,,,,,False,53,114,True,exp2.png,exp1.png,trial_right_image,-1,exp1.png,1,exp2.png,exp1.png,1,3,reversed,incorrect,0.5792800055991161,0,valid_lose,761.9023088999093,55,,,,,,,,,,,,,,,,sub_1557,2025-02-26_14h22.44.231,Reversal,2022.1.2,59.875399335011366,1,
15,exp3.png,exp4.png,,,,,,,,,,,,,,,,,,2,0,2,0,0,15,15,15,,,,,,,,,False,54,115,True,exp4.png,exp3.png,trial_right_image,-1,exp3.png,1,exp3.png,exp4.png,1,1,non-reversed,correct,0.37748806851375627,1,valid_win,767.069204999134,56,,,,,,,,,,,,,,,,sub_1557,2025-02-26_14h22.44.231,Reversal,2022.1.2,59.875399335011366,1,
16,exp1.png,exp2.png,,,,,,,,,,,,,,,,,,2,0,2,0,0,16,16,16,,,,,,,,,False,55,116,False,exp1.png,exp2.png,trial_left_image,1,exp1.png,1,exp2.png,exp1.png,1,3,reversed,incorrect,0.6701240946483575,0,valid_lose,772.2026814995334,56,,,,,,,,,,,,,,,,sub_1557,2025-02-26_14h22.44.231,Reversal,2022.1.2,59.875399335011366,1,
17,exp3.png,exp4.png,,,,,,,,,,,,,,,,,,2,0,2,0,0,17,17,17,,,,,,,,,False,56,117,True,exp4.png,exp3.png,trial_right_image,-1,exp3.png,1,exp3.png,exp4.png,1,1,non-reversed,correct,0.5289001676493874,1,valid_win,777.7689742995426,57,,,,,,,,,,,,,,,,sub_1557,2025-02-26_14h22.44.231,Reversal,2022.1.2,59.875399335011366,1,
18,exp1.png,exp2.png,,,,,,,,,,,,,,,,,,2,0,2,0,0,18,18,18,,,,,,,,,False,57,118,True,exp2.png,exp1.png,trial_left_image,1,exp2.png,1,exp2.png,exp1.png,0,4,reversed,correct,0.20100408926308277,0,invalid_lose,784.0354901999235,57,,,,,,,,,,,,,,,,sub_1557,2025-02-26_14h22.44.231,Reversal,2022.1.2,59.875399335011366,1,
19,exp3.png,exp4.png,,,,,,,,,,,,,,,,,,2,0,2,0,0,19,19,19,,,,,,,,,False,58,119,False,exp3.png,exp4.png,trial_left_image,1,exp3.png,1,exp3.png,exp4.png,1,1,non-reversed,correct,0.7460268388820629,1,valid_win,789.3015510998666,58,,,,,,,,,,,,,,,,sub_1557,2025-02-26_14h22.44.231,Reversal,2022.1.2,59.875399335011366,1,
20,exp1.png,exp2.png,,,,,,,,,,,,,,,,,,2,0,2,0,0,20,20,20,,,,,,,,,False,59,120,False,exp1.png,exp2.png,trial_right_image,-1,exp2.png,1,exp2.png,exp1.png,0,4,reversed,correct,0.1891000083863148,0,invalid_lose,794.6856553992257,58,,,,,,,,,,,,,,,,sub_1557,2025-02-26_14h22.44.231,Reversal,2022.1.2,59.875399335011366,1,
,,,exp1.png,,,,,,,,,,,,,,,,,2,0,2,0,,,,,0,0,0,0,0,0,0,0,,,,,,,,,,,,,,,,,,,,,,54.0,54.0,3.3129428001120687,"[(54.0, 3.3129428001120687)]",859.3333839997649,None,,,,,,,,,,sub_1557,2025-02-26_14h22.44.231,Reversal,2022.1.2,59.875399335011366,1,
,,,exp2.png,,,,,,,,,,,,,,,,,2,0,2,0,,,,,0,0,0,0,0,1,1,1,,,,,,,,,,,,,,,,,,,,,,,44.0,3.3338476000353694,"[(44.0, 3.3338476000353694)]",864.2394326003268,None,44.0,,,,,,,,,sub_1557,2025-02-26_14h22.44.231,Reversal,2022.1.2,59.875399335011366,1,
,,,exp3.png,,,,,,,,,,,,,,,,,2,0,2,0,,,,,0,0,0,0,0,2,2,2,,,,,,,,,,,,,,,,,,,,,,,68.0,1.7505992008373141,"[(68.0, 1.7505992008373141)]",868.8055481994525,None,,68.0,,,,,,,,sub_1557,2025-02-26_14h22.44.231,Reversal,2022.1.2,59.875399335011366,1,
,,,exp4.png,,,,,,,,,,,,,,,,,2,0,2,0,,,,,0,0,0,0,0,3,3,3,,,,,,,,,,,,,,,,,,,,,,,53.0,1.9159431997686625,"[(53.0, 1.9159431997686625)]",871.9223234998062,None,,,53.0,,,,,,,sub_1557,2025-02-26_14h22.44.231,Reversal,2022.1.2,59.875399335011366,1,
,,,,,,,,,,,,,,,,,,,,,,,,,,,,,,,,,,,,,,,,,,,,,,,,,,,,,,,,58,,,,,,,,,,,74,37,37,376.4719801004976,0,,,,,,,
