trial_index,trial_image1_file,trial_image2_file,image_file,learning_outer_loop.thisRepN,learning_outer_loop.thisTrialN,learning_outer_loop.thisN,learning_outer_loop.thisIndex,learning_inner_loop.thisRepN,learning_inner_loop.thisTrialN,learning_inner_loop.thisN,learning_inner_loop.thisIndex,learning_estimation_outer_loop.thisRepN,learning_estimation_outer_loop.thisTrialN,learning_estimation_outer_loop.thisN,learning_estimation_outer_loop.thisIndex,learning_estimation_inner_loop.thisRepN,learning_estimation_inner_loop.thisTrialN,learning_estimation_inner_loop.thisN,learning_estimation_inner_loop.thisIndex,reversal_outer_loop.thisRepN,reversal_outer_loop.thisTrialN,reversal_outer_loop.thisN,reversal_outer_loop.thisIndex,reversal_inner_loop.thisRepN,reversal_inner_loop.thisTrialN,reversal_inner_loop.thisN,reversal_inner_loop.thisIndex,reversal_estimation_outer_loop.thisRepN,reversal_estimation_outer_loop.thisTrialN,reversal_estimation_outer_loop.thisN,reversal_estimation_outer_loop.thisIndex,reversal_estimation_inner_loop.thisRepN,reversal_estimation_inner_loop.thisTrialN,reversal_estimation_inner_loop.thisN,reversal_estimation_inner_loop.thisIndex,skipped,total_trial_counter,trial_num,left_right_flip,left_image_file,right_image_file,clicked_stimulus_side,side,clicked_stimulus,version,high_prob_image_file,low_prob_image_file,choice_a,choice_b,pair_type,correct,trial_feedback_random,reward,trial_type,overall_time_after_trial,score,estimation_rating.started,estimation_rating.response,estimation_rating.rt,estimation_rating.history,estimation_exp2.png,estimation_exp1.png,estimation_exp3.png,estimation_exp4.png,total_learning_time,total_correct,learning_correct,reversal_correct,total_reversal_time,extra_block,participant,date,expName,psychopyVersion,frameRate,ver,
0,exp1.png,exp2.png,,0,0,0,0,0,0,0,0,,,,,,,,,,,,,,,,,,,,,,,,,False,0,1,False,exp1.png,exp2.png,trial_right_image,-1,exp2.png,1,exp1.png,exp2.png,0,4,reversed,incorrect,0.2252078196910593,1,invalid_win,2.664464199999202,1,,,,,,,,,,,,,,,sub_953,2024-06-16_15h30.34.653,Reversal,2023.1.3,60.085357258389095,1,
1,exp3.png,exp4.png,,0,0,0,0,0,1,1,1,,,,,,,,,,,,,,,,,,,,,,,,,False,1,2,True,exp4.png,exp3.png,trial_right_image,-1,exp3.png,1,exp3.png,exp4.png,1,1,non-reversed,correct,0.5544493719268252,1,valid_win,7.696902100000443,2,,,,,,,,,,,,,,,sub_953,2024-06-16_15h30.34.653,Reversal,2023.1.3,60.085357258389095,1,
2,exp1.png,exp2.png,,0,0,0,0,0,2,2,2,,,,,,,,,,,,,,,,,,,,,,,,,False,2,3,True,exp2.png,exp1.png,trial_left_image,1,exp2.png,1,exp1.png,exp2.png,0,4,reversed,incorrect,0.2622766236229217,0,valid_lose,12.39456169999903,2,,,,,,,,,,,,,,,sub_953,2024-06-16_15h30.34.653,Reversal,2023.1.3,60.085357258389095,1,
3,exp3.png,exp4.png,,0,0,0,0,0,3,3,3,,,,,,,,,,,,,,,,,,,,,,,,,False,3,4,True,exp4.png,exp3.png,trial_left_image,1,exp4.png,1,exp3.png,exp4.png,0,2,non-reversed,incorrect,0.7260569474523246,0,valid_lose,16.693466500000795,2,,,,,,,,,,,,,,,sub_953,2024-06-16_15h30.34.653,Reversal,2023.1.3,60.085357258389095,1,
4,exp1.png,exp2.png,,0,0,0,0,0,4,4,4,,,,,,,,,,,,,,,,,,,,,,,,,False,4,5,False,exp1.png,exp2.png,trial_right_image,-1,exp2.png,1,exp1.png,exp2.png,0,4,reversed,incorrect,0.7173968111404785,0,valid_lose,20.575091499998962,2,,,,,,,,,,,,,,,sub_953,2024-06-16_15h30.34.653,Reversal,2023.1.3,60.085357258389095,1,
5,exp3.png,exp4.png,,0,0,0,0,0,5,5,5,,,,,,,,,,,,,,,,,,,,,,,,,False,5,6,True,exp4.png,exp3.png,trial_right_image,-1,exp3.png,1,exp3.png,exp4.png,1,1,non-reversed,correct,0.6586326868251241,1,valid_win,24.523721500001557,3,,,,,,,,,,,,,,,sub_953,2024-06-16_15h30.34.653,Reversal,2023.1.3,60.085357258389095,1,
6,exp1.png,exp2.png,,0,0,0,0,0,6,6,6,,,,,,,,,,,,,,,,,,,,,,,,,False,6,7,True,exp2.png,exp1.png,trial_right_image,-1,exp1.png,1,exp1.png,exp2.png,1,3,reversed,correct,0.0913734399195697,0,invalid_lose,28.58903260000079,3,,,,,,,,,,,,,,,sub_953,2024-06-16_15h30.34.653,Reversal,2023.1.3,60.085357258389095,1,
7,exp3.png,exp4.png,,0,0,0,0,0,7,7,7,,,,,,,,,,,,,,,,,,,,,,,,,False,7,8,True,exp4.png,exp3.png,trial_right_image,-1,exp3.png,1,exp3.png,exp4.png,1,1,non-reversed,correct,0.9797421657307027,1,valid_win,32.48740840000028,4,,,,,,,,,,,,,,,sub_953,2024-06-16_15h30.34.653,Reversal,2023.1.3,60.085357258389095,1,
8,exp1.png,exp2.png,,0,0,0,0,0,8,8,8,,,,,,,,,,,,,,,,,,,,,,,,,False,8,9,False,exp1.png,exp2.png,trial_left_image,1,exp1.png,1,exp1.png,exp2.png,1,3,reversed,correct,0.44045720919043707,1,valid_win,36.80329200000051,5,,,,,,,,,,,,,,,sub_953,2024-06-16_15h30.34.653,Reversal,2023.1.3,60.085357258389095,1,
9,exp3.png,exp4.png,,0,0,0,0,0,9,9,9,,,,,,,,,,,,,,,,,,,,,,,,,False,9,10,False,exp3.png,exp4.png,trial_right_image,-1,exp4.png,1,exp3.png,exp4.png,0,2,non-reversed,incorrect,0.861612206616279,0,valid_lose,40.85213980000117,5,,,,,,,,,,,,,,,sub_953,2024-06-16_15h30.34.653,Reversal,2023.1.3,60.085357258389095,1,
10,exp1.png,exp2.png,,0,0,0,0,0,10,10,10,,,,,,,,,,,,,,,,,,,,,,,,,False,10,11,False,exp1.png,exp2.png,trial_right_image,-1,exp2.png,1,exp1.png,exp2.png,0,4,reversed,incorrect,0.6122681404676994,0,valid_lose,44.76679480000166,5,,,,,,,,,,,,,,,sub_953,2024-06-16_15h30.34.653,Reversal,2023.1.3,60.085357258389095,1,
11,exp3.png,exp4.png,,0,0,0,0,0,11,11,11,,,,,,,,,,,,,,,,,,,,,,,,,False,11,12,False,exp3.png,exp4.png,trial_right_image,-1,exp4.png,1,exp3.png,exp4.png,0,2,non-reversed,incorrect,0.6203283483605542,0,valid_lose,48.61544380000123,5,,,,,,,,,,,,,,,sub_953,2024-06-16_15h30.34.653,Reversal,2023.1.3,60.085357258389095,1,
12,exp1.png,exp2.png,,0,0,0,0,0,12,12,12,,,,,,,,,,,,,,,,,,,,,,,,,False,12,13,False,exp1.png,exp2.png,trial_right_image,-1,exp2.png,1,exp1.png,exp2.png,0,4,reversed,incorrect,0.6381617466971993,0,valid_lose,52.397406000000046,5,,,,,,,,,,,,,,,sub_953,2024-06-16_15h30.34.653,Reversal,2023.1.3,60.085357258389095,1,
13,exp3.png,exp4.png,,0,0,0,0,0,13,13,13,,,,,,,,,,,,,,,,,,,,,,,,,False,13,14,True,exp4.png,exp3.png,trial_left_image,1,exp4.png,1,exp3.png,exp4.png,0,2,non-reversed,incorrect,0.6195941557254424,0,valid_lose,56.429706999999325,5,,,,,,,,,,,,,,,sub_953,2024-06-16_15h30.34.653,Reversal,2023.1.3,60.085357258389095,1,
14,exp1.png,exp2.png,,0,0,0,0,0,14,14,14,,,,,,,,,,,,,,,,,,,,,,,,,False,14,15,False,exp1.png,exp2.png,trial_right_image,-1,exp2.png,1,exp1.png,exp2.png,0,4,reversed,incorrect,0.34000443266843894,0,valid_lose,60.14528900000005,5,,,,,,,,,,,,,,,sub_953,2024-06-16_15h30.34.653,Reversal,2023.1.3,60.085357258389095,1,
15,exp3.png,exp4.png,,0,0,0,0,0,15,15,15,,,,,,,,,,,,,,,,,,,,,,,,,False,15,16,True,exp4.png,exp3.png,trial_right_image,-1,exp3.png,1,exp3.png,exp4.png,1,1,non-reversed,correct,0.11808077356860258,0,invalid_lose,65.4600285000015,5,,,,,,,,,,,,,,,sub_953,2024-06-16_15h30.34.653,Reversal,2023.1.3,60.085357258389095,1,
16,exp1.png,exp2.png,,0,0,0,0,0,16,16,16,,,,,,,,,,,,,,,,,,,,,,,,,False,16,17,True,exp2.png,exp1.png,trial_left_image,1,exp2.png,1,exp1.png,exp2.png,0,4,reversed,incorrect,0.4979165173336765,0,valid_lose,71.57450370000151,5,,,,,,,,,,,,,,,sub_953,2024-06-16_15h30.34.653,Reversal,2023.1.3,60.085357258389095,1,
17,exp3.png,exp4.png,,0,0,0,0,0,17,17,17,,,,,,,,,,,,,,,,,,,,,,,,,False,17,18,False,exp3.png,exp4.png,trial_left_image,1,exp3.png,1,exp3.png,exp4.png,1,1,non-reversed,correct,0.1182151603753504,0,invalid_lose,77.322564099999,5,,,,,,,,,,,,,,,sub_953,2024-06-16_15h30.34.653,Reversal,2023.1.3,60.085357258389095,1,
18,exp1.png,exp2.png,,0,0,0,0,0,18,18,18,,,,,,,,,,,,,,,,,,,,,,,,,False,18,19,False,exp1.png,exp2.png,trial_left_image,1,exp1.png,1,exp1.png,exp2.png,1,3,reversed,correct,0.6823291549867293,1,valid_win,81.28795170000012,6,,,,,,,,,,,,,,,sub_953,2024-06-16_15h30.34.653,Reversal,2023.1.3,60.085357258389095,1,
19,exp3.png,exp4.png,,0,0,0,0,0,19,19,19,,,,,,,,,,,,,,,,,,,,,,,,,False,19,20,True,exp4.png,exp3.png,trial_right_image,-1,exp3.png,1,exp3.png,exp4.png,1,1,non-reversed,correct,0.6388083590207002,1,valid_win,86.46957610000027,7,,,,,,,,,,,,,,,sub_953,2024-06-16_15h30.34.653,Reversal,2023.1.3,60.085357258389095,1,
20,exp1.png,exp2.png,,0,0,0,0,0,20,20,20,,,,,,,,,,,,,,,,,,,,,,,,,True,,,,,,,,,,,,,,,,,,,,,,,,,,,,,,,,,,,sub_953,2024-06-16_15h30.34.653,Reversal,2023.1.3,60.085357258389095,1,
,,,exp1.png,0,0,0,0,,,,,0,0,0,0,0,0,0,0,,,,,,,,,,,,,,,,,,,,,,,,,,,,,,,,,,,,,,166.16748120000193,None,None,[],,,,,,,,,,,sub_953,2024-06-16_15h30.34.653,Reversal,2023.1.3,60.085357258389095,1,
,,,exp2.png,0,0,0,0,,,,,0,0,0,0,0,1,1,1,,,,,,,,,,,,,,,,,,,,,,,,,,,,,,,,,,,,,,171.30671449999863,62.0,4.028657200000453,"[(62.0, 4.028657200000453)]",62.0,,,,,,,,,,sub_953,2024-06-16_15h30.34.653,Reversal,2023.1.3,60.085357258389095,1,
,,,exp3.png,0,0,0,0,,,,,0,0,0,0,0,2,2,2,,,,,,,,,,,,,,,,,,,,,,,,,,,,,,,,,,,,,,176.65413470000203,None,None,[],,,,,,,,,,,sub_953,2024-06-16_15h30.34.653,Reversal,2023.1.3,60.085357258389095,1,
,,,exp4.png,0,0,0,0,,,,,0,0,0,0,0,3,3,3,,,,,,,,,,,,,,,,,,,,,,,,,,,,,,,,,,,,,,177.88794169999892,None,None,[],,,,,,,,,,,sub_953,2024-06-16_15h30.34.653,Reversal,2023.1.3,60.085357258389095,1,
0,exp1.png,exp2.png,,1,0,1,0,0,0,0,0,,,,,,,,,,,,,,,,,,,,,,,,,False,20,21,True,exp2.png,exp1.png,trial_left_image,1,exp2.png,1,exp1.png,exp2.png,0,4,reversed,incorrect,0.3900461136064527,0,valid_lose,108.07882040000186,7,,,,,,,,,,,,,,,sub_953,2024-06-16_15h30.34.653,Reversal,2023.1.3,60.085357258389095,1,
1,exp3.png,exp4.png,,1,0,1,0,0,1,1,1,,,,,,,,,,,,,,,,,,,,,,,,,False,21,22,False,exp3.png,exp4.png,trial_right_image,-1,exp4.png,1,exp3.png,exp4.png,0,2,non-reversed,incorrect,0.14799484051252842,1,invalid_win,114.99344539999947,8,,,,,,,,,,,,,,,sub_953,2024-06-16_15h30.34.653,Reversal,2023.1.3,60.085357258389095,1,
2,exp1.png,exp2.png,,1,0,1,0,0,2,2,2,,,,,,,,,,,,,,,,,,,,,,,,,False,22,23,True,exp2.png,exp1.png,trial_right_image,-1,exp1.png,1,exp1.png,exp2.png,1,3,reversed,correct,0.7867435213180923,1,valid_win,121.69112700000187,9,,,,,,,,,,,,,,,sub_953,2024-06-16_15h30.34.653,Reversal,2023.1.3,60.085357258389095,1,
3,exp3.png,exp4.png,,1,0,1,0,0,3,3,3,,,,,,,,,,,,,,,,,,,,,,,,,False,23,24,True,exp4.png,exp3.png,trial_left_image,1,exp4.png,1,exp3.png,exp4.png,0,2,non-reversed,incorrect,0.430437563026277,0,valid_lose,126.77343920000203,9,,,,,,,,,,,,,,,sub_953,2024-06-16_15h30.34.653,Reversal,2023.1.3,60.085357258389095,1,
4,exp1.png,exp2.png,,1,0,1,0,0,4,4,4,,,,,,,,,,,,,,,,,,,,,,,,,False,24,25,False,exp1.png,exp2.png,trial_left_image,1,exp1.png,1,exp1.png,exp2.png,1,3,reversed,correct,0.8666171909325701,1,valid_win,131.57073630000014,10,,,,,,,,,,,,,,,sub_953,2024-06-16_15h30.34.653,Reversal,2023.1.3,60.085357258389095,1,
5,exp3.png,exp4.png,,1,0,1,0,0,5,5,5,,,,,,,,,,,,,,,,,,,,,,,,,False,25,26,True,exp4.png,exp3.png,trial_left_image,1,exp4.png,1,exp3.png,exp4.png,0,2,non-reversed,incorrect,0.9347583386891508,0,valid_lose,138.05278629999884,10,,,,,,,,,,,,,,,sub_953,2024-06-16_15h30.34.653,Reversal,2023.1.3,60.085357258389095,1,
6,exp1.png,exp2.png,,1,0,1,0,0,6,6,6,,,,,,,,,,,,,,,,,,,,,,,,,False,26,27,True,exp2.png,exp1.png,trial_right_image,-1,exp1.png,1,exp1.png,exp2.png,1,3,reversed,correct,0.21054252330263445,0,invalid_lose,142.61743790000037,10,,,,,,,,,,,,,,,sub_953,2024-06-16_15h30.34.653,Reversal,2023.1.3,60.085357258389095,1,
7,exp3.png,exp4.png,,1,0,1,0,0,7,7,7,,,,,,,,,,,,,,,,,,,,,,,,,False,27,28,False,exp3.png,exp4.png,trial_right_image,-1,exp4.png,1,exp3.png,exp4.png,0,2,non-reversed,incorrect,0.6116813533516081,0,valid_lose,148.79858690000037,10,,,,,,,,,,,,,,,sub_953,2024-06-16_15h30.34.653,Reversal,2023.1.3,60.085357258389095,1,
8,exp1.png,exp2.png,,1,0,1,0,0,8,8,8,,,,,,,,,,,,,,,,,,,,,,,,,False,28,29,True,exp2.png,exp1.png,trial_right_image,-1,exp1.png,1,exp1.png,exp2.png,1,3,reversed,correct,0.9275331262442005,1,valid_win,153.59753590000037,11,,,,,,,,,,,,,,,sub_953,2024-06-16_15h30.34.653,Reversal,2023.1.3,60.085357258389095,1,
9,exp3.png,exp4.png,,1,0,1,0,0,9,9,9,,,,,,,,,,,,,,,,,,,,,,,,,False,29,30,False,exp3.png,exp4.png,trial_left_image,1,exp3.png,1,exp3.png,exp4.png,1,1,non-reversed,correct,0.808002303554138,1,valid_win,160.56127220000053,12,,,,,,,,,,,,,,,sub_953,2024-06-16_15h30.34.653,Reversal,2023.1.3,60.085357258389095,1,
10,exp1.png,exp2.png,,1,0,1,0,0,10,10,10,,,,,,,,,,,,,,,,,,,,,,,,,False,30,31,True,exp2.png,exp1.png,trial_right_image,-1,exp1.png,1,exp1.png,exp2.png,1,3,reversed,correct,0.388815707637985,1,valid_win,166.5757479999993,13,,,,,,,,,,,,,,,sub_953,2024-06-16_15h30.34.653,Reversal,2023.1.3,60.085357258389095,1,
11,exp3.png,exp4.png,,1,0,1,0,0,11,11,11,,,,,,,,,,,,,,,,,,,,,,,,,False,31,32,False,exp3.png,exp4.png,trial_left_image,1,exp3.png,1,exp3.png,exp4.png,1,1,non-reversed,correct,0.9962812640310847,1,valid_win,170.90742619999946,14,,,,,,,,,,,,,,,sub_953,2024-06-16_15h30.34.653,Reversal,2023.1.3,60.085357258389095,1,
12,exp1.png,exp2.png,,1,0,1,0,0,12,12,12,,,,,,,,,,,,,,,,,,,,,,,,,False,32,33,True,exp2.png,exp1.png,trial_right_image,-1,exp1.png,1,exp1.png,exp2.png,1,3,reversed,correct,0.39012671729119963,1,valid_win,176.03928789999918,15,,,,,,,,,,,,,,,sub_953,2024-06-16_15h30.34.653,Reversal,2023.1.3,60.085357258389095,1,
13,exp3.png,exp4.png,,1,0,1,0,0,13,13,13,,,,,,,,,,,,,,,,,,,,,,,,,False,33,34,False,exp3.png,exp4.png,trial_left_image,1,exp3.png,1,exp3.png,exp4.png,1,1,non-reversed,correct,0.6334519857002014,1,valid_win,181.32097970000177,16,,,,,,,,,,,,,,,sub_953,2024-06-16_15h30.34.653,Reversal,2023.1.3,60.085357258389095,1,
14,exp1.png,exp2.png,,1,0,1,0,0,14,14,14,,,,,,,,,,,,,,,,,,,,,,,,,False,34,35,True,exp2.png,exp1.png,trial_right_image,-1,exp1.png,1,exp1.png,exp2.png,1,3,reversed,correct,0.8567259408398538,1,valid_win,185.70290920000116,17,,,,,,,,,,,,,,,sub_953,2024-06-16_15h30.34.653,Reversal,2023.1.3,60.085357258389095,1,
15,exp3.png,exp4.png,,1,0,1,0,0,15,15,15,,,,,,,,,,,,,,,,,,,,,,,,,False,35,36,True,exp4.png,exp3.png,trial_right_image,-1,exp3.png,1,exp3.png,exp4.png,1,1,non-reversed,correct,0.18640440133408687,0,invalid_lose,190.50134719999915,17,,,,,,,,,,,,,,,sub_953,2024-06-16_15h30.34.653,Reversal,2023.1.3,60.085357258389095,1,
16,exp1.png,exp2.png,,1,0,1,0,0,16,16,16,,,,,,,,,,,,,,,,,,,,,,,,,False,36,37,False,exp1.png,exp2.png,trial_left_image,1,exp1.png,1,exp1.png,exp2.png,1,3,reversed,correct,0.9692745188689305,1,valid_win,195.11674829999902,18,,,,,,,,,,,,,,,sub_953,2024-06-16_15h30.34.653,Reversal,2023.1.3,60.085357258389095,1,
17,exp3.png,exp4.png,,1,0,1,0,0,17,17,17,,,,,,,,,,,,,,,,,,,,,,,,,False,37,38,False,exp3.png,exp4.png,trial_left_image,1,exp3.png,1,exp3.png,exp4.png,1,1,non-reversed,correct,0.2469628338387948,0,invalid_lose,200.34756370000105,18,,,,,,,,,,,,,,,sub_953,2024-06-16_15h30.34.653,Reversal,2023.1.3,60.085357258389095,1,
18,exp1.png,exp2.png,,1,0,1,0,0,18,18,18,,,,,,,,,,,,,,,,,,,,,,,,,False,38,39,False,exp1.png,exp2.png,trial_left_image,1,exp1.png,1,exp1.png,exp2.png,1,3,reversed,correct,0.7257026093785602,1,valid_win,204.74603990000105,19,,,,,,,,,,,,,,,sub_953,2024-06-16_15h30.34.653,Reversal,2023.1.3,60.085357258389095,1,
19,exp3.png,exp4.png,,1,0,1,0,0,19,19,19,,,,,,,,,,,,,,,,,,,,,,,,,False,39,40,False,exp3.png,exp4.png,trial_right_image,-1,exp4.png,1,exp3.png,exp4.png,0,2,non-reversed,incorrect,0.7873916844941805,0,valid_lose,209.34462060000078,19,,,,,,,,,,,,,,,sub_953,2024-06-16_15h30.34.653,Reversal,2023.1.3,60.085357258389095,1,
20,exp1.png,exp2.png,,1,0,1,0,0,20,20,20,,,,,,,,,,,,,,,,,,,,,,,,,True,,,,,,,,,,,,,,,,,,,,,,,,,,,,,,,,,,,sub_953,2024-06-16_15h30.34.653,Reversal,2023.1.3,60.085357258389095,1,
,,,exp1.png,1,0,1,0,,,,,0,0,0,0,0,0,0,0,,,,,,,,,,,,,,,,,,,,,,,,,,,,,,,,,,,,,,289.04716610000105,100.0,2.7679276000017126,"[(100.0, 2.7679276000017126)]",,100.0,,,,,,,,,sub_953,2024-06-16_15h30.34.653,Reversal,2023.1.3,60.085357258389095,1,
,,,exp2.png,1,0,1,0,,,,,0,0,0,0,0,1,1,1,,,,,,,,,,,,,,,,,,,,,,,,,,,,,,,,,,,,,,293.7185066999991,1.0,2.7748183000003337,"[(1.0, 2.7748183000003337)]",1.0,,,,,,,,,,sub_953,2024-06-16_15h30.34.653,Reversal,2023.1.3,60.085357258389095,1,
,,,exp3.png,1,0,1,0,,,,,0,0,0,0,0,2,2,2,,,,,,,,,,,,,,,,,,,,,,,,,,,,,,,,,,,,,,297.813537500002,None,None,[],,,,,,,,,,,sub_953,2024-06-16_15h30.34.653,Reversal,2023.1.3,60.085357258389095,1,
,,,exp4.png,1,0,1,0,,,,,0,0,0,0,0,3,3,3,,,,,,,,,,,,,,,,,,,,,,,,,,,,,,,,,,,,,,299.26343479999923,None,None,[],,,,,,,,,,,sub_953,2024-06-16_15h30.34.653,Reversal,2023.1.3,60.085357258389095,1,
0,exp1.png,exp2.png,,2,0,2,0,0,0,0,0,,,,,,,,,,,,,,,,,,,,,,,,,False,40,41,False,exp1.png,exp2.png,trial_left_image,1,exp1.png,1,exp1.png,exp2.png,1,3,reversed,correct,0.88410564819654,1,valid_win,225.73919110000134,20,,,,,,,,,,,,,,,sub_953,2024-06-16_15h30.34.653,Reversal,2023.1.3,60.085357258389095,1,
1,exp3.png,exp4.png,,2,0,2,0,0,1,1,1,,,,,,,,,,,,,,,,,,,,,,,,,False,41,42,False,exp3.png,exp4.png,trial_left_image,1,exp3.png,1,exp3.png,exp4.png,1,1,non-reversed,correct,0.5762196394343556,1,valid_win,230.7376159000014,21,,,,,,,,,,,,,,,sub_953,2024-06-16_15h30.34.653,Reversal,2023.1.3,60.085357258389095,1,
2,exp1.png,exp2.png,,2,0,2,0,0,2,2,2,,,,,,,,,,,,,,,,,,,,,,,,,False,42,43,False,exp1.png,exp2.png,trial_left_image,1,exp1.png,1,exp1.png,exp2.png,1,3,reversed,correct,0.7886461716804688,1,valid_win,235.23595240000213,22,,,,,,,,,,,,,,,sub_953,2024-06-16_15h30.34.653,Reversal,2023.1.3,60.085357258389095,1,
3,exp3.png,exp4.png,,2,0,2,0,0,3,3,3,,,,,,,,,,,,,,,,,,,,,,,,,False,43,44,False,exp3.png,exp4.png,trial_left_image,1,exp3.png,1,exp3.png,exp4.png,1,1,non-reversed,correct,0.9746861258962747,1,valid_win,239.56811369999923,23,,,,,,,,,,,,,,,sub_953,2024-06-16_15h30.34.653,Reversal,2023.1.3,60.085357258389095,1,
4,exp1.png,exp2.png,,2,0,2,0,0,4,4,4,,,,,,,,,,,,,,,,,,,,,,,,,False,44,45,False,exp1.png,exp2.png,trial_left_image,1,exp1.png,1,exp1.png,exp2.png,1,3,reversed,correct,0.8188707447336415,1,valid_win,243.71673910000027,24,,,,,,,,,,,,,,,sub_953,2024-06-16_15h30.34.653,Reversal,2023.1.3,60.085357258389095,1,
5,exp3.png,exp4.png,,2,0,2,0,0,5,5,5,,,,,,,,,,,,,,,,,,,,,,,,,False,45,46,True,exp4.png,exp3.png,trial_right_image,-1,exp3.png,1,exp3.png,exp4.png,1,1,non-reversed,correct,0.3058966871013732,1,valid_win,248.11510400000043,25,,,,,,,,,,,,,,,sub_953,2024-06-16_15h30.34.653,Reversal,2023.1.3,60.085357258389095,1,
6,exp1.png,exp2.png,,2,0,2,0,0,6,6,6,,,,,,,,,,,,,,,,,,,,,,,,,False,46,47,True,exp2.png,exp1.png,trial_right_image,-1,exp1.png,1,exp1.png,exp2.png,1,3,reversed,correct,0.12216481715237293,0,invalid_lose,252.38004960000035,25,,,,,,,,,,,,,,,sub_953,2024-06-16_15h30.34.653,Reversal,2023.1.3,60.085357258389095,1,
7,exp3.png,exp4.png,,2,0,2,0,0,7,7,7,,,,,,,,,,,,,,,,,,,,,,,,,False,47,48,False,exp3.png,exp4.png,trial_left_image,1,exp3.png,1,exp3.png,exp4.png,1,1,non-reversed,correct,0.9724944127699827,1,valid_win,256.72889790000045,26,,,,,,,,,,,,,,,sub_953,2024-06-16_15h30.34.653,Reversal,2023.1.3,60.085357258389095,1,
8,exp1.png,exp2.png,,2,0,2,0,0,8,8,8,,,,,,,,,,,,,,,,,,,,,,,,,False,48,49,True,exp2.png,exp1.png,trial_right_image,-1,exp1.png,1,exp1.png,exp2.png,1,3,reversed,correct,0.4573075909451546,1,valid_win,261.5273291000012,27,,,,,,,,,,,,,,,sub_953,2024-06-16_15h30.34.653,Reversal,2023.1.3,60.085357258389095,1,
9,exp3.png,exp4.png,,2,0,2,0,0,9,9,9,,,,,,,,,,,,,,,,,,,,,,,,,False,49,50,True,exp4.png,exp3.png,trial_right_image,-1,exp3.png,1,exp3.png,exp4.png,1,1,non-reversed,correct,0.704486787529695,1,valid_win,265.9591246000018,28,,,,,,,,,,,,,,,sub_953,2024-06-16_15h30.34.653,Reversal,2023.1.3,60.085357258389095,1,
10,exp1.png,exp2.png,,2,0,2,0,0,10,10,10,,,,,,,,,,,,,,,,,,,,,,,,,False,50,51,True,exp2.png,exp1.png,trial_right_image,-1,exp1.png,1,exp1.png,exp2.png,1,3,reversed,correct,0.6068935926319041,1,valid_win,273.02302169999894,29,,,,,,,,,,,,,,,sub_953,2024-06-16_15h30.34.653,Reversal,2023.1.3,60.085357258389095,1,
11,exp3.png,exp4.png,,2,0,2,0,0,11,11,11,,,,,,,,,,,,,,,,,,,,,,,,,False,51,52,True,exp4.png,exp3.png,trial_right_image,-1,exp3.png,1,exp3.png,exp4.png,1,1,non-reversed,correct,0.7219236768560567,1,valid_win,277.08864489999905,30,,,,,,,,,,,,,,,sub_953,2024-06-16_15h30.34.653,Reversal,2023.1.3,60.085357258389095,1,
12,exp1.png,exp2.png,,2,0,2,0,0,12,12,12,,,,,,,,,,,,,,,,,,,,,,,,,False,52,53,True,exp2.png,exp1.png,trial_right_image,-1,exp1.png,1,exp1.png,exp2.png,1,3,reversed,correct,0.3329412945575717,1,valid_win,281.4533955000006,31,,,,,,,,,,,,,,,sub_953,2024-06-16_15h30.34.653,Reversal,2023.1.3,60.085357258389095,1,
13,exp3.png,exp4.png,,2,0,2,0,0,13,13,13,,,,,,,,,,,,,,,,,,,,,,,,,False,53,54,False,exp3.png,exp4.png,trial_left_image,1,exp3.png,1,exp3.png,exp4.png,1,1,non-reversed,correct,0.4077035896862098,1,valid_win,285.6521580000008,32,,,,,,,,,,,,,,,sub_953,2024-06-16_15h30.34.653,Reversal,2023.1.3,60.085357258389095,1,
14,exp1.png,exp2.png,,2,0,2,0,0,14,14,14,,,,,,,,,,,,,,,,,,,,,,,,,False,54,55,False,exp1.png,exp2.png,trial_left_image,1,exp1.png,1,exp1.png,exp2.png,1,3,reversed,correct,0.4682177649288588,1,valid_win,289.80113650000203,33,,,,,,,,,,,,,,,sub_953,2024-06-16_15h30.34.653,Reversal,2023.1.3,60.085357258389095,1,
15,exp3.png,exp4.png,,2,0,2,0,0,15,15,15,,,,,,,,,,,,,,,,,,,,,,,,,False,55,56,True,exp4.png,exp3.png,trial_right_image,-1,exp3.png,1,exp3.png,exp4.png,1,1,non-reversed,correct,0.7632349935254762,1,valid_win,294.2827964999997,34,,,,,,,,,,,,,,,sub_953,2024-06-16_15h30.34.653,Reversal,2023.1.3,60.085357258389095,1,
16,exp1.png,exp2.png,,2,0,2,0,0,16,16,16,,,,,,,,,,,,,,,,,,,,,,,,,False,56,57,False,exp1.png,exp2.png,trial_left_image,1,exp1.png,1,exp1.png,exp2.png,1,3,reversed,correct,0.2820832888319159,1,valid_win,298.68088609999904,35,,,,,,,,,,,,,,,sub_953,2024-06-16_15h30.34.653,Reversal,2023.1.3,60.085357258389095,1,
17,exp3.png,exp4.png,,2,0,2,0,0,17,17,17,,,,,,,,,,,,,,,,,,,,,,,,,False,57,58,True,exp4.png,exp3.png,trial_right_image,-1,exp3.png,1,exp3.png,exp4.png,1,1,non-reversed,correct,0.7098182466194302,1,valid_win,302.91295549999995,36,,,,,,,,,,,,,,,sub_953,2024-06-16_15h30.34.653,Reversal,2023.1.3,60.085357258389095,1,
18,exp1.png,exp2.png,,2,0,2,0,0,18,18,18,,,,,,,,,,,,,,,,,,,,,,,,,False,58,59,True,exp2.png,exp1.png,trial_right_image,-1,exp1.png,1,exp1.png,exp2.png,1,3,reversed,correct,0.4846653142760903,1,valid_win,307.1285484,37,,,,,,,,,,,,,,,sub_953,2024-06-16_15h30.34.653,Reversal,2023.1.3,60.085357258389095,1,
19,exp3.png,exp4.png,,2,0,2,0,0,19,19,19,,,,,,,,,,,,,,,,,,,,,,,,,False,59,60,False,exp3.png,exp4.png,trial_left_image,1,exp3.png,1,exp3.png,exp4.png,1,1,non-reversed,correct,0.4713715996783818,1,valid_win,311.49356510000143,38,,,,,,,,,,,,,,,sub_953,2024-06-16_15h30.34.653,Reversal,2023.1.3,60.085357258389095,1,
20,exp1.png,exp2.png,,2,0,2,0,0,20,20,20,,,,,,,,,,,,,,,,,,,,,,,,,True,,,,,,,,,,,,,,,,,,,,,,,,,,,,,,,,,,,sub_953,2024-06-16_15h30.34.653,Reversal,2023.1.3,60.085357258389095,1,
,,,exp1.png,2,0,2,0,,,,,0,0,0,0,0,0,0,0,,,,,,,,,,,,,,,,,,,,,,,,,,,,,,,,,,,,,,391.20122130000163,100.0,2.4981007000023965,"[(100.0, 2.4981007000023965)]",,100.0,,,,,,,,,sub_953,2024-06-16_15h30.34.653,Reversal,2023.1.3,60.085357258389095,1,
,,,exp2.png,2,0,2,0,,,,,0,0,0,0,0,1,1,1,,,,,,,,,,,,,,,,,,,,,,,,,,,,,,,,,,,,,,394.96326300000146,1.0,1.910212099999626,"[(1.0, 1.910212099999626)]",1.0,,,,,,,,,,sub_953,2024-06-16_15h30.34.653,Reversal,2023.1.3,60.085357258389095,1,
,,,exp3.png,2,0,2,0,,,,,0,0,0,0,0,2,2,2,,,,,,,,,,,,,,,,,,,,,,,,,,,,,,,,,,,,,,399.21272690000114,100.0,1.5450395999978355,"[(100.0, 1.5450395999978355)]",,,100.0,,,,,,,,sub_953,2024-06-16_15h30.34.653,Reversal,2023.1.3,60.085357258389095,1,
,,,exp4.png,2,0,2,0,,,,,0,0,0,0,0,3,3,3,,,,,,,,,,,,,,,,,,,,,,,,,,,,,,,,,,,,,,402.99511859999984,3.0,1.17903540000043,"[(3.0, 1.17903540000043)]",,,,3.0,,,,,,,sub_953,2024-06-16_15h30.34.653,Reversal,2023.1.3,60.085357258389095,1,
0,exp1.png,exp2.png,,,,,,,,,,,,,,,,,,0,0,0,0,0,0,0,0,,,,,,,,,False,0,61,False,exp1.png,exp2.png,trial_left_image,1,exp1.png,1,exp2.png,exp1.png,1,3,reversed,incorrect,0.8291904552026449,0,valid_lose,331.23702570000023,38,,,,,,,,,328.26214550000077,,,,,,sub_953,2024-06-16_15h30.34.653,Reversal,2023.1.3,60.085357258389095,1,
1,exp3.png,exp4.png,,,,,,,,,,,,,,,,,,0,0,0,0,0,1,1,1,,,,,,,,,False,1,62,False,exp3.png,exp4.png,trial_left_image,1,exp3.png,1,exp3.png,exp4.png,1,1,non-reversed,correct,0.32632551428322065,1,valid_win,336.3352663000005,39,,,,,,,,,,,,,,,sub_953,2024-06-16_15h30.34.653,Reversal,2023.1.3,60.085357258389095,1,
2,exp1.png,exp2.png,,,,,,,,,,,,,,,,,,0,0,0,0,0,2,2,2,,,,,,,,,False,2,63,False,exp1.png,exp2.png,trial_right_image,-1,exp2.png,1,exp2.png,exp1.png,0,4,reversed,correct,0.5710712965416587,1,valid_win,340.48402279999937,40,,,,,,,,,,,,,,,sub_953,2024-06-16_15h30.34.653,Reversal,2023.1.3,60.085357258389095,1,
3,exp3.png,exp4.png,,,,,,,,,,,,,,,,,,0,0,0,0,0,3,3,3,,,,,,,,,False,3,64,True,exp4.png,exp3.png,trial_right_image,-1,exp3.png,1,exp3.png,exp4.png,1,1,non-reversed,correct,0.17528402145520638,0,invalid_lose,344.5653568000016,40,,,,,,,,,,,,,,,sub_953,2024-06-16_15h30.34.653,Reversal,2023.1.3,60.085357258389095,1,
4,exp1.png,exp2.png,,,,,,,,,,,,,,,,,,0,0,0,0,0,4,4,4,,,,,,,,,False,4,65,True,exp2.png,exp1.png,trial_left_image,1,exp2.png,1,exp2.png,exp1.png,0,4,reversed,correct,0.7635147963464635,1,valid_win,348.93113300000186,41,,,,,,,,,,,,,,,sub_953,2024-06-16_15h30.34.653,Reversal,2023.1.3,60.085357258389095,1,
5,exp3.png,exp4.png,,,,,,,,,,,,,,,,,,0,0,0,0,0,5,5,5,,,,,,,,,False,5,66,True,exp4.png,exp3.png,trial_right_image,-1,exp3.png,1,exp3.png,exp4.png,1,1,non-reversed,correct,0.41381667586862014,1,valid_win,353.61280610000176,42,,,,,,,,,,,,,,,sub_953,2024-06-16_15h30.34.653,Reversal,2023.1.3,60.085357258389095,1,
6,exp1.png,exp2.png,,,,,,,,,,,,,,,,,,0,0,0,0,0,6,6,6,,,,,,,,,False,6,67,False,exp1.png,exp2.png,trial_right_image,-1,exp2.png,1,exp2.png,exp1.png,0,4,reversed,correct,0.6363417971228315,1,valid_win,357.9278986999998,43,,,,,,,,,,,,,,,sub_953,2024-06-16_15h30.34.653,Reversal,2023.1.3,60.085357258389095,1,
7,exp3.png,exp4.png,,,,,,,,,,,,,,,,,,0,0,0,0,0,7,7,7,,,,,,,,,False,7,68,False,exp3.png,exp4.png,trial_left_image,1,exp3.png,1,exp3.png,exp4.png,1,1,non-reversed,correct,0.23414333756150663,0,invalid_lose,362.5593660000013,43,,,,,,,,,,,,,,,sub_953,2024-06-16_15h30.34.653,Reversal,2023.1.3,60.085357258389095,1,
8,exp1.png,exp2.png,,,,,,,,,,,,,,,,,,0,0,0,0,0,8,8,8,,,,,,,,,False,8,69,False,exp1.png,exp2.png,trial_right_image,-1,exp2.png,1,exp2.png,exp1.png,0,4,reversed,correct,0.005506100075224896,0,invalid_lose,366.675303,43,,,,,,,,,,,,,,,sub_953,2024-06-16_15h30.34.653,Reversal,2023.1.3,60.085357258389095,1,
9,exp3.png,exp4.png,,,,,,,,,,,,,,,,,,0,0,0,0,0,9,9,9,,,,,,,,,False,9,70,False,exp3.png,exp4.png,trial_right_image,-1,exp4.png,1,exp3.png,exp4.png,0,2,non-reversed,incorrect,0.533033533135147,0,valid_lose,370.6400570000005,43,,,,,,,,,,,,,,,sub_953,2024-06-16_15h30.34.653,Reversal,2023.1.3,60.085357258389095,1,
10,exp1.png,exp2.png,,,,,,,,,,,,,,,,,,0,0,0,0,0,10,10,10,,,,,,,,,False,10,71,True,exp2.png,exp1.png,trial_left_image,1,exp2.png,1,exp2.png,exp1.png,0,4,reversed,correct,0.042380368402353596,0,invalid_lose,374.7721347000006,43,,,,,,,,,,,,,,,sub_953,2024-06-16_15h30.34.653,Reversal,2023.1.3,60.085357258389095,1,
11,exp3.png,exp4.png,,,,,,,,,,,,,,,,,,0,0,0,0,0,11,11,11,,,,,,,,,False,11,72,True,exp4.png,exp3.png,trial_left_image,1,exp4.png,1,exp3.png,exp4.png,0,2,non-reversed,incorrect,0.24097591734357338,1,invalid_win,378.73735849999866,44,,,,,,,,,,,,,,,sub_953,2024-06-16_15h30.34.653,Reversal,2023.1.3,60.085357258389095,1,
12,exp1.png,exp2.png,,,,,,,,,,,,,,,,,,0,0,0,0,0,12,12,12,,,,,,,,,False,12,73,False,exp1.png,exp2.png,trial_right_image,-1,exp2.png,1,exp2.png,exp1.png,0,4,reversed,correct,0.6991670417872183,1,valid_win,383.1030724000011,45,,,,,,,,,,,,,,,sub_953,2024-06-16_15h30.34.653,Reversal,2023.1.3,60.085357258389095,1,
13,exp3.png,exp4.png,,,,,,,,,,,,,,,,,,0,0,0,0,0,13,13,13,,,,,,,,,False,13,74,True,exp4.png,exp3.png,trial_left_image,1,exp4.png,1,exp3.png,exp4.png,0,2,non-reversed,incorrect,0.7176030791345825,0,valid_lose,387.06770870000037,45,,,,,,,,,,,,,,,sub_953,2024-06-16_15h30.34.653,Reversal,2023.1.3,60.085357258389095,1,
14,exp1.png,exp2.png,,,,,,,,,,,,,,,,,,0,0,0,0,0,14,14,14,,,,,,,,,False,14,75,False,exp1.png,exp2.png,trial_right_image,-1,exp2.png,1,exp2.png,exp1.png,0,4,reversed,correct,0.22214555942173297,0,invalid_lose,390.98329210000156,45,,,,,,,,,,,,,,,sub_953,2024-06-16_15h30.34.653,Reversal,2023.1.3,60.085357258389095,1,
15,exp3.png,exp4.png,,,,,,,,,,,,,,,,,,0,0,0,0,0,15,15,15,,,,,,,,,False,15,76,True,exp4.png,exp3.png,trial_right_image,-1,exp3.png,1,exp3.png,exp4.png,1,1,non-reversed,correct,0.7064103908994761,1,valid_win,395.46509499999956,46,,,,,,,,,,,,,,,sub_953,2024-06-16_15h30.34.653,Reversal,2023.1.3,60.085357258389095,1,
16,exp1.png,exp2.png,,,,,,,,,,,,,,,,,,0,0,0,0,0,16,16,16,,,,,,,,,False,16,77,True,exp2.png,exp1.png,trial_right_image,-1,exp1.png,1,exp2.png,exp1.png,1,3,reversed,incorrect,0.7253860920728777,0,valid_lose,400.6804661999995,46,,,,,,,,,,,,,,,sub_953,2024-06-16_15h30.34.653,Reversal,2023.1.3,60.085357258389095,1,
17,exp3.png,exp4.png,,,,,,,,,,,,,,,,,,0,0,0,0,0,17,17,17,,,,,,,,,False,17,78,True,exp4.png,exp3.png,trial_right_image,-1,exp3.png,1,exp3.png,exp4.png,1,1,non-reversed,correct,0.05124359472595552,0,invalid_lose,404.61160609999934,46,,,,,,,,,,,,,,,sub_953,2024-06-16_15h30.34.653,Reversal,2023.1.3,60.085357258389095,1,
18,exp1.png,exp2.png,,,,,,,,,,,,,,,,,,0,0,0,0,0,18,18,18,,,,,,,,,False,18,79,True,exp2.png,exp1.png,trial_right_image,-1,exp1.png,1,exp2.png,exp1.png,1,3,reversed,incorrect,0.5396754604231588,0,valid_lose,408.61047099999996,46,,,,,,,,,,,,,,,sub_953,2024-06-16_15h30.34.653,Reversal,2023.1.3,60.085357258389095,1,
19,exp3.png,exp4.png,,,,,,,,,,,,,,,,,,0,0,0,0,0,19,19,19,,,,,,,,,False,19,80,False,exp3.png,exp4.png,trial_right_image,-1,exp4.png,1,exp3.png,exp4.png,0,2,non-reversed,incorrect,0.7694044281779387,0,valid_lose,411.56075300000157,46,,,,,,,,,,,,,,,sub_953,2024-06-16_15h30.34.653,Reversal,2023.1.3,60.085357258389095,1,
20,exp1.png,exp2.png,,,,,,,,,,,,,,,,,,0,0,0,0,0,20,20,20,,,,,,,,,True,,,,,,,,,,,,,,,,,,,,,,,,,,,,,,,,,,,sub_953,2024-06-16_15h30.34.653,Reversal,2023.1.3,60.085357258389095,1,
,,,exp1.png,,,,,,,,,,,,,,,,,0,0,0,0,,,,,0,0,0,0,0,0,0,0,,,,,,,,,,,,,,,,,,,,,,491.2719328000021,None,None,[],,,,,,,,,,,sub_953,2024-06-16_15h30.34.653,Reversal,2023.1.3,60.085357258389095,1,
,,,exp2.png,,,,,,,,,,,,,,,,,0,0,0,0,,,,,0,0,0,0,0,1,1,1,,,,,,,,,,,,,,,,,,,,,,493.34752579999986,None,None,[],,,,,,,,,,,sub_953,2024-06-16_15h30.34.653,Reversal,2023.1.3,60.085357258389095,1,
,,,exp3.png,,,,,,,,,,,,,,,,,0,0,0,0,,,,,0,0,0,0,0,2,2,2,,,,,,,,,,,,,,,,,,,,,,494.32004980000056,None,None,[],,,,,,,,,,,sub_953,2024-06-16_15h30.34.653,Reversal,2023.1.3,60.085357258389095,1,
,,,exp4.png,,,,,,,,,,,,,,,,,0,0,0,0,,,,,0,0,0,0,0,3,3,3,,,,,,,,,,,,,,,,,,,,,,494.7802636999986,None,None,[],,,,,,,,,,,sub_953,2024-06-16_15h30.34.653,Reversal,2023.1.3,60.085357258389095,1,
0,exp1.png,exp2.png,,,,,,,,,,,,,,,,,,1,0,1,0,0,0,0,0,,,,,,,,,False,20,81,True,exp2.png,exp1.png,trial_right_image,-1,exp1.png,1,exp2.png,exp1.png,1,3,reversed,incorrect,0.9167412277050763,0,valid_lose,421.923045800002,46,,,,,,,,,,,,,,,sub_953,2024-06-16_15h30.34.653,Reversal,2023.1.3,60.085357258389095,1,
1,exp3.png,exp4.png,,,,,,,,,,,,,,,,,,1,0,1,0,0,1,1,1,,,,,,,,,False,21,82,False,exp3.png,exp4.png,trial_right_image,-1,exp4.png,1,exp3.png,exp4.png,0,2,non-reversed,incorrect,0.041265446414259555,1,invalid_win,426.371385800001,47,,,,,,,,,,,,,,,sub_953,2024-06-16_15h30.34.653,Reversal,2023.1.3,60.085357258389095,1,
2,exp1.png,exp2.png,,,,,,,,,,,,,,,,,,1,0,1,0,0,2,2,2,,,,,,,,,False,22,83,False,exp1.png,exp2.png,trial_right_image,-1,exp2.png,1,exp2.png,exp1.png,0,4,reversed,correct,0.7724008214355244,1,valid_win,430.51982119999957,48,,,,,,,,,,,,,,,sub_953,2024-06-16_15h30.34.653,Reversal,2023.1.3,60.085357258389095,1,
3,exp3.png,exp4.png,,,,,,,,,,,,,,,,,,1,0,1,0,0,3,3,3,,,,,,,,,False,23,84,True,exp4.png,exp3.png,trial_left_image,1,exp4.png,1,exp3.png,exp4.png,0,2,non-reversed,incorrect,0.9722234234194761,0,valid_lose,434.80178349999915,48,,,,,,,,,,,,,,,sub_953,2024-06-16_15h30.34.653,Reversal,2023.1.3,60.085357258389095,1,
4,exp1.png,exp2.png,,,,,,,,,,,,,,,,,,1,0,1,0,0,4,4,4,,,,,,,,,False,24,85,True,exp2.png,exp1.png,trial_right_image,-1,exp1.png,1,exp2.png,exp1.png,1,3,reversed,incorrect,0.6890532209506397,0,valid_lose,439.0002960999991,48,,,,,,,,,,,,,,,sub_953,2024-06-16_15h30.34.653,Reversal,2023.1.3,60.085357258389095,1,
5,exp3.png,exp4.png,,,,,,,,,,,,,,,,,,1,0,1,0,0,5,5,5,,,,,,,,,False,25,86,True,exp4.png,exp3.png,trial_right_image,-1,exp3.png,1,exp3.png,exp4.png,1,1,non-reversed,correct,0.9013582598353266,1,valid_win,443.19879800000126,49,,,,,,,,,,,,,,,sub_953,2024-06-16_15h30.34.653,Reversal,2023.1.3,60.085357258389095,1,
6,exp1.png,exp2.png,,,,,,,,,,,,,,,,,,1,0,1,0,0,6,6,6,,,,,,,,,False,26,87,True,exp2.png,exp1.png,trial_right_image,-1,exp1.png,1,exp2.png,exp1.png,1,3,reversed,incorrect,0.09755827979032639,1,invalid_win,447.164540400001,50,,,,,,,,,,,,,,,sub_953,2024-06-16_15h30.34.653,Reversal,2023.1.3,60.085357258389095,1,
7,exp3.png,exp4.png,,,,,,,,,,,,,,,,,,1,0,1,0,0,7,7,7,,,,,,,,,False,27,88,True,exp4.png,exp3.png,trial_right_image,-1,exp3.png,1,exp3.png,exp4.png,1,1,non-reversed,correct,0.9249312166826792,1,valid_win,451.0135396000005,51,,,,,,,,,,,,,,,sub_953,2024-06-16_15h30.34.653,Reversal,2023.1.3,60.085357258389095,1,
8,exp1.png,exp2.png,,,,,,,,,,,,,,,,,,1,0,1,0,0,8,8,8,,,,,,,,,False,28,89,True,exp2.png,exp1.png,trial_right_image,-1,exp1.png,1,exp2.png,exp1.png,1,3,reversed,incorrect,0.970300734101429,0,valid_lose,455.09526950000145,51,,,,,,,,,,,,,,,sub_953,2024-06-16_15h30.34.653,Reversal,2023.1.3,60.085357258389095,1,
9,exp3.png,exp4.png,,,,,,,,,,,,,,,,,,1,0,1,0,0,9,9,9,,,,,,,,,False,29,90,False,exp3.png,exp4.png,trial_right_image,-1,exp4.png,1,exp3.png,exp4.png,0,2,non-reversed,incorrect,0.27608704766551084,0,valid_lose,458.7437065000013,51,,,,,,,,,,,,,,,sub_953,2024-06-16_15h30.34.653,Reversal,2023.1.3,60.085357258389095,1,
10,exp1.png,exp2.png,,,,,,,,,,,,,,,,,,1,0,1,0,0,10,10,10,,,,,,,,,False,30,91,False,exp1.png,exp2.png,trial_left_image,1,exp1.png,1,exp2.png,exp1.png,1,3,reversed,incorrect,0.23183537569673596,1,invalid_win,463.29223439999987,52,,,,,,,,,,,,,,,sub_953,2024-06-16_15h30.34.653,Reversal,2023.1.3,60.085357258389095,1,
11,exp3.png,exp4.png,,,,,,,,,,,,,,,,,,1,0,1,0,0,11,11,11,,,,,,,,,False,31,92,True,exp4.png,exp3.png,trial_right_image,-1,exp3.png,1,exp3.png,exp4.png,1,1,non-reversed,correct,0.7612866193653999,1,valid_win,467.22382180000204,53,,,,,,,,,,,,,,,sub_953,2024-06-16_15h30.34.653,Reversal,2023.1.3,60.085357258389095,1,
12,exp1.png,exp2.png,,,,,,,,,,,,,,,,,,1,0,1,0,0,12,12,12,,,,,,,,,False,32,93,False,exp1.png,exp2.png,trial_right_image,-1,exp2.png,1,exp2.png,exp1.png,0,4,reversed,correct,0.808449055603146,1,valid_win,471.02269159999923,54,,,,,,,,,,,,,,,sub_953,2024-06-16_15h30.34.653,Reversal,2023.1.3,60.085357258389095,1,
13,exp3.png,exp4.png,,,,,,,,,,,,,,,,,,1,0,1,0,0,13,13,13,,,,,,,,,False,33,94,True,exp4.png,exp3.png,trial_right_image,-1,exp3.png,1,exp3.png,exp4.png,1,1,non-reversed,correct,0.7435877239252712,1,valid_win,474.9218413000017,55,,,,,,,,,,,,,,,sub_953,2024-06-16_15h30.34.653,Reversal,2023.1.3,60.085357258389095,1,
14,exp1.png,exp2.png,,,,,,,,,,,,,,,,,,1,0,1,0,0,14,14,14,,,,,,,,,False,34,95,False,exp1.png,exp2.png,trial_right_image,-1,exp2.png,1,exp2.png,exp1.png,0,4,reversed,correct,0.389706868903257,1,valid_win,479.0370193999988,56,,,,,,,,,,,,,,,sub_953,2024-06-16_15h30.34.653,Reversal,2023.1.3,60.085357258389095,1,
15,exp3.png,exp4.png,,,,,,,,,,,,,,,,,,1,0,1,0,0,15,15,15,,,,,,,,,False,35,96,False,exp3.png,exp4.png,trial_right_image,-1,exp4.png,1,exp3.png,exp4.png,0,2,non-reversed,incorrect,0.3781914454729344,0,valid_lose,482.96902860000046,56,,,,,,,,,,,,,,,sub_953,2024-06-16_15h30.34.653,Reversal,2023.1.3,60.085357258389095,1,
16,exp1.png,exp2.png,,,,,,,,,,,,,,,,,,1,0,1,0,0,16,16,16,,,,,,,,,False,36,97,False,exp1.png,exp2.png,trial_left_image,1,exp1.png,1,exp2.png,exp1.png,1,3,reversed,incorrect,0.3446784154622805,0,valid_lose,486.91808669999955,56,,,,,,,,,,,,,,,sub_953,2024-06-16_15h30.34.653,Reversal,2023.1.3,60.085357258389095,1,
17,exp3.png,exp4.png,,,,,,,,,,,,,,,,,,1,0,1,0,0,17,17,17,,,,,,,,,False,37,98,False,exp3.png,exp4.png,trial_right_image,-1,exp4.png,1,exp3.png,exp4.png,0,2,non-reversed,incorrect,0.2992782622542183,0,valid_lose,490.6328887000018,56,,,,,,,,,,,,,,,sub_953,2024-06-16_15h30.34.653,Reversal,2023.1.3,60.085357258389095,1,
18,exp1.png,exp2.png,,,,,,,,,,,,,,,,,,1,0,1,0,0,18,18,18,,,,,,,,,False,38,99,False,exp1.png,exp2.png,trial_right_image,-1,exp2.png,1,exp2.png,exp1.png,0,4,reversed,correct,0.24385204278174855,0,invalid_lose,494.5151647999992,56,,,,,,,,,,,,,,,sub_953,2024-06-16_15h30.34.653,Reversal,2023.1.3,60.085357258389095,1,
19,exp3.png,exp4.png,,,,,,,,,,,,,,,,,,1,0,1,0,0,19,19,19,,,,,,,,,False,39,100,True,exp4.png,exp3.png,trial_right_image,-1,exp3.png,1,exp3.png,exp4.png,1,1,non-reversed,correct,0.5310979148404675,1,valid_win,498.3469169000018,57,,,,,,,,,,,,,,,sub_953,2024-06-16_15h30.34.653,Reversal,2023.1.3,60.085357258389095,1,
20,exp1.png,exp2.png,,,,,,,,,,,,,,,,,,1,0,1,0,0,20,20,20,,,,,,,,,True,,,,,,,,,,,,,,,,,,,,,,,,,,,,,,,,,,,sub_953,2024-06-16_15h30.34.653,Reversal,2023.1.3,60.085357258389095,1,
,,,exp1.png,,,,,,,,,,,,,,,,,1,0,1,0,,,,,0,0,0,0,0,0,0,0,,,,,,,,,,,,,,,,,,,,,,578.0490264,None,None,[],,,,,,,,,,,sub_953,2024-06-16_15h30.34.653,Reversal,2023.1.3,60.085357258389095,1,
,,,exp2.png,,,,,,,,,,,,,,,,,1,0,1,0,,,,,0,0,0,0,0,1,1,1,,,,,,,,,,,,,,,,,,,,,,579.5558266000007,None,None,[],,,,,,,,,,,sub_953,2024-06-16_15h30.34.653,Reversal,2023.1.3,60.085357258389095,1,
,,,exp3.png,,,,,,,,,,,,,,,,,1,0,1,0,,,,,0,0,0,0,0,2,2,2,,,,,,,,,,,,,,,,,,,,,,580.0174181000002,None,None,[],,,,,,,,,,,sub_953,2024-06-16_15h30.34.653,Reversal,2023.1.3,60.085357258389095,1,
,,,exp4.png,,,,,,,,,,,,,,,,,1,0,1,0,,,,,0,0,0,0,0,3,3,3,,,,,,,,,,,,,,,,,,,,,,580.838372000002,None,None,[],,,,,,,,,,,sub_953,2024-06-16_15h30.34.653,Reversal,2023.1.3,60.085357258389095,1,
0,exp1.png,exp2.png,,,,,,,,,,,,,,,,,,2,0,2,0,0,0,0,0,,,,,,,,,False,40,101,False,exp1.png,exp2.png,trial_right_image,-1,exp2.png,1,exp2.png,exp1.png,0,4,reversed,correct,0.5847367483119286,1,valid_win,505.4646501999996,58,,,,,,,,,,,,,,,sub_953,2024-06-16_15h30.34.653,Reversal,2023.1.3,60.085357258389095,1,
1,exp3.png,exp4.png,,,,,,,,,,,,,,,,,,2,0,2,0,0,1,1,1,,,,,,,,,False,41,102,False,exp3.png,exp4.png,trial_right_image,-1,exp4.png,1,exp3.png,exp4.png,0,2,non-reversed,incorrect,0.66402089872812,0,valid_lose,510.1600265999987,58,,,,,,,,,,,,,,,sub_953,2024-06-16_15h30.34.653,Reversal,2023.1.3,60.085357258389095,1,
2,exp1.png,exp2.png,,,,,,,,,,,,,,,,,,2,0,2,0,0,2,2,2,,,,,,,,,False,42,103,True,exp2.png,exp1.png,trial_left_image,1,exp2.png,1,exp2.png,exp1.png,0,4,reversed,correct,0.41725871861413755,1,valid_win,514.7579985000011,59,,,,,,,,,,,,,,,sub_953,2024-06-16_15h30.34.653,Reversal,2023.1.3,60.085357258389095,1,
3,exp3.png,exp4.png,,,,,,,,,,,,,,,,,,2,0,2,0,0,3,3,3,,,,,,,,,False,43,104,False,exp3.png,exp4.png,trial_left_image,1,exp3.png,1,exp3.png,exp4.png,1,1,non-reversed,correct,0.2912620538192723,1,valid_win,519.356995099999,60,,,,,,,,,,,,,,,sub_953,2024-06-16_15h30.34.653,Reversal,2023.1.3,60.085357258389095,1,
4,exp1.png,exp2.png,,,,,,,,,,,,,,,,,,2,0,2,0,0,4,4,4,,,,,,,,,False,44,105,False,exp1.png,exp2.png,trial_right_image,-1,exp2.png,1,exp2.png,exp1.png,0,4,reversed,correct,0.18419953242964104,0,invalid_lose,523.8885283000018,60,,,,,,,,,,,,,,,sub_953,2024-06-16_15h30.34.653,Reversal,2023.1.3,60.085357258389095,1,
5,exp3.png,exp4.png,,,,,,,,,,,,,,,,,,2,0,2,0,0,5,5,5,,,,,,,,,False,45,106,False,exp3.png,exp4.png,trial_left_image,1,exp3.png,1,exp3.png,exp4.png,1,1,non-reversed,correct,0.32288684142720026,1,valid_win,527.8704527000009,61,,,,,,,,,,,,,,,sub_953,2024-06-16_15h30.34.653,Reversal,2023.1.3,60.085357258389095,1,
6,exp1.png,exp2.png,,,,,,,,,,,,,,,,,,2,0,2,0,0,6,6,6,,,,,,,,,False,46,107,True,exp2.png,exp1.png,trial_right_image,-1,exp1.png,1,exp2.png,exp1.png,1,3,reversed,incorrect,0.42761659054114254,0,valid_lose,532.6876751000018,61,,,,,,,,,,,,,,,sub_953,2024-06-16_15h30.34.653,Reversal,2023.1.3,60.085357258389095,1,
7,exp3.png,exp4.png,,,,,,,,,,,,,,,,,,2,0,2,0,0,7,7,7,,,,,,,,,False,47,108,True,exp4.png,exp3.png,trial_right_image,-1,exp3.png,1,exp3.png,exp4.png,1,1,non-reversed,correct,0.8813424757438453,1,valid_win,536.6854346,62,,,,,,,,,,,,,,,sub_953,2024-06-16_15h30.34.653,Reversal,2023.1.3,60.085357258389095,1,
8,exp1.png,exp2.png,,,,,,,,,,,,,,,,,,2,0,2,0,0,8,8,8,,,,,,,,,False,48,109,True,exp2.png,exp1.png,trial_right_image,-1,exp1.png,1,exp2.png,exp1.png,1,3,reversed,incorrect,0.06630696429234273,1,invalid_win,540.9156150000017,63,,,,,,,,,,,,,,,sub_953,2024-06-16_15h30.34.653,Reversal,2023.1.3,60.085357258389095,1,
9,exp3.png,exp4.png,,,,,,,,,,,,,,,,,,2,0,2,0,0,9,9,9,,,,,,,,,False,49,110,True,exp4.png,exp3.png,trial_right_image,-1,exp3.png,1,exp3.png,exp4.png,1,1,non-reversed,correct,0.24182811260602377,0,invalid_lose,544.8145408000019,63,,,,,,,,,,,,,,,sub_953,2024-06-16_15h30.34.653,Reversal,2023.1.3,60.085357258389095,1,
10,exp1.png,exp2.png,,,,,,,,,,,,,,,,,,2,0,2,0,0,10,10,10,,,,,,,,,False,50,111,True,exp2.png,exp1.png,trial_left_image,1,exp2.png,1,exp2.png,exp1.png,0,4,reversed,correct,0.7562367815245912,1,valid_win,548.963124599999,64,,,,,,,,,,,,,,,sub_953,2024-06-16_15h30.34.653,Reversal,2023.1.3,60.085357258389095,1,
11,exp3.png,exp4.png,,,,,,,,,,,,,,,,,,2,0,2,0,0,11,11,11,,,,,,,,,False,51,112,False,exp3.png,exp4.png,trial_left_image,1,exp3.png,1,exp3.png,exp4.png,1,1,non-reversed,correct,0.7912466251666811,1,valid_win,552.8953360000014,65,,,,,,,,,,,,,,,sub_953,2024-06-16_15h30.34.653,Reversal,2023.1.3,60.085357258389095,1,
12,exp1.png,exp2.png,,,,,,,,,,,,,,,,,,2,0,2,0,0,12,12,12,,,,,,,,,False,52,113,False,exp1.png,exp2.png,trial_left_image,1,exp1.png,1,exp2.png,exp1.png,1,3,reversed,incorrect,0.6988212819324449,0,valid_lose,557.2604921999991,65,,,,,,,,,,,,,,,sub_953,2024-06-16_15h30.34.653,Reversal,2023.1.3,60.085357258389095,1,
13,exp3.png,exp4.png,,,,,,,,,,,,,,,,,,2,0,2,0,0,13,13,13,,,,,,,,,False,53,114,True,exp4.png,exp3.png,trial_right_image,-1,exp3.png,1,exp3.png,exp4.png,1,1,non-reversed,correct,0.47200678984539934,1,valid_win,560.7923157000005,66,,,,,,,,,,,,,,,sub_953,2024-06-16_15h30.34.653,Reversal,2023.1.3,60.085357258389095,1,
14,exp1.png,exp2.png,,,,,,,,,,,,,,,,,,2,0,2,0,0,14,14,14,,,,,,,,,False,54,115,True,exp2.png,exp1.png,trial_right_image,-1,exp1.png,1,exp2.png,exp1.png,1,3,reversed,incorrect,0.9330827736402693,0,valid_lose,566.3404916,66,,,,,,,,,,,,,,,sub_953,2024-06-16_15h30.34.653,Reversal,2023.1.3,60.085357258389095,1,
15,exp3.png,exp4.png,,,,,,,,,,,,,,,,,,2,0,2,0,0,15,15,15,,,,,,,,,False,55,116,False,exp3.png,exp4.png,trial_left_image,1,exp3.png,1,exp3.png,exp4.png,1,1,non-reversed,correct,0.6690891971513293,1,valid_win,570.4749556999996,67,,,,,,,,,,,,,,,sub_953,2024-06-16_15h30.34.653,Reversal,2023.1.3,60.085357258389095,1,
16,exp1.png,exp2.png,,,,,,,,,,,,,,,,,,2,0,2,0,0,16,16,16,,,,,,,,,False,56,117,False,exp1.png,exp2.png,trial_right_image,-1,exp2.png,1,exp2.png,exp1.png,0,4,reversed,correct,0.9839660370377048,1,valid_win,573.4386511000012,68,,,,,,,,,,,,,,,sub_953,2024-06-16_15h30.34.653,Reversal,2023.1.3,60.085357258389095,1,
17,exp3.png,exp4.png,,,,,,,,,,,,,,,,,,2,0,2,0,0,17,17,17,,,,,,,,,False,57,118,False,exp3.png,exp4.png,trial_right_image,-1,exp4.png,1,exp3.png,exp4.png,0,2,non-reversed,incorrect,0.9171486769822329,0,valid_lose,577.3370781000012,68,,,,,,,,,,,,,,,sub_953,2024-06-16_15h30.34.653,Reversal,2023.1.3,60.085357258389095,1,
18,exp1.png,exp2.png,,,,,,,,,,,,,,,,,,2,0,2,0,0,18,18,18,,,,,,,,,False,58,119,True,exp2.png,exp1.png,trial_right_image,-1,exp1.png,1,exp2.png,exp1.png,1,3,reversed,incorrect,0.9455068204911969,0,valid_lose,581.2030082000019,68,,,,,,,,,,,,,,,sub_953,2024-06-16_15h30.34.653,Reversal,2023.1.3,60.085357258389095,1,
19,exp3.png,exp4.png,,,,,,,,,,,,,,,,,,2,0,2,0,0,19,19,19,,,,,,,,,False,59,120,True,exp4.png,exp3.png,trial_left_image,1,exp4.png,1,exp3.png,exp4.png,0,2,non-reversed,incorrect,0.7116189948472096,0,valid_lose,584.567652400001,68,,,,,,,,,,,,,,,sub_953,2024-06-16_15h30.34.653,Reversal,2023.1.3,60.085357258389095,1,
20,exp1.png,exp2.png,,,,,,,,,,,,,,,,,,2,0,2,0,0,20,20,20,,,,,,,,,True,,,,,,,,,,,,,,,,,,,,,,,,,,,,,,,,,,,sub_953,2024-06-16_15h30.34.653,Reversal,2023.1.3,60.085357258389095,1,
,,,exp1.png,,,,,,,,,,,,,,,,,2,0,2,0,,,,,0,0,0,0,0,0,0,0,,,,,,,,,,,,,,,,,,,,,,664.2710499999994,None,None,[],,,,,,,,,,,sub_953,2024-06-16_15h30.34.653,Reversal,2023.1.3,60.085357258389095,1,
,,,exp2.png,,,,,,,,,,,,,,,,,2,0,2,0,,,,,0,0,0,0,0,1,1,1,,,,,,,,,,,,,,,,,,,,,,665.9092023000012,None,None,[],,,,,,,,,,,sub_953,2024-06-16_15h30.34.653,Reversal,2023.1.3,60.085357258389095,1,
,,,exp3.png,,,,,,,,,,,,,,,,,2,0,2,0,,,,,0,0,0,0,0,2,2,2,,,,,,,,,,,,,,,,,,,,,,666.3727685000013,None,None,[],,,,,,,,,,,sub_953,2024-06-16_15h30.34.653,Reversal,2023.1.3,60.085357258389095,1,
,,,exp4.png,,,,,,,,,,,,,,,,,2,0,2,0,,,,,0,0,0,0,0,3,3,3,,,,,,,,,,,,,,,,,,,,,,666.4939608999994,None,None,[],,,,,,,,,,,sub_953,2024-06-16_15h30.34.653,Reversal,2023.1.3,60.085357258389095,1,
,,,,,,,,,,,,,,,,,,,,,,,,,,,,,,,,,,,,,,,,,,,,,,,,,,,,,,,,68,,,,,,,,,,77,43,34,261.50533200000064,0,,,,,,,
