trial_index,trial_image1_file,trial_image2_file,image_file,learning_outer_loop.thisRepN,learning_outer_loop.thisTrialN,learning_outer_loop.thisN,learning_outer_loop.thisIndex,learning_inner_loop.thisRepN,learning_inner_loop.thisTrialN,learning_inner_loop.thisN,learning_inner_loop.thisIndex,learning_estimation_outer_loop.thisRepN,learning_estimation_outer_loop.thisTrialN,learning_estimation_outer_loop.thisN,learning_estimation_outer_loop.thisIndex,learning_estimation_inner_loop.thisRepN,learning_estimation_inner_loop.thisTrialN,learning_estimation_inner_loop.thisN,learning_estimation_inner_loop.thisIndex,reversal_outer_loop.thisRepN,reversal_outer_loop.thisTrialN,reversal_outer_loop.thisN,reversal_outer_loop.thisIndex,reversal_inner_loop.thisRepN,reversal_inner_loop.thisTrialN,reversal_inner_loop.thisN,reversal_inner_loop.thisIndex,reversal_estimation_outer_loop.thisRepN,reversal_estimation_outer_loop.thisTrialN,reversal_estimation_outer_loop.thisN,reversal_estimation_outer_loop.thisIndex,reversal_estimation_inner_loop.thisRepN,reversal_estimation_inner_loop.thisTrialN,reversal_estimation_inner_loop.thisN,reversal_estimation_inner_loop.thisIndex,skipped,total_trial_counter,trial_num,left_right_flip,left_image_file,right_image_file,clicked_stimulus_side,side,clicked_stimulus,version,high_prob_image_file,low_prob_image_file,choice_a,choice_b,pair_type,correct,trial_feedback_random,reward,trial_type,overall_time_after_trial,score,estimation_exp1.png,estimation_rating.response,estimation_rating.rt,estimation_rating.history,estimation_rating.started,estimation_rating.stopped,estimation_exp2.png,estimation_exp3.png,estimation_exp4.png,total_learning_time,total_correct,learning_correct,reversal_correct,total_reversal_time,extra_block,end_experiment.keys,end_experiment.rt,participant,date,expName,psychopyVersion,frameRate,ver,
0,exp1.png,exp2.png,,0,0,0,0,0,0,0,0,,,,,,,,,,,,,,,,,,,,,,,,,True,,,,,,,,,,,,,,,,,,,,,,,,,,,,,,,,,,,,,,sub_845,2025-02-19_13h53.32.556,Reversal,2022.1.2,60.00927740712612,1,
1,exp3.png,exp4.png,,0,0,0,0,0,1,1,1,,,,,,,,,,,,,,,,,,,,,,,,,False,0,1,False,exp3.png,exp4.png,trial_left_image,1,exp3.png,1,exp3.png,exp4.png,1,1,non-reversed,correct,0.3432126200208869,1,valid_win,8.867901399731636,1,,,,,,,,,,,,,,,,,,sub_845,2025-02-19_13h53.32.556,Reversal,2022.1.2,60.00927740712612,1,
2,exp1.png,exp2.png,,0,0,0,0,0,2,2,2,,,,,,,,,,,,,,,,,,,,,,,,,False,1,2,True,exp2.png,exp1.png,trial_right_image,-1,exp1.png,1,exp1.png,exp2.png,1,3,reversed,correct,0.8814359045562156,1,valid_win,14.518186300061643,2,,,,,,,,,,,,,,,,,,sub_845,2025-02-19_13h53.32.556,Reversal,2022.1.2,60.00927740712612,1,
3,exp3.png,exp4.png,,0,0,0,0,0,3,3,3,,,,,,,,,,,,,,,,,,,,,,,,,False,2,3,True,exp4.png,exp3.png,trial_right_image,-1,exp3.png,1,exp3.png,exp4.png,1,1,non-reversed,correct,0.5970671258026149,1,valid_win,20.40071849990636,3,,,,,,,,,,,,,,,,,,sub_845,2025-02-19_13h53.32.556,Reversal,2022.1.2,60.00927740712612,1,
4,exp1.png,exp2.png,,0,0,0,0,0,4,4,4,,,,,,,,,,,,,,,,,,,,,,,,,False,3,4,False,exp1.png,exp2.png,trial_left_image,1,exp1.png,1,exp1.png,exp2.png,1,3,reversed,correct,0.22454136669413582,0,invalid_lose,29.167512900196016,3,,,,,,,,,,,,,,,,,,sub_845,2025-02-19_13h53.32.556,Reversal,2022.1.2,60.00927740712612,1,
5,exp3.png,exp4.png,,0,0,0,0,0,5,5,5,,,,,,,,,,,,,,,,,,,,,,,,,False,4,5,True,exp4.png,exp3.png,trial_left_image,1,exp4.png,1,exp3.png,exp4.png,0,2,non-reversed,incorrect,0.08601282109079322,1,invalid_win,34.46661819983274,4,,,,,,,,,,,,,,,,,,sub_845,2025-02-19_13h53.32.556,Reversal,2022.1.2,60.00927740712612,1,
6,exp1.png,exp2.png,,0,0,0,0,0,6,6,6,,,,,,,,,,,,,,,,,,,,,,,,,False,5,6,True,exp2.png,exp1.png,trial_right_image,-1,exp1.png,1,exp1.png,exp2.png,1,3,reversed,correct,0.32842606659034124,1,valid_win,38.91623410023749,5,,,,,,,,,,,,,,,,,,sub_845,2025-02-19_13h53.32.556,Reversal,2022.1.2,60.00927740712612,1,
7,exp3.png,exp4.png,,0,0,0,0,0,7,7,7,,,,,,,,,,,,,,,,,,,,,,,,,False,6,7,False,exp3.png,exp4.png,trial_left_image,1,exp3.png,1,exp3.png,exp4.png,1,1,non-reversed,correct,0.6705541964898335,1,valid_win,43.416846100240946,6,,,,,,,,,,,,,,,,,,sub_845,2025-02-19_13h53.32.556,Reversal,2022.1.2,60.00927740712612,1,
8,exp1.png,exp2.png,,0,0,0,0,0,8,8,8,,,,,,,,,,,,,,,,,,,,,,,,,False,7,8,False,exp1.png,exp2.png,trial_right_image,-1,exp2.png,1,exp1.png,exp2.png,0,4,reversed,incorrect,0.6674464296680555,0,valid_lose,47.81667929980904,6,,,,,,,,,,,,,,,,,,sub_845,2025-02-19_13h53.32.556,Reversal,2022.1.2,60.00927740712612,1,
9,exp3.png,exp4.png,,0,0,0,0,0,9,9,9,,,,,,,,,,,,,,,,,,,,,,,,,False,8,9,False,exp3.png,exp4.png,trial_left_image,1,exp3.png,1,exp3.png,exp4.png,1,1,non-reversed,correct,0.29112752914677986,1,valid_win,52.38401290029287,7,,,,,,,,,,,,,,,,,,sub_845,2025-02-19_13h53.32.556,Reversal,2022.1.2,60.00927740712612,1,
10,exp1.png,exp2.png,,0,0,0,0,0,10,10,10,,,,,,,,,,,,,,,,,,,,,,,,,False,9,10,False,exp1.png,exp2.png,trial_right_image,-1,exp2.png,1,exp1.png,exp2.png,0,4,reversed,incorrect,0.435600036816329,0,valid_lose,56.71649040002376,7,,,,,,,,,,,,,,,,,,sub_845,2025-02-19_13h53.32.556,Reversal,2022.1.2,60.00927740712612,1,
11,exp3.png,exp4.png,,0,0,0,0,0,11,11,11,,,,,,,,,,,,,,,,,,,,,,,,,False,10,11,False,exp3.png,exp4.png,trial_left_image,1,exp3.png,1,exp3.png,exp4.png,1,1,non-reversed,correct,0.14336742878951603,0,invalid_lose,61.46675010025501,7,,,,,,,,,,,,,,,,,,sub_845,2025-02-19_13h53.32.556,Reversal,2022.1.2,60.00927740712612,1,
12,exp1.png,exp2.png,,0,0,0,0,0,12,12,12,,,,,,,,,,,,,,,,,,,,,,,,,False,11,12,True,exp2.png,exp1.png,trial_right_image,-1,exp1.png,1,exp1.png,exp2.png,1,3,reversed,correct,0.39674275614508336,1,valid_win,66.4170439997688,8,,,,,,,,,,,,,,,,,,sub_845,2025-02-19_13h53.32.556,Reversal,2022.1.2,60.00927740712612,1,
13,exp3.png,exp4.png,,0,0,0,0,0,13,13,13,,,,,,,,,,,,,,,,,,,,,,,,,False,12,13,False,exp3.png,exp4.png,trial_left_image,1,exp3.png,1,exp3.png,exp4.png,1,1,non-reversed,correct,0.37217857537798027,1,valid_win,71.38364700041711,9,,,,,,,,,,,,,,,,,,sub_845,2025-02-19_13h53.32.556,Reversal,2022.1.2,60.00927740712612,1,
14,exp1.png,exp2.png,,0,0,0,0,0,14,14,14,,,,,,,,,,,,,,,,,,,,,,,,,False,13,14,True,exp2.png,exp1.png,trial_left_image,1,exp2.png,1,exp1.png,exp2.png,0,4,reversed,incorrect,0.33026809394424583,0,valid_lose,77.14986889995635,9,,,,,,,,,,,,,,,,,,sub_845,2025-02-19_13h53.32.556,Reversal,2022.1.2,60.00927740712612,1,
15,exp3.png,exp4.png,,0,0,0,0,0,15,15,15,,,,,,,,,,,,,,,,,,,,,,,,,False,14,15,True,exp4.png,exp3.png,trial_left_image,1,exp4.png,1,exp3.png,exp4.png,0,2,non-reversed,incorrect,0.20155035929832843,1,invalid_win,82.21646790020168,10,,,,,,,,,,,,,,,,,,sub_845,2025-02-19_13h53.32.556,Reversal,2022.1.2,60.00927740712612,1,
16,exp1.png,exp2.png,,0,0,0,0,0,16,16,16,,,,,,,,,,,,,,,,,,,,,,,,,False,15,16,True,exp2.png,exp1.png,trial_right_image,-1,exp1.png,1,exp1.png,exp2.png,1,3,reversed,correct,0.43037464314649376,1,valid_win,86.66674720030278,11,,,,,,,,,,,,,,,,,,sub_845,2025-02-19_13h53.32.556,Reversal,2022.1.2,60.00927740712612,1,
17,exp3.png,exp4.png,,0,0,0,0,0,17,17,17,,,,,,,,,,,,,,,,,,,,,,,,,False,16,17,False,exp3.png,exp4.png,trial_left_image,1,exp3.png,1,exp3.png,exp4.png,1,1,non-reversed,correct,0.8482533932362539,1,valid_win,91.04959199950099,12,,,,,,,,,,,,,,,,,,sub_845,2025-02-19_13h53.32.556,Reversal,2022.1.2,60.00927740712612,1,
18,exp1.png,exp2.png,,0,0,0,0,0,18,18,18,,,,,,,,,,,,,,,,,,,,,,,,,False,17,18,True,exp2.png,exp1.png,trial_right_image,-1,exp1.png,1,exp1.png,exp2.png,1,3,reversed,correct,0.741272447881527,1,valid_win,95.44907420035452,13,,,,,,,,,,,,,,,,,,sub_845,2025-02-19_13h53.32.556,Reversal,2022.1.2,60.00927740712612,1,
19,exp3.png,exp4.png,,0,0,0,0,0,19,19,19,,,,,,,,,,,,,,,,,,,,,,,,,False,18,19,True,exp4.png,exp3.png,trial_left_image,1,exp4.png,1,exp3.png,exp4.png,0,2,non-reversed,incorrect,0.6083853854347844,0,valid_lose,99.83269389998168,13,,,,,,,,,,,,,,,,,,sub_845,2025-02-19_13h53.32.556,Reversal,2022.1.2,60.00927740712612,1,
20,exp1.png,exp2.png,,0,0,0,0,0,20,20,20,,,,,,,,,,,,,,,,,,,,,,,,,False,19,20,False,exp1.png,exp2.png,trial_left_image,1,exp1.png,1,exp1.png,exp2.png,1,3,reversed,correct,0.3031784650887892,1,valid_win,104.1157261999324,14,,,,,,,,,,,,,,,,,,sub_845,2025-02-19_13h53.32.556,Reversal,2022.1.2,60.00927740712612,1,
,,,exp1.png,0,0,0,0,,,,,0,0,0,0,0,0,0,0,,,,,,,,,,,,,,,,,,,,,,,,,,,,,,,,,,,,,,74.0,74.0,19.515703399665654,"[(74.0, 19.515703399665654)]",173.5095399003476,None,,,,,,,,,,,,sub_845,2025-02-19_13h53.32.556,Reversal,2022.1.2,60.00927740712612,1,
,,,exp2.png,0,0,0,0,,,,,0,0,0,0,0,1,1,1,,,,,,,,,,,,,,,,,,,,,,,,,,,,,,,,,,,,,,,67.0,5.30964529979974,"[(67.0, 5.30964529979974)]",194.23314030002803,None,67.0,,,,,,,,,,,sub_845,2025-02-19_13h53.32.556,Reversal,2022.1.2,60.00927740712612,1,
,,,exp3.png,0,0,0,0,,,,,0,0,0,0,0,2,2,2,,,,,,,,,,,,,,,,,,,,,,,,,,,,,,,,,,,,,,,32.0,1.7316665006801486,"[(32.0, 1.7316665006801486)]",200.40667190030217,None,,32.0,,,,,,,,,,sub_845,2025-02-19_13h53.32.556,Reversal,2022.1.2,60.00927740712612,1,
,,,exp4.png,0,0,0,0,,,,,0,0,0,0,0,3,3,3,,,,,,,,,,,,,,,,,,,,,,,,,,,,,,,,,,,,,,,35.0,1.501082199625671,"[(35.0, 1.501082199625671)]",202.96794540062547,None,,,35.0,,,,,,,,,sub_845,2025-02-19_13h53.32.556,Reversal,2022.1.2,60.00927740712612,1,
0,exp1.png,exp2.png,,1,0,1,0,0,0,0,0,,,,,,,,,,,,,,,,,,,,,,,,,True,,,,,,,,,,,,,,,,,,,,,,,,,,,,,,,,,,,,,,sub_845,2025-02-19_13h53.32.556,Reversal,2022.1.2,60.00927740712612,1,
1,exp3.png,exp4.png,,1,0,1,0,0,1,1,1,,,,,,,,,,,,,,,,,,,,,,,,,False,20,21,True,exp4.png,exp3.png,trial_left_image,1,exp4.png,1,exp3.png,exp4.png,0,2,non-reversed,incorrect,0.4549871608106014,0,valid_lose,141.1818787995726,14,,,,,,,,,,,,,,,,,,sub_845,2025-02-19_13h53.32.556,Reversal,2022.1.2,60.00927740712612,1,
2,exp1.png,exp2.png,,1,0,1,0,0,2,2,2,,,,,,,,,,,,,,,,,,,,,,,,,False,21,22,True,exp2.png,exp1.png,trial_left_image,1,exp2.png,1,exp1.png,exp2.png,0,4,reversed,incorrect,0.4033630902939074,0,valid_lose,145.5984722999856,14,,,,,,,,,,,,,,,,,,sub_845,2025-02-19_13h53.32.556,Reversal,2022.1.2,60.00927740712612,1,
3,exp3.png,exp4.png,,1,0,1,0,0,3,3,3,,,,,,,,,,,,,,,,,,,,,,,,,False,22,23,True,exp4.png,exp3.png,trial_left_image,1,exp4.png,1,exp3.png,exp4.png,0,2,non-reversed,incorrect,0.8359283540285599,0,valid_lose,149.9484088998288,14,,,,,,,,,,,,,,,,,,sub_845,2025-02-19_13h53.32.556,Reversal,2022.1.2,60.00927740712612,1,
4,exp1.png,exp2.png,,1,0,1,0,0,4,4,4,,,,,,,,,,,,,,,,,,,,,,,,,False,23,24,False,exp1.png,exp2.png,trial_right_image,-1,exp2.png,1,exp1.png,exp2.png,0,4,reversed,incorrect,0.3286364148723466,0,valid_lose,154.33143000025302,14,,,,,,,,,,,,,,,,,,sub_845,2025-02-19_13h53.32.556,Reversal,2022.1.2,60.00927740712612,1,
5,exp3.png,exp4.png,,1,0,1,0,0,5,5,5,,,,,,,,,,,,,,,,,,,,,,,,,False,24,25,True,exp4.png,exp3.png,trial_left_image,1,exp4.png,1,exp3.png,exp4.png,0,2,non-reversed,incorrect,0.17486130935449784,1,invalid_win,158.6152507001534,15,,,,,,,,,,,,,,,,,,sub_845,2025-02-19_13h53.32.556,Reversal,2022.1.2,60.00927740712612,1,
6,exp1.png,exp2.png,,1,0,1,0,0,6,6,6,,,,,,,,,,,,,,,,,,,,,,,,,False,25,26,True,exp2.png,exp1.png,trial_left_image,1,exp2.png,1,exp1.png,exp2.png,0,4,reversed,incorrect,0.7631006883016244,0,valid_lose,162.9484056001529,15,,,,,,,,,,,,,,,,,,sub_845,2025-02-19_13h53.32.556,Reversal,2022.1.2,60.00927740712612,1,
7,exp3.png,exp4.png,,1,0,1,0,0,7,7,7,,,,,,,,,,,,,,,,,,,,,,,,,False,26,27,True,exp4.png,exp3.png,trial_left_image,1,exp4.png,1,exp3.png,exp4.png,0,2,non-reversed,incorrect,0.9617209052106375,0,valid_lose,168.5640828004107,15,,,,,,,,,,,,,,,,,,sub_845,2025-02-19_13h53.32.556,Reversal,2022.1.2,60.00927740712612,1,
8,exp1.png,exp2.png,,1,0,1,0,0,8,8,8,,,,,,,,,,,,,,,,,,,,,,,,,False,27,28,False,exp1.png,exp2.png,trial_left_image,1,exp1.png,1,exp1.png,exp2.png,1,3,reversed,correct,0.023295815398920117,0,invalid_lose,176.114809400402,15,,,,,,,,,,,,,,,,,,sub_845,2025-02-19_13h53.32.556,Reversal,2022.1.2,60.00927740712612,1,
9,exp3.png,exp4.png,,1,0,1,0,0,9,9,9,,,,,,,,,,,,,,,,,,,,,,,,,False,28,29,False,exp3.png,exp4.png,trial_right_image,-1,exp4.png,1,exp3.png,exp4.png,0,2,non-reversed,incorrect,0.6434739155183615,0,valid_lose,184.01491389982402,15,,,,,,,,,,,,,,,,,,sub_845,2025-02-19_13h53.32.556,Reversal,2022.1.2,60.00927740712612,1,
10,exp1.png,exp2.png,,1,0,1,0,0,10,10,10,,,,,,,,,,,,,,,,,,,,,,,,,False,29,30,False,exp1.png,exp2.png,trial_right_image,-1,exp2.png,1,exp1.png,exp2.png,0,4,reversed,incorrect,0.5625741958695591,0,valid_lose,189.46429060027003,15,,,,,,,,,,,,,,,,,,sub_845,2025-02-19_13h53.32.556,Reversal,2022.1.2,60.00927740712612,1,
11,exp3.png,exp4.png,,1,0,1,0,0,11,11,11,,,,,,,,,,,,,,,,,,,,,,,,,False,30,31,False,exp3.png,exp4.png,trial_left_image,1,exp3.png,1,exp3.png,exp4.png,1,1,non-reversed,correct,0.7890460377686828,1,valid_win,195.9978885995224,16,,,,,,,,,,,,,,,,,,sub_845,2025-02-19_13h53.32.556,Reversal,2022.1.2,60.00927740712612,1,
12,exp1.png,exp2.png,,1,0,1,0,0,12,12,12,,,,,,,,,,,,,,,,,,,,,,,,,False,31,32,True,exp2.png,exp1.png,trial_left_image,1,exp2.png,1,exp1.png,exp2.png,0,4,reversed,incorrect,0.5285684266272316,0,valid_lose,202.08068799972534,16,,,,,,,,,,,,,,,,,,sub_845,2025-02-19_13h53.32.556,Reversal,2022.1.2,60.00927740712612,1,
13,exp3.png,exp4.png,,1,0,1,0,0,13,13,13,,,,,,,,,,,,,,,,,,,,,,,,,False,32,33,True,exp4.png,exp3.png,trial_left_image,1,exp4.png,1,exp3.png,exp4.png,0,2,non-reversed,incorrect,0.06248035698033616,1,invalid_win,208.7141805998981,17,,,,,,,,,,,,,,,,,,sub_845,2025-02-19_13h53.32.556,Reversal,2022.1.2,60.00927740712612,1,
14,exp1.png,exp2.png,,1,0,1,0,0,14,14,14,,,,,,,,,,,,,,,,,,,,,,,,,False,33,34,False,exp1.png,exp2.png,trial_right_image,-1,exp2.png,1,exp1.png,exp2.png,0,4,reversed,incorrect,0.7654846529938064,0,valid_lose,216.09718929976225,17,,,,,,,,,,,,,,,,,,sub_845,2025-02-19_13h53.32.556,Reversal,2022.1.2,60.00927740712612,1,
15,exp3.png,exp4.png,,1,0,1,0,0,15,15,15,,,,,,,,,,,,,,,,,,,,,,,,,False,34,35,False,exp3.png,exp4.png,trial_right_image,-1,exp4.png,1,exp3.png,exp4.png,0,2,non-reversed,incorrect,0.5978364309631521,0,valid_lose,221.59742659982294,17,,,,,,,,,,,,,,,,,,sub_845,2025-02-19_13h53.32.556,Reversal,2022.1.2,60.00927740712612,1,
16,exp1.png,exp2.png,,1,0,1,0,0,16,16,16,,,,,,,,,,,,,,,,,,,,,,,,,False,35,36,False,exp1.png,exp2.png,trial_left_image,1,exp1.png,1,exp1.png,exp2.png,1,3,reversed,correct,0.035302877447637715,0,invalid_lose,226.0470730001107,17,,,,,,,,,,,,,,,,,,sub_845,2025-02-19_13h53.32.556,Reversal,2022.1.2,60.00927740712612,1,
17,exp3.png,exp4.png,,1,0,1,0,0,17,17,17,,,,,,,,,,,,,,,,,,,,,,,,,False,36,37,False,exp3.png,exp4.png,trial_left_image,1,exp3.png,1,exp3.png,exp4.png,1,1,non-reversed,correct,0.15183089270058892,0,invalid_lose,230.81391180027276,17,,,,,,,,,,,,,,,,,,sub_845,2025-02-19_13h53.32.556,Reversal,2022.1.2,60.00927740712612,1,
18,exp1.png,exp2.png,,1,0,1,0,0,18,18,18,,,,,,,,,,,,,,,,,,,,,,,,,False,37,38,True,exp2.png,exp1.png,trial_left_image,1,exp2.png,1,exp1.png,exp2.png,0,4,reversed,incorrect,0.8739354339163212,0,valid_lose,235.6633077999577,17,,,,,,,,,,,,,,,,,,sub_845,2025-02-19_13h53.32.556,Reversal,2022.1.2,60.00927740712612,1,
19,exp3.png,exp4.png,,1,0,1,0,0,19,19,19,,,,,,,,,,,,,,,,,,,,,,,,,False,38,39,True,exp4.png,exp3.png,trial_right_image,-1,exp3.png,1,exp3.png,exp4.png,1,1,non-reversed,correct,0.46497230731620665,1,valid_win,243.73017650004476,18,,,,,,,,,,,,,,,,,,sub_845,2025-02-19_13h53.32.556,Reversal,2022.1.2,60.00927740712612,1,
20,exp1.png,exp2.png,,1,0,1,0,0,20,20,20,,,,,,,,,,,,,,,,,,,,,,,,,False,39,40,False,exp1.png,exp2.png,trial_left_image,1,exp1.png,1,exp1.png,exp2.png,1,3,reversed,correct,0.5663842579552769,1,valid_win,249.56320429965854,19,,,,,,,,,,,,,,,,,,sub_845,2025-02-19_13h53.32.556,Reversal,2022.1.2,60.00927740712612,1,
,,,exp1.png,1,0,1,0,,,,,0,0,0,0,0,0,0,0,,,,,,,,,,,,,,,,,,,,,,,,,,,,,,,,,,,,,,67.0,67.0,3.679414199665189,"[(67.0, 3.679414199665189)]",318.95607780013233,None,,,,,,,,,,,,sub_845,2025-02-19_13h53.32.556,Reversal,2022.1.2,60.00927740712612,1,
,,,exp2.png,1,0,1,0,,,,,0,0,0,0,0,1,1,1,,,,,,,,,,,,,,,,,,,,,,,,,,,,,,,,,,,,,,,36.0,1.8344627991318703,"[(36.0, 1.8344627991318703)]",323.53310430049896,None,36.0,,,,,,,,,,,sub_845,2025-02-19_13h53.32.556,Reversal,2022.1.2,60.00927740712612,1,
,,,exp3.png,1,0,1,0,,,,,0,0,0,0,0,2,2,2,,,,,,,,,,,,,,,,,,,,,,,,,,,,,,,,,,,,,,,77.0,1.317038300447166,"[(77.0, 1.317038300447166)]",326.15119050070643,None,,77.0,,,,,,,,,,sub_845,2025-02-19_13h53.32.556,Reversal,2022.1.2,60.00927740712612,1,
,,,exp4.png,1,0,1,0,,,,,0,0,0,0,0,3,3,3,,,,,,,,,,,,,,,,,,,,,,,,,,,,,,,,,,,,,,,50.0,None,[],327.8746292004362,None,,,,,,,,,,,,sub_845,2025-02-19_13h53.32.556,Reversal,2022.1.2,60.00927740712612,1,
0,exp1.png,exp2.png,,2,0,2,0,0,0,0,0,,,,,,,,,,,,,,,,,,,,,,,,,True,,,,,,,,,,,,,,,,,,,,,,,,,,,,,,,,,,,,,,sub_845,2025-02-19_13h53.32.556,Reversal,2022.1.2,60.00927740712612,1,
1,exp3.png,exp4.png,,2,0,2,0,0,1,1,1,,,,,,,,,,,,,,,,,,,,,,,,,False,40,41,False,exp3.png,exp4.png,trial_left_image,1,exp3.png,1,exp3.png,exp4.png,1,1,non-reversed,correct,0.029596953237844836,0,invalid_lose,264.0131102995947,19,,,,,,,,,,,,,,,,,,sub_845,2025-02-19_13h53.32.556,Reversal,2022.1.2,60.00927740712612,1,
2,exp1.png,exp2.png,,2,0,2,0,0,2,2,2,,,,,,,,,,,,,,,,,,,,,,,,,False,41,42,True,exp2.png,exp1.png,trial_right_image,-1,exp1.png,1,exp1.png,exp2.png,1,3,reversed,correct,0.35101626042580336,1,valid_win,270.79597759991884,20,,,,,,,,,,,,,,,,,,sub_845,2025-02-19_13h53.32.556,Reversal,2022.1.2,60.00927740712612,1,
3,exp3.png,exp4.png,,2,0,2,0,0,3,3,3,,,,,,,,,,,,,,,,,,,,,,,,,False,42,43,True,exp4.png,exp3.png,trial_right_image,-1,exp3.png,1,exp3.png,exp4.png,1,1,non-reversed,correct,0.8943786813803846,1,valid_win,275.59589019976556,21,,,,,,,,,,,,,,,,,,sub_845,2025-02-19_13h53.32.556,Reversal,2022.1.2,60.00927740712612,1,
4,exp1.png,exp2.png,,2,0,2,0,0,4,4,4,,,,,,,,,,,,,,,,,,,,,,,,,False,43,44,True,exp2.png,exp1.png,trial_right_image,-1,exp1.png,1,exp1.png,exp2.png,1,3,reversed,correct,0.7482839461795726,1,valid_win,280.395978000015,22,,,,,,,,,,,,,,,,,,sub_845,2025-02-19_13h53.32.556,Reversal,2022.1.2,60.00927740712612,1,
5,exp3.png,exp4.png,,2,0,2,0,0,5,5,5,,,,,,,,,,,,,,,,,,,,,,,,,False,44,45,True,exp4.png,exp3.png,trial_right_image,-1,exp3.png,1,exp3.png,exp4.png,1,1,non-reversed,correct,0.10341947694495113,0,invalid_lose,285.09586550015956,22,,,,,,,,,,,,,,,,,,sub_845,2025-02-19_13h53.32.556,Reversal,2022.1.2,60.00927740712612,1,
6,exp1.png,exp2.png,,2,0,2,0,0,6,6,6,,,,,,,,,,,,,,,,,,,,,,,,,False,45,46,False,exp1.png,exp2.png,trial_left_image,1,exp1.png,1,exp1.png,exp2.png,1,3,reversed,correct,0.3957537707468257,1,valid_win,289.64615060016513,23,,,,,,,,,,,,,,,,,,sub_845,2025-02-19_13h53.32.556,Reversal,2022.1.2,60.00927740712612,1,
7,exp3.png,exp4.png,,2,0,2,0,0,7,7,7,,,,,,,,,,,,,,,,,,,,,,,,,False,46,47,True,exp4.png,exp3.png,trial_right_image,-1,exp3.png,1,exp3.png,exp4.png,1,1,non-reversed,correct,0.8698464370567057,1,valid_win,294.5455197999254,24,,,,,,,,,,,,,,,,,,sub_845,2025-02-19_13h53.32.556,Reversal,2022.1.2,60.00927740712612,1,
8,exp1.png,exp2.png,,2,0,2,0,0,8,8,8,,,,,,,,,,,,,,,,,,,,,,,,,False,47,48,True,exp2.png,exp1.png,trial_right_image,-1,exp1.png,1,exp1.png,exp2.png,1,3,reversed,correct,0.4806474797076232,1,valid_win,300.2792074996978,25,,,,,,,,,,,,,,,,,,sub_845,2025-02-19_13h53.32.556,Reversal,2022.1.2,60.00927740712612,1,
9,exp3.png,exp4.png,,2,0,2,0,0,9,9,9,,,,,,,,,,,,,,,,,,,,,,,,,False,48,49,True,exp4.png,exp3.png,trial_left_image,1,exp4.png,1,exp3.png,exp4.png,0,2,non-reversed,incorrect,0.03156670252529026,1,invalid_win,306.2459039995447,26,,,,,,,,,,,,,,,,,,sub_845,2025-02-19_13h53.32.556,Reversal,2022.1.2,60.00927740712612,1,
10,exp1.png,exp2.png,,2,0,2,0,0,10,10,10,,,,,,,,,,,,,,,,,,,,,,,,,False,49,50,False,exp1.png,exp2.png,trial_left_image,1,exp1.png,1,exp1.png,exp2.png,1,3,reversed,correct,0.5234388119600477,1,valid_win,311.39581019990146,27,,,,,,,,,,,,,,,,,,sub_845,2025-02-19_13h53.32.556,Reversal,2022.1.2,60.00927740712612,1,
11,exp3.png,exp4.png,,2,0,2,0,0,11,11,11,,,,,,,,,,,,,,,,,,,,,,,,,False,50,51,False,exp3.png,exp4.png,trial_left_image,1,exp3.png,1,exp3.png,exp4.png,1,1,non-reversed,correct,0.7460122971906233,1,valid_win,315.91223379969597,28,,,,,,,,,,,,,,,,,,sub_845,2025-02-19_13h53.32.556,Reversal,2022.1.2,60.00927740712612,1,
12,exp1.png,exp2.png,,2,0,2,0,0,12,12,12,,,,,,,,,,,,,,,,,,,,,,,,,False,51,52,False,exp1.png,exp2.png,trial_left_image,1,exp1.png,1,exp1.png,exp2.png,1,3,reversed,correct,0.886211338571898,1,valid_win,321.27906970027834,29,,,,,,,,,,,,,,,,,,sub_845,2025-02-19_13h53.32.556,Reversal,2022.1.2,60.00927740712612,1,
13,exp3.png,exp4.png,,2,0,2,0,0,13,13,13,,,,,,,,,,,,,,,,,,,,,,,,,False,52,53,False,exp3.png,exp4.png,trial_right_image,-1,exp4.png,1,exp3.png,exp4.png,0,2,non-reversed,incorrect,0.019669313607430294,1,invalid_win,328.2622907003388,30,,,,,,,,,,,,,,,,,,sub_845,2025-02-19_13h53.32.556,Reversal,2022.1.2,60.00927740712612,1,
14,exp1.png,exp2.png,,2,0,2,0,0,14,14,14,,,,,,,,,,,,,,,,,,,,,,,,,False,53,54,False,exp1.png,exp2.png,trial_left_image,1,exp1.png,1,exp1.png,exp2.png,1,3,reversed,correct,0.06106687378304454,0,invalid_lose,332.7116491999477,30,,,,,,,,,,,,,,,,,,sub_845,2025-02-19_13h53.32.556,Reversal,2022.1.2,60.00927740712612,1,
15,exp3.png,exp4.png,,2,0,2,0,0,15,15,15,,,,,,,,,,,,,,,,,,,,,,,,,False,54,55,False,exp3.png,exp4.png,trial_right_image,-1,exp4.png,1,exp3.png,exp4.png,0,2,non-reversed,incorrect,0.4575177646589702,0,valid_lose,338.5618610996753,30,,,,,,,,,,,,,,,,,,sub_845,2025-02-19_13h53.32.556,Reversal,2022.1.2,60.00927740712612,1,
16,exp1.png,exp2.png,,2,0,2,0,0,16,16,16,,,,,,,,,,,,,,,,,,,,,,,,,False,55,56,True,exp2.png,exp1.png,trial_right_image,-1,exp1.png,1,exp1.png,exp2.png,1,3,reversed,correct,0.2915801119539494,1,valid_win,343.1451318003237,31,,,,,,,,,,,,,,,,,,sub_845,2025-02-19_13h53.32.556,Reversal,2022.1.2,60.00927740712612,1,
17,exp3.png,exp4.png,,2,0,2,0,0,17,17,17,,,,,,,,,,,,,,,,,,,,,,,,,False,56,57,True,exp4.png,exp3.png,trial_left_image,1,exp4.png,1,exp3.png,exp4.png,0,2,non-reversed,incorrect,0.03922048599733141,1,invalid_win,348.92867430020124,32,,,,,,,,,,,,,,,,,,sub_845,2025-02-19_13h53.32.556,Reversal,2022.1.2,60.00927740712612,1,
18,exp1.png,exp2.png,,2,0,2,0,0,18,18,18,,,,,,,,,,,,,,,,,,,,,,,,,False,57,58,True,exp2.png,exp1.png,trial_right_image,-1,exp1.png,1,exp1.png,exp2.png,1,3,reversed,correct,0.8879571499566392,1,valid_win,354.2450323002413,33,,,,,,,,,,,,,,,,,,sub_845,2025-02-19_13h53.32.556,Reversal,2022.1.2,60.00927740712612,1,
19,exp3.png,exp4.png,,2,0,2,0,0,19,19,19,,,,,,,,,,,,,,,,,,,,,,,,,False,58,59,False,exp3.png,exp4.png,trial_right_image,-1,exp4.png,1,exp3.png,exp4.png,0,2,non-reversed,incorrect,0.3311459805049466,0,valid_lose,359.5946426996961,33,,,,,,,,,,,,,,,,,,sub_845,2025-02-19_13h53.32.556,Reversal,2022.1.2,60.00927740712612,1,
20,exp1.png,exp2.png,,2,0,2,0,0,20,20,20,,,,,,,,,,,,,,,,,,,,,,,,,False,59,60,False,exp1.png,exp2.png,trial_left_image,1,exp1.png,1,exp1.png,exp2.png,1,3,reversed,correct,0.8426013733550632,1,valid_win,364.3445781003684,34,,,,,,,,,,,,,,,,,,sub_845,2025-02-19_13h53.32.556,Reversal,2022.1.2,60.00927740712612,1,
,,,exp1.png,2,0,2,0,,,,,0,0,0,0,0,0,0,0,,,,,,,,,,,,,,,,,,,,,,,,,,,,,,,,,,,,,,99.0,99.0,2.3489319998770952,"[(99.0, 2.3489319998770952)]",433.73367960006,None,,,,,,,,,,,,sub_845,2025-02-19_13h53.32.556,Reversal,2022.1.2,60.00927740712612,1,
,,,exp2.png,2,0,2,0,,,,,0,0,0,0,0,1,1,1,,,,,,,,,,,,,,,,,,,,,,,,,,,,,,,,,,,,,,,24.0,3.117204999551177,"[(24.0, 3.117204999551177)]",438.3649246999994,None,24.0,,,,,,,,,,,sub_845,2025-02-19_13h53.32.556,Reversal,2022.1.2,60.00927740712612,1,
,,,exp3.png,2,0,2,0,,,,,0,0,0,0,0,2,2,2,,,,,,,,,,,,,,,,,,,,,,,,,,,,,,,,,,,,,,,31.0,3.9010542994365096,"[(31.0, 3.9010542994365096)]",442.3971426002681,None,,31.0,,,,,,,,,,sub_845,2025-02-19_13h53.32.556,Reversal,2022.1.2,60.00927740712612,1,
,,,exp4.png,2,0,2,0,,,,,0,0,0,0,0,3,3,3,,,,,,,,,,,,,,,,,,,,,,,,,,,,,,,,,,,,,,,74.0,2.1330364998430014,"[(74.0, 2.1330364998430014)]",447.1514966003597,None,,,74.0,,,,,,,,,sub_845,2025-02-19_13h53.32.556,Reversal,2022.1.2,60.00927740712612,1,
0,exp1.png,exp2.png,,3,0,3,0,0,0,0,0,,,,,,,,,,,,,,,,,,,,,,,,,True,,,,,,,,,,,,,,,,,,,,,,,,,,,,,,,,,,,,,,sub_845,2025-02-19_13h53.32.556,Reversal,2022.1.2,60.00927740712612,1,
1,exp3.png,exp4.png,,3,0,3,0,0,1,1,1,,,,,,,,,,,,,,,,,,,,,,,,,False,60,61,True,exp4.png,exp3.png,trial_left_image,1,exp4.png,1,exp3.png,exp4.png,0,2,non-reversed,incorrect,0.3822091791522352,0,valid_lose,388.927639500238,34,,,,,,,,,,,,,,,,,,sub_845,2025-02-19_13h53.32.556,Reversal,2022.1.2,60.00927740712612,1,
2,exp1.png,exp2.png,,3,0,3,0,0,2,2,2,,,,,,,,,,,,,,,,,,,,,,,,,False,61,62,True,exp2.png,exp1.png,trial_right_image,-1,exp1.png,1,exp1.png,exp2.png,1,3,reversed,correct,0.24571977756909769,0,invalid_lose,393.6108999000862,34,,,,,,,,,,,,,,,,,,sub_845,2025-02-19_13h53.32.556,Reversal,2022.1.2,60.00927740712612,1,
3,exp3.png,exp4.png,,3,0,3,0,0,3,3,3,,,,,,,,,,,,,,,,,,,,,,,,,False,62,63,True,exp4.png,exp3.png,trial_right_image,-1,exp3.png,1,exp3.png,exp4.png,1,1,non-reversed,correct,0.9439925828541202,1,valid_win,401.5100977001712,35,,,,,,,,,,,,,,,,,,sub_845,2025-02-19_13h53.32.556,Reversal,2022.1.2,60.00927740712612,1,
4,exp1.png,exp2.png,,3,0,3,0,0,4,4,4,,,,,,,,,,,,,,,,,,,,,,,,,False,63,64,True,exp2.png,exp1.png,trial_right_image,-1,exp1.png,1,exp1.png,exp2.png,1,3,reversed,correct,0.33637702122449153,1,valid_win,406.3600717000663,36,,,,,,,,,,,,,,,,,,sub_845,2025-02-19_13h53.32.556,Reversal,2022.1.2,60.00927740712612,1,
5,exp3.png,exp4.png,,3,0,3,0,0,5,5,5,,,,,,,,,,,,,,,,,,,,,,,,,False,64,65,True,exp4.png,exp3.png,trial_right_image,-1,exp3.png,1,exp3.png,exp4.png,1,1,non-reversed,correct,0.7317994447127353,1,valid_win,411.19327689986676,37,,,,,,,,,,,,,,,,,,sub_845,2025-02-19_13h53.32.556,Reversal,2022.1.2,60.00927740712612,1,
6,exp1.png,exp2.png,,3,0,3,0,0,6,6,6,,,,,,,,,,,,,,,,,,,,,,,,,False,65,66,False,exp1.png,exp2.png,trial_left_image,1,exp1.png,1,exp1.png,exp2.png,1,3,reversed,correct,0.594663857469167,1,valid_win,415.87674930039793,38,,,,,,,,,,,,,,,,,,sub_845,2025-02-19_13h53.32.556,Reversal,2022.1.2,60.00927740712612,1,
7,exp3.png,exp4.png,,3,0,3,0,0,7,7,7,,,,,,,,,,,,,,,,,,,,,,,,,False,66,67,True,exp4.png,exp3.png,trial_right_image,-1,exp3.png,1,exp3.png,exp4.png,1,1,non-reversed,correct,0.19735804638164123,0,invalid_lose,420.71044049970806,38,,,,,,,,,,,,,,,,,,sub_845,2025-02-19_13h53.32.556,Reversal,2022.1.2,60.00927740712612,1,
8,exp1.png,exp2.png,,3,0,3,0,0,8,8,8,,,,,,,,,,,,,,,,,,,,,,,,,False,67,68,True,exp2.png,exp1.png,trial_right_image,-1,exp1.png,1,exp1.png,exp2.png,1,3,reversed,correct,0.03824482659443851,0,invalid_lose,425.2598403999582,38,,,,,,,,,,,,,,,,,,sub_845,2025-02-19_13h53.32.556,Reversal,2022.1.2,60.00927740712612,1,
9,exp3.png,exp4.png,,3,0,3,0,0,9,9,9,,,,,,,,,,,,,,,,,,,,,,,,,False,68,69,False,exp3.png,exp4.png,trial_right_image,-1,exp4.png,1,exp3.png,exp4.png,0,2,non-reversed,incorrect,0.05382783867191254,1,invalid_win,430.8430103994906,39,,,,,,,,,,,,,,,,,,sub_845,2025-02-19_13h53.32.556,Reversal,2022.1.2,60.00927740712612,1,
10,exp1.png,exp2.png,,3,0,3,0,0,10,10,10,,,,,,,,,,,,,,,,,,,,,,,,,False,69,70,True,exp2.png,exp1.png,trial_right_image,-1,exp1.png,1,exp1.png,exp2.png,1,3,reversed,correct,0.8068573013170266,1,valid_win,435.5266062999144,40,,,,,,,,,,,,,,,,,,sub_845,2025-02-19_13h53.32.556,Reversal,2022.1.2,60.00927740712612,1,
11,exp3.png,exp4.png,,3,0,3,0,0,11,11,11,,,,,,,,,,,,,,,,,,,,,,,,,False,70,71,True,exp4.png,exp3.png,trial_left_image,1,exp4.png,1,exp3.png,exp4.png,0,2,non-reversed,incorrect,0.4445030498433308,0,valid_lose,440.4934652997181,40,,,,,,,,,,,,,,,,,,sub_845,2025-02-19_13h53.32.556,Reversal,2022.1.2,60.00927740712612,1,
12,exp1.png,exp2.png,,3,0,3,0,0,12,12,12,,,,,,,,,,,,,,,,,,,,,,,,,False,71,72,True,exp2.png,exp1.png,trial_right_image,-1,exp1.png,1,exp1.png,exp2.png,1,3,reversed,correct,0.6013205886949774,1,valid_win,445.02661809977144,41,,,,,,,,,,,,,,,,,,sub_845,2025-02-19_13h53.32.556,Reversal,2022.1.2,60.00927740712612,1,
13,exp3.png,exp4.png,,3,0,3,0,0,13,13,13,,,,,,,,,,,,,,,,,,,,,,,,,False,72,73,False,exp3.png,exp4.png,trial_left_image,1,exp3.png,1,exp3.png,exp4.png,1,1,non-reversed,correct,0.46987924125971425,1,valid_win,451.7925254004076,42,,,,,,,,,,,,,,,,,,sub_845,2025-02-19_13h53.32.556,Reversal,2022.1.2,60.00927740712612,1,
14,exp1.png,exp2.png,,3,0,3,0,0,14,14,14,,,,,,,,,,,,,,,,,,,,,,,,,False,73,74,False,exp1.png,exp2.png,trial_left_image,1,exp1.png,1,exp1.png,exp2.png,1,3,reversed,correct,0.7376373926504681,1,valid_win,456.35940319951624,43,,,,,,,,,,,,,,,,,,sub_845,2025-02-19_13h53.32.556,Reversal,2022.1.2,60.00927740712612,1,
15,exp3.png,exp4.png,,3,0,3,0,0,15,15,15,,,,,,,,,,,,,,,,,,,,,,,,,False,74,75,False,exp3.png,exp4.png,trial_left_image,1,exp3.png,1,exp3.png,exp4.png,1,1,non-reversed,correct,0.8080652123513746,1,valid_win,460.77518070023507,44,,,,,,,,,,,,,,,,,,sub_845,2025-02-19_13h53.32.556,Reversal,2022.1.2,60.00927740712612,1,
16,exp1.png,exp2.png,,3,0,3,0,0,16,16,16,,,,,,,,,,,,,,,,,,,,,,,,,False,75,76,False,exp1.png,exp2.png,trial_left_image,1,exp1.png,1,exp1.png,exp2.png,1,3,reversed,correct,0.43459701933720785,1,valid_win,465.02609249949455,45,,,,,,,,,,,,,,,,,,sub_845,2025-02-19_13h53.32.556,Reversal,2022.1.2,60.00927740712612,1,
17,exp3.png,exp4.png,,3,0,3,0,0,17,17,17,,,,,,,,,,,,,,,,,,,,,,,,,False,76,77,False,exp3.png,exp4.png,trial_left_image,1,exp3.png,1,exp3.png,exp4.png,1,1,non-reversed,correct,0.18666878838123735,0,invalid_lose,469.4099511001259,45,,,,,,,,,,,,,,,,,,sub_845,2025-02-19_13h53.32.556,Reversal,2022.1.2,60.00927740712612,1,
18,exp1.png,exp2.png,,3,0,3,0,0,18,18,18,,,,,,,,,,,,,,,,,,,,,,,,,False,77,78,False,exp1.png,exp2.png,trial_left_image,1,exp1.png,1,exp1.png,exp2.png,1,3,reversed,correct,0.43947522101728986,1,valid_win,473.80913639999926,46,,,,,,,,,,,,,,,,,,sub_845,2025-02-19_13h53.32.556,Reversal,2022.1.2,60.00927740712612,1,
19,exp3.png,exp4.png,,3,0,3,0,0,19,19,19,,,,,,,,,,,,,,,,,,,,,,,,,False,78,79,False,exp3.png,exp4.png,trial_left_image,1,exp3.png,1,exp3.png,exp4.png,1,1,non-reversed,correct,0.2182556162694661,0,invalid_lose,478.3095845002681,46,,,,,,,,,,,,,,,,,,sub_845,2025-02-19_13h53.32.556,Reversal,2022.1.2,60.00927740712612,1,
20,exp1.png,exp2.png,,3,0,3,0,0,20,20,20,,,,,,,,,,,,,,,,,,,,,,,,,False,79,80,False,exp1.png,exp2.png,trial_left_image,1,exp1.png,1,exp1.png,exp2.png,1,3,reversed,correct,0.8853920078513485,1,valid_win,483.9419427001849,47,,,,,,,,,,,,,,,,,,sub_845,2025-02-19_13h53.32.556,Reversal,2022.1.2,60.00927740712612,1,
,,,exp1.png,3,0,3,0,,,,,0,0,0,0,0,0,0,0,,,,,,,,,,,,,,,,,,,,,,,,,,,,,,,,,,,,,,90.0,90.0,2.8471897998824716,"[(90.0, 2.8471897998824716)]",553.3368287002668,None,,,,,,,,,,,,sub_845,2025-02-19_13h53.32.556,Reversal,2022.1.2,60.00927740712612,1,
,,,exp2.png,3,0,3,0,,,,,0,0,0,0,0,1,1,1,,,,,,,,,,,,,,,,,,,,,,,,,,,,,,,,,,,,,,,15.0,2.214721000753343,"[(15.0, 2.214721000753343)]",557.3557991003618,None,15.0,,,,,,,,,,,sub_845,2025-02-19_13h53.32.556,Reversal,2022.1.2,60.00927740712612,1,
,,,exp3.png,3,0,3,0,,,,,0,0,0,0,0,2,2,2,,,,,,,,,,,,,,,,,,,,,,,,,,,,,,,,,,,,,,,50.0,None,[],559.9867417002097,None,,,,,,,,,,,,sub_845,2025-02-19_13h53.32.556,Reversal,2022.1.2,60.00927740712612,1,
,,,exp4.png,3,0,3,0,,,,,0,0,0,0,0,3,3,3,,,,,,,,,,,,,,,,,,,,,,,,,,,,,,,,,,,,,,,50.0,None,[],560.4290843000636,None,,,,,,,,,,,,sub_845,2025-02-19_13h53.32.556,Reversal,2022.1.2,60.00927740712612,1,
0,exp1.png,exp2.png,,,,,,,,,,,,,,,,,,0,0,0,0,0,0,0,0,,,,,,,,,True,,,,,,,,,,,,,,,,,,,,,,,,,,,,,,,,,,,,,,sub_845,2025-02-19_13h53.32.556,Reversal,2022.1.2,60.00927740712612,1,
1,exp3.png,exp4.png,,,,,,,,,,,,,,,,,,0,0,0,0,0,1,1,1,,,,,,,,,False,0,81,True,exp4.png,exp3.png,trial_left_image,1,exp4.png,1,exp3.png,exp4.png,0,2,non-reversed,incorrect,0.22013633016597645,1,invalid_win,499.3585911998525,48,,,,,,,,,,496.3547366000712,,,,,,,,sub_845,2025-02-19_13h53.32.556,Reversal,2022.1.2,60.00927740712612,1,
2,exp1.png,exp2.png,,,,,,,,,,,,,,,,,,0,0,0,0,0,2,2,2,,,,,,,,,False,1,82,True,exp2.png,exp1.png,trial_right_image,-1,exp1.png,1,exp2.png,exp1.png,1,3,reversed,incorrect,0.41162475422665434,0,valid_lose,506.42534520011395,48,,,,,,,,,,,,,,,,,,sub_845,2025-02-19_13h53.32.556,Reversal,2022.1.2,60.00927740712612,1,
3,exp3.png,exp4.png,,,,,,,,,,,,,,,,,,0,0,0,0,0,3,3,3,,,,,,,,,False,2,83,False,exp3.png,exp4.png,trial_right_image,-1,exp4.png,1,exp3.png,exp4.png,0,2,non-reversed,incorrect,0.3867930961626749,0,valid_lose,511.574750199914,48,,,,,,,,,,,,,,,,,,sub_845,2025-02-19_13h53.32.556,Reversal,2022.1.2,60.00927740712612,1,
4,exp1.png,exp2.png,,,,,,,,,,,,,,,,,,0,0,0,0,0,4,4,4,,,,,,,,,False,3,84,False,exp1.png,exp2.png,trial_left_image,1,exp1.png,1,exp2.png,exp1.png,1,3,reversed,incorrect,0.6826332302724615,0,valid_lose,516.4253497002646,48,,,,,,,,,,,,,,,,,,sub_845,2025-02-19_13h53.32.556,Reversal,2022.1.2,60.00927740712612,1,
5,exp3.png,exp4.png,,,,,,,,,,,,,,,,,,0,0,0,0,0,5,5,5,,,,,,,,,False,4,85,False,exp3.png,exp4.png,trial_right_image,-1,exp4.png,1,exp3.png,exp4.png,0,2,non-reversed,incorrect,0.5820210194918252,0,valid_lose,521.5580184003338,48,,,,,,,,,,,,,,,,,,sub_845,2025-02-19_13h53.32.556,Reversal,2022.1.2,60.00927740712612,1,
6,exp1.png,exp2.png,,,,,,,,,,,,,,,,,,0,0,0,0,0,6,6,6,,,,,,,,,False,5,86,True,exp2.png,exp1.png,trial_left_image,1,exp2.png,1,exp2.png,exp1.png,0,4,reversed,correct,0.7392239272859944,1,valid_win,526.2579899998382,49,,,,,,,,,,,,,,,,,,sub_845,2025-02-19_13h53.32.556,Reversal,2022.1.2,60.00927740712612,1,
7,exp3.png,exp4.png,,,,,,,,,,,,,,,,,,0,0,0,0,0,7,7,7,,,,,,,,,False,6,87,False,exp3.png,exp4.png,trial_left_image,1,exp3.png,1,exp3.png,exp4.png,1,1,non-reversed,correct,0.9629713005302879,1,valid_win,531.7581224003807,50,,,,,,,,,,,,,,,,,,sub_845,2025-02-19_13h53.32.556,Reversal,2022.1.2,60.00927740712612,1,
8,exp1.png,exp2.png,,,,,,,,,,,,,,,,,,0,0,0,0,0,8,8,8,,,,,,,,,False,7,88,False,exp1.png,exp2.png,trial_right_image,-1,exp2.png,1,exp2.png,exp1.png,0,4,reversed,correct,0.12762441942205316,0,invalid_lose,536.3581533003598,50,,,,,,,,,,,,,,,,,,sub_845,2025-02-19_13h53.32.556,Reversal,2022.1.2,60.00927740712612,1,
9,exp3.png,exp4.png,,,,,,,,,,,,,,,,,,0,0,0,0,0,9,9,9,,,,,,,,,False,8,89,False,exp3.png,exp4.png,trial_left_image,1,exp3.png,1,exp3.png,exp4.png,1,1,non-reversed,correct,0.12101083024684989,0,invalid_lose,541.874253500253,50,,,,,,,,,,,,,,,,,,sub_845,2025-02-19_13h53.32.556,Reversal,2022.1.2,60.00927740712612,1,
10,exp1.png,exp2.png,,,,,,,,,,,,,,,,,,0,0,0,0,0,10,10,10,,,,,,,,,False,9,90,True,exp2.png,exp1.png,trial_left_image,1,exp2.png,1,exp2.png,exp1.png,0,4,reversed,correct,0.8725712400133631,1,valid_win,548.4750137999654,51,,,,,,,,,,,,,,,,,,sub_845,2025-02-19_13h53.32.556,Reversal,2022.1.2,60.00927740712612,1,
11,exp3.png,exp4.png,,,,,,,,,,,,,,,,,,0,0,0,0,0,11,11,11,,,,,,,,,False,10,91,True,exp4.png,exp3.png,trial_right_image,-1,exp3.png,1,exp3.png,exp4.png,1,1,non-reversed,correct,0.9212777427142327,1,valid_win,554.4237246001139,52,,,,,,,,,,,,,,,,,,sub_845,2025-02-19_13h53.32.556,Reversal,2022.1.2,60.00927740712612,1,
12,exp1.png,exp2.png,,,,,,,,,,,,,,,,,,0,0,0,0,0,12,12,12,,,,,,,,,False,11,92,True,exp2.png,exp1.png,trial_left_image,1,exp2.png,1,exp2.png,exp1.png,0,4,reversed,correct,0.3708156873479327,1,valid_win,559.1908846003935,53,,,,,,,,,,,,,,,,,,sub_845,2025-02-19_13h53.32.556,Reversal,2022.1.2,60.00927740712612,1,
13,exp3.png,exp4.png,,,,,,,,,,,,,,,,,,0,0,0,0,0,13,13,13,,,,,,,,,False,12,93,True,exp4.png,exp3.png,trial_right_image,-1,exp3.png,1,exp3.png,exp4.png,1,1,non-reversed,correct,0.012205021316631925,0,invalid_lose,564.3744697999209,53,,,,,,,,,,,,,,,,,,sub_845,2025-02-19_13h53.32.556,Reversal,2022.1.2,60.00927740712612,1,
14,exp1.png,exp2.png,,,,,,,,,,,,,,,,,,0,0,0,0,0,14,14,14,,,,,,,,,False,13,94,False,exp1.png,exp2.png,trial_right_image,-1,exp2.png,1,exp2.png,exp1.png,0,4,reversed,correct,0.9897013948403168,1,valid_win,569.5079212002456,54,,,,,,,,,,,,,,,,,,sub_845,2025-02-19_13h53.32.556,Reversal,2022.1.2,60.00927740712612,1,
15,exp3.png,exp4.png,,,,,,,,,,,,,,,,,,0,0,0,0,0,15,15,15,,,,,,,,,False,14,95,False,exp3.png,exp4.png,trial_right_image,-1,exp4.png,1,exp3.png,exp4.png,0,2,non-reversed,incorrect,0.1537647684195408,1,invalid_win,577.3901904998347,55,,,,,,,,,,,,,,,,,,sub_845,2025-02-19_13h53.32.556,Reversal,2022.1.2,60.00927740712612,1,
16,exp1.png,exp2.png,,,,,,,,,,,,,,,,,,0,0,0,0,0,16,16,16,,,,,,,,,False,15,96,True,exp2.png,exp1.png,trial_left_image,1,exp2.png,1,exp2.png,exp1.png,0,4,reversed,correct,0.2626500703380199,1,valid_win,581.9906468000263,56,,,,,,,,,,,,,,,,,,sub_845,2025-02-19_13h53.32.556,Reversal,2022.1.2,60.00927740712612,1,
17,exp3.png,exp4.png,,,,,,,,,,,,,,,,,,0,0,0,0,0,17,17,17,,,,,,,,,False,16,97,True,exp4.png,exp3.png,trial_left_image,1,exp4.png,1,exp3.png,exp4.png,0,2,non-reversed,incorrect,0.7312798908269257,0,valid_lose,588.890161300078,56,,,,,,,,,,,,,,,,,,sub_845,2025-02-19_13h53.32.556,Reversal,2022.1.2,60.00927740712612,1,
18,exp1.png,exp2.png,,,,,,,,,,,,,,,,,,0,0,0,0,0,18,18,18,,,,,,,,,False,17,98,False,exp1.png,exp2.png,trial_right_image,-1,exp2.png,1,exp2.png,exp1.png,0,4,reversed,correct,0.11476103525723569,0,invalid_lose,594.2239014999941,56,,,,,,,,,,,,,,,,,,sub_845,2025-02-19_13h53.32.556,Reversal,2022.1.2,60.00927740712612,1,
19,exp3.png,exp4.png,,,,,,,,,,,,,,,,,,0,0,0,0,0,19,19,19,,,,,,,,,False,18,99,False,exp3.png,exp4.png,trial_left_image,1,exp3.png,1,exp3.png,exp4.png,1,1,non-reversed,correct,0.1379961335186246,0,invalid_lose,600.4898784002289,56,,,,,,,,,,,,,,,,,,sub_845,2025-02-19_13h53.32.556,Reversal,2022.1.2,60.00927740712612,1,
20,exp1.png,exp2.png,,,,,,,,,,,,,,,,,,0,0,0,0,0,20,20,20,,,,,,,,,False,19,100,True,exp2.png,exp1.png,trial_left_image,1,exp2.png,1,exp2.png,exp1.png,0,4,reversed,correct,0.1575056566069999,0,invalid_lose,605.1737484997138,56,,,,,,,,,,,,,,,,,,sub_845,2025-02-19_13h53.32.556,Reversal,2022.1.2,60.00927740712612,1,
,,,exp1.png,,,,,,,,,,,,,,,,,0,0,0,0,,,,,0,0,0,0,0,0,0,0,,,,,,,,,,,,,,,,,,,,,,,50.0,None,[],674.5484512001276,None,,,,,,,,,,,,sub_845,2025-02-19_13h53.32.556,Reversal,2022.1.2,60.00927740712612,1,
,,,exp2.png,,,,,,,,,,,,,,,,,0,0,0,0,,,,,0,0,0,0,0,1,1,1,,,,,,,,,,,,,,,,,,,,,,,50.0,None,[],677.4280859008431,None,,,,,,,,,,,,sub_845,2025-02-19_13h53.32.556,Reversal,2022.1.2,60.00927740712612,1,
,,,exp3.png,,,,,,,,,,,,,,,,,0,0,0,0,,,,,0,0,0,0,0,2,2,2,,,,,,,,,,,,,,,,,,,,,,,50.0,None,[],678.5436166999862,None,,,,,,,,,,,,sub_845,2025-02-19_13h53.32.556,Reversal,2022.1.2,60.00927740712612,1,
,,,exp4.png,,,,,,,,,,,,,,,,,0,0,0,0,,,,,0,0,0,0,0,3,3,3,,,,,,,,,,,,,,,,,,,,,,,50.0,None,[],679.395999500528,None,,,,,,,,,,,,sub_845,2025-02-19_13h53.32.556,Reversal,2022.1.2,60.00927740712612,1,
0,exp1.png,exp2.png,,,,,,,,,,,,,,,,,,1,0,1,0,0,0,0,0,,,,,,,,,True,,,,,,,,,,,,,,,,,,,,,,,,,,,,,,,,,,,,,,sub_845,2025-02-19_13h53.32.556,Reversal,2022.1.2,60.00927740712612,1,
1,exp3.png,exp4.png,,,,,,,,,,,,,,,,,,1,0,1,0,0,1,1,1,,,,,,,,,False,20,101,False,exp3.png,exp4.png,trial_right_image,-1,exp4.png,1,exp3.png,exp4.png,0,2,non-reversed,incorrect,0.5815035885265709,0,valid_lose,626.0234040999785,56,,,,,,,,,,,,,,,,,,sub_845,2025-02-19_13h53.32.556,Reversal,2022.1.2,60.00927740712612,1,
2,exp1.png,exp2.png,,,,,,,,,,,,,,,,,,1,0,1,0,0,2,2,2,,,,,,,,,False,21,102,False,exp1.png,exp2.png,trial_left_image,1,exp1.png,1,exp2.png,exp1.png,1,3,reversed,incorrect,0.05623043224956936,1,invalid_win,631.439978200011,57,,,,,,,,,,,,,,,,,,sub_845,2025-02-19_13h53.32.556,Reversal,2022.1.2,60.00927740712612,1,
3,exp3.png,exp4.png,,,,,,,,,,,,,,,,,,1,0,1,0,0,3,3,3,,,,,,,,,False,22,103,True,exp4.png,exp3.png,trial_right_image,-1,exp3.png,1,exp3.png,exp4.png,1,1,non-reversed,correct,0.6537566805784301,1,valid_win,636.6064539002255,58,,,,,,,,,,,,,,,,,,sub_845,2025-02-19_13h53.32.556,Reversal,2022.1.2,60.00927740712612,1,
4,exp1.png,exp2.png,,,,,,,,,,,,,,,,,,1,0,1,0,0,4,4,4,,,,,,,,,False,23,104,False,exp1.png,exp2.png,trial_left_image,1,exp1.png,1,exp2.png,exp1.png,1,3,reversed,incorrect,0.8626570396118517,0,valid_lose,641.20642639976,58,,,,,,,,,,,,,,,,,,sub_845,2025-02-19_13h53.32.556,Reversal,2022.1.2,60.00927740712612,1,
5,exp3.png,exp4.png,,,,,,,,,,,,,,,,,,1,0,1,0,0,5,5,5,,,,,,,,,False,24,105,False,exp3.png,exp4.png,trial_left_image,1,exp3.png,1,exp3.png,exp4.png,1,1,non-reversed,correct,0.04409017225687961,0,invalid_lose,648.7729177000001,58,,,,,,,,,,,,,,,,,,sub_845,2025-02-19_13h53.32.556,Reversal,2022.1.2,60.00927740712612,1,
6,exp1.png,exp2.png,,,,,,,,,,,,,,,,,,1,0,1,0,0,6,6,6,,,,,,,,,False,25,106,False,exp1.png,exp2.png,trial_right_image,-1,exp2.png,1,exp2.png,exp1.png,0,4,reversed,correct,0.5997481563197691,1,valid_win,653.7730451002717,59,,,,,,,,,,,,,,,,,,sub_845,2025-02-19_13h53.32.556,Reversal,2022.1.2,60.00927740712612,1,
7,exp3.png,exp4.png,,,,,,,,,,,,,,,,,,1,0,1,0,0,7,7,7,,,,,,,,,False,26,107,True,exp4.png,exp3.png,trial_right_image,-1,exp3.png,1,exp3.png,exp4.png,1,1,non-reversed,correct,0.671741456681716,1,valid_win,658.5063712000847,60,,,,,,,,,,,,,,,,,,sub_845,2025-02-19_13h53.32.556,Reversal,2022.1.2,60.00927740712612,1,
8,exp1.png,exp2.png,,,,,,,,,,,,,,,,,,1,0,1,0,0,8,8,8,,,,,,,,,False,27,108,False,exp1.png,exp2.png,trial_left_image,1,exp1.png,1,exp2.png,exp1.png,1,3,reversed,incorrect,0.7887861526349568,0,valid_lose,663.0890712002292,60,,,,,,,,,,,,,,,,,,sub_845,2025-02-19_13h53.32.556,Reversal,2022.1.2,60.00927740712612,1,
9,exp3.png,exp4.png,,,,,,,,,,,,,,,,,,1,0,1,0,0,9,9,9,,,,,,,,,False,28,109,True,exp4.png,exp3.png,trial_left_image,1,exp4.png,1,exp3.png,exp4.png,0,2,non-reversed,incorrect,0.26819105062903825,0,valid_lose,667.3226277995855,60,,,,,,,,,,,,,,,,,,sub_845,2025-02-19_13h53.32.556,Reversal,2022.1.2,60.00927740712612,1,
10,exp1.png,exp2.png,,,,,,,,,,,,,,,,,,1,0,1,0,0,10,10,10,,,,,,,,,False,29,110,True,exp2.png,exp1.png,trial_left_image,1,exp2.png,1,exp2.png,exp1.png,0,4,reversed,correct,0.6696115599194179,1,valid_win,671.5557032003999,61,,,,,,,,,,,,,,,,,,sub_845,2025-02-19_13h53.32.556,Reversal,2022.1.2,60.00927740712612,1,
11,exp3.png,exp4.png,,,,,,,,,,,,,,,,,,1,0,1,0,0,11,11,11,,,,,,,,,False,30,111,True,exp4.png,exp3.png,trial_right_image,-1,exp3.png,1,exp3.png,exp4.png,1,1,non-reversed,correct,0.13612123177747126,0,invalid_lose,676.4221435999498,61,,,,,,,,,,,,,,,,,,sub_845,2025-02-19_13h53.32.556,Reversal,2022.1.2,60.00927740712612,1,
12,exp1.png,exp2.png,,,,,,,,,,,,,,,,,,1,0,1,0,0,12,12,12,,,,,,,,,False,31,112,True,exp2.png,exp1.png,trial_left_image,1,exp2.png,1,exp2.png,exp1.png,0,4,reversed,correct,0.6383145663659205,1,valid_win,680.5724823996425,62,,,,,,,,,,,,,,,,,,sub_845,2025-02-19_13h53.32.556,Reversal,2022.1.2,60.00927740712612,1,
13,exp3.png,exp4.png,,,,,,,,,,,,,,,,,,1,0,1,0,0,13,13,13,,,,,,,,,False,32,113,False,exp3.png,exp4.png,trial_right_image,-1,exp4.png,1,exp3.png,exp4.png,0,2,non-reversed,incorrect,0.8953683483400303,0,valid_lose,685.0386108998209,62,,,,,,,,,,,,,,,,,,sub_845,2025-02-19_13h53.32.556,Reversal,2022.1.2,60.00927740712612,1,
14,exp1.png,exp2.png,,,,,,,,,,,,,,,,,,1,0,1,0,0,14,14,14,,,,,,,,,False,33,114,True,exp2.png,exp1.png,trial_right_image,-1,exp1.png,1,exp2.png,exp1.png,1,3,reversed,incorrect,0.8298733689540457,0,valid_lose,689.5722639998421,62,,,,,,,,,,,,,,,,,,sub_845,2025-02-19_13h53.32.556,Reversal,2022.1.2,60.00927740712612,1,
15,exp3.png,exp4.png,,,,,,,,,,,,,,,,,,1,0,1,0,0,15,15,15,,,,,,,,,False,34,115,True,exp4.png,exp3.png,trial_left_image,1,exp4.png,1,exp3.png,exp4.png,0,2,non-reversed,incorrect,0.33650652618278987,0,valid_lose,693.9053274998441,62,,,,,,,,,,,,,,,,,,sub_845,2025-02-19_13h53.32.556,Reversal,2022.1.2,60.00927740712612,1,
16,exp1.png,exp2.png,,,,,,,,,,,,,,,,,,1,0,1,0,0,16,16,16,,,,,,,,,False,35,116,False,exp1.png,exp2.png,trial_left_image,1,exp1.png,1,exp2.png,exp1.png,1,3,reversed,incorrect,0.10256602132243486,1,invalid_win,698.737996599637,63,,,,,,,,,,,,,,,,,,sub_845,2025-02-19_13h53.32.556,Reversal,2022.1.2,60.00927740712612,1,
17,exp3.png,exp4.png,,,,,,,,,,,,,,,,,,1,0,1,0,0,17,17,17,,,,,,,,,False,36,117,True,exp4.png,exp3.png,trial_right_image,-1,exp3.png,1,exp3.png,exp4.png,1,1,non-reversed,correct,0.9379706818364785,1,valid_win,704.2549943998456,64,,,,,,,,,,,,,,,,,,sub_845,2025-02-19_13h53.32.556,Reversal,2022.1.2,60.00927740712612,1,
18,exp1.png,exp2.png,,,,,,,,,,,,,,,,,,1,0,1,0,0,18,18,18,,,,,,,,,False,37,118,True,exp2.png,exp1.png,trial_right_image,-1,exp1.png,1,exp2.png,exp1.png,1,3,reversed,incorrect,0.5389819987646063,0,valid_lose,709.9721171995625,64,,,,,,,,,,,,,,,,,,sub_845,2025-02-19_13h53.32.556,Reversal,2022.1.2,60.00927740712612,1,
19,exp3.png,exp4.png,,,,,,,,,,,,,,,,,,1,0,1,0,0,19,19,19,,,,,,,,,False,38,119,False,exp3.png,exp4.png,trial_right_image,-1,exp4.png,1,exp3.png,exp4.png,0,2,non-reversed,incorrect,0.7467145015735234,0,valid_lose,714.3876104997471,64,,,,,,,,,,,,,,,,,,sub_845,2025-02-19_13h53.32.556,Reversal,2022.1.2,60.00927740712612,1,
20,exp1.png,exp2.png,,,,,,,,,,,,,,,,,,1,0,1,0,0,20,20,20,,,,,,,,,False,39,120,False,exp1.png,exp2.png,trial_right_image,-1,exp2.png,1,exp2.png,exp1.png,0,4,reversed,correct,0.12230639045056546,0,invalid_lose,719.6050370000303,64,,,,,,,,,,,,,,,,,,sub_845,2025-02-19_13h53.32.556,Reversal,2022.1.2,60.00927740712612,1,
,,,exp1.png,,,,,,,,,,,,,,,,,1,0,1,0,,,,,0,0,0,0,0,0,0,0,,,,,,,,,,,,,,,,,,,,,,,50.0,None,[],788.9946917006746,None,,,,,,,,,,,,sub_845,2025-02-19_13h53.32.556,Reversal,2022.1.2,60.00927740712612,1,
,,,exp2.png,,,,,,,,,,,,,,,,,1,0,1,0,,,,,0,0,0,0,0,1,1,1,,,,,,,,,,,,,,,,,,,,,,,50.0,None,[],790.8976842006668,None,,,,,,,,,,,,sub_845,2025-02-19_13h53.32.556,Reversal,2022.1.2,60.00927740712612,1,
,,,exp3.png,,,,,,,,,,,,,,,,,1,0,1,0,,,,,0,0,0,0,0,2,2,2,,,,,,,,,,,,,,,,,,,,,,,50.0,None,[],791.4455969007686,None,,,,,,,,,,,,sub_845,2025-02-19_13h53.32.556,Reversal,2022.1.2,60.00927740712612,1,
,,,exp4.png,,,,,,,,,,,,,,,,,1,0,1,0,,,,,0,0,0,0,0,3,3,3,,,,,,,,,,,,,,,,,,,,,,,50.0,None,[],791.8910246007144,None,,,,,,,,,,,,sub_845,2025-02-19_13h53.32.556,Reversal,2022.1.2,60.00927740712612,1,
0,exp1.png,exp2.png,,,,,,,,,,,,,,,,,,2,0,2,0,0,0,0,0,,,,,,,,,True,,,,,,,,,,,,,,,,,,,,,,,,,,,,,,,,,,,,,,sub_845,2025-02-19_13h53.32.556,Reversal,2022.1.2,60.00927740712612,1,
1,exp3.png,exp4.png,,,,,,,,,,,,,,,,,,2,0,2,0,0,1,1,1,,,,,,,,,False,40,121,False,exp3.png,exp4.png,trial_left_image,1,exp3.png,1,exp3.png,exp4.png,1,1,non-reversed,correct,0.30094811386068443,1,valid_win,731.92098909989,65,,,,,,,,,,,,,,,,,,sub_845,2025-02-19_13h53.32.556,Reversal,2022.1.2,60.00927740712612,1,
2,exp1.png,exp2.png,,,,,,,,,,,,,,,,,,2,0,2,0,0,2,2,2,,,,,,,,,False,41,122,False,exp1.png,exp2.png,trial_left_image,1,exp1.png,1,exp2.png,exp1.png,1,3,reversed,incorrect,0.9274594180451734,0,valid_lose,738.7046239003539,65,,,,,,,,,,,,,,,,,,sub_845,2025-02-19_13h53.32.556,Reversal,2022.1.2,60.00927740712612,1,
3,exp3.png,exp4.png,,,,,,,,,,,,,,,,,,2,0,2,0,0,3,3,3,,,,,,,,,False,42,123,False,exp3.png,exp4.png,trial_left_image,1,exp3.png,1,exp3.png,exp4.png,1,1,non-reversed,correct,0.7958162714104621,1,valid_win,742.7040069997311,66,,,,,,,,,,,,,,,,,,sub_845,2025-02-19_13h53.32.556,Reversal,2022.1.2,60.00927740712612,1,
4,exp1.png,exp2.png,,,,,,,,,,,,,,,,,,2,0,2,0,0,4,4,4,,,,,,,,,False,43,124,False,exp1.png,exp2.png,trial_right_image,-1,exp2.png,1,exp2.png,exp1.png,0,4,reversed,correct,0.9903704236335584,1,valid_win,746.9707789001986,67,,,,,,,,,,,,,,,,,,sub_845,2025-02-19_13h53.32.556,Reversal,2022.1.2,60.00927740712612,1,
5,exp3.png,exp4.png,,,,,,,,,,,,,,,,,,2,0,2,0,0,5,5,5,,,,,,,,,False,44,125,True,exp4.png,exp3.png,trial_left_image,1,exp4.png,1,exp3.png,exp4.png,0,2,non-reversed,incorrect,0.6756988213158137,0,valid_lose,751.2036354001611,67,,,,,,,,,,,,,,,,,,sub_845,2025-02-19_13h53.32.556,Reversal,2022.1.2,60.00927740712612,1,
6,exp1.png,exp2.png,,,,,,,,,,,,,,,,,,2,0,2,0,0,6,6,6,,,,,,,,,False,45,126,True,exp2.png,exp1.png,trial_left_image,1,exp2.png,1,exp2.png,exp1.png,0,4,reversed,correct,0.47284919121001245,1,valid_win,755.4376576002687,68,,,,,,,,,,,,,,,,,,sub_845,2025-02-19_13h53.32.556,Reversal,2022.1.2,60.00927740712612,1,
7,exp3.png,exp4.png,,,,,,,,,,,,,,,,,,2,0,2,0,0,7,7,7,,,,,,,,,False,46,127,False,exp3.png,exp4.png,trial_left_image,1,exp3.png,1,exp3.png,exp4.png,1,1,non-reversed,correct,0.75663017485937,1,valid_win,759.6875705001876,69,,,,,,,,,,,,,,,,,,sub_845,2025-02-19_13h53.32.556,Reversal,2022.1.2,60.00927740712612,1,
8,exp1.png,exp2.png,,,,,,,,,,,,,,,,,,2,0,2,0,0,8,8,8,,,,,,,,,False,47,128,False,exp1.png,exp2.png,trial_right_image,-1,exp2.png,1,exp2.png,exp1.png,0,4,reversed,correct,0.9575167534147461,1,valid_win,764.0038970997557,70,,,,,,,,,,,,,,,,,,sub_845,2025-02-19_13h53.32.556,Reversal,2022.1.2,60.00927740712612,1,
9,exp3.png,exp4.png,,,,,,,,,,,,,,,,,,2,0,2,0,0,9,9,9,,,,,,,,,False,48,129,False,exp3.png,exp4.png,trial_right_image,-1,exp4.png,1,exp3.png,exp4.png,0,2,non-reversed,incorrect,0.7612870381111488,0,valid_lose,768.3873402001336,70,,,,,,,,,,,,,,,,,,sub_845,2025-02-19_13h53.32.556,Reversal,2022.1.2,60.00927740712612,1,
10,exp1.png,exp2.png,,,,,,,,,,,,,,,,,,2,0,2,0,0,10,10,10,,,,,,,,,False,49,130,True,exp2.png,exp1.png,trial_right_image,-1,exp1.png,1,exp2.png,exp1.png,1,3,reversed,incorrect,0.8669661280437324,0,valid_lose,772.6206438001245,70,,,,,,,,,,,,,,,,,,sub_845,2025-02-19_13h53.32.556,Reversal,2022.1.2,60.00927740712612,1,
11,exp3.png,exp4.png,,,,,,,,,,,,,,,,,,2,0,2,0,0,11,11,11,,,,,,,,,False,50,131,False,exp3.png,exp4.png,trial_right_image,-1,exp4.png,1,exp3.png,exp4.png,0,2,non-reversed,incorrect,0.5584148886135489,0,valid_lose,777.9202666999772,70,,,,,,,,,,,,,,,,,,sub_845,2025-02-19_13h53.32.556,Reversal,2022.1.2,60.00927740712612,1,
12,exp1.png,exp2.png,,,,,,,,,,,,,,,,,,2,0,2,0,0,12,12,12,,,,,,,,,False,51,132,True,exp2.png,exp1.png,trial_left_image,1,exp2.png,1,exp2.png,exp1.png,0,4,reversed,correct,0.9708366795450986,1,valid_win,782.0701085999608,71,,,,,,,,,,,,,,,,,,sub_845,2025-02-19_13h53.32.556,Reversal,2022.1.2,60.00927740712612,1,
13,exp3.png,exp4.png,,,,,,,,,,,,,,,,,,2,0,2,0,0,13,13,13,,,,,,,,,False,52,133,True,exp4.png,exp3.png,trial_right_image,-1,exp3.png,1,exp3.png,exp4.png,1,1,non-reversed,correct,0.46399826182022075,1,valid_win,786.2371618002653,72,,,,,,,,,,,,,,,,,,sub_845,2025-02-19_13h53.32.556,Reversal,2022.1.2,60.00927740712612,1,
14,exp1.png,exp2.png,,,,,,,,,,,,,,,,,,2,0,2,0,0,14,14,14,,,,,,,,,False,53,134,True,exp2.png,exp1.png,trial_left_image,1,exp2.png,1,exp2.png,exp1.png,0,4,reversed,correct,0.6241476843083363,1,valid_win,790.4371346002445,73,,,,,,,,,,,,,,,,,,sub_845,2025-02-19_13h53.32.556,Reversal,2022.1.2,60.00927740712612,1,
15,exp3.png,exp4.png,,,,,,,,,,,,,,,,,,2,0,2,0,0,15,15,15,,,,,,,,,False,54,135,False,exp3.png,exp4.png,trial_right_image,-1,exp4.png,1,exp3.png,exp4.png,0,2,non-reversed,incorrect,0.39495773237893206,0,valid_lose,794.6702583003789,73,,,,,,,,,,,,,,,,,,sub_845,2025-02-19_13h53.32.556,Reversal,2022.1.2,60.00927740712612,1,
16,exp1.png,exp2.png,,,,,,,,,,,,,,,,,,2,0,2,0,0,16,16,16,,,,,,,,,False,55,136,True,exp2.png,exp1.png,trial_left_image,1,exp2.png,1,exp2.png,exp1.png,0,4,reversed,correct,0.2013887839522941,0,invalid_lose,799.9204722996801,73,,,,,,,,,,,,,,,,,,sub_845,2025-02-19_13h53.32.556,Reversal,2022.1.2,60.00927740712612,1,
17,exp3.png,exp4.png,,,,,,,,,,,,,,,,,,2,0,2,0,0,17,17,17,,,,,,,,,False,56,137,False,exp3.png,exp4.png,trial_right_image,-1,exp4.png,1,exp3.png,exp4.png,0,2,non-reversed,incorrect,0.5530083778501208,0,valid_lose,805.1365980003029,73,,,,,,,,,,,,,,,,,,sub_845,2025-02-19_13h53.32.556,Reversal,2022.1.2,60.00927740712612,1,
18,exp1.png,exp2.png,,,,,,,,,,,,,,,,,,2,0,2,0,0,18,18,18,,,,,,,,,False,57,138,True,exp2.png,exp1.png,trial_right_image,-1,exp1.png,1,exp2.png,exp1.png,1,3,reversed,incorrect,0.5970823062133183,0,valid_lose,809.2201340002939,73,,,,,,,,,,,,,,,,,,sub_845,2025-02-19_13h53.32.556,Reversal,2022.1.2,60.00927740712612,1,
19,exp3.png,exp4.png,,,,,,,,,,,,,,,,,,2,0,2,0,0,19,19,19,,,,,,,,,False,58,139,True,exp4.png,exp3.png,trial_right_image,-1,exp3.png,1,exp3.png,exp4.png,1,1,non-reversed,correct,0.9430772074533053,1,valid_win,813.4525880003348,74,,,,,,,,,,,,,,,,,,sub_845,2025-02-19_13h53.32.556,Reversal,2022.1.2,60.00927740712612,1,
20,exp1.png,exp2.png,,,,,,,,,,,,,,,,,,2,0,2,0,0,20,20,20,,,,,,,,,False,59,140,True,exp2.png,exp1.png,trial_left_image,1,exp2.png,1,exp2.png,exp1.png,0,4,reversed,correct,0.9159908086834814,1,valid_win,818.0027820998803,75,,,,,,,,,,,,,,,,,,sub_845,2025-02-19_13h53.32.556,Reversal,2022.1.2,60.00927740712612,1,
,,,exp1.png,,,,,,,,,,,,,,,,,2,0,2,0,,,,,0,0,0,0,0,0,0,0,,,,,,,,,,,,,,,,,,,,,,,50.0,None,[],887.3970281006768,None,,,,,,,,,,,,sub_845,2025-02-19_13h53.32.556,Reversal,2022.1.2,60.00927740712612,1,
,,,exp2.png,,,,,,,,,,,,,,,,,2,0,2,0,,,,,0,0,0,0,0,1,1,1,,,,,,,,,,,,,,,,,,,,,,,71.0,0.9669901002198458,"[(71.0, 0.9669901002198458)]",891.0901877004653,None,71.0,,,,,,,,,,,sub_845,2025-02-19_13h53.32.556,Reversal,2022.1.2,60.00927740712612,1,
,,,exp3.png,,,,,,,,,,,,,,,,,2,0,2,0,,,,,0,0,0,0,0,2,2,2,,,,,,,,,,,,,,,,,,,,,,,33.0,1.0516451997682452,"[(33.0, 1.0516451997682452)]",892.9584652008489,None,,33.0,,,,,,,,,,sub_845,2025-02-19_13h53.32.556,Reversal,2022.1.2,60.00927740712612,1,
,,,exp4.png,,,,,,,,,,,,,,,,,2,0,2,0,,,,,0,0,0,0,0,3,3,3,,,,,,,,,,,,,,,,,,,,,,,78.0,1.0965871000662446,"[(78.0, 1.0965871000662446)]",895.7274143006653,None,,,78.0,,,,,,,,,sub_845,2025-02-19_13h53.32.556,Reversal,2022.1.2,60.00927740712612,1,
,,,,,,,,,,,,,,,,,,,,,,,,,,,,,,,,,,,,,,,,,,,,,,,,,,,,,,,,75,,,,,,,,,,,86,52,34,334.41591469943523,1,space,43.759298199787736,sub_845,2025-02-19_13h53.32.556,Reversal,2022.1.2,60.00927740712612,1,
