trial_index,trial_image1_file,trial_image2_file,image_file,learning_outer_loop.thisRepN,learning_outer_loop.thisTrialN,learning_outer_loop.thisN,learning_outer_loop.thisIndex,learning_inner_loop.thisRepN,learning_inner_loop.thisTrialN,learning_inner_loop.thisN,learning_inner_loop.thisIndex,learning_estimation_outer_loop.thisRepN,learning_estimation_outer_loop.thisTrialN,learning_estimation_outer_loop.thisN,learning_estimation_outer_loop.thisIndex,learning_estimation_inner_loop.thisRepN,learning_estimation_inner_loop.thisTrialN,learning_estimation_inner_loop.thisN,learning_estimation_inner_loop.thisIndex,reversal_outer_loop.thisRepN,reversal_outer_loop.thisTrialN,reversal_outer_loop.thisN,reversal_outer_loop.thisIndex,reversal_inner_loop.thisRepN,reversal_inner_loop.thisTrialN,reversal_inner_loop.thisN,reversal_inner_loop.thisIndex,reversal_estimation_outer_loop.thisRepN,reversal_estimation_outer_loop.thisTrialN,reversal_estimation_outer_loop.thisN,reversal_estimation_outer_loop.thisIndex,reversal_estimation_inner_loop.thisRepN,reversal_estimation_inner_loop.thisTrialN,reversal_estimation_inner_loop.thisN,reversal_estimation_inner_loop.thisIndex,skipped,total_trial_counter,trial_num,left_right_flip,left_image_file,right_image_file,clicked_stimulus_side,side,clicked_stimulus,version,high_prob_image_file,low_prob_image_file,choice_a,choice_b,pair_type,correct,trial_feedback_random,reward,trial_type,overall_time_after_trial,score,estimation_exp1.png,estimation_rating.response,estimation_rating.rt,estimation_rating.history,estimation_rating.started,estimation_rating.stopped,estimation_exp2.png,estimation_exp3.png,estimation_exp4.png,total_learning_time,total_correct,learning_correct,reversal_correct,total_reversal_time,extra_block,participant,date,expName,psychopyVersion,frameRate,ver,
0,exp1.png,exp2.png,,0,0,0,0,0,0,0,0,,,,,,,,,,,,,,,,,,,,,,,,,True,,,,,,,,,,,,,,,,,,,,,,,,,,,,,,,,,,,,sub_303,2023-05-19_11h51.27.854,Reversal,2022.1.2,60.02022687265121,3,
1,exp3.png,exp4.png,,0,0,0,0,0,1,1,1,,,,,,,,,,,,,,,,,,,,,,,,,False,0,1,False,exp3.png,exp4.png,trial_right_image,-1,exp4.png,3,exp4.png,exp3.png,1,1,non-reversed,correct,0.8799944088403574,1,valid_win,10.349546700017527,1,,,,,,,,,,,,,,,,sub_303,2023-05-19_11h51.27.854,Reversal,2022.1.2,60.02022687265121,3,
2,exp1.png,exp2.png,,0,0,0,0,0,2,2,2,,,,,,,,,,,,,,,,,,,,,,,,,False,1,2,False,exp1.png,exp2.png,trial_left_image,1,exp1.png,3,exp2.png,exp1.png,0,4,reversed,incorrect,0.42928466571953705,0,valid_lose,19.116446200059727,1,,,,,,,,,,,,,,,,sub_303,2023-05-19_11h51.27.854,Reversal,2022.1.2,60.02022687265121,3,
3,exp3.png,exp4.png,,0,0,0,0,0,3,3,3,,,,,,,,,,,,,,,,,,,,,,,,,False,2,3,False,exp3.png,exp4.png,trial_right_image,-1,exp4.png,3,exp4.png,exp3.png,1,1,non-reversed,correct,0.8738789242990022,1,valid_win,27.916562099941075,2,,,,,,,,,,,,,,,,sub_303,2023-05-19_11h51.27.854,Reversal,2022.1.2,60.02022687265121,3,
4,exp1.png,exp2.png,,0,0,0,0,0,4,4,4,,,,,,,,,,,,,,,,,,,,,,,,,False,3,4,True,exp2.png,exp1.png,trial_left_image,1,exp2.png,3,exp2.png,exp1.png,1,3,reversed,correct,0.6805144630745192,1,valid_win,33.99943899991922,3,,,,,,,,,,,,,,,,sub_303,2023-05-19_11h51.27.854,Reversal,2022.1.2,60.02022687265121,3,
5,exp3.png,exp4.png,,0,0,0,0,0,5,5,5,,,,,,,,,,,,,,,,,,,,,,,,,False,4,5,False,exp3.png,exp4.png,trial_right_image,-1,exp4.png,3,exp4.png,exp3.png,1,1,non-reversed,correct,0.14229733350781182,0,invalid_lose,40.48301630001515,3,,,,,,,,,,,,,,,,sub_303,2023-05-19_11h51.27.854,Reversal,2022.1.2,60.02022687265121,3,
6,exp1.png,exp2.png,,0,0,0,0,0,6,6,6,,,,,,,,,,,,,,,,,,,,,,,,,False,5,6,False,exp1.png,exp2.png,trial_left_image,1,exp1.png,3,exp2.png,exp1.png,0,4,reversed,incorrect,0.7308220937163884,0,valid_lose,48.19937699986622,3,,,,,,,,,,,,,,,,sub_303,2023-05-19_11h51.27.854,Reversal,2022.1.2,60.02022687265121,3,
7,exp3.png,exp4.png,,0,0,0,0,0,7,7,7,,,,,,,,,,,,,,,,,,,,,,,,,False,6,7,True,exp4.png,exp3.png,trial_left_image,1,exp4.png,3,exp4.png,exp3.png,1,1,non-reversed,correct,0.036486489094667895,0,invalid_lose,54.715465399902314,3,,,,,,,,,,,,,,,,sub_303,2023-05-19_11h51.27.854,Reversal,2022.1.2,60.02022687265121,3,
8,exp1.png,exp2.png,,0,0,0,0,0,8,8,8,,,,,,,,,,,,,,,,,,,,,,,,,False,7,8,False,exp1.png,exp2.png,trial_right_image,-1,exp2.png,3,exp2.png,exp1.png,1,3,reversed,correct,0.679876816840634,1,valid_win,59.59855549992062,4,,,,,,,,,,,,,,,,sub_303,2023-05-19_11h51.27.854,Reversal,2022.1.2,60.02022687265121,3,
9,exp3.png,exp4.png,,0,0,0,0,0,9,9,9,,,,,,,,,,,,,,,,,,,,,,,,,False,8,9,True,exp4.png,exp3.png,trial_left_image,1,exp4.png,3,exp4.png,exp3.png,1,1,non-reversed,correct,0.27322161863584615,1,valid_win,65.46589859994128,5,,,,,,,,,,,,,,,,sub_303,2023-05-19_11h51.27.854,Reversal,2022.1.2,60.02022687265121,3,
10,exp1.png,exp2.png,,0,0,0,0,0,10,10,10,,,,,,,,,,,,,,,,,,,,,,,,,False,9,10,True,exp2.png,exp1.png,trial_left_image,1,exp2.png,3,exp2.png,exp1.png,1,3,reversed,correct,0.2996849206572876,1,valid_win,72.1988828999456,6,,,,,,,,,,,,,,,,sub_303,2023-05-19_11h51.27.854,Reversal,2022.1.2,60.02022687265121,3,
11,exp3.png,exp4.png,,0,0,0,0,0,11,11,11,,,,,,,,,,,,,,,,,,,,,,,,,False,10,11,True,exp4.png,exp3.png,trial_left_image,1,exp4.png,3,exp4.png,exp3.png,1,1,non-reversed,correct,0.5385925361485021,1,valid_win,78.08232100005262,7,,,,,,,,,,,,,,,,sub_303,2023-05-19_11h51.27.854,Reversal,2022.1.2,60.02022687265121,3,
12,exp1.png,exp2.png,,0,0,0,0,0,12,12,12,,,,,,,,,,,,,,,,,,,,,,,,,False,11,12,True,exp2.png,exp1.png,trial_left_image,1,exp2.png,3,exp2.png,exp1.png,1,3,reversed,correct,0.6681015284537093,1,valid_win,83.78167429985479,8,,,,,,,,,,,,,,,,sub_303,2023-05-19_11h51.27.854,Reversal,2022.1.2,60.02022687265121,3,
13,exp3.png,exp4.png,,0,0,0,0,0,13,13,13,,,,,,,,,,,,,,,,,,,,,,,,,False,12,13,False,exp3.png,exp4.png,trial_right_image,-1,exp4.png,3,exp4.png,exp3.png,1,1,non-reversed,correct,0.8629665808109893,1,valid_win,90.89825490000658,9,,,,,,,,,,,,,,,,sub_303,2023-05-19_11h51.27.854,Reversal,2022.1.2,60.02022687265121,3,
14,exp1.png,exp2.png,,0,0,0,0,0,14,14,14,,,,,,,,,,,,,,,,,,,,,,,,,False,13,14,False,exp1.png,exp2.png,trial_right_image,-1,exp2.png,3,exp2.png,exp1.png,1,3,reversed,correct,0.6943897267349701,1,valid_win,98.48161790007725,10,,,,,,,,,,,,,,,,sub_303,2023-05-19_11h51.27.854,Reversal,2022.1.2,60.02022687265121,3,
15,exp3.png,exp4.png,,0,0,0,0,0,15,15,15,,,,,,,,,,,,,,,,,,,,,,,,,False,14,15,True,exp4.png,exp3.png,trial_left_image,1,exp4.png,3,exp4.png,exp3.png,1,1,non-reversed,correct,0.9176793757255836,1,valid_win,105.04842899995856,11,,,,,,,,,,,,,,,,sub_303,2023-05-19_11h51.27.854,Reversal,2022.1.2,60.02022687265121,3,
16,exp1.png,exp2.png,,0,0,0,0,0,16,16,16,,,,,,,,,,,,,,,,,,,,,,,,,False,15,16,False,exp1.png,exp2.png,trial_right_image,-1,exp2.png,3,exp2.png,exp1.png,1,3,reversed,correct,0.11367638212847475,0,invalid_lose,109.78195269987918,11,,,,,,,,,,,,,,,,sub_303,2023-05-19_11h51.27.854,Reversal,2022.1.2,60.02022687265121,3,
17,exp3.png,exp4.png,,0,0,0,0,0,17,17,17,,,,,,,,,,,,,,,,,,,,,,,,,False,16,17,True,exp4.png,exp3.png,trial_left_image,1,exp4.png,3,exp4.png,exp3.png,1,1,non-reversed,correct,0.08759192547527861,0,invalid_lose,116.94782510004006,11,,,,,,,,,,,,,,,,sub_303,2023-05-19_11h51.27.854,Reversal,2022.1.2,60.02022687265121,3,
18,exp1.png,exp2.png,,0,0,0,0,0,18,18,18,,,,,,,,,,,,,,,,,,,,,,,,,False,17,18,False,exp1.png,exp2.png,trial_left_image,1,exp1.png,3,exp2.png,exp1.png,0,4,reversed,incorrect,0.7917416543695796,0,valid_lose,121.68164479988627,11,,,,,,,,,,,,,,,,sub_303,2023-05-19_11h51.27.854,Reversal,2022.1.2,60.02022687265121,3,
19,exp3.png,exp4.png,,0,0,0,0,0,19,19,19,,,,,,,,,,,,,,,,,,,,,,,,,False,18,19,True,exp4.png,exp3.png,trial_left_image,1,exp4.png,3,exp4.png,exp3.png,1,1,non-reversed,correct,0.23185445676538308,0,invalid_lose,126.4312674999237,11,,,,,,,,,,,,,,,,sub_303,2023-05-19_11h51.27.854,Reversal,2022.1.2,60.02022687265121,3,
20,exp1.png,exp2.png,,0,0,0,0,0,20,20,20,,,,,,,,,,,,,,,,,,,,,,,,,False,19,20,True,exp2.png,exp1.png,trial_right_image,-1,exp1.png,3,exp2.png,exp1.png,0,4,reversed,incorrect,0.9606952177270282,0,valid_lose,136.18083549989387,11,,,,,,,,,,,,,,,,sub_303,2023-05-19_11h51.27.854,Reversal,2022.1.2,60.02022687265121,3,
,,,exp1.png,0,0,0,0,,,,,0,0,0,0,0,0,0,0,,,,,,,,,,,,,,,,,,,,,,,,,,,,,,,,,,,,,,30.0,30.0,10.506832899991423,"[(30.0, 10.506832899991423)]",202.423693299992,None,,,,,,,,,,sub_303,2023-05-19_11h51.27.854,Reversal,2022.1.2,60.02022687265121,3,
,,,exp2.png,0,0,0,0,,,,,0,0,0,0,0,1,1,1,,,,,,,,,,,,,,,,,,,,,,,,,,,,,,,,,,,,,,,75.0,2.4171662000007927,"[(75.0, 2.4171662000007927)]",213.9736387000885,None,75.0,,,,,,,,,sub_303,2023-05-19_11h51.27.854,Reversal,2022.1.2,60.02022687265121,3,
,,,exp3.png,0,0,0,0,,,,,0,0,0,0,0,2,2,2,,,,,,,,,,,,,,,,,,,,,,,,,,,,,,,,,,,,,,,27.0,3.665860499953851,"[(27.0, 3.665860499953851)]",217.33722149999812,None,,27.0,,,,,,,,sub_303,2023-05-19_11h51.27.854,Reversal,2022.1.2,60.02022687265121,3,
,,,exp4.png,0,0,0,0,,,,,0,0,0,0,0,3,3,3,,,,,,,,,,,,,,,,,,,,,,,,,,,,,,,,,,,,,,,79.0,1.6335331001318991,"[(79.0, 1.6335331001318991)]",221.93851800006814,None,,,79.0,,,,,,,sub_303,2023-05-19_11h51.27.854,Reversal,2022.1.2,60.02022687265121,3,
0,exp1.png,exp2.png,,1,0,1,0,0,0,0,0,,,,,,,,,,,,,,,,,,,,,,,,,True,,,,,,,,,,,,,,,,,,,,,,,,,,,,,,,,,,,,sub_303,2023-05-19_11h51.27.854,Reversal,2022.1.2,60.02022687265121,3,
1,exp3.png,exp4.png,,1,0,1,0,0,1,1,1,,,,,,,,,,,,,,,,,,,,,,,,,False,20,21,False,exp3.png,exp4.png,trial_right_image,-1,exp4.png,3,exp4.png,exp3.png,1,1,non-reversed,correct,0.49789062122200245,1,valid_win,164.26367609994486,12,,,,,,,,,,,,,,,,sub_303,2023-05-19_11h51.27.854,Reversal,2022.1.2,60.02022687265121,3,
2,exp1.png,exp2.png,,1,0,1,0,0,2,2,2,,,,,,,,,,,,,,,,,,,,,,,,,False,21,22,False,exp1.png,exp2.png,trial_right_image,-1,exp2.png,3,exp2.png,exp1.png,1,3,reversed,correct,0.7685564053057968,1,valid_win,168.79666059999727,13,,,,,,,,,,,,,,,,sub_303,2023-05-19_11h51.27.854,Reversal,2022.1.2,60.02022687265121,3,
3,exp3.png,exp4.png,,1,0,1,0,0,3,3,3,,,,,,,,,,,,,,,,,,,,,,,,,False,22,23,False,exp3.png,exp4.png,trial_right_image,-1,exp4.png,3,exp4.png,exp3.png,1,1,non-reversed,correct,0.5350384374759087,1,valid_win,173.19685599999502,14,,,,,,,,,,,,,,,,sub_303,2023-05-19_11h51.27.854,Reversal,2022.1.2,60.02022687265121,3,
4,exp1.png,exp2.png,,1,0,1,0,0,4,4,4,,,,,,,,,,,,,,,,,,,,,,,,,False,23,24,False,exp1.png,exp2.png,trial_right_image,-1,exp2.png,3,exp2.png,exp1.png,1,3,reversed,correct,0.6020055688027277,1,valid_win,177.37974209990352,15,,,,,,,,,,,,,,,,sub_303,2023-05-19_11h51.27.854,Reversal,2022.1.2,60.02022687265121,3,
5,exp3.png,exp4.png,,1,0,1,0,0,5,5,5,,,,,,,,,,,,,,,,,,,,,,,,,False,24,25,True,exp4.png,exp3.png,trial_left_image,1,exp4.png,3,exp4.png,exp3.png,1,1,non-reversed,correct,0.2454976268413228,0,invalid_lose,182.4629561000038,15,,,,,,,,,,,,,,,,sub_303,2023-05-19_11h51.27.854,Reversal,2022.1.2,60.02022687265121,3,
6,exp1.png,exp2.png,,1,0,1,0,0,6,6,6,,,,,,,,,,,,,,,,,,,,,,,,,False,25,26,True,exp2.png,exp1.png,trial_right_image,-1,exp1.png,3,exp2.png,exp1.png,0,4,reversed,incorrect,0.6001425899757677,0,valid_lose,186.91345590003766,15,,,,,,,,,,,,,,,,sub_303,2023-05-19_11h51.27.854,Reversal,2022.1.2,60.02022687265121,3,
7,exp3.png,exp4.png,,1,0,1,0,0,7,7,7,,,,,,,,,,,,,,,,,,,,,,,,,False,26,27,False,exp3.png,exp4.png,trial_right_image,-1,exp4.png,3,exp4.png,exp3.png,1,1,non-reversed,correct,0.6941776082780122,1,valid_win,193.12983889994211,16,,,,,,,,,,,,,,,,sub_303,2023-05-19_11h51.27.854,Reversal,2022.1.2,60.02022687265121,3,
8,exp1.png,exp2.png,,1,0,1,0,0,8,8,8,,,,,,,,,,,,,,,,,,,,,,,,,False,27,28,True,exp2.png,exp1.png,trial_left_image,1,exp2.png,3,exp2.png,exp1.png,1,3,reversed,correct,0.5740618601420583,1,valid_win,197.6802884999197,17,,,,,,,,,,,,,,,,sub_303,2023-05-19_11h51.27.854,Reversal,2022.1.2,60.02022687265121,3,
9,exp3.png,exp4.png,,1,0,1,0,0,9,9,9,,,,,,,,,,,,,,,,,,,,,,,,,False,28,29,False,exp3.png,exp4.png,trial_right_image,-1,exp4.png,3,exp4.png,exp3.png,1,1,non-reversed,correct,0.6999867132155503,1,valid_win,202.09646630007774,18,,,,,,,,,,,,,,,,sub_303,2023-05-19_11h51.27.854,Reversal,2022.1.2,60.02022687265121,3,
10,exp1.png,exp2.png,,1,0,1,0,0,10,10,10,,,,,,,,,,,,,,,,,,,,,,,,,False,29,30,True,exp2.png,exp1.png,trial_left_image,1,exp2.png,3,exp2.png,exp1.png,1,3,reversed,correct,0.614564605029939,1,valid_win,206.72994829993695,19,,,,,,,,,,,,,,,,sub_303,2023-05-19_11h51.27.854,Reversal,2022.1.2,60.02022687265121,3,
11,exp3.png,exp4.png,,1,0,1,0,0,11,11,11,,,,,,,,,,,,,,,,,,,,,,,,,False,30,31,True,exp4.png,exp3.png,trial_left_image,1,exp4.png,3,exp4.png,exp3.png,1,1,non-reversed,correct,0.634797770116313,1,valid_win,211.09653239999898,20,,,,,,,,,,,,,,,,sub_303,2023-05-19_11h51.27.854,Reversal,2022.1.2,60.02022687265121,3,
12,exp1.png,exp2.png,,1,0,1,0,0,12,12,12,,,,,,,,,,,,,,,,,,,,,,,,,False,31,32,False,exp1.png,exp2.png,trial_right_image,-1,exp2.png,3,exp2.png,exp1.png,1,3,reversed,correct,0.44692472369250325,1,valid_win,215.94672690005973,21,,,,,,,,,,,,,,,,sub_303,2023-05-19_11h51.27.854,Reversal,2022.1.2,60.02022687265121,3,
13,exp3.png,exp4.png,,1,0,1,0,0,13,13,13,,,,,,,,,,,,,,,,,,,,,,,,,False,32,33,True,exp4.png,exp3.png,trial_left_image,1,exp4.png,3,exp4.png,exp3.png,1,1,non-reversed,correct,0.02554278421921896,0,invalid_lose,220.6961721999105,21,,,,,,,,,,,,,,,,sub_303,2023-05-19_11h51.27.854,Reversal,2022.1.2,60.02022687265121,3,
14,exp1.png,exp2.png,,1,0,1,0,0,14,14,14,,,,,,,,,,,,,,,,,,,,,,,,,False,33,34,False,exp1.png,exp2.png,trial_left_image,1,exp1.png,3,exp2.png,exp1.png,0,4,reversed,incorrect,0.5581282667126668,0,valid_lose,225.7456143000163,21,,,,,,,,,,,,,,,,sub_303,2023-05-19_11h51.27.854,Reversal,2022.1.2,60.02022687265121,3,
15,exp3.png,exp4.png,,1,0,1,0,0,15,15,15,,,,,,,,,,,,,,,,,,,,,,,,,False,34,35,True,exp4.png,exp3.png,trial_left_image,1,exp4.png,3,exp4.png,exp3.png,1,1,non-reversed,correct,0.26291204773746435,1,valid_win,229.895620000083,22,,,,,,,,,,,,,,,,sub_303,2023-05-19_11h51.27.854,Reversal,2022.1.2,60.02022687265121,3,
16,exp1.png,exp2.png,,1,0,1,0,0,16,16,16,,,,,,,,,,,,,,,,,,,,,,,,,False,35,36,True,exp2.png,exp1.png,trial_left_image,1,exp2.png,3,exp2.png,exp1.png,1,3,reversed,correct,0.3096828966352486,1,valid_win,234.17925609997474,23,,,,,,,,,,,,,,,,sub_303,2023-05-19_11h51.27.854,Reversal,2022.1.2,60.02022687265121,3,
17,exp3.png,exp4.png,,1,0,1,0,0,17,17,17,,,,,,,,,,,,,,,,,,,,,,,,,False,36,37,True,exp4.png,exp3.png,trial_left_image,1,exp4.png,3,exp4.png,exp3.png,1,1,non-reversed,correct,0.8156893255978682,1,valid_win,238.46277270000428,24,,,,,,,,,,,,,,,,sub_303,2023-05-19_11h51.27.854,Reversal,2022.1.2,60.02022687265121,3,
18,exp1.png,exp2.png,,1,0,1,0,0,18,18,18,,,,,,,,,,,,,,,,,,,,,,,,,False,37,38,False,exp1.png,exp2.png,trial_right_image,-1,exp2.png,3,exp2.png,exp1.png,1,3,reversed,correct,0.3304143219267195,1,valid_win,242.6792901000008,25,,,,,,,,,,,,,,,,sub_303,2023-05-19_11h51.27.854,Reversal,2022.1.2,60.02022687265121,3,
19,exp3.png,exp4.png,,1,0,1,0,0,19,19,19,,,,,,,,,,,,,,,,,,,,,,,,,False,38,39,True,exp4.png,exp3.png,trial_left_image,1,exp4.png,3,exp4.png,exp3.png,1,1,non-reversed,correct,0.9011145574318223,1,valid_win,246.86241669999436,26,,,,,,,,,,,,,,,,sub_303,2023-05-19_11h51.27.854,Reversal,2022.1.2,60.02022687265121,3,
20,exp1.png,exp2.png,,1,0,1,0,0,20,20,20,,,,,,,,,,,,,,,,,,,,,,,,,False,39,40,False,exp1.png,exp2.png,trial_right_image,-1,exp2.png,3,exp2.png,exp1.png,1,3,reversed,correct,0.8794689403170075,1,valid_win,251.22876039985567,27,,,,,,,,,,,,,,,,sub_303,2023-05-19_11h51.27.854,Reversal,2022.1.2,60.02022687265121,3,
,,,exp1.png,1,0,1,0,,,,,0,0,0,0,0,0,0,0,,,,,,,,,,,,,,,,,,,,,,,,,,,,,,,,,,,,,,18.0,18.0,3.579331499990076,"[(24.0, 2.962297899881378), (18.0, 3.579331499990076)]",317.45566059998237,None,,,,,,,,,,sub_303,2023-05-19_11h51.27.854,Reversal,2022.1.2,60.02022687265121,3,
,,,exp2.png,1,0,1,0,,,,,0,0,0,0,0,1,1,1,,,,,,,,,,,,,,,,,,,,,,,,,,,,,,,,,,,,,,,82.0,1.9505417000036687,"[(82.0, 1.9505417000036687)]",322.0666962999385,None,82.0,,,,,,,,,sub_303,2023-05-19_11h51.27.854,Reversal,2022.1.2,60.02022687265121,3,
,,,exp3.png,1,0,1,0,,,,,0,0,0,0,0,2,2,2,,,,,,,,,,,,,,,,,,,,,,,,,,,,,,,,,,,,,,,12.0,1.6859393999911845,"[(12.0, 1.6859393999911845)]",324.99869180005044,None,,12.0,,,,,,,,sub_303,2023-05-19_11h51.27.854,Reversal,2022.1.2,60.02022687265121,3,
,,,exp4.png,1,0,1,0,,,,,0,0,0,0,0,3,3,3,,,,,,,,,,,,,,,,,,,,,,,,,,,,,,,,,,,,,,,90.0,1.5316337998956442,"[(90.0, 1.5316337998956442)]",327.7016696999781,None,,,90.0,,,,,,,sub_303,2023-05-19_11h51.27.854,Reversal,2022.1.2,60.02022687265121,3,
0,exp1.png,exp2.png,,2,0,2,0,0,0,0,0,,,,,,,,,,,,,,,,,,,,,,,,,True,,,,,,,,,,,,,,,,,,,,,,,,,,,,,,,,,,,,sub_303,2023-05-19_11h51.27.854,Reversal,2022.1.2,60.02022687265121,3,
1,exp3.png,exp4.png,,2,0,2,0,0,1,1,1,,,,,,,,,,,,,,,,,,,,,,,,,False,40,41,True,exp4.png,exp3.png,trial_left_image,1,exp4.png,3,exp4.png,exp3.png,1,1,non-reversed,correct,0.35964365989510394,1,valid_win,268.67887940001674,28,,,,,,,,,,,,,,,,sub_303,2023-05-19_11h51.27.854,Reversal,2022.1.2,60.02022687265121,3,
2,exp1.png,exp2.png,,2,0,2,0,0,2,2,2,,,,,,,,,,,,,,,,,,,,,,,,,False,41,42,False,exp1.png,exp2.png,trial_right_image,-1,exp2.png,3,exp2.png,exp1.png,1,3,reversed,correct,0.8228985177144772,1,valid_win,272.97891029994935,29,,,,,,,,,,,,,,,,sub_303,2023-05-19_11h51.27.854,Reversal,2022.1.2,60.02022687265121,3,
3,exp3.png,exp4.png,,2,0,2,0,0,3,3,3,,,,,,,,,,,,,,,,,,,,,,,,,False,42,43,True,exp4.png,exp3.png,trial_left_image,1,exp4.png,3,exp4.png,exp3.png,1,1,non-reversed,correct,0.8646069426500081,1,valid_win,277.2785084999632,30,,,,,,,,,,,,,,,,sub_303,2023-05-19_11h51.27.854,Reversal,2022.1.2,60.02022687265121,3,
4,exp1.png,exp2.png,,2,0,2,0,0,4,4,4,,,,,,,,,,,,,,,,,,,,,,,,,False,43,44,False,exp1.png,exp2.png,trial_right_image,-1,exp2.png,3,exp2.png,exp1.png,1,3,reversed,correct,0.6149048566220695,1,valid_win,281.4620642999653,31,,,,,,,,,,,,,,,,sub_303,2023-05-19_11h51.27.854,Reversal,2022.1.2,60.02022687265121,3,
5,exp3.png,exp4.png,,2,0,2,0,0,5,5,5,,,,,,,,,,,,,,,,,,,,,,,,,False,44,45,True,exp4.png,exp3.png,trial_left_image,1,exp4.png,3,exp4.png,exp3.png,1,1,non-reversed,correct,0.002398162534382964,0,invalid_lose,285.7276220000349,31,,,,,,,,,,,,,,,,sub_303,2023-05-19_11h51.27.854,Reversal,2022.1.2,60.02022687265121,3,
6,exp1.png,exp2.png,,2,0,2,0,0,6,6,6,,,,,,,,,,,,,,,,,,,,,,,,,False,45,46,True,exp2.png,exp1.png,trial_left_image,1,exp2.png,3,exp2.png,exp1.png,1,3,reversed,correct,0.2701095812943096,1,valid_win,290.02862800005823,32,,,,,,,,,,,,,,,,sub_303,2023-05-19_11h51.27.854,Reversal,2022.1.2,60.02022687265121,3,
7,exp3.png,exp4.png,,2,0,2,0,0,7,7,7,,,,,,,,,,,,,,,,,,,,,,,,,False,46,47,True,exp4.png,exp3.png,trial_left_image,1,exp4.png,3,exp4.png,exp3.png,1,1,non-reversed,correct,0.5137006151307416,1,valid_win,294.2282950999215,33,,,,,,,,,,,,,,,,sub_303,2023-05-19_11h51.27.854,Reversal,2022.1.2,60.02022687265121,3,
8,exp1.png,exp2.png,,2,0,2,0,0,8,8,8,,,,,,,,,,,,,,,,,,,,,,,,,False,47,48,False,exp1.png,exp2.png,trial_right_image,-1,exp2.png,3,exp2.png,exp1.png,1,3,reversed,correct,0.143051875092861,0,invalid_lose,298.4283962000627,33,,,,,,,,,,,,,,,,sub_303,2023-05-19_11h51.27.854,Reversal,2022.1.2,60.02022687265121,3,
9,exp3.png,exp4.png,,2,0,2,0,0,9,9,9,,,,,,,,,,,,,,,,,,,,,,,,,False,48,49,False,exp3.png,exp4.png,trial_right_image,-1,exp4.png,3,exp4.png,exp3.png,1,1,non-reversed,correct,0.4249404544610599,1,valid_win,302.77765979990363,34,,,,,,,,,,,,,,,,sub_303,2023-05-19_11h51.27.854,Reversal,2022.1.2,60.02022687265121,3,
10,exp1.png,exp2.png,,2,0,2,0,0,10,10,10,,,,,,,,,,,,,,,,,,,,,,,,,False,49,50,True,exp2.png,exp1.png,trial_left_image,1,exp2.png,3,exp2.png,exp1.png,1,3,reversed,correct,0.20909888044303426,0,invalid_lose,307.61173809994943,34,,,,,,,,,,,,,,,,sub_303,2023-05-19_11h51.27.854,Reversal,2022.1.2,60.02022687265121,3,
11,exp3.png,exp4.png,,2,0,2,0,0,11,11,11,,,,,,,,,,,,,,,,,,,,,,,,,False,50,51,True,exp4.png,exp3.png,trial_left_image,1,exp4.png,3,exp4.png,exp3.png,1,1,non-reversed,correct,0.7477928065234974,1,valid_win,311.827897900017,35,,,,,,,,,,,,,,,,sub_303,2023-05-19_11h51.27.854,Reversal,2022.1.2,60.02022687265121,3,
12,exp1.png,exp2.png,,2,0,2,0,0,12,12,12,,,,,,,,,,,,,,,,,,,,,,,,,False,51,52,False,exp1.png,exp2.png,trial_right_image,-1,exp2.png,3,exp2.png,exp1.png,1,3,reversed,correct,0.19849578033696125,0,invalid_lose,316.1113815000281,35,,,,,,,,,,,,,,,,sub_303,2023-05-19_11h51.27.854,Reversal,2022.1.2,60.02022687265121,3,
13,exp3.png,exp4.png,,2,0,2,0,0,13,13,13,,,,,,,,,,,,,,,,,,,,,,,,,False,52,53,True,exp4.png,exp3.png,trial_left_image,1,exp4.png,3,exp4.png,exp3.png,1,1,non-reversed,correct,0.9629217738626079,1,valid_win,320.4772280000616,36,,,,,,,,,,,,,,,,sub_303,2023-05-19_11h51.27.854,Reversal,2022.1.2,60.02022687265121,3,
14,exp1.png,exp2.png,,2,0,2,0,0,14,14,14,,,,,,,,,,,,,,,,,,,,,,,,,False,53,54,False,exp1.png,exp2.png,trial_right_image,-1,exp2.png,3,exp2.png,exp1.png,1,3,reversed,correct,0.693121059254863,1,valid_win,324.67764159990475,37,,,,,,,,,,,,,,,,sub_303,2023-05-19_11h51.27.854,Reversal,2022.1.2,60.02022687265121,3,
15,exp3.png,exp4.png,,2,0,2,0,0,15,15,15,,,,,,,,,,,,,,,,,,,,,,,,,False,54,55,True,exp4.png,exp3.png,trial_left_image,1,exp4.png,3,exp4.png,exp3.png,1,1,non-reversed,correct,0.7827730876564708,1,valid_win,328.911325099878,38,,,,,,,,,,,,,,,,sub_303,2023-05-19_11h51.27.854,Reversal,2022.1.2,60.02022687265121,3,
16,exp1.png,exp2.png,,2,0,2,0,0,16,16,16,,,,,,,,,,,,,,,,,,,,,,,,,False,55,56,False,exp1.png,exp2.png,trial_right_image,-1,exp2.png,3,exp2.png,exp1.png,1,3,reversed,correct,0.2827654597656979,1,valid_win,333.06053839996457,39,,,,,,,,,,,,,,,,sub_303,2023-05-19_11h51.27.854,Reversal,2022.1.2,60.02022687265121,3,
17,exp3.png,exp4.png,,2,0,2,0,0,17,17,17,,,,,,,,,,,,,,,,,,,,,,,,,False,56,57,False,exp3.png,exp4.png,trial_right_image,-1,exp4.png,3,exp4.png,exp3.png,1,1,non-reversed,correct,0.8705323405909469,1,valid_win,337.54431349993683,40,,,,,,,,,,,,,,,,sub_303,2023-05-19_11h51.27.854,Reversal,2022.1.2,60.02022687265121,3,
18,exp1.png,exp2.png,,2,0,2,0,0,18,18,18,,,,,,,,,,,,,,,,,,,,,,,,,False,57,58,True,exp2.png,exp1.png,trial_left_image,1,exp2.png,3,exp2.png,exp1.png,1,3,reversed,correct,0.39529645516985823,1,valid_win,341.8612315999344,41,,,,,,,,,,,,,,,,sub_303,2023-05-19_11h51.27.854,Reversal,2022.1.2,60.02022687265121,3,
19,exp3.png,exp4.png,,2,0,2,0,0,19,19,19,,,,,,,,,,,,,,,,,,,,,,,,,False,58,59,False,exp3.png,exp4.png,trial_right_image,-1,exp4.png,3,exp4.png,exp3.png,1,1,non-reversed,correct,0.9461786781900637,1,valid_win,346.1770059999544,42,,,,,,,,,,,,,,,,sub_303,2023-05-19_11h51.27.854,Reversal,2022.1.2,60.02022687265121,3,
20,exp1.png,exp2.png,,2,0,2,0,0,20,20,20,,,,,,,,,,,,,,,,,,,,,,,,,False,59,60,False,exp1.png,exp2.png,trial_right_image,-1,exp2.png,3,exp2.png,exp1.png,1,3,reversed,correct,0.9987349055767605,1,valid_win,350.4266818999313,43,,,,,,,,,,,,,,,,sub_303,2023-05-19_11h51.27.854,Reversal,2022.1.2,60.02022687265121,3,
,,,exp1.png,2,0,2,0,,,,,0,0,0,0,0,0,0,0,,,,,,,,,,,,,,,,,,,,,,,,,,,,,,,,,,,,,,8.0,8.0,11.93074949993752,"[(8.0, 11.93074949993752)]",416.67140139988624,None,,,,,,,,,,sub_303,2023-05-19_11h51.27.854,Reversal,2022.1.2,60.02022687265121,3,
,,,exp2.png,2,0,2,0,,,,,0,0,0,0,0,1,1,1,,,,,,,,,,,,,,,,,,,,,,,,,,,,,,,,,,,,,,,94.0,2.920426999917254,"[(94.0, 2.920426999917254)]",430.83633349998854,None,94.0,,,,,,,,,sub_303,2023-05-19_11h51.27.854,Reversal,2022.1.2,60.02022687265121,3,
,,,exp3.png,2,0,2,0,,,,,0,0,0,0,0,2,2,2,,,,,,,,,,,,,,,,,,,,,,,,,,,,,,,,,,,,,,,8.0,2.4320771999191493,"[(8.0, 2.4320771999191493)]",434.8001415999606,None,,8.0,,,,,,,,sub_303,2023-05-19_11h51.27.854,Reversal,2022.1.2,60.02022687265121,3,
,,,exp4.png,2,0,2,0,,,,,0,0,0,0,0,3,3,3,,,,,,,,,,,,,,,,,,,,,,,,,,,,,,,,,,,,,,,94.0,1.8833608001004905,"[(94.0, 1.8833608001004905)]",438.14887910010293,None,,,94.0,,,,,,,sub_303,2023-05-19_11h51.27.854,Reversal,2022.1.2,60.02022687265121,3,
0,exp1.png,exp2.png,,,,,,,,,,,,,,,,,,0,0,0,0,0,0,0,0,,,,,,,,,True,,,,,,,,,,,,,,,,,,,,,,,,,,,,,,,,,,,,sub_303,2023-05-19_11h51.27.854,Reversal,2022.1.2,60.02022687265121,3,
1,exp3.png,exp4.png,,,,,,,,,,,,,,,,,,0,0,0,0,0,1,1,1,,,,,,,,,False,0,61,True,exp4.png,exp3.png,trial_left_image,1,exp4.png,3,exp4.png,exp3.png,1,1,non-reversed,correct,0.5778453504568325,1,valid_win,380.05983030004427,44,,,,,,,,,,377.27477660006844,,,,,,sub_303,2023-05-19_11h51.27.854,Reversal,2022.1.2,60.02022687265121,3,
2,exp1.png,exp2.png,,,,,,,,,,,,,,,,,,0,0,0,0,0,2,2,2,,,,,,,,,False,1,62,True,exp2.png,exp1.png,trial_left_image,1,exp2.png,3,exp1.png,exp2.png,1,3,reversed,incorrect,0.37508123761265266,0,valid_lose,384.126630499959,44,,,,,,,,,,,,,,,,sub_303,2023-05-19_11h51.27.854,Reversal,2022.1.2,60.02022687265121,3,
3,exp3.png,exp4.png,,,,,,,,,,,,,,,,,,0,0,0,0,0,3,3,3,,,,,,,,,False,2,63,True,exp4.png,exp3.png,trial_left_image,1,exp4.png,3,exp4.png,exp3.png,1,1,non-reversed,correct,0.8785300372846203,1,valid_win,388.4105597999878,45,,,,,,,,,,,,,,,,sub_303,2023-05-19_11h51.27.854,Reversal,2022.1.2,60.02022687265121,3,
4,exp1.png,exp2.png,,,,,,,,,,,,,,,,,,0,0,0,0,0,4,4,4,,,,,,,,,False,3,64,False,exp1.png,exp2.png,trial_right_image,-1,exp2.png,3,exp1.png,exp2.png,1,3,reversed,incorrect,0.0878684466612778,1,invalid_win,392.6934253999498,46,,,,,,,,,,,,,,,,sub_303,2023-05-19_11h51.27.854,Reversal,2022.1.2,60.02022687265121,3,
5,exp3.png,exp4.png,,,,,,,,,,,,,,,,,,0,0,0,0,0,5,5,5,,,,,,,,,False,4,65,True,exp4.png,exp3.png,trial_left_image,1,exp4.png,3,exp4.png,exp3.png,1,1,non-reversed,correct,0.2686709261915319,1,valid_win,396.24402690003626,47,,,,,,,,,,,,,,,,sub_303,2023-05-19_11h51.27.854,Reversal,2022.1.2,60.02022687265121,3,
6,exp1.png,exp2.png,,,,,,,,,,,,,,,,,,0,0,0,0,0,6,6,6,,,,,,,,,False,5,66,True,exp2.png,exp1.png,trial_left_image,1,exp2.png,3,exp1.png,exp2.png,1,3,reversed,incorrect,0.3355774415586925,0,valid_lose,400.7098288999405,47,,,,,,,,,,,,,,,,sub_303,2023-05-19_11h51.27.854,Reversal,2022.1.2,60.02022687265121,3,
7,exp3.png,exp4.png,,,,,,,,,,,,,,,,,,0,0,0,0,0,7,7,7,,,,,,,,,False,6,67,True,exp4.png,exp3.png,trial_left_image,1,exp4.png,3,exp4.png,exp3.png,1,1,non-reversed,correct,0.49225204393310873,1,valid_win,404.75994789996184,48,,,,,,,,,,,,,,,,sub_303,2023-05-19_11h51.27.854,Reversal,2022.1.2,60.02022687265121,3,
8,exp1.png,exp2.png,,,,,,,,,,,,,,,,,,0,0,0,0,0,8,8,8,,,,,,,,,False,7,68,False,exp1.png,exp2.png,trial_right_image,-1,exp2.png,3,exp1.png,exp2.png,1,3,reversed,incorrect,0.8032347605575308,0,valid_lose,409.0764643000439,48,,,,,,,,,,,,,,,,sub_303,2023-05-19_11h51.27.854,Reversal,2022.1.2,60.02022687265121,3,
9,exp3.png,exp4.png,,,,,,,,,,,,,,,,,,0,0,0,0,0,9,9,9,,,,,,,,,False,8,69,True,exp4.png,exp3.png,trial_left_image,1,exp4.png,3,exp4.png,exp3.png,1,1,non-reversed,correct,0.4500777913611679,1,valid_win,413.3593796999194,49,,,,,,,,,,,,,,,,sub_303,2023-05-19_11h51.27.854,Reversal,2022.1.2,60.02022687265121,3,
10,exp1.png,exp2.png,,,,,,,,,,,,,,,,,,0,0,0,0,0,10,10,10,,,,,,,,,False,9,70,True,exp2.png,exp1.png,trial_left_image,1,exp2.png,3,exp1.png,exp2.png,1,3,reversed,incorrect,0.683942425108907,0,valid_lose,417.4760030999314,49,,,,,,,,,,,,,,,,sub_303,2023-05-19_11h51.27.854,Reversal,2022.1.2,60.02022687265121,3,
11,exp3.png,exp4.png,,,,,,,,,,,,,,,,,,0,0,0,0,0,11,11,11,,,,,,,,,False,10,71,False,exp3.png,exp4.png,trial_right_image,-1,exp4.png,3,exp4.png,exp3.png,1,1,non-reversed,correct,0.029416447986120753,0,invalid_lose,421.79282430000603,49,,,,,,,,,,,,,,,,sub_303,2023-05-19_11h51.27.854,Reversal,2022.1.2,60.02022687265121,3,
12,exp1.png,exp2.png,,,,,,,,,,,,,,,,,,0,0,0,0,0,12,12,12,,,,,,,,,False,11,72,False,exp1.png,exp2.png,trial_right_image,-1,exp2.png,3,exp1.png,exp2.png,1,3,reversed,incorrect,0.7268212354048542,0,valid_lose,426.1092306000646,49,,,,,,,,,,,,,,,,sub_303,2023-05-19_11h51.27.854,Reversal,2022.1.2,60.02022687265121,3,
13,exp3.png,exp4.png,,,,,,,,,,,,,,,,,,0,0,0,0,0,13,13,13,,,,,,,,,False,12,73,False,exp3.png,exp4.png,trial_left_image,1,exp3.png,3,exp4.png,exp3.png,0,2,non-reversed,incorrect,0.2880621127276529,0,valid_lose,430.07608609995805,49,,,,,,,,,,,,,,,,sub_303,2023-05-19_11h51.27.854,Reversal,2022.1.2,60.02022687265121,3,
14,exp1.png,exp2.png,,,,,,,,,,,,,,,,,,0,0,0,0,0,14,14,14,,,,,,,,,False,13,74,True,exp2.png,exp1.png,trial_left_image,1,exp2.png,3,exp1.png,exp2.png,1,3,reversed,incorrect,0.7481310874575487,0,valid_lose,434.3754988000728,49,,,,,,,,,,,,,,,,sub_303,2023-05-19_11h51.27.854,Reversal,2022.1.2,60.02022687265121,3,
15,exp3.png,exp4.png,,,,,,,,,,,,,,,,,,0,0,0,0,0,15,15,15,,,,,,,,,False,14,75,True,exp4.png,exp3.png,trial_left_image,1,exp4.png,3,exp4.png,exp3.png,1,1,non-reversed,correct,0.015579110696799292,0,invalid_lose,438.5253127999604,49,,,,,,,,,,,,,,,,sub_303,2023-05-19_11h51.27.854,Reversal,2022.1.2,60.02022687265121,3,
16,exp1.png,exp2.png,,,,,,,,,,,,,,,,,,0,0,0,0,0,16,16,16,,,,,,,,,False,15,76,False,exp1.png,exp2.png,trial_left_image,1,exp1.png,3,exp1.png,exp2.png,0,4,reversed,correct,0.13468022615521646,0,invalid_lose,442.60950580006465,49,,,,,,,,,,,,,,,,sub_303,2023-05-19_11h51.27.854,Reversal,2022.1.2,60.02022687265121,3,
17,exp3.png,exp4.png,,,,,,,,,,,,,,,,,,0,0,0,0,0,17,17,17,,,,,,,,,False,16,77,False,exp3.png,exp4.png,trial_right_image,-1,exp4.png,3,exp4.png,exp3.png,1,1,non-reversed,correct,0.4483546252306776,1,valid_win,447.2590922000818,50,,,,,,,,,,,,,,,,sub_303,2023-05-19_11h51.27.854,Reversal,2022.1.2,60.02022687265121,3,
18,exp1.png,exp2.png,,,,,,,,,,,,,,,,,,0,0,0,0,0,18,18,18,,,,,,,,,False,17,78,False,exp1.png,exp2.png,trial_right_image,-1,exp2.png,3,exp1.png,exp2.png,1,3,reversed,incorrect,0.03884357208757838,1,invalid_win,451.45874929986894,51,,,,,,,,,,,,,,,,sub_303,2023-05-19_11h51.27.854,Reversal,2022.1.2,60.02022687265121,3,
19,exp3.png,exp4.png,,,,,,,,,,,,,,,,,,0,0,0,0,0,19,19,19,,,,,,,,,False,18,79,False,exp3.png,exp4.png,trial_right_image,-1,exp4.png,3,exp4.png,exp3.png,1,1,non-reversed,correct,0.8555206142813461,1,valid_win,455.6757728999946,52,,,,,,,,,,,,,,,,sub_303,2023-05-19_11h51.27.854,Reversal,2022.1.2,60.02022687265121,3,
20,exp1.png,exp2.png,,,,,,,,,,,,,,,,,,0,0,0,0,0,20,20,20,,,,,,,,,False,19,80,False,exp1.png,exp2.png,trial_right_image,-1,exp2.png,3,exp1.png,exp2.png,1,3,reversed,incorrect,0.23589224326521707,1,invalid_win,459.80887229996733,53,,,,,,,,,,,,,,,,sub_303,2023-05-19_11h51.27.854,Reversal,2022.1.2,60.02022687265121,3,
,,,exp1.png,,,,,,,,,,,,,,,,,0,0,0,0,,,,,0,0,0,0,0,0,0,0,,,,,,,,,,,,,,,,,,,,,,,50.0,None,[],526.0520109001081,None,,,,,,,,,,sub_303,2023-05-19_11h51.27.854,Reversal,2022.1.2,60.02022687265121,3,
,,,exp2.png,,,,,,,,,,,,,,,,,0,0,0,0,,,,,0,0,0,0,0,1,1,1,,,,,,,,,,,,,,,,,,,,,,,50.0,None,[],539.137392600067,None,,,,,,,,,,sub_303,2023-05-19_11h51.27.854,Reversal,2022.1.2,60.02022687265121,3,
,,,exp3.png,,,,,,,,,,,,,,,,,0,0,0,0,,,,,0,0,0,0,0,2,2,2,,,,,,,,,,,,,,,,,,,,,,,50.0,None,[],539.5812774999067,None,,,,,,,,,,sub_303,2023-05-19_11h51.27.854,Reversal,2022.1.2,60.02022687265121,3,
,,,exp4.png,,,,,,,,,,,,,,,,,0,0,0,0,,,,,0,0,0,0,0,3,3,3,,,,,,,,,,,,,,,,,,,,,,,50.0,0.3670006999745965,"[(50.0, 0.3670006999745965)]",540.0309365000576,None,,,50.0,,,,,,,sub_303,2023-05-19_11h51.27.854,Reversal,2022.1.2,60.02022687265121,3,
0,exp1.png,exp2.png,,,,,,,,,,,,,,,,,,1,0,1,0,0,0,0,0,,,,,,,,,True,,,,,,,,,,,,,,,,,,,,,,,,,,,,,,,,,,,,sub_303,2023-05-19_11h51.27.854,Reversal,2022.1.2,60.02022687265121,3,
1,exp3.png,exp4.png,,,,,,,,,,,,,,,,,,1,0,1,0,0,1,1,1,,,,,,,,,False,20,81,False,exp3.png,exp4.png,trial_right_image,-1,exp4.png,3,exp4.png,exp3.png,1,1,non-reversed,correct,0.20341073230677698,0,invalid_lose,483.45872680004686,53,,,,,,,,,,,,,,,,sub_303,2023-05-19_11h51.27.854,Reversal,2022.1.2,60.02022687265121,3,
2,exp1.png,exp2.png,,,,,,,,,,,,,,,,,,1,0,1,0,0,2,2,2,,,,,,,,,False,21,82,False,exp1.png,exp2.png,trial_right_image,-1,exp2.png,3,exp1.png,exp2.png,1,3,reversed,incorrect,0.8357270630793951,0,valid_lose,488.67501319991425,53,,,,,,,,,,,,,,,,sub_303,2023-05-19_11h51.27.854,Reversal,2022.1.2,60.02022687265121,3,
3,exp3.png,exp4.png,,,,,,,,,,,,,,,,,,1,0,1,0,0,3,3,3,,,,,,,,,False,22,83,True,exp4.png,exp3.png,trial_right_image,-1,exp3.png,3,exp4.png,exp3.png,0,2,non-reversed,incorrect,0.7929001461900363,0,valid_lose,492.8418465000577,53,,,,,,,,,,,,,,,,sub_303,2023-05-19_11h51.27.854,Reversal,2022.1.2,60.02022687265121,3,
4,exp1.png,exp2.png,,,,,,,,,,,,,,,,,,1,0,1,0,0,4,4,4,,,,,,,,,False,23,84,True,exp2.png,exp1.png,trial_right_image,-1,exp1.png,3,exp1.png,exp2.png,0,4,reversed,correct,0.6952322316851751,1,valid_win,497.19192739995196,54,,,,,,,,,,,,,,,,sub_303,2023-05-19_11h51.27.854,Reversal,2022.1.2,60.02022687265121,3,
5,exp3.png,exp4.png,,,,,,,,,,,,,,,,,,1,0,1,0,0,5,5,5,,,,,,,,,False,24,85,True,exp4.png,exp3.png,trial_right_image,-1,exp3.png,3,exp4.png,exp3.png,0,2,non-reversed,incorrect,0.054169347835159365,1,invalid_win,501.27496229996905,55,,,,,,,,,,,,,,,,sub_303,2023-05-19_11h51.27.854,Reversal,2022.1.2,60.02022687265121,3,
6,exp1.png,exp2.png,,,,,,,,,,,,,,,,,,1,0,1,0,0,6,6,6,,,,,,,,,False,25,86,True,exp2.png,exp1.png,trial_right_image,-1,exp1.png,3,exp1.png,exp2.png,0,4,reversed,correct,0.5218637489941139,1,valid_win,505.32481350004673,56,,,,,,,,,,,,,,,,sub_303,2023-05-19_11h51.27.854,Reversal,2022.1.2,60.02022687265121,3,
7,exp3.png,exp4.png,,,,,,,,,,,,,,,,,,1,0,1,0,0,7,7,7,,,,,,,,,False,26,87,False,exp3.png,exp4.png,trial_left_image,1,exp3.png,3,exp4.png,exp3.png,0,2,non-reversed,incorrect,0.4652730381758632,0,valid_lose,510.15796929993667,56,,,,,,,,,,,,,,,,sub_303,2023-05-19_11h51.27.854,Reversal,2022.1.2,60.02022687265121,3,
8,exp1.png,exp2.png,,,,,,,,,,,,,,,,,,1,0,1,0,0,8,8,8,,,,,,,,,False,27,88,False,exp1.png,exp2.png,trial_left_image,1,exp1.png,3,exp1.png,exp2.png,0,4,reversed,correct,0.711450010733275,1,valid_win,514.6074455999769,57,,,,,,,,,,,,,,,,sub_303,2023-05-19_11h51.27.854,Reversal,2022.1.2,60.02022687265121,3,
9,exp3.png,exp4.png,,,,,,,,,,,,,,,,,,1,0,1,0,0,9,9,9,,,,,,,,,False,28,89,False,exp3.png,exp4.png,trial_left_image,1,exp3.png,3,exp4.png,exp3.png,0,2,non-reversed,incorrect,0.5229472732192821,0,valid_lose,519.5580301000737,57,,,,,,,,,,,,,,,,sub_303,2023-05-19_11h51.27.854,Reversal,2022.1.2,60.02022687265121,3,
10,exp1.png,exp2.png,,,,,,,,,,,,,,,,,,1,0,1,0,0,10,10,10,,,,,,,,,False,29,90,True,exp2.png,exp1.png,trial_right_image,-1,exp1.png,3,exp1.png,exp2.png,0,4,reversed,correct,0.4532696754651665,1,valid_win,523.7743124000262,58,,,,,,,,,,,,,,,,sub_303,2023-05-19_11h51.27.854,Reversal,2022.1.2,60.02022687265121,3,
11,exp3.png,exp4.png,,,,,,,,,,,,,,,,,,1,0,1,0,0,11,11,11,,,,,,,,,False,30,91,False,exp3.png,exp4.png,trial_left_image,1,exp3.png,3,exp4.png,exp3.png,0,2,non-reversed,incorrect,0.3910654331626908,0,valid_lose,527.9582276998553,58,,,,,,,,,,,,,,,,sub_303,2023-05-19_11h51.27.854,Reversal,2022.1.2,60.02022687265121,3,
12,exp1.png,exp2.png,,,,,,,,,,,,,,,,,,1,0,1,0,0,12,12,12,,,,,,,,,False,31,92,False,exp1.png,exp2.png,trial_left_image,1,exp1.png,3,exp1.png,exp2.png,0,4,reversed,correct,0.2208957091158681,0,invalid_lose,533.6239109998569,58,,,,,,,,,,,,,,,,sub_303,2023-05-19_11h51.27.854,Reversal,2022.1.2,60.02022687265121,3,
13,exp3.png,exp4.png,,,,,,,,,,,,,,,,,,1,0,1,0,0,13,13,13,,,,,,,,,False,32,93,True,exp4.png,exp3.png,trial_right_image,-1,exp3.png,3,exp4.png,exp3.png,0,2,non-reversed,incorrect,0.9781241737096599,0,valid_lose,538.1574649999384,58,,,,,,,,,,,,,,,,sub_303,2023-05-19_11h51.27.854,Reversal,2022.1.2,60.02022687265121,3,
14,exp1.png,exp2.png,,,,,,,,,,,,,,,,,,1,0,1,0,0,14,14,14,,,,,,,,,False,33,94,False,exp1.png,exp2.png,trial_left_image,1,exp1.png,3,exp1.png,exp2.png,0,4,reversed,correct,0.4561497492136871,1,valid_win,542.3403000000399,59,,,,,,,,,,,,,,,,sub_303,2023-05-19_11h51.27.854,Reversal,2022.1.2,60.02022687265121,3,
15,exp3.png,exp4.png,,,,,,,,,,,,,,,,,,1,0,1,0,0,15,15,15,,,,,,,,,False,34,95,True,exp4.png,exp3.png,trial_left_image,1,exp4.png,3,exp4.png,exp3.png,1,1,non-reversed,correct,0.9698547559376315,1,valid_win,546.6405567999464,60,,,,,,,,,,,,,,,,sub_303,2023-05-19_11h51.27.854,Reversal,2022.1.2,60.02022687265121,3,
16,exp1.png,exp2.png,,,,,,,,,,,,,,,,,,1,0,1,0,0,16,16,16,,,,,,,,,False,35,96,False,exp1.png,exp2.png,trial_left_image,1,exp1.png,3,exp1.png,exp2.png,0,4,reversed,correct,0.382178947620745,1,valid_win,550.9068823000416,61,,,,,,,,,,,,,,,,sub_303,2023-05-19_11h51.27.854,Reversal,2022.1.2,60.02022687265121,3,
17,exp3.png,exp4.png,,,,,,,,,,,,,,,,,,1,0,1,0,0,17,17,17,,,,,,,,,False,36,97,False,exp3.png,exp4.png,trial_right_image,-1,exp4.png,3,exp4.png,exp3.png,1,1,non-reversed,correct,0.5119282592599426,1,valid_win,556.0235743999947,62,,,,,,,,,,,,,,,,sub_303,2023-05-19_11h51.27.854,Reversal,2022.1.2,60.02022687265121,3,
18,exp1.png,exp2.png,,,,,,,,,,,,,,,,,,1,0,1,0,0,18,18,18,,,,,,,,,False,37,98,True,exp2.png,exp1.png,trial_right_image,-1,exp1.png,3,exp1.png,exp2.png,0,4,reversed,correct,0.6460879779123,1,valid_win,561.1742463998962,63,,,,,,,,,,,,,,,,sub_303,2023-05-19_11h51.27.854,Reversal,2022.1.2,60.02022687265121,3,
19,exp3.png,exp4.png,,,,,,,,,,,,,,,,,,1,0,1,0,0,19,19,19,,,,,,,,,False,38,99,True,exp4.png,exp3.png,trial_left_image,1,exp4.png,3,exp4.png,exp3.png,1,1,non-reversed,correct,0.4873009518261927,1,valid_win,565.6898817999754,64,,,,,,,,,,,,,,,,sub_303,2023-05-19_11h51.27.854,Reversal,2022.1.2,60.02022687265121,3,
20,exp1.png,exp2.png,,,,,,,,,,,,,,,,,,1,0,1,0,0,20,20,20,,,,,,,,,False,39,100,True,exp2.png,exp1.png,trial_right_image,-1,exp1.png,3,exp1.png,exp2.png,0,4,reversed,correct,0.5424706096131316,1,valid_win,570.4909232999198,65,,,,,,,,,,,,,,,,sub_303,2023-05-19_11h51.27.854,Reversal,2022.1.2,60.02022687265121,3,
,,,exp1.png,,,,,,,,,,,,,,,,,1,0,1,0,,,,,0,0,0,0,0,0,0,0,,,,,,,,,,,,,,,,,,,,,,100.0,100.0,3.1296017998829484,"[(100.0, 3.1296017998829484)]",636.7329424999189,None,,,,,,,,,,sub_303,2023-05-19_11h51.27.854,Reversal,2022.1.2,60.02022687265121,3,
,,,exp2.png,,,,,,,,,,,,,,,,,1,0,1,0,,,,,0,0,0,0,0,1,1,1,,,,,,,,,,,,,,,,,,,,,,,1.0,1.883925000205636,"[(1.0, 1.883925000205636)]",640.8620678000152,None,1.0,,,,,,,,,sub_303,2023-05-19_11h51.27.854,Reversal,2022.1.2,60.02022687265121,3,
,,,exp3.png,,,,,,,,,,,,,,,,,1,0,1,0,,,,,0,0,0,0,0,2,2,2,,,,,,,,,,,,,,,,,,,,,,,1.0,1.6172980000264943,"[(1.0, 1.6172980000264943)]",643.7620347999036,None,,1.0,,,,,,,,sub_303,2023-05-19_11h51.27.854,Reversal,2022.1.2,60.02022687265121,3,
,,,exp4.png,,,,,,,,,,,,,,,,,1,0,1,0,,,,,0,0,0,0,0,3,3,3,,,,,,,,,,,,,,,,,,,,,,,100.0,0.9159065000712872,"[(100.0, 0.9159065000712872)]",646.3626616001129,None,,,100.0,,,,,,,sub_303,2023-05-19_11h51.27.854,Reversal,2022.1.2,60.02022687265121,3,
0,exp1.png,exp2.png,,,,,,,,,,,,,,,,,,2,0,2,0,0,0,0,0,,,,,,,,,True,,,,,,,,,,,,,,,,,,,,,,,,,,,,,,,,,,,,sub_303,2023-05-19_11h51.27.854,Reversal,2022.1.2,60.02022687265121,3,
1,exp3.png,exp4.png,,,,,,,,,,,,,,,,,,2,0,2,0,0,1,1,1,,,,,,,,,False,40,101,False,exp3.png,exp4.png,trial_right_image,-1,exp4.png,3,exp4.png,exp3.png,1,1,non-reversed,correct,0.42507024228323853,1,valid_win,588.5063585999887,66,,,,,,,,,,,,,,,,sub_303,2023-05-19_11h51.27.854,Reversal,2022.1.2,60.02022687265121,3,
2,exp1.png,exp2.png,,,,,,,,,,,,,,,,,,2,0,2,0,0,2,2,2,,,,,,,,,False,41,102,True,exp2.png,exp1.png,trial_right_image,-1,exp1.png,3,exp1.png,exp2.png,0,4,reversed,correct,0.42593392970143695,1,valid_win,593.2234467000235,67,,,,,,,,,,,,,,,,sub_303,2023-05-19_11h51.27.854,Reversal,2022.1.2,60.02022687265121,3,
3,exp3.png,exp4.png,,,,,,,,,,,,,,,,,,2,0,2,0,0,3,3,3,,,,,,,,,False,42,103,True,exp4.png,exp3.png,trial_left_image,1,exp4.png,3,exp4.png,exp3.png,1,1,non-reversed,correct,0.6331027025665469,1,valid_win,597.606567400042,68,,,,,,,,,,,,,,,,sub_303,2023-05-19_11h51.27.854,Reversal,2022.1.2,60.02022687265121,3,
4,exp1.png,exp2.png,,,,,,,,,,,,,,,,,,2,0,2,0,0,4,4,4,,,,,,,,,False,43,104,False,exp1.png,exp2.png,trial_left_image,1,exp1.png,3,exp1.png,exp2.png,0,4,reversed,correct,0.7915001423396052,1,valid_win,601.7395861998666,69,,,,,,,,,,,,,,,,sub_303,2023-05-19_11h51.27.854,Reversal,2022.1.2,60.02022687265121,3,
5,exp3.png,exp4.png,,,,,,,,,,,,,,,,,,2,0,2,0,0,5,5,5,,,,,,,,,False,44,105,True,exp4.png,exp3.png,trial_left_image,1,exp4.png,3,exp4.png,exp3.png,1,1,non-reversed,correct,0.05273042318775911,0,invalid_lose,606.356042200001,69,,,,,,,,,,,,,,,,sub_303,2023-05-19_11h51.27.854,Reversal,2022.1.2,60.02022687265121,3,
6,exp1.png,exp2.png,,,,,,,,,,,,,,,,,,2,0,2,0,0,6,6,6,,,,,,,,,False,45,106,False,exp1.png,exp2.png,trial_left_image,1,exp1.png,3,exp1.png,exp2.png,0,4,reversed,correct,0.29624994759274426,1,valid_win,612.0056747999042,70,,,,,,,,,,,,,,,,sub_303,2023-05-19_11h51.27.854,Reversal,2022.1.2,60.02022687265121,3,
7,exp3.png,exp4.png,,,,,,,,,,,,,,,,,,2,0,2,0,0,7,7,7,,,,,,,,,False,46,107,True,exp4.png,exp3.png,trial_left_image,1,exp4.png,3,exp4.png,exp3.png,1,1,non-reversed,correct,0.11233970731391474,0,invalid_lose,616.1059310999699,70,,,,,,,,,,,,,,,,sub_303,2023-05-19_11h51.27.854,Reversal,2022.1.2,60.02022687265121,3,
8,exp1.png,exp2.png,,,,,,,,,,,,,,,,,,2,0,2,0,0,8,8,8,,,,,,,,,False,47,108,True,exp2.png,exp1.png,trial_left_image,1,exp2.png,3,exp1.png,exp2.png,1,3,reversed,incorrect,0.1429833323824945,1,invalid_win,620.6061855000444,71,,,,,,,,,,,,,,,,sub_303,2023-05-19_11h51.27.854,Reversal,2022.1.2,60.02022687265121,3,
9,exp3.png,exp4.png,,,,,,,,,,,,,,,,,,2,0,2,0,0,9,9,9,,,,,,,,,False,48,109,False,exp3.png,exp4.png,trial_right_image,-1,exp4.png,3,exp4.png,exp3.png,1,1,non-reversed,correct,0.8979821470453293,1,valid_win,625.7892686999403,72,,,,,,,,,,,,,,,,sub_303,2023-05-19_11h51.27.854,Reversal,2022.1.2,60.02022687265121,3,
10,exp1.png,exp2.png,,,,,,,,,,,,,,,,,,2,0,2,0,0,10,10,10,,,,,,,,,False,49,110,True,exp2.png,exp1.png,trial_right_image,-1,exp1.png,3,exp1.png,exp2.png,0,4,reversed,correct,0.24004807256277005,0,invalid_lose,630.3391648000106,72,,,,,,,,,,,,,,,,sub_303,2023-05-19_11h51.27.854,Reversal,2022.1.2,60.02022687265121,3,
11,exp3.png,exp4.png,,,,,,,,,,,,,,,,,,2,0,2,0,0,11,11,11,,,,,,,,,False,50,111,True,exp4.png,exp3.png,trial_left_image,1,exp4.png,3,exp4.png,exp3.png,1,1,non-reversed,correct,0.9113229810860799,1,valid_win,634.4561564999167,73,,,,,,,,,,,,,,,,sub_303,2023-05-19_11h51.27.854,Reversal,2022.1.2,60.02022687265121,3,
12,exp1.png,exp2.png,,,,,,,,,,,,,,,,,,2,0,2,0,0,12,12,12,,,,,,,,,False,51,112,False,exp1.png,exp2.png,trial_right_image,-1,exp2.png,3,exp1.png,exp2.png,1,3,reversed,incorrect,0.29800981343737265,0,valid_lose,638.8063610999379,73,,,,,,,,,,,,,,,,sub_303,2023-05-19_11h51.27.854,Reversal,2022.1.2,60.02022687265121,3,
13,exp3.png,exp4.png,,,,,,,,,,,,,,,,,,2,0,2,0,0,13,13,13,,,,,,,,,False,52,113,False,exp3.png,exp4.png,trial_right_image,-1,exp4.png,3,exp4.png,exp3.png,1,1,non-reversed,correct,0.8774581176160383,1,valid_win,643.2396676000208,74,,,,,,,,,,,,,,,,sub_303,2023-05-19_11h51.27.854,Reversal,2022.1.2,60.02022687265121,3,
14,exp1.png,exp2.png,,,,,,,,,,,,,,,,,,2,0,2,0,0,14,14,14,,,,,,,,,False,53,114,True,exp2.png,exp1.png,trial_right_image,-1,exp1.png,3,exp1.png,exp2.png,0,4,reversed,correct,0.9736536400611192,1,valid_win,647.9228781000711,75,,,,,,,,,,,,,,,,sub_303,2023-05-19_11h51.27.854,Reversal,2022.1.2,60.02022687265121,3,
15,exp3.png,exp4.png,,,,,,,,,,,,,,,,,,2,0,2,0,0,15,15,15,,,,,,,,,False,54,115,False,exp3.png,exp4.png,trial_right_image,-1,exp4.png,3,exp4.png,exp3.png,1,1,non-reversed,correct,0.9328086178058563,1,valid_win,652.0555151000153,76,,,,,,,,,,,,,,,,sub_303,2023-05-19_11h51.27.854,Reversal,2022.1.2,60.02022687265121,3,
16,exp1.png,exp2.png,,,,,,,,,,,,,,,,,,2,0,2,0,0,16,16,16,,,,,,,,,False,55,116,True,exp2.png,exp1.png,trial_right_image,-1,exp1.png,3,exp1.png,exp2.png,0,4,reversed,correct,0.3478818380611125,1,valid_win,656.3223534000572,77,,,,,,,,,,,,,,,,sub_303,2023-05-19_11h51.27.854,Reversal,2022.1.2,60.02022687265121,3,
17,exp3.png,exp4.png,,,,,,,,,,,,,,,,,,2,0,2,0,0,17,17,17,,,,,,,,,False,56,117,False,exp3.png,exp4.png,trial_right_image,-1,exp4.png,3,exp4.png,exp3.png,1,1,non-reversed,correct,0.24335602672841727,0,invalid_lose,660.5890641999431,77,,,,,,,,,,,,,,,,sub_303,2023-05-19_11h51.27.854,Reversal,2022.1.2,60.02022687265121,3,
18,exp1.png,exp2.png,,,,,,,,,,,,,,,,,,2,0,2,0,0,18,18,18,,,,,,,,,False,57,118,False,exp1.png,exp2.png,trial_left_image,1,exp1.png,3,exp1.png,exp2.png,0,4,reversed,correct,0.30861165913666533,1,valid_win,665.0549190999009,78,,,,,,,,,,,,,,,,sub_303,2023-05-19_11h51.27.854,Reversal,2022.1.2,60.02022687265121,3,
19,exp3.png,exp4.png,,,,,,,,,,,,,,,,,,2,0,2,0,0,19,19,19,,,,,,,,,False,58,119,False,exp3.png,exp4.png,trial_right_image,-1,exp4.png,3,exp4.png,exp3.png,1,1,non-reversed,correct,0.09735590363217772,0,invalid_lose,669.2390834998805,78,,,,,,,,,,,,,,,,sub_303,2023-05-19_11h51.27.854,Reversal,2022.1.2,60.02022687265121,3,
20,exp1.png,exp2.png,,,,,,,,,,,,,,,,,,2,0,2,0,0,20,20,20,,,,,,,,,False,59,120,True,exp2.png,exp1.png,trial_right_image,-1,exp1.png,3,exp1.png,exp2.png,0,4,reversed,correct,0.8212855450285104,1,valid_win,673.5555384000763,79,,,,,,,,,,,,,,,,sub_303,2023-05-19_11h51.27.854,Reversal,2022.1.2,60.02022687265121,3,
,,,exp1.png,,,,,,,,,,,,,,,,,2,0,2,0,,,,,0,0,0,0,0,0,0,0,,,,,,,,,,,,,,,,,,,,,,75.0,75.0,3.581680899951607,"[(75.0, 3.581680899951607)]",739.7977930998895,None,,,,,,,,,,sub_303,2023-05-19_11h51.27.854,Reversal,2022.1.2,60.02022687265121,3,
,,,exp2.png,,,,,,,,,,,,,,,,,2,0,2,0,,,,,0,0,0,0,0,1,1,1,,,,,,,,,,,,,,,,,,,,,,,21.0,2.465525900013745,"[(21.0, 2.465525900013745)]",744.6444518999197,None,21.0,,,,,,,,,sub_303,2023-05-19_11h51.27.854,Reversal,2022.1.2,60.02022687265121,3,
,,,exp3.png,,,,,,,,,,,,,,,,,2,0,2,0,,,,,0,0,0,0,0,2,2,2,,,,,,,,,,,,,,,,,,,,,,,26.0,6.467158900108188,"[(21.0, 5.219065700192004), (26.0, 6.467158900108188)]",748.092606500024,None,,26.0,,,,,,,,sub_303,2023-05-19_11h51.27.854,Reversal,2022.1.2,60.02022687265121,3,
,,,exp4.png,,,,,,,,,,,,,,,,,2,0,2,0,,,,,0,0,0,0,0,3,3,3,,,,,,,,,,,,,,,,,,,,,,,77.0,1.304079300025478,"[(77.0, 1.304079300025478)]",755.7456370000727,None,,,77.0,,,,,,,sub_303,2023-05-19_11h51.27.854,Reversal,2022.1.2,60.02022687265121,3,
,,,,,,,,,,,,,,,,,,,,,,,,,,,,,,,,,,,,,,,,,,,,,,,,,,,,,,,,79,,,,,,,,,,,95,54,41,316.8986255999189,0,,,,,,,
