trial_index,trial_image1_file,trial_image2_file,image_file,learning_outer_loop.thisRepN,learning_outer_loop.thisTrialN,learning_outer_loop.thisN,learning_outer_loop.thisIndex,learning_inner_loop.thisRepN,learning_inner_loop.thisTrialN,learning_inner_loop.thisN,learning_inner_loop.thisIndex,learning_estimation_outer_loop.thisRepN,learning_estimation_outer_loop.thisTrialN,learning_estimation_outer_loop.thisN,learning_estimation_outer_loop.thisIndex,learning_estimation_inner_loop.thisRepN,learning_estimation_inner_loop.thisTrialN,learning_estimation_inner_loop.thisN,learning_estimation_inner_loop.thisIndex,reversal_outer_loop.thisRepN,reversal_outer_loop.thisTrialN,reversal_outer_loop.thisN,reversal_outer_loop.thisIndex,reversal_inner_loop.thisRepN,reversal_inner_loop.thisTrialN,reversal_inner_loop.thisN,reversal_inner_loop.thisIndex,reversal_estimation_outer_loop.thisRepN,reversal_estimation_outer_loop.thisTrialN,reversal_estimation_outer_loop.thisN,reversal_estimation_outer_loop.thisIndex,reversal_estimation_inner_loop.thisRepN,reversal_estimation_inner_loop.thisTrialN,reversal_estimation_inner_loop.thisN,reversal_estimation_inner_loop.thisIndex,skipped,total_trial_counter,trial_num,left_right_flip,left_image_file,right_image_file,clicked_stimulus_side,side,clicked_stimulus,version,high_prob_image_file,low_prob_image_file,choice_a,choice_b,pair_type,correct,trial_feedback_random,reward,trial_type,overall_time_after_trial,score,estimation_exp1.png,estimation_rating.response,estimation_rating.rt,estimation_rating.history,estimation_rating.started,estimation_rating.stopped,estimation_exp2.png,estimation_exp3.png,estimation_exp4.png,total_learning_time,total_correct,learning_correct,reversal_correct,total_reversal_time,extra_block,participant,date,expName,psychopyVersion,frameRate,ver,
0,exp1.png,exp2.png,,0,0,0,0,0,0,0,0,,,,,,,,,,,,,,,,,,,,,,,,,False,0,1,True,exp2.png,exp1.png,trial_left_image,1,exp2.png,1,exp1.png,exp2.png,0,4,reversed,incorrect,0.6421294160771888,0,valid_lose,14.649634200148284,0,,,,,,,,,,,,,,,,sub_853,2025-02-28_09h00.48.840,Reversal,2022.1.2,60.029198200708144,1,
1,exp3.png,exp4.png,,0,0,0,0,0,1,1,1,,,,,,,,,,,,,,,,,,,,,,,,,False,1,2,True,exp4.png,exp3.png,trial_right_image,-1,exp3.png,1,exp3.png,exp4.png,1,1,non-reversed,correct,0.013561047392244285,0,invalid_lose,21.400270599871874,0,,,,,,,,,,,,,,,,sub_853,2025-02-28_09h00.48.840,Reversal,2022.1.2,60.029198200708144,1,
2,exp1.png,exp2.png,,0,0,0,0,0,2,2,2,,,,,,,,,,,,,,,,,,,,,,,,,False,2,3,True,exp2.png,exp1.png,trial_right_image,-1,exp1.png,1,exp1.png,exp2.png,1,3,reversed,correct,0.41988212520856794,1,valid_win,28.55053920019418,1,,,,,,,,,,,,,,,,sub_853,2025-02-28_09h00.48.840,Reversal,2022.1.2,60.029198200708144,1,
3,exp3.png,exp4.png,,0,0,0,0,0,3,3,3,,,,,,,,,,,,,,,,,,,,,,,,,False,3,4,False,exp3.png,exp4.png,trial_left_image,1,exp3.png,1,exp3.png,exp4.png,1,1,non-reversed,correct,0.7364191148966183,1,valid_win,35.8827932998538,2,,,,,,,,,,,,,,,,sub_853,2025-02-28_09h00.48.840,Reversal,2022.1.2,60.029198200708144,1,
4,exp1.png,exp2.png,,0,0,0,0,0,4,4,4,,,,,,,,,,,,,,,,,,,,,,,,,False,4,5,True,exp2.png,exp1.png,trial_right_image,-1,exp1.png,1,exp1.png,exp2.png,1,3,reversed,correct,0.08604199712244431,0,invalid_lose,41.466046400368214,2,,,,,,,,,,,,,,,,sub_853,2025-02-28_09h00.48.840,Reversal,2022.1.2,60.029198200708144,1,
5,exp3.png,exp4.png,,0,0,0,0,0,5,5,5,,,,,,,,,,,,,,,,,,,,,,,,,False,5,6,True,exp4.png,exp3.png,trial_right_image,-1,exp3.png,1,exp3.png,exp4.png,1,1,non-reversed,correct,0.41615080289582396,1,valid_win,48.84925560001284,3,,,,,,,,,,,,,,,,sub_853,2025-02-28_09h00.48.840,Reversal,2022.1.2,60.029198200708144,1,
6,exp1.png,exp2.png,,0,0,0,0,0,6,6,6,,,,,,,,,,,,,,,,,,,,,,,,,False,6,7,False,exp1.png,exp2.png,trial_left_image,1,exp1.png,1,exp1.png,exp2.png,1,3,reversed,correct,0.4700355131520546,1,valid_win,55.666160699911416,4,,,,,,,,,,,,,,,,sub_853,2025-02-28_09h00.48.840,Reversal,2022.1.2,60.029198200708144,1,
7,exp3.png,exp4.png,,0,0,0,0,0,7,7,7,,,,,,,,,,,,,,,,,,,,,,,,,False,7,8,True,exp4.png,exp3.png,trial_left_image,1,exp4.png,1,exp3.png,exp4.png,0,2,non-reversed,incorrect,0.5100571953439409,0,valid_lose,61.28290470037609,4,,,,,,,,,,,,,,,,sub_853,2025-02-28_09h00.48.840,Reversal,2022.1.2,60.029198200708144,1,
8,exp1.png,exp2.png,,0,0,0,0,0,8,8,8,,,,,,,,,,,,,,,,,,,,,,,,,False,8,9,True,exp2.png,exp1.png,trial_right_image,-1,exp1.png,1,exp1.png,exp2.png,1,3,reversed,correct,0.9603796503962668,1,valid_win,67.11590480059385,5,,,,,,,,,,,,,,,,sub_853,2025-02-28_09h00.48.840,Reversal,2022.1.2,60.029198200708144,1,
9,exp3.png,exp4.png,,0,0,0,0,0,9,9,9,,,,,,,,,,,,,,,,,,,,,,,,,False,9,10,True,exp4.png,exp3.png,trial_right_image,-1,exp3.png,1,exp3.png,exp4.png,1,1,non-reversed,correct,0.2040672536661653,0,invalid_lose,73.04880340024829,5,,,,,,,,,,,,,,,,sub_853,2025-02-28_09h00.48.840,Reversal,2022.1.2,60.029198200708144,1,
10,exp1.png,exp2.png,,0,0,0,0,0,10,10,10,,,,,,,,,,,,,,,,,,,,,,,,,False,10,11,False,exp1.png,exp2.png,trial_left_image,1,exp1.png,1,exp1.png,exp2.png,1,3,reversed,correct,0.35775992532898615,1,valid_win,79.58237029984593,6,,,,,,,,,,,,,,,,sub_853,2025-02-28_09h00.48.840,Reversal,2022.1.2,60.029198200708144,1,
11,exp3.png,exp4.png,,0,0,0,0,0,11,11,11,,,,,,,,,,,,,,,,,,,,,,,,,False,11,12,False,exp3.png,exp4.png,trial_right_image,-1,exp4.png,1,exp3.png,exp4.png,0,2,non-reversed,incorrect,0.33290243305872824,0,valid_lose,85.76551390066743,6,,,,,,,,,,,,,,,,sub_853,2025-02-28_09h00.48.840,Reversal,2022.1.2,60.029198200708144,1,
12,exp1.png,exp2.png,,0,0,0,0,0,12,12,12,,,,,,,,,,,,,,,,,,,,,,,,,False,12,13,False,exp1.png,exp2.png,trial_left_image,1,exp1.png,1,exp1.png,exp2.png,1,3,reversed,correct,0.9598960498729703,1,valid_win,91.88192680012435,7,,,,,,,,,,,,,,,,sub_853,2025-02-28_09h00.48.840,Reversal,2022.1.2,60.029198200708144,1,
13,exp3.png,exp4.png,,0,0,0,0,0,13,13,13,,,,,,,,,,,,,,,,,,,,,,,,,False,13,14,False,exp3.png,exp4.png,trial_left_image,1,exp3.png,1,exp3.png,exp4.png,1,1,non-reversed,correct,0.8510723817499083,1,valid_win,98.08195240050554,8,,,,,,,,,,,,,,,,sub_853,2025-02-28_09h00.48.840,Reversal,2022.1.2,60.029198200708144,1,
14,exp1.png,exp2.png,,0,0,0,0,0,14,14,14,,,,,,,,,,,,,,,,,,,,,,,,,False,14,15,False,exp1.png,exp2.png,trial_left_image,1,exp1.png,1,exp1.png,exp2.png,1,3,reversed,correct,0.24109572101630794,0,invalid_lose,105.04878470022231,8,,,,,,,,,,,,,,,,sub_853,2025-02-28_09h00.48.840,Reversal,2022.1.2,60.029198200708144,1,
15,exp3.png,exp4.png,,0,0,0,0,0,15,15,15,,,,,,,,,,,,,,,,,,,,,,,,,False,15,16,True,exp4.png,exp3.png,trial_left_image,1,exp4.png,1,exp3.png,exp4.png,0,2,non-reversed,incorrect,0.06273258308892493,1,invalid_win,118.18180810008198,9,,,,,,,,,,,,,,,,sub_853,2025-02-28_09h00.48.840,Reversal,2022.1.2,60.029198200708144,1,
16,exp1.png,exp2.png,,0,0,0,0,0,16,16,16,,,,,,,,,,,,,,,,,,,,,,,,,False,16,17,False,exp1.png,exp2.png,trial_left_image,1,exp1.png,1,exp1.png,exp2.png,1,3,reversed,correct,0.42829698362201984,1,valid_win,124.44833420030773,10,,,,,,,,,,,,,,,,sub_853,2025-02-28_09h00.48.840,Reversal,2022.1.2,60.029198200708144,1,
17,exp3.png,exp4.png,,0,0,0,0,0,17,17,17,,,,,,,,,,,,,,,,,,,,,,,,,False,17,18,True,exp4.png,exp3.png,trial_left_image,1,exp4.png,1,exp3.png,exp4.png,0,2,non-reversed,incorrect,0.17474117381571996,1,invalid_win,130.9979164004326,11,,,,,,,,,,,,,,,,sub_853,2025-02-28_09h00.48.840,Reversal,2022.1.2,60.029198200708144,1,
18,exp1.png,exp2.png,,0,0,0,0,0,18,18,18,,,,,,,,,,,,,,,,,,,,,,,,,False,18,19,False,exp1.png,exp2.png,trial_left_image,1,exp1.png,1,exp1.png,exp2.png,1,3,reversed,correct,0.914185573516112,1,valid_win,137.19759509991854,12,,,,,,,,,,,,,,,,sub_853,2025-02-28_09h00.48.840,Reversal,2022.1.2,60.029198200708144,1,
19,exp3.png,exp4.png,,0,0,0,0,0,19,19,19,,,,,,,,,,,,,,,,,,,,,,,,,False,19,20,False,exp3.png,exp4.png,trial_left_image,1,exp3.png,1,exp3.png,exp4.png,1,1,non-reversed,correct,0.30852511130905735,1,valid_win,144.59746660012752,13,,,,,,,,,,,,,,,,sub_853,2025-02-28_09h00.48.840,Reversal,2022.1.2,60.029198200708144,1,
20,exp1.png,exp2.png,,0,0,0,0,0,20,20,20,,,,,,,,,,,,,,,,,,,,,,,,,True,,,,,,,,,,,,,,,,,,,,,,,,,,,,,,,,,,,,sub_853,2025-02-28_09h00.48.840,Reversal,2022.1.2,60.029198200708144,1,
,,,exp1.png,0,0,0,0,,,,,0,0,0,0,0,0,0,0,,,,,,,,,,,,,,,,,,,,,,,,,,,,,,,,,,,,,,100.0,100.0,9.610113400034606,"[(100.0, 9.610113400034606)]",225.53124259971082,None,,,,,,,,,,sub_853,2025-02-28_09h00.48.840,Reversal,2022.1.2,60.029198200708144,1,
,,,exp2.png,0,0,0,0,,,,,0,0,0,0,0,1,1,1,,,,,,,,,,,,,,,,,,,,,,,,,,,,,,,,,,,,,,,2.0,12.167870500124991,"[(2.0, 12.167870500124991)]",236.36473149992526,None,2.0,,,,,,,,,sub_853,2025-02-28_09h00.48.840,Reversal,2022.1.2,60.029198200708144,1,
,,,exp3.png,0,0,0,0,,,,,0,0,0,0,0,2,2,2,,,,,,,,,,,,,,,,,,,,,,,,,,,,,,,,,,,,,,,98.0,3.667855399660766,"[(98.0, 3.667855399660766)]",249.7445447994396,None,,98.0,,,,,,,,sub_853,2025-02-28_09h00.48.840,Reversal,2022.1.2,60.029198200708144,1,
,,,exp4.png,0,0,0,0,,,,,0,0,0,0,0,3,3,3,,,,,,,,,,,,,,,,,,,,,,,,,,,,,,,,,,,,,,,2.0,4.417382599785924,"[(2.0, 4.417382599785924)]",254.44762509968132,None,,,2.0,,,,,,,sub_853,2025-02-28_09h00.48.840,Reversal,2022.1.2,60.029198200708144,1,
0,exp1.png,exp2.png,,1,0,1,0,0,0,0,0,,,,,,,,,,,,,,,,,,,,,,,,,False,20,21,False,exp1.png,exp2.png,trial_left_image,1,exp1.png,1,exp1.png,exp2.png,1,3,reversed,correct,0.3711320078054443,1,valid_win,184.46405970025808,14,,,,,,,,,,,,,,,,sub_853,2025-02-28_09h00.48.840,Reversal,2022.1.2,60.029198200708144,1,
1,exp3.png,exp4.png,,1,0,1,0,0,1,1,1,,,,,,,,,,,,,,,,,,,,,,,,,False,21,22,True,exp4.png,exp3.png,trial_right_image,-1,exp3.png,1,exp3.png,exp4.png,1,1,non-reversed,correct,0.6882079055979325,1,valid_win,191.73015560023487,15,,,,,,,,,,,,,,,,sub_853,2025-02-28_09h00.48.840,Reversal,2022.1.2,60.029198200708144,1,
2,exp1.png,exp2.png,,1,0,1,0,0,2,2,2,,,,,,,,,,,,,,,,,,,,,,,,,False,22,23,True,exp2.png,exp1.png,trial_right_image,-1,exp1.png,1,exp1.png,exp2.png,1,3,reversed,correct,0.17722238158694292,0,invalid_lose,196.92988579999655,15,,,,,,,,,,,,,,,,sub_853,2025-02-28_09h00.48.840,Reversal,2022.1.2,60.029198200708144,1,
3,exp3.png,exp4.png,,1,0,1,0,0,3,3,3,,,,,,,,,,,,,,,,,,,,,,,,,False,23,24,True,exp4.png,exp3.png,trial_right_image,-1,exp3.png,1,exp3.png,exp4.png,1,1,non-reversed,correct,0.04975223481416435,0,invalid_lose,202.03000710066408,15,,,,,,,,,,,,,,,,sub_853,2025-02-28_09h00.48.840,Reversal,2022.1.2,60.029198200708144,1,
4,exp1.png,exp2.png,,1,0,1,0,0,4,4,4,,,,,,,,,,,,,,,,,,,,,,,,,False,24,25,True,exp2.png,exp1.png,trial_right_image,-1,exp1.png,1,exp1.png,exp2.png,1,3,reversed,correct,0.7556867071567194,1,valid_win,206.8799697002396,16,,,,,,,,,,,,,,,,sub_853,2025-02-28_09h00.48.840,Reversal,2022.1.2,60.029198200708144,1,
5,exp3.png,exp4.png,,1,0,1,0,0,5,5,5,,,,,,,,,,,,,,,,,,,,,,,,,False,25,26,True,exp4.png,exp3.png,trial_right_image,-1,exp3.png,1,exp3.png,exp4.png,1,1,non-reversed,correct,0.30562932173463364,1,valid_win,212.41316810064018,17,,,,,,,,,,,,,,,,sub_853,2025-02-28_09h00.48.840,Reversal,2022.1.2,60.029198200708144,1,
6,exp1.png,exp2.png,,1,0,1,0,0,6,6,6,,,,,,,,,,,,,,,,,,,,,,,,,False,26,27,False,exp1.png,exp2.png,trial_left_image,1,exp1.png,1,exp1.png,exp2.png,1,3,reversed,correct,0.43492957209845184,1,valid_win,217.82984529994428,18,,,,,,,,,,,,,,,,sub_853,2025-02-28_09h00.48.840,Reversal,2022.1.2,60.029198200708144,1,
7,exp3.png,exp4.png,,1,0,1,0,0,7,7,7,,,,,,,,,,,,,,,,,,,,,,,,,False,27,28,True,exp4.png,exp3.png,trial_right_image,-1,exp3.png,1,exp3.png,exp4.png,1,1,non-reversed,correct,0.7978638902727498,1,valid_win,223.8463671002537,19,,,,,,,,,,,,,,,,sub_853,2025-02-28_09h00.48.840,Reversal,2022.1.2,60.029198200708144,1,
8,exp1.png,exp2.png,,1,0,1,0,0,8,8,8,,,,,,,,,,,,,,,,,,,,,,,,,False,28,29,False,exp1.png,exp2.png,trial_left_image,1,exp1.png,1,exp1.png,exp2.png,1,3,reversed,correct,0.11860393344309228,0,invalid_lose,229.26286489982158,19,,,,,,,,,,,,,,,,sub_853,2025-02-28_09h00.48.840,Reversal,2022.1.2,60.029198200708144,1,
9,exp3.png,exp4.png,,1,0,1,0,0,9,9,9,,,,,,,,,,,,,,,,,,,,,,,,,False,29,30,True,exp4.png,exp3.png,trial_left_image,1,exp4.png,1,exp3.png,exp4.png,0,2,non-reversed,incorrect,0.11580199120267387,1,invalid_win,234.5792599003762,20,,,,,,,,,,,,,,,,sub_853,2025-02-28_09h00.48.840,Reversal,2022.1.2,60.029198200708144,1,
10,exp1.png,exp2.png,,1,0,1,0,0,10,10,10,,,,,,,,,,,,,,,,,,,,,,,,,False,30,31,False,exp1.png,exp2.png,trial_left_image,1,exp1.png,1,exp1.png,exp2.png,1,3,reversed,correct,0.5848364675119511,1,valid_win,239.5127003006637,21,,,,,,,,,,,,,,,,sub_853,2025-02-28_09h00.48.840,Reversal,2022.1.2,60.029198200708144,1,
11,exp3.png,exp4.png,,1,0,1,0,0,11,11,11,,,,,,,,,,,,,,,,,,,,,,,,,False,31,32,False,exp3.png,exp4.png,trial_left_image,1,exp3.png,1,exp3.png,exp4.png,1,1,non-reversed,correct,0.04897393636223202,0,invalid_lose,244.51226930040866,21,,,,,,,,,,,,,,,,sub_853,2025-02-28_09h00.48.840,Reversal,2022.1.2,60.029198200708144,1,
12,exp1.png,exp2.png,,1,0,1,0,0,12,12,12,,,,,,,,,,,,,,,,,,,,,,,,,False,32,33,False,exp1.png,exp2.png,trial_left_image,1,exp1.png,1,exp1.png,exp2.png,1,3,reversed,correct,0.557691334460808,1,valid_win,249.5125323999673,22,,,,,,,,,,,,,,,,sub_853,2025-02-28_09h00.48.840,Reversal,2022.1.2,60.029198200708144,1,
13,exp3.png,exp4.png,,1,0,1,0,0,13,13,13,,,,,,,,,,,,,,,,,,,,,,,,,False,33,34,False,exp3.png,exp4.png,trial_left_image,1,exp3.png,1,exp3.png,exp4.png,1,1,non-reversed,correct,0.9494291243825607,1,valid_win,255.16239539999515,23,,,,,,,,,,,,,,,,sub_853,2025-02-28_09h00.48.840,Reversal,2022.1.2,60.029198200708144,1,
14,exp1.png,exp2.png,,1,0,1,0,0,14,14,14,,,,,,,,,,,,,,,,,,,,,,,,,False,34,35,True,exp2.png,exp1.png,trial_right_image,-1,exp1.png,1,exp1.png,exp2.png,1,3,reversed,correct,0.6514986645294405,1,valid_win,260.17883950006217,24,,,,,,,,,,,,,,,,sub_853,2025-02-28_09h00.48.840,Reversal,2022.1.2,60.029198200708144,1,
15,exp3.png,exp4.png,,1,0,1,0,0,15,15,15,,,,,,,,,,,,,,,,,,,,,,,,,False,35,36,True,exp4.png,exp3.png,trial_right_image,-1,exp3.png,1,exp3.png,exp4.png,1,1,non-reversed,correct,0.680708015503889,1,valid_win,265.4289615005255,25,,,,,,,,,,,,,,,,sub_853,2025-02-28_09h00.48.840,Reversal,2022.1.2,60.029198200708144,1,
16,exp1.png,exp2.png,,1,0,1,0,0,16,16,16,,,,,,,,,,,,,,,,,,,,,,,,,False,36,37,False,exp1.png,exp2.png,trial_left_image,1,exp1.png,1,exp1.png,exp2.png,1,3,reversed,correct,0.9872565793964002,1,valid_win,270.6790987001732,26,,,,,,,,,,,,,,,,sub_853,2025-02-28_09h00.48.840,Reversal,2022.1.2,60.029198200708144,1,
17,exp3.png,exp4.png,,1,0,1,0,0,17,17,17,,,,,,,,,,,,,,,,,,,,,,,,,False,37,38,False,exp3.png,exp4.png,trial_left_image,1,exp3.png,1,exp3.png,exp4.png,1,1,non-reversed,correct,0.34916435340577034,1,valid_win,275.89524890016764,27,,,,,,,,,,,,,,,,sub_853,2025-02-28_09h00.48.840,Reversal,2022.1.2,60.029198200708144,1,
18,exp1.png,exp2.png,,1,0,1,0,0,18,18,18,,,,,,,,,,,,,,,,,,,,,,,,,False,38,39,True,exp2.png,exp1.png,trial_right_image,-1,exp1.png,1,exp1.png,exp2.png,1,3,reversed,correct,0.968488232703055,1,valid_win,281.24499780032784,28,,,,,,,,,,,,,,,,sub_853,2025-02-28_09h00.48.840,Reversal,2022.1.2,60.029198200708144,1,
19,exp3.png,exp4.png,,1,0,1,0,0,19,19,19,,,,,,,,,,,,,,,,,,,,,,,,,False,39,40,False,exp3.png,exp4.png,trial_right_image,-1,exp4.png,1,exp3.png,exp4.png,0,2,non-reversed,incorrect,0.041299387663038534,1,invalid_win,287.0452487003058,29,,,,,,,,,,,,,,,,sub_853,2025-02-28_09h00.48.840,Reversal,2022.1.2,60.029198200708144,1,
20,exp1.png,exp2.png,,1,0,1,0,0,20,20,20,,,,,,,,,,,,,,,,,,,,,,,,,True,,,,,,,,,,,,,,,,,,,,,,,,,,,,,,,,,,,,sub_853,2025-02-28_09h00.48.840,Reversal,2022.1.2,60.029198200708144,1,
,,,exp1.png,1,0,1,0,,,,,0,0,0,0,0,0,0,0,,,,,,,,,,,,,,,,,,,,,,,,,,,,,,,,,,,,,,100.0,100.0,3.834372199140489,"[(100.0, 3.834372199140489)]",367.9764964999631,None,,,,,,,,,,sub_853,2025-02-28_09h00.48.840,Reversal,2022.1.2,60.029198200708144,1,
,,,exp2.png,1,0,1,0,,,,,0,0,0,0,0,1,1,1,,,,,,,,,,,,,,,,,,,,,,,,,,,,,,,,,,,,,,,1.0,3.6345555000007153,"[(6.0, 2.5357665000483394), (1.0, 3.6345555000007153)]",372.9087517000735,None,1.0,,,,,,,,,sub_853,2025-02-28_09h00.48.840,Reversal,2022.1.2,60.029198200708144,1,
,,,exp3.png,1,0,1,0,,,,,0,0,0,0,0,2,2,2,,,,,,,,,,,,,,,,,,,,,,,,,,,,,,,,,,,,,,,3.0,4.5677821999415755,"[(3.0, 4.5677821999415755)]",377.6752458997071,None,,3.0,,,,,,,,sub_853,2025-02-28_09h00.48.840,Reversal,2022.1.2,60.029198200708144,1,
,,,exp4.png,1,0,1,0,,,,,0,0,0,0,0,3,3,3,,,,,,,,,,,,,,,,,,,,,,,,,,,,,,,,,,,,,,,100.0,4.23472860082984,"[(96.0, 3.0682150004431605), (100.0, 4.23472860082984)]",383.2794017000124,None,,,100.0,,,,,,,sub_853,2025-02-28_09h00.48.840,Reversal,2022.1.2,60.029198200708144,1,
0,exp1.png,exp2.png,,2,0,2,0,0,0,0,0,,,,,,,,,,,,,,,,,,,,,,,,,False,40,41,True,exp2.png,exp1.png,trial_right_image,-1,exp1.png,1,exp1.png,exp2.png,1,3,reversed,correct,0.6062093430345551,1,valid_win,312.9945473000407,30,,,,,,,,,,,,,,,,sub_853,2025-02-28_09h00.48.840,Reversal,2022.1.2,60.029198200708144,1,
1,exp3.png,exp4.png,,2,0,2,0,0,1,1,1,,,,,,,,,,,,,,,,,,,,,,,,,False,41,42,False,exp3.png,exp4.png,trial_right_image,-1,exp4.png,1,exp3.png,exp4.png,0,2,non-reversed,incorrect,0.22439081834590724,1,invalid_win,318.44430720061064,31,,,,,,,,,,,,,,,,sub_853,2025-02-28_09h00.48.840,Reversal,2022.1.2,60.029198200708144,1,
2,exp1.png,exp2.png,,2,0,2,0,0,2,2,2,,,,,,,,,,,,,,,,,,,,,,,,,False,42,43,True,exp2.png,exp1.png,trial_right_image,-1,exp1.png,1,exp1.png,exp2.png,1,3,reversed,correct,0.9224675679153582,1,valid_win,322.94442880060524,32,,,,,,,,,,,,,,,,sub_853,2025-02-28_09h00.48.840,Reversal,2022.1.2,60.029198200708144,1,
3,exp3.png,exp4.png,,2,0,2,0,0,3,3,3,,,,,,,,,,,,,,,,,,,,,,,,,False,43,44,True,exp4.png,exp3.png,trial_left_image,1,exp4.png,1,exp3.png,exp4.png,0,2,non-reversed,incorrect,0.3770030083873199,0,valid_lose,328.81042870040983,32,,,,,,,,,,,,,,,,sub_853,2025-02-28_09h00.48.840,Reversal,2022.1.2,60.029198200708144,1,
4,exp1.png,exp2.png,,2,0,2,0,0,4,4,4,,,,,,,,,,,,,,,,,,,,,,,,,False,44,45,False,exp1.png,exp2.png,trial_left_image,1,exp1.png,1,exp1.png,exp2.png,1,3,reversed,correct,0.37261697256459725,1,valid_win,334.02744880039245,33,,,,,,,,,,,,,,,,sub_853,2025-02-28_09h00.48.840,Reversal,2022.1.2,60.029198200708144,1,
5,exp3.png,exp4.png,,2,0,2,0,0,5,5,5,,,,,,,,,,,,,,,,,,,,,,,,,False,45,46,False,exp3.png,exp4.png,trial_right_image,-1,exp4.png,1,exp3.png,exp4.png,0,2,non-reversed,incorrect,0.7097534153513562,0,valid_lose,341.894444600679,33,,,,,,,,,,,,,,,,sub_853,2025-02-28_09h00.48.840,Reversal,2022.1.2,60.029198200708144,1,
6,exp1.png,exp2.png,,2,0,2,0,0,6,6,6,,,,,,,,,,,,,,,,,,,,,,,,,False,46,47,False,exp1.png,exp2.png,trial_right_image,-1,exp2.png,1,exp1.png,exp2.png,0,4,reversed,incorrect,0.5937656713160285,0,valid_lose,347.4106606999412,33,,,,,,,,,,,,,,,,sub_853,2025-02-28_09h00.48.840,Reversal,2022.1.2,60.029198200708144,1,
7,exp3.png,exp4.png,,2,0,2,0,0,7,7,7,,,,,,,,,,,,,,,,,,,,,,,,,False,47,48,True,exp4.png,exp3.png,trial_left_image,1,exp4.png,1,exp3.png,exp4.png,0,2,non-reversed,incorrect,0.26559924102655563,0,valid_lose,352.4612044002861,33,,,,,,,,,,,,,,,,sub_853,2025-02-28_09h00.48.840,Reversal,2022.1.2,60.029198200708144,1,
8,exp1.png,exp2.png,,2,0,2,0,0,8,8,8,,,,,,,,,,,,,,,,,,,,,,,,,False,48,49,True,exp2.png,exp1.png,trial_right_image,-1,exp1.png,1,exp1.png,exp2.png,1,3,reversed,correct,0.589946011692654,1,valid_win,357.0766316000372,34,,,,,,,,,,,,,,,,sub_853,2025-02-28_09h00.48.840,Reversal,2022.1.2,60.029198200708144,1,
9,exp3.png,exp4.png,,2,0,2,0,0,9,9,9,,,,,,,,,,,,,,,,,,,,,,,,,False,49,50,True,exp4.png,exp3.png,trial_left_image,1,exp4.png,1,exp3.png,exp4.png,0,2,non-reversed,incorrect,0.8212273353375582,0,valid_lose,362.7267155004665,34,,,,,,,,,,,,,,,,sub_853,2025-02-28_09h00.48.840,Reversal,2022.1.2,60.029198200708144,1,
10,exp1.png,exp2.png,,2,0,2,0,0,10,10,10,,,,,,,,,,,,,,,,,,,,,,,,,False,50,51,False,exp1.png,exp2.png,trial_left_image,1,exp1.png,1,exp1.png,exp2.png,1,3,reversed,correct,0.700753369018416,1,valid_win,367.8766422001645,35,,,,,,,,,,,,,,,,sub_853,2025-02-28_09h00.48.840,Reversal,2022.1.2,60.029198200708144,1,
11,exp3.png,exp4.png,,2,0,2,0,0,11,11,11,,,,,,,,,,,,,,,,,,,,,,,,,False,51,52,True,exp4.png,exp3.png,trial_left_image,1,exp4.png,1,exp3.png,exp4.png,0,2,non-reversed,incorrect,0.43365426139170093,0,valid_lose,372.91037920024246,35,,,,,,,,,,,,,,,,sub_853,2025-02-28_09h00.48.840,Reversal,2022.1.2,60.029198200708144,1,
12,exp1.png,exp2.png,,2,0,2,0,0,12,12,12,,,,,,,,,,,,,,,,,,,,,,,,,False,52,53,False,exp1.png,exp2.png,trial_left_image,1,exp1.png,1,exp1.png,exp2.png,1,3,reversed,correct,0.060547074022780034,0,invalid_lose,377.6933051003143,35,,,,,,,,,,,,,,,,sub_853,2025-02-28_09h00.48.840,Reversal,2022.1.2,60.029198200708144,1,
13,exp3.png,exp4.png,,2,0,2,0,0,13,13,13,,,,,,,,,,,,,,,,,,,,,,,,,False,53,54,False,exp3.png,exp4.png,trial_left_image,1,exp3.png,1,exp3.png,exp4.png,1,1,non-reversed,correct,0.8793273053492501,1,valid_win,382.5437786998227,36,,,,,,,,,,,,,,,,sub_853,2025-02-28_09h00.48.840,Reversal,2022.1.2,60.029198200708144,1,
14,exp1.png,exp2.png,,2,0,2,0,0,14,14,14,,,,,,,,,,,,,,,,,,,,,,,,,False,54,55,True,exp2.png,exp1.png,trial_right_image,-1,exp1.png,1,exp1.png,exp2.png,1,3,reversed,correct,0.565558621318728,1,valid_win,387.42697199992836,37,,,,,,,,,,,,,,,,sub_853,2025-02-28_09h00.48.840,Reversal,2022.1.2,60.029198200708144,1,
15,exp3.png,exp4.png,,2,0,2,0,0,15,15,15,,,,,,,,,,,,,,,,,,,,,,,,,False,55,56,False,exp3.png,exp4.png,trial_right_image,-1,exp4.png,1,exp3.png,exp4.png,0,2,non-reversed,incorrect,0.7671238869597882,0,valid_lose,392.5932553000748,37,,,,,,,,,,,,,,,,sub_853,2025-02-28_09h00.48.840,Reversal,2022.1.2,60.029198200708144,1,
16,exp1.png,exp2.png,,2,0,2,0,0,16,16,16,,,,,,,,,,,,,,,,,,,,,,,,,False,56,57,True,exp2.png,exp1.png,trial_right_image,-1,exp1.png,1,exp1.png,exp2.png,1,3,reversed,correct,0.4970470573275847,1,valid_win,397.19303449988365,38,,,,,,,,,,,,,,,,sub_853,2025-02-28_09h00.48.840,Reversal,2022.1.2,60.029198200708144,1,
17,exp3.png,exp4.png,,2,0,2,0,0,17,17,17,,,,,,,,,,,,,,,,,,,,,,,,,False,57,58,True,exp4.png,exp3.png,trial_right_image,-1,exp3.png,1,exp3.png,exp4.png,1,1,non-reversed,correct,0.6319321507534428,1,valid_win,402.59264750033617,39,,,,,,,,,,,,,,,,sub_853,2025-02-28_09h00.48.840,Reversal,2022.1.2,60.029198200708144,1,
18,exp1.png,exp2.png,,2,0,2,0,0,18,18,18,,,,,,,,,,,,,,,,,,,,,,,,,False,58,59,False,exp1.png,exp2.png,trial_left_image,1,exp1.png,1,exp1.png,exp2.png,1,3,reversed,correct,0.8819901451193376,1,valid_win,407.92637730017304,40,,,,,,,,,,,,,,,,sub_853,2025-02-28_09h00.48.840,Reversal,2022.1.2,60.029198200708144,1,
19,exp3.png,exp4.png,,2,0,2,0,0,19,19,19,,,,,,,,,,,,,,,,,,,,,,,,,False,59,60,False,exp3.png,exp4.png,trial_right_image,-1,exp4.png,1,exp3.png,exp4.png,0,2,non-reversed,incorrect,0.30334776495515114,0,valid_lose,412.99261980038136,40,,,,,,,,,,,,,,,,sub_853,2025-02-28_09h00.48.840,Reversal,2022.1.2,60.029198200708144,1,
20,exp1.png,exp2.png,,2,0,2,0,0,20,20,20,,,,,,,,,,,,,,,,,,,,,,,,,True,,,,,,,,,,,,,,,,,,,,,,,,,,,,,,,,,,,,sub_853,2025-02-28_09h00.48.840,Reversal,2022.1.2,60.029198200708144,1,
,,,exp1.png,2,0,2,0,,,,,0,0,0,0,0,0,0,0,,,,,,,,,,,,,,,,,,,,,,,,,,,,,,,,,,,,,,100.0,100.0,2.8017835998907685,"[(100.0, 2.8017835998907685)]",493.9086873997003,None,,,,,,,,,,sub_853,2025-02-28_09h00.48.840,Reversal,2022.1.2,60.029198200708144,1,
,,,exp2.png,2,0,2,0,,,,,0,0,0,0,0,1,1,1,,,,,,,,,,,,,,,,,,,,,,,,,,,,,,,,,,,,,,,100.0,2.482128200121224,"[(100.0, 2.482128200121224)]",497.80923089943826,None,100.0,,,,,,,,,sub_853,2025-02-28_09h00.48.840,Reversal,2022.1.2,60.029198200708144,1,
,,,exp3.png,2,0,2,0,,,,,0,0,0,0,0,2,2,2,,,,,,,,,,,,,,,,,,,,,,,,,,,,,,,,,,,,,,,1.0,3.4854041999205947,"[(1.0, 3.4854041999205947)]",501.59581239987165,None,,1.0,,,,,,,,sub_853,2025-02-28_09h00.48.840,Reversal,2022.1.2,60.029198200708144,1,
,,,exp4.png,2,0,2,0,,,,,0,0,0,0,0,3,3,3,,,,,,,,,,,,,,,,,,,,,,,,,,,,,,,,,,,,,,,1.0,2.684442499652505,"[(1.0, 2.684442499652505)]",506.1245959000662,None,,,1.0,,,,,,,sub_853,2025-02-28_09h00.48.840,Reversal,2022.1.2,60.029198200708144,1,
0,exp1.png,exp2.png,,3,0,3,0,0,0,0,0,,,,,,,,,,,,,,,,,,,,,,,,,False,60,61,True,exp2.png,exp1.png,trial_right_image,-1,exp1.png,1,exp1.png,exp2.png,1,3,reversed,correct,0.6775408736509547,1,valid_win,434.3092080000788,41,,,,,,,,,,,,,,,,sub_853,2025-02-28_09h00.48.840,Reversal,2022.1.2,60.029198200708144,1,
1,exp3.png,exp4.png,,3,0,3,0,0,1,1,1,,,,,,,,,,,,,,,,,,,,,,,,,False,61,62,True,exp4.png,exp3.png,trial_left_image,1,exp4.png,1,exp3.png,exp4.png,0,2,non-reversed,incorrect,0.7258568929395952,0,valid_lose,439.1419994998723,41,,,,,,,,,,,,,,,,sub_853,2025-02-28_09h00.48.840,Reversal,2022.1.2,60.029198200708144,1,
2,exp1.png,exp2.png,,3,0,3,0,0,2,2,2,,,,,,,,,,,,,,,,,,,,,,,,,False,62,63,False,exp1.png,exp2.png,trial_left_image,1,exp1.png,1,exp1.png,exp2.png,1,3,reversed,correct,0.8612609164153752,1,valid_win,444.8587833000347,42,,,,,,,,,,,,,,,,sub_853,2025-02-28_09h00.48.840,Reversal,2022.1.2,60.029198200708144,1,
3,exp3.png,exp4.png,,3,0,3,0,0,3,3,3,,,,,,,,,,,,,,,,,,,,,,,,,False,63,64,True,exp4.png,exp3.png,trial_left_image,1,exp4.png,1,exp3.png,exp4.png,0,2,non-reversed,incorrect,0.0017790723279823561,1,invalid_win,449.89218380022794,43,,,,,,,,,,,,,,,,sub_853,2025-02-28_09h00.48.840,Reversal,2022.1.2,60.029198200708144,1,
4,exp1.png,exp2.png,,3,0,3,0,0,4,4,4,,,,,,,,,,,,,,,,,,,,,,,,,False,64,65,False,exp1.png,exp2.png,trial_left_image,1,exp1.png,1,exp1.png,exp2.png,1,3,reversed,correct,0.12271274992053549,0,invalid_lose,455.0425006002188,43,,,,,,,,,,,,,,,,sub_853,2025-02-28_09h00.48.840,Reversal,2022.1.2,60.029198200708144,1,
5,exp3.png,exp4.png,,3,0,3,0,0,5,5,5,,,,,,,,,,,,,,,,,,,,,,,,,False,65,66,False,exp3.png,exp4.png,trial_right_image,-1,exp4.png,1,exp3.png,exp4.png,0,2,non-reversed,incorrect,0.2877975410261453,0,valid_lose,459.8916725004092,43,,,,,,,,,,,,,,,,sub_853,2025-02-28_09h00.48.840,Reversal,2022.1.2,60.029198200708144,1,
6,exp1.png,exp2.png,,3,0,3,0,0,6,6,6,,,,,,,,,,,,,,,,,,,,,,,,,False,66,67,True,exp2.png,exp1.png,trial_right_image,-1,exp1.png,1,exp1.png,exp2.png,1,3,reversed,correct,0.36122045708601025,1,valid_win,464.17474880069494,44,,,,,,,,,,,,,,,,sub_853,2025-02-28_09h00.48.840,Reversal,2022.1.2,60.029198200708144,1,
7,exp3.png,exp4.png,,3,0,3,0,0,7,7,7,,,,,,,,,,,,,,,,,,,,,,,,,False,67,68,True,exp4.png,exp3.png,trial_right_image,-1,exp3.png,1,exp3.png,exp4.png,1,1,non-reversed,correct,0.11470944464805577,0,invalid_lose,468.7752192998305,44,,,,,,,,,,,,,,,,sub_853,2025-02-28_09h00.48.840,Reversal,2022.1.2,60.029198200708144,1,
8,exp1.png,exp2.png,,3,0,3,0,0,8,8,8,,,,,,,,,,,,,,,,,,,,,,,,,False,68,69,True,exp2.png,exp1.png,trial_right_image,-1,exp1.png,1,exp1.png,exp2.png,1,3,reversed,correct,0.639540096654449,1,valid_win,473.1584576005116,45,,,,,,,,,,,,,,,,sub_853,2025-02-28_09h00.48.840,Reversal,2022.1.2,60.029198200708144,1,
9,exp3.png,exp4.png,,3,0,3,0,0,9,9,9,,,,,,,,,,,,,,,,,,,,,,,,,False,69,70,False,exp3.png,exp4.png,trial_right_image,-1,exp4.png,1,exp3.png,exp4.png,0,2,non-reversed,incorrect,0.7981108636842406,0,valid_lose,478.0911584002897,45,,,,,,,,,,,,,,,,sub_853,2025-02-28_09h00.48.840,Reversal,2022.1.2,60.029198200708144,1,
10,exp1.png,exp2.png,,3,0,3,0,0,10,10,10,,,,,,,,,,,,,,,,,,,,,,,,,False,70,71,True,exp2.png,exp1.png,trial_right_image,-1,exp1.png,1,exp1.png,exp2.png,1,3,reversed,correct,0.3419230867185227,1,valid_win,482.3748433003202,46,,,,,,,,,,,,,,,,sub_853,2025-02-28_09h00.48.840,Reversal,2022.1.2,60.029198200708144,1,
11,exp3.png,exp4.png,,3,0,3,0,0,11,11,11,,,,,,,,,,,,,,,,,,,,,,,,,False,71,72,False,exp3.png,exp4.png,trial_right_image,-1,exp4.png,1,exp3.png,exp4.png,0,2,non-reversed,incorrect,0.10221928035020778,1,invalid_win,487.3416693005711,47,,,,,,,,,,,,,,,,sub_853,2025-02-28_09h00.48.840,Reversal,2022.1.2,60.029198200708144,1,
12,exp1.png,exp2.png,,3,0,3,0,0,12,12,12,,,,,,,,,,,,,,,,,,,,,,,,,False,72,73,True,exp2.png,exp1.png,trial_right_image,-1,exp1.png,1,exp1.png,exp2.png,1,3,reversed,correct,0.24743155931246885,0,invalid_lose,491.8412938006222,47,,,,,,,,,,,,,,,,sub_853,2025-02-28_09h00.48.840,Reversal,2022.1.2,60.029198200708144,1,
13,exp3.png,exp4.png,,3,0,3,0,0,13,13,13,,,,,,,,,,,,,,,,,,,,,,,,,False,73,74,True,exp4.png,exp3.png,trial_left_image,1,exp4.png,1,exp3.png,exp4.png,0,2,non-reversed,incorrect,0.9643341159960063,0,valid_lose,496.89068450033665,47,,,,,,,,,,,,,,,,sub_853,2025-02-28_09h00.48.840,Reversal,2022.1.2,60.029198200708144,1,
14,exp1.png,exp2.png,,3,0,3,0,0,14,14,14,,,,,,,,,,,,,,,,,,,,,,,,,False,74,75,False,exp1.png,exp2.png,trial_left_image,1,exp1.png,1,exp1.png,exp2.png,1,3,reversed,correct,0.9708882652772189,1,valid_win,501.7410907000303,48,,,,,,,,,,,,,,,,sub_853,2025-02-28_09h00.48.840,Reversal,2022.1.2,60.029198200708144,1,
15,exp3.png,exp4.png,,3,0,3,0,0,15,15,15,,,,,,,,,,,,,,,,,,,,,,,,,False,75,76,False,exp3.png,exp4.png,trial_right_image,-1,exp4.png,1,exp3.png,exp4.png,0,2,non-reversed,incorrect,0.45378395988973796,0,valid_lose,507.2246462004259,48,,,,,,,,,,,,,,,,sub_853,2025-02-28_09h00.48.840,Reversal,2022.1.2,60.029198200708144,1,
16,exp1.png,exp2.png,,3,0,3,0,0,16,16,16,,,,,,,,,,,,,,,,,,,,,,,,,False,76,77,False,exp1.png,exp2.png,trial_left_image,1,exp1.png,1,exp1.png,exp2.png,1,3,reversed,correct,0.5252822477040304,1,valid_win,511.99070220068097,49,,,,,,,,,,,,,,,,sub_853,2025-02-28_09h00.48.840,Reversal,2022.1.2,60.029198200708144,1,
17,exp3.png,exp4.png,,3,0,3,0,0,17,17,17,,,,,,,,,,,,,,,,,,,,,,,,,False,77,78,False,exp3.png,exp4.png,trial_right_image,-1,exp4.png,1,exp3.png,exp4.png,0,2,non-reversed,incorrect,0.39075867359502103,0,valid_lose,517.0907588005066,49,,,,,,,,,,,,,,,,sub_853,2025-02-28_09h00.48.840,Reversal,2022.1.2,60.029198200708144,1,
18,exp1.png,exp2.png,,3,0,3,0,0,18,18,18,,,,,,,,,,,,,,,,,,,,,,,,,False,78,79,True,exp2.png,exp1.png,trial_right_image,-1,exp1.png,1,exp1.png,exp2.png,1,3,reversed,correct,0.9846460232492381,1,valid_win,521.9240755001083,50,,,,,,,,,,,,,,,,sub_853,2025-02-28_09h00.48.840,Reversal,2022.1.2,60.029198200708144,1,
19,exp3.png,exp4.png,,3,0,3,0,0,19,19,19,,,,,,,,,,,,,,,,,,,,,,,,,False,79,80,False,exp3.png,exp4.png,trial_right_image,-1,exp4.png,1,exp3.png,exp4.png,0,2,non-reversed,incorrect,0.018860336946987966,1,invalid_win,532.9070501998067,51,,,,,,,,,,,,,,,,sub_853,2025-02-28_09h00.48.840,Reversal,2022.1.2,60.029198200708144,1,
20,exp1.png,exp2.png,,3,0,3,0,0,20,20,20,,,,,,,,,,,,,,,,,,,,,,,,,True,,,,,,,,,,,,,,,,,,,,,,,,,,,,,,,,,,,,sub_853,2025-02-28_09h00.48.840,Reversal,2022.1.2,60.029198200708144,1,
,,,exp1.png,3,0,3,0,,,,,0,0,0,0,0,0,0,0,,,,,,,,,,,,,,,,,,,,,,,,,,,,,,,,,,,,,,100.0,100.0,2.5958267003297806,"[(100.0, 2.5958267003297806)]",613.8479341994971,None,,,,,,,,,,sub_853,2025-02-28_09h00.48.840,Reversal,2022.1.2,60.029198200708144,1,
,,,exp2.png,3,0,3,0,,,,,0,0,0,0,0,1,1,1,,,,,,,,,,,,,,,,,,,,,,,,,,,,,,,,,,,,,,,1.0,2.4999581994488835,"[(1.0, 2.4999581994488835)]",617.4880627999082,None,1.0,,,,,,,,,sub_853,2025-02-28_09h00.48.840,Reversal,2022.1.2,60.029198200708144,1,
,,,exp3.png,3,0,3,0,,,,,0,0,0,0,0,2,2,2,,,,,,,,,,,,,,,,,,,,,,,,,,,,,,,,,,,,,,,3.0,1.7673047995194793,"[(3.0, 1.7673047995194793)]",621.0864364998415,None,,3.0,,,,,,,,sub_853,2025-02-28_09h00.48.840,Reversal,2022.1.2,60.029198200708144,1,
,,,exp4.png,3,0,3,0,,,,,0,0,0,0,0,3,3,3,,,,,,,,,,,,,,,,,,,,,,,,,,,,,,,,,,,,,,,5.0,2.3508935999125242,"[(5.0, 2.3508935999125242)]",623.9409283995628,None,,,5.0,,,,,,,sub_853,2025-02-28_09h00.48.840,Reversal,2022.1.2,60.029198200708144,1,
0,exp1.png,exp2.png,,,,,,,,,,,,,,,,,,0,0,0,0,0,0,0,0,,,,,,,,,False,0,81,False,exp1.png,exp2.png,trial_left_image,1,exp1.png,1,exp2.png,exp1.png,1,3,reversed,incorrect,0.18528440756432718,1,invalid_win,551.6901885000989,52,,,,,,,,,,548.9614260001108,,,,,,sub_853,2025-02-28_09h00.48.840,Reversal,2022.1.2,60.029198200708144,1,
1,exp3.png,exp4.png,,,,,,,,,,,,,,,,,,0,0,0,0,0,1,1,1,,,,,,,,,False,1,82,True,exp4.png,exp3.png,trial_right_image,-1,exp3.png,1,exp3.png,exp4.png,1,1,non-reversed,correct,0.5366394510046891,1,valid_win,557.6898582000285,53,,,,,,,,,,,,,,,,sub_853,2025-02-28_09h00.48.840,Reversal,2022.1.2,60.029198200708144,1,
2,exp1.png,exp2.png,,,,,,,,,,,,,,,,,,0,0,0,0,0,2,2,2,,,,,,,,,False,2,83,False,exp1.png,exp2.png,trial_left_image,1,exp1.png,1,exp2.png,exp1.png,1,3,reversed,incorrect,0.7251679943211903,0,valid_lose,562.7734454004094,53,,,,,,,,,,,,,,,,sub_853,2025-02-28_09h00.48.840,Reversal,2022.1.2,60.029198200708144,1,
3,exp3.png,exp4.png,,,,,,,,,,,,,,,,,,0,0,0,0,0,3,3,3,,,,,,,,,False,3,84,True,exp4.png,exp3.png,trial_left_image,1,exp4.png,1,exp3.png,exp4.png,0,2,non-reversed,incorrect,0.1518070043900388,1,invalid_win,567.7401795005426,54,,,,,,,,,,,,,,,,sub_853,2025-02-28_09h00.48.840,Reversal,2022.1.2,60.029198200708144,1,
4,exp1.png,exp2.png,,,,,,,,,,,,,,,,,,0,0,0,0,0,4,4,4,,,,,,,,,False,4,85,False,exp1.png,exp2.png,trial_left_image,1,exp1.png,1,exp2.png,exp1.png,1,3,reversed,incorrect,0.20417073549321207,1,invalid_win,572.4735369998962,55,,,,,,,,,,,,,,,,sub_853,2025-02-28_09h00.48.840,Reversal,2022.1.2,60.029198200708144,1,
5,exp3.png,exp4.png,,,,,,,,,,,,,,,,,,0,0,0,0,0,5,5,5,,,,,,,,,False,5,86,False,exp3.png,exp4.png,trial_left_image,1,exp3.png,1,exp3.png,exp4.png,1,1,non-reversed,correct,0.27726066996531085,1,valid_win,579.9896969003603,56,,,,,,,,,,,,,,,,sub_853,2025-02-28_09h00.48.840,Reversal,2022.1.2,60.029198200708144,1,
6,exp1.png,exp2.png,,,,,,,,,,,,,,,,,,0,0,0,0,0,6,6,6,,,,,,,,,False,6,87,True,exp2.png,exp1.png,trial_right_image,-1,exp1.png,1,exp2.png,exp1.png,1,3,reversed,incorrect,0.5518402018966099,0,valid_lose,584.9061531005427,56,,,,,,,,,,,,,,,,sub_853,2025-02-28_09h00.48.840,Reversal,2022.1.2,60.029198200708144,1,
7,exp3.png,exp4.png,,,,,,,,,,,,,,,,,,0,0,0,0,0,7,7,7,,,,,,,,,False,7,88,True,exp4.png,exp3.png,trial_right_image,-1,exp3.png,1,exp3.png,exp4.png,1,1,non-reversed,correct,0.3584690339285479,1,valid_win,589.7736137006432,57,,,,,,,,,,,,,,,,sub_853,2025-02-28_09h00.48.840,Reversal,2022.1.2,60.029198200708144,1,
8,exp1.png,exp2.png,,,,,,,,,,,,,,,,,,0,0,0,0,0,8,8,8,,,,,,,,,False,8,89,False,exp1.png,exp2.png,trial_left_image,1,exp1.png,1,exp2.png,exp1.png,1,3,reversed,incorrect,0.7526116101817178,0,valid_lose,594.8564207004383,57,,,,,,,,,,,,,,,,sub_853,2025-02-28_09h00.48.840,Reversal,2022.1.2,60.029198200708144,1,
9,exp3.png,exp4.png,,,,,,,,,,,,,,,,,,0,0,0,0,0,9,9,9,,,,,,,,,False,9,90,True,exp4.png,exp3.png,trial_left_image,1,exp4.png,1,exp3.png,exp4.png,0,2,non-reversed,incorrect,0.4643786423929346,0,valid_lose,600.0729745998979,57,,,,,,,,,,,,,,,,sub_853,2025-02-28_09h00.48.840,Reversal,2022.1.2,60.029198200708144,1,
10,exp1.png,exp2.png,,,,,,,,,,,,,,,,,,0,0,0,0,0,10,10,10,,,,,,,,,False,10,91,True,exp2.png,exp1.png,trial_right_image,-1,exp1.png,1,exp2.png,exp1.png,1,3,reversed,incorrect,0.7790762287033056,0,valid_lose,604.723047000356,57,,,,,,,,,,,,,,,,sub_853,2025-02-28_09h00.48.840,Reversal,2022.1.2,60.029198200708144,1,
11,exp3.png,exp4.png,,,,,,,,,,,,,,,,,,0,0,0,0,0,11,11,11,,,,,,,,,False,11,92,True,exp4.png,exp3.png,trial_right_image,-1,exp3.png,1,exp3.png,exp4.png,1,1,non-reversed,correct,0.47893858934974476,1,valid_win,609.4894428998232,58,,,,,,,,,,,,,,,,sub_853,2025-02-28_09h00.48.840,Reversal,2022.1.2,60.029198200708144,1,
12,exp1.png,exp2.png,,,,,,,,,,,,,,,,,,0,0,0,0,0,12,12,12,,,,,,,,,False,12,93,False,exp1.png,exp2.png,trial_left_image,1,exp1.png,1,exp2.png,exp1.png,1,3,reversed,incorrect,0.4887865322647629,0,valid_lose,614.3221660004929,58,,,,,,,,,,,,,,,,sub_853,2025-02-28_09h00.48.840,Reversal,2022.1.2,60.029198200708144,1,
13,exp3.png,exp4.png,,,,,,,,,,,,,,,,,,0,0,0,0,0,13,13,13,,,,,,,,,False,13,94,True,exp4.png,exp3.png,trial_right_image,-1,exp3.png,1,exp3.png,exp4.png,1,1,non-reversed,correct,0.9591914046336456,1,valid_win,620.9222911000252,59,,,,,,,,,,,,,,,,sub_853,2025-02-28_09h00.48.840,Reversal,2022.1.2,60.029198200708144,1,
14,exp1.png,exp2.png,,,,,,,,,,,,,,,,,,0,0,0,0,0,14,14,14,,,,,,,,,False,14,95,False,exp1.png,exp2.png,trial_left_image,1,exp1.png,1,exp2.png,exp1.png,1,3,reversed,incorrect,0.8372562560607034,0,valid_lose,626.6888006003574,59,,,,,,,,,,,,,,,,sub_853,2025-02-28_09h00.48.840,Reversal,2022.1.2,60.029198200708144,1,
15,exp3.png,exp4.png,,,,,,,,,,,,,,,,,,0,0,0,0,0,15,15,15,,,,,,,,,False,15,96,False,exp3.png,exp4.png,trial_right_image,-1,exp4.png,1,exp3.png,exp4.png,0,2,non-reversed,incorrect,0.21529455983604118,1,invalid_win,631.305718800053,60,,,,,,,,,,,,,,,,sub_853,2025-02-28_09h00.48.840,Reversal,2022.1.2,60.029198200708144,1,
16,exp1.png,exp2.png,,,,,,,,,,,,,,,,,,0,0,0,0,0,16,16,16,,,,,,,,,False,16,97,True,exp2.png,exp1.png,trial_right_image,-1,exp1.png,1,exp2.png,exp1.png,1,3,reversed,incorrect,0.4224904403753402,0,valid_lose,669.3045224007219,60,,,,,,,,,,,,,,,,sub_853,2025-02-28_09h00.48.840,Reversal,2022.1.2,60.029198200708144,1,
17,exp3.png,exp4.png,,,,,,,,,,,,,,,,,,0,0,0,0,0,17,17,17,,,,,,,,,False,17,98,True,exp4.png,exp3.png,trial_left_image,1,exp4.png,1,exp3.png,exp4.png,0,2,non-reversed,incorrect,0.5034574580419934,0,valid_lose,674.287924900651,60,,,,,,,,,,,,,,,,sub_853,2025-02-28_09h00.48.840,Reversal,2022.1.2,60.029198200708144,1,
18,exp1.png,exp2.png,,,,,,,,,,,,,,,,,,0,0,0,0,0,18,18,18,,,,,,,,,False,18,99,False,exp1.png,exp2.png,trial_right_image,-1,exp2.png,1,exp2.png,exp1.png,0,4,reversed,correct,0.034496037266314894,0,invalid_lose,678.4713157005608,60,,,,,,,,,,,,,,,,sub_853,2025-02-28_09h00.48.840,Reversal,2022.1.2,60.029198200708144,1,
19,exp3.png,exp4.png,,,,,,,,,,,,,,,,,,0,0,0,0,0,19,19,19,,,,,,,,,False,19,100,False,exp3.png,exp4.png,trial_left_image,1,exp3.png,1,exp3.png,exp4.png,1,1,non-reversed,correct,0.7970848013587842,1,valid_win,683.0709001999348,61,,,,,,,,,,,,,,,,sub_853,2025-02-28_09h00.48.840,Reversal,2022.1.2,60.029198200708144,1,
20,exp1.png,exp2.png,,,,,,,,,,,,,,,,,,0,0,0,0,0,20,20,20,,,,,,,,,True,,,,,,,,,,,,,,,,,,,,,,,,,,,,,,,,,,,,sub_853,2025-02-28_09h00.48.840,Reversal,2022.1.2,60.029198200708144,1,
,,,exp1.png,,,,,,,,,,,,,,,,,0,0,0,0,,,,,0,0,0,0,0,0,0,0,,,,,,,,,,,,,,,,,,,,,,97.0,97.0,1.6650930996984243,"[(97.0, 1.6650930996984243)]",764.0053824996576,None,,,,,,,,,,sub_853,2025-02-28_09h00.48.840,Reversal,2022.1.2,60.029198200708144,1,
,,,exp2.png,,,,,,,,,,,,,,,,,0,0,0,0,,,,,0,0,0,0,0,1,1,1,,,,,,,,,,,,,,,,,,,,,,,100.0,1.7666749991476536,"[(100.0, 1.7666749991476536)]",766.8572781998664,None,100.0,,,,,,,,,sub_853,2025-02-28_09h00.48.840,Reversal,2022.1.2,60.029198200708144,1,
,,,exp3.png,,,,,,,,,,,,,,,,,0,0,0,0,,,,,0,0,0,0,0,2,2,2,,,,,,,,,,,,,,,,,,,,,,,1.0,1.6339649995788932,"[(1.0, 1.6339649995788932)]",769.5673591997474,None,,1.0,,,,,,,,sub_853,2025-02-28_09h00.48.840,Reversal,2022.1.2,60.029198200708144,1,
,,,exp4.png,,,,,,,,,,,,,,,,,0,0,0,0,,,,,0,0,0,0,0,3,3,3,,,,,,,,,,,,,,,,,,,,,,,50.0,None,[],772.1516985995695,None,,,,,,,,,,sub_853,2025-02-28_09h00.48.840,Reversal,2022.1.2,60.029198200708144,1,
0,exp1.png,exp2.png,,,,,,,,,,,,,,,,,,1,0,1,0,0,0,0,0,,,,,,,,,False,20,101,True,exp2.png,exp1.png,trial_right_image,-1,exp1.png,1,exp2.png,exp1.png,1,3,reversed,incorrect,0.177046299229083,1,invalid_win,698.3546342998743,62,,,,,,,,,,,,,,,,sub_853,2025-02-28_09h00.48.840,Reversal,2022.1.2,60.029198200708144,1,
1,exp3.png,exp4.png,,,,,,,,,,,,,,,,,,1,0,1,0,0,1,1,1,,,,,,,,,False,21,102,False,exp3.png,exp4.png,trial_right_image,-1,exp4.png,1,exp3.png,exp4.png,0,2,non-reversed,incorrect,0.12007825327650334,1,invalid_win,703.2709948997945,63,,,,,,,,,,,,,,,,sub_853,2025-02-28_09h00.48.840,Reversal,2022.1.2,60.029198200708144,1,
2,exp1.png,exp2.png,,,,,,,,,,,,,,,,,,1,0,1,0,0,2,2,2,,,,,,,,,False,22,103,True,exp2.png,exp1.png,trial_right_image,-1,exp1.png,1,exp2.png,exp1.png,1,3,reversed,incorrect,0.22556619171927994,1,invalid_win,708.4539902005345,64,,,,,,,,,,,,,,,,sub_853,2025-02-28_09h00.48.840,Reversal,2022.1.2,60.029198200708144,1,
3,exp3.png,exp4.png,,,,,,,,,,,,,,,,,,1,0,1,0,0,3,3,3,,,,,,,,,False,23,104,True,exp4.png,exp3.png,trial_left_image,1,exp4.png,1,exp3.png,exp4.png,0,2,non-reversed,incorrect,0.8309184236496177,0,valid_lose,713.2538144998252,64,,,,,,,,,,,,,,,,sub_853,2025-02-28_09h00.48.840,Reversal,2022.1.2,60.029198200708144,1,
4,exp1.png,exp2.png,,,,,,,,,,,,,,,,,,1,0,1,0,0,4,4,4,,,,,,,,,False,24,105,False,exp1.png,exp2.png,trial_left_image,1,exp1.png,1,exp2.png,exp1.png,1,3,reversed,incorrect,0.3458735042034059,0,valid_lose,717.9537920001894,64,,,,,,,,,,,,,,,,sub_853,2025-02-28_09h00.48.840,Reversal,2022.1.2,60.029198200708144,1,
5,exp3.png,exp4.png,,,,,,,,,,,,,,,,,,1,0,1,0,0,5,5,5,,,,,,,,,False,25,106,False,exp3.png,exp4.png,trial_right_image,-1,exp4.png,1,exp3.png,exp4.png,0,2,non-reversed,incorrect,0.20463099236963156,1,invalid_win,722.5216963998973,65,,,,,,,,,,,,,,,,sub_853,2025-02-28_09h00.48.840,Reversal,2022.1.2,60.029198200708144,1,
6,exp1.png,exp2.png,,,,,,,,,,,,,,,,,,1,0,1,0,0,6,6,6,,,,,,,,,False,26,107,True,exp2.png,exp1.png,trial_right_image,-1,exp1.png,1,exp2.png,exp1.png,1,3,reversed,incorrect,0.8771444496937756,0,valid_lose,727.9867547005415,65,,,,,,,,,,,,,,,,sub_853,2025-02-28_09h00.48.840,Reversal,2022.1.2,60.029198200708144,1,
7,exp3.png,exp4.png,,,,,,,,,,,,,,,,,,1,0,1,0,0,7,7,7,,,,,,,,,False,27,108,False,exp3.png,exp4.png,trial_right_image,-1,exp4.png,1,exp3.png,exp4.png,0,2,non-reversed,incorrect,0.5511169405318381,0,valid_lose,732.4198185000569,65,,,,,,,,,,,,,,,,sub_853,2025-02-28_09h00.48.840,Reversal,2022.1.2,60.029198200708144,1,
8,exp1.png,exp2.png,,,,,,,,,,,,,,,,,,1,0,1,0,0,8,8,8,,,,,,,,,False,28,109,True,exp2.png,exp1.png,trial_right_image,-1,exp1.png,1,exp2.png,exp1.png,1,3,reversed,incorrect,0.30733068523025997,0,valid_lose,736.9873435003683,65,,,,,,,,,,,,,,,,sub_853,2025-02-28_09h00.48.840,Reversal,2022.1.2,60.029198200708144,1,
9,exp3.png,exp4.png,,,,,,,,,,,,,,,,,,1,0,1,0,0,9,9,9,,,,,,,,,False,29,110,False,exp3.png,exp4.png,trial_left_image,1,exp3.png,1,exp3.png,exp4.png,1,1,non-reversed,correct,0.9696496080265542,1,valid_win,741.9539261003956,66,,,,,,,,,,,,,,,,sub_853,2025-02-28_09h00.48.840,Reversal,2022.1.2,60.029198200708144,1,
10,exp1.png,exp2.png,,,,,,,,,,,,,,,,,,1,0,1,0,0,10,10,10,,,,,,,,,False,30,111,False,exp1.png,exp2.png,trial_left_image,1,exp1.png,1,exp2.png,exp1.png,1,3,reversed,incorrect,0.5970829917759554,0,valid_lose,746.7376506999135,66,,,,,,,,,,,,,,,,sub_853,2025-02-28_09h00.48.840,Reversal,2022.1.2,60.029198200708144,1,
11,exp3.png,exp4.png,,,,,,,,,,,,,,,,,,1,0,1,0,0,11,11,11,,,,,,,,,False,31,112,False,exp3.png,exp4.png,trial_right_image,-1,exp4.png,1,exp3.png,exp4.png,0,2,non-reversed,incorrect,0.04389734009782842,1,invalid_win,752.2542732004076,67,,,,,,,,,,,,,,,,sub_853,2025-02-28_09h00.48.840,Reversal,2022.1.2,60.029198200708144,1,
12,exp1.png,exp2.png,,,,,,,,,,,,,,,,,,1,0,1,0,0,12,12,12,,,,,,,,,False,32,113,False,exp1.png,exp2.png,trial_right_image,-1,exp2.png,1,exp2.png,exp1.png,0,4,reversed,correct,0.9136713980579285,1,valid_win,756.953695400618,68,,,,,,,,,,,,,,,,sub_853,2025-02-28_09h00.48.840,Reversal,2022.1.2,60.029198200708144,1,
13,exp3.png,exp4.png,,,,,,,,,,,,,,,,,,1,0,1,0,0,13,13,13,,,,,,,,,False,33,114,True,exp4.png,exp3.png,trial_right_image,-1,exp3.png,1,exp3.png,exp4.png,1,1,non-reversed,correct,0.22359839207160714,0,invalid_lose,761.1863548001274,68,,,,,,,,,,,,,,,,sub_853,2025-02-28_09h00.48.840,Reversal,2022.1.2,60.029198200708144,1,
14,exp1.png,exp2.png,,,,,,,,,,,,,,,,,,1,0,1,0,0,14,14,14,,,,,,,,,False,34,115,True,exp2.png,exp1.png,trial_right_image,-1,exp1.png,1,exp2.png,exp1.png,1,3,reversed,incorrect,0.40660375210091904,0,valid_lose,765.6699638003483,68,,,,,,,,,,,,,,,,sub_853,2025-02-28_09h00.48.840,Reversal,2022.1.2,60.029198200708144,1,
15,exp3.png,exp4.png,,,,,,,,,,,,,,,,,,1,0,1,0,0,15,15,15,,,,,,,,,False,35,116,False,exp3.png,exp4.png,trial_left_image,1,exp3.png,1,exp3.png,exp4.png,1,1,non-reversed,correct,0.8001592967656821,1,valid_win,771.786394700408,69,,,,,,,,,,,,,,,,sub_853,2025-02-28_09h00.48.840,Reversal,2022.1.2,60.029198200708144,1,
16,exp1.png,exp2.png,,,,,,,,,,,,,,,,,,1,0,1,0,0,16,16,16,,,,,,,,,False,36,117,True,exp2.png,exp1.png,trial_right_image,-1,exp1.png,1,exp2.png,exp1.png,1,3,reversed,incorrect,0.6524016197716412,0,valid_lose,776.5696060005575,69,,,,,,,,,,,,,,,,sub_853,2025-02-28_09h00.48.840,Reversal,2022.1.2,60.029198200708144,1,
17,exp3.png,exp4.png,,,,,,,,,,,,,,,,,,1,0,1,0,0,17,17,17,,,,,,,,,False,37,118,False,exp3.png,exp4.png,trial_right_image,-1,exp4.png,1,exp3.png,exp4.png,0,2,non-reversed,incorrect,0.5357422986850826,0,valid_lose,780.8525520004332,69,,,,,,,,,,,,,,,,sub_853,2025-02-28_09h00.48.840,Reversal,2022.1.2,60.029198200708144,1,
18,exp1.png,exp2.png,,,,,,,,,,,,,,,,,,1,0,1,0,0,18,18,18,,,,,,,,,False,38,119,True,exp2.png,exp1.png,trial_right_image,-1,exp1.png,1,exp2.png,exp1.png,1,3,reversed,incorrect,0.1751845809511996,1,invalid_win,784.885948500596,70,,,,,,,,,,,,,,,,sub_853,2025-02-28_09h00.48.840,Reversal,2022.1.2,60.029198200708144,1,
19,exp3.png,exp4.png,,,,,,,,,,,,,,,,,,1,0,1,0,0,19,19,19,,,,,,,,,False,39,120,True,exp4.png,exp3.png,trial_right_image,-1,exp3.png,1,exp3.png,exp4.png,1,1,non-reversed,correct,0.5348394378757987,1,valid_win,789.1186863007024,71,,,,,,,,,,,,,,,,sub_853,2025-02-28_09h00.48.840,Reversal,2022.1.2,60.029198200708144,1,
20,exp1.png,exp2.png,,,,,,,,,,,,,,,,,,1,0,1,0,0,20,20,20,,,,,,,,,True,,,,,,,,,,,,,,,,,,,,,,,,,,,,,,,,,,,,sub_853,2025-02-28_09h00.48.840,Reversal,2022.1.2,60.029198200708144,1,
,,,exp1.png,,,,,,,,,,,,,,,,,1,0,1,0,,,,,0,0,0,0,0,0,0,0,,,,,,,,,,,,,,,,,,,,,,100.0,100.0,1.9992325995117426,"[(100.0, 1.9992325995117426)]",870.0369778992608,None,,,,,,,,,,sub_853,2025-02-28_09h00.48.840,Reversal,2022.1.2,60.029198200708144,1,
,,,exp2.png,,,,,,,,,,,,,,,,,1,0,1,0,,,,,0,0,0,0,0,1,1,1,,,,,,,,,,,,,,,,,,,,,,,100.0,1.8333044992759824,"[(100.0, 1.8333044992759824)]",873.0992609998211,None,100.0,,,,,,,,,sub_853,2025-02-28_09h00.48.840,Reversal,2022.1.2,60.029198200708144,1,
,,,exp3.png,,,,,,,,,,,,,,,,,1,0,1,0,,,,,0,0,0,0,0,2,2,2,,,,,,,,,,,,,,,,,,,,,,,1.0,1.5178558994084597,"[(1.0, 1.5178558994084597)]",875.9314232999459,None,,1.0,,,,,,,,sub_853,2025-02-28_09h00.48.840,Reversal,2022.1.2,60.029198200708144,1,
,,,exp4.png,,,,,,,,,,,,,,,,,1,0,1,0,,,,,0,0,0,0,0,3,3,3,,,,,,,,,,,,,,,,,,,,,,,3.0,1.964223500341177,"[(3.0, 1.964223500341177)]",878.4357688995078,None,,,3.0,,,,,,,sub_853,2025-02-28_09h00.48.840,Reversal,2022.1.2,60.029198200708144,1,
0,exp1.png,exp2.png,,,,,,,,,,,,,,,,,,2,0,2,0,0,0,0,0,,,,,,,,,False,40,121,False,exp1.png,exp2.png,trial_right_image,-1,exp2.png,1,exp2.png,exp1.png,0,4,reversed,correct,0.527051117753957,1,valid_win,805.7024726001546,72,,,,,,,,,,,,,,,,sub_853,2025-02-28_09h00.48.840,Reversal,2022.1.2,60.029198200708144,1,
1,exp3.png,exp4.png,,,,,,,,,,,,,,,,,,2,0,2,0,0,1,1,1,,,,,,,,,False,41,122,False,exp3.png,exp4.png,trial_right_image,-1,exp4.png,1,exp3.png,exp4.png,0,2,non-reversed,incorrect,0.3661829585177092,0,valid_lose,809.7352964002639,72,,,,,,,,,,,,,,,,sub_853,2025-02-28_09h00.48.840,Reversal,2022.1.2,60.029198200708144,1,
2,exp1.png,exp2.png,,,,,,,,,,,,,,,,,,2,0,2,0,0,2,2,2,,,,,,,,,False,42,123,False,exp1.png,exp2.png,trial_right_image,-1,exp2.png,1,exp2.png,exp1.png,0,4,reversed,correct,0.5003115460645357,1,valid_win,814.1184542998672,73,,,,,,,,,,,,,,,,sub_853,2025-02-28_09h00.48.840,Reversal,2022.1.2,60.029198200708144,1,
3,exp3.png,exp4.png,,,,,,,,,,,,,,,,,,2,0,2,0,0,3,3,3,,,,,,,,,False,43,124,False,exp3.png,exp4.png,trial_right_image,-1,exp4.png,1,exp3.png,exp4.png,0,2,non-reversed,incorrect,0.3105531055292817,0,valid_lose,818.2853434002027,73,,,,,,,,,,,,,,,,sub_853,2025-02-28_09h00.48.840,Reversal,2022.1.2,60.029198200708144,1,
4,exp1.png,exp2.png,,,,,,,,,,,,,,,,,,2,0,2,0,0,4,4,4,,,,,,,,,False,44,125,False,exp1.png,exp2.png,trial_right_image,-1,exp2.png,1,exp2.png,exp1.png,0,4,reversed,correct,0.8582220686721467,1,valid_win,822.185171100311,74,,,,,,,,,,,,,,,,sub_853,2025-02-28_09h00.48.840,Reversal,2022.1.2,60.029198200708144,1,
5,exp3.png,exp4.png,,,,,,,,,,,,,,,,,,2,0,2,0,0,5,5,5,,,,,,,,,False,45,126,True,exp4.png,exp3.png,trial_right_image,-1,exp3.png,1,exp3.png,exp4.png,1,1,non-reversed,correct,0.9592664130861883,1,valid_win,826.052007900551,75,,,,,,,,,,,,,,,,sub_853,2025-02-28_09h00.48.840,Reversal,2022.1.2,60.029198200708144,1,
6,exp1.png,exp2.png,,,,,,,,,,,,,,,,,,2,0,2,0,0,6,6,6,,,,,,,,,False,46,127,False,exp1.png,exp2.png,trial_right_image,-1,exp2.png,1,exp2.png,exp1.png,0,4,reversed,correct,0.10575600723960066,0,invalid_lose,829.951845000498,75,,,,,,,,,,,,,,,,sub_853,2025-02-28_09h00.48.840,Reversal,2022.1.2,60.029198200708144,1,
7,exp3.png,exp4.png,,,,,,,,,,,,,,,,,,2,0,2,0,0,7,7,7,,,,,,,,,False,47,128,True,exp4.png,exp3.png,trial_right_image,-1,exp3.png,1,exp3.png,exp4.png,1,1,non-reversed,correct,0.3512218423884029,1,valid_win,833.9851620998234,76,,,,,,,,,,,,,,,,sub_853,2025-02-28_09h00.48.840,Reversal,2022.1.2,60.029198200708144,1,
8,exp1.png,exp2.png,,,,,,,,,,,,,,,,,,2,0,2,0,0,8,8,8,,,,,,,,,False,48,129,True,exp2.png,exp1.png,trial_right_image,-1,exp1.png,1,exp2.png,exp1.png,1,3,reversed,incorrect,0.3626342053487108,0,valid_lose,837.9518779003993,76,,,,,,,,,,,,,,,,sub_853,2025-02-28_09h00.48.840,Reversal,2022.1.2,60.029198200708144,1,
9,exp3.png,exp4.png,,,,,,,,,,,,,,,,,,2,0,2,0,0,9,9,9,,,,,,,,,False,49,130,False,exp3.png,exp4.png,trial_right_image,-1,exp4.png,1,exp3.png,exp4.png,0,2,non-reversed,incorrect,0.44147036275378615,0,valid_lose,841.8850727006793,76,,,,,,,,,,,,,,,,sub_853,2025-02-28_09h00.48.840,Reversal,2022.1.2,60.029198200708144,1,
10,exp1.png,exp2.png,,,,,,,,,,,,,,,,,,2,0,2,0,0,10,10,10,,,,,,,,,False,50,131,True,exp2.png,exp1.png,trial_right_image,-1,exp1.png,1,exp2.png,exp1.png,1,3,reversed,incorrect,0.540641386895282,0,valid_lose,845.9013004004955,76,,,,,,,,,,,,,,,,sub_853,2025-02-28_09h00.48.840,Reversal,2022.1.2,60.029198200708144,1,
11,exp3.png,exp4.png,,,,,,,,,,,,,,,,,,2,0,2,0,0,11,11,11,,,,,,,,,False,51,132,False,exp3.png,exp4.png,trial_right_image,-1,exp4.png,1,exp3.png,exp4.png,0,2,non-reversed,incorrect,0.08279268220718405,1,invalid_win,849.5351603999734,77,,,,,,,,,,,,,,,,sub_853,2025-02-28_09h00.48.840,Reversal,2022.1.2,60.029198200708144,1,
12,exp1.png,exp2.png,,,,,,,,,,,,,,,,,,2,0,2,0,0,12,12,12,,,,,,,,,False,52,133,False,exp1.png,exp2.png,trial_right_image,-1,exp2.png,1,exp2.png,exp1.png,0,4,reversed,correct,0.33159184455691193,1,valid_win,853.4680877998471,78,,,,,,,,,,,,,,,,sub_853,2025-02-28_09h00.48.840,Reversal,2022.1.2,60.029198200708144,1,
13,exp3.png,exp4.png,,,,,,,,,,,,,,,,,,2,0,2,0,0,13,13,13,,,,,,,,,False,53,134,True,exp4.png,exp3.png,trial_right_image,-1,exp3.png,1,exp3.png,exp4.png,1,1,non-reversed,correct,0.19910098259718834,0,invalid_lose,857.5350141003728,78,,,,,,,,,,,,,,,,sub_853,2025-02-28_09h00.48.840,Reversal,2022.1.2,60.029198200708144,1,
14,exp1.png,exp2.png,,,,,,,,,,,,,,,,,,2,0,2,0,0,14,14,14,,,,,,,,,False,54,135,True,exp2.png,exp1.png,trial_right_image,-1,exp1.png,1,exp2.png,exp1.png,1,3,reversed,incorrect,0.4674143873514943,0,valid_lose,861.5181229999289,78,,,,,,,,,,,,,,,,sub_853,2025-02-28_09h00.48.840,Reversal,2022.1.2,60.029198200708144,1,
15,exp3.png,exp4.png,,,,,,,,,,,,,,,,,,2,0,2,0,0,15,15,15,,,,,,,,,False,55,136,True,exp4.png,exp3.png,trial_right_image,-1,exp3.png,1,exp3.png,exp4.png,1,1,non-reversed,correct,0.40946979261420946,1,valid_win,865.6011287998408,79,,,,,,,,,,,,,,,,sub_853,2025-02-28_09h00.48.840,Reversal,2022.1.2,60.029198200708144,1,
16,exp1.png,exp2.png,,,,,,,,,,,,,,,,,,2,0,2,0,0,16,16,16,,,,,,,,,False,56,137,True,exp2.png,exp1.png,trial_right_image,-1,exp1.png,1,exp2.png,exp1.png,1,3,reversed,incorrect,0.0014037654486495077,1,invalid_win,869.7007936006412,80,,,,,,,,,,,,,,,,sub_853,2025-02-28_09h00.48.840,Reversal,2022.1.2,60.029198200708144,1,
17,exp3.png,exp4.png,,,,,,,,,,,,,,,,,,2,0,2,0,0,17,17,17,,,,,,,,,False,57,138,True,exp4.png,exp3.png,trial_right_image,-1,exp3.png,1,exp3.png,exp4.png,1,1,non-reversed,correct,0.2901407990142062,1,valid_win,873.850840699859,81,,,,,,,,,,,,,,,,sub_853,2025-02-28_09h00.48.840,Reversal,2022.1.2,60.029198200708144,1,
18,exp1.png,exp2.png,,,,,,,,,,,,,,,,,,2,0,2,0,0,18,18,18,,,,,,,,,False,58,139,True,exp2.png,exp1.png,trial_right_image,-1,exp1.png,1,exp2.png,exp1.png,1,3,reversed,incorrect,0.5441987425245411,0,valid_lose,877.8174640005454,81,,,,,,,,,,,,,,,,sub_853,2025-02-28_09h00.48.840,Reversal,2022.1.2,60.029198200708144,1,
19,exp3.png,exp4.png,,,,,,,,,,,,,,,,,,2,0,2,0,0,19,19,19,,,,,,,,,False,59,140,False,exp3.png,exp4.png,trial_left_image,1,exp3.png,1,exp3.png,exp4.png,1,1,non-reversed,correct,0.674517055547304,1,valid_win,882.7677688002586,82,,,,,,,,,,,,,,,,sub_853,2025-02-28_09h00.48.840,Reversal,2022.1.2,60.029198200708144,1,
20,exp1.png,exp2.png,,,,,,,,,,,,,,,,,,2,0,2,0,0,20,20,20,,,,,,,,,True,,,,,,,,,,,,,,,,,,,,,,,,,,,,,,,,,,,,sub_853,2025-02-28_09h00.48.840,Reversal,2022.1.2,60.029198200708144,1,
,,,exp1.png,,,,,,,,,,,,,,,,,2,0,2,0,,,,,0,0,0,0,0,0,0,0,,,,,,,,,,,,,,,,,,,,,,98.0,98.0,1.6197528997436166,"[(98.0, 1.6197528997436166)]",963.6981445997953,None,,,,,,,,,,sub_853,2025-02-28_09h00.48.840,Reversal,2022.1.2,60.029198200708144,1,
,,,exp2.png,,,,,,,,,,,,,,,,,2,0,2,0,,,,,0,0,0,0,0,1,1,1,,,,,,,,,,,,,,,,,,,,,,,98.0,1.4498820006847382,"[(98.0, 1.4498820006847382)]",966.464422499761,None,98.0,,,,,,,,,sub_853,2025-02-28_09h00.48.840,Reversal,2022.1.2,60.029198200708144,1,
,,,exp3.png,,,,,,,,,,,,,,,,,2,0,2,0,,,,,0,0,0,0,0,2,2,2,,,,,,,,,,,,,,,,,,,,,,,97.0,1.168190000578761,"[(97.0, 1.168190000578761)]",968.9802715992555,None,,97.0,,,,,,,,sub_853,2025-02-28_09h00.48.840,Reversal,2022.1.2,60.029198200708144,1,
,,,exp4.png,,,,,,,,,,,,,,,,,2,0,2,0,,,,,0,0,0,0,0,3,3,3,,,,,,,,,,,,,,,,,,,,,,,99.0,1.1671604998409748,"[(99.0, 1.1671604998409748)]",971.1651395997033,None,,,99.0,,,,,,,sub_853,2025-02-28_09h00.48.840,Reversal,2022.1.2,60.029198200708144,1,
,,,,,,,,,,,,,,,,,,,,,,,,,,,,,,,,,,,,,,,,,,,,,,,,,,,,,,,,82,,,,,,,,,,,78,55,23,345.9070517998189,1,,,,,,,
