trial_index,trial_image1_file,trial_image2_file,image_file,learning_outer_loop.thisRepN,learning_outer_loop.thisTrialN,learning_outer_loop.thisN,learning_outer_loop.thisIndex,learning_inner_loop.thisRepN,learning_inner_loop.thisTrialN,learning_inner_loop.thisN,learning_inner_loop.thisIndex,learning_estimation_outer_loop.thisRepN,learning_estimation_outer_loop.thisTrialN,learning_estimation_outer_loop.thisN,learning_estimation_outer_loop.thisIndex,learning_estimation_inner_loop.thisRepN,learning_estimation_inner_loop.thisTrialN,learning_estimation_inner_loop.thisN,learning_estimation_inner_loop.thisIndex,reversal_outer_loop.thisRepN,reversal_outer_loop.thisTrialN,reversal_outer_loop.thisN,reversal_outer_loop.thisIndex,reversal_inner_loop.thisRepN,reversal_inner_loop.thisTrialN,reversal_inner_loop.thisN,reversal_inner_loop.thisIndex,reversal_estimation_outer_loop.thisRepN,reversal_estimation_outer_loop.thisTrialN,reversal_estimation_outer_loop.thisN,reversal_estimation_outer_loop.thisIndex,reversal_estimation_inner_loop.thisRepN,reversal_estimation_inner_loop.thisTrialN,reversal_estimation_inner_loop.thisN,reversal_estimation_inner_loop.thisIndex,skipped,total_trial_counter,trial_num,left_right_flip,left_image_file,right_image_file,clicked_stimulus_side,side,clicked_stimulus,version,high_prob_image_file,low_prob_image_file,choice_a,choice_b,pair_type,correct,trial_feedback_random,reward,trial_type,overall_time_after_trial,score,estimation_rating.response,estimation_rating.rt,estimation_rating.history,estimation_rating.started,estimation_rating.stopped,estimation_exp1.png,estimation_exp2.png,estimation_exp3.png,estimation_exp4.png,total_learning_time,total_correct,learning_correct,reversal_correct,total_reversal_time,extra_block,participant,date,expName,psychopyVersion,frameRate,ver,
0,exp1.png,exp2.png,,0,0,0,0,0,0,0,0,,,,,,,,,,,,,,,,,,,,,,,,,True,,,,,,,,,,,,,,,,,,,,,,,,,,,,,,,,,,,,sub_083,2023-01-09_18h28.02.935,Reversal,2022.1.1,60.267249089680654,3,
1,exp3.png,exp4.png,,0,0,0,0,0,1,1,1,,,,,,,,,,,,,,,,,,,,,,,,,False,0,1,True,exp4.png,exp3.png,trial_left_image,1,exp4.png,3,exp4.png,exp3.png,1,1,non-reversed,correct,0.22904747069668363,0,invalid_lose,13.047777500003576,0,,,,,,,,,,,,,,,,sub_083,2023-01-09_18h28.02.935,Reversal,2022.1.1,60.267249089680654,3,
2,exp1.png,exp2.png,,0,0,0,0,0,2,2,2,,,,,,,,,,,,,,,,,,,,,,,,,False,1,2,False,exp1.png,exp2.png,trial_right_image,-1,exp2.png,3,exp2.png,exp1.png,1,3,reversed,correct,0.22020500883579264,0,invalid_lose,28.293386500008637,0,,,,,,,,,,,,,,,,sub_083,2023-01-09_18h28.02.935,Reversal,2022.1.1,60.267249089680654,3,
3,exp3.png,exp4.png,,0,0,0,0,0,3,3,3,,,,,,,,,,,,,,,,,,,,,,,,,False,2,3,True,exp4.png,exp3.png,trial_left_image,1,exp4.png,3,exp4.png,exp3.png,1,1,non-reversed,correct,0.9852204188876975,1,valid_win,35.49463440000545,1,,,,,,,,,,,,,,,,sub_083,2023-01-09_18h28.02.935,Reversal,2022.1.1,60.267249089680654,3,
4,exp1.png,exp2.png,,0,0,0,0,0,4,4,4,,,,,,,,,,,,,,,,,,,,,,,,,False,3,4,True,exp2.png,exp1.png,trial_right_image,-1,exp1.png,3,exp2.png,exp1.png,0,4,reversed,incorrect,0.9292552632516154,0,valid_lose,44.275356900005136,1,,,,,,,,,,,,,,,,sub_083,2023-01-09_18h28.02.935,Reversal,2022.1.1,60.267249089680654,3,
5,exp3.png,exp4.png,,0,0,0,0,0,5,5,5,,,,,,,,,,,,,,,,,,,,,,,,,False,4,5,False,exp3.png,exp4.png,trial_right_image,-1,exp4.png,3,exp4.png,exp3.png,1,1,non-reversed,correct,0.8755981946216822,1,valid_win,50.95781920000445,2,,,,,,,,,,,,,,,,sub_083,2023-01-09_18h28.02.935,Reversal,2022.1.1,60.267249089680654,3,
6,exp1.png,exp2.png,,0,0,0,0,0,6,6,6,,,,,,,,,,,,,,,,,,,,,,,,,False,5,6,True,exp2.png,exp1.png,trial_left_image,1,exp2.png,3,exp2.png,exp1.png,1,3,reversed,correct,0.4653616882814938,1,valid_win,61.47386800000095,3,,,,,,,,,,,,,,,,sub_083,2023-01-09_18h28.02.935,Reversal,2022.1.1,60.267249089680654,3,
7,exp3.png,exp4.png,,0,0,0,0,0,7,7,7,,,,,,,,,,,,,,,,,,,,,,,,,False,6,7,False,exp3.png,exp4.png,trial_right_image,-1,exp4.png,3,exp4.png,exp3.png,1,1,non-reversed,correct,0.3123068309891027,1,valid_win,69.38911669999652,4,,,,,,,,,,,,,,,,sub_083,2023-01-09_18h28.02.935,Reversal,2022.1.1,60.267249089680654,3,
8,exp1.png,exp2.png,,0,0,0,0,0,8,8,8,,,,,,,,,,,,,,,,,,,,,,,,,False,7,8,True,exp2.png,exp1.png,trial_left_image,1,exp2.png,3,exp2.png,exp1.png,1,3,reversed,correct,0.8423980717782181,1,valid_win,76.72116879999521,5,,,,,,,,,,,,,,,,sub_083,2023-01-09_18h28.02.935,Reversal,2022.1.1,60.267249089680654,3,
9,exp3.png,exp4.png,,0,0,0,0,0,9,9,9,,,,,,,,,,,,,,,,,,,,,,,,,False,8,9,True,exp4.png,exp3.png,trial_left_image,1,exp4.png,3,exp4.png,exp3.png,1,1,non-reversed,correct,0.7712362836931296,1,valid_win,81.25531340000452,6,,,,,,,,,,,,,,,,sub_083,2023-01-09_18h28.02.935,Reversal,2022.1.1,60.267249089680654,3,
10,exp1.png,exp2.png,,0,0,0,0,0,10,10,10,,,,,,,,,,,,,,,,,,,,,,,,,False,9,10,False,exp1.png,exp2.png,trial_right_image,-1,exp2.png,3,exp2.png,exp1.png,1,3,reversed,correct,0.6027020570053455,1,valid_win,85.65458669999498,7,,,,,,,,,,,,,,,,sub_083,2023-01-09_18h28.02.935,Reversal,2022.1.1,60.267249089680654,3,
11,exp3.png,exp4.png,,0,0,0,0,0,11,11,11,,,,,,,,,,,,,,,,,,,,,,,,,False,10,11,False,exp3.png,exp4.png,trial_right_image,-1,exp4.png,3,exp4.png,exp3.png,1,1,non-reversed,correct,0.6441973525156873,1,valid_win,89.98685480000859,8,,,,,,,,,,,,,,,,sub_083,2023-01-09_18h28.02.935,Reversal,2022.1.1,60.267249089680654,3,
12,exp1.png,exp2.png,,0,0,0,0,0,12,12,12,,,,,,,,,,,,,,,,,,,,,,,,,False,11,12,True,exp2.png,exp1.png,trial_left_image,1,exp2.png,3,exp2.png,exp1.png,1,3,reversed,correct,0.13909643587069953,0,invalid_lose,94.18774960000883,8,,,,,,,,,,,,,,,,sub_083,2023-01-09_18h28.02.935,Reversal,2022.1.1,60.267249089680654,3,
13,exp3.png,exp4.png,,0,0,0,0,0,13,13,13,,,,,,,,,,,,,,,,,,,,,,,,,False,12,13,False,exp3.png,exp4.png,trial_right_image,-1,exp4.png,3,exp4.png,exp3.png,1,1,non-reversed,correct,0.5753974697767401,1,valid_win,101.96893109999655,9,,,,,,,,,,,,,,,,sub_083,2023-01-09_18h28.02.935,Reversal,2022.1.1,60.267249089680654,3,
14,exp1.png,exp2.png,,0,0,0,0,0,14,14,14,,,,,,,,,,,,,,,,,,,,,,,,,False,13,14,True,exp2.png,exp1.png,trial_right_image,-1,exp1.png,3,exp2.png,exp1.png,0,4,reversed,incorrect,0.5363745601112343,0,valid_lose,107.5675559000083,9,,,,,,,,,,,,,,,,sub_083,2023-01-09_18h28.02.935,Reversal,2022.1.1,60.267249089680654,3,
15,exp3.png,exp4.png,,0,0,0,0,0,15,15,15,,,,,,,,,,,,,,,,,,,,,,,,,False,14,15,False,exp3.png,exp4.png,trial_right_image,-1,exp4.png,3,exp4.png,exp3.png,1,1,non-reversed,correct,0.4462847172639731,1,valid_win,112.53400759999931,10,,,,,,,,,,,,,,,,sub_083,2023-01-09_18h28.02.935,Reversal,2022.1.1,60.267249089680654,3,
16,exp1.png,exp2.png,,0,0,0,0,0,16,16,16,,,,,,,,,,,,,,,,,,,,,,,,,False,15,16,False,exp1.png,exp2.png,trial_right_image,-1,exp2.png,3,exp2.png,exp1.png,1,3,reversed,correct,0.6583065084959756,1,valid_win,116.69911660000798,11,,,,,,,,,,,,,,,,sub_083,2023-01-09_18h28.02.935,Reversal,2022.1.1,60.267249089680654,3,
17,exp3.png,exp4.png,,0,0,0,0,0,17,17,17,,,,,,,,,,,,,,,,,,,,,,,,,False,16,17,False,exp3.png,exp4.png,trial_right_image,-1,exp4.png,3,exp4.png,exp3.png,1,1,non-reversed,correct,0.2927426214417117,1,valid_win,122.81534319999628,12,,,,,,,,,,,,,,,,sub_083,2023-01-09_18h28.02.935,Reversal,2022.1.1,60.267249089680654,3,
18,exp1.png,exp2.png,,0,0,0,0,0,18,18,18,,,,,,,,,,,,,,,,,,,,,,,,,False,17,18,True,exp2.png,exp1.png,trial_left_image,1,exp2.png,3,exp2.png,exp1.png,1,3,reversed,correct,0.1756272615812492,0,invalid_lose,127.76483060000464,12,,,,,,,,,,,,,,,,sub_083,2023-01-09_18h28.02.935,Reversal,2022.1.1,60.267249089680654,3,
19,exp3.png,exp4.png,,0,0,0,0,0,19,19,19,,,,,,,,,,,,,,,,,,,,,,,,,False,18,19,True,exp4.png,exp3.png,trial_left_image,1,exp4.png,3,exp4.png,exp3.png,1,1,non-reversed,correct,0.6584924785845577,1,valid_win,132.8987819000031,13,,,,,,,,,,,,,,,,sub_083,2023-01-09_18h28.02.935,Reversal,2022.1.1,60.267249089680654,3,
20,exp1.png,exp2.png,,0,0,0,0,0,20,20,20,,,,,,,,,,,,,,,,,,,,,,,,,False,19,20,False,exp1.png,exp2.png,trial_right_image,-1,exp2.png,3,exp2.png,exp1.png,1,3,reversed,correct,0.19766118844908065,0,invalid_lose,137.01383710000664,13,,,,,,,,,,,,,,,,sub_083,2023-01-09_18h28.02.935,Reversal,2022.1.1,60.267249089680654,3,
,,,exp1.png,0,0,0,0,,,,,0,0,0,0,0,0,0,0,,,,,,,,,,,,,,,,,,,,,,,,,,,,,,,,,,,,,,50.0,None,[],223.25163100000645,None,,,,,,,,,,,sub_083,2023-01-09_18h28.02.935,Reversal,2022.1.1,60.267249089680654,3,
,,,exp2.png,0,0,0,0,,,,,0,0,0,0,0,1,1,1,,,,,,,,,,,,,,,,,,,,,,,,,,,,,,,,,,,,,,50.0,None,[],238.33733510000457,None,,,,,,,,,,,sub_083,2023-01-09_18h28.02.935,Reversal,2022.1.1,60.267249089680654,3,
,,,exp3.png,0,0,0,0,,,,,0,0,0,0,0,2,2,2,,,,,,,,,,,,,,,,,,,,,,,,,,,,,,,,,,,,,,50.0,None,[],242.6964530000114,None,,,,,,,,,,,sub_083,2023-01-09_18h28.02.935,Reversal,2022.1.1,60.267249089680654,3,
,,,exp4.png,0,0,0,0,,,,,0,0,0,0,0,3,3,3,,,,,,,,,,,,,,,,,,,,,,,,,,,,,,,,,,,,,,50.0,None,[],244.81308170000557,None,,,,,,,,,,,sub_083,2023-01-09_18h28.02.935,Reversal,2022.1.1,60.267249089680654,3,
0,exp1.png,exp2.png,,1,0,1,0,0,0,0,0,,,,,,,,,,,,,,,,,,,,,,,,,True,,,,,,,,,,,,,,,,,,,,,,,,,,,,,,,,,,,,sub_083,2023-01-09_18h28.02.935,Reversal,2022.1.1,60.267249089680654,3,
1,exp3.png,exp4.png,,1,0,1,0,0,1,1,1,,,,,,,,,,,,,,,,,,,,,,,,,False,20,21,True,exp4.png,exp3.png,trial_left_image,1,exp4.png,3,exp4.png,exp3.png,1,1,non-reversed,correct,0.9642623048610033,1,valid_win,165.5442672000063,14,,,,,,,,,,,,,,,,sub_083,2023-01-09_18h28.02.935,Reversal,2022.1.1,60.267249089680654,3,
2,exp1.png,exp2.png,,1,0,1,0,0,2,2,2,,,,,,,,,,,,,,,,,,,,,,,,,False,21,22,True,exp2.png,exp1.png,trial_left_image,1,exp2.png,3,exp2.png,exp1.png,1,3,reversed,correct,0.25640006075324273,1,valid_win,170.86008779999975,15,,,,,,,,,,,,,,,,sub_083,2023-01-09_18h28.02.935,Reversal,2022.1.1,60.267249089680654,3,
3,exp3.png,exp4.png,,1,0,1,0,0,3,3,3,,,,,,,,,,,,,,,,,,,,,,,,,False,22,23,True,exp4.png,exp3.png,trial_left_image,1,exp4.png,3,exp4.png,exp3.png,1,1,non-reversed,correct,0.9393955504766719,1,valid_win,175.32755729999917,16,,,,,,,,,,,,,,,,sub_083,2023-01-09_18h28.02.935,Reversal,2022.1.1,60.267249089680654,3,
4,exp1.png,exp2.png,,1,0,1,0,0,4,4,4,,,,,,,,,,,,,,,,,,,,,,,,,False,23,24,True,exp2.png,exp1.png,trial_left_image,1,exp2.png,3,exp2.png,exp1.png,1,3,reversed,correct,0.16746202684207967,0,invalid_lose,179.6082274000073,16,,,,,,,,,,,,,,,,sub_083,2023-01-09_18h28.02.935,Reversal,2022.1.1,60.267249089680654,3,
5,exp3.png,exp4.png,,1,0,1,0,0,5,5,5,,,,,,,,,,,,,,,,,,,,,,,,,False,24,25,False,exp3.png,exp4.png,trial_right_image,-1,exp4.png,3,exp4.png,exp3.png,1,1,non-reversed,correct,0.7648066331582508,1,valid_win,183.64337530000194,17,,,,,,,,,,,,,,,,sub_083,2023-01-09_18h28.02.935,Reversal,2022.1.1,60.267249089680654,3,
6,exp1.png,exp2.png,,1,0,1,0,0,6,6,6,,,,,,,,,,,,,,,,,,,,,,,,,False,25,26,True,exp2.png,exp1.png,trial_left_image,1,exp2.png,3,exp2.png,exp1.png,1,3,reversed,correct,0.22169386558302762,0,invalid_lose,187.8732891999971,17,,,,,,,,,,,,,,,,sub_083,2023-01-09_18h28.02.935,Reversal,2022.1.1,60.267249089680654,3,
7,exp3.png,exp4.png,,1,0,1,0,0,7,7,7,,,,,,,,,,,,,,,,,,,,,,,,,False,26,27,True,exp4.png,exp3.png,trial_right_image,-1,exp3.png,3,exp4.png,exp3.png,0,2,non-reversed,incorrect,0.11659257297734282,1,invalid_win,192.12311490000866,18,,,,,,,,,,,,,,,,sub_083,2023-01-09_18h28.02.935,Reversal,2022.1.1,60.267249089680654,3,
8,exp1.png,exp2.png,,1,0,1,0,0,8,8,8,,,,,,,,,,,,,,,,,,,,,,,,,False,27,28,True,exp2.png,exp1.png,trial_right_image,-1,exp1.png,3,exp2.png,exp1.png,0,4,reversed,incorrect,0.7658266740700231,0,valid_lose,196.52359520000755,18,,,,,,,,,,,,,,,,sub_083,2023-01-09_18h28.02.935,Reversal,2022.1.1,60.267249089680654,3,
9,exp3.png,exp4.png,,1,0,1,0,0,9,9,9,,,,,,,,,,,,,,,,,,,,,,,,,False,28,29,True,exp4.png,exp3.png,trial_left_image,1,exp4.png,3,exp4.png,exp3.png,1,1,non-reversed,correct,0.3182140491768959,1,valid_win,200.68876140000066,19,,,,,,,,,,,,,,,,sub_083,2023-01-09_18h28.02.935,Reversal,2022.1.1,60.267249089680654,3,
10,exp1.png,exp2.png,,1,0,1,0,0,10,10,10,,,,,,,,,,,,,,,,,,,,,,,,,False,29,30,False,exp1.png,exp2.png,trial_right_image,-1,exp2.png,3,exp2.png,exp1.png,1,3,reversed,correct,0.3766398437284255,1,valid_win,204.72127470000123,20,,,,,,,,,,,,,,,,sub_083,2023-01-09_18h28.02.935,Reversal,2022.1.1,60.267249089680654,3,
11,exp3.png,exp4.png,,1,0,1,0,0,11,11,11,,,,,,,,,,,,,,,,,,,,,,,,,False,30,31,True,exp4.png,exp3.png,trial_left_image,1,exp4.png,3,exp4.png,exp3.png,1,1,non-reversed,correct,0.29642001814057906,1,valid_win,208.92174580000574,21,,,,,,,,,,,,,,,,sub_083,2023-01-09_18h28.02.935,Reversal,2022.1.1,60.267249089680654,3,
12,exp1.png,exp2.png,,1,0,1,0,0,12,12,12,,,,,,,,,,,,,,,,,,,,,,,,,False,31,32,False,exp1.png,exp2.png,trial_right_image,-1,exp2.png,3,exp2.png,exp1.png,1,3,reversed,correct,0.7572560335304557,1,valid_win,213.00369959999807,22,,,,,,,,,,,,,,,,sub_083,2023-01-09_18h28.02.935,Reversal,2022.1.1,60.267249089680654,3,
13,exp3.png,exp4.png,,1,0,1,0,0,13,13,13,,,,,,,,,,,,,,,,,,,,,,,,,False,32,33,False,exp3.png,exp4.png,trial_left_image,1,exp3.png,3,exp4.png,exp3.png,0,2,non-reversed,incorrect,0.2511546179593679,0,valid_lose,217.72037239999918,22,,,,,,,,,,,,,,,,sub_083,2023-01-09_18h28.02.935,Reversal,2022.1.1,60.267249089680654,3,
14,exp1.png,exp2.png,,1,0,1,0,0,14,14,14,,,,,,,,,,,,,,,,,,,,,,,,,False,33,34,False,exp1.png,exp2.png,trial_right_image,-1,exp2.png,3,exp2.png,exp1.png,1,3,reversed,correct,0.7929555460493768,1,valid_win,221.62019670000882,23,,,,,,,,,,,,,,,,sub_083,2023-01-09_18h28.02.935,Reversal,2022.1.1,60.267249089680654,3,
15,exp3.png,exp4.png,,1,0,1,0,0,15,15,15,,,,,,,,,,,,,,,,,,,,,,,,,False,34,35,False,exp3.png,exp4.png,trial_right_image,-1,exp4.png,3,exp4.png,exp3.png,1,1,non-reversed,correct,0.9392466249576159,1,valid_win,225.58555279999564,24,,,,,,,,,,,,,,,,sub_083,2023-01-09_18h28.02.935,Reversal,2022.1.1,60.267249089680654,3,
16,exp1.png,exp2.png,,1,0,1,0,0,16,16,16,,,,,,,,,,,,,,,,,,,,,,,,,False,35,36,False,exp1.png,exp2.png,trial_right_image,-1,exp2.png,3,exp2.png,exp1.png,1,3,reversed,correct,0.015996676284597,0,invalid_lose,229.5349705999979,24,,,,,,,,,,,,,,,,sub_083,2023-01-09_18h28.02.935,Reversal,2022.1.1,60.267249089680654,3,
17,exp3.png,exp4.png,,1,0,1,0,0,17,17,17,,,,,,,,,,,,,,,,,,,,,,,,,False,36,37,False,exp3.png,exp4.png,trial_left_image,1,exp3.png,3,exp4.png,exp3.png,0,2,non-reversed,incorrect,0.2516283567990467,0,valid_lose,233.06802120000066,24,,,,,,,,,,,,,,,,sub_083,2023-01-09_18h28.02.935,Reversal,2022.1.1,60.267249089680654,3,
18,exp1.png,exp2.png,,1,0,1,0,0,18,18,18,,,,,,,,,,,,,,,,,,,,,,,,,False,37,38,True,exp2.png,exp1.png,trial_left_image,1,exp2.png,3,exp2.png,exp1.png,1,3,reversed,correct,0.350840952108748,1,valid_win,236.56802069999685,25,,,,,,,,,,,,,,,,sub_083,2023-01-09_18h28.02.935,Reversal,2022.1.1,60.267249089680654,3,
19,exp3.png,exp4.png,,1,0,1,0,0,19,19,19,,,,,,,,,,,,,,,,,,,,,,,,,False,38,39,False,exp3.png,exp4.png,trial_right_image,-1,exp4.png,3,exp4.png,exp3.png,1,1,non-reversed,correct,0.10837574397472349,0,invalid_lose,240.38551110000117,25,,,,,,,,,,,,,,,,sub_083,2023-01-09_18h28.02.935,Reversal,2022.1.1,60.267249089680654,3,
20,exp1.png,exp2.png,,1,0,1,0,0,20,20,20,,,,,,,,,,,,,,,,,,,,,,,,,False,39,40,False,exp1.png,exp2.png,trial_right_image,-1,exp2.png,3,exp2.png,exp1.png,1,3,reversed,correct,0.876229551154193,1,valid_win,243.950422599999,26,,,,,,,,,,,,,,,,sub_083,2023-01-09_18h28.02.935,Reversal,2022.1.1,60.267249089680654,3,
,,,exp1.png,1,0,1,0,,,,,0,0,0,0,0,0,0,0,,,,,,,,,,,,,,,,,,,,,,,,,,,,,,,,,,,,,,28.0,6.7682815000007395,"[(28.0, 6.7682815000007395)]",330.19182490000094,None,28.0,,,,,,,,,,sub_083,2023-01-09_18h28.02.935,Reversal,2022.1.1,60.267249089680654,3,
,,,exp2.png,1,0,1,0,,,,,0,0,0,0,0,1,1,1,,,,,,,,,,,,,,,,,,,,,,,,,,,,,,,,,,,,,,83.0,1.2396147000108613,"[(83.0, 1.2396147000108613)]",337.8393700000015,None,,83.0,,,,,,,,,sub_083,2023-01-09_18h28.02.935,Reversal,2022.1.1,60.267249089680654,3,
,,,exp3.png,1,0,1,0,,,,,0,0,0,0,0,2,2,2,,,,,,,,,,,,,,,,,,,,,,,,,,,,,,,,,,,,,,40.0,1.8746390000014799,"[(40.0, 1.8746390000014799)]",339.93395230000897,None,,,40.0,,,,,,,,sub_083,2023-01-09_18h28.02.935,Reversal,2022.1.1,60.267249089680654,3,
,,,exp4.png,1,0,1,0,,,,,0,0,0,0,0,3,3,3,,,,,,,,,,,,,,,,,,,,,,,,,,,,,,,,,,,,,,79.0,1.0579708000004757,"[(79.0, 1.0579708000004757)]",342.61652900000627,None,,,,79.0,,,,,,,sub_083,2023-01-09_18h28.02.935,Reversal,2022.1.1,60.267249089680654,3,
0,exp1.png,exp2.png,,2,0,2,0,0,0,0,0,,,,,,,,,,,,,,,,,,,,,,,,,True,,,,,,,,,,,,,,,,,,,,,,,,,,,,,,,,,,,,sub_083,2023-01-09_18h28.02.935,Reversal,2022.1.1,60.267249089680654,3,
1,exp3.png,exp4.png,,2,0,2,0,0,1,1,1,,,,,,,,,,,,,,,,,,,,,,,,,False,40,41,False,exp3.png,exp4.png,trial_right_image,-1,exp4.png,3,exp4.png,exp3.png,1,1,non-reversed,correct,0.7124797544066533,1,valid_win,262.6306762000022,27,,,,,,,,,,,,,,,,sub_083,2023-01-09_18h28.02.935,Reversal,2022.1.1,60.267249089680654,3,
2,exp1.png,exp2.png,,2,0,2,0,0,2,2,2,,,,,,,,,,,,,,,,,,,,,,,,,False,41,42,True,exp2.png,exp1.png,trial_left_image,1,exp2.png,3,exp2.png,exp1.png,1,3,reversed,correct,0.9258542267312792,1,valid_win,266.74592290000874,28,,,,,,,,,,,,,,,,sub_083,2023-01-09_18h28.02.935,Reversal,2022.1.1,60.267249089680654,3,
3,exp3.png,exp4.png,,2,0,2,0,0,3,3,3,,,,,,,,,,,,,,,,,,,,,,,,,False,42,43,False,exp3.png,exp4.png,trial_right_image,-1,exp4.png,3,exp4.png,exp3.png,1,1,non-reversed,correct,0.3662329447188315,1,valid_win,270.62947080000595,29,,,,,,,,,,,,,,,,sub_083,2023-01-09_18h28.02.935,Reversal,2022.1.1,60.267249089680654,3,
4,exp1.png,exp2.png,,2,0,2,0,0,4,4,4,,,,,,,,,,,,,,,,,,,,,,,,,False,43,44,True,exp2.png,exp1.png,trial_right_image,-1,exp1.png,3,exp2.png,exp1.png,0,4,reversed,incorrect,0.10044203127413842,1,invalid_win,274.4792085000081,30,,,,,,,,,,,,,,,,sub_083,2023-01-09_18h28.02.935,Reversal,2022.1.1,60.267249089680654,3,
5,exp3.png,exp4.png,,2,0,2,0,0,5,5,5,,,,,,,,,,,,,,,,,,,,,,,,,False,44,45,False,exp3.png,exp4.png,trial_right_image,-1,exp4.png,3,exp4.png,exp3.png,1,1,non-reversed,correct,0.7272279904606285,1,valid_win,278.49588719999883,31,,,,,,,,,,,,,,,,sub_083,2023-01-09_18h28.02.935,Reversal,2022.1.1,60.267249089680654,3,
6,exp1.png,exp2.png,,2,0,2,0,0,6,6,6,,,,,,,,,,,,,,,,,,,,,,,,,False,45,46,True,exp2.png,exp1.png,trial_left_image,1,exp2.png,3,exp2.png,exp1.png,1,3,reversed,correct,0.4375946945376171,1,valid_win,282.4785053000087,32,,,,,,,,,,,,,,,,sub_083,2023-01-09_18h28.02.935,Reversal,2022.1.1,60.267249089680654,3,
7,exp3.png,exp4.png,,2,0,2,0,0,7,7,7,,,,,,,,,,,,,,,,,,,,,,,,,False,46,47,True,exp4.png,exp3.png,trial_left_image,1,exp4.png,3,exp4.png,exp3.png,1,1,non-reversed,correct,0.33928248710340814,1,valid_win,286.7112640999985,33,,,,,,,,,,,,,,,,sub_083,2023-01-09_18h28.02.935,Reversal,2022.1.1,60.267249089680654,3,
8,exp1.png,exp2.png,,2,0,2,0,0,8,8,8,,,,,,,,,,,,,,,,,,,,,,,,,False,47,48,True,exp2.png,exp1.png,trial_left_image,1,exp2.png,3,exp2.png,exp1.png,1,3,reversed,correct,0.0862763672987249,0,invalid_lose,290.71068509999895,33,,,,,,,,,,,,,,,,sub_083,2023-01-09_18h28.02.935,Reversal,2022.1.1,60.267249089680654,3,
9,exp3.png,exp4.png,,2,0,2,0,0,9,9,9,,,,,,,,,,,,,,,,,,,,,,,,,False,48,49,True,exp4.png,exp3.png,trial_left_image,1,exp4.png,3,exp4.png,exp3.png,1,1,non-reversed,correct,0.9877562571214867,1,valid_win,294.5783044999989,34,,,,,,,,,,,,,,,,sub_083,2023-01-09_18h28.02.935,Reversal,2022.1.1,60.267249089680654,3,
10,exp1.png,exp2.png,,2,0,2,0,0,10,10,10,,,,,,,,,,,,,,,,,,,,,,,,,False,49,50,False,exp1.png,exp2.png,trial_right_image,-1,exp2.png,3,exp2.png,exp1.png,1,3,reversed,correct,0.6686487332546971,1,valid_win,298.77724429999944,35,,,,,,,,,,,,,,,,sub_083,2023-01-09_18h28.02.935,Reversal,2022.1.1,60.267249089680654,3,
11,exp3.png,exp4.png,,2,0,2,0,0,11,11,11,,,,,,,,,,,,,,,,,,,,,,,,,False,50,51,False,exp3.png,exp4.png,trial_right_image,-1,exp4.png,3,exp4.png,exp3.png,1,1,non-reversed,correct,0.528376003015904,1,valid_win,302.89430020000145,36,,,,,,,,,,,,,,,,sub_083,2023-01-09_18h28.02.935,Reversal,2022.1.1,60.267249089680654,3,
12,exp1.png,exp2.png,,2,0,2,0,0,12,12,12,,,,,,,,,,,,,,,,,,,,,,,,,False,51,52,True,exp2.png,exp1.png,trial_right_image,-1,exp1.png,3,exp2.png,exp1.png,0,4,reversed,incorrect,0.039598993725558085,1,invalid_win,307.12500260000525,37,,,,,,,,,,,,,,,,sub_083,2023-01-09_18h28.02.935,Reversal,2022.1.1,60.267249089680654,3,
13,exp3.png,exp4.png,,2,0,2,0,0,13,13,13,,,,,,,,,,,,,,,,,,,,,,,,,False,52,53,True,exp4.png,exp3.png,trial_left_image,1,exp4.png,3,exp4.png,exp3.png,1,1,non-reversed,correct,0.04895420426650898,0,invalid_lose,311.3413637000049,37,,,,,,,,,,,,,,,,sub_083,2023-01-09_18h28.02.935,Reversal,2022.1.1,60.267249089680654,3,
14,exp1.png,exp2.png,,2,0,2,0,0,14,14,14,,,,,,,,,,,,,,,,,,,,,,,,,False,53,54,False,exp1.png,exp2.png,trial_right_image,-1,exp2.png,3,exp2.png,exp1.png,1,3,reversed,correct,0.344816864369876,1,valid_win,315.3913207000005,38,,,,,,,,,,,,,,,,sub_083,2023-01-09_18h28.02.935,Reversal,2022.1.1,60.267249089680654,3,
15,exp3.png,exp4.png,,2,0,2,0,0,15,15,15,,,,,,,,,,,,,,,,,,,,,,,,,False,54,55,False,exp3.png,exp4.png,trial_right_image,-1,exp4.png,3,exp4.png,exp3.png,1,1,non-reversed,correct,0.37057506880001523,1,valid_win,319.373659600009,39,,,,,,,,,,,,,,,,sub_083,2023-01-09_18h28.02.935,Reversal,2022.1.1,60.267249089680654,3,
16,exp1.png,exp2.png,,2,0,2,0,0,16,16,16,,,,,,,,,,,,,,,,,,,,,,,,,False,55,56,True,exp2.png,exp1.png,trial_left_image,1,exp2.png,3,exp2.png,exp1.png,1,3,reversed,correct,0.06552587659621789,0,invalid_lose,323.323962399998,39,,,,,,,,,,,,,,,,sub_083,2023-01-09_18h28.02.935,Reversal,2022.1.1,60.267249089680654,3,
17,exp3.png,exp4.png,,2,0,2,0,0,17,17,17,,,,,,,,,,,,,,,,,,,,,,,,,False,56,57,False,exp3.png,exp4.png,trial_right_image,-1,exp4.png,3,exp4.png,exp3.png,1,1,non-reversed,correct,0.441866786147077,1,valid_win,326.95565020000504,40,,,,,,,,,,,,,,,,sub_083,2023-01-09_18h28.02.935,Reversal,2022.1.1,60.267249089680654,3,
18,exp1.png,exp2.png,,2,0,2,0,0,18,18,18,,,,,,,,,,,,,,,,,,,,,,,,,False,57,58,True,exp2.png,exp1.png,trial_left_image,1,exp2.png,3,exp2.png,exp1.png,1,3,reversed,correct,0.8742952828631542,1,valid_win,331.7056417999993,41,,,,,,,,,,,,,,,,sub_083,2023-01-09_18h28.02.935,Reversal,2022.1.1,60.267249089680654,3,
19,exp3.png,exp4.png,,2,0,2,0,0,19,19,19,,,,,,,,,,,,,,,,,,,,,,,,,False,58,59,False,exp3.png,exp4.png,trial_right_image,-1,exp4.png,3,exp4.png,exp3.png,1,1,non-reversed,correct,0.7763260814327906,1,valid_win,335.72287009999854,42,,,,,,,,,,,,,,,,sub_083,2023-01-09_18h28.02.935,Reversal,2022.1.1,60.267249089680654,3,
20,exp1.png,exp2.png,,2,0,2,0,0,20,20,20,,,,,,,,,,,,,,,,,,,,,,,,,False,59,60,False,exp1.png,exp2.png,trial_right_image,-1,exp2.png,3,exp2.png,exp1.png,1,3,reversed,correct,0.8082360327101248,1,valid_win,339.77127520000795,43,,,,,,,,,,,,,,,,sub_083,2023-01-09_18h28.02.935,Reversal,2022.1.1,60.267249089680654,3,
,,,exp1.png,2,0,2,0,,,,,0,0,0,0,0,0,0,0,,,,,,,,,,,,,,,,,,,,,,,,,,,,,,,,,,,,,,10.0,3.669668800008367,"[(10.0, 3.669668800008367)]",426.01222050000797,None,10.0,,,,,,,,,,sub_083,2023-01-09_18h28.02.935,Reversal,2022.1.1,60.267249089680654,3,
,,,exp2.png,2,0,2,0,,,,,0,0,0,0,0,1,1,1,,,,,,,,,,,,,,,,,,,,,,,,,,,,,,,,,,,,,,91.0,1.4557292999961646,"[(91.0, 1.4557292999961646)]",430.62529700000596,None,,91.0,,,,,,,,,sub_083,2023-01-09_18h28.02.935,Reversal,2022.1.1,60.267249089680654,3,
,,,exp3.png,2,0,2,0,,,,,0,0,0,0,0,2,2,2,,,,,,,,,,,,,,,,,,,,,,,,,,,,,,,,,,,,,,10.0,1.7705997000011848,"[(10.0, 1.7705997000011848)]",432.9758495999995,None,,,10.0,,,,,,,,sub_083,2023-01-09_18h28.02.935,Reversal,2022.1.1,60.267249089680654,3,
,,,exp4.png,2,0,2,0,,,,,0,0,0,0,0,3,3,3,,,,,,,,,,,,,,,,,,,,,,,,,,,,,,,,,,,,,,92.0,1.3402353999990737,"[(92.0, 1.3402353999990737)]",435.6712692000001,None,,,,92.0,,,,,,,sub_083,2023-01-09_18h28.02.935,Reversal,2022.1.1,60.267249089680654,3,
0,exp1.png,exp2.png,,,,,,,,,,,,,,,,,,0,0,0,0,0,0,0,0,,,,,,,,,True,,,,,,,,,,,,,,,,,,,,,,,,,,,,,,,,,,,,sub_083,2023-01-09_18h28.02.935,Reversal,2022.1.1,60.267249089680654,3,
1,exp3.png,exp4.png,,,,,,,,,,,,,,,,,,0,0,0,0,0,1,1,1,,,,,,,,,False,0,61,True,exp4.png,exp3.png,trial_right_image,-1,exp3.png,3,exp4.png,exp3.png,0,2,non-reversed,incorrect,0.8154485333216832,0,valid_lose,355.8858891999989,43,,,,,,,,,,354.2622226000094,,,,,,sub_083,2023-01-09_18h28.02.935,Reversal,2022.1.1,60.267249089680654,3,
2,exp1.png,exp2.png,,,,,,,,,,,,,,,,,,0,0,0,0,0,2,2,2,,,,,,,,,False,1,62,False,exp1.png,exp2.png,trial_right_image,-1,exp2.png,3,exp1.png,exp2.png,1,3,reversed,incorrect,0.1267508581993958,1,invalid_win,359.834820700009,44,,,,,,,,,,,,,,,,sub_083,2023-01-09_18h28.02.935,Reversal,2022.1.1,60.267249089680654,3,
3,exp3.png,exp4.png,,,,,,,,,,,,,,,,,,0,0,0,0,0,3,3,3,,,,,,,,,False,2,63,False,exp3.png,exp4.png,trial_right_image,-1,exp4.png,3,exp4.png,exp3.png,1,1,non-reversed,correct,0.9520621646597748,1,valid_win,363.9012389999989,45,,,,,,,,,,,,,,,,sub_083,2023-01-09_18h28.02.935,Reversal,2022.1.1,60.267249089680654,3,
4,exp1.png,exp2.png,,,,,,,,,,,,,,,,,,0,0,0,0,0,4,4,4,,,,,,,,,False,3,64,True,exp2.png,exp1.png,trial_left_image,1,exp2.png,3,exp1.png,exp2.png,1,3,reversed,incorrect,0.13203764114899796,1,invalid_win,367.9502911000018,46,,,,,,,,,,,,,,,,sub_083,2023-01-09_18h28.02.935,Reversal,2022.1.1,60.267249089680654,3,
5,exp3.png,exp4.png,,,,,,,,,,,,,,,,,,0,0,0,0,0,5,5,5,,,,,,,,,False,4,65,False,exp3.png,exp4.png,trial_right_image,-1,exp4.png,3,exp4.png,exp3.png,1,1,non-reversed,correct,0.3387919859423081,1,valid_win,371.9170180000074,47,,,,,,,,,,,,,,,,sub_083,2023-01-09_18h28.02.935,Reversal,2022.1.1,60.267249089680654,3,
6,exp1.png,exp2.png,,,,,,,,,,,,,,,,,,0,0,0,0,0,6,6,6,,,,,,,,,False,5,66,False,exp1.png,exp2.png,trial_right_image,-1,exp2.png,3,exp1.png,exp2.png,1,3,reversed,incorrect,0.7522894838749815,0,valid_lose,376.185424700001,47,,,,,,,,,,,,,,,,sub_083,2023-01-09_18h28.02.935,Reversal,2022.1.1,60.267249089680654,3,
7,exp3.png,exp4.png,,,,,,,,,,,,,,,,,,0,0,0,0,0,7,7,7,,,,,,,,,False,6,67,True,exp4.png,exp3.png,trial_left_image,1,exp4.png,3,exp4.png,exp3.png,1,1,non-reversed,correct,0.11468987241448525,0,invalid_lose,380.44935480000277,47,,,,,,,,,,,,,,,,sub_083,2023-01-09_18h28.02.935,Reversal,2022.1.1,60.267249089680654,3,
8,exp1.png,exp2.png,,,,,,,,,,,,,,,,,,0,0,0,0,0,8,8,8,,,,,,,,,False,7,68,True,exp2.png,exp1.png,trial_left_image,1,exp2.png,3,exp1.png,exp2.png,1,3,reversed,incorrect,0.062385477645932275,1,invalid_win,384.78298570000334,48,,,,,,,,,,,,,,,,sub_083,2023-01-09_18h28.02.935,Reversal,2022.1.1,60.267249089680654,3,
9,exp3.png,exp4.png,,,,,,,,,,,,,,,,,,0,0,0,0,0,9,9,9,,,,,,,,,False,8,69,False,exp3.png,exp4.png,trial_right_image,-1,exp4.png,3,exp4.png,exp3.png,1,1,non-reversed,correct,0.9726415584337291,1,valid_win,388.8314299000049,49,,,,,,,,,,,,,,,,sub_083,2023-01-09_18h28.02.935,Reversal,2022.1.1,60.267249089680654,3,
10,exp1.png,exp2.png,,,,,,,,,,,,,,,,,,0,0,0,0,0,10,10,10,,,,,,,,,False,9,70,False,exp1.png,exp2.png,trial_right_image,-1,exp2.png,3,exp1.png,exp2.png,1,3,reversed,incorrect,0.21173993151014314,1,invalid_win,392.9830265000055,50,,,,,,,,,,,,,,,,sub_083,2023-01-09_18h28.02.935,Reversal,2022.1.1,60.267249089680654,3,
11,exp3.png,exp4.png,,,,,,,,,,,,,,,,,,0,0,0,0,0,11,11,11,,,,,,,,,False,10,71,True,exp4.png,exp3.png,trial_left_image,1,exp4.png,3,exp4.png,exp3.png,1,1,non-reversed,correct,0.0917402830658085,0,invalid_lose,397.0308592000074,50,,,,,,,,,,,,,,,,sub_083,2023-01-09_18h28.02.935,Reversal,2022.1.1,60.267249089680654,3,
12,exp1.png,exp2.png,,,,,,,,,,,,,,,,,,0,0,0,0,0,12,12,12,,,,,,,,,False,11,72,False,exp1.png,exp2.png,trial_right_image,-1,exp2.png,3,exp1.png,exp2.png,1,3,reversed,incorrect,0.3443606975387805,0,valid_lose,400.6634979000082,50,,,,,,,,,,,,,,,,sub_083,2023-01-09_18h28.02.935,Reversal,2022.1.1,60.267249089680654,3,
13,exp3.png,exp4.png,,,,,,,,,,,,,,,,,,0,0,0,0,0,13,13,13,,,,,,,,,False,12,73,False,exp3.png,exp4.png,trial_left_image,1,exp3.png,3,exp4.png,exp3.png,0,2,non-reversed,incorrect,0.6213091594934633,0,valid_lose,404.8148569000041,50,,,,,,,,,,,,,,,,sub_083,2023-01-09_18h28.02.935,Reversal,2022.1.1,60.267249089680654,3,
14,exp1.png,exp2.png,,,,,,,,,,,,,,,,,,0,0,0,0,0,14,14,14,,,,,,,,,False,13,74,True,exp2.png,exp1.png,trial_right_image,-1,exp1.png,3,exp1.png,exp2.png,0,4,reversed,correct,0.09912069557325476,0,invalid_lose,408.9143752999953,50,,,,,,,,,,,,,,,,sub_083,2023-01-09_18h28.02.935,Reversal,2022.1.1,60.267249089680654,3,
15,exp3.png,exp4.png,,,,,,,,,,,,,,,,,,0,0,0,0,0,15,15,15,,,,,,,,,False,14,75,False,exp3.png,exp4.png,trial_right_image,-1,exp4.png,3,exp4.png,exp3.png,1,1,non-reversed,correct,0.36665108692726145,1,valid_win,412.8629329999967,51,,,,,,,,,,,,,,,,sub_083,2023-01-09_18h28.02.935,Reversal,2022.1.1,60.267249089680654,3,
16,exp1.png,exp2.png,,,,,,,,,,,,,,,,,,0,0,0,0,0,16,16,16,,,,,,,,,False,15,76,True,exp2.png,exp1.png,trial_left_image,1,exp2.png,3,exp1.png,exp2.png,1,3,reversed,incorrect,0.04921743498329134,1,invalid_win,416.77867349999724,52,,,,,,,,,,,,,,,,sub_083,2023-01-09_18h28.02.935,Reversal,2022.1.1,60.267249089680654,3,
17,exp3.png,exp4.png,,,,,,,,,,,,,,,,,,0,0,0,0,0,17,17,17,,,,,,,,,False,16,77,True,exp4.png,exp3.png,trial_left_image,1,exp4.png,3,exp4.png,exp3.png,1,1,non-reversed,correct,0.5775152117722705,1,valid_win,420.94386179999856,53,,,,,,,,,,,,,,,,sub_083,2023-01-09_18h28.02.935,Reversal,2022.1.1,60.267249089680654,3,
18,exp1.png,exp2.png,,,,,,,,,,,,,,,,,,0,0,0,0,0,18,18,18,,,,,,,,,False,17,78,True,exp2.png,exp1.png,trial_left_image,1,exp2.png,3,exp1.png,exp2.png,1,3,reversed,incorrect,0.9450153117843033,0,valid_lose,425.11025260000315,53,,,,,,,,,,,,,,,,sub_083,2023-01-09_18h28.02.935,Reversal,2022.1.1,60.267249089680654,3,
19,exp3.png,exp4.png,,,,,,,,,,,,,,,,,,0,0,0,0,0,19,19,19,,,,,,,,,False,18,79,False,exp3.png,exp4.png,trial_right_image,-1,exp4.png,3,exp4.png,exp3.png,1,1,non-reversed,correct,0.644359361961388,1,valid_win,429.32633799999894,54,,,,,,,,,,,,,,,,sub_083,2023-01-09_18h28.02.935,Reversal,2022.1.1,60.267249089680654,3,
20,exp1.png,exp2.png,,,,,,,,,,,,,,,,,,0,0,0,0,0,20,20,20,,,,,,,,,False,19,80,True,exp2.png,exp1.png,trial_left_image,1,exp2.png,3,exp1.png,exp2.png,1,3,reversed,incorrect,0.326085918291657,0,valid_lose,433.26158320000104,54,,,,,,,,,,,,,,,,sub_083,2023-01-09_18h28.02.935,Reversal,2022.1.1,60.267249089680654,3,
,,,exp1.png,,,,,,,,,,,,,,,,,0,0,0,0,,,,,0,0,0,0,0,0,0,0,,,,,,,,,,,,,,,,,,,,,,18.0,1.5995891000056872,"[(18.0, 1.5995891000056872)]",519.508058899999,None,18.0,,,,,,,,,,sub_083,2023-01-09_18h28.02.935,Reversal,2022.1.1,60.267249089680654,3,
,,,exp2.png,,,,,,,,,,,,,,,,,0,0,0,0,,,,,0,0,0,0,0,1,1,1,,,,,,,,,,,,,,,,,,,,,,82.0,0.5406778000033228,"[(82.0, 0.5406778000033228)]",521.8944781000027,None,,82.0,,,,,,,,,sub_083,2023-01-09_18h28.02.935,Reversal,2022.1.1,60.267249089680654,3,
,,,exp3.png,,,,,,,,,,,,,,,,,0,0,0,0,,,,,0,0,0,0,0,2,2,2,,,,,,,,,,,,,,,,,,,,,,15.0,1.0073693999875104,"[(15.0, 1.0073693999875104)]",523.3277032000042,None,,,15.0,,,,,,,,sub_083,2023-01-09_18h28.02.935,Reversal,2022.1.1,60.267249089680654,3,
,,,exp4.png,,,,,,,,,,,,,,,,,0,0,0,0,,,,,0,0,0,0,0,3,3,3,,,,,,,,,,,,,,,,,,,,,,87.0,0.8219731000135653,"[(87.0, 0.8219731000135653)]",525.1947689000081,None,,,,87.0,,,,,,,sub_083,2023-01-09_18h28.02.935,Reversal,2022.1.1,60.267249089680654,3,
0,exp1.png,exp2.png,,,,,,,,,,,,,,,,,,1,0,1,0,0,0,0,0,,,,,,,,,True,,,,,,,,,,,,,,,,,,,,,,,,,,,,,,,,,,,,sub_083,2023-01-09_18h28.02.935,Reversal,2022.1.1,60.267249089680654,3,
1,exp3.png,exp4.png,,,,,,,,,,,,,,,,,,1,0,1,0,0,1,1,1,,,,,,,,,False,20,81,False,exp3.png,exp4.png,trial_right_image,-1,exp4.png,3,exp4.png,exp3.png,1,1,non-reversed,correct,0.40698372367581626,1,valid_win,444.89083910000045,55,,,,,,,,,,,,,,,,sub_083,2023-01-09_18h28.02.935,Reversal,2022.1.1,60.267249089680654,3,
2,exp1.png,exp2.png,,,,,,,,,,,,,,,,,,1,0,1,0,0,2,2,2,,,,,,,,,False,21,82,False,exp1.png,exp2.png,trial_right_image,-1,exp2.png,3,exp1.png,exp2.png,1,3,reversed,incorrect,0.5679806304983843,0,valid_lose,449.00797079999757,55,,,,,,,,,,,,,,,,sub_083,2023-01-09_18h28.02.935,Reversal,2022.1.1,60.267249089680654,3,
3,exp3.png,exp4.png,,,,,,,,,,,,,,,,,,1,0,1,0,0,3,3,3,,,,,,,,,False,22,83,True,exp4.png,exp3.png,trial_left_image,1,exp4.png,3,exp4.png,exp3.png,1,1,non-reversed,correct,0.5568173656139835,1,valid_win,453.09074719999626,56,,,,,,,,,,,,,,,,sub_083,2023-01-09_18h28.02.935,Reversal,2022.1.1,60.267249089680654,3,
4,exp1.png,exp2.png,,,,,,,,,,,,,,,,,,1,0,1,0,0,4,4,4,,,,,,,,,False,23,84,False,exp1.png,exp2.png,trial_right_image,-1,exp2.png,3,exp1.png,exp2.png,1,3,reversed,incorrect,0.5418602159763916,0,valid_lose,456.8233246000018,56,,,,,,,,,,,,,,,,sub_083,2023-01-09_18h28.02.935,Reversal,2022.1.1,60.267249089680654,3,
5,exp3.png,exp4.png,,,,,,,,,,,,,,,,,,1,0,1,0,0,5,5,5,,,,,,,,,False,24,85,True,exp4.png,exp3.png,trial_right_image,-1,exp3.png,3,exp4.png,exp3.png,0,2,non-reversed,incorrect,0.7607103061148941,0,valid_lose,461.2066163999989,56,,,,,,,,,,,,,,,,sub_083,2023-01-09_18h28.02.935,Reversal,2022.1.1,60.267249089680654,3,
6,exp1.png,exp2.png,,,,,,,,,,,,,,,,,,1,0,1,0,0,6,6,6,,,,,,,,,False,25,86,False,exp1.png,exp2.png,trial_right_image,-1,exp2.png,3,exp1.png,exp2.png,1,3,reversed,incorrect,0.18682157547291345,1,invalid_win,465.4715570999979,57,,,,,,,,,,,,,,,,sub_083,2023-01-09_18h28.02.935,Reversal,2022.1.1,60.267249089680654,3,
7,exp3.png,exp4.png,,,,,,,,,,,,,,,,,,1,0,1,0,0,7,7,7,,,,,,,,,False,26,87,True,exp4.png,exp3.png,trial_left_image,1,exp4.png,3,exp4.png,exp3.png,1,1,non-reversed,correct,0.31585228227178574,1,valid_win,469.17835000000196,58,,,,,,,,,,,,,,,,sub_083,2023-01-09_18h28.02.935,Reversal,2022.1.1,60.267249089680654,3,
8,exp1.png,exp2.png,,,,,,,,,,,,,,,,,,1,0,1,0,0,8,8,8,,,,,,,,,False,27,88,False,exp1.png,exp2.png,trial_right_image,-1,exp2.png,3,exp1.png,exp2.png,1,3,reversed,incorrect,0.5451156754668218,0,valid_lose,473.28735870000673,58,,,,,,,,,,,,,,,,sub_083,2023-01-09_18h28.02.935,Reversal,2022.1.1,60.267249089680654,3,
9,exp3.png,exp4.png,,,,,,,,,,,,,,,,,,1,0,1,0,0,9,9,9,,,,,,,,,False,28,89,False,exp3.png,exp4.png,trial_right_image,-1,exp4.png,3,exp4.png,exp3.png,1,1,non-reversed,correct,0.29553959929860685,1,valid_win,477.1373703999998,59,,,,,,,,,,,,,,,,sub_083,2023-01-09_18h28.02.935,Reversal,2022.1.1,60.267249089680654,3,
10,exp1.png,exp2.png,,,,,,,,,,,,,,,,,,1,0,1,0,0,10,10,10,,,,,,,,,False,29,90,False,exp1.png,exp2.png,trial_left_image,1,exp1.png,3,exp1.png,exp2.png,0,4,reversed,correct,0.006150950860868698,0,invalid_lose,480.7040343999979,59,,,,,,,,,,,,,,,,sub_083,2023-01-09_18h28.02.935,Reversal,2022.1.1,60.267249089680654,3,
11,exp3.png,exp4.png,,,,,,,,,,,,,,,,,,1,0,1,0,0,11,11,11,,,,,,,,,False,30,91,True,exp4.png,exp3.png,trial_left_image,1,exp4.png,3,exp4.png,exp3.png,1,1,non-reversed,correct,0.9456428151118806,1,valid_win,484.86949209999875,60,,,,,,,,,,,,,,,,sub_083,2023-01-09_18h28.02.935,Reversal,2022.1.1,60.267249089680654,3,
12,exp1.png,exp2.png,,,,,,,,,,,,,,,,,,1,0,1,0,0,12,12,12,,,,,,,,,False,31,92,True,exp2.png,exp1.png,trial_left_image,1,exp2.png,3,exp1.png,exp2.png,1,3,reversed,incorrect,0.3743938261987132,0,valid_lose,489.13558080000803,60,,,,,,,,,,,,,,,,sub_083,2023-01-09_18h28.02.935,Reversal,2022.1.1,60.267249089680654,3,
13,exp3.png,exp4.png,,,,,,,,,,,,,,,,,,1,0,1,0,0,13,13,13,,,,,,,,,False,32,93,True,exp4.png,exp3.png,trial_left_image,1,exp4.png,3,exp4.png,exp3.png,1,1,non-reversed,correct,0.401438426896802,1,valid_win,493.28491499999654,61,,,,,,,,,,,,,,,,sub_083,2023-01-09_18h28.02.935,Reversal,2022.1.1,60.267249089680654,3,
14,exp1.png,exp2.png,,,,,,,,,,,,,,,,,,1,0,1,0,0,14,14,14,,,,,,,,,False,33,94,False,exp1.png,exp2.png,trial_right_image,-1,exp2.png,3,exp1.png,exp2.png,1,3,reversed,incorrect,0.5299083922065864,0,valid_lose,497.2340375000058,61,,,,,,,,,,,,,,,,sub_083,2023-01-09_18h28.02.935,Reversal,2022.1.1,60.267249089680654,3,
15,exp3.png,exp4.png,,,,,,,,,,,,,,,,,,1,0,1,0,0,15,15,15,,,,,,,,,False,34,95,True,exp4.png,exp3.png,trial_right_image,-1,exp3.png,3,exp4.png,exp3.png,0,2,non-reversed,incorrect,0.4863745591508517,0,valid_lose,501.0344926999969,61,,,,,,,,,,,,,,,,sub_083,2023-01-09_18h28.02.935,Reversal,2022.1.1,60.267249089680654,3,
16,exp1.png,exp2.png,,,,,,,,,,,,,,,,,,1,0,1,0,0,16,16,16,,,,,,,,,False,35,96,True,exp2.png,exp1.png,trial_right_image,-1,exp1.png,3,exp1.png,exp2.png,0,4,reversed,correct,0.23059934944671867,0,invalid_lose,504.9517634000076,61,,,,,,,,,,,,,,,,sub_083,2023-01-09_18h28.02.935,Reversal,2022.1.1,60.267249089680654,3,
17,exp3.png,exp4.png,,,,,,,,,,,,,,,,,,1,0,1,0,0,17,17,17,,,,,,,,,False,36,97,False,exp3.png,exp4.png,trial_right_image,-1,exp4.png,3,exp4.png,exp3.png,1,1,non-reversed,correct,0.2672089271646718,1,valid_win,509.1175804000086,62,,,,,,,,,,,,,,,,sub_083,2023-01-09_18h28.02.935,Reversal,2022.1.1,60.267249089680654,3,
18,exp1.png,exp2.png,,,,,,,,,,,,,,,,,,1,0,1,0,0,18,18,18,,,,,,,,,False,37,98,False,exp1.png,exp2.png,trial_right_image,-1,exp2.png,3,exp1.png,exp2.png,1,3,reversed,incorrect,0.2731664856017072,0,valid_lose,513.0663253000093,62,,,,,,,,,,,,,,,,sub_083,2023-01-09_18h28.02.935,Reversal,2022.1.1,60.267249089680654,3,
19,exp3.png,exp4.png,,,,,,,,,,,,,,,,,,1,0,1,0,0,19,19,19,,,,,,,,,False,38,99,True,exp4.png,exp3.png,trial_right_image,-1,exp3.png,3,exp4.png,exp3.png,0,2,non-reversed,incorrect,0.033310638043941854,1,invalid_win,517.2999444000016,63,,,,,,,,,,,,,,,,sub_083,2023-01-09_18h28.02.935,Reversal,2022.1.1,60.267249089680654,3,
20,exp1.png,exp2.png,,,,,,,,,,,,,,,,,,1,0,1,0,0,20,20,20,,,,,,,,,False,39,100,True,exp2.png,exp1.png,trial_left_image,1,exp2.png,3,exp1.png,exp2.png,1,3,reversed,incorrect,0.8266429869636097,0,valid_lose,521.3151153000072,63,,,,,,,,,,,,,,,,sub_083,2023-01-09_18h28.02.935,Reversal,2022.1.1,60.267249089680654,3,
,,,exp1.png,,,,,,,,,,,,,,,,,1,0,1,0,,,,,0,0,0,0,0,0,0,0,,,,,,,,,,,,,,,,,,,,,,38.0,2.275075999990804,"[(38.0, 2.275075999990804)]",607.5538503999996,None,38.0,,,,,,,,,,sub_083,2023-01-09_18h28.02.935,Reversal,2022.1.1,60.267249089680654,3,
,,,exp2.png,,,,,,,,,,,,,,,,,1,0,1,0,,,,,0,0,0,0,0,1,1,1,,,,,,,,,,,,,,,,,,,,,,79.0,0.7744860999955563,"[(79.0, 0.7744860999955563)]",610.7161086999986,None,,79.0,,,,,,,,,sub_083,2023-01-09_18h28.02.935,Reversal,2022.1.1,60.267249089680654,3,
,,,exp3.png,,,,,,,,,,,,,,,,,1,0,1,0,,,,,0,0,0,0,0,2,2,2,,,,,,,,,,,,,,,,,,,,,,21.0,0.9483210999896983,"[(21.0, 0.9483210999896983)]",612.3601124999986,None,,,21.0,,,,,,,,sub_083,2023-01-09_18h28.02.935,Reversal,2022.1.1,60.267249089680654,3,
,,,exp4.png,,,,,,,,,,,,,,,,,1,0,1,0,,,,,0,0,0,0,0,3,3,3,,,,,,,,,,,,,,,,,,,,,,75.0,1.4420382999960566,"[(73.0, 0.8081188999931328), (75.0, 1.4420382999960566)]",614.2157025000051,None,,,,75.0,,,,,,,sub_083,2023-01-09_18h28.02.935,Reversal,2022.1.1,60.267249089680654,3,
0,exp1.png,exp2.png,,,,,,,,,,,,,,,,,,2,0,2,0,0,0,0,0,,,,,,,,,True,,,,,,,,,,,,,,,,,,,,,,,,,,,,,,,,,,,,sub_083,2023-01-09_18h28.02.935,Reversal,2022.1.1,60.267249089680654,3,
1,exp3.png,exp4.png,,,,,,,,,,,,,,,,,,2,0,2,0,0,1,1,1,,,,,,,,,False,40,101,False,exp3.png,exp4.png,trial_right_image,-1,exp4.png,3,exp4.png,exp3.png,1,1,non-reversed,correct,0.8929527906081716,1,valid_win,534.3803841000044,64,,,,,,,,,,,,,,,,sub_083,2023-01-09_18h28.02.935,Reversal,2022.1.1,60.267249089680654,3,
2,exp1.png,exp2.png,,,,,,,,,,,,,,,,,,2,0,2,0,0,2,2,2,,,,,,,,,False,41,102,True,exp2.png,exp1.png,trial_left_image,1,exp2.png,3,exp1.png,exp2.png,1,3,reversed,incorrect,0.1581878275170704,1,invalid_win,538.5458007999987,65,,,,,,,,,,,,,,,,sub_083,2023-01-09_18h28.02.935,Reversal,2022.1.1,60.267249089680654,3,
3,exp3.png,exp4.png,,,,,,,,,,,,,,,,,,2,0,2,0,0,3,3,3,,,,,,,,,False,42,103,True,exp4.png,exp3.png,trial_left_image,1,exp4.png,3,exp4.png,exp3.png,1,1,non-reversed,correct,0.3329944816550363,1,valid_win,543.6477191000013,66,,,,,,,,,,,,,,,,sub_083,2023-01-09_18h28.02.935,Reversal,2022.1.1,60.267249089680654,3,
4,exp1.png,exp2.png,,,,,,,,,,,,,,,,,,2,0,2,0,0,4,4,4,,,,,,,,,False,43,104,False,exp1.png,exp2.png,trial_right_image,-1,exp2.png,3,exp1.png,exp2.png,1,3,reversed,incorrect,0.5897647749473568,0,valid_lose,547.5450801999978,66,,,,,,,,,,,,,,,,sub_083,2023-01-09_18h28.02.935,Reversal,2022.1.1,60.267249089680654,3,
5,exp3.png,exp4.png,,,,,,,,,,,,,,,,,,2,0,2,0,0,5,5,5,,,,,,,,,False,44,105,True,exp4.png,exp3.png,trial_right_image,-1,exp3.png,3,exp4.png,exp3.png,0,2,non-reversed,incorrect,0.43996006687273626,0,valid_lose,551.2938247999991,66,,,,,,,,,,,,,,,,sub_083,2023-01-09_18h28.02.935,Reversal,2022.1.1,60.267249089680654,3,
6,exp1.png,exp2.png,,,,,,,,,,,,,,,,,,2,0,2,0,0,6,6,6,,,,,,,,,False,45,106,True,exp2.png,exp1.png,trial_left_image,1,exp2.png,3,exp1.png,exp2.png,1,3,reversed,incorrect,0.9591021509930595,0,valid_lose,555.3601809999964,66,,,,,,,,,,,,,,,,sub_083,2023-01-09_18h28.02.935,Reversal,2022.1.1,60.267249089680654,3,
7,exp3.png,exp4.png,,,,,,,,,,,,,,,,,,2,0,2,0,0,7,7,7,,,,,,,,,False,46,107,False,exp3.png,exp4.png,trial_right_image,-1,exp4.png,3,exp4.png,exp3.png,1,1,non-reversed,correct,0.6592694973082279,1,valid_win,559.3609722999972,67,,,,,,,,,,,,,,,,sub_083,2023-01-09_18h28.02.935,Reversal,2022.1.1,60.267249089680654,3,
8,exp1.png,exp2.png,,,,,,,,,,,,,,,,,,2,0,2,0,0,8,8,8,,,,,,,,,False,47,108,True,exp2.png,exp1.png,trial_left_image,1,exp2.png,3,exp1.png,exp2.png,1,3,reversed,incorrect,0.42103610341879916,0,valid_lose,563.8422838999977,67,,,,,,,,,,,,,,,,sub_083,2023-01-09_18h28.02.935,Reversal,2022.1.1,60.267249089680654,3,
9,exp3.png,exp4.png,,,,,,,,,,,,,,,,,,2,0,2,0,0,9,9,9,,,,,,,,,False,48,109,False,exp3.png,exp4.png,trial_left_image,1,exp3.png,3,exp4.png,exp3.png,0,2,non-reversed,incorrect,0.23846436819177708,1,invalid_win,567.9925157999969,68,,,,,,,,,,,,,,,,sub_083,2023-01-09_18h28.02.935,Reversal,2022.1.1,60.267249089680654,3,
10,exp1.png,exp2.png,,,,,,,,,,,,,,,,,,2,0,2,0,0,10,10,10,,,,,,,,,False,49,110,False,exp1.png,exp2.png,trial_right_image,-1,exp2.png,3,exp1.png,exp2.png,1,3,reversed,incorrect,0.2932482301448056,0,valid_lose,571.809571100006,68,,,,,,,,,,,,,,,,sub_083,2023-01-09_18h28.02.935,Reversal,2022.1.1,60.267249089680654,3,
11,exp3.png,exp4.png,,,,,,,,,,,,,,,,,,2,0,2,0,0,11,11,11,,,,,,,,,False,50,111,False,exp3.png,exp4.png,trial_left_image,1,exp3.png,3,exp4.png,exp3.png,0,2,non-reversed,incorrect,0.9393843802620434,0,valid_lose,576.6239972000039,68,,,,,,,,,,,,,,,,sub_083,2023-01-09_18h28.02.935,Reversal,2022.1.1,60.267249089680654,3,
12,exp1.png,exp2.png,,,,,,,,,,,,,,,,,,2,0,2,0,0,12,12,12,,,,,,,,,False,51,112,True,exp2.png,exp1.png,trial_right_image,-1,exp1.png,3,exp1.png,exp2.png,0,4,reversed,correct,0.15031382730798437,0,invalid_lose,580.174629400004,68,,,,,,,,,,,,,,,,sub_083,2023-01-09_18h28.02.935,Reversal,2022.1.1,60.267249089680654,3,
13,exp3.png,exp4.png,,,,,,,,,,,,,,,,,,2,0,2,0,0,13,13,13,,,,,,,,,False,52,113,False,exp3.png,exp4.png,trial_right_image,-1,exp4.png,3,exp4.png,exp3.png,1,1,non-reversed,correct,0.3129460880938917,1,valid_win,584.1063395999954,69,,,,,,,,,,,,,,,,sub_083,2023-01-09_18h28.02.935,Reversal,2022.1.1,60.267249089680654,3,
14,exp1.png,exp2.png,,,,,,,,,,,,,,,,,,2,0,2,0,0,14,14,14,,,,,,,,,False,53,114,True,exp2.png,exp1.png,trial_left_image,1,exp2.png,3,exp1.png,exp2.png,1,3,reversed,incorrect,0.718261842702013,0,valid_lose,588.1223404000048,69,,,,,,,,,,,,,,,,sub_083,2023-01-09_18h28.02.935,Reversal,2022.1.1,60.267249089680654,3,
15,exp3.png,exp4.png,,,,,,,,,,,,,,,,,,2,0,2,0,0,15,15,15,,,,,,,,,False,54,115,False,exp3.png,exp4.png,trial_right_image,-1,exp4.png,3,exp4.png,exp3.png,1,1,non-reversed,correct,0.750475790001138,1,valid_win,592.0899819000042,70,,,,,,,,,,,,,,,,sub_083,2023-01-09_18h28.02.935,Reversal,2022.1.1,60.267249089680654,3,
16,exp1.png,exp2.png,,,,,,,,,,,,,,,,,,2,0,2,0,0,16,16,16,,,,,,,,,False,55,116,False,exp1.png,exp2.png,trial_right_image,-1,exp2.png,3,exp1.png,exp2.png,1,3,reversed,incorrect,0.7039990483234477,0,valid_lose,596.321855400005,70,,,,,,,,,,,,,,,,sub_083,2023-01-09_18h28.02.935,Reversal,2022.1.1,60.267249089680654,3,
17,exp3.png,exp4.png,,,,,,,,,,,,,,,,,,2,0,2,0,0,17,17,17,,,,,,,,,False,56,117,True,exp4.png,exp3.png,trial_left_image,1,exp4.png,3,exp4.png,exp3.png,1,1,non-reversed,correct,0.1293712506340472,0,invalid_lose,600.5060050000029,70,,,,,,,,,,,,,,,,sub_083,2023-01-09_18h28.02.935,Reversal,2022.1.1,60.267249089680654,3,
18,exp1.png,exp2.png,,,,,,,,,,,,,,,,,,2,0,2,0,0,18,18,18,,,,,,,,,False,57,118,True,exp2.png,exp1.png,trial_right_image,-1,exp1.png,3,exp1.png,exp2.png,0,4,reversed,correct,0.28887001797392076,1,valid_win,604.3871533000056,71,,,,,,,,,,,,,,,,sub_083,2023-01-09_18h28.02.935,Reversal,2022.1.1,60.267249089680654,3,
19,exp3.png,exp4.png,,,,,,,,,,,,,,,,,,2,0,2,0,0,19,19,19,,,,,,,,,False,58,119,False,exp3.png,exp4.png,trial_right_image,-1,exp4.png,3,exp4.png,exp3.png,1,1,non-reversed,correct,0.13055139902878587,0,invalid_lose,608.9704664000019,71,,,,,,,,,,,,,,,,sub_083,2023-01-09_18h28.02.935,Reversal,2022.1.1,60.267249089680654,3,
20,exp1.png,exp2.png,,,,,,,,,,,,,,,,,,2,0,2,0,0,20,20,20,,,,,,,,,False,59,120,True,exp2.png,exp1.png,trial_left_image,1,exp2.png,3,exp1.png,exp2.png,1,3,reversed,incorrect,0.6135675855117121,0,valid_lose,613.2870742000086,71,,,,,,,,,,,,,,,,sub_083,2023-01-09_18h28.02.935,Reversal,2022.1.1,60.267249089680654,3,
,,,exp1.png,,,,,,,,,,,,,,,,,2,0,2,0,,,,,0,0,0,0,0,0,0,0,,,,,,,,,,,,,,,,,,,,,,87.0,1.7124134000041522,"[(87.0, 1.7124134000041522)]",699.5189046000014,None,87.0,,,,,,,,,,sub_083,2023-01-09_18h28.02.935,Reversal,2022.1.1,60.267249089680654,3,
,,,exp2.png,,,,,,,,,,,,,,,,,2,0,2,0,,,,,0,0,0,0,0,1,1,1,,,,,,,,,,,,,,,,,,,,,,12.0,1.1620788000000175,"[(12.0, 1.1620788000000175)]",702.0987533000007,None,,12.0,,,,,,,,,sub_083,2023-01-09_18h28.02.935,Reversal,2022.1.1,60.267249089680654,3,
,,,exp3.png,,,,,,,,,,,,,,,,,2,0,2,0,,,,,0,0,0,0,0,2,2,2,,,,,,,,,,,,,,,,,,,,,,65.0,2.5754051999974763,"[(84.0, 1.0264544999954524), (60.0, 1.8917949999886332), (65.0, 2.5754051999974763)]",704.1032229999983,None,,,65.0,,,,,,,,sub_083,2023-01-09_18h28.02.935,Reversal,2022.1.1,60.267249089680654,3,
,,,exp4.png,,,,,,,,,,,,,,,,,2,0,2,0,,,,,0,0,0,0,0,3,3,3,,,,,,,,,,,,,,,,,,,,,,38.0,0.7403351999964798,"[(38.0, 0.7403351999964798)]",707.4556433000107,None,,,,38.0,,,,,,,sub_083,2023-01-09_18h28.02.935,Reversal,2022.1.1,60.267249089680654,3,
,,,,,,,,,,,,,,,,,,,,,,,,,,,,,,,,,,,,,,,,,,,,,,,,,,,,,,,,71,,,,,,,,,,,79,52,27,270.97403439998743,0,,,,,,,
