trial_index,trial_image1_file,trial_image2_file,image_file,learning_outer_loop.thisRepN,learning_outer_loop.thisTrialN,learning_outer_loop.thisN,learning_outer_loop.thisIndex,learning_inner_loop.thisRepN,learning_inner_loop.thisTrialN,learning_inner_loop.thisN,learning_inner_loop.thisIndex,learning_estimation_outer_loop.thisRepN,learning_estimation_outer_loop.thisTrialN,learning_estimation_outer_loop.thisN,learning_estimation_outer_loop.thisIndex,learning_estimation_inner_loop.thisRepN,learning_estimation_inner_loop.thisTrialN,learning_estimation_inner_loop.thisN,learning_estimation_inner_loop.thisIndex,reversal_outer_loop.thisRepN,reversal_outer_loop.thisTrialN,reversal_outer_loop.thisN,reversal_outer_loop.thisIndex,reversal_inner_loop.thisRepN,reversal_inner_loop.thisTrialN,reversal_inner_loop.thisN,reversal_inner_loop.thisIndex,reversal_estimation_outer_loop.thisRepN,reversal_estimation_outer_loop.thisTrialN,reversal_estimation_outer_loop.thisN,reversal_estimation_outer_loop.thisIndex,reversal_estimation_inner_loop.thisRepN,reversal_estimation_inner_loop.thisTrialN,reversal_estimation_inner_loop.thisN,reversal_estimation_inner_loop.thisIndex,skipped,total_trial_counter,trial_num,left_right_flip,left_image_file,right_image_file,clicked_stimulus_side,side,clicked_stimulus,version,high_prob_image_file,low_prob_image_file,choice_a,choice_b,pair_type,correct,trial_feedback_random,reward,trial_type,overall_time_after_trial,score,estimation_rating.started,estimation_exp1.png,estimation_rating.response,estimation_rating.rt,estimation_rating.history,estimation_exp2.png,estimation_exp3.png,estimation_exp4.png,total_learning_time,total_correct,learning_correct,reversal_correct,total_reversal_time,extra_block,participant,date,expName,psychopyVersion,frameRate,ver,
0,exp1.png,exp2.png,,0,0,0,0,0,0,0,0,,,,,,,,,,,,,,,,,,,,,,,,,True,,,,,,,,,,,,,,,,,,,,,,,,,,,,,,,,,,,sub_100,2024-12-08_10h40.22.971,Reversal,2023.1.3,59.98559146294874,4,
1,exp3.png,exp4.png,,0,0,0,0,0,1,1,1,,,,,,,,,,,,,,,,,,,,,,,,,False,0,1,True,exp4.png,exp3.png,trial_left_image,1,exp4.png,4,exp4.png,exp3.png,1,3,reversed,correct,0.38672026451379793,1,valid_win,2.6480639000074007,1,,,,,,,,,,,,,,,sub_100,2024-12-08_10h40.22.971,Reversal,2023.1.3,59.98559146294874,4,
2,exp1.png,exp2.png,,0,0,0,0,0,2,2,2,,,,,,,,,,,,,,,,,,,,,,,,,False,1,2,False,exp1.png,exp2.png,trial_right_image,-1,exp2.png,4,exp2.png,exp1.png,1,1,non-reversed,correct,0.21051700123179662,0,invalid_lose,8.49572690000059,1,,,,,,,,,,,,,,,sub_100,2024-12-08_10h40.22.971,Reversal,2023.1.3,59.98559146294874,4,
3,exp3.png,exp4.png,,0,0,0,0,0,3,3,3,,,,,,,,,,,,,,,,,,,,,,,,,False,2,3,True,exp4.png,exp3.png,trial_left_image,1,exp4.png,4,exp4.png,exp3.png,1,3,reversed,correct,0.7436496610973063,1,valid_win,13.51063700002851,2,,,,,,,,,,,,,,,sub_100,2024-12-08_10h40.22.971,Reversal,2023.1.3,59.98559146294874,4,
4,exp1.png,exp2.png,,0,0,0,0,0,4,4,4,,,,,,,,,,,,,,,,,,,,,,,,,False,3,4,True,exp2.png,exp1.png,trial_right_image,-1,exp1.png,4,exp2.png,exp1.png,0,2,non-reversed,incorrect,0.9697981228440705,0,valid_lose,19.176368300046306,2,,,,,,,,,,,,,,,sub_100,2024-12-08_10h40.22.971,Reversal,2023.1.3,59.98559146294874,4,
5,exp3.png,exp4.png,,0,0,0,0,0,5,5,5,,,,,,,,,,,,,,,,,,,,,,,,,False,4,5,True,exp4.png,exp3.png,trial_left_image,1,exp4.png,4,exp4.png,exp3.png,1,3,reversed,correct,0.41650294462986315,1,valid_win,23.124558400013484,3,,,,,,,,,,,,,,,sub_100,2024-12-08_10h40.22.971,Reversal,2023.1.3,59.98559146294874,4,
6,exp1.png,exp2.png,,0,0,0,0,0,6,6,6,,,,,,,,,,,,,,,,,,,,,,,,,False,5,6,True,exp2.png,exp1.png,trial_left_image,1,exp2.png,4,exp2.png,exp1.png,1,1,non-reversed,correct,0.15558302229207488,0,invalid_lose,27.0234449999989,3,,,,,,,,,,,,,,,sub_100,2024-12-08_10h40.22.971,Reversal,2023.1.3,59.98559146294874,4,
7,exp3.png,exp4.png,,0,0,0,0,0,7,7,7,,,,,,,,,,,,,,,,,,,,,,,,,False,6,7,False,exp3.png,exp4.png,trial_left_image,1,exp3.png,4,exp4.png,exp3.png,0,4,reversed,incorrect,0.7436946295219188,0,valid_lose,31.90455220005242,3,,,,,,,,,,,,,,,sub_100,2024-12-08_10h40.22.971,Reversal,2023.1.3,59.98559146294874,4,
8,exp1.png,exp2.png,,0,0,0,0,0,8,8,8,,,,,,,,,,,,,,,,,,,,,,,,,False,7,8,True,exp2.png,exp1.png,trial_right_image,-1,exp1.png,4,exp2.png,exp1.png,0,2,non-reversed,incorrect,0.7293361531763554,0,valid_lose,35.92079340002965,3,,,,,,,,,,,,,,,sub_100,2024-12-08_10h40.22.971,Reversal,2023.1.3,59.98559146294874,4,
9,exp3.png,exp4.png,,0,0,0,0,0,9,9,9,,,,,,,,,,,,,,,,,,,,,,,,,False,8,9,False,exp3.png,exp4.png,trial_right_image,-1,exp4.png,4,exp4.png,exp3.png,1,3,reversed,correct,0.8817099665560553,1,valid_win,41.41800740000326,4,,,,,,,,,,,,,,,sub_100,2024-12-08_10h40.22.971,Reversal,2023.1.3,59.98559146294874,4,
10,exp1.png,exp2.png,,0,0,0,0,0,10,10,10,,,,,,,,,,,,,,,,,,,,,,,,,False,9,10,False,exp1.png,exp2.png,trial_left_image,1,exp1.png,4,exp2.png,exp1.png,0,2,non-reversed,incorrect,0.07895398027590783,1,invalid_win,47.61585650005145,5,,,,,,,,,,,,,,,sub_100,2024-12-08_10h40.22.971,Reversal,2023.1.3,59.98559146294874,4,
11,exp3.png,exp4.png,,0,0,0,0,0,11,11,11,,,,,,,,,,,,,,,,,,,,,,,,,False,10,11,False,exp3.png,exp4.png,trial_left_image,1,exp3.png,4,exp4.png,exp3.png,0,4,reversed,incorrect,0.23887929573026923,1,invalid_win,52.64742490003118,6,,,,,,,,,,,,,,,sub_100,2024-12-08_10h40.22.971,Reversal,2023.1.3,59.98559146294874,4,
12,exp1.png,exp2.png,,0,0,0,0,0,12,12,12,,,,,,,,,,,,,,,,,,,,,,,,,False,11,12,False,exp1.png,exp2.png,trial_right_image,-1,exp2.png,4,exp2.png,exp1.png,1,1,non-reversed,correct,0.6934204884473171,1,valid_win,56.646177700022236,7,,,,,,,,,,,,,,,sub_100,2024-12-08_10h40.22.971,Reversal,2023.1.3,59.98559146294874,4,
13,exp3.png,exp4.png,,0,0,0,0,0,13,13,13,,,,,,,,,,,,,,,,,,,,,,,,,False,12,13,True,exp4.png,exp3.png,trial_right_image,-1,exp3.png,4,exp4.png,exp3.png,0,4,reversed,incorrect,0.9632696097837911,0,valid_lose,60.64448150002863,7,,,,,,,,,,,,,,,sub_100,2024-12-08_10h40.22.971,Reversal,2023.1.3,59.98559146294874,4,
14,exp1.png,exp2.png,,0,0,0,0,0,14,14,14,,,,,,,,,,,,,,,,,,,,,,,,,False,13,14,False,exp1.png,exp2.png,trial_right_image,-1,exp2.png,4,exp2.png,exp1.png,1,1,non-reversed,correct,0.9516763389936831,1,valid_win,64.80999820004217,8,,,,,,,,,,,,,,,sub_100,2024-12-08_10h40.22.971,Reversal,2023.1.3,59.98559146294874,4,
15,exp3.png,exp4.png,,0,0,0,0,0,15,15,15,,,,,,,,,,,,,,,,,,,,,,,,,False,14,15,True,exp4.png,exp3.png,trial_left_image,1,exp4.png,4,exp4.png,exp3.png,1,3,reversed,correct,0.7208736390601391,1,valid_win,69.02515100000892,9,,,,,,,,,,,,,,,sub_100,2024-12-08_10h40.22.971,Reversal,2023.1.3,59.98559146294874,4,
16,exp1.png,exp2.png,,0,0,0,0,0,16,16,16,,,,,,,,,,,,,,,,,,,,,,,,,False,15,16,False,exp1.png,exp2.png,trial_left_image,1,exp1.png,4,exp2.png,exp1.png,0,2,non-reversed,incorrect,0.5944060057992682,0,valid_lose,73.3909765999997,9,,,,,,,,,,,,,,,sub_100,2024-12-08_10h40.22.971,Reversal,2023.1.3,59.98559146294874,4,
17,exp3.png,exp4.png,,0,0,0,0,0,17,17,17,,,,,,,,,,,,,,,,,,,,,,,,,False,16,17,True,exp4.png,exp3.png,trial_right_image,-1,exp3.png,4,exp4.png,exp3.png,0,4,reversed,incorrect,0.41922948617526734,0,valid_lose,77.22236920002615,9,,,,,,,,,,,,,,,sub_100,2024-12-08_10h40.22.971,Reversal,2023.1.3,59.98559146294874,4,
18,exp1.png,exp2.png,,0,0,0,0,0,18,18,18,,,,,,,,,,,,,,,,,,,,,,,,,False,17,18,False,exp1.png,exp2.png,trial_right_image,-1,exp2.png,4,exp2.png,exp1.png,1,1,non-reversed,correct,0.9524209057864726,1,valid_win,81.22162890003528,10,,,,,,,,,,,,,,,sub_100,2024-12-08_10h40.22.971,Reversal,2023.1.3,59.98559146294874,4,
19,exp3.png,exp4.png,,0,0,0,0,0,19,19,19,,,,,,,,,,,,,,,,,,,,,,,,,False,18,19,True,exp4.png,exp3.png,trial_left_image,1,exp4.png,4,exp4.png,exp3.png,1,3,reversed,correct,0.01948573106984819,0,invalid_lose,85.7030549000483,10,,,,,,,,,,,,,,,sub_100,2024-12-08_10h40.22.971,Reversal,2023.1.3,59.98559146294874,4,
20,exp1.png,exp2.png,,0,0,0,0,0,20,20,20,,,,,,,,,,,,,,,,,,,,,,,,,False,19,20,False,exp1.png,exp2.png,trial_right_image,-1,exp2.png,4,exp2.png,exp1.png,1,1,non-reversed,correct,0.04886924017775496,0,invalid_lose,92.38364040001761,10,,,,,,,,,,,,,,,sub_100,2024-12-08_10h40.22.971,Reversal,2023.1.3,59.98559146294874,4,
,,,exp1.png,0,0,0,0,,,,,0,0,0,0,0,0,0,0,,,,,,,,,,,,,,,,,,,,,,,,,,,,,,,,,,,,,,169.64527310000267,72.0,72.0,9.345365200017113,"[(72.0, 9.345365200017113)]",,,,,,,,,,sub_100,2024-12-08_10h40.22.971,Reversal,2023.1.3,59.98559146294874,4,
,,,exp2.png,0,0,0,0,,,,,0,0,0,0,0,1,1,1,,,,,,,,,,,,,,,,,,,,,,,,,,,,,,,,,,,,,,180.2284565999871,,35.0,6.573264600010589,"[(35.0, 6.573264600010589)]",35.0,,,,,,,,,sub_100,2024-12-08_10h40.22.971,Reversal,2023.1.3,59.98559146294874,4,
,,,exp3.png,0,0,0,0,,,,,0,0,0,0,0,2,2,2,,,,,,,,,,,,,,,,,,,,,,,,,,,,,,,,,,,,,,188.0903501000139,,36.0,10.273292600002605,"[(36.0, 10.273292600002605)]",,36.0,,,,,,,,sub_100,2024-12-08_10h40.22.971,Reversal,2023.1.3,59.98559146294874,4,
,,,exp4.png,0,0,0,0,,,,,0,0,0,0,0,3,3,3,,,,,,,,,,,,,,,,,,,,,,,,,,,,,,,,,,,,,,200.1531307999976,,69.0,3.7595051000243984,"[(69.0, 3.7595051000243984)]",,,69.0,,,,,,,sub_100,2024-12-08_10h40.22.971,Reversal,2023.1.3,59.98559146294874,4,
0,exp1.png,exp2.png,,1,0,1,0,0,0,0,0,,,,,,,,,,,,,,,,,,,,,,,,,True,,,,,,,,,,,,,,,,,,,,,,,,,,,,,,,,,,,sub_100,2024-12-08_10h40.22.971,Reversal,2023.1.3,59.98559146294874,4,
1,exp3.png,exp4.png,,1,0,1,0,0,1,1,1,,,,,,,,,,,,,,,,,,,,,,,,,False,20,21,False,exp3.png,exp4.png,trial_right_image,-1,exp4.png,4,exp4.png,exp3.png,1,3,reversed,correct,0.9025947662698173,1,valid_win,133.38916910003172,11,,,,,,,,,,,,,,,sub_100,2024-12-08_10h40.22.971,Reversal,2023.1.3,59.98559146294874,4,
2,exp1.png,exp2.png,,1,0,1,0,0,2,2,2,,,,,,,,,,,,,,,,,,,,,,,,,False,21,22,True,exp2.png,exp1.png,trial_left_image,1,exp2.png,4,exp2.png,exp1.png,1,1,non-reversed,correct,0.4667929452800035,1,valid_win,137.78575620002812,12,,,,,,,,,,,,,,,sub_100,2024-12-08_10h40.22.971,Reversal,2023.1.3,59.98559146294874,4,
3,exp3.png,exp4.png,,1,0,1,0,0,3,3,3,,,,,,,,,,,,,,,,,,,,,,,,,False,22,23,False,exp3.png,exp4.png,trial_right_image,-1,exp4.png,4,exp4.png,exp3.png,1,3,reversed,correct,0.16839509526447793,0,invalid_lose,143.0501412000158,12,,,,,,,,,,,,,,,sub_100,2024-12-08_10h40.22.971,Reversal,2023.1.3,59.98559146294874,4,
4,exp1.png,exp2.png,,1,0,1,0,0,4,4,4,,,,,,,,,,,,,,,,,,,,,,,,,False,23,24,True,exp2.png,exp1.png,trial_right_image,-1,exp1.png,4,exp2.png,exp1.png,0,2,non-reversed,incorrect,0.2363455374674368,1,invalid_win,148.38157349999528,13,,,,,,,,,,,,,,,sub_100,2024-12-08_10h40.22.971,Reversal,2023.1.3,59.98559146294874,4,
5,exp3.png,exp4.png,,1,0,1,0,0,5,5,5,,,,,,,,,,,,,,,,,,,,,,,,,False,24,25,True,exp4.png,exp3.png,trial_right_image,-1,exp3.png,4,exp4.png,exp3.png,0,4,reversed,incorrect,0.012336010024065702,1,invalid_win,152.86395880003693,14,,,,,,,,,,,,,,,sub_100,2024-12-08_10h40.22.971,Reversal,2023.1.3,59.98559146294874,4,
6,exp1.png,exp2.png,,1,0,1,0,0,6,6,6,,,,,,,,,,,,,,,,,,,,,,,,,False,25,26,False,exp1.png,exp2.png,trial_left_image,1,exp1.png,4,exp2.png,exp1.png,0,2,non-reversed,incorrect,0.8930513708998802,0,valid_lose,157.61182300001383,14,,,,,,,,,,,,,,,sub_100,2024-12-08_10h40.22.971,Reversal,2023.1.3,59.98559146294874,4,
7,exp3.png,exp4.png,,1,0,1,0,0,7,7,7,,,,,,,,,,,,,,,,,,,,,,,,,False,26,27,False,exp3.png,exp4.png,trial_left_image,1,exp3.png,4,exp4.png,exp3.png,0,4,reversed,incorrect,0.09203381687445411,1,invalid_win,162.7101057000109,15,,,,,,,,,,,,,,,sub_100,2024-12-08_10h40.22.971,Reversal,2023.1.3,59.98559146294874,4,
8,exp1.png,exp2.png,,1,0,1,0,0,8,8,8,,,,,,,,,,,,,,,,,,,,,,,,,False,27,28,False,exp1.png,exp2.png,trial_left_image,1,exp1.png,4,exp2.png,exp1.png,0,2,non-reversed,incorrect,0.46618611742377625,0,valid_lose,170.45753390004393,15,,,,,,,,,,,,,,,sub_100,2024-12-08_10h40.22.971,Reversal,2023.1.3,59.98559146294874,4,
9,exp3.png,exp4.png,,1,0,1,0,0,9,9,9,,,,,,,,,,,,,,,,,,,,,,,,,False,28,29,True,exp4.png,exp3.png,trial_right_image,-1,exp3.png,4,exp4.png,exp3.png,0,4,reversed,incorrect,0.3326150634202467,0,valid_lose,176.98911110003246,15,,,,,,,,,,,,,,,sub_100,2024-12-08_10h40.22.971,Reversal,2023.1.3,59.98559146294874,4,
10,exp1.png,exp2.png,,1,0,1,0,0,10,10,10,,,,,,,,,,,,,,,,,,,,,,,,,False,29,30,True,exp2.png,exp1.png,trial_left_image,1,exp2.png,4,exp2.png,exp1.png,1,1,non-reversed,correct,0.3472745185063937,1,valid_win,181.88849990000017,16,,,,,,,,,,,,,,,sub_100,2024-12-08_10h40.22.971,Reversal,2023.1.3,59.98559146294874,4,
11,exp3.png,exp4.png,,1,0,1,0,0,11,11,11,,,,,,,,,,,,,,,,,,,,,,,,,False,30,31,True,exp4.png,exp3.png,trial_left_image,1,exp4.png,4,exp4.png,exp3.png,1,3,reversed,correct,0.14467521768123448,0,invalid_lose,186.96854760003043,16,,,,,,,,,,,,,,,sub_100,2024-12-08_10h40.22.971,Reversal,2023.1.3,59.98559146294874,4,
12,exp1.png,exp2.png,,1,0,1,0,0,12,12,12,,,,,,,,,,,,,,,,,,,,,,,,,False,31,32,False,exp1.png,exp2.png,trial_right_image,-1,exp2.png,4,exp2.png,exp1.png,1,1,non-reversed,correct,0.7983773459342421,1,valid_win,192.0007172000478,17,,,,,,,,,,,,,,,sub_100,2024-12-08_10h40.22.971,Reversal,2023.1.3,59.98559146294874,4,
13,exp3.png,exp4.png,,1,0,1,0,0,13,13,13,,,,,,,,,,,,,,,,,,,,,,,,,False,32,33,True,exp4.png,exp3.png,trial_right_image,-1,exp3.png,4,exp4.png,exp3.png,0,4,reversed,incorrect,0.6736489588143777,0,valid_lose,196.84867960005067,17,,,,,,,,,,,,,,,sub_100,2024-12-08_10h40.22.971,Reversal,2023.1.3,59.98559146294874,4,
14,exp1.png,exp2.png,,1,0,1,0,0,14,14,14,,,,,,,,,,,,,,,,,,,,,,,,,False,33,34,True,exp2.png,exp1.png,trial_right_image,-1,exp1.png,4,exp2.png,exp1.png,0,2,non-reversed,incorrect,0.8464857613773479,0,valid_lose,201.46362630004296,17,,,,,,,,,,,,,,,sub_100,2024-12-08_10h40.22.971,Reversal,2023.1.3,59.98559146294874,4,
15,exp3.png,exp4.png,,1,0,1,0,0,15,15,15,,,,,,,,,,,,,,,,,,,,,,,,,False,34,35,False,exp3.png,exp4.png,trial_left_image,1,exp3.png,4,exp4.png,exp3.png,0,4,reversed,incorrect,0.30029348448337845,0,valid_lose,206.82908290001797,17,,,,,,,,,,,,,,,sub_100,2024-12-08_10h40.22.971,Reversal,2023.1.3,59.98559146294874,4,
16,exp1.png,exp2.png,,1,0,1,0,0,16,16,16,,,,,,,,,,,,,,,,,,,,,,,,,False,35,36,True,exp2.png,exp1.png,trial_left_image,1,exp2.png,4,exp2.png,exp1.png,1,1,non-reversed,correct,0.29237875006102,1,valid_win,214.04260330001125,18,,,,,,,,,,,,,,,sub_100,2024-12-08_10h40.22.971,Reversal,2023.1.3,59.98559146294874,4,
17,exp3.png,exp4.png,,1,0,1,0,0,17,17,17,,,,,,,,,,,,,,,,,,,,,,,,,False,36,37,False,exp3.png,exp4.png,trial_left_image,1,exp3.png,4,exp4.png,exp3.png,0,4,reversed,incorrect,0.3206854977081305,0,valid_lose,219.12426050001523,18,,,,,,,,,,,,,,,sub_100,2024-12-08_10h40.22.971,Reversal,2023.1.3,59.98559146294874,4,
18,exp1.png,exp2.png,,1,0,1,0,0,18,18,18,,,,,,,,,,,,,,,,,,,,,,,,,False,37,38,True,exp2.png,exp1.png,trial_left_image,1,exp2.png,4,exp2.png,exp1.png,1,1,non-reversed,correct,0.6764033133130033,1,valid_win,224.43915320001543,19,,,,,,,,,,,,,,,sub_100,2024-12-08_10h40.22.971,Reversal,2023.1.3,59.98559146294874,4,
19,exp3.png,exp4.png,,1,0,1,0,0,19,19,19,,,,,,,,,,,,,,,,,,,,,,,,,False,38,39,False,exp3.png,exp4.png,trial_right_image,-1,exp4.png,4,exp4.png,exp3.png,1,3,reversed,correct,0.7788818190073165,1,valid_win,229.6712308000424,20,,,,,,,,,,,,,,,sub_100,2024-12-08_10h40.22.971,Reversal,2023.1.3,59.98559146294874,4,
20,exp1.png,exp2.png,,1,0,1,0,0,20,20,20,,,,,,,,,,,,,,,,,,,,,,,,,False,39,40,False,exp1.png,exp2.png,trial_left_image,1,exp1.png,4,exp2.png,exp1.png,0,2,non-reversed,incorrect,0.09282202688031638,1,invalid_win,235.41841159999603,21,,,,,,,,,,,,,,,sub_100,2024-12-08_10h40.22.971,Reversal,2023.1.3,59.98559146294874,4,
,,,exp1.png,1,0,1,0,,,,,0,0,0,0,0,0,0,0,,,,,,,,,,,,,,,,,,,,,,,,,,,,,,,,,,,,,,312.70464000001084,87.0,87.0,5.03648599999724,"[(87.0, 5.03648599999724)]",,,,,,,,,,sub_100,2024-12-08_10h40.22.971,Reversal,2023.1.3,59.98559146294874,4,
,,,exp2.png,1,0,1,0,,,,,0,0,0,0,0,1,1,1,,,,,,,,,,,,,,,,,,,,,,,,,,,,,,,,,,,,,,319.06016870000167,,78.0,2.7102915000286885,"[(78.0, 2.7102915000286885)]",78.0,,,,,,,,,sub_100,2024-12-08_10h40.22.971,Reversal,2023.1.3,59.98559146294874,4,
,,,exp3.png,1,0,1,0,,,,,0,0,0,0,0,2,2,2,,,,,,,,,,,,,,,,,,,,,,,,,,,,,,,,,,,,,,322.92461579997325,,70.0,2.6623426000005566,"[(70.0, 2.6623426000005566)]",,70.0,,,,,,,,sub_100,2024-12-08_10h40.22.971,Reversal,2023.1.3,59.98559146294874,4,
,,,exp4.png,1,0,1,0,,,,,0,0,0,0,0,3,3,3,,,,,,,,,,,,,,,,,,,,,,,,,,,,,,,,,,,,,,326.774010299996,,32.0,2.4432034000055864,"[(32.0, 2.4432034000055864)]",,,32.0,,,,,,,sub_100,2024-12-08_10h40.22.971,Reversal,2023.1.3,59.98559146294874,4,
0,exp1.png,exp2.png,,2,0,2,0,0,0,0,0,,,,,,,,,,,,,,,,,,,,,,,,,True,,,,,,,,,,,,,,,,,,,,,,,,,,,,,,,,,,,sub_100,2024-12-08_10h40.22.971,Reversal,2023.1.3,59.98559146294874,4,
1,exp3.png,exp4.png,,2,0,2,0,0,1,1,1,,,,,,,,,,,,,,,,,,,,,,,,,False,40,41,True,exp4.png,exp3.png,trial_left_image,1,exp4.png,4,exp4.png,exp3.png,1,3,reversed,correct,0.45238588888874254,1,valid_win,258.56062330002896,22,,,,,,,,,,,,,,,sub_100,2024-12-08_10h40.22.971,Reversal,2023.1.3,59.98559146294874,4,
2,exp1.png,exp2.png,,2,0,2,0,0,2,2,2,,,,,,,,,,,,,,,,,,,,,,,,,False,41,42,True,exp2.png,exp1.png,trial_left_image,1,exp2.png,4,exp2.png,exp1.png,1,1,non-reversed,correct,0.524884321121164,1,valid_win,264.2426431000349,23,,,,,,,,,,,,,,,sub_100,2024-12-08_10h40.22.971,Reversal,2023.1.3,59.98559146294874,4,
3,exp3.png,exp4.png,,2,0,2,0,0,3,3,3,,,,,,,,,,,,,,,,,,,,,,,,,False,42,43,False,exp3.png,exp4.png,trial_right_image,-1,exp4.png,4,exp4.png,exp3.png,1,3,reversed,correct,0.49880184913029657,1,valid_win,268.8411242000293,24,,,,,,,,,,,,,,,sub_100,2024-12-08_10h40.22.971,Reversal,2023.1.3,59.98559146294874,4,
4,exp1.png,exp2.png,,2,0,2,0,0,4,4,4,,,,,,,,,,,,,,,,,,,,,,,,,False,43,44,True,exp2.png,exp1.png,trial_right_image,-1,exp1.png,4,exp2.png,exp1.png,0,2,non-reversed,incorrect,0.3239600352130878,0,valid_lose,273.90599660004955,24,,,,,,,,,,,,,,,sub_100,2024-12-08_10h40.22.971,Reversal,2023.1.3,59.98559146294874,4,
5,exp3.png,exp4.png,,2,0,2,0,0,5,5,5,,,,,,,,,,,,,,,,,,,,,,,,,False,44,45,False,exp3.png,exp4.png,trial_right_image,-1,exp4.png,4,exp4.png,exp3.png,1,3,reversed,correct,0.48310234976251665,1,valid_win,278.6708077000221,25,,,,,,,,,,,,,,,sub_100,2024-12-08_10h40.22.971,Reversal,2023.1.3,59.98559146294874,4,
6,exp1.png,exp2.png,,2,0,2,0,0,6,6,6,,,,,,,,,,,,,,,,,,,,,,,,,False,45,46,False,exp1.png,exp2.png,trial_right_image,-1,exp2.png,4,exp2.png,exp1.png,1,1,non-reversed,correct,0.796305414940947,1,valid_win,284.4190772000002,26,,,,,,,,,,,,,,,sub_100,2024-12-08_10h40.22.971,Reversal,2023.1.3,59.98559146294874,4,
7,exp3.png,exp4.png,,2,0,2,0,0,7,7,7,,,,,,,,,,,,,,,,,,,,,,,,,False,46,47,True,exp4.png,exp3.png,trial_left_image,1,exp4.png,4,exp4.png,exp3.png,1,3,reversed,correct,0.5796399687344872,1,valid_win,289.23352190002333,27,,,,,,,,,,,,,,,sub_100,2024-12-08_10h40.22.971,Reversal,2023.1.3,59.98559146294874,4,
8,exp1.png,exp2.png,,2,0,2,0,0,8,8,8,,,,,,,,,,,,,,,,,,,,,,,,,False,47,48,True,exp2.png,exp1.png,trial_left_image,1,exp2.png,4,exp2.png,exp1.png,1,1,non-reversed,correct,0.5873811062329427,1,valid_win,294.61679000000004,28,,,,,,,,,,,,,,,sub_100,2024-12-08_10h40.22.971,Reversal,2023.1.3,59.98559146294874,4,
9,exp3.png,exp4.png,,2,0,2,0,0,9,9,9,,,,,,,,,,,,,,,,,,,,,,,,,False,48,49,False,exp3.png,exp4.png,trial_right_image,-1,exp4.png,4,exp4.png,exp3.png,1,3,reversed,correct,0.9872137384851196,1,valid_win,302.14584000001196,29,,,,,,,,,,,,,,,sub_100,2024-12-08_10h40.22.971,Reversal,2023.1.3,59.98559146294874,4,
10,exp1.png,exp2.png,,2,0,2,0,0,10,10,10,,,,,,,,,,,,,,,,,,,,,,,,,False,49,50,True,exp2.png,exp1.png,trial_left_image,1,exp2.png,4,exp2.png,exp1.png,1,1,non-reversed,correct,0.9896585605369628,1,valid_win,307.544644300011,30,,,,,,,,,,,,,,,sub_100,2024-12-08_10h40.22.971,Reversal,2023.1.3,59.98559146294874,4,
11,exp3.png,exp4.png,,2,0,2,0,0,11,11,11,,,,,,,,,,,,,,,,,,,,,,,,,False,50,51,False,exp3.png,exp4.png,trial_right_image,-1,exp4.png,4,exp4.png,exp3.png,1,3,reversed,correct,0.7576167448851452,1,valid_win,311.89286100002937,31,,,,,,,,,,,,,,,sub_100,2024-12-08_10h40.22.971,Reversal,2023.1.3,59.98559146294874,4,
12,exp1.png,exp2.png,,2,0,2,0,0,12,12,12,,,,,,,,,,,,,,,,,,,,,,,,,False,51,52,True,exp2.png,exp1.png,trial_left_image,1,exp2.png,4,exp2.png,exp1.png,1,1,non-reversed,correct,0.2189451876904268,0,invalid_lose,317.0909724000376,31,,,,,,,,,,,,,,,sub_100,2024-12-08_10h40.22.971,Reversal,2023.1.3,59.98559146294874,4,
13,exp3.png,exp4.png,,2,0,2,0,0,13,13,13,,,,,,,,,,,,,,,,,,,,,,,,,False,52,53,False,exp3.png,exp4.png,trial_right_image,-1,exp4.png,4,exp4.png,exp3.png,1,3,reversed,correct,0.25371474734644506,1,valid_win,322.5729217000189,32,,,,,,,,,,,,,,,sub_100,2024-12-08_10h40.22.971,Reversal,2023.1.3,59.98559146294874,4,
14,exp1.png,exp2.png,,2,0,2,0,0,14,14,14,,,,,,,,,,,,,,,,,,,,,,,,,False,53,54,False,exp1.png,exp2.png,trial_left_image,1,exp1.png,4,exp2.png,exp1.png,0,2,non-reversed,incorrect,0.057780499872974844,1,invalid_win,328.78712039999664,33,,,,,,,,,,,,,,,sub_100,2024-12-08_10h40.22.971,Reversal,2023.1.3,59.98559146294874,4,
15,exp3.png,exp4.png,,2,0,2,0,0,15,15,15,,,,,,,,,,,,,,,,,,,,,,,,,False,54,55,True,exp4.png,exp3.png,trial_left_image,1,exp4.png,4,exp4.png,exp3.png,1,3,reversed,correct,0.8220326104838773,1,valid_win,333.53635760000907,34,,,,,,,,,,,,,,,sub_100,2024-12-08_10h40.22.971,Reversal,2023.1.3,59.98559146294874,4,
16,exp1.png,exp2.png,,2,0,2,0,0,16,16,16,,,,,,,,,,,,,,,,,,,,,,,,,False,55,56,False,exp1.png,exp2.png,trial_left_image,1,exp1.png,4,exp2.png,exp1.png,0,2,non-reversed,incorrect,0.7838784600922164,0,valid_lose,338.933626300015,34,,,,,,,,,,,,,,,sub_100,2024-12-08_10h40.22.971,Reversal,2023.1.3,59.98559146294874,4,
17,exp3.png,exp4.png,,2,0,2,0,0,17,17,17,,,,,,,,,,,,,,,,,,,,,,,,,False,56,57,True,exp4.png,exp3.png,trial_left_image,1,exp4.png,4,exp4.png,exp3.png,1,3,reversed,correct,0.10341870782685914,0,invalid_lose,343.8324338000384,34,,,,,,,,,,,,,,,sub_100,2024-12-08_10h40.22.971,Reversal,2023.1.3,59.98559146294874,4,
18,exp1.png,exp2.png,,2,0,2,0,0,18,18,18,,,,,,,,,,,,,,,,,,,,,,,,,False,57,58,False,exp1.png,exp2.png,trial_right_image,-1,exp2.png,4,exp2.png,exp1.png,1,1,non-reversed,correct,0.21575098969242945,0,invalid_lose,349.5799431000487,34,,,,,,,,,,,,,,,sub_100,2024-12-08_10h40.22.971,Reversal,2023.1.3,59.98559146294874,4,
19,exp3.png,exp4.png,,2,0,2,0,0,19,19,19,,,,,,,,,,,,,,,,,,,,,,,,,False,58,59,False,exp3.png,exp4.png,trial_right_image,-1,exp4.png,4,exp4.png,exp3.png,1,3,reversed,correct,0.27483025063742306,1,valid_win,353.9949875000166,35,,,,,,,,,,,,,,,sub_100,2024-12-08_10h40.22.971,Reversal,2023.1.3,59.98559146294874,4,
20,exp1.png,exp2.png,,2,0,2,0,0,20,20,20,,,,,,,,,,,,,,,,,,,,,,,,,False,59,60,True,exp2.png,exp1.png,trial_left_image,1,exp2.png,4,exp2.png,exp1.png,1,1,non-reversed,correct,0.8095327695690573,1,valid_win,360.65968060004525,36,,,,,,,,,,,,,,,sub_100,2024-12-08_10h40.22.971,Reversal,2023.1.3,59.98559146294874,4,
,,,exp1.png,2,0,2,0,,,,,0,0,0,0,0,0,0,0,,,,,,,,,,,,,,,,,,,,,,,,,,,,,,,,,,,,,,437.92712940002093,28.0,28.0,4.736975700012408,"[(28.0, 4.736975700012408)]",,,,,,,,,,sub_100,2024-12-08_10h40.22.971,Reversal,2023.1.3,59.98559146294874,4,
,,,exp2.png,2,0,2,0,,,,,0,0,0,0,0,1,1,1,,,,,,,,,,,,,,,,,,,,,,,,,,,,,,,,,,,,,,443.7188219000236,,71.0,2.5760007999488153,"[(71.0, 2.5760007999488153)]",71.0,,,,,,,,,sub_100,2024-12-08_10h40.22.971,Reversal,2023.1.3,59.98559146294874,4,
,,,exp3.png,2,0,2,0,,,,,0,0,0,0,0,2,2,2,,,,,,,,,,,,,,,,,,,,,,,,,,,,,,,,,,,,,,448.0005388999707,,39.0,4.310674000007566,"[(40.0, 2.0267525000381283), (39.0, 4.310674000007566)]",,39.0,,,,,,,,sub_100,2024-12-08_10h40.22.971,Reversal,2023.1.3,59.98559146294874,4,
,,,exp4.png,2,0,2,0,,,,,0,0,0,0,0,3,3,3,,,,,,,,,,,,,,,,,,,,,,,,,,,,,,,,,,,,,,453.1820863999892,,86.0,2.1945354000199586,"[(86.0, 2.1945354000199586)]",,,86.0,,,,,,,sub_100,2024-12-08_10h40.22.971,Reversal,2023.1.3,59.98559146294874,4,
0,exp1.png,exp2.png,,,,,,,,,,,,,,,,,,0,0,0,0,0,0,0,0,,,,,,,,,True,,,,,,,,,,,,,,,,,,,,,,,,,,,,,,,,,,,sub_100,2024-12-08_10h40.22.971,Reversal,2023.1.3,59.98559146294874,4,
1,exp3.png,exp4.png,,,,,,,,,,,,,,,,,,0,0,0,0,0,1,1,1,,,,,,,,,False,0,61,False,exp3.png,exp4.png,trial_right_image,-1,exp4.png,4,exp3.png,exp4.png,1,3,reversed,incorrect,0.20124153897964292,1,invalid_win,384.60225320002064,37,,,,,,,,,381.7666425000061,,,,,,sub_100,2024-12-08_10h40.22.971,Reversal,2023.1.3,59.98559146294874,4,
2,exp1.png,exp2.png,,,,,,,,,,,,,,,,,,0,0,0,0,0,2,2,2,,,,,,,,,False,1,62,True,exp2.png,exp1.png,trial_right_image,-1,exp1.png,4,exp2.png,exp1.png,0,2,non-reversed,incorrect,0.9000593141445895,0,valid_lose,389.4998425000231,37,,,,,,,,,,,,,,,sub_100,2024-12-08_10h40.22.971,Reversal,2023.1.3,59.98559146294874,4,
3,exp3.png,exp4.png,,,,,,,,,,,,,,,,,,0,0,0,0,0,3,3,3,,,,,,,,,False,2,63,True,exp4.png,exp3.png,trial_left_image,1,exp4.png,4,exp3.png,exp4.png,1,3,reversed,incorrect,0.12874791371401806,1,invalid_win,394.048379200045,38,,,,,,,,,,,,,,,sub_100,2024-12-08_10h40.22.971,Reversal,2023.1.3,59.98559146294874,4,
4,exp1.png,exp2.png,,,,,,,,,,,,,,,,,,0,0,0,0,0,4,4,4,,,,,,,,,False,3,64,False,exp1.png,exp2.png,trial_right_image,-1,exp2.png,4,exp2.png,exp1.png,1,1,non-reversed,correct,0.507920591383479,1,valid_win,400.1461760000093,39,,,,,,,,,,,,,,,sub_100,2024-12-08_10h40.22.971,Reversal,2023.1.3,59.98559146294874,4,
5,exp3.png,exp4.png,,,,,,,,,,,,,,,,,,0,0,0,0,0,5,5,5,,,,,,,,,False,4,65,False,exp3.png,exp4.png,trial_right_image,-1,exp4.png,4,exp3.png,exp4.png,1,3,reversed,incorrect,0.9674316973472541,0,valid_lose,404.29488350002794,39,,,,,,,,,,,,,,,sub_100,2024-12-08_10h40.22.971,Reversal,2023.1.3,59.98559146294874,4,
6,exp1.png,exp2.png,,,,,,,,,,,,,,,,,,0,0,0,0,0,6,6,6,,,,,,,,,False,5,66,False,exp1.png,exp2.png,trial_right_image,-1,exp2.png,4,exp2.png,exp1.png,1,1,non-reversed,correct,0.7606728042693621,1,valid_win,408.92654670000775,40,,,,,,,,,,,,,,,sub_100,2024-12-08_10h40.22.971,Reversal,2023.1.3,59.98559146294874,4,
7,exp3.png,exp4.png,,,,,,,,,,,,,,,,,,0,0,0,0,0,7,7,7,,,,,,,,,False,6,67,True,exp4.png,exp3.png,trial_right_image,-1,exp3.png,4,exp3.png,exp4.png,0,4,reversed,correct,0.8336806601327968,1,valid_win,413.49230480002007,41,,,,,,,,,,,,,,,sub_100,2024-12-08_10h40.22.971,Reversal,2023.1.3,59.98559146294874,4,
8,exp1.png,exp2.png,,,,,,,,,,,,,,,,,,0,0,0,0,0,8,8,8,,,,,,,,,False,7,68,False,exp1.png,exp2.png,trial_right_image,-1,exp2.png,4,exp2.png,exp1.png,1,1,non-reversed,correct,0.7476311168342412,1,valid_win,418.3399374000146,42,,,,,,,,,,,,,,,sub_100,2024-12-08_10h40.22.971,Reversal,2023.1.3,59.98559146294874,4,
9,exp3.png,exp4.png,,,,,,,,,,,,,,,,,,0,0,0,0,0,9,9,9,,,,,,,,,False,8,69,True,exp4.png,exp3.png,trial_right_image,-1,exp3.png,4,exp3.png,exp4.png,0,4,reversed,correct,0.24663643725811468,0,invalid_lose,422.8385124000488,42,,,,,,,,,,,,,,,sub_100,2024-12-08_10h40.22.971,Reversal,2023.1.3,59.98559146294874,4,
10,exp1.png,exp2.png,,,,,,,,,,,,,,,,,,0,0,0,0,0,10,10,10,,,,,,,,,False,9,70,False,exp1.png,exp2.png,trial_right_image,-1,exp2.png,4,exp2.png,exp1.png,1,1,non-reversed,correct,0.3830470008270669,1,valid_win,429.536175700021,43,,,,,,,,,,,,,,,sub_100,2024-12-08_10h40.22.971,Reversal,2023.1.3,59.98559146294874,4,
11,exp3.png,exp4.png,,,,,,,,,,,,,,,,,,0,0,0,0,0,11,11,11,,,,,,,,,False,10,71,True,exp4.png,exp3.png,trial_left_image,1,exp4.png,4,exp3.png,exp4.png,1,3,reversed,incorrect,0.09252976310839767,1,invalid_win,434.4178718000185,44,,,,,,,,,,,,,,,sub_100,2024-12-08_10h40.22.971,Reversal,2023.1.3,59.98559146294874,4,
12,exp1.png,exp2.png,,,,,,,,,,,,,,,,,,0,0,0,0,0,12,12,12,,,,,,,,,False,11,72,False,exp1.png,exp2.png,trial_right_image,-1,exp2.png,4,exp2.png,exp1.png,1,1,non-reversed,correct,0.4070450972462417,1,valid_win,440.3999557000352,45,,,,,,,,,,,,,,,sub_100,2024-12-08_10h40.22.971,Reversal,2023.1.3,59.98559146294874,4,
13,exp3.png,exp4.png,,,,,,,,,,,,,,,,,,0,0,0,0,0,13,13,13,,,,,,,,,False,12,73,True,exp4.png,exp3.png,trial_left_image,1,exp4.png,4,exp3.png,exp4.png,1,3,reversed,incorrect,0.6500228799509226,0,valid_lose,445.59779970004456,45,,,,,,,,,,,,,,,sub_100,2024-12-08_10h40.22.971,Reversal,2023.1.3,59.98559146294874,4,
14,exp1.png,exp2.png,,,,,,,,,,,,,,,,,,0,0,0,0,0,14,14,14,,,,,,,,,False,13,74,False,exp1.png,exp2.png,trial_right_image,-1,exp2.png,4,exp2.png,exp1.png,1,1,non-reversed,correct,0.28555792221121323,1,valid_win,450.89622190000955,46,,,,,,,,,,,,,,,sub_100,2024-12-08_10h40.22.971,Reversal,2023.1.3,59.98559146294874,4,
15,exp3.png,exp4.png,,,,,,,,,,,,,,,,,,0,0,0,0,0,15,15,15,,,,,,,,,False,14,75,True,exp4.png,exp3.png,trial_right_image,-1,exp3.png,4,exp3.png,exp4.png,0,4,reversed,correct,0.3552333507989661,1,valid_win,455.44417470000917,47,,,,,,,,,,,,,,,sub_100,2024-12-08_10h40.22.971,Reversal,2023.1.3,59.98559146294874,4,
16,exp1.png,exp2.png,,,,,,,,,,,,,,,,,,0,0,0,0,0,16,16,16,,,,,,,,,False,15,76,True,exp2.png,exp1.png,trial_left_image,1,exp2.png,4,exp2.png,exp1.png,1,1,non-reversed,correct,0.44572137475397056,1,valid_win,460.54254170000786,48,,,,,,,,,,,,,,,sub_100,2024-12-08_10h40.22.971,Reversal,2023.1.3,59.98559146294874,4,
17,exp3.png,exp4.png,,,,,,,,,,,,,,,,,,0,0,0,0,0,17,17,17,,,,,,,,,False,16,77,True,exp4.png,exp3.png,trial_left_image,1,exp4.png,4,exp3.png,exp4.png,1,3,reversed,incorrect,0.15879219362014407,1,invalid_win,465.4406516000163,49,,,,,,,,,,,,,,,sub_100,2024-12-08_10h40.22.971,Reversal,2023.1.3,59.98559146294874,4,
18,exp1.png,exp2.png,,,,,,,,,,,,,,,,,,0,0,0,0,0,18,18,18,,,,,,,,,False,17,78,True,exp2.png,exp1.png,trial_left_image,1,exp2.png,4,exp2.png,exp1.png,1,1,non-reversed,correct,0.14361339419758345,0,invalid_lose,471.22246620000806,49,,,,,,,,,,,,,,,sub_100,2024-12-08_10h40.22.971,Reversal,2023.1.3,59.98559146294874,4,
19,exp3.png,exp4.png,,,,,,,,,,,,,,,,,,0,0,0,0,0,19,19,19,,,,,,,,,False,18,79,False,exp3.png,exp4.png,trial_left_image,1,exp3.png,4,exp3.png,exp4.png,0,4,reversed,correct,0.6158096715393744,1,valid_win,476.5535690000397,50,,,,,,,,,,,,,,,sub_100,2024-12-08_10h40.22.971,Reversal,2023.1.3,59.98559146294874,4,
20,exp1.png,exp2.png,,,,,,,,,,,,,,,,,,0,0,0,0,0,20,20,20,,,,,,,,,False,19,80,False,exp1.png,exp2.png,trial_left_image,1,exp1.png,4,exp2.png,exp1.png,0,2,non-reversed,incorrect,0.45437037912800116,0,valid_lose,482.18521790002706,50,,,,,,,,,,,,,,,sub_100,2024-12-08_10h40.22.971,Reversal,2023.1.3,59.98559146294874,4,
,,,exp1.png,,,,,,,,,,,,,,,,,0,0,0,0,,,,,0,0,0,0,0,0,0,0,,,,,,,,,,,,,,,,,,,,,,559.4484997999971,27.0,27.0,6.175902499991935,"[(27.0, 6.175902499991935)]",,,,,,,,,,sub_100,2024-12-08_10h40.22.971,Reversal,2023.1.3,59.98559146294874,4,
,,,exp2.png,,,,,,,,,,,,,,,,,0,0,0,0,,,,,0,0,0,0,0,1,1,1,,,,,,,,,,,,,,,,,,,,,,568.5406489999732,,27.0,2.110848899988923,"[(27.0, 2.110848899988923)]",27.0,,,,,,,,,sub_100,2024-12-08_10h40.22.971,Reversal,2023.1.3,59.98559146294874,4,
,,,exp3.png,,,,,,,,,,,,,,,,,0,0,0,0,,,,,0,0,0,0,0,2,2,2,,,,,,,,,,,,,,,,,,,,,,571.5900853999774,,None,None,[],,,,,,,,,,sub_100,2024-12-08_10h40.22.971,Reversal,2023.1.3,59.98559146294874,4,
,,,exp4.png,,,,,,,,,,,,,,,,,0,0,0,0,,,,,0,0,0,0,0,3,3,3,,,,,,,,,,,,,,,,,,,,,,575.6384078999981,,None,None,[],,,,,,,,,,sub_100,2024-12-08_10h40.22.971,Reversal,2023.1.3,59.98559146294874,4,
0,exp1.png,exp2.png,,,,,,,,,,,,,,,,,,1,0,1,0,0,0,0,0,,,,,,,,,True,,,,,,,,,,,,,,,,,,,,,,,,,,,,,,,,,,,sub_100,2024-12-08_10h40.22.971,Reversal,2023.1.3,59.98559146294874,4,
1,exp3.png,exp4.png,,,,,,,,,,,,,,,,,,1,0,1,0,0,1,1,1,,,,,,,,,False,20,81,True,exp4.png,exp3.png,trial_right_image,-1,exp3.png,4,exp3.png,exp4.png,0,4,reversed,correct,0.12627232396481403,0,invalid_lose,505.3606720000389,50,,,,,,,,,,,,,,,sub_100,2024-12-08_10h40.22.971,Reversal,2023.1.3,59.98559146294874,4,
2,exp1.png,exp2.png,,,,,,,,,,,,,,,,,,1,0,1,0,0,2,2,2,,,,,,,,,False,21,82,False,exp1.png,exp2.png,trial_right_image,-1,exp2.png,4,exp2.png,exp1.png,1,1,non-reversed,correct,0.11361151866353214,0,invalid_lose,511.992289900023,50,,,,,,,,,,,,,,,sub_100,2024-12-08_10h40.22.971,Reversal,2023.1.3,59.98559146294874,4,
3,exp3.png,exp4.png,,,,,,,,,,,,,,,,,,1,0,1,0,0,3,3,3,,,,,,,,,False,22,83,False,exp3.png,exp4.png,trial_left_image,1,exp3.png,4,exp3.png,exp4.png,0,4,reversed,correct,0.5667286537982572,1,valid_win,516.4404390000273,51,,,,,,,,,,,,,,,sub_100,2024-12-08_10h40.22.971,Reversal,2023.1.3,59.98559146294874,4,
4,exp1.png,exp2.png,,,,,,,,,,,,,,,,,,1,0,1,0,0,4,4,4,,,,,,,,,False,23,84,True,exp2.png,exp1.png,trial_left_image,1,exp2.png,4,exp2.png,exp1.png,1,1,non-reversed,correct,0.6593636993126981,1,valid_win,521.3393034000183,52,,,,,,,,,,,,,,,sub_100,2024-12-08_10h40.22.971,Reversal,2023.1.3,59.98559146294874,4,
5,exp3.png,exp4.png,,,,,,,,,,,,,,,,,,1,0,1,0,0,5,5,5,,,,,,,,,False,24,85,True,exp4.png,exp3.png,trial_right_image,-1,exp3.png,4,exp3.png,exp4.png,0,4,reversed,correct,0.6859877621932264,1,valid_win,525.7700743000023,53,,,,,,,,,,,,,,,sub_100,2024-12-08_10h40.22.971,Reversal,2023.1.3,59.98559146294874,4,
6,exp1.png,exp2.png,,,,,,,,,,,,,,,,,,1,0,1,0,0,6,6,6,,,,,,,,,False,25,86,True,exp2.png,exp1.png,trial_left_image,1,exp2.png,4,exp2.png,exp1.png,1,1,non-reversed,correct,0.6569354715761087,1,valid_win,531.3018423000467,54,,,,,,,,,,,,,,,sub_100,2024-12-08_10h40.22.971,Reversal,2023.1.3,59.98559146294874,4,
7,exp3.png,exp4.png,,,,,,,,,,,,,,,,,,1,0,1,0,0,7,7,7,,,,,,,,,False,26,87,False,exp3.png,exp4.png,trial_left_image,1,exp3.png,4,exp3.png,exp4.png,0,4,reversed,correct,0.06485857407044882,0,invalid_lose,535.9509665000369,54,,,,,,,,,,,,,,,sub_100,2024-12-08_10h40.22.971,Reversal,2023.1.3,59.98559146294874,4,
8,exp1.png,exp2.png,,,,,,,,,,,,,,,,,,1,0,1,0,0,8,8,8,,,,,,,,,False,27,88,False,exp1.png,exp2.png,trial_left_image,1,exp1.png,4,exp2.png,exp1.png,0,2,non-reversed,incorrect,0.3168704698136553,0,valid_lose,541.1984842999955,54,,,,,,,,,,,,,,,sub_100,2024-12-08_10h40.22.971,Reversal,2023.1.3,59.98559146294874,4,
9,exp3.png,exp4.png,,,,,,,,,,,,,,,,,,1,0,1,0,0,9,9,9,,,,,,,,,False,28,89,False,exp3.png,exp4.png,trial_left_image,1,exp3.png,4,exp3.png,exp4.png,0,4,reversed,correct,0.5150250857066517,1,valid_win,546.7297906000167,55,,,,,,,,,,,,,,,sub_100,2024-12-08_10h40.22.971,Reversal,2023.1.3,59.98559146294874,4,
10,exp1.png,exp2.png,,,,,,,,,,,,,,,,,,1,0,1,0,0,10,10,10,,,,,,,,,False,29,90,False,exp1.png,exp2.png,trial_right_image,-1,exp2.png,4,exp2.png,exp1.png,1,1,non-reversed,correct,0.9588676485786439,1,valid_win,552.0946236000163,56,,,,,,,,,,,,,,,sub_100,2024-12-08_10h40.22.971,Reversal,2023.1.3,59.98559146294874,4,
11,exp3.png,exp4.png,,,,,,,,,,,,,,,,,,1,0,1,0,0,11,11,11,,,,,,,,,False,30,91,True,exp4.png,exp3.png,trial_left_image,1,exp4.png,4,exp3.png,exp4.png,1,3,reversed,incorrect,0.41491842297422454,0,valid_lose,556.3933623000048,56,,,,,,,,,,,,,,,sub_100,2024-12-08_10h40.22.971,Reversal,2023.1.3,59.98559146294874,4,
12,exp1.png,exp2.png,,,,,,,,,,,,,,,,,,1,0,1,0,0,12,12,12,,,,,,,,,False,31,92,True,exp2.png,exp1.png,trial_right_image,-1,exp1.png,4,exp2.png,exp1.png,0,2,non-reversed,incorrect,0.3103259599849154,0,valid_lose,561.5589768000063,56,,,,,,,,,,,,,,,sub_100,2024-12-08_10h40.22.971,Reversal,2023.1.3,59.98559146294874,4,
13,exp3.png,exp4.png,,,,,,,,,,,,,,,,,,1,0,1,0,0,13,13,13,,,,,,,,,False,32,93,True,exp4.png,exp3.png,trial_left_image,1,exp4.png,4,exp3.png,exp4.png,1,3,reversed,incorrect,0.029125642351985115,1,invalid_win,568.0398284000112,57,,,,,,,,,,,,,,,sub_100,2024-12-08_10h40.22.971,Reversal,2023.1.3,59.98559146294874,4,
14,exp1.png,exp2.png,,,,,,,,,,,,,,,,,,1,0,1,0,0,14,14,14,,,,,,,,,False,33,94,False,exp1.png,exp2.png,trial_right_image,-1,exp2.png,4,exp2.png,exp1.png,1,1,non-reversed,correct,0.5490077636476456,1,valid_win,573.8040369000519,58,,,,,,,,,,,,,,,sub_100,2024-12-08_10h40.22.971,Reversal,2023.1.3,59.98559146294874,4,
15,exp3.png,exp4.png,,,,,,,,,,,,,,,,,,1,0,1,0,0,15,15,15,,,,,,,,,False,34,95,False,exp3.png,exp4.png,trial_left_image,1,exp3.png,4,exp3.png,exp4.png,0,4,reversed,correct,0.188144939730166,0,invalid_lose,579.0027634000289,58,,,,,,,,,,,,,,,sub_100,2024-12-08_10h40.22.971,Reversal,2023.1.3,59.98559146294874,4,
16,exp1.png,exp2.png,,,,,,,,,,,,,,,,,,1,0,1,0,0,16,16,16,,,,,,,,,False,35,96,True,exp2.png,exp1.png,trial_left_image,1,exp2.png,4,exp2.png,exp1.png,1,1,non-reversed,correct,0.8100595823326395,1,valid_win,584.7006627999945,59,,,,,,,,,,,,,,,sub_100,2024-12-08_10h40.22.971,Reversal,2023.1.3,59.98559146294874,4,
17,exp3.png,exp4.png,,,,,,,,,,,,,,,,,,1,0,1,0,0,17,17,17,,,,,,,,,False,36,97,False,exp3.png,exp4.png,trial_right_image,-1,exp4.png,4,exp3.png,exp4.png,1,3,reversed,incorrect,0.8110175554220853,0,valid_lose,588.733411000052,59,,,,,,,,,,,,,,,sub_100,2024-12-08_10h40.22.971,Reversal,2023.1.3,59.98559146294874,4,
18,exp1.png,exp2.png,,,,,,,,,,,,,,,,,,1,0,1,0,0,18,18,18,,,,,,,,,False,37,98,False,exp1.png,exp2.png,trial_left_image,1,exp1.png,4,exp2.png,exp1.png,0,2,non-reversed,incorrect,0.8762371714233859,0,valid_lose,593.2973675000248,59,,,,,,,,,,,,,,,sub_100,2024-12-08_10h40.22.971,Reversal,2023.1.3,59.98559146294874,4,
19,exp3.png,exp4.png,,,,,,,,,,,,,,,,,,1,0,1,0,0,19,19,19,,,,,,,,,False,38,99,True,exp4.png,exp3.png,trial_right_image,-1,exp3.png,4,exp3.png,exp4.png,0,4,reversed,correct,0.17301673639114978,0,invalid_lose,598.5621209000237,59,,,,,,,,,,,,,,,sub_100,2024-12-08_10h40.22.971,Reversal,2023.1.3,59.98559146294874,4,
20,exp1.png,exp2.png,,,,,,,,,,,,,,,,,,1,0,1,0,0,20,20,20,,,,,,,,,False,39,100,True,exp2.png,exp1.png,trial_right_image,-1,exp1.png,4,exp2.png,exp1.png,0,2,non-reversed,incorrect,0.11143789748576904,1,invalid_win,602.5942361000343,60,,,,,,,,,,,,,,,sub_100,2024-12-08_10h40.22.971,Reversal,2023.1.3,59.98559146294874,4,
,,,exp1.png,,,,,,,,,,,,,,,,,1,0,1,0,,,,,0,0,0,0,0,0,0,0,,,,,,,,,,,,,,,,,,,,,,679.8561704999884,64.0,64.0,8.692457699973602,"[(64.0, 8.692457699973602)]",,,,,,,,,,sub_100,2024-12-08_10h40.22.971,Reversal,2023.1.3,59.98559146294874,4,
,,,exp2.png,,,,,,,,,,,,,,,,,1,0,1,0,,,,,0,0,0,0,0,1,1,1,,,,,,,,,,,,,,,,,,,,,,689.4841003000038,,23.0,2.7785010000225157,"[(23.0, 2.7785010000225157)]",23.0,,,,,,,,,sub_100,2024-12-08_10h40.22.971,Reversal,2023.1.3,59.98559146294874,4,
,,,exp3.png,,,,,,,,,,,,,,,,,1,0,1,0,,,,,0,0,0,0,0,2,2,2,,,,,,,,,,,,,,,,,,,,,,693.2485707000014,,44.0,5.927572300017346,"[(44.0, 5.927572300017346)]",,44.0,,,,,,,,sub_100,2024-12-08_10h40.22.971,Reversal,2023.1.3,59.98559146294874,4,
,,,exp4.png,,,,,,,,,,,,,,,,,1,0,1,0,,,,,0,0,0,0,0,3,3,3,,,,,,,,,,,,,,,,,,,,,,700.8303777999827,,66.0,2.077087100013159,"[(66.0, 2.077087100013159)]",,,66.0,,,,,,,sub_100,2024-12-08_10h40.22.971,Reversal,2023.1.3,59.98559146294874,4,
0,exp1.png,exp2.png,,,,,,,,,,,,,,,,,,2,0,2,0,0,0,0,0,,,,,,,,,True,,,,,,,,,,,,,,,,,,,,,,,,,,,,,,,,,,,sub_100,2024-12-08_10h40.22.971,Reversal,2023.1.3,59.98559146294874,4,
1,exp3.png,exp4.png,,,,,,,,,,,,,,,,,,2,0,2,0,0,1,1,1,,,,,,,,,False,40,101,False,exp3.png,exp4.png,trial_right_image,-1,exp4.png,4,exp3.png,exp4.png,1,3,reversed,incorrect,0.6477558985182702,0,valid_lose,631.8842670000158,60,,,,,,,,,,,,,,,sub_100,2024-12-08_10h40.22.971,Reversal,2023.1.3,59.98559146294874,4,
2,exp1.png,exp2.png,,,,,,,,,,,,,,,,,,2,0,2,0,0,2,2,2,,,,,,,,,False,41,102,False,exp1.png,exp2.png,trial_right_image,-1,exp2.png,4,exp2.png,exp1.png,1,1,non-reversed,correct,0.3041679464058913,1,valid_win,637.0824435999966,61,,,,,,,,,,,,,,,sub_100,2024-12-08_10h40.22.971,Reversal,2023.1.3,59.98559146294874,4,
3,exp3.png,exp4.png,,,,,,,,,,,,,,,,,,2,0,2,0,0,3,3,3,,,,,,,,,False,42,103,True,exp4.png,exp3.png,trial_right_image,-1,exp3.png,4,exp3.png,exp4.png,0,4,reversed,correct,0.2501518721737592,1,valid_win,641.5485524000251,62,,,,,,,,,,,,,,,sub_100,2024-12-08_10h40.22.971,Reversal,2023.1.3,59.98559146294874,4,
4,exp1.png,exp2.png,,,,,,,,,,,,,,,,,,2,0,2,0,0,4,4,4,,,,,,,,,False,43,104,True,exp2.png,exp1.png,trial_left_image,1,exp2.png,4,exp2.png,exp1.png,1,1,non-reversed,correct,0.5311286563054174,1,valid_win,646.1297530000447,63,,,,,,,,,,,,,,,sub_100,2024-12-08_10h40.22.971,Reversal,2023.1.3,59.98559146294874,4,
5,exp3.png,exp4.png,,,,,,,,,,,,,,,,,,2,0,2,0,0,5,5,5,,,,,,,,,False,44,105,True,exp4.png,exp3.png,trial_right_image,-1,exp3.png,4,exp3.png,exp4.png,0,4,reversed,correct,0.11694450525840738,0,invalid_lose,652.4613389000297,63,,,,,,,,,,,,,,,sub_100,2024-12-08_10h40.22.971,Reversal,2023.1.3,59.98559146294874,4,
6,exp1.png,exp2.png,,,,,,,,,,,,,,,,,,2,0,2,0,0,6,6,6,,,,,,,,,False,45,106,False,exp1.png,exp2.png,trial_left_image,1,exp1.png,4,exp2.png,exp1.png,0,2,non-reversed,incorrect,0.489952669786169,0,valid_lose,657.442734500044,63,,,,,,,,,,,,,,,sub_100,2024-12-08_10h40.22.971,Reversal,2023.1.3,59.98559146294874,4,
7,exp3.png,exp4.png,,,,,,,,,,,,,,,,,,2,0,2,0,0,7,7,7,,,,,,,,,False,46,107,True,exp4.png,exp3.png,trial_left_image,1,exp4.png,4,exp3.png,exp4.png,1,3,reversed,incorrect,0.6500638916058601,0,valid_lose,662.0074733000365,63,,,,,,,,,,,,,,,sub_100,2024-12-08_10h40.22.971,Reversal,2023.1.3,59.98559146294874,4,
8,exp1.png,exp2.png,,,,,,,,,,,,,,,,,,2,0,2,0,0,8,8,8,,,,,,,,,False,47,108,False,exp1.png,exp2.png,trial_right_image,-1,exp2.png,4,exp2.png,exp1.png,1,1,non-reversed,correct,0.1659833091201368,0,invalid_lose,666.0066740000038,63,,,,,,,,,,,,,,,sub_100,2024-12-08_10h40.22.971,Reversal,2023.1.3,59.98559146294874,4,
9,exp3.png,exp4.png,,,,,,,,,,,,,,,,,,2,0,2,0,0,9,9,9,,,,,,,,,False,48,109,False,exp3.png,exp4.png,trial_right_image,-1,exp4.png,4,exp3.png,exp4.png,1,3,reversed,incorrect,0.8174616286940959,0,valid_lose,671.9878921000054,63,,,,,,,,,,,,,,,sub_100,2024-12-08_10h40.22.971,Reversal,2023.1.3,59.98559146294874,4,
10,exp1.png,exp2.png,,,,,,,,,,,,,,,,,,2,0,2,0,0,10,10,10,,,,,,,,,False,49,110,False,exp1.png,exp2.png,trial_right_image,-1,exp2.png,4,exp2.png,exp1.png,1,1,non-reversed,correct,0.6716955441812471,1,valid_win,676.2862871999969,64,,,,,,,,,,,,,,,sub_100,2024-12-08_10h40.22.971,Reversal,2023.1.3,59.98559146294874,4,
11,exp3.png,exp4.png,,,,,,,,,,,,,,,,,,2,0,2,0,0,11,11,11,,,,,,,,,False,50,111,False,exp3.png,exp4.png,trial_left_image,1,exp3.png,4,exp3.png,exp4.png,0,4,reversed,correct,0.4409324632586066,1,valid_win,682.3849148000008,65,,,,,,,,,,,,,,,sub_100,2024-12-08_10h40.22.971,Reversal,2023.1.3,59.98559146294874,4,
12,exp1.png,exp2.png,,,,,,,,,,,,,,,,,,2,0,2,0,0,12,12,12,,,,,,,,,False,51,112,True,exp2.png,exp1.png,trial_right_image,-1,exp1.png,4,exp2.png,exp1.png,0,2,non-reversed,incorrect,0.7187734764426968,0,valid_lose,686.8995109000243,65,,,,,,,,,,,,,,,sub_100,2024-12-08_10h40.22.971,Reversal,2023.1.3,59.98559146294874,4,
13,exp3.png,exp4.png,,,,,,,,,,,,,,,,,,2,0,2,0,0,13,13,13,,,,,,,,,False,52,113,True,exp4.png,exp3.png,trial_left_image,1,exp4.png,4,exp3.png,exp4.png,1,3,reversed,incorrect,0.423099273118694,0,valid_lose,696.1959220000426,65,,,,,,,,,,,,,,,sub_100,2024-12-08_10h40.22.971,Reversal,2023.1.3,59.98559146294874,4,
14,exp1.png,exp2.png,,,,,,,,,,,,,,,,,,2,0,2,0,0,14,14,14,,,,,,,,,False,53,114,False,exp1.png,exp2.png,trial_right_image,-1,exp2.png,4,exp2.png,exp1.png,1,1,non-reversed,correct,0.08176727800978201,0,invalid_lose,702.8608383000246,65,,,,,,,,,,,,,,,sub_100,2024-12-08_10h40.22.971,Reversal,2023.1.3,59.98559146294874,4,
15,exp3.png,exp4.png,,,,,,,,,,,,,,,,,,2,0,2,0,0,15,15,15,,,,,,,,,False,54,115,False,exp3.png,exp4.png,trial_right_image,-1,exp4.png,4,exp3.png,exp4.png,1,3,reversed,incorrect,0.6087879766168424,0,valid_lose,710.3907293000375,65,,,,,,,,,,,,,,,sub_100,2024-12-08_10h40.22.971,Reversal,2023.1.3,59.98559146294874,4,
16,exp1.png,exp2.png,,,,,,,,,,,,,,,,,,2,0,2,0,0,16,16,16,,,,,,,,,False,55,116,True,exp2.png,exp1.png,trial_right_image,-1,exp1.png,4,exp2.png,exp1.png,0,2,non-reversed,incorrect,0.2944470170783635,0,valid_lose,716.0057455000351,65,,,,,,,,,,,,,,,sub_100,2024-12-08_10h40.22.971,Reversal,2023.1.3,59.98559146294874,4,
17,exp3.png,exp4.png,,,,,,,,,,,,,,,,,,2,0,2,0,0,17,17,17,,,,,,,,,False,56,117,True,exp4.png,exp3.png,trial_right_image,-1,exp3.png,4,exp3.png,exp4.png,0,4,reversed,correct,0.5005748856611963,1,valid_win,720.3377938000485,66,,,,,,,,,,,,,,,sub_100,2024-12-08_10h40.22.971,Reversal,2023.1.3,59.98559146294874,4,
18,exp1.png,exp2.png,,,,,,,,,,,,,,,,,,2,0,2,0,0,18,18,18,,,,,,,,,False,57,118,False,exp1.png,exp2.png,trial_left_image,1,exp1.png,4,exp2.png,exp1.png,0,2,non-reversed,incorrect,0.5410777377748617,0,valid_lose,726.6197772000451,66,,,,,,,,,,,,,,,sub_100,2024-12-08_10h40.22.971,Reversal,2023.1.3,59.98559146294874,4,
19,exp3.png,exp4.png,,,,,,,,,,,,,,,,,,2,0,2,0,0,19,19,19,,,,,,,,,False,58,119,True,exp4.png,exp3.png,trial_right_image,-1,exp3.png,4,exp3.png,exp4.png,0,4,reversed,correct,0.7643184528982219,1,valid_win,730.9509672000422,67,,,,,,,,,,,,,,,sub_100,2024-12-08_10h40.22.971,Reversal,2023.1.3,59.98559146294874,4,
20,exp1.png,exp2.png,,,,,,,,,,,,,,,,,,2,0,2,0,0,20,20,20,,,,,,,,,False,59,120,True,exp2.png,exp1.png,trial_right_image,-1,exp1.png,4,exp2.png,exp1.png,0,2,non-reversed,incorrect,0.6645695244143279,0,valid_lose,736.6489286000142,67,,,,,,,,,,,,,,,sub_100,2024-12-08_10h40.22.971,Reversal,2023.1.3,59.98559146294874,4,
,,,exp1.png,,,,,,,,,,,,,,,,,2,0,2,0,,,,,0,0,0,0,0,0,0,0,,,,,,,,,,,,,,,,,,,,,,813.9163131999667,20.0,20.0,4.071589800005313,"[(20.0, 4.071589800005313)]",,,,,,,,,,sub_100,2024-12-08_10h40.22.971,Reversal,2023.1.3,59.98559146294874,4,
,,,exp2.png,,,,,,,,,,,,,,,,,2,0,2,0,,,,,0,0,0,0,0,1,1,1,,,,,,,,,,,,,,,,,,,,,,819.1908061999711,,33.0,4.875834100006614,"[(33.0, 4.875834100006614)]",33.0,,,,,,,,,sub_100,2024-12-08_10h40.22.971,Reversal,2023.1.3,59.98559146294874,4,
,,,exp3.png,,,,,,,,,,,,,,,,,2,0,2,0,,,,,0,0,0,0,0,2,2,2,,,,,,,,,,,,,,,,,,,,,,825.9882672000094,,82.0,2.0272023999714293,"[(82.0, 2.0272023999714293)]",,82.0,,,,,,,,sub_100,2024-12-08_10h40.22.971,Reversal,2023.1.3,59.98559146294874,4,
,,,exp4.png,,,,,,,,,,,,,,,,,2,0,2,0,,,,,0,0,0,0,0,3,3,3,,,,,,,,,,,,,,,,,,,,,,829.1024523999658,,38.0,2.860566299990751,"[(38.0, 2.860566299990751)]",,,38.0,,,,,,,sub_100,2024-12-08_10h40.22.971,Reversal,2023.1.3,59.98559146294874,4,
,,,,,,,,,,,,,,,,,,,,,,,,,,,,,,,,,,,,,,,,,,,,,,,,,,,,,,,,67,,,,,,,,,,73,38,35,376.25954020000063,0,,,,,,,
