trial_index,trial_image1_file,trial_image2_file,image_file,learning_outer_loop.thisRepN,learning_outer_loop.thisTrialN,learning_outer_loop.thisN,learning_outer_loop.thisIndex,learning_inner_loop.thisRepN,learning_inner_loop.thisTrialN,learning_inner_loop.thisN,learning_inner_loop.thisIndex,learning_estimation_outer_loop.thisRepN,learning_estimation_outer_loop.thisTrialN,learning_estimation_outer_loop.thisN,learning_estimation_outer_loop.thisIndex,learning_estimation_inner_loop.thisRepN,learning_estimation_inner_loop.thisTrialN,learning_estimation_inner_loop.thisN,learning_estimation_inner_loop.thisIndex,reversal_outer_loop.thisRepN,reversal_outer_loop.thisTrialN,reversal_outer_loop.thisN,reversal_outer_loop.thisIndex,reversal_inner_loop.thisRepN,reversal_inner_loop.thisTrialN,reversal_inner_loop.thisN,reversal_inner_loop.thisIndex,reversal_estimation_outer_loop.thisRepN,reversal_estimation_outer_loop.thisTrialN,reversal_estimation_outer_loop.thisN,reversal_estimation_outer_loop.thisIndex,reversal_estimation_inner_loop.thisRepN,reversal_estimation_inner_loop.thisTrialN,reversal_estimation_inner_loop.thisN,reversal_estimation_inner_loop.thisIndex,skipped,total_trial_counter,trial_num,left_right_flip,left_image_file,right_image_file,clicked_stimulus_side,side,clicked_stimulus,version,high_prob_image_file,low_prob_image_file,choice_a,choice_b,pair_type,correct,trial_feedback_random,reward,trial_type,overall_time_after_trial,score,estimation_rating.started,estimation_exp1.png,estimation_rating.response,estimation_rating.rt,estimation_rating.history,estimation_exp2.png,estimation_exp3.png,estimation_exp4.png,total_learning_time,total_correct,learning_correct,reversal_correct,total_reversal_time,extra_block,end_experiment.keys,end_experiment.rt,end_experiment.duration,participant,date,expName,psychopyVersion,frameRate,ver,
0,exp1.png,exp2.png,,0,0,0,0,0,0,0,0,,,,,,,,,,,,,,,,,,,,,,,,,False,0,1,False,exp1.png,exp2.png,trial_right_image,-1,exp2.png,4,exp2.png,exp1.png,1,1,non-reversed,correct,0.9924961830022677,1,valid_win,18.29220990000067,1,,,,,,,,,,,,,,,,,,sub_496,2024-07-07_11h29.23.304,Reversal,2023.1.3,59.978683575994104,4,
1,exp3.png,exp4.png,,0,0,0,0,0,1,1,1,,,,,,,,,,,,,,,,,,,,,,,,,False,1,2,True,exp4.png,exp3.png,trial_right_image,-1,exp3.png,4,exp4.png,exp3.png,0,4,reversed,incorrect,0.837969943805267,0,valid_lose,36.219133700000384,1,,,,,,,,,,,,,,,,,,sub_496,2024-07-07_11h29.23.304,Reversal,2023.1.3,59.978683575994104,4,
2,exp1.png,exp2.png,,0,0,0,0,0,2,2,2,,,,,,,,,,,,,,,,,,,,,,,,,False,2,3,False,exp1.png,exp2.png,trial_left_image,1,exp1.png,4,exp2.png,exp1.png,0,2,non-reversed,incorrect,0.905626112429635,0,valid_lose,50.39811160000045,1,,,,,,,,,,,,,,,,,,sub_496,2024-07-07_11h29.23.304,Reversal,2023.1.3,59.978683575994104,4,
3,exp3.png,exp4.png,,0,0,0,0,0,3,3,3,,,,,,,,,,,,,,,,,,,,,,,,,False,3,4,True,exp4.png,exp3.png,trial_left_image,1,exp4.png,4,exp4.png,exp3.png,1,3,reversed,correct,0.2578941676619406,1,valid_win,57.19552999999996,2,,,,,,,,,,,,,,,,,,sub_496,2024-07-07_11h29.23.304,Reversal,2023.1.3,59.978683575994104,4,
4,exp1.png,exp2.png,,0,0,0,0,0,4,4,4,,,,,,,,,,,,,,,,,,,,,,,,,False,4,5,False,exp1.png,exp2.png,trial_right_image,-1,exp2.png,4,exp2.png,exp1.png,1,1,non-reversed,correct,0.8115514104884946,1,valid_win,61.860417800000505,3,,,,,,,,,,,,,,,,,,sub_496,2024-07-07_11h29.23.304,Reversal,2023.1.3,59.978683575994104,4,
5,exp3.png,exp4.png,,0,0,0,0,0,5,5,5,,,,,,,,,,,,,,,,,,,,,,,,,False,5,6,False,exp3.png,exp4.png,trial_right_image,-1,exp4.png,4,exp4.png,exp3.png,1,3,reversed,correct,0.6700342386757651,1,valid_win,73.20635510000011,4,,,,,,,,,,,,,,,,,,sub_496,2024-07-07_11h29.23.304,Reversal,2023.1.3,59.978683575994104,4,
6,exp1.png,exp2.png,,0,0,0,0,0,6,6,6,,,,,,,,,,,,,,,,,,,,,,,,,False,6,7,True,exp2.png,exp1.png,trial_left_image,1,exp2.png,4,exp2.png,exp1.png,1,1,non-reversed,correct,0.22126121370679563,0,invalid_lose,81.48690200000055,4,,,,,,,,,,,,,,,,,,sub_496,2024-07-07_11h29.23.304,Reversal,2023.1.3,59.978683575994104,4,
7,exp3.png,exp4.png,,0,0,0,0,0,7,7,7,,,,,,,,,,,,,,,,,,,,,,,,,False,7,8,True,exp4.png,exp3.png,trial_left_image,1,exp4.png,4,exp4.png,exp3.png,1,3,reversed,correct,0.9876755003324249,1,valid_win,87.61893970000074,5,,,,,,,,,,,,,,,,,,sub_496,2024-07-07_11h29.23.304,Reversal,2023.1.3,59.978683575994104,4,
8,exp1.png,exp2.png,,0,0,0,0,0,8,8,8,,,,,,,,,,,,,,,,,,,,,,,,,False,8,9,True,exp2.png,exp1.png,trial_right_image,-1,exp1.png,4,exp2.png,exp1.png,0,2,non-reversed,incorrect,0.7545311217317388,0,valid_lose,97.31499150000036,5,,,,,,,,,,,,,,,,,,sub_496,2024-07-07_11h29.23.304,Reversal,2023.1.3,59.978683575994104,4,
9,exp3.png,exp4.png,,0,0,0,0,0,9,9,9,,,,,,,,,,,,,,,,,,,,,,,,,False,9,10,False,exp3.png,exp4.png,trial_right_image,-1,exp4.png,4,exp4.png,exp3.png,1,3,reversed,correct,0.027442899819423272,0,invalid_lose,104.39678980000008,5,,,,,,,,,,,,,,,,,,sub_496,2024-07-07_11h29.23.304,Reversal,2023.1.3,59.978683575994104,4,
10,exp1.png,exp2.png,,0,0,0,0,0,10,10,10,,,,,,,,,,,,,,,,,,,,,,,,,False,10,11,True,exp2.png,exp1.png,trial_left_image,1,exp2.png,4,exp2.png,exp1.png,1,1,non-reversed,correct,0.1632511586578782,0,invalid_lose,110.16069850000076,5,,,,,,,,,,,,,,,,,,sub_496,2024-07-07_11h29.23.304,Reversal,2023.1.3,59.978683575994104,4,
11,exp3.png,exp4.png,,0,0,0,0,0,11,11,11,,,,,,,,,,,,,,,,,,,,,,,,,False,11,12,True,exp4.png,exp3.png,trial_left_image,1,exp4.png,4,exp4.png,exp3.png,1,3,reversed,correct,0.5055060965985848,1,valid_win,116.72588220000034,6,,,,,,,,,,,,,,,,,,sub_496,2024-07-07_11h29.23.304,Reversal,2023.1.3,59.978683575994104,4,
12,exp1.png,exp2.png,,0,0,0,0,0,12,12,12,,,,,,,,,,,,,,,,,,,,,,,,,False,12,13,True,exp2.png,exp1.png,trial_left_image,1,exp2.png,4,exp2.png,exp1.png,1,1,non-reversed,correct,0.40739289295037107,1,valid_win,122.50694760000079,7,,,,,,,,,,,,,,,,,,sub_496,2024-07-07_11h29.23.304,Reversal,2023.1.3,59.978683575994104,4,
13,exp3.png,exp4.png,,0,0,0,0,0,13,13,13,,,,,,,,,,,,,,,,,,,,,,,,,False,13,14,False,exp3.png,exp4.png,trial_right_image,-1,exp4.png,4,exp4.png,exp3.png,1,3,reversed,correct,0.8318771130823563,1,valid_win,128.1211856,8,,,,,,,,,,,,,,,,,,sub_496,2024-07-07_11h29.23.304,Reversal,2023.1.3,59.978683575994104,4,
14,exp1.png,exp2.png,,0,0,0,0,0,14,14,14,,,,,,,,,,,,,,,,,,,,,,,,,False,14,15,False,exp1.png,exp2.png,trial_left_image,1,exp1.png,4,exp2.png,exp1.png,0,2,non-reversed,incorrect,0.5922331997101637,0,valid_lose,133.83586749999995,8,,,,,,,,,,,,,,,,,,sub_496,2024-07-07_11h29.23.304,Reversal,2023.1.3,59.978683575994104,4,
15,exp3.png,exp4.png,,0,0,0,0,0,15,15,15,,,,,,,,,,,,,,,,,,,,,,,,,False,15,16,False,exp3.png,exp4.png,trial_right_image,-1,exp4.png,4,exp4.png,exp3.png,1,3,reversed,correct,0.7816493312755544,1,valid_win,141.84980040000028,9,,,,,,,,,,,,,,,,,,sub_496,2024-07-07_11h29.23.304,Reversal,2023.1.3,59.978683575994104,4,
16,exp1.png,exp2.png,,0,0,0,0,0,16,16,16,,,,,,,,,,,,,,,,,,,,,,,,,False,16,17,True,exp2.png,exp1.png,trial_right_image,-1,exp1.png,4,exp2.png,exp1.png,0,2,non-reversed,incorrect,0.7517403662209509,0,valid_lose,147.8811525000001,9,,,,,,,,,,,,,,,,,,sub_496,2024-07-07_11h29.23.304,Reversal,2023.1.3,59.978683575994104,4,
17,exp3.png,exp4.png,,0,0,0,0,0,17,17,17,,,,,,,,,,,,,,,,,,,,,,,,,False,17,18,True,exp4.png,exp3.png,trial_left_image,1,exp4.png,4,exp4.png,exp3.png,1,3,reversed,correct,0.5509204608280241,1,valid_win,154.62915410000005,10,,,,,,,,,,,,,,,,,,sub_496,2024-07-07_11h29.23.304,Reversal,2023.1.3,59.978683575994104,4,
18,exp1.png,exp2.png,,0,0,0,0,0,18,18,18,,,,,,,,,,,,,,,,,,,,,,,,,False,18,19,False,exp1.png,exp2.png,trial_left_image,1,exp1.png,4,exp2.png,exp1.png,0,2,non-reversed,incorrect,0.46465270233287703,0,valid_lose,160.17714660000001,10,,,,,,,,,,,,,,,,,,sub_496,2024-07-07_11h29.23.304,Reversal,2023.1.3,59.978683575994104,4,
19,exp3.png,exp4.png,,0,0,0,0,0,19,19,19,,,,,,,,,,,,,,,,,,,,,,,,,False,19,20,False,exp3.png,exp4.png,trial_right_image,-1,exp4.png,4,exp4.png,exp3.png,1,3,reversed,correct,0.2725610283447244,1,valid_win,164.74223060000077,11,,,,,,,,,,,,,,,,,,sub_496,2024-07-07_11h29.23.304,Reversal,2023.1.3,59.978683575994104,4,
20,exp1.png,exp2.png,,0,0,0,0,0,20,20,20,,,,,,,,,,,,,,,,,,,,,,,,,True,,,,,,,,,,,,,,,,,,,,,,,,,,,,,,,,,,,,,,sub_496,2024-07-07_11h29.23.304,Reversal,2023.1.3,59.978683575994104,4,
,,,exp1.png,0,0,0,0,,,,,0,0,0,0,0,0,0,0,,,,,,,,,,,,,,,,,,,,,,,,,,,,,,,,,,,,,,230.17508559999987,100.0,100.0,15.329867800000102,"[(100.0, 9.247965199999271), (100.0, 15.329867800000102)]",,,,,,,,,,,,,sub_496,2024-07-07_11h29.23.304,Reversal,2023.1.3,59.978683575994104,4,
,,,exp2.png,0,0,0,0,,,,,0,0,0,0,0,1,1,1,,,,,,,,,,,,,,,,,,,,,,,,,,,,,,,,,,,,,,260.4266184999997,,100.0,3.3413397000003897,"[(100.0, 3.3413397000003897)]",100.0,,,,,,,,,,,,sub_496,2024-07-07_11h29.23.304,Reversal,2023.1.3,59.978683575994104,4,
,,,exp3.png,0,0,0,0,,,,,0,0,0,0,0,2,2,2,,,,,,,,,,,,,,,,,,,,,,,,,,,,,,,,,,,,,,265.2073980999994,,100.0,6.643031900000096,"[(100.0, 2.378380300000572), (100.0, 6.643031900000096)]",,100.0,,,,,,,,,,,sub_496,2024-07-07_11h29.23.304,Reversal,2023.1.3,59.978683575994104,4,
,,,exp4.png,0,0,0,0,,,,,0,0,0,0,0,3,3,3,,,,,,,,,,,,,,,,,,,,,,,,,,,,,,,,,,,,,,272.9236062,,100.0,10.507158100000197,"[(100.0, 10.507158100000197)]",,,100.0,,,,,,,,,,sub_496,2024-07-07_11h29.23.304,Reversal,2023.1.3,59.978683575994104,4,
0,exp1.png,exp2.png,,1,0,1,0,0,0,0,0,,,,,,,,,,,,,,,,,,,,,,,,,False,20,21,False,exp1.png,exp2.png,trial_right_image,-1,exp2.png,4,exp2.png,exp1.png,1,1,non-reversed,correct,0.8479717837166669,1,valid_win,226.72132770000007,12,,,,,,,,,,,,,,,,,,sub_496,2024-07-07_11h29.23.304,Reversal,2023.1.3,59.978683575994104,4,
1,exp3.png,exp4.png,,1,0,1,0,0,1,1,1,,,,,,,,,,,,,,,,,,,,,,,,,False,21,22,False,exp3.png,exp4.png,trial_right_image,-1,exp4.png,4,exp4.png,exp3.png,1,3,reversed,correct,0.9567910627255938,1,valid_win,231.20285030000014,13,,,,,,,,,,,,,,,,,,sub_496,2024-07-07_11h29.23.304,Reversal,2023.1.3,59.978683575994104,4,
2,exp1.png,exp2.png,,1,0,1,0,0,2,2,2,,,,,,,,,,,,,,,,,,,,,,,,,False,22,23,False,exp1.png,exp2.png,trial_right_image,-1,exp2.png,4,exp2.png,exp1.png,1,1,non-reversed,correct,0.8877653598967478,1,valid_win,237.53403600000001,14,,,,,,,,,,,,,,,,,,sub_496,2024-07-07_11h29.23.304,Reversal,2023.1.3,59.978683575994104,4,
3,exp3.png,exp4.png,,1,0,1,0,0,3,3,3,,,,,,,,,,,,,,,,,,,,,,,,,False,23,24,False,exp3.png,exp4.png,trial_right_image,-1,exp4.png,4,exp4.png,exp3.png,1,3,reversed,correct,0.8757619691593467,1,valid_win,241.9824791000001,15,,,,,,,,,,,,,,,,,,sub_496,2024-07-07_11h29.23.304,Reversal,2023.1.3,59.978683575994104,4,
4,exp1.png,exp2.png,,1,0,1,0,0,4,4,4,,,,,,,,,,,,,,,,,,,,,,,,,False,24,25,False,exp1.png,exp2.png,trial_right_image,-1,exp2.png,4,exp2.png,exp1.png,1,1,non-reversed,correct,0.3470721435207106,1,valid_win,246.83121120000033,16,,,,,,,,,,,,,,,,,,sub_496,2024-07-07_11h29.23.304,Reversal,2023.1.3,59.978683575994104,4,
5,exp3.png,exp4.png,,1,0,1,0,0,5,5,5,,,,,,,,,,,,,,,,,,,,,,,,,False,25,26,True,exp4.png,exp3.png,trial_left_image,1,exp4.png,4,exp4.png,exp3.png,1,3,reversed,correct,0.7437305097754751,1,valid_win,253.09683510000013,17,,,,,,,,,,,,,,,,,,sub_496,2024-07-07_11h29.23.304,Reversal,2023.1.3,59.978683575994104,4,
6,exp1.png,exp2.png,,1,0,1,0,0,6,6,6,,,,,,,,,,,,,,,,,,,,,,,,,False,26,27,False,exp1.png,exp2.png,trial_right_image,-1,exp2.png,4,exp2.png,exp1.png,1,1,non-reversed,correct,0.3230954191592218,1,valid_win,259.2436277000006,18,,,,,,,,,,,,,,,,,,sub_496,2024-07-07_11h29.23.304,Reversal,2023.1.3,59.978683575994104,4,
7,exp3.png,exp4.png,,1,0,1,0,0,7,7,7,,,,,,,,,,,,,,,,,,,,,,,,,False,27,28,True,exp4.png,exp3.png,trial_left_image,1,exp4.png,4,exp4.png,exp3.png,1,3,reversed,correct,0.7170686122566832,1,valid_win,263.65878130000056,19,,,,,,,,,,,,,,,,,,sub_496,2024-07-07_11h29.23.304,Reversal,2023.1.3,59.978683575994104,4,
8,exp1.png,exp2.png,,1,0,1,0,0,8,8,8,,,,,,,,,,,,,,,,,,,,,,,,,False,28,29,True,exp2.png,exp1.png,trial_left_image,1,exp2.png,4,exp2.png,exp1.png,1,1,non-reversed,correct,0.9668500622848019,1,valid_win,268.7068199000005,20,,,,,,,,,,,,,,,,,,sub_496,2024-07-07_11h29.23.304,Reversal,2023.1.3,59.978683575994104,4,
9,exp3.png,exp4.png,,1,0,1,0,0,9,9,9,,,,,,,,,,,,,,,,,,,,,,,,,False,29,30,True,exp4.png,exp3.png,trial_left_image,1,exp4.png,4,exp4.png,exp3.png,1,3,reversed,correct,0.08666332041215064,0,invalid_lose,273.4054031000005,20,,,,,,,,,,,,,,,,,,sub_496,2024-07-07_11h29.23.304,Reversal,2023.1.3,59.978683575994104,4,
10,exp1.png,exp2.png,,1,0,1,0,0,10,10,10,,,,,,,,,,,,,,,,,,,,,,,,,False,30,31,False,exp1.png,exp2.png,trial_right_image,-1,exp2.png,4,exp2.png,exp1.png,1,1,non-reversed,correct,0.1680154655210533,0,invalid_lose,280.9690803000003,20,,,,,,,,,,,,,,,,,,sub_496,2024-07-07_11h29.23.304,Reversal,2023.1.3,59.978683575994104,4,
11,exp3.png,exp4.png,,1,0,1,0,0,11,11,11,,,,,,,,,,,,,,,,,,,,,,,,,False,31,32,True,exp4.png,exp3.png,trial_left_image,1,exp4.png,4,exp4.png,exp3.png,1,3,reversed,correct,0.9296263123404546,1,valid_win,285.51782470000035,21,,,,,,,,,,,,,,,,,,sub_496,2024-07-07_11h29.23.304,Reversal,2023.1.3,59.978683575994104,4,
12,exp1.png,exp2.png,,1,0,1,0,0,12,12,12,,,,,,,,,,,,,,,,,,,,,,,,,False,32,33,True,exp2.png,exp1.png,trial_left_image,1,exp2.png,4,exp2.png,exp1.png,1,1,non-reversed,correct,0.4429210882902208,1,valid_win,291.06608920000053,22,,,,,,,,,,,,,,,,,,sub_496,2024-07-07_11h29.23.304,Reversal,2023.1.3,59.978683575994104,4,
13,exp3.png,exp4.png,,1,0,1,0,0,13,13,13,,,,,,,,,,,,,,,,,,,,,,,,,False,33,34,False,exp3.png,exp4.png,trial_right_image,-1,exp4.png,4,exp4.png,exp3.png,1,3,reversed,correct,0.21174033913389378,0,invalid_lose,296.4140539,22,,,,,,,,,,,,,,,,,,sub_496,2024-07-07_11h29.23.304,Reversal,2023.1.3,59.978683575994104,4,
14,exp1.png,exp2.png,,1,0,1,0,0,14,14,14,,,,,,,,,,,,,,,,,,,,,,,,,False,34,35,True,exp2.png,exp1.png,trial_left_image,1,exp2.png,4,exp2.png,exp1.png,1,1,non-reversed,correct,0.3799136695816199,1,valid_win,300.9129672000008,23,,,,,,,,,,,,,,,,,,sub_496,2024-07-07_11h29.23.304,Reversal,2023.1.3,59.978683575994104,4,
15,exp3.png,exp4.png,,1,0,1,0,0,15,15,15,,,,,,,,,,,,,,,,,,,,,,,,,False,35,36,False,exp3.png,exp4.png,trial_left_image,1,exp3.png,4,exp4.png,exp3.png,0,4,reversed,incorrect,0.9410419004866428,0,valid_lose,311.35924200000045,23,,,,,,,,,,,,,,,,,,sub_496,2024-07-07_11h29.23.304,Reversal,2023.1.3,59.978683575994104,4,
16,exp1.png,exp2.png,,1,0,1,0,0,16,16,16,,,,,,,,,,,,,,,,,,,,,,,,,False,36,37,True,exp2.png,exp1.png,trial_right_image,-1,exp1.png,4,exp2.png,exp1.png,0,2,non-reversed,incorrect,0.7512578922963008,0,valid_lose,317.0903057000005,23,,,,,,,,,,,,,,,,,,sub_496,2024-07-07_11h29.23.304,Reversal,2023.1.3,59.978683575994104,4,
17,exp3.png,exp4.png,,1,0,1,0,0,17,17,17,,,,,,,,,,,,,,,,,,,,,,,,,False,37,38,False,exp3.png,exp4.png,trial_right_image,-1,exp4.png,4,exp4.png,exp3.png,1,3,reversed,correct,0.7657970569333409,1,valid_win,321.2387953000007,24,,,,,,,,,,,,,,,,,,sub_496,2024-07-07_11h29.23.304,Reversal,2023.1.3,59.978683575994104,4,
18,exp1.png,exp2.png,,1,0,1,0,0,18,18,18,,,,,,,,,,,,,,,,,,,,,,,,,False,38,39,True,exp2.png,exp1.png,trial_left_image,1,exp2.png,4,exp2.png,exp1.png,1,1,non-reversed,correct,0.609231653237414,1,valid_win,326.0373490000002,25,,,,,,,,,,,,,,,,,,sub_496,2024-07-07_11h29.23.304,Reversal,2023.1.3,59.978683575994104,4,
19,exp3.png,exp4.png,,1,0,1,0,0,19,19,19,,,,,,,,,,,,,,,,,,,,,,,,,False,39,40,True,exp4.png,exp3.png,trial_left_image,1,exp4.png,4,exp4.png,exp3.png,1,3,reversed,correct,0.8136548093174314,1,valid_win,330.7190672000006,26,,,,,,,,,,,,,,,,,,sub_496,2024-07-07_11h29.23.304,Reversal,2023.1.3,59.978683575994104,4,
20,exp1.png,exp2.png,,1,0,1,0,0,20,20,20,,,,,,,,,,,,,,,,,,,,,,,,,True,,,,,,,,,,,,,,,,,,,,,,,,,,,,,,,,,,,,,,sub_496,2024-07-07_11h29.23.304,Reversal,2023.1.3,59.978683575994104,4,
,,,exp1.png,1,0,1,0,,,,,0,0,0,0,0,0,0,0,,,,,,,,,,,,,,,,,,,,,,,,,,,,,,,,,,,,,,396.10465959999965,100.0,100.0,8.589559200000622,"[(100.0, 8.589559200000622)]",,,,,,,,,,,,,sub_496,2024-07-07_11h29.23.304,Reversal,2023.1.3,59.978683575994104,4,
,,,exp2.png,1,0,1,0,,,,,0,0,0,0,0,1,1,1,,,,,,,,,,,,,,,,,,,,,,,,,,,,,,,,,,,,,,405.90891379999994,,100.0,2.0289139999995314,"[(100.0, 2.0289139999995314)]",100.0,,,,,,,,,,,,sub_496,2024-07-07_11h29.23.304,Reversal,2023.1.3,59.978683575994104,4,
,,,exp3.png,1,0,1,0,,,,,0,0,0,0,0,2,2,2,,,,,,,,,,,,,,,,,,,,,,,,,,,,,,,,,,,,,,409.17558499999996,,100.0,1.9781247999999323,"[(100.0, 1.9781247999999323)]",,100.0,,,,,,,,,,,sub_496,2024-07-07_11h29.23.304,Reversal,2023.1.3,59.978683575994104,4,
,,,exp4.png,1,0,1,0,,,,,0,0,0,0,0,3,3,3,,,,,,,,,,,,,,,,,,,,,,,,,,,,,,,,,,,,,,412.2571720999995,,100.0,1.6503708999998707,"[(100.0, 1.6503708999998707)]",,,100.0,,,,,,,,,,sub_496,2024-07-07_11h29.23.304,Reversal,2023.1.3,59.978683575994104,4,
0,exp1.png,exp2.png,,2,0,2,0,0,0,0,0,,,,,,,,,,,,,,,,,,,,,,,,,False,40,41,True,exp2.png,exp1.png,trial_left_image,1,exp2.png,4,exp2.png,exp1.png,1,1,non-reversed,correct,0.9538601251063351,1,valid_win,356.3103955000006,27,,,,,,,,,,,,,,,,,,sub_496,2024-07-07_11h29.23.304,Reversal,2023.1.3,59.978683575994104,4,
1,exp3.png,exp4.png,,2,0,2,0,0,1,1,1,,,,,,,,,,,,,,,,,,,,,,,,,False,41,42,True,exp4.png,exp3.png,trial_left_image,1,exp4.png,4,exp4.png,exp3.png,1,3,reversed,correct,0.3148324214625723,1,valid_win,360.9086859000008,28,,,,,,,,,,,,,,,,,,sub_496,2024-07-07_11h29.23.304,Reversal,2023.1.3,59.978683575994104,4,
2,exp1.png,exp2.png,,2,0,2,0,0,2,2,2,,,,,,,,,,,,,,,,,,,,,,,,,False,42,43,True,exp2.png,exp1.png,trial_left_image,1,exp2.png,4,exp2.png,exp1.png,1,1,non-reversed,correct,0.7931771544099181,1,valid_win,367.3569240000006,29,,,,,,,,,,,,,,,,,,sub_496,2024-07-07_11h29.23.304,Reversal,2023.1.3,59.978683575994104,4,
3,exp3.png,exp4.png,,2,0,2,0,0,3,3,3,,,,,,,,,,,,,,,,,,,,,,,,,False,43,44,True,exp4.png,exp3.png,trial_left_image,1,exp4.png,4,exp4.png,exp3.png,1,3,reversed,correct,0.7674428968011684,1,valid_win,371.92192260000047,30,,,,,,,,,,,,,,,,,,sub_496,2024-07-07_11h29.23.304,Reversal,2023.1.3,59.978683575994104,4,
4,exp1.png,exp2.png,,2,0,2,0,0,4,4,4,,,,,,,,,,,,,,,,,,,,,,,,,False,44,45,False,exp1.png,exp2.png,trial_right_image,-1,exp2.png,4,exp2.png,exp1.png,1,1,non-reversed,correct,0.07493106421522311,0,invalid_lose,377.4864533,30,,,,,,,,,,,,,,,,,,sub_496,2024-07-07_11h29.23.304,Reversal,2023.1.3,59.978683575994104,4,
5,exp3.png,exp4.png,,2,0,2,0,0,5,5,5,,,,,,,,,,,,,,,,,,,,,,,,,False,45,46,True,exp4.png,exp3.png,trial_left_image,1,exp4.png,4,exp4.png,exp3.png,1,3,reversed,correct,0.01783267851300452,0,invalid_lose,381.8849626000001,30,,,,,,,,,,,,,,,,,,sub_496,2024-07-07_11h29.23.304,Reversal,2023.1.3,59.978683575994104,4,
6,exp1.png,exp2.png,,2,0,2,0,0,6,6,6,,,,,,,,,,,,,,,,,,,,,,,,,False,46,47,True,exp2.png,exp1.png,trial_left_image,1,exp2.png,4,exp2.png,exp1.png,1,1,non-reversed,correct,0.6552388868473078,1,valid_win,386.1504128000006,31,,,,,,,,,,,,,,,,,,sub_496,2024-07-07_11h29.23.304,Reversal,2023.1.3,59.978683575994104,4,
7,exp3.png,exp4.png,,2,0,2,0,0,7,7,7,,,,,,,,,,,,,,,,,,,,,,,,,False,47,48,False,exp3.png,exp4.png,trial_right_image,-1,exp4.png,4,exp4.png,exp3.png,1,3,reversed,correct,0.8171631871932294,1,valid_win,390.3821390000003,32,,,,,,,,,,,,,,,,,,sub_496,2024-07-07_11h29.23.304,Reversal,2023.1.3,59.978683575994104,4,
8,exp1.png,exp2.png,,2,0,2,0,0,8,8,8,,,,,,,,,,,,,,,,,,,,,,,,,False,48,49,False,exp1.png,exp2.png,trial_left_image,1,exp1.png,4,exp2.png,exp1.png,0,2,non-reversed,incorrect,0.20597803232345357,1,invalid_win,397.4138638000004,33,,,,,,,,,,,,,,,,,,sub_496,2024-07-07_11h29.23.304,Reversal,2023.1.3,59.978683575994104,4,
9,exp3.png,exp4.png,,2,0,2,0,0,9,9,9,,,,,,,,,,,,,,,,,,,,,,,,,False,49,50,True,exp4.png,exp3.png,trial_left_image,1,exp4.png,4,exp4.png,exp3.png,1,3,reversed,correct,0.6071950212470787,1,valid_win,401.9614956000005,34,,,,,,,,,,,,,,,,,,sub_496,2024-07-07_11h29.23.304,Reversal,2023.1.3,59.978683575994104,4,
10,exp1.png,exp2.png,,2,0,2,0,0,10,10,10,,,,,,,,,,,,,,,,,,,,,,,,,False,50,51,False,exp1.png,exp2.png,trial_left_image,1,exp1.png,4,exp2.png,exp1.png,0,2,non-reversed,incorrect,0.6872559129956776,0,valid_lose,408.5259384000001,34,,,,,,,,,,,,,,,,,,sub_496,2024-07-07_11h29.23.304,Reversal,2023.1.3,59.978683575994104,4,
11,exp3.png,exp4.png,,2,0,2,0,0,11,11,11,,,,,,,,,,,,,,,,,,,,,,,,,False,51,52,True,exp4.png,exp3.png,trial_left_image,1,exp4.png,4,exp4.png,exp3.png,1,3,reversed,correct,0.9845751096097795,1,valid_win,413.1745808000005,35,,,,,,,,,,,,,,,,,,sub_496,2024-07-07_11h29.23.304,Reversal,2023.1.3,59.978683575994104,4,
12,exp1.png,exp2.png,,2,0,2,0,0,12,12,12,,,,,,,,,,,,,,,,,,,,,,,,,False,52,53,False,exp1.png,exp2.png,trial_right_image,-1,exp2.png,4,exp2.png,exp1.png,1,1,non-reversed,correct,0.1787988373972037,0,invalid_lose,421.4887183000001,35,,,,,,,,,,,,,,,,,,sub_496,2024-07-07_11h29.23.304,Reversal,2023.1.3,59.978683575994104,4,
13,exp3.png,exp4.png,,2,0,2,0,0,13,13,13,,,,,,,,,,,,,,,,,,,,,,,,,False,53,54,False,exp3.png,exp4.png,trial_right_image,-1,exp4.png,4,exp4.png,exp3.png,1,3,reversed,correct,0.014722803216885905,0,invalid_lose,425.58718000000044,35,,,,,,,,,,,,,,,,,,sub_496,2024-07-07_11h29.23.304,Reversal,2023.1.3,59.978683575994104,4,
14,exp1.png,exp2.png,,2,0,2,0,0,14,14,14,,,,,,,,,,,,,,,,,,,,,,,,,False,54,55,True,exp2.png,exp1.png,trial_left_image,1,exp2.png,4,exp2.png,exp1.png,1,1,non-reversed,correct,0.7848329534449701,1,valid_win,430.13539990000027,36,,,,,,,,,,,,,,,,,,sub_496,2024-07-07_11h29.23.304,Reversal,2023.1.3,59.978683575994104,4,
15,exp3.png,exp4.png,,2,0,2,0,0,15,15,15,,,,,,,,,,,,,,,,,,,,,,,,,False,55,56,False,exp3.png,exp4.png,trial_right_image,-1,exp4.png,4,exp4.png,exp3.png,1,3,reversed,correct,0.39927357916071393,1,valid_win,434.21703510000043,37,,,,,,,,,,,,,,,,,,sub_496,2024-07-07_11h29.23.304,Reversal,2023.1.3,59.978683575994104,4,
16,exp1.png,exp2.png,,2,0,2,0,0,16,16,16,,,,,,,,,,,,,,,,,,,,,,,,,False,56,57,True,exp2.png,exp1.png,trial_left_image,1,exp2.png,4,exp2.png,exp1.png,1,1,non-reversed,correct,0.11571601212783122,0,invalid_lose,439.11623060000056,37,,,,,,,,,,,,,,,,,,sub_496,2024-07-07_11h29.23.304,Reversal,2023.1.3,59.978683575994104,4,
17,exp3.png,exp4.png,,2,0,2,0,0,17,17,17,,,,,,,,,,,,,,,,,,,,,,,,,False,57,58,False,exp3.png,exp4.png,trial_right_image,-1,exp4.png,4,exp4.png,exp3.png,1,3,reversed,correct,0.678039148877253,1,valid_win,443.2976112000006,38,,,,,,,,,,,,,,,,,,sub_496,2024-07-07_11h29.23.304,Reversal,2023.1.3,59.978683575994104,4,
18,exp1.png,exp2.png,,2,0,2,0,0,18,18,18,,,,,,,,,,,,,,,,,,,,,,,,,False,58,59,False,exp1.png,exp2.png,trial_left_image,1,exp1.png,4,exp2.png,exp1.png,0,2,non-reversed,incorrect,0.6197149872626044,0,valid_lose,450.5116313000008,38,,,,,,,,,,,,,,,,,,sub_496,2024-07-07_11h29.23.304,Reversal,2023.1.3,59.978683575994104,4,
19,exp3.png,exp4.png,,2,0,2,0,0,19,19,19,,,,,,,,,,,,,,,,,,,,,,,,,False,59,60,False,exp3.png,exp4.png,trial_right_image,-1,exp4.png,4,exp4.png,exp3.png,1,3,reversed,correct,0.32115619505156345,1,valid_win,455.51012360000004,39,,,,,,,,,,,,,,,,,,sub_496,2024-07-07_11h29.23.304,Reversal,2023.1.3,59.978683575994104,4,
20,exp1.png,exp2.png,,2,0,2,0,0,20,20,20,,,,,,,,,,,,,,,,,,,,,,,,,True,,,,,,,,,,,,,,,,,,,,,,,,,,,,,,,,,,,,,,sub_496,2024-07-07_11h29.23.304,Reversal,2023.1.3,59.978683575994104,4,
,,,exp1.png,2,0,2,0,,,,,0,0,0,0,0,0,0,0,,,,,,,,,,,,,,,,,,,,,,,,,,,,,,,,,,,,,,520.8934275000001,100.0,100.0,3.224901800000225,"[(100.0, 3.224901800000225)]",,,,,,,,,,,,,sub_496,2024-07-07_11h29.23.304,Reversal,2023.1.3,59.978683575994104,4,
,,,exp2.png,2,0,2,0,,,,,0,0,0,0,0,1,1,1,,,,,,,,,,,,,,,,,,,,,,,,,,,,,,,,,,,,,,525.2368946999995,,100.0,1.0855954999997266,"[(100.0, 1.0855954999997266)]",100.0,,,,,,,,,,,,sub_496,2024-07-07_11h29.23.304,Reversal,2023.1.3,59.978683575994104,4,
,,,exp3.png,2,0,2,0,,,,,0,0,0,0,0,2,2,2,,,,,,,,,,,,,,,,,,,,,,,,,,,,,,,,,,,,,,527.4520173000001,,100.0,1.211830799999916,"[(100.0, 1.211830799999916)]",,100.0,,,,,,,,,,,sub_496,2024-07-07_11h29.23.304,Reversal,2023.1.3,59.978683575994104,4,
,,,exp4.png,2,0,2,0,,,,,0,0,0,0,0,3,3,3,,,,,,,,,,,,,,,,,,,,,,,,,,,,,,,,,,,,,,529.8845089999995,,100.0,1.7598384000002625,"[(100.0, 1.7598384000002625)]",,,100.0,,,,,,,,,,sub_496,2024-07-07_11h29.23.304,Reversal,2023.1.3,59.978683575994104,4,
0,exp1.png,exp2.png,,,,,,,,,,,,,,,,,,0,0,0,0,0,0,0,0,,,,,,,,,False,0,61,True,exp2.png,exp1.png,trial_left_image,1,exp2.png,4,exp2.png,exp1.png,1,1,non-reversed,correct,0.689781534701683,1,valid_win,475.8197532000004,40,,,,,,,,,469.9676464000004,,,,,,,,,sub_496,2024-07-07_11h29.23.304,Reversal,2023.1.3,59.978683575994104,4,
1,exp3.png,exp4.png,,,,,,,,,,,,,,,,,,0,0,0,0,0,1,1,1,,,,,,,,,False,1,62,False,exp3.png,exp4.png,trial_right_image,-1,exp4.png,4,exp3.png,exp4.png,1,3,reversed,incorrect,0.8485680635895484,0,valid_lose,480.08510540000043,40,,,,,,,,,,,,,,,,,,sub_496,2024-07-07_11h29.23.304,Reversal,2023.1.3,59.978683575994104,4,
2,exp1.png,exp2.png,,,,,,,,,,,,,,,,,,0,0,0,0,0,2,2,2,,,,,,,,,False,2,63,True,exp2.png,exp1.png,trial_left_image,1,exp2.png,4,exp2.png,exp1.png,1,1,non-reversed,correct,0.7917722886446984,1,valid_win,485.8998246000001,41,,,,,,,,,,,,,,,,,,sub_496,2024-07-07_11h29.23.304,Reversal,2023.1.3,59.978683575994104,4,
3,exp3.png,exp4.png,,,,,,,,,,,,,,,,,,0,0,0,0,0,3,3,3,,,,,,,,,False,3,64,False,exp3.png,exp4.png,trial_right_image,-1,exp4.png,4,exp3.png,exp4.png,1,3,reversed,incorrect,0.3059968403361861,0,valid_lose,490.03213510000023,41,,,,,,,,,,,,,,,,,,sub_496,2024-07-07_11h29.23.304,Reversal,2023.1.3,59.978683575994104,4,
4,exp1.png,exp2.png,,,,,,,,,,,,,,,,,,0,0,0,0,0,4,4,4,,,,,,,,,False,4,65,True,exp2.png,exp1.png,trial_left_image,1,exp2.png,4,exp2.png,exp1.png,1,1,non-reversed,correct,0.5346871806193906,1,valid_win,495.8131535000002,42,,,,,,,,,,,,,,,,,,sub_496,2024-07-07_11h29.23.304,Reversal,2023.1.3,59.978683575994104,4,
5,exp3.png,exp4.png,,,,,,,,,,,,,,,,,,0,0,0,0,0,5,5,5,,,,,,,,,False,5,66,False,exp3.png,exp4.png,trial_right_image,-1,exp4.png,4,exp3.png,exp4.png,1,3,reversed,incorrect,0.04181897708845339,1,invalid_win,500.89479030000075,43,,,,,,,,,,,,,,,,,,sub_496,2024-07-07_11h29.23.304,Reversal,2023.1.3,59.978683575994104,4,
6,exp1.png,exp2.png,,,,,,,,,,,,,,,,,,0,0,0,0,0,6,6,6,,,,,,,,,False,6,67,False,exp1.png,exp2.png,trial_left_image,1,exp1.png,4,exp2.png,exp1.png,0,2,non-reversed,incorrect,0.014862319861976059,1,invalid_win,505.5935087000007,44,,,,,,,,,,,,,,,,,,sub_496,2024-07-07_11h29.23.304,Reversal,2023.1.3,59.978683575994104,4,
7,exp3.png,exp4.png,,,,,,,,,,,,,,,,,,0,0,0,0,0,7,7,7,,,,,,,,,False,7,68,True,exp4.png,exp3.png,trial_left_image,1,exp4.png,4,exp3.png,exp4.png,1,3,reversed,incorrect,0.8146843918682964,0,valid_lose,510.1916404000003,44,,,,,,,,,,,,,,,,,,sub_496,2024-07-07_11h29.23.304,Reversal,2023.1.3,59.978683575994104,4,
8,exp1.png,exp2.png,,,,,,,,,,,,,,,,,,0,0,0,0,0,8,8,8,,,,,,,,,False,8,69,True,exp2.png,exp1.png,trial_left_image,1,exp2.png,4,exp2.png,exp1.png,1,1,non-reversed,correct,0.6264822331132377,1,valid_win,515.1899928000003,45,,,,,,,,,,,,,,,,,,sub_496,2024-07-07_11h29.23.304,Reversal,2023.1.3,59.978683575994104,4,
9,exp3.png,exp4.png,,,,,,,,,,,,,,,,,,0,0,0,0,0,9,9,9,,,,,,,,,False,9,70,False,exp3.png,exp4.png,trial_right_image,-1,exp4.png,4,exp3.png,exp4.png,1,3,reversed,incorrect,0.7526227109813707,0,valid_lose,519.5557987000002,45,,,,,,,,,,,,,,,,,,sub_496,2024-07-07_11h29.23.304,Reversal,2023.1.3,59.978683575994104,4,
10,exp1.png,exp2.png,,,,,,,,,,,,,,,,,,0,0,0,0,0,10,10,10,,,,,,,,,False,10,71,False,exp1.png,exp2.png,trial_left_image,1,exp1.png,4,exp2.png,exp1.png,0,2,non-reversed,incorrect,0.9218030370693788,0,valid_lose,524.7199323000004,45,,,,,,,,,,,,,,,,,,sub_496,2024-07-07_11h29.23.304,Reversal,2023.1.3,59.978683575994104,4,
11,exp3.png,exp4.png,,,,,,,,,,,,,,,,,,0,0,0,0,0,11,11,11,,,,,,,,,False,11,72,False,exp3.png,exp4.png,trial_right_image,-1,exp4.png,4,exp3.png,exp4.png,1,3,reversed,incorrect,0.14673759618723103,1,invalid_win,529.0847761000005,46,,,,,,,,,,,,,,,,,,sub_496,2024-07-07_11h29.23.304,Reversal,2023.1.3,59.978683575994104,4,
12,exp1.png,exp2.png,,,,,,,,,,,,,,,,,,0,0,0,0,0,12,12,12,,,,,,,,,False,12,73,False,exp1.png,exp2.png,trial_right_image,-1,exp2.png,4,exp2.png,exp1.png,1,1,non-reversed,correct,0.39644943537139155,1,valid_win,535.4827335,47,,,,,,,,,,,,,,,,,,sub_496,2024-07-07_11h29.23.304,Reversal,2023.1.3,59.978683575994104,4,
13,exp3.png,exp4.png,,,,,,,,,,,,,,,,,,0,0,0,0,0,13,13,13,,,,,,,,,False,13,74,True,exp4.png,exp3.png,trial_left_image,1,exp4.png,4,exp3.png,exp4.png,1,3,reversed,incorrect,0.8820818803636272,0,valid_lose,540.1482353000001,47,,,,,,,,,,,,,,,,,,sub_496,2024-07-07_11h29.23.304,Reversal,2023.1.3,59.978683575994104,4,
14,exp1.png,exp2.png,,,,,,,,,,,,,,,,,,0,0,0,0,0,14,14,14,,,,,,,,,False,14,75,False,exp1.png,exp2.png,trial_right_image,-1,exp2.png,4,exp2.png,exp1.png,1,1,non-reversed,correct,0.9902304982052441,1,valid_win,544.4796802999999,48,,,,,,,,,,,,,,,,,,sub_496,2024-07-07_11h29.23.304,Reversal,2023.1.3,59.978683575994104,4,
15,exp3.png,exp4.png,,,,,,,,,,,,,,,,,,0,0,0,0,0,15,15,15,,,,,,,,,False,15,76,True,exp4.png,exp3.png,trial_right_image,-1,exp3.png,4,exp3.png,exp4.png,0,4,reversed,correct,0.09297782970032265,0,invalid_lose,549.5520431000004,48,,,,,,,,,,,,,,,,,,sub_496,2024-07-07_11h29.23.304,Reversal,2023.1.3,59.978683575994104,4,
16,exp1.png,exp2.png,,,,,,,,,,,,,,,,,,0,0,0,0,0,16,16,16,,,,,,,,,False,16,77,False,exp1.png,exp2.png,trial_left_image,1,exp1.png,4,exp2.png,exp1.png,0,2,non-reversed,incorrect,0.44490976017324135,0,valid_lose,554.9595483000003,48,,,,,,,,,,,,,,,,,,sub_496,2024-07-07_11h29.23.304,Reversal,2023.1.3,59.978683575994104,4,
17,exp3.png,exp4.png,,,,,,,,,,,,,,,,,,0,0,0,0,0,17,17,17,,,,,,,,,False,17,78,True,exp4.png,exp3.png,trial_left_image,1,exp4.png,4,exp3.png,exp4.png,1,3,reversed,incorrect,0.006827355836808047,1,invalid_win,559.9581612000002,49,,,,,,,,,,,,,,,,,,sub_496,2024-07-07_11h29.23.304,Reversal,2023.1.3,59.978683575994104,4,
18,exp1.png,exp2.png,,,,,,,,,,,,,,,,,,0,0,0,0,0,18,18,18,,,,,,,,,False,18,79,True,exp2.png,exp1.png,trial_left_image,1,exp2.png,4,exp2.png,exp1.png,1,1,non-reversed,correct,0.7899897697012561,1,valid_win,566.8056363000005,50,,,,,,,,,,,,,,,,,,sub_496,2024-07-07_11h29.23.304,Reversal,2023.1.3,59.978683575994104,4,
19,exp3.png,exp4.png,,,,,,,,,,,,,,,,,,0,0,0,0,0,19,19,19,,,,,,,,,False,19,80,True,exp4.png,exp3.png,trial_right_image,-1,exp3.png,4,exp3.png,exp4.png,0,4,reversed,correct,0.1394389742703679,0,invalid_lose,574.4363812000001,50,,,,,,,,,,,,,,,,,,sub_496,2024-07-07_11h29.23.304,Reversal,2023.1.3,59.978683575994104,4,
20,exp1.png,exp2.png,,,,,,,,,,,,,,,,,,0,0,0,0,0,20,20,20,,,,,,,,,True,,,,,,,,,,,,,,,,,,,,,,,,,,,,,,,,,,,,,,sub_496,2024-07-07_11h29.23.304,Reversal,2023.1.3,59.978683575994104,4,
,,,exp1.png,,,,,,,,,,,,,,,,,0,0,0,0,,,,,0,0,0,0,0,0,0,0,,,,,,,,,,,,,,,,,,,,,,639.8242829000001,100.0,100.0,1.6234215000004042,"[(100.0, 1.6234215000004042)]",,,,,,,,,,,,,sub_496,2024-07-07_11h29.23.304,Reversal,2023.1.3,59.978683575994104,4,
,,,exp2.png,,,,,,,,,,,,,,,,,0,0,0,0,,,,,0,0,0,0,0,1,1,1,,,,,,,,,,,,,,,,,,,,,,642.7389149,,100.0,1.0177745999999388,"[(100.0, 1.0177745999999388)]",100.0,,,,,,,,,,,,sub_496,2024-07-07_11h29.23.304,Reversal,2023.1.3,59.978683575994104,4,
,,,exp3.png,,,,,,,,,,,,,,,,,0,0,0,0,,,,,0,0,0,0,0,2,2,2,,,,,,,,,,,,,,,,,,,,,,644.3917337000003,,100.0,1.2832049999997253,"[(100.0, 1.2832049999997253)]",,100.0,,,,,,,,,,,sub_496,2024-07-07_11h29.23.304,Reversal,2023.1.3,59.978683575994104,4,
,,,exp4.png,,,,,,,,,,,,,,,,,0,0,0,0,,,,,0,0,0,0,0,3,3,3,,,,,,,,,,,,,,,,,,,,,,646.7429966,,100.0,1.2125280000000203,"[(100.0, 1.2125280000000203)]",,,100.0,,,,,,,,,,sub_496,2024-07-07_11h29.23.304,Reversal,2023.1.3,59.978683575994104,4,
0,exp1.png,exp2.png,,,,,,,,,,,,,,,,,,1,0,1,0,0,0,0,0,,,,,,,,,False,20,81,True,exp2.png,exp1.png,trial_left_image,1,exp2.png,4,exp2.png,exp1.png,1,1,non-reversed,correct,0.43044419156853286,1,valid_win,589.6153769000002,51,,,,,,,,,,,,,,,,,,sub_496,2024-07-07_11h29.23.304,Reversal,2023.1.3,59.978683575994104,4,
1,exp3.png,exp4.png,,,,,,,,,,,,,,,,,,1,0,1,0,0,1,1,1,,,,,,,,,False,21,82,False,exp3.png,exp4.png,trial_left_image,1,exp3.png,4,exp3.png,exp4.png,0,4,reversed,correct,0.6127427328864111,1,valid_win,594.8124322000003,52,,,,,,,,,,,,,,,,,,sub_496,2024-07-07_11h29.23.304,Reversal,2023.1.3,59.978683575994104,4,
2,exp1.png,exp2.png,,,,,,,,,,,,,,,,,,1,0,1,0,0,2,2,2,,,,,,,,,False,22,83,True,exp2.png,exp1.png,trial_right_image,-1,exp1.png,4,exp2.png,exp1.png,0,2,non-reversed,incorrect,0.6457518694130442,0,valid_lose,600.2941402000006,52,,,,,,,,,,,,,,,,,,sub_496,2024-07-07_11h29.23.304,Reversal,2023.1.3,59.978683575994104,4,
3,exp3.png,exp4.png,,,,,,,,,,,,,,,,,,1,0,1,0,0,3,3,3,,,,,,,,,False,23,84,False,exp3.png,exp4.png,trial_left_image,1,exp3.png,4,exp3.png,exp4.png,0,4,reversed,correct,0.8061069060102072,1,valid_win,604.9757946,53,,,,,,,,,,,,,,,,,,sub_496,2024-07-07_11h29.23.304,Reversal,2023.1.3,59.978683575994104,4,
4,exp1.png,exp2.png,,,,,,,,,,,,,,,,,,1,0,1,0,0,4,4,4,,,,,,,,,False,24,85,False,exp1.png,exp2.png,trial_left_image,1,exp1.png,4,exp2.png,exp1.png,0,2,non-reversed,incorrect,0.4220219373068529,0,valid_lose,609.7574952000004,53,,,,,,,,,,,,,,,,,,sub_496,2024-07-07_11h29.23.304,Reversal,2023.1.3,59.978683575994104,4,
5,exp3.png,exp4.png,,,,,,,,,,,,,,,,,,1,0,1,0,0,5,5,5,,,,,,,,,False,25,86,False,exp3.png,exp4.png,trial_right_image,-1,exp4.png,4,exp3.png,exp4.png,1,3,reversed,incorrect,0.9887316082687865,0,valid_lose,614.0729037000001,53,,,,,,,,,,,,,,,,,,sub_496,2024-07-07_11h29.23.304,Reversal,2023.1.3,59.978683575994104,4,
6,exp1.png,exp2.png,,,,,,,,,,,,,,,,,,1,0,1,0,0,6,6,6,,,,,,,,,False,26,87,False,exp1.png,exp2.png,trial_right_image,-1,exp2.png,4,exp2.png,exp1.png,1,1,non-reversed,correct,0.8542138188906239,1,valid_win,618.1214043,54,,,,,,,,,,,,,,,,,,sub_496,2024-07-07_11h29.23.304,Reversal,2023.1.3,59.978683575994104,4,
7,exp3.png,exp4.png,,,,,,,,,,,,,,,,,,1,0,1,0,0,7,7,7,,,,,,,,,False,27,88,True,exp4.png,exp3.png,trial_right_image,-1,exp3.png,4,exp3.png,exp4.png,0,4,reversed,correct,0.7214501849896068,1,valid_win,623.2368878000007,55,,,,,,,,,,,,,,,,,,sub_496,2024-07-07_11h29.23.304,Reversal,2023.1.3,59.978683575994104,4,
8,exp1.png,exp2.png,,,,,,,,,,,,,,,,,,1,0,1,0,0,8,8,8,,,,,,,,,False,28,89,True,exp2.png,exp1.png,trial_left_image,1,exp2.png,4,exp2.png,exp1.png,1,1,non-reversed,correct,0.11355469246805439,0,invalid_lose,629.2013040000002,55,,,,,,,,,,,,,,,,,,sub_496,2024-07-07_11h29.23.304,Reversal,2023.1.3,59.978683575994104,4,
9,exp3.png,exp4.png,,,,,,,,,,,,,,,,,,1,0,1,0,0,9,9,9,,,,,,,,,False,29,90,False,exp3.png,exp4.png,trial_right_image,-1,exp4.png,4,exp3.png,exp4.png,1,3,reversed,incorrect,0.9205007213558168,0,valid_lose,633.2828147,55,,,,,,,,,,,,,,,,,,sub_496,2024-07-07_11h29.23.304,Reversal,2023.1.3,59.978683575994104,4,
10,exp1.png,exp2.png,,,,,,,,,,,,,,,,,,1,0,1,0,0,10,10,10,,,,,,,,,False,30,91,True,exp2.png,exp1.png,trial_left_image,1,exp2.png,4,exp2.png,exp1.png,1,1,non-reversed,correct,0.9409640684845849,1,valid_win,638.8811977000005,56,,,,,,,,,,,,,,,,,,sub_496,2024-07-07_11h29.23.304,Reversal,2023.1.3,59.978683575994104,4,
11,exp3.png,exp4.png,,,,,,,,,,,,,,,,,,1,0,1,0,0,11,11,11,,,,,,,,,False,31,92,True,exp4.png,exp3.png,trial_right_image,-1,exp3.png,4,exp3.png,exp4.png,0,4,reversed,correct,0.8354525968797414,1,valid_win,646.7447139000005,57,,,,,,,,,,,,,,,,,,sub_496,2024-07-07_11h29.23.304,Reversal,2023.1.3,59.978683575994104,4,
12,exp1.png,exp2.png,,,,,,,,,,,,,,,,,,1,0,1,0,0,12,12,12,,,,,,,,,False,32,93,True,exp2.png,exp1.png,trial_right_image,-1,exp1.png,4,exp2.png,exp1.png,0,2,non-reversed,incorrect,0.8192455930514707,0,valid_lose,652.5599305000005,57,,,,,,,,,,,,,,,,,,sub_496,2024-07-07_11h29.23.304,Reversal,2023.1.3,59.978683575994104,4,
13,exp3.png,exp4.png,,,,,,,,,,,,,,,,,,1,0,1,0,0,13,13,13,,,,,,,,,False,33,94,True,exp4.png,exp3.png,trial_left_image,1,exp4.png,4,exp3.png,exp4.png,1,3,reversed,incorrect,0.1875032835980195,1,invalid_win,657.9580998000001,58,,,,,,,,,,,,,,,,,,sub_496,2024-07-07_11h29.23.304,Reversal,2023.1.3,59.978683575994104,4,
14,exp1.png,exp2.png,,,,,,,,,,,,,,,,,,1,0,1,0,0,14,14,14,,,,,,,,,False,34,95,False,exp1.png,exp2.png,trial_right_image,-1,exp2.png,4,exp2.png,exp1.png,1,1,non-reversed,correct,0.39045467821206836,1,valid_win,663.5725962000006,59,,,,,,,,,,,,,,,,,,sub_496,2024-07-07_11h29.23.304,Reversal,2023.1.3,59.978683575994104,4,
15,exp3.png,exp4.png,,,,,,,,,,,,,,,,,,1,0,1,0,0,15,15,15,,,,,,,,,False,35,96,False,exp3.png,exp4.png,trial_left_image,1,exp3.png,4,exp3.png,exp4.png,0,4,reversed,correct,0.2943288628128571,1,valid_win,671.6037193000002,60,,,,,,,,,,,,,,,,,,sub_496,2024-07-07_11h29.23.304,Reversal,2023.1.3,59.978683575994104,4,
16,exp1.png,exp2.png,,,,,,,,,,,,,,,,,,1,0,1,0,0,16,16,16,,,,,,,,,False,36,97,True,exp2.png,exp1.png,trial_left_image,1,exp2.png,4,exp2.png,exp1.png,1,1,non-reversed,correct,0.2703023303472468,1,valid_win,676.4515395000008,61,,,,,,,,,,,,,,,,,,sub_496,2024-07-07_11h29.23.304,Reversal,2023.1.3,59.978683575994104,4,
17,exp3.png,exp4.png,,,,,,,,,,,,,,,,,,1,0,1,0,0,17,17,17,,,,,,,,,False,37,98,True,exp4.png,exp3.png,trial_left_image,1,exp4.png,4,exp3.png,exp4.png,1,3,reversed,incorrect,0.29450668695111093,0,valid_lose,681.5670533000002,61,,,,,,,,,,,,,,,,,,sub_496,2024-07-07_11h29.23.304,Reversal,2023.1.3,59.978683575994104,4,
18,exp1.png,exp2.png,,,,,,,,,,,,,,,,,,1,0,1,0,0,18,18,18,,,,,,,,,False,38,99,False,exp1.png,exp2.png,trial_right_image,-1,exp2.png,4,exp2.png,exp1.png,1,1,non-reversed,correct,0.8384371405896598,1,valid_win,686.0150592,62,,,,,,,,,,,,,,,,,,sub_496,2024-07-07_11h29.23.304,Reversal,2023.1.3,59.978683575994104,4,
19,exp3.png,exp4.png,,,,,,,,,,,,,,,,,,1,0,1,0,0,19,19,19,,,,,,,,,False,39,100,False,exp3.png,exp4.png,trial_left_image,1,exp3.png,4,exp3.png,exp4.png,0,4,reversed,correct,0.8674491501343563,1,valid_win,692.4294815000003,63,,,,,,,,,,,,,,,,,,sub_496,2024-07-07_11h29.23.304,Reversal,2023.1.3,59.978683575994104,4,
20,exp1.png,exp2.png,,,,,,,,,,,,,,,,,,1,0,1,0,0,20,20,20,,,,,,,,,True,,,,,,,,,,,,,,,,,,,,,,,,,,,,,,,,,,,,,,sub_496,2024-07-07_11h29.23.304,Reversal,2023.1.3,59.978683575994104,4,
,,,exp1.png,,,,,,,,,,,,,,,,,1,0,1,0,,,,,0,0,0,0,0,0,0,0,,,,,,,,,,,,,,,,,,,,,,757.8043937000002,100.0,100.0,1.8363962000003085,"[(100.0, 1.8363962000003085)]",,,,,,,,,,,,,sub_496,2024-07-07_11h29.23.304,Reversal,2023.1.3,59.978683575994104,4,
,,,exp2.png,,,,,,,,,,,,,,,,,1,0,1,0,,,,,0,0,0,0,0,1,1,1,,,,,,,,,,,,,,,,,,,,,,761.3219328999994,,100.0,0.8623033999992913,"[(100.0, 0.8623033999992913)]",100.0,,,,,,,,,,,,sub_496,2024-07-07_11h29.23.304,Reversal,2023.1.3,59.978683575994104,4,
,,,exp3.png,,,,,,,,,,,,,,,,,1,0,1,0,,,,,0,0,0,0,0,2,2,2,,,,,,,,,,,,,,,,,,,,,,763.2705123999995,,100.0,0.7950473999999303,"[(100.0, 0.7950473999999303)]",,100.0,,,,,,,,,,,sub_496,2024-07-07_11h29.23.304,Reversal,2023.1.3,59.978683575994104,4,
,,,exp4.png,,,,,,,,,,,,,,,,,1,0,1,0,,,,,0,0,0,0,0,3,3,3,,,,,,,,,,,,,,,,,,,,,,765.1564583999998,,100.0,0.8605293999999049,"[(100.0, 0.8605293999999049)]",,,100.0,,,,,,,,,,sub_496,2024-07-07_11h29.23.304,Reversal,2023.1.3,59.978683575994104,4,
0,exp1.png,exp2.png,,,,,,,,,,,,,,,,,,2,0,2,0,0,0,0,0,,,,,,,,,False,40,101,False,exp1.png,exp2.png,trial_right_image,-1,exp2.png,4,exp2.png,exp1.png,1,1,non-reversed,correct,0.9663818928817404,1,valid_win,713.7223854000003,64,,,,,,,,,,,,,,,,,,sub_496,2024-07-07_11h29.23.304,Reversal,2023.1.3,59.978683575994104,4,
1,exp3.png,exp4.png,,,,,,,,,,,,,,,,,,2,0,2,0,0,1,1,1,,,,,,,,,False,41,102,False,exp3.png,exp4.png,trial_left_image,1,exp3.png,4,exp3.png,exp4.png,0,4,reversed,correct,0.6235307498907744,1,valid_win,718.7706212000003,65,,,,,,,,,,,,,,,,,,sub_496,2024-07-07_11h29.23.304,Reversal,2023.1.3,59.978683575994104,4,
2,exp1.png,exp2.png,,,,,,,,,,,,,,,,,,2,0,2,0,0,2,2,2,,,,,,,,,False,42,103,True,exp2.png,exp1.png,trial_right_image,-1,exp1.png,4,exp2.png,exp1.png,0,2,non-reversed,incorrect,0.3841994987690155,0,valid_lose,729.7341745000003,65,,,,,,,,,,,,,,,,,,sub_496,2024-07-07_11h29.23.304,Reversal,2023.1.3,59.978683575994104,4,
3,exp3.png,exp4.png,,,,,,,,,,,,,,,,,,2,0,2,0,0,3,3,3,,,,,,,,,False,43,104,False,exp3.png,exp4.png,trial_left_image,1,exp3.png,4,exp3.png,exp4.png,0,4,reversed,correct,0.4729857586961572,1,valid_win,734.5651556000003,66,,,,,,,,,,,,,,,,,,sub_496,2024-07-07_11h29.23.304,Reversal,2023.1.3,59.978683575994104,4,
4,exp1.png,exp2.png,,,,,,,,,,,,,,,,,,2,0,2,0,0,4,4,4,,,,,,,,,False,44,105,True,exp2.png,exp1.png,trial_left_image,1,exp2.png,4,exp2.png,exp1.png,1,1,non-reversed,correct,0.6504288384427646,1,valid_win,739.6803574000005,67,,,,,,,,,,,,,,,,,,sub_496,2024-07-07_11h29.23.304,Reversal,2023.1.3,59.978683575994104,4,
5,exp3.png,exp4.png,,,,,,,,,,,,,,,,,,2,0,2,0,0,5,5,5,,,,,,,,,False,45,106,True,exp4.png,exp3.png,trial_left_image,1,exp4.png,4,exp3.png,exp4.png,1,3,reversed,incorrect,0.4084359465623436,0,valid_lose,745.4781606000006,67,,,,,,,,,,,,,,,,,,sub_496,2024-07-07_11h29.23.304,Reversal,2023.1.3,59.978683575994104,4,
6,exp1.png,exp2.png,,,,,,,,,,,,,,,,,,2,0,2,0,0,6,6,6,,,,,,,,,False,46,107,False,exp1.png,exp2.png,trial_left_image,1,exp1.png,4,exp2.png,exp1.png,0,2,non-reversed,incorrect,0.3088510620848567,0,valid_lose,751.7593321000004,67,,,,,,,,,,,,,,,,,,sub_496,2024-07-07_11h29.23.304,Reversal,2023.1.3,59.978683575994104,4,
7,exp3.png,exp4.png,,,,,,,,,,,,,,,,,,2,0,2,0,0,7,7,7,,,,,,,,,False,47,108,True,exp4.png,exp3.png,trial_right_image,-1,exp3.png,4,exp3.png,exp4.png,0,4,reversed,correct,0.25626838486333825,1,valid_win,755.9418859000007,68,,,,,,,,,,,,,,,,,,sub_496,2024-07-07_11h29.23.304,Reversal,2023.1.3,59.978683575994104,4,
8,exp1.png,exp2.png,,,,,,,,,,,,,,,,,,2,0,2,0,0,8,8,8,,,,,,,,,False,48,109,False,exp1.png,exp2.png,trial_left_image,1,exp1.png,4,exp2.png,exp1.png,0,2,non-reversed,incorrect,0.22329089742313002,1,invalid_win,766.9215836000003,69,,,,,,,,,,,,,,,,,,sub_496,2024-07-07_11h29.23.304,Reversal,2023.1.3,59.978683575994104,4,
9,exp3.png,exp4.png,,,,,,,,,,,,,,,,,,2,0,2,0,0,9,9,9,,,,,,,,,False,49,110,False,exp3.png,exp4.png,trial_left_image,1,exp3.png,4,exp3.png,exp4.png,0,4,reversed,correct,0.6699681953984645,1,valid_win,772.9522434,70,,,,,,,,,,,,,,,,,,sub_496,2024-07-07_11h29.23.304,Reversal,2023.1.3,59.978683575994104,4,
10,exp1.png,exp2.png,,,,,,,,,,,,,,,,,,2,0,2,0,0,10,10,10,,,,,,,,,False,50,111,True,exp2.png,exp1.png,trial_left_image,1,exp2.png,4,exp2.png,exp1.png,1,1,non-reversed,correct,0.3618464718442771,1,valid_win,778.2508624000002,71,,,,,,,,,,,,,,,,,,sub_496,2024-07-07_11h29.23.304,Reversal,2023.1.3,59.978683575994104,4,
11,exp3.png,exp4.png,,,,,,,,,,,,,,,,,,2,0,2,0,0,11,11,11,,,,,,,,,False,51,112,False,exp3.png,exp4.png,trial_right_image,-1,exp4.png,4,exp3.png,exp4.png,1,3,reversed,incorrect,0.6727733957486954,0,valid_lose,785.3977962000008,71,,,,,,,,,,,,,,,,,,sub_496,2024-07-07_11h29.23.304,Reversal,2023.1.3,59.978683575994104,4,
12,exp1.png,exp2.png,,,,,,,,,,,,,,,,,,2,0,2,0,0,12,12,12,,,,,,,,,False,52,113,True,exp2.png,exp1.png,trial_left_image,1,exp2.png,4,exp2.png,exp1.png,1,1,non-reversed,correct,0.648797974637805,1,valid_win,790.7468769000006,72,,,,,,,,,,,,,,,,,,sub_496,2024-07-07_11h29.23.304,Reversal,2023.1.3,59.978683575994104,4,
13,exp3.png,exp4.png,,,,,,,,,,,,,,,,,,2,0,2,0,0,13,13,13,,,,,,,,,False,53,114,True,exp4.png,exp3.png,trial_left_image,1,exp4.png,4,exp3.png,exp4.png,1,3,reversed,incorrect,0.8800310930779442,0,valid_lose,796.9440258000004,72,,,,,,,,,,,,,,,,,,sub_496,2024-07-07_11h29.23.304,Reversal,2023.1.3,59.978683575994104,4,
14,exp1.png,exp2.png,,,,,,,,,,,,,,,,,,2,0,2,0,0,14,14,14,,,,,,,,,False,54,115,False,exp1.png,exp2.png,trial_right_image,-1,exp2.png,4,exp2.png,exp1.png,1,1,non-reversed,correct,0.08347258186499384,0,invalid_lose,801.0926608,72,,,,,,,,,,,,,,,,,,sub_496,2024-07-07_11h29.23.304,Reversal,2023.1.3,59.978683575994104,4,
15,exp3.png,exp4.png,,,,,,,,,,,,,,,,,,2,0,2,0,0,15,15,15,,,,,,,,,False,55,116,True,exp4.png,exp3.png,trial_left_image,1,exp4.png,4,exp3.png,exp4.png,1,3,reversed,incorrect,0.3713998873112754,0,valid_lose,805.5741323000002,72,,,,,,,,,,,,,,,,,,sub_496,2024-07-07_11h29.23.304,Reversal,2023.1.3,59.978683575994104,4,
16,exp1.png,exp2.png,,,,,,,,,,,,,,,,,,2,0,2,0,0,16,16,16,,,,,,,,,False,56,117,False,exp1.png,exp2.png,trial_left_image,1,exp1.png,4,exp2.png,exp1.png,0,2,non-reversed,incorrect,0.5314640413113291,0,valid_lose,810.4065918000006,72,,,,,,,,,,,,,,,,,,sub_496,2024-07-07_11h29.23.304,Reversal,2023.1.3,59.978683575994104,4,
17,exp3.png,exp4.png,,,,,,,,,,,,,,,,,,2,0,2,0,0,17,17,17,,,,,,,,,False,57,118,True,exp4.png,exp3.png,trial_right_image,-1,exp3.png,4,exp3.png,exp4.png,0,4,reversed,correct,0.012018444565473185,0,invalid_lose,814.7547028000008,72,,,,,,,,,,,,,,,,,,sub_496,2024-07-07_11h29.23.304,Reversal,2023.1.3,59.978683575994104,4,
18,exp1.png,exp2.png,,,,,,,,,,,,,,,,,,2,0,2,0,0,18,18,18,,,,,,,,,False,58,119,False,exp1.png,exp2.png,trial_left_image,1,exp1.png,4,exp2.png,exp1.png,0,2,non-reversed,incorrect,0.10354599683464982,1,invalid_win,819.0532748000005,73,,,,,,,,,,,,,,,,,,sub_496,2024-07-07_11h29.23.304,Reversal,2023.1.3,59.978683575994104,4,
19,exp3.png,exp4.png,,,,,,,,,,,,,,,,,,2,0,2,0,0,19,19,19,,,,,,,,,False,59,120,True,exp4.png,exp3.png,trial_right_image,-1,exp3.png,4,exp3.png,exp4.png,0,4,reversed,correct,0.13843574754922372,0,invalid_lose,823.3190332000004,73,,,,,,,,,,,,,,,,,,sub_496,2024-07-07_11h29.23.304,Reversal,2023.1.3,59.978683575994104,4,
20,exp1.png,exp2.png,,,,,,,,,,,,,,,,,,2,0,2,0,0,20,20,20,,,,,,,,,True,,,,,,,,,,,,,,,,,,,,,,,,,,,,,,,,,,,,,,sub_496,2024-07-07_11h29.23.304,Reversal,2023.1.3,59.978683575994104,4,
,,,exp1.png,,,,,,,,,,,,,,,,,2,0,2,0,,,,,0,0,0,0,0,0,0,0,,,,,,,,,,,,,,,,,,,,,,888.7130804999997,100.0,100.0,1.3967867000001206,"[(100.0, 1.3967867000001206)]",,,,,,,,,,,,,sub_496,2024-07-07_11h29.23.304,Reversal,2023.1.3,59.978683575994104,4,
,,,exp2.png,,,,,,,,,,,,,,,,,2,0,2,0,,,,,0,0,0,0,0,1,1,1,,,,,,,,,,,,,,,,,,,,,,891.1452119999994,,100.0,1.2597823999994944,"[(100.0, 1.2597823999994944)]",100.0,,,,,,,,,,,,sub_496,2024-07-07_11h29.23.304,Reversal,2023.1.3,59.978683575994104,4,
,,,exp3.png,,,,,,,,,,,,,,,,,2,0,2,0,,,,,0,0,0,0,0,2,2,2,,,,,,,,,,,,,,,,,,,,,,893.5274079000001,,100.0,0.827247900000657,"[(100.0, 0.827247900000657)]",,100.0,,,,,,,,,,,sub_496,2024-07-07_11h29.23.304,Reversal,2023.1.3,59.978683575994104,4,
,,,exp4.png,,,,,,,,,,,,,,,,,2,0,2,0,,,,,0,0,0,0,0,3,3,3,,,,,,,,,,,,,,,,,,,,,,895.3941715999999,,100.0,0.7786552999996275,"[(100.0, 0.7786552999996275)]",,,100.0,,,,,,,,,,sub_496,2024-07-07_11h29.23.304,Reversal,2023.1.3,59.978683575994104,4,
,,,,,,,,,,,,,,,,,,,,,,,,,,,,,,,,,,,,,,,,,,,,,,,,,,,,,,,,73,,,,,,,,,,82,49,33,364.3981746999998,0,space,7.863790999998855,None,sub_496,2024-07-07_11h29.23.304,Reversal,2023.1.3,59.978683575994104,4,
