trial_index,trial_image1_file,trial_image2_file,image_file,learning_outer_loop.thisRepN,learning_outer_loop.thisTrialN,learning_outer_loop.thisN,learning_outer_loop.thisIndex,learning_inner_loop.thisRepN,learning_inner_loop.thisTrialN,learning_inner_loop.thisN,learning_inner_loop.thisIndex,learning_estimation_outer_loop.thisRepN,learning_estimation_outer_loop.thisTrialN,learning_estimation_outer_loop.thisN,learning_estimation_outer_loop.thisIndex,learning_estimation_inner_loop.thisRepN,learning_estimation_inner_loop.thisTrialN,learning_estimation_inner_loop.thisN,learning_estimation_inner_loop.thisIndex,reversal_outer_loop.thisRepN,reversal_outer_loop.thisTrialN,reversal_outer_loop.thisN,reversal_outer_loop.thisIndex,reversal_inner_loop.thisRepN,reversal_inner_loop.thisTrialN,reversal_inner_loop.thisN,reversal_inner_loop.thisIndex,reversal_estimation_outer_loop.thisRepN,reversal_estimation_outer_loop.thisTrialN,reversal_estimation_outer_loop.thisN,reversal_estimation_outer_loop.thisIndex,reversal_estimation_inner_loop.thisRepN,reversal_estimation_inner_loop.thisTrialN,reversal_estimation_inner_loop.thisN,reversal_estimation_inner_loop.thisIndex,skipped,total_trial_counter,trial_num,left_right_flip,left_image_file,right_image_file,clicked_stimulus_side,side,clicked_stimulus,version,high_prob_image_file,low_prob_image_file,choice_a,choice_b,pair_type,correct,trial_feedback_random,reward,trial_type,overall_time_after_trial,score,estimation_rating.started,estimation_exp1.png,estimation_rating.response,estimation_rating.rt,estimation_rating.history,estimation_exp2.png,estimation_exp4.png,estimation_exp3.png,total_learning_time,total_correct,learning_correct,reversal_correct,total_reversal_time,extra_block,participant,date,expName,psychopyVersion,frameRate,ver,
0,exp1.png,exp2.png,,0,0,0,0,0,0,0,0,,,,,,,,,,,,,,,,,,,,,,,,,True,,,,,,,,,,,,,,,,,,,,,,,,,,,,,,,,,,,sub_600,2025-01-17_10h07.38.191,Reversal,2023.1.3,60.067527911603314,4,
1,exp3.png,exp4.png,,0,0,0,0,0,1,1,1,,,,,,,,,,,,,,,,,,,,,,,,,False,0,1,False,exp3.png,exp4.png,trial_left_image,1,exp3.png,4,exp4.png,exp3.png,0,4,reversed,incorrect,0.9730178670227838,0,valid_lose,3.7132047000341117,0,,,,,,,,,,,,,,,sub_600,2025-01-17_10h07.38.191,Reversal,2023.1.3,60.067527911603314,4,
2,exp1.png,exp2.png,,0,0,0,0,0,2,2,2,,,,,,,,,,,,,,,,,,,,,,,,,False,1,2,False,exp1.png,exp2.png,trial_right_image,-1,exp2.png,4,exp2.png,exp1.png,1,1,non-reversed,correct,0.6433841371646698,1,valid_win,8.729922800092027,1,,,,,,,,,,,,,,,sub_600,2025-01-17_10h07.38.191,Reversal,2023.1.3,60.067527911603314,4,
3,exp3.png,exp4.png,,0,0,0,0,0,3,3,3,,,,,,,,,,,,,,,,,,,,,,,,,False,2,3,False,exp3.png,exp4.png,trial_right_image,-1,exp4.png,4,exp4.png,exp3.png,1,3,reversed,correct,0.8845960554687726,1,valid_win,14.276823700056411,2,,,,,,,,,,,,,,,sub_600,2025-01-17_10h07.38.191,Reversal,2023.1.3,60.067527911603314,4,
4,exp1.png,exp2.png,,0,0,0,0,0,4,4,4,,,,,,,,,,,,,,,,,,,,,,,,,False,3,4,False,exp1.png,exp2.png,trial_left_image,1,exp1.png,4,exp2.png,exp1.png,0,2,non-reversed,incorrect,0.515999894589955,0,valid_lose,20.49142670002766,2,,,,,,,,,,,,,,,sub_600,2025-01-17_10h07.38.191,Reversal,2023.1.3,60.067527911603314,4,
5,exp3.png,exp4.png,,0,0,0,0,0,5,5,5,,,,,,,,,,,,,,,,,,,,,,,,,False,4,5,True,exp4.png,exp3.png,trial_left_image,1,exp4.png,4,exp4.png,exp3.png,1,3,reversed,correct,0.5419444805035901,1,valid_win,25.25631060008891,3,,,,,,,,,,,,,,,sub_600,2025-01-17_10h07.38.191,Reversal,2023.1.3,60.067527911603314,4,
6,exp1.png,exp2.png,,0,0,0,0,0,6,6,6,,,,,,,,,,,,,,,,,,,,,,,,,False,5,6,True,exp2.png,exp1.png,trial_left_image,1,exp2.png,4,exp2.png,exp1.png,1,1,non-reversed,correct,0.3651692377258111,1,valid_win,29.804850400076248,4,,,,,,,,,,,,,,,sub_600,2025-01-17_10h07.38.191,Reversal,2023.1.3,60.067527911603314,4,
7,exp3.png,exp4.png,,0,0,0,0,0,7,7,7,,,,,,,,,,,,,,,,,,,,,,,,,False,6,7,True,exp4.png,exp3.png,trial_left_image,1,exp4.png,4,exp4.png,exp3.png,1,3,reversed,correct,0.36691902241461294,1,valid_win,34.05397270002868,5,,,,,,,,,,,,,,,sub_600,2025-01-17_10h07.38.191,Reversal,2023.1.3,60.067527911603314,4,
8,exp1.png,exp2.png,,0,0,0,0,0,8,8,8,,,,,,,,,,,,,,,,,,,,,,,,,False,7,8,True,exp2.png,exp1.png,trial_left_image,1,exp2.png,4,exp2.png,exp1.png,1,1,non-reversed,correct,0.912615731804676,1,valid_win,38.552188500063494,6,,,,,,,,,,,,,,,sub_600,2025-01-17_10h07.38.191,Reversal,2023.1.3,60.067527911603314,4,
9,exp3.png,exp4.png,,0,0,0,0,0,9,9,9,,,,,,,,,,,,,,,,,,,,,,,,,False,8,9,True,exp4.png,exp3.png,trial_left_image,1,exp4.png,4,exp4.png,exp3.png,1,3,reversed,correct,0.24068995942302474,0,invalid_lose,42.5670518000843,6,,,,,,,,,,,,,,,sub_600,2025-01-17_10h07.38.191,Reversal,2023.1.3,60.067527911603314,4,
10,exp1.png,exp2.png,,0,0,0,0,0,10,10,10,,,,,,,,,,,,,,,,,,,,,,,,,False,9,10,True,exp2.png,exp1.png,trial_left_image,1,exp2.png,4,exp2.png,exp1.png,1,1,non-reversed,correct,0.19351618255048564,0,invalid_lose,47.01555430004373,6,,,,,,,,,,,,,,,sub_600,2025-01-17_10h07.38.191,Reversal,2023.1.3,60.067527911603314,4,
11,exp3.png,exp4.png,,0,0,0,0,0,11,11,11,,,,,,,,,,,,,,,,,,,,,,,,,False,10,11,True,exp4.png,exp3.png,trial_right_image,-1,exp3.png,4,exp4.png,exp3.png,0,4,reversed,incorrect,0.847850112349187,0,valid_lose,51.78051850001793,6,,,,,,,,,,,,,,,sub_600,2025-01-17_10h07.38.191,Reversal,2023.1.3,60.067527911603314,4,
12,exp1.png,exp2.png,,0,0,0,0,0,12,12,12,,,,,,,,,,,,,,,,,,,,,,,,,False,11,12,False,exp1.png,exp2.png,trial_right_image,-1,exp2.png,4,exp2.png,exp1.png,1,1,non-reversed,correct,0.6683077163248832,1,valid_win,55.72979980008677,7,,,,,,,,,,,,,,,sub_600,2025-01-17_10h07.38.191,Reversal,2023.1.3,60.067527911603314,4,
13,exp3.png,exp4.png,,0,0,0,0,0,13,13,13,,,,,,,,,,,,,,,,,,,,,,,,,False,12,13,True,exp4.png,exp3.png,trial_right_image,-1,exp3.png,4,exp4.png,exp3.png,0,4,reversed,incorrect,0.06000205075643361,1,invalid_win,59.89506160002202,8,,,,,,,,,,,,,,,sub_600,2025-01-17_10h07.38.191,Reversal,2023.1.3,60.067527911603314,4,
14,exp1.png,exp2.png,,0,0,0,0,0,14,14,14,,,,,,,,,,,,,,,,,,,,,,,,,False,13,14,False,exp1.png,exp2.png,trial_right_image,-1,exp2.png,4,exp2.png,exp1.png,1,1,non-reversed,correct,0.6733276564082488,1,valid_win,64.21001879998948,9,,,,,,,,,,,,,,,sub_600,2025-01-17_10h07.38.191,Reversal,2023.1.3,60.067527911603314,4,
15,exp3.png,exp4.png,,0,0,0,0,0,15,15,15,,,,,,,,,,,,,,,,,,,,,,,,,False,14,15,False,exp3.png,exp4.png,trial_right_image,-1,exp4.png,4,exp4.png,exp3.png,1,3,reversed,correct,0.9373952617416593,1,valid_win,68.45813210005872,10,,,,,,,,,,,,,,,sub_600,2025-01-17_10h07.38.191,Reversal,2023.1.3,60.067527911603314,4,
16,exp1.png,exp2.png,,0,0,0,0,0,16,16,16,,,,,,,,,,,,,,,,,,,,,,,,,False,15,16,True,exp2.png,exp1.png,trial_right_image,-1,exp1.png,4,exp2.png,exp1.png,0,2,non-reversed,incorrect,0.7038761983976968,0,valid_lose,72.57336220005527,10,,,,,,,,,,,,,,,sub_600,2025-01-17_10h07.38.191,Reversal,2023.1.3,60.067527911603314,4,
17,exp3.png,exp4.png,,0,0,0,0,0,17,17,17,,,,,,,,,,,,,,,,,,,,,,,,,False,16,17,True,exp4.png,exp3.png,trial_right_image,-1,exp3.png,4,exp4.png,exp3.png,0,4,reversed,incorrect,0.31759923376738675,0,valid_lose,76.35593980003614,10,,,,,,,,,,,,,,,sub_600,2025-01-17_10h07.38.191,Reversal,2023.1.3,60.067527911603314,4,
18,exp1.png,exp2.png,,0,0,0,0,0,18,18,18,,,,,,,,,,,,,,,,,,,,,,,,,False,17,18,False,exp1.png,exp2.png,trial_right_image,-1,exp2.png,4,exp2.png,exp1.png,1,1,non-reversed,correct,0.43909968532283006,1,valid_win,80.12139810004737,11,,,,,,,,,,,,,,,sub_600,2025-01-17_10h07.38.191,Reversal,2023.1.3,60.067527911603314,4,
19,exp3.png,exp4.png,,0,0,0,0,0,19,19,19,,,,,,,,,,,,,,,,,,,,,,,,,False,18,19,False,exp3.png,exp4.png,trial_right_image,-1,exp4.png,4,exp4.png,exp3.png,1,3,reversed,correct,0.32195959841120914,1,valid_win,84.07207580003887,12,,,,,,,,,,,,,,,sub_600,2025-01-17_10h07.38.191,Reversal,2023.1.3,60.067527911603314,4,
20,exp1.png,exp2.png,,0,0,0,0,0,20,20,20,,,,,,,,,,,,,,,,,,,,,,,,,False,19,20,False,exp1.png,exp2.png,trial_right_image,-1,exp2.png,4,exp2.png,exp1.png,1,1,non-reversed,correct,0.6174113806743119,1,valid_win,89.50116250000428,13,,,,,,,,,,,,,,,sub_600,2025-01-17_10h07.38.191,Reversal,2023.1.3,60.067527911603314,4,
,,,exp1.png,0,0,0,0,,,,,0,0,0,0,0,0,0,0,,,,,,,,,,,,,,,,,,,,,,,,,,,,,,,,,,,,,,164.8512219999684,26.0,26.0,12.21405860001687,"[(26.0, 12.21405860001687)]",,,,,,,,,,sub_600,2025-01-17_10h07.38.191,Reversal,2023.1.3,60.067527911603314,4,
,,,exp2.png,0,0,0,0,,,,,0,0,0,0,0,1,1,1,,,,,,,,,,,,,,,,,,,,,,,,,,,,,,,,,,,,,,179.43274750001729,,82.0,2.724702100036666,"[(82.0, 2.724702100036666)]",82.0,,,,,,,,,sub_600,2025-01-17_10h07.38.191,Reversal,2023.1.3,60.067527911603314,4,
,,,exp3.png,0,0,0,0,,,,,0,0,0,0,0,2,2,2,,,,,,,,,,,,,,,,,,,,,,,,,,,,,,,,,,,,,,183.34415289992467,,None,None,[],,,,,,,,,,sub_600,2025-01-17_10h07.38.191,Reversal,2023.1.3,60.067527911603314,4,
,,,exp4.png,0,0,0,0,,,,,0,0,0,0,0,3,3,3,,,,,,,,,,,,,,,,,,,,,,,,,,,,,,,,,,,,,,186.34344939992297,,83.0,2.1274851000634953,"[(83.0, 2.1274851000634953)]",,83.0,,,,,,,,sub_600,2025-01-17_10h07.38.191,Reversal,2023.1.3,60.067527911603314,4,
0,exp1.png,exp2.png,,1,0,1,0,0,0,0,0,,,,,,,,,,,,,,,,,,,,,,,,,True,,,,,,,,,,,,,,,,,,,,,,,,,,,,,,,,,,,sub_600,2025-01-17_10h07.38.191,Reversal,2023.1.3,60.067527911603314,4,
1,exp3.png,exp4.png,,1,0,1,0,0,1,1,1,,,,,,,,,,,,,,,,,,,,,,,,,False,20,21,False,exp3.png,exp4.png,trial_right_image,-1,exp4.png,4,exp4.png,exp3.png,1,3,reversed,correct,0.5494028165184515,1,valid_win,118.5255715000676,14,,,,,,,,,,,,,,,sub_600,2025-01-17_10h07.38.191,Reversal,2023.1.3,60.067527911603314,4,
2,exp1.png,exp2.png,,1,0,1,0,0,2,2,2,,,,,,,,,,,,,,,,,,,,,,,,,False,21,22,True,exp2.png,exp1.png,trial_left_image,1,exp2.png,4,exp2.png,exp1.png,1,1,non-reversed,correct,0.6587689464085251,1,valid_win,122.89021320000757,15,,,,,,,,,,,,,,,sub_600,2025-01-17_10h07.38.191,Reversal,2023.1.3,60.067527911603314,4,
3,exp3.png,exp4.png,,1,0,1,0,0,3,3,3,,,,,,,,,,,,,,,,,,,,,,,,,False,22,23,True,exp4.png,exp3.png,trial_left_image,1,exp4.png,4,exp4.png,exp3.png,1,3,reversed,correct,0.17787965977096054,0,invalid_lose,126.97184420004487,15,,,,,,,,,,,,,,,sub_600,2025-01-17_10h07.38.191,Reversal,2023.1.3,60.067527911603314,4,
4,exp1.png,exp2.png,,1,0,1,0,0,4,4,4,,,,,,,,,,,,,,,,,,,,,,,,,False,23,24,False,exp1.png,exp2.png,trial_right_image,-1,exp2.png,4,exp2.png,exp1.png,1,1,non-reversed,correct,0.03752314634899401,0,invalid_lose,130.95388240006287,15,,,,,,,,,,,,,,,sub_600,2025-01-17_10h07.38.191,Reversal,2023.1.3,60.067527911603314,4,
5,exp3.png,exp4.png,,1,0,1,0,0,5,5,5,,,,,,,,,,,,,,,,,,,,,,,,,False,24,25,True,exp4.png,exp3.png,trial_left_image,1,exp4.png,4,exp4.png,exp3.png,1,3,reversed,correct,0.958795901339824,1,valid_win,135.26896160002798,16,,,,,,,,,,,,,,,sub_600,2025-01-17_10h07.38.191,Reversal,2023.1.3,60.067527911603314,4,
6,exp1.png,exp2.png,,1,0,1,0,0,6,6,6,,,,,,,,,,,,,,,,,,,,,,,,,False,25,26,False,exp1.png,exp2.png,trial_right_image,-1,exp2.png,4,exp2.png,exp1.png,1,1,non-reversed,correct,0.44601322071896643,1,valid_win,139.33432420005556,17,,,,,,,,,,,,,,,sub_600,2025-01-17_10h07.38.191,Reversal,2023.1.3,60.067527911603314,4,
7,exp3.png,exp4.png,,1,0,1,0,0,7,7,7,,,,,,,,,,,,,,,,,,,,,,,,,False,26,27,False,exp3.png,exp4.png,trial_right_image,-1,exp4.png,4,exp4.png,exp3.png,1,3,reversed,correct,0.892142875813652,1,valid_win,143.33286190009676,18,,,,,,,,,,,,,,,sub_600,2025-01-17_10h07.38.191,Reversal,2023.1.3,60.067527911603314,4,
8,exp1.png,exp2.png,,1,0,1,0,0,8,8,8,,,,,,,,,,,,,,,,,,,,,,,,,False,27,28,True,exp2.png,exp1.png,trial_left_image,1,exp2.png,4,exp2.png,exp1.png,1,1,non-reversed,correct,0.325381570159505,1,valid_win,147.61454340000637,19,,,,,,,,,,,,,,,sub_600,2025-01-17_10h07.38.191,Reversal,2023.1.3,60.067527911603314,4,
9,exp3.png,exp4.png,,1,0,1,0,0,9,9,9,,,,,,,,,,,,,,,,,,,,,,,,,False,28,29,False,exp3.png,exp4.png,trial_right_image,-1,exp4.png,4,exp4.png,exp3.png,1,3,reversed,correct,0.004082947915583501,0,invalid_lose,151.91312070004642,19,,,,,,,,,,,,,,,sub_600,2025-01-17_10h07.38.191,Reversal,2023.1.3,60.067527911603314,4,
10,exp1.png,exp2.png,,1,0,1,0,0,10,10,10,,,,,,,,,,,,,,,,,,,,,,,,,False,29,30,False,exp1.png,exp2.png,trial_right_image,-1,exp2.png,4,exp2.png,exp1.png,1,1,non-reversed,correct,0.7253180499048304,1,valid_win,155.96174350008368,20,,,,,,,,,,,,,,,sub_600,2025-01-17_10h07.38.191,Reversal,2023.1.3,60.067527911603314,4,
11,exp3.png,exp4.png,,1,0,1,0,0,11,11,11,,,,,,,,,,,,,,,,,,,,,,,,,False,30,31,True,exp4.png,exp3.png,trial_left_image,1,exp4.png,4,exp4.png,exp3.png,1,3,reversed,correct,0.057340611486262016,0,invalid_lose,160.27717500005383,20,,,,,,,,,,,,,,,sub_600,2025-01-17_10h07.38.191,Reversal,2023.1.3,60.067527911603314,4,
12,exp1.png,exp2.png,,1,0,1,0,0,12,12,12,,,,,,,,,,,,,,,,,,,,,,,,,False,31,32,True,exp2.png,exp1.png,trial_left_image,1,exp2.png,4,exp2.png,exp1.png,1,1,non-reversed,correct,0.9892227966927407,1,valid_win,164.34263780002948,21,,,,,,,,,,,,,,,sub_600,2025-01-17_10h07.38.191,Reversal,2023.1.3,60.067527911603314,4,
13,exp3.png,exp4.png,,1,0,1,0,0,13,13,13,,,,,,,,,,,,,,,,,,,,,,,,,False,32,33,True,exp4.png,exp3.png,trial_left_image,1,exp4.png,4,exp4.png,exp3.png,1,3,reversed,correct,0.23835189301818271,0,invalid_lose,168.341024100082,21,,,,,,,,,,,,,,,sub_600,2025-01-17_10h07.38.191,Reversal,2023.1.3,60.067527911603314,4,
14,exp1.png,exp2.png,,1,0,1,0,0,14,14,14,,,,,,,,,,,,,,,,,,,,,,,,,False,33,34,False,exp1.png,exp2.png,trial_right_image,-1,exp2.png,4,exp2.png,exp1.png,1,1,non-reversed,correct,0.413365568341704,1,valid_win,172.47339510009624,22,,,,,,,,,,,,,,,sub_600,2025-01-17_10h07.38.191,Reversal,2023.1.3,60.067527911603314,4,
15,exp3.png,exp4.png,,1,0,1,0,0,15,15,15,,,,,,,,,,,,,,,,,,,,,,,,,False,34,35,True,exp4.png,exp3.png,trial_left_image,1,exp4.png,4,exp4.png,exp3.png,1,3,reversed,correct,0.11146029472004815,0,invalid_lose,176.804621300078,22,,,,,,,,,,,,,,,sub_600,2025-01-17_10h07.38.191,Reversal,2023.1.3,60.067527911603314,4,
16,exp1.png,exp2.png,,1,0,1,0,0,16,16,16,,,,,,,,,,,,,,,,,,,,,,,,,False,35,36,False,exp1.png,exp2.png,trial_right_image,-1,exp2.png,4,exp2.png,exp1.png,1,1,non-reversed,correct,0.7665015161941177,1,valid_win,180.80420540005434,23,,,,,,,,,,,,,,,sub_600,2025-01-17_10h07.38.191,Reversal,2023.1.3,60.067527911603314,4,
17,exp3.png,exp4.png,,1,0,1,0,0,17,17,17,,,,,,,,,,,,,,,,,,,,,,,,,False,36,37,False,exp3.png,exp4.png,trial_left_image,1,exp3.png,4,exp4.png,exp3.png,0,4,reversed,incorrect,0.044139962084330575,1,invalid_win,185.6527603000868,24,,,,,,,,,,,,,,,sub_600,2025-01-17_10h07.38.191,Reversal,2023.1.3,60.067527911603314,4,
18,exp1.png,exp2.png,,1,0,1,0,0,18,18,18,,,,,,,,,,,,,,,,,,,,,,,,,False,37,38,True,exp2.png,exp1.png,trial_left_image,1,exp2.png,4,exp2.png,exp1.png,1,1,non-reversed,correct,0.7546966325637494,1,valid_win,191.63340749999043,25,,,,,,,,,,,,,,,sub_600,2025-01-17_10h07.38.191,Reversal,2023.1.3,60.067527911603314,4,
19,exp3.png,exp4.png,,1,0,1,0,0,19,19,19,,,,,,,,,,,,,,,,,,,,,,,,,False,38,39,True,exp4.png,exp3.png,trial_right_image,-1,exp3.png,4,exp4.png,exp3.png,0,4,reversed,incorrect,0.56062466477813,0,valid_lose,198.5805842000991,25,,,,,,,,,,,,,,,sub_600,2025-01-17_10h07.38.191,Reversal,2023.1.3,60.067527911603314,4,
20,exp1.png,exp2.png,,1,0,1,0,0,20,20,20,,,,,,,,,,,,,,,,,,,,,,,,,False,39,40,False,exp1.png,exp2.png,trial_right_image,-1,exp2.png,4,exp2.png,exp1.png,1,1,non-reversed,correct,0.6600153269511166,1,valid_win,203.6955063000787,26,,,,,,,,,,,,,,,sub_600,2025-01-17_10h07.38.191,Reversal,2023.1.3,60.067527911603314,4,
,,,exp1.png,1,0,1,0,,,,,0,0,0,0,0,0,0,0,,,,,,,,,,,,,,,,,,,,,,,,,,,,,,,,,,,,,,279.0470537999645,20.0,20.0,3.5933465000707656,"[(20.0, 3.5933465000707656)]",,,,,,,,,,sub_600,2025-01-17_10h07.38.191,Reversal,2023.1.3,60.067527911603314,4,
,,,exp2.png,1,0,1,0,,,,,0,0,0,0,0,1,1,1,,,,,,,,,,,,,,,,,,,,,,,,,,,,,,,,,,,,,,283.6269377999706,,85.0,1.360935700009577,"[(85.0, 1.360935700009577)]",85.0,,,,,,,,,sub_600,2025-01-17_10h07.38.191,Reversal,2023.1.3,60.067527911603314,4,
,,,exp3.png,1,0,1,0,,,,,0,0,0,0,0,2,2,2,,,,,,,,,,,,,,,,,,,,,,,,,,,,,,,,,,,,,,285.85976339993067,,82.0,1.9286679000360891,"[(82.0, 1.9286679000360891)]",,,82.0,,,,,,,sub_600,2025-01-17_10h07.38.191,Reversal,2023.1.3,60.067527911603314,4,
,,,exp4.png,1,0,1,0,,,,,0,0,0,0,0,3,3,3,,,,,,,,,,,,,,,,,,,,,,,,,,,,,,,,,,,,,,289.17567659995984,,28.0,1.1282509999582544,"[(28.0, 1.1282509999582544)]",,28.0,,,,,,,,sub_600,2025-01-17_10h07.38.191,Reversal,2023.1.3,60.067527911603314,4,
0,exp1.png,exp2.png,,2,0,2,0,0,0,0,0,,,,,,,,,,,,,,,,,,,,,,,,,True,,,,,,,,,,,,,,,,,,,,,,,,,,,,,,,,,,,sub_600,2025-01-17_10h07.38.191,Reversal,2023.1.3,60.067527911603314,4,
1,exp3.png,exp4.png,,2,0,2,0,0,1,1,1,,,,,,,,,,,,,,,,,,,,,,,,,False,40,41,True,exp4.png,exp3.png,trial_right_image,-1,exp3.png,4,exp4.png,exp3.png,0,4,reversed,incorrect,0.4337659013017796,0,valid_lose,222.82331380003598,26,,,,,,,,,,,,,,,sub_600,2025-01-17_10h07.38.191,Reversal,2023.1.3,60.067527911603314,4,
2,exp1.png,exp2.png,,2,0,2,0,0,2,2,2,,,,,,,,,,,,,,,,,,,,,,,,,False,41,42,True,exp2.png,exp1.png,trial_left_image,1,exp2.png,4,exp2.png,exp1.png,1,1,non-reversed,correct,0.6505589068541509,1,valid_win,227.05437560006976,27,,,,,,,,,,,,,,,sub_600,2025-01-17_10h07.38.191,Reversal,2023.1.3,60.067527911603314,4,
3,exp3.png,exp4.png,,2,0,2,0,0,3,3,3,,,,,,,,,,,,,,,,,,,,,,,,,False,42,43,True,exp4.png,exp3.png,trial_right_image,-1,exp3.png,4,exp4.png,exp3.png,0,4,reversed,incorrect,0.10003543440592699,1,invalid_win,231.73612590006087,28,,,,,,,,,,,,,,,sub_600,2025-01-17_10h07.38.191,Reversal,2023.1.3,60.067527911603314,4,
4,exp1.png,exp2.png,,2,0,2,0,0,4,4,4,,,,,,,,,,,,,,,,,,,,,,,,,False,43,44,False,exp1.png,exp2.png,trial_right_image,-1,exp2.png,4,exp2.png,exp1.png,1,1,non-reversed,correct,0.8530867404744464,1,valid_win,236.38434870005585,29,,,,,,,,,,,,,,,sub_600,2025-01-17_10h07.38.191,Reversal,2023.1.3,60.067527911603314,4,
5,exp3.png,exp4.png,,2,0,2,0,0,5,5,5,,,,,,,,,,,,,,,,,,,,,,,,,False,44,45,False,exp3.png,exp4.png,trial_left_image,1,exp3.png,4,exp4.png,exp3.png,0,4,reversed,incorrect,0.5147298447845864,0,valid_lose,241.34948430000804,29,,,,,,,,,,,,,,,sub_600,2025-01-17_10h07.38.191,Reversal,2023.1.3,60.067527911603314,4,
6,exp1.png,exp2.png,,2,0,2,0,0,6,6,6,,,,,,,,,,,,,,,,,,,,,,,,,False,45,46,True,exp2.png,exp1.png,trial_left_image,1,exp2.png,4,exp2.png,exp1.png,1,1,non-reversed,correct,0.6523923315500483,1,valid_win,245.89783970010467,30,,,,,,,,,,,,,,,sub_600,2025-01-17_10h07.38.191,Reversal,2023.1.3,60.067527911603314,4,
7,exp3.png,exp4.png,,2,0,2,0,0,7,7,7,,,,,,,,,,,,,,,,,,,,,,,,,False,46,47,False,exp3.png,exp4.png,trial_left_image,1,exp3.png,4,exp4.png,exp3.png,0,4,reversed,incorrect,0.3484112887914639,0,valid_lose,251.09668160008732,30,,,,,,,,,,,,,,,sub_600,2025-01-17_10h07.38.191,Reversal,2023.1.3,60.067527911603314,4,
8,exp1.png,exp2.png,,2,0,2,0,0,8,8,8,,,,,,,,,,,,,,,,,,,,,,,,,False,47,48,False,exp1.png,exp2.png,trial_right_image,-1,exp2.png,4,exp2.png,exp1.png,1,1,non-reversed,correct,0.9308221695920674,1,valid_win,256.09419259999413,31,,,,,,,,,,,,,,,sub_600,2025-01-17_10h07.38.191,Reversal,2023.1.3,60.067527911603314,4,
9,exp3.png,exp4.png,,2,0,2,0,0,9,9,9,,,,,,,,,,,,,,,,,,,,,,,,,False,48,49,True,exp4.png,exp3.png,trial_right_image,-1,exp3.png,4,exp4.png,exp3.png,0,4,reversed,incorrect,0.7468136518695948,0,valid_lose,260.5595876000589,31,,,,,,,,,,,,,,,sub_600,2025-01-17_10h07.38.191,Reversal,2023.1.3,60.067527911603314,4,
10,exp1.png,exp2.png,,2,0,2,0,0,10,10,10,,,,,,,,,,,,,,,,,,,,,,,,,False,49,50,True,exp2.png,exp1.png,trial_left_image,1,exp2.png,4,exp2.png,exp1.png,1,1,non-reversed,correct,0.16921583059732548,0,invalid_lose,264.70804020005744,31,,,,,,,,,,,,,,,sub_600,2025-01-17_10h07.38.191,Reversal,2023.1.3,60.067527911603314,4,
11,exp3.png,exp4.png,,2,0,2,0,0,11,11,11,,,,,,,,,,,,,,,,,,,,,,,,,False,50,51,True,exp4.png,exp3.png,trial_left_image,1,exp4.png,4,exp4.png,exp3.png,1,3,reversed,correct,0.277213726725434,1,valid_win,268.6567514000926,32,,,,,,,,,,,,,,,sub_600,2025-01-17_10h07.38.191,Reversal,2023.1.3,60.067527911603314,4,
12,exp1.png,exp2.png,,2,0,2,0,0,12,12,12,,,,,,,,,,,,,,,,,,,,,,,,,False,51,52,False,exp1.png,exp2.png,trial_right_image,-1,exp2.png,4,exp2.png,exp1.png,1,1,non-reversed,correct,0.6576134392085214,1,valid_win,273.788319400046,33,,,,,,,,,,,,,,,sub_600,2025-01-17_10h07.38.191,Reversal,2023.1.3,60.067527911603314,4,
13,exp3.png,exp4.png,,2,0,2,0,0,13,13,13,,,,,,,,,,,,,,,,,,,,,,,,,False,52,53,False,exp3.png,exp4.png,trial_right_image,-1,exp4.png,4,exp4.png,exp3.png,1,3,reversed,correct,0.9661870082058484,1,valid_win,278.20370489999186,34,,,,,,,,,,,,,,,sub_600,2025-01-17_10h07.38.191,Reversal,2023.1.3,60.067527911603314,4,
14,exp1.png,exp2.png,,2,0,2,0,0,14,14,14,,,,,,,,,,,,,,,,,,,,,,,,,False,53,54,False,exp1.png,exp2.png,trial_right_image,-1,exp2.png,4,exp2.png,exp1.png,1,1,non-reversed,correct,0.6159634202619707,1,valid_win,282.1692299999995,35,,,,,,,,,,,,,,,sub_600,2025-01-17_10h07.38.191,Reversal,2023.1.3,60.067527911603314,4,
15,exp3.png,exp4.png,,2,0,2,0,0,15,15,15,,,,,,,,,,,,,,,,,,,,,,,,,False,54,55,False,exp3.png,exp4.png,trial_right_image,-1,exp4.png,4,exp4.png,exp3.png,1,3,reversed,correct,0.3363736735772225,1,valid_win,286.11810610000975,36,,,,,,,,,,,,,,,sub_600,2025-01-17_10h07.38.191,Reversal,2023.1.3,60.067527911603314,4,
16,exp1.png,exp2.png,,2,0,2,0,0,16,16,16,,,,,,,,,,,,,,,,,,,,,,,,,False,55,56,False,exp1.png,exp2.png,trial_right_image,-1,exp2.png,4,exp2.png,exp1.png,1,1,non-reversed,correct,0.6164739508495948,1,valid_win,290.03275750007015,37,,,,,,,,,,,,,,,sub_600,2025-01-17_10h07.38.191,Reversal,2023.1.3,60.067527911603314,4,
17,exp3.png,exp4.png,,2,0,2,0,0,17,17,17,,,,,,,,,,,,,,,,,,,,,,,,,False,56,57,True,exp4.png,exp3.png,trial_left_image,1,exp4.png,4,exp4.png,exp3.png,1,3,reversed,correct,0.8716180104309371,1,valid_win,294.2484236001037,38,,,,,,,,,,,,,,,sub_600,2025-01-17_10h07.38.191,Reversal,2023.1.3,60.067527911603314,4,
18,exp1.png,exp2.png,,2,0,2,0,0,18,18,18,,,,,,,,,,,,,,,,,,,,,,,,,False,57,58,False,exp1.png,exp2.png,trial_right_image,-1,exp2.png,4,exp2.png,exp1.png,1,1,non-reversed,correct,0.42866033471985543,1,valid_win,298.43011270009447,39,,,,,,,,,,,,,,,sub_600,2025-01-17_10h07.38.191,Reversal,2023.1.3,60.067527911603314,4,
19,exp3.png,exp4.png,,2,0,2,0,0,19,19,19,,,,,,,,,,,,,,,,,,,,,,,,,False,58,59,True,exp4.png,exp3.png,trial_left_image,1,exp4.png,4,exp4.png,exp3.png,1,3,reversed,correct,0.3850394930787575,1,valid_win,302.478951600031,40,,,,,,,,,,,,,,,sub_600,2025-01-17_10h07.38.191,Reversal,2023.1.3,60.067527911603314,4,
20,exp1.png,exp2.png,,2,0,2,0,0,20,20,20,,,,,,,,,,,,,,,,,,,,,,,,,False,59,60,True,exp2.png,exp1.png,trial_left_image,1,exp2.png,4,exp2.png,exp1.png,1,1,non-reversed,correct,0.24334226854213858,0,invalid_lose,306.69473670003936,40,,,,,,,,,,,,,,,sub_600,2025-01-17_10h07.38.191,Reversal,2023.1.3,60.067527911603314,4,
,,,exp1.png,2,0,2,0,,,,,0,0,0,0,0,0,0,0,,,,,,,,,,,,,,,,,,,,,,,,,,,,,,,,,,,,,,382.0624329999555,26.0,26.0,3.392884899978526,"[(26.0, 3.392884899978526)]",,,,,,,,,,sub_600,2025-01-17_10h07.38.191,Reversal,2023.1.3,60.067527911603314,4,
,,,exp2.png,2,0,2,0,,,,,0,0,0,0,0,1,1,1,,,,,,,,,,,,,,,,,,,,,,,,,,,,,,,,,,,,,,386.4261984999757,,82.0,1.3939484000438824,"[(82.0, 1.3939484000438824)]",82.0,,,,,,,,,sub_600,2025-01-17_10h07.38.191,Reversal,2023.1.3,60.067527911603314,4,
,,,exp3.png,2,0,2,0,,,,,0,0,0,0,0,2,2,2,,,,,,,,,,,,,,,,,,,,,,,,,,,,,,,,,,,,,,388.79108350002207,,28.0,1.9128502999665216,"[(28.0, 1.9128502999665216)]",,,28.0,,,,,,,sub_600,2025-01-17_10h07.38.191,Reversal,2023.1.3,60.067527911603314,4,
,,,exp4.png,2,0,2,0,,,,,0,0,0,0,0,3,3,3,,,,,,,,,,,,,,,,,,,,,,,,,,,,,,,,,,,,,,391.6228108999785,,85.0,1.246084500104189,"[(85.0, 1.246084500104189)]",,85.0,,,,,,,,sub_600,2025-01-17_10h07.38.191,Reversal,2023.1.3,60.067527911603314,4,
0,exp1.png,exp2.png,,3,0,3,0,0,0,0,0,,,,,,,,,,,,,,,,,,,,,,,,,True,,,,,,,,,,,,,,,,,,,,,,,,,,,,,,,,,,,sub_600,2025-01-17_10h07.38.191,Reversal,2023.1.3,60.067527911603314,4,
1,exp3.png,exp4.png,,3,0,3,0,0,1,1,1,,,,,,,,,,,,,,,,,,,,,,,,,False,60,61,False,exp3.png,exp4.png,trial_right_image,-1,exp4.png,4,exp4.png,exp3.png,1,3,reversed,correct,0.2656841733548677,1,valid_win,323.5216143000871,41,,,,,,,,,,,,,,,sub_600,2025-01-17_10h07.38.191,Reversal,2023.1.3,60.067527911603314,4,
2,exp1.png,exp2.png,,3,0,3,0,0,2,2,2,,,,,,,,,,,,,,,,,,,,,,,,,False,61,62,True,exp2.png,exp1.png,trial_left_image,1,exp2.png,4,exp2.png,exp1.png,1,1,non-reversed,correct,0.8819012486226655,1,valid_win,327.6699263000628,42,,,,,,,,,,,,,,,sub_600,2025-01-17_10h07.38.191,Reversal,2023.1.3,60.067527911603314,4,
3,exp3.png,exp4.png,,3,0,3,0,0,3,3,3,,,,,,,,,,,,,,,,,,,,,,,,,False,62,63,True,exp4.png,exp3.png,trial_left_image,1,exp4.png,4,exp4.png,exp3.png,1,3,reversed,correct,0.38415299362867505,1,valid_win,331.6687199000735,43,,,,,,,,,,,,,,,sub_600,2025-01-17_10h07.38.191,Reversal,2023.1.3,60.067527911603314,4,
4,exp1.png,exp2.png,,3,0,3,0,0,4,4,4,,,,,,,,,,,,,,,,,,,,,,,,,False,63,64,False,exp1.png,exp2.png,trial_right_image,-1,exp2.png,4,exp2.png,exp1.png,1,1,non-reversed,correct,0.7230360101632897,1,valid_win,335.75067490001675,44,,,,,,,,,,,,,,,sub_600,2025-01-17_10h07.38.191,Reversal,2023.1.3,60.067527911603314,4,
5,exp3.png,exp4.png,,3,0,3,0,0,5,5,5,,,,,,,,,,,,,,,,,,,,,,,,,False,64,65,False,exp3.png,exp4.png,trial_right_image,-1,exp4.png,4,exp4.png,exp3.png,1,3,reversed,correct,0.806827388963554,1,valid_win,339.74935070006177,45,,,,,,,,,,,,,,,sub_600,2025-01-17_10h07.38.191,Reversal,2023.1.3,60.067527911603314,4,
6,exp1.png,exp2.png,,3,0,3,0,0,6,6,6,,,,,,,,,,,,,,,,,,,,,,,,,False,65,66,True,exp2.png,exp1.png,trial_left_image,1,exp2.png,4,exp2.png,exp1.png,1,1,non-reversed,correct,0.4753191174335264,1,valid_win,343.8144552001031,46,,,,,,,,,,,,,,,sub_600,2025-01-17_10h07.38.191,Reversal,2023.1.3,60.067527911603314,4,
7,exp3.png,exp4.png,,3,0,3,0,0,7,7,7,,,,,,,,,,,,,,,,,,,,,,,,,False,66,67,False,exp3.png,exp4.png,trial_right_image,-1,exp4.png,4,exp4.png,exp3.png,1,3,reversed,correct,0.9584005701371308,1,valid_win,347.8467001999961,47,,,,,,,,,,,,,,,sub_600,2025-01-17_10h07.38.191,Reversal,2023.1.3,60.067527911603314,4,
8,exp1.png,exp2.png,,3,0,3,0,0,8,8,8,,,,,,,,,,,,,,,,,,,,,,,,,False,67,68,True,exp2.png,exp1.png,trial_left_image,1,exp2.png,4,exp2.png,exp1.png,1,1,non-reversed,correct,0.6448654613044165,1,valid_win,351.99521600001026,48,,,,,,,,,,,,,,,sub_600,2025-01-17_10h07.38.191,Reversal,2023.1.3,60.067527911603314,4,
9,exp3.png,exp4.png,,3,0,3,0,0,9,9,9,,,,,,,,,,,,,,,,,,,,,,,,,False,68,69,True,exp4.png,exp3.png,trial_left_image,1,exp4.png,4,exp4.png,exp3.png,1,3,reversed,correct,0.585639333983892,1,valid_win,355.96018580009695,49,,,,,,,,,,,,,,,sub_600,2025-01-17_10h07.38.191,Reversal,2023.1.3,60.067527911603314,4,
10,exp1.png,exp2.png,,3,0,3,0,0,10,10,10,,,,,,,,,,,,,,,,,,,,,,,,,False,69,70,True,exp2.png,exp1.png,trial_left_image,1,exp2.png,4,exp2.png,exp1.png,1,1,non-reversed,correct,0.04111936870543076,0,invalid_lose,359.9257808000548,49,,,,,,,,,,,,,,,sub_600,2025-01-17_10h07.38.191,Reversal,2023.1.3,60.067527911603314,4,
11,exp3.png,exp4.png,,3,0,3,0,0,11,11,11,,,,,,,,,,,,,,,,,,,,,,,,,False,70,71,False,exp3.png,exp4.png,trial_right_image,-1,exp4.png,4,exp4.png,exp3.png,1,3,reversed,correct,0.2130087611174163,0,invalid_lose,363.9078764000442,49,,,,,,,,,,,,,,,sub_600,2025-01-17_10h07.38.191,Reversal,2023.1.3,60.067527911603314,4,
12,exp1.png,exp2.png,,3,0,3,0,0,12,12,12,,,,,,,,,,,,,,,,,,,,,,,,,False,71,72,False,exp1.png,exp2.png,trial_right_image,-1,exp2.png,4,exp2.png,exp1.png,1,1,non-reversed,correct,0.5831210184947523,1,valid_win,367.8896895000944,50,,,,,,,,,,,,,,,sub_600,2025-01-17_10h07.38.191,Reversal,2023.1.3,60.067527911603314,4,
13,exp3.png,exp4.png,,3,0,3,0,0,13,13,13,,,,,,,,,,,,,,,,,,,,,,,,,False,72,73,True,exp4.png,exp3.png,trial_left_image,1,exp4.png,4,exp4.png,exp3.png,1,3,reversed,correct,0.6867529363811858,1,valid_win,371.93832750001457,51,,,,,,,,,,,,,,,sub_600,2025-01-17_10h07.38.191,Reversal,2023.1.3,60.067527911603314,4,
14,exp1.png,exp2.png,,3,0,3,0,0,14,14,14,,,,,,,,,,,,,,,,,,,,,,,,,False,73,74,True,exp2.png,exp1.png,trial_left_image,1,exp2.png,4,exp2.png,exp1.png,1,1,non-reversed,correct,0.4030126115941216,1,valid_win,375.98782790009864,52,,,,,,,,,,,,,,,sub_600,2025-01-17_10h07.38.191,Reversal,2023.1.3,60.067527911603314,4,
15,exp3.png,exp4.png,,3,0,3,0,0,15,15,15,,,,,,,,,,,,,,,,,,,,,,,,,False,74,75,True,exp4.png,exp3.png,trial_left_image,1,exp4.png,4,exp4.png,exp3.png,1,3,reversed,correct,0.10980241033106786,0,invalid_lose,379.93590850010514,52,,,,,,,,,,,,,,,sub_600,2025-01-17_10h07.38.191,Reversal,2023.1.3,60.067527911603314,4,
16,exp1.png,exp2.png,,3,0,3,0,0,16,16,16,,,,,,,,,,,,,,,,,,,,,,,,,False,75,76,False,exp1.png,exp2.png,trial_left_image,1,exp1.png,4,exp2.png,exp1.png,0,2,non-reversed,incorrect,0.733046202381585,0,valid_lose,383.8348791000899,52,,,,,,,,,,,,,,,sub_600,2025-01-17_10h07.38.191,Reversal,2023.1.3,60.067527911603314,4,
17,exp3.png,exp4.png,,3,0,3,0,0,17,17,17,,,,,,,,,,,,,,,,,,,,,,,,,False,76,77,True,exp4.png,exp3.png,trial_left_image,1,exp4.png,4,exp4.png,exp3.png,1,3,reversed,correct,0.7526370468994195,1,valid_win,387.9499729000963,53,,,,,,,,,,,,,,,sub_600,2025-01-17_10h07.38.191,Reversal,2023.1.3,60.067527911603314,4,
18,exp1.png,exp2.png,,3,0,3,0,0,18,18,18,,,,,,,,,,,,,,,,,,,,,,,,,False,77,78,False,exp1.png,exp2.png,trial_right_image,-1,exp2.png,4,exp2.png,exp1.png,1,1,non-reversed,correct,0.07659441814964729,0,invalid_lose,392.0316870000679,53,,,,,,,,,,,,,,,sub_600,2025-01-17_10h07.38.191,Reversal,2023.1.3,60.067527911603314,4,
19,exp3.png,exp4.png,,3,0,3,0,0,19,19,19,,,,,,,,,,,,,,,,,,,,,,,,,False,78,79,False,exp3.png,exp4.png,trial_right_image,-1,exp4.png,4,exp4.png,exp3.png,1,3,reversed,correct,0.24693597733521866,0,invalid_lose,395.9802700000582,53,,,,,,,,,,,,,,,sub_600,2025-01-17_10h07.38.191,Reversal,2023.1.3,60.067527911603314,4,
20,exp1.png,exp2.png,,3,0,3,0,0,20,20,20,,,,,,,,,,,,,,,,,,,,,,,,,False,79,80,False,exp1.png,exp2.png,trial_right_image,-1,exp2.png,4,exp2.png,exp1.png,1,1,non-reversed,correct,0.5984637099774768,1,valid_win,399.91330040001776,54,,,,,,,,,,,,,,,sub_600,2025-01-17_10h07.38.191,Reversal,2023.1.3,60.067527911603314,4,
,,,exp1.png,3,0,3,0,,,,,0,0,0,0,0,0,0,0,,,,,,,,,,,,,,,,,,,,,,,,,,,,,,,,,,,,,,475.26742149994243,24.0,24.0,1.8914971000049263,"[(24.0, 1.8914971000049263)]",,,,,,,,,,sub_600,2025-01-17_10h07.38.191,Reversal,2023.1.3,60.067527911603314,4,
,,,exp2.png,3,0,3,0,,,,,0,0,0,0,0,1,1,1,,,,,,,,,,,,,,,,,,,,,,,,,,,,,,,,,,,,,,478.0600156999426,,81.0,1.079283499973826,"[(81.0, 1.079283499973826)]",81.0,,,,,,,,,sub_600,2025-01-17_10h07.38.191,Reversal,2023.1.3,60.067527911603314,4,
,,,exp3.png,3,0,3,0,,,,,0,0,0,0,0,2,2,2,,,,,,,,,,,,,,,,,,,,,,,,,,,,,,,,,,,,,,480.0592692999635,,51.0,2.612265200004913,"[(51.0, 2.612265200004913)]",,,51.0,,,,,,,sub_600,2025-01-17_10h07.38.191,Reversal,2023.1.3,60.067527911603314,4,
,,,exp4.png,3,0,3,0,,,,,0,0,0,0,0,3,3,3,,,,,,,,,,,,,,,,,,,,,,,,,,,,,,,,,,,,,,483.40950539999176,,None,None,[],,,,,,,,,,sub_600,2025-01-17_10h07.38.191,Reversal,2023.1.3,60.067527911603314,4,
0,exp1.png,exp2.png,,,,,,,,,,,,,,,,,,0,0,0,0,0,0,0,0,,,,,,,,,True,,,,,,,,,,,,,,,,,,,,,,,,,,,,,,,,,,,sub_600,2025-01-17_10h07.38.191,Reversal,2023.1.3,60.067527911603314,4,
1,exp3.png,exp4.png,,,,,,,,,,,,,,,,,,0,0,0,0,0,1,1,1,,,,,,,,,False,0,81,False,exp3.png,exp4.png,trial_left_image,1,exp3.png,4,exp3.png,exp4.png,0,4,reversed,correct,0.3714280272449748,1,valid_win,415.2072732000379,55,,,,,,,,,411.58363910007756,,,,,,sub_600,2025-01-17_10h07.38.191,Reversal,2023.1.3,60.067527911603314,4,
2,exp1.png,exp2.png,,,,,,,,,,,,,,,,,,0,0,0,0,0,2,2,2,,,,,,,,,False,1,82,True,exp2.png,exp1.png,trial_left_image,1,exp2.png,4,exp2.png,exp1.png,1,1,non-reversed,correct,0.40103979286298796,1,valid_win,420.15550760005135,56,,,,,,,,,,,,,,,sub_600,2025-01-17_10h07.38.191,Reversal,2023.1.3,60.067527911603314,4,
3,exp3.png,exp4.png,,,,,,,,,,,,,,,,,,0,0,0,0,0,3,3,3,,,,,,,,,False,2,83,True,exp4.png,exp3.png,trial_right_image,-1,exp3.png,4,exp3.png,exp4.png,0,4,reversed,correct,0.023184454830793344,0,invalid_lose,424.87073319999035,56,,,,,,,,,,,,,,,sub_600,2025-01-17_10h07.38.191,Reversal,2023.1.3,60.067527911603314,4,
4,exp1.png,exp2.png,,,,,,,,,,,,,,,,,,0,0,0,0,0,4,4,4,,,,,,,,,False,3,84,False,exp1.png,exp2.png,trial_right_image,-1,exp2.png,4,exp2.png,exp1.png,1,1,non-reversed,correct,0.9336451492329754,1,valid_win,429.3525783000514,57,,,,,,,,,,,,,,,sub_600,2025-01-17_10h07.38.191,Reversal,2023.1.3,60.067527911603314,4,
5,exp3.png,exp4.png,,,,,,,,,,,,,,,,,,0,0,0,0,0,5,5,5,,,,,,,,,False,4,85,False,exp3.png,exp4.png,trial_left_image,1,exp3.png,4,exp3.png,exp4.png,0,4,reversed,correct,0.20205952362996038,0,invalid_lose,433.60052930004895,57,,,,,,,,,,,,,,,sub_600,2025-01-17_10h07.38.191,Reversal,2023.1.3,60.067527911603314,4,
6,exp1.png,exp2.png,,,,,,,,,,,,,,,,,,0,0,0,0,0,6,6,6,,,,,,,,,False,5,86,True,exp2.png,exp1.png,trial_left_image,1,exp2.png,4,exp2.png,exp1.png,1,1,non-reversed,correct,0.857932656590371,1,valid_win,437.6159889000701,58,,,,,,,,,,,,,,,sub_600,2025-01-17_10h07.38.191,Reversal,2023.1.3,60.067527911603314,4,
7,exp3.png,exp4.png,,,,,,,,,,,,,,,,,,0,0,0,0,0,7,7,7,,,,,,,,,False,6,87,True,exp4.png,exp3.png,trial_left_image,1,exp4.png,4,exp3.png,exp4.png,1,3,reversed,incorrect,0.5854913981588985,0,valid_lose,441.6648206000682,58,,,,,,,,,,,,,,,sub_600,2025-01-17_10h07.38.191,Reversal,2023.1.3,60.067527911603314,4,
8,exp1.png,exp2.png,,,,,,,,,,,,,,,,,,0,0,0,0,0,8,8,8,,,,,,,,,False,7,88,True,exp2.png,exp1.png,trial_left_image,1,exp2.png,4,exp2.png,exp1.png,1,1,non-reversed,correct,0.27970392632629826,1,valid_win,445.6469217000995,59,,,,,,,,,,,,,,,sub_600,2025-01-17_10h07.38.191,Reversal,2023.1.3,60.067527911603314,4,
9,exp3.png,exp4.png,,,,,,,,,,,,,,,,,,0,0,0,0,0,9,9,9,,,,,,,,,False,8,89,True,exp4.png,exp3.png,trial_left_image,1,exp4.png,4,exp3.png,exp4.png,1,3,reversed,incorrect,0.19908739402425313,1,invalid_win,449.5954116000794,60,,,,,,,,,,,,,,,sub_600,2025-01-17_10h07.38.191,Reversal,2023.1.3,60.067527911603314,4,
10,exp1.png,exp2.png,,,,,,,,,,,,,,,,,,0,0,0,0,0,10,10,10,,,,,,,,,False,9,90,True,exp2.png,exp1.png,trial_left_image,1,exp2.png,4,exp2.png,exp1.png,1,1,non-reversed,correct,0.28459721436345076,1,valid_win,453.51074120006524,61,,,,,,,,,,,,,,,sub_600,2025-01-17_10h07.38.191,Reversal,2023.1.3,60.067527911603314,4,
11,exp3.png,exp4.png,,,,,,,,,,,,,,,,,,0,0,0,0,0,11,11,11,,,,,,,,,False,10,91,False,exp3.png,exp4.png,trial_right_image,-1,exp4.png,4,exp3.png,exp4.png,1,3,reversed,incorrect,0.01182348520786336,1,invalid_win,457.6758351000026,62,,,,,,,,,,,,,,,sub_600,2025-01-17_10h07.38.191,Reversal,2023.1.3,60.067527911603314,4,
12,exp1.png,exp2.png,,,,,,,,,,,,,,,,,,0,0,0,0,0,12,12,12,,,,,,,,,False,11,92,False,exp1.png,exp2.png,trial_right_image,-1,exp2.png,4,exp2.png,exp1.png,1,1,non-reversed,correct,0.8621756867041085,1,valid_win,461.7246857000282,63,,,,,,,,,,,,,,,sub_600,2025-01-17_10h07.38.191,Reversal,2023.1.3,60.067527911603314,4,
13,exp3.png,exp4.png,,,,,,,,,,,,,,,,,,0,0,0,0,0,13,13,13,,,,,,,,,False,12,93,False,exp3.png,exp4.png,trial_right_image,-1,exp4.png,4,exp3.png,exp4.png,1,3,reversed,incorrect,0.47252391323035225,0,valid_lose,465.69023900001775,63,,,,,,,,,,,,,,,sub_600,2025-01-17_10h07.38.191,Reversal,2023.1.3,60.067527911603314,4,
14,exp1.png,exp2.png,,,,,,,,,,,,,,,,,,0,0,0,0,0,14,14,14,,,,,,,,,False,13,94,True,exp2.png,exp1.png,trial_left_image,1,exp2.png,4,exp2.png,exp1.png,1,1,non-reversed,correct,0.3764815176779306,1,valid_win,470.5213853000896,64,,,,,,,,,,,,,,,sub_600,2025-01-17_10h07.38.191,Reversal,2023.1.3,60.067527911603314,4,
15,exp3.png,exp4.png,,,,,,,,,,,,,,,,,,0,0,0,0,0,15,15,15,,,,,,,,,False,14,95,True,exp4.png,exp3.png,trial_left_image,1,exp4.png,4,exp3.png,exp4.png,1,3,reversed,incorrect,0.951260850327854,0,valid_lose,474.554564799997,64,,,,,,,,,,,,,,,sub_600,2025-01-17_10h07.38.191,Reversal,2023.1.3,60.067527911603314,4,
16,exp1.png,exp2.png,,,,,,,,,,,,,,,,,,0,0,0,0,0,16,16,16,,,,,,,,,False,15,96,True,exp2.png,exp1.png,trial_left_image,1,exp2.png,4,exp2.png,exp1.png,1,1,non-reversed,correct,0.172710170231541,0,invalid_lose,478.56896550010424,64,,,,,,,,,,,,,,,sub_600,2025-01-17_10h07.38.191,Reversal,2023.1.3,60.067527911603314,4,
17,exp3.png,exp4.png,,,,,,,,,,,,,,,,,,0,0,0,0,0,17,17,17,,,,,,,,,False,16,97,False,exp3.png,exp4.png,trial_right_image,-1,exp4.png,4,exp3.png,exp4.png,1,3,reversed,incorrect,0.5604548591727788,0,valid_lose,482.9671236000722,64,,,,,,,,,,,,,,,sub_600,2025-01-17_10h07.38.191,Reversal,2023.1.3,60.067527911603314,4,
18,exp1.png,exp2.png,,,,,,,,,,,,,,,,,,0,0,0,0,0,18,18,18,,,,,,,,,False,17,98,False,exp1.png,exp2.png,trial_right_image,-1,exp2.png,4,exp2.png,exp1.png,1,1,non-reversed,correct,0.8535764660077511,1,valid_win,487.1324097000761,65,,,,,,,,,,,,,,,sub_600,2025-01-17_10h07.38.191,Reversal,2023.1.3,60.067527911603314,4,
19,exp3.png,exp4.png,,,,,,,,,,,,,,,,,,0,0,0,0,0,19,19,19,,,,,,,,,False,18,99,False,exp3.png,exp4.png,trial_right_image,-1,exp4.png,4,exp3.png,exp4.png,1,3,reversed,incorrect,0.9774228336109579,0,valid_lose,492.2974178000586,65,,,,,,,,,,,,,,,sub_600,2025-01-17_10h07.38.191,Reversal,2023.1.3,60.067527911603314,4,
20,exp1.png,exp2.png,,,,,,,,,,,,,,,,,,0,0,0,0,0,20,20,20,,,,,,,,,False,19,100,False,exp1.png,exp2.png,trial_right_image,-1,exp2.png,4,exp2.png,exp1.png,1,1,non-reversed,correct,0.23860291361993946,0,invalid_lose,496.34568540006876,65,,,,,,,,,,,,,,,sub_600,2025-01-17_10h07.38.191,Reversal,2023.1.3,60.067527911603314,4,
,,,exp1.png,,,,,,,,,,,,,,,,,0,0,0,0,,,,,0,0,0,0,0,0,0,0,,,,,,,,,,,,,,,,,,,,,,571.7164502999512,28.0,28.0,2.3758638999424875,"[(28.0, 2.3758638999424875)]",,,,,,,,,,sub_600,2025-01-17_10h07.38.191,Reversal,2023.1.3,60.067527911603314,4,
,,,exp2.png,,,,,,,,,,,,,,,,,0,0,0,0,,,,,0,0,0,0,0,1,1,1,,,,,,,,,,,,,,,,,,,,,,574.9782783999108,,72.0,0.713813400012441,"[(72.0, 0.713813400012441)]",72.0,,,,,,,,,sub_600,2025-01-17_10h07.38.191,Reversal,2023.1.3,60.067527911603314,4,
,,,exp3.png,,,,,,,,,,,,,,,,,0,0,0,0,,,,,0,0,0,0,0,2,2,2,,,,,,,,,,,,,,,,,,,,,,576.8101514999289,,None,None,[],,,,,,,,,,sub_600,2025-01-17_10h07.38.191,Reversal,2023.1.3,60.067527911603314,4,
,,,exp4.png,,,,,,,,,,,,,,,,,0,0,0,0,,,,,0,0,0,0,0,3,3,3,,,,,,,,,,,,,,,,,,,,,,578.2592758999672,,None,None,[],,,,,,,,,,sub_600,2025-01-17_10h07.38.191,Reversal,2023.1.3,60.067527911603314,4,
0,exp1.png,exp2.png,,,,,,,,,,,,,,,,,,1,0,1,0,0,0,0,0,,,,,,,,,True,,,,,,,,,,,,,,,,,,,,,,,,,,,,,,,,,,,sub_600,2025-01-17_10h07.38.191,Reversal,2023.1.3,60.067527911603314,4,
1,exp3.png,exp4.png,,,,,,,,,,,,,,,,,,1,0,1,0,0,1,1,1,,,,,,,,,False,20,101,True,exp4.png,exp3.png,trial_left_image,1,exp4.png,4,exp3.png,exp4.png,1,3,reversed,incorrect,0.07218146392808877,1,invalid_win,508.04344160004985,66,,,,,,,,,,,,,,,sub_600,2025-01-17_10h07.38.191,Reversal,2023.1.3,60.067527911603314,4,
2,exp1.png,exp2.png,,,,,,,,,,,,,,,,,,1,0,1,0,0,2,2,2,,,,,,,,,False,21,102,False,exp1.png,exp2.png,trial_right_image,-1,exp2.png,4,exp2.png,exp1.png,1,1,non-reversed,correct,0.5094084652571549,1,valid_win,512.0243490000721,67,,,,,,,,,,,,,,,sub_600,2025-01-17_10h07.38.191,Reversal,2023.1.3,60.067527911603314,4,
3,exp3.png,exp4.png,,,,,,,,,,,,,,,,,,1,0,1,0,0,3,3,3,,,,,,,,,False,22,103,True,exp4.png,exp3.png,trial_left_image,1,exp4.png,4,exp3.png,exp4.png,1,3,reversed,incorrect,0.18412434465277117,1,invalid_win,515.9730685000541,68,,,,,,,,,,,,,,,sub_600,2025-01-17_10h07.38.191,Reversal,2023.1.3,60.067527911603314,4,
4,exp1.png,exp2.png,,,,,,,,,,,,,,,,,,1,0,1,0,0,4,4,4,,,,,,,,,False,23,104,True,exp2.png,exp1.png,trial_left_image,1,exp2.png,4,exp2.png,exp1.png,1,1,non-reversed,correct,0.4824716797273563,1,valid_win,519.9379066000693,69,,,,,,,,,,,,,,,sub_600,2025-01-17_10h07.38.191,Reversal,2023.1.3,60.067527911603314,4,
5,exp3.png,exp4.png,,,,,,,,,,,,,,,,,,1,0,1,0,0,5,5,5,,,,,,,,,False,24,105,True,exp4.png,exp3.png,trial_left_image,1,exp4.png,4,exp3.png,exp4.png,1,3,reversed,incorrect,0.966486503738755,0,valid_lose,523.8700507000322,69,,,,,,,,,,,,,,,sub_600,2025-01-17_10h07.38.191,Reversal,2023.1.3,60.067527911603314,4,
6,exp1.png,exp2.png,,,,,,,,,,,,,,,,,,1,0,1,0,0,6,6,6,,,,,,,,,False,25,106,False,exp1.png,exp2.png,trial_right_image,-1,exp2.png,4,exp2.png,exp1.png,1,1,non-reversed,correct,0.33774541967392124,1,valid_win,527.8855173999909,70,,,,,,,,,,,,,,,sub_600,2025-01-17_10h07.38.191,Reversal,2023.1.3,60.067527911603314,4,
7,exp3.png,exp4.png,,,,,,,,,,,,,,,,,,1,0,1,0,0,7,7,7,,,,,,,,,False,26,107,False,exp3.png,exp4.png,trial_right_image,-1,exp4.png,4,exp3.png,exp4.png,1,3,reversed,incorrect,0.28245625308294187,0,valid_lose,531.9008673999924,70,,,,,,,,,,,,,,,sub_600,2025-01-17_10h07.38.191,Reversal,2023.1.3,60.067527911603314,4,
8,exp1.png,exp2.png,,,,,,,,,,,,,,,,,,1,0,1,0,0,8,8,8,,,,,,,,,False,27,108,True,exp2.png,exp1.png,trial_left_image,1,exp2.png,4,exp2.png,exp1.png,1,1,non-reversed,correct,0.3842014475931371,1,valid_win,536.0992012000643,71,,,,,,,,,,,,,,,sub_600,2025-01-17_10h07.38.191,Reversal,2023.1.3,60.067527911603314,4,
9,exp3.png,exp4.png,,,,,,,,,,,,,,,,,,1,0,1,0,0,9,9,9,,,,,,,,,False,28,109,True,exp4.png,exp3.png,trial_left_image,1,exp4.png,4,exp3.png,exp4.png,1,3,reversed,incorrect,0.5828712334979874,0,valid_lose,540.414069200051,71,,,,,,,,,,,,,,,sub_600,2025-01-17_10h07.38.191,Reversal,2023.1.3,60.067527911603314,4,
10,exp1.png,exp2.png,,,,,,,,,,,,,,,,,,1,0,1,0,0,10,10,10,,,,,,,,,False,29,110,False,exp1.png,exp2.png,trial_right_image,-1,exp2.png,4,exp2.png,exp1.png,1,1,non-reversed,correct,0.4646694928340034,1,valid_win,544.6628163000569,72,,,,,,,,,,,,,,,sub_600,2025-01-17_10h07.38.191,Reversal,2023.1.3,60.067527911603314,4,
11,exp3.png,exp4.png,,,,,,,,,,,,,,,,,,1,0,1,0,0,11,11,11,,,,,,,,,False,30,111,True,exp4.png,exp3.png,trial_left_image,1,exp4.png,4,exp3.png,exp4.png,1,3,reversed,incorrect,0.9522295404946217,0,valid_lose,549.0282799000852,72,,,,,,,,,,,,,,,sub_600,2025-01-17_10h07.38.191,Reversal,2023.1.3,60.067527911603314,4,
12,exp1.png,exp2.png,,,,,,,,,,,,,,,,,,1,0,1,0,0,12,12,12,,,,,,,,,False,31,112,True,exp2.png,exp1.png,trial_left_image,1,exp2.png,4,exp2.png,exp1.png,1,1,non-reversed,correct,0.28543613143508906,1,valid_win,553.0432489000959,73,,,,,,,,,,,,,,,sub_600,2025-01-17_10h07.38.191,Reversal,2023.1.3,60.067527911603314,4,
13,exp3.png,exp4.png,,,,,,,,,,,,,,,,,,1,0,1,0,0,13,13,13,,,,,,,,,False,32,113,False,exp3.png,exp4.png,trial_right_image,-1,exp4.png,4,exp3.png,exp4.png,1,3,reversed,incorrect,0.7001088905726399,0,valid_lose,557.1260680000996,73,,,,,,,,,,,,,,,sub_600,2025-01-17_10h07.38.191,Reversal,2023.1.3,60.067527911603314,4,
14,exp1.png,exp2.png,,,,,,,,,,,,,,,,,,1,0,1,0,0,14,14,14,,,,,,,,,False,33,114,False,exp1.png,exp2.png,trial_right_image,-1,exp2.png,4,exp2.png,exp1.png,1,1,non-reversed,correct,0.43901699187638,1,valid_win,561.0910520000616,74,,,,,,,,,,,,,,,sub_600,2025-01-17_10h07.38.191,Reversal,2023.1.3,60.067527911603314,4,
15,exp3.png,exp4.png,,,,,,,,,,,,,,,,,,1,0,1,0,0,15,15,15,,,,,,,,,False,34,115,False,exp3.png,exp4.png,trial_right_image,-1,exp4.png,4,exp3.png,exp4.png,1,3,reversed,incorrect,0.09433128620229747,1,invalid_win,565.0559687000932,75,,,,,,,,,,,,,,,sub_600,2025-01-17_10h07.38.191,Reversal,2023.1.3,60.067527911603314,4,
16,exp1.png,exp2.png,,,,,,,,,,,,,,,,,,1,0,1,0,0,16,16,16,,,,,,,,,False,35,116,True,exp2.png,exp1.png,trial_left_image,1,exp2.png,4,exp2.png,exp1.png,1,1,non-reversed,correct,0.1821325719666932,0,invalid_lose,569.2386152000399,75,,,,,,,,,,,,,,,sub_600,2025-01-17_10h07.38.191,Reversal,2023.1.3,60.067527911603314,4,
17,exp3.png,exp4.png,,,,,,,,,,,,,,,,,,1,0,1,0,0,17,17,17,,,,,,,,,False,36,117,False,exp3.png,exp4.png,trial_right_image,-1,exp4.png,4,exp3.png,exp4.png,1,3,reversed,incorrect,0.6365055544712389,0,valid_lose,573.1873377000447,75,,,,,,,,,,,,,,,sub_600,2025-01-17_10h07.38.191,Reversal,2023.1.3,60.067527911603314,4,
18,exp1.png,exp2.png,,,,,,,,,,,,,,,,,,1,0,1,0,0,18,18,18,,,,,,,,,False,37,118,True,exp2.png,exp1.png,trial_left_image,1,exp2.png,4,exp2.png,exp1.png,1,1,non-reversed,correct,0.07231667895487537,0,invalid_lose,578.0022871000692,75,,,,,,,,,,,,,,,sub_600,2025-01-17_10h07.38.191,Reversal,2023.1.3,60.067527911603314,4,
19,exp3.png,exp4.png,,,,,,,,,,,,,,,,,,1,0,1,0,0,19,19,19,,,,,,,,,False,38,119,False,exp3.png,exp4.png,trial_right_image,-1,exp4.png,4,exp3.png,exp4.png,1,3,reversed,incorrect,0.23195018684904145,1,invalid_win,582.2168738000328,76,,,,,,,,,,,,,,,sub_600,2025-01-17_10h07.38.191,Reversal,2023.1.3,60.067527911603314,4,
20,exp1.png,exp2.png,,,,,,,,,,,,,,,,,,1,0,1,0,0,20,20,20,,,,,,,,,False,39,120,False,exp1.png,exp2.png,trial_left_image,1,exp1.png,4,exp2.png,exp1.png,0,2,non-reversed,incorrect,0.6980676751467367,0,valid_lose,587.1824047000846,76,,,,,,,,,,,,,,,sub_600,2025-01-17_10h07.38.191,Reversal,2023.1.3,60.067527911603314,4,
,,,exp1.png,,,,,,,,,,,,,,,,,1,0,1,0,,,,,0,0,0,0,0,0,0,0,,,,,,,,,,,,,,,,,,,,,,662.5364572999533,,None,None,[],,,,,,,,,,sub_600,2025-01-17_10h07.38.191,Reversal,2023.1.3,60.067527911603314,4,
,,,exp2.png,,,,,,,,,,,,,,,,,1,0,1,0,,,,,0,0,0,0,0,1,1,1,,,,,,,,,,,,,,,,,,,,,,664.4316682999488,,None,None,[],,,,,,,,,,sub_600,2025-01-17_10h07.38.191,Reversal,2023.1.3,60.067527911603314,4,
,,,exp3.png,,,,,,,,,,,,,,,,,1,0,1,0,,,,,0,0,0,0,0,2,2,2,,,,,,,,,,,,,,,,,,,,,,665.1351763999555,,None,None,[],,,,,,,,,,sub_600,2025-01-17_10h07.38.191,Reversal,2023.1.3,60.067527911603314,4,
,,,exp4.png,,,,,,,,,,,,,,,,,1,0,1,0,,,,,0,0,0,0,0,3,3,3,,,,,,,,,,,,,,,,,,,,,,665.8214320999105,,None,None,[],,,,,,,,,,sub_600,2025-01-17_10h07.38.191,Reversal,2023.1.3,60.067527911603314,4,
0,exp1.png,exp2.png,,,,,,,,,,,,,,,,,,2,0,2,0,0,0,0,0,,,,,,,,,True,,,,,,,,,,,,,,,,,,,,,,,,,,,,,,,,,,,sub_600,2025-01-17_10h07.38.191,Reversal,2023.1.3,60.067527911603314,4,
1,exp3.png,exp4.png,,,,,,,,,,,,,,,,,,2,0,2,0,0,1,1,1,,,,,,,,,False,40,121,True,exp4.png,exp3.png,trial_left_image,1,exp4.png,4,exp3.png,exp4.png,1,3,reversed,incorrect,0.661324673499716,0,valid_lose,596.7785883001052,76,,,,,,,,,,,,,,,sub_600,2025-01-17_10h07.38.191,Reversal,2023.1.3,60.067527911603314,4,
2,exp1.png,exp2.png,,,,,,,,,,,,,,,,,,2,0,2,0,0,2,2,2,,,,,,,,,False,41,122,False,exp1.png,exp2.png,trial_right_image,-1,exp2.png,4,exp2.png,exp1.png,1,1,non-reversed,correct,0.6574278085829179,1,valid_win,600.8936770000728,77,,,,,,,,,,,,,,,sub_600,2025-01-17_10h07.38.191,Reversal,2023.1.3,60.067527911603314,4,
3,exp3.png,exp4.png,,,,,,,,,,,,,,,,,,2,0,2,0,0,3,3,3,,,,,,,,,False,42,123,True,exp4.png,exp3.png,trial_left_image,1,exp4.png,4,exp3.png,exp4.png,1,3,reversed,incorrect,0.5920331530102815,0,valid_lose,604.926041000057,77,,,,,,,,,,,,,,,sub_600,2025-01-17_10h07.38.191,Reversal,2023.1.3,60.067527911603314,4,
4,exp1.png,exp2.png,,,,,,,,,,,,,,,,,,2,0,2,0,0,4,4,4,,,,,,,,,False,43,124,False,exp1.png,exp2.png,trial_right_image,-1,exp2.png,4,exp2.png,exp1.png,1,1,non-reversed,correct,0.5491047217577991,1,valid_win,608.8756162000354,78,,,,,,,,,,,,,,,sub_600,2025-01-17_10h07.38.191,Reversal,2023.1.3,60.067527911603314,4,
5,exp3.png,exp4.png,,,,,,,,,,,,,,,,,,2,0,2,0,0,5,5,5,,,,,,,,,False,44,125,False,exp3.png,exp4.png,trial_left_image,1,exp3.png,4,exp3.png,exp4.png,0,4,reversed,correct,0.23625428816307503,0,invalid_lose,613.3563880000729,78,,,,,,,,,,,,,,,sub_600,2025-01-17_10h07.38.191,Reversal,2023.1.3,60.067527911603314,4,
6,exp1.png,exp2.png,,,,,,,,,,,,,,,,,,2,0,2,0,0,6,6,6,,,,,,,,,False,45,126,False,exp1.png,exp2.png,trial_right_image,-1,exp2.png,4,exp2.png,exp1.png,1,1,non-reversed,correct,0.6116580258298087,1,valid_win,617.3383307000622,79,,,,,,,,,,,,,,,sub_600,2025-01-17_10h07.38.191,Reversal,2023.1.3,60.067527911603314,4,
7,exp3.png,exp4.png,,,,,,,,,,,,,,,,,,2,0,2,0,0,7,7,7,,,,,,,,,False,46,127,False,exp3.png,exp4.png,trial_right_image,-1,exp4.png,4,exp3.png,exp4.png,1,3,reversed,incorrect,0.3643446409778145,0,valid_lose,621.386936700088,79,,,,,,,,,,,,,,,sub_600,2025-01-17_10h07.38.191,Reversal,2023.1.3,60.067527911603314,4,
8,exp1.png,exp2.png,,,,,,,,,,,,,,,,,,2,0,2,0,0,8,8,8,,,,,,,,,False,47,128,True,exp2.png,exp1.png,trial_left_image,1,exp2.png,4,exp2.png,exp1.png,1,1,non-reversed,correct,0.8735636384664747,1,valid_win,625.9685205999995,80,,,,,,,,,,,,,,,sub_600,2025-01-17_10h07.38.191,Reversal,2023.1.3,60.067527911603314,4,
9,exp3.png,exp4.png,,,,,,,,,,,,,,,,,,2,0,2,0,0,9,9,9,,,,,,,,,False,48,129,False,exp3.png,exp4.png,trial_right_image,-1,exp4.png,4,exp3.png,exp4.png,1,3,reversed,incorrect,0.9699241220501742,0,valid_lose,630.0006190000568,80,,,,,,,,,,,,,,,sub_600,2025-01-17_10h07.38.191,Reversal,2023.1.3,60.067527911603314,4,
10,exp1.png,exp2.png,,,,,,,,,,,,,,,,,,2,0,2,0,0,10,10,10,,,,,,,,,False,49,130,False,exp1.png,exp2.png,trial_right_image,-1,exp2.png,4,exp2.png,exp1.png,1,1,non-reversed,correct,0.41791966902080857,1,valid_win,634.0165360000683,81,,,,,,,,,,,,,,,sub_600,2025-01-17_10h07.38.191,Reversal,2023.1.3,60.067527911603314,4,
11,exp3.png,exp4.png,,,,,,,,,,,,,,,,,,2,0,2,0,0,11,11,11,,,,,,,,,False,50,131,False,exp3.png,exp4.png,trial_right_image,-1,exp4.png,4,exp3.png,exp4.png,1,3,reversed,incorrect,0.389506442891677,0,valid_lose,638.4144330000272,81,,,,,,,,,,,,,,,sub_600,2025-01-17_10h07.38.191,Reversal,2023.1.3,60.067527911603314,4,
12,exp1.png,exp2.png,,,,,,,,,,,,,,,,,,2,0,2,0,0,12,12,12,,,,,,,,,False,51,132,True,exp2.png,exp1.png,trial_left_image,1,exp2.png,4,exp2.png,exp1.png,1,1,non-reversed,correct,0.2376458281676782,0,invalid_lose,642.5965079000453,81,,,,,,,,,,,,,,,sub_600,2025-01-17_10h07.38.191,Reversal,2023.1.3,60.067527911603314,4,
13,exp3.png,exp4.png,,,,,,,,,,,,,,,,,,2,0,2,0,0,13,13,13,,,,,,,,,False,52,133,False,exp3.png,exp4.png,trial_right_image,-1,exp4.png,4,exp3.png,exp4.png,1,3,reversed,incorrect,0.03870932744422961,1,invalid_win,646.7118976000929,82,,,,,,,,,,,,,,,sub_600,2025-01-17_10h07.38.191,Reversal,2023.1.3,60.067527911603314,4,
14,exp1.png,exp2.png,,,,,,,,,,,,,,,,,,2,0,2,0,0,14,14,14,,,,,,,,,False,53,134,True,exp2.png,exp1.png,trial_left_image,1,exp2.png,4,exp2.png,exp1.png,1,1,non-reversed,correct,0.055013454827193775,0,invalid_lose,650.8600505000213,82,,,,,,,,,,,,,,,sub_600,2025-01-17_10h07.38.191,Reversal,2023.1.3,60.067527911603314,4,
15,exp3.png,exp4.png,,,,,,,,,,,,,,,,,,2,0,2,0,0,15,15,15,,,,,,,,,False,54,135,True,exp4.png,exp3.png,trial_left_image,1,exp4.png,4,exp3.png,exp4.png,1,3,reversed,incorrect,0.6500333643141849,0,valid_lose,654.9084735000506,82,,,,,,,,,,,,,,,sub_600,2025-01-17_10h07.38.191,Reversal,2023.1.3,60.067527911603314,4,
16,exp1.png,exp2.png,,,,,,,,,,,,,,,,,,2,0,2,0,0,16,16,16,,,,,,,,,False,55,136,True,exp2.png,exp1.png,trial_left_image,1,exp2.png,4,exp2.png,exp1.png,1,1,non-reversed,correct,0.24672018220077874,0,invalid_lose,659.4568459000438,82,,,,,,,,,,,,,,,sub_600,2025-01-17_10h07.38.191,Reversal,2023.1.3,60.067527911603314,4,
17,exp3.png,exp4.png,,,,,,,,,,,,,,,,,,2,0,2,0,0,17,17,17,,,,,,,,,False,56,137,True,exp4.png,exp3.png,trial_left_image,1,exp4.png,4,exp3.png,exp4.png,1,3,reversed,incorrect,0.15895617711743204,1,invalid_win,663.3234364000382,83,,,,,,,,,,,,,,,sub_600,2025-01-17_10h07.38.191,Reversal,2023.1.3,60.067527911603314,4,
18,exp1.png,exp2.png,,,,,,,,,,,,,,,,,,2,0,2,0,0,18,18,18,,,,,,,,,False,57,138,True,exp2.png,exp1.png,trial_right_image,-1,exp1.png,4,exp2.png,exp1.png,0,2,non-reversed,incorrect,0.17792395429606433,1,invalid_win,667.621446800069,84,,,,,,,,,,,,,,,sub_600,2025-01-17_10h07.38.191,Reversal,2023.1.3,60.067527911603314,4,
19,exp3.png,exp4.png,,,,,,,,,,,,,,,,,,2,0,2,0,0,19,19,19,,,,,,,,,False,58,139,True,exp4.png,exp3.png,trial_left_image,1,exp4.png,4,exp3.png,exp4.png,1,3,reversed,incorrect,0.22656732033124205,1,invalid_win,672.5360008000862,85,,,,,,,,,,,,,,,sub_600,2025-01-17_10h07.38.191,Reversal,2023.1.3,60.067527911603314,4,
20,exp1.png,exp2.png,,,,,,,,,,,,,,,,,,2,0,2,0,0,20,20,20,,,,,,,,,False,59,140,False,exp1.png,exp2.png,trial_left_image,1,exp1.png,4,exp2.png,exp1.png,0,2,non-reversed,incorrect,0.391640681542718,0,valid_lose,676.8028622000711,85,,,,,,,,,,,,,,,sub_600,2025-01-17_10h07.38.191,Reversal,2023.1.3,60.067527911603314,4,
,,,exp1.png,,,,,,,,,,,,,,,,,2,0,2,0,,,,,0,0,0,0,0,0,0,0,,,,,,,,,,,,,,,,,,,,,,752.1661515999585,36.0,36.0,1.883851099992171,"[(36.0, 1.883851099992171)]",,,,,,,,,,sub_600,2025-01-17_10h07.38.191,Reversal,2023.1.3,60.067527911603314,4,
,,,exp2.png,,,,,,,,,,,,,,,,,2,0,2,0,,,,,0,0,0,0,0,1,1,1,,,,,,,,,,,,,,,,,,,,,,754.9340516999364,,37.0,1.47792820003815,"[(37.0, 1.47792820003815)]",37.0,,,,,,,,,sub_600,2025-01-17_10h07.38.191,Reversal,2023.1.3,60.067527911603314,4,
,,,exp3.png,,,,,,,,,,,,,,,,,2,0,2,0,,,,,0,0,0,0,0,2,2,2,,,,,,,,,,,,,,,,,,,,,,757.2510768999346,,41.0,2.3616025000810623,"[(41.0, 2.3616025000810623)]",,,41.0,,,,,,,sub_600,2025-01-17_10h07.38.191,Reversal,2023.1.3,60.067527911603314,4,
,,,exp4.png,,,,,,,,,,,,,,,,,2,0,2,0,,,,,0,0,0,0,0,3,3,3,,,,,,,,,,,,,,,,,,,,,,760.4309554999927,,63.0,0.5299916000803933,"[(63.0, 0.5299916000803933)]",,63.0,,,,,,,,sub_600,2025-01-17_10h07.38.191,Reversal,2023.1.3,60.067527911603314,4,
,,,,,,,,,,,,,,,,,,,,,,,,,,,,,,,,,,,,,,,,,,,,,,,,,,,,,,,,85,,,,,,,,,,97,66,31,277.2482886000071,1,,,,,,,
