trial_index,trial_image1_file,trial_image2_file,image_file,learning_outer_loop.thisRepN,learning_outer_loop.thisTrialN,learning_outer_loop.thisN,learning_outer_loop.thisIndex,learning_inner_loop.thisRepN,learning_inner_loop.thisTrialN,learning_inner_loop.thisN,learning_inner_loop.thisIndex,learning_estimation_outer_loop.thisRepN,learning_estimation_outer_loop.thisTrialN,learning_estimation_outer_loop.thisN,learning_estimation_outer_loop.thisIndex,learning_estimation_inner_loop.thisRepN,learning_estimation_inner_loop.thisTrialN,learning_estimation_inner_loop.thisN,learning_estimation_inner_loop.thisIndex,reversal_outer_loop.thisRepN,reversal_outer_loop.thisTrialN,reversal_outer_loop.thisN,reversal_outer_loop.thisIndex,reversal_inner_loop.thisRepN,reversal_inner_loop.thisTrialN,reversal_inner_loop.thisN,reversal_inner_loop.thisIndex,reversal_estimation_outer_loop.thisRepN,reversal_estimation_outer_loop.thisTrialN,reversal_estimation_outer_loop.thisN,reversal_estimation_outer_loop.thisIndex,reversal_estimation_inner_loop.thisRepN,reversal_estimation_inner_loop.thisTrialN,reversal_estimation_inner_loop.thisN,reversal_estimation_inner_loop.thisIndex,skipped,total_trial_counter,trial_num,left_right_flip,left_image_file,right_image_file,clicked_stimulus_side,side,clicked_stimulus,version,high_prob_image_file,low_prob_image_file,choice_a,choice_b,pair_type,correct,trial_feedback_random,reward,trial_type,overall_time_after_trial,score,estimation_rating.started,estimation_exp1.png,estimation_rating.response,estimation_rating.rt,estimation_rating.history,estimation_exp2.png,estimation_exp3.png,estimation_exp4.png,total_learning_time,total_correct,learning_correct,reversal_correct,total_reversal_time,extra_block,participant,date,expName,psychopyVersion,frameRate,ver,
0,exp1.png,exp2.png,,0,0,0,0,0,0,0,0,,,,,,,,,,,,,,,,,,,,,,,,,False,0,1,False,exp1.png,exp2.png,trial_left_image,1,exp1.png,2,exp1.png,exp2.png,1,1,non-reversed,correct,0.268158360414431,1,valid_win,4.96269779999966,1,,,,,,,,,,,,,,,sub_822,2025-01-06_15h19.14.334,Reversal,2023.1.3,59.96918783142046,2,
1,exp3.png,exp4.png,,0,0,0,0,0,1,1,1,,,,,,,,,,,,,,,,,,,,,,,,,False,1,2,False,exp3.png,exp4.png,trial_left_image,1,exp3.png,2,exp3.png,exp4.png,1,3,reversed,correct,0.7639004582099873,1,valid_win,12.043633899999804,2,,,,,,,,,,,,,,,sub_822,2025-01-06_15h19.14.334,Reversal,2023.1.3,59.96918783142046,2,
2,exp1.png,exp2.png,,0,0,0,0,0,2,2,2,,,,,,,,,,,,,,,,,,,,,,,,,False,2,3,True,exp2.png,exp1.png,trial_right_image,-1,exp1.png,2,exp1.png,exp2.png,1,1,non-reversed,correct,0.7695353060430069,1,valid_win,17.35840719999942,3,,,,,,,,,,,,,,,sub_822,2025-01-06_15h19.14.334,Reversal,2023.1.3,59.96918783142046,2,
3,exp3.png,exp4.png,,0,0,0,0,0,3,3,3,,,,,,,,,,,,,,,,,,,,,,,,,False,3,4,False,exp3.png,exp4.png,trial_left_image,1,exp3.png,2,exp3.png,exp4.png,1,3,reversed,correct,0.8128302943929967,1,valid_win,23.489900399999897,4,,,,,,,,,,,,,,,sub_822,2025-01-06_15h19.14.334,Reversal,2023.1.3,59.96918783142046,2,
4,exp1.png,exp2.png,,0,0,0,0,0,4,4,4,,,,,,,,,,,,,,,,,,,,,,,,,False,4,5,True,exp2.png,exp1.png,trial_right_image,-1,exp1.png,2,exp1.png,exp2.png,1,1,non-reversed,correct,0.39747240410033435,1,valid_win,28.222312999999303,5,,,,,,,,,,,,,,,sub_822,2025-01-06_15h19.14.334,Reversal,2023.1.3,59.96918783142046,2,
5,exp3.png,exp4.png,,0,0,0,0,0,5,5,5,,,,,,,,,,,,,,,,,,,,,,,,,False,5,6,False,exp3.png,exp4.png,trial_left_image,1,exp3.png,2,exp3.png,exp4.png,1,3,reversed,correct,0.45330080889742097,1,valid_win,34.01931749999949,6,,,,,,,,,,,,,,,sub_822,2025-01-06_15h19.14.334,Reversal,2023.1.3,59.96918783142046,2,
6,exp1.png,exp2.png,,0,0,0,0,0,6,6,6,,,,,,,,,,,,,,,,,,,,,,,,,False,6,7,False,exp1.png,exp2.png,trial_left_image,1,exp1.png,2,exp1.png,exp2.png,1,1,non-reversed,correct,0.8418577888157625,1,valid_win,39.034119299999475,7,,,,,,,,,,,,,,,sub_822,2025-01-06_15h19.14.334,Reversal,2023.1.3,59.96918783142046,2,
7,exp3.png,exp4.png,,0,0,0,0,0,7,7,7,,,,,,,,,,,,,,,,,,,,,,,,,False,7,8,False,exp3.png,exp4.png,trial_left_image,1,exp3.png,2,exp3.png,exp4.png,1,3,reversed,correct,0.8796126617286361,1,valid_win,43.7164559999992,8,,,,,,,,,,,,,,,sub_822,2025-01-06_15h19.14.334,Reversal,2023.1.3,59.96918783142046,2,
8,exp1.png,exp2.png,,0,0,0,0,0,8,8,8,,,,,,,,,,,,,,,,,,,,,,,,,False,8,9,True,exp2.png,exp1.png,trial_right_image,-1,exp1.png,2,exp1.png,exp2.png,1,1,non-reversed,correct,0.20346710468331464,0,invalid_lose,48.514479099999335,8,,,,,,,,,,,,,,,sub_822,2025-01-06_15h19.14.334,Reversal,2023.1.3,59.96918783142046,2,
9,exp3.png,exp4.png,,0,0,0,0,0,9,9,9,,,,,,,,,,,,,,,,,,,,,,,,,False,9,10,True,exp4.png,exp3.png,trial_right_image,-1,exp3.png,2,exp3.png,exp4.png,1,3,reversed,correct,0.2232325918032213,0,invalid_lose,53.99588179999955,8,,,,,,,,,,,,,,,sub_822,2025-01-06_15h19.14.334,Reversal,2023.1.3,59.96918783142046,2,
10,exp1.png,exp2.png,,0,0,0,0,0,10,10,10,,,,,,,,,,,,,,,,,,,,,,,,,False,10,11,True,exp2.png,exp1.png,trial_left_image,1,exp2.png,2,exp1.png,exp2.png,0,2,non-reversed,incorrect,0.031139553770965667,1,invalid_win,58.862739999999576,9,,,,,,,,,,,,,,,sub_822,2025-01-06_15h19.14.334,Reversal,2023.1.3,59.96918783142046,2,
11,exp3.png,exp4.png,,0,0,0,0,0,11,11,11,,,,,,,,,,,,,,,,,,,,,,,,,False,11,12,True,exp4.png,exp3.png,trial_left_image,1,exp4.png,2,exp3.png,exp4.png,0,4,reversed,incorrect,0.7724597361051473,0,valid_lose,63.259733799999594,9,,,,,,,,,,,,,,,sub_822,2025-01-06_15h19.14.334,Reversal,2023.1.3,59.96918783142046,2,
12,exp1.png,exp2.png,,0,0,0,0,0,12,12,12,,,,,,,,,,,,,,,,,,,,,,,,,False,12,13,True,exp2.png,exp1.png,trial_right_image,-1,exp1.png,2,exp1.png,exp2.png,1,1,non-reversed,correct,0.00909915614323853,0,invalid_lose,67.99110979999932,9,,,,,,,,,,,,,,,sub_822,2025-01-06_15h19.14.334,Reversal,2023.1.3,59.96918783142046,2,
13,exp3.png,exp4.png,,0,0,0,0,0,13,13,13,,,,,,,,,,,,,,,,,,,,,,,,,False,13,14,False,exp3.png,exp4.png,trial_right_image,-1,exp4.png,2,exp3.png,exp4.png,0,4,reversed,incorrect,0.2869693088185089,0,valid_lose,72.59066449999955,9,,,,,,,,,,,,,,,sub_822,2025-01-06_15h19.14.334,Reversal,2023.1.3,59.96918783142046,2,
14,exp1.png,exp2.png,,0,0,0,0,0,14,14,14,,,,,,,,,,,,,,,,,,,,,,,,,False,14,15,False,exp1.png,exp2.png,trial_right_image,-1,exp2.png,2,exp1.png,exp2.png,0,2,non-reversed,incorrect,0.0805162301365967,1,invalid_win,77.60462919999918,10,,,,,,,,,,,,,,,sub_822,2025-01-06_15h19.14.334,Reversal,2023.1.3,59.96918783142046,2,
15,exp3.png,exp4.png,,0,0,0,0,0,15,15,15,,,,,,,,,,,,,,,,,,,,,,,,,False,15,16,True,exp4.png,exp3.png,trial_right_image,-1,exp3.png,2,exp3.png,exp4.png,1,3,reversed,correct,0.8749132344486997,1,valid_win,82.31936719999976,11,,,,,,,,,,,,,,,sub_822,2025-01-06_15h19.14.334,Reversal,2023.1.3,59.96918783142046,2,
16,exp1.png,exp2.png,,0,0,0,0,0,16,16,16,,,,,,,,,,,,,,,,,,,,,,,,,False,16,17,False,exp1.png,exp2.png,trial_right_image,-1,exp2.png,2,exp1.png,exp2.png,0,2,non-reversed,incorrect,0.23321071618476263,1,invalid_win,91.31698419999975,12,,,,,,,,,,,,,,,sub_822,2025-01-06_15h19.14.334,Reversal,2023.1.3,59.96918783142046,2,
17,exp3.png,exp4.png,,0,0,0,0,0,17,17,17,,,,,,,,,,,,,,,,,,,,,,,,,False,17,18,True,exp4.png,exp3.png,trial_right_image,-1,exp3.png,2,exp3.png,exp4.png,1,3,reversed,correct,0.6532755260831544,1,valid_win,96.06523639999978,13,,,,,,,,,,,,,,,sub_822,2025-01-06_15h19.14.334,Reversal,2023.1.3,59.96918783142046,2,
18,exp1.png,exp2.png,,0,0,0,0,0,18,18,18,,,,,,,,,,,,,,,,,,,,,,,,,False,18,19,True,exp2.png,exp1.png,trial_left_image,1,exp2.png,2,exp1.png,exp2.png,0,2,non-reversed,incorrect,0.8290429542243191,0,valid_lose,100.99656679999953,13,,,,,,,,,,,,,,,sub_822,2025-01-06_15h19.14.334,Reversal,2023.1.3,59.96918783142046,2,
19,exp3.png,exp4.png,,0,0,0,0,0,19,19,19,,,,,,,,,,,,,,,,,,,,,,,,,False,19,20,False,exp3.png,exp4.png,trial_left_image,1,exp3.png,2,exp3.png,exp4.png,1,3,reversed,correct,0.8200789198377114,1,valid_win,105.11223019999943,14,,,,,,,,,,,,,,,sub_822,2025-01-06_15h19.14.334,Reversal,2023.1.3,59.96918783142046,2,
20,exp1.png,exp2.png,,0,0,0,0,0,20,20,20,,,,,,,,,,,,,,,,,,,,,,,,,True,,,,,,,,,,,,,,,,,,,,,,,,,,,,,,,,,,,sub_822,2025-01-06_15h19.14.334,Reversal,2023.1.3,59.96918783142046,2,
,,,exp1.png,0,0,0,0,,,,,0,0,0,0,0,0,0,0,,,,,,,,,,,,,,,,,,,,,,,,,,,,,,,,,,,,,,160.41460300000017,75.0,75.0,11.411854199999652,"[(75.0, 11.411854199999652)]",,,,,,,,,,sub_822,2025-01-06_15h19.14.334,Reversal,2023.1.3,59.96918783142046,2,
,,,exp2.png,0,0,0,0,,,,,0,0,0,0,0,1,1,1,,,,,,,,,,,,,,,,,,,,,,,,,,,,,,,,,,,,,,173.07096309999997,,31.0,6.018341500000133,"[(27.0, 4.735567199999423), (31.0, 6.018341500000133)]",31.0,,,,,,,,,sub_822,2025-01-06_15h19.14.334,Reversal,2023.1.3,59.96918783142046,2,
,,,exp3.png,0,0,0,0,,,,,0,0,0,0,0,2,2,2,,,,,,,,,,,,,,,,,,,,,,,,,,,,,,,,,,,,,,180.14237289999983,,87.0,7.659607800000231,"[(87.0, 7.659607800000231)]",,87.0,,,,,,,,sub_822,2025-01-06_15h19.14.334,Reversal,2023.1.3,59.96918783142046,2,
,,,exp4.png,0,0,0,0,,,,,0,0,0,0,0,3,3,3,,,,,,,,,,,,,,,,,,,,,,,,,,,,,,,,,,,,,,188.9245434000004,,14.0,2.14339579999978,"[(14.0, 2.14339579999978)]",,,14.0,,,,,,,sub_822,2025-01-06_15h19.14.334,Reversal,2023.1.3,59.96918783142046,2,
0,exp1.png,exp2.png,,1,0,1,0,0,0,0,0,,,,,,,,,,,,,,,,,,,,,,,,,False,20,21,False,exp1.png,exp2.png,trial_left_image,1,exp1.png,2,exp1.png,exp2.png,1,1,non-reversed,correct,0.9312298594552453,1,valid_win,143.16570949999914,15,,,,,,,,,,,,,,,sub_822,2025-01-06_15h19.14.334,Reversal,2023.1.3,59.96918783142046,2,
1,exp3.png,exp4.png,,1,0,1,0,0,1,1,1,,,,,,,,,,,,,,,,,,,,,,,,,False,21,22,False,exp3.png,exp4.png,trial_left_image,1,exp3.png,2,exp3.png,exp4.png,1,3,reversed,correct,0.24652315260089508,0,invalid_lose,147.84722499999953,15,,,,,,,,,,,,,,,sub_822,2025-01-06_15h19.14.334,Reversal,2023.1.3,59.96918783142046,2,
2,exp1.png,exp2.png,,1,0,1,0,0,2,2,2,,,,,,,,,,,,,,,,,,,,,,,,,False,22,23,False,exp1.png,exp2.png,trial_left_image,1,exp1.png,2,exp1.png,exp2.png,1,1,non-reversed,correct,0.4197701695939342,1,valid_win,152.7123517,16,,,,,,,,,,,,,,,sub_822,2025-01-06_15h19.14.334,Reversal,2023.1.3,59.96918783142046,2,
3,exp3.png,exp4.png,,1,0,1,0,0,3,3,3,,,,,,,,,,,,,,,,,,,,,,,,,False,23,24,False,exp3.png,exp4.png,trial_left_image,1,exp3.png,2,exp3.png,exp4.png,1,3,reversed,correct,0.21938335912033158,0,invalid_lose,156.94604289999916,16,,,,,,,,,,,,,,,sub_822,2025-01-06_15h19.14.334,Reversal,2023.1.3,59.96918783142046,2,
4,exp1.png,exp2.png,,1,0,1,0,0,4,4,4,,,,,,,,,,,,,,,,,,,,,,,,,False,24,25,False,exp1.png,exp2.png,trial_left_image,1,exp1.png,2,exp1.png,exp2.png,1,1,non-reversed,correct,0.10413691234002542,0,invalid_lose,161.02624769999966,16,,,,,,,,,,,,,,,sub_822,2025-01-06_15h19.14.334,Reversal,2023.1.3,59.96918783142046,2,
5,exp3.png,exp4.png,,1,0,1,0,0,5,5,5,,,,,,,,,,,,,,,,,,,,,,,,,False,25,26,False,exp3.png,exp4.png,trial_right_image,-1,exp4.png,2,exp3.png,exp4.png,0,4,reversed,incorrect,0.762330173438349,0,valid_lose,165.1246999999994,16,,,,,,,,,,,,,,,sub_822,2025-01-06_15h19.14.334,Reversal,2023.1.3,59.96918783142046,2,
6,exp1.png,exp2.png,,1,0,1,0,0,6,6,6,,,,,,,,,,,,,,,,,,,,,,,,,False,26,27,True,exp2.png,exp1.png,trial_right_image,-1,exp1.png,2,exp1.png,exp2.png,1,1,non-reversed,correct,0.09192571645647007,0,invalid_lose,169.4231592999995,16,,,,,,,,,,,,,,,sub_822,2025-01-06_15h19.14.334,Reversal,2023.1.3,59.96918783142046,2,
7,exp3.png,exp4.png,,1,0,1,0,0,7,7,7,,,,,,,,,,,,,,,,,,,,,,,,,False,27,28,True,exp4.png,exp3.png,trial_left_image,1,exp4.png,2,exp3.png,exp4.png,0,4,reversed,incorrect,0.6321216503493964,0,valid_lose,174.95457179999994,16,,,,,,,,,,,,,,,sub_822,2025-01-06_15h19.14.334,Reversal,2023.1.3,59.96918783142046,2,
8,exp1.png,exp2.png,,1,0,1,0,0,8,8,8,,,,,,,,,,,,,,,,,,,,,,,,,False,28,29,False,exp1.png,exp2.png,trial_left_image,1,exp1.png,2,exp1.png,exp2.png,1,1,non-reversed,correct,0.672204934083172,1,valid_win,179.23654369999986,17,,,,,,,,,,,,,,,sub_822,2025-01-06_15h19.14.334,Reversal,2023.1.3,59.96918783142046,2,
9,exp3.png,exp4.png,,1,0,1,0,0,9,9,9,,,,,,,,,,,,,,,,,,,,,,,,,False,29,30,True,exp4.png,exp3.png,trial_right_image,-1,exp3.png,2,exp3.png,exp4.png,1,3,reversed,correct,0.33392774784626633,1,valid_win,183.43523169999935,18,,,,,,,,,,,,,,,sub_822,2025-01-06_15h19.14.334,Reversal,2023.1.3,59.96918783142046,2,
10,exp1.png,exp2.png,,1,0,1,0,0,10,10,10,,,,,,,,,,,,,,,,,,,,,,,,,False,30,31,True,exp2.png,exp1.png,trial_right_image,-1,exp1.png,2,exp1.png,exp2.png,1,1,non-reversed,correct,0.3752820713017153,1,valid_win,188.01708719999988,19,,,,,,,,,,,,,,,sub_822,2025-01-06_15h19.14.334,Reversal,2023.1.3,59.96918783142046,2,
11,exp3.png,exp4.png,,1,0,1,0,0,11,11,11,,,,,,,,,,,,,,,,,,,,,,,,,False,31,32,False,exp3.png,exp4.png,trial_left_image,1,exp3.png,2,exp3.png,exp4.png,1,3,reversed,correct,0.1345311108309888,0,invalid_lose,191.999014,19,,,,,,,,,,,,,,,sub_822,2025-01-06_15h19.14.334,Reversal,2023.1.3,59.96918783142046,2,
12,exp1.png,exp2.png,,1,0,1,0,0,12,12,12,,,,,,,,,,,,,,,,,,,,,,,,,False,32,33,False,exp1.png,exp2.png,trial_left_image,1,exp1.png,2,exp1.png,exp2.png,1,1,non-reversed,correct,0.36749847225718746,1,valid_win,196.34717,20,,,,,,,,,,,,,,,sub_822,2025-01-06_15h19.14.334,Reversal,2023.1.3,59.96918783142046,2,
13,exp3.png,exp4.png,,1,0,1,0,0,13,13,13,,,,,,,,,,,,,,,,,,,,,,,,,False,33,34,True,exp4.png,exp3.png,trial_left_image,1,exp4.png,2,exp3.png,exp4.png,0,4,reversed,incorrect,0.4277531332605117,0,valid_lose,200.31316649999917,20,,,,,,,,,,,,,,,sub_822,2025-01-06_15h19.14.334,Reversal,2023.1.3,59.96918783142046,2,
14,exp1.png,exp2.png,,1,0,1,0,0,14,14,14,,,,,,,,,,,,,,,,,,,,,,,,,False,34,35,True,exp2.png,exp1.png,trial_right_image,-1,exp1.png,2,exp1.png,exp2.png,1,1,non-reversed,correct,0.3091988875380358,1,valid_win,204.82779559999926,21,,,,,,,,,,,,,,,sub_822,2025-01-06_15h19.14.334,Reversal,2023.1.3,59.96918783142046,2,
15,exp3.png,exp4.png,,1,0,1,0,0,15,15,15,,,,,,,,,,,,,,,,,,,,,,,,,False,35,36,True,exp4.png,exp3.png,trial_right_image,-1,exp3.png,2,exp3.png,exp4.png,1,3,reversed,correct,0.07008785208861579,0,invalid_lose,209.0932731999992,21,,,,,,,,,,,,,,,sub_822,2025-01-06_15h19.14.334,Reversal,2023.1.3,59.96918783142046,2,
16,exp1.png,exp2.png,,1,0,1,0,0,16,16,16,,,,,,,,,,,,,,,,,,,,,,,,,False,36,37,True,exp2.png,exp1.png,trial_right_image,-1,exp1.png,2,exp1.png,exp2.png,1,1,non-reversed,correct,0.20108866231026423,0,invalid_lose,213.3083348,21,,,,,,,,,,,,,,,sub_822,2025-01-06_15h19.14.334,Reversal,2023.1.3,59.96918783142046,2,
17,exp3.png,exp4.png,,1,0,1,0,0,17,17,17,,,,,,,,,,,,,,,,,,,,,,,,,False,37,38,True,exp4.png,exp3.png,trial_right_image,-1,exp3.png,2,exp3.png,exp4.png,1,3,reversed,correct,0.32606081036289325,1,valid_win,217.37371649999932,22,,,,,,,,,,,,,,,sub_822,2025-01-06_15h19.14.334,Reversal,2023.1.3,59.96918783142046,2,
18,exp1.png,exp2.png,,1,0,1,0,0,18,18,18,,,,,,,,,,,,,,,,,,,,,,,,,False,38,39,True,exp2.png,exp1.png,trial_right_image,-1,exp1.png,2,exp1.png,exp2.png,1,1,non-reversed,correct,0.9989523260900721,1,valid_win,221.70544849999987,23,,,,,,,,,,,,,,,sub_822,2025-01-06_15h19.14.334,Reversal,2023.1.3,59.96918783142046,2,
19,exp3.png,exp4.png,,1,0,1,0,0,19,19,19,,,,,,,,,,,,,,,,,,,,,,,,,False,39,40,False,exp3.png,exp4.png,trial_left_image,1,exp3.png,2,exp3.png,exp4.png,1,3,reversed,correct,0.5801820966850896,1,valid_win,225.72088349999922,24,,,,,,,,,,,,,,,sub_822,2025-01-06_15h19.14.334,Reversal,2023.1.3,59.96918783142046,2,
20,exp1.png,exp2.png,,1,0,1,0,0,20,20,20,,,,,,,,,,,,,,,,,,,,,,,,,True,,,,,,,,,,,,,,,,,,,,,,,,,,,,,,,,,,,sub_822,2025-01-06_15h19.14.334,Reversal,2023.1.3,59.96918783142046,2,
,,,exp1.png,1,0,1,0,,,,,0,0,0,0,0,0,0,0,,,,,,,,,,,,,,,,,,,,,,,,,,,,,,,,,,,,,,281.0252455,77.0,77.0,3.8629696999996668,"[(77.0, 3.8629696999996668)]",,,,,,,,,,sub_822,2025-01-06_15h19.14.334,Reversal,2023.1.3,59.96918783142046,2,
,,,exp2.png,1,0,1,0,,,,,0,0,0,0,0,1,1,1,,,,,,,,,,,,,,,,,,,,,,,,,,,,,,,,,,,,,,286.1389801000005,,29.0,1.6275030000006154,"[(29.0, 1.6275030000006154)]",29.0,,,,,,,,,sub_822,2025-01-06_15h19.14.334,Reversal,2023.1.3,59.96918783142046,2,
,,,exp3.png,1,0,1,0,,,,,0,0,0,0,0,2,2,2,,,,,,,,,,,,,,,,,,,,,,,,,,,,,,,,,,,,,,288.7721446000005,,64.0,4.376970299999812,"[(68.0, 2.861883499999749), (64.0, 4.376970299999812)]",,64.0,,,,,,,,sub_822,2025-01-06_15h19.14.334,Reversal,2023.1.3,59.96918783142046,2,
,,,exp4.png,1,0,1,0,,,,,0,0,0,0,0,3,3,3,,,,,,,,,,,,,,,,,,,,,,,,,,,,,,,,,,,,,,294.1363467000001,,35.0,2.1626223000002938,"[(35.0, 2.1626223000002938)]",,,35.0,,,,,,,sub_822,2025-01-06_15h19.14.334,Reversal,2023.1.3,59.96918783142046,2,
0,exp1.png,exp2.png,,2,0,2,0,0,0,0,0,,,,,,,,,,,,,,,,,,,,,,,,,False,40,41,False,exp1.png,exp2.png,trial_left_image,1,exp1.png,2,exp1.png,exp2.png,1,1,non-reversed,correct,0.24025423049208317,0,invalid_lose,246.2804839999999,24,,,,,,,,,,,,,,,sub_822,2025-01-06_15h19.14.334,Reversal,2023.1.3,59.96918783142046,2,
1,exp3.png,exp4.png,,2,0,2,0,0,1,1,1,,,,,,,,,,,,,,,,,,,,,,,,,False,41,42,True,exp4.png,exp3.png,trial_right_image,-1,exp3.png,2,exp3.png,exp4.png,1,3,reversed,correct,0.31069044739957696,1,valid_win,250.4294044999997,25,,,,,,,,,,,,,,,sub_822,2025-01-06_15h19.14.334,Reversal,2023.1.3,59.96918783142046,2,
2,exp1.png,exp2.png,,2,0,2,0,0,2,2,2,,,,,,,,,,,,,,,,,,,,,,,,,False,42,43,True,exp2.png,exp1.png,trial_left_image,1,exp2.png,2,exp1.png,exp2.png,0,2,non-reversed,incorrect,0.34634868371097116,0,valid_lose,254.41093349999937,25,,,,,,,,,,,,,,,sub_822,2025-01-06_15h19.14.334,Reversal,2023.1.3,59.96918783142046,2,
3,exp3.png,exp4.png,,2,0,2,0,0,3,3,3,,,,,,,,,,,,,,,,,,,,,,,,,False,43,44,False,exp3.png,exp4.png,trial_left_image,1,exp3.png,2,exp3.png,exp4.png,1,3,reversed,correct,0.31333831191326933,1,valid_win,258.59317179999925,26,,,,,,,,,,,,,,,sub_822,2025-01-06_15h19.14.334,Reversal,2023.1.3,59.96918783142046,2,
4,exp1.png,exp2.png,,2,0,2,0,0,4,4,4,,,,,,,,,,,,,,,,,,,,,,,,,False,44,45,True,exp2.png,exp1.png,trial_left_image,1,exp2.png,2,exp1.png,exp2.png,0,2,non-reversed,incorrect,0.85971181915863,0,valid_lose,263.7744968999996,26,,,,,,,,,,,,,,,sub_822,2025-01-06_15h19.14.334,Reversal,2023.1.3,59.96918783142046,2,
5,exp3.png,exp4.png,,2,0,2,0,0,5,5,5,,,,,,,,,,,,,,,,,,,,,,,,,False,45,46,False,exp3.png,exp4.png,trial_left_image,1,exp3.png,2,exp3.png,exp4.png,1,3,reversed,correct,0.2131871195605396,0,invalid_lose,267.8736997999995,26,,,,,,,,,,,,,,,sub_822,2025-01-06_15h19.14.334,Reversal,2023.1.3,59.96918783142046,2,
6,exp1.png,exp2.png,,2,0,2,0,0,6,6,6,,,,,,,,,,,,,,,,,,,,,,,,,False,46,47,False,exp1.png,exp2.png,trial_left_image,1,exp1.png,2,exp1.png,exp2.png,1,1,non-reversed,correct,0.7146942246122591,1,valid_win,272.0890210999996,27,,,,,,,,,,,,,,,sub_822,2025-01-06_15h19.14.334,Reversal,2023.1.3,59.96918783142046,2,
7,exp3.png,exp4.png,,2,0,2,0,0,7,7,7,,,,,,,,,,,,,,,,,,,,,,,,,False,47,48,False,exp3.png,exp4.png,trial_left_image,1,exp3.png,2,exp3.png,exp4.png,1,3,reversed,correct,0.3323533121847353,1,valid_win,276.38711949999924,28,,,,,,,,,,,,,,,sub_822,2025-01-06_15h19.14.334,Reversal,2023.1.3,59.96918783142046,2,
8,exp1.png,exp2.png,,2,0,2,0,0,8,8,8,,,,,,,,,,,,,,,,,,,,,,,,,False,48,49,False,exp1.png,exp2.png,trial_left_image,1,exp1.png,2,exp1.png,exp2.png,1,1,non-reversed,correct,0.06210374992533829,0,invalid_lose,280.4690432999996,28,,,,,,,,,,,,,,,sub_822,2025-01-06_15h19.14.334,Reversal,2023.1.3,59.96918783142046,2,
9,exp3.png,exp4.png,,2,0,2,0,0,9,9,9,,,,,,,,,,,,,,,,,,,,,,,,,False,49,50,True,exp4.png,exp3.png,trial_right_image,-1,exp3.png,2,exp3.png,exp4.png,1,3,reversed,correct,0.36311548287254025,1,valid_win,285.2005359999994,29,,,,,,,,,,,,,,,sub_822,2025-01-06_15h19.14.334,Reversal,2023.1.3,59.96918783142046,2,
10,exp1.png,exp2.png,,2,0,2,0,0,10,10,10,,,,,,,,,,,,,,,,,,,,,,,,,False,50,51,False,exp1.png,exp2.png,trial_left_image,1,exp1.png,2,exp1.png,exp2.png,1,1,non-reversed,correct,0.10916894749532202,0,invalid_lose,289.1993219999995,29,,,,,,,,,,,,,,,sub_822,2025-01-06_15h19.14.334,Reversal,2023.1.3,59.96918783142046,2,
11,exp3.png,exp4.png,,2,0,2,0,0,11,11,11,,,,,,,,,,,,,,,,,,,,,,,,,False,51,52,False,exp3.png,exp4.png,trial_left_image,1,exp3.png,2,exp3.png,exp4.png,1,3,reversed,correct,0.2532985998935551,1,valid_win,293.4312341999994,30,,,,,,,,,,,,,,,sub_822,2025-01-06_15h19.14.334,Reversal,2023.1.3,59.96918783142046,2,
12,exp1.png,exp2.png,,2,0,2,0,0,12,12,12,,,,,,,,,,,,,,,,,,,,,,,,,False,52,53,True,exp2.png,exp1.png,trial_right_image,-1,exp1.png,2,exp1.png,exp2.png,1,1,non-reversed,correct,0.7543081803404281,1,valid_win,297.6963018999995,31,,,,,,,,,,,,,,,sub_822,2025-01-06_15h19.14.334,Reversal,2023.1.3,59.96918783142046,2,
13,exp3.png,exp4.png,,2,0,2,0,0,13,13,13,,,,,,,,,,,,,,,,,,,,,,,,,False,53,54,False,exp3.png,exp4.png,trial_left_image,1,exp3.png,2,exp3.png,exp4.png,1,3,reversed,correct,0.9387688606290863,1,valid_win,301.8618543999992,32,,,,,,,,,,,,,,,sub_822,2025-01-06_15h19.14.334,Reversal,2023.1.3,59.96918783142046,2,
14,exp1.png,exp2.png,,2,0,2,0,0,14,14,14,,,,,,,,,,,,,,,,,,,,,,,,,False,54,55,False,exp1.png,exp2.png,trial_left_image,1,exp1.png,2,exp1.png,exp2.png,1,1,non-reversed,correct,0.2751411455523718,1,valid_win,306.12685239999973,33,,,,,,,,,,,,,,,sub_822,2025-01-06_15h19.14.334,Reversal,2023.1.3,59.96918783142046,2,
15,exp3.png,exp4.png,,2,0,2,0,0,15,15,15,,,,,,,,,,,,,,,,,,,,,,,,,False,55,56,True,exp4.png,exp3.png,trial_right_image,-1,exp3.png,2,exp3.png,exp4.png,1,3,reversed,correct,0.7723392878284222,1,valid_win,310.3088611999992,34,,,,,,,,,,,,,,,sub_822,2025-01-06_15h19.14.334,Reversal,2023.1.3,59.96918783142046,2,
16,exp1.png,exp2.png,,2,0,2,0,0,16,16,16,,,,,,,,,,,,,,,,,,,,,,,,,False,56,57,True,exp2.png,exp1.png,trial_right_image,-1,exp1.png,2,exp1.png,exp2.png,1,1,non-reversed,correct,0.27917786096772423,1,valid_win,314.3740785,35,,,,,,,,,,,,,,,sub_822,2025-01-06_15h19.14.334,Reversal,2023.1.3,59.96918783142046,2,
17,exp3.png,exp4.png,,2,0,2,0,0,17,17,17,,,,,,,,,,,,,,,,,,,,,,,,,False,57,58,True,exp4.png,exp3.png,trial_right_image,-1,exp3.png,2,exp3.png,exp4.png,1,3,reversed,correct,0.24137576628350066,0,invalid_lose,318.8558145999996,35,,,,,,,,,,,,,,,sub_822,2025-01-06_15h19.14.334,Reversal,2023.1.3,59.96918783142046,2,
18,exp1.png,exp2.png,,2,0,2,0,0,18,18,18,,,,,,,,,,,,,,,,,,,,,,,,,False,58,59,True,exp2.png,exp1.png,trial_right_image,-1,exp1.png,2,exp1.png,exp2.png,1,1,non-reversed,correct,0.5323623156428038,1,valid_win,322.90437849999944,36,,,,,,,,,,,,,,,sub_822,2025-01-06_15h19.14.334,Reversal,2023.1.3,59.96918783142046,2,
19,exp3.png,exp4.png,,2,0,2,0,0,19,19,19,,,,,,,,,,,,,,,,,,,,,,,,,False,59,60,True,exp4.png,exp3.png,trial_right_image,-1,exp3.png,2,exp3.png,exp4.png,1,3,reversed,correct,0.9279208201820903,1,valid_win,326.9699708999997,37,,,,,,,,,,,,,,,sub_822,2025-01-06_15h19.14.334,Reversal,2023.1.3,59.96918783142046,2,
20,exp1.png,exp2.png,,2,0,2,0,0,20,20,20,,,,,,,,,,,,,,,,,,,,,,,,,True,,,,,,,,,,,,,,,,,,,,,,,,,,,,,,,,,,,sub_822,2025-01-06_15h19.14.334,Reversal,2023.1.3,59.96918783142046,2,
,,,exp1.png,2,0,2,0,,,,,0,0,0,0,0,0,0,0,,,,,,,,,,,,,,,,,,,,,,,,,,,,,,,,,,,,,,382.2767479000004,79.0,79.0,7.228989500000353,"[(79.0, 7.228989500000353)]",,,,,,,,,,sub_822,2025-01-06_15h19.14.334,Reversal,2023.1.3,59.96918783142046,2,
,,,exp2.png,2,0,2,0,,,,,0,0,0,0,0,1,1,1,,,,,,,,,,,,,,,,,,,,,,,,,,,,,,,,,,,,,,390.5041332999999,,22.0,2.945122799999808,"[(22.0, 2.945122799999808)]",22.0,,,,,,,,,sub_822,2025-01-06_15h19.14.334,Reversal,2023.1.3,59.96918783142046,2,
,,,exp3.png,2,0,2,0,,,,,0,0,0,0,0,2,2,2,,,,,,,,,,,,,,,,,,,,,,,,,,,,,,,,,,,,,,394.55095059999985,,73.0,1.3787729999994554,"[(73.0, 1.3787729999994554)]",,73.0,,,,,,,,sub_822,2025-01-06_15h19.14.334,Reversal,2023.1.3,59.96918783142046,2,
,,,exp4.png,2,0,2,0,,,,,0,0,0,0,0,3,3,3,,,,,,,,,,,,,,,,,,,,,,,,,,,,,,,,,,,,,,398.2854090000001,,27.0,2.409993399999621,"[(27.0, 2.409993399999621)]",,,27.0,,,,,,,sub_822,2025-01-06_15h19.14.334,Reversal,2023.1.3,59.96918783142046,2,
0,exp1.png,exp2.png,,,,,,,,,,,,,,,,,,0,0,0,0,0,0,0,0,,,,,,,,,False,0,61,True,exp2.png,exp1.png,trial_right_image,-1,exp1.png,2,exp1.png,exp2.png,1,1,non-reversed,correct,0.3367975412867441,1,valid_win,350.71231329999955,38,,,,,,,,,348.95531089999986,,,,,,sub_822,2025-01-06_15h19.14.334,Reversal,2023.1.3,59.96918783142046,2,
1,exp3.png,exp4.png,,,,,,,,,,,,,,,,,,0,0,0,0,0,1,1,1,,,,,,,,,False,1,62,False,exp3.png,exp4.png,trial_left_image,1,exp3.png,2,exp4.png,exp3.png,1,3,reversed,incorrect,0.6252427024181468,0,valid_lose,354.6938406999998,38,,,,,,,,,,,,,,,sub_822,2025-01-06_15h19.14.334,Reversal,2023.1.3,59.96918783142046,2,
2,exp1.png,exp2.png,,,,,,,,,,,,,,,,,,0,0,0,0,0,2,2,2,,,,,,,,,False,2,63,True,exp2.png,exp1.png,trial_right_image,-1,exp1.png,2,exp1.png,exp2.png,1,1,non-reversed,correct,0.6774599180538436,1,valid_win,358.59303649999947,39,,,,,,,,,,,,,,,sub_822,2025-01-06_15h19.14.334,Reversal,2023.1.3,59.96918783142046,2,
3,exp3.png,exp4.png,,,,,,,,,,,,,,,,,,0,0,0,0,0,3,3,3,,,,,,,,,False,3,64,False,exp3.png,exp4.png,trial_left_image,1,exp3.png,2,exp4.png,exp3.png,1,3,reversed,incorrect,0.060010014573125825,1,invalid_win,362.62444589999996,40,,,,,,,,,,,,,,,sub_822,2025-01-06_15h19.14.334,Reversal,2023.1.3,59.96918783142046,2,
4,exp1.png,exp2.png,,,,,,,,,,,,,,,,,,0,0,0,0,0,4,4,4,,,,,,,,,False,4,65,False,exp1.png,exp2.png,trial_left_image,1,exp1.png,2,exp1.png,exp2.png,1,1,non-reversed,correct,0.14336353712482508,0,invalid_lose,366.7065585999999,40,,,,,,,,,,,,,,,sub_822,2025-01-06_15h19.14.334,Reversal,2023.1.3,59.96918783142046,2,
5,exp3.png,exp4.png,,,,,,,,,,,,,,,,,,0,0,0,0,0,5,5,5,,,,,,,,,False,5,66,True,exp4.png,exp3.png,trial_right_image,-1,exp3.png,2,exp4.png,exp3.png,1,3,reversed,incorrect,0.06536658461032652,1,invalid_win,370.85487419999936,41,,,,,,,,,,,,,,,sub_822,2025-01-06_15h19.14.334,Reversal,2023.1.3,59.96918783142046,2,
6,exp1.png,exp2.png,,,,,,,,,,,,,,,,,,0,0,0,0,0,6,6,6,,,,,,,,,False,6,67,True,exp2.png,exp1.png,trial_right_image,-1,exp1.png,2,exp1.png,exp2.png,1,1,non-reversed,correct,0.5134332924629109,1,valid_win,375.01998079999976,42,,,,,,,,,,,,,,,sub_822,2025-01-06_15h19.14.334,Reversal,2023.1.3,59.96918783142046,2,
7,exp3.png,exp4.png,,,,,,,,,,,,,,,,,,0,0,0,0,0,7,7,7,,,,,,,,,False,7,68,False,exp3.png,exp4.png,trial_left_image,1,exp3.png,2,exp4.png,exp3.png,1,3,reversed,incorrect,0.6719181771644671,0,valid_lose,380.21833069999957,42,,,,,,,,,,,,,,,sub_822,2025-01-06_15h19.14.334,Reversal,2023.1.3,59.96918783142046,2,
8,exp1.png,exp2.png,,,,,,,,,,,,,,,,,,0,0,0,0,0,8,8,8,,,,,,,,,False,8,69,False,exp1.png,exp2.png,trial_left_image,1,exp1.png,2,exp1.png,exp2.png,1,1,non-reversed,correct,0.5410954644841593,1,valid_win,384.46755849999954,43,,,,,,,,,,,,,,,sub_822,2025-01-06_15h19.14.334,Reversal,2023.1.3,59.96918783142046,2,
9,exp3.png,exp4.png,,,,,,,,,,,,,,,,,,0,0,0,0,0,9,9,9,,,,,,,,,False,9,70,False,exp3.png,exp4.png,trial_left_image,1,exp3.png,2,exp4.png,exp3.png,1,3,reversed,incorrect,0.19547022420882865,1,invalid_win,388.4986567999995,44,,,,,,,,,,,,,,,sub_822,2025-01-06_15h19.14.334,Reversal,2023.1.3,59.96918783142046,2,
10,exp1.png,exp2.png,,,,,,,,,,,,,,,,,,0,0,0,0,0,10,10,10,,,,,,,,,False,10,71,True,exp2.png,exp1.png,trial_right_image,-1,exp1.png,2,exp1.png,exp2.png,1,1,non-reversed,correct,0.7909226612274798,1,valid_win,394.58010249999916,45,,,,,,,,,,,,,,,sub_822,2025-01-06_15h19.14.334,Reversal,2023.1.3,59.96918783142046,2,
11,exp3.png,exp4.png,,,,,,,,,,,,,,,,,,0,0,0,0,0,11,11,11,,,,,,,,,False,11,72,True,exp4.png,exp3.png,trial_right_image,-1,exp3.png,2,exp4.png,exp3.png,1,3,reversed,incorrect,0.8768457834789454,0,valid_lose,398.9452953,45,,,,,,,,,,,,,,,sub_822,2025-01-06_15h19.14.334,Reversal,2023.1.3,59.96918783142046,2,
12,exp1.png,exp2.png,,,,,,,,,,,,,,,,,,0,0,0,0,0,12,12,12,,,,,,,,,False,12,73,False,exp1.png,exp2.png,trial_left_image,1,exp1.png,2,exp1.png,exp2.png,1,1,non-reversed,correct,0.9734168356646485,1,valid_win,403.0770561999998,46,,,,,,,,,,,,,,,sub_822,2025-01-06_15h19.14.334,Reversal,2023.1.3,59.96918783142046,2,
13,exp3.png,exp4.png,,,,,,,,,,,,,,,,,,0,0,0,0,0,13,13,13,,,,,,,,,False,13,74,True,exp4.png,exp3.png,trial_right_image,-1,exp3.png,2,exp4.png,exp3.png,1,3,reversed,incorrect,0.019127364205764774,1,invalid_win,407.14232119999997,47,,,,,,,,,,,,,,,sub_822,2025-01-06_15h19.14.334,Reversal,2023.1.3,59.96918783142046,2,
14,exp1.png,exp2.png,,,,,,,,,,,,,,,,,,0,0,0,0,0,14,14,14,,,,,,,,,False,14,75,True,exp2.png,exp1.png,trial_right_image,-1,exp1.png,2,exp1.png,exp2.png,1,1,non-reversed,correct,0.7022493093297693,1,valid_win,411.3075861999996,48,,,,,,,,,,,,,,,sub_822,2025-01-06_15h19.14.334,Reversal,2023.1.3,59.96918783142046,2,
15,exp3.png,exp4.png,,,,,,,,,,,,,,,,,,0,0,0,0,0,15,15,15,,,,,,,,,False,15,76,True,exp4.png,exp3.png,trial_left_image,1,exp4.png,2,exp4.png,exp3.png,0,4,reversed,correct,0.760665368238285,1,valid_win,415.4065230999995,49,,,,,,,,,,,,,,,sub_822,2025-01-06_15h19.14.334,Reversal,2023.1.3,59.96918783142046,2,
16,exp1.png,exp2.png,,,,,,,,,,,,,,,,,,0,0,0,0,0,16,16,16,,,,,,,,,False,16,77,True,exp2.png,exp1.png,trial_right_image,-1,exp1.png,2,exp1.png,exp2.png,1,1,non-reversed,correct,0.7625699015989186,1,valid_win,419.8715411999992,50,,,,,,,,,,,,,,,sub_822,2025-01-06_15h19.14.334,Reversal,2023.1.3,59.96918783142046,2,
17,exp3.png,exp4.png,,,,,,,,,,,,,,,,,,0,0,0,0,0,17,17,17,,,,,,,,,False,17,78,False,exp3.png,exp4.png,trial_left_image,1,exp3.png,2,exp4.png,exp3.png,1,3,reversed,incorrect,0.16406166137226008,1,invalid_win,424.08690039999965,51,,,,,,,,,,,,,,,sub_822,2025-01-06_15h19.14.334,Reversal,2023.1.3,59.96918783142046,2,
18,exp1.png,exp2.png,,,,,,,,,,,,,,,,,,0,0,0,0,0,18,18,18,,,,,,,,,False,18,79,False,exp1.png,exp2.png,trial_left_image,1,exp1.png,2,exp1.png,exp2.png,1,1,non-reversed,correct,0.34220119402209315,1,valid_win,428.2186109999993,52,,,,,,,,,,,,,,,sub_822,2025-01-06_15h19.14.334,Reversal,2023.1.3,59.96918783142046,2,
19,exp3.png,exp4.png,,,,,,,,,,,,,,,,,,0,0,0,0,0,19,19,19,,,,,,,,,False,19,80,False,exp3.png,exp4.png,trial_right_image,-1,exp4.png,2,exp4.png,exp3.png,0,4,reversed,correct,0.5023659983111697,1,valid_win,432.53424949999953,53,,,,,,,,,,,,,,,sub_822,2025-01-06_15h19.14.334,Reversal,2023.1.3,59.96918783142046,2,
20,exp1.png,exp2.png,,,,,,,,,,,,,,,,,,0,0,0,0,0,20,20,20,,,,,,,,,True,,,,,,,,,,,,,,,,,,,,,,,,,,,,,,,,,,,sub_822,2025-01-06_15h19.14.334,Reversal,2023.1.3,59.96918783142046,2,
,,,exp1.png,,,,,,,,,,,,,,,,,0,0,0,0,,,,,0,0,0,0,0,0,0,0,,,,,,,,,,,,,,,,,,,,,,487.84069460000046,89.0,89.0,5.326104100000521,"[(87.0, 1.8448994999998831), (93.0, 2.311233600000378), (89.0, 5.326104100000521)]",,,,,,,,,,sub_822,2025-01-06_15h19.14.334,Reversal,2023.1.3,59.96918783142046,2,
,,,exp2.png,,,,,,,,,,,,,,,,,0,0,0,0,,,,,0,0,0,0,0,1,1,1,,,,,,,,,,,,,,,,,,,,,,494.3841730000004,,12.0,3.795770299999276,"[(12.0, 3.795770299999276)]",12.0,,,,,,,,,sub_822,2025-01-06_15h19.14.334,Reversal,2023.1.3,59.96918783142046,2,
,,,exp3.png,,,,,,,,,,,,,,,,,0,0,0,0,,,,,0,0,0,0,0,2,2,2,,,,,,,,,,,,,,,,,,,,,,499.3183214999999,,None,None,[],,,,,,,,,,sub_822,2025-01-06_15h19.14.334,Reversal,2023.1.3,59.96918783142046,2,
,,,exp4.png,,,,,,,,,,,,,,,,,0,0,0,0,,,,,0,0,0,0,0,3,3,3,,,,,,,,,,,,,,,,,,,,,,500.6011172999997,,None,None,[],,,,,,,,,,sub_822,2025-01-06_15h19.14.334,Reversal,2023.1.3,59.96918783142046,2,
0,exp1.png,exp2.png,,,,,,,,,,,,,,,,,,1,0,1,0,0,0,0,0,,,,,,,,,False,20,81,False,exp1.png,exp2.png,trial_left_image,1,exp1.png,2,exp1.png,exp2.png,1,1,non-reversed,correct,0.3785562394714497,1,valid_win,452.2940487999995,54,,,,,,,,,,,,,,,sub_822,2025-01-06_15h19.14.334,Reversal,2023.1.3,59.96918783142046,2,
1,exp3.png,exp4.png,,,,,,,,,,,,,,,,,,1,0,1,0,0,1,1,1,,,,,,,,,False,21,82,True,exp4.png,exp3.png,trial_right_image,-1,exp3.png,2,exp4.png,exp3.png,1,3,reversed,incorrect,0.928300075518756,0,valid_lose,457.4932033999994,54,,,,,,,,,,,,,,,sub_822,2025-01-06_15h19.14.334,Reversal,2023.1.3,59.96918783142046,2,
2,exp1.png,exp2.png,,,,,,,,,,,,,,,,,,1,0,1,0,0,2,2,2,,,,,,,,,False,22,83,True,exp2.png,exp1.png,trial_right_image,-1,exp1.png,2,exp1.png,exp2.png,1,1,non-reversed,correct,0.7050253244919015,1,valid_win,461.50768489999973,55,,,,,,,,,,,,,,,sub_822,2025-01-06_15h19.14.334,Reversal,2023.1.3,59.96918783142046,2,
3,exp3.png,exp4.png,,,,,,,,,,,,,,,,,,1,0,1,0,0,3,3,3,,,,,,,,,False,23,84,True,exp4.png,exp3.png,trial_right_image,-1,exp3.png,2,exp4.png,exp3.png,1,3,reversed,incorrect,0.2395276162346579,1,invalid_win,465.6225829999994,56,,,,,,,,,,,,,,,sub_822,2025-01-06_15h19.14.334,Reversal,2023.1.3,59.96918783142046,2,
4,exp1.png,exp2.png,,,,,,,,,,,,,,,,,,1,0,1,0,0,4,4,4,,,,,,,,,False,24,85,True,exp2.png,exp1.png,trial_right_image,-1,exp1.png,2,exp1.png,exp2.png,1,1,non-reversed,correct,0.5156666432602003,1,valid_win,470.0043982999996,57,,,,,,,,,,,,,,,sub_822,2025-01-06_15h19.14.334,Reversal,2023.1.3,59.96918783142046,2,
5,exp3.png,exp4.png,,,,,,,,,,,,,,,,,,1,0,1,0,0,5,5,5,,,,,,,,,False,25,86,True,exp4.png,exp3.png,trial_right_image,-1,exp3.png,2,exp4.png,exp3.png,1,3,reversed,incorrect,0.1638650513405443,1,invalid_win,474.38662439999916,58,,,,,,,,,,,,,,,sub_822,2025-01-06_15h19.14.334,Reversal,2023.1.3,59.96918783142046,2,
6,exp1.png,exp2.png,,,,,,,,,,,,,,,,,,1,0,1,0,0,6,6,6,,,,,,,,,False,26,87,True,exp2.png,exp1.png,trial_right_image,-1,exp1.png,2,exp1.png,exp2.png,1,1,non-reversed,correct,0.4659015200464899,1,valid_win,478.6850717999996,59,,,,,,,,,,,,,,,sub_822,2025-01-06_15h19.14.334,Reversal,2023.1.3,59.96918783142046,2,
7,exp3.png,exp4.png,,,,,,,,,,,,,,,,,,1,0,1,0,0,7,7,7,,,,,,,,,False,27,88,True,exp4.png,exp3.png,trial_right_image,-1,exp3.png,2,exp4.png,exp3.png,1,3,reversed,incorrect,0.41017567560602186,0,valid_lose,482.63363879999997,59,,,,,,,,,,,,,,,sub_822,2025-01-06_15h19.14.334,Reversal,2023.1.3,59.96918783142046,2,
8,exp1.png,exp2.png,,,,,,,,,,,,,,,,,,1,0,1,0,0,8,8,8,,,,,,,,,False,28,89,True,exp2.png,exp1.png,trial_right_image,-1,exp1.png,2,exp1.png,exp2.png,1,1,non-reversed,correct,0.8537035260376981,1,valid_win,486.84869139999955,60,,,,,,,,,,,,,,,sub_822,2025-01-06_15h19.14.334,Reversal,2023.1.3,59.96918783142046,2,
9,exp3.png,exp4.png,,,,,,,,,,,,,,,,,,1,0,1,0,0,9,9,9,,,,,,,,,False,29,90,False,exp3.png,exp4.png,trial_left_image,1,exp3.png,2,exp4.png,exp3.png,1,3,reversed,incorrect,0.47861982024301497,0,valid_lose,493.0465723999996,60,,,,,,,,,,,,,,,sub_822,2025-01-06_15h19.14.334,Reversal,2023.1.3,59.96918783142046,2,
10,exp1.png,exp2.png,,,,,,,,,,,,,,,,,,1,0,1,0,0,10,10,10,,,,,,,,,False,30,91,False,exp1.png,exp2.png,trial_left_image,1,exp1.png,2,exp1.png,exp2.png,1,1,non-reversed,correct,0.01156707388919287,0,invalid_lose,497.4123221,60,,,,,,,,,,,,,,,sub_822,2025-01-06_15h19.14.334,Reversal,2023.1.3,59.96918783142046,2,
11,exp3.png,exp4.png,,,,,,,,,,,,,,,,,,1,0,1,0,0,11,11,11,,,,,,,,,False,31,92,False,exp3.png,exp4.png,trial_left_image,1,exp3.png,2,exp4.png,exp3.png,1,3,reversed,incorrect,0.1631328702419722,1,invalid_win,501.5435046999992,61,,,,,,,,,,,,,,,sub_822,2025-01-06_15h19.14.334,Reversal,2023.1.3,59.96918783142046,2,
12,exp1.png,exp2.png,,,,,,,,,,,,,,,,,,1,0,1,0,0,12,12,12,,,,,,,,,False,32,93,False,exp1.png,exp2.png,trial_left_image,1,exp1.png,2,exp1.png,exp2.png,1,1,non-reversed,correct,0.35723078988337986,1,valid_win,509.1744183999999,62,,,,,,,,,,,,,,,sub_822,2025-01-06_15h19.14.334,Reversal,2023.1.3,59.96918783142046,2,
13,exp3.png,exp4.png,,,,,,,,,,,,,,,,,,1,0,1,0,0,13,13,13,,,,,,,,,False,33,94,False,exp3.png,exp4.png,trial_left_image,1,exp3.png,2,exp4.png,exp3.png,1,3,reversed,incorrect,0.7316595878156571,0,valid_lose,515.6223866999999,62,,,,,,,,,,,,,,,sub_822,2025-01-06_15h19.14.334,Reversal,2023.1.3,59.96918783142046,2,
14,exp1.png,exp2.png,,,,,,,,,,,,,,,,,,1,0,1,0,0,14,14,14,,,,,,,,,False,34,95,False,exp1.png,exp2.png,trial_left_image,1,exp1.png,2,exp1.png,exp2.png,1,1,non-reversed,correct,0.48776913026351476,1,valid_win,520.2206727999992,63,,,,,,,,,,,,,,,sub_822,2025-01-06_15h19.14.334,Reversal,2023.1.3,59.96918783142046,2,
15,exp3.png,exp4.png,,,,,,,,,,,,,,,,,,1,0,1,0,0,15,15,15,,,,,,,,,False,35,96,True,exp4.png,exp3.png,trial_right_image,-1,exp3.png,2,exp4.png,exp3.png,1,3,reversed,incorrect,0.5106926821466018,0,valid_lose,524.4026101999998,63,,,,,,,,,,,,,,,sub_822,2025-01-06_15h19.14.334,Reversal,2023.1.3,59.96918783142046,2,
16,exp1.png,exp2.png,,,,,,,,,,,,,,,,,,1,0,1,0,0,16,16,16,,,,,,,,,False,36,97,False,exp1.png,exp2.png,trial_left_image,1,exp1.png,2,exp1.png,exp2.png,1,1,non-reversed,correct,0.6403144836761886,1,valid_win,528.4015046999994,64,,,,,,,,,,,,,,,sub_822,2025-01-06_15h19.14.334,Reversal,2023.1.3,59.96918783142046,2,
17,exp3.png,exp4.png,,,,,,,,,,,,,,,,,,1,0,1,0,0,17,17,17,,,,,,,,,False,37,98,True,exp4.png,exp3.png,trial_left_image,1,exp4.png,2,exp4.png,exp3.png,0,4,reversed,correct,0.28378859054115135,1,valid_win,532.3505167999992,65,,,,,,,,,,,,,,,sub_822,2025-01-06_15h19.14.334,Reversal,2023.1.3,59.96918783142046,2,
18,exp1.png,exp2.png,,,,,,,,,,,,,,,,,,1,0,1,0,0,18,18,18,,,,,,,,,False,38,99,False,exp1.png,exp2.png,trial_left_image,1,exp1.png,2,exp1.png,exp2.png,1,1,non-reversed,correct,0.9459028477262871,1,valid_win,536.5991881,66,,,,,,,,,,,,,,,sub_822,2025-01-06_15h19.14.334,Reversal,2023.1.3,59.96918783142046,2,
19,exp3.png,exp4.png,,,,,,,,,,,,,,,,,,1,0,1,0,0,19,19,19,,,,,,,,,False,39,100,False,exp3.png,exp4.png,trial_right_image,-1,exp4.png,2,exp4.png,exp3.png,0,4,reversed,correct,0.8440089084652022,1,valid_win,540.8304564999999,67,,,,,,,,,,,,,,,sub_822,2025-01-06_15h19.14.334,Reversal,2023.1.3,59.96918783142046,2,
20,exp1.png,exp2.png,,,,,,,,,,,,,,,,,,1,0,1,0,0,20,20,20,,,,,,,,,True,,,,,,,,,,,,,,,,,,,,,,,,,,,,,,,,,,,sub_822,2025-01-06_15h19.14.334,Reversal,2023.1.3,59.96918783142046,2,
,,,exp1.png,,,,,,,,,,,,,,,,,1,0,1,0,,,,,0,0,0,0,0,0,0,0,,,,,,,,,,,,,,,,,,,,,,596.1383046999999,90.0,90.0,2.1782581000006758,"[(82.0, 1.5119514000007257), (90.0, 2.1782581000006758)]",,,,,,,,,,sub_822,2025-01-06_15h19.14.334,Reversal,2023.1.3,59.96918783142046,2,
,,,exp2.png,,,,,,,,,,,,,,,,,1,0,1,0,,,,,0,0,0,0,0,1,1,1,,,,,,,,,,,,,,,,,,,,,,599.5654730000006,,12.0,3.328099199999997,"[(12.0, 3.328099199999997)]",12.0,,,,,,,,,sub_822,2025-01-06_15h19.14.334,Reversal,2023.1.3,59.96918783142046,2,
,,,exp3.png,,,,,,,,,,,,,,,,,1,0,1,0,,,,,0,0,0,0,0,2,2,2,,,,,,,,,,,,,,,,,,,,,,604.3313072999999,,37.0,3.2445718999997553,"[(37.0, 3.2445718999997553)]",,37.0,,,,,,,,sub_822,2025-01-06_15h19.14.334,Reversal,2023.1.3,59.96918783142046,2,
,,,exp4.png,,,,,,,,,,,,,,,,,1,0,1,0,,,,,0,0,0,0,0,3,3,3,,,,,,,,,,,,,,,,,,,,,,609.5141109000006,,67.0,1.3283841000002212,"[(67.0, 1.3283841000002212)]",,,67.0,,,,,,,sub_822,2025-01-06_15h19.14.334,Reversal,2023.1.3,59.96918783142046,2,
0,exp1.png,exp2.png,,,,,,,,,,,,,,,,,,2,0,2,0,0,0,0,0,,,,,,,,,False,40,101,True,exp2.png,exp1.png,trial_right_image,-1,exp1.png,2,exp1.png,exp2.png,1,1,non-reversed,correct,0.9270739833899522,1,valid_win,561.0238044999996,68,,,,,,,,,,,,,,,sub_822,2025-01-06_15h19.14.334,Reversal,2023.1.3,59.96918783142046,2,
1,exp3.png,exp4.png,,,,,,,,,,,,,,,,,,2,0,2,0,0,1,1,1,,,,,,,,,False,41,102,True,exp4.png,exp3.png,trial_right_image,-1,exp3.png,2,exp4.png,exp3.png,1,3,reversed,incorrect,0.4739407851372227,0,valid_lose,565.1555116,68,,,,,,,,,,,,,,,sub_822,2025-01-06_15h19.14.334,Reversal,2023.1.3,59.96918783142046,2,
2,exp1.png,exp2.png,,,,,,,,,,,,,,,,,,2,0,2,0,0,2,2,2,,,,,,,,,False,42,103,True,exp2.png,exp1.png,trial_right_image,-1,exp1.png,2,exp1.png,exp2.png,1,1,non-reversed,correct,0.9001264581901101,1,valid_win,569.4371702999997,69,,,,,,,,,,,,,,,sub_822,2025-01-06_15h19.14.334,Reversal,2023.1.3,59.96918783142046,2,
3,exp3.png,exp4.png,,,,,,,,,,,,,,,,,,2,0,2,0,0,3,3,3,,,,,,,,,False,43,104,False,exp3.png,exp4.png,trial_left_image,1,exp3.png,2,exp4.png,exp3.png,1,3,reversed,incorrect,0.4836382545401613,0,valid_lose,573.4195559999998,69,,,,,,,,,,,,,,,sub_822,2025-01-06_15h19.14.334,Reversal,2023.1.3,59.96918783142046,2,
4,exp1.png,exp2.png,,,,,,,,,,,,,,,,,,2,0,2,0,0,4,4,4,,,,,,,,,False,44,105,False,exp1.png,exp2.png,trial_left_image,1,exp1.png,2,exp1.png,exp2.png,1,1,non-reversed,correct,0.11307355753135118,0,invalid_lose,577.9512725999994,69,,,,,,,,,,,,,,,sub_822,2025-01-06_15h19.14.334,Reversal,2023.1.3,59.96918783142046,2,
5,exp3.png,exp4.png,,,,,,,,,,,,,,,,,,2,0,2,0,0,5,5,5,,,,,,,,,False,45,106,False,exp3.png,exp4.png,trial_right_image,-1,exp4.png,2,exp4.png,exp3.png,0,4,reversed,correct,0.6217598650698157,1,valid_win,582.3662232999995,70,,,,,,,,,,,,,,,sub_822,2025-01-06_15h19.14.334,Reversal,2023.1.3,59.96918783142046,2,
6,exp1.png,exp2.png,,,,,,,,,,,,,,,,,,2,0,2,0,0,6,6,6,,,,,,,,,False,46,107,True,exp2.png,exp1.png,trial_right_image,-1,exp1.png,2,exp1.png,exp2.png,1,1,non-reversed,correct,0.15165602942157874,0,invalid_lose,586.7147316999999,70,,,,,,,,,,,,,,,sub_822,2025-01-06_15h19.14.334,Reversal,2023.1.3,59.96918783142046,2,
7,exp3.png,exp4.png,,,,,,,,,,,,,,,,,,2,0,2,0,0,7,7,7,,,,,,,,,False,47,108,True,exp4.png,exp3.png,trial_left_image,1,exp4.png,2,exp4.png,exp3.png,0,4,reversed,correct,0.5126781237210288,1,valid_win,591.5299357000004,71,,,,,,,,,,,,,,,sub_822,2025-01-06_15h19.14.334,Reversal,2023.1.3,59.96918783142046,2,
8,exp1.png,exp2.png,,,,,,,,,,,,,,,,,,2,0,2,0,0,8,8,8,,,,,,,,,False,48,109,False,exp1.png,exp2.png,trial_left_image,1,exp1.png,2,exp1.png,exp2.png,1,1,non-reversed,correct,0.3644477763457866,1,valid_win,597.2781971999993,72,,,,,,,,,,,,,,,sub_822,2025-01-06_15h19.14.334,Reversal,2023.1.3,59.96918783142046,2,
9,exp3.png,exp4.png,,,,,,,,,,,,,,,,,,2,0,2,0,0,9,9,9,,,,,,,,,False,49,110,False,exp3.png,exp4.png,trial_right_image,-1,exp4.png,2,exp4.png,exp3.png,0,4,reversed,correct,0.5412115717406144,1,valid_win,602.5093419000004,73,,,,,,,,,,,,,,,sub_822,2025-01-06_15h19.14.334,Reversal,2023.1.3,59.96918783142046,2,
10,exp1.png,exp2.png,,,,,,,,,,,,,,,,,,2,0,2,0,0,10,10,10,,,,,,,,,False,50,111,True,exp2.png,exp1.png,trial_right_image,-1,exp1.png,2,exp1.png,exp2.png,1,1,non-reversed,correct,0.07056643257630946,0,invalid_lose,606.8578569000001,73,,,,,,,,,,,,,,,sub_822,2025-01-06_15h19.14.334,Reversal,2023.1.3,59.96918783142046,2,
11,exp3.png,exp4.png,,,,,,,,,,,,,,,,,,2,0,2,0,0,11,11,11,,,,,,,,,False,51,112,True,exp4.png,exp3.png,trial_left_image,1,exp4.png,2,exp4.png,exp3.png,0,4,reversed,correct,0.7430021314639096,1,valid_win,611.8727681,74,,,,,,,,,,,,,,,sub_822,2025-01-06_15h19.14.334,Reversal,2023.1.3,59.96918783142046,2,
12,exp1.png,exp2.png,,,,,,,,,,,,,,,,,,2,0,2,0,0,12,12,12,,,,,,,,,False,52,113,False,exp1.png,exp2.png,trial_right_image,-1,exp2.png,2,exp1.png,exp2.png,0,2,non-reversed,incorrect,0.9939587955296902,0,valid_lose,616.3213068999994,74,,,,,,,,,,,,,,,sub_822,2025-01-06_15h19.14.334,Reversal,2023.1.3,59.96918783142046,2,
13,exp3.png,exp4.png,,,,,,,,,,,,,,,,,,2,0,2,0,0,13,13,13,,,,,,,,,False,53,114,False,exp3.png,exp4.png,trial_right_image,-1,exp4.png,2,exp4.png,exp3.png,0,4,reversed,correct,0.9451271040763685,1,valid_win,623.4855516999996,75,,,,,,,,,,,,,,,sub_822,2025-01-06_15h19.14.334,Reversal,2023.1.3,59.96918783142046,2,
14,exp1.png,exp2.png,,,,,,,,,,,,,,,,,,2,0,2,0,0,14,14,14,,,,,,,,,False,54,115,True,exp2.png,exp1.png,trial_right_image,-1,exp1.png,2,exp1.png,exp2.png,1,1,non-reversed,correct,0.824793840904766,1,valid_win,628.4506318999993,76,,,,,,,,,,,,,,,sub_822,2025-01-06_15h19.14.334,Reversal,2023.1.3,59.96918783142046,2,
15,exp3.png,exp4.png,,,,,,,,,,,,,,,,,,2,0,2,0,0,15,15,15,,,,,,,,,False,55,116,False,exp3.png,exp4.png,trial_right_image,-1,exp4.png,2,exp4.png,exp3.png,0,4,reversed,correct,0.2814550048405775,1,valid_win,633.1656525999988,77,,,,,,,,,,,,,,,sub_822,2025-01-06_15h19.14.334,Reversal,2023.1.3,59.96918783142046,2,
16,exp1.png,exp2.png,,,,,,,,,,,,,,,,,,2,0,2,0,0,16,16,16,,,,,,,,,False,56,117,False,exp1.png,exp2.png,trial_right_image,-1,exp2.png,2,exp1.png,exp2.png,0,2,non-reversed,incorrect,0.41193843035279,0,valid_lose,638.2305895999998,77,,,,,,,,,,,,,,,sub_822,2025-01-06_15h19.14.334,Reversal,2023.1.3,59.96918783142046,2,
17,exp3.png,exp4.png,,,,,,,,,,,,,,,,,,2,0,2,0,0,17,17,17,,,,,,,,,False,57,118,True,exp4.png,exp3.png,trial_left_image,1,exp4.png,2,exp4.png,exp3.png,0,4,reversed,correct,0.42546939131433714,1,valid_win,642.5290638999995,78,,,,,,,,,,,,,,,sub_822,2025-01-06_15h19.14.334,Reversal,2023.1.3,59.96918783142046,2,
18,exp1.png,exp2.png,,,,,,,,,,,,,,,,,,2,0,2,0,0,18,18,18,,,,,,,,,False,58,119,True,exp2.png,exp1.png,trial_right_image,-1,exp1.png,2,exp1.png,exp2.png,1,1,non-reversed,correct,0.377141530646694,1,valid_win,647.5110841999995,79,,,,,,,,,,,,,,,sub_822,2025-01-06_15h19.14.334,Reversal,2023.1.3,59.96918783142046,2,
19,exp3.png,exp4.png,,,,,,,,,,,,,,,,,,2,0,2,0,0,19,19,19,,,,,,,,,False,59,120,False,exp3.png,exp4.png,trial_right_image,-1,exp4.png,2,exp4.png,exp3.png,0,4,reversed,correct,0.451118677526009,1,valid_win,651.9593005999996,80,,,,,,,,,,,,,,,sub_822,2025-01-06_15h19.14.334,Reversal,2023.1.3,59.96918783142046,2,
20,exp1.png,exp2.png,,,,,,,,,,,,,,,,,,2,0,2,0,0,20,20,20,,,,,,,,,True,,,,,,,,,,,,,,,,,,,,,,,,,,,,,,,,,,,sub_822,2025-01-06_15h19.14.334,Reversal,2023.1.3,59.96918783142046,2,
,,,exp1.png,,,,,,,,,,,,,,,,,2,0,2,0,,,,,0,0,0,0,0,0,0,0,,,,,,,,,,,,,,,,,,,,,,707.2664759000008,51.0,51.0,6.676366799998505,"[(51.0, 6.676366799998505)]",,,,,,,,,,sub_822,2025-01-06_15h19.14.334,Reversal,2023.1.3,59.96918783142046,2,
,,,exp2.png,,,,,,,,,,,,,,,,,2,0,2,0,,,,,0,0,0,0,0,1,1,1,,,,,,,,,,,,,,,,,,,,,,715.0102551999998,,56.0,1.7778206000002683,"[(56.0, 1.7778206000002683)]",56.0,,,,,,,,,sub_822,2025-01-06_15h19.14.334,Reversal,2023.1.3,59.96918783142046,2,
,,,exp3.png,,,,,,,,,,,,,,,,,2,0,2,0,,,,,0,0,0,0,0,2,2,2,,,,,,,,,,,,,,,,,,,,,,717.5936874999998,,11.0,1.9792877999989287,"[(11.0, 1.9792877999989287)]",,11.0,,,,,,,,sub_822,2025-01-06_15h19.14.334,Reversal,2023.1.3,59.96918783142046,2,
,,,exp4.png,,,,,,,,,,,,,,,,,2,0,2,0,,,,,0,0,0,0,0,3,3,3,,,,,,,,,,,,,,,,,,,,,,720.6252004999997,,94.0,1.5116258999987622,"[(94.0, 1.5116258999987622)]",,,94.0,,,,,,,sub_822,2025-01-06_15h19.14.334,Reversal,2023.1.3,59.96918783142046,2,
,,,,,,,,,,,,,,,,,,,,,,,,,,,,,,,,,,,,,,,,,,,,,,,,,,,,,,,,80,,,,,,,,,,89,49,40,321.6489376999989,0,,,,,,,
