trial_index,trial_image1_file,trial_image2_file,image_file,learning_outer_loop.thisRepN,learning_outer_loop.thisTrialN,learning_outer_loop.thisN,learning_outer_loop.thisIndex,learning_inner_loop.thisRepN,learning_inner_loop.thisTrialN,learning_inner_loop.thisN,learning_inner_loop.thisIndex,learning_estimation_outer_loop.thisRepN,learning_estimation_outer_loop.thisTrialN,learning_estimation_outer_loop.thisN,learning_estimation_outer_loop.thisIndex,learning_estimation_inner_loop.thisRepN,learning_estimation_inner_loop.thisTrialN,learning_estimation_inner_loop.thisN,learning_estimation_inner_loop.thisIndex,reversal_outer_loop.thisRepN,reversal_outer_loop.thisTrialN,reversal_outer_loop.thisN,reversal_outer_loop.thisIndex,reversal_inner_loop.thisRepN,reversal_inner_loop.thisTrialN,reversal_inner_loop.thisN,reversal_inner_loop.thisIndex,reversal_estimation_outer_loop.thisRepN,reversal_estimation_outer_loop.thisTrialN,reversal_estimation_outer_loop.thisN,reversal_estimation_outer_loop.thisIndex,reversal_estimation_inner_loop.thisRepN,reversal_estimation_inner_loop.thisTrialN,reversal_estimation_inner_loop.thisN,reversal_estimation_inner_loop.thisIndex,skipped,total_trial_counter,trial_num,left_right_flip,left_image_file,right_image_file,clicked_stimulus_side,side,clicked_stimulus,version,high_prob_image_file,low_prob_image_file,choice_a,choice_b,pair_type,correct,trial_feedback_random,reward,trial_type,overall_time_after_trial,score,estimation_rating.started,estimation_exp1.png,estimation_rating.response,estimation_rating.rt,estimation_rating.history,estimation_exp2.png,estimation_exp3.png,estimation_exp4.png,total_learning_time,total_correct,learning_correct,reversal_correct,total_reversal_time,extra_block,participant,date,expName,psychopyVersion,frameRate,ver,
0,exp1.png,exp2.png,,0,0,0,0,0,0,0,0,,,,,,,,,,,,,,,,,,,,,,,,,False,0,1,True,exp2.png,exp1.png,trial_right_image,-1,exp1.png,3,exp2.png,exp1.png,0,4,reversed,incorrect,0.11462943328126396,1,invalid_win,7.965534899999511,1,,,,,,,,,,,,,,,sub_807,2024-12-09_16h05.45.382,Reversal,2023.1.3,59.93676671119076,3,
1,exp3.png,exp4.png,,0,0,0,0,0,1,1,1,,,,,,,,,,,,,,,,,,,,,,,,,False,1,2,False,exp3.png,exp4.png,trial_left_image,1,exp3.png,3,exp4.png,exp3.png,0,2,non-reversed,incorrect,0.8445266904410957,0,valid_lose,13.644028499999877,1,,,,,,,,,,,,,,,sub_807,2024-12-09_16h05.45.382,Reversal,2023.1.3,59.93676671119076,3,
2,exp1.png,exp2.png,,0,0,0,0,0,2,2,2,,,,,,,,,,,,,,,,,,,,,,,,,False,2,3,True,exp2.png,exp1.png,trial_right_image,-1,exp1.png,3,exp2.png,exp1.png,0,4,reversed,incorrect,0.08929976083148838,1,invalid_win,21.424943699999858,2,,,,,,,,,,,,,,,sub_807,2024-12-09_16h05.45.382,Reversal,2023.1.3,59.93676671119076,3,
3,exp3.png,exp4.png,,0,0,0,0,0,3,3,3,,,,,,,,,,,,,,,,,,,,,,,,,False,3,4,False,exp3.png,exp4.png,trial_right_image,-1,exp4.png,3,exp4.png,exp3.png,1,1,non-reversed,correct,0.5592464047700072,1,valid_win,27.389752500000213,3,,,,,,,,,,,,,,,sub_807,2024-12-09_16h05.45.382,Reversal,2023.1.3,59.93676671119076,3,
4,exp1.png,exp2.png,,0,0,0,0,0,4,4,4,,,,,,,,,,,,,,,,,,,,,,,,,False,4,5,False,exp1.png,exp2.png,trial_left_image,1,exp1.png,3,exp2.png,exp1.png,0,4,reversed,incorrect,0.8087405075830463,0,valid_lose,31.821680600000036,3,,,,,,,,,,,,,,,sub_807,2024-12-09_16h05.45.382,Reversal,2023.1.3,59.93676671119076,3,
5,exp3.png,exp4.png,,0,0,0,0,0,5,5,5,,,,,,,,,,,,,,,,,,,,,,,,,False,5,6,True,exp4.png,exp3.png,trial_left_image,1,exp4.png,3,exp4.png,exp3.png,1,1,non-reversed,correct,0.2658312053899944,1,valid_win,36.93663269999979,4,,,,,,,,,,,,,,,sub_807,2024-12-09_16h05.45.382,Reversal,2023.1.3,59.93676671119076,3,
6,exp1.png,exp2.png,,0,0,0,0,0,6,6,6,,,,,,,,,,,,,,,,,,,,,,,,,False,6,7,True,exp2.png,exp1.png,trial_left_image,1,exp2.png,3,exp2.png,exp1.png,1,3,reversed,correct,0.5596236723064726,1,valid_win,41.75152919999982,5,,,,,,,,,,,,,,,sub_807,2024-12-09_16h05.45.382,Reversal,2023.1.3,59.93676671119076,3,
7,exp3.png,exp4.png,,0,0,0,0,0,7,7,7,,,,,,,,,,,,,,,,,,,,,,,,,False,7,8,True,exp4.png,exp3.png,trial_right_image,-1,exp3.png,3,exp4.png,exp3.png,0,2,non-reversed,incorrect,0.3155675897682958,0,valid_lose,47.549379099999896,5,,,,,,,,,,,,,,,sub_807,2024-12-09_16h05.45.382,Reversal,2023.1.3,59.93676671119076,3,
8,exp1.png,exp2.png,,0,0,0,0,0,8,8,8,,,,,,,,,,,,,,,,,,,,,,,,,False,8,9,True,exp2.png,exp1.png,trial_left_image,1,exp2.png,3,exp2.png,exp1.png,1,3,reversed,correct,0.9937052725701379,1,valid_win,52.66491719999976,6,,,,,,,,,,,,,,,sub_807,2024-12-09_16h05.45.382,Reversal,2023.1.3,59.93676671119076,3,
9,exp3.png,exp4.png,,0,0,0,0,0,9,9,9,,,,,,,,,,,,,,,,,,,,,,,,,False,9,10,True,exp4.png,exp3.png,trial_left_image,1,exp4.png,3,exp4.png,exp3.png,1,1,non-reversed,correct,0.7862482225170804,1,valid_win,56.99679289999949,7,,,,,,,,,,,,,,,sub_807,2024-12-09_16h05.45.382,Reversal,2023.1.3,59.93676671119076,3,
10,exp1.png,exp2.png,,0,0,0,0,0,10,10,10,,,,,,,,,,,,,,,,,,,,,,,,,False,10,11,True,exp2.png,exp1.png,trial_left_image,1,exp2.png,3,exp2.png,exp1.png,1,3,reversed,correct,0.6731985170487724,1,valid_win,61.294995899999776,8,,,,,,,,,,,,,,,sub_807,2024-12-09_16h05.45.382,Reversal,2023.1.3,59.93676671119076,3,
11,exp3.png,exp4.png,,0,0,0,0,0,11,11,11,,,,,,,,,,,,,,,,,,,,,,,,,False,11,12,False,exp3.png,exp4.png,trial_right_image,-1,exp4.png,3,exp4.png,exp3.png,1,1,non-reversed,correct,0.83345026091731,1,valid_win,65.85963790000005,9,,,,,,,,,,,,,,,sub_807,2024-12-09_16h05.45.382,Reversal,2023.1.3,59.93676671119076,3,
12,exp1.png,exp2.png,,0,0,0,0,0,12,12,12,,,,,,,,,,,,,,,,,,,,,,,,,False,12,13,True,exp2.png,exp1.png,trial_left_image,1,exp2.png,3,exp2.png,exp1.png,1,3,reversed,correct,0.5577553203039073,1,valid_win,70.95835579999948,10,,,,,,,,,,,,,,,sub_807,2024-12-09_16h05.45.382,Reversal,2023.1.3,59.93676671119076,3,
13,exp3.png,exp4.png,,0,0,0,0,0,13,13,13,,,,,,,,,,,,,,,,,,,,,,,,,False,13,14,False,exp3.png,exp4.png,trial_right_image,-1,exp4.png,3,exp4.png,exp3.png,1,1,non-reversed,correct,0.9637886528405074,1,valid_win,76.00691509999979,11,,,,,,,,,,,,,,,sub_807,2024-12-09_16h05.45.382,Reversal,2023.1.3,59.93676671119076,3,
14,exp1.png,exp2.png,,0,0,0,0,0,14,14,14,,,,,,,,,,,,,,,,,,,,,,,,,False,14,15,False,exp1.png,exp2.png,trial_right_image,-1,exp2.png,3,exp2.png,exp1.png,1,3,reversed,correct,0.8634613722063728,1,valid_win,80.67110349999984,12,,,,,,,,,,,,,,,sub_807,2024-12-09_16h05.45.382,Reversal,2023.1.3,59.93676671119076,3,
15,exp3.png,exp4.png,,0,0,0,0,0,15,15,15,,,,,,,,,,,,,,,,,,,,,,,,,False,15,16,False,exp3.png,exp4.png,trial_right_image,-1,exp4.png,3,exp4.png,exp3.png,1,1,non-reversed,correct,0.5661902525170066,1,valid_win,85.68679659999998,13,,,,,,,,,,,,,,,sub_807,2024-12-09_16h05.45.382,Reversal,2023.1.3,59.93676671119076,3,
16,exp1.png,exp2.png,,0,0,0,0,0,16,16,16,,,,,,,,,,,,,,,,,,,,,,,,,False,16,17,True,exp2.png,exp1.png,trial_left_image,1,exp2.png,3,exp2.png,exp1.png,1,3,reversed,correct,0.25357915870588377,1,valid_win,90.70195169999988,14,,,,,,,,,,,,,,,sub_807,2024-12-09_16h05.45.382,Reversal,2023.1.3,59.93676671119076,3,
17,exp3.png,exp4.png,,0,0,0,0,0,17,17,17,,,,,,,,,,,,,,,,,,,,,,,,,False,17,18,False,exp3.png,exp4.png,trial_right_image,-1,exp4.png,3,exp4.png,exp3.png,1,1,non-reversed,correct,0.8292597603115043,1,valid_win,96.10010539999985,15,,,,,,,,,,,,,,,sub_807,2024-12-09_16h05.45.382,Reversal,2023.1.3,59.93676671119076,3,
18,exp1.png,exp2.png,,0,0,0,0,0,18,18,18,,,,,,,,,,,,,,,,,,,,,,,,,False,18,19,False,exp1.png,exp2.png,trial_right_image,-1,exp2.png,3,exp2.png,exp1.png,1,3,reversed,correct,0.7901832973305283,1,valid_win,101.2149258999998,16,,,,,,,,,,,,,,,sub_807,2024-12-09_16h05.45.382,Reversal,2023.1.3,59.93676671119076,3,
19,exp3.png,exp4.png,,0,0,0,0,0,19,19,19,,,,,,,,,,,,,,,,,,,,,,,,,False,19,20,False,exp3.png,exp4.png,trial_right_image,-1,exp4.png,3,exp4.png,exp3.png,1,1,non-reversed,correct,0.10909708923894912,0,invalid_lose,106.21320159999959,16,,,,,,,,,,,,,,,sub_807,2024-12-09_16h05.45.382,Reversal,2023.1.3,59.93676671119076,3,
20,exp1.png,exp2.png,,0,0,0,0,0,20,20,20,,,,,,,,,,,,,,,,,,,,,,,,,True,,,,,,,,,,,,,,,,,,,,,,,,,,,,,,,,,,,sub_807,2024-12-09_16h05.45.382,Reversal,2023.1.3,59.93676671119076,3,
,,,exp1.png,0,0,0,0,,,,,0,0,0,0,0,0,0,0,,,,,,,,,,,,,,,,,,,,,,,,,,,,,,,,,,,,,,199.59514769999987,7.0,7.0,6.673648699999831,"[(7.0, 6.673648699999831)]",,,,,,,,,,sub_807,2024-12-09_16h05.45.382,Reversal,2023.1.3,59.93676671119076,3,
,,,exp2.png,0,0,0,0,,,,,0,0,0,0,0,1,1,1,,,,,,,,,,,,,,,,,,,,,,,,,,,,,,,,,,,,,,209.51299730000028,,94.0,4.721944899999471,"[(90.0, 1.5552763999994568), (94.0, 4.721944899999471)]",94.0,,,,,,,,,sub_807,2024-12-09_16h05.45.382,Reversal,2023.1.3,59.93676671119076,3,
,,,exp3.png,0,0,0,0,,,,,0,0,0,0,0,2,2,2,,,,,,,,,,,,,,,,,,,,,,,,,,,,,,,,,,,,,,215.4552635,,6.0,3.277347899999768,"[(6.0, 3.277347899999768)]",,6.0,,,,,,,,sub_807,2024-12-09_16h05.45.382,Reversal,2023.1.3,59.93676671119076,3,
,,,exp4.png,0,0,0,0,,,,,0,0,0,0,0,3,3,3,,,,,,,,,,,,,,,,,,,,,,,,,,,,,,,,,,,,,,220.32294120000006,,94.0,2.4094103000006726,"[(94.0, 2.4094103000006726)]",,,94.0,,,,,,,sub_807,2024-12-09_16h05.45.382,Reversal,2023.1.3,59.93676671119076,3,
0,exp1.png,exp2.png,,1,0,1,0,0,0,0,0,,,,,,,,,,,,,,,,,,,,,,,,,False,20,21,False,exp1.png,exp2.png,trial_right_image,-1,exp2.png,3,exp2.png,exp1.png,1,3,reversed,correct,0.6225247448714682,1,valid_win,136.8357189999997,17,,,,,,,,,,,,,,,sub_807,2024-12-09_16h05.45.382,Reversal,2023.1.3,59.93676671119076,3,
1,exp3.png,exp4.png,,1,0,1,0,0,1,1,1,,,,,,,,,,,,,,,,,,,,,,,,,False,21,22,True,exp4.png,exp3.png,trial_left_image,1,exp4.png,3,exp4.png,exp3.png,1,1,non-reversed,correct,0.10520773802990413,0,invalid_lose,141.7003077999998,17,,,,,,,,,,,,,,,sub_807,2024-12-09_16h05.45.382,Reversal,2023.1.3,59.93676671119076,3,
2,exp1.png,exp2.png,,1,0,1,0,0,2,2,2,,,,,,,,,,,,,,,,,,,,,,,,,False,22,23,False,exp1.png,exp2.png,trial_right_image,-1,exp2.png,3,exp2.png,exp1.png,1,3,reversed,correct,0.22021812443210242,0,invalid_lose,146.1660013999999,17,,,,,,,,,,,,,,,sub_807,2024-12-09_16h05.45.382,Reversal,2023.1.3,59.93676671119076,3,
3,exp3.png,exp4.png,,1,0,1,0,0,3,3,3,,,,,,,,,,,,,,,,,,,,,,,,,False,23,24,True,exp4.png,exp3.png,trial_left_image,1,exp4.png,3,exp4.png,exp3.png,1,1,non-reversed,correct,0.8636573367557181,1,valid_win,150.76440430000002,18,,,,,,,,,,,,,,,sub_807,2024-12-09_16h05.45.382,Reversal,2023.1.3,59.93676671119076,3,
4,exp1.png,exp2.png,,1,0,1,0,0,4,4,4,,,,,,,,,,,,,,,,,,,,,,,,,False,24,25,True,exp2.png,exp1.png,trial_left_image,1,exp2.png,3,exp2.png,exp1.png,1,3,reversed,correct,0.4613565635912753,1,valid_win,155.54643609999948,19,,,,,,,,,,,,,,,sub_807,2024-12-09_16h05.45.382,Reversal,2023.1.3,59.93676671119076,3,
5,exp3.png,exp4.png,,1,0,1,0,0,5,5,5,,,,,,,,,,,,,,,,,,,,,,,,,False,25,26,True,exp4.png,exp3.png,trial_left_image,1,exp4.png,3,exp4.png,exp3.png,1,1,non-reversed,correct,0.24544555788838296,0,invalid_lose,161.46140060000016,19,,,,,,,,,,,,,,,sub_807,2024-12-09_16h05.45.382,Reversal,2023.1.3,59.93676671119076,3,
6,exp1.png,exp2.png,,1,0,1,0,0,6,6,6,,,,,,,,,,,,,,,,,,,,,,,,,False,26,27,False,exp1.png,exp2.png,trial_right_image,-1,exp2.png,3,exp2.png,exp1.png,1,3,reversed,correct,0.7666385819894953,1,valid_win,166.9756513000002,20,,,,,,,,,,,,,,,sub_807,2024-12-09_16h05.45.382,Reversal,2023.1.3,59.93676671119076,3,
7,exp3.png,exp4.png,,1,0,1,0,0,7,7,7,,,,,,,,,,,,,,,,,,,,,,,,,False,27,28,True,exp4.png,exp3.png,trial_left_image,1,exp4.png,3,exp4.png,exp3.png,1,1,non-reversed,correct,0.16662527009754735,0,invalid_lose,171.27486249999947,20,,,,,,,,,,,,,,,sub_807,2024-12-09_16h05.45.382,Reversal,2023.1.3,59.93676671119076,3,
8,exp1.png,exp2.png,,1,0,1,0,0,8,8,8,,,,,,,,,,,,,,,,,,,,,,,,,False,28,29,True,exp2.png,exp1.png,trial_left_image,1,exp2.png,3,exp2.png,exp1.png,1,3,reversed,correct,0.7449443984992018,1,valid_win,176.1556316999995,21,,,,,,,,,,,,,,,sub_807,2024-12-09_16h05.45.382,Reversal,2023.1.3,59.93676671119076,3,
9,exp3.png,exp4.png,,1,0,1,0,0,9,9,9,,,,,,,,,,,,,,,,,,,,,,,,,False,29,30,False,exp3.png,exp4.png,trial_left_image,1,exp3.png,3,exp4.png,exp3.png,0,2,non-reversed,incorrect,0.8078195156080857,0,valid_lose,180.7210011999996,21,,,,,,,,,,,,,,,sub_807,2024-12-09_16h05.45.382,Reversal,2023.1.3,59.93676671119076,3,
10,exp1.png,exp2.png,,1,0,1,0,0,10,10,10,,,,,,,,,,,,,,,,,,,,,,,,,False,30,31,False,exp1.png,exp2.png,trial_right_image,-1,exp2.png,3,exp2.png,exp1.png,1,3,reversed,correct,0.6324387625478172,1,valid_win,185.2863127999999,22,,,,,,,,,,,,,,,sub_807,2024-12-09_16h05.45.382,Reversal,2023.1.3,59.93676671119076,3,
11,exp3.png,exp4.png,,1,0,1,0,0,11,11,11,,,,,,,,,,,,,,,,,,,,,,,,,False,31,32,False,exp3.png,exp4.png,trial_left_image,1,exp3.png,3,exp4.png,exp3.png,0,2,non-reversed,incorrect,0.6910071102283055,0,valid_lose,189.51782459999959,22,,,,,,,,,,,,,,,sub_807,2024-12-09_16h05.45.382,Reversal,2023.1.3,59.93676671119076,3,
12,exp1.png,exp2.png,,1,0,1,0,0,12,12,12,,,,,,,,,,,,,,,,,,,,,,,,,False,32,33,False,exp1.png,exp2.png,trial_right_image,-1,exp2.png,3,exp2.png,exp1.png,1,3,reversed,correct,0.29092643931190043,1,valid_win,201.11431600000014,23,,,,,,,,,,,,,,,sub_807,2024-12-09_16h05.45.382,Reversal,2023.1.3,59.93676671119076,3,
13,exp3.png,exp4.png,,1,0,1,0,0,13,13,13,,,,,,,,,,,,,,,,,,,,,,,,,False,33,34,False,exp3.png,exp4.png,trial_left_image,1,exp3.png,3,exp4.png,exp3.png,0,2,non-reversed,incorrect,0.5487515462720622,0,valid_lose,205.6124536999996,23,,,,,,,,,,,,,,,sub_807,2024-12-09_16h05.45.382,Reversal,2023.1.3,59.93676671119076,3,
14,exp1.png,exp2.png,,1,0,1,0,0,14,14,14,,,,,,,,,,,,,,,,,,,,,,,,,False,34,35,False,exp1.png,exp2.png,trial_right_image,-1,exp2.png,3,exp2.png,exp1.png,1,3,reversed,correct,0.38451136743570236,1,valid_win,209.87778160000016,24,,,,,,,,,,,,,,,sub_807,2024-12-09_16h05.45.382,Reversal,2023.1.3,59.93676671119076,3,
15,exp3.png,exp4.png,,1,0,1,0,0,15,15,15,,,,,,,,,,,,,,,,,,,,,,,,,False,35,36,True,exp4.png,exp3.png,trial_right_image,-1,exp3.png,3,exp4.png,exp3.png,0,2,non-reversed,incorrect,0.37948077612432485,0,valid_lose,214.9257219000001,24,,,,,,,,,,,,,,,sub_807,2024-12-09_16h05.45.382,Reversal,2023.1.3,59.93676671119076,3,
16,exp1.png,exp2.png,,1,0,1,0,0,16,16,16,,,,,,,,,,,,,,,,,,,,,,,,,False,36,37,True,exp2.png,exp1.png,trial_left_image,1,exp2.png,3,exp2.png,exp1.png,1,3,reversed,correct,0.7132049717852792,1,valid_win,219.25811189999968,25,,,,,,,,,,,,,,,sub_807,2024-12-09_16h05.45.382,Reversal,2023.1.3,59.93676671119076,3,
17,exp3.png,exp4.png,,1,0,1,0,0,17,17,17,,,,,,,,,,,,,,,,,,,,,,,,,False,37,38,True,exp4.png,exp3.png,trial_right_image,-1,exp3.png,3,exp4.png,exp3.png,0,2,non-reversed,incorrect,0.8017934215226716,0,valid_lose,223.32391439999992,25,,,,,,,,,,,,,,,sub_807,2024-12-09_16h05.45.382,Reversal,2023.1.3,59.93676671119076,3,
18,exp1.png,exp2.png,,1,0,1,0,0,18,18,18,,,,,,,,,,,,,,,,,,,,,,,,,False,38,39,True,exp2.png,exp1.png,trial_left_image,1,exp2.png,3,exp2.png,exp1.png,1,3,reversed,correct,0.4284088378214125,1,valid_win,227.57218310000007,26,,,,,,,,,,,,,,,sub_807,2024-12-09_16h05.45.382,Reversal,2023.1.3,59.93676671119076,3,
19,exp3.png,exp4.png,,1,0,1,0,0,19,19,19,,,,,,,,,,,,,,,,,,,,,,,,,False,39,40,False,exp3.png,exp4.png,trial_left_image,1,exp3.png,3,exp4.png,exp3.png,0,2,non-reversed,incorrect,0.4282575902524084,0,valid_lose,232.02020569999968,26,,,,,,,,,,,,,,,sub_807,2024-12-09_16h05.45.382,Reversal,2023.1.3,59.93676671119076,3,
20,exp1.png,exp2.png,,1,0,1,0,0,20,20,20,,,,,,,,,,,,,,,,,,,,,,,,,True,,,,,,,,,,,,,,,,,,,,,,,,,,,,,,,,,,,sub_807,2024-12-09_16h05.45.382,Reversal,2023.1.3,59.93676671119076,3,
,,,exp1.png,1,0,1,0,,,,,0,0,0,0,0,0,0,0,,,,,,,,,,,,,,,,,,,,,,,,,,,,,,,,,,,,,,325.35674459999973,1.0,1.0,4.1081083999997645,"[(1.0, 4.1081083999997645)]",,,,,,,,,,sub_807,2024-12-09_16h05.45.382,Reversal,2023.1.3,59.93676671119076,3,
,,,exp2.png,1,0,1,0,,,,,0,0,0,0,0,1,1,1,,,,,,,,,,,,,,,,,,,,,,,,,,,,,,,,,,,,,,330.4649406999997,,100.0,1.128987799999777,"[(100.0, 1.128987799999777)]",100.0,,,,,,,,,sub_807,2024-12-09_16h05.45.382,Reversal,2023.1.3,59.93676671119076,3,
,,,exp3.png,1,0,1,0,,,,,0,0,0,0,0,2,2,2,,,,,,,,,,,,,,,,,,,,,,,,,,,,,,,,,,,,,,332.49963039999966,,1.0,0.993782900000042,"[(1.0, 0.993782900000042)]",,1.0,,,,,,,,sub_807,2024-12-09_16h05.45.382,Reversal,2023.1.3,59.93676671119076,3,
,,,exp4.png,1,0,1,0,,,,,0,0,0,0,0,3,3,3,,,,,,,,,,,,,,,,,,,,,,,,,,,,,,,,,,,,,,334.34738469999957,,1.0,0.7785997999999381,"[(1.0, 0.7785997999999381)]",,,1.0,,,,,,,sub_807,2024-12-09_16h05.45.382,Reversal,2023.1.3,59.93676671119076,3,
0,exp1.png,exp2.png,,2,0,2,0,0,0,0,0,,,,,,,,,,,,,,,,,,,,,,,,,False,40,41,False,exp1.png,exp2.png,trial_right_image,-1,exp2.png,3,exp2.png,exp1.png,1,3,reversed,correct,0.2610384938525444,1,valid_win,247.68177990000004,27,,,,,,,,,,,,,,,sub_807,2024-12-09_16h05.45.382,Reversal,2023.1.3,59.93676671119076,3,
1,exp3.png,exp4.png,,2,0,2,0,0,1,1,1,,,,,,,,,,,,,,,,,,,,,,,,,False,41,42,False,exp3.png,exp4.png,trial_right_image,-1,exp4.png,3,exp4.png,exp3.png,1,1,non-reversed,correct,0.08077792477737877,0,invalid_lose,252.2631018000002,27,,,,,,,,,,,,,,,sub_807,2024-12-09_16h05.45.382,Reversal,2023.1.3,59.93676671119076,3,
2,exp1.png,exp2.png,,2,0,2,0,0,2,2,2,,,,,,,,,,,,,,,,,,,,,,,,,False,42,43,True,exp2.png,exp1.png,trial_right_image,-1,exp1.png,3,exp2.png,exp1.png,0,4,reversed,incorrect,0.2323702542517303,1,invalid_win,256.8118279,28,,,,,,,,,,,,,,,sub_807,2024-12-09_16h05.45.382,Reversal,2023.1.3,59.93676671119076,3,
3,exp3.png,exp4.png,,2,0,2,0,0,3,3,3,,,,,,,,,,,,,,,,,,,,,,,,,False,43,44,False,exp3.png,exp4.png,trial_left_image,1,exp3.png,3,exp4.png,exp3.png,0,2,non-reversed,incorrect,0.20596299664992213,1,invalid_win,261.46001720000004,29,,,,,,,,,,,,,,,sub_807,2024-12-09_16h05.45.382,Reversal,2023.1.3,59.93676671119076,3,
4,exp1.png,exp2.png,,2,0,2,0,0,4,4,4,,,,,,,,,,,,,,,,,,,,,,,,,False,44,45,True,exp2.png,exp1.png,trial_right_image,-1,exp1.png,3,exp2.png,exp1.png,0,4,reversed,incorrect,0.5744720164855673,0,valid_lose,265.32580229999985,29,,,,,,,,,,,,,,,sub_807,2024-12-09_16h05.45.382,Reversal,2023.1.3,59.93676671119076,3,
5,exp3.png,exp4.png,,2,0,2,0,0,5,5,5,,,,,,,,,,,,,,,,,,,,,,,,,False,45,46,False,exp3.png,exp4.png,trial_left_image,1,exp3.png,3,exp4.png,exp3.png,0,2,non-reversed,incorrect,0.6065043007962835,0,valid_lose,270.0405383999996,29,,,,,,,,,,,,,,,sub_807,2024-12-09_16h05.45.382,Reversal,2023.1.3,59.93676671119076,3,
6,exp1.png,exp2.png,,2,0,2,0,0,6,6,6,,,,,,,,,,,,,,,,,,,,,,,,,False,46,47,False,exp1.png,exp2.png,trial_left_image,1,exp1.png,3,exp2.png,exp1.png,0,4,reversed,incorrect,0.46577431565875305,0,valid_lose,275.1886420000001,29,,,,,,,,,,,,,,,sub_807,2024-12-09_16h05.45.382,Reversal,2023.1.3,59.93676671119076,3,
7,exp3.png,exp4.png,,2,0,2,0,0,7,7,7,,,,,,,,,,,,,,,,,,,,,,,,,False,47,48,True,exp4.png,exp3.png,trial_right_image,-1,exp3.png,3,exp4.png,exp3.png,0,2,non-reversed,incorrect,0.7609006437988901,0,valid_lose,279.62039060000006,29,,,,,,,,,,,,,,,sub_807,2024-12-09_16h05.45.382,Reversal,2023.1.3,59.93676671119076,3,
8,exp1.png,exp2.png,,2,0,2,0,0,8,8,8,,,,,,,,,,,,,,,,,,,,,,,,,False,48,49,True,exp2.png,exp1.png,trial_left_image,1,exp2.png,3,exp2.png,exp1.png,1,3,reversed,correct,0.23614496286905418,0,invalid_lose,283.8523481000002,29,,,,,,,,,,,,,,,sub_807,2024-12-09_16h05.45.382,Reversal,2023.1.3,59.93676671119076,3,
9,exp3.png,exp4.png,,2,0,2,0,0,9,9,9,,,,,,,,,,,,,,,,,,,,,,,,,False,49,50,False,exp3.png,exp4.png,trial_right_image,-1,exp4.png,3,exp4.png,exp3.png,1,1,non-reversed,correct,0.7554446570105181,1,valid_win,289.03425479999987,30,,,,,,,,,,,,,,,sub_807,2024-12-09_16h05.45.382,Reversal,2023.1.3,59.93676671119076,3,
10,exp1.png,exp2.png,,2,0,2,0,0,10,10,10,,,,,,,,,,,,,,,,,,,,,,,,,False,50,51,True,exp2.png,exp1.png,trial_left_image,1,exp2.png,3,exp2.png,exp1.png,1,3,reversed,correct,0.44250479106091833,1,valid_win,293.0669545999999,31,,,,,,,,,,,,,,,sub_807,2024-12-09_16h05.45.382,Reversal,2023.1.3,59.93676671119076,3,
11,exp3.png,exp4.png,,2,0,2,0,0,11,11,11,,,,,,,,,,,,,,,,,,,,,,,,,False,51,52,True,exp4.png,exp3.png,trial_left_image,1,exp4.png,3,exp4.png,exp3.png,1,1,non-reversed,correct,0.2559411230022105,1,valid_win,298.2315405999998,32,,,,,,,,,,,,,,,sub_807,2024-12-09_16h05.45.382,Reversal,2023.1.3,59.93676671119076,3,
12,exp1.png,exp2.png,,2,0,2,0,0,12,12,12,,,,,,,,,,,,,,,,,,,,,,,,,False,52,53,True,exp2.png,exp1.png,trial_left_image,1,exp2.png,3,exp2.png,exp1.png,1,3,reversed,correct,0.9375155591263721,1,valid_win,302.1965752999995,33,,,,,,,,,,,,,,,sub_807,2024-12-09_16h05.45.382,Reversal,2023.1.3,59.93676671119076,3,
13,exp3.png,exp4.png,,2,0,2,0,0,13,13,13,,,,,,,,,,,,,,,,,,,,,,,,,False,53,54,False,exp3.png,exp4.png,trial_left_image,1,exp3.png,3,exp4.png,exp3.png,0,2,non-reversed,incorrect,0.3146386317659795,0,valid_lose,306.09507889999986,33,,,,,,,,,,,,,,,sub_807,2024-12-09_16h05.45.382,Reversal,2023.1.3,59.93676671119076,3,
14,exp1.png,exp2.png,,2,0,2,0,0,14,14,14,,,,,,,,,,,,,,,,,,,,,,,,,False,54,55,False,exp1.png,exp2.png,trial_left_image,1,exp1.png,3,exp2.png,exp1.png,0,4,reversed,incorrect,0.8994135296127492,0,valid_lose,309.9603484999998,33,,,,,,,,,,,,,,,sub_807,2024-12-09_16h05.45.382,Reversal,2023.1.3,59.93676671119076,3,
15,exp3.png,exp4.png,,2,0,2,0,0,15,15,15,,,,,,,,,,,,,,,,,,,,,,,,,False,55,56,True,exp4.png,exp3.png,trial_right_image,-1,exp3.png,3,exp4.png,exp3.png,0,2,non-reversed,incorrect,0.7208992890797837,0,valid_lose,314.2589460999998,33,,,,,,,,,,,,,,,sub_807,2024-12-09_16h05.45.382,Reversal,2023.1.3,59.93676671119076,3,
16,exp1.png,exp2.png,,2,0,2,0,0,16,16,16,,,,,,,,,,,,,,,,,,,,,,,,,False,56,57,True,exp2.png,exp1.png,trial_left_image,1,exp2.png,3,exp2.png,exp1.png,1,3,reversed,correct,0.7271605993550833,1,valid_win,318.3076497000002,34,,,,,,,,,,,,,,,sub_807,2024-12-09_16h05.45.382,Reversal,2023.1.3,59.93676671119076,3,
17,exp3.png,exp4.png,,2,0,2,0,0,17,17,17,,,,,,,,,,,,,,,,,,,,,,,,,False,57,58,False,exp3.png,exp4.png,trial_right_image,-1,exp4.png,3,exp4.png,exp3.png,1,1,non-reversed,correct,0.5177353987298995,1,valid_win,322.3232306,35,,,,,,,,,,,,,,,sub_807,2024-12-09_16h05.45.382,Reversal,2023.1.3,59.93676671119076,3,
18,exp1.png,exp2.png,,2,0,2,0,0,18,18,18,,,,,,,,,,,,,,,,,,,,,,,,,False,58,59,False,exp1.png,exp2.png,trial_right_image,-1,exp2.png,3,exp2.png,exp1.png,1,3,reversed,correct,0.5898433300554646,1,valid_win,326.48893249999946,36,,,,,,,,,,,,,,,sub_807,2024-12-09_16h05.45.382,Reversal,2023.1.3,59.93676671119076,3,
19,exp3.png,exp4.png,,2,0,2,0,0,19,19,19,,,,,,,,,,,,,,,,,,,,,,,,,False,59,60,True,exp4.png,exp3.png,trial_left_image,1,exp4.png,3,exp4.png,exp3.png,1,1,non-reversed,correct,0.8115890827481888,1,valid_win,331.25361470000007,37,,,,,,,,,,,,,,,sub_807,2024-12-09_16h05.45.382,Reversal,2023.1.3,59.93676671119076,3,
20,exp1.png,exp2.png,,2,0,2,0,0,20,20,20,,,,,,,,,,,,,,,,,,,,,,,,,True,,,,,,,,,,,,,,,,,,,,,,,,,,,,,,,,,,,sub_807,2024-12-09_16h05.45.382,Reversal,2023.1.3,59.93676671119076,3,
,,,exp1.png,2,0,2,0,,,,,0,0,0,0,0,0,0,0,,,,,,,,,,,,,,,,,,,,,,,,,,,,,,,,,,,,,,424.588573,7.0,7.0,2.476114700000835,"[(7.0, 2.476114700000835)]",,,,,,,,,,sub_807,2024-12-09_16h05.45.382,Reversal,2023.1.3,59.93676671119076,3,
,,,exp2.png,2,0,2,0,,,,,0,0,0,0,0,1,1,1,,,,,,,,,,,,,,,,,,,,,,,,,,,,,,,,,,,,,,428.0483661999997,,92.0,1.529124700000466,"[(92.0, 1.529124700000466)]",92.0,,,,,,,,,sub_807,2024-12-09_16h05.45.382,Reversal,2023.1.3,59.93676671119076,3,
,,,exp3.png,2,0,2,0,,,,,0,0,0,0,0,2,2,2,,,,,,,,,,,,,,,,,,,,,,,,,,,,,,,,,,,,,,430.48194369999965,,8.0,1.4942224999995233,"[(8.0, 1.4942224999995233)]",,8.0,,,,,,,,sub_807,2024-12-09_16h05.45.382,Reversal,2023.1.3,59.93676671119076,3,
,,,exp4.png,2,0,2,0,,,,,0,0,0,0,0,3,3,3,,,,,,,,,,,,,,,,,,,,,,,,,,,,,,,,,,,,,,432.8303943000001,,91.0,1.210644599999796,"[(91.0, 1.210644599999796)]",,,91.0,,,,,,,sub_807,2024-12-09_16h05.45.382,Reversal,2023.1.3,59.93676671119076,3,
0,exp1.png,exp2.png,,3,0,3,0,0,0,0,0,,,,,,,,,,,,,,,,,,,,,,,,,False,60,61,True,exp2.png,exp1.png,trial_left_image,1,exp2.png,3,exp2.png,exp1.png,1,3,reversed,correct,0.7288217104491205,1,valid_win,345.86554629999955,38,,,,,,,,,,,,,,,sub_807,2024-12-09_16h05.45.382,Reversal,2023.1.3,59.93676671119076,3,
1,exp3.png,exp4.png,,3,0,3,0,0,1,1,1,,,,,,,,,,,,,,,,,,,,,,,,,False,61,62,False,exp3.png,exp4.png,trial_right_image,-1,exp4.png,3,exp4.png,exp3.png,1,1,non-reversed,correct,0.20516547671130236,0,invalid_lose,350.01412979999986,38,,,,,,,,,,,,,,,sub_807,2024-12-09_16h05.45.382,Reversal,2023.1.3,59.93676671119076,3,
2,exp1.png,exp2.png,,3,0,3,0,0,2,2,2,,,,,,,,,,,,,,,,,,,,,,,,,False,62,63,False,exp1.png,exp2.png,trial_right_image,-1,exp2.png,3,exp2.png,exp1.png,1,3,reversed,correct,0.5047786825250092,1,valid_win,354.1120060000003,39,,,,,,,,,,,,,,,sub_807,2024-12-09_16h05.45.382,Reversal,2023.1.3,59.93676671119076,3,
3,exp3.png,exp4.png,,3,0,3,0,0,3,3,3,,,,,,,,,,,,,,,,,,,,,,,,,False,63,64,False,exp3.png,exp4.png,trial_right_image,-1,exp4.png,3,exp4.png,exp3.png,1,1,non-reversed,correct,0.03536164822080057,0,invalid_lose,358.11072069999955,39,,,,,,,,,,,,,,,sub_807,2024-12-09_16h05.45.382,Reversal,2023.1.3,59.93676671119076,3,
4,exp1.png,exp2.png,,3,0,3,0,0,4,4,4,,,,,,,,,,,,,,,,,,,,,,,,,False,64,65,True,exp2.png,exp1.png,trial_left_image,1,exp2.png,3,exp2.png,exp1.png,1,3,reversed,correct,0.294719976037645,1,valid_win,362.1929709999995,40,,,,,,,,,,,,,,,sub_807,2024-12-09_16h05.45.382,Reversal,2023.1.3,59.93676671119076,3,
5,exp3.png,exp4.png,,3,0,3,0,0,5,5,5,,,,,,,,,,,,,,,,,,,,,,,,,False,65,66,False,exp3.png,exp4.png,trial_right_image,-1,exp4.png,3,exp4.png,exp3.png,1,1,non-reversed,correct,0.5226418242764953,1,valid_win,366.1080185999999,41,,,,,,,,,,,,,,,sub_807,2024-12-09_16h05.45.382,Reversal,2023.1.3,59.93676671119076,3,
6,exp1.png,exp2.png,,3,0,3,0,0,6,6,6,,,,,,,,,,,,,,,,,,,,,,,,,False,66,67,False,exp1.png,exp2.png,trial_right_image,-1,exp2.png,3,exp2.png,exp1.png,1,3,reversed,correct,0.13650079316747354,0,invalid_lose,370.33973849999984,41,,,,,,,,,,,,,,,sub_807,2024-12-09_16h05.45.382,Reversal,2023.1.3,59.93676671119076,3,
7,exp3.png,exp4.png,,3,0,3,0,0,7,7,7,,,,,,,,,,,,,,,,,,,,,,,,,False,67,68,True,exp4.png,exp3.png,trial_left_image,1,exp4.png,3,exp4.png,exp3.png,1,1,non-reversed,correct,0.9987435298542228,1,valid_win,374.42185849999987,42,,,,,,,,,,,,,,,sub_807,2024-12-09_16h05.45.382,Reversal,2023.1.3,59.93676671119076,3,
8,exp1.png,exp2.png,,3,0,3,0,0,8,8,8,,,,,,,,,,,,,,,,,,,,,,,,,False,68,69,True,exp2.png,exp1.png,trial_right_image,-1,exp1.png,3,exp2.png,exp1.png,0,4,reversed,incorrect,0.12783538918711046,1,invalid_win,378.6044996999999,43,,,,,,,,,,,,,,,sub_807,2024-12-09_16h05.45.382,Reversal,2023.1.3,59.93676671119076,3,
9,exp3.png,exp4.png,,3,0,3,0,0,9,9,9,,,,,,,,,,,,,,,,,,,,,,,,,False,69,70,True,exp4.png,exp3.png,trial_right_image,-1,exp3.png,3,exp4.png,exp3.png,0,2,non-reversed,incorrect,0.3704678296667363,0,valid_lose,382.75233730000036,43,,,,,,,,,,,,,,,sub_807,2024-12-09_16h05.45.382,Reversal,2023.1.3,59.93676671119076,3,
10,exp1.png,exp2.png,,3,0,3,0,0,10,10,10,,,,,,,,,,,,,,,,,,,,,,,,,False,70,71,True,exp2.png,exp1.png,trial_right_image,-1,exp1.png,3,exp2.png,exp1.png,0,4,reversed,incorrect,0.8524782266517612,0,valid_lose,386.65197439999974,43,,,,,,,,,,,,,,,sub_807,2024-12-09_16h05.45.382,Reversal,2023.1.3,59.93676671119076,3,
11,exp3.png,exp4.png,,3,0,3,0,0,11,11,11,,,,,,,,,,,,,,,,,,,,,,,,,False,71,72,False,exp3.png,exp4.png,trial_left_image,1,exp3.png,3,exp4.png,exp3.png,0,2,non-reversed,incorrect,0.7211966634436644,0,valid_lose,390.86634779999986,43,,,,,,,,,,,,,,,sub_807,2024-12-09_16h05.45.382,Reversal,2023.1.3,59.93676671119076,3,
12,exp1.png,exp2.png,,3,0,3,0,0,12,12,12,,,,,,,,,,,,,,,,,,,,,,,,,False,72,73,False,exp1.png,exp2.png,trial_left_image,1,exp1.png,3,exp2.png,exp1.png,0,4,reversed,incorrect,0.5595593396401136,0,valid_lose,394.99814929999957,43,,,,,,,,,,,,,,,sub_807,2024-12-09_16h05.45.382,Reversal,2023.1.3,59.93676671119076,3,
13,exp3.png,exp4.png,,3,0,3,0,0,13,13,13,,,,,,,,,,,,,,,,,,,,,,,,,False,73,74,False,exp3.png,exp4.png,trial_left_image,1,exp3.png,3,exp4.png,exp3.png,0,2,non-reversed,incorrect,0.5032427231698415,0,valid_lose,399.0645016999997,43,,,,,,,,,,,,,,,sub_807,2024-12-09_16h05.45.382,Reversal,2023.1.3,59.93676671119076,3,
14,exp1.png,exp2.png,,3,0,3,0,0,14,14,14,,,,,,,,,,,,,,,,,,,,,,,,,False,74,75,True,exp2.png,exp1.png,trial_right_image,-1,exp1.png,3,exp2.png,exp1.png,0,4,reversed,incorrect,0.6748215572863709,0,valid_lose,403.2131237000003,43,,,,,,,,,,,,,,,sub_807,2024-12-09_16h05.45.382,Reversal,2023.1.3,59.93676671119076,3,
15,exp3.png,exp4.png,,3,0,3,0,0,15,15,15,,,,,,,,,,,,,,,,,,,,,,,,,False,75,76,False,exp3.png,exp4.png,trial_left_image,1,exp3.png,3,exp4.png,exp3.png,0,2,non-reversed,incorrect,0.8345017380683629,0,valid_lose,407.0782928999997,43,,,,,,,,,,,,,,,sub_807,2024-12-09_16h05.45.382,Reversal,2023.1.3,59.93676671119076,3,
16,exp1.png,exp2.png,,3,0,3,0,0,16,16,16,,,,,,,,,,,,,,,,,,,,,,,,,False,76,77,True,exp2.png,exp1.png,trial_right_image,-1,exp1.png,3,exp2.png,exp1.png,0,4,reversed,incorrect,0.14177829027376543,1,invalid_win,411.6595152,44,,,,,,,,,,,,,,,sub_807,2024-12-09_16h05.45.382,Reversal,2023.1.3,59.93676671119076,3,
17,exp3.png,exp4.png,,3,0,3,0,0,17,17,17,,,,,,,,,,,,,,,,,,,,,,,,,False,77,78,True,exp4.png,exp3.png,trial_right_image,-1,exp3.png,3,exp4.png,exp3.png,0,2,non-reversed,incorrect,0.27640755143662765,0,valid_lose,415.7579638999996,44,,,,,,,,,,,,,,,sub_807,2024-12-09_16h05.45.382,Reversal,2023.1.3,59.93676671119076,3,
18,exp1.png,exp2.png,,3,0,3,0,0,18,18,18,,,,,,,,,,,,,,,,,,,,,,,,,False,78,79,False,exp1.png,exp2.png,trial_right_image,-1,exp2.png,3,exp2.png,exp1.png,1,3,reversed,correct,0.9953076777211353,1,valid_win,419.9236952000001,45,,,,,,,,,,,,,,,sub_807,2024-12-09_16h05.45.382,Reversal,2023.1.3,59.93676671119076,3,
19,exp3.png,exp4.png,,3,0,3,0,0,19,19,19,,,,,,,,,,,,,,,,,,,,,,,,,False,79,80,True,exp4.png,exp3.png,trial_left_image,1,exp4.png,3,exp4.png,exp3.png,1,1,non-reversed,correct,0.6697836069427876,1,valid_win,423.83869630000027,46,,,,,,,,,,,,,,,sub_807,2024-12-09_16h05.45.382,Reversal,2023.1.3,59.93676671119076,3,
20,exp1.png,exp2.png,,3,0,3,0,0,20,20,20,,,,,,,,,,,,,,,,,,,,,,,,,True,,,,,,,,,,,,,,,,,,,,,,,,,,,,,,,,,,,sub_807,2024-12-09_16h05.45.382,Reversal,2023.1.3,59.93676671119076,3,
,,,exp1.png,3,0,3,0,,,,,0,0,0,0,0,0,0,0,,,,,,,,,,,,,,,,,,,,,,,,,,,,,,,,,,,,,,517.1713197999998,43.0,43.0,3.7321647999997367,"[(43.0, 3.7321647999997367)]",,,,,,,,,,sub_807,2024-12-09_16h05.45.382,Reversal,2023.1.3,59.93676671119076,3,
,,,exp2.png,3,0,3,0,,,,,0,0,0,0,0,1,1,1,,,,,,,,,,,,,,,,,,,,,,,,,,,,,,,,,,,,,,521.7175829999996,,58.0,0.9120725000002494,"[(58.0, 0.9120725000002494)]",58.0,,,,,,,,,sub_807,2024-12-09_16h05.45.382,Reversal,2023.1.3,59.93676671119076,3,
,,,exp3.png,3,0,3,0,,,,,0,0,0,0,0,2,2,2,,,,,,,,,,,,,,,,,,,,,,,,,,,,,,,,,,,,,,523.5500745999998,,14.0,1.5777483000001666,"[(14.0, 1.5777483000001666)]",,14.0,,,,,,,,sub_807,2024-12-09_16h05.45.382,Reversal,2023.1.3,59.93676671119076,3,
,,,exp4.png,3,0,3,0,,,,,0,0,0,0,0,3,3,3,,,,,,,,,,,,,,,,,,,,,,,,,,,,,,,,,,,,,,525.9825757999997,,89.0,1.8939617000005455,"[(75.0, 0.7949299000001702), (89.0, 1.8939617000005455)]",,,89.0,,,,,,,sub_807,2024-12-09_16h05.45.382,Reversal,2023.1.3,59.93676671119076,3,
0,exp1.png,exp2.png,,,,,,,,,,,,,,,,,,0,0,0,0,0,0,0,0,,,,,,,,,False,0,81,True,exp2.png,exp1.png,trial_left_image,1,exp2.png,3,exp1.png,exp2.png,1,3,reversed,incorrect,0.3300517575239814,0,valid_lose,439.88335730000017,46,,,,,,,,,438.1133841999999,,,,,,sub_807,2024-12-09_16h05.45.382,Reversal,2023.1.3,59.93676671119076,3,
1,exp3.png,exp4.png,,,,,,,,,,,,,,,,,,0,0,0,0,0,1,1,1,,,,,,,,,False,1,82,True,exp4.png,exp3.png,trial_left_image,1,exp4.png,3,exp4.png,exp3.png,1,1,non-reversed,correct,0.6403139749405033,1,valid_win,443.99803410000004,47,,,,,,,,,,,,,,,sub_807,2024-12-09_16h05.45.382,Reversal,2023.1.3,59.93676671119076,3,
2,exp1.png,exp2.png,,,,,,,,,,,,,,,,,,0,0,0,0,0,2,2,2,,,,,,,,,False,2,83,False,exp1.png,exp2.png,trial_right_image,-1,exp2.png,3,exp1.png,exp2.png,1,3,reversed,incorrect,0.34314863991890476,0,valid_lose,448.16344449999997,47,,,,,,,,,,,,,,,sub_807,2024-12-09_16h05.45.382,Reversal,2023.1.3,59.93676671119076,3,
3,exp3.png,exp4.png,,,,,,,,,,,,,,,,,,0,0,0,0,0,3,3,3,,,,,,,,,False,3,84,True,exp4.png,exp3.png,trial_left_image,1,exp4.png,3,exp4.png,exp3.png,1,1,non-reversed,correct,0.34450465569641764,1,valid_win,452.31188909999946,48,,,,,,,,,,,,,,,sub_807,2024-12-09_16h05.45.382,Reversal,2023.1.3,59.93676671119076,3,
4,exp1.png,exp2.png,,,,,,,,,,,,,,,,,,0,0,0,0,0,4,4,4,,,,,,,,,False,4,85,True,exp2.png,exp1.png,trial_left_image,1,exp2.png,3,exp1.png,exp2.png,1,3,reversed,incorrect,0.8490964950972596,0,valid_lose,456.4439384999996,48,,,,,,,,,,,,,,,sub_807,2024-12-09_16h05.45.382,Reversal,2023.1.3,59.93676671119076,3,
5,exp3.png,exp4.png,,,,,,,,,,,,,,,,,,0,0,0,0,0,5,5,5,,,,,,,,,False,5,86,True,exp4.png,exp3.png,trial_left_image,1,exp4.png,3,exp4.png,exp3.png,1,1,non-reversed,correct,0.2502241103983077,1,valid_win,460.97585419999996,49,,,,,,,,,,,,,,,sub_807,2024-12-09_16h05.45.382,Reversal,2023.1.3,59.93676671119076,3,
6,exp1.png,exp2.png,,,,,,,,,,,,,,,,,,0,0,0,0,0,6,6,6,,,,,,,,,False,6,87,True,exp2.png,exp1.png,trial_right_image,-1,exp1.png,3,exp1.png,exp2.png,0,4,reversed,correct,0.44047508530383583,1,valid_win,465.0418738999997,50,,,,,,,,,,,,,,,sub_807,2024-12-09_16h05.45.382,Reversal,2023.1.3,59.93676671119076,3,
7,exp3.png,exp4.png,,,,,,,,,,,,,,,,,,0,0,0,0,0,7,7,7,,,,,,,,,False,7,88,False,exp3.png,exp4.png,trial_left_image,1,exp3.png,3,exp4.png,exp3.png,0,2,non-reversed,incorrect,0.7368910372085079,0,valid_lose,469.17294159999983,50,,,,,,,,,,,,,,,sub_807,2024-12-09_16h05.45.382,Reversal,2023.1.3,59.93676671119076,3,
8,exp1.png,exp2.png,,,,,,,,,,,,,,,,,,0,0,0,0,0,8,8,8,,,,,,,,,False,8,89,False,exp1.png,exp2.png,trial_left_image,1,exp1.png,3,exp1.png,exp2.png,0,4,reversed,correct,0.43504649068876644,1,valid_win,473.3891021999998,51,,,,,,,,,,,,,,,sub_807,2024-12-09_16h05.45.382,Reversal,2023.1.3,59.93676671119076,3,
9,exp3.png,exp4.png,,,,,,,,,,,,,,,,,,0,0,0,0,0,9,9,9,,,,,,,,,False,9,90,True,exp4.png,exp3.png,trial_right_image,-1,exp3.png,3,exp4.png,exp3.png,0,2,non-reversed,incorrect,0.5211106011962899,0,valid_lose,477.57005990000016,51,,,,,,,,,,,,,,,sub_807,2024-12-09_16h05.45.382,Reversal,2023.1.3,59.93676671119076,3,
10,exp1.png,exp2.png,,,,,,,,,,,,,,,,,,0,0,0,0,0,10,10,10,,,,,,,,,False,10,91,False,exp1.png,exp2.png,trial_left_image,1,exp1.png,3,exp1.png,exp2.png,0,4,reversed,correct,0.8337983351527236,1,valid_win,481.56882099999984,52,,,,,,,,,,,,,,,sub_807,2024-12-09_16h05.45.382,Reversal,2023.1.3,59.93676671119076,3,
11,exp3.png,exp4.png,,,,,,,,,,,,,,,,,,0,0,0,0,0,11,11,11,,,,,,,,,False,11,92,True,exp4.png,exp3.png,trial_right_image,-1,exp3.png,3,exp4.png,exp3.png,0,2,non-reversed,incorrect,0.8203059809698463,0,valid_lose,485.3853438999995,52,,,,,,,,,,,,,,,sub_807,2024-12-09_16h05.45.382,Reversal,2023.1.3,59.93676671119076,3,
12,exp1.png,exp2.png,,,,,,,,,,,,,,,,,,0,0,0,0,0,12,12,12,,,,,,,,,False,12,93,False,exp1.png,exp2.png,trial_left_image,1,exp1.png,3,exp1.png,exp2.png,0,4,reversed,correct,0.5954255515876195,1,valid_win,489.36613169999964,53,,,,,,,,,,,,,,,sub_807,2024-12-09_16h05.45.382,Reversal,2023.1.3,59.93676671119076,3,
13,exp3.png,exp4.png,,,,,,,,,,,,,,,,,,0,0,0,0,0,13,13,13,,,,,,,,,False,13,94,True,exp4.png,exp3.png,trial_right_image,-1,exp3.png,3,exp4.png,exp3.png,0,2,non-reversed,incorrect,0.4291376929543185,0,valid_lose,493.19832769999994,53,,,,,,,,,,,,,,,sub_807,2024-12-09_16h05.45.382,Reversal,2023.1.3,59.93676671119076,3,
14,exp1.png,exp2.png,,,,,,,,,,,,,,,,,,0,0,0,0,0,14,14,14,,,,,,,,,False,14,95,False,exp1.png,exp2.png,trial_right_image,-1,exp2.png,3,exp1.png,exp2.png,1,3,reversed,incorrect,0.18769851069396115,1,invalid_win,498.46359740000025,54,,,,,,,,,,,,,,,sub_807,2024-12-09_16h05.45.382,Reversal,2023.1.3,59.93676671119076,3,
15,exp3.png,exp4.png,,,,,,,,,,,,,,,,,,0,0,0,0,0,15,15,15,,,,,,,,,False,15,96,False,exp3.png,exp4.png,trial_left_image,1,exp3.png,3,exp4.png,exp3.png,0,2,non-reversed,incorrect,0.9424513073046229,0,valid_lose,503.67875379999987,54,,,,,,,,,,,,,,,sub_807,2024-12-09_16h05.45.382,Reversal,2023.1.3,59.93676671119076,3,
16,exp1.png,exp2.png,,,,,,,,,,,,,,,,,,0,0,0,0,0,16,16,16,,,,,,,,,False,16,97,True,exp2.png,exp1.png,trial_left_image,1,exp2.png,3,exp1.png,exp2.png,1,3,reversed,incorrect,0.06704110739730218,1,invalid_win,507.7440096999999,55,,,,,,,,,,,,,,,sub_807,2024-12-09_16h05.45.382,Reversal,2023.1.3,59.93676671119076,3,
17,exp3.png,exp4.png,,,,,,,,,,,,,,,,,,0,0,0,0,0,17,17,17,,,,,,,,,False,17,98,False,exp3.png,exp4.png,trial_right_image,-1,exp4.png,3,exp4.png,exp3.png,1,1,non-reversed,correct,0.27804879596846654,1,valid_win,511.75878379999995,56,,,,,,,,,,,,,,,sub_807,2024-12-09_16h05.45.382,Reversal,2023.1.3,59.93676671119076,3,
18,exp1.png,exp2.png,,,,,,,,,,,,,,,,,,0,0,0,0,0,18,18,18,,,,,,,,,False,18,99,False,exp1.png,exp2.png,trial_left_image,1,exp1.png,3,exp1.png,exp2.png,0,4,reversed,correct,0.5062718399252434,1,valid_win,515.9236745999997,57,,,,,,,,,,,,,,,sub_807,2024-12-09_16h05.45.382,Reversal,2023.1.3,59.93676671119076,3,
19,exp3.png,exp4.png,,,,,,,,,,,,,,,,,,0,0,0,0,0,19,19,19,,,,,,,,,False,19,100,False,exp3.png,exp4.png,trial_right_image,-1,exp4.png,3,exp4.png,exp3.png,1,1,non-reversed,correct,0.9801067738458717,1,valid_win,519.9729189,58,,,,,,,,,,,,,,,sub_807,2024-12-09_16h05.45.382,Reversal,2023.1.3,59.93676671119076,3,
20,exp1.png,exp2.png,,,,,,,,,,,,,,,,,,0,0,0,0,0,20,20,20,,,,,,,,,True,,,,,,,,,,,,,,,,,,,,,,,,,,,,,,,,,,,sub_807,2024-12-09_16h05.45.382,Reversal,2023.1.3,59.93676671119076,3,
,,,exp1.png,,,,,,,,,,,,,,,,,0,0,0,0,,,,,0,0,0,0,0,0,0,0,,,,,,,,,,,,,,,,,,,,,,613.3082058,100.0,100.0,1.2263721000008445,"[(100.0, 1.2263721000008445)]",,,,,,,,,,sub_807,2024-12-09_16h05.45.382,Reversal,2023.1.3,59.93676671119076,3,
,,,exp2.png,,,,,,,,,,,,,,,,,0,0,0,0,,,,,0,0,0,0,0,1,1,1,,,,,,,,,,,,,,,,,,,,,,615.5020690000001,,61.0,1.9790884000003643,"[(61.0, 1.9790884000003643)]",61.0,,,,,,,,,sub_807,2024-12-09_16h05.45.382,Reversal,2023.1.3,59.93676671119076,3,
,,,exp3.png,,,,,,,,,,,,,,,,,0,0,0,0,,,,,0,0,0,0,0,2,2,2,,,,,,,,,,,,,,,,,,,,,,618.3511863000003,,100.0,2.14561330000015,"[(100.0, 2.14561330000015)]",,100.0,,,,,,,,sub_807,2024-12-09_16h05.45.382,Reversal,2023.1.3,59.93676671119076,3,
,,,exp4.png,,,,,,,,,,,,,,,,,0,0,0,0,,,,,0,0,0,0,0,3,3,3,,,,,,,,,,,,,,,,,,,,,,621.4348117,,1.0,0.8280985000001237,"[(1.0, 0.8280985000001237)]",,,1.0,,,,,,,sub_807,2024-12-09_16h05.45.382,Reversal,2023.1.3,59.93676671119076,3,
0,exp1.png,exp2.png,,,,,,,,,,,,,,,,,,1,0,1,0,0,0,0,0,,,,,,,,,False,20,101,False,exp1.png,exp2.png,trial_left_image,1,exp1.png,3,exp1.png,exp2.png,0,4,reversed,correct,0.6616987675070497,1,valid_win,534.6841236999999,59,,,,,,,,,,,,,,,sub_807,2024-12-09_16h05.45.382,Reversal,2023.1.3,59.93676671119076,3,
1,exp3.png,exp4.png,,,,,,,,,,,,,,,,,,1,0,1,0,0,1,1,1,,,,,,,,,False,21,102,False,exp3.png,exp4.png,trial_left_image,1,exp3.png,3,exp4.png,exp3.png,0,2,non-reversed,incorrect,0.5038939315967028,0,valid_lose,538.5660667000002,59,,,,,,,,,,,,,,,sub_807,2024-12-09_16h05.45.382,Reversal,2023.1.3,59.93676671119076,3,
2,exp1.png,exp2.png,,,,,,,,,,,,,,,,,,1,0,1,0,0,2,2,2,,,,,,,,,False,22,103,True,exp2.png,exp1.png,trial_left_image,1,exp2.png,3,exp1.png,exp2.png,1,3,reversed,incorrect,0.10730738056778988,1,invalid_win,542.4313547000002,60,,,,,,,,,,,,,,,sub_807,2024-12-09_16h05.45.382,Reversal,2023.1.3,59.93676671119076,3,
3,exp3.png,exp4.png,,,,,,,,,,,,,,,,,,1,0,1,0,0,3,3,3,,,,,,,,,False,23,104,False,exp3.png,exp4.png,trial_right_image,-1,exp4.png,3,exp4.png,exp3.png,1,1,non-reversed,correct,0.5866866703394342,1,valid_win,546.4809963999996,61,,,,,,,,,,,,,,,sub_807,2024-12-09_16h05.45.382,Reversal,2023.1.3,59.93676671119076,3,
4,exp1.png,exp2.png,,,,,,,,,,,,,,,,,,1,0,1,0,0,4,4,4,,,,,,,,,False,24,105,False,exp1.png,exp2.png,trial_left_image,1,exp1.png,3,exp1.png,exp2.png,0,4,reversed,correct,0.6601984319804498,1,valid_win,550.2131471000002,62,,,,,,,,,,,,,,,sub_807,2024-12-09_16h05.45.382,Reversal,2023.1.3,59.93676671119076,3,
5,exp3.png,exp4.png,,,,,,,,,,,,,,,,,,1,0,1,0,0,5,5,5,,,,,,,,,False,25,106,True,exp4.png,exp3.png,trial_left_image,1,exp4.png,3,exp4.png,exp3.png,1,1,non-reversed,correct,0.36112759247827686,1,valid_win,553.9942100999997,63,,,,,,,,,,,,,,,sub_807,2024-12-09_16h05.45.382,Reversal,2023.1.3,59.93676671119076,3,
6,exp1.png,exp2.png,,,,,,,,,,,,,,,,,,1,0,1,0,0,6,6,6,,,,,,,,,False,26,107,True,exp2.png,exp1.png,trial_right_image,-1,exp1.png,3,exp1.png,exp2.png,0,4,reversed,correct,0.5838875381183836,1,valid_win,558.7092359999997,64,,,,,,,,,,,,,,,sub_807,2024-12-09_16h05.45.382,Reversal,2023.1.3,59.93676671119076,3,
7,exp3.png,exp4.png,,,,,,,,,,,,,,,,,,1,0,1,0,0,7,7,7,,,,,,,,,False,27,108,True,exp4.png,exp3.png,trial_right_image,-1,exp3.png,3,exp4.png,exp3.png,0,2,non-reversed,incorrect,0.9166368281264757,0,valid_lose,562.6750598999997,64,,,,,,,,,,,,,,,sub_807,2024-12-09_16h05.45.382,Reversal,2023.1.3,59.93676671119076,3,
8,exp1.png,exp2.png,,,,,,,,,,,,,,,,,,1,0,1,0,0,8,8,8,,,,,,,,,False,28,109,False,exp1.png,exp2.png,trial_right_image,-1,exp2.png,3,exp1.png,exp2.png,1,3,reversed,incorrect,0.34403988579685996,0,valid_lose,566.6737562999997,64,,,,,,,,,,,,,,,sub_807,2024-12-09_16h05.45.382,Reversal,2023.1.3,59.93676671119076,3,
9,exp3.png,exp4.png,,,,,,,,,,,,,,,,,,1,0,1,0,0,9,9,9,,,,,,,,,False,29,110,True,exp4.png,exp3.png,trial_right_image,-1,exp3.png,3,exp4.png,exp3.png,0,2,non-reversed,incorrect,0.40225559927025223,0,valid_lose,571.6386086000002,64,,,,,,,,,,,,,,,sub_807,2024-12-09_16h05.45.382,Reversal,2023.1.3,59.93676671119076,3,
10,exp1.png,exp2.png,,,,,,,,,,,,,,,,,,1,0,1,0,0,10,10,10,,,,,,,,,False,30,111,False,exp1.png,exp2.png,trial_right_image,-1,exp2.png,3,exp1.png,exp2.png,1,3,reversed,incorrect,0.6527569908219437,0,valid_lose,575.5701903999998,64,,,,,,,,,,,,,,,sub_807,2024-12-09_16h05.45.382,Reversal,2023.1.3,59.93676671119076,3,
11,exp3.png,exp4.png,,,,,,,,,,,,,,,,,,1,0,1,0,0,11,11,11,,,,,,,,,False,31,112,False,exp3.png,exp4.png,trial_left_image,1,exp3.png,3,exp4.png,exp3.png,0,2,non-reversed,incorrect,0.9054262077011482,0,valid_lose,579.402403,64,,,,,,,,,,,,,,,sub_807,2024-12-09_16h05.45.382,Reversal,2023.1.3,59.93676671119076,3,
12,exp1.png,exp2.png,,,,,,,,,,,,,,,,,,1,0,1,0,0,12,12,12,,,,,,,,,False,32,113,True,exp2.png,exp1.png,trial_right_image,-1,exp1.png,3,exp1.png,exp2.png,0,4,reversed,correct,0.9576626836381401,1,valid_win,583.1852521000001,65,,,,,,,,,,,,,,,sub_807,2024-12-09_16h05.45.382,Reversal,2023.1.3,59.93676671119076,3,
13,exp3.png,exp4.png,,,,,,,,,,,,,,,,,,1,0,1,0,0,13,13,13,,,,,,,,,False,33,114,True,exp4.png,exp3.png,trial_left_image,1,exp4.png,3,exp4.png,exp3.png,1,1,non-reversed,correct,0.1816713987312264,0,invalid_lose,587.6663783000004,65,,,,,,,,,,,,,,,sub_807,2024-12-09_16h05.45.382,Reversal,2023.1.3,59.93676671119076,3,
14,exp1.png,exp2.png,,,,,,,,,,,,,,,,,,1,0,1,0,0,14,14,14,,,,,,,,,False,34,115,False,exp1.png,exp2.png,trial_right_image,-1,exp2.png,3,exp1.png,exp2.png,1,3,reversed,incorrect,0.004203491990576902,1,invalid_win,592.6985881999999,66,,,,,,,,,,,,,,,sub_807,2024-12-09_16h05.45.382,Reversal,2023.1.3,59.93676671119076,3,
15,exp3.png,exp4.png,,,,,,,,,,,,,,,,,,1,0,1,0,0,15,15,15,,,,,,,,,False,35,116,False,exp3.png,exp4.png,trial_right_image,-1,exp4.png,3,exp4.png,exp3.png,1,1,non-reversed,correct,0.6901961223685691,1,valid_win,597.5639462999998,67,,,,,,,,,,,,,,,sub_807,2024-12-09_16h05.45.382,Reversal,2023.1.3,59.93676671119076,3,
16,exp1.png,exp2.png,,,,,,,,,,,,,,,,,,1,0,1,0,0,16,16,16,,,,,,,,,False,36,117,True,exp2.png,exp1.png,trial_left_image,1,exp2.png,3,exp1.png,exp2.png,1,3,reversed,incorrect,0.7479251864462881,0,valid_lose,601.7947295000004,67,,,,,,,,,,,,,,,sub_807,2024-12-09_16h05.45.382,Reversal,2023.1.3,59.93676671119076,3,
17,exp3.png,exp4.png,,,,,,,,,,,,,,,,,,1,0,1,0,0,17,17,17,,,,,,,,,False,37,118,True,exp4.png,exp3.png,trial_right_image,-1,exp3.png,3,exp4.png,exp3.png,0,2,non-reversed,incorrect,0.487773333796345,0,valid_lose,606.8108327,67,,,,,,,,,,,,,,,sub_807,2024-12-09_16h05.45.382,Reversal,2023.1.3,59.93676671119076,3,
18,exp1.png,exp2.png,,,,,,,,,,,,,,,,,,1,0,1,0,0,18,18,18,,,,,,,,,False,38,119,True,exp2.png,exp1.png,trial_left_image,1,exp2.png,3,exp1.png,exp2.png,1,3,reversed,incorrect,0.26644794309859965,0,valid_lose,611.30933,67,,,,,,,,,,,,,,,sub_807,2024-12-09_16h05.45.382,Reversal,2023.1.3,59.93676671119076,3,
19,exp3.png,exp4.png,,,,,,,,,,,,,,,,,,1,0,1,0,0,19,19,19,,,,,,,,,False,39,120,False,exp3.png,exp4.png,trial_right_image,-1,exp4.png,3,exp4.png,exp3.png,1,1,non-reversed,correct,0.8599907883252551,1,valid_win,615.6237881999996,68,,,,,,,,,,,,,,,sub_807,2024-12-09_16h05.45.382,Reversal,2023.1.3,59.93676671119076,3,
20,exp1.png,exp2.png,,,,,,,,,,,,,,,,,,1,0,1,0,0,20,20,20,,,,,,,,,True,,,,,,,,,,,,,,,,,,,,,,,,,,,,,,,,,,,sub_807,2024-12-09_16h05.45.382,Reversal,2023.1.3,59.93676671119076,3,
,,,exp1.png,,,,,,,,,,,,,,,,,1,0,1,0,,,,,0,0,0,0,0,0,0,0,,,,,,,,,,,,,,,,,,,,,,708.9657826000002,95.0,95.0,2.3720585999999457,"[(95.0, 2.3720585999999457)]",,,,,,,,,,sub_807,2024-12-09_16h05.45.382,Reversal,2023.1.3,59.93676671119076,3,
,,,exp2.png,,,,,,,,,,,,,,,,,1,0,1,0,,,,,0,0,0,0,0,1,1,1,,,,,,,,,,,,,,,,,,,,,,714.036384,,8.0,1.6441925999997693,"[(8.0, 1.6441925999997693)]",8.0,,,,,,,,,sub_807,2024-12-09_16h05.45.382,Reversal,2023.1.3,59.93676671119076,3,
,,,exp3.png,,,,,,,,,,,,,,,,,1,0,1,0,,,,,0,0,0,0,0,2,2,2,,,,,,,,,,,,,,,,,,,,,,716.7334059000004,,6.0,5.59422639999957,"[(15.0, 3.8114607999996224), (6.0, 5.59422639999957)]",,6.0,,,,,,,,sub_807,2024-12-09_16h05.45.382,Reversal,2023.1.3,59.93676671119076,3,
,,,exp4.png,,,,,,,,,,,,,,,,,1,0,1,0,,,,,0,0,0,0,0,3,3,3,,,,,,,,,,,,,,,,,,,,,,723.6994678000001,,93.0,1.7954218999993827,"[(93.0, 1.7954218999993827)]",,,93.0,,,,,,,sub_807,2024-12-09_16h05.45.382,Reversal,2023.1.3,59.93676671119076,3,
0,exp1.png,exp2.png,,,,,,,,,,,,,,,,,,2,0,2,0,0,0,0,0,,,,,,,,,False,40,121,True,exp2.png,exp1.png,trial_left_image,1,exp2.png,3,exp1.png,exp2.png,1,3,reversed,incorrect,0.16789080141553758,1,invalid_win,637.8161559,69,,,,,,,,,,,,,,,sub_807,2024-12-09_16h05.45.382,Reversal,2023.1.3,59.93676671119076,3,
1,exp3.png,exp4.png,,,,,,,,,,,,,,,,,,2,0,2,0,0,1,1,1,,,,,,,,,False,41,122,False,exp3.png,exp4.png,trial_right_image,-1,exp4.png,3,exp4.png,exp3.png,1,1,non-reversed,correct,0.2639275089786133,1,valid_win,641.9483621999998,70,,,,,,,,,,,,,,,sub_807,2024-12-09_16h05.45.382,Reversal,2023.1.3,59.93676671119076,3,
2,exp1.png,exp2.png,,,,,,,,,,,,,,,,,,2,0,2,0,0,2,2,2,,,,,,,,,False,42,123,True,exp2.png,exp1.png,trial_left_image,1,exp2.png,3,exp1.png,exp2.png,1,3,reversed,incorrect,0.031760389648586296,1,invalid_win,645.8634021999997,71,,,,,,,,,,,,,,,sub_807,2024-12-09_16h05.45.382,Reversal,2023.1.3,59.93676671119076,3,
3,exp3.png,exp4.png,,,,,,,,,,,,,,,,,,2,0,2,0,0,3,3,3,,,,,,,,,False,43,124,False,exp3.png,exp4.png,trial_right_image,-1,exp4.png,3,exp4.png,exp3.png,1,1,non-reversed,correct,0.07410965006686376,0,invalid_lose,649.8296173999997,71,,,,,,,,,,,,,,,sub_807,2024-12-09_16h05.45.382,Reversal,2023.1.3,59.93676671119076,3,
4,exp1.png,exp2.png,,,,,,,,,,,,,,,,,,2,0,2,0,0,4,4,4,,,,,,,,,False,44,125,True,exp2.png,exp1.png,trial_left_image,1,exp2.png,3,exp1.png,exp2.png,1,3,reversed,incorrect,0.16835643340067108,1,invalid_win,653.7605258000003,72,,,,,,,,,,,,,,,sub_807,2024-12-09_16h05.45.382,Reversal,2023.1.3,59.93676671119076,3,
5,exp3.png,exp4.png,,,,,,,,,,,,,,,,,,2,0,2,0,0,5,5,5,,,,,,,,,False,45,126,True,exp4.png,exp3.png,trial_right_image,-1,exp3.png,3,exp4.png,exp3.png,0,2,non-reversed,incorrect,0.7183347041052365,0,valid_lose,657.5766003999997,72,,,,,,,,,,,,,,,sub_807,2024-12-09_16h05.45.382,Reversal,2023.1.3,59.93676671119076,3,
6,exp1.png,exp2.png,,,,,,,,,,,,,,,,,,2,0,2,0,0,6,6,6,,,,,,,,,False,46,127,True,exp2.png,exp1.png,trial_left_image,1,exp2.png,3,exp1.png,exp2.png,1,3,reversed,incorrect,0.25946920698442066,0,valid_lose,661.4920749000003,72,,,,,,,,,,,,,,,sub_807,2024-12-09_16h05.45.382,Reversal,2023.1.3,59.93676671119076,3,
7,exp3.png,exp4.png,,,,,,,,,,,,,,,,,,2,0,2,0,0,7,7,7,,,,,,,,,False,47,128,False,exp3.png,exp4.png,trial_right_image,-1,exp4.png,3,exp4.png,exp3.png,1,1,non-reversed,correct,0.16608074789413518,0,invalid_lose,665.5404857000003,72,,,,,,,,,,,,,,,sub_807,2024-12-09_16h05.45.382,Reversal,2023.1.3,59.93676671119076,3,
8,exp1.png,exp2.png,,,,,,,,,,,,,,,,,,2,0,2,0,0,8,8,8,,,,,,,,,False,48,129,False,exp1.png,exp2.png,trial_right_image,-1,exp2.png,3,exp1.png,exp2.png,1,3,reversed,incorrect,0.29623296550894707,0,valid_lose,669.321903,72,,,,,,,,,,,,,,,sub_807,2024-12-09_16h05.45.382,Reversal,2023.1.3,59.93676671119076,3,
9,exp3.png,exp4.png,,,,,,,,,,,,,,,,,,2,0,2,0,0,9,9,9,,,,,,,,,False,49,130,True,exp4.png,exp3.png,trial_left_image,1,exp4.png,3,exp4.png,exp3.png,1,1,non-reversed,correct,0.4704591552728654,1,valid_win,673.2709316999999,73,,,,,,,,,,,,,,,sub_807,2024-12-09_16h05.45.382,Reversal,2023.1.3,59.93676671119076,3,
10,exp1.png,exp2.png,,,,,,,,,,,,,,,,,,2,0,2,0,0,10,10,10,,,,,,,,,False,50,131,False,exp1.png,exp2.png,trial_left_image,1,exp1.png,3,exp1.png,exp2.png,0,4,reversed,correct,0.5172263542530083,1,valid_win,677.2200718000004,74,,,,,,,,,,,,,,,sub_807,2024-12-09_16h05.45.382,Reversal,2023.1.3,59.93676671119076,3,
11,exp3.png,exp4.png,,,,,,,,,,,,,,,,,,2,0,2,0,0,11,11,11,,,,,,,,,False,51,132,True,exp4.png,exp3.png,trial_right_image,-1,exp3.png,3,exp4.png,exp3.png,0,2,non-reversed,incorrect,0.4790162721134047,0,valid_lose,681.1857223999996,74,,,,,,,,,,,,,,,sub_807,2024-12-09_16h05.45.382,Reversal,2023.1.3,59.93676671119076,3,
12,exp1.png,exp2.png,,,,,,,,,,,,,,,,,,2,0,2,0,0,12,12,12,,,,,,,,,False,52,133,True,exp2.png,exp1.png,trial_right_image,-1,exp1.png,3,exp1.png,exp2.png,0,4,reversed,correct,0.3907294254593886,1,valid_win,685.3338727,75,,,,,,,,,,,,,,,sub_807,2024-12-09_16h05.45.382,Reversal,2023.1.3,59.93676671119076,3,
13,exp3.png,exp4.png,,,,,,,,,,,,,,,,,,2,0,2,0,0,13,13,13,,,,,,,,,False,53,134,False,exp3.png,exp4.png,trial_left_image,1,exp3.png,3,exp4.png,exp3.png,0,2,non-reversed,incorrect,0.9394409729793662,0,valid_lose,689.9492858000003,75,,,,,,,,,,,,,,,sub_807,2024-12-09_16h05.45.382,Reversal,2023.1.3,59.93676671119076,3,
14,exp1.png,exp2.png,,,,,,,,,,,,,,,,,,2,0,2,0,0,14,14,14,,,,,,,,,False,54,135,False,exp1.png,exp2.png,trial_left_image,1,exp1.png,3,exp1.png,exp2.png,0,4,reversed,correct,0.8699872339056202,1,valid_win,694.3632177,76,,,,,,,,,,,,,,,sub_807,2024-12-09_16h05.45.382,Reversal,2023.1.3,59.93676671119076,3,
15,exp3.png,exp4.png,,,,,,,,,,,,,,,,,,2,0,2,0,0,15,15,15,,,,,,,,,False,55,136,True,exp4.png,exp3.png,trial_right_image,-1,exp3.png,3,exp4.png,exp3.png,0,2,non-reversed,incorrect,0.39751238333820416,0,valid_lose,698.4956707000001,76,,,,,,,,,,,,,,,sub_807,2024-12-09_16h05.45.382,Reversal,2023.1.3,59.93676671119076,3,
16,exp1.png,exp2.png,,,,,,,,,,,,,,,,,,2,0,2,0,0,16,16,16,,,,,,,,,False,56,137,False,exp1.png,exp2.png,trial_left_image,1,exp1.png,3,exp1.png,exp2.png,0,4,reversed,correct,0.518826166123428,1,valid_win,702.4610761000004,77,,,,,,,,,,,,,,,sub_807,2024-12-09_16h05.45.382,Reversal,2023.1.3,59.93676671119076,3,
17,exp3.png,exp4.png,,,,,,,,,,,,,,,,,,2,0,2,0,0,17,17,17,,,,,,,,,False,57,138,False,exp3.png,exp4.png,trial_left_image,1,exp3.png,3,exp4.png,exp3.png,0,2,non-reversed,incorrect,0.2747883388115937,0,valid_lose,706.6595685000002,77,,,,,,,,,,,,,,,sub_807,2024-12-09_16h05.45.382,Reversal,2023.1.3,59.93676671119076,3,
18,exp1.png,exp2.png,,,,,,,,,,,,,,,,,,2,0,2,0,0,18,18,18,,,,,,,,,False,58,139,False,exp1.png,exp2.png,trial_left_image,1,exp1.png,3,exp1.png,exp2.png,0,4,reversed,correct,0.7964440951059479,1,valid_win,710.6582648000003,78,,,,,,,,,,,,,,,sub_807,2024-12-09_16h05.45.382,Reversal,2023.1.3,59.93676671119076,3,
19,exp3.png,exp4.png,,,,,,,,,,,,,,,,,,2,0,2,0,0,19,19,19,,,,,,,,,False,59,140,True,exp4.png,exp3.png,trial_right_image,-1,exp3.png,3,exp4.png,exp3.png,0,2,non-reversed,incorrect,0.316699843071215,0,valid_lose,714.8061699999998,78,,,,,,,,,,,,,,,sub_807,2024-12-09_16h05.45.382,Reversal,2023.1.3,59.93676671119076,3,
20,exp1.png,exp2.png,,,,,,,,,,,,,,,,,,2,0,2,0,0,20,20,20,,,,,,,,,True,,,,,,,,,,,,,,,,,,,,,,,,,,,,,,,,,,,sub_807,2024-12-09_16h05.45.382,Reversal,2023.1.3,59.93676671119076,3,
,,,exp1.png,,,,,,,,,,,,,,,,,2,0,2,0,,,,,0,0,0,0,0,0,0,0,,,,,,,,,,,,,,,,,,,,,,808.1392810999996,83.0,83.0,5.078889100000197,"[(83.0, 5.078889100000197)]",,,,,,,,,,sub_807,2024-12-09_16h05.45.382,Reversal,2023.1.3,59.93676671119076,3,
,,,exp2.png,,,,,,,,,,,,,,,,,2,0,2,0,,,,,0,0,0,0,0,1,1,1,,,,,,,,,,,,,,,,,,,,,,815.0351162999996,,71.0,0.9616171999996368,"[(71.0, 0.9616171999996368)]",71.0,,,,,,,,,sub_807,2024-12-09_16h05.45.382,Reversal,2023.1.3,59.93676671119076,3,
,,,exp3.png,,,,,,,,,,,,,,,,,2,0,2,0,,,,,0,0,0,0,0,2,2,2,,,,,,,,,,,,,,,,,,,,,,816.8842007000003,,21.0,3.4273965000002136,"[(12.0, 1.1279805000003762), (9.0, 1.3397741000007954), (21.0, 3.4273965000002136)]",,21.0,,,,,,,,sub_807,2024-12-09_16h05.45.382,Reversal,2023.1.3,59.93676671119076,3,
,,,exp4.png,,,,,,,,,,,,,,,,,2,0,2,0,,,,,0,0,0,0,0,3,3,3,,,,,,,,,,,,,,,,,,,,,,821.6661557999996,,55.0,2.89456010000049,"[(55.0, 2.89456010000049)]",,,55.0,,,,,,,sub_807,2024-12-09_16h05.45.382,Reversal,2023.1.3,59.93676671119076,3,
,,,,,,,,,,,,,,,,,,,,,,,,,,,,,,,,,,,,,,,,,,,,,,,,,,,,,,,,78,,,,,,,,,,78,50,28,296.3542711,1,,,,,,,
