trial_index,trial_image1_file,trial_image2_file,image_file,learning_outer_loop.thisRepN,learning_outer_loop.thisTrialN,learning_outer_loop.thisN,learning_outer_loop.thisIndex,learning_inner_loop.thisRepN,learning_inner_loop.thisTrialN,learning_inner_loop.thisN,learning_inner_loop.thisIndex,learning_estimation_outer_loop.thisRepN,learning_estimation_outer_loop.thisTrialN,learning_estimation_outer_loop.thisN,learning_estimation_outer_loop.thisIndex,learning_estimation_inner_loop.thisRepN,learning_estimation_inner_loop.thisTrialN,learning_estimation_inner_loop.thisN,learning_estimation_inner_loop.thisIndex,reversal_outer_loop.thisRepN,reversal_outer_loop.thisTrialN,reversal_outer_loop.thisN,reversal_outer_loop.thisIndex,reversal_inner_loop.thisRepN,reversal_inner_loop.thisTrialN,reversal_inner_loop.thisN,reversal_inner_loop.thisIndex,reversal_estimation_outer_loop.thisRepN,reversal_estimation_outer_loop.thisTrialN,reversal_estimation_outer_loop.thisN,reversal_estimation_outer_loop.thisIndex,reversal_estimation_inner_loop.thisRepN,reversal_estimation_inner_loop.thisTrialN,reversal_estimation_inner_loop.thisN,reversal_estimation_inner_loop.thisIndex,skipped,total_trial_counter,trial_num,left_right_flip,left_image_file,right_image_file,clicked_stimulus_side,side,clicked_stimulus,version,high_prob_image_file,low_prob_image_file,choice_a,choice_b,pair_type,correct,trial_feedback_random,reward,trial_type,overall_time_after_trial,score,estimation_rating.started,estimation_rating.response,estimation_rating.rt,estimation_rating.history,estimation_exp3.png,estimation_exp4.png,total_learning_time,total_correct,learning_correct,reversal_correct,total_reversal_time,extra_block,participant,date,expName,psychopyVersion,frameRate,ver,
0,exp1.png,exp2.png,,0,0,0,0,0,0,0,0,,,,,,,,,,,,,,,,,,,,,,,,,False,0,1,True,exp2.png,exp1.png,trial_left_image,1,exp2.png,1,exp1.png,exp2.png,0,4,reversed,incorrect,0.016426546860226265,1,invalid_win,4.613481600000341,1,,,,,,,,,,,,,sub_265,2023-12-13_16h47.38.598,Reversal,2023.1.3,60.043723839517185,1,
1,exp3.png,exp4.png,,0,0,0,0,0,1,1,1,,,,,,,,,,,,,,,,,,,,,,,,,False,1,2,True,exp4.png,exp3.png,trial_left_image,1,exp4.png,1,exp3.png,exp4.png,0,2,non-reversed,incorrect,0.4897156333803896,0,valid_lose,7.645590199999788,1,,,,,,,,,,,,,sub_265,2023-12-13_16h47.38.598,Reversal,2023.1.3,60.043723839517185,1,
2,exp1.png,exp2.png,,0,0,0,0,0,2,2,2,,,,,,,,,,,,,,,,,,,,,,,,,False,2,3,True,exp2.png,exp1.png,trial_right_image,-1,exp1.png,1,exp1.png,exp2.png,1,3,reversed,correct,0.5546120231038986,1,valid_win,13.394010199999684,2,,,,,,,,,,,,,sub_265,2023-12-13_16h47.38.598,Reversal,2023.1.3,60.043723839517185,1,
3,exp3.png,exp4.png,,0,0,0,0,0,3,3,3,,,,,,,,,,,,,,,,,,,,,,,,,False,3,4,True,exp4.png,exp3.png,trial_right_image,-1,exp3.png,1,exp3.png,exp4.png,1,1,non-reversed,correct,0.006333265762894169,0,invalid_lose,18.742115799999738,2,,,,,,,,,,,,,sub_265,2023-12-13_16h47.38.598,Reversal,2023.1.3,60.043723839517185,1,
4,exp1.png,exp2.png,,0,0,0,0,0,4,4,4,,,,,,,,,,,,,,,,,,,,,,,,,False,4,5,False,exp1.png,exp2.png,trial_right_image,-1,exp2.png,1,exp1.png,exp2.png,0,4,reversed,incorrect,0.568561583223772,0,valid_lose,23.27420710000024,2,,,,,,,,,,,,,sub_265,2023-12-13_16h47.38.598,Reversal,2023.1.3,60.043723839517185,1,
5,exp3.png,exp4.png,,0,0,0,0,0,5,5,5,,,,,,,,,,,,,,,,,,,,,,,,,False,5,6,True,exp4.png,exp3.png,trial_left_image,1,exp4.png,1,exp3.png,exp4.png,0,2,non-reversed,incorrect,0.4891925365270211,0,valid_lose,27.722265200000038,2,,,,,,,,,,,,,sub_265,2023-12-13_16h47.38.598,Reversal,2023.1.3,60.043723839517185,1,
6,exp1.png,exp2.png,,0,0,0,0,0,6,6,6,,,,,,,,,,,,,,,,,,,,,,,,,False,6,7,True,exp2.png,exp1.png,trial_right_image,-1,exp1.png,1,exp1.png,exp2.png,1,3,reversed,correct,0.6174173028537372,1,valid_win,32.78680970000005,3,,,,,,,,,,,,,sub_265,2023-12-13_16h47.38.598,Reversal,2023.1.3,60.043723839517185,1,
7,exp3.png,exp4.png,,0,0,0,0,0,7,7,7,,,,,,,,,,,,,,,,,,,,,,,,,False,7,8,False,exp3.png,exp4.png,trial_right_image,-1,exp4.png,1,exp3.png,exp4.png,0,2,non-reversed,incorrect,0.8492009266893864,0,valid_lose,37.785588100000496,3,,,,,,,,,,,,,sub_265,2023-12-13_16h47.38.598,Reversal,2023.1.3,60.043723839517185,1,
8,exp1.png,exp2.png,,0,0,0,0,0,8,8,8,,,,,,,,,,,,,,,,,,,,,,,,,False,8,9,False,exp1.png,exp2.png,trial_right_image,-1,exp2.png,1,exp1.png,exp2.png,0,4,reversed,incorrect,0.5577590148597545,0,valid_lose,42.60084519999964,3,,,,,,,,,,,,,sub_265,2023-12-13_16h47.38.598,Reversal,2023.1.3,60.043723839517185,1,
9,exp3.png,exp4.png,,0,0,0,0,0,9,9,9,,,,,,,,,,,,,,,,,,,,,,,,,False,9,10,True,exp4.png,exp3.png,trial_left_image,1,exp4.png,1,exp3.png,exp4.png,0,2,non-reversed,incorrect,0.1570898245662461,1,invalid_win,46.683335499999885,4,,,,,,,,,,,,,sub_265,2023-12-13_16h47.38.598,Reversal,2023.1.3,60.043723839517185,1,
10,exp1.png,exp2.png,,0,0,0,0,0,10,10,10,,,,,,,,,,,,,,,,,,,,,,,,,False,10,11,True,exp2.png,exp1.png,trial_left_image,1,exp2.png,1,exp1.png,exp2.png,0,4,reversed,incorrect,0.7743042679402421,0,valid_lose,50.76441330000034,4,,,,,,,,,,,,,sub_265,2023-12-13_16h47.38.598,Reversal,2023.1.3,60.043723839517185,1,
11,exp3.png,exp4.png,,0,0,0,0,0,11,11,11,,,,,,,,,,,,,,,,,,,,,,,,,False,11,12,False,exp3.png,exp4.png,trial_left_image,1,exp3.png,1,exp3.png,exp4.png,1,1,non-reversed,correct,0.12863549295803167,0,invalid_lose,54.89658280000003,4,,,,,,,,,,,,,sub_265,2023-12-13_16h47.38.598,Reversal,2023.1.3,60.043723839517185,1,
12,exp1.png,exp2.png,,0,0,0,0,0,12,12,12,,,,,,,,,,,,,,,,,,,,,,,,,False,12,13,False,exp1.png,exp2.png,trial_right_image,-1,exp2.png,1,exp1.png,exp2.png,0,4,reversed,incorrect,0.3420756630685301,0,valid_lose,58.82840440000018,4,,,,,,,,,,,,,sub_265,2023-12-13_16h47.38.598,Reversal,2023.1.3,60.043723839517185,1,
13,exp3.png,exp4.png,,0,0,0,0,0,13,13,13,,,,,,,,,,,,,,,,,,,,,,,,,False,13,14,False,exp3.png,exp4.png,trial_left_image,1,exp3.png,1,exp3.png,exp4.png,1,1,non-reversed,correct,0.10607993353312617,0,invalid_lose,62.66062890000012,4,,,,,,,,,,,,,sub_265,2023-12-13_16h47.38.598,Reversal,2023.1.3,60.043723839517185,1,
14,exp1.png,exp2.png,,0,0,0,0,0,14,14,14,,,,,,,,,,,,,,,,,,,,,,,,,False,14,15,False,exp1.png,exp2.png,trial_left_image,1,exp1.png,1,exp1.png,exp2.png,1,3,reversed,correct,0.69046833488383,1,valid_win,66.62594999999965,5,,,,,,,,,,,,,sub_265,2023-12-13_16h47.38.598,Reversal,2023.1.3,60.043723839517185,1,
15,exp3.png,exp4.png,,0,0,0,0,0,15,15,15,,,,,,,,,,,,,,,,,,,,,,,,,False,15,16,False,exp3.png,exp4.png,trial_left_image,1,exp3.png,1,exp3.png,exp4.png,1,1,non-reversed,correct,0.8481191261426759,1,valid_win,70.84104360000038,6,,,,,,,,,,,,,sub_265,2023-12-13_16h47.38.598,Reversal,2023.1.3,60.043723839517185,1,
16,exp1.png,exp2.png,,0,0,0,0,0,16,16,16,,,,,,,,,,,,,,,,,,,,,,,,,False,16,17,False,exp1.png,exp2.png,trial_right_image,-1,exp2.png,1,exp1.png,exp2.png,0,4,reversed,incorrect,0.7810359759257235,0,valid_lose,74.75648160000037,6,,,,,,,,,,,,,sub_265,2023-12-13_16h47.38.598,Reversal,2023.1.3,60.043723839517185,1,
17,exp3.png,exp4.png,,0,0,0,0,0,17,17,17,,,,,,,,,,,,,,,,,,,,,,,,,False,17,18,False,exp3.png,exp4.png,trial_right_image,-1,exp4.png,1,exp3.png,exp4.png,0,2,non-reversed,incorrect,0.17496640225924243,1,invalid_win,78.82167779999963,7,,,,,,,,,,,,,sub_265,2023-12-13_16h47.38.598,Reversal,2023.1.3,60.043723839517185,1,
18,exp1.png,exp2.png,,0,0,0,0,0,18,18,18,,,,,,,,,,,,,,,,,,,,,,,,,False,18,19,True,exp2.png,exp1.png,trial_left_image,1,exp2.png,1,exp1.png,exp2.png,0,4,reversed,incorrect,0.4496787020059686,0,valid_lose,82.97021599999971,7,,,,,,,,,,,,,sub_265,2023-12-13_16h47.38.598,Reversal,2023.1.3,60.043723839517185,1,
19,exp3.png,exp4.png,,0,0,0,0,0,19,19,19,,,,,,,,,,,,,,,,,,,,,,,,,False,19,20,True,exp4.png,exp3.png,trial_left_image,1,exp4.png,1,exp3.png,exp4.png,0,2,non-reversed,incorrect,0.5572130556367055,0,valid_lose,86.75252799999998,7,,,,,,,,,,,,,sub_265,2023-12-13_16h47.38.598,Reversal,2023.1.3,60.043723839517185,1,
20,exp1.png,exp2.png,,0,0,0,0,0,20,20,20,,,,,,,,,,,,,,,,,,,,,,,,,True,,,,,,,,,,,,,,,,,,,,,,,,,,,,,,,,,sub_265,2023-12-13_16h47.38.598,Reversal,2023.1.3,60.043723839517185,1,
,,,exp1.png,0,0,0,0,,,,,0,0,0,0,0,0,0,0,,,,,,,,,,,,,,,,,,,,,,,,,,,,,,,,,,,,,,161.02300079999986,None,None,[],,,,,,,,,sub_265,2023-12-13_16h47.38.598,Reversal,2023.1.3,60.043723839517185,1,
,,,exp2.png,0,0,0,0,,,,,0,0,0,0,0,1,1,1,,,,,,,,,,,,,,,,,,,,,,,,,,,,,,,,,,,,,,172.30054219999965,None,None,[],,,,,,,,,sub_265,2023-12-13_16h47.38.598,Reversal,2023.1.3,60.043723839517185,1,
,,,exp3.png,0,0,0,0,,,,,0,0,0,0,0,2,2,2,,,,,,,,,,,,,,,,,,,,,,,,,,,,,,,,,,,,,,176.49720009999965,69.0,3.242491500000142,"[(69.0, 3.242491500000142)]",69.0,,,,,,,,sub_265,2023-12-13_16h47.38.598,Reversal,2023.1.3,60.043723839517185,1,
,,,exp4.png,0,0,0,0,,,,,0,0,0,0,0,3,3,3,,,,,,,,,,,,,,,,,,,,,,,,,,,,,,,,,,,,,,180.82789400000001,35.0,4.176252900000691,"[(35.0, 4.176252900000691)]",,35.0,,,,,,,sub_265,2023-12-13_16h47.38.598,Reversal,2023.1.3,60.043723839517185,1,
0,exp1.png,exp2.png,,1,0,1,0,0,0,0,0,,,,,,,,,,,,,,,,,,,,,,,,,False,20,21,False,exp1.png,exp2.png,trial_right_image,-1,exp2.png,1,exp1.png,exp2.png,0,4,reversed,incorrect,0.1730432220766438,1,invalid_win,118.99196029999985,8,,,,,,,,,,,,,sub_265,2023-12-13_16h47.38.598,Reversal,2023.1.3,60.043723839517185,1,
1,exp3.png,exp4.png,,1,0,1,0,0,1,1,1,,,,,,,,,,,,,,,,,,,,,,,,,False,21,22,False,exp3.png,exp4.png,trial_right_image,-1,exp4.png,1,exp3.png,exp4.png,0,2,non-reversed,incorrect,0.22263487851010277,1,invalid_win,123.1566929999999,9,,,,,,,,,,,,,sub_265,2023-12-13_16h47.38.598,Reversal,2023.1.3,60.043723839517185,1,
2,exp1.png,exp2.png,,1,0,1,0,0,2,2,2,,,,,,,,,,,,,,,,,,,,,,,,,False,22,23,False,exp1.png,exp2.png,trial_left_image,1,exp1.png,1,exp1.png,exp2.png,1,3,reversed,correct,0.870687871319932,1,valid_win,127.03866300000027,10,,,,,,,,,,,,,sub_265,2023-12-13_16h47.38.598,Reversal,2023.1.3,60.043723839517185,1,
3,exp3.png,exp4.png,,1,0,1,0,0,3,3,3,,,,,,,,,,,,,,,,,,,,,,,,,False,23,24,False,exp3.png,exp4.png,trial_right_image,-1,exp4.png,1,exp3.png,exp4.png,0,2,non-reversed,incorrect,0.6651546468327014,0,valid_lose,130.88724809999985,10,,,,,,,,,,,,,sub_265,2023-12-13_16h47.38.598,Reversal,2023.1.3,60.043723839517185,1,
4,exp1.png,exp2.png,,1,0,1,0,0,4,4,4,,,,,,,,,,,,,,,,,,,,,,,,,False,24,25,True,exp2.png,exp1.png,trial_right_image,-1,exp1.png,1,exp1.png,exp2.png,1,3,reversed,correct,0.38376161998929925,1,valid_win,134.8860735999997,11,,,,,,,,,,,,,sub_265,2023-12-13_16h47.38.598,Reversal,2023.1.3,60.043723839517185,1,
5,exp3.png,exp4.png,,1,0,1,0,0,5,5,5,,,,,,,,,,,,,,,,,,,,,,,,,False,25,26,True,exp4.png,exp3.png,trial_left_image,1,exp4.png,1,exp3.png,exp4.png,0,2,non-reversed,incorrect,0.8014629993157613,0,valid_lose,138.78451180000047,11,,,,,,,,,,,,,sub_265,2023-12-13_16h47.38.598,Reversal,2023.1.3,60.043723839517185,1,
6,exp1.png,exp2.png,,1,0,1,0,0,6,6,6,,,,,,,,,,,,,,,,,,,,,,,,,False,26,27,True,exp2.png,exp1.png,trial_left_image,1,exp2.png,1,exp1.png,exp2.png,0,4,reversed,incorrect,0.6238104044708878,0,valid_lose,142.58367309999994,11,,,,,,,,,,,,,sub_265,2023-12-13_16h47.38.598,Reversal,2023.1.3,60.043723839517185,1,
7,exp3.png,exp4.png,,1,0,1,0,0,7,7,7,,,,,,,,,,,,,,,,,,,,,,,,,False,27,28,True,exp4.png,exp3.png,trial_left_image,1,exp4.png,1,exp3.png,exp4.png,0,2,non-reversed,incorrect,0.937498632675317,0,valid_lose,146.3656079000002,11,,,,,,,,,,,,,sub_265,2023-12-13_16h47.38.598,Reversal,2023.1.3,60.043723839517185,1,
8,exp1.png,exp2.png,,1,0,1,0,0,8,8,8,,,,,,,,,,,,,,,,,,,,,,,,,False,28,29,False,exp1.png,exp2.png,trial_right_image,-1,exp2.png,1,exp1.png,exp2.png,0,4,reversed,incorrect,0.45061925184115437,0,valid_lose,150.83056000000033,11,,,,,,,,,,,,,sub_265,2023-12-13_16h47.38.598,Reversal,2023.1.3,60.043723839517185,1,
9,exp3.png,exp4.png,,1,0,1,0,0,9,9,9,,,,,,,,,,,,,,,,,,,,,,,,,False,29,30,True,exp4.png,exp3.png,trial_left_image,1,exp4.png,1,exp3.png,exp4.png,0,2,non-reversed,incorrect,0.10079796797847662,1,invalid_win,154.58138570000028,12,,,,,,,,,,,,,sub_265,2023-12-13_16h47.38.598,Reversal,2023.1.3,60.043723839517185,1,
10,exp1.png,exp2.png,,1,0,1,0,0,10,10,10,,,,,,,,,,,,,,,,,,,,,,,,,False,30,31,True,exp2.png,exp1.png,trial_left_image,1,exp2.png,1,exp1.png,exp2.png,0,4,reversed,incorrect,0.777533037563587,0,valid_lose,158.91191040000012,12,,,,,,,,,,,,,sub_265,2023-12-13_16h47.38.598,Reversal,2023.1.3,60.043723839517185,1,
11,exp3.png,exp4.png,,1,0,1,0,0,11,11,11,,,,,,,,,,,,,,,,,,,,,,,,,False,31,32,True,exp4.png,exp3.png,trial_right_image,-1,exp3.png,1,exp3.png,exp4.png,1,1,non-reversed,correct,0.56474435562305,1,valid_win,162.74362870000004,13,,,,,,,,,,,,,sub_265,2023-12-13_16h47.38.598,Reversal,2023.1.3,60.043723839517185,1,
12,exp1.png,exp2.png,,1,0,1,0,0,12,12,12,,,,,,,,,,,,,,,,,,,,,,,,,False,32,33,False,exp1.png,exp2.png,trial_right_image,-1,exp2.png,1,exp1.png,exp2.png,0,4,reversed,incorrect,0.8879046029875597,0,valid_lose,166.7256212000002,13,,,,,,,,,,,,,sub_265,2023-12-13_16h47.38.598,Reversal,2023.1.3,60.043723839517185,1,
13,exp3.png,exp4.png,,1,0,1,0,0,13,13,13,,,,,,,,,,,,,,,,,,,,,,,,,False,33,34,False,exp3.png,exp4.png,trial_right_image,-1,exp4.png,1,exp3.png,exp4.png,0,2,non-reversed,incorrect,0.9747736340578588,0,valid_lose,170.62446240000008,13,,,,,,,,,,,,,sub_265,2023-12-13_16h47.38.598,Reversal,2023.1.3,60.043723839517185,1,
14,exp1.png,exp2.png,,1,0,1,0,0,14,14,14,,,,,,,,,,,,,,,,,,,,,,,,,False,34,35,False,exp1.png,exp2.png,trial_right_image,-1,exp2.png,1,exp1.png,exp2.png,0,4,reversed,incorrect,0.7429785003847243,0,valid_lose,174.80614090000017,13,,,,,,,,,,,,,sub_265,2023-12-13_16h47.38.598,Reversal,2023.1.3,60.043723839517185,1,
15,exp3.png,exp4.png,,1,0,1,0,0,15,15,15,,,,,,,,,,,,,,,,,,,,,,,,,False,35,36,False,exp3.png,exp4.png,trial_left_image,1,exp3.png,1,exp3.png,exp4.png,1,1,non-reversed,correct,0.6953054568630578,1,valid_win,177.79184030000033,14,,,,,,,,,,,,,sub_265,2023-12-13_16h47.38.598,Reversal,2023.1.3,60.043723839517185,1,
16,exp1.png,exp2.png,,1,0,1,0,0,16,16,16,,,,,,,,,,,,,,,,,,,,,,,,,False,36,37,True,exp2.png,exp1.png,trial_right_image,-1,exp1.png,1,exp1.png,exp2.png,1,3,reversed,correct,0.10544823962453964,0,invalid_lose,181.53722240000025,14,,,,,,,,,,,,,sub_265,2023-12-13_16h47.38.598,Reversal,2023.1.3,60.043723839517185,1,
17,exp3.png,exp4.png,,1,0,1,0,0,17,17,17,,,,,,,,,,,,,,,,,,,,,,,,,False,37,38,True,exp4.png,exp3.png,trial_left_image,1,exp4.png,1,exp3.png,exp4.png,0,2,non-reversed,incorrect,0.8318668002717317,0,valid_lose,184.55287250000038,14,,,,,,,,,,,,,sub_265,2023-12-13_16h47.38.598,Reversal,2023.1.3,60.043723839517185,1,
18,exp1.png,exp2.png,,1,0,1,0,0,18,18,18,,,,,,,,,,,,,,,,,,,,,,,,,False,38,39,False,exp1.png,exp2.png,trial_left_image,1,exp1.png,1,exp1.png,exp2.png,1,3,reversed,correct,0.5596204715183122,1,valid_win,187.5010725000002,15,,,,,,,,,,,,,sub_265,2023-12-13_16h47.38.598,Reversal,2023.1.3,60.043723839517185,1,
19,exp3.png,exp4.png,,1,0,1,0,0,19,19,19,,,,,,,,,,,,,,,,,,,,,,,,,False,39,40,True,exp4.png,exp3.png,trial_right_image,-1,exp3.png,1,exp3.png,exp4.png,1,1,non-reversed,correct,0.6244684134383675,1,valid_win,191.41715250000016,16,,,,,,,,,,,,,sub_265,2023-12-13_16h47.38.598,Reversal,2023.1.3,60.043723839517185,1,
20,exp1.png,exp2.png,,1,0,1,0,0,20,20,20,,,,,,,,,,,,,,,,,,,,,,,,,True,,,,,,,,,,,,,,,,,,,,,,,,,,,,,,,,,sub_265,2023-12-13_16h47.38.598,Reversal,2023.1.3,60.043723839517185,1,
,,,exp1.png,1,0,1,0,,,,,0,0,0,0,0,0,0,0,,,,,,,,,,,,,,,,,,,,,,,,,,,,,,,,,,,,,,265.68377640000017,None,None,[],,,,,,,,,sub_265,2023-12-13_16h47.38.598,Reversal,2023.1.3,60.043723839517185,1,
,,,exp2.png,1,0,1,0,,,,,0,0,0,0,0,1,1,1,,,,,,,,,,,,,,,,,,,,,,,,,,,,,,,,,,,,,,268.6640196999997,None,None,[],,,,,,,,,sub_265,2023-12-13_16h47.38.598,Reversal,2023.1.3,60.043723839517185,1,
,,,exp3.png,1,0,1,0,,,,,0,0,0,0,0,2,2,2,,,,,,,,,,,,,,,,,,,,,,,,,,,,,,,,,,,,,,269.75486360000014,None,None,[],,,,,,,,,sub_265,2023-12-13_16h47.38.598,Reversal,2023.1.3,60.043723839517185,1,
,,,exp4.png,1,0,1,0,,,,,0,0,0,0,0,3,3,3,,,,,,,,,,,,,,,,,,,,,,,,,,,,,,,,,,,,,,270.77925199999936,None,None,[],,,,,,,,,sub_265,2023-12-13_16h47.38.598,Reversal,2023.1.3,60.043723839517185,1,
0,exp1.png,exp2.png,,2,0,2,0,0,0,0,0,,,,,,,,,,,,,,,,,,,,,,,,,False,40,41,False,exp1.png,exp2.png,trial_right_image,-1,exp2.png,1,exp1.png,exp2.png,0,4,reversed,incorrect,0.7119346297764146,0,valid_lose,201.83030320000034,16,,,,,,,,,,,,,sub_265,2023-12-13_16h47.38.598,Reversal,2023.1.3,60.043723839517185,1,
1,exp3.png,exp4.png,,2,0,2,0,0,1,1,1,,,,,,,,,,,,,,,,,,,,,,,,,False,41,42,False,exp3.png,exp4.png,trial_left_image,1,exp3.png,1,exp3.png,exp4.png,1,1,non-reversed,correct,0.3606869003190516,1,valid_win,205.21208959999967,17,,,,,,,,,,,,,sub_265,2023-12-13_16h47.38.598,Reversal,2023.1.3,60.043723839517185,1,
2,exp1.png,exp2.png,,2,0,2,0,0,2,2,2,,,,,,,,,,,,,,,,,,,,,,,,,False,42,43,True,exp2.png,exp1.png,trial_left_image,1,exp2.png,1,exp1.png,exp2.png,0,4,reversed,incorrect,0.582371816316902,0,valid_lose,209.0445023000002,17,,,,,,,,,,,,,sub_265,2023-12-13_16h47.38.598,Reversal,2023.1.3,60.043723839517185,1,
3,exp3.png,exp4.png,,2,0,2,0,0,3,3,3,,,,,,,,,,,,,,,,,,,,,,,,,False,43,44,False,exp3.png,exp4.png,trial_left_image,1,exp3.png,1,exp3.png,exp4.png,1,1,non-reversed,correct,0.03050146383751451,0,invalid_lose,212.42618690000018,17,,,,,,,,,,,,,sub_265,2023-12-13_16h47.38.598,Reversal,2023.1.3,60.043723839517185,1,
4,exp1.png,exp2.png,,2,0,2,0,0,4,4,4,,,,,,,,,,,,,,,,,,,,,,,,,False,44,45,True,exp2.png,exp1.png,trial_right_image,-1,exp1.png,1,exp1.png,exp2.png,1,3,reversed,correct,0.17860576131963346,0,invalid_lose,215.72496159999992,17,,,,,,,,,,,,,sub_265,2023-12-13_16h47.38.598,Reversal,2023.1.3,60.043723839517185,1,
5,exp3.png,exp4.png,,2,0,2,0,0,5,5,5,,,,,,,,,,,,,,,,,,,,,,,,,False,45,46,False,exp3.png,exp4.png,trial_right_image,-1,exp4.png,1,exp3.png,exp4.png,0,2,non-reversed,incorrect,0.7849409196454195,0,valid_lose,218.8451925999998,17,,,,,,,,,,,,,sub_265,2023-12-13_16h47.38.598,Reversal,2023.1.3,60.043723839517185,1,
6,exp1.png,exp2.png,,2,0,2,0,0,6,6,6,,,,,,,,,,,,,,,,,,,,,,,,,False,46,47,True,exp2.png,exp1.png,trial_right_image,-1,exp1.png,1,exp1.png,exp2.png,1,3,reversed,correct,0.023087790659570895,0,invalid_lose,221.80638259999978,17,,,,,,,,,,,,,sub_265,2023-12-13_16h47.38.598,Reversal,2023.1.3,60.043723839517185,1,
7,exp3.png,exp4.png,,2,0,2,0,0,7,7,7,,,,,,,,,,,,,,,,,,,,,,,,,False,47,48,False,exp3.png,exp4.png,trial_right_image,-1,exp4.png,1,exp3.png,exp4.png,0,2,non-reversed,incorrect,0.9087417105299489,0,valid_lose,224.77218730000004,17,,,,,,,,,,,,,sub_265,2023-12-13_16h47.38.598,Reversal,2023.1.3,60.043723839517185,1,
8,exp1.png,exp2.png,,2,0,2,0,0,8,8,8,,,,,,,,,,,,,,,,,,,,,,,,,False,48,49,True,exp2.png,exp1.png,trial_left_image,1,exp2.png,1,exp1.png,exp2.png,0,4,reversed,incorrect,0.8689762804387005,0,valid_lose,227.7546755000003,17,,,,,,,,,,,,,sub_265,2023-12-13_16h47.38.598,Reversal,2023.1.3,60.043723839517185,1,
9,exp3.png,exp4.png,,2,0,2,0,0,9,9,9,,,,,,,,,,,,,,,,,,,,,,,,,False,49,50,True,exp4.png,exp3.png,trial_left_image,1,exp4.png,1,exp3.png,exp4.png,0,2,non-reversed,incorrect,0.0011377565220305197,1,invalid_win,231.5538862000003,18,,,,,,,,,,,,,sub_265,2023-12-13_16h47.38.598,Reversal,2023.1.3,60.043723839517185,1,
10,exp1.png,exp2.png,,2,0,2,0,0,10,10,10,,,,,,,,,,,,,,,,,,,,,,,,,False,50,51,False,exp1.png,exp2.png,trial_left_image,1,exp1.png,1,exp1.png,exp2.png,1,3,reversed,correct,0.5448723030485614,1,valid_win,235.73507400000017,19,,,,,,,,,,,,,sub_265,2023-12-13_16h47.38.598,Reversal,2023.1.3,60.043723839517185,1,
11,exp3.png,exp4.png,,2,0,2,0,0,11,11,11,,,,,,,,,,,,,,,,,,,,,,,,,False,51,52,True,exp4.png,exp3.png,trial_right_image,-1,exp3.png,1,exp3.png,exp4.png,1,1,non-reversed,correct,0.0881541090291349,0,invalid_lose,239.60101810000015,19,,,,,,,,,,,,,sub_265,2023-12-13_16h47.38.598,Reversal,2023.1.3,60.043723839517185,1,
12,exp1.png,exp2.png,,2,0,2,0,0,12,12,12,,,,,,,,,,,,,,,,,,,,,,,,,False,52,53,True,exp2.png,exp1.png,trial_left_image,1,exp2.png,1,exp1.png,exp2.png,0,4,reversed,incorrect,0.9444685776228859,0,valid_lose,243.46612660000028,19,,,,,,,,,,,,,sub_265,2023-12-13_16h47.38.598,Reversal,2023.1.3,60.043723839517185,1,
13,exp3.png,exp4.png,,2,0,2,0,0,13,13,13,,,,,,,,,,,,,,,,,,,,,,,,,False,53,54,False,exp3.png,exp4.png,trial_left_image,1,exp3.png,1,exp3.png,exp4.png,1,1,non-reversed,correct,0.25626710883598725,1,valid_win,246.5851204999999,20,,,,,,,,,,,,,sub_265,2023-12-13_16h47.38.598,Reversal,2023.1.3,60.043723839517185,1,
14,exp1.png,exp2.png,,2,0,2,0,0,14,14,14,,,,,,,,,,,,,,,,,,,,,,,,,False,54,55,False,exp1.png,exp2.png,trial_right_image,-1,exp2.png,1,exp1.png,exp2.png,0,4,reversed,incorrect,0.9559179205002315,0,valid_lose,250.91355610000028,20,,,,,,,,,,,,,sub_265,2023-12-13_16h47.38.598,Reversal,2023.1.3,60.043723839517185,1,
15,exp3.png,exp4.png,,2,0,2,0,0,15,15,15,,,,,,,,,,,,,,,,,,,,,,,,,False,55,56,True,exp4.png,exp3.png,trial_left_image,1,exp4.png,1,exp3.png,exp4.png,0,2,non-reversed,incorrect,0.1915208270804254,1,invalid_win,254.76259260000006,21,,,,,,,,,,,,,sub_265,2023-12-13_16h47.38.598,Reversal,2023.1.3,60.043723839517185,1,
16,exp1.png,exp2.png,,2,0,2,0,0,16,16,16,,,,,,,,,,,,,,,,,,,,,,,,,False,56,57,True,exp2.png,exp1.png,trial_left_image,1,exp2.png,1,exp1.png,exp2.png,0,4,reversed,incorrect,0.5242834047967088,0,valid_lose,258.6610105,21,,,,,,,,,,,,,sub_265,2023-12-13_16h47.38.598,Reversal,2023.1.3,60.043723839517185,1,
17,exp3.png,exp4.png,,2,0,2,0,0,17,17,17,,,,,,,,,,,,,,,,,,,,,,,,,False,57,58,True,exp4.png,exp3.png,trial_left_image,1,exp4.png,1,exp3.png,exp4.png,0,2,non-reversed,incorrect,0.008403242146088674,1,invalid_win,262.40984500000013,22,,,,,,,,,,,,,sub_265,2023-12-13_16h47.38.598,Reversal,2023.1.3,60.043723839517185,1,
18,exp1.png,exp2.png,,2,0,2,0,0,18,18,18,,,,,,,,,,,,,,,,,,,,,,,,,False,58,59,False,exp1.png,exp2.png,trial_right_image,-1,exp2.png,1,exp1.png,exp2.png,0,4,reversed,incorrect,0.45158316235309803,0,valid_lose,266.12525949999963,22,,,,,,,,,,,,,sub_265,2023-12-13_16h47.38.598,Reversal,2023.1.3,60.043723839517185,1,
19,exp3.png,exp4.png,,2,0,2,0,0,19,19,19,,,,,,,,,,,,,,,,,,,,,,,,,False,59,60,False,exp3.png,exp4.png,trial_right_image,-1,exp4.png,1,exp3.png,exp4.png,0,2,non-reversed,incorrect,0.6918352965421427,0,valid_lose,269.3938742,22,,,,,,,,,,,,,sub_265,2023-12-13_16h47.38.598,Reversal,2023.1.3,60.043723839517185,1,
20,exp1.png,exp2.png,,2,0,2,0,0,20,20,20,,,,,,,,,,,,,,,,,,,,,,,,,True,,,,,,,,,,,,,,,,,,,,,,,,,,,,,,,,,sub_265,2023-12-13_16h47.38.598,Reversal,2023.1.3,60.043723839517185,1,
,,,exp1.png,2,0,2,0,,,,,0,0,0,0,0,0,0,0,,,,,,,,,,,,,,,,,,,,,,,,,,,,,,,,,,,,,,343.66832819999945,None,None,[],,,,,,,,,sub_265,2023-12-13_16h47.38.598,Reversal,2023.1.3,60.043723839517185,1,
,,,exp2.png,2,0,2,0,,,,,0,0,0,0,0,1,1,1,,,,,,,,,,,,,,,,,,,,,,,,,,,,,,,,,,,,,,345.6079340999995,None,None,[],,,,,,,,,sub_265,2023-12-13_16h47.38.598,Reversal,2023.1.3,60.043723839517185,1,
,,,exp3.png,2,0,2,0,,,,,0,0,0,0,0,2,2,2,,,,,,,,,,,,,,,,,,,,,,,,,,,,,,,,,,,,,,346.0220056999997,None,None,[],,,,,,,,,sub_265,2023-12-13_16h47.38.598,Reversal,2023.1.3,60.043723839517185,1,
,,,exp4.png,2,0,2,0,,,,,0,0,0,0,0,3,3,3,,,,,,,,,,,,,,,,,,,,,,,,,,,,,,,,,,,,,,346.42707939999946,None,None,[],,,,,,,,,sub_265,2023-12-13_16h47.38.598,Reversal,2023.1.3,60.043723839517185,1,
0,exp1.png,exp2.png,,3,0,3,0,0,0,0,0,,,,,,,,,,,,,,,,,,,,,,,,,False,60,61,True,exp2.png,exp1.png,trial_right_image,-1,exp1.png,1,exp1.png,exp2.png,1,3,reversed,correct,0.19322282945338298,0,invalid_lose,276.67211659999975,22,,,,,,,,,,,,,sub_265,2023-12-13_16h47.38.598,Reversal,2023.1.3,60.043723839517185,1,
1,exp3.png,exp4.png,,3,0,3,0,0,1,1,1,,,,,,,,,,,,,,,,,,,,,,,,,False,61,62,True,exp4.png,exp3.png,trial_left_image,1,exp4.png,1,exp3.png,exp4.png,0,2,non-reversed,incorrect,0.6644781316387153,0,valid_lose,279.83673329999965,22,,,,,,,,,,,,,sub_265,2023-12-13_16h47.38.598,Reversal,2023.1.3,60.043723839517185,1,
2,exp1.png,exp2.png,,3,0,3,0,0,2,2,2,,,,,,,,,,,,,,,,,,,,,,,,,False,62,63,False,exp1.png,exp2.png,trial_left_image,1,exp1.png,1,exp1.png,exp2.png,1,3,reversed,correct,0.8170972718123376,1,valid_win,282.83576449999964,23,,,,,,,,,,,,,sub_265,2023-12-13_16h47.38.598,Reversal,2023.1.3,60.043723839517185,1,
3,exp3.png,exp4.png,,3,0,3,0,0,3,3,3,,,,,,,,,,,,,,,,,,,,,,,,,False,63,64,False,exp3.png,exp4.png,trial_left_image,1,exp3.png,1,exp3.png,exp4.png,1,1,non-reversed,correct,0.20532036493730021,0,invalid_lose,286.63489430000027,23,,,,,,,,,,,,,sub_265,2023-12-13_16h47.38.598,Reversal,2023.1.3,60.043723839517185,1,
4,exp1.png,exp2.png,,3,0,3,0,0,4,4,4,,,,,,,,,,,,,,,,,,,,,,,,,False,64,65,False,exp1.png,exp2.png,trial_left_image,1,exp1.png,1,exp1.png,exp2.png,1,3,reversed,correct,0.9355830808721171,1,valid_win,290.3837822000005,24,,,,,,,,,,,,,sub_265,2023-12-13_16h47.38.598,Reversal,2023.1.3,60.043723839517185,1,
5,exp3.png,exp4.png,,3,0,3,0,0,5,5,5,,,,,,,,,,,,,,,,,,,,,,,,,False,65,66,True,exp4.png,exp3.png,trial_right_image,-1,exp3.png,1,exp3.png,exp4.png,1,1,non-reversed,correct,0.25980327614714205,1,valid_win,294.24892180000006,25,,,,,,,,,,,,,sub_265,2023-12-13_16h47.38.598,Reversal,2023.1.3,60.043723839517185,1,
6,exp1.png,exp2.png,,3,0,3,0,0,6,6,6,,,,,,,,,,,,,,,,,,,,,,,,,False,66,67,True,exp2.png,exp1.png,trial_right_image,-1,exp1.png,1,exp1.png,exp2.png,1,3,reversed,correct,0.6080670642939908,1,valid_win,298.0479611999999,26,,,,,,,,,,,,,sub_265,2023-12-13_16h47.38.598,Reversal,2023.1.3,60.043723839517185,1,
7,exp3.png,exp4.png,,3,0,3,0,0,7,7,7,,,,,,,,,,,,,,,,,,,,,,,,,False,67,68,True,exp4.png,exp3.png,trial_left_image,1,exp4.png,1,exp3.png,exp4.png,0,2,non-reversed,incorrect,0.8270632648606647,0,valid_lose,301.77964989999964,26,,,,,,,,,,,,,sub_265,2023-12-13_16h47.38.598,Reversal,2023.1.3,60.043723839517185,1,
8,exp1.png,exp2.png,,3,0,3,0,0,8,8,8,,,,,,,,,,,,,,,,,,,,,,,,,False,68,69,False,exp1.png,exp2.png,trial_right_image,-1,exp2.png,1,exp1.png,exp2.png,0,4,reversed,incorrect,0.08072378411687864,1,invalid_win,304.7995711000003,27,,,,,,,,,,,,,sub_265,2023-12-13_16h47.38.598,Reversal,2023.1.3,60.043723839517185,1,
9,exp3.png,exp4.png,,3,0,3,0,0,9,9,9,,,,,,,,,,,,,,,,,,,,,,,,,False,69,70,True,exp4.png,exp3.png,trial_right_image,-1,exp3.png,1,exp3.png,exp4.png,1,1,non-reversed,correct,0.02041274868872589,0,invalid_lose,309.2109562000005,27,,,,,,,,,,,,,sub_265,2023-12-13_16h47.38.598,Reversal,2023.1.3,60.043723839517185,1,
10,exp1.png,exp2.png,,3,0,3,0,0,10,10,10,,,,,,,,,,,,,,,,,,,,,,,,,False,70,71,False,exp1.png,exp2.png,trial_right_image,-1,exp2.png,1,exp1.png,exp2.png,0,4,reversed,incorrect,0.03962381103163781,1,invalid_win,312.2958316000004,28,,,,,,,,,,,,,sub_265,2023-12-13_16h47.38.598,Reversal,2023.1.3,60.043723839517185,1,
11,exp3.png,exp4.png,,3,0,3,0,0,11,11,11,,,,,,,,,,,,,,,,,,,,,,,,,False,71,72,False,exp3.png,exp4.png,trial_left_image,1,exp3.png,1,exp3.png,exp4.png,1,1,non-reversed,correct,0.42600253847351066,1,valid_win,315.2585095000004,29,,,,,,,,,,,,,sub_265,2023-12-13_16h47.38.598,Reversal,2023.1.3,60.043723839517185,1,
12,exp1.png,exp2.png,,3,0,3,0,0,12,12,12,,,,,,,,,,,,,,,,,,,,,,,,,False,72,73,False,exp1.png,exp2.png,trial_left_image,1,exp1.png,1,exp1.png,exp2.png,1,3,reversed,correct,0.9236161228993445,1,valid_win,318.4416210999998,30,,,,,,,,,,,,,sub_265,2023-12-13_16h47.38.598,Reversal,2023.1.3,60.043723839517185,1,
13,exp3.png,exp4.png,,3,0,3,0,0,13,13,13,,,,,,,,,,,,,,,,,,,,,,,,,False,73,74,True,exp4.png,exp3.png,trial_left_image,1,exp4.png,1,exp3.png,exp4.png,0,2,non-reversed,incorrect,0.4691858882631774,0,valid_lose,321.4731142999999,30,,,,,,,,,,,,,sub_265,2023-12-13_16h47.38.598,Reversal,2023.1.3,60.043723839517185,1,
14,exp1.png,exp2.png,,3,0,3,0,0,14,14,14,,,,,,,,,,,,,,,,,,,,,,,,,False,74,75,True,exp2.png,exp1.png,trial_right_image,-1,exp1.png,1,exp1.png,exp2.png,1,3,reversed,correct,0.12059046702030829,0,invalid_lose,324.72532500000034,30,,,,,,,,,,,,,sub_265,2023-12-13_16h47.38.598,Reversal,2023.1.3,60.043723839517185,1,
15,exp3.png,exp4.png,,3,0,3,0,0,15,15,15,,,,,,,,,,,,,,,,,,,,,,,,,False,75,76,True,exp4.png,exp3.png,trial_left_image,1,exp4.png,1,exp3.png,exp4.png,0,2,non-reversed,incorrect,0.7579579798074481,0,valid_lose,328.4871866000003,30,,,,,,,,,,,,,sub_265,2023-12-13_16h47.38.598,Reversal,2023.1.3,60.043723839517185,1,
16,exp1.png,exp2.png,,3,0,3,0,0,16,16,16,,,,,,,,,,,,,,,,,,,,,,,,,False,76,77,False,exp1.png,exp2.png,trial_left_image,1,exp1.png,1,exp1.png,exp2.png,1,3,reversed,correct,0.19626255513715418,0,invalid_lose,332.9695935,30,,,,,,,,,,,,,sub_265,2023-12-13_16h47.38.598,Reversal,2023.1.3,60.043723839517185,1,
17,exp3.png,exp4.png,,3,0,3,0,0,17,17,17,,,,,,,,,,,,,,,,,,,,,,,,,False,77,78,True,exp4.png,exp3.png,trial_left_image,1,exp4.png,1,exp3.png,exp4.png,0,2,non-reversed,incorrect,0.39409617024184096,0,valid_lose,336.85103340000023,30,,,,,,,,,,,,,sub_265,2023-12-13_16h47.38.598,Reversal,2023.1.3,60.043723839517185,1,
18,exp1.png,exp2.png,,3,0,3,0,0,18,18,18,,,,,,,,,,,,,,,,,,,,,,,,,False,78,79,False,exp1.png,exp2.png,trial_left_image,1,exp1.png,1,exp1.png,exp2.png,1,3,reversed,correct,0.6428457060687048,1,valid_win,340.6333235000002,31,,,,,,,,,,,,,sub_265,2023-12-13_16h47.38.598,Reversal,2023.1.3,60.043723839517185,1,
19,exp3.png,exp4.png,,3,0,3,0,0,19,19,19,,,,,,,,,,,,,,,,,,,,,,,,,False,79,80,False,exp3.png,exp4.png,trial_right_image,-1,exp4.png,1,exp3.png,exp4.png,0,2,non-reversed,incorrect,0.02751010597409731,1,invalid_win,344.3988562000004,32,,,,,,,,,,,,,sub_265,2023-12-13_16h47.38.598,Reversal,2023.1.3,60.043723839517185,1,
20,exp1.png,exp2.png,,3,0,3,0,0,20,20,20,,,,,,,,,,,,,,,,,,,,,,,,,True,,,,,,,,,,,,,,,,,,,,,,,,,,,,,,,,,sub_265,2023-12-13_16h47.38.598,Reversal,2023.1.3,60.043723839517185,1,
,,,exp1.png,3,0,3,0,,,,,0,0,0,0,0,0,0,0,,,,,,,,,,,,,,,,,,,,,,,,,,,,,,,,,,,,,,418.6729865999996,None,None,[],,,,,,,,,sub_265,2023-12-13_16h47.38.598,Reversal,2023.1.3,60.043723839517185,1,
,,,exp2.png,3,0,3,0,,,,,0,0,0,0,0,1,1,1,,,,,,,,,,,,,,,,,,,,,,,,,,,,,,,,,,,,,,420.4997145999996,None,None,[],,,,,,,,,sub_265,2023-12-13_16h47.38.598,Reversal,2023.1.3,60.043723839517185,1,
,,,exp3.png,3,0,3,0,,,,,0,0,0,0,0,2,2,2,,,,,,,,,,,,,,,,,,,,,,,,,,,,,,,,,,,,,,420.9763058999997,None,None,[],,,,,,,,,sub_265,2023-12-13_16h47.38.598,Reversal,2023.1.3,60.043723839517185,1,
,,,exp4.png,3,0,3,0,,,,,0,0,0,0,0,3,3,3,,,,,,,,,,,,,,,,,,,,,,,,,,,,,,,,,,,,,,421.44578209999963,None,None,[],,,,,,,,,sub_265,2023-12-13_16h47.38.598,Reversal,2023.1.3,60.043723839517185,1,
0,exp1.png,exp2.png,,,,,,,,,,,,,,,,,,0,0,0,0,0,0,0,0,,,,,,,,,False,0,81,True,exp2.png,exp1.png,trial_left_image,1,exp2.png,1,exp2.png,exp1.png,0,4,reversed,correct,0.6852185426213977,1,valid_win,352.44609200000014,33,,,,,,,350.75193500000023,,,,,,sub_265,2023-12-13_16h47.38.598,Reversal,2023.1.3,60.043723839517185,1,
1,exp3.png,exp4.png,,,,,,,,,,,,,,,,,,0,0,0,0,0,1,1,1,,,,,,,,,False,1,82,True,exp4.png,exp3.png,trial_right_image,-1,exp3.png,1,exp3.png,exp4.png,1,1,non-reversed,correct,0.907853071153298,1,valid_win,356.1945730999996,34,,,,,,,,,,,,,sub_265,2023-12-13_16h47.38.598,Reversal,2023.1.3,60.043723839517185,1,
2,exp1.png,exp2.png,,,,,,,,,,,,,,,,,,0,0,0,0,0,2,2,2,,,,,,,,,False,2,83,True,exp2.png,exp1.png,trial_left_image,1,exp2.png,1,exp2.png,exp1.png,0,4,reversed,correct,0.8304708136291525,1,valid_win,359.97623870000007,35,,,,,,,,,,,,,sub_265,2023-12-13_16h47.38.598,Reversal,2023.1.3,60.043723839517185,1,
3,exp3.png,exp4.png,,,,,,,,,,,,,,,,,,0,0,0,0,0,3,3,3,,,,,,,,,False,3,84,False,exp3.png,exp4.png,trial_right_image,-1,exp4.png,1,exp3.png,exp4.png,0,2,non-reversed,incorrect,0.9220944581742264,0,valid_lose,363.7924286999996,35,,,,,,,,,,,,,sub_265,2023-12-13_16h47.38.598,Reversal,2023.1.3,60.043723839517185,1,
4,exp1.png,exp2.png,,,,,,,,,,,,,,,,,,0,0,0,0,0,4,4,4,,,,,,,,,False,4,85,True,exp2.png,exp1.png,trial_right_image,-1,exp1.png,1,exp2.png,exp1.png,1,3,reversed,incorrect,0.8519161529886382,0,valid_lose,367.62671580000006,35,,,,,,,,,,,,,sub_265,2023-12-13_16h47.38.598,Reversal,2023.1.3,60.043723839517185,1,
5,exp3.png,exp4.png,,,,,,,,,,,,,,,,,,0,0,0,0,0,5,5,5,,,,,,,,,False,5,86,True,exp4.png,exp3.png,trial_right_image,-1,exp3.png,1,exp3.png,exp4.png,1,1,non-reversed,correct,0.31849885685055046,1,valid_win,370.5895276000001,36,,,,,,,,,,,,,sub_265,2023-12-13_16h47.38.598,Reversal,2023.1.3,60.043723839517185,1,
6,exp1.png,exp2.png,,,,,,,,,,,,,,,,,,0,0,0,0,0,6,6,6,,,,,,,,,False,6,87,True,exp2.png,exp1.png,trial_right_image,-1,exp1.png,1,exp2.png,exp1.png,1,3,reversed,incorrect,0.35936661104010925,0,valid_lose,373.65484689999994,36,,,,,,,,,,,,,sub_265,2023-12-13_16h47.38.598,Reversal,2023.1.3,60.043723839517185,1,
7,exp3.png,exp4.png,,,,,,,,,,,,,,,,,,0,0,0,0,0,7,7,7,,,,,,,,,False,7,88,False,exp3.png,exp4.png,trial_left_image,1,exp3.png,1,exp3.png,exp4.png,1,1,non-reversed,correct,0.7437577633382639,1,valid_win,377.8536409999997,37,,,,,,,,,,,,,sub_265,2023-12-13_16h47.38.598,Reversal,2023.1.3,60.043723839517185,1,
8,exp1.png,exp2.png,,,,,,,,,,,,,,,,,,0,0,0,0,0,8,8,8,,,,,,,,,False,8,89,True,exp2.png,exp1.png,trial_left_image,1,exp2.png,1,exp2.png,exp1.png,0,4,reversed,correct,0.3809747164049483,1,valid_win,381.40498949999983,38,,,,,,,,,,,,,sub_265,2023-12-13_16h47.38.598,Reversal,2023.1.3,60.043723839517185,1,
9,exp3.png,exp4.png,,,,,,,,,,,,,,,,,,0,0,0,0,0,9,9,9,,,,,,,,,False,9,90,True,exp4.png,exp3.png,trial_left_image,1,exp4.png,1,exp3.png,exp4.png,0,2,non-reversed,incorrect,0.37481190338477655,0,valid_lose,385.2512649999999,38,,,,,,,,,,,,,sub_265,2023-12-13_16h47.38.598,Reversal,2023.1.3,60.043723839517185,1,
10,exp1.png,exp2.png,,,,,,,,,,,,,,,,,,0,0,0,0,0,10,10,10,,,,,,,,,False,10,91,False,exp1.png,exp2.png,trial_right_image,-1,exp2.png,1,exp2.png,exp1.png,0,4,reversed,correct,0.1382619879413738,0,invalid_lose,388.2669440999998,38,,,,,,,,,,,,,sub_265,2023-12-13_16h47.38.598,Reversal,2023.1.3,60.043723839517185,1,
11,exp3.png,exp4.png,,,,,,,,,,,,,,,,,,0,0,0,0,0,11,11,11,,,,,,,,,False,11,92,False,exp3.png,exp4.png,trial_right_image,-1,exp4.png,1,exp3.png,exp4.png,0,2,non-reversed,incorrect,0.7396434187000215,0,valid_lose,391.4373317999998,38,,,,,,,,,,,,,sub_265,2023-12-13_16h47.38.598,Reversal,2023.1.3,60.043723839517185,1,
12,exp1.png,exp2.png,,,,,,,,,,,,,,,,,,0,0,0,0,0,12,12,12,,,,,,,,,False,12,93,False,exp1.png,exp2.png,trial_right_image,-1,exp2.png,1,exp2.png,exp1.png,0,4,reversed,correct,0.9958571886170082,1,valid_win,394.49793279999994,39,,,,,,,,,,,,,sub_265,2023-12-13_16h47.38.598,Reversal,2023.1.3,60.043723839517185,1,
13,exp3.png,exp4.png,,,,,,,,,,,,,,,,,,0,0,0,0,0,13,13,13,,,,,,,,,False,13,94,False,exp3.png,exp4.png,trial_left_image,1,exp3.png,1,exp3.png,exp4.png,1,1,non-reversed,correct,0.8949821067350583,1,valid_win,398.66337120000026,40,,,,,,,,,,,,,sub_265,2023-12-13_16h47.38.598,Reversal,2023.1.3,60.043723839517185,1,
14,exp1.png,exp2.png,,,,,,,,,,,,,,,,,,0,0,0,0,0,14,14,14,,,,,,,,,False,14,95,False,exp1.png,exp2.png,trial_right_image,-1,exp2.png,1,exp2.png,exp1.png,0,4,reversed,correct,0.43249434490800565,1,valid_win,401.64559160000044,41,,,,,,,,,,,,,sub_265,2023-12-13_16h47.38.598,Reversal,2023.1.3,60.043723839517185,1,
15,exp3.png,exp4.png,,,,,,,,,,,,,,,,,,0,0,0,0,0,15,15,15,,,,,,,,,False,15,96,False,exp3.png,exp4.png,trial_left_image,1,exp3.png,1,exp3.png,exp4.png,1,1,non-reversed,correct,0.849759012660536,1,valid_win,405.0956292999999,42,,,,,,,,,,,,,sub_265,2023-12-13_16h47.38.598,Reversal,2023.1.3,60.043723839517185,1,
16,exp1.png,exp2.png,,,,,,,,,,,,,,,,,,0,0,0,0,0,16,16,16,,,,,,,,,False,16,97,False,exp1.png,exp2.png,trial_left_image,1,exp1.png,1,exp2.png,exp1.png,1,3,reversed,incorrect,0.6544396148886052,0,valid_lose,409.11012200000005,42,,,,,,,,,,,,,sub_265,2023-12-13_16h47.38.598,Reversal,2023.1.3,60.043723839517185,1,
17,exp3.png,exp4.png,,,,,,,,,,,,,,,,,,0,0,0,0,0,17,17,17,,,,,,,,,False,17,98,True,exp4.png,exp3.png,trial_right_image,-1,exp3.png,1,exp3.png,exp4.png,1,1,non-reversed,correct,0.01787672331446899,0,invalid_lose,412.92581280000013,42,,,,,,,,,,,,,sub_265,2023-12-13_16h47.38.598,Reversal,2023.1.3,60.043723839517185,1,
18,exp1.png,exp2.png,,,,,,,,,,,,,,,,,,0,0,0,0,0,18,18,18,,,,,,,,,False,18,99,False,exp1.png,exp2.png,trial_right_image,-1,exp2.png,1,exp2.png,exp1.png,0,4,reversed,correct,0.94132688863335,1,valid_win,416.7582031000002,43,,,,,,,,,,,,,sub_265,2023-12-13_16h47.38.598,Reversal,2023.1.3,60.043723839517185,1,
19,exp3.png,exp4.png,,,,,,,,,,,,,,,,,,0,0,0,0,0,19,19,19,,,,,,,,,False,19,100,True,exp4.png,exp3.png,trial_left_image,1,exp4.png,1,exp3.png,exp4.png,0,2,non-reversed,incorrect,0.5785080969708285,0,valid_lose,420.6898514000004,43,,,,,,,,,,,,,sub_265,2023-12-13_16h47.38.598,Reversal,2023.1.3,60.043723839517185,1,
20,exp1.png,exp2.png,,,,,,,,,,,,,,,,,,0,0,0,0,0,20,20,20,,,,,,,,,True,,,,,,,,,,,,,,,,,,,,,,,,,,,,,,,,,sub_265,2023-12-13_16h47.38.598,Reversal,2023.1.3,60.043723839517185,1,
,,,exp1.png,,,,,,,,,,,,,,,,,0,0,0,0,,,,,0,0,0,0,0,0,0,0,,,,,,,,,,,,,,,,,,,,,,494.9763241999999,None,None,[],,,,,,,,,sub_265,2023-12-13_16h47.38.598,Reversal,2023.1.3,60.043723839517185,1,
,,,exp2.png,,,,,,,,,,,,,,,,,0,0,0,0,,,,,0,0,0,0,0,1,1,1,,,,,,,,,,,,,,,,,,,,,,496.85643439999967,None,None,[],,,,,,,,,sub_265,2023-12-13_16h47.38.598,Reversal,2023.1.3,60.043723839517185,1,
,,,exp3.png,,,,,,,,,,,,,,,,,0,0,0,0,,,,,0,0,0,0,0,2,2,2,,,,,,,,,,,,,,,,,,,,,,497.2403255999998,None,None,[],,,,,,,,,sub_265,2023-12-13_16h47.38.598,Reversal,2023.1.3,60.043723839517185,1,
,,,exp4.png,,,,,,,,,,,,,,,,,0,0,0,0,,,,,0,0,0,0,0,3,3,3,,,,,,,,,,,,,,,,,,,,,,497.6570058999996,None,None,[],,,,,,,,,sub_265,2023-12-13_16h47.38.598,Reversal,2023.1.3,60.043723839517185,1,
0,exp1.png,exp2.png,,,,,,,,,,,,,,,,,,1,0,1,0,0,0,0,0,,,,,,,,,False,20,101,True,exp2.png,exp1.png,trial_right_image,-1,exp1.png,1,exp2.png,exp1.png,1,3,reversed,incorrect,0.5926672485545045,0,valid_lose,427.73746870000014,43,,,,,,,,,,,,,sub_265,2023-12-13_16h47.38.598,Reversal,2023.1.3,60.043723839517185,1,
1,exp3.png,exp4.png,,,,,,,,,,,,,,,,,,1,0,1,0,0,1,1,1,,,,,,,,,False,21,102,False,exp3.png,exp4.png,trial_right_image,-1,exp4.png,1,exp3.png,exp4.png,0,2,non-reversed,incorrect,0.19914166616459827,1,invalid_win,431.4861311000004,44,,,,,,,,,,,,,sub_265,2023-12-13_16h47.38.598,Reversal,2023.1.3,60.043723839517185,1,
2,exp1.png,exp2.png,,,,,,,,,,,,,,,,,,1,0,1,0,0,2,2,2,,,,,,,,,False,22,103,False,exp1.png,exp2.png,trial_left_image,1,exp1.png,1,exp2.png,exp1.png,1,3,reversed,incorrect,0.4355438290904312,0,valid_lose,435.31752680000045,44,,,,,,,,,,,,,sub_265,2023-12-13_16h47.38.598,Reversal,2023.1.3,60.043723839517185,1,
3,exp3.png,exp4.png,,,,,,,,,,,,,,,,,,1,0,1,0,0,3,3,3,,,,,,,,,False,23,104,False,exp3.png,exp4.png,trial_right_image,-1,exp4.png,1,exp3.png,exp4.png,0,2,non-reversed,incorrect,0.466953638801489,0,valid_lose,438.30067750000035,44,,,,,,,,,,,,,sub_265,2023-12-13_16h47.38.598,Reversal,2023.1.3,60.043723839517185,1,
4,exp1.png,exp2.png,,,,,,,,,,,,,,,,,,1,0,1,0,0,4,4,4,,,,,,,,,False,24,105,True,exp2.png,exp1.png,trial_right_image,-1,exp1.png,1,exp2.png,exp1.png,1,3,reversed,incorrect,0.2310584763683663,1,invalid_win,441.3657591000001,45,,,,,,,,,,,,,sub_265,2023-12-13_16h47.38.598,Reversal,2023.1.3,60.043723839517185,1,
5,exp3.png,exp4.png,,,,,,,,,,,,,,,,,,1,0,1,0,0,5,5,5,,,,,,,,,False,25,106,False,exp3.png,exp4.png,trial_right_image,-1,exp4.png,1,exp3.png,exp4.png,0,2,non-reversed,incorrect,0.35455314236976687,0,valid_lose,444.35587959999975,45,,,,,,,,,,,,,sub_265,2023-12-13_16h47.38.598,Reversal,2023.1.3,60.043723839517185,1,
6,exp1.png,exp2.png,,,,,,,,,,,,,,,,,,1,0,1,0,0,6,6,6,,,,,,,,,False,26,107,True,exp2.png,exp1.png,trial_left_image,1,exp2.png,1,exp2.png,exp1.png,0,4,reversed,correct,0.01111454552668234,0,invalid_lose,447.43485839999994,45,,,,,,,,,,,,,sub_265,2023-12-13_16h47.38.598,Reversal,2023.1.3,60.043723839517185,1,
7,exp3.png,exp4.png,,,,,,,,,,,,,,,,,,1,0,1,0,0,7,7,7,,,,,,,,,False,27,108,True,exp4.png,exp3.png,trial_left_image,1,exp4.png,1,exp3.png,exp4.png,0,2,non-reversed,incorrect,0.3735059264112446,0,valid_lose,450.5183385,45,,,,,,,,,,,,,sub_265,2023-12-13_16h47.38.598,Reversal,2023.1.3,60.043723839517185,1,
8,exp1.png,exp2.png,,,,,,,,,,,,,,,,,,1,0,1,0,0,8,8,8,,,,,,,,,False,28,109,False,exp1.png,exp2.png,trial_left_image,1,exp1.png,1,exp2.png,exp1.png,1,3,reversed,incorrect,0.24072878863797098,1,invalid_win,453.49732980000044,46,,,,,,,,,,,,,sub_265,2023-12-13_16h47.38.598,Reversal,2023.1.3,60.043723839517185,1,
9,exp3.png,exp4.png,,,,,,,,,,,,,,,,,,1,0,1,0,0,9,9,9,,,,,,,,,False,29,110,False,exp3.png,exp4.png,trial_left_image,1,exp3.png,1,exp3.png,exp4.png,1,1,non-reversed,correct,0.1213024851552228,0,invalid_lose,456.7131725999998,46,,,,,,,,,,,,,sub_265,2023-12-13_16h47.38.598,Reversal,2023.1.3,60.043723839517185,1,
10,exp1.png,exp2.png,,,,,,,,,,,,,,,,,,1,0,1,0,0,10,10,10,,,,,,,,,False,30,111,False,exp1.png,exp2.png,trial_left_image,1,exp1.png,1,exp2.png,exp1.png,1,3,reversed,incorrect,0.008374587313928927,1,invalid_win,460.40960970000015,47,,,,,,,,,,,,,sub_265,2023-12-13_16h47.38.598,Reversal,2023.1.3,60.043723839517185,1,
11,exp3.png,exp4.png,,,,,,,,,,,,,,,,,,1,0,1,0,0,11,11,11,,,,,,,,,False,31,112,False,exp3.png,exp4.png,trial_right_image,-1,exp4.png,1,exp3.png,exp4.png,0,2,non-reversed,incorrect,0.2497108494659287,1,invalid_win,463.4450280000001,48,,,,,,,,,,,,,sub_265,2023-12-13_16h47.38.598,Reversal,2023.1.3,60.043723839517185,1,
12,exp1.png,exp2.png,,,,,,,,,,,,,,,,,,1,0,1,0,0,12,12,12,,,,,,,,,False,32,113,True,exp2.png,exp1.png,trial_right_image,-1,exp1.png,1,exp2.png,exp1.png,1,3,reversed,incorrect,0.49789296002384986,0,valid_lose,466.5570237000002,48,,,,,,,,,,,,,sub_265,2023-12-13_16h47.38.598,Reversal,2023.1.3,60.043723839517185,1,
13,exp3.png,exp4.png,,,,,,,,,,,,,,,,,,1,0,1,0,0,13,13,13,,,,,,,,,False,33,114,True,exp4.png,exp3.png,trial_right_image,-1,exp3.png,1,exp3.png,exp4.png,1,1,non-reversed,correct,0.023271552564028575,0,invalid_lose,470.3065280999999,48,,,,,,,,,,,,,sub_265,2023-12-13_16h47.38.598,Reversal,2023.1.3,60.043723839517185,1,
14,exp1.png,exp2.png,,,,,,,,,,,,,,,,,,1,0,1,0,0,14,14,14,,,,,,,,,False,34,115,True,exp2.png,exp1.png,trial_left_image,1,exp2.png,1,exp2.png,exp1.png,0,4,reversed,correct,0.3181668346608918,1,valid_win,474.22144430000026,49,,,,,,,,,,,,,sub_265,2023-12-13_16h47.38.598,Reversal,2023.1.3,60.043723839517185,1,
15,exp3.png,exp4.png,,,,,,,,,,,,,,,,,,1,0,1,0,0,15,15,15,,,,,,,,,False,35,116,False,exp3.png,exp4.png,trial_right_image,-1,exp4.png,1,exp3.png,exp4.png,0,2,non-reversed,incorrect,0.7946765609148349,0,valid_lose,477.3042443000004,49,,,,,,,,,,,,,sub_265,2023-12-13_16h47.38.598,Reversal,2023.1.3,60.043723839517185,1,
16,exp1.png,exp2.png,,,,,,,,,,,,,,,,,,1,0,1,0,0,16,16,16,,,,,,,,,False,36,117,True,exp2.png,exp1.png,trial_right_image,-1,exp1.png,1,exp2.png,exp1.png,1,3,reversed,incorrect,0.18389092363144366,1,invalid_win,481.4859526,50,,,,,,,,,,,,,sub_265,2023-12-13_16h47.38.598,Reversal,2023.1.3,60.043723839517185,1,
17,exp3.png,exp4.png,,,,,,,,,,,,,,,,,,1,0,1,0,0,17,17,17,,,,,,,,,False,37,118,True,exp4.png,exp3.png,trial_left_image,1,exp4.png,1,exp3.png,exp4.png,0,2,non-reversed,incorrect,0.9818063474508287,0,valid_lose,484.5513584999999,50,,,,,,,,,,,,,sub_265,2023-12-13_16h47.38.598,Reversal,2023.1.3,60.043723839517185,1,
18,exp1.png,exp2.png,,,,,,,,,,,,,,,,,,1,0,1,0,0,18,18,18,,,,,,,,,False,38,119,False,exp1.png,exp2.png,trial_right_image,-1,exp2.png,1,exp2.png,exp1.png,0,4,reversed,correct,0.5697858070940097,1,valid_win,490.78195890000006,51,,,,,,,,,,,,,sub_265,2023-12-13_16h47.38.598,Reversal,2023.1.3,60.043723839517185,1,
19,exp3.png,exp4.png,,,,,,,,,,,,,,,,,,1,0,1,0,0,19,19,19,,,,,,,,,False,39,120,True,exp4.png,exp3.png,trial_right_image,-1,exp3.png,1,exp3.png,exp4.png,1,1,non-reversed,correct,0.06475788119099568,0,invalid_lose,494.6314634999999,51,,,,,,,,,,,,,sub_265,2023-12-13_16h47.38.598,Reversal,2023.1.3,60.043723839517185,1,
20,exp1.png,exp2.png,,,,,,,,,,,,,,,,,,1,0,1,0,0,20,20,20,,,,,,,,,True,,,,,,,,,,,,,,,,,,,,,,,,,,,,,,,,,sub_265,2023-12-13_16h47.38.598,Reversal,2023.1.3,60.043723839517185,1,
,,,exp1.png,,,,,,,,,,,,,,,,,1,0,1,0,,,,,0,0,0,0,0,0,0,0,,,,,,,,,,,,,,,,,,,,,,568.9062112000001,None,None,[],,,,,,,,,sub_265,2023-12-13_16h47.38.598,Reversal,2023.1.3,60.043723839517185,1,
,,,exp2.png,,,,,,,,,,,,,,,,,1,0,1,0,,,,,0,0,0,0,0,1,1,1,,,,,,,,,,,,,,,,,,,,,,570.5661014999996,None,None,[],,,,,,,,,sub_265,2023-12-13_16h47.38.598,Reversal,2023.1.3,60.043723839517185,1,
,,,exp3.png,,,,,,,,,,,,,,,,,1,0,1,0,,,,,0,0,0,0,0,2,2,2,,,,,,,,,,,,,,,,,,,,,,570.9139494000001,None,None,[],,,,,,,,,sub_265,2023-12-13_16h47.38.598,Reversal,2023.1.3,60.043723839517185,1,
,,,exp4.png,,,,,,,,,,,,,,,,,1,0,1,0,,,,,0,0,0,0,0,3,3,3,,,,,,,,,,,,,,,,,,,,,,571.3163119000001,None,None,[],,,,,,,,,sub_265,2023-12-13_16h47.38.598,Reversal,2023.1.3,60.043723839517185,1,
0,exp1.png,exp2.png,,,,,,,,,,,,,,,,,,2,0,2,0,0,0,0,0,,,,,,,,,False,40,121,True,exp2.png,exp1.png,trial_right_image,-1,exp1.png,1,exp2.png,exp1.png,1,3,reversed,incorrect,0.8247990256534216,0,valid_lose,502.3453749999999,51,,,,,,,,,,,,,sub_265,2023-12-13_16h47.38.598,Reversal,2023.1.3,60.043723839517185,1,
1,exp3.png,exp4.png,,,,,,,,,,,,,,,,,,2,0,2,0,0,1,1,1,,,,,,,,,False,41,122,True,exp4.png,exp3.png,trial_left_image,1,exp4.png,1,exp3.png,exp4.png,0,2,non-reversed,incorrect,0.44790937183174206,0,valid_lose,506.99332719999984,51,,,,,,,,,,,,,sub_265,2023-12-13_16h47.38.598,Reversal,2023.1.3,60.043723839517185,1,
2,exp1.png,exp2.png,,,,,,,,,,,,,,,,,,2,0,2,0,0,2,2,2,,,,,,,,,False,42,123,True,exp2.png,exp1.png,trial_left_image,1,exp2.png,1,exp2.png,exp1.png,0,4,reversed,correct,0.7509639479857653,1,valid_win,511.54216859999997,52,,,,,,,,,,,,,sub_265,2023-12-13_16h47.38.598,Reversal,2023.1.3,60.043723839517185,1,
3,exp3.png,exp4.png,,,,,,,,,,,,,,,,,,2,0,2,0,0,3,3,3,,,,,,,,,False,43,124,False,exp3.png,exp4.png,trial_right_image,-1,exp4.png,1,exp3.png,exp4.png,0,2,non-reversed,incorrect,0.3561130763207432,0,valid_lose,516.0407960000002,52,,,,,,,,,,,,,sub_265,2023-12-13_16h47.38.598,Reversal,2023.1.3,60.043723839517185,1,
4,exp1.png,exp2.png,,,,,,,,,,,,,,,,,,2,0,2,0,0,4,4,4,,,,,,,,,False,44,125,False,exp1.png,exp2.png,trial_left_image,1,exp1.png,1,exp2.png,exp1.png,1,3,reversed,incorrect,0.8293844393227178,0,valid_lose,520.0269350999997,52,,,,,,,,,,,,,sub_265,2023-12-13_16h47.38.598,Reversal,2023.1.3,60.043723839517185,1,
5,exp3.png,exp4.png,,,,,,,,,,,,,,,,,,2,0,2,0,0,5,5,5,,,,,,,,,False,45,126,False,exp3.png,exp4.png,trial_left_image,1,exp3.png,1,exp3.png,exp4.png,1,1,non-reversed,correct,0.648193365293869,1,valid_win,524.3717266000003,53,,,,,,,,,,,,,sub_265,2023-12-13_16h47.38.598,Reversal,2023.1.3,60.043723839517185,1,
6,exp1.png,exp2.png,,,,,,,,,,,,,,,,,,2,0,2,0,0,6,6,6,,,,,,,,,False,46,127,False,exp1.png,exp2.png,trial_right_image,-1,exp2.png,1,exp2.png,exp1.png,0,4,reversed,correct,0.2047466349091266,0,invalid_lose,529.5860384999996,53,,,,,,,,,,,,,sub_265,2023-12-13_16h47.38.598,Reversal,2023.1.3,60.043723839517185,1,
7,exp3.png,exp4.png,,,,,,,,,,,,,,,,,,2,0,2,0,0,7,7,7,,,,,,,,,False,47,128,False,exp3.png,exp4.png,trial_left_image,1,exp3.png,1,exp3.png,exp4.png,1,1,non-reversed,correct,0.42517480788341977,1,valid_win,533.6848146000002,54,,,,,,,,,,,,,sub_265,2023-12-13_16h47.38.598,Reversal,2023.1.3,60.043723839517185,1,
8,exp1.png,exp2.png,,,,,,,,,,,,,,,,,,2,0,2,0,0,8,8,8,,,,,,,,,False,48,129,False,exp1.png,exp2.png,trial_left_image,1,exp1.png,1,exp2.png,exp1.png,1,3,reversed,incorrect,0.753427127427692,0,valid_lose,537.4676215999998,54,,,,,,,,,,,,,sub_265,2023-12-13_16h47.38.598,Reversal,2023.1.3,60.043723839517185,1,
9,exp3.png,exp4.png,,,,,,,,,,,,,,,,,,2,0,2,0,0,9,9,9,,,,,,,,,False,49,130,False,exp3.png,exp4.png,trial_left_image,1,exp3.png,1,exp3.png,exp4.png,1,1,non-reversed,correct,0.43398387871956945,1,valid_win,540.5190768000002,55,,,,,,,,,,,,,sub_265,2023-12-13_16h47.38.598,Reversal,2023.1.3,60.043723839517185,1,
10,exp1.png,exp2.png,,,,,,,,,,,,,,,,,,2,0,2,0,0,10,10,10,,,,,,,,,False,50,131,True,exp2.png,exp1.png,trial_right_image,-1,exp1.png,1,exp2.png,exp1.png,1,3,reversed,incorrect,0.29073352576702927,0,valid_lose,543.7979508999997,55,,,,,,,,,,,,,sub_265,2023-12-13_16h47.38.598,Reversal,2023.1.3,60.043723839517185,1,
11,exp3.png,exp4.png,,,,,,,,,,,,,,,,,,2,0,2,0,0,11,11,11,,,,,,,,,False,51,132,True,exp4.png,exp3.png,trial_left_image,1,exp4.png,1,exp3.png,exp4.png,0,2,non-reversed,incorrect,0.8178682993972796,0,valid_lose,547.6632976000001,55,,,,,,,,,,,,,sub_265,2023-12-13_16h47.38.598,Reversal,2023.1.3,60.043723839517185,1,
12,exp1.png,exp2.png,,,,,,,,,,,,,,,,,,2,0,2,0,0,12,12,12,,,,,,,,,False,52,133,False,exp1.png,exp2.png,trial_left_image,1,exp1.png,1,exp2.png,exp1.png,1,3,reversed,incorrect,0.8344742056693107,0,valid_lose,550.8477432,55,,,,,,,,,,,,,sub_265,2023-12-13_16h47.38.598,Reversal,2023.1.3,60.043723839517185,1,
13,exp3.png,exp4.png,,,,,,,,,,,,,,,,,,2,0,2,0,0,13,13,13,,,,,,,,,False,53,134,False,exp3.png,exp4.png,trial_left_image,1,exp3.png,1,exp3.png,exp4.png,1,1,non-reversed,correct,0.8629025346979379,1,valid_win,553.811299,56,,,,,,,,,,,,,sub_265,2023-12-13_16h47.38.598,Reversal,2023.1.3,60.043723839517185,1,
14,exp1.png,exp2.png,,,,,,,,,,,,,,,,,,2,0,2,0,0,14,14,14,,,,,,,,,False,54,135,True,exp2.png,exp1.png,trial_right_image,-1,exp1.png,1,exp2.png,exp1.png,1,3,reversed,incorrect,0.06427388894893893,1,invalid_win,557.7932827000004,57,,,,,,,,,,,,,sub_265,2023-12-13_16h47.38.598,Reversal,2023.1.3,60.043723839517185,1,
15,exp3.png,exp4.png,,,,,,,,,,,,,,,,,,2,0,2,0,0,15,15,15,,,,,,,,,False,55,136,True,exp4.png,exp3.png,trial_right_image,-1,exp3.png,1,exp3.png,exp4.png,1,1,non-reversed,correct,0.7754523552235508,1,valid_win,561.7917662999998,58,,,,,,,,,,,,,sub_265,2023-12-13_16h47.38.598,Reversal,2023.1.3,60.043723839517185,1,
16,exp1.png,exp2.png,,,,,,,,,,,,,,,,,,2,0,2,0,0,16,16,16,,,,,,,,,False,56,137,True,exp2.png,exp1.png,trial_right_image,-1,exp1.png,1,exp2.png,exp1.png,1,3,reversed,incorrect,0.7461478357495593,0,valid_lose,565.6740546000001,58,,,,,,,,,,,,,sub_265,2023-12-13_16h47.38.598,Reversal,2023.1.3,60.043723839517185,1,
17,exp3.png,exp4.png,,,,,,,,,,,,,,,,,,2,0,2,0,0,17,17,17,,,,,,,,,False,57,138,False,exp3.png,exp4.png,trial_right_image,-1,exp4.png,1,exp3.png,exp4.png,0,2,non-reversed,incorrect,0.4328064839769675,0,valid_lose,569.4055014000005,58,,,,,,,,,,,,,sub_265,2023-12-13_16h47.38.598,Reversal,2023.1.3,60.043723839517185,1,
18,exp1.png,exp2.png,,,,,,,,,,,,,,,,,,2,0,2,0,0,18,18,18,,,,,,,,,False,58,139,True,exp2.png,exp1.png,trial_left_image,1,exp2.png,1,exp2.png,exp1.png,0,4,reversed,correct,0.07997909346186827,0,invalid_lose,572.3719186999997,58,,,,,,,,,,,,,sub_265,2023-12-13_16h47.38.598,Reversal,2023.1.3,60.043723839517185,1,
19,exp3.png,exp4.png,,,,,,,,,,,,,,,,,,2,0,2,0,0,19,19,19,,,,,,,,,False,59,140,True,exp4.png,exp3.png,trial_left_image,1,exp4.png,1,exp3.png,exp4.png,0,2,non-reversed,incorrect,0.049781692013360135,1,invalid_win,575.4231956000003,59,,,,,,,,,,,,,sub_265,2023-12-13_16h47.38.598,Reversal,2023.1.3,60.043723839517185,1,
20,exp1.png,exp2.png,,,,,,,,,,,,,,,,,,2,0,2,0,0,20,20,20,,,,,,,,,True,,,,,,,,,,,,,,,,,,,,,,,,,,,,,,,,,sub_265,2023-12-13_16h47.38.598,Reversal,2023.1.3,60.043723839517185,1,
,,,exp1.png,,,,,,,,,,,,,,,,,2,0,2,0,,,,,0,0,0,0,0,0,0,0,,,,,,,,,,,,,,,,,,,,,,649.7015316999996,None,None,[],,,,,,,,,sub_265,2023-12-13_16h47.38.598,Reversal,2023.1.3,60.043723839517185,1,
,,,exp2.png,,,,,,,,,,,,,,,,,2,0,2,0,,,,,0,0,0,0,0,1,1,1,,,,,,,,,,,,,,,,,,,,,,651.0229743999998,None,None,[],,,,,,,,,sub_265,2023-12-13_16h47.38.598,Reversal,2023.1.3,60.043723839517185,1,
,,,exp3.png,,,,,,,,,,,,,,,,,2,0,2,0,,,,,0,0,0,0,0,2,2,2,,,,,,,,,,,,,,,,,,,,,,651.3714386000001,None,None,[],,,,,,,,,sub_265,2023-12-13_16h47.38.598,Reversal,2023.1.3,60.043723839517185,1,
,,,exp4.png,,,,,,,,,,,,,,,,,2,0,2,0,,,,,0,0,0,0,0,3,3,3,,,,,,,,,,,,,,,,,,,,,,651.7232800000002,None,None,[],,,,,,,,,sub_265,2023-12-13_16h47.38.598,Reversal,2023.1.3,60.043723839517185,1,
,,,,,,,,,,,,,,,,,,,,,,,,,,,,,,,,,,,,,,,,,,,,,,,,,,,,,,,,59,,,,,,,,60,33,27,229.60425049999958,1,,,,,,,
