trial_index,trial_image1_file,trial_image2_file,image_file,learning_outer_loop.thisRepN,learning_outer_loop.thisTrialN,learning_outer_loop.thisN,learning_outer_loop.thisIndex,learning_inner_loop.thisRepN,learning_inner_loop.thisTrialN,learning_inner_loop.thisN,learning_inner_loop.thisIndex,learning_estimation_outer_loop.thisRepN,learning_estimation_outer_loop.thisTrialN,learning_estimation_outer_loop.thisN,learning_estimation_outer_loop.thisIndex,learning_estimation_inner_loop.thisRepN,learning_estimation_inner_loop.thisTrialN,learning_estimation_inner_loop.thisN,learning_estimation_inner_loop.thisIndex,reversal_outer_loop.thisRepN,reversal_outer_loop.thisTrialN,reversal_outer_loop.thisN,reversal_outer_loop.thisIndex,reversal_inner_loop.thisRepN,reversal_inner_loop.thisTrialN,reversal_inner_loop.thisN,reversal_inner_loop.thisIndex,reversal_estimation_outer_loop.thisRepN,reversal_estimation_outer_loop.thisTrialN,reversal_estimation_outer_loop.thisN,reversal_estimation_outer_loop.thisIndex,reversal_estimation_inner_loop.thisRepN,reversal_estimation_inner_loop.thisTrialN,reversal_estimation_inner_loop.thisN,reversal_estimation_inner_loop.thisIndex,skipped,total_trial_counter,trial_num,left_right_flip,left_image_file,right_image_file,clicked_stimulus_side,side,clicked_stimulus,version,high_prob_image_file,low_prob_image_file,choice_a,choice_b,pair_type,correct,trial_feedback_random,reward,trial_type,overall_time_after_trial,score,estimation_exp1.png,estimation_rating.response,estimation_rating.rt,estimation_rating.history,estimation_rating.started,estimation_rating.stopped,estimation_exp2.png,estimation_exp4.png,estimation_exp3.png,total_learning_time,total_correct,learning_correct,reversal_correct,total_reversal_time,extra_block,participant,date,expName,psychopyVersion,frameRate,ver,
0,exp1.png,exp2.png,,0,0,0,0,0,0,0,0,,,,,,,,,,,,,,,,,,,,,,,,,True,,,,,,,,,,,,,,,,,,,,,,,,,,,,,,,,,,,,sub_105,2022-11-03_09h40.12.760,Reversal,2022.1.1,60.14230873093864,1,
1,exp3.png,exp4.png,,0,0,0,0,0,1,1,1,,,,,,,,,,,,,,,,,,,,,,,,,False,0,1,False,exp3.png,exp4.png,trial_left_image,1,exp3.png,1,exp3.png,exp4.png,1,1,non-reversed,correct,0.09395840513095,0,invalid_lose,4.254863299999897,0,,,,,,,,,,,,,,,,sub_105,2022-11-03_09h40.12.760,Reversal,2022.1.1,60.14230873093864,1,
2,exp1.png,exp2.png,,0,0,0,0,0,2,2,2,,,,,,,,,,,,,,,,,,,,,,,,,False,1,2,False,exp1.png,exp2.png,trial_left_image,1,exp1.png,1,exp1.png,exp2.png,1,3,reversed,correct,0.016447163272590215,0,invalid_lose,9.765344499999856,0,,,,,,,,,,,,,,,,sub_105,2022-11-03_09h40.12.760,Reversal,2022.1.1,60.14230873093864,1,
3,exp3.png,exp4.png,,0,0,0,0,0,3,3,3,,,,,,,,,,,,,,,,,,,,,,,,,False,2,3,True,exp4.png,exp3.png,trial_right_image,-1,exp3.png,1,exp3.png,exp4.png,1,1,non-reversed,correct,0.22019812629904512,0,invalid_lose,17.964827099999866,0,,,,,,,,,,,,,,,,sub_105,2022-11-03_09h40.12.760,Reversal,2022.1.1,60.14230873093864,1,
4,exp1.png,exp2.png,,0,0,0,0,0,4,4,4,,,,,,,,,,,,,,,,,,,,,,,,,False,3,4,True,exp2.png,exp1.png,trial_right_image,-1,exp1.png,1,exp1.png,exp2.png,1,3,reversed,correct,0.6843900628866303,1,valid_win,26.64654449999989,1,,,,,,,,,,,,,,,,sub_105,2022-11-03_09h40.12.760,Reversal,2022.1.1,60.14230873093864,1,
5,exp3.png,exp4.png,,0,0,0,0,0,5,5,5,,,,,,,,,,,,,,,,,,,,,,,,,False,4,5,True,exp4.png,exp3.png,trial_right_image,-1,exp3.png,1,exp3.png,exp4.png,1,1,non-reversed,correct,0.656976656559702,1,valid_win,32.5278523999998,2,,,,,,,,,,,,,,,,sub_105,2022-11-03_09h40.12.760,Reversal,2022.1.1,60.14230873093864,1,
6,exp1.png,exp2.png,,0,0,0,0,0,6,6,6,,,,,,,,,,,,,,,,,,,,,,,,,False,5,6,True,exp2.png,exp1.png,trial_right_image,-1,exp1.png,1,exp1.png,exp2.png,1,3,reversed,correct,0.7518842524313474,1,valid_win,37.7105861,3,,,,,,,,,,,,,,,,sub_105,2022-11-03_09h40.12.760,Reversal,2022.1.1,60.14230873093864,1,
7,exp3.png,exp4.png,,0,0,0,0,0,7,7,7,,,,,,,,,,,,,,,,,,,,,,,,,False,6,7,False,exp3.png,exp4.png,trial_right_image,-1,exp4.png,1,exp3.png,exp4.png,0,2,non-reversed,incorrect,0.3911610714858471,0,valid_lose,43.11020889999986,3,,,,,,,,,,,,,,,,sub_105,2022-11-03_09h40.12.760,Reversal,2022.1.1,60.14230873093864,1,
8,exp1.png,exp2.png,,0,0,0,0,0,8,8,8,,,,,,,,,,,,,,,,,,,,,,,,,False,7,8,False,exp1.png,exp2.png,trial_right_image,-1,exp2.png,1,exp1.png,exp2.png,0,4,reversed,incorrect,0.5183984181194398,0,valid_lose,49.12689979999982,3,,,,,,,,,,,,,,,,sub_105,2022-11-03_09h40.12.760,Reversal,2022.1.1,60.14230873093864,1,
9,exp3.png,exp4.png,,0,0,0,0,0,9,9,9,,,,,,,,,,,,,,,,,,,,,,,,,False,8,9,False,exp3.png,exp4.png,trial_left_image,1,exp3.png,1,exp3.png,exp4.png,1,1,non-reversed,correct,0.8849789205444615,1,valid_win,54.24287759999993,4,,,,,,,,,,,,,,,,sub_105,2022-11-03_09h40.12.760,Reversal,2022.1.1,60.14230873093864,1,
10,exp1.png,exp2.png,,0,0,0,0,0,10,10,10,,,,,,,,,,,,,,,,,,,,,,,,,False,9,10,False,exp1.png,exp2.png,trial_left_image,1,exp1.png,1,exp1.png,exp2.png,1,3,reversed,correct,0.8438856021635854,1,valid_win,59.36015320000001,5,,,,,,,,,,,,,,,,sub_105,2022-11-03_09h40.12.760,Reversal,2022.1.1,60.14230873093864,1,
11,exp3.png,exp4.png,,0,0,0,0,0,11,11,11,,,,,,,,,,,,,,,,,,,,,,,,,False,10,11,True,exp4.png,exp3.png,trial_left_image,1,exp4.png,1,exp3.png,exp4.png,0,2,non-reversed,incorrect,0.8550359046838841,0,valid_lose,64.77398049999988,5,,,,,,,,,,,,,,,,sub_105,2022-11-03_09h40.12.760,Reversal,2022.1.1,60.14230873093864,1,
12,exp1.png,exp2.png,,0,0,0,0,0,12,12,12,,,,,,,,,,,,,,,,,,,,,,,,,False,11,12,False,exp1.png,exp2.png,trial_left_image,1,exp1.png,1,exp1.png,exp2.png,1,3,reversed,correct,0.9709877503073846,1,valid_win,70.07424139999989,6,,,,,,,,,,,,,,,,sub_105,2022-11-03_09h40.12.760,Reversal,2022.1.1,60.14230873093864,1,
13,exp3.png,exp4.png,,0,0,0,0,0,13,13,13,,,,,,,,,,,,,,,,,,,,,,,,,False,12,13,False,exp3.png,exp4.png,trial_right_image,-1,exp4.png,1,exp3.png,exp4.png,0,2,non-reversed,incorrect,0.197275035450585,1,invalid_win,75.40735429999995,7,,,,,,,,,,,,,,,,sub_105,2022-11-03_09h40.12.760,Reversal,2022.1.1,60.14230873093864,1,
14,exp1.png,exp2.png,,0,0,0,0,0,14,14,14,,,,,,,,,,,,,,,,,,,,,,,,,False,13,14,True,exp2.png,exp1.png,trial_left_image,1,exp2.png,1,exp1.png,exp2.png,0,4,reversed,incorrect,0.5448789964307658,0,valid_lose,81.85677899999996,7,,,,,,,,,,,,,,,,sub_105,2022-11-03_09h40.12.760,Reversal,2022.1.1,60.14230873093864,1,
15,exp3.png,exp4.png,,0,0,0,0,0,15,15,15,,,,,,,,,,,,,,,,,,,,,,,,,False,14,15,False,exp3.png,exp4.png,trial_left_image,1,exp3.png,1,exp3.png,exp4.png,1,1,non-reversed,correct,0.0004411494114106018,0,invalid_lose,87.33903979999991,7,,,,,,,,,,,,,,,,sub_105,2022-11-03_09h40.12.760,Reversal,2022.1.1,60.14230873093864,1,
16,exp1.png,exp2.png,,0,0,0,0,0,16,16,16,,,,,,,,,,,,,,,,,,,,,,,,,False,15,16,True,exp2.png,exp1.png,trial_left_image,1,exp2.png,1,exp1.png,exp2.png,0,4,reversed,incorrect,0.7985231891981716,0,valid_lose,92.08723569999984,7,,,,,,,,,,,,,,,,sub_105,2022-11-03_09h40.12.760,Reversal,2022.1.1,60.14230873093864,1,
17,exp3.png,exp4.png,,0,0,0,0,0,17,17,17,,,,,,,,,,,,,,,,,,,,,,,,,False,16,17,True,exp4.png,exp3.png,trial_right_image,-1,exp3.png,1,exp3.png,exp4.png,1,1,non-reversed,correct,0.8715999415502872,1,valid_win,96.5027493,8,,,,,,,,,,,,,,,,sub_105,2022-11-03_09h40.12.760,Reversal,2022.1.1,60.14230873093864,1,
18,exp1.png,exp2.png,,0,0,0,0,0,18,18,18,,,,,,,,,,,,,,,,,,,,,,,,,False,17,18,True,exp2.png,exp1.png,trial_right_image,-1,exp1.png,1,exp1.png,exp2.png,1,3,reversed,correct,0.588623861395137,1,valid_win,101.28574159999994,9,,,,,,,,,,,,,,,,sub_105,2022-11-03_09h40.12.760,Reversal,2022.1.1,60.14230873093864,1,
19,exp3.png,exp4.png,,0,0,0,0,0,19,19,19,,,,,,,,,,,,,,,,,,,,,,,,,False,18,19,False,exp3.png,exp4.png,trial_right_image,-1,exp4.png,1,exp3.png,exp4.png,0,2,non-reversed,incorrect,0.7630297591414499,0,valid_lose,106.35315939999987,9,,,,,,,,,,,,,,,,sub_105,2022-11-03_09h40.12.760,Reversal,2022.1.1,60.14230873093864,1,
20,exp1.png,exp2.png,,0,0,0,0,0,20,20,20,,,,,,,,,,,,,,,,,,,,,,,,,False,19,20,True,exp2.png,exp1.png,trial_left_image,1,exp2.png,1,exp1.png,exp2.png,0,4,reversed,incorrect,0.15217711201981365,1,invalid_win,110.75121869999998,10,,,,,,,,,,,,,,,,sub_105,2022-11-03_09h40.12.760,Reversal,2022.1.1,60.14230873093864,1,
,,,exp1.png,0,0,0,0,,,,,0,0,0,0,0,0,0,0,,,,,,,,,,,,,,,,,,,,,,,,,,,,,,,,,,,,,,91.0,91.0,9.06324020000011,"[(91.0, 9.06324020000011)]",162.1834233000002,None,,,,,,,,,,sub_105,2022-11-03_09h40.12.760,Reversal,2022.1.1,60.14230873093864,1,
,,,exp2.png,0,0,0,0,,,,,0,0,0,0,0,1,1,1,,,,,,,,,,,,,,,,,,,,,,,,,,,,,,,,,,,,,,,100.0,7.526050499999883,"[(100.0, 7.526050499999883)]",174.0635873000001,None,100.0,,,,,,,,,sub_105,2022-11-03_09h40.12.760,Reversal,2022.1.1,60.14230873093864,1,
,,,exp3.png,0,0,0,0,,,,,0,0,0,0,0,2,2,2,,,,,,,,,,,,,,,,,,,,,,,,,,,,,,,,,,,,,,,50.0,None,[],182.74020050000013,None,,,,,,,,,,sub_105,2022-11-03_09h40.12.760,Reversal,2022.1.1,60.14230873093864,1,
,,,exp4.png,0,0,0,0,,,,,0,0,0,0,0,3,3,3,,,,,,,,,,,,,,,,,,,,,,,,,,,,,,,,,,,,,,,72.0,2.041846299999861,"[(72.0, 2.041846299999861)]",190.41413180000018,None,,72.0,,,,,,,,sub_105,2022-11-03_09h40.12.760,Reversal,2022.1.1,60.14230873093864,1,
0,exp1.png,exp2.png,,1,0,1,0,0,0,0,0,,,,,,,,,,,,,,,,,,,,,,,,,True,,,,,,,,,,,,,,,,,,,,,,,,,,,,,,,,,,,,sub_105,2022-11-03_09h40.12.760,Reversal,2022.1.1,60.14230873093864,1,
1,exp3.png,exp4.png,,1,0,1,0,0,1,1,1,,,,,,,,,,,,,,,,,,,,,,,,,False,20,21,False,exp3.png,exp4.png,trial_left_image,1,exp3.png,1,exp3.png,exp4.png,1,1,non-reversed,correct,0.6008694745675945,1,valid_win,148.8632986,11,,,,,,,,,,,,,,,,sub_105,2022-11-03_09h40.12.760,Reversal,2022.1.1,60.14230873093864,1,
2,exp1.png,exp2.png,,1,0,1,0,0,2,2,2,,,,,,,,,,,,,,,,,,,,,,,,,False,21,22,True,exp2.png,exp1.png,trial_right_image,-1,exp1.png,1,exp1.png,exp2.png,1,3,reversed,correct,0.6179804287846532,1,valid_win,154.57959699999992,12,,,,,,,,,,,,,,,,sub_105,2022-11-03_09h40.12.760,Reversal,2022.1.1,60.14230873093864,1,
3,exp3.png,exp4.png,,1,0,1,0,0,3,3,3,,,,,,,,,,,,,,,,,,,,,,,,,False,22,23,True,exp4.png,exp3.png,trial_left_image,1,exp4.png,1,exp3.png,exp4.png,0,2,non-reversed,incorrect,0.45301672891353184,0,valid_lose,160.61263369999983,12,,,,,,,,,,,,,,,,sub_105,2022-11-03_09h40.12.760,Reversal,2022.1.1,60.14230873093864,1,
4,exp1.png,exp2.png,,1,0,1,0,0,4,4,4,,,,,,,,,,,,,,,,,,,,,,,,,False,23,24,False,exp1.png,exp2.png,trial_right_image,-1,exp2.png,1,exp1.png,exp2.png,0,4,reversed,incorrect,0.98765904977748,0,valid_lose,166.2116289999999,12,,,,,,,,,,,,,,,,sub_105,2022-11-03_09h40.12.760,Reversal,2022.1.1,60.14230873093864,1,
5,exp3.png,exp4.png,,1,0,1,0,0,5,5,5,,,,,,,,,,,,,,,,,,,,,,,,,False,24,25,False,exp3.png,exp4.png,trial_right_image,-1,exp4.png,1,exp3.png,exp4.png,0,2,non-reversed,incorrect,0.8825717284499566,0,valid_lose,171.99393439999994,12,,,,,,,,,,,,,,,,sub_105,2022-11-03_09h40.12.760,Reversal,2022.1.1,60.14230873093864,1,
6,exp1.png,exp2.png,,1,0,1,0,0,6,6,6,,,,,,,,,,,,,,,,,,,,,,,,,False,25,26,False,exp1.png,exp2.png,trial_right_image,-1,exp2.png,1,exp1.png,exp2.png,0,4,reversed,incorrect,0.528048378449055,0,valid_lose,176.7606265999998,12,,,,,,,,,,,,,,,,sub_105,2022-11-03_09h40.12.760,Reversal,2022.1.1,60.14230873093864,1,
7,exp3.png,exp4.png,,1,0,1,0,0,7,7,7,,,,,,,,,,,,,,,,,,,,,,,,,False,26,27,False,exp3.png,exp4.png,trial_left_image,1,exp3.png,1,exp3.png,exp4.png,1,1,non-reversed,correct,0.9316507353139359,1,valid_win,181.40960199999995,13,,,,,,,,,,,,,,,,sub_105,2022-11-03_09h40.12.760,Reversal,2022.1.1,60.14230873093864,1,
8,exp1.png,exp2.png,,1,0,1,0,0,8,8,8,,,,,,,,,,,,,,,,,,,,,,,,,False,27,28,True,exp2.png,exp1.png,trial_left_image,1,exp2.png,1,exp1.png,exp2.png,0,4,reversed,incorrect,0.13610872294044896,1,invalid_win,185.87514699999997,14,,,,,,,,,,,,,,,,sub_105,2022-11-03_09h40.12.760,Reversal,2022.1.1,60.14230873093864,1,
9,exp3.png,exp4.png,,1,0,1,0,0,9,9,9,,,,,,,,,,,,,,,,,,,,,,,,,False,28,29,False,exp3.png,exp4.png,trial_left_image,1,exp3.png,1,exp3.png,exp4.png,1,1,non-reversed,correct,0.3961232182622275,1,valid_win,193.99128849999988,15,,,,,,,,,,,,,,,,sub_105,2022-11-03_09h40.12.760,Reversal,2022.1.1,60.14230873093864,1,
10,exp1.png,exp2.png,,1,0,1,0,0,10,10,10,,,,,,,,,,,,,,,,,,,,,,,,,False,29,30,True,exp2.png,exp1.png,trial_left_image,1,exp2.png,1,exp1.png,exp2.png,0,4,reversed,incorrect,0.08396694175121033,1,invalid_win,203.57405849999986,16,,,,,,,,,,,,,,,,sub_105,2022-11-03_09h40.12.760,Reversal,2022.1.1,60.14230873093864,1,
11,exp3.png,exp4.png,,1,0,1,0,0,11,11,11,,,,,,,,,,,,,,,,,,,,,,,,,False,30,31,False,exp3.png,exp4.png,trial_left_image,1,exp3.png,1,exp3.png,exp4.png,1,1,non-reversed,correct,0.42035187915706207,1,valid_win,209.0888617999999,17,,,,,,,,,,,,,,,,sub_105,2022-11-03_09h40.12.760,Reversal,2022.1.1,60.14230873093864,1,
12,exp1.png,exp2.png,,1,0,1,0,0,12,12,12,,,,,,,,,,,,,,,,,,,,,,,,,False,31,32,True,exp2.png,exp1.png,trial_left_image,1,exp2.png,1,exp1.png,exp2.png,0,4,reversed,incorrect,0.08781487989396419,1,invalid_win,214.0393677999998,18,,,,,,,,,,,,,,,,sub_105,2022-11-03_09h40.12.760,Reversal,2022.1.1,60.14230873093864,1,
13,exp3.png,exp4.png,,1,0,1,0,0,13,13,13,,,,,,,,,,,,,,,,,,,,,,,,,False,32,33,True,exp4.png,exp3.png,trial_left_image,1,exp4.png,1,exp3.png,exp4.png,0,2,non-reversed,incorrect,0.9125482749697137,0,valid_lose,219.23757139999998,18,,,,,,,,,,,,,,,,sub_105,2022-11-03_09h40.12.760,Reversal,2022.1.1,60.14230873093864,1,
14,exp1.png,exp2.png,,1,0,1,0,0,14,14,14,,,,,,,,,,,,,,,,,,,,,,,,,False,33,34,True,exp2.png,exp1.png,trial_left_image,1,exp2.png,1,exp1.png,exp2.png,0,4,reversed,incorrect,0.6333629407184704,0,valid_lose,224.37146599999983,18,,,,,,,,,,,,,,,,sub_105,2022-11-03_09h40.12.760,Reversal,2022.1.1,60.14230873093864,1,
15,exp3.png,exp4.png,,1,0,1,0,0,15,15,15,,,,,,,,,,,,,,,,,,,,,,,,,False,34,35,False,exp3.png,exp4.png,trial_right_image,-1,exp4.png,1,exp3.png,exp4.png,0,2,non-reversed,incorrect,0.9711322781271277,0,valid_lose,229.0215048,18,,,,,,,,,,,,,,,,sub_105,2022-11-03_09h40.12.760,Reversal,2022.1.1,60.14230873093864,1,
16,exp1.png,exp2.png,,1,0,1,0,0,16,16,16,,,,,,,,,,,,,,,,,,,,,,,,,False,35,36,False,exp1.png,exp2.png,trial_left_image,1,exp1.png,1,exp1.png,exp2.png,1,3,reversed,correct,0.1994072063337704,0,invalid_lose,236.9529986,18,,,,,,,,,,,,,,,,sub_105,2022-11-03_09h40.12.760,Reversal,2022.1.1,60.14230873093864,1,
17,exp3.png,exp4.png,,1,0,1,0,0,17,17,17,,,,,,,,,,,,,,,,,,,,,,,,,False,36,37,True,exp4.png,exp3.png,trial_right_image,-1,exp3.png,1,exp3.png,exp4.png,1,1,non-reversed,correct,0.3861816531892316,1,valid_win,241.63478329999998,19,,,,,,,,,,,,,,,,sub_105,2022-11-03_09h40.12.760,Reversal,2022.1.1,60.14230873093864,1,
18,exp1.png,exp2.png,,1,0,1,0,0,18,18,18,,,,,,,,,,,,,,,,,,,,,,,,,False,37,38,False,exp1.png,exp2.png,trial_right_image,-1,exp2.png,1,exp1.png,exp2.png,0,4,reversed,incorrect,0.9202312676342302,0,valid_lose,246.6021334999998,19,,,,,,,,,,,,,,,,sub_105,2022-11-03_09h40.12.760,Reversal,2022.1.1,60.14230873093864,1,
19,exp3.png,exp4.png,,1,0,1,0,0,19,19,19,,,,,,,,,,,,,,,,,,,,,,,,,False,38,39,True,exp4.png,exp3.png,trial_right_image,-1,exp3.png,1,exp3.png,exp4.png,1,1,non-reversed,correct,0.37040509112363895,1,valid_win,252.06701469999985,20,,,,,,,,,,,,,,,,sub_105,2022-11-03_09h40.12.760,Reversal,2022.1.1,60.14230873093864,1,
20,exp1.png,exp2.png,,1,0,1,0,0,20,20,20,,,,,,,,,,,,,,,,,,,,,,,,,False,39,40,True,exp2.png,exp1.png,trial_right_image,-1,exp1.png,1,exp1.png,exp2.png,1,3,reversed,correct,0.5640996572033165,1,valid_win,258.6167547,21,,,,,,,,,,,,,,,,sub_105,2022-11-03_09h40.12.760,Reversal,2022.1.1,60.14230873093864,1,
,,,exp1.png,1,0,1,0,,,,,0,0,0,0,0,0,0,0,,,,,,,,,,,,,,,,,,,,,,,,,,,,,,,,,,,,,,100.0,100.0,6.224020699999983,"[(91.0, 5.224382900000137), (100.0, 6.224020699999983)]",310.0647784,None,,,,,,,,,,sub_105,2022-11-03_09h40.12.760,Reversal,2022.1.1,60.14230873093864,1,
,,,exp2.png,1,0,1,0,,,,,0,0,0,0,0,1,1,1,,,,,,,,,,,,,,,,,,,,,,,,,,,,,,,,,,,,,,,100.0,4.427769099999978,"[(100.0, 4.427769099999978)]",317.40872160000004,None,100.0,,,,,,,,,sub_105,2022-11-03_09h40.12.760,Reversal,2022.1.1,60.14230873093864,1,
,,,exp3.png,1,0,1,0,,,,,0,0,0,0,0,2,2,2,,,,,,,,,,,,,,,,,,,,,,,,,,,,,,,,,,,,,,,93.0,5.3878737,"[(93.0, 5.3878737)]",322.9505812000002,None,,,93.0,,,,,,,sub_105,2022-11-03_09h40.12.760,Reversal,2022.1.1,60.14230873093864,1,
,,,exp4.png,1,0,1,0,,,,,0,0,0,0,0,3,3,3,,,,,,,,,,,,,,,,,,,,,,,,,,,,,,,,,,,,,,,71.0,4.655385700000124,"[(71.0, 4.655385700000124)]",329.3454494,None,,71.0,,,,,,,,sub_105,2022-11-03_09h40.12.760,Reversal,2022.1.1,60.14230873093864,1,
0,exp1.png,exp2.png,,2,0,2,0,0,0,0,0,,,,,,,,,,,,,,,,,,,,,,,,,True,,,,,,,,,,,,,,,,,,,,,,,,,,,,,,,,,,,,sub_105,2022-11-03_09h40.12.760,Reversal,2022.1.1,60.14230873093864,1,
1,exp3.png,exp4.png,,2,0,2,0,0,1,1,1,,,,,,,,,,,,,,,,,,,,,,,,,False,40,41,True,exp4.png,exp3.png,trial_right_image,-1,exp3.png,1,exp3.png,exp4.png,1,1,non-reversed,correct,0.0055013633145346574,0,invalid_lose,291.8127517999999,21,,,,,,,,,,,,,,,,sub_105,2022-11-03_09h40.12.760,Reversal,2022.1.1,60.14230873093864,1,
2,exp1.png,exp2.png,,2,0,2,0,0,2,2,2,,,,,,,,,,,,,,,,,,,,,,,,,False,41,42,True,exp2.png,exp1.png,trial_left_image,1,exp2.png,1,exp1.png,exp2.png,0,4,reversed,incorrect,0.43741426246454707,0,valid_lose,302.29453979999994,21,,,,,,,,,,,,,,,,sub_105,2022-11-03_09h40.12.760,Reversal,2022.1.1,60.14230873093864,1,
3,exp3.png,exp4.png,,2,0,2,0,0,3,3,3,,,,,,,,,,,,,,,,,,,,,,,,,False,42,43,False,exp3.png,exp4.png,trial_right_image,-1,exp4.png,1,exp3.png,exp4.png,0,2,non-reversed,incorrect,0.009442914029548222,1,invalid_win,307.0435978999999,22,,,,,,,,,,,,,,,,sub_105,2022-11-03_09h40.12.760,Reversal,2022.1.1,60.14230873093864,1,
4,exp1.png,exp2.png,,2,0,2,0,0,4,4,4,,,,,,,,,,,,,,,,,,,,,,,,,False,43,44,False,exp1.png,exp2.png,trial_right_image,-1,exp2.png,1,exp1.png,exp2.png,0,4,reversed,incorrect,0.04345580531842885,1,invalid_win,312.75907759999996,23,,,,,,,,,,,,,,,,sub_105,2022-11-03_09h40.12.760,Reversal,2022.1.1,60.14230873093864,1,
5,exp3.png,exp4.png,,2,0,2,0,0,5,5,5,,,,,,,,,,,,,,,,,,,,,,,,,False,44,45,False,exp3.png,exp4.png,trial_right_image,-1,exp4.png,1,exp3.png,exp4.png,0,2,non-reversed,incorrect,0.7197712237225684,0,valid_lose,321.25960409999993,23,,,,,,,,,,,,,,,,sub_105,2022-11-03_09h40.12.760,Reversal,2022.1.1,60.14230873093864,1,
6,exp1.png,exp2.png,,2,0,2,0,0,6,6,6,,,,,,,,,,,,,,,,,,,,,,,,,False,45,46,True,exp2.png,exp1.png,trial_left_image,1,exp2.png,1,exp1.png,exp2.png,0,4,reversed,incorrect,0.4619497242487821,0,valid_lose,326.09132069999987,23,,,,,,,,,,,,,,,,sub_105,2022-11-03_09h40.12.760,Reversal,2022.1.1,60.14230873093864,1,
7,exp3.png,exp4.png,,2,0,2,0,0,7,7,7,,,,,,,,,,,,,,,,,,,,,,,,,False,46,47,False,exp3.png,exp4.png,trial_right_image,-1,exp4.png,1,exp3.png,exp4.png,0,2,non-reversed,incorrect,0.4604868391510616,0,valid_lose,330.5744085000001,23,,,,,,,,,,,,,,,,sub_105,2022-11-03_09h40.12.760,Reversal,2022.1.1,60.14230873093864,1,
8,exp1.png,exp2.png,,2,0,2,0,0,8,8,8,,,,,,,,,,,,,,,,,,,,,,,,,False,47,48,True,exp2.png,exp1.png,trial_left_image,1,exp2.png,1,exp1.png,exp2.png,0,4,reversed,incorrect,0.42618470332828606,0,valid_lose,335.05686400000013,23,,,,,,,,,,,,,,,,sub_105,2022-11-03_09h40.12.760,Reversal,2022.1.1,60.14230873093864,1,
9,exp3.png,exp4.png,,2,0,2,0,0,9,9,9,,,,,,,,,,,,,,,,,,,,,,,,,False,48,49,False,exp3.png,exp4.png,trial_right_image,-1,exp4.png,1,exp3.png,exp4.png,0,2,non-reversed,incorrect,0.12195439703305855,1,invalid_win,339.72259140000006,24,,,,,,,,,,,,,,,,sub_105,2022-11-03_09h40.12.760,Reversal,2022.1.1,60.14230873093864,1,
10,exp1.png,exp2.png,,2,0,2,0,0,10,10,10,,,,,,,,,,,,,,,,,,,,,,,,,False,49,50,True,exp2.png,exp1.png,trial_left_image,1,exp2.png,1,exp1.png,exp2.png,0,4,reversed,incorrect,0.5780162443459014,0,valid_lose,346.27200749999975,24,,,,,,,,,,,,,,,,sub_105,2022-11-03_09h40.12.760,Reversal,2022.1.1,60.14230873093864,1,
11,exp3.png,exp4.png,,2,0,2,0,0,11,11,11,,,,,,,,,,,,,,,,,,,,,,,,,False,50,51,True,exp4.png,exp3.png,trial_right_image,-1,exp3.png,1,exp3.png,exp4.png,1,1,non-reversed,correct,0.26005034565364316,1,valid_win,351.1713851999998,25,,,,,,,,,,,,,,,,sub_105,2022-11-03_09h40.12.760,Reversal,2022.1.1,60.14230873093864,1,
12,exp1.png,exp2.png,,2,0,2,0,0,12,12,12,,,,,,,,,,,,,,,,,,,,,,,,,False,51,52,True,exp2.png,exp1.png,trial_right_image,-1,exp1.png,1,exp1.png,exp2.png,1,3,reversed,correct,0.06253989926059489,0,invalid_lose,355.73654869999973,25,,,,,,,,,,,,,,,,sub_105,2022-11-03_09h40.12.760,Reversal,2022.1.1,60.14230873093864,1,
13,exp3.png,exp4.png,,2,0,2,0,0,13,13,13,,,,,,,,,,,,,,,,,,,,,,,,,False,52,53,True,exp4.png,exp3.png,trial_right_image,-1,exp3.png,1,exp3.png,exp4.png,1,1,non-reversed,correct,0.033116543652500496,0,invalid_lose,360.2543221000001,25,,,,,,,,,,,,,,,,sub_105,2022-11-03_09h40.12.760,Reversal,2022.1.1,60.14230873093864,1,
14,exp1.png,exp2.png,,2,0,2,0,0,14,14,14,,,,,,,,,,,,,,,,,,,,,,,,,False,53,54,True,exp2.png,exp1.png,trial_left_image,1,exp2.png,1,exp1.png,exp2.png,0,4,reversed,incorrect,0.3773519698110369,0,valid_lose,367.1692135999997,25,,,,,,,,,,,,,,,,sub_105,2022-11-03_09h40.12.760,Reversal,2022.1.1,60.14230873093864,1,
15,exp3.png,exp4.png,,2,0,2,0,0,15,15,15,,,,,,,,,,,,,,,,,,,,,,,,,False,54,55,False,exp3.png,exp4.png,trial_right_image,-1,exp4.png,1,exp3.png,exp4.png,0,2,non-reversed,incorrect,0.7027904188002619,0,valid_lose,374.91738699999996,25,,,,,,,,,,,,,,,,sub_105,2022-11-03_09h40.12.760,Reversal,2022.1.1,60.14230873093864,1,
16,exp1.png,exp2.png,,2,0,2,0,0,16,16,16,,,,,,,,,,,,,,,,,,,,,,,,,False,55,56,False,exp1.png,exp2.png,trial_left_image,1,exp1.png,1,exp1.png,exp2.png,1,3,reversed,correct,0.2643688104087628,1,valid_win,379.30075499999975,26,,,,,,,,,,,,,,,,sub_105,2022-11-03_09h40.12.760,Reversal,2022.1.1,60.14230873093864,1,
17,exp3.png,exp4.png,,2,0,2,0,0,17,17,17,,,,,,,,,,,,,,,,,,,,,,,,,False,56,57,False,exp3.png,exp4.png,trial_left_image,1,exp3.png,1,exp3.png,exp4.png,1,1,non-reversed,correct,0.006260056014331439,0,invalid_lose,384.35090850000006,26,,,,,,,,,,,,,,,,sub_105,2022-11-03_09h40.12.760,Reversal,2022.1.1,60.14230873093864,1,
18,exp1.png,exp2.png,,2,0,2,0,0,18,18,18,,,,,,,,,,,,,,,,,,,,,,,,,False,57,58,True,exp2.png,exp1.png,trial_right_image,-1,exp1.png,1,exp1.png,exp2.png,1,3,reversed,correct,0.9982541681157332,1,valid_win,388.84911569999986,27,,,,,,,,,,,,,,,,sub_105,2022-11-03_09h40.12.760,Reversal,2022.1.1,60.14230873093864,1,
19,exp3.png,exp4.png,,2,0,2,0,0,19,19,19,,,,,,,,,,,,,,,,,,,,,,,,,False,58,59,False,exp3.png,exp4.png,trial_left_image,1,exp3.png,1,exp3.png,exp4.png,1,1,non-reversed,correct,0.2005679338796803,0,invalid_lose,393.8680890999999,27,,,,,,,,,,,,,,,,sub_105,2022-11-03_09h40.12.760,Reversal,2022.1.1,60.14230873093864,1,
20,exp1.png,exp2.png,,2,0,2,0,0,20,20,20,,,,,,,,,,,,,,,,,,,,,,,,,False,59,60,False,exp1.png,exp2.png,trial_right_image,-1,exp2.png,1,exp1.png,exp2.png,0,4,reversed,incorrect,0.3309156942125091,0,valid_lose,398.24900949999983,27,,,,,,,,,,,,,,,,sub_105,2022-11-03_09h40.12.760,Reversal,2022.1.1,60.14230873093864,1,
,,,exp1.png,2,0,2,0,,,,,0,0,0,0,0,0,0,0,,,,,,,,,,,,,,,,,,,,,,,,,,,,,,,,,,,,,,72.0,72.0,1.7238767999997435,"[(72.0, 1.7238767999997435)]",449.6962664,None,,,,,,,,,,sub_105,2022-11-03_09h40.12.760,Reversal,2022.1.1,60.14230873093864,1,
,,,exp2.png,2,0,2,0,,,,,0,0,0,0,0,1,1,1,,,,,,,,,,,,,,,,,,,,,,,,,,,,,,,,,,,,,,,78.0,1.3196891999996296,"[(78.0, 1.3196891999996296)]",452.9305359000002,None,78.0,,,,,,,,,sub_105,2022-11-03_09h40.12.760,Reversal,2022.1.1,60.14230873093864,1,
,,,exp3.png,2,0,2,0,,,,,0,0,0,0,0,2,2,2,,,,,,,,,,,,,,,,,,,,,,,,,,,,,,,,,,,,,,,70.0,1.4728785000002063,"[(70.0, 1.4728785000002063)]",455.21293930000024,None,,,70.0,,,,,,,sub_105,2022-11-03_09h40.12.760,Reversal,2022.1.1,60.14230873093864,1,
,,,exp4.png,2,0,2,0,,,,,0,0,0,0,0,3,3,3,,,,,,,,,,,,,,,,,,,,,,,,,,,,,,,,,,,,,,,93.0,1.690146299999924,"[(93.0, 1.690146299999924)]",457.64562230000024,None,,93.0,,,,,,,,sub_105,2022-11-03_09h40.12.760,Reversal,2022.1.1,60.14230873093864,1,
0,exp1.png,exp2.png,,3,0,3,0,0,0,0,0,,,,,,,,,,,,,,,,,,,,,,,,,True,,,,,,,,,,,,,,,,,,,,,,,,,,,,,,,,,,,,sub_105,2022-11-03_09h40.12.760,Reversal,2022.1.1,60.14230873093864,1,
1,exp3.png,exp4.png,,3,0,3,0,0,1,1,1,,,,,,,,,,,,,,,,,,,,,,,,,False,60,61,True,exp4.png,exp3.png,trial_right_image,-1,exp3.png,1,exp3.png,exp4.png,1,1,non-reversed,correct,0.5795133825420945,1,valid_win,415.2137904000001,28,,,,,,,,,,,,,,,,sub_105,2022-11-03_09h40.12.760,Reversal,2022.1.1,60.14230873093864,1,
2,exp1.png,exp2.png,,3,0,3,0,0,2,2,2,,,,,,,,,,,,,,,,,,,,,,,,,False,61,62,False,exp1.png,exp2.png,trial_left_image,1,exp1.png,1,exp1.png,exp2.png,1,3,reversed,correct,0.3799127523892196,1,valid_win,420.6806262,29,,,,,,,,,,,,,,,,sub_105,2022-11-03_09h40.12.760,Reversal,2022.1.1,60.14230873093864,1,
3,exp3.png,exp4.png,,3,0,3,0,0,3,3,3,,,,,,,,,,,,,,,,,,,,,,,,,False,62,63,False,exp3.png,exp4.png,trial_right_image,-1,exp4.png,1,exp3.png,exp4.png,0,2,non-reversed,incorrect,0.5197108139042609,0,valid_lose,425.2118596999999,29,,,,,,,,,,,,,,,,sub_105,2022-11-03_09h40.12.760,Reversal,2022.1.1,60.14230873093864,1,
4,exp1.png,exp2.png,,3,0,3,0,0,4,4,4,,,,,,,,,,,,,,,,,,,,,,,,,False,63,64,True,exp2.png,exp1.png,trial_left_image,1,exp2.png,1,exp1.png,exp2.png,0,4,reversed,incorrect,0.7101949705539312,0,valid_lose,429.6791957999999,29,,,,,,,,,,,,,,,,sub_105,2022-11-03_09h40.12.760,Reversal,2022.1.1,60.14230873093864,1,
5,exp3.png,exp4.png,,3,0,3,0,0,5,5,5,,,,,,,,,,,,,,,,,,,,,,,,,False,64,65,False,exp3.png,exp4.png,trial_right_image,-1,exp4.png,1,exp3.png,exp4.png,0,2,non-reversed,incorrect,0.9668515579552754,0,valid_lose,434.2097539000001,29,,,,,,,,,,,,,,,,sub_105,2022-11-03_09h40.12.760,Reversal,2022.1.1,60.14230873093864,1,
6,exp1.png,exp2.png,,3,0,3,0,0,6,6,6,,,,,,,,,,,,,,,,,,,,,,,,,False,65,66,False,exp1.png,exp2.png,trial_right_image,-1,exp2.png,1,exp1.png,exp2.png,0,4,reversed,incorrect,0.5462987658048706,0,valid_lose,438.7604477,29,,,,,,,,,,,,,,,,sub_105,2022-11-03_09h40.12.760,Reversal,2022.1.1,60.14230873093864,1,
7,exp3.png,exp4.png,,3,0,3,0,0,7,7,7,,,,,,,,,,,,,,,,,,,,,,,,,False,66,67,True,exp4.png,exp3.png,trial_left_image,1,exp4.png,1,exp3.png,exp4.png,0,2,non-reversed,incorrect,0.6992399242767858,0,valid_lose,443.11014590000013,29,,,,,,,,,,,,,,,,sub_105,2022-11-03_09h40.12.760,Reversal,2022.1.1,60.14230873093864,1,
8,exp1.png,exp2.png,,3,0,3,0,0,8,8,8,,,,,,,,,,,,,,,,,,,,,,,,,False,67,68,True,exp2.png,exp1.png,trial_right_image,-1,exp1.png,1,exp1.png,exp2.png,1,3,reversed,correct,0.3498664346754632,1,valid_win,447.1420340999998,30,,,,,,,,,,,,,,,,sub_105,2022-11-03_09h40.12.760,Reversal,2022.1.1,60.14230873093864,1,
9,exp3.png,exp4.png,,3,0,3,0,0,9,9,9,,,,,,,,,,,,,,,,,,,,,,,,,False,68,69,True,exp4.png,exp3.png,trial_right_image,-1,exp3.png,1,exp3.png,exp4.png,1,1,non-reversed,correct,0.044959415170323536,0,invalid_lose,451.7082722,30,,,,,,,,,,,,,,,,sub_105,2022-11-03_09h40.12.760,Reversal,2022.1.1,60.14230873093864,1,
10,exp1.png,exp2.png,,3,0,3,0,0,10,10,10,,,,,,,,,,,,,,,,,,,,,,,,,False,69,70,False,exp1.png,exp2.png,trial_left_image,1,exp1.png,1,exp1.png,exp2.png,1,3,reversed,correct,0.7716565158956966,1,valid_win,456.2404056999999,31,,,,,,,,,,,,,,,,sub_105,2022-11-03_09h40.12.760,Reversal,2022.1.1,60.14230873093864,1,
11,exp3.png,exp4.png,,3,0,3,0,0,11,11,11,,,,,,,,,,,,,,,,,,,,,,,,,False,70,71,True,exp4.png,exp3.png,trial_right_image,-1,exp3.png,1,exp3.png,exp4.png,1,1,non-reversed,correct,0.45499763436393503,1,valid_win,461.90674660000013,32,,,,,,,,,,,,,,,,sub_105,2022-11-03_09h40.12.760,Reversal,2022.1.1,60.14230873093864,1,
12,exp1.png,exp2.png,,3,0,3,0,0,12,12,12,,,,,,,,,,,,,,,,,,,,,,,,,False,71,72,True,exp2.png,exp1.png,trial_right_image,-1,exp1.png,1,exp1.png,exp2.png,1,3,reversed,correct,0.7151467644452575,1,valid_win,468.23934770000005,33,,,,,,,,,,,,,,,,sub_105,2022-11-03_09h40.12.760,Reversal,2022.1.1,60.14230873093864,1,
13,exp3.png,exp4.png,,3,0,3,0,0,13,13,13,,,,,,,,,,,,,,,,,,,,,,,,,False,72,73,False,exp3.png,exp4.png,trial_right_image,-1,exp4.png,1,exp3.png,exp4.png,0,2,non-reversed,incorrect,0.9390969592428424,0,valid_lose,474.13961100000006,33,,,,,,,,,,,,,,,,sub_105,2022-11-03_09h40.12.760,Reversal,2022.1.1,60.14230873093864,1,
14,exp1.png,exp2.png,,3,0,3,0,0,14,14,14,,,,,,,,,,,,,,,,,,,,,,,,,False,73,74,True,exp2.png,exp1.png,trial_right_image,-1,exp1.png,1,exp1.png,exp2.png,1,3,reversed,correct,0.8863520797424368,1,valid_win,478.77090099999987,34,,,,,,,,,,,,,,,,sub_105,2022-11-03_09h40.12.760,Reversal,2022.1.1,60.14230873093864,1,
15,exp3.png,exp4.png,,3,0,3,0,0,15,15,15,,,,,,,,,,,,,,,,,,,,,,,,,False,74,75,False,exp3.png,exp4.png,trial_right_image,-1,exp4.png,1,exp3.png,exp4.png,0,2,non-reversed,incorrect,0.18761702979903327,1,invalid_win,484.80335990000003,35,,,,,,,,,,,,,,,,sub_105,2022-11-03_09h40.12.760,Reversal,2022.1.1,60.14230873093864,1,
16,exp1.png,exp2.png,,3,0,3,0,0,16,16,16,,,,,,,,,,,,,,,,,,,,,,,,,False,75,76,True,exp2.png,exp1.png,trial_right_image,-1,exp1.png,1,exp1.png,exp2.png,1,3,reversed,correct,0.5728056226146077,1,valid_win,489.0527213999999,36,,,,,,,,,,,,,,,,sub_105,2022-11-03_09h40.12.760,Reversal,2022.1.1,60.14230873093864,1,
17,exp3.png,exp4.png,,3,0,3,0,0,17,17,17,,,,,,,,,,,,,,,,,,,,,,,,,False,76,77,False,exp3.png,exp4.png,trial_right_image,-1,exp4.png,1,exp3.png,exp4.png,0,2,non-reversed,incorrect,0.561426232921598,0,valid_lose,493.1861091999999,36,,,,,,,,,,,,,,,,sub_105,2022-11-03_09h40.12.760,Reversal,2022.1.1,60.14230873093864,1,
18,exp1.png,exp2.png,,3,0,3,0,0,18,18,18,,,,,,,,,,,,,,,,,,,,,,,,,False,77,78,False,exp1.png,exp2.png,trial_left_image,1,exp1.png,1,exp1.png,exp2.png,1,3,reversed,correct,0.4448539258456563,1,valid_win,497.7015501000001,37,,,,,,,,,,,,,,,,sub_105,2022-11-03_09h40.12.760,Reversal,2022.1.1,60.14230873093864,1,
19,exp3.png,exp4.png,,3,0,3,0,0,19,19,19,,,,,,,,,,,,,,,,,,,,,,,,,False,78,79,False,exp3.png,exp4.png,trial_right_image,-1,exp4.png,1,exp3.png,exp4.png,0,2,non-reversed,incorrect,0.45850012980779264,0,valid_lose,503.2674824999999,37,,,,,,,,,,,,,,,,sub_105,2022-11-03_09h40.12.760,Reversal,2022.1.1,60.14230873093864,1,
20,exp1.png,exp2.png,,3,0,3,0,0,20,20,20,,,,,,,,,,,,,,,,,,,,,,,,,False,79,80,True,exp2.png,exp1.png,trial_right_image,-1,exp1.png,1,exp1.png,exp2.png,1,3,reversed,correct,0.3095387592315699,1,valid_win,507.6669767999997,38,,,,,,,,,,,,,,,,sub_105,2022-11-03_09h40.12.760,Reversal,2022.1.1,60.14230873093864,1,
,,,exp1.png,3,0,3,0,,,,,0,0,0,0,0,0,0,0,,,,,,,,,,,,,,,,,,,,,,,,,,,,,,,,,,,,,,85.0,85.0,1.602716800000053,"[(85.0, 1.602716800000053)]",559.1226816999999,None,,,,,,,,,,sub_105,2022-11-03_09h40.12.760,Reversal,2022.1.1,60.14230873093864,1,
,,,exp2.png,3,0,3,0,,,,,0,0,0,0,0,1,1,1,,,,,,,,,,,,,,,,,,,,,,,,,,,,,,,,,,,,,,,50.0,None,[],561.7956578000001,None,,,,,,,,,,sub_105,2022-11-03_09h40.12.760,Reversal,2022.1.1,60.14230873093864,1,
,,,exp3.png,3,0,3,0,,,,,0,0,0,0,0,2,2,2,,,,,,,,,,,,,,,,,,,,,,,,,,,,,,,,,,,,,,,86.0,1.242266600000221,"[(86.0, 1.242266600000221)]",564.3776003,None,,,86.0,,,,,,,sub_105,2022-11-03_09h40.12.760,Reversal,2022.1.1,60.14230873093864,1,
,,,exp4.png,3,0,3,0,,,,,0,0,0,0,0,3,3,3,,,,,,,,,,,,,,,,,,,,,,,,,,,,,,,,,,,,,,,50.0,None,[],566.8323620000003,None,,,,,,,,,,sub_105,2022-11-03_09h40.12.760,Reversal,2022.1.1,60.14230873093864,1,
0,exp1.png,exp2.png,,,,,,,,,,,,,,,,,,0,0,0,0,0,0,0,0,,,,,,,,,True,,,,,,,,,,,,,,,,,,,,,,,,,,,,,,,,,,,,sub_105,2022-11-03_09h40.12.760,Reversal,2022.1.1,60.14230873093864,1,
1,exp3.png,exp4.png,,,,,,,,,,,,,,,,,,0,0,0,0,0,1,1,1,,,,,,,,,False,0,81,False,exp3.png,exp4.png,trial_right_image,-1,exp4.png,1,exp3.png,exp4.png,0,2,non-reversed,incorrect,0.2620417654755959,0,valid_lose,522.4819672999997,38,,,,,,,,,,519.8106139000001,,,,,,sub_105,2022-11-03_09h40.12.760,Reversal,2022.1.1,60.14230873093864,1,
2,exp1.png,exp2.png,,,,,,,,,,,,,,,,,,0,0,0,0,0,2,2,2,,,,,,,,,False,1,82,False,exp1.png,exp2.png,trial_right_image,-1,exp2.png,1,exp2.png,exp1.png,0,4,reversed,correct,0.8338895933550724,1,valid_win,526.9332194999997,39,,,,,,,,,,,,,,,,sub_105,2022-11-03_09h40.12.760,Reversal,2022.1.1,60.14230873093864,1,
3,exp3.png,exp4.png,,,,,,,,,,,,,,,,,,0,0,0,0,0,3,3,3,,,,,,,,,False,2,83,False,exp3.png,exp4.png,trial_right_image,-1,exp4.png,1,exp3.png,exp4.png,0,2,non-reversed,incorrect,0.6294412691211931,0,valid_lose,531.2158678000001,39,,,,,,,,,,,,,,,,sub_105,2022-11-03_09h40.12.760,Reversal,2022.1.1,60.14230873093864,1,
4,exp1.png,exp2.png,,,,,,,,,,,,,,,,,,0,0,0,0,0,4,4,4,,,,,,,,,False,3,84,False,exp1.png,exp2.png,trial_right_image,-1,exp2.png,1,exp2.png,exp1.png,0,4,reversed,correct,0.930999919543527,1,valid_win,535.4977976999999,40,,,,,,,,,,,,,,,,sub_105,2022-11-03_09h40.12.760,Reversal,2022.1.1,60.14230873093864,1,
5,exp3.png,exp4.png,,,,,,,,,,,,,,,,,,0,0,0,0,0,5,5,5,,,,,,,,,False,4,85,True,exp4.png,exp3.png,trial_right_image,-1,exp3.png,1,exp3.png,exp4.png,1,1,non-reversed,correct,0.7579309835181999,1,valid_win,539.8971053,41,,,,,,,,,,,,,,,,sub_105,2022-11-03_09h40.12.760,Reversal,2022.1.1,60.14230873093864,1,
6,exp1.png,exp2.png,,,,,,,,,,,,,,,,,,0,0,0,0,0,6,6,6,,,,,,,,,False,5,86,False,exp1.png,exp2.png,trial_right_image,-1,exp2.png,1,exp2.png,exp1.png,0,4,reversed,correct,0.8088615493168584,1,valid_win,543.963013,42,,,,,,,,,,,,,,,,sub_105,2022-11-03_09h40.12.760,Reversal,2022.1.1,60.14230873093864,1,
7,exp3.png,exp4.png,,,,,,,,,,,,,,,,,,0,0,0,0,0,7,7,7,,,,,,,,,False,6,87,True,exp4.png,exp3.png,trial_right_image,-1,exp3.png,1,exp3.png,exp4.png,1,1,non-reversed,correct,0.430294524068935,1,valid_win,548.2954099999997,43,,,,,,,,,,,,,,,,sub_105,2022-11-03_09h40.12.760,Reversal,2022.1.1,60.14230873093864,1,
8,exp1.png,exp2.png,,,,,,,,,,,,,,,,,,0,0,0,0,0,8,8,8,,,,,,,,,False,7,88,True,exp2.png,exp1.png,trial_right_image,-1,exp1.png,1,exp2.png,exp1.png,1,3,reversed,incorrect,0.24297921298059566,1,invalid_win,552.5298386999998,44,,,,,,,,,,,,,,,,sub_105,2022-11-03_09h40.12.760,Reversal,2022.1.1,60.14230873093864,1,
9,exp3.png,exp4.png,,,,,,,,,,,,,,,,,,0,0,0,0,0,9,9,9,,,,,,,,,False,8,89,True,exp4.png,exp3.png,trial_right_image,-1,exp3.png,1,exp3.png,exp4.png,1,1,non-reversed,correct,0.5625336251534562,1,valid_win,556.9941933,45,,,,,,,,,,,,,,,,sub_105,2022-11-03_09h40.12.760,Reversal,2022.1.1,60.14230873093864,1,
10,exp1.png,exp2.png,,,,,,,,,,,,,,,,,,0,0,0,0,0,10,10,10,,,,,,,,,False,9,90,True,exp2.png,exp1.png,trial_right_image,-1,exp1.png,1,exp2.png,exp1.png,1,3,reversed,incorrect,0.710405788445786,0,valid_lose,561.2288128999999,45,,,,,,,,,,,,,,,,sub_105,2022-11-03_09h40.12.760,Reversal,2022.1.1,60.14230873093864,1,
11,exp3.png,exp4.png,,,,,,,,,,,,,,,,,,0,0,0,0,0,11,11,11,,,,,,,,,False,10,91,True,exp4.png,exp3.png,trial_right_image,-1,exp3.png,1,exp3.png,exp4.png,1,1,non-reversed,correct,0.4694337125559028,1,valid_win,566.6769894999998,46,,,,,,,,,,,,,,,,sub_105,2022-11-03_09h40.12.760,Reversal,2022.1.1,60.14230873093864,1,
12,exp1.png,exp2.png,,,,,,,,,,,,,,,,,,0,0,0,0,0,12,12,12,,,,,,,,,False,11,92,False,exp1.png,exp2.png,trial_left_image,1,exp1.png,1,exp2.png,exp1.png,1,3,reversed,incorrect,0.4656856032335125,0,valid_lose,572.3429375999999,46,,,,,,,,,,,,,,,,sub_105,2022-11-03_09h40.12.760,Reversal,2022.1.1,60.14230873093864,1,
13,exp3.png,exp4.png,,,,,,,,,,,,,,,,,,0,0,0,0,0,13,13,13,,,,,,,,,False,12,93,False,exp3.png,exp4.png,trial_right_image,-1,exp4.png,1,exp3.png,exp4.png,0,2,non-reversed,incorrect,0.7188563190183641,0,valid_lose,576.4428284,46,,,,,,,,,,,,,,,,sub_105,2022-11-03_09h40.12.760,Reversal,2022.1.1,60.14230873093864,1,
14,exp1.png,exp2.png,,,,,,,,,,,,,,,,,,0,0,0,0,0,14,14,14,,,,,,,,,False,13,94,False,exp1.png,exp2.png,trial_right_image,-1,exp2.png,1,exp2.png,exp1.png,0,4,reversed,correct,0.5584781452740757,1,valid_win,580.5922320999998,47,,,,,,,,,,,,,,,,sub_105,2022-11-03_09h40.12.760,Reversal,2022.1.1,60.14230873093864,1,
15,exp3.png,exp4.png,,,,,,,,,,,,,,,,,,0,0,0,0,0,15,15,15,,,,,,,,,False,14,95,True,exp4.png,exp3.png,trial_right_image,-1,exp3.png,1,exp3.png,exp4.png,1,1,non-reversed,correct,0.5924000096101476,1,valid_win,585.6573490000001,48,,,,,,,,,,,,,,,,sub_105,2022-11-03_09h40.12.760,Reversal,2022.1.1,60.14230873093864,1,
16,exp1.png,exp2.png,,,,,,,,,,,,,,,,,,0,0,0,0,0,16,16,16,,,,,,,,,False,15,96,True,exp2.png,exp1.png,trial_right_image,-1,exp1.png,1,exp2.png,exp1.png,1,3,reversed,incorrect,0.935784672920997,0,valid_lose,590.9745303999998,48,,,,,,,,,,,,,,,,sub_105,2022-11-03_09h40.12.760,Reversal,2022.1.1,60.14230873093864,1,
17,exp3.png,exp4.png,,,,,,,,,,,,,,,,,,0,0,0,0,0,17,17,17,,,,,,,,,False,16,97,True,exp4.png,exp3.png,trial_right_image,-1,exp3.png,1,exp3.png,exp4.png,1,1,non-reversed,correct,0.2006685265386,0,invalid_lose,595.5569753,48,,,,,,,,,,,,,,,,sub_105,2022-11-03_09h40.12.760,Reversal,2022.1.1,60.14230873093864,1,
18,exp1.png,exp2.png,,,,,,,,,,,,,,,,,,0,0,0,0,0,18,18,18,,,,,,,,,False,17,98,True,exp2.png,exp1.png,trial_right_image,-1,exp1.png,1,exp2.png,exp1.png,1,3,reversed,incorrect,0.543613370881512,0,valid_lose,600.1232434999997,48,,,,,,,,,,,,,,,,sub_105,2022-11-03_09h40.12.760,Reversal,2022.1.1,60.14230873093864,1,
19,exp3.png,exp4.png,,,,,,,,,,,,,,,,,,0,0,0,0,0,19,19,19,,,,,,,,,False,18,99,False,exp3.png,exp4.png,trial_right_image,-1,exp4.png,1,exp3.png,exp4.png,0,2,non-reversed,incorrect,0.5139394799071277,0,valid_lose,604.2886856999999,48,,,,,,,,,,,,,,,,sub_105,2022-11-03_09h40.12.760,Reversal,2022.1.1,60.14230873093864,1,
20,exp1.png,exp2.png,,,,,,,,,,,,,,,,,,0,0,0,0,0,20,20,20,,,,,,,,,False,19,100,False,exp1.png,exp2.png,trial_right_image,-1,exp2.png,1,exp2.png,exp1.png,0,4,reversed,correct,0.7569643880582626,1,valid_win,608.4706737000001,49,,,,,,,,,,,,,,,,sub_105,2022-11-03_09h40.12.760,Reversal,2022.1.1,60.14230873093864,1,
,,,exp1.png,,,,,,,,,,,,,,,,,0,0,0,0,,,,,0,0,0,0,0,0,0,0,,,,,,,,,,,,,,,,,,,,,,87.0,87.0,1.7404860000001463,"[(87.0, 1.7404860000001463)]",659.9192169999999,None,,,,,,,,,,sub_105,2022-11-03_09h40.12.760,Reversal,2022.1.1,60.14230873093864,1,
,,,exp2.png,,,,,,,,,,,,,,,,,0,0,0,0,,,,,0,0,0,0,0,1,1,1,,,,,,,,,,,,,,,,,,,,,,,86.0,1.4556288999997378,"[(86.0, 1.4556288999997378)]",662.7696020999999,None,86.0,,,,,,,,,sub_105,2022-11-03_09h40.12.760,Reversal,2022.1.1,60.14230873093864,1,
,,,exp3.png,,,,,,,,,,,,,,,,,0,0,0,0,,,,,0,0,0,0,0,2,2,2,,,,,,,,,,,,,,,,,,,,,,,83.0,1.39523569999983,"[(83.0, 1.39523569999983)]",665.2136168,None,,,83.0,,,,,,,sub_105,2022-11-03_09h40.12.760,Reversal,2022.1.1,60.14230873093864,1,
,,,exp4.png,,,,,,,,,,,,,,,,,0,0,0,0,,,,,0,0,0,0,0,3,3,3,,,,,,,,,,,,,,,,,,,,,,,76.0,1.5705105000001822,"[(76.0, 1.5705105000001822)]",667.6379002000001,None,,76.0,,,,,,,,sub_105,2022-11-03_09h40.12.760,Reversal,2022.1.1,60.14230873093864,1,
0,exp1.png,exp2.png,,,,,,,,,,,,,,,,,,1,0,1,0,0,0,0,0,,,,,,,,,True,,,,,,,,,,,,,,,,,,,,,,,,,,,,,,,,,,,,sub_105,2022-11-03_09h40.12.760,Reversal,2022.1.1,60.14230873093864,1,
1,exp3.png,exp4.png,,,,,,,,,,,,,,,,,,1,0,1,0,0,1,1,1,,,,,,,,,False,20,101,False,exp3.png,exp4.png,trial_right_image,-1,exp4.png,1,exp3.png,exp4.png,0,2,non-reversed,incorrect,0.9288535693276257,0,valid_lose,623.4360676000001,49,,,,,,,,,,,,,,,,sub_105,2022-11-03_09h40.12.760,Reversal,2022.1.1,60.14230873093864,1,
2,exp1.png,exp2.png,,,,,,,,,,,,,,,,,,1,0,1,0,0,2,2,2,,,,,,,,,False,21,102,False,exp1.png,exp2.png,trial_right_image,-1,exp2.png,1,exp2.png,exp1.png,0,4,reversed,correct,0.6246933729631556,1,valid_win,627.6686027999999,50,,,,,,,,,,,,,,,,sub_105,2022-11-03_09h40.12.760,Reversal,2022.1.1,60.14230873093864,1,
3,exp3.png,exp4.png,,,,,,,,,,,,,,,,,,1,0,1,0,0,3,3,3,,,,,,,,,False,22,103,False,exp3.png,exp4.png,trial_right_image,-1,exp4.png,1,exp3.png,exp4.png,0,2,non-reversed,incorrect,0.901827977272741,0,valid_lose,632.0022623,50,,,,,,,,,,,,,,,,sub_105,2022-11-03_09h40.12.760,Reversal,2022.1.1,60.14230873093864,1,
4,exp1.png,exp2.png,,,,,,,,,,,,,,,,,,1,0,1,0,0,4,4,4,,,,,,,,,False,23,104,False,exp1.png,exp2.png,trial_right_image,-1,exp2.png,1,exp2.png,exp1.png,0,4,reversed,correct,0.6889646385943728,1,valid_win,636.2358509999999,51,,,,,,,,,,,,,,,,sub_105,2022-11-03_09h40.12.760,Reversal,2022.1.1,60.14230873093864,1,
5,exp3.png,exp4.png,,,,,,,,,,,,,,,,,,1,0,1,0,0,5,5,5,,,,,,,,,False,24,105,True,exp4.png,exp3.png,trial_right_image,-1,exp3.png,1,exp3.png,exp4.png,1,1,non-reversed,correct,0.909672104254565,1,valid_win,640.8330907999998,52,,,,,,,,,,,,,,,,sub_105,2022-11-03_09h40.12.760,Reversal,2022.1.1,60.14230873093864,1,
6,exp1.png,exp2.png,,,,,,,,,,,,,,,,,,1,0,1,0,0,6,6,6,,,,,,,,,False,25,106,False,exp1.png,exp2.png,trial_right_image,-1,exp2.png,1,exp2.png,exp1.png,0,4,reversed,correct,0.4861175457210528,1,valid_win,645.0497070000001,53,,,,,,,,,,,,,,,,sub_105,2022-11-03_09h40.12.760,Reversal,2022.1.1,60.14230873093864,1,
7,exp3.png,exp4.png,,,,,,,,,,,,,,,,,,1,0,1,0,0,7,7,7,,,,,,,,,False,26,107,True,exp4.png,exp3.png,trial_right_image,-1,exp3.png,1,exp3.png,exp4.png,1,1,non-reversed,correct,0.28073513314041254,1,valid_win,649.2499032000001,54,,,,,,,,,,,,,,,,sub_105,2022-11-03_09h40.12.760,Reversal,2022.1.1,60.14230873093864,1,
8,exp1.png,exp2.png,,,,,,,,,,,,,,,,,,1,0,1,0,0,8,8,8,,,,,,,,,False,27,108,True,exp2.png,exp1.png,trial_right_image,-1,exp1.png,1,exp2.png,exp1.png,1,3,reversed,incorrect,0.3701824864597679,0,valid_lose,653.4494952,54,,,,,,,,,,,,,,,,sub_105,2022-11-03_09h40.12.760,Reversal,2022.1.1,60.14230873093864,1,
9,exp3.png,exp4.png,,,,,,,,,,,,,,,,,,1,0,1,0,0,9,9,9,,,,,,,,,False,28,109,True,exp4.png,exp3.png,trial_right_image,-1,exp3.png,1,exp3.png,exp4.png,1,1,non-reversed,correct,0.3224228731791249,1,valid_win,658.4987219999998,55,,,,,,,,,,,,,,,,sub_105,2022-11-03_09h40.12.760,Reversal,2022.1.1,60.14230873093864,1,
10,exp1.png,exp2.png,,,,,,,,,,,,,,,,,,1,0,1,0,0,10,10,10,,,,,,,,,False,29,110,True,exp2.png,exp1.png,trial_right_image,-1,exp1.png,1,exp2.png,exp1.png,1,3,reversed,incorrect,0.5153915214977541,0,valid_lose,665.5467960999999,55,,,,,,,,,,,,,,,,sub_105,2022-11-03_09h40.12.760,Reversal,2022.1.1,60.14230873093864,1,
11,exp3.png,exp4.png,,,,,,,,,,,,,,,,,,1,0,1,0,0,11,11,11,,,,,,,,,False,30,111,False,exp3.png,exp4.png,trial_right_image,-1,exp4.png,1,exp3.png,exp4.png,0,2,non-reversed,incorrect,0.6183630743346268,0,valid_lose,669.7968083999999,55,,,,,,,,,,,,,,,,sub_105,2022-11-03_09h40.12.760,Reversal,2022.1.1,60.14230873093864,1,
12,exp1.png,exp2.png,,,,,,,,,,,,,,,,,,1,0,1,0,0,12,12,12,,,,,,,,,False,31,112,False,exp1.png,exp2.png,trial_right_image,-1,exp2.png,1,exp2.png,exp1.png,0,4,reversed,correct,0.8075805134592129,1,valid_win,674.0304129000001,56,,,,,,,,,,,,,,,,sub_105,2022-11-03_09h40.12.760,Reversal,2022.1.1,60.14230873093864,1,
13,exp3.png,exp4.png,,,,,,,,,,,,,,,,,,1,0,1,0,0,13,13,13,,,,,,,,,False,32,113,True,exp4.png,exp3.png,trial_right_image,-1,exp3.png,1,exp3.png,exp4.png,1,1,non-reversed,correct,0.18382344662500316,0,invalid_lose,678.4462828000001,56,,,,,,,,,,,,,,,,sub_105,2022-11-03_09h40.12.760,Reversal,2022.1.1,60.14230873093864,1,
14,exp1.png,exp2.png,,,,,,,,,,,,,,,,,,1,0,1,0,0,14,14,14,,,,,,,,,False,33,114,True,exp2.png,exp1.png,trial_right_image,-1,exp1.png,1,exp2.png,exp1.png,1,3,reversed,incorrect,0.2817538036497784,0,valid_lose,682.6785503000001,56,,,,,,,,,,,,,,,,sub_105,2022-11-03_09h40.12.760,Reversal,2022.1.1,60.14230873093864,1,
15,exp3.png,exp4.png,,,,,,,,,,,,,,,,,,1,0,1,0,0,15,15,15,,,,,,,,,False,34,115,True,exp4.png,exp3.png,trial_right_image,-1,exp3.png,1,exp3.png,exp4.png,1,1,non-reversed,correct,0.26206267231030345,1,valid_win,686.9787163000001,57,,,,,,,,,,,,,,,,sub_105,2022-11-03_09h40.12.760,Reversal,2022.1.1,60.14230873093864,1,
16,exp1.png,exp2.png,,,,,,,,,,,,,,,,,,1,0,1,0,0,16,16,16,,,,,,,,,False,35,116,False,exp1.png,exp2.png,trial_right_image,-1,exp2.png,1,exp2.png,exp1.png,0,4,reversed,correct,0.8579652178094263,1,valid_win,691.2115973,58,,,,,,,,,,,,,,,,sub_105,2022-11-03_09h40.12.760,Reversal,2022.1.1,60.14230873093864,1,
17,exp3.png,exp4.png,,,,,,,,,,,,,,,,,,1,0,1,0,0,17,17,17,,,,,,,,,False,36,117,False,exp3.png,exp4.png,trial_right_image,-1,exp4.png,1,exp3.png,exp4.png,0,2,non-reversed,incorrect,0.8827901703761034,0,valid_lose,695.4441635999997,58,,,,,,,,,,,,,,,,sub_105,2022-11-03_09h40.12.760,Reversal,2022.1.1,60.14230873093864,1,
18,exp1.png,exp2.png,,,,,,,,,,,,,,,,,,1,0,1,0,0,18,18,18,,,,,,,,,False,37,118,False,exp1.png,exp2.png,trial_right_image,-1,exp2.png,1,exp2.png,exp1.png,0,4,reversed,correct,0.23416593316800527,0,invalid_lose,699.9258243999998,58,,,,,,,,,,,,,,,,sub_105,2022-11-03_09h40.12.760,Reversal,2022.1.1,60.14230873093864,1,
19,exp3.png,exp4.png,,,,,,,,,,,,,,,,,,1,0,1,0,0,19,19,19,,,,,,,,,False,38,119,True,exp4.png,exp3.png,trial_right_image,-1,exp3.png,1,exp3.png,exp4.png,1,1,non-reversed,correct,0.48413535701561905,1,valid_win,704.2425411999998,59,,,,,,,,,,,,,,,,sub_105,2022-11-03_09h40.12.760,Reversal,2022.1.1,60.14230873093864,1,
20,exp1.png,exp2.png,,,,,,,,,,,,,,,,,,1,0,1,0,0,20,20,20,,,,,,,,,False,39,120,True,exp2.png,exp1.png,trial_right_image,-1,exp1.png,1,exp2.png,exp1.png,1,3,reversed,incorrect,0.011885645683087809,1,invalid_win,708.6078874,60,,,,,,,,,,,,,,,,sub_105,2022-11-03_09h40.12.760,Reversal,2022.1.1,60.14230873093864,1,
,,,exp1.png,,,,,,,,,,,,,,,,,1,0,1,0,,,,,0,0,0,0,0,0,0,0,,,,,,,,,,,,,,,,,,,,,,35.0,35.0,3.455861400000231,"[(70.0, 1.7564078999998856), (35.0, 3.455861400000231)]",760.0577441000003,None,,,,,,,,,,sub_105,2022-11-03_09h40.12.760,Reversal,2022.1.1,60.14230873093864,1,
,,,exp2.png,,,,,,,,,,,,,,,,,1,0,1,0,,,,,0,0,0,0,0,1,1,1,,,,,,,,,,,,,,,,,,,,,,,37.0,1.7916304999998829,"[(37.0, 1.7916304999998829)]",764.5039672,None,37.0,,,,,,,,,sub_105,2022-11-03_09h40.12.760,Reversal,2022.1.1,60.14230873093864,1,
,,,exp3.png,,,,,,,,,,,,,,,,,1,0,1,0,,,,,0,0,0,0,0,2,2,2,,,,,,,,,,,,,,,,,,,,,,,43.0,4.722216000000117,"[(43.0, 4.722216000000117)]",767.2392477000001,None,,,43.0,,,,,,,sub_105,2022-11-03_09h40.12.760,Reversal,2022.1.1,60.14230873093864,1,
,,,exp4.png,,,,,,,,,,,,,,,,,1,0,1,0,,,,,0,0,0,0,0,3,3,3,,,,,,,,,,,,,,,,,,,,,,,38.0,1.4066313999996964,"[(38.0, 1.4066313999996964)]",772.8069112999999,None,,38.0,,,,,,,,sub_105,2022-11-03_09h40.12.760,Reversal,2022.1.1,60.14230873093864,1,
0,exp1.png,exp2.png,,,,,,,,,,,,,,,,,,2,0,2,0,0,0,0,0,,,,,,,,,True,,,,,,,,,,,,,,,,,,,,,,,,,,,,,,,,,,,,sub_105,2022-11-03_09h40.12.760,Reversal,2022.1.1,60.14230873093864,1,
1,exp3.png,exp4.png,,,,,,,,,,,,,,,,,,2,0,2,0,0,1,1,1,,,,,,,,,False,40,121,True,exp4.png,exp3.png,trial_right_image,-1,exp3.png,1,exp3.png,exp4.png,1,1,non-reversed,correct,0.37064109819660773,1,valid_win,731.9727002999998,61,,,,,,,,,,,,,,,,sub_105,2022-11-03_09h40.12.760,Reversal,2022.1.1,60.14230873093864,1,
2,exp1.png,exp2.png,,,,,,,,,,,,,,,,,,2,0,2,0,0,2,2,2,,,,,,,,,False,41,122,True,exp2.png,exp1.png,trial_right_image,-1,exp1.png,1,exp2.png,exp1.png,1,3,reversed,incorrect,0.3076559704599813,0,valid_lose,740.0885361999999,61,,,,,,,,,,,,,,,,sub_105,2022-11-03_09h40.12.760,Reversal,2022.1.1,60.14230873093864,1,
3,exp3.png,exp4.png,,,,,,,,,,,,,,,,,,2,0,2,0,0,3,3,3,,,,,,,,,False,42,123,False,exp3.png,exp4.png,trial_right_image,-1,exp4.png,1,exp3.png,exp4.png,0,2,non-reversed,incorrect,0.4552099478027055,0,valid_lose,744.7711534,61,,,,,,,,,,,,,,,,sub_105,2022-11-03_09h40.12.760,Reversal,2022.1.1,60.14230873093864,1,
4,exp1.png,exp2.png,,,,,,,,,,,,,,,,,,2,0,2,0,0,4,4,4,,,,,,,,,False,43,124,False,exp1.png,exp2.png,trial_right_image,-1,exp2.png,1,exp2.png,exp1.png,0,4,reversed,correct,0.7248366584803583,1,valid_win,749.5858860999997,62,,,,,,,,,,,,,,,,sub_105,2022-11-03_09h40.12.760,Reversal,2022.1.1,60.14230873093864,1,
5,exp3.png,exp4.png,,,,,,,,,,,,,,,,,,2,0,2,0,0,5,5,5,,,,,,,,,False,44,125,False,exp3.png,exp4.png,trial_left_image,1,exp3.png,1,exp3.png,exp4.png,1,1,non-reversed,correct,0.08592277875496679,0,invalid_lose,754.5367517999998,62,,,,,,,,,,,,,,,,sub_105,2022-11-03_09h40.12.760,Reversal,2022.1.1,60.14230873093864,1,
6,exp1.png,exp2.png,,,,,,,,,,,,,,,,,,2,0,2,0,0,6,6,6,,,,,,,,,False,45,126,True,exp2.png,exp1.png,trial_right_image,-1,exp1.png,1,exp2.png,exp1.png,1,3,reversed,incorrect,0.5385353765669597,0,valid_lose,758.7680126999999,62,,,,,,,,,,,,,,,,sub_105,2022-11-03_09h40.12.760,Reversal,2022.1.1,60.14230873093864,1,
7,exp3.png,exp4.png,,,,,,,,,,,,,,,,,,2,0,2,0,0,7,7,7,,,,,,,,,False,46,127,True,exp4.png,exp3.png,trial_right_image,-1,exp3.png,1,exp3.png,exp4.png,1,1,non-reversed,correct,0.26100650335195696,1,valid_win,763.1014267999999,63,,,,,,,,,,,,,,,,sub_105,2022-11-03_09h40.12.760,Reversal,2022.1.1,60.14230873093864,1,
8,exp1.png,exp2.png,,,,,,,,,,,,,,,,,,2,0,2,0,0,8,8,8,,,,,,,,,False,47,128,False,exp1.png,exp2.png,trial_right_image,-1,exp2.png,1,exp2.png,exp1.png,0,4,reversed,correct,0.5726738925488185,1,valid_win,767.4012023,64,,,,,,,,,,,,,,,,sub_105,2022-11-03_09h40.12.760,Reversal,2022.1.1,60.14230873093864,1,
9,exp3.png,exp4.png,,,,,,,,,,,,,,,,,,2,0,2,0,0,9,9,9,,,,,,,,,False,48,129,True,exp4.png,exp3.png,trial_right_image,-1,exp3.png,1,exp3.png,exp4.png,1,1,non-reversed,correct,0.7100860047503735,1,valid_win,772.0670230000001,65,,,,,,,,,,,,,,,,sub_105,2022-11-03_09h40.12.760,Reversal,2022.1.1,60.14230873093864,1,
10,exp1.png,exp2.png,,,,,,,,,,,,,,,,,,2,0,2,0,0,10,10,10,,,,,,,,,False,49,130,False,exp1.png,exp2.png,trial_right_image,-1,exp2.png,1,exp2.png,exp1.png,0,4,reversed,correct,0.765234423083487,1,valid_win,777.4167929999999,66,,,,,,,,,,,,,,,,sub_105,2022-11-03_09h40.12.760,Reversal,2022.1.1,60.14230873093864,1,
11,exp3.png,exp4.png,,,,,,,,,,,,,,,,,,2,0,2,0,0,11,11,11,,,,,,,,,False,50,131,True,exp4.png,exp3.png,trial_right_image,-1,exp3.png,1,exp3.png,exp4.png,1,1,non-reversed,correct,0.6329099667227382,1,valid_win,782.6503570999998,67,,,,,,,,,,,,,,,,sub_105,2022-11-03_09h40.12.760,Reversal,2022.1.1,60.14230873093864,1,
12,exp1.png,exp2.png,,,,,,,,,,,,,,,,,,2,0,2,0,0,12,12,12,,,,,,,,,False,51,132,True,exp2.png,exp1.png,trial_right_image,-1,exp1.png,1,exp2.png,exp1.png,1,3,reversed,incorrect,0.4285454505057421,0,valid_lose,788.3489804999999,67,,,,,,,,,,,,,,,,sub_105,2022-11-03_09h40.12.760,Reversal,2022.1.1,60.14230873093864,1,
13,exp3.png,exp4.png,,,,,,,,,,,,,,,,,,2,0,2,0,0,13,13,13,,,,,,,,,False,52,133,False,exp3.png,exp4.png,trial_right_image,-1,exp4.png,1,exp3.png,exp4.png,0,2,non-reversed,incorrect,0.6398599210700733,0,valid_lose,793.1136959999999,67,,,,,,,,,,,,,,,,sub_105,2022-11-03_09h40.12.760,Reversal,2022.1.1,60.14230873093864,1,
14,exp1.png,exp2.png,,,,,,,,,,,,,,,,,,2,0,2,0,0,14,14,14,,,,,,,,,False,53,134,False,exp1.png,exp2.png,trial_right_image,-1,exp2.png,1,exp2.png,exp1.png,0,4,reversed,correct,0.018021516260180004,0,invalid_lose,797.6473444999997,67,,,,,,,,,,,,,,,,sub_105,2022-11-03_09h40.12.760,Reversal,2022.1.1,60.14230873093864,1,
15,exp3.png,exp4.png,,,,,,,,,,,,,,,,,,2,0,2,0,0,15,15,15,,,,,,,,,False,54,135,False,exp3.png,exp4.png,trial_left_image,1,exp3.png,1,exp3.png,exp4.png,1,1,non-reversed,correct,0.6106277796497059,1,valid_win,802.1305678999997,68,,,,,,,,,,,,,,,,sub_105,2022-11-03_09h40.12.760,Reversal,2022.1.1,60.14230873093864,1,
16,exp1.png,exp2.png,,,,,,,,,,,,,,,,,,2,0,2,0,0,16,16,16,,,,,,,,,False,55,136,False,exp1.png,exp2.png,trial_right_image,-1,exp2.png,1,exp2.png,exp1.png,0,4,reversed,correct,0.2112440898693646,0,invalid_lose,806.6464489999998,68,,,,,,,,,,,,,,,,sub_105,2022-11-03_09h40.12.760,Reversal,2022.1.1,60.14230873093864,1,
17,exp3.png,exp4.png,,,,,,,,,,,,,,,,,,2,0,2,0,0,17,17,17,,,,,,,,,False,56,137,True,exp4.png,exp3.png,trial_right_image,-1,exp3.png,1,exp3.png,exp4.png,1,1,non-reversed,correct,0.8256782339005289,1,valid_win,811.0795751,69,,,,,,,,,,,,,,,,sub_105,2022-11-03_09h40.12.760,Reversal,2022.1.1,60.14230873093864,1,
18,exp1.png,exp2.png,,,,,,,,,,,,,,,,,,2,0,2,0,0,18,18,18,,,,,,,,,False,57,138,True,exp2.png,exp1.png,trial_right_image,-1,exp1.png,1,exp2.png,exp1.png,1,3,reversed,incorrect,0.8010511620523276,0,valid_lose,815.4941208999999,69,,,,,,,,,,,,,,,,sub_105,2022-11-03_09h40.12.760,Reversal,2022.1.1,60.14230873093864,1,
19,exp3.png,exp4.png,,,,,,,,,,,,,,,,,,2,0,2,0,0,19,19,19,,,,,,,,,False,58,139,False,exp3.png,exp4.png,trial_right_image,-1,exp4.png,1,exp3.png,exp4.png,0,2,non-reversed,incorrect,0.7480267880820469,0,valid_lose,819.7104546999999,69,,,,,,,,,,,,,,,,sub_105,2022-11-03_09h40.12.760,Reversal,2022.1.1,60.14230873093864,1,
20,exp1.png,exp2.png,,,,,,,,,,,,,,,,,,2,0,2,0,0,20,20,20,,,,,,,,,False,59,140,True,exp2.png,exp1.png,trial_right_image,-1,exp1.png,1,exp2.png,exp1.png,1,3,reversed,incorrect,0.2579992435657985,0,valid_lose,823.7934437999997,69,,,,,,,,,,,,,,,,sub_105,2022-11-03_09h40.12.760,Reversal,2022.1.1,60.14230873093864,1,
,,,exp1.png,,,,,,,,,,,,,,,,,2,0,2,0,,,,,0,0,0,0,0,0,0,0,,,,,,,,,,,,,,,,,,,,,,63.0,63.0,1.5263218999998571,"[(63.0, 1.5263218999998571)]",875.240595,None,,,,,,,,,,sub_105,2022-11-03_09h40.12.760,Reversal,2022.1.1,60.14230873093864,1,
,,,exp2.png,,,,,,,,,,,,,,,,,2,0,2,0,,,,,0,0,0,0,0,1,1,1,,,,,,,,,,,,,,,,,,,,,,,58.0,1.4772421000002396,"[(58.0, 1.4772421000002396)]",878.6869710000003,None,58.0,,,,,,,,,sub_105,2022-11-03_09h40.12.760,Reversal,2022.1.1,60.14230873093864,1,
,,,exp3.png,,,,,,,,,,,,,,,,,2,0,2,0,,,,,0,0,0,0,0,2,2,2,,,,,,,,,,,,,,,,,,,,,,,64.0,1.2291461999998319,"[(64.0, 1.2291461999998319)]",881.117755,None,,,64.0,,,,,,,sub_105,2022-11-03_09h40.12.760,Reversal,2022.1.1,60.14230873093864,1,
,,,exp4.png,,,,,,,,,,,,,,,,,2,0,2,0,,,,,0,0,0,0,0,3,3,3,,,,,,,,,,,,,,,,,,,,,,,65.0,1.7100690000002032,"[(65.0, 1.7100690000002032)]",883.320301,None,,65.0,,,,,,,,sub_105,2022-11-03_09h40.12.760,Reversal,2022.1.1,60.14230873093864,1,
,,,,,,,,,,,,,,,,,,,,,,,,,,,,,,,,,,,,,,,,,,,,,,,,,,,,,,,,69,,,,,,,,,,,75,40,35,317.1657346999996,1,,,,,,,
