trial_index,trial_image1_file,trial_image2_file,image_file,learning_outer_loop.thisRepN,learning_outer_loop.thisTrialN,learning_outer_loop.thisN,learning_outer_loop.thisIndex,learning_inner_loop.thisRepN,learning_inner_loop.thisTrialN,learning_inner_loop.thisN,learning_inner_loop.thisIndex,learning_estimation_outer_loop.thisRepN,learning_estimation_outer_loop.thisTrialN,learning_estimation_outer_loop.thisN,learning_estimation_outer_loop.thisIndex,learning_estimation_inner_loop.thisRepN,learning_estimation_inner_loop.thisTrialN,learning_estimation_inner_loop.thisN,learning_estimation_inner_loop.thisIndex,reversal_outer_loop.thisRepN,reversal_outer_loop.thisTrialN,reversal_outer_loop.thisN,reversal_outer_loop.thisIndex,reversal_inner_loop.thisRepN,reversal_inner_loop.thisTrialN,reversal_inner_loop.thisN,reversal_inner_loop.thisIndex,reversal_estimation_outer_loop.thisRepN,reversal_estimation_outer_loop.thisTrialN,reversal_estimation_outer_loop.thisN,reversal_estimation_outer_loop.thisIndex,reversal_estimation_inner_loop.thisRepN,reversal_estimation_inner_loop.thisTrialN,reversal_estimation_inner_loop.thisN,reversal_estimation_inner_loop.thisIndex,skipped,total_trial_counter,trial_num,left_right_flip,left_image_file,right_image_file,clicked_stimulus_side,side,clicked_stimulus,version,high_prob_image_file,low_prob_image_file,choice_a,choice_b,pair_type,correct,trial_feedback_random,reward,trial_type,overall_time_after_trial,score,estimation_exp1.png,estimation_rating.response,estimation_rating.rt,estimation_rating.history,estimation_rating.started,estimation_rating.stopped,estimation_exp2.png,estimation_exp3.png,estimation_exp4.png,total_learning_time,total_correct,learning_correct,reversal_correct,total_reversal_time,extra_block,end_experiment.keys,end_experiment.rt,participant,date,expName,psychopyVersion,frameRate,ver,
0,exp1.png,exp2.png,,0,0,0,0,0,0,0,0,,,,,,,,,,,,,,,,,,,,,,,,,True,,,,,,,,,,,,,,,,,,,,,,,,,,,,,,,,,,,,,,sub_537,2024-09-24_17h37.39.615,Reversal,2022.1.2,60.05010579832634,1,
1,exp3.png,exp4.png,,0,0,0,0,0,1,1,1,,,,,,,,,,,,,,,,,,,,,,,,,False,0,1,False,exp3.png,exp4.png,trial_right_image,-1,exp4.png,1,exp3.png,exp4.png,0,2,non-reversed,incorrect,0.4212944719335636,0,valid_lose,14.631882099900395,0,,,,,,,,,,,,,,,,,,sub_537,2024-09-24_17h37.39.615,Reversal,2022.1.2,60.05010579832634,1,
2,exp1.png,exp2.png,,0,0,0,0,0,2,2,2,,,,,,,,,,,,,,,,,,,,,,,,,False,1,2,True,exp2.png,exp1.png,trial_right_image,-1,exp1.png,1,exp1.png,exp2.png,1,3,reversed,correct,0.2988072764012446,1,valid_win,23.09932989999652,1,,,,,,,,,,,,,,,,,,sub_537,2024-09-24_17h37.39.615,Reversal,2022.1.2,60.05010579832634,1,
3,exp3.png,exp4.png,,0,0,0,0,0,3,3,3,,,,,,,,,,,,,,,,,,,,,,,,,False,2,3,True,exp4.png,exp3.png,trial_right_image,-1,exp3.png,1,exp3.png,exp4.png,1,1,non-reversed,correct,0.8960566184634801,1,valid_win,30.315843499964103,2,,,,,,,,,,,,,,,,,,sub_537,2024-09-24_17h37.39.615,Reversal,2022.1.2,60.05010579832634,1,
4,exp1.png,exp2.png,,0,0,0,0,0,4,4,4,,,,,,,,,,,,,,,,,,,,,,,,,False,3,4,False,exp1.png,exp2.png,trial_right_image,-1,exp2.png,1,exp1.png,exp2.png,0,4,reversed,incorrect,0.6016047832509039,0,valid_lose,51.78194410004653,2,,,,,,,,,,,,,,,,,,sub_537,2024-09-24_17h37.39.615,Reversal,2022.1.2,60.05010579832634,1,
5,exp3.png,exp4.png,,0,0,0,0,0,5,5,5,,,,,,,,,,,,,,,,,,,,,,,,,False,4,5,False,exp3.png,exp4.png,trial_left_image,1,exp3.png,1,exp3.png,exp4.png,1,1,non-reversed,correct,0.2127326339097234,0,invalid_lose,57.365620099939406,2,,,,,,,,,,,,,,,,,,sub_537,2024-09-24_17h37.39.615,Reversal,2022.1.2,60.05010579832634,1,
6,exp1.png,exp2.png,,0,0,0,0,0,6,6,6,,,,,,,,,,,,,,,,,,,,,,,,,False,5,6,False,exp1.png,exp2.png,trial_left_image,1,exp1.png,1,exp1.png,exp2.png,1,3,reversed,correct,0.6860759199394973,1,valid_win,62.8986784000881,3,,,,,,,,,,,,,,,,,,sub_537,2024-09-24_17h37.39.615,Reversal,2022.1.2,60.05010579832634,1,
7,exp3.png,exp4.png,,0,0,0,0,0,7,7,7,,,,,,,,,,,,,,,,,,,,,,,,,False,6,7,False,exp3.png,exp4.png,trial_right_image,-1,exp4.png,1,exp3.png,exp4.png,0,2,non-reversed,incorrect,0.1425553548961983,1,invalid_win,76.38131289999001,4,,,,,,,,,,,,,,,,,,sub_537,2024-09-24_17h37.39.615,Reversal,2022.1.2,60.05010579832634,1,
8,exp1.png,exp2.png,,0,0,0,0,0,8,8,8,,,,,,,,,,,,,,,,,,,,,,,,,False,7,8,True,exp2.png,exp1.png,trial_right_image,-1,exp1.png,1,exp1.png,exp2.png,1,3,reversed,correct,0.03604436916315701,0,invalid_lose,84.68118759989738,4,,,,,,,,,,,,,,,,,,sub_537,2024-09-24_17h37.39.615,Reversal,2022.1.2,60.05010579832634,1,
9,exp3.png,exp4.png,,0,0,0,0,0,9,9,9,,,,,,,,,,,,,,,,,,,,,,,,,False,8,9,True,exp4.png,exp3.png,trial_left_image,1,exp4.png,1,exp3.png,exp4.png,0,2,non-reversed,incorrect,0.11356884029222425,1,invalid_win,90.03165509994142,5,,,,,,,,,,,,,,,,,,sub_537,2024-09-24_17h37.39.615,Reversal,2022.1.2,60.05010579832634,1,
10,exp1.png,exp2.png,,0,0,0,0,0,10,10,10,,,,,,,,,,,,,,,,,,,,,,,,,False,9,10,True,exp2.png,exp1.png,trial_left_image,1,exp2.png,1,exp1.png,exp2.png,0,4,reversed,incorrect,0.780105397373293,0,valid_lose,96.89817239996046,5,,,,,,,,,,,,,,,,,,sub_537,2024-09-24_17h37.39.615,Reversal,2022.1.2,60.05010579832634,1,
11,exp3.png,exp4.png,,0,0,0,0,0,11,11,11,,,,,,,,,,,,,,,,,,,,,,,,,False,10,11,True,exp4.png,exp3.png,trial_right_image,-1,exp3.png,1,exp3.png,exp4.png,1,1,non-reversed,correct,0.9604653571576244,1,valid_win,102.09765979996882,6,,,,,,,,,,,,,,,,,,sub_537,2024-09-24_17h37.39.615,Reversal,2022.1.2,60.05010579832634,1,
12,exp1.png,exp2.png,,0,0,0,0,0,12,12,12,,,,,,,,,,,,,,,,,,,,,,,,,False,11,12,False,exp1.png,exp2.png,trial_right_image,-1,exp2.png,1,exp1.png,exp2.png,0,4,reversed,incorrect,0.74719552751255,0,valid_lose,112.0315606999211,6,,,,,,,,,,,,,,,,,,sub_537,2024-09-24_17h37.39.615,Reversal,2022.1.2,60.05010579832634,1,
13,exp3.png,exp4.png,,0,0,0,0,0,13,13,13,,,,,,,,,,,,,,,,,,,,,,,,,False,12,13,False,exp3.png,exp4.png,trial_left_image,1,exp3.png,1,exp3.png,exp4.png,1,1,non-reversed,correct,0.20663346733947174,0,invalid_lose,118.46415539993905,6,,,,,,,,,,,,,,,,,,sub_537,2024-09-24_17h37.39.615,Reversal,2022.1.2,60.05010579832634,1,
14,exp1.png,exp2.png,,0,0,0,0,0,14,14,14,,,,,,,,,,,,,,,,,,,,,,,,,False,13,14,False,exp1.png,exp2.png,trial_right_image,-1,exp2.png,1,exp1.png,exp2.png,0,4,reversed,incorrect,0.6219052859522287,0,valid_lose,125.24745419993997,6,,,,,,,,,,,,,,,,,,sub_537,2024-09-24_17h37.39.615,Reversal,2022.1.2,60.05010579832634,1,
15,exp3.png,exp4.png,,0,0,0,0,0,15,15,15,,,,,,,,,,,,,,,,,,,,,,,,,False,14,15,False,exp3.png,exp4.png,trial_left_image,1,exp3.png,1,exp3.png,exp4.png,1,1,non-reversed,correct,0.8717270521090691,1,valid_win,129.6475448999554,7,,,,,,,,,,,,,,,,,,sub_537,2024-09-24_17h37.39.615,Reversal,2022.1.2,60.05010579832634,1,
16,exp1.png,exp2.png,,0,0,0,0,0,16,16,16,,,,,,,,,,,,,,,,,,,,,,,,,False,15,16,False,exp1.png,exp2.png,trial_right_image,-1,exp2.png,1,exp1.png,exp2.png,0,4,reversed,incorrect,0.03768182993929292,1,invalid_win,137.447327000089,8,,,,,,,,,,,,,,,,,,sub_537,2024-09-24_17h37.39.615,Reversal,2022.1.2,60.05010579832634,1,
17,exp3.png,exp4.png,,0,0,0,0,0,17,17,17,,,,,,,,,,,,,,,,,,,,,,,,,False,16,17,True,exp4.png,exp3.png,trial_left_image,1,exp4.png,1,exp3.png,exp4.png,0,2,non-reversed,incorrect,0.4987441671528263,0,valid_lose,145.23039849987254,8,,,,,,,,,,,,,,,,,,sub_537,2024-09-24_17h37.39.615,Reversal,2022.1.2,60.05010579832634,1,
18,exp1.png,exp2.png,,0,0,0,0,0,18,18,18,,,,,,,,,,,,,,,,,,,,,,,,,False,17,18,True,exp2.png,exp1.png,trial_right_image,-1,exp1.png,1,exp1.png,exp2.png,1,3,reversed,correct,0.9483837723498076,1,valid_win,149.8304127000738,9,,,,,,,,,,,,,,,,,,sub_537,2024-09-24_17h37.39.615,Reversal,2022.1.2,60.05010579832634,1,
19,exp3.png,exp4.png,,0,0,0,0,0,19,19,19,,,,,,,,,,,,,,,,,,,,,,,,,False,18,19,True,exp4.png,exp3.png,trial_left_image,1,exp4.png,1,exp3.png,exp4.png,0,2,non-reversed,incorrect,0.9651686253597542,0,valid_lose,156.68038080004044,9,,,,,,,,,,,,,,,,,,sub_537,2024-09-24_17h37.39.615,Reversal,2022.1.2,60.05010579832634,1,
20,exp1.png,exp2.png,,0,0,0,0,0,20,20,20,,,,,,,,,,,,,,,,,,,,,,,,,False,19,20,True,exp2.png,exp1.png,trial_right_image,-1,exp1.png,1,exp1.png,exp2.png,1,3,reversed,correct,0.7052129913470249,1,valid_win,160.8965676999651,10,,,,,,,,,,,,,,,,,,sub_537,2024-09-24_17h37.39.615,Reversal,2022.1.2,60.05010579832634,1,
,,,exp1.png,0,0,0,0,,,,,0,0,0,0,0,0,0,0,,,,,,,,,,,,,,,,,,,,,,,,,,,,,,,,,,,,,,70.0,70.0,16.83274700003676,"[(65.0, 14.481829999946058), (70.0, 16.83274700003676)]",235.9883576000575,None,,,,,,,,,,,,sub_537,2024-09-24_17h37.39.615,Reversal,2022.1.2,60.05010579832634,1,
,,,exp2.png,0,0,0,0,,,,,0,0,0,0,0,1,1,1,,,,,,,,,,,,,,,,,,,,,,,,,,,,,,,,,,,,,,,39.0,4.712211300153285,"[(39.0, 4.712211300153285)]",253.92456920002587,None,39.0,,,,,,,,,,,sub_537,2024-09-24_17h37.39.615,Reversal,2022.1.2,60.05010579832634,1,
,,,exp3.png,0,0,0,0,,,,,0,0,0,0,0,2,2,2,,,,,,,,,,,,,,,,,,,,,,,,,,,,,,,,,,,,,,,54.0,4.3177371001802385,"[(54.0, 4.3177371001802385)]",259.8858988999855,None,,54.0,,,,,,,,,,sub_537,2024-09-24_17h37.39.615,Reversal,2022.1.2,60.05010579832634,1,
,,,exp4.png,0,0,0,0,,,,,0,0,0,0,0,3,3,3,,,,,,,,,,,,,,,,,,,,,,,,,,,,,,,,,,,,,,,65.0,3.5186123999301344,"[(65.0, 3.5186123999301344)]",265.3313331999816,None,,,65.0,,,,,,,,,sub_537,2024-09-24_17h37.39.615,Reversal,2022.1.2,60.05010579832634,1,
0,exp1.png,exp2.png,,1,0,1,0,0,0,0,0,,,,,,,,,,,,,,,,,,,,,,,,,True,,,,,,,,,,,,,,,,,,,,,,,,,,,,,,,,,,,,,,sub_537,2024-09-24_17h37.39.615,Reversal,2022.1.2,60.05010579832634,1,
1,exp3.png,exp4.png,,1,0,1,0,0,1,1,1,,,,,,,,,,,,,,,,,,,,,,,,,False,20,21,False,exp3.png,exp4.png,trial_right_image,-1,exp4.png,1,exp3.png,exp4.png,0,2,non-reversed,incorrect,0.7098151450713602,0,valid_lose,204.61267270008102,10,,,,,,,,,,,,,,,,,,sub_537,2024-09-24_17h37.39.615,Reversal,2022.1.2,60.05010579832634,1,
2,exp1.png,exp2.png,,1,0,1,0,0,2,2,2,,,,,,,,,,,,,,,,,,,,,,,,,False,21,22,True,exp2.png,exp1.png,trial_right_image,-1,exp1.png,1,exp1.png,exp2.png,1,3,reversed,correct,0.5154777381230101,1,valid_win,209.9295059000142,11,,,,,,,,,,,,,,,,,,sub_537,2024-09-24_17h37.39.615,Reversal,2022.1.2,60.05010579832634,1,
3,exp3.png,exp4.png,,1,0,1,0,0,3,3,3,,,,,,,,,,,,,,,,,,,,,,,,,False,22,23,True,exp4.png,exp3.png,trial_left_image,1,exp4.png,1,exp3.png,exp4.png,0,2,non-reversed,incorrect,0.28211876176065964,0,valid_lose,218.31264739995822,11,,,,,,,,,,,,,,,,,,sub_537,2024-09-24_17h37.39.615,Reversal,2022.1.2,60.05010579832634,1,
4,exp1.png,exp2.png,,1,0,1,0,0,4,4,4,,,,,,,,,,,,,,,,,,,,,,,,,False,23,24,True,exp2.png,exp1.png,trial_right_image,-1,exp1.png,1,exp1.png,exp2.png,1,3,reversed,correct,0.8707451678661783,1,valid_win,223.66241739992984,12,,,,,,,,,,,,,,,,,,sub_537,2024-09-24_17h37.39.615,Reversal,2022.1.2,60.05010579832634,1,
5,exp3.png,exp4.png,,1,0,1,0,0,5,5,5,,,,,,,,,,,,,,,,,,,,,,,,,False,24,25,True,exp4.png,exp3.png,trial_right_image,-1,exp3.png,1,exp3.png,exp4.png,1,1,non-reversed,correct,0.9741502656570602,1,valid_win,230.5626370999962,13,,,,,,,,,,,,,,,,,,sub_537,2024-09-24_17h37.39.615,Reversal,2022.1.2,60.05010579832634,1,
6,exp1.png,exp2.png,,1,0,1,0,0,6,6,6,,,,,,,,,,,,,,,,,,,,,,,,,False,25,26,True,exp2.png,exp1.png,trial_right_image,-1,exp1.png,1,exp1.png,exp2.png,1,3,reversed,correct,0.8180449176801123,1,valid_win,236.4296816000715,14,,,,,,,,,,,,,,,,,,sub_537,2024-09-24_17h37.39.615,Reversal,2022.1.2,60.05010579832634,1,
7,exp3.png,exp4.png,,1,0,1,0,0,7,7,7,,,,,,,,,,,,,,,,,,,,,,,,,False,26,27,False,exp3.png,exp4.png,trial_left_image,1,exp3.png,1,exp3.png,exp4.png,1,1,non-reversed,correct,0.09273757137468985,0,invalid_lose,243.34562689997256,14,,,,,,,,,,,,,,,,,,sub_537,2024-09-24_17h37.39.615,Reversal,2022.1.2,60.05010579832634,1,
8,exp1.png,exp2.png,,1,0,1,0,0,8,8,8,,,,,,,,,,,,,,,,,,,,,,,,,False,27,28,True,exp2.png,exp1.png,trial_right_image,-1,exp1.png,1,exp1.png,exp2.png,1,3,reversed,correct,0.4655127828116178,1,valid_win,249.84526450000703,15,,,,,,,,,,,,,,,,,,sub_537,2024-09-24_17h37.39.615,Reversal,2022.1.2,60.05010579832634,1,
9,exp3.png,exp4.png,,1,0,1,0,0,9,9,9,,,,,,,,,,,,,,,,,,,,,,,,,False,28,29,True,exp4.png,exp3.png,trial_left_image,1,exp4.png,1,exp3.png,exp4.png,0,2,non-reversed,incorrect,0.23329819330522938,1,invalid_win,255.77855470008217,16,,,,,,,,,,,,,,,,,,sub_537,2024-09-24_17h37.39.615,Reversal,2022.1.2,60.05010579832634,1,
10,exp1.png,exp2.png,,1,0,1,0,0,10,10,10,,,,,,,,,,,,,,,,,,,,,,,,,False,29,30,False,exp1.png,exp2.png,trial_left_image,1,exp1.png,1,exp1.png,exp2.png,1,3,reversed,correct,0.6848860797361667,1,valid_win,266.01219159993343,17,,,,,,,,,,,,,,,,,,sub_537,2024-09-24_17h37.39.615,Reversal,2022.1.2,60.05010579832634,1,
11,exp3.png,exp4.png,,1,0,1,0,0,11,11,11,,,,,,,,,,,,,,,,,,,,,,,,,False,30,31,False,exp3.png,exp4.png,trial_right_image,-1,exp4.png,1,exp3.png,exp4.png,0,2,non-reversed,incorrect,0.8188135321296742,0,valid_lose,271.3117388000246,17,,,,,,,,,,,,,,,,,,sub_537,2024-09-24_17h37.39.615,Reversal,2022.1.2,60.05010579832634,1,
12,exp1.png,exp2.png,,1,0,1,0,0,12,12,12,,,,,,,,,,,,,,,,,,,,,,,,,False,31,32,False,exp1.png,exp2.png,trial_left_image,1,exp1.png,1,exp1.png,exp2.png,1,3,reversed,correct,0.18067823188226595,0,invalid_lose,278.02789989998564,17,,,,,,,,,,,,,,,,,,sub_537,2024-09-24_17h37.39.615,Reversal,2022.1.2,60.05010579832634,1,
13,exp3.png,exp4.png,,1,0,1,0,0,13,13,13,,,,,,,,,,,,,,,,,,,,,,,,,False,32,33,True,exp4.png,exp3.png,trial_left_image,1,exp4.png,1,exp3.png,exp4.png,0,2,non-reversed,incorrect,0.47296226200573765,0,valid_lose,284.04487350001,17,,,,,,,,,,,,,,,,,,sub_537,2024-09-24_17h37.39.615,Reversal,2022.1.2,60.05010579832634,1,
14,exp1.png,exp2.png,,1,0,1,0,0,14,14,14,,,,,,,,,,,,,,,,,,,,,,,,,False,33,34,False,exp1.png,exp2.png,trial_right_image,-1,exp2.png,1,exp1.png,exp2.png,0,4,reversed,incorrect,0.998044195448106,0,valid_lose,290.07837429991923,17,,,,,,,,,,,,,,,,,,sub_537,2024-09-24_17h37.39.615,Reversal,2022.1.2,60.05010579832634,1,
15,exp3.png,exp4.png,,1,0,1,0,0,15,15,15,,,,,,,,,,,,,,,,,,,,,,,,,False,34,35,False,exp3.png,exp4.png,trial_right_image,-1,exp4.png,1,exp3.png,exp4.png,0,2,non-reversed,incorrect,0.27849926274929815,0,valid_lose,295.428008900024,17,,,,,,,,,,,,,,,,,,sub_537,2024-09-24_17h37.39.615,Reversal,2022.1.2,60.05010579832634,1,
16,exp1.png,exp2.png,,1,0,1,0,0,16,16,16,,,,,,,,,,,,,,,,,,,,,,,,,False,35,36,True,exp2.png,exp1.png,trial_left_image,1,exp2.png,1,exp1.png,exp2.png,0,4,reversed,incorrect,0.2271292533880499,1,invalid_win,300.82798509998247,18,,,,,,,,,,,,,,,,,,sub_537,2024-09-24_17h37.39.615,Reversal,2022.1.2,60.05010579832634,1,
17,exp3.png,exp4.png,,1,0,1,0,0,17,17,17,,,,,,,,,,,,,,,,,,,,,,,,,False,36,37,False,exp3.png,exp4.png,trial_right_image,-1,exp4.png,1,exp3.png,exp4.png,0,2,non-reversed,incorrect,0.9544318002989987,0,valid_lose,307.11118420003913,18,,,,,,,,,,,,,,,,,,sub_537,2024-09-24_17h37.39.615,Reversal,2022.1.2,60.05010579832634,1,
18,exp1.png,exp2.png,,1,0,1,0,0,18,18,18,,,,,,,,,,,,,,,,,,,,,,,,,False,37,38,False,exp1.png,exp2.png,trial_left_image,1,exp1.png,1,exp1.png,exp2.png,1,3,reversed,correct,0.9056383373351696,1,valid_win,318.7442437999416,19,,,,,,,,,,,,,,,,,,sub_537,2024-09-24_17h37.39.615,Reversal,2022.1.2,60.05010579832634,1,
19,exp3.png,exp4.png,,1,0,1,0,0,19,19,19,,,,,,,,,,,,,,,,,,,,,,,,,False,38,39,False,exp3.png,exp4.png,trial_right_image,-1,exp4.png,1,exp3.png,exp4.png,0,2,non-reversed,incorrect,0.9994562943164623,0,valid_lose,325.37747969990596,19,,,,,,,,,,,,,,,,,,sub_537,2024-09-24_17h37.39.615,Reversal,2022.1.2,60.05010579832634,1,
20,exp1.png,exp2.png,,1,0,1,0,0,20,20,20,,,,,,,,,,,,,,,,,,,,,,,,,False,39,40,True,exp2.png,exp1.png,trial_left_image,1,exp2.png,1,exp1.png,exp2.png,0,4,reversed,incorrect,0.7023674089243986,0,valid_lose,331.42745120008476,19,,,,,,,,,,,,,,,,,,sub_537,2024-09-24_17h37.39.615,Reversal,2022.1.2,60.05010579832634,1,
,,,exp1.png,1,0,1,0,,,,,0,0,0,0,0,0,0,0,,,,,,,,,,,,,,,,,,,,,,,,,,,,,,,,,,,,,,42.0,42.0,4.813801899785176,"[(42.0, 4.813801899785176)]",406.50108519988135,None,,,,,,,,,,,,sub_537,2024-09-24_17h37.39.615,Reversal,2022.1.2,60.05010579832634,1,
,,,exp2.png,1,0,1,0,,,,,0,0,0,0,0,1,1,1,,,,,,,,,,,,,,,,,,,,,,,,,,,,,,,,,,,,,,,29.0,3.3839374999515712,"[(35.0, 1.617783599998802), (29.0, 3.3839374999515712)]",412.7288563998882,None,29.0,,,,,,,,,,,sub_537,2024-09-24_17h37.39.615,Reversal,2022.1.2,60.05010579832634,1,
,,,exp3.png,1,0,1,0,,,,,0,0,0,0,0,2,2,2,,,,,,,,,,,,,,,,,,,,,,,,,,,,,,,,,,,,,,,50.0,None,[],417.6801422999706,None,,,,,,,,,,,,sub_537,2024-09-24_17h37.39.615,Reversal,2022.1.2,60.05010579832634,1,
,,,exp4.png,1,0,1,0,,,,,0,0,0,0,0,3,3,3,,,,,,,,,,,,,,,,,,,,,,,,,,,,,,,,,,,,,,,50.0,None,[],420.25069059990346,None,,,,,,,,,,,,sub_537,2024-09-24_17h37.39.615,Reversal,2022.1.2,60.05010579832634,1,
0,exp1.png,exp2.png,,2,0,2,0,0,0,0,0,,,,,,,,,,,,,,,,,,,,,,,,,True,,,,,,,,,,,,,,,,,,,,,,,,,,,,,,,,,,,,,,sub_537,2024-09-24_17h37.39.615,Reversal,2022.1.2,60.05010579832634,1,
1,exp3.png,exp4.png,,2,0,2,0,0,1,1,1,,,,,,,,,,,,,,,,,,,,,,,,,False,40,41,True,exp4.png,exp3.png,trial_left_image,1,exp4.png,1,exp3.png,exp4.png,0,2,non-reversed,incorrect,0.3847030554375769,0,valid_lose,355.41030150000006,19,,,,,,,,,,,,,,,,,,sub_537,2024-09-24_17h37.39.615,Reversal,2022.1.2,60.05010579832634,1,
2,exp1.png,exp2.png,,2,0,2,0,0,2,2,2,,,,,,,,,,,,,,,,,,,,,,,,,False,41,42,False,exp1.png,exp2.png,trial_right_image,-1,exp2.png,1,exp1.png,exp2.png,0,4,reversed,incorrect,0.01402579587005559,1,invalid_win,360.94357890007086,20,,,,,,,,,,,,,,,,,,sub_537,2024-09-24_17h37.39.615,Reversal,2022.1.2,60.05010579832634,1,
3,exp3.png,exp4.png,,2,0,2,0,0,3,3,3,,,,,,,,,,,,,,,,,,,,,,,,,False,42,43,True,exp4.png,exp3.png,trial_left_image,1,exp4.png,1,exp3.png,exp4.png,0,2,non-reversed,incorrect,0.11298939723221135,1,invalid_win,368.0598766000476,21,,,,,,,,,,,,,,,,,,sub_537,2024-09-24_17h37.39.615,Reversal,2022.1.2,60.05010579832634,1,
4,exp1.png,exp2.png,,2,0,2,0,0,4,4,4,,,,,,,,,,,,,,,,,,,,,,,,,False,43,44,False,exp1.png,exp2.png,trial_right_image,-1,exp2.png,1,exp1.png,exp2.png,0,4,reversed,incorrect,0.30195902379740247,0,valid_lose,377.0430825999938,21,,,,,,,,,,,,,,,,,,sub_537,2024-09-24_17h37.39.615,Reversal,2022.1.2,60.05010579832634,1,
5,exp3.png,exp4.png,,2,0,2,0,0,5,5,5,,,,,,,,,,,,,,,,,,,,,,,,,False,44,45,True,exp4.png,exp3.png,trial_left_image,1,exp4.png,1,exp3.png,exp4.png,0,2,non-reversed,incorrect,0.4832313278837925,0,valid_lose,384.5936215999536,21,,,,,,,,,,,,,,,,,,sub_537,2024-09-24_17h37.39.615,Reversal,2022.1.2,60.05010579832634,1,
6,exp1.png,exp2.png,,2,0,2,0,0,6,6,6,,,,,,,,,,,,,,,,,,,,,,,,,False,45,46,True,exp2.png,exp1.png,trial_left_image,1,exp2.png,1,exp1.png,exp2.png,0,4,reversed,incorrect,0.045250163514308106,1,invalid_win,392.19330279994756,22,,,,,,,,,,,,,,,,,,sub_537,2024-09-24_17h37.39.615,Reversal,2022.1.2,60.05010579832634,1,
7,exp3.png,exp4.png,,2,0,2,0,0,7,7,7,,,,,,,,,,,,,,,,,,,,,,,,,False,46,47,True,exp4.png,exp3.png,trial_right_image,-1,exp3.png,1,exp3.png,exp4.png,1,1,non-reversed,correct,0.48241118254597626,1,valid_win,398.26002079993486,23,,,,,,,,,,,,,,,,,,sub_537,2024-09-24_17h37.39.615,Reversal,2022.1.2,60.05010579832634,1,
8,exp1.png,exp2.png,,2,0,2,0,0,8,8,8,,,,,,,,,,,,,,,,,,,,,,,,,False,47,48,False,exp1.png,exp2.png,trial_left_image,1,exp1.png,1,exp1.png,exp2.png,1,3,reversed,correct,0.41138686749697495,1,valid_win,408.17649960005656,24,,,,,,,,,,,,,,,,,,sub_537,2024-09-24_17h37.39.615,Reversal,2022.1.2,60.05010579832634,1,
9,exp3.png,exp4.png,,2,0,2,0,0,9,9,9,,,,,,,,,,,,,,,,,,,,,,,,,False,48,49,True,exp4.png,exp3.png,trial_left_image,1,exp4.png,1,exp3.png,exp4.png,0,2,non-reversed,incorrect,0.9605632719155289,0,valid_lose,415.1093111000955,24,,,,,,,,,,,,,,,,,,sub_537,2024-09-24_17h37.39.615,Reversal,2022.1.2,60.05010579832634,1,
10,exp1.png,exp2.png,,2,0,2,0,0,10,10,10,,,,,,,,,,,,,,,,,,,,,,,,,False,49,50,False,exp1.png,exp2.png,trial_left_image,1,exp1.png,1,exp1.png,exp2.png,1,3,reversed,correct,0.4771167258186223,1,valid_win,421.4424562000204,25,,,,,,,,,,,,,,,,,,sub_537,2024-09-24_17h37.39.615,Reversal,2022.1.2,60.05010579832634,1,
11,exp3.png,exp4.png,,2,0,2,0,0,11,11,11,,,,,,,,,,,,,,,,,,,,,,,,,False,50,51,True,exp4.png,exp3.png,trial_left_image,1,exp4.png,1,exp3.png,exp4.png,0,2,non-reversed,incorrect,0.2841129921335471,0,valid_lose,427.675883699907,25,,,,,,,,,,,,,,,,,,sub_537,2024-09-24_17h37.39.615,Reversal,2022.1.2,60.05010579832634,1,
12,exp1.png,exp2.png,,2,0,2,0,0,12,12,12,,,,,,,,,,,,,,,,,,,,,,,,,False,51,52,False,exp1.png,exp2.png,trial_right_image,-1,exp2.png,1,exp1.png,exp2.png,0,4,reversed,incorrect,0.17288515649244374,1,invalid_win,433.72578019998036,26,,,,,,,,,,,,,,,,,,sub_537,2024-09-24_17h37.39.615,Reversal,2022.1.2,60.05010579832634,1,
13,exp3.png,exp4.png,,2,0,2,0,0,13,13,13,,,,,,,,,,,,,,,,,,,,,,,,,False,52,53,False,exp3.png,exp4.png,trial_right_image,-1,exp4.png,1,exp3.png,exp4.png,0,2,non-reversed,incorrect,0.5007869613188556,0,valid_lose,438.89266199991107,26,,,,,,,,,,,,,,,,,,sub_537,2024-09-24_17h37.39.615,Reversal,2022.1.2,60.05010579832634,1,
14,exp1.png,exp2.png,,2,0,2,0,0,14,14,14,,,,,,,,,,,,,,,,,,,,,,,,,False,53,54,True,exp2.png,exp1.png,trial_left_image,1,exp2.png,1,exp1.png,exp2.png,0,4,reversed,incorrect,0.9030743536123987,0,valid_lose,444.99202749994583,26,,,,,,,,,,,,,,,,,,sub_537,2024-09-24_17h37.39.615,Reversal,2022.1.2,60.05010579832634,1,
15,exp3.png,exp4.png,,2,0,2,0,0,15,15,15,,,,,,,,,,,,,,,,,,,,,,,,,False,54,55,False,exp3.png,exp4.png,trial_right_image,-1,exp4.png,1,exp3.png,exp4.png,0,2,non-reversed,incorrect,0.6771022364353764,0,valid_lose,450.6258187999483,26,,,,,,,,,,,,,,,,,,sub_537,2024-09-24_17h37.39.615,Reversal,2022.1.2,60.05010579832634,1,
16,exp1.png,exp2.png,,2,0,2,0,0,16,16,16,,,,,,,,,,,,,,,,,,,,,,,,,False,55,56,False,exp1.png,exp2.png,trial_right_image,-1,exp2.png,1,exp1.png,exp2.png,0,4,reversed,incorrect,0.4907081277346691,0,valid_lose,458.7922823999543,26,,,,,,,,,,,,,,,,,,sub_537,2024-09-24_17h37.39.615,Reversal,2022.1.2,60.05010579832634,1,
17,exp3.png,exp4.png,,2,0,2,0,0,17,17,17,,,,,,,,,,,,,,,,,,,,,,,,,False,56,57,True,exp4.png,exp3.png,trial_left_image,1,exp4.png,1,exp3.png,exp4.png,0,2,non-reversed,incorrect,0.5646233494701332,0,valid_lose,464.2759624000173,26,,,,,,,,,,,,,,,,,,sub_537,2024-09-24_17h37.39.615,Reversal,2022.1.2,60.05010579832634,1,
18,exp1.png,exp2.png,,2,0,2,0,0,18,18,18,,,,,,,,,,,,,,,,,,,,,,,,,False,57,58,False,exp1.png,exp2.png,trial_right_image,-1,exp2.png,1,exp1.png,exp2.png,0,4,reversed,incorrect,0.49713912221582024,0,valid_lose,468.7915240000002,26,,,,,,,,,,,,,,,,,,sub_537,2024-09-24_17h37.39.615,Reversal,2022.1.2,60.05010579832634,1,
19,exp3.png,exp4.png,,2,0,2,0,0,19,19,19,,,,,,,,,,,,,,,,,,,,,,,,,False,58,59,True,exp4.png,exp3.png,trial_left_image,1,exp4.png,1,exp3.png,exp4.png,0,2,non-reversed,incorrect,0.2292020725085504,1,invalid_win,477.0917623999994,27,,,,,,,,,,,,,,,,,,sub_537,2024-09-24_17h37.39.615,Reversal,2022.1.2,60.05010579832634,1,
20,exp1.png,exp2.png,,2,0,2,0,0,20,20,20,,,,,,,,,,,,,,,,,,,,,,,,,False,59,60,False,exp1.png,exp2.png,trial_right_image,-1,exp2.png,1,exp1.png,exp2.png,0,4,reversed,incorrect,0.4119399114522917,0,valid_lose,482.75776159996167,27,,,,,,,,,,,,,,,,,,sub_537,2024-09-24_17h37.39.615,Reversal,2022.1.2,60.05010579832634,1,
,,,exp1.png,2,0,2,0,,,,,0,0,0,0,0,0,0,0,,,,,,,,,,,,,,,,,,,,,,,,,,,,,,,,,,,,,,35.0,35.0,5.478458300000057,"[(35.0, 5.478458300000057)]",557.8488129999023,None,,,,,,,,,,,,sub_537,2024-09-24_17h37.39.615,Reversal,2022.1.2,60.05010579832634,1,
,,,exp2.png,2,0,2,0,,,,,0,0,0,0,0,1,1,1,,,,,,,,,,,,,,,,,,,,,,,,,,,,,,,,,,,,,,,50.0,None,[],564.4585269999225,None,,,,,,,,,,,,sub_537,2024-09-24_17h37.39.615,Reversal,2022.1.2,60.05010579832634,1,
,,,exp3.png,2,0,2,0,,,,,0,0,0,0,0,2,2,2,,,,,,,,,,,,,,,,,,,,,,,,,,,,,,,,,,,,,,,35.0,1.9828621000051498,"[(35.0, 1.9828621000051498)]",566.9431616000365,None,,35.0,,,,,,,,,,sub_537,2024-09-24_17h37.39.615,Reversal,2022.1.2,60.05010579832634,1,
,,,exp4.png,2,0,2,0,,,,,0,0,0,0,0,3,3,3,,,,,,,,,,,,,,,,,,,,,,,,,,,,,,,,,,,,,,,50.0,None,[],569.9919910999015,None,,,,,,,,,,,,sub_537,2024-09-24_17h37.39.615,Reversal,2022.1.2,60.05010579832634,1,
0,exp1.png,exp2.png,,3,0,3,0,0,0,0,0,,,,,,,,,,,,,,,,,,,,,,,,,True,,,,,,,,,,,,,,,,,,,,,,,,,,,,,,,,,,,,,,sub_537,2024-09-24_17h37.39.615,Reversal,2022.1.2,60.05010579832634,1,
1,exp3.png,exp4.png,,3,0,3,0,0,1,1,1,,,,,,,,,,,,,,,,,,,,,,,,,False,60,61,False,exp3.png,exp4.png,trial_right_image,-1,exp4.png,1,exp3.png,exp4.png,0,2,non-reversed,incorrect,0.9464642093018949,0,valid_lose,505.10792859992944,27,,,,,,,,,,,,,,,,,,sub_537,2024-09-24_17h37.39.615,Reversal,2022.1.2,60.05010579832634,1,
2,exp1.png,exp2.png,,3,0,3,0,0,2,2,2,,,,,,,,,,,,,,,,,,,,,,,,,False,61,62,False,exp1.png,exp2.png,trial_right_image,-1,exp2.png,1,exp1.png,exp2.png,0,4,reversed,incorrect,0.22340329290867422,1,invalid_win,513.2077033000533,28,,,,,,,,,,,,,,,,,,sub_537,2024-09-24_17h37.39.615,Reversal,2022.1.2,60.05010579832634,1,
3,exp3.png,exp4.png,,3,0,3,0,0,3,3,3,,,,,,,,,,,,,,,,,,,,,,,,,False,62,63,True,exp4.png,exp3.png,trial_right_image,-1,exp3.png,1,exp3.png,exp4.png,1,1,non-reversed,correct,0.8621499392425855,1,valid_win,521.407262200024,29,,,,,,,,,,,,,,,,,,sub_537,2024-09-24_17h37.39.615,Reversal,2022.1.2,60.05010579832634,1,
4,exp1.png,exp2.png,,3,0,3,0,0,4,4,4,,,,,,,,,,,,,,,,,,,,,,,,,False,63,64,False,exp1.png,exp2.png,trial_right_image,-1,exp2.png,1,exp1.png,exp2.png,0,4,reversed,incorrect,0.6670687625245822,0,valid_lose,528.3080189998727,29,,,,,,,,,,,,,,,,,,sub_537,2024-09-24_17h37.39.615,Reversal,2022.1.2,60.05010579832634,1,
5,exp3.png,exp4.png,,3,0,3,0,0,5,5,5,,,,,,,,,,,,,,,,,,,,,,,,,False,64,65,True,exp4.png,exp3.png,trial_left_image,1,exp4.png,1,exp3.png,exp4.png,0,2,non-reversed,incorrect,0.979369061029466,0,valid_lose,534.2071620998904,29,,,,,,,,,,,,,,,,,,sub_537,2024-09-24_17h37.39.615,Reversal,2022.1.2,60.05010579832634,1,
6,exp1.png,exp2.png,,3,0,3,0,0,6,6,6,,,,,,,,,,,,,,,,,,,,,,,,,False,65,66,True,exp2.png,exp1.png,trial_right_image,-1,exp1.png,1,exp1.png,exp2.png,1,3,reversed,correct,0.6561468943632728,1,valid_win,542.7399615999311,30,,,,,,,,,,,,,,,,,,sub_537,2024-09-24_17h37.39.615,Reversal,2022.1.2,60.05010579832634,1,
7,exp3.png,exp4.png,,3,0,3,0,0,7,7,7,,,,,,,,,,,,,,,,,,,,,,,,,False,66,67,True,exp4.png,exp3.png,trial_left_image,1,exp4.png,1,exp3.png,exp4.png,0,2,non-reversed,incorrect,0.4814280540610407,0,valid_lose,550.6073994999751,30,,,,,,,,,,,,,,,,,,sub_537,2024-09-24_17h37.39.615,Reversal,2022.1.2,60.05010579832634,1,
8,exp1.png,exp2.png,,3,0,3,0,0,8,8,8,,,,,,,,,,,,,,,,,,,,,,,,,False,67,68,False,exp1.png,exp2.png,trial_right_image,-1,exp2.png,1,exp1.png,exp2.png,0,4,reversed,incorrect,0.12641046751839247,1,invalid_win,555.9905415999237,31,,,,,,,,,,,,,,,,,,sub_537,2024-09-24_17h37.39.615,Reversal,2022.1.2,60.05010579832634,1,
9,exp3.png,exp4.png,,3,0,3,0,0,9,9,9,,,,,,,,,,,,,,,,,,,,,,,,,False,68,69,False,exp3.png,exp4.png,trial_left_image,1,exp3.png,1,exp3.png,exp4.png,1,1,non-reversed,correct,0.4373222346349005,1,valid_win,565.573639600072,32,,,,,,,,,,,,,,,,,,sub_537,2024-09-24_17h37.39.615,Reversal,2022.1.2,60.05010579832634,1,
10,exp1.png,exp2.png,,3,0,3,0,0,10,10,10,,,,,,,,,,,,,,,,,,,,,,,,,False,69,70,True,exp2.png,exp1.png,trial_left_image,1,exp2.png,1,exp1.png,exp2.png,0,4,reversed,incorrect,0.6159339805409617,0,valid_lose,572.123872899916,32,,,,,,,,,,,,,,,,,,sub_537,2024-09-24_17h37.39.615,Reversal,2022.1.2,60.05010579832634,1,
11,exp3.png,exp4.png,,3,0,3,0,0,11,11,11,,,,,,,,,,,,,,,,,,,,,,,,,False,70,71,True,exp4.png,exp3.png,trial_right_image,-1,exp3.png,1,exp3.png,exp4.png,1,1,non-reversed,correct,0.01120582604368403,0,invalid_lose,579.2230446999893,32,,,,,,,,,,,,,,,,,,sub_537,2024-09-24_17h37.39.615,Reversal,2022.1.2,60.05010579832634,1,
12,exp1.png,exp2.png,,3,0,3,0,0,12,12,12,,,,,,,,,,,,,,,,,,,,,,,,,False,71,72,False,exp1.png,exp2.png,trial_left_image,1,exp1.png,1,exp1.png,exp2.png,1,3,reversed,correct,0.12121463346097605,0,invalid_lose,583.5564681000542,32,,,,,,,,,,,,,,,,,,sub_537,2024-09-24_17h37.39.615,Reversal,2022.1.2,60.05010579832634,1,
13,exp3.png,exp4.png,,3,0,3,0,0,13,13,13,,,,,,,,,,,,,,,,,,,,,,,,,False,72,73,False,exp3.png,exp4.png,trial_right_image,-1,exp4.png,1,exp3.png,exp4.png,0,2,non-reversed,incorrect,0.9548418107510132,0,valid_lose,590.1229944000952,32,,,,,,,,,,,,,,,,,,sub_537,2024-09-24_17h37.39.615,Reversal,2022.1.2,60.05010579832634,1,
14,exp1.png,exp2.png,,3,0,3,0,0,14,14,14,,,,,,,,,,,,,,,,,,,,,,,,,False,73,74,True,exp2.png,exp1.png,trial_left_image,1,exp2.png,1,exp1.png,exp2.png,0,4,reversed,incorrect,0.9542620244250805,0,valid_lose,599.33929360006,32,,,,,,,,,,,,,,,,,,sub_537,2024-09-24_17h37.39.615,Reversal,2022.1.2,60.05010579832634,1,
15,exp3.png,exp4.png,,3,0,3,0,0,15,15,15,,,,,,,,,,,,,,,,,,,,,,,,,False,74,75,False,exp3.png,exp4.png,trial_right_image,-1,exp4.png,1,exp3.png,exp4.png,0,2,non-reversed,incorrect,0.21372616291500746,1,invalid_win,603.7557196000125,33,,,,,,,,,,,,,,,,,,sub_537,2024-09-24_17h37.39.615,Reversal,2022.1.2,60.05010579832634,1,
16,exp1.png,exp2.png,,3,0,3,0,0,16,16,16,,,,,,,,,,,,,,,,,,,,,,,,,False,75,76,False,exp1.png,exp2.png,trial_right_image,-1,exp2.png,1,exp1.png,exp2.png,0,4,reversed,incorrect,0.948498130056597,0,valid_lose,610.6725147999823,33,,,,,,,,,,,,,,,,,,sub_537,2024-09-24_17h37.39.615,Reversal,2022.1.2,60.05010579832634,1,
17,exp3.png,exp4.png,,3,0,3,0,0,17,17,17,,,,,,,,,,,,,,,,,,,,,,,,,False,76,77,True,exp4.png,exp3.png,trial_left_image,1,exp4.png,1,exp3.png,exp4.png,0,2,non-reversed,incorrect,0.32709934832851206,0,valid_lose,616.7061067000031,33,,,,,,,,,,,,,,,,,,sub_537,2024-09-24_17h37.39.615,Reversal,2022.1.2,60.05010579832634,1,
18,exp1.png,exp2.png,,3,0,3,0,0,18,18,18,,,,,,,,,,,,,,,,,,,,,,,,,False,77,78,False,exp1.png,exp2.png,trial_right_image,-1,exp2.png,1,exp1.png,exp2.png,0,4,reversed,incorrect,0.5631268175069827,0,valid_lose,622.3061474999413,33,,,,,,,,,,,,,,,,,,sub_537,2024-09-24_17h37.39.615,Reversal,2022.1.2,60.05010579832634,1,
19,exp3.png,exp4.png,,3,0,3,0,0,19,19,19,,,,,,,,,,,,,,,,,,,,,,,,,False,78,79,True,exp4.png,exp3.png,trial_left_image,1,exp4.png,1,exp3.png,exp4.png,0,2,non-reversed,incorrect,0.48099474762856875,0,valid_lose,629.3723977000918,33,,,,,,,,,,,,,,,,,,sub_537,2024-09-24_17h37.39.615,Reversal,2022.1.2,60.05010579832634,1,
20,exp1.png,exp2.png,,3,0,3,0,0,20,20,20,,,,,,,,,,,,,,,,,,,,,,,,,False,79,80,True,exp2.png,exp1.png,trial_right_image,-1,exp1.png,1,exp1.png,exp2.png,1,3,reversed,correct,0.9666624495040115,1,valid_win,634.5391838999931,34,,,,,,,,,,,,,,,,,,sub_537,2024-09-24_17h37.39.615,Reversal,2022.1.2,60.05010579832634,1,
,,,exp1.png,3,0,3,0,,,,,0,0,0,0,0,0,0,0,,,,,,,,,,,,,,,,,,,,,,,,,,,,,,,,,,,,,,22.0,22.0,6.291988299926743,"[(37.0, 4.842198000056669), (22.0, 6.291988299926743)]",709.6337415999733,None,,,,,,,,,,,,sub_537,2024-09-24_17h37.39.615,Reversal,2022.1.2,60.05010579832634,1,
,,,exp2.png,3,0,3,0,,,,,0,0,0,0,0,1,1,1,,,,,,,,,,,,,,,,,,,,,,,,,,,,,,,,,,,,,,,17.0,2.535755299963057,"[(17.0, 2.535755299963057)]",717.1723307999782,None,17.0,,,,,,,,,,,sub_537,2024-09-24_17h37.39.615,Reversal,2022.1.2,60.05010579832634,1,
,,,exp3.png,3,0,3,0,,,,,0,0,0,0,0,2,2,2,,,,,,,,,,,,,,,,,,,,,,,,,,,,,,,,,,,,,,,20.0,1.4994864000473171,"[(20.0, 1.4994864000473171)]",720.9914315999486,None,,20.0,,,,,,,,,,sub_537,2024-09-24_17h37.39.615,Reversal,2022.1.2,60.05010579832634,1,
,,,exp4.png,3,0,3,0,,,,,0,0,0,0,0,3,3,3,,,,,,,,,,,,,,,,,,,,,,,,,,,,,,,,,,,,,,,20.0,2.3679990000091493,"[(20.0, 2.3679990000091493)]",723.7899976999033,None,,,20.0,,,,,,,,,sub_537,2024-09-24_17h37.39.615,Reversal,2022.1.2,60.05010579832634,1,
0,exp1.png,exp2.png,,,,,,,,,,,,,,,,,,0,0,0,0,0,0,0,0,,,,,,,,,True,,,,,,,,,,,,,,,,,,,,,,,,,,,,,,,,,,,,,,sub_537,2024-09-24_17h37.39.615,Reversal,2022.1.2,60.05010579832634,1,
1,exp3.png,exp4.png,,,,,,,,,,,,,,,,,,0,0,0,0,0,1,1,1,,,,,,,,,False,0,81,False,exp3.png,exp4.png,trial_right_image,-1,exp4.png,1,exp3.png,exp4.png,0,2,non-reversed,incorrect,0.17092679732224858,1,invalid_win,659.1883062000852,35,,,,,,,,,,654.9266788999084,,,,,,,,sub_537,2024-09-24_17h37.39.615,Reversal,2022.1.2,60.05010579832634,1,
2,exp1.png,exp2.png,,,,,,,,,,,,,,,,,,0,0,0,0,0,2,2,2,,,,,,,,,False,1,82,True,exp2.png,exp1.png,trial_left_image,1,exp2.png,1,exp2.png,exp1.png,0,4,reversed,correct,0.47202701633674937,1,valid_win,666.5048265000805,36,,,,,,,,,,,,,,,,,,sub_537,2024-09-24_17h37.39.615,Reversal,2022.1.2,60.05010579832634,1,
3,exp3.png,exp4.png,,,,,,,,,,,,,,,,,,0,0,0,0,0,3,3,3,,,,,,,,,False,2,83,True,exp4.png,exp3.png,trial_left_image,1,exp4.png,1,exp3.png,exp4.png,0,2,non-reversed,incorrect,0.8015280786899935,0,valid_lose,672.8048596999142,36,,,,,,,,,,,,,,,,,,sub_537,2024-09-24_17h37.39.615,Reversal,2022.1.2,60.05010579832634,1,
4,exp1.png,exp2.png,,,,,,,,,,,,,,,,,,0,0,0,0,0,4,4,4,,,,,,,,,False,3,84,True,exp2.png,exp1.png,trial_left_image,1,exp2.png,1,exp2.png,exp1.png,0,4,reversed,correct,0.875744305505042,1,valid_win,679.1381057999097,37,,,,,,,,,,,,,,,,,,sub_537,2024-09-24_17h37.39.615,Reversal,2022.1.2,60.05010579832634,1,
5,exp3.png,exp4.png,,,,,,,,,,,,,,,,,,0,0,0,0,0,5,5,5,,,,,,,,,False,4,85,False,exp3.png,exp4.png,trial_right_image,-1,exp4.png,1,exp3.png,exp4.png,0,2,non-reversed,incorrect,0.6883305840884862,0,valid_lose,685.7548231000546,37,,,,,,,,,,,,,,,,,,sub_537,2024-09-24_17h37.39.615,Reversal,2022.1.2,60.05010579832634,1,
6,exp1.png,exp2.png,,,,,,,,,,,,,,,,,,0,0,0,0,0,6,6,6,,,,,,,,,False,5,86,False,exp1.png,exp2.png,trial_right_image,-1,exp2.png,1,exp2.png,exp1.png,0,4,reversed,correct,0.7272182675442536,1,valid_win,694.7047365000471,38,,,,,,,,,,,,,,,,,,sub_537,2024-09-24_17h37.39.615,Reversal,2022.1.2,60.05010579832634,1,
7,exp3.png,exp4.png,,,,,,,,,,,,,,,,,,0,0,0,0,0,7,7,7,,,,,,,,,False,6,87,True,exp4.png,exp3.png,trial_left_image,1,exp4.png,1,exp3.png,exp4.png,0,2,non-reversed,incorrect,0.13068043747086355,1,invalid_win,703.1043847999536,39,,,,,,,,,,,,,,,,,,sub_537,2024-09-24_17h37.39.615,Reversal,2022.1.2,60.05010579832634,1,
8,exp1.png,exp2.png,,,,,,,,,,,,,,,,,,0,0,0,0,0,8,8,8,,,,,,,,,False,7,88,False,exp1.png,exp2.png,trial_right_image,-1,exp2.png,1,exp2.png,exp1.png,0,4,reversed,correct,0.6482674404143403,1,valid_win,708.8050408000126,40,,,,,,,,,,,,,,,,,,sub_537,2024-09-24_17h37.39.615,Reversal,2022.1.2,60.05010579832634,1,
9,exp3.png,exp4.png,,,,,,,,,,,,,,,,,,0,0,0,0,0,9,9,9,,,,,,,,,False,8,89,True,exp4.png,exp3.png,trial_left_image,1,exp4.png,1,exp3.png,exp4.png,0,2,non-reversed,incorrect,0.2654104637837482,0,valid_lose,717.9210228999145,40,,,,,,,,,,,,,,,,,,sub_537,2024-09-24_17h37.39.615,Reversal,2022.1.2,60.05010579832634,1,
10,exp1.png,exp2.png,,,,,,,,,,,,,,,,,,0,0,0,0,0,10,10,10,,,,,,,,,False,9,90,True,exp2.png,exp1.png,trial_right_image,-1,exp1.png,1,exp2.png,exp1.png,1,3,reversed,incorrect,0.09806555573987563,1,invalid_win,726.6209607999772,41,,,,,,,,,,,,,,,,,,sub_537,2024-09-24_17h37.39.615,Reversal,2022.1.2,60.05010579832634,1,
11,exp3.png,exp4.png,,,,,,,,,,,,,,,,,,0,0,0,0,0,11,11,11,,,,,,,,,False,10,91,True,exp4.png,exp3.png,trial_left_image,1,exp4.png,1,exp3.png,exp4.png,0,2,non-reversed,incorrect,0.9427652580079926,0,valid_lose,733.7207591999322,41,,,,,,,,,,,,,,,,,,sub_537,2024-09-24_17h37.39.615,Reversal,2022.1.2,60.05010579832634,1,
12,exp1.png,exp2.png,,,,,,,,,,,,,,,,,,0,0,0,0,0,12,12,12,,,,,,,,,False,11,92,False,exp1.png,exp2.png,trial_right_image,-1,exp2.png,1,exp2.png,exp1.png,0,4,reversed,correct,0.3551813905037665,1,valid_win,739.0370449998882,42,,,,,,,,,,,,,,,,,,sub_537,2024-09-24_17h37.39.615,Reversal,2022.1.2,60.05010579832634,1,
13,exp3.png,exp4.png,,,,,,,,,,,,,,,,,,0,0,0,0,0,13,13,13,,,,,,,,,False,12,93,True,exp4.png,exp3.png,trial_left_image,1,exp4.png,1,exp3.png,exp4.png,0,2,non-reversed,incorrect,0.8149267619992197,0,valid_lose,747.2710774999578,42,,,,,,,,,,,,,,,,,,sub_537,2024-09-24_17h37.39.615,Reversal,2022.1.2,60.05010579832634,1,
14,exp1.png,exp2.png,,,,,,,,,,,,,,,,,,0,0,0,0,0,14,14,14,,,,,,,,,False,13,94,False,exp1.png,exp2.png,trial_right_image,-1,exp2.png,1,exp2.png,exp1.png,0,4,reversed,correct,0.6168372139931918,1,valid_win,752.6034317000303,43,,,,,,,,,,,,,,,,,,sub_537,2024-09-24_17h37.39.615,Reversal,2022.1.2,60.05010579832634,1,
15,exp3.png,exp4.png,,,,,,,,,,,,,,,,,,0,0,0,0,0,15,15,15,,,,,,,,,False,14,95,False,exp3.png,exp4.png,trial_right_image,-1,exp4.png,1,exp3.png,exp4.png,0,2,non-reversed,incorrect,0.38082053943453353,0,valid_lose,760.452778799925,43,,,,,,,,,,,,,,,,,,sub_537,2024-09-24_17h37.39.615,Reversal,2022.1.2,60.05010579832634,1,
16,exp1.png,exp2.png,,,,,,,,,,,,,,,,,,0,0,0,0,0,16,16,16,,,,,,,,,False,15,96,False,exp1.png,exp2.png,trial_right_image,-1,exp2.png,1,exp2.png,exp1.png,0,4,reversed,correct,0.14774755308201337,0,invalid_lose,768.7195067999419,43,,,,,,,,,,,,,,,,,,sub_537,2024-09-24_17h37.39.615,Reversal,2022.1.2,60.05010579832634,1,
17,exp3.png,exp4.png,,,,,,,,,,,,,,,,,,0,0,0,0,0,17,17,17,,,,,,,,,False,16,97,True,exp4.png,exp3.png,trial_left_image,1,exp4.png,1,exp3.png,exp4.png,0,2,non-reversed,incorrect,0.4544207275895068,0,valid_lose,773.8528664000332,43,,,,,,,,,,,,,,,,,,sub_537,2024-09-24_17h37.39.615,Reversal,2022.1.2,60.05010579832634,1,
18,exp1.png,exp2.png,,,,,,,,,,,,,,,,,,0,0,0,0,0,18,18,18,,,,,,,,,False,17,98,False,exp1.png,exp2.png,trial_right_image,-1,exp2.png,1,exp2.png,exp1.png,0,4,reversed,correct,0.10712476491700218,0,invalid_lose,779.0365514999721,43,,,,,,,,,,,,,,,,,,sub_537,2024-09-24_17h37.39.615,Reversal,2022.1.2,60.05010579832634,1,
19,exp3.png,exp4.png,,,,,,,,,,,,,,,,,,0,0,0,0,0,19,19,19,,,,,,,,,False,18,99,True,exp4.png,exp3.png,trial_right_image,-1,exp3.png,1,exp3.png,exp4.png,1,1,non-reversed,correct,0.8232458631360527,1,valid_win,784.8697132999077,44,,,,,,,,,,,,,,,,,,sub_537,2024-09-24_17h37.39.615,Reversal,2022.1.2,60.05010579832634,1,
20,exp1.png,exp2.png,,,,,,,,,,,,,,,,,,0,0,0,0,0,20,20,20,,,,,,,,,False,19,100,False,exp1.png,exp2.png,trial_right_image,-1,exp2.png,1,exp2.png,exp1.png,0,4,reversed,correct,0.28304662242574496,1,valid_win,792.3532104000915,45,,,,,,,,,,,,,,,,,,sub_537,2024-09-24_17h37.39.615,Reversal,2022.1.2,60.05010579832634,1,
,,,exp1.png,,,,,,,,,,,,,,,,,0,0,0,0,,,,,0,0,0,0,0,0,0,0,,,,,,,,,,,,,,,,,,,,,,25.0,25.0,4.1811608001589775,"[(25.0, 4.1811608001589775)]",867.4424364001025,None,,,,,,,,,,,,sub_537,2024-09-24_17h37.39.615,Reversal,2022.1.2,60.05010579832634,1,
,,,exp2.png,,,,,,,,,,,,,,,,,0,0,0,0,,,,,0,0,0,0,0,1,1,1,,,,,,,,,,,,,,,,,,,,,,,21.0,1.5140982999000698,"[(21.0, 1.5140982999000698)]",873.1411961999256,None,21.0,,,,,,,,,,,sub_537,2024-09-24_17h37.39.615,Reversal,2022.1.2,60.05010579832634,1,
,,,exp3.png,,,,,,,,,,,,,,,,,0,0,0,0,,,,,0,0,0,0,0,2,2,2,,,,,,,,,,,,,,,,,,,,,,,21.0,1.3001688001677394,"[(21.0, 1.3001688001677394)]",875.8309532999992,None,,21.0,,,,,,,,,,sub_537,2024-09-24_17h37.39.615,Reversal,2022.1.2,60.05010579832634,1,
,,,exp4.png,,,,,,,,,,,,,,,,,0,0,0,0,,,,,0,0,0,0,0,3,3,3,,,,,,,,,,,,,,,,,,,,,,,26.0,1.7004615000914782,"[(26.0, 1.7004615000914782)]",878.2534701998811,None,,,26.0,,,,,,,,,sub_537,2024-09-24_17h37.39.615,Reversal,2022.1.2,60.05010579832634,1,
0,exp1.png,exp2.png,,,,,,,,,,,,,,,,,,1,0,1,0,0,0,0,0,,,,,,,,,True,,,,,,,,,,,,,,,,,,,,,,,,,,,,,,,,,,,,,,sub_537,2024-09-24_17h37.39.615,Reversal,2022.1.2,60.05010579832634,1,
1,exp3.png,exp4.png,,,,,,,,,,,,,,,,,,1,0,1,0,0,1,1,1,,,,,,,,,False,20,101,True,exp4.png,exp3.png,trial_left_image,1,exp4.png,1,exp3.png,exp4.png,0,2,non-reversed,incorrect,0.5709287245578467,0,valid_lose,814.3193131000735,45,,,,,,,,,,,,,,,,,,sub_537,2024-09-24_17h37.39.615,Reversal,2022.1.2,60.05010579832634,1,
2,exp1.png,exp2.png,,,,,,,,,,,,,,,,,,1,0,1,0,0,2,2,2,,,,,,,,,False,21,102,False,exp1.png,exp2.png,trial_right_image,-1,exp2.png,1,exp2.png,exp1.png,0,4,reversed,correct,0.342004241660122,1,valid_win,819.2027648000512,46,,,,,,,,,,,,,,,,,,sub_537,2024-09-24_17h37.39.615,Reversal,2022.1.2,60.05010579832634,1,
3,exp3.png,exp4.png,,,,,,,,,,,,,,,,,,1,0,1,0,0,3,3,3,,,,,,,,,False,22,103,True,exp4.png,exp3.png,trial_right_image,-1,exp3.png,1,exp3.png,exp4.png,1,1,non-reversed,correct,0.9430932371328624,1,valid_win,827.6689216999803,47,,,,,,,,,,,,,,,,,,sub_537,2024-09-24_17h37.39.615,Reversal,2022.1.2,60.05010579832634,1,
4,exp1.png,exp2.png,,,,,,,,,,,,,,,,,,1,0,1,0,0,4,4,4,,,,,,,,,False,23,104,False,exp1.png,exp2.png,trial_left_image,1,exp1.png,1,exp2.png,exp1.png,1,3,reversed,incorrect,0.8592316186077266,0,valid_lose,835.5527997999452,47,,,,,,,,,,,,,,,,,,sub_537,2024-09-24_17h37.39.615,Reversal,2022.1.2,60.05010579832634,1,
5,exp3.png,exp4.png,,,,,,,,,,,,,,,,,,1,0,1,0,0,5,5,5,,,,,,,,,False,24,105,True,exp4.png,exp3.png,trial_left_image,1,exp4.png,1,exp3.png,exp4.png,0,2,non-reversed,incorrect,0.5937416786729947,0,valid_lose,841.1021447998937,47,,,,,,,,,,,,,,,,,,sub_537,2024-09-24_17h37.39.615,Reversal,2022.1.2,60.05010579832634,1,
6,exp1.png,exp2.png,,,,,,,,,,,,,,,,,,1,0,1,0,0,6,6,6,,,,,,,,,False,25,106,True,exp2.png,exp1.png,trial_left_image,1,exp2.png,1,exp2.png,exp1.png,0,4,reversed,correct,0.32106273464609403,1,valid_win,848.8018747998867,48,,,,,,,,,,,,,,,,,,sub_537,2024-09-24_17h37.39.615,Reversal,2022.1.2,60.05010579832634,1,
7,exp3.png,exp4.png,,,,,,,,,,,,,,,,,,1,0,1,0,0,7,7,7,,,,,,,,,False,26,107,True,exp4.png,exp3.png,trial_right_image,-1,exp3.png,1,exp3.png,exp4.png,1,1,non-reversed,correct,0.6757178072473741,1,valid_win,860.6018767000642,49,,,,,,,,,,,,,,,,,,sub_537,2024-09-24_17h37.39.615,Reversal,2022.1.2,60.05010579832634,1,
8,exp1.png,exp2.png,,,,,,,,,,,,,,,,,,1,0,1,0,0,8,8,8,,,,,,,,,False,27,108,False,exp1.png,exp2.png,trial_left_image,1,exp1.png,1,exp2.png,exp1.png,1,3,reversed,incorrect,0.41652296145768763,0,valid_lose,873.4011542000808,49,,,,,,,,,,,,,,,,,,sub_537,2024-09-24_17h37.39.615,Reversal,2022.1.2,60.05010579832634,1,
9,exp3.png,exp4.png,,,,,,,,,,,,,,,,,,1,0,1,0,0,9,9,9,,,,,,,,,False,28,109,True,exp4.png,exp3.png,trial_left_image,1,exp4.png,1,exp3.png,exp4.png,0,2,non-reversed,incorrect,0.34390250147661683,0,valid_lose,880.1679110999685,49,,,,,,,,,,,,,,,,,,sub_537,2024-09-24_17h37.39.615,Reversal,2022.1.2,60.05010579832634,1,
10,exp1.png,exp2.png,,,,,,,,,,,,,,,,,,1,0,1,0,0,10,10,10,,,,,,,,,False,29,110,False,exp1.png,exp2.png,trial_right_image,-1,exp2.png,1,exp2.png,exp1.png,0,4,reversed,correct,0.043824667194048206,0,invalid_lose,885.5507978000678,49,,,,,,,,,,,,,,,,,,sub_537,2024-09-24_17h37.39.615,Reversal,2022.1.2,60.05010579832634,1,
11,exp3.png,exp4.png,,,,,,,,,,,,,,,,,,1,0,1,0,0,11,11,11,,,,,,,,,False,30,111,False,exp3.png,exp4.png,trial_right_image,-1,exp4.png,1,exp3.png,exp4.png,0,2,non-reversed,incorrect,0.02539357819607646,1,invalid_win,892.9007925998885,50,,,,,,,,,,,,,,,,,,sub_537,2024-09-24_17h37.39.615,Reversal,2022.1.2,60.05010579832634,1,
12,exp1.png,exp2.png,,,,,,,,,,,,,,,,,,1,0,1,0,0,12,12,12,,,,,,,,,False,31,112,False,exp1.png,exp2.png,trial_right_image,-1,exp2.png,1,exp2.png,exp1.png,0,4,reversed,correct,0.8958357607414323,1,valid_win,899.5681737000123,51,,,,,,,,,,,,,,,,,,sub_537,2024-09-24_17h37.39.615,Reversal,2022.1.2,60.05010579832634,1,
13,exp3.png,exp4.png,,,,,,,,,,,,,,,,,,1,0,1,0,0,13,13,13,,,,,,,,,False,32,113,True,exp4.png,exp3.png,trial_left_image,1,exp4.png,1,exp3.png,exp4.png,0,2,non-reversed,incorrect,0.06646951515286559,1,invalid_win,905.1510699999053,52,,,,,,,,,,,,,,,,,,sub_537,2024-09-24_17h37.39.615,Reversal,2022.1.2,60.05010579832634,1,
14,exp1.png,exp2.png,,,,,,,,,,,,,,,,,,1,0,1,0,0,14,14,14,,,,,,,,,False,33,114,False,exp1.png,exp2.png,trial_left_image,1,exp1.png,1,exp2.png,exp1.png,1,3,reversed,incorrect,0.17574471570408645,1,invalid_win,911.1343240998685,53,,,,,,,,,,,,,,,,,,sub_537,2024-09-24_17h37.39.615,Reversal,2022.1.2,60.05010579832634,1,
15,exp3.png,exp4.png,,,,,,,,,,,,,,,,,,1,0,1,0,0,15,15,15,,,,,,,,,False,34,115,True,exp4.png,exp3.png,trial_right_image,-1,exp3.png,1,exp3.png,exp4.png,1,1,non-reversed,correct,0.7688818969837347,1,valid_win,921.0509734998923,54,,,,,,,,,,,,,,,,,,sub_537,2024-09-24_17h37.39.615,Reversal,2022.1.2,60.05010579832634,1,
16,exp1.png,exp2.png,,,,,,,,,,,,,,,,,,1,0,1,0,0,16,16,16,,,,,,,,,False,35,116,False,exp1.png,exp2.png,trial_right_image,-1,exp2.png,1,exp2.png,exp1.png,0,4,reversed,correct,0.27050216678711314,1,valid_win,929.9676373000257,55,,,,,,,,,,,,,,,,,,sub_537,2024-09-24_17h37.39.615,Reversal,2022.1.2,60.05010579832634,1,
17,exp3.png,exp4.png,,,,,,,,,,,,,,,,,,1,0,1,0,0,17,17,17,,,,,,,,,False,36,117,False,exp3.png,exp4.png,trial_right_image,-1,exp4.png,1,exp3.png,exp4.png,0,2,non-reversed,incorrect,0.9395457682484413,0,valid_lose,935.2346057998948,55,,,,,,,,,,,,,,,,,,sub_537,2024-09-24_17h37.39.615,Reversal,2022.1.2,60.05010579832634,1,
18,exp1.png,exp2.png,,,,,,,,,,,,,,,,,,1,0,1,0,0,18,18,18,,,,,,,,,False,37,118,True,exp2.png,exp1.png,trial_left_image,1,exp2.png,1,exp2.png,exp1.png,0,4,reversed,correct,0.5275721629348703,1,valid_win,942.0005582000595,56,,,,,,,,,,,,,,,,,,sub_537,2024-09-24_17h37.39.615,Reversal,2022.1.2,60.05010579832634,1,
19,exp3.png,exp4.png,,,,,,,,,,,,,,,,,,1,0,1,0,0,19,19,19,,,,,,,,,False,38,119,True,exp4.png,exp3.png,trial_left_image,1,exp4.png,1,exp3.png,exp4.png,0,2,non-reversed,incorrect,0.6577129800902387,0,valid_lose,949.5341932999436,56,,,,,,,,,,,,,,,,,,sub_537,2024-09-24_17h37.39.615,Reversal,2022.1.2,60.05010579832634,1,
20,exp1.png,exp2.png,,,,,,,,,,,,,,,,,,1,0,1,0,0,20,20,20,,,,,,,,,False,39,120,False,exp1.png,exp2.png,trial_right_image,-1,exp2.png,1,exp2.png,exp1.png,0,4,reversed,correct,0.734996457292335,1,valid_win,955.066783899907,57,,,,,,,,,,,,,,,,,,sub_537,2024-09-24_17h37.39.615,Reversal,2022.1.2,60.05010579832634,1,
,,,exp1.png,,,,,,,,,,,,,,,,,1,0,1,0,,,,,0,0,0,0,0,0,0,0,,,,,,,,,,,,,,,,,,,,,,36.0,36.0,2.4603462000377476,"[(36.0, 2.4603462000377476)]",1030.1594350999221,None,,,,,,,,,,,,sub_537,2024-09-24_17h37.39.615,Reversal,2022.1.2,60.05010579832634,1,
,,,exp2.png,,,,,,,,,,,,,,,,,1,0,1,0,,,,,0,0,0,0,0,1,1,1,,,,,,,,,,,,,,,,,,,,,,,36.0,1.4172883999999613,"[(36.0, 1.4172883999999613)]",1034.0342582000885,None,36.0,,,,,,,,,,,sub_537,2024-09-24_17h37.39.615,Reversal,2022.1.2,60.05010579832634,1,
,,,exp3.png,,,,,,,,,,,,,,,,,1,0,1,0,,,,,0,0,0,0,0,2,2,2,,,,,,,,,,,,,,,,,,,,,,,21.0,1.8502400000579655,"[(21.0, 1.8502400000579655)]",1036.5354249998927,None,,21.0,,,,,,,,,,sub_537,2024-09-24_17h37.39.615,Reversal,2022.1.2,60.05010579832634,1,
,,,exp4.png,,,,,,,,,,,,,,,,,1,0,1,0,,,,,0,0,0,0,0,3,3,3,,,,,,,,,,,,,,,,,,,,,,,40.0,3.5487182999495417,"[(45.0, 2.5993621998932213), (40.0, 3.5487182999495417)]",1039.4524002999533,None,,,40.0,,,,,,,,,sub_537,2024-09-24_17h37.39.615,Reversal,2022.1.2,60.05010579832634,1,
0,exp1.png,exp2.png,,,,,,,,,,,,,,,,,,2,0,2,0,0,0,0,0,,,,,,,,,True,,,,,,,,,,,,,,,,,,,,,,,,,,,,,,,,,,,,,,sub_537,2024-09-24_17h37.39.615,Reversal,2022.1.2,60.05010579832634,1,
1,exp3.png,exp4.png,,,,,,,,,,,,,,,,,,2,0,2,0,0,1,1,1,,,,,,,,,False,40,121,False,exp3.png,exp4.png,trial_right_image,-1,exp4.png,1,exp3.png,exp4.png,0,2,non-reversed,incorrect,0.4105017661690925,0,valid_lose,977.2497608999256,57,,,,,,,,,,,,,,,,,,sub_537,2024-09-24_17h37.39.615,Reversal,2022.1.2,60.05010579832634,1,
2,exp1.png,exp2.png,,,,,,,,,,,,,,,,,,2,0,2,0,0,2,2,2,,,,,,,,,False,41,122,False,exp1.png,exp2.png,trial_right_image,-1,exp2.png,1,exp2.png,exp1.png,0,4,reversed,correct,0.36562889058824877,1,valid_win,983.816596499877,58,,,,,,,,,,,,,,,,,,sub_537,2024-09-24_17h37.39.615,Reversal,2022.1.2,60.05010579832634,1,
3,exp3.png,exp4.png,,,,,,,,,,,,,,,,,,2,0,2,0,0,3,3,3,,,,,,,,,False,42,123,False,exp3.png,exp4.png,trial_right_image,-1,exp4.png,1,exp3.png,exp4.png,0,2,non-reversed,incorrect,0.5303169106251037,0,valid_lose,989.5327936999965,58,,,,,,,,,,,,,,,,,,sub_537,2024-09-24_17h37.39.615,Reversal,2022.1.2,60.05010579832634,1,
4,exp1.png,exp2.png,,,,,,,,,,,,,,,,,,2,0,2,0,0,4,4,4,,,,,,,,,False,43,124,False,exp1.png,exp2.png,trial_right_image,-1,exp2.png,1,exp2.png,exp1.png,0,4,reversed,correct,0.7372500358410486,1,valid_win,996.1828052999917,59,,,,,,,,,,,,,,,,,,sub_537,2024-09-24_17h37.39.615,Reversal,2022.1.2,60.05010579832634,1,
5,exp3.png,exp4.png,,,,,,,,,,,,,,,,,,2,0,2,0,0,5,5,5,,,,,,,,,False,44,125,True,exp4.png,exp3.png,trial_left_image,1,exp4.png,1,exp3.png,exp4.png,0,2,non-reversed,incorrect,0.700755162900513,0,valid_lose,1001.1158779999241,59,,,,,,,,,,,,,,,,,,sub_537,2024-09-24_17h37.39.615,Reversal,2022.1.2,60.05010579832634,1,
6,exp1.png,exp2.png,,,,,,,,,,,,,,,,,,2,0,2,0,0,6,6,6,,,,,,,,,False,45,126,True,exp2.png,exp1.png,trial_right_image,-1,exp1.png,1,exp2.png,exp1.png,1,3,reversed,incorrect,0.8779040253633863,0,valid_lose,1007.3996510000434,59,,,,,,,,,,,,,,,,,,sub_537,2024-09-24_17h37.39.615,Reversal,2022.1.2,60.05010579832634,1,
7,exp3.png,exp4.png,,,,,,,,,,,,,,,,,,2,0,2,0,0,7,7,7,,,,,,,,,False,46,127,False,exp3.png,exp4.png,trial_right_image,-1,exp4.png,1,exp3.png,exp4.png,0,2,non-reversed,incorrect,0.515399079688873,0,valid_lose,1012.2490421000402,59,,,,,,,,,,,,,,,,,,sub_537,2024-09-24_17h37.39.615,Reversal,2022.1.2,60.05010579832634,1,
8,exp1.png,exp2.png,,,,,,,,,,,,,,,,,,2,0,2,0,0,8,8,8,,,,,,,,,False,47,128,True,exp2.png,exp1.png,trial_left_image,1,exp2.png,1,exp2.png,exp1.png,0,4,reversed,correct,0.9236008228312929,1,valid_win,1017.0997591998894,60,,,,,,,,,,,,,,,,,,sub_537,2024-09-24_17h37.39.615,Reversal,2022.1.2,60.05010579832634,1,
9,exp3.png,exp4.png,,,,,,,,,,,,,,,,,,2,0,2,0,0,9,9,9,,,,,,,,,False,48,129,True,exp4.png,exp3.png,trial_right_image,-1,exp3.png,1,exp3.png,exp4.png,1,1,non-reversed,correct,0.7002890298613803,1,valid_win,1022.9823755999096,61,,,,,,,,,,,,,,,,,,sub_537,2024-09-24_17h37.39.615,Reversal,2022.1.2,60.05010579832634,1,
10,exp1.png,exp2.png,,,,,,,,,,,,,,,,,,2,0,2,0,0,10,10,10,,,,,,,,,False,49,130,False,exp1.png,exp2.png,trial_left_image,1,exp1.png,1,exp2.png,exp1.png,1,3,reversed,incorrect,0.08443913229724387,1,invalid_win,1032.7492561999243,62,,,,,,,,,,,,,,,,,,sub_537,2024-09-24_17h37.39.615,Reversal,2022.1.2,60.05010579832634,1,
11,exp3.png,exp4.png,,,,,,,,,,,,,,,,,,2,0,2,0,0,11,11,11,,,,,,,,,False,50,131,True,exp4.png,exp3.png,trial_left_image,1,exp4.png,1,exp3.png,exp4.png,0,2,non-reversed,incorrect,0.29113360477824957,0,valid_lose,1038.4819982000627,62,,,,,,,,,,,,,,,,,,sub_537,2024-09-24_17h37.39.615,Reversal,2022.1.2,60.05010579832634,1,
12,exp1.png,exp2.png,,,,,,,,,,,,,,,,,,2,0,2,0,0,12,12,12,,,,,,,,,False,51,132,True,exp2.png,exp1.png,trial_right_image,-1,exp1.png,1,exp2.png,exp1.png,1,3,reversed,incorrect,0.22308977322122947,1,invalid_win,1044.5822421999183,63,,,,,,,,,,,,,,,,,,sub_537,2024-09-24_17h37.39.615,Reversal,2022.1.2,60.05010579832634,1,
13,exp3.png,exp4.png,,,,,,,,,,,,,,,,,,2,0,2,0,0,13,13,13,,,,,,,,,False,52,133,True,exp4.png,exp3.png,trial_left_image,1,exp4.png,1,exp3.png,exp4.png,0,2,non-reversed,incorrect,0.916125482261099,0,valid_lose,1049.9483618000522,63,,,,,,,,,,,,,,,,,,sub_537,2024-09-24_17h37.39.615,Reversal,2022.1.2,60.05010579832634,1,
14,exp1.png,exp2.png,,,,,,,,,,,,,,,,,,2,0,2,0,0,14,14,14,,,,,,,,,False,53,134,True,exp2.png,exp1.png,trial_right_image,-1,exp1.png,1,exp2.png,exp1.png,1,3,reversed,incorrect,0.7945995403157315,0,valid_lose,1055.998383200029,63,,,,,,,,,,,,,,,,,,sub_537,2024-09-24_17h37.39.615,Reversal,2022.1.2,60.05010579832634,1,
15,exp3.png,exp4.png,,,,,,,,,,,,,,,,,,2,0,2,0,0,15,15,15,,,,,,,,,False,54,135,False,exp3.png,exp4.png,trial_left_image,1,exp3.png,1,exp3.png,exp4.png,1,1,non-reversed,correct,0.6202504688834306,1,valid_win,1060.4490825000685,64,,,,,,,,,,,,,,,,,,sub_537,2024-09-24_17h37.39.615,Reversal,2022.1.2,60.05010579832634,1,
16,exp1.png,exp2.png,,,,,,,,,,,,,,,,,,2,0,2,0,0,16,16,16,,,,,,,,,False,55,136,False,exp1.png,exp2.png,trial_right_image,-1,exp2.png,1,exp2.png,exp1.png,0,4,reversed,correct,0.4177005715219484,1,valid_win,1065.5157987999264,65,,,,,,,,,,,,,,,,,,sub_537,2024-09-24_17h37.39.615,Reversal,2022.1.2,60.05010579832634,1,
17,exp3.png,exp4.png,,,,,,,,,,,,,,,,,,2,0,2,0,0,17,17,17,,,,,,,,,False,56,137,True,exp4.png,exp3.png,trial_right_image,-1,exp3.png,1,exp3.png,exp4.png,1,1,non-reversed,correct,0.7368336205412821,1,valid_win,1075.6819402000401,66,,,,,,,,,,,,,,,,,,sub_537,2024-09-24_17h37.39.615,Reversal,2022.1.2,60.05010579832634,1,
18,exp1.png,exp2.png,,,,,,,,,,,,,,,,,,2,0,2,0,0,18,18,18,,,,,,,,,False,57,138,True,exp2.png,exp1.png,trial_left_image,1,exp2.png,1,exp2.png,exp1.png,0,4,reversed,correct,0.44324033550667985,1,valid_win,1081.88109229994,67,,,,,,,,,,,,,,,,,,sub_537,2024-09-24_17h37.39.615,Reversal,2022.1.2,60.05010579832634,1,
19,exp3.png,exp4.png,,,,,,,,,,,,,,,,,,2,0,2,0,0,19,19,19,,,,,,,,,False,58,139,False,exp3.png,exp4.png,trial_right_image,-1,exp4.png,1,exp3.png,exp4.png,0,2,non-reversed,incorrect,0.37046313479367377,0,valid_lose,1087.3474528999068,67,,,,,,,,,,,,,,,,,,sub_537,2024-09-24_17h37.39.615,Reversal,2022.1.2,60.05010579832634,1,
20,exp1.png,exp2.png,,,,,,,,,,,,,,,,,,2,0,2,0,0,20,20,20,,,,,,,,,False,59,140,False,exp1.png,exp2.png,trial_right_image,-1,exp2.png,1,exp2.png,exp1.png,0,4,reversed,correct,0.22994915750180278,0,invalid_lose,1093.1315429999959,67,,,,,,,,,,,,,,,,,,sub_537,2024-09-24_17h37.39.615,Reversal,2022.1.2,60.05010579832634,1,
,,,exp1.png,,,,,,,,,,,,,,,,,2,0,2,0,,,,,0,0,0,0,0,0,0,0,,,,,,,,,,,,,,,,,,,,,,33.0,33.0,2.4328687000088394,"[(33.0, 2.4328687000088394)]",1168.219570999965,None,,,,,,,,,,,,sub_537,2024-09-24_17h37.39.615,Reversal,2022.1.2,60.05010579832634,1,
,,,exp2.png,,,,,,,,,,,,,,,,,2,0,2,0,,,,,0,0,0,0,0,1,1,1,,,,,,,,,,,,,,,,,,,,,,,26.0,2.6658862000331283,"[(33.0, 1.4169351998716593), (26.0, 2.6658862000331283)]",1172.0002884001005,None,26.0,,,,,,,,,,,sub_537,2024-09-24_17h37.39.615,Reversal,2022.1.2,60.05010579832634,1,
,,,exp3.png,,,,,,,,,,,,,,,,,2,0,2,0,,,,,0,0,0,0,0,2,2,2,,,,,,,,,,,,,,,,,,,,,,,28.0,1.2501519999932498,"[(28.0, 1.2501519999932498)]",1175.80127730011,None,,28.0,,,,,,,,,,sub_537,2024-09-24_17h37.39.615,Reversal,2022.1.2,60.05010579832634,1,
,,,exp4.png,,,,,,,,,,,,,,,,,2,0,2,0,,,,,0,0,0,0,0,3,3,3,,,,,,,,,,,,,,,,,,,,,,,29.0,1.0683304001577199,"[(29.0, 1.0683304001577199)]",1178.0980601001065,None,,,29.0,,,,,,,,,sub_537,2024-09-24_17h37.39.615,Reversal,2022.1.2,60.05010579832634,1,
,,,,,,,,,,,,,,,,,,,,,,,,,,,,,,,,,,,,,,,,,,,,,,,,,,,,,,,,67,,,,,,,,,,,57,28,29,452.65649880003184,1,space,64.88826870010234,sub_537,2024-09-24_17h37.39.615,Reversal,2022.1.2,60.05010579832634,1,
