trial_index,trial_image1_file,trial_image2_file,image_file,learning_outer_loop.thisRepN,learning_outer_loop.thisTrialN,learning_outer_loop.thisN,learning_outer_loop.thisIndex,learning_inner_loop.thisRepN,learning_inner_loop.thisTrialN,learning_inner_loop.thisN,learning_inner_loop.thisIndex,learning_estimation_outer_loop.thisRepN,learning_estimation_outer_loop.thisTrialN,learning_estimation_outer_loop.thisN,learning_estimation_outer_loop.thisIndex,learning_estimation_inner_loop.thisRepN,learning_estimation_inner_loop.thisTrialN,learning_estimation_inner_loop.thisN,learning_estimation_inner_loop.thisIndex,reversal_outer_loop.thisRepN,reversal_outer_loop.thisTrialN,reversal_outer_loop.thisN,reversal_outer_loop.thisIndex,reversal_inner_loop.thisRepN,reversal_inner_loop.thisTrialN,reversal_inner_loop.thisN,reversal_inner_loop.thisIndex,reversal_estimation_outer_loop.thisRepN,reversal_estimation_outer_loop.thisTrialN,reversal_estimation_outer_loop.thisN,reversal_estimation_outer_loop.thisIndex,reversal_estimation_inner_loop.thisRepN,reversal_estimation_inner_loop.thisTrialN,reversal_estimation_inner_loop.thisN,reversal_estimation_inner_loop.thisIndex,skipped,total_trial_counter,trial_num,left_right_flip,left_image_file,right_image_file,clicked_stimulus_side,side,clicked_stimulus,version,high_prob_image_file,low_prob_image_file,choice_a,choice_b,pair_type,correct,trial_feedback_random,reward,trial_type,overall_time_after_trial,score,estimation_rating.started,estimation_exp1.png,estimation_rating.response,estimation_rating.rt,estimation_rating.history,estimation_exp2.png,estimation_exp3.png,estimation_exp4.png,total_learning_time,total_correct,learning_correct,reversal_correct,total_reversal_time,extra_block,participant,date,expName,psychopyVersion,frameRate,ver,
0,exp1.png,exp2.png,,0,0,0,0,0,0,0,0,,,,,,,,,,,,,,,,,,,,,,,,,True,,,,,,,,,,,,,,,,,,,,,,,,,,,,,,,,,,,sub_798,2025-03-28_12h52.24.589,Reversal,2023.1.3,59.95448255225546,2,
1,exp3.png,exp4.png,,0,0,0,0,0,1,1,1,,,,,,,,,,,,,,,,,,,,,,,,,False,0,1,True,exp4.png,exp3.png,trial_right_image,-1,exp3.png,2,exp3.png,exp4.png,1,3,reversed,correct,0.6987371539250143,1,valid_win,22.958625600032974,1,,,,,,,,,,,,,,,sub_798,2025-03-28_12h52.24.589,Reversal,2023.1.3,59.95448255225546,2,
2,exp1.png,exp2.png,,0,0,0,0,0,2,2,2,,,,,,,,,,,,,,,,,,,,,,,,,False,1,2,False,exp1.png,exp2.png,trial_left_image,1,exp1.png,2,exp1.png,exp2.png,1,1,non-reversed,correct,0.4396170954049654,1,valid_win,33.171515099995304,2,,,,,,,,,,,,,,,sub_798,2025-03-28_12h52.24.589,Reversal,2023.1.3,59.95448255225546,2,
3,exp3.png,exp4.png,,0,0,0,0,0,3,3,3,,,,,,,,,,,,,,,,,,,,,,,,,False,2,3,False,exp3.png,exp4.png,trial_left_image,1,exp3.png,2,exp3.png,exp4.png,1,3,reversed,correct,0.9069204586810738,1,valid_win,42.9031748000416,3,,,,,,,,,,,,,,,sub_798,2025-03-28_12h52.24.589,Reversal,2023.1.3,59.95448255225546,2,
4,exp1.png,exp2.png,,0,0,0,0,0,4,4,4,,,,,,,,,,,,,,,,,,,,,,,,,False,3,4,True,exp2.png,exp1.png,trial_left_image,1,exp2.png,2,exp1.png,exp2.png,0,2,non-reversed,incorrect,0.7556419148360328,0,valid_lose,48.49924319999991,3,,,,,,,,,,,,,,,sub_798,2025-03-28_12h52.24.589,Reversal,2023.1.3,59.95448255225546,2,
5,exp3.png,exp4.png,,0,0,0,0,0,5,5,5,,,,,,,,,,,,,,,,,,,,,,,,,False,4,5,False,exp3.png,exp4.png,trial_right_image,-1,exp4.png,2,exp3.png,exp4.png,0,4,reversed,incorrect,0.7080946207483704,0,valid_lose,75.70670790004078,3,,,,,,,,,,,,,,,sub_798,2025-03-28_12h52.24.589,Reversal,2023.1.3,59.95448255225546,2,
6,exp1.png,exp2.png,,0,0,0,0,0,6,6,6,,,,,,,,,,,,,,,,,,,,,,,,,False,5,6,False,exp1.png,exp2.png,trial_right_image,-1,exp2.png,2,exp1.png,exp2.png,0,2,non-reversed,incorrect,0.7186437517699665,0,valid_lose,80.905152500025,3,,,,,,,,,,,,,,,sub_798,2025-03-28_12h52.24.589,Reversal,2023.1.3,59.95448255225546,2,
7,exp3.png,exp4.png,,0,0,0,0,0,7,7,7,,,,,,,,,,,,,,,,,,,,,,,,,False,6,7,True,exp4.png,exp3.png,trial_right_image,-1,exp3.png,2,exp3.png,exp4.png,1,3,reversed,correct,0.16580930596789467,0,invalid_lose,86.00313680002,3,,,,,,,,,,,,,,,sub_798,2025-03-28_12h52.24.589,Reversal,2023.1.3,59.95448255225546,2,
8,exp1.png,exp2.png,,0,0,0,0,0,8,8,8,,,,,,,,,,,,,,,,,,,,,,,,,False,7,8,False,exp1.png,exp2.png,trial_left_image,1,exp1.png,2,exp1.png,exp2.png,1,1,non-reversed,correct,0.9941645474425637,1,valid_win,91.91901390004205,4,,,,,,,,,,,,,,,sub_798,2025-03-28_12h52.24.589,Reversal,2023.1.3,59.95448255225546,2,
9,exp3.png,exp4.png,,0,0,0,0,0,9,9,9,,,,,,,,,,,,,,,,,,,,,,,,,False,8,9,True,exp4.png,exp3.png,trial_right_image,-1,exp3.png,2,exp3.png,exp4.png,1,3,reversed,correct,0.7964901703956844,1,valid_win,96.6839257000247,5,,,,,,,,,,,,,,,sub_798,2025-03-28_12h52.24.589,Reversal,2023.1.3,59.95448255225546,2,
10,exp1.png,exp2.png,,0,0,0,0,0,10,10,10,,,,,,,,,,,,,,,,,,,,,,,,,False,9,10,False,exp1.png,exp2.png,trial_left_image,1,exp1.png,2,exp1.png,exp2.png,1,1,non-reversed,correct,0.21398664417952262,0,invalid_lose,101.28333900001599,5,,,,,,,,,,,,,,,sub_798,2025-03-28_12h52.24.589,Reversal,2023.1.3,59.95448255225546,2,
11,exp3.png,exp4.png,,0,0,0,0,0,11,11,11,,,,,,,,,,,,,,,,,,,,,,,,,False,10,11,False,exp3.png,exp4.png,trial_left_image,1,exp3.png,2,exp3.png,exp4.png,1,3,reversed,correct,0.8779120484715902,1,valid_win,106.21268810000038,6,,,,,,,,,,,,,,,sub_798,2025-03-28_12h52.24.589,Reversal,2023.1.3,59.95448255225546,2,
12,exp1.png,exp2.png,,0,0,0,0,0,12,12,12,,,,,,,,,,,,,,,,,,,,,,,,,False,11,12,True,exp2.png,exp1.png,trial_left_image,1,exp2.png,2,exp1.png,exp2.png,0,2,non-reversed,incorrect,0.10694681669373562,1,invalid_win,111.66091139998753,7,,,,,,,,,,,,,,,sub_798,2025-03-28_12h52.24.589,Reversal,2023.1.3,59.95448255225546,2,
13,exp3.png,exp4.png,,0,0,0,0,0,13,13,13,,,,,,,,,,,,,,,,,,,,,,,,,False,12,13,True,exp4.png,exp3.png,trial_right_image,-1,exp3.png,2,exp3.png,exp4.png,1,3,reversed,correct,0.4253707834088837,1,valid_win,116.04272120003588,8,,,,,,,,,,,,,,,sub_798,2025-03-28_12h52.24.589,Reversal,2023.1.3,59.95448255225546,2,
14,exp1.png,exp2.png,,0,0,0,0,0,14,14,14,,,,,,,,,,,,,,,,,,,,,,,,,False,13,14,True,exp2.png,exp1.png,trial_left_image,1,exp2.png,2,exp1.png,exp2.png,0,2,non-reversed,incorrect,0.7812377219392002,0,valid_lose,120.45786730002146,8,,,,,,,,,,,,,,,sub_798,2025-03-28_12h52.24.589,Reversal,2023.1.3,59.95448255225546,2,
15,exp3.png,exp4.png,,0,0,0,0,0,15,15,15,,,,,,,,,,,,,,,,,,,,,,,,,False,14,15,True,exp4.png,exp3.png,trial_right_image,-1,exp3.png,2,exp3.png,exp4.png,1,3,reversed,correct,0.1827462355188738,0,invalid_lose,125.15673270000843,8,,,,,,,,,,,,,,,sub_798,2025-03-28_12h52.24.589,Reversal,2023.1.3,59.95448255225546,2,
16,exp1.png,exp2.png,,0,0,0,0,0,16,16,16,,,,,,,,,,,,,,,,,,,,,,,,,False,15,16,True,exp2.png,exp1.png,trial_left_image,1,exp2.png,2,exp1.png,exp2.png,0,2,non-reversed,incorrect,0.7155463530636844,0,valid_lose,130.08803250000346,8,,,,,,,,,,,,,,,sub_798,2025-03-28_12h52.24.589,Reversal,2023.1.3,59.95448255225546,2,
17,exp3.png,exp4.png,,0,0,0,0,0,17,17,17,,,,,,,,,,,,,,,,,,,,,,,,,False,16,17,False,exp3.png,exp4.png,trial_left_image,1,exp3.png,2,exp3.png,exp4.png,1,3,reversed,correct,0.5222129372064709,1,valid_win,135.4196171000367,9,,,,,,,,,,,,,,,sub_798,2025-03-28_12h52.24.589,Reversal,2023.1.3,59.95448255225546,2,
18,exp1.png,exp2.png,,0,0,0,0,0,18,18,18,,,,,,,,,,,,,,,,,,,,,,,,,False,17,18,False,exp1.png,exp2.png,trial_right_image,-1,exp2.png,2,exp1.png,exp2.png,0,2,non-reversed,incorrect,0.782053522829341,0,valid_lose,141.61741010000696,9,,,,,,,,,,,,,,,sub_798,2025-03-28_12h52.24.589,Reversal,2023.1.3,59.95448255225546,2,
19,exp3.png,exp4.png,,0,0,0,0,0,19,19,19,,,,,,,,,,,,,,,,,,,,,,,,,False,18,19,True,exp4.png,exp3.png,trial_right_image,-1,exp3.png,2,exp3.png,exp4.png,1,3,reversed,correct,0.66986792099675,1,valid_win,147.98198089998914,10,,,,,,,,,,,,,,,sub_798,2025-03-28_12h52.24.589,Reversal,2023.1.3,59.95448255225546,2,
20,exp1.png,exp2.png,,0,0,0,0,0,20,20,20,,,,,,,,,,,,,,,,,,,,,,,,,False,19,20,False,exp1.png,exp2.png,trial_right_image,-1,exp2.png,2,exp1.png,exp2.png,0,2,non-reversed,incorrect,0.9250944732123842,0,valid_lose,154.56427690002602,10,,,,,,,,,,,,,,,sub_798,2025-03-28_12h52.24.589,Reversal,2023.1.3,59.95448255225546,2,
,,,exp1.png,0,0,0,0,,,,,0,0,0,0,0,0,0,0,,,,,,,,,,,,,,,,,,,,,,,,,,,,,,,,,,,,,,226.9324411000125,67.0,67.0,10.186202100012451,"[(93.0, 7.386574900010601), (67.0, 10.186202100012451)]",,,,,,,,,,sub_798,2025-03-28_12h52.24.589,Reversal,2023.1.3,59.95448255225546,2,
,,,exp2.png,0,0,0,0,,,,,0,0,0,0,0,1,1,1,,,,,,,,,,,,,,,,,,,,,,,,,,,,,,,,,,,,,,238.46924430003855,,29.0,3.390648600005079,"[(29.0, 3.390648600005079)]",29.0,,,,,,,,,sub_798,2025-03-28_12h52.24.589,Reversal,2023.1.3,59.95448255225546,2,
,,,exp3.png,0,0,0,0,,,,,0,0,0,0,0,2,2,2,,,,,,,,,,,,,,,,,,,,,,,,,,,,,,,,,,,,,,242.99685530003626,,100.0,2.477246699971147,"[(100.0, 2.477246699971147)]",,100.0,,,,,,,,sub_798,2025-03-28_12h52.24.589,Reversal,2023.1.3,59.95448255225546,2,
,,,exp4.png,0,0,0,0,,,,,0,0,0,0,0,3,3,3,,,,,,,,,,,,,,,,,,,,,,,,,,,,,,,,,,,,,,246.66053520003334,,23.0,3.210595900018234,"[(23.0, 3.210595900018234)]",,,23.0,,,,,,,sub_798,2025-03-28_12h52.24.589,Reversal,2023.1.3,59.95448255225546,2,
0,exp1.png,exp2.png,,1,0,1,0,0,0,0,0,,,,,,,,,,,,,,,,,,,,,,,,,True,,,,,,,,,,,,,,,,,,,,,,,,,,,,,,,,,,,sub_798,2025-03-28_12h52.24.589,Reversal,2023.1.3,59.95448255225546,2,
1,exp3.png,exp4.png,,1,0,1,0,0,1,1,1,,,,,,,,,,,,,,,,,,,,,,,,,False,20,21,False,exp3.png,exp4.png,trial_left_image,1,exp3.png,2,exp3.png,exp4.png,1,3,reversed,correct,0.4906604082389687,1,valid_win,184.98582060000626,11,,,,,,,,,,,,,,,sub_798,2025-03-28_12h52.24.589,Reversal,2023.1.3,59.95448255225546,2,
2,exp1.png,exp2.png,,1,0,1,0,0,2,2,2,,,,,,,,,,,,,,,,,,,,,,,,,False,21,22,False,exp1.png,exp2.png,trial_left_image,1,exp1.png,2,exp1.png,exp2.png,1,1,non-reversed,correct,0.04019506880918944,0,invalid_lose,190.98419099999592,11,,,,,,,,,,,,,,,sub_798,2025-03-28_12h52.24.589,Reversal,2023.1.3,59.95448255225546,2,
3,exp3.png,exp4.png,,1,0,1,0,0,3,3,3,,,,,,,,,,,,,,,,,,,,,,,,,False,22,23,True,exp4.png,exp3.png,trial_right_image,-1,exp3.png,2,exp3.png,exp4.png,1,3,reversed,correct,0.19606039041952306,0,invalid_lose,196.26767150004162,11,,,,,,,,,,,,,,,sub_798,2025-03-28_12h52.24.589,Reversal,2023.1.3,59.95448255225546,2,
4,exp1.png,exp2.png,,1,0,1,0,0,4,4,4,,,,,,,,,,,,,,,,,,,,,,,,,False,23,24,False,exp1.png,exp2.png,trial_left_image,1,exp1.png,2,exp1.png,exp2.png,1,1,non-reversed,correct,0.595582699604288,1,valid_win,202.8469468000112,12,,,,,,,,,,,,,,,sub_798,2025-03-28_12h52.24.589,Reversal,2023.1.3,59.95448255225546,2,
5,exp3.png,exp4.png,,1,0,1,0,0,5,5,5,,,,,,,,,,,,,,,,,,,,,,,,,False,24,25,True,exp4.png,exp3.png,trial_right_image,-1,exp3.png,2,exp3.png,exp4.png,1,3,reversed,correct,0.12421727122186865,0,invalid_lose,208.67807170003653,12,,,,,,,,,,,,,,,sub_798,2025-03-28_12h52.24.589,Reversal,2023.1.3,59.95448255225546,2,
6,exp1.png,exp2.png,,1,0,1,0,0,6,6,6,,,,,,,,,,,,,,,,,,,,,,,,,False,25,26,True,exp2.png,exp1.png,trial_left_image,1,exp2.png,2,exp1.png,exp2.png,0,2,non-reversed,incorrect,0.4160882040065812,0,valid_lose,213.17647030000808,12,,,,,,,,,,,,,,,sub_798,2025-03-28_12h52.24.589,Reversal,2023.1.3,59.95448255225546,2,
7,exp3.png,exp4.png,,1,0,1,0,0,7,7,7,,,,,,,,,,,,,,,,,,,,,,,,,False,26,27,False,exp3.png,exp4.png,trial_left_image,1,exp3.png,2,exp3.png,exp4.png,1,3,reversed,correct,0.12497007605949284,0,invalid_lose,218.29174449999118,12,,,,,,,,,,,,,,,sub_798,2025-03-28_12h52.24.589,Reversal,2023.1.3,59.95448255225546,2,
8,exp1.png,exp2.png,,1,0,1,0,0,8,8,8,,,,,,,,,,,,,,,,,,,,,,,,,False,27,28,False,exp1.png,exp2.png,trial_right_image,-1,exp2.png,2,exp1.png,exp2.png,0,2,non-reversed,incorrect,0.6352529758344815,0,valid_lose,223.75605080003152,12,,,,,,,,,,,,,,,sub_798,2025-03-28_12h52.24.589,Reversal,2023.1.3,59.95448255225546,2,
9,exp3.png,exp4.png,,1,0,1,0,0,9,9,9,,,,,,,,,,,,,,,,,,,,,,,,,False,28,29,True,exp4.png,exp3.png,trial_right_image,-1,exp3.png,2,exp3.png,exp4.png,1,3,reversed,correct,0.43513927367318606,1,valid_win,228.6378455000231,13,,,,,,,,,,,,,,,sub_798,2025-03-28_12h52.24.589,Reversal,2023.1.3,59.95448255225546,2,
10,exp1.png,exp2.png,,1,0,1,0,0,10,10,10,,,,,,,,,,,,,,,,,,,,,,,,,False,29,30,False,exp1.png,exp2.png,trial_left_image,1,exp1.png,2,exp1.png,exp2.png,1,1,non-reversed,correct,0.39121220597577644,1,valid_win,235.68537520000245,14,,,,,,,,,,,,,,,sub_798,2025-03-28_12h52.24.589,Reversal,2023.1.3,59.95448255225546,2,
11,exp3.png,exp4.png,,1,0,1,0,0,11,11,11,,,,,,,,,,,,,,,,,,,,,,,,,False,30,31,True,exp4.png,exp3.png,trial_right_image,-1,exp3.png,2,exp3.png,exp4.png,1,3,reversed,correct,0.12981806421984177,0,invalid_lose,241.2834745,14,,,,,,,,,,,,,,,sub_798,2025-03-28_12h52.24.589,Reversal,2023.1.3,59.95448255225546,2,
12,exp1.png,exp2.png,,1,0,1,0,0,12,12,12,,,,,,,,,,,,,,,,,,,,,,,,,False,31,32,True,exp2.png,exp1.png,trial_right_image,-1,exp1.png,2,exp1.png,exp2.png,1,1,non-reversed,correct,0.017922165879654006,0,invalid_lose,247.58158679999178,14,,,,,,,,,,,,,,,sub_798,2025-03-28_12h52.24.589,Reversal,2023.1.3,59.95448255225546,2,
13,exp3.png,exp4.png,,1,0,1,0,0,13,13,13,,,,,,,,,,,,,,,,,,,,,,,,,False,32,33,True,exp4.png,exp3.png,trial_right_image,-1,exp3.png,2,exp3.png,exp4.png,1,3,reversed,correct,0.3369556393963762,1,valid_win,254.32924570003524,15,,,,,,,,,,,,,,,sub_798,2025-03-28_12h52.24.589,Reversal,2023.1.3,59.95448255225546,2,
14,exp1.png,exp2.png,,1,0,1,0,0,14,14,14,,,,,,,,,,,,,,,,,,,,,,,,,False,33,34,False,exp1.png,exp2.png,trial_left_image,1,exp1.png,2,exp1.png,exp2.png,1,1,non-reversed,correct,0.441421759500811,1,valid_win,259.12749059998896,16,,,,,,,,,,,,,,,sub_798,2025-03-28_12h52.24.589,Reversal,2023.1.3,59.95448255225546,2,
15,exp3.png,exp4.png,,1,0,1,0,0,15,15,15,,,,,,,,,,,,,,,,,,,,,,,,,False,34,35,False,exp3.png,exp4.png,trial_right_image,-1,exp4.png,2,exp3.png,exp4.png,0,4,reversed,incorrect,0.26296681801844946,0,valid_lose,263.3092571000452,16,,,,,,,,,,,,,,,sub_798,2025-03-28_12h52.24.589,Reversal,2023.1.3,59.95448255225546,2,
16,exp1.png,exp2.png,,1,0,1,0,0,16,16,16,,,,,,,,,,,,,,,,,,,,,,,,,False,35,36,True,exp2.png,exp1.png,trial_left_image,1,exp2.png,2,exp1.png,exp2.png,0,2,non-reversed,incorrect,0.3630219129102362,0,valid_lose,268.24099700001534,16,,,,,,,,,,,,,,,sub_798,2025-03-28_12h52.24.589,Reversal,2023.1.3,59.95448255225546,2,
17,exp3.png,exp4.png,,1,0,1,0,0,17,17,17,,,,,,,,,,,,,,,,,,,,,,,,,False,36,37,True,exp4.png,exp3.png,trial_right_image,-1,exp3.png,2,exp3.png,exp4.png,1,3,reversed,correct,0.7644705248695021,1,valid_win,273.05609050003113,17,,,,,,,,,,,,,,,sub_798,2025-03-28_12h52.24.589,Reversal,2023.1.3,59.95448255225546,2,
18,exp1.png,exp2.png,,1,0,1,0,0,18,18,18,,,,,,,,,,,,,,,,,,,,,,,,,False,37,38,False,exp1.png,exp2.png,trial_left_image,1,exp1.png,2,exp1.png,exp2.png,1,1,non-reversed,correct,0.7817581412969993,1,valid_win,279.70362420001766,18,,,,,,,,,,,,,,,sub_798,2025-03-28_12h52.24.589,Reversal,2023.1.3,59.95448255225546,2,
19,exp3.png,exp4.png,,1,0,1,0,0,19,19,19,,,,,,,,,,,,,,,,,,,,,,,,,False,38,39,True,exp4.png,exp3.png,trial_right_image,-1,exp3.png,2,exp3.png,exp4.png,1,3,reversed,correct,0.9709547989796635,1,valid_win,284.6688015999971,19,,,,,,,,,,,,,,,sub_798,2025-03-28_12h52.24.589,Reversal,2023.1.3,59.95448255225546,2,
20,exp1.png,exp2.png,,1,0,1,0,0,20,20,20,,,,,,,,,,,,,,,,,,,,,,,,,False,39,40,False,exp1.png,exp2.png,trial_left_image,1,exp1.png,2,exp1.png,exp2.png,1,1,non-reversed,correct,0.4509371820054109,1,valid_win,289.3171346000163,20,,,,,,,,,,,,,,,sub_798,2025-03-28_12h52.24.589,Reversal,2023.1.3,59.95448255225546,2,
,,,exp1.png,1,0,1,0,,,,,0,0,0,0,0,0,0,0,,,,,,,,,,,,,,,,,,,,,,,,,,,,,,,,,,,,,,361.62696620001225,87.0,87.0,3.240901999990456,"[(87.0, 3.240901999990456)]",,,,,,,,,,sub_798,2025-03-28_12h52.24.589,Reversal,2023.1.3,59.95448255225546,2,
,,,exp2.png,1,0,1,0,,,,,0,0,0,0,0,1,1,1,,,,,,,,,,,,,,,,,,,,,,,,,,,,,,,,,,,,,,366.03715869999724,,20.0,2.227379700052552,"[(20.0, 2.227379700052552)]",20.0,,,,,,,,,sub_798,2025-03-28_12h52.24.589,Reversal,2023.1.3,59.95448255225546,2,
,,,exp3.png,1,0,1,0,,,,,0,0,0,0,0,2,2,2,,,,,,,,,,,,,,,,,,,,,,,,,,,,,,,,,,,,,,369.37121000001207,,100.0,2.6947591000352986,"[(100.0, 2.6947591000352986)]",,100.0,,,,,,,,sub_798,2025-03-28_12h52.24.589,Reversal,2023.1.3,59.95448255225546,2,
,,,exp4.png,1,0,1,0,,,,,0,0,0,0,0,3,3,3,,,,,,,,,,,,,,,,,,,,,,,,,,,,,,,,,,,,,,374.30369160004193,,13.0,3.9089425000129268,"[(13.0, 3.9089425000129268)]",,,13.0,,,,,,,sub_798,2025-03-28_12h52.24.589,Reversal,2023.1.3,59.95448255225546,2,
0,exp1.png,exp2.png,,2,0,2,0,0,0,0,0,,,,,,,,,,,,,,,,,,,,,,,,,True,,,,,,,,,,,,,,,,,,,,,,,,,,,,,,,,,,,sub_798,2025-03-28_12h52.24.589,Reversal,2023.1.3,59.95448255225546,2,
1,exp3.png,exp4.png,,2,0,2,0,0,1,1,1,,,,,,,,,,,,,,,,,,,,,,,,,False,40,41,False,exp3.png,exp4.png,trial_left_image,1,exp3.png,2,exp3.png,exp4.png,1,3,reversed,correct,0.8807731855937052,1,valid_win,313.74213980004424,21,,,,,,,,,,,,,,,sub_798,2025-03-28_12h52.24.589,Reversal,2023.1.3,59.95448255225546,2,
2,exp1.png,exp2.png,,2,0,2,0,0,2,2,2,,,,,,,,,,,,,,,,,,,,,,,,,False,41,42,False,exp1.png,exp2.png,trial_left_image,1,exp1.png,2,exp1.png,exp2.png,1,1,non-reversed,correct,0.71784941743177,1,valid_win,318.79030890000286,22,,,,,,,,,,,,,,,sub_798,2025-03-28_12h52.24.589,Reversal,2023.1.3,59.95448255225546,2,
3,exp3.png,exp4.png,,2,0,2,0,0,3,3,3,,,,,,,,,,,,,,,,,,,,,,,,,False,42,43,True,exp4.png,exp3.png,trial_right_image,-1,exp3.png,2,exp3.png,exp4.png,1,3,reversed,correct,0.2791466175734054,1,valid_win,323.62240739999106,23,,,,,,,,,,,,,,,sub_798,2025-03-28_12h52.24.589,Reversal,2023.1.3,59.95448255225546,2,
4,exp1.png,exp2.png,,2,0,2,0,0,4,4,4,,,,,,,,,,,,,,,,,,,,,,,,,False,43,44,True,exp2.png,exp1.png,trial_right_image,-1,exp1.png,2,exp1.png,exp2.png,1,1,non-reversed,correct,0.5134072783299756,1,valid_win,328.2713556000381,24,,,,,,,,,,,,,,,sub_798,2025-03-28_12h52.24.589,Reversal,2023.1.3,59.95448255225546,2,
5,exp3.png,exp4.png,,2,0,2,0,0,5,5,5,,,,,,,,,,,,,,,,,,,,,,,,,False,44,45,True,exp4.png,exp3.png,trial_right_image,-1,exp3.png,2,exp3.png,exp4.png,1,3,reversed,correct,0.5432793331660479,1,valid_win,333.55241190001834,25,,,,,,,,,,,,,,,sub_798,2025-03-28_12h52.24.589,Reversal,2023.1.3,59.95448255225546,2,
6,exp1.png,exp2.png,,2,0,2,0,0,6,6,6,,,,,,,,,,,,,,,,,,,,,,,,,False,45,46,False,exp1.png,exp2.png,trial_left_image,1,exp1.png,2,exp1.png,exp2.png,1,1,non-reversed,correct,0.9272601486554888,1,valid_win,338.68379050004296,26,,,,,,,,,,,,,,,sub_798,2025-03-28_12h52.24.589,Reversal,2023.1.3,59.95448255225546,2,
7,exp3.png,exp4.png,,2,0,2,0,0,7,7,7,,,,,,,,,,,,,,,,,,,,,,,,,False,46,47,True,exp4.png,exp3.png,trial_right_image,-1,exp3.png,2,exp3.png,exp4.png,1,3,reversed,correct,0.7860611972176359,1,valid_win,343.09915080002975,27,,,,,,,,,,,,,,,sub_798,2025-03-28_12h52.24.589,Reversal,2023.1.3,59.95448255225546,2,
8,exp1.png,exp2.png,,2,0,2,0,0,8,8,8,,,,,,,,,,,,,,,,,,,,,,,,,False,47,48,True,exp2.png,exp1.png,trial_right_image,-1,exp1.png,2,exp1.png,exp2.png,1,1,non-reversed,correct,0.8244384749593556,1,valid_win,347.4476366000017,28,,,,,,,,,,,,,,,sub_798,2025-03-28_12h52.24.589,Reversal,2023.1.3,59.95448255225546,2,
9,exp3.png,exp4.png,,2,0,2,0,0,9,9,9,,,,,,,,,,,,,,,,,,,,,,,,,False,48,49,True,exp4.png,exp3.png,trial_right_image,-1,exp3.png,2,exp3.png,exp4.png,1,3,reversed,correct,0.8442403262814544,1,valid_win,352.5963168000453,29,,,,,,,,,,,,,,,sub_798,2025-03-28_12h52.24.589,Reversal,2023.1.3,59.95448255225546,2,
10,exp1.png,exp2.png,,2,0,2,0,0,10,10,10,,,,,,,,,,,,,,,,,,,,,,,,,False,49,50,True,exp2.png,exp1.png,trial_right_image,-1,exp1.png,2,exp1.png,exp2.png,1,1,non-reversed,correct,0.7760440767660098,1,valid_win,357.1940843000193,30,,,,,,,,,,,,,,,sub_798,2025-03-28_12h52.24.589,Reversal,2023.1.3,59.95448255225546,2,
11,exp3.png,exp4.png,,2,0,2,0,0,11,11,11,,,,,,,,,,,,,,,,,,,,,,,,,False,50,51,True,exp4.png,exp3.png,trial_right_image,-1,exp3.png,2,exp3.png,exp4.png,1,3,reversed,correct,0.6119661086556538,1,valid_win,361.97580740001285,31,,,,,,,,,,,,,,,sub_798,2025-03-28_12h52.24.589,Reversal,2023.1.3,59.95448255225546,2,
12,exp1.png,exp2.png,,2,0,2,0,0,12,12,12,,,,,,,,,,,,,,,,,,,,,,,,,False,51,52,False,exp1.png,exp2.png,trial_left_image,1,exp1.png,2,exp1.png,exp2.png,1,1,non-reversed,correct,0.9111480308848575,1,valid_win,367.74085030000424,32,,,,,,,,,,,,,,,sub_798,2025-03-28_12h52.24.589,Reversal,2023.1.3,59.95448255225546,2,
13,exp3.png,exp4.png,,2,0,2,0,0,13,13,13,,,,,,,,,,,,,,,,,,,,,,,,,False,52,53,False,exp3.png,exp4.png,trial_left_image,1,exp3.png,2,exp3.png,exp4.png,1,3,reversed,correct,0.25256794168844776,1,valid_win,372.65572050004266,33,,,,,,,,,,,,,,,sub_798,2025-03-28_12h52.24.589,Reversal,2023.1.3,59.95448255225546,2,
14,exp1.png,exp2.png,,2,0,2,0,0,14,14,14,,,,,,,,,,,,,,,,,,,,,,,,,False,53,54,False,exp1.png,exp2.png,trial_left_image,1,exp1.png,2,exp1.png,exp2.png,1,1,non-reversed,correct,0.7484023069548164,1,valid_win,377.53981290000957,34,,,,,,,,,,,,,,,sub_798,2025-03-28_12h52.24.589,Reversal,2023.1.3,59.95448255225546,2,
15,exp3.png,exp4.png,,2,0,2,0,0,15,15,15,,,,,,,,,,,,,,,,,,,,,,,,,False,54,55,False,exp3.png,exp4.png,trial_left_image,1,exp3.png,2,exp3.png,exp4.png,1,3,reversed,correct,0.4520335005397875,1,valid_win,382.3189560000319,35,,,,,,,,,,,,,,,sub_798,2025-03-28_12h52.24.589,Reversal,2023.1.3,59.95448255225546,2,
16,exp1.png,exp2.png,,2,0,2,0,0,16,16,16,,,,,,,,,,,,,,,,,,,,,,,,,False,55,56,True,exp2.png,exp1.png,trial_right_image,-1,exp1.png,2,exp1.png,exp2.png,1,1,non-reversed,correct,0.6325989256286877,1,valid_win,387.9336349000223,36,,,,,,,,,,,,,,,sub_798,2025-03-28_12h52.24.589,Reversal,2023.1.3,59.95448255225546,2,
17,exp3.png,exp4.png,,2,0,2,0,0,17,17,17,,,,,,,,,,,,,,,,,,,,,,,,,False,56,57,False,exp3.png,exp4.png,trial_left_image,1,exp3.png,2,exp3.png,exp4.png,1,3,reversed,correct,0.31247683360629885,1,valid_win,392.582196900039,37,,,,,,,,,,,,,,,sub_798,2025-03-28_12h52.24.589,Reversal,2023.1.3,59.95448255225546,2,
18,exp1.png,exp2.png,,2,0,2,0,0,18,18,18,,,,,,,,,,,,,,,,,,,,,,,,,False,57,58,True,exp2.png,exp1.png,trial_right_image,-1,exp1.png,2,exp1.png,exp2.png,1,1,non-reversed,correct,0.8234408530009005,1,valid_win,396.7306843000115,38,,,,,,,,,,,,,,,sub_798,2025-03-28_12h52.24.589,Reversal,2023.1.3,59.95448255225546,2,
19,exp3.png,exp4.png,,2,0,2,0,0,19,19,19,,,,,,,,,,,,,,,,,,,,,,,,,False,58,59,False,exp3.png,exp4.png,trial_left_image,1,exp3.png,2,exp3.png,exp4.png,1,3,reversed,correct,0.9285146896349887,1,valid_win,401.3958249000134,39,,,,,,,,,,,,,,,sub_798,2025-03-28_12h52.24.589,Reversal,2023.1.3,59.95448255225546,2,
20,exp1.png,exp2.png,,2,0,2,0,0,20,20,20,,,,,,,,,,,,,,,,,,,,,,,,,False,59,60,False,exp1.png,exp2.png,trial_left_image,1,exp1.png,2,exp1.png,exp2.png,1,1,non-reversed,correct,0.960843935973134,1,valid_win,406.04475669999374,40,,,,,,,,,,,,,,,sub_798,2025-03-28_12h52.24.589,Reversal,2023.1.3,59.95448255225546,2,
,,,exp1.png,2,0,2,0,,,,,0,0,0,0,0,0,0,0,,,,,,,,,,,,,,,,,,,,,,,,,,,,,,,,,,,,,,478.3529881000286,100.0,100.0,5.40812720003305,"[(100.0, 5.40812720003305)]",,,,,,,,,,sub_798,2025-03-28_12h52.24.589,Reversal,2023.1.3,59.95448255225546,2,
,,,exp2.png,2,0,2,0,,,,,0,0,0,0,0,1,1,1,,,,,,,,,,,,,,,,,,,,,,,,,,,,,,,,,,,,,,485.36352800001623,,1.0,2.343986899999436,"[(1.0, 2.343986899999436)]",1.0,,,,,,,,,sub_798,2025-03-28_12h52.24.589,Reversal,2023.1.3,59.95448255225546,2,
,,,exp3.png,2,0,2,0,,,,,0,0,0,0,0,2,2,2,,,,,,,,,,,,,,,,,,,,,,,,,,,,,,,,,,,,,,489.02892210002756,,100.0,4.295664599980228,"[(100.0, 4.295664599980228)]",,100.0,,,,,,,,sub_798,2025-03-28_12h52.24.589,Reversal,2023.1.3,59.95448255225546,2,
,,,exp4.png,2,0,2,0,,,,,0,0,0,0,0,3,3,3,,,,,,,,,,,,,,,,,,,,,,,,,,,,,,,,,,,,,,494.51022709999233,,1.0,2.3285194000345655,"[(1.0, 2.3285194000345655)]",,,1.0,,,,,,,sub_798,2025-03-28_12h52.24.589,Reversal,2023.1.3,59.95448255225546,2,
0,exp1.png,exp2.png,,,,,,,,,,,,,,,,,,0,0,0,0,0,0,0,0,,,,,,,,,True,,,,,,,,,,,,,,,,,,,,,,,,,,,,,,,,,,,sub_798,2025-03-28_12h52.24.589,Reversal,2023.1.3,59.95448255225546,2,
1,exp3.png,exp4.png,,,,,,,,,,,,,,,,,,0,0,0,0,0,1,1,1,,,,,,,,,False,0,61,False,exp3.png,exp4.png,trial_left_image,1,exp3.png,2,exp4.png,exp3.png,1,3,reversed,incorrect,0.316902205967725,0,valid_lose,431.01903720002156,40,,,,,,,,,428.374373300001,,,,,,sub_798,2025-03-28_12h52.24.589,Reversal,2023.1.3,59.95448255225546,2,
2,exp1.png,exp2.png,,,,,,,,,,,,,,,,,,0,0,0,0,0,2,2,2,,,,,,,,,False,1,62,False,exp1.png,exp2.png,trial_left_image,1,exp1.png,2,exp1.png,exp2.png,1,1,non-reversed,correct,0.534819677106503,1,valid_win,436.0191785999923,41,,,,,,,,,,,,,,,sub_798,2025-03-28_12h52.24.589,Reversal,2023.1.3,59.95448255225546,2,
3,exp3.png,exp4.png,,,,,,,,,,,,,,,,,,0,0,0,0,0,3,3,3,,,,,,,,,False,2,63,True,exp4.png,exp3.png,trial_right_image,-1,exp3.png,2,exp4.png,exp3.png,1,3,reversed,incorrect,0.8332742931245296,0,valid_lose,440.58239410002716,41,,,,,,,,,,,,,,,sub_798,2025-03-28_12h52.24.589,Reversal,2023.1.3,59.95448255225546,2,
4,exp1.png,exp2.png,,,,,,,,,,,,,,,,,,0,0,0,0,0,4,4,4,,,,,,,,,False,3,64,True,exp2.png,exp1.png,trial_right_image,-1,exp1.png,2,exp1.png,exp2.png,1,1,non-reversed,correct,0.6704354174060663,1,valid_win,445.0151989000151,42,,,,,,,,,,,,,,,sub_798,2025-03-28_12h52.24.589,Reversal,2023.1.3,59.95448255225546,2,
5,exp3.png,exp4.png,,,,,,,,,,,,,,,,,,0,0,0,0,0,5,5,5,,,,,,,,,False,4,65,True,exp4.png,exp3.png,trial_left_image,1,exp4.png,2,exp4.png,exp3.png,0,4,reversed,correct,0.5746049246894699,1,valid_win,450.16304690000834,43,,,,,,,,,,,,,,,sub_798,2025-03-28_12h52.24.589,Reversal,2023.1.3,59.95448255225546,2,
6,exp1.png,exp2.png,,,,,,,,,,,,,,,,,,0,0,0,0,0,6,6,6,,,,,,,,,False,5,66,False,exp1.png,exp2.png,trial_left_image,1,exp1.png,2,exp1.png,exp2.png,1,1,non-reversed,correct,0.05225318426524139,0,invalid_lose,454.82743800000753,43,,,,,,,,,,,,,,,sub_798,2025-03-28_12h52.24.589,Reversal,2023.1.3,59.95448255225546,2,
7,exp3.png,exp4.png,,,,,,,,,,,,,,,,,,0,0,0,0,0,7,7,7,,,,,,,,,False,6,67,True,exp4.png,exp3.png,trial_left_image,1,exp4.png,2,exp4.png,exp3.png,0,4,reversed,correct,0.421306949134561,1,valid_win,460.0762126999907,44,,,,,,,,,,,,,,,sub_798,2025-03-28_12h52.24.589,Reversal,2023.1.3,59.95448255225546,2,
8,exp1.png,exp2.png,,,,,,,,,,,,,,,,,,0,0,0,0,0,8,8,8,,,,,,,,,False,7,68,False,exp1.png,exp2.png,trial_left_image,1,exp1.png,2,exp1.png,exp2.png,1,1,non-reversed,correct,0.7282538666695627,1,valid_win,464.541605800041,45,,,,,,,,,,,,,,,sub_798,2025-03-28_12h52.24.589,Reversal,2023.1.3,59.95448255225546,2,
9,exp3.png,exp4.png,,,,,,,,,,,,,,,,,,0,0,0,0,0,9,9,9,,,,,,,,,False,8,69,True,exp4.png,exp3.png,trial_left_image,1,exp4.png,2,exp4.png,exp3.png,0,4,reversed,correct,0.30484581931849397,1,valid_win,469.2069039000198,46,,,,,,,,,,,,,,,sub_798,2025-03-28_12h52.24.589,Reversal,2023.1.3,59.95448255225546,2,
10,exp1.png,exp2.png,,,,,,,,,,,,,,,,,,0,0,0,0,0,10,10,10,,,,,,,,,False,9,70,False,exp1.png,exp2.png,trial_left_image,1,exp1.png,2,exp1.png,exp2.png,1,1,non-reversed,correct,0.7462520151592775,1,valid_win,473.9547363999882,47,,,,,,,,,,,,,,,sub_798,2025-03-28_12h52.24.589,Reversal,2023.1.3,59.95448255225546,2,
11,exp3.png,exp4.png,,,,,,,,,,,,,,,,,,0,0,0,0,0,11,11,11,,,,,,,,,False,10,71,False,exp3.png,exp4.png,trial_right_image,-1,exp4.png,2,exp4.png,exp3.png,0,4,reversed,correct,0.008437851697460585,0,invalid_lose,479.13608190004015,47,,,,,,,,,,,,,,,sub_798,2025-03-28_12h52.24.589,Reversal,2023.1.3,59.95448255225546,2,
12,exp1.png,exp2.png,,,,,,,,,,,,,,,,,,0,0,0,0,0,12,12,12,,,,,,,,,False,11,72,False,exp1.png,exp2.png,trial_left_image,1,exp1.png,2,exp1.png,exp2.png,1,1,non-reversed,correct,0.6011059527775633,1,valid_win,484.55069340002956,48,,,,,,,,,,,,,,,sub_798,2025-03-28_12h52.24.589,Reversal,2023.1.3,59.95448255225546,2,
13,exp3.png,exp4.png,,,,,,,,,,,,,,,,,,0,0,0,0,0,13,13,13,,,,,,,,,False,12,73,True,exp4.png,exp3.png,trial_left_image,1,exp4.png,2,exp4.png,exp3.png,0,4,reversed,correct,0.0954453492830033,0,invalid_lose,490.298870300001,48,,,,,,,,,,,,,,,sub_798,2025-03-28_12h52.24.589,Reversal,2023.1.3,59.95448255225546,2,
14,exp1.png,exp2.png,,,,,,,,,,,,,,,,,,0,0,0,0,0,14,14,14,,,,,,,,,False,13,74,True,exp2.png,exp1.png,trial_right_image,-1,exp1.png,2,exp1.png,exp2.png,1,1,non-reversed,correct,0.7479196070955758,1,valid_win,496.4809102000436,49,,,,,,,,,,,,,,,sub_798,2025-03-28_12h52.24.589,Reversal,2023.1.3,59.95448255225546,2,
15,exp3.png,exp4.png,,,,,,,,,,,,,,,,,,0,0,0,0,0,15,15,15,,,,,,,,,False,14,75,False,exp3.png,exp4.png,trial_right_image,-1,exp4.png,2,exp4.png,exp3.png,0,4,reversed,correct,0.14156743716831977,0,invalid_lose,501.9292509999941,49,,,,,,,,,,,,,,,sub_798,2025-03-28_12h52.24.589,Reversal,2023.1.3,59.95448255225546,2,
16,exp1.png,exp2.png,,,,,,,,,,,,,,,,,,0,0,0,0,0,16,16,16,,,,,,,,,False,15,76,True,exp2.png,exp1.png,trial_right_image,-1,exp1.png,2,exp1.png,exp2.png,1,1,non-reversed,correct,0.995978083290035,1,valid_win,506.6768785000313,50,,,,,,,,,,,,,,,sub_798,2025-03-28_12h52.24.589,Reversal,2023.1.3,59.95448255225546,2,
17,exp3.png,exp4.png,,,,,,,,,,,,,,,,,,0,0,0,0,0,17,17,17,,,,,,,,,False,16,77,True,exp4.png,exp3.png,trial_right_image,-1,exp3.png,2,exp4.png,exp3.png,1,3,reversed,incorrect,0.6720774669609415,0,valid_lose,511.50832309998805,50,,,,,,,,,,,,,,,sub_798,2025-03-28_12h52.24.589,Reversal,2023.1.3,59.95448255225546,2,
18,exp1.png,exp2.png,,,,,,,,,,,,,,,,,,0,0,0,0,0,18,18,18,,,,,,,,,False,17,78,False,exp1.png,exp2.png,trial_left_image,1,exp1.png,2,exp1.png,exp2.png,1,1,non-reversed,correct,0.9510718519377674,1,valid_win,516.1735698000412,51,,,,,,,,,,,,,,,sub_798,2025-03-28_12h52.24.589,Reversal,2023.1.3,59.95448255225546,2,
19,exp3.png,exp4.png,,,,,,,,,,,,,,,,,,0,0,0,0,0,19,19,19,,,,,,,,,False,18,79,True,exp4.png,exp3.png,trial_right_image,-1,exp3.png,2,exp4.png,exp3.png,1,3,reversed,incorrect,0.851060771774246,0,valid_lose,521.8049055000301,51,,,,,,,,,,,,,,,sub_798,2025-03-28_12h52.24.589,Reversal,2023.1.3,59.95448255225546,2,
20,exp1.png,exp2.png,,,,,,,,,,,,,,,,,,0,0,0,0,0,20,20,20,,,,,,,,,False,19,80,False,exp1.png,exp2.png,trial_left_image,1,exp1.png,2,exp1.png,exp2.png,1,1,non-reversed,correct,0.6183133530389172,1,valid_win,526.4200842000428,52,,,,,,,,,,,,,,,sub_798,2025-03-28_12h52.24.589,Reversal,2023.1.3,59.95448255225546,2,
,,,exp1.png,,,,,,,,,,,,,,,,,0,0,0,0,,,,,0,0,0,0,0,0,0,0,,,,,,,,,,,,,,,,,,,,,,598.7321486999863,100.0,100.0,4.436840399983339,"[(100.0, 4.436840399983339)]",,,,,,,,,,sub_798,2025-03-28_12h52.24.589,Reversal,2023.1.3,59.95448255225546,2,
,,,exp2.png,,,,,,,,,,,,,,,,,0,0,0,0,,,,,0,0,0,0,0,1,1,1,,,,,,,,,,,,,,,,,,,,,,604.3071409999975,,1.0,4.912055899971165,"[(1.0, 4.912055899971165)]",1.0,,,,,,,,,sub_798,2025-03-28_12h52.24.589,Reversal,2023.1.3,59.95448255225546,2,
,,,exp3.png,,,,,,,,,,,,,,,,,0,0,0,0,,,,,0,0,0,0,0,2,2,2,,,,,,,,,,,,,,,,,,,,,,610.4876675000414,,31.0,4.660970200027805,"[(31.0, 4.660970200027805)]",,31.0,,,,,,,,sub_798,2025-03-28_12h52.24.589,Reversal,2023.1.3,59.95448255225546,2,
,,,exp4.png,,,,,,,,,,,,,,,,,0,0,0,0,,,,,0,0,0,0,0,3,3,3,,,,,,,,,,,,,,,,,,,,,,616.2381227000151,,66.0,3.4585481000249274,"[(66.0, 3.4585481000249274)]",,,66.0,,,,,,,sub_798,2025-03-28_12h52.24.589,Reversal,2023.1.3,59.95448255225546,2,
0,exp1.png,exp2.png,,,,,,,,,,,,,,,,,,1,0,1,0,0,0,0,0,,,,,,,,,True,,,,,,,,,,,,,,,,,,,,,,,,,,,,,,,,,,,sub_798,2025-03-28_12h52.24.589,Reversal,2023.1.3,59.95448255225546,2,
1,exp3.png,exp4.png,,,,,,,,,,,,,,,,,,1,0,1,0,0,1,1,1,,,,,,,,,False,20,81,False,exp3.png,exp4.png,trial_left_image,1,exp3.png,2,exp4.png,exp3.png,1,3,reversed,incorrect,0.801197830607979,0,valid_lose,554.1615580000216,52,,,,,,,,,,,,,,,sub_798,2025-03-28_12h52.24.589,Reversal,2023.1.3,59.95448255225546,2,
2,exp1.png,exp2.png,,,,,,,,,,,,,,,,,,1,0,1,0,0,2,2,2,,,,,,,,,False,21,82,True,exp2.png,exp1.png,trial_right_image,-1,exp1.png,2,exp1.png,exp2.png,1,1,non-reversed,correct,0.5787293249393433,1,valid_win,558.3924259000341,53,,,,,,,,,,,,,,,sub_798,2025-03-28_12h52.24.589,Reversal,2023.1.3,59.95448255225546,2,
3,exp3.png,exp4.png,,,,,,,,,,,,,,,,,,1,0,1,0,0,3,3,3,,,,,,,,,False,22,83,False,exp3.png,exp4.png,trial_right_image,-1,exp4.png,2,exp4.png,exp3.png,0,4,reversed,correct,0.7383479885545398,1,valid_win,563.3739600999979,54,,,,,,,,,,,,,,,sub_798,2025-03-28_12h52.24.589,Reversal,2023.1.3,59.95448255225546,2,
4,exp1.png,exp2.png,,,,,,,,,,,,,,,,,,1,0,1,0,0,4,4,4,,,,,,,,,False,23,84,False,exp1.png,exp2.png,trial_left_image,1,exp1.png,2,exp1.png,exp2.png,1,1,non-reversed,correct,0.9973033760351908,1,valid_win,568.3890678000171,55,,,,,,,,,,,,,,,sub_798,2025-03-28_12h52.24.589,Reversal,2023.1.3,59.95448255225546,2,
5,exp3.png,exp4.png,,,,,,,,,,,,,,,,,,1,0,1,0,0,5,5,5,,,,,,,,,False,24,85,True,exp4.png,exp3.png,trial_left_image,1,exp4.png,2,exp4.png,exp3.png,0,4,reversed,correct,0.7417874476214104,1,valid_win,573.4705407000147,56,,,,,,,,,,,,,,,sub_798,2025-03-28_12h52.24.589,Reversal,2023.1.3,59.95448255225546,2,
6,exp1.png,exp2.png,,,,,,,,,,,,,,,,,,1,0,1,0,0,6,6,6,,,,,,,,,False,25,86,True,exp2.png,exp1.png,trial_right_image,-1,exp1.png,2,exp1.png,exp2.png,1,1,non-reversed,correct,0.28131350154999046,1,valid_win,579.5193448000355,57,,,,,,,,,,,,,,,sub_798,2025-03-28_12h52.24.589,Reversal,2023.1.3,59.95448255225546,2,
7,exp3.png,exp4.png,,,,,,,,,,,,,,,,,,1,0,1,0,0,7,7,7,,,,,,,,,False,26,87,False,exp3.png,exp4.png,trial_right_image,-1,exp4.png,2,exp4.png,exp3.png,0,4,reversed,correct,0.7406548597376625,1,valid_win,584.3167213000124,58,,,,,,,,,,,,,,,sub_798,2025-03-28_12h52.24.589,Reversal,2023.1.3,59.95448255225546,2,
8,exp1.png,exp2.png,,,,,,,,,,,,,,,,,,1,0,1,0,0,8,8,8,,,,,,,,,False,27,88,False,exp1.png,exp2.png,trial_left_image,1,exp1.png,2,exp1.png,exp2.png,1,1,non-reversed,correct,0.780818093727571,1,valid_win,590.1815436999896,59,,,,,,,,,,,,,,,sub_798,2025-03-28_12h52.24.589,Reversal,2023.1.3,59.95448255225546,2,
9,exp3.png,exp4.png,,,,,,,,,,,,,,,,,,1,0,1,0,0,9,9,9,,,,,,,,,False,28,89,False,exp3.png,exp4.png,trial_right_image,-1,exp4.png,2,exp4.png,exp3.png,0,4,reversed,correct,0.5812348594547742,1,valid_win,595.6963332000305,60,,,,,,,,,,,,,,,sub_798,2025-03-28_12h52.24.589,Reversal,2023.1.3,59.95448255225546,2,
10,exp1.png,exp2.png,,,,,,,,,,,,,,,,,,1,0,1,0,0,10,10,10,,,,,,,,,False,29,90,True,exp2.png,exp1.png,trial_right_image,-1,exp1.png,2,exp1.png,exp2.png,1,1,non-reversed,correct,0.24395349973971314,0,invalid_lose,600.1643325000186,60,,,,,,,,,,,,,,,sub_798,2025-03-28_12h52.24.589,Reversal,2023.1.3,59.95448255225546,2,
11,exp3.png,exp4.png,,,,,,,,,,,,,,,,,,1,0,1,0,0,11,11,11,,,,,,,,,False,30,91,True,exp4.png,exp3.png,trial_left_image,1,exp4.png,2,exp4.png,exp3.png,0,4,reversed,correct,0.6910779023308452,1,valid_win,606.7759761000052,61,,,,,,,,,,,,,,,sub_798,2025-03-28_12h52.24.589,Reversal,2023.1.3,59.95448255225546,2,
12,exp1.png,exp2.png,,,,,,,,,,,,,,,,,,1,0,1,0,0,12,12,12,,,,,,,,,False,31,92,True,exp2.png,exp1.png,trial_left_image,1,exp2.png,2,exp1.png,exp2.png,0,2,non-reversed,incorrect,0.8035995338288984,0,valid_lose,611.2745484000188,61,,,,,,,,,,,,,,,sub_798,2025-03-28_12h52.24.589,Reversal,2023.1.3,59.95448255225546,2,
13,exp3.png,exp4.png,,,,,,,,,,,,,,,,,,1,0,1,0,0,13,13,13,,,,,,,,,False,32,93,False,exp3.png,exp4.png,trial_right_image,-1,exp4.png,2,exp4.png,exp3.png,0,4,reversed,correct,0.47449722815551176,1,valid_win,616.6404177999939,62,,,,,,,,,,,,,,,sub_798,2025-03-28_12h52.24.589,Reversal,2023.1.3,59.95448255225546,2,
14,exp1.png,exp2.png,,,,,,,,,,,,,,,,,,1,0,1,0,0,14,14,14,,,,,,,,,False,33,94,False,exp1.png,exp2.png,trial_left_image,1,exp1.png,2,exp1.png,exp2.png,1,1,non-reversed,correct,0.8334449348689338,1,valid_win,621.70458900003,63,,,,,,,,,,,,,,,sub_798,2025-03-28_12h52.24.589,Reversal,2023.1.3,59.95448255225546,2,
15,exp3.png,exp4.png,,,,,,,,,,,,,,,,,,1,0,1,0,0,15,15,15,,,,,,,,,False,34,95,False,exp3.png,exp4.png,trial_right_image,-1,exp4.png,2,exp4.png,exp3.png,0,4,reversed,correct,0.5122539751045778,1,valid_win,629.6020845000166,64,,,,,,,,,,,,,,,sub_798,2025-03-28_12h52.24.589,Reversal,2023.1.3,59.95448255225546,2,
16,exp1.png,exp2.png,,,,,,,,,,,,,,,,,,1,0,1,0,0,16,16,16,,,,,,,,,False,35,96,True,exp2.png,exp1.png,trial_right_image,-1,exp1.png,2,exp1.png,exp2.png,1,1,non-reversed,correct,0.9625789929837074,1,valid_win,634.0833415000234,65,,,,,,,,,,,,,,,sub_798,2025-03-28_12h52.24.589,Reversal,2023.1.3,59.95448255225546,2,
17,exp3.png,exp4.png,,,,,,,,,,,,,,,,,,1,0,1,0,0,17,17,17,,,,,,,,,False,36,97,True,exp4.png,exp3.png,trial_left_image,1,exp4.png,2,exp4.png,exp3.png,0,4,reversed,correct,0.8595873560752528,1,valid_win,639.3316142000258,66,,,,,,,,,,,,,,,sub_798,2025-03-28_12h52.24.589,Reversal,2023.1.3,59.95448255225546,2,
18,exp1.png,exp2.png,,,,,,,,,,,,,,,,,,1,0,1,0,0,18,18,18,,,,,,,,,False,37,98,True,exp2.png,exp1.png,trial_right_image,-1,exp1.png,2,exp1.png,exp2.png,1,1,non-reversed,correct,0.2653907052368737,1,valid_win,644.3631318000262,67,,,,,,,,,,,,,,,sub_798,2025-03-28_12h52.24.589,Reversal,2023.1.3,59.95448255225546,2,
19,exp3.png,exp4.png,,,,,,,,,,,,,,,,,,1,0,1,0,0,19,19,19,,,,,,,,,False,38,99,True,exp4.png,exp3.png,trial_left_image,1,exp4.png,2,exp4.png,exp3.png,0,4,reversed,correct,0.7375597559716034,1,valid_win,650.7444370000158,68,,,,,,,,,,,,,,,sub_798,2025-03-28_12h52.24.589,Reversal,2023.1.3,59.95448255225546,2,
20,exp1.png,exp2.png,,,,,,,,,,,,,,,,,,1,0,1,0,0,20,20,20,,,,,,,,,False,39,100,False,exp1.png,exp2.png,trial_left_image,1,exp1.png,2,exp1.png,exp2.png,1,1,non-reversed,correct,0.27390454929841834,1,valid_win,657.475373400026,69,,,,,,,,,,,,,,,sub_798,2025-03-28_12h52.24.589,Reversal,2023.1.3,59.95448255225546,2,
,,,exp1.png,,,,,,,,,,,,,,,,,1,0,1,0,,,,,0,0,0,0,0,0,0,0,,,,,,,,,,,,,,,,,,,,,,729.7877966000233,90.0,90.0,7.769513600040227,"[(90.0, 7.769513600040227)]",,,,,,,,,,sub_798,2025-03-28_12h52.24.589,Reversal,2023.1.3,59.95448255225546,2,
,,,exp2.png,,,,,,,,,,,,,,,,,1,0,1,0,,,,,0,0,0,0,0,1,1,1,,,,,,,,,,,,,,,,,,,,,,738.5123435000423,,8.0,4.6445707000093535,"[(8.0, 4.6445707000093535)]",8.0,,,,,,,,,sub_798,2025-03-28_12h52.24.589,Reversal,2023.1.3,59.95448255225546,2,
,,,exp3.png,,,,,,,,,,,,,,,,,1,0,1,0,,,,,0,0,0,0,0,2,2,2,,,,,,,,,,,,,,,,,,,,,,744.3108845000388,,1.0,2.5756970000220463,"[(1.0, 2.5756970000220463)]",,1.0,,,,,,,,sub_798,2025-03-28_12h52.24.589,Reversal,2023.1.3,59.95448255225546,2,
,,,exp4.png,,,,,,,,,,,,,,,,,1,0,1,0,,,,,0,0,0,0,0,3,3,3,,,,,,,,,,,,,,,,,,,,,,748.1270970000187,,100.0,1.3266385999741033,"[(100.0, 1.3266385999741033)]",,,100.0,,,,,,,sub_798,2025-03-28_12h52.24.589,Reversal,2023.1.3,59.95448255225546,2,
0,exp1.png,exp2.png,,,,,,,,,,,,,,,,,,2,0,2,0,0,0,0,0,,,,,,,,,True,,,,,,,,,,,,,,,,,,,,,,,,,,,,,,,,,,,sub_798,2025-03-28_12h52.24.589,Reversal,2023.1.3,59.95448255225546,2,
1,exp3.png,exp4.png,,,,,,,,,,,,,,,,,,2,0,2,0,0,1,1,1,,,,,,,,,False,40,101,True,exp4.png,exp3.png,trial_right_image,-1,exp3.png,2,exp4.png,exp3.png,1,3,reversed,incorrect,0.9075619319627287,0,valid_lose,683.6164089000085,69,,,,,,,,,,,,,,,sub_798,2025-03-28_12h52.24.589,Reversal,2023.1.3,59.95448255225546,2,
2,exp1.png,exp2.png,,,,,,,,,,,,,,,,,,2,0,2,0,0,2,2,2,,,,,,,,,False,41,102,True,exp2.png,exp1.png,trial_right_image,-1,exp1.png,2,exp1.png,exp2.png,1,1,non-reversed,correct,0.37536536631657114,1,valid_win,688.3482255000272,70,,,,,,,,,,,,,,,sub_798,2025-03-28_12h52.24.589,Reversal,2023.1.3,59.95448255225546,2,
3,exp3.png,exp4.png,,,,,,,,,,,,,,,,,,2,0,2,0,0,3,3,3,,,,,,,,,False,42,103,False,exp3.png,exp4.png,trial_right_image,-1,exp4.png,2,exp4.png,exp3.png,0,4,reversed,correct,0.9545067799175205,1,valid_win,695.5789472000324,71,,,,,,,,,,,,,,,sub_798,2025-03-28_12h52.24.589,Reversal,2023.1.3,59.95448255225546,2,
4,exp1.png,exp2.png,,,,,,,,,,,,,,,,,,2,0,2,0,0,4,4,4,,,,,,,,,False,43,104,True,exp2.png,exp1.png,trial_right_image,-1,exp1.png,2,exp1.png,exp2.png,1,1,non-reversed,correct,0.6204508018276877,1,valid_win,700.9775887000142,72,,,,,,,,,,,,,,,sub_798,2025-03-28_12h52.24.589,Reversal,2023.1.3,59.95448255225546,2,
5,exp3.png,exp4.png,,,,,,,,,,,,,,,,,,2,0,2,0,0,5,5,5,,,,,,,,,False,44,105,False,exp3.png,exp4.png,trial_right_image,-1,exp4.png,2,exp4.png,exp3.png,0,4,reversed,correct,0.6436494000471292,1,valid_win,706.0759241000051,73,,,,,,,,,,,,,,,sub_798,2025-03-28_12h52.24.589,Reversal,2023.1.3,59.95448255225546,2,
6,exp1.png,exp2.png,,,,,,,,,,,,,,,,,,2,0,2,0,0,6,6,6,,,,,,,,,False,45,106,False,exp1.png,exp2.png,trial_left_image,1,exp1.png,2,exp1.png,exp2.png,1,1,non-reversed,correct,0.395734907147976,1,valid_win,710.5593259000452,74,,,,,,,,,,,,,,,sub_798,2025-03-28_12h52.24.589,Reversal,2023.1.3,59.95448255225546,2,
7,exp3.png,exp4.png,,,,,,,,,,,,,,,,,,2,0,2,0,0,7,7,7,,,,,,,,,False,46,107,False,exp3.png,exp4.png,trial_right_image,-1,exp4.png,2,exp4.png,exp3.png,0,4,reversed,correct,0.3170252823644081,1,valid_win,715.1724401999963,75,,,,,,,,,,,,,,,sub_798,2025-03-28_12h52.24.589,Reversal,2023.1.3,59.95448255225546,2,
8,exp1.png,exp2.png,,,,,,,,,,,,,,,,,,2,0,2,0,0,8,8,8,,,,,,,,,False,47,108,True,exp2.png,exp1.png,trial_right_image,-1,exp1.png,2,exp1.png,exp2.png,1,1,non-reversed,correct,0.0027635933659232448,0,invalid_lose,720.1540390000446,75,,,,,,,,,,,,,,,sub_798,2025-03-28_12h52.24.589,Reversal,2023.1.3,59.95448255225546,2,
9,exp3.png,exp4.png,,,,,,,,,,,,,,,,,,2,0,2,0,0,9,9,9,,,,,,,,,False,48,109,True,exp4.png,exp3.png,trial_left_image,1,exp4.png,2,exp4.png,exp3.png,0,4,reversed,correct,0.7326351854210071,1,valid_win,724.685867000022,76,,,,,,,,,,,,,,,sub_798,2025-03-28_12h52.24.589,Reversal,2023.1.3,59.95448255225546,2,
10,exp1.png,exp2.png,,,,,,,,,,,,,,,,,,2,0,2,0,0,10,10,10,,,,,,,,,False,49,110,False,exp1.png,exp2.png,trial_left_image,1,exp1.png,2,exp1.png,exp2.png,1,1,non-reversed,correct,0.378814033824332,1,valid_win,729.6680607000017,77,,,,,,,,,,,,,,,sub_798,2025-03-28_12h52.24.589,Reversal,2023.1.3,59.95448255225546,2,
11,exp3.png,exp4.png,,,,,,,,,,,,,,,,,,2,0,2,0,0,11,11,11,,,,,,,,,False,50,111,False,exp3.png,exp4.png,trial_right_image,-1,exp4.png,2,exp4.png,exp3.png,0,4,reversed,correct,0.021070489788438396,0,invalid_lose,734.4829832999967,77,,,,,,,,,,,,,,,sub_798,2025-03-28_12h52.24.589,Reversal,2023.1.3,59.95448255225546,2,
12,exp1.png,exp2.png,,,,,,,,,,,,,,,,,,2,0,2,0,0,12,12,12,,,,,,,,,False,51,112,False,exp1.png,exp2.png,trial_left_image,1,exp1.png,2,exp1.png,exp2.png,1,1,non-reversed,correct,0.9280208128010855,1,valid_win,739.5315932999947,78,,,,,,,,,,,,,,,sub_798,2025-03-28_12h52.24.589,Reversal,2023.1.3,59.95448255225546,2,
13,exp3.png,exp4.png,,,,,,,,,,,,,,,,,,2,0,2,0,0,13,13,13,,,,,,,,,False,52,113,True,exp4.png,exp3.png,trial_left_image,1,exp4.png,2,exp4.png,exp3.png,0,4,reversed,correct,0.1288647010101166,0,invalid_lose,744.5458195999963,78,,,,,,,,,,,,,,,sub_798,2025-03-28_12h52.24.589,Reversal,2023.1.3,59.95448255225546,2,
14,exp1.png,exp2.png,,,,,,,,,,,,,,,,,,2,0,2,0,0,14,14,14,,,,,,,,,False,53,114,True,exp2.png,exp1.png,trial_right_image,-1,exp1.png,2,exp1.png,exp2.png,1,1,non-reversed,correct,0.4865697885860042,1,valid_win,749.394253400038,79,,,,,,,,,,,,,,,sub_798,2025-03-28_12h52.24.589,Reversal,2023.1.3,59.95448255225546,2,
15,exp3.png,exp4.png,,,,,,,,,,,,,,,,,,2,0,2,0,0,15,15,15,,,,,,,,,False,54,115,True,exp4.png,exp3.png,trial_left_image,1,exp4.png,2,exp4.png,exp3.png,0,4,reversed,correct,0.6885128032712694,1,valid_win,754.1593801000272,80,,,,,,,,,,,,,,,sub_798,2025-03-28_12h52.24.589,Reversal,2023.1.3,59.95448255225546,2,
16,exp1.png,exp2.png,,,,,,,,,,,,,,,,,,2,0,2,0,0,16,16,16,,,,,,,,,False,55,116,False,exp1.png,exp2.png,trial_left_image,1,exp1.png,2,exp1.png,exp2.png,1,1,non-reversed,correct,0.2954822152994536,1,valid_win,758.6245987000293,81,,,,,,,,,,,,,,,sub_798,2025-03-28_12h52.24.589,Reversal,2023.1.3,59.95448255225546,2,
17,exp3.png,exp4.png,,,,,,,,,,,,,,,,,,2,0,2,0,0,17,17,17,,,,,,,,,False,56,117,True,exp4.png,exp3.png,trial_left_image,1,exp4.png,2,exp4.png,exp3.png,0,4,reversed,correct,0.5486004890494286,1,valid_win,763.5233766000019,82,,,,,,,,,,,,,,,sub_798,2025-03-28_12h52.24.589,Reversal,2023.1.3,59.95448255225546,2,
18,exp1.png,exp2.png,,,,,,,,,,,,,,,,,,2,0,2,0,0,18,18,18,,,,,,,,,False,57,118,False,exp1.png,exp2.png,trial_left_image,1,exp1.png,2,exp1.png,exp2.png,1,1,non-reversed,correct,0.9735536817657598,1,valid_win,768.2545017999946,83,,,,,,,,,,,,,,,sub_798,2025-03-28_12h52.24.589,Reversal,2023.1.3,59.95448255225546,2,
19,exp3.png,exp4.png,,,,,,,,,,,,,,,,,,2,0,2,0,0,19,19,19,,,,,,,,,False,58,119,False,exp3.png,exp4.png,trial_right_image,-1,exp4.png,2,exp4.png,exp3.png,0,4,reversed,correct,0.9106447987132867,1,valid_win,772.7205216000439,84,,,,,,,,,,,,,,,sub_798,2025-03-28_12h52.24.589,Reversal,2023.1.3,59.95448255225546,2,
20,exp1.png,exp2.png,,,,,,,,,,,,,,,,,,2,0,2,0,0,20,20,20,,,,,,,,,False,59,120,True,exp2.png,exp1.png,trial_right_image,-1,exp1.png,2,exp1.png,exp2.png,1,1,non-reversed,correct,0.01959239264075341,0,invalid_lose,777.434869699995,84,,,,,,,,,,,,,,,sub_798,2025-03-28_12h52.24.589,Reversal,2023.1.3,59.95448255225546,2,
,,,exp1.png,,,,,,,,,,,,,,,,,2,0,2,0,,,,,0,0,0,0,0,0,0,0,,,,,,,,,,,,,,,,,,,,,,849.7494929000386,89.0,89.0,4.521238600020297,"[(89.0, 4.521238600020297)]",,,,,,,,,,sub_798,2025-03-28_12h52.24.589,Reversal,2023.1.3,59.95448255225546,2,
,,,exp2.png,,,,,,,,,,,,,,,,,2,0,2,0,,,,,0,0,0,0,0,1,1,1,,,,,,,,,,,,,,,,,,,,,,855.3719580000034,,13.0,3.444839100004174,"[(13.0, 3.444839100004174)]",13.0,,,,,,,,,sub_798,2025-03-28_12h52.24.589,Reversal,2023.1.3,59.95448255225546,2,
,,,exp3.png,,,,,,,,,,,,,,,,,2,0,2,0,,,,,0,0,0,0,0,2,2,2,,,,,,,,,,,,,,,,,,,,,,862.5543879999896,,12.0,5.843119599972852,"[(12.0, 5.843119599972852)]",,12.0,,,,,,,,sub_798,2025-03-28_12h52.24.589,Reversal,2023.1.3,59.95448255225546,2,
,,,exp4.png,,,,,,,,,,,,,,,,,2,0,2,0,,,,,0,0,0,0,0,3,3,3,,,,,,,,,,,,,,,,,,,,,,869.5843713000068,,94.0,2.2449992999900132,"[(94.0, 2.2449992999900132)]",,,94.0,,,,,,,sub_798,2025-03-28_12h52.24.589,Reversal,2023.1.3,59.95448255225546,2,
,,,,,,,,,,,,,,,,,,,,,,,,,,,,,,,,,,,,,,,,,,,,,,,,,,,,,,,,84,,,,,,,,,,101,48,53,374.58628640003735,0,,,,,,,
