trial_index,trial_image1_file,trial_image2_file,image_file,learning_outer_loop.thisRepN,learning_outer_loop.thisTrialN,learning_outer_loop.thisN,learning_outer_loop.thisIndex,learning_inner_loop.thisRepN,learning_inner_loop.thisTrialN,learning_inner_loop.thisN,learning_inner_loop.thisIndex,learning_estimation_outer_loop.thisRepN,learning_estimation_outer_loop.thisTrialN,learning_estimation_outer_loop.thisN,learning_estimation_outer_loop.thisIndex,learning_estimation_inner_loop.thisRepN,learning_estimation_inner_loop.thisTrialN,learning_estimation_inner_loop.thisN,learning_estimation_inner_loop.thisIndex,reversal_outer_loop.thisRepN,reversal_outer_loop.thisTrialN,reversal_outer_loop.thisN,reversal_outer_loop.thisIndex,reversal_inner_loop.thisRepN,reversal_inner_loop.thisTrialN,reversal_inner_loop.thisN,reversal_inner_loop.thisIndex,reversal_estimation_outer_loop.thisRepN,reversal_estimation_outer_loop.thisTrialN,reversal_estimation_outer_loop.thisN,reversal_estimation_outer_loop.thisIndex,reversal_estimation_inner_loop.thisRepN,reversal_estimation_inner_loop.thisTrialN,reversal_estimation_inner_loop.thisN,reversal_estimation_inner_loop.thisIndex,skipped,total_trial_counter,trial_num,left_right_flip,left_image_file,right_image_file,clicked_stimulus_side,side,clicked_stimulus,version,high_prob_image_file,low_prob_image_file,choice_a,choice_b,pair_type,correct,trial_feedback_random,reward,trial_type,overall_time_after_trial,score,estimation_rating.started,estimation_exp1.png,estimation_rating.response,estimation_rating.rt,estimation_rating.history,estimation_exp2.png,estimation_exp3.png,estimation_exp4.png,total_learning_time,total_correct,learning_correct,reversal_correct,total_reversal_time,extra_block,participant,date,expName,psychopyVersion,frameRate,ver,
0,exp1.png,exp2.png,,0,0,0,0,0,0,0,0,,,,,,,,,,,,,,,,,,,,,,,,,False,0,1,False,exp1.png,exp2.png,trial_left_image,1,exp1.png,1,exp1.png,exp2.png,1,3,reversed,correct,0.7625672347358189,1,valid_win,4.264518500000122,1,,,,,,,,,,,,,,,sub_841,2025-02-24_11h15.39.168,Reversal,2023.1.3,60.16492409002175,1,
1,exp3.png,exp4.png,,0,0,0,0,0,1,1,1,,,,,,,,,,,,,,,,,,,,,,,,,False,1,2,False,exp3.png,exp4.png,trial_right_image,-1,exp4.png,1,exp3.png,exp4.png,0,2,non-reversed,incorrect,0.1349065284677764,1,invalid_win,13.060436599999775,2,,,,,,,,,,,,,,,sub_841,2025-02-24_11h15.39.168,Reversal,2023.1.3,60.16492409002175,1,
2,exp1.png,exp2.png,,0,0,0,0,0,2,2,2,,,,,,,,,,,,,,,,,,,,,,,,,False,2,3,True,exp2.png,exp1.png,trial_left_image,1,exp2.png,1,exp1.png,exp2.png,0,4,reversed,incorrect,0.9192237007793156,0,valid_lose,18.99176239999997,2,,,,,,,,,,,,,,,sub_841,2025-02-24_11h15.39.168,Reversal,2023.1.3,60.16492409002175,1,
3,exp3.png,exp4.png,,0,0,0,0,0,3,3,3,,,,,,,,,,,,,,,,,,,,,,,,,False,3,4,False,exp3.png,exp4.png,trial_left_image,1,exp3.png,1,exp3.png,exp4.png,1,1,non-reversed,correct,0.5315403902129335,1,valid_win,26.605691800000386,3,,,,,,,,,,,,,,,sub_841,2025-02-24_11h15.39.168,Reversal,2023.1.3,60.16492409002175,1,
4,exp1.png,exp2.png,,0,0,0,0,0,4,4,4,,,,,,,,,,,,,,,,,,,,,,,,,False,4,5,True,exp2.png,exp1.png,trial_right_image,-1,exp1.png,1,exp1.png,exp2.png,1,3,reversed,correct,0.3207806152945315,1,valid_win,32.503894200000104,4,,,,,,,,,,,,,,,sub_841,2025-02-24_11h15.39.168,Reversal,2023.1.3,60.16492409002175,1,
5,exp3.png,exp4.png,,0,0,0,0,0,5,5,5,,,,,,,,,,,,,,,,,,,,,,,,,False,5,6,False,exp3.png,exp4.png,trial_left_image,1,exp3.png,1,exp3.png,exp4.png,1,1,non-reversed,correct,0.13396980665154734,0,invalid_lose,39.0186206999997,4,,,,,,,,,,,,,,,sub_841,2025-02-24_11h15.39.168,Reversal,2023.1.3,60.16492409002175,1,
6,exp1.png,exp2.png,,0,0,0,0,0,6,6,6,,,,,,,,,,,,,,,,,,,,,,,,,False,6,7,False,exp1.png,exp2.png,trial_right_image,-1,exp2.png,1,exp1.png,exp2.png,0,4,reversed,incorrect,0.3778329613711747,0,valid_lose,44.05109210000046,4,,,,,,,,,,,,,,,sub_841,2025-02-24_11h15.39.168,Reversal,2023.1.3,60.16492409002175,1,
7,exp3.png,exp4.png,,0,0,0,0,0,7,7,7,,,,,,,,,,,,,,,,,,,,,,,,,False,7,8,True,exp4.png,exp3.png,trial_right_image,-1,exp3.png,1,exp3.png,exp4.png,1,1,non-reversed,correct,0.11016027977835985,0,invalid_lose,49.74738780000007,4,,,,,,,,,,,,,,,sub_841,2025-02-24_11h15.39.168,Reversal,2023.1.3,60.16492409002175,1,
8,exp1.png,exp2.png,,0,0,0,0,0,8,8,8,,,,,,,,,,,,,,,,,,,,,,,,,False,8,9,False,exp1.png,exp2.png,trial_left_image,1,exp1.png,1,exp1.png,exp2.png,1,3,reversed,correct,0.24330490130852922,0,invalid_lose,54.563934300000255,4,,,,,,,,,,,,,,,sub_841,2025-02-24_11h15.39.168,Reversal,2023.1.3,60.16492409002175,1,
9,exp3.png,exp4.png,,0,0,0,0,0,9,9,9,,,,,,,,,,,,,,,,,,,,,,,,,False,9,10,False,exp3.png,exp4.png,trial_right_image,-1,exp4.png,1,exp3.png,exp4.png,0,2,non-reversed,incorrect,0.1729831938264731,1,invalid_win,59.29562410000017,5,,,,,,,,,,,,,,,sub_841,2025-02-24_11h15.39.168,Reversal,2023.1.3,60.16492409002175,1,
10,exp1.png,exp2.png,,0,0,0,0,0,10,10,10,,,,,,,,,,,,,,,,,,,,,,,,,False,10,11,True,exp2.png,exp1.png,trial_left_image,1,exp2.png,1,exp1.png,exp2.png,0,4,reversed,incorrect,0.4224350741980748,0,valid_lose,64.19405040000038,5,,,,,,,,,,,,,,,sub_841,2025-02-24_11h15.39.168,Reversal,2023.1.3,60.16492409002175,1,
11,exp3.png,exp4.png,,0,0,0,0,0,11,11,11,,,,,,,,,,,,,,,,,,,,,,,,,False,11,12,True,exp4.png,exp3.png,trial_left_image,1,exp4.png,1,exp3.png,exp4.png,0,2,non-reversed,incorrect,0.5072081799734551,0,valid_lose,69.27461289999974,5,,,,,,,,,,,,,,,sub_841,2025-02-24_11h15.39.168,Reversal,2023.1.3,60.16492409002175,1,
12,exp1.png,exp2.png,,0,0,0,0,0,12,12,12,,,,,,,,,,,,,,,,,,,,,,,,,False,12,13,True,exp2.png,exp1.png,trial_right_image,-1,exp1.png,1,exp1.png,exp2.png,1,3,reversed,correct,0.38789347759702497,1,valid_win,74.38988100000006,6,,,,,,,,,,,,,,,sub_841,2025-02-24_11h15.39.168,Reversal,2023.1.3,60.16492409002175,1,
13,exp3.png,exp4.png,,0,0,0,0,0,13,13,13,,,,,,,,,,,,,,,,,,,,,,,,,False,13,14,False,exp3.png,exp4.png,trial_left_image,1,exp3.png,1,exp3.png,exp4.png,1,1,non-reversed,correct,0.8004638968334686,1,valid_win,79.2545299000003,7,,,,,,,,,,,,,,,sub_841,2025-02-24_11h15.39.168,Reversal,2023.1.3,60.16492409002175,1,
14,exp1.png,exp2.png,,0,0,0,0,0,14,14,14,,,,,,,,,,,,,,,,,,,,,,,,,False,14,15,True,exp2.png,exp1.png,trial_right_image,-1,exp1.png,1,exp1.png,exp2.png,1,3,reversed,correct,0.10782209136643994,0,invalid_lose,84.82050569999956,7,,,,,,,,,,,,,,,sub_841,2025-02-24_11h15.39.168,Reversal,2023.1.3,60.16492409002175,1,
15,exp3.png,exp4.png,,0,0,0,0,0,15,15,15,,,,,,,,,,,,,,,,,,,,,,,,,False,15,16,False,exp3.png,exp4.png,trial_right_image,-1,exp4.png,1,exp3.png,exp4.png,0,2,non-reversed,incorrect,0.40477984965996405,0,valid_lose,89.30234050000035,7,,,,,,,,,,,,,,,sub_841,2025-02-24_11h15.39.168,Reversal,2023.1.3,60.16492409002175,1,
16,exp1.png,exp2.png,,0,0,0,0,0,16,16,16,,,,,,,,,,,,,,,,,,,,,,,,,False,16,17,True,exp2.png,exp1.png,trial_right_image,-1,exp1.png,1,exp1.png,exp2.png,1,3,reversed,correct,0.665260683297006,1,valid_win,94.51601449999998,8,,,,,,,,,,,,,,,sub_841,2025-02-24_11h15.39.168,Reversal,2023.1.3,60.16492409002175,1,
17,exp3.png,exp4.png,,0,0,0,0,0,17,17,17,,,,,,,,,,,,,,,,,,,,,,,,,False,17,18,False,exp3.png,exp4.png,trial_left_image,1,exp3.png,1,exp3.png,exp4.png,1,1,non-reversed,correct,0.5013233917857556,1,valid_win,99.38220100000035,9,,,,,,,,,,,,,,,sub_841,2025-02-24_11h15.39.168,Reversal,2023.1.3,60.16492409002175,1,
18,exp1.png,exp2.png,,0,0,0,0,0,18,18,18,,,,,,,,,,,,,,,,,,,,,,,,,False,18,19,True,exp2.png,exp1.png,trial_left_image,1,exp2.png,1,exp1.png,exp2.png,0,4,reversed,incorrect,0.6952985056220928,0,valid_lose,104.16263460000027,9,,,,,,,,,,,,,,,sub_841,2025-02-24_11h15.39.168,Reversal,2023.1.3,60.16492409002175,1,
19,exp3.png,exp4.png,,0,0,0,0,0,19,19,19,,,,,,,,,,,,,,,,,,,,,,,,,False,19,20,True,exp4.png,exp3.png,trial_right_image,-1,exp3.png,1,exp3.png,exp4.png,1,1,non-reversed,correct,0.6801356123406859,1,valid_win,108.6779749999996,10,,,,,,,,,,,,,,,sub_841,2025-02-24_11h15.39.168,Reversal,2023.1.3,60.16492409002175,1,
20,exp1.png,exp2.png,,0,0,0,0,0,20,20,20,,,,,,,,,,,,,,,,,,,,,,,,,True,,,,,,,,,,,,,,,,,,,,,,,,,,,,,,,,,,,sub_841,2025-02-24_11h15.39.168,Reversal,2023.1.3,60.16492409002175,1,
,,,exp1.png,0,0,0,0,,,,,0,0,0,0,0,0,0,0,,,,,,,,,,,,,,,,,,,,,,,,,,,,,,,,,,,,,,194.2675894999993,100.0,100.0,12.602124999999432,"[(100.0, 12.602124999999432)]",,,,,,,,,,sub_841,2025-02-24_11h15.39.168,Reversal,2023.1.3,60.16492409002175,1,
,,,exp2.png,0,0,0,0,,,,,0,0,0,0,0,1,1,1,,,,,,,,,,,,,,,,,,,,,,,,,,,,,,,,,,,,,,208.84841139999935,,1.0,4.872908700000153,"[(1.0, 4.872908700000153)]",1.0,,,,,,,,,sub_841,2025-02-24_11h15.39.168,Reversal,2023.1.3,60.16492409002175,1,
,,,exp3.png,0,0,0,0,,,,,0,0,0,0,0,2,2,2,,,,,,,,,,,,,,,,,,,,,,,,,,,,,,,,,,,,,,214.81950529999995,,100.0,3.699820400000135,"[(100.0, 3.699820400000135)]",,100.0,,,,,,,,sub_841,2025-02-24_11h15.39.168,Reversal,2023.1.3,60.16492409002175,1,
,,,exp4.png,0,0,0,0,,,,,0,0,0,0,0,3,3,3,,,,,,,,,,,,,,,,,,,,,,,,,,,,,,,,,,,,,,219.6187702999996,,1.0,4.459787300000244,"[(1.0, 4.459787300000244)]",,,1.0,,,,,,,sub_841,2025-02-24_11h15.39.168,Reversal,2023.1.3,60.16492409002175,1,
0,exp1.png,exp2.png,,1,0,1,0,0,0,0,0,,,,,,,,,,,,,,,,,,,,,,,,,False,20,21,True,exp2.png,exp1.png,trial_right_image,-1,exp1.png,1,exp1.png,exp2.png,1,3,reversed,correct,0.3105901582643402,1,valid_win,145.13258630000018,11,,,,,,,,,,,,,,,sub_841,2025-02-24_11h15.39.168,Reversal,2023.1.3,60.16492409002175,1,
1,exp3.png,exp4.png,,1,0,1,0,0,1,1,1,,,,,,,,,,,,,,,,,,,,,,,,,False,21,22,False,exp3.png,exp4.png,trial_left_image,1,exp3.png,1,exp3.png,exp4.png,1,1,non-reversed,correct,0.38025812948143034,1,valid_win,149.73034160000043,12,,,,,,,,,,,,,,,sub_841,2025-02-24_11h15.39.168,Reversal,2023.1.3,60.16492409002175,1,
2,exp1.png,exp2.png,,1,0,1,0,0,2,2,2,,,,,,,,,,,,,,,,,,,,,,,,,False,22,23,True,exp2.png,exp1.png,trial_left_image,1,exp2.png,1,exp1.png,exp2.png,0,4,reversed,incorrect,0.3555071643233164,0,valid_lose,154.14593270000023,12,,,,,,,,,,,,,,,sub_841,2025-02-24_11h15.39.168,Reversal,2023.1.3,60.16492409002175,1,
3,exp3.png,exp4.png,,1,0,1,0,0,3,3,3,,,,,,,,,,,,,,,,,,,,,,,,,False,23,24,False,exp3.png,exp4.png,trial_left_image,1,exp3.png,1,exp3.png,exp4.png,1,1,non-reversed,correct,0.07449953170179391,0,invalid_lose,158.9457222000001,12,,,,,,,,,,,,,,,sub_841,2025-02-24_11h15.39.168,Reversal,2023.1.3,60.16492409002175,1,
4,exp1.png,exp2.png,,1,0,1,0,0,4,4,4,,,,,,,,,,,,,,,,,,,,,,,,,False,24,25,True,exp2.png,exp1.png,trial_left_image,1,exp2.png,1,exp1.png,exp2.png,0,4,reversed,incorrect,0.3034146879595381,0,valid_lose,163.62602760000027,12,,,,,,,,,,,,,,,sub_841,2025-02-24_11h15.39.168,Reversal,2023.1.3,60.16492409002175,1,
5,exp3.png,exp4.png,,1,0,1,0,0,5,5,5,,,,,,,,,,,,,,,,,,,,,,,,,False,25,26,False,exp3.png,exp4.png,trial_left_image,1,exp3.png,1,exp3.png,exp4.png,1,1,non-reversed,correct,0.04140430215642599,0,invalid_lose,168.6755664000002,12,,,,,,,,,,,,,,,sub_841,2025-02-24_11h15.39.168,Reversal,2023.1.3,60.16492409002175,1,
6,exp1.png,exp2.png,,1,0,1,0,0,6,6,6,,,,,,,,,,,,,,,,,,,,,,,,,False,26,27,False,exp1.png,exp2.png,trial_left_image,1,exp1.png,1,exp1.png,exp2.png,1,3,reversed,correct,0.45658522847188676,1,valid_win,173.5399692000001,13,,,,,,,,,,,,,,,sub_841,2025-02-24_11h15.39.168,Reversal,2023.1.3,60.16492409002175,1,
7,exp3.png,exp4.png,,1,0,1,0,0,7,7,7,,,,,,,,,,,,,,,,,,,,,,,,,False,27,28,True,exp4.png,exp3.png,trial_right_image,-1,exp3.png,1,exp3.png,exp4.png,1,1,non-reversed,correct,0.5502103768907372,1,valid_win,178.92232549999972,14,,,,,,,,,,,,,,,sub_841,2025-02-24_11h15.39.168,Reversal,2023.1.3,60.16492409002175,1,
8,exp1.png,exp2.png,,1,0,1,0,0,8,8,8,,,,,,,,,,,,,,,,,,,,,,,,,False,28,29,True,exp2.png,exp1.png,trial_right_image,-1,exp1.png,1,exp1.png,exp2.png,1,3,reversed,correct,0.9106357168021674,1,valid_win,184.03571600000032,15,,,,,,,,,,,,,,,sub_841,2025-02-24_11h15.39.168,Reversal,2023.1.3,60.16492409002175,1,
9,exp3.png,exp4.png,,1,0,1,0,0,9,9,9,,,,,,,,,,,,,,,,,,,,,,,,,False,29,30,False,exp3.png,exp4.png,trial_left_image,1,exp3.png,1,exp3.png,exp4.png,1,1,non-reversed,correct,0.2982955370967293,1,valid_win,188.83378240000002,16,,,,,,,,,,,,,,,sub_841,2025-02-24_11h15.39.168,Reversal,2023.1.3,60.16492409002175,1,
10,exp1.png,exp2.png,,1,0,1,0,0,10,10,10,,,,,,,,,,,,,,,,,,,,,,,,,False,30,31,True,exp2.png,exp1.png,trial_right_image,-1,exp1.png,1,exp1.png,exp2.png,1,3,reversed,correct,0.9938085876083694,1,valid_win,193.79902349999975,17,,,,,,,,,,,,,,,sub_841,2025-02-24_11h15.39.168,Reversal,2023.1.3,60.16492409002175,1,
11,exp3.png,exp4.png,,1,0,1,0,0,11,11,11,,,,,,,,,,,,,,,,,,,,,,,,,False,31,32,True,exp4.png,exp3.png,trial_right_image,-1,exp3.png,1,exp3.png,exp4.png,1,1,non-reversed,correct,0.6285955546106388,1,valid_win,198.5141612999996,18,,,,,,,,,,,,,,,sub_841,2025-02-24_11h15.39.168,Reversal,2023.1.3,60.16492409002175,1,
12,exp1.png,exp2.png,,1,0,1,0,0,12,12,12,,,,,,,,,,,,,,,,,,,,,,,,,False,32,33,False,exp1.png,exp2.png,trial_left_image,1,exp1.png,1,exp1.png,exp2.png,1,3,reversed,correct,0.39187395305983974,1,valid_win,203.17883970000003,19,,,,,,,,,,,,,,,sub_841,2025-02-24_11h15.39.168,Reversal,2023.1.3,60.16492409002175,1,
13,exp3.png,exp4.png,,1,0,1,0,0,13,13,13,,,,,,,,,,,,,,,,,,,,,,,,,False,33,34,True,exp4.png,exp3.png,trial_right_image,-1,exp3.png,1,exp3.png,exp4.png,1,1,non-reversed,correct,0.20831624208846755,0,invalid_lose,207.82747430000018,19,,,,,,,,,,,,,,,sub_841,2025-02-24_11h15.39.168,Reversal,2023.1.3,60.16492409002175,1,
14,exp1.png,exp2.png,,1,0,1,0,0,14,14,14,,,,,,,,,,,,,,,,,,,,,,,,,False,34,35,True,exp2.png,exp1.png,trial_right_image,-1,exp1.png,1,exp1.png,exp2.png,1,3,reversed,correct,0.35180395178723756,1,valid_win,212.60876629999984,20,,,,,,,,,,,,,,,sub_841,2025-02-24_11h15.39.168,Reversal,2023.1.3,60.16492409002175,1,
15,exp3.png,exp4.png,,1,0,1,0,0,15,15,15,,,,,,,,,,,,,,,,,,,,,,,,,False,35,36,False,exp3.png,exp4.png,trial_right_image,-1,exp4.png,1,exp3.png,exp4.png,0,2,non-reversed,incorrect,0.315566930606492,0,valid_lose,218.39078750000044,20,,,,,,,,,,,,,,,sub_841,2025-02-24_11h15.39.168,Reversal,2023.1.3,60.16492409002175,1,
16,exp1.png,exp2.png,,1,0,1,0,0,16,16,16,,,,,,,,,,,,,,,,,,,,,,,,,False,36,37,True,exp2.png,exp1.png,trial_right_image,-1,exp1.png,1,exp1.png,exp2.png,1,3,reversed,correct,0.38071490307229683,1,valid_win,223.2066587999998,21,,,,,,,,,,,,,,,sub_841,2025-02-24_11h15.39.168,Reversal,2023.1.3,60.16492409002175,1,
17,exp3.png,exp4.png,,1,0,1,0,0,17,17,17,,,,,,,,,,,,,,,,,,,,,,,,,False,37,38,False,exp3.png,exp4.png,trial_right_image,-1,exp4.png,1,exp3.png,exp4.png,0,2,non-reversed,incorrect,0.07875314858310267,1,invalid_win,227.8542312999998,22,,,,,,,,,,,,,,,sub_841,2025-02-24_11h15.39.168,Reversal,2023.1.3,60.16492409002175,1,
18,exp1.png,exp2.png,,1,0,1,0,0,18,18,18,,,,,,,,,,,,,,,,,,,,,,,,,False,38,39,False,exp1.png,exp2.png,trial_right_image,-1,exp2.png,1,exp1.png,exp2.png,0,4,reversed,incorrect,0.028925438650921453,1,invalid_win,233.48608760000025,23,,,,,,,,,,,,,,,sub_841,2025-02-24_11h15.39.168,Reversal,2023.1.3,60.16492409002175,1,
19,exp3.png,exp4.png,,1,0,1,0,0,19,19,19,,,,,,,,,,,,,,,,,,,,,,,,,False,39,40,False,exp3.png,exp4.png,trial_right_image,-1,exp4.png,1,exp3.png,exp4.png,0,2,non-reversed,incorrect,0.6640297519587207,0,valid_lose,238.06748549999975,23,,,,,,,,,,,,,,,sub_841,2025-02-24_11h15.39.168,Reversal,2023.1.3,60.16492409002175,1,
20,exp1.png,exp2.png,,1,0,1,0,0,20,20,20,,,,,,,,,,,,,,,,,,,,,,,,,True,,,,,,,,,,,,,,,,,,,,,,,,,,,,,,,,,,,sub_841,2025-02-24_11h15.39.168,Reversal,2023.1.3,60.16492409002175,1,
,,,exp1.png,1,0,1,0,,,,,0,0,0,0,0,0,0,0,,,,,,,,,,,,,,,,,,,,,,,,,,,,,,,,,,,,,,323.57744639999964,100.0,100.0,3.058689000000413,"[(100.0, 3.058689000000413)]",,,,,,,,,,sub_841,2025-02-24_11h15.39.168,Reversal,2023.1.3,60.16492409002175,1,
,,,exp2.png,1,0,1,0,,,,,0,0,0,0,0,1,1,1,,,,,,,,,,,,,,,,,,,,,,,,,,,,,,,,,,,,,,327.74493859999984,,1.0,2.2544204000005266,"[(1.0, 2.2544204000005266)]",1.0,,,,,,,,,sub_841,2025-02-24_11h15.39.168,Reversal,2023.1.3,60.16492409002175,1,
,,,exp3.png,1,0,1,0,,,,,0,0,0,0,0,2,2,2,,,,,,,,,,,,,,,,,,,,,,,,,,,,,,,,,,,,,,331.11833209999986,,1.0,3.7132512999996834,"[(1.0, 3.7132512999996834)]",,1.0,,,,,,,,sub_841,2025-02-24_11h15.39.168,Reversal,2023.1.3,60.16492409002175,1,
,,,exp4.png,1,0,1,0,,,,,0,0,0,0,0,3,3,3,,,,,,,,,,,,,,,,,,,,,,,,,,,,,,,,,,,,,,335.9454427999999,,1.0,3.667554100000416,"[(1.0, 3.667554100000416)]",,,1.0,,,,,,,sub_841,2025-02-24_11h15.39.168,Reversal,2023.1.3,60.16492409002175,1,
0,exp1.png,exp2.png,,2,0,2,0,0,0,0,0,,,,,,,,,,,,,,,,,,,,,,,,,False,40,41,False,exp1.png,exp2.png,trial_left_image,1,exp1.png,1,exp1.png,exp2.png,1,3,reversed,correct,0.3223633490686669,1,valid_win,260.29358560000037,24,,,,,,,,,,,,,,,sub_841,2025-02-24_11h15.39.168,Reversal,2023.1.3,60.16492409002175,1,
1,exp3.png,exp4.png,,2,0,2,0,0,1,1,1,,,,,,,,,,,,,,,,,,,,,,,,,False,41,42,True,exp4.png,exp3.png,trial_right_image,-1,exp3.png,1,exp3.png,exp4.png,1,1,non-reversed,correct,0.6559873157491886,1,valid_win,265.57498250000026,25,,,,,,,,,,,,,,,sub_841,2025-02-24_11h15.39.168,Reversal,2023.1.3,60.16492409002175,1,
2,exp1.png,exp2.png,,2,0,2,0,0,2,2,2,,,,,,,,,,,,,,,,,,,,,,,,,False,42,43,False,exp1.png,exp2.png,trial_left_image,1,exp1.png,1,exp1.png,exp2.png,1,3,reversed,correct,0.6522308921280489,1,valid_win,271.0908767000001,26,,,,,,,,,,,,,,,sub_841,2025-02-24_11h15.39.168,Reversal,2023.1.3,60.16492409002175,1,
3,exp3.png,exp4.png,,2,0,2,0,0,3,3,3,,,,,,,,,,,,,,,,,,,,,,,,,False,43,44,False,exp3.png,exp4.png,trial_right_image,-1,exp4.png,1,exp3.png,exp4.png,0,2,non-reversed,incorrect,0.206563885320865,1,invalid_win,275.4546780999999,27,,,,,,,,,,,,,,,sub_841,2025-02-24_11h15.39.168,Reversal,2023.1.3,60.16492409002175,1,
4,exp1.png,exp2.png,,2,0,2,0,0,4,4,4,,,,,,,,,,,,,,,,,,,,,,,,,False,44,45,False,exp1.png,exp2.png,trial_right_image,-1,exp2.png,1,exp1.png,exp2.png,0,4,reversed,incorrect,0.5881187701839486,0,valid_lose,280.38747390000026,27,,,,,,,,,,,,,,,sub_841,2025-02-24_11h15.39.168,Reversal,2023.1.3,60.16492409002175,1,
5,exp3.png,exp4.png,,2,0,2,0,0,5,5,5,,,,,,,,,,,,,,,,,,,,,,,,,False,45,46,False,exp3.png,exp4.png,trial_right_image,-1,exp4.png,1,exp3.png,exp4.png,0,2,non-reversed,incorrect,0.5439159519801225,0,valid_lose,285.0695287999997,27,,,,,,,,,,,,,,,sub_841,2025-02-24_11h15.39.168,Reversal,2023.1.3,60.16492409002175,1,
6,exp1.png,exp2.png,,2,0,2,0,0,6,6,6,,,,,,,,,,,,,,,,,,,,,,,,,False,46,47,True,exp2.png,exp1.png,trial_right_image,-1,exp1.png,1,exp1.png,exp2.png,1,3,reversed,correct,0.28385694449160104,1,valid_win,289.45011369999975,28,,,,,,,,,,,,,,,sub_841,2025-02-24_11h15.39.168,Reversal,2023.1.3,60.16492409002175,1,
7,exp3.png,exp4.png,,2,0,2,0,0,7,7,7,,,,,,,,,,,,,,,,,,,,,,,,,False,47,48,False,exp3.png,exp4.png,trial_left_image,1,exp3.png,1,exp3.png,exp4.png,1,1,non-reversed,correct,0.7334938278428486,1,valid_win,294.9313264000002,29,,,,,,,,,,,,,,,sub_841,2025-02-24_11h15.39.168,Reversal,2023.1.3,60.16492409002175,1,
8,exp1.png,exp2.png,,2,0,2,0,0,8,8,8,,,,,,,,,,,,,,,,,,,,,,,,,False,48,49,True,exp2.png,exp1.png,trial_left_image,1,exp2.png,1,exp1.png,exp2.png,0,4,reversed,incorrect,0.9713388101090682,0,valid_lose,300.5471655000001,29,,,,,,,,,,,,,,,sub_841,2025-02-24_11h15.39.168,Reversal,2023.1.3,60.16492409002175,1,
9,exp3.png,exp4.png,,2,0,2,0,0,9,9,9,,,,,,,,,,,,,,,,,,,,,,,,,False,49,50,True,exp4.png,exp3.png,trial_right_image,-1,exp3.png,1,exp3.png,exp4.png,1,1,non-reversed,correct,0.19155680037948197,0,invalid_lose,305.37858140000026,29,,,,,,,,,,,,,,,sub_841,2025-02-24_11h15.39.168,Reversal,2023.1.3,60.16492409002175,1,
10,exp1.png,exp2.png,,2,0,2,0,0,10,10,10,,,,,,,,,,,,,,,,,,,,,,,,,False,50,51,True,exp2.png,exp1.png,trial_left_image,1,exp2.png,1,exp1.png,exp2.png,0,4,reversed,incorrect,0.3006947703602568,0,valid_lose,310.54275039999993,29,,,,,,,,,,,,,,,sub_841,2025-02-24_11h15.39.168,Reversal,2023.1.3,60.16492409002175,1,
11,exp3.png,exp4.png,,2,0,2,0,0,11,11,11,,,,,,,,,,,,,,,,,,,,,,,,,False,51,52,False,exp3.png,exp4.png,trial_right_image,-1,exp4.png,1,exp3.png,exp4.png,0,2,non-reversed,incorrect,0.4883082902582121,0,valid_lose,315.32475129999966,29,,,,,,,,,,,,,,,sub_841,2025-02-24_11h15.39.168,Reversal,2023.1.3,60.16492409002175,1,
12,exp1.png,exp2.png,,2,0,2,0,0,12,12,12,,,,,,,,,,,,,,,,,,,,,,,,,False,52,53,False,exp1.png,exp2.png,trial_left_image,1,exp1.png,1,exp1.png,exp2.png,1,3,reversed,correct,0.9032360391319482,1,valid_win,319.8559658000004,30,,,,,,,,,,,,,,,sub_841,2025-02-24_11h15.39.168,Reversal,2023.1.3,60.16492409002175,1,
13,exp3.png,exp4.png,,2,0,2,0,0,13,13,13,,,,,,,,,,,,,,,,,,,,,,,,,False,53,54,False,exp3.png,exp4.png,trial_left_image,1,exp3.png,1,exp3.png,exp4.png,1,1,non-reversed,correct,0.5914841502625471,1,valid_win,327.0374376999998,31,,,,,,,,,,,,,,,sub_841,2025-02-24_11h15.39.168,Reversal,2023.1.3,60.16492409002175,1,
14,exp1.png,exp2.png,,2,0,2,0,0,14,14,14,,,,,,,,,,,,,,,,,,,,,,,,,False,54,55,True,exp2.png,exp1.png,trial_right_image,-1,exp1.png,1,exp1.png,exp2.png,1,3,reversed,correct,0.4607927425904301,1,valid_win,333.0521227999998,32,,,,,,,,,,,,,,,sub_841,2025-02-24_11h15.39.168,Reversal,2023.1.3,60.16492409002175,1,
15,exp3.png,exp4.png,,2,0,2,0,0,15,15,15,,,,,,,,,,,,,,,,,,,,,,,,,False,55,56,True,exp4.png,exp3.png,trial_right_image,-1,exp3.png,1,exp3.png,exp4.png,1,1,non-reversed,correct,0.9653752765739336,1,valid_win,339.6157161000001,33,,,,,,,,,,,,,,,sub_841,2025-02-24_11h15.39.168,Reversal,2023.1.3,60.16492409002175,1,
16,exp1.png,exp2.png,,2,0,2,0,0,16,16,16,,,,,,,,,,,,,,,,,,,,,,,,,False,56,57,True,exp2.png,exp1.png,trial_left_image,1,exp2.png,1,exp1.png,exp2.png,0,4,reversed,incorrect,0.6839812530671893,0,valid_lose,348.12952010000026,33,,,,,,,,,,,,,,,sub_841,2025-02-24_11h15.39.168,Reversal,2023.1.3,60.16492409002175,1,
17,exp3.png,exp4.png,,2,0,2,0,0,17,17,17,,,,,,,,,,,,,,,,,,,,,,,,,False,57,58,True,exp4.png,exp3.png,trial_right_image,-1,exp3.png,1,exp3.png,exp4.png,1,1,non-reversed,correct,0.856276535934191,1,valid_win,353.1118643,34,,,,,,,,,,,,,,,sub_841,2025-02-24_11h15.39.168,Reversal,2023.1.3,60.16492409002175,1,
18,exp1.png,exp2.png,,2,0,2,0,0,18,18,18,,,,,,,,,,,,,,,,,,,,,,,,,False,58,59,True,exp2.png,exp1.png,trial_right_image,-1,exp1.png,1,exp1.png,exp2.png,1,3,reversed,correct,0.7482150574459985,1,valid_win,358.0769977,35,,,,,,,,,,,,,,,sub_841,2025-02-24_11h15.39.168,Reversal,2023.1.3,60.16492409002175,1,
19,exp3.png,exp4.png,,2,0,2,0,0,19,19,19,,,,,,,,,,,,,,,,,,,,,,,,,False,59,60,False,exp3.png,exp4.png,trial_right_image,-1,exp4.png,1,exp3.png,exp4.png,0,2,non-reversed,incorrect,0.7391533806423958,0,valid_lose,368.72286170000007,35,,,,,,,,,,,,,,,sub_841,2025-02-24_11h15.39.168,Reversal,2023.1.3,60.16492409002175,1,
20,exp1.png,exp2.png,,2,0,2,0,0,20,20,20,,,,,,,,,,,,,,,,,,,,,,,,,True,,,,,,,,,,,,,,,,,,,,,,,,,,,,,,,,,,,sub_841,2025-02-24_11h15.39.168,Reversal,2023.1.3,60.16492409002175,1,
,,,exp1.png,2,0,2,0,,,,,0,0,0,0,0,0,0,0,,,,,,,,,,,,,,,,,,,,,,,,,,,,,,,,,,,,,,454.2647094999993,100.0,100.0,2.7117709000003742,"[(100.0, 2.7117709000003742)]",,,,,,,,,,sub_841,2025-02-24_11h15.39.168,Reversal,2023.1.3,60.16492409002175,1,
,,,exp2.png,2,0,2,0,,,,,0,0,0,0,0,1,1,1,,,,,,,,,,,,,,,,,,,,,,,,,,,,,,,,,,,,,,458.13148850000016,,1.0,2.2228526999997484,"[(1.0, 2.2228526999997484)]",1.0,,,,,,,,,sub_841,2025-02-24_11h15.39.168,Reversal,2023.1.3,60.16492409002175,1,
,,,exp3.png,2,0,2,0,,,,,0,0,0,0,0,2,2,2,,,,,,,,,,,,,,,,,,,,,,,,,,,,,,,,,,,,,,461.5583739999993,,1.0,3.7016593999996985,"[(1.0, 3.7016593999996985)]",,1.0,,,,,,,,sub_841,2025-02-24_11h15.39.168,Reversal,2023.1.3,60.16492409002175,1,
,,,exp4.png,2,0,2,0,,,,,0,0,0,0,0,3,3,3,,,,,,,,,,,,,,,,,,,,,,,,,,,,,,,,,,,,,,466.3648091999994,,3.0,2.7355145000001357,"[(3.0, 2.7355145000001357)]",,,3.0,,,,,,,sub_841,2025-02-24_11h15.39.168,Reversal,2023.1.3,60.16492409002175,1,
0,exp1.png,exp2.png,,3,0,3,0,0,0,0,0,,,,,,,,,,,,,,,,,,,,,,,,,False,60,61,True,exp2.png,exp1.png,trial_right_image,-1,exp1.png,1,exp1.png,exp2.png,1,3,reversed,correct,0.43830404624154506,1,valid_win,391.61637679999967,36,,,,,,,,,,,,,,,sub_841,2025-02-24_11h15.39.168,Reversal,2023.1.3,60.16492409002175,1,
1,exp3.png,exp4.png,,3,0,3,0,0,1,1,1,,,,,,,,,,,,,,,,,,,,,,,,,False,61,62,True,exp4.png,exp3.png,trial_right_image,-1,exp3.png,1,exp3.png,exp4.png,1,1,non-reversed,correct,0.9766425770013792,1,valid_win,397.063263,37,,,,,,,,,,,,,,,sub_841,2025-02-24_11h15.39.168,Reversal,2023.1.3,60.16492409002175,1,
2,exp1.png,exp2.png,,3,0,3,0,0,2,2,2,,,,,,,,,,,,,,,,,,,,,,,,,False,62,63,True,exp2.png,exp1.png,trial_right_image,-1,exp1.png,1,exp1.png,exp2.png,1,3,reversed,correct,0.7074238925833508,1,valid_win,403.1781565000001,38,,,,,,,,,,,,,,,sub_841,2025-02-24_11h15.39.168,Reversal,2023.1.3,60.16492409002175,1,
3,exp3.png,exp4.png,,3,0,3,0,0,3,3,3,,,,,,,,,,,,,,,,,,,,,,,,,False,63,64,False,exp3.png,exp4.png,trial_left_image,1,exp3.png,1,exp3.png,exp4.png,1,1,non-reversed,correct,0.8496333415053781,1,valid_win,408.8763022000003,39,,,,,,,,,,,,,,,sub_841,2025-02-24_11h15.39.168,Reversal,2023.1.3,60.16492409002175,1,
4,exp1.png,exp2.png,,3,0,3,0,0,4,4,4,,,,,,,,,,,,,,,,,,,,,,,,,False,64,65,False,exp1.png,exp2.png,trial_left_image,1,exp1.png,1,exp1.png,exp2.png,1,3,reversed,correct,0.41889593965488614,1,valid_win,414.9074219000004,40,,,,,,,,,,,,,,,sub_841,2025-02-24_11h15.39.168,Reversal,2023.1.3,60.16492409002175,1,
5,exp3.png,exp4.png,,3,0,3,0,0,5,5,5,,,,,,,,,,,,,,,,,,,,,,,,,False,65,66,False,exp3.png,exp4.png,trial_left_image,1,exp3.png,1,exp3.png,exp4.png,1,1,non-reversed,correct,0.9792741793596831,1,valid_win,420.3888041,41,,,,,,,,,,,,,,,sub_841,2025-02-24_11h15.39.168,Reversal,2023.1.3,60.16492409002175,1,
6,exp1.png,exp2.png,,3,0,3,0,0,6,6,6,,,,,,,,,,,,,,,,,,,,,,,,,False,66,67,True,exp2.png,exp1.png,trial_right_image,-1,exp1.png,1,exp1.png,exp2.png,1,3,reversed,correct,0.3462380497155094,1,valid_win,425.70342340000025,42,,,,,,,,,,,,,,,sub_841,2025-02-24_11h15.39.168,Reversal,2023.1.3,60.16492409002175,1,
7,exp3.png,exp4.png,,3,0,3,0,0,7,7,7,,,,,,,,,,,,,,,,,,,,,,,,,False,67,68,True,exp4.png,exp3.png,trial_right_image,-1,exp3.png,1,exp3.png,exp4.png,1,1,non-reversed,correct,0.5886992171194428,1,valid_win,431.08526230000007,43,,,,,,,,,,,,,,,sub_841,2025-02-24_11h15.39.168,Reversal,2023.1.3,60.16492409002175,1,
8,exp1.png,exp2.png,,3,0,3,0,0,8,8,8,,,,,,,,,,,,,,,,,,,,,,,,,False,68,69,False,exp1.png,exp2.png,trial_left_image,1,exp1.png,1,exp1.png,exp2.png,1,3,reversed,correct,0.8964509674827323,1,valid_win,436.1169523999997,44,,,,,,,,,,,,,,,sub_841,2025-02-24_11h15.39.168,Reversal,2023.1.3,60.16492409002175,1,
9,exp3.png,exp4.png,,3,0,3,0,0,9,9,9,,,,,,,,,,,,,,,,,,,,,,,,,False,69,70,True,exp4.png,exp3.png,trial_right_image,-1,exp3.png,1,exp3.png,exp4.png,1,1,non-reversed,correct,0.6420118381275838,1,valid_win,441.2651569999998,45,,,,,,,,,,,,,,,sub_841,2025-02-24_11h15.39.168,Reversal,2023.1.3,60.16492409002175,1,
10,exp1.png,exp2.png,,3,0,3,0,0,10,10,10,,,,,,,,,,,,,,,,,,,,,,,,,False,70,71,False,exp1.png,exp2.png,trial_left_image,1,exp1.png,1,exp1.png,exp2.png,1,3,reversed,correct,0.0514815018582121,0,invalid_lose,446.4153292000001,45,,,,,,,,,,,,,,,sub_841,2025-02-24_11h15.39.168,Reversal,2023.1.3,60.16492409002175,1,
11,exp3.png,exp4.png,,3,0,3,0,0,11,11,11,,,,,,,,,,,,,,,,,,,,,,,,,False,71,72,True,exp4.png,exp3.png,trial_left_image,1,exp4.png,1,exp3.png,exp4.png,0,2,non-reversed,incorrect,0.1681550933731054,1,invalid_win,450.84643080000023,46,,,,,,,,,,,,,,,sub_841,2025-02-24_11h15.39.168,Reversal,2023.1.3,60.16492409002175,1,
12,exp1.png,exp2.png,,3,0,3,0,0,12,12,12,,,,,,,,,,,,,,,,,,,,,,,,,False,72,73,False,exp1.png,exp2.png,trial_right_image,-1,exp2.png,1,exp1.png,exp2.png,0,4,reversed,incorrect,0.06479545175316481,1,invalid_win,455.9263705000003,47,,,,,,,,,,,,,,,sub_841,2025-02-24_11h15.39.168,Reversal,2023.1.3,60.16492409002175,1,
13,exp3.png,exp4.png,,3,0,3,0,0,13,13,13,,,,,,,,,,,,,,,,,,,,,,,,,False,73,74,False,exp3.png,exp4.png,trial_right_image,-1,exp4.png,1,exp3.png,exp4.png,0,2,non-reversed,incorrect,0.028550550846905054,1,invalid_win,460.97501889999967,48,,,,,,,,,,,,,,,sub_841,2025-02-24_11h15.39.168,Reversal,2023.1.3,60.16492409002175,1,
14,exp1.png,exp2.png,,3,0,3,0,0,14,14,14,,,,,,,,,,,,,,,,,,,,,,,,,False,74,75,True,exp2.png,exp1.png,trial_left_image,1,exp2.png,1,exp1.png,exp2.png,0,4,reversed,incorrect,0.1852918083903784,1,invalid_win,467.055891,49,,,,,,,,,,,,,,,sub_841,2025-02-24_11h15.39.168,Reversal,2023.1.3,60.16492409002175,1,
15,exp3.png,exp4.png,,3,0,3,0,0,15,15,15,,,,,,,,,,,,,,,,,,,,,,,,,False,75,76,False,exp3.png,exp4.png,trial_left_image,1,exp3.png,1,exp3.png,exp4.png,1,1,non-reversed,correct,0.29175280674522197,1,valid_win,473.78762240000015,50,,,,,,,,,,,,,,,sub_841,2025-02-24_11h15.39.168,Reversal,2023.1.3,60.16492409002175,1,
16,exp1.png,exp2.png,,3,0,3,0,0,16,16,16,,,,,,,,,,,,,,,,,,,,,,,,,False,76,77,False,exp1.png,exp2.png,trial_right_image,-1,exp2.png,1,exp1.png,exp2.png,0,4,reversed,incorrect,0.2603978690221175,0,valid_lose,479.6187265999997,50,,,,,,,,,,,,,,,sub_841,2025-02-24_11h15.39.168,Reversal,2023.1.3,60.16492409002175,1,
17,exp3.png,exp4.png,,3,0,3,0,0,17,17,17,,,,,,,,,,,,,,,,,,,,,,,,,False,77,78,False,exp3.png,exp4.png,trial_left_image,1,exp3.png,1,exp3.png,exp4.png,1,1,non-reversed,correct,0.5423120120678688,1,valid_win,484.4171444000003,51,,,,,,,,,,,,,,,sub_841,2025-02-24_11h15.39.168,Reversal,2023.1.3,60.16492409002175,1,
18,exp1.png,exp2.png,,3,0,3,0,0,18,18,18,,,,,,,,,,,,,,,,,,,,,,,,,False,78,79,True,exp2.png,exp1.png,trial_right_image,-1,exp1.png,1,exp1.png,exp2.png,1,3,reversed,correct,0.25372826376257973,1,valid_win,489.8488490999998,52,,,,,,,,,,,,,,,sub_841,2025-02-24_11h15.39.168,Reversal,2023.1.3,60.16492409002175,1,
19,exp3.png,exp4.png,,3,0,3,0,0,19,19,19,,,,,,,,,,,,,,,,,,,,,,,,,False,79,80,True,exp4.png,exp3.png,trial_right_image,-1,exp3.png,1,exp3.png,exp4.png,1,1,non-reversed,correct,0.4486795881849813,1,valid_win,495.1304798000001,53,,,,,,,,,,,,,,,sub_841,2025-02-24_11h15.39.168,Reversal,2023.1.3,60.16492409002175,1,
20,exp1.png,exp2.png,,3,0,3,0,0,20,20,20,,,,,,,,,,,,,,,,,,,,,,,,,True,,,,,,,,,,,,,,,,,,,,,,,,,,,,,,,,,,,sub_841,2025-02-24_11h15.39.168,Reversal,2023.1.3,60.16492409002175,1,
,,,exp1.png,3,0,3,0,,,,,0,0,0,0,0,0,0,0,,,,,,,,,,,,,,,,,,,,,,,,,,,,,,,,,,,,,,580.6423089999998,100.0,100.0,6.235325200000261,"[(1.0, 4.73469600000044), (100.0, 6.235325200000261)]",,,,,,,,,,sub_841,2025-02-24_11h15.39.168,Reversal,2023.1.3,60.16492409002175,1,
,,,exp2.png,3,0,3,0,,,,,0,0,0,0,0,1,1,1,,,,,,,,,,,,,,,,,,,,,,,,,,,,,,,,,,,,,,588.0282063999994,,1.0,1.9241353000006711,"[(1.0, 1.9241353000006711)]",1.0,,,,,,,,,sub_841,2025-02-24_11h15.39.168,Reversal,2023.1.3,60.16492409002175,1,
,,,exp3.png,3,0,3,0,,,,,0,0,0,0,0,2,2,2,,,,,,,,,,,,,,,,,,,,,,,,,,,,,,,,,,,,,,590.9794894999995,,1.0,5.973756399999729,"[(1.0, 5.973756399999729)]",,1.0,,,,,,,,sub_841,2025-02-24_11h15.39.168,Reversal,2023.1.3,60.16492409002175,1,
,,,exp4.png,3,0,3,0,,,,,0,0,0,0,0,3,3,3,,,,,,,,,,,,,,,,,,,,,,,,,,,,,,,,,,,,,,597.9877968999999,,1.0,2.274324500000148,"[(1.0, 2.274324500000148)]",,,1.0,,,,,,,sub_841,2025-02-24_11h15.39.168,Reversal,2023.1.3,60.16492409002175,1,
0,exp1.png,exp2.png,,,,,,,,,,,,,,,,,,0,0,0,0,0,0,0,0,,,,,,,,,False,0,81,True,exp2.png,exp1.png,trial_right_image,-1,exp1.png,1,exp2.png,exp1.png,1,3,reversed,incorrect,0.08937281320820056,1,invalid_win,520.9062445999998,54,,,,,,,,,518.425225,,,,,,sub_841,2025-02-24_11h15.39.168,Reversal,2023.1.3,60.16492409002175,1,
1,exp3.png,exp4.png,,,,,,,,,,,,,,,,,,0,0,0,0,0,1,1,1,,,,,,,,,False,1,82,False,exp3.png,exp4.png,trial_left_image,1,exp3.png,1,exp3.png,exp4.png,1,1,non-reversed,correct,0.2061961997678089,0,invalid_lose,526.2364365000003,54,,,,,,,,,,,,,,,sub_841,2025-02-24_11h15.39.168,Reversal,2023.1.3,60.16492409002175,1,
2,exp1.png,exp2.png,,,,,,,,,,,,,,,,,,0,0,0,0,0,2,2,2,,,,,,,,,False,2,83,False,exp1.png,exp2.png,trial_right_image,-1,exp2.png,1,exp2.png,exp1.png,0,4,reversed,correct,0.8554336475233837,1,valid_win,530.3685226999996,55,,,,,,,,,,,,,,,sub_841,2025-02-24_11h15.39.168,Reversal,2023.1.3,60.16492409002175,1,
3,exp3.png,exp4.png,,,,,,,,,,,,,,,,,,0,0,0,0,0,3,3,3,,,,,,,,,False,3,84,True,exp4.png,exp3.png,trial_left_image,1,exp4.png,1,exp3.png,exp4.png,0,2,non-reversed,incorrect,0.8289510780872015,0,valid_lose,535.6493935999997,55,,,,,,,,,,,,,,,sub_841,2025-02-24_11h15.39.168,Reversal,2023.1.3,60.16492409002175,1,
4,exp1.png,exp2.png,,,,,,,,,,,,,,,,,,0,0,0,0,0,4,4,4,,,,,,,,,False,4,85,True,exp2.png,exp1.png,trial_right_image,-1,exp1.png,1,exp2.png,exp1.png,1,3,reversed,incorrect,0.3590984636616589,0,valid_lose,540.1326182000003,55,,,,,,,,,,,,,,,sub_841,2025-02-24_11h15.39.168,Reversal,2023.1.3,60.16492409002175,1,
5,exp3.png,exp4.png,,,,,,,,,,,,,,,,,,0,0,0,0,0,5,5,5,,,,,,,,,False,5,86,False,exp3.png,exp4.png,trial_right_image,-1,exp4.png,1,exp3.png,exp4.png,0,2,non-reversed,incorrect,0.20186032159580747,1,invalid_win,544.4466499,56,,,,,,,,,,,,,,,sub_841,2025-02-24_11h15.39.168,Reversal,2023.1.3,60.16492409002175,1,
6,exp1.png,exp2.png,,,,,,,,,,,,,,,,,,0,0,0,0,0,6,6,6,,,,,,,,,False,6,87,True,exp2.png,exp1.png,trial_left_image,1,exp2.png,1,exp2.png,exp1.png,0,4,reversed,correct,0.6485887327889296,1,valid_win,550.9109258999997,57,,,,,,,,,,,,,,,sub_841,2025-02-24_11h15.39.168,Reversal,2023.1.3,60.16492409002175,1,
7,exp3.png,exp4.png,,,,,,,,,,,,,,,,,,0,0,0,0,0,7,7,7,,,,,,,,,False,7,88,False,exp3.png,exp4.png,trial_right_image,-1,exp4.png,1,exp3.png,exp4.png,0,2,non-reversed,incorrect,0.7840243579083039,0,valid_lose,556.3105028999998,57,,,,,,,,,,,,,,,sub_841,2025-02-24_11h15.39.168,Reversal,2023.1.3,60.16492409002175,1,
8,exp1.png,exp2.png,,,,,,,,,,,,,,,,,,0,0,0,0,0,8,8,8,,,,,,,,,False,8,89,True,exp2.png,exp1.png,trial_right_image,-1,exp1.png,1,exp2.png,exp1.png,1,3,reversed,incorrect,0.11840699746578875,1,invalid_win,561.0578050000004,58,,,,,,,,,,,,,,,sub_841,2025-02-24_11h15.39.168,Reversal,2023.1.3,60.16492409002175,1,
9,exp3.png,exp4.png,,,,,,,,,,,,,,,,,,0,0,0,0,0,9,9,9,,,,,,,,,False,9,90,False,exp3.png,exp4.png,trial_left_image,1,exp3.png,1,exp3.png,exp4.png,1,1,non-reversed,correct,0.20549864365136794,0,invalid_lose,565.5730620000004,58,,,,,,,,,,,,,,,sub_841,2025-02-24_11h15.39.168,Reversal,2023.1.3,60.16492409002175,1,
10,exp1.png,exp2.png,,,,,,,,,,,,,,,,,,0,0,0,0,0,10,10,10,,,,,,,,,False,10,91,False,exp1.png,exp2.png,trial_right_image,-1,exp2.png,1,exp2.png,exp1.png,0,4,reversed,correct,0.8377884917591742,1,valid_win,570.1389890999999,59,,,,,,,,,,,,,,,sub_841,2025-02-24_11h15.39.168,Reversal,2023.1.3,60.16492409002175,1,
11,exp3.png,exp4.png,,,,,,,,,,,,,,,,,,0,0,0,0,0,11,11,11,,,,,,,,,False,11,92,False,exp3.png,exp4.png,trial_right_image,-1,exp4.png,1,exp3.png,exp4.png,0,2,non-reversed,incorrect,0.34867266796621843,0,valid_lose,574.6699723000002,59,,,,,,,,,,,,,,,sub_841,2025-02-24_11h15.39.168,Reversal,2023.1.3,60.16492409002175,1,
12,exp1.png,exp2.png,,,,,,,,,,,,,,,,,,0,0,0,0,0,12,12,12,,,,,,,,,False,12,93,True,exp2.png,exp1.png,trial_right_image,-1,exp1.png,1,exp2.png,exp1.png,1,3,reversed,incorrect,0.9898395118156734,0,valid_lose,579.1681902,59,,,,,,,,,,,,,,,sub_841,2025-02-24_11h15.39.168,Reversal,2023.1.3,60.16492409002175,1,
13,exp3.png,exp4.png,,,,,,,,,,,,,,,,,,0,0,0,0,0,13,13,13,,,,,,,,,False,13,94,True,exp4.png,exp3.png,trial_left_image,1,exp4.png,1,exp3.png,exp4.png,0,2,non-reversed,incorrect,0.45757877884819276,0,valid_lose,583.5506709000001,59,,,,,,,,,,,,,,,sub_841,2025-02-24_11h15.39.168,Reversal,2023.1.3,60.16492409002175,1,
14,exp1.png,exp2.png,,,,,,,,,,,,,,,,,,0,0,0,0,0,14,14,14,,,,,,,,,False,14,95,False,exp1.png,exp2.png,trial_right_image,-1,exp2.png,1,exp2.png,exp1.png,0,4,reversed,correct,0.7605327485827352,1,valid_win,589.5826519000002,60,,,,,,,,,,,,,,,sub_841,2025-02-24_11h15.39.168,Reversal,2023.1.3,60.16492409002175,1,
15,exp3.png,exp4.png,,,,,,,,,,,,,,,,,,0,0,0,0,0,15,15,15,,,,,,,,,False,15,96,True,exp4.png,exp3.png,trial_left_image,1,exp4.png,1,exp3.png,exp4.png,0,2,non-reversed,incorrect,0.3352385864637667,0,valid_lose,594.6293769000004,60,,,,,,,,,,,,,,,sub_841,2025-02-24_11h15.39.168,Reversal,2023.1.3,60.16492409002175,1,
16,exp1.png,exp2.png,,,,,,,,,,,,,,,,,,0,0,0,0,0,16,16,16,,,,,,,,,False,16,97,False,exp1.png,exp2.png,trial_right_image,-1,exp2.png,1,exp2.png,exp1.png,0,4,reversed,correct,0.9613132754692713,1,valid_win,599.6947584,61,,,,,,,,,,,,,,,sub_841,2025-02-24_11h15.39.168,Reversal,2023.1.3,60.16492409002175,1,
17,exp3.png,exp4.png,,,,,,,,,,,,,,,,,,0,0,0,0,0,17,17,17,,,,,,,,,False,17,98,False,exp3.png,exp4.png,trial_left_image,1,exp3.png,1,exp3.png,exp4.png,1,1,non-reversed,correct,0.3663686526129133,1,valid_win,605.7765458000003,62,,,,,,,,,,,,,,,sub_841,2025-02-24_11h15.39.168,Reversal,2023.1.3,60.16492409002175,1,
18,exp1.png,exp2.png,,,,,,,,,,,,,,,,,,0,0,0,0,0,18,18,18,,,,,,,,,False,18,99,True,exp2.png,exp1.png,trial_left_image,1,exp2.png,1,exp2.png,exp1.png,0,4,reversed,correct,0.781857097105872,1,valid_win,611.3905131000001,63,,,,,,,,,,,,,,,sub_841,2025-02-24_11h15.39.168,Reversal,2023.1.3,60.16492409002175,1,
19,exp3.png,exp4.png,,,,,,,,,,,,,,,,,,0,0,0,0,0,19,19,19,,,,,,,,,False,19,100,True,exp4.png,exp3.png,trial_right_image,-1,exp3.png,1,exp3.png,exp4.png,1,1,non-reversed,correct,0.3898583557259152,1,valid_win,616.6886855000002,64,,,,,,,,,,,,,,,sub_841,2025-02-24_11h15.39.168,Reversal,2023.1.3,60.16492409002175,1,
20,exp1.png,exp2.png,,,,,,,,,,,,,,,,,,0,0,0,0,0,20,20,20,,,,,,,,,True,,,,,,,,,,,,,,,,,,,,,,,,,,,,,,,,,,,sub_841,2025-02-24_11h15.39.168,Reversal,2023.1.3,60.16492409002175,1,
,,,exp1.png,,,,,,,,,,,,,,,,,0,0,0,0,,,,,0,0,0,0,0,0,0,0,,,,,,,,,,,,,,,,,,,,,,702.2045472999998,1.0,1.0,3.089629299999615,"[(1.0, 3.089629299999615)]",,,,,,,,,,sub_841,2025-02-24_11h15.39.168,Reversal,2023.1.3,60.16492409002175,1,
,,,exp2.png,,,,,,,,,,,,,,,,,0,0,0,0,,,,,0,0,0,0,0,1,1,1,,,,,,,,,,,,,,,,,,,,,,706.5021756999995,,100.0,1.995671499999844,"[(100.0, 1.995671499999844)]",100.0,,,,,,,,,sub_841,2025-02-24_11h15.39.168,Reversal,2023.1.3,60.16492409002175,1,
,,,exp3.png,,,,,,,,,,,,,,,,,0,0,0,0,,,,,0,0,0,0,0,2,2,2,,,,,,,,,,,,,,,,,,,,,,709.5177476999997,,100.0,1.7352253999997629,"[(100.0, 1.7352253999997629)]",,100.0,,,,,,,,sub_841,2025-02-24_11h15.39.168,Reversal,2023.1.3,60.16492409002175,1,
,,,exp4.png,,,,,,,,,,,,,,,,,0,0,0,0,,,,,0,0,0,0,0,3,3,3,,,,,,,,,,,,,,,,,,,,,,712.2779403999994,,100.0,3.8809691999995266,"[(100.0, 3.8809691999995266)]",,,100.0,,,,,,,sub_841,2025-02-24_11h15.39.168,Reversal,2023.1.3,60.16492409002175,1,
0,exp1.png,exp2.png,,,,,,,,,,,,,,,,,,1,0,1,0,0,0,0,0,,,,,,,,,False,20,101,True,exp2.png,exp1.png,trial_left_image,1,exp2.png,1,exp2.png,exp1.png,0,4,reversed,correct,0.7292066917865954,1,valid_win,636.3836692000004,65,,,,,,,,,,,,,,,sub_841,2025-02-24_11h15.39.168,Reversal,2023.1.3,60.16492409002175,1,
1,exp3.png,exp4.png,,,,,,,,,,,,,,,,,,1,0,1,0,0,1,1,1,,,,,,,,,False,21,102,False,exp3.png,exp4.png,trial_left_image,1,exp3.png,1,exp3.png,exp4.png,1,1,non-reversed,correct,0.04261338583279273,0,invalid_lose,641.8137667000001,65,,,,,,,,,,,,,,,sub_841,2025-02-24_11h15.39.168,Reversal,2023.1.3,60.16492409002175,1,
2,exp1.png,exp2.png,,,,,,,,,,,,,,,,,,1,0,1,0,0,2,2,2,,,,,,,,,False,22,103,True,exp2.png,exp1.png,trial_left_image,1,exp2.png,1,exp2.png,exp1.png,0,4,reversed,correct,0.48654360359289006,1,valid_win,648.1117727999999,66,,,,,,,,,,,,,,,sub_841,2025-02-24_11h15.39.168,Reversal,2023.1.3,60.16492409002175,1,
3,exp3.png,exp4.png,,,,,,,,,,,,,,,,,,1,0,1,0,0,3,3,3,,,,,,,,,False,23,104,False,exp3.png,exp4.png,trial_left_image,1,exp3.png,1,exp3.png,exp4.png,1,1,non-reversed,correct,0.2574380024870727,1,valid_win,655.2095910999997,67,,,,,,,,,,,,,,,sub_841,2025-02-24_11h15.39.168,Reversal,2023.1.3,60.16492409002175,1,
4,exp1.png,exp2.png,,,,,,,,,,,,,,,,,,1,0,1,0,0,4,4,4,,,,,,,,,False,24,105,False,exp1.png,exp2.png,trial_left_image,1,exp1.png,1,exp2.png,exp1.png,1,3,reversed,incorrect,0.39808291515574346,0,valid_lose,661.9252747,67,,,,,,,,,,,,,,,sub_841,2025-02-24_11h15.39.168,Reversal,2023.1.3,60.16492409002175,1,
5,exp3.png,exp4.png,,,,,,,,,,,,,,,,,,1,0,1,0,0,5,5,5,,,,,,,,,False,25,106,False,exp3.png,exp4.png,trial_left_image,1,exp3.png,1,exp3.png,exp4.png,1,1,non-reversed,correct,0.3497553007696572,1,valid_win,667.0387032999997,68,,,,,,,,,,,,,,,sub_841,2025-02-24_11h15.39.168,Reversal,2023.1.3,60.16492409002175,1,
6,exp1.png,exp2.png,,,,,,,,,,,,,,,,,,1,0,1,0,0,6,6,6,,,,,,,,,False,26,107,False,exp1.png,exp2.png,trial_left_image,1,exp1.png,1,exp2.png,exp1.png,1,3,reversed,incorrect,0.6271047888063197,0,valid_lose,672.3705922999998,68,,,,,,,,,,,,,,,sub_841,2025-02-24_11h15.39.168,Reversal,2023.1.3,60.16492409002175,1,
7,exp3.png,exp4.png,,,,,,,,,,,,,,,,,,1,0,1,0,0,7,7,7,,,,,,,,,False,27,108,True,exp4.png,exp3.png,trial_right_image,-1,exp3.png,1,exp3.png,exp4.png,1,1,non-reversed,correct,0.939222086693435,1,valid_win,677.0018571999999,69,,,,,,,,,,,,,,,sub_841,2025-02-24_11h15.39.168,Reversal,2023.1.3,60.16492409002175,1,
8,exp1.png,exp2.png,,,,,,,,,,,,,,,,,,1,0,1,0,0,8,8,8,,,,,,,,,False,28,109,True,exp2.png,exp1.png,trial_left_image,1,exp2.png,1,exp2.png,exp1.png,0,4,reversed,correct,0.6762014547533196,1,valid_win,682.4334060000001,70,,,,,,,,,,,,,,,sub_841,2025-02-24_11h15.39.168,Reversal,2023.1.3,60.16492409002175,1,
9,exp3.png,exp4.png,,,,,,,,,,,,,,,,,,1,0,1,0,0,9,9,9,,,,,,,,,False,29,110,False,exp3.png,exp4.png,trial_left_image,1,exp3.png,1,exp3.png,exp4.png,1,1,non-reversed,correct,0.7769455870892618,1,valid_win,687.6320366,71,,,,,,,,,,,,,,,sub_841,2025-02-24_11h15.39.168,Reversal,2023.1.3,60.16492409002175,1,
10,exp1.png,exp2.png,,,,,,,,,,,,,,,,,,1,0,1,0,0,10,10,10,,,,,,,,,False,30,111,True,exp2.png,exp1.png,trial_left_image,1,exp2.png,1,exp2.png,exp1.png,0,4,reversed,correct,0.11440103728713835,0,invalid_lose,692.1134611999996,71,,,,,,,,,,,,,,,sub_841,2025-02-24_11h15.39.168,Reversal,2023.1.3,60.16492409002175,1,
11,exp3.png,exp4.png,,,,,,,,,,,,,,,,,,1,0,1,0,0,11,11,11,,,,,,,,,False,31,112,False,exp3.png,exp4.png,trial_left_image,1,exp3.png,1,exp3.png,exp4.png,1,1,non-reversed,correct,0.8975947892299615,1,valid_win,697.0629171999999,72,,,,,,,,,,,,,,,sub_841,2025-02-24_11h15.39.168,Reversal,2023.1.3,60.16492409002175,1,
12,exp1.png,exp2.png,,,,,,,,,,,,,,,,,,1,0,1,0,0,12,12,12,,,,,,,,,False,32,113,True,exp2.png,exp1.png,trial_right_image,-1,exp1.png,1,exp2.png,exp1.png,1,3,reversed,incorrect,0.48395323417983316,0,valid_lose,701.5612226000003,72,,,,,,,,,,,,,,,sub_841,2025-02-24_11h15.39.168,Reversal,2023.1.3,60.16492409002175,1,
13,exp3.png,exp4.png,,,,,,,,,,,,,,,,,,1,0,1,0,0,13,13,13,,,,,,,,,False,33,114,True,exp4.png,exp3.png,trial_right_image,-1,exp3.png,1,exp3.png,exp4.png,1,1,non-reversed,correct,0.31410045426983413,1,valid_win,706.9414597000005,73,,,,,,,,,,,,,,,sub_841,2025-02-24_11h15.39.168,Reversal,2023.1.3,60.16492409002175,1,
14,exp1.png,exp2.png,,,,,,,,,,,,,,,,,,1,0,1,0,0,14,14,14,,,,,,,,,False,34,115,True,exp2.png,exp1.png,trial_right_image,-1,exp1.png,1,exp2.png,exp1.png,1,3,reversed,incorrect,0.954093764171264,0,valid_lose,712.0067488000004,73,,,,,,,,,,,,,,,sub_841,2025-02-24_11h15.39.168,Reversal,2023.1.3,60.16492409002175,1,
15,exp3.png,exp4.png,,,,,,,,,,,,,,,,,,1,0,1,0,0,15,15,15,,,,,,,,,False,35,116,True,exp4.png,exp3.png,trial_right_image,-1,exp3.png,1,exp3.png,exp4.png,1,1,non-reversed,correct,0.4888308977363759,1,valid_win,716.2887388999998,74,,,,,,,,,,,,,,,sub_841,2025-02-24_11h15.39.168,Reversal,2023.1.3,60.16492409002175,1,
16,exp1.png,exp2.png,,,,,,,,,,,,,,,,,,1,0,1,0,0,16,16,16,,,,,,,,,False,36,117,False,exp1.png,exp2.png,trial_right_image,-1,exp2.png,1,exp2.png,exp1.png,0,4,reversed,correct,0.1165464853406355,0,invalid_lose,720.6043407999996,74,,,,,,,,,,,,,,,sub_841,2025-02-24_11h15.39.168,Reversal,2023.1.3,60.16492409002175,1,
17,exp3.png,exp4.png,,,,,,,,,,,,,,,,,,1,0,1,0,0,17,17,17,,,,,,,,,False,37,118,True,exp4.png,exp3.png,trial_right_image,-1,exp3.png,1,exp3.png,exp4.png,1,1,non-reversed,correct,0.393428910245334,1,valid_win,725.3688554999999,75,,,,,,,,,,,,,,,sub_841,2025-02-24_11h15.39.168,Reversal,2023.1.3,60.16492409002175,1,
18,exp1.png,exp2.png,,,,,,,,,,,,,,,,,,1,0,1,0,0,18,18,18,,,,,,,,,False,38,119,False,exp1.png,exp2.png,trial_left_image,1,exp1.png,1,exp2.png,exp1.png,1,3,reversed,incorrect,0.43182007489271546,0,valid_lose,730.4181592000004,75,,,,,,,,,,,,,,,sub_841,2025-02-24_11h15.39.168,Reversal,2023.1.3,60.16492409002175,1,
19,exp3.png,exp4.png,,,,,,,,,,,,,,,,,,1,0,1,0,0,19,19,19,,,,,,,,,False,39,120,False,exp3.png,exp4.png,trial_left_image,1,exp3.png,1,exp3.png,exp4.png,1,1,non-reversed,correct,0.406978994147033,1,valid_win,734.7820826999996,76,,,,,,,,,,,,,,,sub_841,2025-02-24_11h15.39.168,Reversal,2023.1.3,60.16492409002175,1,
20,exp1.png,exp2.png,,,,,,,,,,,,,,,,,,1,0,1,0,0,20,20,20,,,,,,,,,True,,,,,,,,,,,,,,,,,,,,,,,,,,,,,,,,,,,sub_841,2025-02-24_11h15.39.168,Reversal,2023.1.3,60.16492409002175,1,
,,,exp1.png,,,,,,,,,,,,,,,,,1,0,1,0,,,,,0,0,0,0,0,0,0,0,,,,,,,,,,,,,,,,,,,,,,820.2951254999998,1.0,1.0,3.1806281999997736,"[(1.0, 3.1806281999997736)]",,,,,,,,,,sub_841,2025-02-24_11h15.39.168,Reversal,2023.1.3,60.16492409002175,1,
,,,exp2.png,,,,,,,,,,,,,,,,,1,0,1,0,,,,,0,0,0,0,0,1,1,1,,,,,,,,,,,,,,,,,,,,,,824.6508057000001,,100.0,1.4894733999999517,"[(100.0, 1.4894733999999517)]",100.0,,,,,,,,,sub_841,2025-02-24_11h15.39.168,Reversal,2023.1.3,60.16492409002175,1,
,,,exp3.png,,,,,,,,,,,,,,,,,1,0,1,0,,,,,0,0,0,0,0,2,2,2,,,,,,,,,,,,,,,,,,,,,,827.2946401999998,,100.0,1.5465057999999772,"[(100.0, 1.5465057999999772)]",,100.0,,,,,,,,sub_841,2025-02-24_11h15.39.168,Reversal,2023.1.3,60.16492409002175,1,
,,,exp4.png,,,,,,,,,,,,,,,,,1,0,1,0,,,,,0,0,0,0,0,3,3,3,,,,,,,,,,,,,,,,,,,,,,829.9263708999997,,1.0,3.715943899999729,"[(1.0, 3.715943899999729)]",,,1.0,,,,,,,sub_841,2025-02-24_11h15.39.168,Reversal,2023.1.3,60.16492409002175,1,
0,exp1.png,exp2.png,,,,,,,,,,,,,,,,,,2,0,2,0,0,0,0,0,,,,,,,,,False,40,121,False,exp1.png,exp2.png,trial_left_image,1,exp1.png,1,exp2.png,exp1.png,1,3,reversed,incorrect,0.5609451140616457,0,valid_lose,754.7926850000003,76,,,,,,,,,,,,,,,sub_841,2025-02-24_11h15.39.168,Reversal,2023.1.3,60.16492409002175,1,
1,exp3.png,exp4.png,,,,,,,,,,,,,,,,,,2,0,2,0,0,1,1,1,,,,,,,,,False,41,122,True,exp4.png,exp3.png,trial_right_image,-1,exp3.png,1,exp3.png,exp4.png,1,1,non-reversed,correct,0.6837007966410614,1,valid_win,759.0562683999997,77,,,,,,,,,,,,,,,sub_841,2025-02-24_11h15.39.168,Reversal,2023.1.3,60.16492409002175,1,
2,exp1.png,exp2.png,,,,,,,,,,,,,,,,,,2,0,2,0,0,2,2,2,,,,,,,,,False,42,123,True,exp2.png,exp1.png,trial_left_image,1,exp2.png,1,exp2.png,exp1.png,0,4,reversed,correct,0.3859985130916981,1,valid_win,764.1390725000001,78,,,,,,,,,,,,,,,sub_841,2025-02-24_11h15.39.168,Reversal,2023.1.3,60.16492409002175,1,
3,exp3.png,exp4.png,,,,,,,,,,,,,,,,,,2,0,2,0,0,3,3,3,,,,,,,,,False,43,124,True,exp4.png,exp3.png,trial_right_image,-1,exp3.png,1,exp3.png,exp4.png,1,1,non-reversed,correct,0.1433654942120125,0,invalid_lose,768.90409,78,,,,,,,,,,,,,,,sub_841,2025-02-24_11h15.39.168,Reversal,2023.1.3,60.16492409002175,1,
4,exp1.png,exp2.png,,,,,,,,,,,,,,,,,,2,0,2,0,0,4,4,4,,,,,,,,,False,44,125,True,exp2.png,exp1.png,trial_left_image,1,exp2.png,1,exp2.png,exp1.png,0,4,reversed,correct,0.24057717153494096,0,invalid_lose,773.6856037999996,78,,,,,,,,,,,,,,,sub_841,2025-02-24_11h15.39.168,Reversal,2023.1.3,60.16492409002175,1,
5,exp3.png,exp4.png,,,,,,,,,,,,,,,,,,2,0,2,0,0,5,5,5,,,,,,,,,False,45,126,False,exp3.png,exp4.png,trial_right_image,-1,exp4.png,1,exp3.png,exp4.png,0,2,non-reversed,incorrect,0.7381084218036823,0,valid_lose,778.9506411000002,78,,,,,,,,,,,,,,,sub_841,2025-02-24_11h15.39.168,Reversal,2023.1.3,60.16492409002175,1,
6,exp1.png,exp2.png,,,,,,,,,,,,,,,,,,2,0,2,0,0,6,6,6,,,,,,,,,False,46,127,True,exp2.png,exp1.png,trial_right_image,-1,exp1.png,1,exp2.png,exp1.png,1,3,reversed,incorrect,0.9702708225130605,0,valid_lose,784.7168435000003,78,,,,,,,,,,,,,,,sub_841,2025-02-24_11h15.39.168,Reversal,2023.1.3,60.16492409002175,1,
7,exp3.png,exp4.png,,,,,,,,,,,,,,,,,,2,0,2,0,0,7,7,7,,,,,,,,,False,47,128,False,exp3.png,exp4.png,trial_left_image,1,exp3.png,1,exp3.png,exp4.png,1,1,non-reversed,correct,0.7110293759145131,1,valid_win,789.4648257999997,79,,,,,,,,,,,,,,,sub_841,2025-02-24_11h15.39.168,Reversal,2023.1.3,60.16492409002175,1,
8,exp1.png,exp2.png,,,,,,,,,,,,,,,,,,2,0,2,0,0,8,8,8,,,,,,,,,False,48,129,True,exp2.png,exp1.png,trial_right_image,-1,exp1.png,1,exp2.png,exp1.png,1,3,reversed,incorrect,0.5864741658364293,0,valid_lose,793.9122304000002,79,,,,,,,,,,,,,,,sub_841,2025-02-24_11h15.39.168,Reversal,2023.1.3,60.16492409002175,1,
9,exp3.png,exp4.png,,,,,,,,,,,,,,,,,,2,0,2,0,0,9,9,9,,,,,,,,,False,49,130,True,exp4.png,exp3.png,trial_right_image,-1,exp3.png,1,exp3.png,exp4.png,1,1,non-reversed,correct,0.6383056473561144,1,valid_win,799.1275133999998,80,,,,,,,,,,,,,,,sub_841,2025-02-24_11h15.39.168,Reversal,2023.1.3,60.16492409002175,1,
10,exp1.png,exp2.png,,,,,,,,,,,,,,,,,,2,0,2,0,0,10,10,10,,,,,,,,,False,50,131,False,exp1.png,exp2.png,trial_left_image,1,exp1.png,1,exp2.png,exp1.png,1,3,reversed,incorrect,0.765687791857793,0,valid_lose,804.3922217999998,80,,,,,,,,,,,,,,,sub_841,2025-02-24_11h15.39.168,Reversal,2023.1.3,60.16492409002175,1,
11,exp3.png,exp4.png,,,,,,,,,,,,,,,,,,2,0,2,0,0,11,11,11,,,,,,,,,False,51,132,True,exp4.png,exp3.png,trial_right_image,-1,exp3.png,1,exp3.png,exp4.png,1,1,non-reversed,correct,0.14426530942035376,0,invalid_lose,808.9572711000001,80,,,,,,,,,,,,,,,sub_841,2025-02-24_11h15.39.168,Reversal,2023.1.3,60.16492409002175,1,
12,exp1.png,exp2.png,,,,,,,,,,,,,,,,,,2,0,2,0,0,12,12,12,,,,,,,,,False,52,133,False,exp1.png,exp2.png,trial_right_image,-1,exp2.png,1,exp2.png,exp1.png,0,4,reversed,correct,0.061595705625054786,0,invalid_lose,813.2400282999997,80,,,,,,,,,,,,,,,sub_841,2025-02-24_11h15.39.168,Reversal,2023.1.3,60.16492409002175,1,
13,exp3.png,exp4.png,,,,,,,,,,,,,,,,,,2,0,2,0,0,13,13,13,,,,,,,,,False,53,134,False,exp3.png,exp4.png,trial_right_image,-1,exp4.png,1,exp3.png,exp4.png,0,2,non-reversed,incorrect,0.6469721256517038,0,valid_lose,817.9053397999996,80,,,,,,,,,,,,,,,sub_841,2025-02-24_11h15.39.168,Reversal,2023.1.3,60.16492409002175,1,
14,exp1.png,exp2.png,,,,,,,,,,,,,,,,,,2,0,2,0,0,14,14,14,,,,,,,,,False,54,135,False,exp1.png,exp2.png,trial_right_image,-1,exp2.png,1,exp2.png,exp1.png,0,4,reversed,correct,0.117973570796435,0,invalid_lose,823.0365902000003,80,,,,,,,,,,,,,,,sub_841,2025-02-24_11h15.39.168,Reversal,2023.1.3,60.16492409002175,1,
15,exp3.png,exp4.png,,,,,,,,,,,,,,,,,,2,0,2,0,0,15,15,15,,,,,,,,,False,55,136,False,exp3.png,exp4.png,trial_right_image,-1,exp4.png,1,exp3.png,exp4.png,0,2,non-reversed,incorrect,0.9836173165164561,0,valid_lose,828.4340556999996,80,,,,,,,,,,,,,,,sub_841,2025-02-24_11h15.39.168,Reversal,2023.1.3,60.16492409002175,1,
16,exp1.png,exp2.png,,,,,,,,,,,,,,,,,,2,0,2,0,0,16,16,16,,,,,,,,,False,56,137,False,exp1.png,exp2.png,trial_right_image,-1,exp2.png,1,exp2.png,exp1.png,0,4,reversed,correct,0.3268241439705345,1,valid_win,832.6490746,81,,,,,,,,,,,,,,,sub_841,2025-02-24_11h15.39.168,Reversal,2023.1.3,60.16492409002175,1,
17,exp3.png,exp4.png,,,,,,,,,,,,,,,,,,2,0,2,0,0,17,17,17,,,,,,,,,False,57,138,False,exp3.png,exp4.png,trial_left_image,1,exp3.png,1,exp3.png,exp4.png,1,1,non-reversed,correct,0.8250977471866201,1,valid_win,838.0153324000003,82,,,,,,,,,,,,,,,sub_841,2025-02-24_11h15.39.168,Reversal,2023.1.3,60.16492409002175,1,
18,exp1.png,exp2.png,,,,,,,,,,,,,,,,,,2,0,2,0,0,18,18,18,,,,,,,,,False,58,139,True,exp2.png,exp1.png,trial_left_image,1,exp2.png,1,exp2.png,exp1.png,0,4,reversed,correct,0.034534029075624084,0,invalid_lose,844.6459629000001,82,,,,,,,,,,,,,,,sub_841,2025-02-24_11h15.39.168,Reversal,2023.1.3,60.16492409002175,1,
19,exp3.png,exp4.png,,,,,,,,,,,,,,,,,,2,0,2,0,0,19,19,19,,,,,,,,,False,59,140,True,exp4.png,exp3.png,trial_left_image,1,exp4.png,1,exp3.png,exp4.png,0,2,non-reversed,incorrect,0.10108217668625241,1,invalid_win,849.3097507000002,83,,,,,,,,,,,,,,,sub_841,2025-02-24_11h15.39.168,Reversal,2023.1.3,60.16492409002175,1,
20,exp1.png,exp2.png,,,,,,,,,,,,,,,,,,2,0,2,0,0,20,20,20,,,,,,,,,True,,,,,,,,,,,,,,,,,,,,,,,,,,,,,,,,,,,sub_841,2025-02-24_11h15.39.168,Reversal,2023.1.3,60.16492409002175,1,
,,,exp1.png,,,,,,,,,,,,,,,,,2,0,2,0,,,,,0,0,0,0,0,0,0,0,,,,,,,,,,,,,,,,,,,,,,934.8248293999995,98.0,98.0,4.481934499999625,"[(98.0, 4.481934499999625)]",,,,,,,,,,sub_841,2025-02-24_11h15.39.168,Reversal,2023.1.3,60.16492409002175,1,
,,,exp2.png,,,,,,,,,,,,,,,,,2,0,2,0,,,,,0,0,0,0,0,1,1,1,,,,,,,,,,,,,,,,,,,,,,940.5840153999998,,1.0,2.08493290000024,"[(1.0, 2.08493290000024)]",1.0,,,,,,,,,sub_841,2025-02-24_11h15.39.168,Reversal,2023.1.3,60.16492409002175,1,
,,,exp3.png,,,,,,,,,,,,,,,,,2,0,2,0,,,,,0,0,0,0,0,2,2,2,,,,,,,,,,,,,,,,,,,,,,943.7001202000001,,2.0,2.1491399000005913,"[(2.0, 2.1491399000005913)]",,2.0,,,,,,,,sub_841,2025-02-24_11h15.39.168,Reversal,2023.1.3,60.16492409002175,1,
,,,exp4.png,,,,,,,,,,,,,,,,,2,0,2,0,,,,,0,0,0,0,0,3,3,3,,,,,,,,,,,,,,,,,,,,,,948.2866657999994,,1.0,6.935966500000177,"[(1.0, 6.935966500000177)]",,,1.0,,,,,,,sub_841,2025-02-24_11h15.39.168,Reversal,2023.1.3,60.16492409002175,1,
,,,,,,,,,,,,,,,,,,,,,,,,,,,,,,,,,,,,,,,,,,,,,,,,,,,,,,,,83,,,,,,,,,,90,53,37,354.8653058,1,,,,,,,
