trial_index,trial_image1_file,trial_image2_file,image_file,learning_outer_loop.thisRepN,learning_outer_loop.thisTrialN,learning_outer_loop.thisN,learning_outer_loop.thisIndex,learning_inner_loop.thisRepN,learning_inner_loop.thisTrialN,learning_inner_loop.thisN,learning_inner_loop.thisIndex,learning_estimation_outer_loop.thisRepN,learning_estimation_outer_loop.thisTrialN,learning_estimation_outer_loop.thisN,learning_estimation_outer_loop.thisIndex,learning_estimation_inner_loop.thisRepN,learning_estimation_inner_loop.thisTrialN,learning_estimation_inner_loop.thisN,learning_estimation_inner_loop.thisIndex,reversal_outer_loop.thisRepN,reversal_outer_loop.thisTrialN,reversal_outer_loop.thisN,reversal_outer_loop.thisIndex,reversal_inner_loop.thisRepN,reversal_inner_loop.thisTrialN,reversal_inner_loop.thisN,reversal_inner_loop.thisIndex,reversal_estimation_outer_loop.thisRepN,reversal_estimation_outer_loop.thisTrialN,reversal_estimation_outer_loop.thisN,reversal_estimation_outer_loop.thisIndex,reversal_estimation_inner_loop.thisRepN,reversal_estimation_inner_loop.thisTrialN,reversal_estimation_inner_loop.thisN,reversal_estimation_inner_loop.thisIndex,skipped,total_trial_counter,trial_num,left_right_flip,left_image_file,right_image_file,clicked_stimulus_side,side,clicked_stimulus,version,high_prob_image_file,low_prob_image_file,choice_a,choice_b,pair_type,correct,trial_feedback_random,reward,trial_type,overall_time_after_trial,score,estimation_rating.started,estimation_rating.response,estimation_rating.rt,estimation_rating.history,estimation_exp2.png,estimation_exp3.png,estimation_exp4.png,estimation_exp1.png,total_learning_time,total_correct,learning_correct,reversal_correct,total_reversal_time,extra_block,participant,date,expName,psychopyVersion,frameRate,ver,
0,exp1.png,exp2.png,,0,0,0,0,0,0,0,0,,,,,,,,,,,,,,,,,,,,,,,,,True,,,,,,,,,,,,,,,,,,,,,,,,,,,,,,,,,,,sub_639,2024-07-14_10h53.53.773,Reversal,2023.1.3,59.922939100279976,3,
1,exp3.png,exp4.png,,0,0,0,0,0,1,1,1,,,,,,,,,,,,,,,,,,,,,,,,,False,0,1,False,exp3.png,exp4.png,trial_right_image,-1,exp4.png,3,exp4.png,exp3.png,1,1,non-reversed,correct,0.3821075377693971,1,valid_win,9.577129600000262,1,,,,,,,,,,,,,,,sub_639,2024-07-14_10h53.53.773,Reversal,2023.1.3,59.922939100279976,3,
2,exp1.png,exp2.png,,0,0,0,0,0,2,2,2,,,,,,,,,,,,,,,,,,,,,,,,,False,1,2,True,exp2.png,exp1.png,trial_left_image,1,exp2.png,3,exp2.png,exp1.png,1,3,reversed,correct,0.9205115480771828,1,valid_win,20.558019400000376,2,,,,,,,,,,,,,,,sub_639,2024-07-14_10h53.53.773,Reversal,2023.1.3,59.922939100279976,3,
3,exp3.png,exp4.png,,0,0,0,0,0,3,3,3,,,,,,,,,,,,,,,,,,,,,,,,,False,2,3,False,exp3.png,exp4.png,trial_right_image,-1,exp4.png,3,exp4.png,exp3.png,1,1,non-reversed,correct,0.10578501407627938,0,invalid_lose,30.221716600000036,2,,,,,,,,,,,,,,,sub_639,2024-07-14_10h53.53.773,Reversal,2023.1.3,59.922939100279976,3,
4,exp1.png,exp2.png,,0,0,0,0,0,4,4,4,,,,,,,,,,,,,,,,,,,,,,,,,False,3,4,True,exp2.png,exp1.png,trial_left_image,1,exp2.png,3,exp2.png,exp1.png,1,3,reversed,correct,0.807630303844752,1,valid_win,37.66903120000006,3,,,,,,,,,,,,,,,sub_639,2024-07-14_10h53.53.773,Reversal,2023.1.3,59.922939100279976,3,
5,exp3.png,exp4.png,,0,0,0,0,0,5,5,5,,,,,,,,,,,,,,,,,,,,,,,,,False,4,5,True,exp4.png,exp3.png,trial_left_image,1,exp4.png,3,exp4.png,exp3.png,1,1,non-reversed,correct,0.6567835734318417,1,valid_win,49.68148149999979,4,,,,,,,,,,,,,,,sub_639,2024-07-14_10h53.53.773,Reversal,2023.1.3,59.922939100279976,3,
6,exp1.png,exp2.png,,0,0,0,0,0,6,6,6,,,,,,,,,,,,,,,,,,,,,,,,,False,5,6,True,exp2.png,exp1.png,trial_right_image,-1,exp1.png,3,exp2.png,exp1.png,0,4,reversed,incorrect,0.9790342230945422,0,valid_lose,56.96270270000059,4,,,,,,,,,,,,,,,sub_639,2024-07-14_10h53.53.773,Reversal,2023.1.3,59.922939100279976,3,
7,exp3.png,exp4.png,,0,0,0,0,0,7,7,7,,,,,,,,,,,,,,,,,,,,,,,,,False,6,7,True,exp4.png,exp3.png,trial_left_image,1,exp4.png,3,exp4.png,exp3.png,1,1,non-reversed,correct,0.7191220661375013,1,valid_win,61.9606517000002,5,,,,,,,,,,,,,,,sub_639,2024-07-14_10h53.53.773,Reversal,2023.1.3,59.922939100279976,3,
8,exp1.png,exp2.png,,0,0,0,0,0,8,8,8,,,,,,,,,,,,,,,,,,,,,,,,,False,7,8,False,exp1.png,exp2.png,trial_left_image,1,exp1.png,3,exp2.png,exp1.png,0,4,reversed,incorrect,0.38136568130178694,0,valid_lose,66.5757249999997,5,,,,,,,,,,,,,,,sub_639,2024-07-14_10h53.53.773,Reversal,2023.1.3,59.922939100279976,3,
9,exp3.png,exp4.png,,0,0,0,0,0,9,9,9,,,,,,,,,,,,,,,,,,,,,,,,,False,8,9,False,exp3.png,exp4.png,trial_right_image,-1,exp4.png,3,exp4.png,exp3.png,1,1,non-reversed,correct,0.8332693243450159,1,valid_win,70.53789210000014,6,,,,,,,,,,,,,,,sub_639,2024-07-14_10h53.53.773,Reversal,2023.1.3,59.922939100279976,3,
10,exp1.png,exp2.png,,0,0,0,0,0,10,10,10,,,,,,,,,,,,,,,,,,,,,,,,,False,9,10,False,exp1.png,exp2.png,trial_left_image,1,exp1.png,3,exp2.png,exp1.png,0,4,reversed,incorrect,0.5513147616896674,0,valid_lose,74.60993789999975,6,,,,,,,,,,,,,,,sub_639,2024-07-14_10h53.53.773,Reversal,2023.1.3,59.922939100279976,3,
11,exp3.png,exp4.png,,0,0,0,0,0,11,11,11,,,,,,,,,,,,,,,,,,,,,,,,,False,10,11,False,exp3.png,exp4.png,trial_left_image,1,exp3.png,3,exp4.png,exp3.png,0,2,non-reversed,incorrect,0.49985374560440043,0,valid_lose,78.97156090000044,6,,,,,,,,,,,,,,,sub_639,2024-07-14_10h53.53.773,Reversal,2023.1.3,59.922939100279976,3,
12,exp1.png,exp2.png,,0,0,0,0,0,12,12,12,,,,,,,,,,,,,,,,,,,,,,,,,False,11,12,True,exp2.png,exp1.png,trial_left_image,1,exp2.png,3,exp2.png,exp1.png,1,3,reversed,correct,0.13212590025685655,0,invalid_lose,83.68663960000049,6,,,,,,,,,,,,,,,sub_639,2024-07-14_10h53.53.773,Reversal,2023.1.3,59.922939100279976,3,
13,exp3.png,exp4.png,,0,0,0,0,0,13,13,13,,,,,,,,,,,,,,,,,,,,,,,,,False,12,13,True,exp4.png,exp3.png,trial_right_image,-1,exp3.png,3,exp4.png,exp3.png,0,2,non-reversed,incorrect,0.2836776622722851,0,valid_lose,87.91852000000017,6,,,,,,,,,,,,,,,sub_639,2024-07-14_10h53.53.773,Reversal,2023.1.3,59.922939100279976,3,
14,exp1.png,exp2.png,,0,0,0,0,0,14,14,14,,,,,,,,,,,,,,,,,,,,,,,,,False,13,14,True,exp2.png,exp1.png,trial_right_image,-1,exp1.png,3,exp2.png,exp1.png,0,4,reversed,incorrect,0.4436692199955252,0,valid_lose,91.81929130000026,6,,,,,,,,,,,,,,,sub_639,2024-07-14_10h53.53.773,Reversal,2023.1.3,59.922939100279976,3,
15,exp3.png,exp4.png,,0,0,0,0,0,15,15,15,,,,,,,,,,,,,,,,,,,,,,,,,False,14,15,False,exp3.png,exp4.png,trial_left_image,1,exp3.png,3,exp4.png,exp3.png,0,2,non-reversed,incorrect,0.7100644378773913,0,valid_lose,96.26557020000018,6,,,,,,,,,,,,,,,sub_639,2024-07-14_10h53.53.773,Reversal,2023.1.3,59.922939100279976,3,
16,exp1.png,exp2.png,,0,0,0,0,0,16,16,16,,,,,,,,,,,,,,,,,,,,,,,,,False,15,16,True,exp2.png,exp1.png,trial_right_image,-1,exp1.png,3,exp2.png,exp1.png,0,4,reversed,incorrect,0.11651598733060475,1,invalid_win,102.14687529999992,7,,,,,,,,,,,,,,,sub_639,2024-07-14_10h53.53.773,Reversal,2023.1.3,59.922939100279976,3,
17,exp3.png,exp4.png,,0,0,0,0,0,17,17,17,,,,,,,,,,,,,,,,,,,,,,,,,False,16,17,False,exp3.png,exp4.png,trial_right_image,-1,exp4.png,3,exp4.png,exp3.png,1,1,non-reversed,correct,0.4744649167602988,1,valid_win,110.21123770000031,8,,,,,,,,,,,,,,,sub_639,2024-07-14_10h53.53.773,Reversal,2023.1.3,59.922939100279976,3,
18,exp1.png,exp2.png,,0,0,0,0,0,18,18,18,,,,,,,,,,,,,,,,,,,,,,,,,False,17,18,False,exp1.png,exp2.png,trial_right_image,-1,exp2.png,3,exp2.png,exp1.png,1,3,reversed,correct,0.4079395351060743,1,valid_win,118.54130239999995,9,,,,,,,,,,,,,,,sub_639,2024-07-14_10h53.53.773,Reversal,2023.1.3,59.922939100279976,3,
19,exp3.png,exp4.png,,0,0,0,0,0,19,19,19,,,,,,,,,,,,,,,,,,,,,,,,,False,18,19,True,exp4.png,exp3.png,trial_right_image,-1,exp3.png,3,exp4.png,exp3.png,0,2,non-reversed,incorrect,0.07467740475615714,1,invalid_win,125.88898690000042,10,,,,,,,,,,,,,,,sub_639,2024-07-14_10h53.53.773,Reversal,2023.1.3,59.922939100279976,3,
20,exp1.png,exp2.png,,0,0,0,0,0,20,20,20,,,,,,,,,,,,,,,,,,,,,,,,,False,19,20,False,exp1.png,exp2.png,trial_right_image,-1,exp2.png,3,exp2.png,exp1.png,1,3,reversed,correct,0.4595739621899855,1,valid_win,132.91972650000025,11,,,,,,,,,,,,,,,sub_639,2024-07-14_10h53.53.773,Reversal,2023.1.3,59.922939100279976,3,
,,,exp1.png,0,0,0,0,,,,,0,0,0,0,0,0,0,0,,,,,,,,,,,,,,,,,,,,,,,,,,,,,,,,,,,,,,257.4956019000001,None,None,[],,,,,,,,,,,sub_639,2024-07-14_10h53.53.773,Reversal,2023.1.3,59.922939100279976,3,
,,,exp2.png,0,0,0,0,,,,,0,0,0,0,0,1,1,1,,,,,,,,,,,,,,,,,,,,,,,,,,,,,,,,,,,,,,265.0653347999996,100.0,6.774971599999844,"[(4.0, 1.9591610999996192), (100.0, 6.774971599999844)]",100.0,,,,,,,,,,sub_639,2024-07-14_10h53.53.773,Reversal,2023.1.3,59.922939100279976,3,
,,,exp3.png,0,0,0,0,,,,,0,0,0,0,0,2,2,2,,,,,,,,,,,,,,,,,,,,,,,,,,,,,,,,,,,,,,275.14311460000044,99.0,20.68761690000065,"[(99.0, 20.68761690000065)]",,99.0,,,,,,,,,sub_639,2024-07-14_10h53.53.773,Reversal,2023.1.3,59.922939100279976,3,
,,,exp4.png,0,0,0,0,,,,,0,0,0,0,0,3,3,3,,,,,,,,,,,,,,,,,,,,,,,,,,,,,,,,,,,,,,305.4324365000002,98.0,5.243970000000445,"[(98.0, 5.243970000000445)]",,,98.0,,,,,,,,sub_639,2024-07-14_10h53.53.773,Reversal,2023.1.3,59.922939100279976,3,
0,exp1.png,exp2.png,,1,0,1,0,0,0,0,0,,,,,,,,,,,,,,,,,,,,,,,,,True,,,,,,,,,,,,,,,,,,,,,,,,,,,,,,,,,,,sub_639,2024-07-14_10h53.53.773,Reversal,2023.1.3,59.922939100279976,3,
1,exp3.png,exp4.png,,1,0,1,0,0,1,1,1,,,,,,,,,,,,,,,,,,,,,,,,,False,20,21,True,exp4.png,exp3.png,trial_right_image,-1,exp3.png,3,exp4.png,exp3.png,0,2,non-reversed,incorrect,0.557362164439525,0,valid_lose,199.5969772999997,11,,,,,,,,,,,,,,,sub_639,2024-07-14_10h53.53.773,Reversal,2023.1.3,59.922939100279976,3,
2,exp1.png,exp2.png,,1,0,1,0,0,2,2,2,,,,,,,,,,,,,,,,,,,,,,,,,False,21,22,True,exp2.png,exp1.png,trial_left_image,1,exp2.png,3,exp2.png,exp1.png,1,3,reversed,correct,0.7177384977996937,1,valid_win,203.69990560000042,12,,,,,,,,,,,,,,,sub_639,2024-07-14_10h53.53.773,Reversal,2023.1.3,59.922939100279976,3,
3,exp3.png,exp4.png,,1,0,1,0,0,3,3,3,,,,,,,,,,,,,,,,,,,,,,,,,False,22,23,True,exp4.png,exp3.png,trial_right_image,-1,exp3.png,3,exp4.png,exp3.png,0,2,non-reversed,incorrect,0.9112085283264907,0,valid_lose,208.04306730000008,12,,,,,,,,,,,,,,,sub_639,2024-07-14_10h53.53.773,Reversal,2023.1.3,59.922939100279976,3,
4,exp1.png,exp2.png,,1,0,1,0,0,4,4,4,,,,,,,,,,,,,,,,,,,,,,,,,False,23,24,True,exp2.png,exp1.png,trial_left_image,1,exp2.png,3,exp2.png,exp1.png,1,3,reversed,correct,0.24479031060803025,0,invalid_lose,212.0730768000003,12,,,,,,,,,,,,,,,sub_639,2024-07-14_10h53.53.773,Reversal,2023.1.3,59.922939100279976,3,
5,exp3.png,exp4.png,,1,0,1,0,0,5,5,5,,,,,,,,,,,,,,,,,,,,,,,,,False,24,25,True,exp4.png,exp3.png,trial_left_image,1,exp4.png,3,exp4.png,exp3.png,1,1,non-reversed,correct,0.6977754526255535,1,valid_win,215.97056539999994,13,,,,,,,,,,,,,,,sub_639,2024-07-14_10h53.53.773,Reversal,2023.1.3,59.922939100279976,3,
6,exp1.png,exp2.png,,1,0,1,0,0,6,6,6,,,,,,,,,,,,,,,,,,,,,,,,,False,25,26,False,exp1.png,exp2.png,trial_left_image,1,exp1.png,3,exp2.png,exp1.png,0,4,reversed,incorrect,0.6905654274984274,0,valid_lose,219.97258070000044,13,,,,,,,,,,,,,,,sub_639,2024-07-14_10h53.53.773,Reversal,2023.1.3,59.922939100279976,3,
7,exp3.png,exp4.png,,1,0,1,0,0,7,7,7,,,,,,,,,,,,,,,,,,,,,,,,,False,26,27,False,exp3.png,exp4.png,trial_left_image,1,exp3.png,3,exp4.png,exp3.png,0,2,non-reversed,incorrect,0.13547693824054274,1,invalid_win,223.88679370000045,14,,,,,,,,,,,,,,,sub_639,2024-07-14_10h53.53.773,Reversal,2023.1.3,59.922939100279976,3,
8,exp1.png,exp2.png,,1,0,1,0,0,8,8,8,,,,,,,,,,,,,,,,,,,,,,,,,False,27,28,False,exp1.png,exp2.png,trial_right_image,-1,exp2.png,3,exp2.png,exp1.png,1,3,reversed,correct,0.14256036977663222,0,invalid_lose,227.9567975,14,,,,,,,,,,,,,,,sub_639,2024-07-14_10h53.53.773,Reversal,2023.1.3,59.922939100279976,3,
9,exp3.png,exp4.png,,1,0,1,0,0,9,9,9,,,,,,,,,,,,,,,,,,,,,,,,,False,28,29,True,exp4.png,exp3.png,trial_left_image,1,exp4.png,3,exp4.png,exp3.png,1,1,non-reversed,correct,0.33535196290269553,1,valid_win,231.77634080000007,15,,,,,,,,,,,,,,,sub_639,2024-07-14_10h53.53.773,Reversal,2023.1.3,59.922939100279976,3,
10,exp1.png,exp2.png,,1,0,1,0,0,10,10,10,,,,,,,,,,,,,,,,,,,,,,,,,False,29,30,True,exp2.png,exp1.png,trial_right_image,-1,exp1.png,3,exp2.png,exp1.png,0,4,reversed,incorrect,0.6426669967754016,0,valid_lose,236.40107220000027,15,,,,,,,,,,,,,,,sub_639,2024-07-14_10h53.53.773,Reversal,2023.1.3,59.922939100279976,3,
11,exp3.png,exp4.png,,1,0,1,0,0,11,11,11,,,,,,,,,,,,,,,,,,,,,,,,,False,30,31,True,exp4.png,exp3.png,trial_right_image,-1,exp3.png,3,exp4.png,exp3.png,0,2,non-reversed,incorrect,0.22511982571139055,1,invalid_win,240.12108770000032,16,,,,,,,,,,,,,,,sub_639,2024-07-14_10h53.53.773,Reversal,2023.1.3,59.922939100279976,3,
12,exp1.png,exp2.png,,1,0,1,0,0,12,12,12,,,,,,,,,,,,,,,,,,,,,,,,,False,31,32,False,exp1.png,exp2.png,trial_left_image,1,exp1.png,3,exp2.png,exp1.png,0,4,reversed,incorrect,0.17398880784892368,1,invalid_win,248.33052099999986,17,,,,,,,,,,,,,,,sub_639,2024-07-14_10h53.53.773,Reversal,2023.1.3,59.922939100279976,3,
13,exp3.png,exp4.png,,1,0,1,0,0,13,13,13,,,,,,,,,,,,,,,,,,,,,,,,,False,32,33,True,exp4.png,exp3.png,trial_left_image,1,exp4.png,3,exp4.png,exp3.png,1,1,non-reversed,correct,0.799939174239986,1,valid_win,252.4779725999997,18,,,,,,,,,,,,,,,sub_639,2024-07-14_10h53.53.773,Reversal,2023.1.3,59.922939100279976,3,
14,exp1.png,exp2.png,,1,0,1,0,0,14,14,14,,,,,,,,,,,,,,,,,,,,,,,,,False,33,34,True,exp2.png,exp1.png,trial_left_image,1,exp2.png,3,exp2.png,exp1.png,1,3,reversed,correct,0.38168035567673086,1,valid_win,256.7162803000001,19,,,,,,,,,,,,,,,sub_639,2024-07-14_10h53.53.773,Reversal,2023.1.3,59.922939100279976,3,
15,exp3.png,exp4.png,,1,0,1,0,0,15,15,15,,,,,,,,,,,,,,,,,,,,,,,,,False,34,35,False,exp3.png,exp4.png,trial_left_image,1,exp3.png,3,exp4.png,exp3.png,0,2,non-reversed,incorrect,0.6703951189839669,0,valid_lose,261.00969760000044,19,,,,,,,,,,,,,,,sub_639,2024-07-14_10h53.53.773,Reversal,2023.1.3,59.922939100279976,3,
16,exp1.png,exp2.png,,1,0,1,0,0,16,16,16,,,,,,,,,,,,,,,,,,,,,,,,,False,35,36,False,exp1.png,exp2.png,trial_right_image,-1,exp2.png,3,exp2.png,exp1.png,1,3,reversed,correct,0.13053799380580156,0,invalid_lose,265.09141460000046,19,,,,,,,,,,,,,,,sub_639,2024-07-14_10h53.53.773,Reversal,2023.1.3,59.922939100279976,3,
17,exp3.png,exp4.png,,1,0,1,0,0,17,17,17,,,,,,,,,,,,,,,,,,,,,,,,,False,36,37,False,exp3.png,exp4.png,trial_right_image,-1,exp4.png,3,exp4.png,exp3.png,1,1,non-reversed,correct,0.8112071688569875,1,valid_win,268.95534920000046,20,,,,,,,,,,,,,,,sub_639,2024-07-14_10h53.53.773,Reversal,2023.1.3,59.922939100279976,3,
18,exp1.png,exp2.png,,1,0,1,0,0,18,18,18,,,,,,,,,,,,,,,,,,,,,,,,,False,37,38,False,exp1.png,exp2.png,trial_right_image,-1,exp2.png,3,exp2.png,exp1.png,1,3,reversed,correct,0.7352103281606212,1,valid_win,273.5883349000005,21,,,,,,,,,,,,,,,sub_639,2024-07-14_10h53.53.773,Reversal,2023.1.3,59.922939100279976,3,
19,exp3.png,exp4.png,,1,0,1,0,0,19,19,19,,,,,,,,,,,,,,,,,,,,,,,,,False,38,39,False,exp3.png,exp4.png,trial_right_image,-1,exp4.png,3,exp4.png,exp3.png,1,1,non-reversed,correct,0.1793744212382551,0,invalid_lose,277.4858742000006,21,,,,,,,,,,,,,,,sub_639,2024-07-14_10h53.53.773,Reversal,2023.1.3,59.922939100279976,3,
20,exp1.png,exp2.png,,1,0,1,0,0,20,20,20,,,,,,,,,,,,,,,,,,,,,,,,,False,39,40,False,exp1.png,exp2.png,trial_left_image,1,exp1.png,3,exp2.png,exp1.png,0,4,reversed,incorrect,0.22060396491979928,1,invalid_win,281.8188578999998,22,,,,,,,,,,,,,,,sub_639,2024-07-14_10h53.53.773,Reversal,2023.1.3,59.922939100279976,3,
,,,exp1.png,1,0,1,0,,,,,0,0,0,0,0,0,0,0,,,,,,,,,,,,,,,,,,,,,,,,,,,,,,,,,,,,,,406.3830842999996,99.0,3.6254136999996263,"[(99.0, 3.6254136999996263)]",,,,99.0,,,,,,,sub_639,2024-07-14_10h53.53.773,Reversal,2023.1.3,59.922939100279976,3,
,,,exp2.png,1,0,1,0,,,,,0,0,0,0,0,1,1,1,,,,,,,,,,,,,,,,,,,,,,,,,,,,,,,,,,,,,,411.11202930000036,97.0,4.194172999999864,"[(97.0, 4.194172999999864)]",97.0,,,,,,,,,,sub_639,2024-07-14_10h53.53.773,Reversal,2023.1.3,59.922939100279976,3,
,,,exp3.png,1,0,1,0,,,,,0,0,0,0,0,2,2,2,,,,,,,,,,,,,,,,,,,,,,,,,,,,,,,,,,,,,,416.3762016999999,100.0,4.177171899999848,"[(100.0, 4.177171899999848)]",,100.0,,,,,,,,,sub_639,2024-07-14_10h53.53.773,Reversal,2023.1.3,59.922939100279976,3,
,,,exp4.png,1,0,1,0,,,,,0,0,0,0,0,3,3,3,,,,,,,,,,,,,,,,,,,,,,,,,,,,,,,,,,,,,,421.5763614999996,2.0,4.176368800000091,"[(2.0, 4.176368800000091)]",,,2.0,,,,,,,,sub_639,2024-07-14_10h53.53.773,Reversal,2023.1.3,59.922939100279976,3,
0,exp1.png,exp2.png,,2,0,2,0,0,0,0,0,,,,,,,,,,,,,,,,,,,,,,,,,True,,,,,,,,,,,,,,,,,,,,,,,,,,,,,,,,,,,sub_639,2024-07-14_10h53.53.773,Reversal,2023.1.3,59.922939100279976,3,
1,exp3.png,exp4.png,,2,0,2,0,0,1,1,1,,,,,,,,,,,,,,,,,,,,,,,,,False,40,41,True,exp4.png,exp3.png,trial_right_image,-1,exp3.png,3,exp4.png,exp3.png,0,2,non-reversed,incorrect,0.3330124666535732,0,valid_lose,307.8754205000005,22,,,,,,,,,,,,,,,sub_639,2024-07-14_10h53.53.773,Reversal,2023.1.3,59.922939100279976,3,
2,exp1.png,exp2.png,,2,0,2,0,0,2,2,2,,,,,,,,,,,,,,,,,,,,,,,,,False,41,42,False,exp1.png,exp2.png,trial_right_image,-1,exp2.png,3,exp2.png,exp1.png,1,3,reversed,correct,0.19024412923525535,0,invalid_lose,312.24224049999975,22,,,,,,,,,,,,,,,sub_639,2024-07-14_10h53.53.773,Reversal,2023.1.3,59.922939100279976,3,
3,exp3.png,exp4.png,,2,0,2,0,0,3,3,3,,,,,,,,,,,,,,,,,,,,,,,,,False,42,43,True,exp4.png,exp3.png,trial_right_image,-1,exp3.png,3,exp4.png,exp3.png,0,2,non-reversed,incorrect,0.7796466491942331,0,valid_lose,316.45789890000015,22,,,,,,,,,,,,,,,sub_639,2024-07-14_10h53.53.773,Reversal,2023.1.3,59.922939100279976,3,
4,exp1.png,exp2.png,,2,0,2,0,0,4,4,4,,,,,,,,,,,,,,,,,,,,,,,,,False,43,44,True,exp2.png,exp1.png,trial_right_image,-1,exp1.png,3,exp2.png,exp1.png,0,4,reversed,incorrect,0.4406574102861276,0,valid_lose,320.5219692999999,22,,,,,,,,,,,,,,,sub_639,2024-07-14_10h53.53.773,Reversal,2023.1.3,59.922939100279976,3,
5,exp3.png,exp4.png,,2,0,2,0,0,5,5,5,,,,,,,,,,,,,,,,,,,,,,,,,False,44,45,False,exp3.png,exp4.png,trial_left_image,1,exp3.png,3,exp4.png,exp3.png,0,2,non-reversed,incorrect,0.3070948503117934,0,valid_lose,324.1879878,22,,,,,,,,,,,,,,,sub_639,2024-07-14_10h53.53.773,Reversal,2023.1.3,59.922939100279976,3,
6,exp1.png,exp2.png,,2,0,2,0,0,6,6,6,,,,,,,,,,,,,,,,,,,,,,,,,False,45,46,True,exp2.png,exp1.png,trial_left_image,1,exp2.png,3,exp2.png,exp1.png,1,3,reversed,correct,0.025553611123463216,0,invalid_lose,327.98558109999976,22,,,,,,,,,,,,,,,sub_639,2024-07-14_10h53.53.773,Reversal,2023.1.3,59.922939100279976,3,
7,exp3.png,exp4.png,,2,0,2,0,0,7,7,7,,,,,,,,,,,,,,,,,,,,,,,,,False,46,47,True,exp4.png,exp3.png,trial_right_image,-1,exp3.png,3,exp4.png,exp3.png,0,2,non-reversed,incorrect,0.6763758023152272,0,valid_lose,331.65041050000036,22,,,,,,,,,,,,,,,sub_639,2024-07-14_10h53.53.773,Reversal,2023.1.3,59.922939100279976,3,
8,exp1.png,exp2.png,,2,0,2,0,0,8,8,8,,,,,,,,,,,,,,,,,,,,,,,,,False,47,48,False,exp1.png,exp2.png,trial_left_image,1,exp1.png,3,exp2.png,exp1.png,0,4,reversed,incorrect,0.38068457909402453,0,valid_lose,335.4510644000002,22,,,,,,,,,,,,,,,sub_639,2024-07-14_10h53.53.773,Reversal,2023.1.3,59.922939100279976,3,
9,exp3.png,exp4.png,,2,0,2,0,0,9,9,9,,,,,,,,,,,,,,,,,,,,,,,,,False,48,49,False,exp3.png,exp4.png,trial_right_image,-1,exp4.png,3,exp4.png,exp3.png,1,1,non-reversed,correct,0.9595081087576709,1,valid_win,339.56891840000026,23,,,,,,,,,,,,,,,sub_639,2024-07-14_10h53.53.773,Reversal,2023.1.3,59.922939100279976,3,
10,exp1.png,exp2.png,,2,0,2,0,0,10,10,10,,,,,,,,,,,,,,,,,,,,,,,,,False,49,50,True,exp2.png,exp1.png,trial_left_image,1,exp2.png,3,exp2.png,exp1.png,1,3,reversed,correct,0.15835695297101782,0,invalid_lose,343.73045079999974,23,,,,,,,,,,,,,,,sub_639,2024-07-14_10h53.53.773,Reversal,2023.1.3,59.922939100279976,3,
11,exp3.png,exp4.png,,2,0,2,0,0,11,11,11,,,,,,,,,,,,,,,,,,,,,,,,,False,50,51,True,exp4.png,exp3.png,trial_right_image,-1,exp3.png,3,exp4.png,exp3.png,0,2,non-reversed,incorrect,0.20780096953337268,1,invalid_win,348.21298579999984,24,,,,,,,,,,,,,,,sub_639,2024-07-14_10h53.53.773,Reversal,2023.1.3,59.922939100279976,3,
12,exp1.png,exp2.png,,2,0,2,0,0,12,12,12,,,,,,,,,,,,,,,,,,,,,,,,,False,51,52,True,exp2.png,exp1.png,trial_right_image,-1,exp1.png,3,exp2.png,exp1.png,0,4,reversed,incorrect,0.8560489055706592,0,valid_lose,352.14915999999994,24,,,,,,,,,,,,,,,sub_639,2024-07-14_10h53.53.773,Reversal,2023.1.3,59.922939100279976,3,
13,exp3.png,exp4.png,,2,0,2,0,0,13,13,13,,,,,,,,,,,,,,,,,,,,,,,,,False,52,53,True,exp4.png,exp3.png,trial_right_image,-1,exp3.png,3,exp4.png,exp3.png,0,2,non-reversed,incorrect,0.8820746806488821,0,valid_lose,356.6957962000006,24,,,,,,,,,,,,,,,sub_639,2024-07-14_10h53.53.773,Reversal,2023.1.3,59.922939100279976,3,
14,exp1.png,exp2.png,,2,0,2,0,0,14,14,14,,,,,,,,,,,,,,,,,,,,,,,,,False,53,54,False,exp1.png,exp2.png,trial_left_image,1,exp1.png,3,exp2.png,exp1.png,0,4,reversed,incorrect,0.6671394461064263,0,valid_lose,360.7913102000002,24,,,,,,,,,,,,,,,sub_639,2024-07-14_10h53.53.773,Reversal,2023.1.3,59.922939100279976,3,
15,exp3.png,exp4.png,,2,0,2,0,0,15,15,15,,,,,,,,,,,,,,,,,,,,,,,,,False,54,55,True,exp4.png,exp3.png,trial_right_image,-1,exp3.png,3,exp4.png,exp3.png,0,2,non-reversed,incorrect,0.9508065733598838,0,valid_lose,364.4657847999997,24,,,,,,,,,,,,,,,sub_639,2024-07-14_10h53.53.773,Reversal,2023.1.3,59.922939100279976,3,
16,exp1.png,exp2.png,,2,0,2,0,0,16,16,16,,,,,,,,,,,,,,,,,,,,,,,,,False,55,56,False,exp1.png,exp2.png,trial_right_image,-1,exp2.png,3,exp2.png,exp1.png,1,3,reversed,correct,0.6429772531794978,1,valid_win,368.3634727999997,25,,,,,,,,,,,,,,,sub_639,2024-07-14_10h53.53.773,Reversal,2023.1.3,59.922939100279976,3,
17,exp3.png,exp4.png,,2,0,2,0,0,17,17,17,,,,,,,,,,,,,,,,,,,,,,,,,False,56,57,False,exp3.png,exp4.png,trial_left_image,1,exp3.png,3,exp4.png,exp3.png,0,2,non-reversed,incorrect,0.9604457517209611,0,valid_lose,372.53812480000033,25,,,,,,,,,,,,,,,sub_639,2024-07-14_10h53.53.773,Reversal,2023.1.3,59.922939100279976,3,
18,exp1.png,exp2.png,,2,0,2,0,0,18,18,18,,,,,,,,,,,,,,,,,,,,,,,,,False,57,58,False,exp1.png,exp2.png,trial_right_image,-1,exp2.png,3,exp2.png,exp1.png,1,3,reversed,correct,0.7126875089771517,1,valid_win,376.19012960000055,26,,,,,,,,,,,,,,,sub_639,2024-07-14_10h53.53.773,Reversal,2023.1.3,59.922939100279976,3,
19,exp3.png,exp4.png,,2,0,2,0,0,19,19,19,,,,,,,,,,,,,,,,,,,,,,,,,False,58,59,False,exp3.png,exp4.png,trial_right_image,-1,exp4.png,3,exp4.png,exp3.png,1,1,non-reversed,correct,0.03744460421324747,0,invalid_lose,379.9898457999998,26,,,,,,,,,,,,,,,sub_639,2024-07-14_10h53.53.773,Reversal,2023.1.3,59.922939100279976,3,
20,exp1.png,exp2.png,,2,0,2,0,0,20,20,20,,,,,,,,,,,,,,,,,,,,,,,,,False,59,60,False,exp1.png,exp2.png,trial_right_image,-1,exp2.png,3,exp2.png,exp1.png,1,3,reversed,correct,0.7091328288592026,1,valid_win,384.0717246000004,27,,,,,,,,,,,,,,,sub_639,2024-07-14_10h53.53.773,Reversal,2023.1.3,59.922939100279976,3,
,,,exp1.png,2,0,2,0,,,,,0,0,0,0,0,0,0,0,,,,,,,,,,,,,,,,,,,,,,,,,,,,,,,,,,,,,,508.6466539000003,98.0,3.2118117999998503,"[(98.0, 3.2118117999998503)]",,,,98.0,,,,,,,sub_639,2024-07-14_10h53.53.773,Reversal,2023.1.3,59.922939100279976,3,
,,,exp2.png,2,0,2,0,,,,,0,0,0,0,0,1,1,1,,,,,,,,,,,,,,,,,,,,,,,,,,,,,,,,,,,,,,512.9952022999996,100.0,2.7933382000001075,"[(100.0, 2.7933382000001075)]",100.0,,,,,,,,,,sub_639,2024-07-14_10h53.53.773,Reversal,2023.1.3,59.922939100279976,3,
,,,exp3.png,2,0,2,0,,,,,0,0,0,0,0,2,2,2,,,,,,,,,,,,,,,,,,,,,,,,,,,,,,,,,,,,,,516.7915925999996,14.0,2.2608674999992218,"[(14.0, 2.2608674999992218)]",,14.0,,,,,,,,,sub_639,2024-07-14_10h53.53.773,Reversal,2023.1.3,59.922939100279976,3,
,,,exp4.png,2,0,2,0,,,,,0,0,0,0,0,3,3,3,,,,,,,,,,,,,,,,,,,,,,,,,,,,,,,,,,,,,,520.1912685999996,92.0,2.8769578999999794,"[(92.0, 2.8769578999999794)]",,,92.0,,,,,,,,sub_639,2024-07-14_10h53.53.773,Reversal,2023.1.3,59.922939100279976,3,
0,exp1.png,exp2.png,,3,0,3,0,0,0,0,0,,,,,,,,,,,,,,,,,,,,,,,,,True,,,,,,,,,,,,,,,,,,,,,,,,,,,,,,,,,,,sub_639,2024-07-14_10h53.53.773,Reversal,2023.1.3,59.922939100279976,3,
1,exp3.png,exp4.png,,3,0,3,0,0,1,1,1,,,,,,,,,,,,,,,,,,,,,,,,,False,60,61,True,exp4.png,exp3.png,trial_left_image,1,exp4.png,3,exp4.png,exp3.png,1,1,non-reversed,correct,0.5853057294941721,1,valid_win,404.7646574999999,28,,,,,,,,,,,,,,,sub_639,2024-07-14_10h53.53.773,Reversal,2023.1.3,59.922939100279976,3,
2,exp1.png,exp2.png,,3,0,3,0,0,2,2,2,,,,,,,,,,,,,,,,,,,,,,,,,False,61,62,False,exp1.png,exp2.png,trial_right_image,-1,exp2.png,3,exp2.png,exp1.png,1,3,reversed,correct,0.8926296470913253,1,valid_win,409.24228270000003,29,,,,,,,,,,,,,,,sub_639,2024-07-14_10h53.53.773,Reversal,2023.1.3,59.922939100279976,3,
3,exp3.png,exp4.png,,3,0,3,0,0,3,3,3,,,,,,,,,,,,,,,,,,,,,,,,,False,62,63,False,exp3.png,exp4.png,trial_left_image,1,exp3.png,3,exp4.png,exp3.png,0,2,non-reversed,incorrect,0.7528486399746346,0,valid_lose,413.0799797999998,29,,,,,,,,,,,,,,,sub_639,2024-07-14_10h53.53.773,Reversal,2023.1.3,59.922939100279976,3,
4,exp1.png,exp2.png,,3,0,3,0,0,4,4,4,,,,,,,,,,,,,,,,,,,,,,,,,False,63,64,True,exp2.png,exp1.png,trial_right_image,-1,exp1.png,3,exp2.png,exp1.png,0,4,reversed,incorrect,0.5226898875721796,0,valid_lose,417.1569221,29,,,,,,,,,,,,,,,sub_639,2024-07-14_10h53.53.773,Reversal,2023.1.3,59.922939100279976,3,
5,exp3.png,exp4.png,,3,0,3,0,0,5,5,5,,,,,,,,,,,,,,,,,,,,,,,,,False,64,65,False,exp3.png,exp4.png,trial_right_image,-1,exp4.png,3,exp4.png,exp3.png,1,1,non-reversed,correct,0.15517091028427377,0,invalid_lose,421.3379967999999,29,,,,,,,,,,,,,,,sub_639,2024-07-14_10h53.53.773,Reversal,2023.1.3,59.922939100279976,3,
6,exp1.png,exp2.png,,3,0,3,0,0,6,6,6,,,,,,,,,,,,,,,,,,,,,,,,,False,65,66,True,exp2.png,exp1.png,trial_left_image,1,exp2.png,3,exp2.png,exp1.png,1,3,reversed,correct,0.6485203452946323,1,valid_win,425.5364685000004,30,,,,,,,,,,,,,,,sub_639,2024-07-14_10h53.53.773,Reversal,2023.1.3,59.922939100279976,3,
7,exp3.png,exp4.png,,3,0,3,0,0,7,7,7,,,,,,,,,,,,,,,,,,,,,,,,,False,66,67,True,exp4.png,exp3.png,trial_left_image,1,exp4.png,3,exp4.png,exp3.png,1,1,non-reversed,correct,0.6207854298381879,1,valid_win,429.29408909999984,31,,,,,,,,,,,,,,,sub_639,2024-07-14_10h53.53.773,Reversal,2023.1.3,59.922939100279976,3,
8,exp1.png,exp2.png,,3,0,3,0,0,8,8,8,,,,,,,,,,,,,,,,,,,,,,,,,False,67,68,False,exp1.png,exp2.png,trial_left_image,1,exp1.png,3,exp2.png,exp1.png,0,4,reversed,incorrect,0.987160105328115,0,valid_lose,433.0901436000004,31,,,,,,,,,,,,,,,sub_639,2024-07-14_10h53.53.773,Reversal,2023.1.3,59.922939100279976,3,
9,exp3.png,exp4.png,,3,0,3,0,0,9,9,9,,,,,,,,,,,,,,,,,,,,,,,,,False,68,69,True,exp4.png,exp3.png,trial_left_image,1,exp4.png,3,exp4.png,exp3.png,1,1,non-reversed,correct,0.5275353176710419,1,valid_win,436.8313020000005,32,,,,,,,,,,,,,,,sub_639,2024-07-14_10h53.53.773,Reversal,2023.1.3,59.922939100279976,3,
10,exp1.png,exp2.png,,3,0,3,0,0,10,10,10,,,,,,,,,,,,,,,,,,,,,,,,,False,69,70,True,exp2.png,exp1.png,trial_right_image,-1,exp1.png,3,exp2.png,exp1.png,0,4,reversed,incorrect,0.9073318590529996,0,valid_lose,440.70103560000007,32,,,,,,,,,,,,,,,sub_639,2024-07-14_10h53.53.773,Reversal,2023.1.3,59.922939100279976,3,
11,exp3.png,exp4.png,,3,0,3,0,0,11,11,11,,,,,,,,,,,,,,,,,,,,,,,,,False,70,71,False,exp3.png,exp4.png,trial_left_image,1,exp3.png,3,exp4.png,exp3.png,0,2,non-reversed,incorrect,0.01685611176971169,1,invalid_win,444.31260010000005,33,,,,,,,,,,,,,,,sub_639,2024-07-14_10h53.53.773,Reversal,2023.1.3,59.922939100279976,3,
12,exp1.png,exp2.png,,3,0,3,0,0,12,12,12,,,,,,,,,,,,,,,,,,,,,,,,,False,71,72,False,exp1.png,exp2.png,trial_left_image,1,exp1.png,3,exp2.png,exp1.png,0,4,reversed,incorrect,0.16338906082346405,1,invalid_win,448.6621431000003,34,,,,,,,,,,,,,,,sub_639,2024-07-14_10h53.53.773,Reversal,2023.1.3,59.922939100279976,3,
13,exp3.png,exp4.png,,3,0,3,0,0,13,13,13,,,,,,,,,,,,,,,,,,,,,,,,,False,72,73,True,exp4.png,exp3.png,trial_left_image,1,exp4.png,3,exp4.png,exp3.png,1,1,non-reversed,correct,0.5180574752918502,1,valid_win,452.52516449999985,35,,,,,,,,,,,,,,,sub_639,2024-07-14_10h53.53.773,Reversal,2023.1.3,59.922939100279976,3,
14,exp1.png,exp2.png,,3,0,3,0,0,14,14,14,,,,,,,,,,,,,,,,,,,,,,,,,False,73,74,True,exp2.png,exp1.png,trial_left_image,1,exp2.png,3,exp2.png,exp1.png,1,3,reversed,correct,0.27733695906161193,1,valid_win,456.5599757,36,,,,,,,,,,,,,,,sub_639,2024-07-14_10h53.53.773,Reversal,2023.1.3,59.922939100279976,3,
15,exp3.png,exp4.png,,3,0,3,0,0,15,15,15,,,,,,,,,,,,,,,,,,,,,,,,,False,74,75,False,exp3.png,exp4.png,trial_left_image,1,exp3.png,3,exp4.png,exp3.png,0,2,non-reversed,incorrect,0.47984165306495974,0,valid_lose,460.57476469999983,36,,,,,,,,,,,,,,,sub_639,2024-07-14_10h53.53.773,Reversal,2023.1.3,59.922939100279976,3,
16,exp1.png,exp2.png,,3,0,3,0,0,16,16,16,,,,,,,,,,,,,,,,,,,,,,,,,False,75,76,True,exp2.png,exp1.png,trial_left_image,1,exp2.png,3,exp2.png,exp1.png,1,3,reversed,correct,0.7761941635982474,1,valid_win,464.3748900999999,37,,,,,,,,,,,,,,,sub_639,2024-07-14_10h53.53.773,Reversal,2023.1.3,59.922939100279976,3,
17,exp3.png,exp4.png,,3,0,3,0,0,17,17,17,,,,,,,,,,,,,,,,,,,,,,,,,False,76,77,True,exp4.png,exp3.png,trial_left_image,1,exp4.png,3,exp4.png,exp3.png,1,1,non-reversed,correct,0.23190246834190842,0,invalid_lose,468.7216582000001,37,,,,,,,,,,,,,,,sub_639,2024-07-14_10h53.53.773,Reversal,2023.1.3,59.922939100279976,3,
18,exp1.png,exp2.png,,3,0,3,0,0,18,18,18,,,,,,,,,,,,,,,,,,,,,,,,,False,77,78,False,exp1.png,exp2.png,trial_right_image,-1,exp2.png,3,exp2.png,exp1.png,1,3,reversed,correct,0.38903787885654595,1,valid_win,472.3259227999997,38,,,,,,,,,,,,,,,sub_639,2024-07-14_10h53.53.773,Reversal,2023.1.3,59.922939100279976,3,
19,exp3.png,exp4.png,,3,0,3,0,0,19,19,19,,,,,,,,,,,,,,,,,,,,,,,,,False,78,79,False,exp3.png,exp4.png,trial_right_image,-1,exp4.png,3,exp4.png,exp3.png,1,1,non-reversed,correct,0.2579816802085132,1,valid_win,475.8735895,39,,,,,,,,,,,,,,,sub_639,2024-07-14_10h53.53.773,Reversal,2023.1.3,59.922939100279976,3,
20,exp1.png,exp2.png,,3,0,3,0,0,20,20,20,,,,,,,,,,,,,,,,,,,,,,,,,False,79,80,False,exp1.png,exp2.png,trial_right_image,-1,exp2.png,3,exp2.png,exp1.png,1,3,reversed,correct,0.36599186688848906,1,valid_win,479.50794620000033,40,,,,,,,,,,,,,,,sub_639,2024-07-14_10h53.53.773,Reversal,2023.1.3,59.922939100279976,3,
,,,exp1.png,3,0,3,0,,,,,0,0,0,0,0,0,0,0,,,,,,,,,,,,,,,,,,,,,,,,,,,,,,,,,,,,,,604.0656589,92.0,2.526651999999558,"[(92.0, 2.526651999999558)]",,,,92.0,,,,,,,sub_639,2024-07-14_10h53.53.773,Reversal,2023.1.3,59.922939100279976,3,
,,,exp2.png,3,0,3,0,,,,,0,0,0,0,0,1,1,1,,,,,,,,,,,,,,,,,,,,,,,,,,,,,,,,,,,,,,608.4119351999998,97.0,4.710615700000744,"[(97.0, 4.710615700000744)]",97.0,,,,,,,,,,sub_639,2024-07-14_10h53.53.773,Reversal,2023.1.3,59.922939100279976,3,
,,,exp3.png,3,0,3,0,,,,,0,0,0,0,0,2,2,2,,,,,,,,,,,,,,,,,,,,,,,,,,,,,,,,,,,,,,614.1087840999999,92.0,2.3454454000002443,"[(92.0, 2.3454454000002443)]",,92.0,,,,,,,,,sub_639,2024-07-14_10h53.53.773,Reversal,2023.1.3,59.922939100279976,3,
,,,exp4.png,3,0,3,0,,,,,0,0,0,0,0,3,3,3,,,,,,,,,,,,,,,,,,,,,,,,,,,,,,,,,,,,,,617.3919458999999,8.0,2.6264576000003217,"[(8.0, 2.6264576000003217)]",,,8.0,,,,,,,,sub_639,2024-07-14_10h53.53.773,Reversal,2023.1.3,59.922939100279976,3,
0,exp1.png,exp2.png,,,,,,,,,,,,,,,,,,0,0,0,0,0,0,0,0,,,,,,,,,True,,,,,,,,,,,,,,,,,,,,,,,,,,,,,,,,,,,sub_639,2024-07-14_10h53.53.773,Reversal,2023.1.3,59.922939100279976,3,
1,exp3.png,exp4.png,,,,,,,,,,,,,,,,,,0,0,0,0,0,1,1,1,,,,,,,,,False,0,81,True,exp4.png,exp3.png,trial_left_image,1,exp4.png,3,exp4.png,exp3.png,1,1,non-reversed,correct,0.8516607925877965,1,valid_win,502.5267515000005,41,,,,,,,,,499.08051049999995,,,,,,sub_639,2024-07-14_10h53.53.773,Reversal,2023.1.3,59.922939100279976,3,
2,exp1.png,exp2.png,,,,,,,,,,,,,,,,,,0,0,0,0,0,2,2,2,,,,,,,,,False,1,82,True,exp2.png,exp1.png,trial_right_image,-1,exp1.png,3,exp1.png,exp2.png,0,4,reversed,correct,0.2232210467157576,0,invalid_lose,506.5662030000003,41,,,,,,,,,,,,,,,sub_639,2024-07-14_10h53.53.773,Reversal,2023.1.3,59.922939100279976,3,
3,exp3.png,exp4.png,,,,,,,,,,,,,,,,,,0,0,0,0,0,3,3,3,,,,,,,,,False,2,83,True,exp4.png,exp3.png,trial_left_image,1,exp4.png,3,exp4.png,exp3.png,1,1,non-reversed,correct,0.9650035640511407,1,valid_win,510.99123409999993,42,,,,,,,,,,,,,,,sub_639,2024-07-14_10h53.53.773,Reversal,2023.1.3,59.922939100279976,3,
4,exp1.png,exp2.png,,,,,,,,,,,,,,,,,,0,0,0,0,0,4,4,4,,,,,,,,,False,3,84,False,exp1.png,exp2.png,trial_left_image,1,exp1.png,3,exp1.png,exp2.png,0,4,reversed,correct,0.03281946005382741,0,invalid_lose,515.4225603000004,42,,,,,,,,,,,,,,,sub_639,2024-07-14_10h53.53.773,Reversal,2023.1.3,59.922939100279976,3,
5,exp3.png,exp4.png,,,,,,,,,,,,,,,,,,0,0,0,0,0,5,5,5,,,,,,,,,False,4,85,False,exp3.png,exp4.png,trial_right_image,-1,exp4.png,3,exp4.png,exp3.png,1,1,non-reversed,correct,0.3636774663719612,1,valid_win,519.4267117999998,43,,,,,,,,,,,,,,,sub_639,2024-07-14_10h53.53.773,Reversal,2023.1.3,59.922939100279976,3,
6,exp1.png,exp2.png,,,,,,,,,,,,,,,,,,0,0,0,0,0,6,6,6,,,,,,,,,False,5,86,True,exp2.png,exp1.png,trial_right_image,-1,exp1.png,3,exp1.png,exp2.png,0,4,reversed,correct,0.5609136769578633,1,valid_win,524.9860459000001,44,,,,,,,,,,,,,,,sub_639,2024-07-14_10h53.53.773,Reversal,2023.1.3,59.922939100279976,3,
7,exp3.png,exp4.png,,,,,,,,,,,,,,,,,,0,0,0,0,0,7,7,7,,,,,,,,,False,6,87,False,exp3.png,exp4.png,trial_right_image,-1,exp4.png,3,exp4.png,exp3.png,1,1,non-reversed,correct,0.5592040292574547,1,valid_win,529.2510023000004,45,,,,,,,,,,,,,,,sub_639,2024-07-14_10h53.53.773,Reversal,2023.1.3,59.922939100279976,3,
8,exp1.png,exp2.png,,,,,,,,,,,,,,,,,,0,0,0,0,0,8,8,8,,,,,,,,,False,7,88,False,exp1.png,exp2.png,trial_right_image,-1,exp2.png,3,exp1.png,exp2.png,1,3,reversed,incorrect,0.4179481005925827,0,valid_lose,533.3702025000002,45,,,,,,,,,,,,,,,sub_639,2024-07-14_10h53.53.773,Reversal,2023.1.3,59.922939100279976,3,
9,exp3.png,exp4.png,,,,,,,,,,,,,,,,,,0,0,0,0,0,9,9,9,,,,,,,,,False,8,89,True,exp4.png,exp3.png,trial_left_image,1,exp4.png,3,exp4.png,exp3.png,1,1,non-reversed,correct,0.5605093645141619,1,valid_win,537.6484663000001,46,,,,,,,,,,,,,,,sub_639,2024-07-14_10h53.53.773,Reversal,2023.1.3,59.922939100279976,3,
10,exp1.png,exp2.png,,,,,,,,,,,,,,,,,,0,0,0,0,0,10,10,10,,,,,,,,,False,9,90,False,exp1.png,exp2.png,trial_left_image,1,exp1.png,3,exp1.png,exp2.png,0,4,reversed,correct,0.7081850738084077,1,valid_win,541.4646785000004,47,,,,,,,,,,,,,,,sub_639,2024-07-14_10h53.53.773,Reversal,2023.1.3,59.922939100279976,3,
11,exp3.png,exp4.png,,,,,,,,,,,,,,,,,,0,0,0,0,0,11,11,11,,,,,,,,,False,10,91,False,exp3.png,exp4.png,trial_left_image,1,exp3.png,3,exp4.png,exp3.png,0,2,non-reversed,incorrect,0.9521309673278922,0,valid_lose,545.4636298000005,47,,,,,,,,,,,,,,,sub_639,2024-07-14_10h53.53.773,Reversal,2023.1.3,59.922939100279976,3,
12,exp1.png,exp2.png,,,,,,,,,,,,,,,,,,0,0,0,0,0,12,12,12,,,,,,,,,False,11,92,False,exp1.png,exp2.png,trial_left_image,1,exp1.png,3,exp1.png,exp2.png,0,4,reversed,correct,0.3380663233590733,1,valid_win,549.6443635000005,48,,,,,,,,,,,,,,,sub_639,2024-07-14_10h53.53.773,Reversal,2023.1.3,59.922939100279976,3,
13,exp3.png,exp4.png,,,,,,,,,,,,,,,,,,0,0,0,0,0,13,13,13,,,,,,,,,False,12,93,True,exp4.png,exp3.png,trial_right_image,-1,exp3.png,3,exp4.png,exp3.png,0,2,non-reversed,incorrect,0.7215505436121101,0,valid_lose,553.3605315000004,48,,,,,,,,,,,,,,,sub_639,2024-07-14_10h53.53.773,Reversal,2023.1.3,59.922939100279976,3,
14,exp1.png,exp2.png,,,,,,,,,,,,,,,,,,0,0,0,0,0,14,14,14,,,,,,,,,False,13,94,True,exp2.png,exp1.png,trial_left_image,1,exp2.png,3,exp1.png,exp2.png,1,3,reversed,incorrect,0.6190979274236573,0,valid_lose,557.5894564,48,,,,,,,,,,,,,,,sub_639,2024-07-14_10h53.53.773,Reversal,2023.1.3,59.922939100279976,3,
15,exp3.png,exp4.png,,,,,,,,,,,,,,,,,,0,0,0,0,0,15,15,15,,,,,,,,,False,14,95,False,exp3.png,exp4.png,trial_right_image,-1,exp4.png,3,exp4.png,exp3.png,1,1,non-reversed,correct,0.0749382238149654,0,invalid_lose,561.7063005999998,48,,,,,,,,,,,,,,,sub_639,2024-07-14_10h53.53.773,Reversal,2023.1.3,59.922939100279976,3,
16,exp1.png,exp2.png,,,,,,,,,,,,,,,,,,0,0,0,0,0,16,16,16,,,,,,,,,False,15,96,False,exp1.png,exp2.png,trial_left_image,1,exp1.png,3,exp1.png,exp2.png,0,4,reversed,correct,0.9646042393642822,1,valid_win,565.6727382999998,49,,,,,,,,,,,,,,,sub_639,2024-07-14_10h53.53.773,Reversal,2023.1.3,59.922939100279976,3,
17,exp3.png,exp4.png,,,,,,,,,,,,,,,,,,0,0,0,0,0,17,17,17,,,,,,,,,False,16,97,True,exp4.png,exp3.png,trial_right_image,-1,exp3.png,3,exp4.png,exp3.png,0,2,non-reversed,incorrect,0.6316776432017699,0,valid_lose,569.4700443000002,49,,,,,,,,,,,,,,,sub_639,2024-07-14_10h53.53.773,Reversal,2023.1.3,59.922939100279976,3,
18,exp1.png,exp2.png,,,,,,,,,,,,,,,,,,0,0,0,0,0,18,18,18,,,,,,,,,False,17,98,True,exp2.png,exp1.png,trial_left_image,1,exp2.png,3,exp1.png,exp2.png,1,3,reversed,incorrect,0.3766070728164054,0,valid_lose,573.1191630000003,49,,,,,,,,,,,,,,,sub_639,2024-07-14_10h53.53.773,Reversal,2023.1.3,59.922939100279976,3,
19,exp3.png,exp4.png,,,,,,,,,,,,,,,,,,0,0,0,0,0,19,19,19,,,,,,,,,False,18,99,True,exp4.png,exp3.png,trial_left_image,1,exp4.png,3,exp4.png,exp3.png,1,1,non-reversed,correct,0.33832749305851406,1,valid_win,577.1847851000002,50,,,,,,,,,,,,,,,sub_639,2024-07-14_10h53.53.773,Reversal,2023.1.3,59.922939100279976,3,
20,exp1.png,exp2.png,,,,,,,,,,,,,,,,,,0,0,0,0,0,20,20,20,,,,,,,,,False,19,100,False,exp1.png,exp2.png,trial_left_image,1,exp1.png,3,exp1.png,exp2.png,0,4,reversed,correct,0.7410615290658874,1,valid_win,581.2833812999997,51,,,,,,,,,,,,,,,sub_639,2024-07-14_10h53.53.773,Reversal,2023.1.3,59.922939100279976,3,
,,,exp1.png,,,,,,,,,,,,,,,,,0,0,0,0,,,,,0,0,0,0,0,0,0,0,,,,,,,,,,,,,,,,,,,,,,705.8550033000001,100.0,3.069814700000279,"[(89.0, 2.1380270999998174), (100.0, 3.069814700000279)]",,,,100.0,,,,,,,sub_639,2024-07-14_10h53.53.773,Reversal,2023.1.3,59.922939100279976,3,
,,,exp2.png,,,,,,,,,,,,,,,,,0,0,0,0,,,,,0,0,0,0,0,1,1,1,,,,,,,,,,,,,,,,,,,,,,710.0602925000003,94.0,4.526637400000254,"[(94.0, 4.526637400000254)]",94.0,,,,,,,,,,sub_639,2024-07-14_10h53.53.773,Reversal,2023.1.3,59.922939100279976,3,
,,,exp3.png,,,,,,,,,,,,,,,,,0,0,0,0,,,,,0,0,0,0,0,2,2,2,,,,,,,,,,,,,,,,,,,,,,715.6748514000001,90.0,2.2101246999991417,"[(90.0, 2.2101246999991417)]",,90.0,,,,,,,,,sub_639,2024-07-14_10h53.53.773,Reversal,2023.1.3,59.922939100279976,3,
,,,exp4.png,,,,,,,,,,,,,,,,,0,0,0,0,,,,,0,0,0,0,0,3,3,3,,,,,,,,,,,,,,,,,,,,,,718.8235679999998,83.0,1.860713800000667,"[(83.0, 1.860713800000667)]",,,83.0,,,,,,,,sub_639,2024-07-14_10h53.53.773,Reversal,2023.1.3,59.922939100279976,3,
0,exp1.png,exp2.png,,,,,,,,,,,,,,,,,,1,0,1,0,0,0,0,0,,,,,,,,,True,,,,,,,,,,,,,,,,,,,,,,,,,,,,,,,,,,,sub_639,2024-07-14_10h53.53.773,Reversal,2023.1.3,59.922939100279976,3,
1,exp3.png,exp4.png,,,,,,,,,,,,,,,,,,1,0,1,0,0,1,1,1,,,,,,,,,False,20,101,True,exp4.png,exp3.png,trial_left_image,1,exp4.png,3,exp4.png,exp3.png,1,1,non-reversed,correct,0.5518882751798331,1,valid_win,602.0647454,52,,,,,,,,,,,,,,,sub_639,2024-07-14_10h53.53.773,Reversal,2023.1.3,59.922939100279976,3,
2,exp1.png,exp2.png,,,,,,,,,,,,,,,,,,1,0,1,0,0,2,2,2,,,,,,,,,False,21,102,True,exp2.png,exp1.png,trial_left_image,1,exp2.png,3,exp1.png,exp2.png,1,3,reversed,incorrect,0.7695741707895734,0,valid_lose,606.3080928999998,52,,,,,,,,,,,,,,,sub_639,2024-07-14_10h53.53.773,Reversal,2023.1.3,59.922939100279976,3,
3,exp3.png,exp4.png,,,,,,,,,,,,,,,,,,1,0,1,0,0,3,3,3,,,,,,,,,False,22,103,True,exp4.png,exp3.png,trial_right_image,-1,exp3.png,3,exp4.png,exp3.png,0,2,non-reversed,incorrect,0.675740642254365,0,valid_lose,611.3065760999998,52,,,,,,,,,,,,,,,sub_639,2024-07-14_10h53.53.773,Reversal,2023.1.3,59.922939100279976,3,
4,exp1.png,exp2.png,,,,,,,,,,,,,,,,,,1,0,1,0,0,4,4,4,,,,,,,,,False,23,104,False,exp1.png,exp2.png,trial_right_image,-1,exp2.png,3,exp1.png,exp2.png,1,3,reversed,incorrect,0.6308077774927198,0,valid_lose,615.0547578000005,52,,,,,,,,,,,,,,,sub_639,2024-07-14_10h53.53.773,Reversal,2023.1.3,59.922939100279976,3,
5,exp3.png,exp4.png,,,,,,,,,,,,,,,,,,1,0,1,0,0,5,5,5,,,,,,,,,False,24,105,True,exp4.png,exp3.png,trial_right_image,-1,exp3.png,3,exp4.png,exp3.png,0,2,non-reversed,incorrect,0.35147226539152987,0,valid_lose,618.9705504000003,52,,,,,,,,,,,,,,,sub_639,2024-07-14_10h53.53.773,Reversal,2023.1.3,59.922939100279976,3,
6,exp1.png,exp2.png,,,,,,,,,,,,,,,,,,1,0,1,0,0,6,6,6,,,,,,,,,False,25,106,True,exp2.png,exp1.png,trial_left_image,1,exp2.png,3,exp1.png,exp2.png,1,3,reversed,incorrect,0.18136887453140782,1,invalid_win,622.6911596999998,53,,,,,,,,,,,,,,,sub_639,2024-07-14_10h53.53.773,Reversal,2023.1.3,59.922939100279976,3,
7,exp3.png,exp4.png,,,,,,,,,,,,,,,,,,1,0,1,0,0,7,7,7,,,,,,,,,False,26,107,False,exp3.png,exp4.png,trial_left_image,1,exp3.png,3,exp4.png,exp3.png,0,2,non-reversed,incorrect,0.8386325093985229,0,valid_lose,627.0018130999997,53,,,,,,,,,,,,,,,sub_639,2024-07-14_10h53.53.773,Reversal,2023.1.3,59.922939100279976,3,
8,exp1.png,exp2.png,,,,,,,,,,,,,,,,,,1,0,1,0,0,8,8,8,,,,,,,,,False,27,108,True,exp2.png,exp1.png,trial_right_image,-1,exp1.png,3,exp1.png,exp2.png,0,4,reversed,correct,0.6235329566660618,1,valid_win,631.0502684000003,54,,,,,,,,,,,,,,,sub_639,2024-07-14_10h53.53.773,Reversal,2023.1.3,59.922939100279976,3,
9,exp3.png,exp4.png,,,,,,,,,,,,,,,,,,1,0,1,0,0,9,9,9,,,,,,,,,False,28,109,False,exp3.png,exp4.png,trial_right_image,-1,exp4.png,3,exp4.png,exp3.png,1,1,non-reversed,correct,0.504115580381976,1,valid_win,634.6980312000005,55,,,,,,,,,,,,,,,sub_639,2024-07-14_10h53.53.773,Reversal,2023.1.3,59.922939100279976,3,
10,exp1.png,exp2.png,,,,,,,,,,,,,,,,,,1,0,1,0,0,10,10,10,,,,,,,,,False,29,110,False,exp1.png,exp2.png,trial_right_image,-1,exp2.png,3,exp1.png,exp2.png,1,3,reversed,incorrect,0.6681904877567753,0,valid_lose,638.2333803000001,55,,,,,,,,,,,,,,,sub_639,2024-07-14_10h53.53.773,Reversal,2023.1.3,59.922939100279976,3,
11,exp3.png,exp4.png,,,,,,,,,,,,,,,,,,1,0,1,0,0,11,11,11,,,,,,,,,False,30,111,False,exp3.png,exp4.png,trial_right_image,-1,exp4.png,3,exp4.png,exp3.png,1,1,non-reversed,correct,0.4732548205468491,1,valid_win,641.7664896000006,56,,,,,,,,,,,,,,,sub_639,2024-07-14_10h53.53.773,Reversal,2023.1.3,59.922939100279976,3,
12,exp1.png,exp2.png,,,,,,,,,,,,,,,,,,1,0,1,0,0,12,12,12,,,,,,,,,False,31,112,False,exp1.png,exp2.png,trial_left_image,1,exp1.png,3,exp1.png,exp2.png,0,4,reversed,correct,0.015534353036435578,0,invalid_lose,645.9620740999999,56,,,,,,,,,,,,,,,sub_639,2024-07-14_10h53.53.773,Reversal,2023.1.3,59.922939100279976,3,
13,exp3.png,exp4.png,,,,,,,,,,,,,,,,,,1,0,1,0,0,13,13,13,,,,,,,,,False,32,113,True,exp4.png,exp3.png,trial_right_image,-1,exp3.png,3,exp4.png,exp3.png,0,2,non-reversed,incorrect,0.3007663840721775,0,valid_lose,649.9434933000002,56,,,,,,,,,,,,,,,sub_639,2024-07-14_10h53.53.773,Reversal,2023.1.3,59.922939100279976,3,
14,exp1.png,exp2.png,,,,,,,,,,,,,,,,,,1,0,1,0,0,14,14,14,,,,,,,,,False,33,114,False,exp1.png,exp2.png,trial_left_image,1,exp1.png,3,exp1.png,exp2.png,0,4,reversed,correct,0.9171914485025255,1,valid_win,654.0418743,57,,,,,,,,,,,,,,,sub_639,2024-07-14_10h53.53.773,Reversal,2023.1.3,59.922939100279976,3,
15,exp3.png,exp4.png,,,,,,,,,,,,,,,,,,1,0,1,0,0,15,15,15,,,,,,,,,False,34,115,True,exp4.png,exp3.png,trial_left_image,1,exp4.png,3,exp4.png,exp3.png,1,1,non-reversed,correct,0.7235073357456564,1,valid_win,658.2246181999999,58,,,,,,,,,,,,,,,sub_639,2024-07-14_10h53.53.773,Reversal,2023.1.3,59.922939100279976,3,
16,exp1.png,exp2.png,,,,,,,,,,,,,,,,,,1,0,1,0,0,16,16,16,,,,,,,,,False,35,116,False,exp1.png,exp2.png,trial_left_image,1,exp1.png,3,exp1.png,exp2.png,0,4,reversed,correct,0.7797065308437846,1,valid_win,662.3580047000005,59,,,,,,,,,,,,,,,sub_639,2024-07-14_10h53.53.773,Reversal,2023.1.3,59.922939100279976,3,
17,exp3.png,exp4.png,,,,,,,,,,,,,,,,,,1,0,1,0,0,17,17,17,,,,,,,,,False,36,117,True,exp4.png,exp3.png,trial_left_image,1,exp4.png,3,exp4.png,exp3.png,1,1,non-reversed,correct,0.9455974296135748,1,valid_win,666.6879207000002,60,,,,,,,,,,,,,,,sub_639,2024-07-14_10h53.53.773,Reversal,2023.1.3,59.922939100279976,3,
18,exp1.png,exp2.png,,,,,,,,,,,,,,,,,,1,0,1,0,0,18,18,18,,,,,,,,,False,37,118,False,exp1.png,exp2.png,trial_left_image,1,exp1.png,3,exp1.png,exp2.png,0,4,reversed,correct,0.9985219334093676,1,valid_win,670.8445587000006,61,,,,,,,,,,,,,,,sub_639,2024-07-14_10h53.53.773,Reversal,2023.1.3,59.922939100279976,3,
19,exp3.png,exp4.png,,,,,,,,,,,,,,,,,,1,0,1,0,0,19,19,19,,,,,,,,,False,38,119,False,exp3.png,exp4.png,trial_left_image,1,exp3.png,3,exp4.png,exp3.png,0,2,non-reversed,incorrect,0.027643283582077238,1,invalid_win,675.0016377000002,62,,,,,,,,,,,,,,,sub_639,2024-07-14_10h53.53.773,Reversal,2023.1.3,59.922939100279976,3,
20,exp1.png,exp2.png,,,,,,,,,,,,,,,,,,1,0,1,0,0,20,20,20,,,,,,,,,False,39,120,True,exp2.png,exp1.png,trial_left_image,1,exp2.png,3,exp1.png,exp2.png,1,3,reversed,incorrect,0.01657209074075261,1,invalid_win,678.7061324000006,63,,,,,,,,,,,,,,,sub_639,2024-07-14_10h53.53.773,Reversal,2023.1.3,59.922939100279976,3,
,,,exp1.png,,,,,,,,,,,,,,,,,1,0,1,0,,,,,0,0,0,0,0,0,0,0,,,,,,,,,,,,,,,,,,,,,,803.2800751000004,98.0,2.013488200000211,"[(98.0, 2.013488200000211)]",,,,98.0,,,,,,,sub_639,2024-07-14_10h53.53.773,Reversal,2023.1.3,59.922939100279976,3,
,,,exp2.png,,,,,,,,,,,,,,,,,1,0,1,0,,,,,0,0,0,0,0,1,1,1,,,,,,,,,,,,,,,,,,,,,,806.4779145000002,97.0,1.5449418999996851,"[(97.0, 1.5449418999996851)]",97.0,,,,,,,,,,sub_639,2024-07-14_10h53.53.773,Reversal,2023.1.3,59.922939100279976,3,
,,,exp3.png,,,,,,,,,,,,,,,,,1,0,1,0,,,,,0,0,0,0,0,2,2,2,,,,,,,,,,,,,,,,,,,,,,809.0932025000002,90.0,1.7785774000003585,"[(90.0, 1.7785774000003585)]",,90.0,,,,,,,,,sub_639,2024-07-14_10h53.53.773,Reversal,2023.1.3,59.922939100279976,3,
,,,exp4.png,,,,,,,,,,,,,,,,,1,0,1,0,,,,,0,0,0,0,0,3,3,3,,,,,,,,,,,,,,,,,,,,,,812.0083905000001,6.0,1.894242000000304,"[(6.0, 1.894242000000304)]",,,6.0,,,,,,,,sub_639,2024-07-14_10h53.53.773,Reversal,2023.1.3,59.922939100279976,3,
0,exp1.png,exp2.png,,,,,,,,,,,,,,,,,,2,0,2,0,0,0,0,0,,,,,,,,,True,,,,,,,,,,,,,,,,,,,,,,,,,,,,,,,,,,,sub_639,2024-07-14_10h53.53.773,Reversal,2023.1.3,59.922939100279976,3,
1,exp3.png,exp4.png,,,,,,,,,,,,,,,,,,2,0,2,0,0,1,1,1,,,,,,,,,False,40,121,False,exp3.png,exp4.png,trial_right_image,-1,exp4.png,3,exp4.png,exp3.png,1,1,non-reversed,correct,0.8993951305572706,1,valid_win,694.9952111000002,64,,,,,,,,,,,,,,,sub_639,2024-07-14_10h53.53.773,Reversal,2023.1.3,59.922939100279976,3,
2,exp1.png,exp2.png,,,,,,,,,,,,,,,,,,2,0,2,0,0,2,2,2,,,,,,,,,False,41,122,True,exp2.png,exp1.png,trial_right_image,-1,exp1.png,3,exp1.png,exp2.png,0,4,reversed,correct,0.3852608971426833,1,valid_win,698.6958193999999,65,,,,,,,,,,,,,,,sub_639,2024-07-14_10h53.53.773,Reversal,2023.1.3,59.922939100279976,3,
3,exp3.png,exp4.png,,,,,,,,,,,,,,,,,,2,0,2,0,0,3,3,3,,,,,,,,,False,42,123,True,exp4.png,exp3.png,trial_right_image,-1,exp3.png,3,exp4.png,exp3.png,0,2,non-reversed,incorrect,0.5947521465713034,0,valid_lose,702.3315981000005,65,,,,,,,,,,,,,,,sub_639,2024-07-14_10h53.53.773,Reversal,2023.1.3,59.922939100279976,3,
4,exp1.png,exp2.png,,,,,,,,,,,,,,,,,,2,0,2,0,0,4,4,4,,,,,,,,,False,43,124,False,exp1.png,exp2.png,trial_left_image,1,exp1.png,3,exp1.png,exp2.png,0,4,reversed,correct,0.979710705917796,1,valid_win,706.5738498000001,66,,,,,,,,,,,,,,,sub_639,2024-07-14_10h53.53.773,Reversal,2023.1.3,59.922939100279976,3,
5,exp3.png,exp4.png,,,,,,,,,,,,,,,,,,2,0,2,0,0,5,5,5,,,,,,,,,False,44,125,True,exp4.png,exp3.png,trial_left_image,1,exp4.png,3,exp4.png,exp3.png,1,1,non-reversed,correct,0.713217673037931,1,valid_win,710.2778796000002,67,,,,,,,,,,,,,,,sub_639,2024-07-14_10h53.53.773,Reversal,2023.1.3,59.922939100279976,3,
6,exp1.png,exp2.png,,,,,,,,,,,,,,,,,,2,0,2,0,0,6,6,6,,,,,,,,,False,45,126,False,exp1.png,exp2.png,trial_left_image,1,exp1.png,3,exp1.png,exp2.png,0,4,reversed,correct,0.728438799244909,1,valid_win,713.9911546000003,68,,,,,,,,,,,,,,,sub_639,2024-07-14_10h53.53.773,Reversal,2023.1.3,59.922939100279976,3,
7,exp3.png,exp4.png,,,,,,,,,,,,,,,,,,2,0,2,0,0,7,7,7,,,,,,,,,False,46,127,False,exp3.png,exp4.png,trial_left_image,1,exp3.png,3,exp4.png,exp3.png,0,2,non-reversed,incorrect,0.04283550877881048,1,invalid_win,717.6643466000005,69,,,,,,,,,,,,,,,sub_639,2024-07-14_10h53.53.773,Reversal,2023.1.3,59.922939100279976,3,
8,exp1.png,exp2.png,,,,,,,,,,,,,,,,,,2,0,2,0,0,8,8,8,,,,,,,,,False,47,128,False,exp1.png,exp2.png,trial_left_image,1,exp1.png,3,exp1.png,exp2.png,0,4,reversed,correct,0.7934008680101234,1,valid_win,721.3943563000003,70,,,,,,,,,,,,,,,sub_639,2024-07-14_10h53.53.773,Reversal,2023.1.3,59.922939100279976,3,
9,exp3.png,exp4.png,,,,,,,,,,,,,,,,,,2,0,2,0,0,9,9,9,,,,,,,,,False,48,129,True,exp4.png,exp3.png,trial_right_image,-1,exp3.png,3,exp4.png,exp3.png,0,2,non-reversed,incorrect,0.4388465416947175,0,valid_lose,725.0535963000002,70,,,,,,,,,,,,,,,sub_639,2024-07-14_10h53.53.773,Reversal,2023.1.3,59.922939100279976,3,
10,exp1.png,exp2.png,,,,,,,,,,,,,,,,,,2,0,2,0,0,10,10,10,,,,,,,,,False,49,130,True,exp2.png,exp1.png,trial_right_image,-1,exp1.png,3,exp1.png,exp2.png,0,4,reversed,correct,0.6660847672164422,1,valid_win,728.6157917999999,71,,,,,,,,,,,,,,,sub_639,2024-07-14_10h53.53.773,Reversal,2023.1.3,59.922939100279976,3,
11,exp3.png,exp4.png,,,,,,,,,,,,,,,,,,2,0,2,0,0,11,11,11,,,,,,,,,False,50,131,False,exp3.png,exp4.png,trial_right_image,-1,exp4.png,3,exp4.png,exp3.png,1,1,non-reversed,correct,0.40001741941106406,1,valid_win,732.1799558000002,72,,,,,,,,,,,,,,,sub_639,2024-07-14_10h53.53.773,Reversal,2023.1.3,59.922939100279976,3,
12,exp1.png,exp2.png,,,,,,,,,,,,,,,,,,2,0,2,0,0,12,12,12,,,,,,,,,False,51,132,False,exp1.png,exp2.png,trial_right_image,-1,exp2.png,3,exp1.png,exp2.png,1,3,reversed,incorrect,0.1286001978748269,1,invalid_win,736.3477004000006,73,,,,,,,,,,,,,,,sub_639,2024-07-14_10h53.53.773,Reversal,2023.1.3,59.922939100279976,3,
13,exp3.png,exp4.png,,,,,,,,,,,,,,,,,,2,0,2,0,0,13,13,13,,,,,,,,,False,52,133,True,exp4.png,exp3.png,trial_right_image,-1,exp3.png,3,exp4.png,exp3.png,0,2,non-reversed,incorrect,0.13586416753474928,1,invalid_win,740.5792157000005,74,,,,,,,,,,,,,,,sub_639,2024-07-14_10h53.53.773,Reversal,2023.1.3,59.922939100279976,3,
14,exp1.png,exp2.png,,,,,,,,,,,,,,,,,,2,0,2,0,0,14,14,14,,,,,,,,,False,53,134,True,exp2.png,exp1.png,trial_right_image,-1,exp1.png,3,exp1.png,exp2.png,0,4,reversed,correct,0.5623670607711494,1,valid_win,744.9781333999999,75,,,,,,,,,,,,,,,sub_639,2024-07-14_10h53.53.773,Reversal,2023.1.3,59.922939100279976,3,
15,exp3.png,exp4.png,,,,,,,,,,,,,,,,,,2,0,2,0,0,15,15,15,,,,,,,,,False,54,135,True,exp4.png,exp3.png,trial_right_image,-1,exp3.png,3,exp4.png,exp3.png,0,2,non-reversed,incorrect,0.22316045384268202,1,invalid_win,748.9430385000005,76,,,,,,,,,,,,,,,sub_639,2024-07-14_10h53.53.773,Reversal,2023.1.3,59.922939100279976,3,
16,exp1.png,exp2.png,,,,,,,,,,,,,,,,,,2,0,2,0,0,16,16,16,,,,,,,,,False,55,136,True,exp2.png,exp1.png,trial_right_image,-1,exp1.png,3,exp1.png,exp2.png,0,4,reversed,correct,0.8169461172661393,1,valid_win,752.9083341000005,77,,,,,,,,,,,,,,,sub_639,2024-07-14_10h53.53.773,Reversal,2023.1.3,59.922939100279976,3,
17,exp3.png,exp4.png,,,,,,,,,,,,,,,,,,2,0,2,0,0,17,17,17,,,,,,,,,False,56,137,True,exp4.png,exp3.png,trial_right_image,-1,exp3.png,3,exp4.png,exp3.png,0,2,non-reversed,incorrect,0.4824695863219881,0,valid_lose,757.1233164000005,77,,,,,,,,,,,,,,,sub_639,2024-07-14_10h53.53.773,Reversal,2023.1.3,59.922939100279976,3,
18,exp1.png,exp2.png,,,,,,,,,,,,,,,,,,2,0,2,0,0,18,18,18,,,,,,,,,False,57,138,False,exp1.png,exp2.png,trial_right_image,-1,exp2.png,3,exp1.png,exp2.png,1,3,reversed,incorrect,0.2016331994786964,1,invalid_win,761.3385585000005,78,,,,,,,,,,,,,,,sub_639,2024-07-14_10h53.53.773,Reversal,2023.1.3,59.922939100279976,3,
19,exp3.png,exp4.png,,,,,,,,,,,,,,,,,,2,0,2,0,0,19,19,19,,,,,,,,,False,58,139,False,exp3.png,exp4.png,trial_right_image,-1,exp4.png,3,exp4.png,exp3.png,1,1,non-reversed,correct,0.3308434820145645,1,valid_win,765.3205336000001,79,,,,,,,,,,,,,,,sub_639,2024-07-14_10h53.53.773,Reversal,2023.1.3,59.922939100279976,3,
20,exp1.png,exp2.png,,,,,,,,,,,,,,,,,,2,0,2,0,0,20,20,20,,,,,,,,,False,59,140,False,exp1.png,exp2.png,trial_left_image,1,exp1.png,3,exp1.png,exp2.png,0,4,reversed,correct,0.34659395698764395,1,valid_win,769.5357552000005,80,,,,,,,,,,,,,,,sub_639,2024-07-14_10h53.53.773,Reversal,2023.1.3,59.922939100279976,3,
,,,exp1.png,,,,,,,,,,,,,,,,,2,0,2,0,,,,,0,0,0,0,0,0,0,0,,,,,,,,,,,,,,,,,,,,,,894.1011194000002,97.0,2.1094681999993554,"[(97.0, 2.1094681999993554)]",,,,97.0,,,,,,,sub_639,2024-07-14_10h53.53.773,Reversal,2023.1.3,59.922939100279976,3,
,,,exp2.png,,,,,,,,,,,,,,,,,2,0,2,0,,,,,0,0,0,0,0,1,1,1,,,,,,,,,,,,,,,,,,,,,,897.4289807000005,97.0,1.9119767000001957,"[(97.0, 1.9119767000001957)]",97.0,,,,,,,,,,sub_639,2024-07-14_10h53.53.773,Reversal,2023.1.3,59.922939100279976,3,
,,,exp3.png,,,,,,,,,,,,,,,,,2,0,2,0,,,,,0,0,0,0,0,2,2,2,,,,,,,,,,,,,,,,,,,,,,900.5273536000004,4.0,3.2454201999998986,"[(15.0, 2.0287917999994534), (4.0, 3.2454201999998986)]",,4.0,,,,,,,,,sub_639,2024-07-14_10h53.53.773,Reversal,2023.1.3,59.922939100279976,3,
,,,exp4.png,,,,,,,,,,,,,,,,,2,0,2,0,,,,,0,0,0,0,0,3,3,3,,,,,,,,,,,,,,,,,,,,,,904.9769242000002,7.0,1.4276460000000952,"[(7.0, 1.4276460000000952)]",,,7.0,,,,,,,,sub_639,2024-07-14_10h53.53.773,Reversal,2023.1.3,59.922939100279976,3,
,,,,,,,,,,,,,,,,,,,,,,,,,,,,,,,,,,,,,,,,,,,,,,,,,,,,,,,,80,,,,,,,,,,79,43,36,286.3510917000003,1,,,,,,,
