trial_index,trial_image1_file,trial_image2_file,image_file,learning_outer_loop.thisRepN,learning_outer_loop.thisTrialN,learning_outer_loop.thisN,learning_outer_loop.thisIndex,learning_inner_loop.thisRepN,learning_inner_loop.thisTrialN,learning_inner_loop.thisN,learning_inner_loop.thisIndex,learning_estimation_outer_loop.thisRepN,learning_estimation_outer_loop.thisTrialN,learning_estimation_outer_loop.thisN,learning_estimation_outer_loop.thisIndex,learning_estimation_inner_loop.thisRepN,learning_estimation_inner_loop.thisTrialN,learning_estimation_inner_loop.thisN,learning_estimation_inner_loop.thisIndex,reversal_outer_loop.thisRepN,reversal_outer_loop.thisTrialN,reversal_outer_loop.thisN,reversal_outer_loop.thisIndex,reversal_inner_loop.thisRepN,reversal_inner_loop.thisTrialN,reversal_inner_loop.thisN,reversal_inner_loop.thisIndex,reversal_estimation_outer_loop.thisRepN,reversal_estimation_outer_loop.thisTrialN,reversal_estimation_outer_loop.thisN,reversal_estimation_outer_loop.thisIndex,reversal_estimation_inner_loop.thisRepN,reversal_estimation_inner_loop.thisTrialN,reversal_estimation_inner_loop.thisN,reversal_estimation_inner_loop.thisIndex,skipped,total_trial_counter,trial_num,left_right_flip,left_image_file,right_image_file,clicked_stimulus_side,side,clicked_stimulus,version,high_prob_image_file,low_prob_image_file,choice_a,choice_b,pair_type,correct,trial_feedback_random,reward,trial_type,overall_time_after_trial,score,estimation_rating.started,estimation_exp1.png,estimation_rating.response,estimation_rating.rt,estimation_rating.history,estimation_exp2.png,estimation_exp4.png,estimation_exp3.png,total_learning_time,total_correct,learning_correct,reversal_correct,total_reversal_time,extra_block,participant,date,expName,psychopyVersion,frameRate,ver,
0,exp1.png,exp2.png,,0,0,0,0,0,0,0,0,,,,,,,,,,,,,,,,,,,,,,,,,True,,,,,,,,,,,,,,,,,,,,,,,,,,,,,,,,,,,sub_1017,2025-02-17_16h16.17.148,Reversal,2023.1.3,60.12647001583568,1,
1,exp3.png,exp4.png,,0,0,0,0,0,1,1,1,,,,,,,,,,,,,,,,,,,,,,,,,False,0,1,False,exp3.png,exp4.png,trial_right_image,-1,exp4.png,1,exp3.png,exp4.png,0,2,non-reversed,incorrect,0.6921480619855953,0,valid_lose,3.9136835999961477,0,,,,,,,,,,,,,,,sub_1017,2025-02-17_16h16.17.148,Reversal,2023.1.3,60.12647001583568,1,
2,exp1.png,exp2.png,,0,0,0,0,0,2,2,2,,,,,,,,,,,,,,,,,,,,,,,,,False,1,2,False,exp1.png,exp2.png,trial_left_image,1,exp1.png,1,exp1.png,exp2.png,1,3,reversed,correct,0.5846856557915038,1,valid_win,9.662072599996463,1,,,,,,,,,,,,,,,sub_1017,2025-02-17_16h16.17.148,Reversal,2023.1.3,60.12647001583568,1,
3,exp3.png,exp4.png,,0,0,0,0,0,3,3,3,,,,,,,,,,,,,,,,,,,,,,,,,False,2,3,True,exp4.png,exp3.png,trial_right_image,-1,exp3.png,1,exp3.png,exp4.png,1,1,non-reversed,correct,0.2598406600392431,1,valid_win,15.259968099999242,2,,,,,,,,,,,,,,,sub_1017,2025-02-17_16h16.17.148,Reversal,2023.1.3,60.12647001583568,1,
4,exp1.png,exp2.png,,0,0,0,0,0,4,4,4,,,,,,,,,,,,,,,,,,,,,,,,,False,3,4,False,exp1.png,exp2.png,trial_left_image,1,exp1.png,1,exp1.png,exp2.png,1,3,reversed,correct,0.07690924619954087,0,invalid_lose,19.758427399996435,2,,,,,,,,,,,,,,,sub_1017,2025-02-17_16h16.17.148,Reversal,2023.1.3,60.12647001583568,1,
5,exp3.png,exp4.png,,0,0,0,0,0,5,5,5,,,,,,,,,,,,,,,,,,,,,,,,,False,4,5,False,exp3.png,exp4.png,trial_right_image,-1,exp4.png,1,exp3.png,exp4.png,0,2,non-reversed,incorrect,0.49307719336411693,0,valid_lose,24.674305099993944,2,,,,,,,,,,,,,,,sub_1017,2025-02-17_16h16.17.148,Reversal,2023.1.3,60.12647001583568,1,
6,exp1.png,exp2.png,,0,0,0,0,0,6,6,6,,,,,,,,,,,,,,,,,,,,,,,,,False,5,6,True,exp2.png,exp1.png,trial_right_image,-1,exp1.png,1,exp1.png,exp2.png,1,3,reversed,correct,0.34267397435513636,1,valid_win,29.405254199999035,3,,,,,,,,,,,,,,,sub_1017,2025-02-17_16h16.17.148,Reversal,2023.1.3,60.12647001583568,1,
7,exp3.png,exp4.png,,0,0,0,0,0,7,7,7,,,,,,,,,,,,,,,,,,,,,,,,,False,6,7,True,exp4.png,exp3.png,trial_left_image,1,exp4.png,1,exp3.png,exp4.png,0,2,non-reversed,incorrect,0.2219309972992105,1,invalid_win,34.43674330000067,4,,,,,,,,,,,,,,,sub_1017,2025-02-17_16h16.17.148,Reversal,2023.1.3,60.12647001583568,1,
8,exp1.png,exp2.png,,0,0,0,0,0,8,8,8,,,,,,,,,,,,,,,,,,,,,,,,,False,7,8,False,exp1.png,exp2.png,trial_left_image,1,exp1.png,1,exp1.png,exp2.png,1,3,reversed,correct,0.7867628227350206,1,valid_win,39.13554770000337,5,,,,,,,,,,,,,,,sub_1017,2025-02-17_16h16.17.148,Reversal,2023.1.3,60.12647001583568,1,
9,exp3.png,exp4.png,,0,0,0,0,0,9,9,9,,,,,,,,,,,,,,,,,,,,,,,,,False,8,9,True,exp4.png,exp3.png,trial_left_image,1,exp4.png,1,exp3.png,exp4.png,0,2,non-reversed,incorrect,0.04416340884203129,1,invalid_win,43.91725139999471,6,,,,,,,,,,,,,,,sub_1017,2025-02-17_16h16.17.148,Reversal,2023.1.3,60.12647001583568,1,
10,exp1.png,exp2.png,,0,0,0,0,0,10,10,10,,,,,,,,,,,,,,,,,,,,,,,,,False,9,10,True,exp2.png,exp1.png,trial_right_image,-1,exp1.png,1,exp1.png,exp2.png,1,3,reversed,correct,0.364476109991706,1,valid_win,48.44899550000264,7,,,,,,,,,,,,,,,sub_1017,2025-02-17_16h16.17.148,Reversal,2023.1.3,60.12647001583568,1,
11,exp3.png,exp4.png,,0,0,0,0,0,11,11,11,,,,,,,,,,,,,,,,,,,,,,,,,False,10,11,False,exp3.png,exp4.png,trial_right_image,-1,exp4.png,1,exp3.png,exp4.png,0,2,non-reversed,incorrect,0.11188458619350983,1,invalid_win,53.61362689999805,8,,,,,,,,,,,,,,,sub_1017,2025-02-17_16h16.17.148,Reversal,2023.1.3,60.12647001583568,1,
12,exp1.png,exp2.png,,0,0,0,0,0,12,12,12,,,,,,,,,,,,,,,,,,,,,,,,,False,11,12,False,exp1.png,exp2.png,trial_left_image,1,exp1.png,1,exp1.png,exp2.png,1,3,reversed,correct,0.6377235489727897,1,valid_win,58.06216879999556,9,,,,,,,,,,,,,,,sub_1017,2025-02-17_16h16.17.148,Reversal,2023.1.3,60.12647001583568,1,
13,exp3.png,exp4.png,,0,0,0,0,0,13,13,13,,,,,,,,,,,,,,,,,,,,,,,,,False,12,13,True,exp4.png,exp3.png,trial_left_image,1,exp4.png,1,exp3.png,exp4.png,0,2,non-reversed,incorrect,0.8278124556137596,0,valid_lose,62.744181700007175,9,,,,,,,,,,,,,,,sub_1017,2025-02-17_16h16.17.148,Reversal,2023.1.3,60.12647001583568,1,
14,exp1.png,exp2.png,,0,0,0,0,0,14,14,14,,,,,,,,,,,,,,,,,,,,,,,,,False,13,14,True,exp2.png,exp1.png,trial_right_image,-1,exp1.png,1,exp1.png,exp2.png,1,3,reversed,correct,0.5738169441300319,1,valid_win,67.87605750000512,10,,,,,,,,,,,,,,,sub_1017,2025-02-17_16h16.17.148,Reversal,2023.1.3,60.12647001583568,1,
15,exp3.png,exp4.png,,0,0,0,0,0,15,15,15,,,,,,,,,,,,,,,,,,,,,,,,,False,14,15,False,exp3.png,exp4.png,trial_right_image,-1,exp4.png,1,exp3.png,exp4.png,0,2,non-reversed,incorrect,0.5904095119197876,0,valid_lose,72.60974840000563,10,,,,,,,,,,,,,,,sub_1017,2025-02-17_16h16.17.148,Reversal,2023.1.3,60.12647001583568,1,
16,exp1.png,exp2.png,,0,0,0,0,0,16,16,16,,,,,,,,,,,,,,,,,,,,,,,,,False,15,16,True,exp2.png,exp1.png,trial_right_image,-1,exp1.png,1,exp1.png,exp2.png,1,3,reversed,correct,0.13868199673257142,0,invalid_lose,77.10651369999687,10,,,,,,,,,,,,,,,sub_1017,2025-02-17_16h16.17.148,Reversal,2023.1.3,60.12647001583568,1,
17,exp3.png,exp4.png,,0,0,0,0,0,17,17,17,,,,,,,,,,,,,,,,,,,,,,,,,False,16,17,True,exp4.png,exp3.png,trial_right_image,-1,exp3.png,1,exp3.png,exp4.png,1,1,non-reversed,correct,0.1441374271877005,0,invalid_lose,81.70437409999431,10,,,,,,,,,,,,,,,sub_1017,2025-02-17_16h16.17.148,Reversal,2023.1.3,60.12647001583568,1,
18,exp1.png,exp2.png,,0,0,0,0,0,18,18,18,,,,,,,,,,,,,,,,,,,,,,,,,False,17,18,True,exp2.png,exp1.png,trial_left_image,1,exp2.png,1,exp1.png,exp2.png,0,4,reversed,incorrect,0.39592540926333186,0,valid_lose,88.87089429999469,10,,,,,,,,,,,,,,,sub_1017,2025-02-17_16h16.17.148,Reversal,2023.1.3,60.12647001583568,1,
19,exp3.png,exp4.png,,0,0,0,0,0,19,19,19,,,,,,,,,,,,,,,,,,,,,,,,,False,18,19,False,exp3.png,exp4.png,trial_left_image,1,exp3.png,1,exp3.png,exp4.png,1,1,non-reversed,correct,0.11179993608395622,0,invalid_lose,93.6001746999973,10,,,,,,,,,,,,,,,sub_1017,2025-02-17_16h16.17.148,Reversal,2023.1.3,60.12647001583568,1,
20,exp1.png,exp2.png,,0,0,0,0,0,20,20,20,,,,,,,,,,,,,,,,,,,,,,,,,False,19,20,False,exp1.png,exp2.png,trial_left_image,1,exp1.png,1,exp1.png,exp2.png,1,3,reversed,correct,0.5639508490806271,1,valid_win,98.33205779999844,11,,,,,,,,,,,,,,,sub_1017,2025-02-17_16h16.17.148,Reversal,2023.1.3,60.12647001583568,1,
,,,exp1.png,0,0,0,0,,,,,0,0,0,0,0,0,0,0,,,,,,,,,,,,,,,,,,,,,,,,,,,,,,,,,,,,,,164.1732195999939,74.0,74.0,9.125662099992041,"[(74.0, 9.125662099992041)]",,,,,,,,,,sub_1017,2025-02-17_16h16.17.148,Reversal,2023.1.3,60.12647001583568,1,
,,,exp2.png,0,0,0,0,,,,,0,0,0,0,0,1,1,1,,,,,,,,,,,,,,,,,,,,,,,,,,,,,,,,,,,,,,174.2486871000001,,15.0,4.858957400007057,"[(15.0, 4.858957400007057)]",15.0,,,,,,,,,sub_1017,2025-02-17_16h16.17.148,Reversal,2023.1.3,60.12647001583568,1,
,,,exp3.png,0,0,0,0,,,,,0,0,0,0,0,2,2,2,,,,,,,,,,,,,,,,,,,,,,,,,,,,,,,,,,,,,,180.11190619999252,,None,None,[],,,,,,,,,,sub_1017,2025-02-17_16h16.17.148,Reversal,2023.1.3,60.12647001583568,1,
,,,exp4.png,0,0,0,0,,,,,0,0,0,0,0,3,3,3,,,,,,,,,,,,,,,,,,,,,,,,,,,,,,,,,,,,,,184.29495289998886,,16.0,3.0917712000082247,"[(16.0, 3.0917712000082247)]",,16.0,,,,,,,,sub_1017,2025-02-17_16h16.17.148,Reversal,2023.1.3,60.12647001583568,1,
0,exp1.png,exp2.png,,1,0,1,0,0,0,0,0,,,,,,,,,,,,,,,,,,,,,,,,,True,,,,,,,,,,,,,,,,,,,,,,,,,,,,,,,,,,,sub_1017,2025-02-17_16h16.17.148,Reversal,2023.1.3,60.12647001583568,1,
1,exp3.png,exp4.png,,1,0,1,0,0,1,1,1,,,,,,,,,,,,,,,,,,,,,,,,,False,20,21,True,exp4.png,exp3.png,trial_right_image,-1,exp3.png,1,exp3.png,exp4.png,1,1,non-reversed,correct,0.8654842425526691,1,valid_win,131.5374249000015,12,,,,,,,,,,,,,,,sub_1017,2025-02-17_16h16.17.148,Reversal,2023.1.3,60.12647001583568,1,
2,exp1.png,exp2.png,,1,0,1,0,0,2,2,2,,,,,,,,,,,,,,,,,,,,,,,,,False,21,22,False,exp1.png,exp2.png,trial_left_image,1,exp1.png,1,exp1.png,exp2.png,1,3,reversed,correct,0.17122736266432614,0,invalid_lose,136.8191341000056,12,,,,,,,,,,,,,,,sub_1017,2025-02-17_16h16.17.148,Reversal,2023.1.3,60.12647001583568,1,
3,exp3.png,exp4.png,,1,0,1,0,0,3,3,3,,,,,,,,,,,,,,,,,,,,,,,,,False,22,23,False,exp3.png,exp4.png,trial_left_image,1,exp3.png,1,exp3.png,exp4.png,1,1,non-reversed,correct,0.7532093909655029,1,valid_win,143.2006149999943,13,,,,,,,,,,,,,,,sub_1017,2025-02-17_16h16.17.148,Reversal,2023.1.3,60.12647001583568,1,
4,exp1.png,exp2.png,,1,0,1,0,0,4,4,4,,,,,,,,,,,,,,,,,,,,,,,,,False,23,24,True,exp2.png,exp1.png,trial_left_image,1,exp2.png,1,exp1.png,exp2.png,0,4,reversed,incorrect,0.18744141849396845,1,invalid_win,147.54889030000777,14,,,,,,,,,,,,,,,sub_1017,2025-02-17_16h16.17.148,Reversal,2023.1.3,60.12647001583568,1,
5,exp3.png,exp4.png,,1,0,1,0,0,5,5,5,,,,,,,,,,,,,,,,,,,,,,,,,False,24,25,False,exp3.png,exp4.png,trial_left_image,1,exp3.png,1,exp3.png,exp4.png,1,1,non-reversed,correct,0.9505786265506904,1,valid_win,152.2139484000072,15,,,,,,,,,,,,,,,sub_1017,2025-02-17_16h16.17.148,Reversal,2023.1.3,60.12647001583568,1,
6,exp1.png,exp2.png,,1,0,1,0,0,6,6,6,,,,,,,,,,,,,,,,,,,,,,,,,False,25,26,False,exp1.png,exp2.png,trial_right_image,-1,exp2.png,1,exp1.png,exp2.png,0,4,reversed,incorrect,0.4476341525308968,0,valid_lose,156.56247210000583,15,,,,,,,,,,,,,,,sub_1017,2025-02-17_16h16.17.148,Reversal,2023.1.3,60.12647001583568,1,
7,exp3.png,exp4.png,,1,0,1,0,0,7,7,7,,,,,,,,,,,,,,,,,,,,,,,,,False,26,27,True,exp4.png,exp3.png,trial_right_image,-1,exp3.png,1,exp3.png,exp4.png,1,1,non-reversed,correct,0.5002319354521279,1,valid_win,163.11029959999723,16,,,,,,,,,,,,,,,sub_1017,2025-02-17_16h16.17.148,Reversal,2023.1.3,60.12647001583568,1,
8,exp1.png,exp2.png,,1,0,1,0,0,8,8,8,,,,,,,,,,,,,,,,,,,,,,,,,False,27,28,True,exp2.png,exp1.png,trial_left_image,1,exp2.png,1,exp1.png,exp2.png,0,4,reversed,incorrect,0.032329796882592854,1,invalid_win,170.32425940000394,17,,,,,,,,,,,,,,,sub_1017,2025-02-17_16h16.17.148,Reversal,2023.1.3,60.12647001583568,1,
9,exp3.png,exp4.png,,1,0,1,0,0,9,9,9,,,,,,,,,,,,,,,,,,,,,,,,,False,28,29,True,exp4.png,exp3.png,trial_right_image,-1,exp3.png,1,exp3.png,exp4.png,1,1,non-reversed,correct,0.8818057598786149,1,valid_win,174.45632539999497,18,,,,,,,,,,,,,,,sub_1017,2025-02-17_16h16.17.148,Reversal,2023.1.3,60.12647001583568,1,
10,exp1.png,exp2.png,,1,0,1,0,0,10,10,10,,,,,,,,,,,,,,,,,,,,,,,,,False,29,30,False,exp1.png,exp2.png,trial_right_image,-1,exp2.png,1,exp1.png,exp2.png,0,4,reversed,incorrect,0.8600741826482416,0,valid_lose,179.1379719999968,18,,,,,,,,,,,,,,,sub_1017,2025-02-17_16h16.17.148,Reversal,2023.1.3,60.12647001583568,1,
11,exp3.png,exp4.png,,1,0,1,0,0,11,11,11,,,,,,,,,,,,,,,,,,,,,,,,,False,30,31,False,exp3.png,exp4.png,trial_left_image,1,exp3.png,1,exp3.png,exp4.png,1,1,non-reversed,correct,0.5271990423897746,1,valid_win,183.73626890000014,19,,,,,,,,,,,,,,,sub_1017,2025-02-17_16h16.17.148,Reversal,2023.1.3,60.12647001583568,1,
12,exp1.png,exp2.png,,1,0,1,0,0,12,12,12,,,,,,,,,,,,,,,,,,,,,,,,,False,31,32,False,exp1.png,exp2.png,trial_right_image,-1,exp2.png,1,exp1.png,exp2.png,0,4,reversed,incorrect,0.6005533213444233,0,valid_lose,187.83633499999996,19,,,,,,,,,,,,,,,sub_1017,2025-02-17_16h16.17.148,Reversal,2023.1.3,60.12647001583568,1,
13,exp3.png,exp4.png,,1,0,1,0,0,13,13,13,,,,,,,,,,,,,,,,,,,,,,,,,False,32,33,False,exp3.png,exp4.png,trial_left_image,1,exp3.png,1,exp3.png,exp4.png,1,1,non-reversed,correct,0.8254157300291641,1,valid_win,191.8675127000024,20,,,,,,,,,,,,,,,sub_1017,2025-02-17_16h16.17.148,Reversal,2023.1.3,60.12647001583568,1,
14,exp1.png,exp2.png,,1,0,1,0,0,14,14,14,,,,,,,,,,,,,,,,,,,,,,,,,False,33,34,True,exp2.png,exp1.png,trial_right_image,-1,exp1.png,1,exp1.png,exp2.png,1,3,reversed,correct,0.4160961567446898,1,valid_win,196.13247359999514,21,,,,,,,,,,,,,,,sub_1017,2025-02-17_16h16.17.148,Reversal,2023.1.3,60.12647001583568,1,
15,exp3.png,exp4.png,,1,0,1,0,0,15,15,15,,,,,,,,,,,,,,,,,,,,,,,,,False,34,35,False,exp3.png,exp4.png,trial_left_image,1,exp3.png,1,exp3.png,exp4.png,1,1,non-reversed,correct,0.1877597217503899,0,invalid_lose,200.4473685999983,21,,,,,,,,,,,,,,,sub_1017,2025-02-17_16h16.17.148,Reversal,2023.1.3,60.12647001583568,1,
16,exp1.png,exp2.png,,1,0,1,0,0,16,16,16,,,,,,,,,,,,,,,,,,,,,,,,,False,35,36,True,exp2.png,exp1.png,trial_right_image,-1,exp1.png,1,exp1.png,exp2.png,1,3,reversed,correct,0.8748125757225882,1,valid_win,204.54604149999795,22,,,,,,,,,,,,,,,sub_1017,2025-02-17_16h16.17.148,Reversal,2023.1.3,60.12647001583568,1,
17,exp3.png,exp4.png,,1,0,1,0,0,17,17,17,,,,,,,,,,,,,,,,,,,,,,,,,False,36,37,True,exp4.png,exp3.png,trial_left_image,1,exp4.png,1,exp3.png,exp4.png,0,2,non-reversed,incorrect,0.6145752030274458,0,valid_lose,210.04463750000286,22,,,,,,,,,,,,,,,sub_1017,2025-02-17_16h16.17.148,Reversal,2023.1.3,60.12647001583568,1,
18,exp1.png,exp2.png,,1,0,1,0,0,18,18,18,,,,,,,,,,,,,,,,,,,,,,,,,False,37,38,False,exp1.png,exp2.png,trial_left_image,1,exp1.png,1,exp1.png,exp2.png,1,3,reversed,correct,0.30075253372849264,1,valid_win,214.42578429999412,23,,,,,,,,,,,,,,,sub_1017,2025-02-17_16h16.17.148,Reversal,2023.1.3,60.12647001583568,1,
19,exp3.png,exp4.png,,1,0,1,0,0,19,19,19,,,,,,,,,,,,,,,,,,,,,,,,,False,38,39,True,exp4.png,exp3.png,trial_left_image,1,exp4.png,1,exp3.png,exp4.png,0,2,non-reversed,incorrect,0.8476357284557456,0,valid_lose,218.89121070000692,23,,,,,,,,,,,,,,,sub_1017,2025-02-17_16h16.17.148,Reversal,2023.1.3,60.12647001583568,1,
20,exp1.png,exp2.png,,1,0,1,0,0,20,20,20,,,,,,,,,,,,,,,,,,,,,,,,,False,39,40,True,exp2.png,exp1.png,trial_right_image,-1,exp1.png,1,exp1.png,exp2.png,1,3,reversed,correct,0.9587367879009885,1,valid_win,223.1565527000057,24,,,,,,,,,,,,,,,sub_1017,2025-02-17_16h16.17.148,Reversal,2023.1.3,60.12647001583568,1,
,,,exp1.png,1,0,1,0,,,,,0,0,0,0,0,0,0,0,,,,,,,,,,,,,,,,,,,,,,,,,,,,,,,,,,,,,,288.9988236999925,94.0,94.0,4.322862299988628,"[(94.0, 4.322862299988628)]",,,,,,,,,,sub_1017,2025-02-17_16h16.17.148,Reversal,2023.1.3,60.12647001583568,1,
,,,exp2.png,1,0,1,0,,,,,0,0,0,0,0,1,1,1,,,,,,,,,,,,,,,,,,,,,,,,,,,,,,,,,,,,,,294.307822799994,,3.0,1.9426575999968918,"[(3.0, 1.9426575999968918)]",3.0,,,,,,,,,sub_1017,2025-02-17_16h16.17.148,Reversal,2023.1.3,60.12647001583568,1,
,,,exp3.png,1,0,1,0,,,,,0,0,0,0,0,2,2,2,,,,,,,,,,,,,,,,,,,,,,,,,,,,,,,,,,,,,,297.30613349999476,,89.0,9.707533800014062,"[(89.0, 9.707533800014062)]",,,89.0,,,,,,,sub_1017,2025-02-17_16h16.17.148,Reversal,2023.1.3,60.12647001583568,1,
,,,exp4.png,1,0,1,0,,,,,0,0,0,0,0,3,3,3,,,,,,,,,,,,,,,,,,,,,,,,,,,,,,,,,,,,,,307.9710433,,8.0,1.5934627000096953,"[(8.0, 1.5934627000096953)]",,8.0,,,,,,,,sub_1017,2025-02-17_16h16.17.148,Reversal,2023.1.3,60.12647001583568,1,
0,exp1.png,exp2.png,,2,0,2,0,0,0,0,0,,,,,,,,,,,,,,,,,,,,,,,,,True,,,,,,,,,,,,,,,,,,,,,,,,,,,,,,,,,,,sub_1017,2025-02-17_16h16.17.148,Reversal,2023.1.3,60.12647001583568,1,
1,exp3.png,exp4.png,,2,0,2,0,0,1,1,1,,,,,,,,,,,,,,,,,,,,,,,,,False,40,41,True,exp4.png,exp3.png,trial_right_image,-1,exp3.png,1,exp3.png,exp4.png,1,1,non-reversed,correct,0.7371761135815917,1,valid_win,254.72916459999396,25,,,,,,,,,,,,,,,sub_1017,2025-02-17_16h16.17.148,Reversal,2023.1.3,60.12647001583568,1,
2,exp1.png,exp2.png,,2,0,2,0,0,2,2,2,,,,,,,,,,,,,,,,,,,,,,,,,False,41,42,True,exp2.png,exp1.png,trial_right_image,-1,exp1.png,1,exp1.png,exp2.png,1,3,reversed,correct,0.06891438455033694,0,invalid_lose,259.0442455000011,25,,,,,,,,,,,,,,,sub_1017,2025-02-17_16h16.17.148,Reversal,2023.1.3,60.12647001583568,1,
3,exp3.png,exp4.png,,2,0,2,0,0,3,3,3,,,,,,,,,,,,,,,,,,,,,,,,,False,42,43,False,exp3.png,exp4.png,trial_left_image,1,exp3.png,1,exp3.png,exp4.png,1,1,non-reversed,correct,0.07531613505521206,0,invalid_lose,263.29300140000123,25,,,,,,,,,,,,,,,sub_1017,2025-02-17_16h16.17.148,Reversal,2023.1.3,60.12647001583568,1,
4,exp1.png,exp2.png,,2,0,2,0,0,4,4,4,,,,,,,,,,,,,,,,,,,,,,,,,False,43,44,True,exp2.png,exp1.png,trial_left_image,1,exp2.png,1,exp1.png,exp2.png,0,4,reversed,incorrect,0.04941683833795518,1,invalid_win,269.19074869999895,26,,,,,,,,,,,,,,,sub_1017,2025-02-17_16h16.17.148,Reversal,2023.1.3,60.12647001583568,1,
5,exp3.png,exp4.png,,2,0,2,0,0,5,5,5,,,,,,,,,,,,,,,,,,,,,,,,,False,44,45,False,exp3.png,exp4.png,trial_right_image,-1,exp4.png,1,exp3.png,exp4.png,0,2,non-reversed,incorrect,0.29001849179371086,0,valid_lose,273.33946010000363,26,,,,,,,,,,,,,,,sub_1017,2025-02-17_16h16.17.148,Reversal,2023.1.3,60.12647001583568,1,
6,exp1.png,exp2.png,,2,0,2,0,0,6,6,6,,,,,,,,,,,,,,,,,,,,,,,,,False,45,46,False,exp1.png,exp2.png,trial_right_image,-1,exp2.png,1,exp1.png,exp2.png,0,4,reversed,incorrect,0.9138873540605938,0,valid_lose,277.621232400008,26,,,,,,,,,,,,,,,sub_1017,2025-02-17_16h16.17.148,Reversal,2023.1.3,60.12647001583568,1,
7,exp3.png,exp4.png,,2,0,2,0,0,7,7,7,,,,,,,,,,,,,,,,,,,,,,,,,False,46,47,False,exp3.png,exp4.png,trial_left_image,1,exp3.png,1,exp3.png,exp4.png,1,1,non-reversed,correct,0.986928094503909,1,valid_win,281.78666850000445,27,,,,,,,,,,,,,,,sub_1017,2025-02-17_16h16.17.148,Reversal,2023.1.3,60.12647001583568,1,
8,exp1.png,exp2.png,,2,0,2,0,0,8,8,8,,,,,,,,,,,,,,,,,,,,,,,,,False,47,48,False,exp1.png,exp2.png,trial_left_image,1,exp1.png,1,exp1.png,exp2.png,1,3,reversed,correct,0.7935507942009894,1,valid_win,285.83529940000153,28,,,,,,,,,,,,,,,sub_1017,2025-02-17_16h16.17.148,Reversal,2023.1.3,60.12647001583568,1,
9,exp3.png,exp4.png,,2,0,2,0,0,9,9,9,,,,,,,,,,,,,,,,,,,,,,,,,False,48,49,True,exp4.png,exp3.png,trial_right_image,-1,exp3.png,1,exp3.png,exp4.png,1,1,non-reversed,correct,0.41148101539574,1,valid_win,290.3333180000045,29,,,,,,,,,,,,,,,sub_1017,2025-02-17_16h16.17.148,Reversal,2023.1.3,60.12647001583568,1,
10,exp1.png,exp2.png,,2,0,2,0,0,10,10,10,,,,,,,,,,,,,,,,,,,,,,,,,False,49,50,False,exp1.png,exp2.png,trial_left_image,1,exp1.png,1,exp1.png,exp2.png,1,3,reversed,correct,0.3042184563211534,1,valid_win,294.2656466000044,30,,,,,,,,,,,,,,,sub_1017,2025-02-17_16h16.17.148,Reversal,2023.1.3,60.12647001583568,1,
11,exp3.png,exp4.png,,2,0,2,0,0,11,11,11,,,,,,,,,,,,,,,,,,,,,,,,,False,50,51,True,exp4.png,exp3.png,trial_right_image,-1,exp3.png,1,exp3.png,exp4.png,1,1,non-reversed,correct,0.7617690094212057,1,valid_win,298.6976527999941,31,,,,,,,,,,,,,,,sub_1017,2025-02-17_16h16.17.148,Reversal,2023.1.3,60.12647001583568,1,
12,exp1.png,exp2.png,,2,0,2,0,0,12,12,12,,,,,,,,,,,,,,,,,,,,,,,,,False,51,52,True,exp2.png,exp1.png,trial_right_image,-1,exp1.png,1,exp1.png,exp2.png,1,3,reversed,correct,0.22612028103295134,0,invalid_lose,302.99645489999966,31,,,,,,,,,,,,,,,sub_1017,2025-02-17_16h16.17.148,Reversal,2023.1.3,60.12647001583568,1,
13,exp3.png,exp4.png,,2,0,2,0,0,13,13,13,,,,,,,,,,,,,,,,,,,,,,,,,False,52,53,True,exp4.png,exp3.png,trial_right_image,-1,exp3.png,1,exp3.png,exp4.png,1,1,non-reversed,correct,0.8629570144602271,1,valid_win,307.2613815999939,32,,,,,,,,,,,,,,,sub_1017,2025-02-17_16h16.17.148,Reversal,2023.1.3,60.12647001583568,1,
14,exp1.png,exp2.png,,2,0,2,0,0,14,14,14,,,,,,,,,,,,,,,,,,,,,,,,,False,53,54,True,exp2.png,exp1.png,trial_left_image,1,exp2.png,1,exp1.png,exp2.png,0,4,reversed,incorrect,0.8934053182509744,0,valid_lose,311.30994590000773,32,,,,,,,,,,,,,,,sub_1017,2025-02-17_16h16.17.148,Reversal,2023.1.3,60.12647001583568,1,
15,exp3.png,exp4.png,,2,0,2,0,0,15,15,15,,,,,,,,,,,,,,,,,,,,,,,,,False,54,55,False,exp3.png,exp4.png,trial_left_image,1,exp3.png,1,exp3.png,exp4.png,1,1,non-reversed,correct,0.016447166998692975,0,invalid_lose,315.6252281000052,32,,,,,,,,,,,,,,,sub_1017,2025-02-17_16h16.17.148,Reversal,2023.1.3,60.12647001583568,1,
16,exp1.png,exp2.png,,2,0,2,0,0,16,16,16,,,,,,,,,,,,,,,,,,,,,,,,,False,55,56,True,exp2.png,exp1.png,trial_right_image,-1,exp1.png,1,exp1.png,exp2.png,1,3,reversed,correct,0.820768377330395,1,valid_win,320.55657660000725,33,,,,,,,,,,,,,,,sub_1017,2025-02-17_16h16.17.148,Reversal,2023.1.3,60.12647001583568,1,
17,exp3.png,exp4.png,,2,0,2,0,0,17,17,17,,,,,,,,,,,,,,,,,,,,,,,,,False,56,57,False,exp3.png,exp4.png,trial_right_image,-1,exp4.png,1,exp3.png,exp4.png,0,2,non-reversed,incorrect,0.35658746080490267,0,valid_lose,324.62234859999444,33,,,,,,,,,,,,,,,sub_1017,2025-02-17_16h16.17.148,Reversal,2023.1.3,60.12647001583568,1,
18,exp1.png,exp2.png,,2,0,2,0,0,18,18,18,,,,,,,,,,,,,,,,,,,,,,,,,False,57,58,False,exp1.png,exp2.png,trial_left_image,1,exp1.png,1,exp1.png,exp2.png,1,3,reversed,correct,0.6346926032649334,1,valid_win,328.7375122999947,34,,,,,,,,,,,,,,,sub_1017,2025-02-17_16h16.17.148,Reversal,2023.1.3,60.12647001583568,1,
19,exp3.png,exp4.png,,2,0,2,0,0,19,19,19,,,,,,,,,,,,,,,,,,,,,,,,,False,58,59,True,exp4.png,exp3.png,trial_right_image,-1,exp3.png,1,exp3.png,exp4.png,1,1,non-reversed,correct,0.5314781652294037,1,valid_win,332.90277060000517,35,,,,,,,,,,,,,,,sub_1017,2025-02-17_16h16.17.148,Reversal,2023.1.3,60.12647001583568,1,
20,exp1.png,exp2.png,,2,0,2,0,0,20,20,20,,,,,,,,,,,,,,,,,,,,,,,,,False,59,60,False,exp1.png,exp2.png,trial_left_image,1,exp1.png,1,exp1.png,exp2.png,1,3,reversed,correct,0.4622168787838151,1,valid_win,336.83474320000096,36,,,,,,,,,,,,,,,sub_1017,2025-02-17_16h16.17.148,Reversal,2023.1.3,60.12647001583568,1,
,,,exp1.png,2,0,2,0,,,,,0,0,0,0,0,0,0,0,,,,,,,,,,,,,,,,,,,,,,,,,,,,,,,,,,,,,,402.68894819999696,88.0,88.0,2.895122399990214,"[(88.0, 2.895122399990214)]",,,,,,,,,,sub_1017,2025-02-17_16h16.17.148,Reversal,2023.1.3,60.12647001583568,1,
,,,exp2.png,2,0,2,0,,,,,0,0,0,0,0,1,1,1,,,,,,,,,,,,,,,,,,,,,,,,,,,,,,,,,,,,,,406.43524869999965,,11.0,1.8267250000062631,"[(11.0, 1.8267250000062631)]",11.0,,,,,,,,,sub_1017,2025-02-17_16h16.17.148,Reversal,2023.1.3,60.12647001583568,1,
,,,exp3.png,2,0,2,0,,,,,0,0,0,0,0,2,2,2,,,,,,,,,,,,,,,,,,,,,,,,,,,,,,,,,,,,,,409.23373529998935,,90.0,1.343166000006022,"[(66.0, 0.7952928000013344), (90.0, 1.343166000006022)]",,,90.0,,,,,,,sub_1017,2025-02-17_16h16.17.148,Reversal,2023.1.3,60.12647001583568,1,
,,,exp4.png,2,0,2,0,,,,,0,0,0,0,0,3,3,3,,,,,,,,,,,,,,,,,,,,,,,,,,,,,,,,,,,,,,411.41685999999754,,10.0,1.143777900011628,"[(10.0, 1.143777900011628)]",,10.0,,,,,,,,sub_1017,2025-02-17_16h16.17.148,Reversal,2023.1.3,60.12647001583568,1,
0,exp1.png,exp2.png,,,,,,,,,,,,,,,,,,0,0,0,0,0,0,0,0,,,,,,,,,True,,,,,,,,,,,,,,,,,,,,,,,,,,,,,,,,,,,sub_1017,2025-02-17_16h16.17.148,Reversal,2023.1.3,60.12647001583568,1,
1,exp3.png,exp4.png,,,,,,,,,,,,,,,,,,0,0,0,0,0,1,1,1,,,,,,,,,False,0,61,False,exp3.png,exp4.png,trial_left_image,1,exp3.png,1,exp3.png,exp4.png,1,1,non-reversed,correct,0.3924622299847301,1,valid_win,352.67955339999753,37,,,,,,,,,350.274739600005,,,,,,sub_1017,2025-02-17_16h16.17.148,Reversal,2023.1.3,60.12647001583568,1,
2,exp1.png,exp2.png,,,,,,,,,,,,,,,,,,0,0,0,0,0,2,2,2,,,,,,,,,False,1,62,True,exp2.png,exp1.png,trial_right_image,-1,exp1.png,1,exp2.png,exp1.png,1,3,reversed,incorrect,0.007202677737974228,1,invalid_win,356.97768460000225,38,,,,,,,,,,,,,,,sub_1017,2025-02-17_16h16.17.148,Reversal,2023.1.3,60.12647001583568,1,
3,exp3.png,exp4.png,,,,,,,,,,,,,,,,,,0,0,0,0,0,3,3,3,,,,,,,,,False,2,63,False,exp3.png,exp4.png,trial_left_image,1,exp3.png,1,exp3.png,exp4.png,1,1,non-reversed,correct,0.2917995319377832,1,valid_win,361.0623571000033,39,,,,,,,,,,,,,,,sub_1017,2025-02-17_16h16.17.148,Reversal,2023.1.3,60.12647001583568,1,
4,exp1.png,exp2.png,,,,,,,,,,,,,,,,,,0,0,0,0,0,4,4,4,,,,,,,,,False,3,64,True,exp2.png,exp1.png,trial_right_image,-1,exp1.png,1,exp2.png,exp1.png,1,3,reversed,incorrect,0.11242103400364689,1,invalid_win,365.0418506999995,40,,,,,,,,,,,,,,,sub_1017,2025-02-17_16h16.17.148,Reversal,2023.1.3,60.12647001583568,1,
5,exp3.png,exp4.png,,,,,,,,,,,,,,,,,,0,0,0,0,0,5,5,5,,,,,,,,,False,4,65,False,exp3.png,exp4.png,trial_left_image,1,exp3.png,1,exp3.png,exp4.png,1,1,non-reversed,correct,0.992321514449404,1,valid_win,369.35687119999784,41,,,,,,,,,,,,,,,sub_1017,2025-02-17_16h16.17.148,Reversal,2023.1.3,60.12647001583568,1,
6,exp1.png,exp2.png,,,,,,,,,,,,,,,,,,0,0,0,0,0,6,6,6,,,,,,,,,False,5,66,True,exp2.png,exp1.png,trial_right_image,-1,exp1.png,1,exp2.png,exp1.png,1,3,reversed,incorrect,0.12122852164464826,1,invalid_win,373.25549019999744,42,,,,,,,,,,,,,,,sub_1017,2025-02-17_16h16.17.148,Reversal,2023.1.3,60.12647001583568,1,
7,exp3.png,exp4.png,,,,,,,,,,,,,,,,,,0,0,0,0,0,7,7,7,,,,,,,,,False,6,67,False,exp3.png,exp4.png,trial_left_image,1,exp3.png,1,exp3.png,exp4.png,1,1,non-reversed,correct,0.7161532253772664,1,valid_win,377.421457599994,43,,,,,,,,,,,,,,,sub_1017,2025-02-17_16h16.17.148,Reversal,2023.1.3,60.12647001583568,1,
8,exp1.png,exp2.png,,,,,,,,,,,,,,,,,,0,0,0,0,0,8,8,8,,,,,,,,,False,7,68,True,exp2.png,exp1.png,trial_right_image,-1,exp1.png,1,exp2.png,exp1.png,1,3,reversed,incorrect,0.20101432476996406,1,invalid_win,381.5697893000033,44,,,,,,,,,,,,,,,sub_1017,2025-02-17_16h16.17.148,Reversal,2023.1.3,60.12647001583568,1,
9,exp3.png,exp4.png,,,,,,,,,,,,,,,,,,0,0,0,0,0,9,9,9,,,,,,,,,False,8,69,False,exp3.png,exp4.png,trial_left_image,1,exp3.png,1,exp3.png,exp4.png,1,1,non-reversed,correct,0.7116683541760706,1,valid_win,385.7853307000041,45,,,,,,,,,,,,,,,sub_1017,2025-02-17_16h16.17.148,Reversal,2023.1.3,60.12647001583568,1,
10,exp1.png,exp2.png,,,,,,,,,,,,,,,,,,0,0,0,0,0,10,10,10,,,,,,,,,False,9,70,True,exp2.png,exp1.png,trial_right_image,-1,exp1.png,1,exp2.png,exp1.png,1,3,reversed,incorrect,0.5563103299182751,0,valid_lose,389.8999582999968,45,,,,,,,,,,,,,,,sub_1017,2025-02-17_16h16.17.148,Reversal,2023.1.3,60.12647001583568,1,
11,exp3.png,exp4.png,,,,,,,,,,,,,,,,,,0,0,0,0,0,11,11,11,,,,,,,,,False,10,71,True,exp4.png,exp3.png,trial_right_image,-1,exp3.png,1,exp3.png,exp4.png,1,1,non-reversed,correct,0.10278049980889414,0,invalid_lose,393.9822892000084,45,,,,,,,,,,,,,,,sub_1017,2025-02-17_16h16.17.148,Reversal,2023.1.3,60.12647001583568,1,
12,exp1.png,exp2.png,,,,,,,,,,,,,,,,,,0,0,0,0,0,12,12,12,,,,,,,,,False,11,72,True,exp2.png,exp1.png,trial_left_image,1,exp2.png,1,exp2.png,exp1.png,0,4,reversed,correct,0.2922883204490472,1,valid_win,398.13103489999776,46,,,,,,,,,,,,,,,sub_1017,2025-02-17_16h16.17.148,Reversal,2023.1.3,60.12647001583568,1,
13,exp3.png,exp4.png,,,,,,,,,,,,,,,,,,0,0,0,0,0,13,13,13,,,,,,,,,False,12,73,True,exp4.png,exp3.png,trial_left_image,1,exp4.png,1,exp3.png,exp4.png,0,2,non-reversed,incorrect,0.9335365577120355,0,valid_lose,402.2130621999968,46,,,,,,,,,,,,,,,sub_1017,2025-02-17_16h16.17.148,Reversal,2023.1.3,60.12647001583568,1,
14,exp1.png,exp2.png,,,,,,,,,,,,,,,,,,0,0,0,0,0,14,14,14,,,,,,,,,False,13,74,False,exp1.png,exp2.png,trial_right_image,-1,exp2.png,1,exp2.png,exp1.png,0,4,reversed,correct,0.6260581591543694,1,valid_win,406.54454459999397,47,,,,,,,,,,,,,,,sub_1017,2025-02-17_16h16.17.148,Reversal,2023.1.3,60.12647001583568,1,
15,exp3.png,exp4.png,,,,,,,,,,,,,,,,,,0,0,0,0,0,15,15,15,,,,,,,,,False,14,75,False,exp3.png,exp4.png,trial_left_image,1,exp3.png,1,exp3.png,exp4.png,1,1,non-reversed,correct,0.26679083357880806,1,valid_win,410.6762783000013,48,,,,,,,,,,,,,,,sub_1017,2025-02-17_16h16.17.148,Reversal,2023.1.3,60.12647001583568,1,
16,exp1.png,exp2.png,,,,,,,,,,,,,,,,,,0,0,0,0,0,16,16,16,,,,,,,,,False,15,76,True,exp2.png,exp1.png,trial_left_image,1,exp2.png,1,exp2.png,exp1.png,0,4,reversed,correct,0.7116490451175919,1,valid_win,414.97494660000666,49,,,,,,,,,,,,,,,sub_1017,2025-02-17_16h16.17.148,Reversal,2023.1.3,60.12647001583568,1,
17,exp3.png,exp4.png,,,,,,,,,,,,,,,,,,0,0,0,0,0,17,17,17,,,,,,,,,False,16,77,False,exp3.png,exp4.png,trial_left_image,1,exp3.png,1,exp3.png,exp4.png,1,1,non-reversed,correct,0.508657123040485,1,valid_win,419.17349380000087,50,,,,,,,,,,,,,,,sub_1017,2025-02-17_16h16.17.148,Reversal,2023.1.3,60.12647001583568,1,
18,exp1.png,exp2.png,,,,,,,,,,,,,,,,,,0,0,0,0,0,18,18,18,,,,,,,,,False,17,78,False,exp1.png,exp2.png,trial_right_image,-1,exp2.png,1,exp2.png,exp1.png,0,4,reversed,correct,0.19414429893358687,0,invalid_lose,423.2054257999989,50,,,,,,,,,,,,,,,sub_1017,2025-02-17_16h16.17.148,Reversal,2023.1.3,60.12647001583568,1,
19,exp3.png,exp4.png,,,,,,,,,,,,,,,,,,0,0,0,0,0,19,19,19,,,,,,,,,False,18,79,False,exp3.png,exp4.png,trial_left_image,1,exp3.png,1,exp3.png,exp4.png,1,1,non-reversed,correct,0.4226090032352472,1,valid_win,427.5040736999945,51,,,,,,,,,,,,,,,sub_1017,2025-02-17_16h16.17.148,Reversal,2023.1.3,60.12647001583568,1,
20,exp1.png,exp2.png,,,,,,,,,,,,,,,,,,0,0,0,0,0,20,20,20,,,,,,,,,False,19,80,True,exp2.png,exp1.png,trial_right_image,-1,exp1.png,1,exp2.png,exp1.png,1,3,reversed,incorrect,0.8441719057463052,0,valid_lose,431.68623770000704,51,,,,,,,,,,,,,,,sub_1017,2025-02-17_16h16.17.148,Reversal,2023.1.3,60.12647001583568,1,
,,,exp1.png,,,,,,,,,,,,,,,,,0,0,0,0,,,,,0,0,0,0,0,0,0,0,,,,,,,,,,,,,,,,,,,,,,497.52567129999807,,None,None,[],,,,,,,,,,sub_1017,2025-02-17_16h16.17.148,Reversal,2023.1.3,60.12647001583568,1,
,,,exp2.png,,,,,,,,,,,,,,,,,0,0,0,0,,,,,0,0,0,0,0,1,1,1,,,,,,,,,,,,,,,,,,,,,,503.0709673999954,,None,None,[],,,,,,,,,,sub_1017,2025-02-17_16h16.17.148,Reversal,2023.1.3,60.12647001583568,1,
,,,exp3.png,,,,,,,,,,,,,,,,,0,0,0,0,,,,,0,0,0,0,0,2,2,2,,,,,,,,,,,,,,,,,,,,,,505.20294339999964,,88.0,1.7275405999971554,"[(88.0, 1.7275405999971554)]",,,88.0,,,,,,,sub_1017,2025-02-17_16h16.17.148,Reversal,2023.1.3,60.12647001583568,1,
,,,exp4.png,,,,,,,,,,,,,,,,,0,0,0,0,,,,,0,0,0,0,0,3,3,3,,,,,,,,,,,,,,,,,,,,,,507.7680771000014,,9.0,1.3277110000053653,"[(9.0, 1.3277110000053653)]",,9.0,,,,,,,,sub_1017,2025-02-17_16h16.17.148,Reversal,2023.1.3,60.12647001583568,1,
0,exp1.png,exp2.png,,,,,,,,,,,,,,,,,,1,0,1,0,0,0,0,0,,,,,,,,,True,,,,,,,,,,,,,,,,,,,,,,,,,,,,,,,,,,,sub_1017,2025-02-17_16h16.17.148,Reversal,2023.1.3,60.12647001583568,1,
1,exp3.png,exp4.png,,,,,,,,,,,,,,,,,,1,0,1,0,0,1,1,1,,,,,,,,,False,20,81,False,exp3.png,exp4.png,trial_left_image,1,exp3.png,1,exp3.png,exp4.png,1,1,non-reversed,correct,0.7196271173301854,1,valid_win,449.0300544000056,52,,,,,,,,,,,,,,,sub_1017,2025-02-17_16h16.17.148,Reversal,2023.1.3,60.12647001583568,1,
2,exp1.png,exp2.png,,,,,,,,,,,,,,,,,,1,0,1,0,0,2,2,2,,,,,,,,,False,21,82,False,exp1.png,exp2.png,trial_right_image,-1,exp2.png,1,exp2.png,exp1.png,0,4,reversed,correct,0.8810459554884691,1,valid_win,454.1615762000001,53,,,,,,,,,,,,,,,sub_1017,2025-02-17_16h16.17.148,Reversal,2023.1.3,60.12647001583568,1,
3,exp3.png,exp4.png,,,,,,,,,,,,,,,,,,1,0,1,0,0,3,3,3,,,,,,,,,False,22,83,True,exp4.png,exp3.png,trial_right_image,-1,exp3.png,1,exp3.png,exp4.png,1,1,non-reversed,correct,0.11920230100233609,0,invalid_lose,458.3275272000028,53,,,,,,,,,,,,,,,sub_1017,2025-02-17_16h16.17.148,Reversal,2023.1.3,60.12647001583568,1,
4,exp1.png,exp2.png,,,,,,,,,,,,,,,,,,1,0,1,0,0,4,4,4,,,,,,,,,False,23,84,False,exp1.png,exp2.png,trial_right_image,-1,exp2.png,1,exp2.png,exp1.png,0,4,reversed,correct,0.37054003130501545,1,valid_win,462.7755184999987,54,,,,,,,,,,,,,,,sub_1017,2025-02-17_16h16.17.148,Reversal,2023.1.3,60.12647001583568,1,
5,exp3.png,exp4.png,,,,,,,,,,,,,,,,,,1,0,1,0,0,5,5,5,,,,,,,,,False,24,85,False,exp3.png,exp4.png,trial_right_image,-1,exp4.png,1,exp3.png,exp4.png,0,2,non-reversed,incorrect,0.5099525987005852,0,valid_lose,466.85743509999884,54,,,,,,,,,,,,,,,sub_1017,2025-02-17_16h16.17.148,Reversal,2023.1.3,60.12647001583568,1,
6,exp1.png,exp2.png,,,,,,,,,,,,,,,,,,1,0,1,0,0,6,6,6,,,,,,,,,False,25,86,True,exp2.png,exp1.png,trial_left_image,1,exp2.png,1,exp2.png,exp1.png,0,4,reversed,correct,0.1809307538449224,0,invalid_lose,473.18852270000207,54,,,,,,,,,,,,,,,sub_1017,2025-02-17_16h16.17.148,Reversal,2023.1.3,60.12647001583568,1,
7,exp3.png,exp4.png,,,,,,,,,,,,,,,,,,1,0,1,0,0,7,7,7,,,,,,,,,False,26,87,True,exp4.png,exp3.png,trial_right_image,-1,exp3.png,1,exp3.png,exp4.png,1,1,non-reversed,correct,0.7783941546762325,1,valid_win,477.3203280000016,55,,,,,,,,,,,,,,,sub_1017,2025-02-17_16h16.17.148,Reversal,2023.1.3,60.12647001583568,1,
8,exp1.png,exp2.png,,,,,,,,,,,,,,,,,,1,0,1,0,0,8,8,8,,,,,,,,,False,27,88,True,exp2.png,exp1.png,trial_right_image,-1,exp1.png,1,exp2.png,exp1.png,1,3,reversed,incorrect,0.8311993869589804,0,valid_lose,481.3364750000037,55,,,,,,,,,,,,,,,sub_1017,2025-02-17_16h16.17.148,Reversal,2023.1.3,60.12647001583568,1,
9,exp3.png,exp4.png,,,,,,,,,,,,,,,,,,1,0,1,0,0,9,9,9,,,,,,,,,False,28,89,True,exp4.png,exp3.png,trial_right_image,-1,exp3.png,1,exp3.png,exp4.png,1,1,non-reversed,correct,0.7312837826856403,1,valid_win,485.61761390000174,56,,,,,,,,,,,,,,,sub_1017,2025-02-17_16h16.17.148,Reversal,2023.1.3,60.12647001583568,1,
10,exp1.png,exp2.png,,,,,,,,,,,,,,,,,,1,0,1,0,0,10,10,10,,,,,,,,,False,29,90,False,exp1.png,exp2.png,trial_right_image,-1,exp2.png,1,exp2.png,exp1.png,0,4,reversed,correct,0.04730759591265887,0,invalid_lose,489.88270580000244,56,,,,,,,,,,,,,,,sub_1017,2025-02-17_16h16.17.148,Reversal,2023.1.3,60.12647001583568,1,
11,exp3.png,exp4.png,,,,,,,,,,,,,,,,,,1,0,1,0,0,11,11,11,,,,,,,,,False,30,91,True,exp4.png,exp3.png,trial_right_image,-1,exp3.png,1,exp3.png,exp4.png,1,1,non-reversed,correct,0.4307728202188339,1,valid_win,493.7493719000049,57,,,,,,,,,,,,,,,sub_1017,2025-02-17_16h16.17.148,Reversal,2023.1.3,60.12647001583568,1,
12,exp1.png,exp2.png,,,,,,,,,,,,,,,,,,1,0,1,0,0,12,12,12,,,,,,,,,False,31,92,True,exp2.png,exp1.png,trial_left_image,1,exp2.png,1,exp2.png,exp1.png,0,4,reversed,correct,0.6030026604524861,1,valid_win,497.8634763000009,58,,,,,,,,,,,,,,,sub_1017,2025-02-17_16h16.17.148,Reversal,2023.1.3,60.12647001583568,1,
13,exp3.png,exp4.png,,,,,,,,,,,,,,,,,,1,0,1,0,0,13,13,13,,,,,,,,,False,32,93,False,exp3.png,exp4.png,trial_left_image,1,exp3.png,1,exp3.png,exp4.png,1,1,non-reversed,correct,0.00019243575084182396,0,invalid_lose,502.22913130000234,58,,,,,,,,,,,,,,,sub_1017,2025-02-17_16h16.17.148,Reversal,2023.1.3,60.12647001583568,1,
14,exp1.png,exp2.png,,,,,,,,,,,,,,,,,,1,0,1,0,0,14,14,14,,,,,,,,,False,33,94,True,exp2.png,exp1.png,trial_right_image,-1,exp1.png,1,exp2.png,exp1.png,1,3,reversed,incorrect,0.41509693407336123,0,valid_lose,506.0610292000056,58,,,,,,,,,,,,,,,sub_1017,2025-02-17_16h16.17.148,Reversal,2023.1.3,60.12647001583568,1,
15,exp3.png,exp4.png,,,,,,,,,,,,,,,,,,1,0,1,0,0,15,15,15,,,,,,,,,False,34,95,False,exp3.png,exp4.png,trial_right_image,-1,exp4.png,1,exp3.png,exp4.png,0,2,non-reversed,incorrect,0.592125740969797,0,valid_lose,510.1259752000042,58,,,,,,,,,,,,,,,sub_1017,2025-02-17_16h16.17.148,Reversal,2023.1.3,60.12647001583568,1,
16,exp1.png,exp2.png,,,,,,,,,,,,,,,,,,1,0,1,0,0,16,16,16,,,,,,,,,False,35,96,False,exp1.png,exp2.png,trial_right_image,-1,exp2.png,1,exp2.png,exp1.png,0,4,reversed,correct,0.5247750555851945,1,valid_win,514.2088669999939,59,,,,,,,,,,,,,,,sub_1017,2025-02-17_16h16.17.148,Reversal,2023.1.3,60.12647001583568,1,
17,exp3.png,exp4.png,,,,,,,,,,,,,,,,,,1,0,1,0,0,17,17,17,,,,,,,,,False,36,97,True,exp4.png,exp3.png,trial_right_image,-1,exp3.png,1,exp3.png,exp4.png,1,1,non-reversed,correct,0.5481134041531828,1,valid_win,518.2236069000064,60,,,,,,,,,,,,,,,sub_1017,2025-02-17_16h16.17.148,Reversal,2023.1.3,60.12647001583568,1,
18,exp1.png,exp2.png,,,,,,,,,,,,,,,,,,1,0,1,0,0,18,18,18,,,,,,,,,False,37,98,False,exp1.png,exp2.png,trial_right_image,-1,exp2.png,1,exp2.png,exp1.png,0,4,reversed,correct,0.5415502236220471,1,valid_win,522.1226739999984,61,,,,,,,,,,,,,,,sub_1017,2025-02-17_16h16.17.148,Reversal,2023.1.3,60.12647001583568,1,
19,exp3.png,exp4.png,,,,,,,,,,,,,,,,,,1,0,1,0,0,19,19,19,,,,,,,,,False,38,99,False,exp3.png,exp4.png,trial_left_image,1,exp3.png,1,exp3.png,exp4.png,1,1,non-reversed,correct,0.8807081658089299,1,valid_win,526.3205348000047,62,,,,,,,,,,,,,,,sub_1017,2025-02-17_16h16.17.148,Reversal,2023.1.3,60.12647001583568,1,
20,exp1.png,exp2.png,,,,,,,,,,,,,,,,,,1,0,1,0,0,20,20,20,,,,,,,,,False,39,100,True,exp2.png,exp1.png,trial_left_image,1,exp2.png,1,exp2.png,exp1.png,0,4,reversed,correct,0.27538462040345946,1,valid_win,530.4858842999965,63,,,,,,,,,,,,,,,sub_1017,2025-02-17_16h16.17.148,Reversal,2023.1.3,60.12647001583568,1,
,,,exp1.png,,,,,,,,,,,,,,,,,1,0,1,0,,,,,0,0,0,0,0,0,0,0,,,,,,,,,,,,,,,,,,,,,,596.3248547999974,12.0,12.0,2.7752044000080787,"[(12.0, 2.7752044000080787)]",,,,,,,,,,sub_1017,2025-02-17_16h16.17.148,Reversal,2023.1.3,60.12647001583568,1,
,,,exp2.png,,,,,,,,,,,,,,,,,1,0,1,0,,,,,0,0,0,0,0,1,1,1,,,,,,,,,,,,,,,,,,,,,,600.0370574999979,,91.0,1.6928837000014028,"[(91.0, 1.6928837000014028)]",91.0,,,,,,,,,sub_1017,2025-02-17_16h16.17.148,Reversal,2023.1.3,60.12647001583568,1,
,,,exp3.png,,,,,,,,,,,,,,,,,1,0,1,0,,,,,0,0,0,0,0,2,2,2,,,,,,,,,,,,,,,,,,,,,,603.2696929999947,,87.0,1.5093824999930803,"[(87.0, 1.5093824999930803)]",,,87.0,,,,,,,sub_1017,2025-02-17_16h16.17.148,Reversal,2023.1.3,60.12647001583568,1,
,,,exp4.png,,,,,,,,,,,,,,,,,1,0,1,0,,,,,0,0,0,0,0,3,3,3,,,,,,,,,,,,,,,,,,,,,,605.5873928999936,,17.0,1.1924454000109108,"[(17.0, 1.1924454000109108)]",,17.0,,,,,,,,sub_1017,2025-02-17_16h16.17.148,Reversal,2023.1.3,60.12647001583568,1,
0,exp1.png,exp2.png,,,,,,,,,,,,,,,,,,2,0,2,0,0,0,0,0,,,,,,,,,True,,,,,,,,,,,,,,,,,,,,,,,,,,,,,,,,,,,sub_1017,2025-02-17_16h16.17.148,Reversal,2023.1.3,60.12647001583568,1,
1,exp3.png,exp4.png,,,,,,,,,,,,,,,,,,2,0,2,0,0,1,1,1,,,,,,,,,False,40,101,False,exp3.png,exp4.png,trial_left_image,1,exp3.png,1,exp3.png,exp4.png,1,1,non-reversed,correct,0.09048570579335136,0,invalid_lose,546.4469515999954,63,,,,,,,,,,,,,,,sub_1017,2025-02-17_16h16.17.148,Reversal,2023.1.3,60.12647001583568,1,
2,exp1.png,exp2.png,,,,,,,,,,,,,,,,,,2,0,2,0,0,2,2,2,,,,,,,,,False,41,102,True,exp2.png,exp1.png,trial_left_image,1,exp2.png,1,exp2.png,exp1.png,0,4,reversed,correct,0.5189881310434151,1,valid_win,551.3623641000013,64,,,,,,,,,,,,,,,sub_1017,2025-02-17_16h16.17.148,Reversal,2023.1.3,60.12647001583568,1,
3,exp3.png,exp4.png,,,,,,,,,,,,,,,,,,2,0,2,0,0,3,3,3,,,,,,,,,False,42,103,True,exp4.png,exp3.png,trial_left_image,1,exp4.png,1,exp3.png,exp4.png,0,2,non-reversed,incorrect,0.5981203912931061,0,valid_lose,555.9439385000005,64,,,,,,,,,,,,,,,sub_1017,2025-02-17_16h16.17.148,Reversal,2023.1.3,60.12647001583568,1,
4,exp1.png,exp2.png,,,,,,,,,,,,,,,,,,2,0,2,0,0,4,4,4,,,,,,,,,False,43,104,True,exp2.png,exp1.png,trial_left_image,1,exp2.png,1,exp2.png,exp1.png,0,4,reversed,correct,0.39897781125800735,1,valid_win,559.9764412000077,65,,,,,,,,,,,,,,,sub_1017,2025-02-17_16h16.17.148,Reversal,2023.1.3,60.12647001583568,1,
5,exp3.png,exp4.png,,,,,,,,,,,,,,,,,,2,0,2,0,0,5,5,5,,,,,,,,,False,44,105,False,exp3.png,exp4.png,trial_left_image,1,exp3.png,1,exp3.png,exp4.png,1,1,non-reversed,correct,0.16583690684862284,0,invalid_lose,564.1911976999982,65,,,,,,,,,,,,,,,sub_1017,2025-02-17_16h16.17.148,Reversal,2023.1.3,60.12647001583568,1,
6,exp1.png,exp2.png,,,,,,,,,,,,,,,,,,2,0,2,0,0,6,6,6,,,,,,,,,False,45,106,True,exp2.png,exp1.png,trial_left_image,1,exp2.png,1,exp2.png,exp1.png,0,4,reversed,correct,0.6729242562584423,1,valid_win,568.3401541000057,66,,,,,,,,,,,,,,,sub_1017,2025-02-17_16h16.17.148,Reversal,2023.1.3,60.12647001583568,1,
7,exp3.png,exp4.png,,,,,,,,,,,,,,,,,,2,0,2,0,0,7,7,7,,,,,,,,,False,46,107,True,exp4.png,exp3.png,trial_right_image,-1,exp3.png,1,exp3.png,exp4.png,1,1,non-reversed,correct,0.2688431077261314,1,valid_win,573.454957599999,67,,,,,,,,,,,,,,,sub_1017,2025-02-17_16h16.17.148,Reversal,2023.1.3,60.12647001583568,1,
8,exp1.png,exp2.png,,,,,,,,,,,,,,,,,,2,0,2,0,0,8,8,8,,,,,,,,,False,47,108,False,exp1.png,exp2.png,trial_right_image,-1,exp2.png,1,exp2.png,exp1.png,0,4,reversed,correct,0.0474395019070637,0,invalid_lose,577.9199138999975,67,,,,,,,,,,,,,,,sub_1017,2025-02-17_16h16.17.148,Reversal,2023.1.3,60.12647001583568,1,
9,exp3.png,exp4.png,,,,,,,,,,,,,,,,,,2,0,2,0,0,9,9,9,,,,,,,,,False,48,109,False,exp3.png,exp4.png,trial_left_image,1,exp3.png,1,exp3.png,exp4.png,1,1,non-reversed,correct,0.8450004913767301,1,valid_win,581.9683839000063,68,,,,,,,,,,,,,,,sub_1017,2025-02-17_16h16.17.148,Reversal,2023.1.3,60.12647001583568,1,
10,exp1.png,exp2.png,,,,,,,,,,,,,,,,,,2,0,2,0,0,10,10,10,,,,,,,,,False,49,110,True,exp2.png,exp1.png,trial_left_image,1,exp2.png,1,exp2.png,exp1.png,0,4,reversed,correct,0.8094564357728524,1,valid_win,588.0997757000005,69,,,,,,,,,,,,,,,sub_1017,2025-02-17_16h16.17.148,Reversal,2023.1.3,60.12647001583568,1,
11,exp3.png,exp4.png,,,,,,,,,,,,,,,,,,2,0,2,0,0,11,11,11,,,,,,,,,False,50,111,False,exp3.png,exp4.png,trial_left_image,1,exp3.png,1,exp3.png,exp4.png,1,1,non-reversed,correct,0.9079916486959069,1,valid_win,592.0173819000047,70,,,,,,,,,,,,,,,sub_1017,2025-02-17_16h16.17.148,Reversal,2023.1.3,60.12647001583568,1,
12,exp1.png,exp2.png,,,,,,,,,,,,,,,,,,2,0,2,0,0,12,12,12,,,,,,,,,False,51,112,False,exp1.png,exp2.png,trial_right_image,-1,exp2.png,1,exp2.png,exp1.png,0,4,reversed,correct,0.38289949035050264,1,valid_win,595.9304455999954,71,,,,,,,,,,,,,,,sub_1017,2025-02-17_16h16.17.148,Reversal,2023.1.3,60.12647001583568,1,
13,exp3.png,exp4.png,,,,,,,,,,,,,,,,,,2,0,2,0,0,13,13,13,,,,,,,,,False,52,113,True,exp4.png,exp3.png,trial_right_image,-1,exp3.png,1,exp3.png,exp4.png,1,1,non-reversed,correct,0.0298226106652566,0,invalid_lose,600.0122899999988,71,,,,,,,,,,,,,,,sub_1017,2025-02-17_16h16.17.148,Reversal,2023.1.3,60.12647001583568,1,
14,exp1.png,exp2.png,,,,,,,,,,,,,,,,,,2,0,2,0,0,14,14,14,,,,,,,,,False,53,114,False,exp1.png,exp2.png,trial_right_image,-1,exp2.png,1,exp2.png,exp1.png,0,4,reversed,correct,0.46930780488861157,1,valid_win,604.1277662000066,72,,,,,,,,,,,,,,,sub_1017,2025-02-17_16h16.17.148,Reversal,2023.1.3,60.12647001583568,1,
15,exp3.png,exp4.png,,,,,,,,,,,,,,,,,,2,0,2,0,0,15,15,15,,,,,,,,,False,54,115,False,exp3.png,exp4.png,trial_right_image,-1,exp4.png,1,exp3.png,exp4.png,0,2,non-reversed,incorrect,0.8238935181155567,0,valid_lose,608.0595536000037,72,,,,,,,,,,,,,,,sub_1017,2025-02-17_16h16.17.148,Reversal,2023.1.3,60.12647001583568,1,
16,exp1.png,exp2.png,,,,,,,,,,,,,,,,,,2,0,2,0,0,16,16,16,,,,,,,,,False,55,116,True,exp2.png,exp1.png,trial_left_image,1,exp2.png,1,exp2.png,exp1.png,0,4,reversed,correct,0.7440164568429342,1,valid_win,612.1416879000026,73,,,,,,,,,,,,,,,sub_1017,2025-02-17_16h16.17.148,Reversal,2023.1.3,60.12647001583568,1,
17,exp3.png,exp4.png,,,,,,,,,,,,,,,,,,2,0,2,0,0,17,17,17,,,,,,,,,False,56,117,False,exp3.png,exp4.png,trial_right_image,-1,exp4.png,1,exp3.png,exp4.png,0,2,non-reversed,incorrect,0.25525214433791255,0,valid_lose,616.073475600002,73,,,,,,,,,,,,,,,sub_1017,2025-02-17_16h16.17.148,Reversal,2023.1.3,60.12647001583568,1,
18,exp1.png,exp2.png,,,,,,,,,,,,,,,,,,2,0,2,0,0,18,18,18,,,,,,,,,False,57,118,True,exp2.png,exp1.png,trial_left_image,1,exp2.png,1,exp2.png,exp1.png,0,4,reversed,correct,0.2282903798073881,0,invalid_lose,619.9395978999964,73,,,,,,,,,,,,,,,sub_1017,2025-02-17_16h16.17.148,Reversal,2023.1.3,60.12647001583568,1,
19,exp3.png,exp4.png,,,,,,,,,,,,,,,,,,2,0,2,0,0,19,19,19,,,,,,,,,False,58,119,True,exp4.png,exp3.png,trial_right_image,-1,exp3.png,1,exp3.png,exp4.png,1,1,non-reversed,correct,0.748796647799751,1,valid_win,623.9377818000066,74,,,,,,,,,,,,,,,sub_1017,2025-02-17_16h16.17.148,Reversal,2023.1.3,60.12647001583568,1,
20,exp1.png,exp2.png,,,,,,,,,,,,,,,,,,2,0,2,0,0,20,20,20,,,,,,,,,False,59,120,False,exp1.png,exp2.png,trial_left_image,1,exp1.png,1,exp2.png,exp1.png,1,3,reversed,incorrect,0.03794260662598359,1,invalid_win,627.8863064000034,75,,,,,,,,,,,,,,,sub_1017,2025-02-17_16h16.17.148,Reversal,2023.1.3,60.12647001583568,1,
,,,exp1.png,,,,,,,,,,,,,,,,,2,0,2,0,,,,,0,0,0,0,0,0,0,0,,,,,,,,,,,,,,,,,,,,,,693.7355699999898,78.0,78.0,5.681454100005794,"[(78.0, 5.681454100005794)]",,,,,,,,,,sub_1017,2025-02-17_16h16.17.148,Reversal,2023.1.3,60.12647001583568,1,
,,,exp2.png,,,,,,,,,,,,,,,,,2,0,2,0,,,,,0,0,0,0,0,1,1,1,,,,,,,,,,,,,,,,,,,,,,700.3536389999936,,11.0,1.8600948000093922,"[(11.0, 1.8600948000093922)]",11.0,,,,,,,,,sub_1017,2025-02-17_16h16.17.148,Reversal,2023.1.3,60.12647001583568,1,
,,,exp3.png,,,,,,,,,,,,,,,,,2,0,2,0,,,,,0,0,0,0,0,2,2,2,,,,,,,,,,,,,,,,,,,,,,703.2179871999979,,73.0,1.360572499994305,"[(73.0, 1.360572499994305)]",,,73.0,,,,,,,sub_1017,2025-02-17_16h16.17.148,Reversal,2023.1.3,60.12647001583568,1,
,,,exp4.png,,,,,,,,,,,,,,,,,2,0,2,0,,,,,0,0,0,0,0,3,3,3,,,,,,,,,,,,,,,,,,,,,,705.3669213999965,,24.0,1.5113563000049908,"[(24.0, 1.5113563000049908)]",,24.0,,,,,,,,sub_1017,2025-02-17_16h16.17.148,Reversal,2023.1.3,60.12647001583568,1,
,,,,,,,,,,,,,,,,,,,,,,,,,,,,,,,,,,,,,,,,,,,,,,,,,,,,,,,,75,,,,,,,,,,85,40,45,294.1742471000034,0,,,,,,,
