trial_index,trial_image1_file,trial_image2_file,image_file,learning_outer_loop.thisRepN,learning_outer_loop.thisTrialN,learning_outer_loop.thisN,learning_outer_loop.thisIndex,learning_inner_loop.thisRepN,learning_inner_loop.thisTrialN,learning_inner_loop.thisN,learning_inner_loop.thisIndex,learning_estimation_outer_loop.thisRepN,learning_estimation_outer_loop.thisTrialN,learning_estimation_outer_loop.thisN,learning_estimation_outer_loop.thisIndex,learning_estimation_inner_loop.thisRepN,learning_estimation_inner_loop.thisTrialN,learning_estimation_inner_loop.thisN,learning_estimation_inner_loop.thisIndex,reversal_outer_loop.thisRepN,reversal_outer_loop.thisTrialN,reversal_outer_loop.thisN,reversal_outer_loop.thisIndex,reversal_inner_loop.thisRepN,reversal_inner_loop.thisTrialN,reversal_inner_loop.thisN,reversal_inner_loop.thisIndex,reversal_estimation_outer_loop.thisRepN,reversal_estimation_outer_loop.thisTrialN,reversal_estimation_outer_loop.thisN,reversal_estimation_outer_loop.thisIndex,reversal_estimation_inner_loop.thisRepN,reversal_estimation_inner_loop.thisTrialN,reversal_estimation_inner_loop.thisN,reversal_estimation_inner_loop.thisIndex,skipped,total_trial_counter,trial_num,left_right_flip,left_image_file,right_image_file,clicked_stimulus_side,side,clicked_stimulus,version,high_prob_image_file,low_prob_image_file,choice_a,choice_b,pair_type,correct,trial_feedback_random,reward,trial_type,overall_time_after_trial,score,estimation_rating.started,estimation_rating.response,estimation_rating.rt,estimation_rating.history,estimation_exp3.png,estimation_exp4.png,estimation_exp1.png,estimation_exp2.png,total_learning_time,total_correct,learning_correct,reversal_correct,total_reversal_time,extra_block,participant,date,expName,psychopyVersion,frameRate,ver,
0,exp1.png,exp2.png,,0,0,0,0,0,0,0,0,,,,,,,,,,,,,,,,,,,,,,,,,True,,,,,,,,,,,,,,,,,,,,,,,,,,,,,,,,,,,sub_1024,2025-04-06_16h49.08.762,Reversal,2023.1.3,59.892863645606916,4,
1,exp3.png,exp4.png,,0,0,0,0,0,1,1,1,,,,,,,,,,,,,,,,,,,,,,,,,False,0,1,True,exp4.png,exp3.png,trial_right_image,-1,exp3.png,4,exp4.png,exp3.png,0,4,reversed,incorrect,0.31590833693559395,0,valid_lose,5.013662999999724,0,,,,,,,,,,,,,,,sub_1024,2025-04-06_16h49.08.762,Reversal,2023.1.3,59.892863645606916,4,
2,exp1.png,exp2.png,,0,0,0,0,0,2,2,2,,,,,,,,,,,,,,,,,,,,,,,,,False,1,2,True,exp2.png,exp1.png,trial_left_image,1,exp2.png,4,exp2.png,exp1.png,1,1,non-reversed,correct,0.3643464648659618,1,valid_win,10.06170529999963,1,,,,,,,,,,,,,,,sub_1024,2025-04-06_16h49.08.762,Reversal,2023.1.3,59.892863645606916,4,
3,exp3.png,exp4.png,,0,0,0,0,0,3,3,3,,,,,,,,,,,,,,,,,,,,,,,,,False,2,3,True,exp4.png,exp3.png,trial_left_image,1,exp4.png,4,exp4.png,exp3.png,1,3,reversed,correct,0.2961041150972674,1,valid_win,14.593834100000095,2,,,,,,,,,,,,,,,sub_1024,2025-04-06_16h49.08.762,Reversal,2023.1.3,59.892863645606916,4,
4,exp1.png,exp2.png,,0,0,0,0,0,4,4,4,,,,,,,,,,,,,,,,,,,,,,,,,False,3,4,True,exp2.png,exp1.png,trial_left_image,1,exp2.png,4,exp2.png,exp1.png,1,1,non-reversed,correct,0.7846229101466754,1,valid_win,18.826959999999417,3,,,,,,,,,,,,,,,sub_1024,2025-04-06_16h49.08.762,Reversal,2023.1.3,59.892863645606916,4,
5,exp3.png,exp4.png,,0,0,0,0,0,5,5,5,,,,,,,,,,,,,,,,,,,,,,,,,False,4,5,True,exp4.png,exp3.png,trial_left_image,1,exp4.png,4,exp4.png,exp3.png,1,3,reversed,correct,0.03240890793819173,0,invalid_lose,23.090103200000158,3,,,,,,,,,,,,,,,sub_1024,2025-04-06_16h49.08.762,Reversal,2023.1.3,59.892863645606916,4,
6,exp1.png,exp2.png,,0,0,0,0,0,6,6,6,,,,,,,,,,,,,,,,,,,,,,,,,False,5,6,False,exp1.png,exp2.png,trial_left_image,1,exp1.png,4,exp2.png,exp1.png,0,2,non-reversed,incorrect,0.10956578796628635,1,invalid_win,27.52227479999965,4,,,,,,,,,,,,,,,sub_1024,2025-04-06_16h49.08.762,Reversal,2023.1.3,59.892863645606916,4,
7,exp3.png,exp4.png,,0,0,0,0,0,7,7,7,,,,,,,,,,,,,,,,,,,,,,,,,False,6,7,True,exp4.png,exp3.png,trial_right_image,-1,exp3.png,4,exp4.png,exp3.png,0,4,reversed,incorrect,0.6213280422881537,0,valid_lose,33.736362599999666,4,,,,,,,,,,,,,,,sub_1024,2025-04-06_16h49.08.762,Reversal,2023.1.3,59.892863645606916,4,
8,exp1.png,exp2.png,,0,0,0,0,0,8,8,8,,,,,,,,,,,,,,,,,,,,,,,,,False,7,8,False,exp1.png,exp2.png,trial_left_image,1,exp1.png,4,exp2.png,exp1.png,0,2,non-reversed,incorrect,0.7725196761999251,0,valid_lose,39.067937099999654,4,,,,,,,,,,,,,,,sub_1024,2025-04-06_16h49.08.762,Reversal,2023.1.3,59.892863645606916,4,
9,exp3.png,exp4.png,,0,0,0,0,0,9,9,9,,,,,,,,,,,,,,,,,,,,,,,,,False,8,9,False,exp3.png,exp4.png,trial_right_image,-1,exp4.png,4,exp4.png,exp3.png,1,3,reversed,correct,0.37379028258415337,1,valid_win,44.34954789999938,5,,,,,,,,,,,,,,,sub_1024,2025-04-06_16h49.08.762,Reversal,2023.1.3,59.892863645606916,4,
10,exp1.png,exp2.png,,0,0,0,0,0,10,10,10,,,,,,,,,,,,,,,,,,,,,,,,,False,9,10,False,exp1.png,exp2.png,trial_left_image,1,exp1.png,4,exp2.png,exp1.png,0,2,non-reversed,incorrect,0.5753152786337865,0,valid_lose,50.214230300000054,5,,,,,,,,,,,,,,,sub_1024,2025-04-06_16h49.08.762,Reversal,2023.1.3,59.892863645606916,4,
11,exp3.png,exp4.png,,0,0,0,0,0,11,11,11,,,,,,,,,,,,,,,,,,,,,,,,,False,10,11,True,exp4.png,exp3.png,trial_left_image,1,exp4.png,4,exp4.png,exp3.png,1,3,reversed,correct,0.5999776046611991,1,valid_win,54.86266369999976,6,,,,,,,,,,,,,,,sub_1024,2025-04-06_16h49.08.762,Reversal,2023.1.3,59.892863645606916,4,
12,exp1.png,exp2.png,,0,0,0,0,0,12,12,12,,,,,,,,,,,,,,,,,,,,,,,,,False,11,12,False,exp1.png,exp2.png,trial_right_image,-1,exp2.png,4,exp2.png,exp1.png,1,1,non-reversed,correct,0.4335793930047941,1,valid_win,59.34445379999943,7,,,,,,,,,,,,,,,sub_1024,2025-04-06_16h49.08.762,Reversal,2023.1.3,59.892863645606916,4,
13,exp3.png,exp4.png,,0,0,0,0,0,13,13,13,,,,,,,,,,,,,,,,,,,,,,,,,False,12,13,True,exp4.png,exp3.png,trial_left_image,1,exp4.png,4,exp4.png,exp3.png,1,3,reversed,correct,0.9059049317492591,1,valid_win,63.778174999999464,8,,,,,,,,,,,,,,,sub_1024,2025-04-06_16h49.08.762,Reversal,2023.1.3,59.892863645606916,4,
14,exp1.png,exp2.png,,0,0,0,0,0,14,14,14,,,,,,,,,,,,,,,,,,,,,,,,,False,13,14,False,exp1.png,exp2.png,trial_right_image,-1,exp2.png,4,exp2.png,exp1.png,1,1,non-reversed,correct,0.08411588268679937,0,invalid_lose,68.29189289999977,8,,,,,,,,,,,,,,,sub_1024,2025-04-06_16h49.08.762,Reversal,2023.1.3,59.892863645606916,4,
15,exp3.png,exp4.png,,0,0,0,0,0,15,15,15,,,,,,,,,,,,,,,,,,,,,,,,,False,14,15,False,exp3.png,exp4.png,trial_left_image,1,exp3.png,4,exp4.png,exp3.png,0,4,reversed,incorrect,0.24146267938173804,1,invalid_win,72.95776800000021,9,,,,,,,,,,,,,,,sub_1024,2025-04-06_16h49.08.762,Reversal,2023.1.3,59.892863645606916,4,
16,exp1.png,exp2.png,,0,0,0,0,0,16,16,16,,,,,,,,,,,,,,,,,,,,,,,,,False,15,16,False,exp1.png,exp2.png,trial_left_image,1,exp1.png,4,exp2.png,exp1.png,0,2,non-reversed,incorrect,0.264792543743009,0,valid_lose,77.20537009999953,9,,,,,,,,,,,,,,,sub_1024,2025-04-06_16h49.08.762,Reversal,2023.1.3,59.892863645606916,4,
17,exp3.png,exp4.png,,0,0,0,0,0,17,17,17,,,,,,,,,,,,,,,,,,,,,,,,,False,16,17,True,exp4.png,exp3.png,trial_left_image,1,exp4.png,4,exp4.png,exp3.png,1,3,reversed,correct,0.7534649600066163,1,valid_win,81.48741710000013,10,,,,,,,,,,,,,,,sub_1024,2025-04-06_16h49.08.762,Reversal,2023.1.3,59.892863645606916,4,
18,exp1.png,exp2.png,,0,0,0,0,0,18,18,18,,,,,,,,,,,,,,,,,,,,,,,,,False,17,18,True,exp2.png,exp1.png,trial_right_image,-1,exp1.png,4,exp2.png,exp1.png,0,2,non-reversed,incorrect,0.2554418634833262,0,valid_lose,86.81967600000007,10,,,,,,,,,,,,,,,sub_1024,2025-04-06_16h49.08.762,Reversal,2023.1.3,59.892863645606916,4,
19,exp3.png,exp4.png,,0,0,0,0,0,19,19,19,,,,,,,,,,,,,,,,,,,,,,,,,False,18,19,False,exp3.png,exp4.png,trial_right_image,-1,exp4.png,4,exp4.png,exp3.png,1,3,reversed,correct,0.39386891272152147,1,valid_win,91.15083719999984,11,,,,,,,,,,,,,,,sub_1024,2025-04-06_16h49.08.762,Reversal,2023.1.3,59.892863645606916,4,
20,exp1.png,exp2.png,,0,0,0,0,0,20,20,20,,,,,,,,,,,,,,,,,,,,,,,,,False,19,20,False,exp1.png,exp2.png,trial_left_image,1,exp1.png,4,exp2.png,exp1.png,0,2,non-reversed,incorrect,0.4189669418716817,0,valid_lose,95.86590909999995,11,,,,,,,,,,,,,,,sub_1024,2025-04-06_16h49.08.762,Reversal,2023.1.3,59.892863645606916,4,
,,,exp1.png,0,0,0,0,,,,,0,0,0,0,0,0,0,0,,,,,,,,,,,,,,,,,,,,,,,,,,,,,,,,,,,,,,207.67162120000012,None,None,[],,,,,,,,,,,sub_1024,2025-04-06_16h49.08.762,Reversal,2023.1.3,59.892863645606916,4,
,,,exp2.png,0,0,0,0,,,,,0,0,0,0,0,1,1,1,,,,,,,,,,,,,,,,,,,,,,,,,,,,,,,,,,,,,,214.74655619999976,None,None,[],,,,,,,,,,,sub_1024,2025-04-06_16h49.08.762,Reversal,2023.1.3,59.892863645606916,4,
,,,exp3.png,0,0,0,0,,,,,0,0,0,0,0,2,2,2,,,,,,,,,,,,,,,,,,,,,,,,,,,,,,,,,,,,,,217.09647940000013,1.0,5.028758299999936,"[(1.0, 5.028758299999936)]",1.0,,,,,,,,,,sub_1024,2025-04-06_16h49.08.762,Reversal,2023.1.3,59.892863645606916,4,
,,,exp4.png,0,0,0,0,,,,,0,0,0,0,0,3,3,3,,,,,,,,,,,,,,,,,,,,,,,,,,,,,,,,,,,,,,223.34513830000014,75.0,7.9757956000003105,"[(75.0, 7.9757956000003105)]",,75.0,,,,,,,,,sub_1024,2025-04-06_16h49.08.762,Reversal,2023.1.3,59.892863645606916,4,
0,exp1.png,exp2.png,,1,0,1,0,0,0,0,0,,,,,,,,,,,,,,,,,,,,,,,,,True,,,,,,,,,,,,,,,,,,,,,,,,,,,,,,,,,,,sub_1024,2025-04-06_16h49.08.762,Reversal,2023.1.3,59.892863645606916,4,
1,exp3.png,exp4.png,,1,0,1,0,0,1,1,1,,,,,,,,,,,,,,,,,,,,,,,,,False,20,21,True,exp4.png,exp3.png,trial_left_image,1,exp4.png,4,exp4.png,exp3.png,1,3,reversed,correct,0.6532007588756372,1,valid_win,127.67175690000022,12,,,,,,,,,,,,,,,sub_1024,2025-04-06_16h49.08.762,Reversal,2023.1.3,59.892863645606916,4,
2,exp1.png,exp2.png,,1,0,1,0,0,2,2,2,,,,,,,,,,,,,,,,,,,,,,,,,False,21,22,True,exp2.png,exp1.png,trial_left_image,1,exp2.png,4,exp2.png,exp1.png,1,1,non-reversed,correct,0.8121264692251613,1,valid_win,133.2709821999997,13,,,,,,,,,,,,,,,sub_1024,2025-04-06_16h49.08.762,Reversal,2023.1.3,59.892863645606916,4,
3,exp3.png,exp4.png,,1,0,1,0,0,3,3,3,,,,,,,,,,,,,,,,,,,,,,,,,False,22,23,True,exp4.png,exp3.png,trial_left_image,1,exp4.png,4,exp4.png,exp3.png,1,3,reversed,correct,0.11562539339776312,0,invalid_lose,138.7679406999996,13,,,,,,,,,,,,,,,sub_1024,2025-04-06_16h49.08.762,Reversal,2023.1.3,59.892863645606916,4,
4,exp1.png,exp2.png,,1,0,1,0,0,4,4,4,,,,,,,,,,,,,,,,,,,,,,,,,False,23,24,False,exp1.png,exp2.png,trial_right_image,-1,exp2.png,4,exp2.png,exp1.png,1,1,non-reversed,correct,0.4570910963014606,1,valid_win,144.30032299999948,14,,,,,,,,,,,,,,,sub_1024,2025-04-06_16h49.08.762,Reversal,2023.1.3,59.892863645606916,4,
5,exp3.png,exp4.png,,1,0,1,0,0,5,5,5,,,,,,,,,,,,,,,,,,,,,,,,,False,24,25,True,exp4.png,exp3.png,trial_left_image,1,exp4.png,4,exp4.png,exp3.png,1,3,reversed,correct,0.2245709843642747,0,invalid_lose,150.09801179999977,14,,,,,,,,,,,,,,,sub_1024,2025-04-06_16h49.08.762,Reversal,2023.1.3,59.892863645606916,4,
6,exp1.png,exp2.png,,1,0,1,0,0,6,6,6,,,,,,,,,,,,,,,,,,,,,,,,,False,25,26,False,exp1.png,exp2.png,trial_right_image,-1,exp2.png,4,exp2.png,exp1.png,1,1,non-reversed,correct,0.17692670749471184,0,invalid_lose,156.22892839999986,14,,,,,,,,,,,,,,,sub_1024,2025-04-06_16h49.08.762,Reversal,2023.1.3,59.892863645606916,4,
7,exp3.png,exp4.png,,1,0,1,0,0,7,7,7,,,,,,,,,,,,,,,,,,,,,,,,,False,26,27,False,exp3.png,exp4.png,trial_left_image,1,exp3.png,4,exp4.png,exp3.png,0,4,reversed,incorrect,0.8889746909679191,0,valid_lose,162.8262434999997,14,,,,,,,,,,,,,,,sub_1024,2025-04-06_16h49.08.762,Reversal,2023.1.3,59.892863645606916,4,
8,exp1.png,exp2.png,,1,0,1,0,0,8,8,8,,,,,,,,,,,,,,,,,,,,,,,,,False,27,28,True,exp2.png,exp1.png,trial_left_image,1,exp2.png,4,exp2.png,exp1.png,1,1,non-reversed,correct,0.580284999949328,1,valid_win,172.02451870000004,15,,,,,,,,,,,,,,,sub_1024,2025-04-06_16h49.08.762,Reversal,2023.1.3,59.892863645606916,4,
9,exp3.png,exp4.png,,1,0,1,0,0,9,9,9,,,,,,,,,,,,,,,,,,,,,,,,,False,28,29,True,exp4.png,exp3.png,trial_left_image,1,exp4.png,4,exp4.png,exp3.png,1,3,reversed,correct,0.7247952300086198,1,valid_win,178.0882657000002,16,,,,,,,,,,,,,,,sub_1024,2025-04-06_16h49.08.762,Reversal,2023.1.3,59.892863645606916,4,
10,exp1.png,exp2.png,,1,0,1,0,0,10,10,10,,,,,,,,,,,,,,,,,,,,,,,,,False,29,30,False,exp1.png,exp2.png,trial_right_image,-1,exp2.png,4,exp2.png,exp1.png,1,1,non-reversed,correct,0.42978381847070735,1,valid_win,183.6373063000001,17,,,,,,,,,,,,,,,sub_1024,2025-04-06_16h49.08.762,Reversal,2023.1.3,59.892863645606916,4,
11,exp3.png,exp4.png,,1,0,1,0,0,11,11,11,,,,,,,,,,,,,,,,,,,,,,,,,False,30,31,False,exp3.png,exp4.png,trial_right_image,-1,exp4.png,4,exp4.png,exp3.png,1,3,reversed,correct,0.3010716957140901,1,valid_win,188.65159739999945,18,,,,,,,,,,,,,,,sub_1024,2025-04-06_16h49.08.762,Reversal,2023.1.3,59.892863645606916,4,
12,exp1.png,exp2.png,,1,0,1,0,0,12,12,12,,,,,,,,,,,,,,,,,,,,,,,,,False,31,32,True,exp2.png,exp1.png,trial_left_image,1,exp2.png,4,exp2.png,exp1.png,1,1,non-reversed,correct,0.19912595024342705,0,invalid_lose,194.4158679000002,18,,,,,,,,,,,,,,,sub_1024,2025-04-06_16h49.08.762,Reversal,2023.1.3,59.892863645606916,4,
13,exp3.png,exp4.png,,1,0,1,0,0,13,13,13,,,,,,,,,,,,,,,,,,,,,,,,,False,32,33,True,exp4.png,exp3.png,trial_left_image,1,exp4.png,4,exp4.png,exp3.png,1,3,reversed,correct,0.33176711792645064,1,valid_win,199.19713859999956,19,,,,,,,,,,,,,,,sub_1024,2025-04-06_16h49.08.762,Reversal,2023.1.3,59.892863645606916,4,
14,exp1.png,exp2.png,,1,0,1,0,0,14,14,14,,,,,,,,,,,,,,,,,,,,,,,,,False,33,34,True,exp2.png,exp1.png,trial_left_image,1,exp2.png,4,exp2.png,exp1.png,1,1,non-reversed,correct,0.0867758994567508,0,invalid_lose,204.37996349999958,19,,,,,,,,,,,,,,,sub_1024,2025-04-06_16h49.08.762,Reversal,2023.1.3,59.892863645606916,4,
15,exp3.png,exp4.png,,1,0,1,0,0,15,15,15,,,,,,,,,,,,,,,,,,,,,,,,,False,34,35,False,exp3.png,exp4.png,trial_right_image,-1,exp4.png,4,exp4.png,exp3.png,1,3,reversed,correct,0.40643071670816056,1,valid_win,209.0957585999995,20,,,,,,,,,,,,,,,sub_1024,2025-04-06_16h49.08.762,Reversal,2023.1.3,59.892863645606916,4,
16,exp1.png,exp2.png,,1,0,1,0,0,16,16,16,,,,,,,,,,,,,,,,,,,,,,,,,False,35,36,False,exp1.png,exp2.png,trial_right_image,-1,exp2.png,4,exp2.png,exp1.png,1,1,non-reversed,correct,0.5686254507865314,1,valid_win,214.10947979999946,21,,,,,,,,,,,,,,,sub_1024,2025-04-06_16h49.08.762,Reversal,2023.1.3,59.892863645606916,4,
17,exp3.png,exp4.png,,1,0,1,0,0,17,17,17,,,,,,,,,,,,,,,,,,,,,,,,,False,36,37,False,exp3.png,exp4.png,trial_left_image,1,exp3.png,4,exp4.png,exp3.png,0,4,reversed,incorrect,0.46829381718658214,0,valid_lose,219.37396489999992,21,,,,,,,,,,,,,,,sub_1024,2025-04-06_16h49.08.762,Reversal,2023.1.3,59.892863645606916,4,
18,exp1.png,exp2.png,,1,0,1,0,0,18,18,18,,,,,,,,,,,,,,,,,,,,,,,,,False,37,38,False,exp1.png,exp2.png,trial_right_image,-1,exp2.png,4,exp2.png,exp1.png,1,1,non-reversed,correct,0.017539172419291038,0,invalid_lose,224.17324120000012,21,,,,,,,,,,,,,,,sub_1024,2025-04-06_16h49.08.762,Reversal,2023.1.3,59.892863645606916,4,
19,exp3.png,exp4.png,,1,0,1,0,0,19,19,19,,,,,,,,,,,,,,,,,,,,,,,,,False,38,39,True,exp4.png,exp3.png,trial_left_image,1,exp4.png,4,exp4.png,exp3.png,1,3,reversed,correct,0.660709228181629,1,valid_win,230.8367602999997,22,,,,,,,,,,,,,,,sub_1024,2025-04-06_16h49.08.762,Reversal,2023.1.3,59.892863645606916,4,
20,exp1.png,exp2.png,,1,0,1,0,0,20,20,20,,,,,,,,,,,,,,,,,,,,,,,,,False,39,40,False,exp1.png,exp2.png,trial_left_image,1,exp1.png,4,exp2.png,exp1.png,0,2,non-reversed,incorrect,0.7023030053194176,0,valid_lose,235.7019921000001,22,,,,,,,,,,,,,,,sub_1024,2025-04-06_16h49.08.762,Reversal,2023.1.3,59.892863645606916,4,
,,,exp1.png,1,0,1,0,,,,,0,0,0,0,0,0,0,0,,,,,,,,,,,,,,,,,,,,,,,,,,,,,,,,,,,,,,347.52431119999983,25.0,3.4663362999999663,"[(25.0, 3.4663362999999663)]",,,25.0,,,,,,,,sub_1024,2025-04-06_16h49.08.762,Reversal,2023.1.3,59.892863645606916,4,
,,,exp2.png,1,0,1,0,,,,,0,0,0,0,0,1,1,1,,,,,,,,,,,,,,,,,,,,,,,,,,,,,,,,,,,,,,352.0604446999996,87.0,1.4754122000003917,"[(87.0, 1.4754122000003917)]",,,,87.0,,,,,,,sub_1024,2025-04-06_16h49.08.762,Reversal,2023.1.3,59.892863645606916,4,
,,,exp3.png,1,0,1,0,,,,,0,0,0,0,0,2,2,2,,,,,,,,,,,,,,,,,,,,,,,,,,,,,,,,,,,,,,354.47015790000023,30.0,2.178359300000011,"[(30.0, 2.178359300000011)]",30.0,,,,,,,,,,sub_1024,2025-04-06_16h49.08.762,Reversal,2023.1.3,59.892863645606916,4,
,,,exp4.png,1,0,1,0,,,,,0,0,0,0,0,3,3,3,,,,,,,,,,,,,,,,,,,,,,,,,,,,,,,,,,,,,,357.56891780000024,88.0,1.9278792999994039,"[(88.0, 1.9278792999994039)]",,88.0,,,,,,,,,sub_1024,2025-04-06_16h49.08.762,Reversal,2023.1.3,59.892863645606916,4,
0,exp1.png,exp2.png,,2,0,2,0,0,0,0,0,,,,,,,,,,,,,,,,,,,,,,,,,True,,,,,,,,,,,,,,,,,,,,,,,,,,,,,,,,,,,sub_1024,2025-04-06_16h49.08.762,Reversal,2023.1.3,59.892863645606916,4,
1,exp3.png,exp4.png,,2,0,2,0,0,1,1,1,,,,,,,,,,,,,,,,,,,,,,,,,False,40,41,True,exp4.png,exp3.png,trial_left_image,1,exp4.png,4,exp4.png,exp3.png,1,3,reversed,correct,0.7110615970965357,1,valid_win,253.74680489999992,23,,,,,,,,,,,,,,,sub_1024,2025-04-06_16h49.08.762,Reversal,2023.1.3,59.892863645606916,4,
2,exp1.png,exp2.png,,2,0,2,0,0,2,2,2,,,,,,,,,,,,,,,,,,,,,,,,,False,41,42,True,exp2.png,exp1.png,trial_left_image,1,exp2.png,4,exp2.png,exp1.png,1,1,non-reversed,correct,0.39569703676852463,1,valid_win,258.3107334999995,24,,,,,,,,,,,,,,,sub_1024,2025-04-06_16h49.08.762,Reversal,2023.1.3,59.892863645606916,4,
3,exp3.png,exp4.png,,2,0,2,0,0,3,3,3,,,,,,,,,,,,,,,,,,,,,,,,,False,42,43,False,exp3.png,exp4.png,trial_right_image,-1,exp4.png,4,exp4.png,exp3.png,1,3,reversed,correct,0.5056223786162687,1,valid_win,263.17568630000005,25,,,,,,,,,,,,,,,sub_1024,2025-04-06_16h49.08.762,Reversal,2023.1.3,59.892863645606916,4,
4,exp1.png,exp2.png,,2,0,2,0,0,4,4,4,,,,,,,,,,,,,,,,,,,,,,,,,False,43,44,False,exp1.png,exp2.png,trial_right_image,-1,exp2.png,4,exp2.png,exp1.png,1,1,non-reversed,correct,0.041100892316005555,0,invalid_lose,267.6910477000001,25,,,,,,,,,,,,,,,sub_1024,2025-04-06_16h49.08.762,Reversal,2023.1.3,59.892863645606916,4,
5,exp3.png,exp4.png,,2,0,2,0,0,5,5,5,,,,,,,,,,,,,,,,,,,,,,,,,False,44,45,False,exp3.png,exp4.png,trial_right_image,-1,exp4.png,4,exp4.png,exp3.png,1,3,reversed,correct,0.9194840773786619,1,valid_win,272.5228473999996,26,,,,,,,,,,,,,,,sub_1024,2025-04-06_16h49.08.762,Reversal,2023.1.3,59.892863645606916,4,
6,exp1.png,exp2.png,,2,0,2,0,0,6,6,6,,,,,,,,,,,,,,,,,,,,,,,,,False,45,46,True,exp2.png,exp1.png,trial_right_image,-1,exp1.png,4,exp2.png,exp1.png,0,2,non-reversed,incorrect,0.4995805772308789,0,valid_lose,277.5711597999998,26,,,,,,,,,,,,,,,sub_1024,2025-04-06_16h49.08.762,Reversal,2023.1.3,59.892863645606916,4,
7,exp3.png,exp4.png,,2,0,2,0,0,7,7,7,,,,,,,,,,,,,,,,,,,,,,,,,False,46,47,False,exp3.png,exp4.png,trial_right_image,-1,exp4.png,4,exp4.png,exp3.png,1,3,reversed,correct,0.7678337897547464,1,valid_win,281.9194927999997,27,,,,,,,,,,,,,,,sub_1024,2025-04-06_16h49.08.762,Reversal,2023.1.3,59.892863645606916,4,
8,exp1.png,exp2.png,,2,0,2,0,0,8,8,8,,,,,,,,,,,,,,,,,,,,,,,,,False,47,48,False,exp1.png,exp2.png,trial_right_image,-1,exp2.png,4,exp2.png,exp1.png,1,1,non-reversed,correct,0.4889308753975431,1,valid_win,287.3180739999998,28,,,,,,,,,,,,,,,sub_1024,2025-04-06_16h49.08.762,Reversal,2023.1.3,59.892863645606916,4,
9,exp3.png,exp4.png,,2,0,2,0,0,9,9,9,,,,,,,,,,,,,,,,,,,,,,,,,False,48,49,True,exp4.png,exp3.png,trial_left_image,1,exp4.png,4,exp4.png,exp3.png,1,3,reversed,correct,0.8270580315354473,1,valid_win,291.9344919999994,29,,,,,,,,,,,,,,,sub_1024,2025-04-06_16h49.08.762,Reversal,2023.1.3,59.892863645606916,4,
10,exp1.png,exp2.png,,2,0,2,0,0,10,10,10,,,,,,,,,,,,,,,,,,,,,,,,,False,49,50,True,exp2.png,exp1.png,trial_left_image,1,exp2.png,4,exp2.png,exp1.png,1,1,non-reversed,correct,0.35597413384843846,1,valid_win,297.46361569999954,30,,,,,,,,,,,,,,,sub_1024,2025-04-06_16h49.08.762,Reversal,2023.1.3,59.892863645606916,4,
11,exp3.png,exp4.png,,2,0,2,0,0,11,11,11,,,,,,,,,,,,,,,,,,,,,,,,,False,50,51,False,exp3.png,exp4.png,trial_right_image,-1,exp4.png,4,exp4.png,exp3.png,1,3,reversed,correct,0.41954295125206464,1,valid_win,301.8289643999997,31,,,,,,,,,,,,,,,sub_1024,2025-04-06_16h49.08.762,Reversal,2023.1.3,59.892863645606916,4,
12,exp1.png,exp2.png,,2,0,2,0,0,12,12,12,,,,,,,,,,,,,,,,,,,,,,,,,False,51,52,False,exp1.png,exp2.png,trial_right_image,-1,exp2.png,4,exp2.png,exp1.png,1,1,non-reversed,correct,0.3701219746315465,1,valid_win,306.1280796000001,32,,,,,,,,,,,,,,,sub_1024,2025-04-06_16h49.08.762,Reversal,2023.1.3,59.892863645606916,4,
13,exp3.png,exp4.png,,2,0,2,0,0,13,13,13,,,,,,,,,,,,,,,,,,,,,,,,,False,52,53,False,exp3.png,exp4.png,trial_right_image,-1,exp4.png,4,exp4.png,exp3.png,1,3,reversed,correct,0.6072063782591153,1,valid_win,310.36004989999947,33,,,,,,,,,,,,,,,sub_1024,2025-04-06_16h49.08.762,Reversal,2023.1.3,59.892863645606916,4,
14,exp1.png,exp2.png,,2,0,2,0,0,14,14,14,,,,,,,,,,,,,,,,,,,,,,,,,False,53,54,True,exp2.png,exp1.png,trial_left_image,1,exp2.png,4,exp2.png,exp1.png,1,1,non-reversed,correct,0.7588927651003394,1,valid_win,314.59170259999973,34,,,,,,,,,,,,,,,sub_1024,2025-04-06_16h49.08.762,Reversal,2023.1.3,59.892863645606916,4,
15,exp3.png,exp4.png,,2,0,2,0,0,15,15,15,,,,,,,,,,,,,,,,,,,,,,,,,False,54,55,False,exp3.png,exp4.png,trial_right_image,-1,exp4.png,4,exp4.png,exp3.png,1,3,reversed,correct,0.8229794363065968,1,valid_win,318.62435989999994,35,,,,,,,,,,,,,,,sub_1024,2025-04-06_16h49.08.762,Reversal,2023.1.3,59.892863645606916,4,
16,exp1.png,exp2.png,,2,0,2,0,0,16,16,16,,,,,,,,,,,,,,,,,,,,,,,,,False,55,56,False,exp1.png,exp2.png,trial_right_image,-1,exp2.png,4,exp2.png,exp1.png,1,1,non-reversed,correct,0.715881003455196,1,valid_win,322.7069443999999,36,,,,,,,,,,,,,,,sub_1024,2025-04-06_16h49.08.762,Reversal,2023.1.3,59.892863645606916,4,
17,exp3.png,exp4.png,,2,0,2,0,0,17,17,17,,,,,,,,,,,,,,,,,,,,,,,,,False,56,57,True,exp4.png,exp3.png,trial_left_image,1,exp4.png,4,exp4.png,exp3.png,1,3,reversed,correct,0.5568208483823568,1,valid_win,327.02089669999987,37,,,,,,,,,,,,,,,sub_1024,2025-04-06_16h49.08.762,Reversal,2023.1.3,59.892863645606916,4,
18,exp1.png,exp2.png,,2,0,2,0,0,18,18,18,,,,,,,,,,,,,,,,,,,,,,,,,False,57,58,True,exp2.png,exp1.png,trial_left_image,1,exp2.png,4,exp2.png,exp1.png,1,1,non-reversed,correct,0.8092604400443878,1,valid_win,331.28703159999986,38,,,,,,,,,,,,,,,sub_1024,2025-04-06_16h49.08.762,Reversal,2023.1.3,59.892863645606916,4,
19,exp3.png,exp4.png,,2,0,2,0,0,19,19,19,,,,,,,,,,,,,,,,,,,,,,,,,False,58,59,True,exp4.png,exp3.png,trial_left_image,1,exp4.png,4,exp4.png,exp3.png,1,3,reversed,correct,0.3590623449483067,1,valid_win,335.5359233999998,39,,,,,,,,,,,,,,,sub_1024,2025-04-06_16h49.08.762,Reversal,2023.1.3,59.892863645606916,4,
20,exp1.png,exp2.png,,2,0,2,0,0,20,20,20,,,,,,,,,,,,,,,,,,,,,,,,,False,59,60,True,exp2.png,exp1.png,trial_left_image,1,exp2.png,4,exp2.png,exp1.png,1,1,non-reversed,correct,0.29927732846348987,1,valid_win,339.8502609999996,40,,,,,,,,,,,,,,,sub_1024,2025-04-06_16h49.08.762,Reversal,2023.1.3,59.892863645606916,4,
,,,exp1.png,2,0,2,0,,,,,0,0,0,0,0,0,0,0,,,,,,,,,,,,,,,,,,,,,,,,,,,,,,,,,,,,,,451.6782751999999,11.0,3.1578518000005715,"[(11.0, 3.1578518000005715)]",,,11.0,,,,,,,,sub_1024,2025-04-06_16h49.08.762,Reversal,2023.1.3,59.892863645606916,4,
,,,exp2.png,2,0,2,0,,,,,0,0,0,0,0,1,1,1,,,,,,,,,,,,,,,,,,,,,,,,,,,,,,,,,,,,,,455.8834919000001,100.0,1.8270370000000185,"[(100.0, 1.8270370000000185)]",,,,100.0,,,,,,,sub_1024,2025-04-06_16h49.08.762,Reversal,2023.1.3,59.892863645606916,4,
,,,exp3.png,2,0,2,0,,,,,0,0,0,0,0,2,2,2,,,,,,,,,,,,,,,,,,,,,,,,,,,,,,,,,,,,,,458.8643992999996,9.0,2.10978410000007,"[(9.0, 2.10978410000007)]",9.0,,,,,,,,,,sub_1024,2025-04-06_16h49.08.762,Reversal,2023.1.3,59.892863645606916,4,
,,,exp4.png,2,0,2,0,,,,,0,0,0,0,0,3,3,3,,,,,,,,,,,,,,,,,,,,,,,,,,,,,,,,,,,,,,462.0680790999995,95.0,2.8452852999998868,"[(95.0, 2.8452852999998868)]",,95.0,,,,,,,,,sub_1024,2025-04-06_16h49.08.762,Reversal,2023.1.3,59.892863645606916,4,
0,exp1.png,exp2.png,,,,,,,,,,,,,,,,,,0,0,0,0,0,0,0,0,,,,,,,,,True,,,,,,,,,,,,,,,,,,,,,,,,,,,,,,,,,,,sub_1024,2025-04-06_16h49.08.762,Reversal,2023.1.3,59.892863645606916,4,
1,exp3.png,exp4.png,,,,,,,,,,,,,,,,,,0,0,0,0,0,1,1,1,,,,,,,,,False,0,61,False,exp3.png,exp4.png,trial_right_image,-1,exp4.png,4,exp3.png,exp4.png,1,3,reversed,incorrect,0.4855844760675704,0,valid_lose,358.4116432999999,40,,,,,,,,,356.7433231999994,,,,,,sub_1024,2025-04-06_16h49.08.762,Reversal,2023.1.3,59.892863645606916,4,
2,exp1.png,exp2.png,,,,,,,,,,,,,,,,,,0,0,0,0,0,2,2,2,,,,,,,,,False,1,62,False,exp1.png,exp2.png,trial_left_image,1,exp1.png,4,exp2.png,exp1.png,0,2,non-reversed,incorrect,0.29708877059516803,0,valid_lose,363.27711589999944,40,,,,,,,,,,,,,,,sub_1024,2025-04-06_16h49.08.762,Reversal,2023.1.3,59.892863645606916,4,
3,exp3.png,exp4.png,,,,,,,,,,,,,,,,,,0,0,0,0,0,3,3,3,,,,,,,,,False,2,63,False,exp3.png,exp4.png,trial_right_image,-1,exp4.png,4,exp3.png,exp4.png,1,3,reversed,incorrect,0.5557708570542091,0,valid_lose,367.5409082999995,40,,,,,,,,,,,,,,,sub_1024,2025-04-06_16h49.08.762,Reversal,2023.1.3,59.892863645606916,4,
4,exp1.png,exp2.png,,,,,,,,,,,,,,,,,,0,0,0,0,0,4,4,4,,,,,,,,,False,3,64,True,exp2.png,exp1.png,trial_left_image,1,exp2.png,4,exp2.png,exp1.png,1,1,non-reversed,correct,0.8835841168184647,1,valid_win,372.0229422000002,41,,,,,,,,,,,,,,,sub_1024,2025-04-06_16h49.08.762,Reversal,2023.1.3,59.892863645606916,4,
5,exp3.png,exp4.png,,,,,,,,,,,,,,,,,,0,0,0,0,0,5,5,5,,,,,,,,,False,4,65,False,exp3.png,exp4.png,trial_left_image,1,exp3.png,4,exp3.png,exp4.png,0,4,reversed,correct,0.1302080948170532,0,invalid_lose,376.47060819999933,41,,,,,,,,,,,,,,,sub_1024,2025-04-06_16h49.08.762,Reversal,2023.1.3,59.892863645606916,4,
6,exp1.png,exp2.png,,,,,,,,,,,,,,,,,,0,0,0,0,0,6,6,6,,,,,,,,,False,5,66,True,exp2.png,exp1.png,trial_left_image,1,exp2.png,4,exp2.png,exp1.png,1,1,non-reversed,correct,0.12773385575676477,0,invalid_lose,380.86955359999956,41,,,,,,,,,,,,,,,sub_1024,2025-04-06_16h49.08.762,Reversal,2023.1.3,59.892863645606916,4,
7,exp3.png,exp4.png,,,,,,,,,,,,,,,,,,0,0,0,0,0,7,7,7,,,,,,,,,False,6,67,False,exp3.png,exp4.png,trial_right_image,-1,exp4.png,4,exp3.png,exp4.png,1,3,reversed,incorrect,0.06570720873165103,1,invalid_win,385.2862834999996,42,,,,,,,,,,,,,,,sub_1024,2025-04-06_16h49.08.762,Reversal,2023.1.3,59.892863645606916,4,
8,exp1.png,exp2.png,,,,,,,,,,,,,,,,,,0,0,0,0,0,8,8,8,,,,,,,,,False,7,68,False,exp1.png,exp2.png,trial_right_image,-1,exp2.png,4,exp2.png,exp1.png,1,1,non-reversed,correct,0.417133795485344,1,valid_win,390.08286339999995,43,,,,,,,,,,,,,,,sub_1024,2025-04-06_16h49.08.762,Reversal,2023.1.3,59.892863645606916,4,
9,exp3.png,exp4.png,,,,,,,,,,,,,,,,,,0,0,0,0,0,9,9,9,,,,,,,,,False,8,69,False,exp3.png,exp4.png,trial_left_image,1,exp3.png,4,exp3.png,exp4.png,0,4,reversed,correct,0.6012650301078895,1,valid_win,395.46645199999966,44,,,,,,,,,,,,,,,sub_1024,2025-04-06_16h49.08.762,Reversal,2023.1.3,59.892863645606916,4,
10,exp1.png,exp2.png,,,,,,,,,,,,,,,,,,0,0,0,0,0,10,10,10,,,,,,,,,False,9,70,False,exp1.png,exp2.png,trial_right_image,-1,exp2.png,4,exp2.png,exp1.png,1,1,non-reversed,correct,0.9846976230166082,1,valid_win,399.99755689999984,45,,,,,,,,,,,,,,,sub_1024,2025-04-06_16h49.08.762,Reversal,2023.1.3,59.892863645606916,4,
11,exp3.png,exp4.png,,,,,,,,,,,,,,,,,,0,0,0,0,0,11,11,11,,,,,,,,,False,10,71,True,exp4.png,exp3.png,trial_right_image,-1,exp3.png,4,exp3.png,exp4.png,0,4,reversed,correct,0.5202416513709063,1,valid_win,405.0123931999997,46,,,,,,,,,,,,,,,sub_1024,2025-04-06_16h49.08.762,Reversal,2023.1.3,59.892863645606916,4,
12,exp1.png,exp2.png,,,,,,,,,,,,,,,,,,0,0,0,0,0,12,12,12,,,,,,,,,False,11,72,True,exp2.png,exp1.png,trial_left_image,1,exp2.png,4,exp2.png,exp1.png,1,1,non-reversed,correct,0.8910346840758431,1,valid_win,409.5429342999996,47,,,,,,,,,,,,,,,sub_1024,2025-04-06_16h49.08.762,Reversal,2023.1.3,59.892863645606916,4,
13,exp3.png,exp4.png,,,,,,,,,,,,,,,,,,0,0,0,0,0,13,13,13,,,,,,,,,False,12,73,True,exp4.png,exp3.png,trial_right_image,-1,exp3.png,4,exp3.png,exp4.png,0,4,reversed,correct,0.6581705466799556,1,valid_win,414.12495919999947,48,,,,,,,,,,,,,,,sub_1024,2025-04-06_16h49.08.762,Reversal,2023.1.3,59.892863645606916,4,
14,exp1.png,exp2.png,,,,,,,,,,,,,,,,,,0,0,0,0,0,14,14,14,,,,,,,,,False,13,74,True,exp2.png,exp1.png,trial_left_image,1,exp2.png,4,exp2.png,exp1.png,1,1,non-reversed,correct,0.44719234883867864,1,valid_win,418.69172549999985,49,,,,,,,,,,,,,,,sub_1024,2025-04-06_16h49.08.762,Reversal,2023.1.3,59.892863645606916,4,
15,exp3.png,exp4.png,,,,,,,,,,,,,,,,,,0,0,0,0,0,15,15,15,,,,,,,,,False,14,75,True,exp4.png,exp3.png,trial_right_image,-1,exp3.png,4,exp3.png,exp4.png,0,4,reversed,correct,0.48815704413267,1,valid_win,423.90513269999974,50,,,,,,,,,,,,,,,sub_1024,2025-04-06_16h49.08.762,Reversal,2023.1.3,59.892863645606916,4,
16,exp1.png,exp2.png,,,,,,,,,,,,,,,,,,0,0,0,0,0,16,16,16,,,,,,,,,False,15,76,True,exp2.png,exp1.png,trial_left_image,1,exp2.png,4,exp2.png,exp1.png,1,1,non-reversed,correct,0.07037784173718553,0,invalid_lose,428.3369867000001,50,,,,,,,,,,,,,,,sub_1024,2025-04-06_16h49.08.762,Reversal,2023.1.3,59.892863645606916,4,
17,exp3.png,exp4.png,,,,,,,,,,,,,,,,,,0,0,0,0,0,17,17,17,,,,,,,,,False,16,77,True,exp4.png,exp3.png,trial_right_image,-1,exp3.png,4,exp3.png,exp4.png,0,4,reversed,correct,0.4448437831434292,1,valid_win,432.8529994999999,51,,,,,,,,,,,,,,,sub_1024,2025-04-06_16h49.08.762,Reversal,2023.1.3,59.892863645606916,4,
18,exp1.png,exp2.png,,,,,,,,,,,,,,,,,,0,0,0,0,0,18,18,18,,,,,,,,,False,17,78,False,exp1.png,exp2.png,trial_right_image,-1,exp2.png,4,exp2.png,exp1.png,1,1,non-reversed,correct,0.5837308097384627,1,valid_win,437.55111229999966,52,,,,,,,,,,,,,,,sub_1024,2025-04-06_16h49.08.762,Reversal,2023.1.3,59.892863645606916,4,
19,exp3.png,exp4.png,,,,,,,,,,,,,,,,,,0,0,0,0,0,19,19,19,,,,,,,,,False,18,79,False,exp3.png,exp4.png,trial_left_image,1,exp3.png,4,exp3.png,exp4.png,0,4,reversed,correct,0.2742691528411926,1,valid_win,442.4166170999997,53,,,,,,,,,,,,,,,sub_1024,2025-04-06_16h49.08.762,Reversal,2023.1.3,59.892863645606916,4,
20,exp1.png,exp2.png,,,,,,,,,,,,,,,,,,0,0,0,0,0,20,20,20,,,,,,,,,False,19,80,True,exp2.png,exp1.png,trial_left_image,1,exp2.png,4,exp2.png,exp1.png,1,1,non-reversed,correct,0.582179867093835,1,valid_win,447.18041279999943,54,,,,,,,,,,,,,,,sub_1024,2025-04-06_16h49.08.762,Reversal,2023.1.3,59.892863645606916,4,
,,,exp1.png,,,,,,,,,,,,,,,,,0,0,0,0,,,,,0,0,0,0,0,0,0,0,,,,,,,,,,,,,,,,,,,,,,558.9958900000001,13.0,2.083329999999478,"[(13.0, 2.083329999999478)]",,,13.0,,,,,,,,sub_1024,2025-04-06_16h49.08.762,Reversal,2023.1.3,59.892863645606916,4,
,,,exp2.png,,,,,,,,,,,,,,,,,0,0,0,0,,,,,0,0,0,0,0,1,1,1,,,,,,,,,,,,,,,,,,,,,,562.1559428,84.0,1.6169238000002224,"[(84.0, 1.6169238000002224)]",,,,84.0,,,,,,,sub_1024,2025-04-06_16h49.08.762,Reversal,2023.1.3,59.892863645606916,4,
,,,exp3.png,,,,,,,,,,,,,,,,,0,0,0,0,,,,,0,0,0,0,0,2,2,2,,,,,,,,,,,,,,,,,,,,,,564.7155385999995,100.0,1.4037061999997604,"[(100.0, 1.4037061999997604)]",100.0,,,,,,,,,,sub_1024,2025-04-06_16h49.08.762,Reversal,2023.1.3,59.892863645606916,4,
,,,exp4.png,,,,,,,,,,,,,,,,,0,0,0,0,,,,,0,0,0,0,0,3,3,3,,,,,,,,,,,,,,,,,,,,,,567.1673804000002,73.0,1.6288303000001179,"[(73.0, 1.6288303000001179)]",,73.0,,,,,,,,,sub_1024,2025-04-06_16h49.08.762,Reversal,2023.1.3,59.892863645606916,4,
0,exp1.png,exp2.png,,,,,,,,,,,,,,,,,,1,0,1,0,0,0,0,0,,,,,,,,,True,,,,,,,,,,,,,,,,,,,,,,,,,,,,,,,,,,,sub_1024,2025-04-06_16h49.08.762,Reversal,2023.1.3,59.892863645606916,4,
1,exp3.png,exp4.png,,,,,,,,,,,,,,,,,,1,0,1,0,0,1,1,1,,,,,,,,,False,20,81,False,exp3.png,exp4.png,trial_right_image,-1,exp4.png,4,exp3.png,exp4.png,1,3,reversed,incorrect,0.2894406002602501,0,valid_lose,462.4098366999997,54,,,,,,,,,,,,,,,sub_1024,2025-04-06_16h49.08.762,Reversal,2023.1.3,59.892863645606916,4,
2,exp1.png,exp2.png,,,,,,,,,,,,,,,,,,1,0,1,0,0,2,2,2,,,,,,,,,False,21,82,True,exp2.png,exp1.png,trial_right_image,-1,exp1.png,4,exp2.png,exp1.png,0,2,non-reversed,incorrect,0.1502103122345464,1,invalid_win,467.05696179999995,55,,,,,,,,,,,,,,,sub_1024,2025-04-06_16h49.08.762,Reversal,2023.1.3,59.892863645606916,4,
3,exp3.png,exp4.png,,,,,,,,,,,,,,,,,,1,0,1,0,0,3,3,3,,,,,,,,,False,22,83,True,exp4.png,exp3.png,trial_right_image,-1,exp3.png,4,exp3.png,exp4.png,0,4,reversed,correct,0.08854019634133392,0,invalid_lose,471.6732121999994,55,,,,,,,,,,,,,,,sub_1024,2025-04-06_16h49.08.762,Reversal,2023.1.3,59.892863645606916,4,
4,exp1.png,exp2.png,,,,,,,,,,,,,,,,,,1,0,1,0,0,4,4,4,,,,,,,,,False,23,84,False,exp1.png,exp2.png,trial_left_image,1,exp1.png,4,exp2.png,exp1.png,0,2,non-reversed,incorrect,0.7970597101340643,0,valid_lose,476.0048188999999,55,,,,,,,,,,,,,,,sub_1024,2025-04-06_16h49.08.762,Reversal,2023.1.3,59.892863645606916,4,
5,exp3.png,exp4.png,,,,,,,,,,,,,,,,,,1,0,1,0,0,5,5,5,,,,,,,,,False,24,85,False,exp3.png,exp4.png,trial_right_image,-1,exp4.png,4,exp3.png,exp4.png,1,3,reversed,incorrect,0.2097487322777718,1,invalid_win,481.33657499999936,56,,,,,,,,,,,,,,,sub_1024,2025-04-06_16h49.08.762,Reversal,2023.1.3,59.892863645606916,4,
6,exp1.png,exp2.png,,,,,,,,,,,,,,,,,,1,0,1,0,0,6,6,6,,,,,,,,,False,25,86,True,exp2.png,exp1.png,trial_left_image,1,exp2.png,4,exp2.png,exp1.png,1,1,non-reversed,correct,0.1436224660968607,0,invalid_lose,485.8519658999994,56,,,,,,,,,,,,,,,sub_1024,2025-04-06_16h49.08.762,Reversal,2023.1.3,59.892863645606916,4,
7,exp3.png,exp4.png,,,,,,,,,,,,,,,,,,1,0,1,0,0,7,7,7,,,,,,,,,False,26,87,False,exp3.png,exp4.png,trial_right_image,-1,exp4.png,4,exp3.png,exp4.png,1,3,reversed,incorrect,0.1628429963705018,1,invalid_win,491.3818543999996,57,,,,,,,,,,,,,,,sub_1024,2025-04-06_16h49.08.762,Reversal,2023.1.3,59.892863645606916,4,
8,exp1.png,exp2.png,,,,,,,,,,,,,,,,,,1,0,1,0,0,8,8,8,,,,,,,,,False,27,88,True,exp2.png,exp1.png,trial_right_image,-1,exp1.png,4,exp2.png,exp1.png,0,2,non-reversed,incorrect,0.48660927229456186,0,valid_lose,495.5140885999999,57,,,,,,,,,,,,,,,sub_1024,2025-04-06_16h49.08.762,Reversal,2023.1.3,59.892863645606916,4,
9,exp3.png,exp4.png,,,,,,,,,,,,,,,,,,1,0,1,0,0,9,9,9,,,,,,,,,False,28,89,False,exp3.png,exp4.png,trial_right_image,-1,exp4.png,4,exp3.png,exp4.png,1,3,reversed,incorrect,0.06273116361398823,1,invalid_win,500.4792523999995,58,,,,,,,,,,,,,,,sub_1024,2025-04-06_16h49.08.762,Reversal,2023.1.3,59.892863645606916,4,
10,exp1.png,exp2.png,,,,,,,,,,,,,,,,,,1,0,1,0,0,10,10,10,,,,,,,,,False,29,90,True,exp2.png,exp1.png,trial_right_image,-1,exp1.png,4,exp2.png,exp1.png,0,2,non-reversed,incorrect,0.05189713262143558,1,invalid_win,506.99337509999987,59,,,,,,,,,,,,,,,sub_1024,2025-04-06_16h49.08.762,Reversal,2023.1.3,59.892863645606916,4,
11,exp3.png,exp4.png,,,,,,,,,,,,,,,,,,1,0,1,0,0,11,11,11,,,,,,,,,False,30,91,False,exp3.png,exp4.png,trial_right_image,-1,exp4.png,4,exp3.png,exp4.png,1,3,reversed,incorrect,0.271750354211738,0,valid_lose,511.6256982999994,59,,,,,,,,,,,,,,,sub_1024,2025-04-06_16h49.08.762,Reversal,2023.1.3,59.892863645606916,4,
12,exp1.png,exp2.png,,,,,,,,,,,,,,,,,,1,0,1,0,0,12,12,12,,,,,,,,,False,31,92,True,exp2.png,exp1.png,trial_right_image,-1,exp1.png,4,exp2.png,exp1.png,0,2,non-reversed,incorrect,0.8945154974294526,0,valid_lose,517.0400051999995,59,,,,,,,,,,,,,,,sub_1024,2025-04-06_16h49.08.762,Reversal,2023.1.3,59.892863645606916,4,
13,exp3.png,exp4.png,,,,,,,,,,,,,,,,,,1,0,1,0,0,13,13,13,,,,,,,,,False,32,93,True,exp4.png,exp3.png,trial_right_image,-1,exp3.png,4,exp3.png,exp4.png,0,4,reversed,correct,0.621317443024303,1,valid_win,521.7718229000002,60,,,,,,,,,,,,,,,sub_1024,2025-04-06_16h49.08.762,Reversal,2023.1.3,59.892863645606916,4,
14,exp1.png,exp2.png,,,,,,,,,,,,,,,,,,1,0,1,0,0,14,14,14,,,,,,,,,False,33,94,False,exp1.png,exp2.png,trial_right_image,-1,exp2.png,4,exp2.png,exp1.png,1,1,non-reversed,correct,0.8617886989223446,1,valid_win,527.2699616999998,61,,,,,,,,,,,,,,,sub_1024,2025-04-06_16h49.08.762,Reversal,2023.1.3,59.892863645606916,4,
15,exp3.png,exp4.png,,,,,,,,,,,,,,,,,,1,0,1,0,0,15,15,15,,,,,,,,,False,34,95,True,exp4.png,exp3.png,trial_right_image,-1,exp3.png,4,exp3.png,exp4.png,0,4,reversed,correct,0.203753708005032,0,invalid_lose,532.4025535000001,61,,,,,,,,,,,,,,,sub_1024,2025-04-06_16h49.08.762,Reversal,2023.1.3,59.892863645606916,4,
16,exp1.png,exp2.png,,,,,,,,,,,,,,,,,,1,0,1,0,0,16,16,16,,,,,,,,,False,35,96,False,exp1.png,exp2.png,trial_right_image,-1,exp2.png,4,exp2.png,exp1.png,1,1,non-reversed,correct,0.010994291398444989,0,invalid_lose,537.0335192000002,61,,,,,,,,,,,,,,,sub_1024,2025-04-06_16h49.08.762,Reversal,2023.1.3,59.892863645606916,4,
17,exp3.png,exp4.png,,,,,,,,,,,,,,,,,,1,0,1,0,0,17,17,17,,,,,,,,,False,36,97,True,exp4.png,exp3.png,trial_right_image,-1,exp3.png,4,exp3.png,exp4.png,0,4,reversed,correct,0.8373138462904004,1,valid_win,547.3960437999995,62,,,,,,,,,,,,,,,sub_1024,2025-04-06_16h49.08.762,Reversal,2023.1.3,59.892863645606916,4,
18,exp1.png,exp2.png,,,,,,,,,,,,,,,,,,1,0,1,0,0,18,18,18,,,,,,,,,False,37,98,False,exp1.png,exp2.png,trial_left_image,1,exp1.png,4,exp2.png,exp1.png,0,2,non-reversed,incorrect,0.6715716171297169,0,valid_lose,552.2295304999998,62,,,,,,,,,,,,,,,sub_1024,2025-04-06_16h49.08.762,Reversal,2023.1.3,59.892863645606916,4,
19,exp3.png,exp4.png,,,,,,,,,,,,,,,,,,1,0,1,0,0,19,19,19,,,,,,,,,False,38,99,False,exp3.png,exp4.png,trial_right_image,-1,exp4.png,4,exp3.png,exp4.png,1,3,reversed,incorrect,0.8817480863889717,0,valid_lose,557.3097459,62,,,,,,,,,,,,,,,sub_1024,2025-04-06_16h49.08.762,Reversal,2023.1.3,59.892863645606916,4,
20,exp1.png,exp2.png,,,,,,,,,,,,,,,,,,1,0,1,0,0,20,20,20,,,,,,,,,False,39,100,True,exp2.png,exp1.png,trial_left_image,1,exp2.png,4,exp2.png,exp1.png,1,1,non-reversed,correct,0.5691576492060555,1,valid_win,562.6915911999995,63,,,,,,,,,,,,,,,sub_1024,2025-04-06_16h49.08.762,Reversal,2023.1.3,59.892863645606916,4,
,,,exp1.png,,,,,,,,,,,,,,,,,1,0,1,0,,,,,0,0,0,0,0,0,0,0,,,,,,,,,,,,,,,,,,,,,,674.5066022999999,64.0,2.153970400000617,"[(64.0, 2.153970400000617)]",,,64.0,,,,,,,,sub_1024,2025-04-06_16h49.08.762,Reversal,2023.1.3,59.892863645606916,4,
,,,exp2.png,,,,,,,,,,,,,,,,,1,0,1,0,,,,,0,0,0,0,0,1,1,1,,,,,,,,,,,,,,,,,,,,,,677.4606161000002,26.0,3.1762755999998262,"[(31.0, 2.160375700000259), (26.0, 3.1762755999998262)]",,,,26.0,,,,,,,sub_1024,2025-04-06_16h49.08.762,Reversal,2023.1.3,59.892863645606916,4,
,,,exp3.png,,,,,,,,,,,,,,,,,1,0,1,0,,,,,0,0,0,0,0,2,2,2,,,,,,,,,,,,,,,,,,,,,,681.6700294000002,60.0,3.587675999999192,"[(60.0, 3.587675999999192)]",60.0,,,,,,,,,,sub_1024,2025-04-06_16h49.08.762,Reversal,2023.1.3,59.892863645606916,4,
,,,exp4.png,,,,,,,,,,,,,,,,,1,0,1,0,,,,,0,0,0,0,0,3,3,3,,,,,,,,,,,,,,,,,,,,,,686.0150065999997,64.0,1.604707600000438,"[(64.0, 1.604707600000438)]",,64.0,,,,,,,,,sub_1024,2025-04-06_16h49.08.762,Reversal,2023.1.3,59.892863645606916,4,
0,exp1.png,exp2.png,,,,,,,,,,,,,,,,,,2,0,2,0,0,0,0,0,,,,,,,,,True,,,,,,,,,,,,,,,,,,,,,,,,,,,,,,,,,,,sub_1024,2025-04-06_16h49.08.762,Reversal,2023.1.3,59.892863645606916,4,
1,exp3.png,exp4.png,,,,,,,,,,,,,,,,,,2,0,2,0,0,1,1,1,,,,,,,,,False,40,101,False,exp3.png,exp4.png,trial_right_image,-1,exp4.png,4,exp3.png,exp4.png,1,3,reversed,incorrect,0.9932458494382752,0,valid_lose,583.9351932,63,,,,,,,,,,,,,,,sub_1024,2025-04-06_16h49.08.762,Reversal,2023.1.3,59.892863645606916,4,
2,exp1.png,exp2.png,,,,,,,,,,,,,,,,,,2,0,2,0,0,2,2,2,,,,,,,,,False,41,102,True,exp2.png,exp1.png,trial_right_image,-1,exp1.png,4,exp2.png,exp1.png,0,2,non-reversed,incorrect,0.5789614383156813,0,valid_lose,589.5826177999998,63,,,,,,,,,,,,,,,sub_1024,2025-04-06_16h49.08.762,Reversal,2023.1.3,59.892863645606916,4,
3,exp3.png,exp4.png,,,,,,,,,,,,,,,,,,2,0,2,0,0,3,3,3,,,,,,,,,False,42,103,True,exp4.png,exp3.png,trial_left_image,1,exp4.png,4,exp3.png,exp4.png,1,3,reversed,incorrect,0.4130539404461764,0,valid_lose,594.4974007000001,63,,,,,,,,,,,,,,,sub_1024,2025-04-06_16h49.08.762,Reversal,2023.1.3,59.892863645606916,4,
4,exp1.png,exp2.png,,,,,,,,,,,,,,,,,,2,0,2,0,0,4,4,4,,,,,,,,,False,43,104,True,exp2.png,exp1.png,trial_right_image,-1,exp1.png,4,exp2.png,exp1.png,0,2,non-reversed,incorrect,0.20057803368378202,1,invalid_win,600.5787211999996,64,,,,,,,,,,,,,,,sub_1024,2025-04-06_16h49.08.762,Reversal,2023.1.3,59.892863645606916,4,
5,exp3.png,exp4.png,,,,,,,,,,,,,,,,,,2,0,2,0,0,5,5,5,,,,,,,,,False,44,105,True,exp4.png,exp3.png,trial_right_image,-1,exp3.png,4,exp3.png,exp4.png,0,4,reversed,correct,0.9603959261544578,1,valid_win,605.1768683,65,,,,,,,,,,,,,,,sub_1024,2025-04-06_16h49.08.762,Reversal,2023.1.3,59.892863645606916,4,
6,exp1.png,exp2.png,,,,,,,,,,,,,,,,,,2,0,2,0,0,6,6,6,,,,,,,,,False,45,106,True,exp2.png,exp1.png,trial_right_image,-1,exp1.png,4,exp2.png,exp1.png,0,2,non-reversed,incorrect,0.2363959867290648,1,invalid_win,610.2438547000002,66,,,,,,,,,,,,,,,sub_1024,2025-04-06_16h49.08.762,Reversal,2023.1.3,59.892863645606916,4,
7,exp3.png,exp4.png,,,,,,,,,,,,,,,,,,2,0,2,0,0,7,7,7,,,,,,,,,False,46,107,True,exp4.png,exp3.png,trial_left_image,1,exp4.png,4,exp3.png,exp4.png,1,3,reversed,incorrect,0.9984186122630362,0,valid_lose,616.3070484999998,66,,,,,,,,,,,,,,,sub_1024,2025-04-06_16h49.08.762,Reversal,2023.1.3,59.892863645606916,4,
8,exp1.png,exp2.png,,,,,,,,,,,,,,,,,,2,0,2,0,0,8,8,8,,,,,,,,,False,47,108,True,exp2.png,exp1.png,trial_right_image,-1,exp1.png,4,exp2.png,exp1.png,0,2,non-reversed,incorrect,0.22328255183100554,1,invalid_win,621.7376833999997,67,,,,,,,,,,,,,,,sub_1024,2025-04-06_16h49.08.762,Reversal,2023.1.3,59.892863645606916,4,
9,exp3.png,exp4.png,,,,,,,,,,,,,,,,,,2,0,2,0,0,9,9,9,,,,,,,,,False,48,109,True,exp4.png,exp3.png,trial_right_image,-1,exp3.png,4,exp3.png,exp4.png,0,4,reversed,correct,0.3536181353489354,1,valid_win,630.7516632999996,68,,,,,,,,,,,,,,,sub_1024,2025-04-06_16h49.08.762,Reversal,2023.1.3,59.892863645606916,4,
10,exp1.png,exp2.png,,,,,,,,,,,,,,,,,,2,0,2,0,0,10,10,10,,,,,,,,,False,49,110,False,exp1.png,exp2.png,trial_right_image,-1,exp2.png,4,exp2.png,exp1.png,1,1,non-reversed,correct,0.5611476888647858,1,valid_win,636.5840247999995,69,,,,,,,,,,,,,,,sub_1024,2025-04-06_16h49.08.762,Reversal,2023.1.3,59.892863645606916,4,
11,exp3.png,exp4.png,,,,,,,,,,,,,,,,,,2,0,2,0,0,11,11,11,,,,,,,,,False,50,111,False,exp3.png,exp4.png,trial_left_image,1,exp3.png,4,exp3.png,exp4.png,0,4,reversed,correct,0.1708752805762549,0,invalid_lose,641.4316794999995,69,,,,,,,,,,,,,,,sub_1024,2025-04-06_16h49.08.762,Reversal,2023.1.3,59.892863645606916,4,
12,exp1.png,exp2.png,,,,,,,,,,,,,,,,,,2,0,2,0,0,12,12,12,,,,,,,,,False,51,112,False,exp1.png,exp2.png,trial_right_image,-1,exp2.png,4,exp2.png,exp1.png,1,1,non-reversed,correct,0.6700517460082588,1,valid_win,646.6139616999999,70,,,,,,,,,,,,,,,sub_1024,2025-04-06_16h49.08.762,Reversal,2023.1.3,59.892863645606916,4,
13,exp3.png,exp4.png,,,,,,,,,,,,,,,,,,2,0,2,0,0,13,13,13,,,,,,,,,False,52,113,False,exp3.png,exp4.png,trial_left_image,1,exp3.png,4,exp3.png,exp4.png,0,4,reversed,correct,0.31990602879476493,1,valid_win,651.4781834999994,71,,,,,,,,,,,,,,,sub_1024,2025-04-06_16h49.08.762,Reversal,2023.1.3,59.892863645606916,4,
14,exp1.png,exp2.png,,,,,,,,,,,,,,,,,,2,0,2,0,0,14,14,14,,,,,,,,,False,53,114,False,exp1.png,exp2.png,trial_right_image,-1,exp2.png,4,exp2.png,exp1.png,1,1,non-reversed,correct,0.012016327405623861,0,invalid_lose,657.6938388999997,71,,,,,,,,,,,,,,,sub_1024,2025-04-06_16h49.08.762,Reversal,2023.1.3,59.892863645606916,4,
15,exp3.png,exp4.png,,,,,,,,,,,,,,,,,,2,0,2,0,0,15,15,15,,,,,,,,,False,54,115,True,exp4.png,exp3.png,trial_left_image,1,exp4.png,4,exp3.png,exp4.png,1,3,reversed,incorrect,0.8263185314170093,0,valid_lose,664.8418709999996,71,,,,,,,,,,,,,,,sub_1024,2025-04-06_16h49.08.762,Reversal,2023.1.3,59.892863645606916,4,
16,exp1.png,exp2.png,,,,,,,,,,,,,,,,,,2,0,2,0,0,16,16,16,,,,,,,,,False,55,116,False,exp1.png,exp2.png,trial_right_image,-1,exp2.png,4,exp2.png,exp1.png,1,1,non-reversed,correct,0.41321131450594806,1,valid_win,671.7555035999994,72,,,,,,,,,,,,,,,sub_1024,2025-04-06_16h49.08.762,Reversal,2023.1.3,59.892863645606916,4,
17,exp3.png,exp4.png,,,,,,,,,,,,,,,,,,2,0,2,0,0,17,17,17,,,,,,,,,False,56,117,False,exp3.png,exp4.png,trial_right_image,-1,exp4.png,4,exp3.png,exp4.png,1,3,reversed,incorrect,0.02803336456575789,1,invalid_win,679.9853573999999,73,,,,,,,,,,,,,,,sub_1024,2025-04-06_16h49.08.762,Reversal,2023.1.3,59.892863645606916,4,
18,exp1.png,exp2.png,,,,,,,,,,,,,,,,,,2,0,2,0,0,18,18,18,,,,,,,,,False,57,118,False,exp1.png,exp2.png,trial_right_image,-1,exp2.png,4,exp2.png,exp1.png,1,1,non-reversed,correct,0.60282299537328,1,valid_win,685.2020754999994,74,,,,,,,,,,,,,,,sub_1024,2025-04-06_16h49.08.762,Reversal,2023.1.3,59.892863645606916,4,
19,exp3.png,exp4.png,,,,,,,,,,,,,,,,,,2,0,2,0,0,19,19,19,,,,,,,,,False,58,119,False,exp3.png,exp4.png,trial_right_image,-1,exp4.png,4,exp3.png,exp4.png,1,3,reversed,incorrect,0.06738801682877893,1,invalid_win,692.8307236999999,75,,,,,,,,,,,,,,,sub_1024,2025-04-06_16h49.08.762,Reversal,2023.1.3,59.892863645606916,4,
20,exp1.png,exp2.png,,,,,,,,,,,,,,,,,,2,0,2,0,0,20,20,20,,,,,,,,,False,59,120,True,exp2.png,exp1.png,trial_left_image,1,exp2.png,4,exp2.png,exp1.png,1,1,non-reversed,correct,0.42020938206803693,1,valid_win,698.1455956,76,,,,,,,,,,,,,,,sub_1024,2025-04-06_16h49.08.762,Reversal,2023.1.3,59.892863645606916,4,
,,,exp1.png,,,,,,,,,,,,,,,,,2,0,2,0,,,,,0,0,0,0,0,0,0,0,,,,,,,,,,,,,,,,,,,,,,809.9663394999998,36.0,2.815765499999543,"[(36.0, 2.815765499999543)]",,,36.0,,,,,,,,sub_1024,2025-04-06_16h49.08.762,Reversal,2023.1.3,59.892863645606916,4,
,,,exp2.png,,,,,,,,,,,,,,,,,2,0,2,0,,,,,0,0,0,0,0,1,1,1,,,,,,,,,,,,,,,,,,,,,,823.7383735000003,74.0,1.424178600000232,"[(74.0, 1.424178600000232)]",,,,74.0,,,,,,,sub_1024,2025-04-06_16h49.08.762,Reversal,2023.1.3,59.892863645606916,4,
,,,exp3.png,,,,,,,,,,,,,,,,,2,0,2,0,,,,,0,0,0,0,0,2,2,2,,,,,,,,,,,,,,,,,,,,,,826.0593825999995,27.0,2.096741300000758,"[(27.0, 2.096741300000758)]",27.0,,,,,,,,,,sub_1024,2025-04-06_16h49.08.762,Reversal,2023.1.3,59.892863645606916,4,
,,,exp4.png,,,,,,,,,,,,,,,,,2,0,2,0,,,,,0,0,0,0,0,3,3,3,,,,,,,,,,,,,,,,,,,,,,829.1047677999995,78.0,1.137306699999499,"[(78.0, 1.137306699999499)]",,78.0,,,,,,,,,sub_1024,2025-04-06_16h49.08.762,Reversal,2023.1.3,59.892863645606916,4,
,,,,,,,,,,,,,,,,,,,,,,,,,,,,,,,,,,,,,,,,,,,,,,,,,,,,,,,,76,,,,,,,,,,81,47,34,365.016431,0,,,,,,,
