trial_index,trial_image1_file,trial_image2_file,image_file,learning_outer_loop.thisRepN,learning_outer_loop.thisTrialN,learning_outer_loop.thisN,learning_outer_loop.thisIndex,learning_inner_loop.thisRepN,learning_inner_loop.thisTrialN,learning_inner_loop.thisN,learning_inner_loop.thisIndex,learning_estimation_outer_loop.thisRepN,learning_estimation_outer_loop.thisTrialN,learning_estimation_outer_loop.thisN,learning_estimation_outer_loop.thisIndex,learning_estimation_inner_loop.thisRepN,learning_estimation_inner_loop.thisTrialN,learning_estimation_inner_loop.thisN,learning_estimation_inner_loop.thisIndex,reversal_outer_loop.thisRepN,reversal_outer_loop.thisTrialN,reversal_outer_loop.thisN,reversal_outer_loop.thisIndex,reversal_inner_loop.thisRepN,reversal_inner_loop.thisTrialN,reversal_inner_loop.thisN,reversal_inner_loop.thisIndex,reversal_estimation_outer_loop.thisRepN,reversal_estimation_outer_loop.thisTrialN,reversal_estimation_outer_loop.thisN,reversal_estimation_outer_loop.thisIndex,reversal_estimation_inner_loop.thisRepN,reversal_estimation_inner_loop.thisTrialN,reversal_estimation_inner_loop.thisN,reversal_estimation_inner_loop.thisIndex,skipped,total_trial_counter,trial_num,left_right_flip,left_image_file,right_image_file,clicked_stimulus_side,side,clicked_stimulus,version,high_prob_image_file,low_prob_image_file,choice_a,choice_b,pair_type,correct,trial_feedback_random,reward,trial_type,overall_time_after_trial,score,estimation_rating.started,estimation_exp1.png,estimation_rating.response,estimation_rating.rt,estimation_rating.history,estimation_exp2.png,estimation_exp3.png,estimation_exp4.png,total_learning_time,total_correct,learning_correct,reversal_correct,total_reversal_time,extra_block,participant,date,expName,psychopyVersion,frameRate,ver,
0,exp1.png,exp2.png,,0,0,0,0,0,0,0,0,,,,,,,,,,,,,,,,,,,,,,,,,False,0,1,True,exp2.png,exp1.png,trial_right_image,-1,exp1.png,2,exp1.png,exp2.png,1,1,non-reversed,correct,0.5635796856482821,1,valid_win,9.578571199905127,1,,,,,,,,,,,,,,,sub_1022,2025-03-30_11h59.24.733,Reversal,2023.1.3,59.99462446865294,2,
1,exp3.png,exp4.png,,0,0,0,0,0,1,1,1,,,,,,,,,,,,,,,,,,,,,,,,,False,1,2,True,exp4.png,exp3.png,trial_right_image,-1,exp3.png,2,exp3.png,exp4.png,1,3,reversed,correct,0.8307485101959697,1,valid_win,15.1278270999901,2,,,,,,,,,,,,,,,sub_1022,2025-03-30_11h59.24.733,Reversal,2023.1.3,59.99462446865294,2,
2,exp1.png,exp2.png,,0,0,0,0,0,2,2,2,,,,,,,,,,,,,,,,,,,,,,,,,False,2,3,True,exp2.png,exp1.png,trial_right_image,-1,exp1.png,2,exp1.png,exp2.png,1,1,non-reversed,correct,0.39616165078444965,1,valid_win,21.20819479995407,3,,,,,,,,,,,,,,,sub_1022,2025-03-30_11h59.24.733,Reversal,2023.1.3,59.99462446865294,2,
3,exp3.png,exp4.png,,0,0,0,0,0,3,3,3,,,,,,,,,,,,,,,,,,,,,,,,,False,3,4,True,exp4.png,exp3.png,trial_right_image,-1,exp3.png,2,exp3.png,exp4.png,1,3,reversed,correct,0.5432532311398137,1,valid_win,25.839652700000443,4,,,,,,,,,,,,,,,sub_1022,2025-03-30_11h59.24.733,Reversal,2023.1.3,59.99462446865294,2,
4,exp1.png,exp2.png,,0,0,0,0,0,4,4,4,,,,,,,,,,,,,,,,,,,,,,,,,False,4,5,False,exp1.png,exp2.png,trial_left_image,1,exp1.png,2,exp1.png,exp2.png,1,1,non-reversed,correct,0.27731518832736823,1,valid_win,30.921011099941097,5,,,,,,,,,,,,,,,sub_1022,2025-03-30_11h59.24.733,Reversal,2023.1.3,59.99462446865294,2,
5,exp3.png,exp4.png,,0,0,0,0,0,5,5,5,,,,,,,,,,,,,,,,,,,,,,,,,False,5,6,True,exp4.png,exp3.png,trial_right_image,-1,exp3.png,2,exp3.png,exp4.png,1,3,reversed,correct,0.5316552665409423,1,valid_win,34.953744799946435,6,,,,,,,,,,,,,,,sub_1022,2025-03-30_11h59.24.733,Reversal,2023.1.3,59.99462446865294,2,
6,exp1.png,exp2.png,,0,0,0,0,0,6,6,6,,,,,,,,,,,,,,,,,,,,,,,,,False,6,7,True,exp2.png,exp1.png,trial_right_image,-1,exp1.png,2,exp1.png,exp2.png,1,1,non-reversed,correct,0.38383787565429384,1,valid_win,38.951727899955586,7,,,,,,,,,,,,,,,sub_1022,2025-03-30_11h59.24.733,Reversal,2023.1.3,59.99462446865294,2,
7,exp3.png,exp4.png,,0,0,0,0,0,7,7,7,,,,,,,,,,,,,,,,,,,,,,,,,False,7,8,False,exp3.png,exp4.png,trial_left_image,1,exp3.png,2,exp3.png,exp4.png,1,3,reversed,correct,0.7434565918707344,1,valid_win,43.36702569993213,8,,,,,,,,,,,,,,,sub_1022,2025-03-30_11h59.24.733,Reversal,2023.1.3,59.99462446865294,2,
8,exp1.png,exp2.png,,0,0,0,0,0,8,8,8,,,,,,,,,,,,,,,,,,,,,,,,,False,8,9,True,exp2.png,exp1.png,trial_right_image,-1,exp1.png,2,exp1.png,exp2.png,1,1,non-reversed,correct,0.9352330349854542,1,valid_win,47.38233890000265,9,,,,,,,,,,,,,,,sub_1022,2025-03-30_11h59.24.733,Reversal,2023.1.3,59.99462446865294,2,
9,exp3.png,exp4.png,,0,0,0,0,0,9,9,9,,,,,,,,,,,,,,,,,,,,,,,,,False,9,10,False,exp3.png,exp4.png,trial_left_image,1,exp3.png,2,exp3.png,exp4.png,1,3,reversed,correct,0.6312768097338269,1,valid_win,51.84734480001498,10,,,,,,,,,,,,,,,sub_1022,2025-03-30_11h59.24.733,Reversal,2023.1.3,59.99462446865294,2,
10,exp1.png,exp2.png,,0,0,0,0,0,10,10,10,,,,,,,,,,,,,,,,,,,,,,,,,False,10,11,False,exp1.png,exp2.png,trial_left_image,1,exp1.png,2,exp1.png,exp2.png,1,1,non-reversed,correct,0.9382182817829877,1,valid_win,56.44695449993014,11,,,,,,,,,,,,,,,sub_1022,2025-03-30_11h59.24.733,Reversal,2023.1.3,59.99462446865294,2,
11,exp3.png,exp4.png,,0,0,0,0,0,11,11,11,,,,,,,,,,,,,,,,,,,,,,,,,False,11,12,False,exp3.png,exp4.png,trial_left_image,1,exp3.png,2,exp3.png,exp4.png,1,3,reversed,correct,0.043356823661760524,0,invalid_lose,61.02762389997952,11,,,,,,,,,,,,,,,sub_1022,2025-03-30_11h59.24.733,Reversal,2023.1.3,59.99462446865294,2,
12,exp1.png,exp2.png,,0,0,0,0,0,12,12,12,,,,,,,,,,,,,,,,,,,,,,,,,False,12,13,True,exp2.png,exp1.png,trial_right_image,-1,exp1.png,2,exp1.png,exp2.png,1,1,non-reversed,correct,0.0771300017268216,0,invalid_lose,65.99263389990665,11,,,,,,,,,,,,,,,sub_1022,2025-03-30_11h59.24.733,Reversal,2023.1.3,59.99462446865294,2,
13,exp3.png,exp4.png,,0,0,0,0,0,13,13,13,,,,,,,,,,,,,,,,,,,,,,,,,False,13,14,False,exp3.png,exp4.png,trial_right_image,-1,exp4.png,2,exp3.png,exp4.png,0,4,reversed,incorrect,0.6440609471000673,0,valid_lose,70.24166900001,11,,,,,,,,,,,,,,,sub_1022,2025-03-30_11h59.24.733,Reversal,2023.1.3,59.99462446865294,2,
14,exp1.png,exp2.png,,0,0,0,0,0,14,14,14,,,,,,,,,,,,,,,,,,,,,,,,,False,14,15,True,exp2.png,exp1.png,trial_right_image,-1,exp1.png,2,exp1.png,exp2.png,1,1,non-reversed,correct,0.05220877908643573,0,invalid_lose,74.68948319996707,11,,,,,,,,,,,,,,,sub_1022,2025-03-30_11h59.24.733,Reversal,2023.1.3,59.99462446865294,2,
15,exp3.png,exp4.png,,0,0,0,0,0,15,15,15,,,,,,,,,,,,,,,,,,,,,,,,,False,15,16,False,exp3.png,exp4.png,trial_left_image,1,exp3.png,2,exp3.png,exp4.png,1,3,reversed,correct,0.3823154008797335,1,valid_win,81.28813599993009,12,,,,,,,,,,,,,,,sub_1022,2025-03-30_11h59.24.733,Reversal,2023.1.3,59.99462446865294,2,
16,exp1.png,exp2.png,,0,0,0,0,0,16,16,16,,,,,,,,,,,,,,,,,,,,,,,,,False,16,17,False,exp1.png,exp2.png,trial_left_image,1,exp1.png,2,exp1.png,exp2.png,1,1,non-reversed,correct,0.3909720174136181,1,valid_win,86.23594919999596,13,,,,,,,,,,,,,,,sub_1022,2025-03-30_11h59.24.733,Reversal,2023.1.3,59.99462446865294,2,
17,exp3.png,exp4.png,,0,0,0,0,0,17,17,17,,,,,,,,,,,,,,,,,,,,,,,,,False,17,18,False,exp3.png,exp4.png,trial_left_image,1,exp3.png,2,exp3.png,exp4.png,1,3,reversed,correct,0.5151396105782582,1,valid_win,90.66790140001103,14,,,,,,,,,,,,,,,sub_1022,2025-03-30_11h59.24.733,Reversal,2023.1.3,59.99462446865294,2,
18,exp1.png,exp2.png,,0,0,0,0,0,18,18,18,,,,,,,,,,,,,,,,,,,,,,,,,False,18,19,False,exp1.png,exp2.png,trial_left_image,1,exp1.png,2,exp1.png,exp2.png,1,1,non-reversed,correct,0.5586534203763263,1,valid_win,95.21642770001199,15,,,,,,,,,,,,,,,sub_1022,2025-03-30_11h59.24.733,Reversal,2023.1.3,59.99462446865294,2,
19,exp3.png,exp4.png,,0,0,0,0,0,19,19,19,,,,,,,,,,,,,,,,,,,,,,,,,False,19,20,True,exp4.png,exp3.png,trial_right_image,-1,exp3.png,2,exp3.png,exp4.png,1,3,reversed,correct,0.14463505713546865,0,invalid_lose,99.81493779993616,15,,,,,,,,,,,,,,,sub_1022,2025-03-30_11h59.24.733,Reversal,2023.1.3,59.99462446865294,2,
20,exp1.png,exp2.png,,0,0,0,0,0,20,20,20,,,,,,,,,,,,,,,,,,,,,,,,,True,,,,,,,,,,,,,,,,,,,,,,,,,,,,,,,,,,,sub_1022,2025-03-30_11h59.24.733,Reversal,2023.1.3,59.99462446865294,2,
,,,exp1.png,0,0,0,0,,,,,0,0,0,0,0,0,0,0,,,,,,,,,,,,,,,,,,,,,,,,,,,,,,,,,,,,,,168.70230310002808,79.0,79.0,15.8205812999513,"[(78.0, 9.322941499995068), (79.0, 15.8205812999513)]",,,,,,,,,,sub_1022,2025-03-30_11h59.24.733,Reversal,2023.1.3,59.99462446865294,2,
,,,exp2.png,0,0,0,0,,,,,0,0,0,0,0,1,1,1,,,,,,,,,,,,,,,,,,,,,,,,,,,,,,,,,,,,,,185.51666660001501,,11.0,2.9971287000225857,"[(11.0, 2.9971287000225857)]",11.0,,,,,,,,,sub_1022,2025-03-30_11h59.24.733,Reversal,2023.1.3,59.99462446865294,2,
,,,exp3.png,0,0,0,0,,,,,0,0,0,0,0,2,2,2,,,,,,,,,,,,,,,,,,,,,,,,,,,,,,,,,,,,,,189.81577939994168,,83.0,6.87736069993116,"[(83.0, 6.87736069993116)]",,83.0,,,,,,,,sub_1022,2025-03-30_11h59.24.733,Reversal,2023.1.3,59.99462446865294,2,
,,,exp4.png,0,0,0,0,,,,,0,0,0,0,0,3,3,3,,,,,,,,,,,,,,,,,,,,,,,,,,,,,,,,,,,,,,197.73122700001113,,15.0,2.1776038999669254,"[(15.0, 2.1776038999669254)]",,,15.0,,,,,,,sub_1022,2025-03-30_11h59.24.733,Reversal,2023.1.3,59.99462446865294,2,
0,exp1.png,exp2.png,,1,0,1,0,0,0,0,0,,,,,,,,,,,,,,,,,,,,,,,,,False,20,21,False,exp1.png,exp2.png,trial_left_image,1,exp1.png,2,exp1.png,exp2.png,1,1,non-reversed,correct,0.45527784199678567,1,valid_win,138.96763249998912,16,,,,,,,,,,,,,,,sub_1022,2025-03-30_11h59.24.733,Reversal,2023.1.3,59.99462446865294,2,
1,exp3.png,exp4.png,,1,0,1,0,0,1,1,1,,,,,,,,,,,,,,,,,,,,,,,,,False,21,22,False,exp3.png,exp4.png,trial_left_image,1,exp3.png,2,exp3.png,exp4.png,1,3,reversed,correct,0.6438438469174492,1,valid_win,143.64948749996256,17,,,,,,,,,,,,,,,sub_1022,2025-03-30_11h59.24.733,Reversal,2023.1.3,59.99462446865294,2,
2,exp1.png,exp2.png,,1,0,1,0,0,2,2,2,,,,,,,,,,,,,,,,,,,,,,,,,False,22,23,False,exp1.png,exp2.png,trial_left_image,1,exp1.png,2,exp1.png,exp2.png,1,1,non-reversed,correct,0.8469953020974672,1,valid_win,148.01574589998927,18,,,,,,,,,,,,,,,sub_1022,2025-03-30_11h59.24.733,Reversal,2023.1.3,59.99462446865294,2,
3,exp3.png,exp4.png,,1,0,1,0,0,3,3,3,,,,,,,,,,,,,,,,,,,,,,,,,False,23,24,False,exp3.png,exp4.png,trial_left_image,1,exp3.png,2,exp3.png,exp4.png,1,3,reversed,correct,0.5906098156791367,1,valid_win,152.3988987999037,19,,,,,,,,,,,,,,,sub_1022,2025-03-30_11h59.24.733,Reversal,2023.1.3,59.99462446865294,2,
4,exp1.png,exp2.png,,1,0,1,0,0,4,4,4,,,,,,,,,,,,,,,,,,,,,,,,,False,24,25,True,exp2.png,exp1.png,trial_right_image,-1,exp1.png,2,exp1.png,exp2.png,1,1,non-reversed,correct,0.855501822261669,1,valid_win,156.49604090000503,20,,,,,,,,,,,,,,,sub_1022,2025-03-30_11h59.24.733,Reversal,2023.1.3,59.99462446865294,2,
5,exp3.png,exp4.png,,1,0,1,0,0,5,5,5,,,,,,,,,,,,,,,,,,,,,,,,,False,25,26,False,exp3.png,exp4.png,trial_left_image,1,exp3.png,2,exp3.png,exp4.png,1,3,reversed,correct,0.4341423430300544,1,valid_win,160.87694389990065,21,,,,,,,,,,,,,,,sub_1022,2025-03-30_11h59.24.733,Reversal,2023.1.3,59.99462446865294,2,
6,exp1.png,exp2.png,,1,0,1,0,0,6,6,6,,,,,,,,,,,,,,,,,,,,,,,,,False,26,27,False,exp1.png,exp2.png,trial_left_image,1,exp1.png,2,exp1.png,exp2.png,1,1,non-reversed,correct,0.49745516807448853,1,valid_win,165.12579769990407,22,,,,,,,,,,,,,,,sub_1022,2025-03-30_11h59.24.733,Reversal,2023.1.3,59.99462446865294,2,
7,exp3.png,exp4.png,,1,0,1,0,0,7,7,7,,,,,,,,,,,,,,,,,,,,,,,,,False,27,28,True,exp4.png,exp3.png,trial_right_image,-1,exp3.png,2,exp3.png,exp4.png,1,3,reversed,correct,0.3982282961183554,1,valid_win,169.12421569996513,23,,,,,,,,,,,,,,,sub_1022,2025-03-30_11h59.24.733,Reversal,2023.1.3,59.99462446865294,2,
8,exp1.png,exp2.png,,1,0,1,0,0,8,8,8,,,,,,,,,,,,,,,,,,,,,,,,,False,28,29,False,exp1.png,exp2.png,trial_left_image,1,exp1.png,2,exp1.png,exp2.png,1,1,non-reversed,correct,0.7444200313622178,1,valid_win,173.32271779992152,24,,,,,,,,,,,,,,,sub_1022,2025-03-30_11h59.24.733,Reversal,2023.1.3,59.99462446865294,2,
9,exp3.png,exp4.png,,1,0,1,0,0,9,9,9,,,,,,,,,,,,,,,,,,,,,,,,,False,29,30,False,exp3.png,exp4.png,trial_left_image,1,exp3.png,2,exp3.png,exp4.png,1,3,reversed,correct,0.6328403632463953,1,valid_win,180.13730949989986,25,,,,,,,,,,,,,,,sub_1022,2025-03-30_11h59.24.733,Reversal,2023.1.3,59.99462446865294,2,
10,exp1.png,exp2.png,,1,0,1,0,0,10,10,10,,,,,,,,,,,,,,,,,,,,,,,,,False,30,31,False,exp1.png,exp2.png,trial_left_image,1,exp1.png,2,exp1.png,exp2.png,1,1,non-reversed,correct,0.2923413467866627,1,valid_win,184.8853332999861,26,,,,,,,,,,,,,,,sub_1022,2025-03-30_11h59.24.733,Reversal,2023.1.3,59.99462446865294,2,
11,exp3.png,exp4.png,,1,0,1,0,0,11,11,11,,,,,,,,,,,,,,,,,,,,,,,,,False,31,32,True,exp4.png,exp3.png,trial_right_image,-1,exp3.png,2,exp3.png,exp4.png,1,3,reversed,correct,0.3972784077499091,1,valid_win,189.61788249993697,27,,,,,,,,,,,,,,,sub_1022,2025-03-30_11h59.24.733,Reversal,2023.1.3,59.99462446865294,2,
12,exp1.png,exp2.png,,1,0,1,0,0,12,12,12,,,,,,,,,,,,,,,,,,,,,,,,,False,32,33,True,exp2.png,exp1.png,trial_right_image,-1,exp1.png,2,exp1.png,exp2.png,1,1,non-reversed,correct,0.2594958465938312,1,valid_win,193.79948279995006,28,,,,,,,,,,,,,,,sub_1022,2025-03-30_11h59.24.733,Reversal,2023.1.3,59.99462446865294,2,
13,exp3.png,exp4.png,,1,0,1,0,0,13,13,13,,,,,,,,,,,,,,,,,,,,,,,,,False,33,34,True,exp4.png,exp3.png,trial_right_image,-1,exp3.png,2,exp3.png,exp4.png,1,3,reversed,correct,0.5332174085414148,1,valid_win,197.91475009999704,29,,,,,,,,,,,,,,,sub_1022,2025-03-30_11h59.24.733,Reversal,2023.1.3,59.99462446865294,2,
14,exp1.png,exp2.png,,1,0,1,0,0,14,14,14,,,,,,,,,,,,,,,,,,,,,,,,,False,34,35,True,exp2.png,exp1.png,trial_right_image,-1,exp1.png,2,exp1.png,exp2.png,1,1,non-reversed,correct,0.6136943728672589,1,valid_win,201.98062299995217,30,,,,,,,,,,,,,,,sub_1022,2025-03-30_11h59.24.733,Reversal,2023.1.3,59.99462446865294,2,
15,exp3.png,exp4.png,,1,0,1,0,0,15,15,15,,,,,,,,,,,,,,,,,,,,,,,,,False,35,36,True,exp4.png,exp3.png,trial_right_image,-1,exp3.png,2,exp3.png,exp4.png,1,3,reversed,correct,0.8898380613653262,1,valid_win,206.02883630001452,31,,,,,,,,,,,,,,,sub_1022,2025-03-30_11h59.24.733,Reversal,2023.1.3,59.99462446865294,2,
16,exp1.png,exp2.png,,1,0,1,0,0,16,16,16,,,,,,,,,,,,,,,,,,,,,,,,,False,36,37,True,exp2.png,exp1.png,trial_right_image,-1,exp1.png,2,exp1.png,exp2.png,1,1,non-reversed,correct,0.3697354136943981,1,valid_win,210.04413549997844,32,,,,,,,,,,,,,,,sub_1022,2025-03-30_11h59.24.733,Reversal,2023.1.3,59.99462446865294,2,
17,exp3.png,exp4.png,,1,0,1,0,0,17,17,17,,,,,,,,,,,,,,,,,,,,,,,,,False,37,38,False,exp3.png,exp4.png,trial_left_image,1,exp3.png,2,exp3.png,exp4.png,1,3,reversed,correct,0.008246308671791658,0,invalid_lose,214.72555390000343,32,,,,,,,,,,,,,,,sub_1022,2025-03-30_11h59.24.733,Reversal,2023.1.3,59.99462446865294,2,
18,exp1.png,exp2.png,,1,0,1,0,0,18,18,18,,,,,,,,,,,,,,,,,,,,,,,,,False,38,39,True,exp2.png,exp1.png,trial_left_image,1,exp2.png,2,exp1.png,exp2.png,0,2,non-reversed,incorrect,0.14459191779525493,1,invalid_win,220.2235635999823,33,,,,,,,,,,,,,,,sub_1022,2025-03-30_11h59.24.733,Reversal,2023.1.3,59.99462446865294,2,
19,exp3.png,exp4.png,,1,0,1,0,0,19,19,19,,,,,,,,,,,,,,,,,,,,,,,,,False,39,40,True,exp4.png,exp3.png,trial_right_image,-1,exp3.png,2,exp3.png,exp4.png,1,3,reversed,correct,0.9290658067293681,1,valid_win,224.87423630000558,34,,,,,,,,,,,,,,,sub_1022,2025-03-30_11h59.24.733,Reversal,2023.1.3,59.99462446865294,2,
20,exp1.png,exp2.png,,1,0,1,0,0,20,20,20,,,,,,,,,,,,,,,,,,,,,,,,,True,,,,,,,,,,,,,,,,,,,,,,,,,,,,,,,,,,,sub_1022,2025-03-30_11h59.24.733,Reversal,2023.1.3,59.99462446865294,2,
,,,exp1.png,1,0,1,0,,,,,0,0,0,0,0,0,0,0,,,,,,,,,,,,,,,,,,,,,,,,,,,,,,,,,,,,,,293.7197614000179,88.0,88.0,4.591148599982262,"[(88.0, 4.591148599982262)]",,,,,,,,,,sub_1022,2025-03-30_11h59.24.733,Reversal,2023.1.3,59.99462446865294,2,
,,,exp2.png,1,0,1,0,,,,,0,0,0,0,0,1,1,1,,,,,,,,,,,,,,,,,,,,,,,,,,,,,,,,,,,,,,299.2783484000247,,8.0,4.42817670002114,"[(8.0, 4.42817670002114)]",8.0,,,,,,,,,sub_1022,2025-03-30_11h59.24.733,Reversal,2023.1.3,59.99462446865294,2,
,,,exp3.png,1,0,1,0,,,,,0,0,0,0,0,2,2,2,,,,,,,,,,,,,,,,,,,,,,,,,,,,,,,,,,,,,,304.76032999996096,,93.0,2.760309800039977,"[(93.0, 2.760309800039977)]",,93.0,,,,,,,,sub_1022,2025-03-30_11h59.24.733,Reversal,2023.1.3,59.99462446865294,2,
,,,exp4.png,1,0,1,0,,,,,0,0,0,0,0,3,3,3,,,,,,,,,,,,,,,,,,,,,,,,,,,,,,,,,,,,,,308.590706899995,,10.0,2.227904099971056,"[(10.0, 2.227904099971056)]",,,10.0,,,,,,,sub_1022,2025-03-30_11h59.24.733,Reversal,2023.1.3,59.99462446865294,2,
0,exp1.png,exp2.png,,2,0,2,0,0,0,0,0,,,,,,,,,,,,,,,,,,,,,,,,,False,40,41,True,exp2.png,exp1.png,trial_right_image,-1,exp1.png,2,exp1.png,exp2.png,1,1,non-reversed,correct,0.9743781864072687,1,valid_win,247.3148271999089,35,,,,,,,,,,,,,,,sub_1022,2025-03-30_11h59.24.733,Reversal,2023.1.3,59.99462446865294,2,
1,exp3.png,exp4.png,,2,0,2,0,0,1,1,1,,,,,,,,,,,,,,,,,,,,,,,,,False,41,42,True,exp4.png,exp3.png,trial_right_image,-1,exp3.png,2,exp3.png,exp4.png,1,3,reversed,correct,0.9215486800281412,1,valid_win,251.38009539991617,36,,,,,,,,,,,,,,,sub_1022,2025-03-30_11h59.24.733,Reversal,2023.1.3,59.99462446865294,2,
2,exp1.png,exp2.png,,2,0,2,0,0,2,2,2,,,,,,,,,,,,,,,,,,,,,,,,,False,42,43,True,exp2.png,exp1.png,trial_right_image,-1,exp1.png,2,exp1.png,exp2.png,1,1,non-reversed,correct,0.2941545822083619,1,valid_win,255.27907789999153,37,,,,,,,,,,,,,,,sub_1022,2025-03-30_11h59.24.733,Reversal,2023.1.3,59.99462446865294,2,
3,exp3.png,exp4.png,,2,0,2,0,0,3,3,3,,,,,,,,,,,,,,,,,,,,,,,,,False,43,44,False,exp3.png,exp4.png,trial_left_image,1,exp3.png,2,exp3.png,exp4.png,1,3,reversed,correct,0.9017885908061544,1,valid_win,259.7942032999126,38,,,,,,,,,,,,,,,sub_1022,2025-03-30_11h59.24.733,Reversal,2023.1.3,59.99462446865294,2,
4,exp1.png,exp2.png,,2,0,2,0,0,4,4,4,,,,,,,,,,,,,,,,,,,,,,,,,False,44,45,True,exp2.png,exp1.png,trial_right_image,-1,exp1.png,2,exp1.png,exp2.png,1,1,non-reversed,correct,0.6512866247544119,1,valid_win,264.0095670999726,39,,,,,,,,,,,,,,,sub_1022,2025-03-30_11h59.24.733,Reversal,2023.1.3,59.99462446865294,2,
5,exp3.png,exp4.png,,2,0,2,0,0,5,5,5,,,,,,,,,,,,,,,,,,,,,,,,,False,45,46,False,exp3.png,exp4.png,trial_left_image,1,exp3.png,2,exp3.png,exp4.png,1,3,reversed,correct,0.2638518367291335,1,valid_win,268.42375189997256,40,,,,,,,,,,,,,,,sub_1022,2025-03-30_11h59.24.733,Reversal,2023.1.3,59.99462446865294,2,
6,exp1.png,exp2.png,,2,0,2,0,0,6,6,6,,,,,,,,,,,,,,,,,,,,,,,,,False,46,47,True,exp2.png,exp1.png,trial_right_image,-1,exp1.png,2,exp1.png,exp2.png,1,1,non-reversed,correct,0.09579557338188904,0,invalid_lose,272.47276089992374,40,,,,,,,,,,,,,,,sub_1022,2025-03-30_11h59.24.733,Reversal,2023.1.3,59.99462446865294,2,
7,exp3.png,exp4.png,,2,0,2,0,0,7,7,7,,,,,,,,,,,,,,,,,,,,,,,,,False,47,48,True,exp4.png,exp3.png,trial_left_image,1,exp4.png,2,exp3.png,exp4.png,0,4,reversed,incorrect,0.2590946454822598,0,valid_lose,277.4375561999623,40,,,,,,,,,,,,,,,sub_1022,2025-03-30_11h59.24.733,Reversal,2023.1.3,59.99462446865294,2,
8,exp1.png,exp2.png,,2,0,2,0,0,8,8,8,,,,,,,,,,,,,,,,,,,,,,,,,False,48,49,False,exp1.png,exp2.png,trial_left_image,1,exp1.png,2,exp1.png,exp2.png,1,1,non-reversed,correct,0.9836615029731629,1,valid_win,283.0356307999464,41,,,,,,,,,,,,,,,sub_1022,2025-03-30_11h59.24.733,Reversal,2023.1.3,59.99462446865294,2,
9,exp3.png,exp4.png,,2,0,2,0,0,9,9,9,,,,,,,,,,,,,,,,,,,,,,,,,False,49,50,True,exp4.png,exp3.png,trial_right_image,-1,exp3.png,2,exp3.png,exp4.png,1,3,reversed,correct,0.3329440355802946,1,valid_win,287.01771479996387,42,,,,,,,,,,,,,,,sub_1022,2025-03-30_11h59.24.733,Reversal,2023.1.3,59.99462446865294,2,
10,exp1.png,exp2.png,,2,0,2,0,0,10,10,10,,,,,,,,,,,,,,,,,,,,,,,,,False,50,51,False,exp1.png,exp2.png,trial_left_image,1,exp1.png,2,exp1.png,exp2.png,1,1,non-reversed,correct,0.6283941698837642,1,valid_win,291.516270199907,43,,,,,,,,,,,,,,,sub_1022,2025-03-30_11h59.24.733,Reversal,2023.1.3,59.99462446865294,2,
11,exp3.png,exp4.png,,2,0,2,0,0,11,11,11,,,,,,,,,,,,,,,,,,,,,,,,,False,51,52,True,exp4.png,exp3.png,trial_right_image,-1,exp3.png,2,exp3.png,exp4.png,1,3,reversed,correct,0.2739760729555031,1,valid_win,295.5985624999739,44,,,,,,,,,,,,,,,sub_1022,2025-03-30_11h59.24.733,Reversal,2023.1.3,59.99462446865294,2,
12,exp1.png,exp2.png,,2,0,2,0,0,12,12,12,,,,,,,,,,,,,,,,,,,,,,,,,False,52,53,True,exp2.png,exp1.png,trial_right_image,-1,exp1.png,2,exp1.png,exp2.png,1,1,non-reversed,correct,0.6128858930284654,1,valid_win,299.6299759999383,45,,,,,,,,,,,,,,,sub_1022,2025-03-30_11h59.24.733,Reversal,2023.1.3,59.99462446865294,2,
13,exp3.png,exp4.png,,2,0,2,0,0,13,13,13,,,,,,,,,,,,,,,,,,,,,,,,,False,53,54,False,exp3.png,exp4.png,trial_left_image,1,exp3.png,2,exp3.png,exp4.png,1,3,reversed,correct,0.33617834560004656,1,valid_win,304.01153259992134,46,,,,,,,,,,,,,,,sub_1022,2025-03-30_11h59.24.733,Reversal,2023.1.3,59.99462446865294,2,
14,exp1.png,exp2.png,,2,0,2,0,0,14,14,14,,,,,,,,,,,,,,,,,,,,,,,,,False,54,55,False,exp1.png,exp2.png,trial_left_image,1,exp1.png,2,exp1.png,exp2.png,1,1,non-reversed,correct,0.9413762989151644,1,valid_win,308.39341499994043,47,,,,,,,,,,,,,,,sub_1022,2025-03-30_11h59.24.733,Reversal,2023.1.3,59.99462446865294,2,
15,exp3.png,exp4.png,,2,0,2,0,0,15,15,15,,,,,,,,,,,,,,,,,,,,,,,,,False,55,56,False,exp3.png,exp4.png,trial_left_image,1,exp3.png,2,exp3.png,exp4.png,1,3,reversed,correct,0.7275787455930801,1,valid_win,312.9423162000021,48,,,,,,,,,,,,,,,sub_1022,2025-03-30_11h59.24.733,Reversal,2023.1.3,59.99462446865294,2,
16,exp1.png,exp2.png,,2,0,2,0,0,16,16,16,,,,,,,,,,,,,,,,,,,,,,,,,False,56,57,True,exp2.png,exp1.png,trial_right_image,-1,exp1.png,2,exp1.png,exp2.png,1,1,non-reversed,correct,0.48172983485055987,1,valid_win,317.1241417999845,49,,,,,,,,,,,,,,,sub_1022,2025-03-30_11h59.24.733,Reversal,2023.1.3,59.99462446865294,2,
17,exp3.png,exp4.png,,2,0,2,0,0,17,17,17,,,,,,,,,,,,,,,,,,,,,,,,,False,57,58,False,exp3.png,exp4.png,trial_left_image,1,exp3.png,2,exp3.png,exp4.png,1,3,reversed,correct,0.7167916449882099,1,valid_win,321.1562688999111,50,,,,,,,,,,,,,,,sub_1022,2025-03-30_11h59.24.733,Reversal,2023.1.3,59.99462446865294,2,
18,exp1.png,exp2.png,,2,0,2,0,0,18,18,18,,,,,,,,,,,,,,,,,,,,,,,,,False,58,59,False,exp1.png,exp2.png,trial_left_image,1,exp1.png,2,exp1.png,exp2.png,1,1,non-reversed,correct,0.33503282630790543,1,valid_win,325.3715136999963,51,,,,,,,,,,,,,,,sub_1022,2025-03-30_11h59.24.733,Reversal,2023.1.3,59.99462446865294,2,
19,exp3.png,exp4.png,,2,0,2,0,0,19,19,19,,,,,,,,,,,,,,,,,,,,,,,,,False,59,60,False,exp3.png,exp4.png,trial_left_image,1,exp3.png,2,exp3.png,exp4.png,1,3,reversed,correct,0.756169012150465,1,valid_win,329.78631190001033,52,,,,,,,,,,,,,,,sub_1022,2025-03-30_11h59.24.733,Reversal,2023.1.3,59.99462446865294,2,
20,exp1.png,exp2.png,,2,0,2,0,0,20,20,20,,,,,,,,,,,,,,,,,,,,,,,,,True,,,,,,,,,,,,,,,,,,,,,,,,,,,,,,,,,,,sub_1022,2025-03-30_11h59.24.733,Reversal,2023.1.3,59.99462446865294,2,
,,,exp1.png,2,0,2,0,,,,,0,0,0,0,0,0,0,0,,,,,,,,,,,,,,,,,,,,,,,,,,,,,,,,,,,,,,398.6289519999409,96.0,96.0,3.472218499984592,"[(96.0, 3.472218499984592)]",,,,,,,,,,sub_1022,2025-03-30_11h59.24.733,Reversal,2023.1.3,59.99462446865294,2,
,,,exp2.png,2,0,2,0,,,,,0,0,0,0,0,1,1,1,,,,,,,,,,,,,,,,,,,,,,,,,,,,,,,,,,,,,,403.4949245000025,,6.0,2.2759883999824524,"[(6.0, 2.2759883999824524)]",6.0,,,,,,,,,sub_1022,2025-03-30_11h59.24.733,Reversal,2023.1.3,59.99462446865294,2,
,,,exp3.png,2,0,2,0,,,,,0,0,0,0,0,2,2,2,,,,,,,,,,,,,,,,,,,,,,,,,,,,,,,,,,,,,,406.7590749999508,,97.0,2.426811999990605,"[(97.0, 2.426811999990605)]",,97.0,,,,,,,,sub_1022,2025-03-30_11h59.24.733,Reversal,2023.1.3,59.99462446865294,2,
,,,exp4.png,2,0,2,0,,,,,0,0,0,0,0,3,3,3,,,,,,,,,,,,,,,,,,,,,,,,,,,,,,,,,,,,,,410.27518350002356,,6.0,1.9118580999784172,"[(6.0, 1.9118580999784172)]",,,6.0,,,,,,,sub_1022,2025-03-30_11h59.24.733,Reversal,2023.1.3,59.99462446865294,2,
0,exp1.png,exp2.png,,,,,,,,,,,,,,,,,,0,0,0,0,0,0,0,0,,,,,,,,,False,0,61,True,exp2.png,exp1.png,trial_right_image,-1,exp1.png,2,exp1.png,exp2.png,1,1,non-reversed,correct,0.36637527681526094,1,valid_win,349.0970989000052,53,,,,,,,,,347.0048898999812,,,,,,sub_1022,2025-03-30_11h59.24.733,Reversal,2023.1.3,59.99462446865294,2,
1,exp3.png,exp4.png,,,,,,,,,,,,,,,,,,0,0,0,0,0,1,1,1,,,,,,,,,False,1,62,False,exp3.png,exp4.png,trial_left_image,1,exp3.png,2,exp4.png,exp3.png,1,3,reversed,incorrect,0.12546533799505233,1,invalid_win,353.3787910999963,54,,,,,,,,,,,,,,,sub_1022,2025-03-30_11h59.24.733,Reversal,2023.1.3,59.99462446865294,2,
2,exp1.png,exp2.png,,,,,,,,,,,,,,,,,,0,0,0,0,0,2,2,2,,,,,,,,,False,2,63,True,exp2.png,exp1.png,trial_right_image,-1,exp1.png,2,exp1.png,exp2.png,1,1,non-reversed,correct,0.38574327938929354,1,valid_win,357.27743289992213,55,,,,,,,,,,,,,,,sub_1022,2025-03-30_11h59.24.733,Reversal,2023.1.3,59.99462446865294,2,
3,exp3.png,exp4.png,,,,,,,,,,,,,,,,,,0,0,0,0,0,3,3,3,,,,,,,,,False,3,64,True,exp4.png,exp3.png,trial_right_image,-1,exp3.png,2,exp4.png,exp3.png,1,3,reversed,incorrect,0.47263109612481613,0,valid_lose,361.22655429993756,55,,,,,,,,,,,,,,,sub_1022,2025-03-30_11h59.24.733,Reversal,2023.1.3,59.99462446865294,2,
4,exp1.png,exp2.png,,,,,,,,,,,,,,,,,,0,0,0,0,0,4,4,4,,,,,,,,,False,4,65,False,exp1.png,exp2.png,trial_right_image,-1,exp2.png,2,exp1.png,exp2.png,0,2,non-reversed,incorrect,0.061175504100401734,1,invalid_win,365.50762609997764,56,,,,,,,,,,,,,,,sub_1022,2025-03-30_11h59.24.733,Reversal,2023.1.3,59.99462446865294,2,
5,exp3.png,exp4.png,,,,,,,,,,,,,,,,,,0,0,0,0,0,5,5,5,,,,,,,,,False,5,66,False,exp3.png,exp4.png,trial_left_image,1,exp3.png,2,exp4.png,exp3.png,1,3,reversed,incorrect,0.6484358740271489,0,valid_lose,369.63982669997495,56,,,,,,,,,,,,,,,sub_1022,2025-03-30_11h59.24.733,Reversal,2023.1.3,59.99462446865294,2,
6,exp1.png,exp2.png,,,,,,,,,,,,,,,,,,0,0,0,0,0,6,6,6,,,,,,,,,False,6,67,False,exp1.png,exp2.png,trial_left_image,1,exp1.png,2,exp1.png,exp2.png,1,1,non-reversed,correct,0.8309963937888942,1,valid_win,373.7883856999688,57,,,,,,,,,,,,,,,sub_1022,2025-03-30_11h59.24.733,Reversal,2023.1.3,59.99462446865294,2,
7,exp3.png,exp4.png,,,,,,,,,,,,,,,,,,0,0,0,0,0,7,7,7,,,,,,,,,False,7,68,True,exp4.png,exp3.png,trial_right_image,-1,exp3.png,2,exp4.png,exp3.png,1,3,reversed,incorrect,0.8643692249645861,0,valid_lose,377.76973009994254,57,,,,,,,,,,,,,,,sub_1022,2025-03-30_11h59.24.733,Reversal,2023.1.3,59.99462446865294,2,
8,exp1.png,exp2.png,,,,,,,,,,,,,,,,,,0,0,0,0,0,8,8,8,,,,,,,,,False,8,69,True,exp2.png,exp1.png,trial_right_image,-1,exp1.png,2,exp1.png,exp2.png,1,1,non-reversed,correct,0.22009727664891765,0,invalid_lose,382.6688967999071,57,,,,,,,,,,,,,,,sub_1022,2025-03-30_11h59.24.733,Reversal,2023.1.3,59.99462446865294,2,
9,exp3.png,exp4.png,,,,,,,,,,,,,,,,,,0,0,0,0,0,9,9,9,,,,,,,,,False,9,70,True,exp4.png,exp3.png,trial_right_image,-1,exp3.png,2,exp4.png,exp3.png,1,3,reversed,incorrect,0.4965428165151041,0,valid_lose,386.6170800999971,57,,,,,,,,,,,,,,,sub_1022,2025-03-30_11h59.24.733,Reversal,2023.1.3,59.99462446865294,2,
10,exp1.png,exp2.png,,,,,,,,,,,,,,,,,,0,0,0,0,0,10,10,10,,,,,,,,,False,10,71,False,exp1.png,exp2.png,trial_right_image,-1,exp2.png,2,exp1.png,exp2.png,0,2,non-reversed,incorrect,0.7240136454773974,0,valid_lose,390.5822379000019,57,,,,,,,,,,,,,,,sub_1022,2025-03-30_11h59.24.733,Reversal,2023.1.3,59.99462446865294,2,
11,exp3.png,exp4.png,,,,,,,,,,,,,,,,,,0,0,0,0,0,11,11,11,,,,,,,,,False,11,72,False,exp3.png,exp4.png,trial_left_image,1,exp3.png,2,exp4.png,exp3.png,1,3,reversed,incorrect,0.01975450608535667,1,invalid_win,394.83094829996116,58,,,,,,,,,,,,,,,sub_1022,2025-03-30_11h59.24.733,Reversal,2023.1.3,59.99462446865294,2,
12,exp1.png,exp2.png,,,,,,,,,,,,,,,,,,0,0,0,0,0,12,12,12,,,,,,,,,False,12,73,True,exp2.png,exp1.png,trial_right_image,-1,exp1.png,2,exp1.png,exp2.png,1,1,non-reversed,correct,0.13779833863361368,0,invalid_lose,398.9796431999421,58,,,,,,,,,,,,,,,sub_1022,2025-03-30_11h59.24.733,Reversal,2023.1.3,59.99462446865294,2,
13,exp3.png,exp4.png,,,,,,,,,,,,,,,,,,0,0,0,0,0,13,13,13,,,,,,,,,False,13,74,False,exp3.png,exp4.png,trial_left_image,1,exp3.png,2,exp4.png,exp3.png,1,3,reversed,incorrect,0.2247780020003728,1,invalid_win,404.394723800011,59,,,,,,,,,,,,,,,sub_1022,2025-03-30_11h59.24.733,Reversal,2023.1.3,59.99462446865294,2,
14,exp1.png,exp2.png,,,,,,,,,,,,,,,,,,0,0,0,0,0,14,14,14,,,,,,,,,False,14,75,True,exp2.png,exp1.png,trial_right_image,-1,exp1.png,2,exp1.png,exp2.png,1,1,non-reversed,correct,0.11722129734897824,0,invalid_lose,408.32611459994223,59,,,,,,,,,,,,,,,sub_1022,2025-03-30_11h59.24.733,Reversal,2023.1.3,59.99462446865294,2,
15,exp3.png,exp4.png,,,,,,,,,,,,,,,,,,0,0,0,0,0,15,15,15,,,,,,,,,False,15,76,False,exp3.png,exp4.png,trial_left_image,1,exp3.png,2,exp4.png,exp3.png,1,3,reversed,incorrect,0.45638597013047877,0,valid_lose,412.774597599986,59,,,,,,,,,,,,,,,sub_1022,2025-03-30_11h59.24.733,Reversal,2023.1.3,59.99462446865294,2,
16,exp1.png,exp2.png,,,,,,,,,,,,,,,,,,0,0,0,0,0,16,16,16,,,,,,,,,False,16,77,False,exp1.png,exp2.png,trial_right_image,-1,exp2.png,2,exp1.png,exp2.png,0,2,non-reversed,incorrect,0.08566354931076481,1,invalid_win,416.64047579991166,60,,,,,,,,,,,,,,,sub_1022,2025-03-30_11h59.24.733,Reversal,2023.1.3,59.99462446865294,2,
17,exp3.png,exp4.png,,,,,,,,,,,,,,,,,,0,0,0,0,0,17,17,17,,,,,,,,,False,17,78,False,exp3.png,exp4.png,trial_left_image,1,exp3.png,2,exp4.png,exp3.png,1,3,reversed,incorrect,0.4384800358661055,0,valid_lose,421.0886296000099,60,,,,,,,,,,,,,,,sub_1022,2025-03-30_11h59.24.733,Reversal,2023.1.3,59.99462446865294,2,
18,exp1.png,exp2.png,,,,,,,,,,,,,,,,,,0,0,0,0,0,18,18,18,,,,,,,,,False,18,79,True,exp2.png,exp1.png,trial_left_image,1,exp2.png,2,exp1.png,exp2.png,0,2,non-reversed,incorrect,0.7068723550569275,0,valid_lose,425.2036940999096,60,,,,,,,,,,,,,,,sub_1022,2025-03-30_11h59.24.733,Reversal,2023.1.3,59.99462446865294,2,
19,exp3.png,exp4.png,,,,,,,,,,,,,,,,,,0,0,0,0,0,19,19,19,,,,,,,,,False,19,80,True,exp4.png,exp3.png,trial_right_image,-1,exp3.png,2,exp4.png,exp3.png,1,3,reversed,incorrect,0.21512718850183743,1,invalid_win,429.03579719993286,61,,,,,,,,,,,,,,,sub_1022,2025-03-30_11h59.24.733,Reversal,2023.1.3,59.99462446865294,2,
20,exp1.png,exp2.png,,,,,,,,,,,,,,,,,,0,0,0,0,0,20,20,20,,,,,,,,,True,,,,,,,,,,,,,,,,,,,,,,,,,,,,,,,,,,,sub_1022,2025-03-30_11h59.24.733,Reversal,2023.1.3,59.99462446865294,2,
,,,exp1.png,,,,,,,,,,,,,,,,,0,0,0,0,,,,,0,0,0,0,0,0,0,0,,,,,,,,,,,,,,,,,,,,,,497.88170809997246,64.0,64.0,3.8786536999978125,"[(64.0, 3.8786536999978125)]",,,,,,,,,,sub_1022,2025-03-30_11h59.24.733,Reversal,2023.1.3,59.99462446865294,2,
,,,exp2.png,,,,,,,,,,,,,,,,,0,0,0,0,,,,,0,0,0,0,0,1,1,1,,,,,,,,,,,,,,,,,,,,,,502.6263612000039,,8.0,4.0104510999517515,"[(8.0, 4.0104510999517515)]",8.0,,,,,,,,,sub_1022,2025-03-30_11h59.24.733,Reversal,2023.1.3,59.99462446865294,2,
,,,exp3.png,,,,,,,,,,,,,,,,,0,0,0,0,,,,,0,0,0,0,0,2,2,2,,,,,,,,,,,,,,,,,,,,,,507.75869050004985,,69.0,4.493893300066702,"[(69.0, 4.493893300066702)]",,69.0,,,,,,,,sub_1022,2025-03-30_11h59.24.733,Reversal,2023.1.3,59.99462446865294,2,
,,,exp4.png,,,,,,,,,,,,,,,,,0,0,0,0,,,,,0,0,0,0,0,3,3,3,,,,,,,,,,,,,,,,,,,,,,513.0900246000383,,10.0,3.4607656999723986,"[(13.0, 1.5951544999843463), (10.0, 3.4607656999723986)]",,,10.0,,,,,,,sub_1022,2025-03-30_11h59.24.733,Reversal,2023.1.3,59.99462446865294,2,
0,exp1.png,exp2.png,,,,,,,,,,,,,,,,,,1,0,1,0,0,0,0,0,,,,,,,,,False,20,81,False,exp1.png,exp2.png,trial_left_image,1,exp1.png,2,exp1.png,exp2.png,1,1,non-reversed,correct,0.09308095545432205,0,invalid_lose,454.11072539992165,61,,,,,,,,,,,,,,,sub_1022,2025-03-30_11h59.24.733,Reversal,2023.1.3,59.99462446865294,2,
1,exp3.png,exp4.png,,,,,,,,,,,,,,,,,,1,0,1,0,0,1,1,1,,,,,,,,,False,21,82,False,exp3.png,exp4.png,trial_left_image,1,exp3.png,2,exp4.png,exp3.png,1,3,reversed,incorrect,0.7497933442676337,0,valid_lose,458.87576279998757,61,,,,,,,,,,,,,,,sub_1022,2025-03-30_11h59.24.733,Reversal,2023.1.3,59.99462446865294,2,
2,exp1.png,exp2.png,,,,,,,,,,,,,,,,,,1,0,1,0,0,2,2,2,,,,,,,,,False,22,83,False,exp1.png,exp2.png,trial_right_image,-1,exp2.png,2,exp1.png,exp2.png,0,2,non-reversed,incorrect,0.3621847724857966,0,valid_lose,463.1907639999408,61,,,,,,,,,,,,,,,sub_1022,2025-03-30_11h59.24.733,Reversal,2023.1.3,59.99462446865294,2,
3,exp3.png,exp4.png,,,,,,,,,,,,,,,,,,1,0,1,0,0,3,3,3,,,,,,,,,False,23,84,True,exp4.png,exp3.png,trial_right_image,-1,exp3.png,2,exp4.png,exp3.png,1,3,reversed,incorrect,0.9971340597946257,0,valid_lose,467.47286949993577,61,,,,,,,,,,,,,,,sub_1022,2025-03-30_11h59.24.733,Reversal,2023.1.3,59.99462446865294,2,
4,exp1.png,exp2.png,,,,,,,,,,,,,,,,,,1,0,1,0,0,4,4,4,,,,,,,,,False,24,85,True,exp2.png,exp1.png,trial_right_image,-1,exp1.png,2,exp1.png,exp2.png,1,1,non-reversed,correct,0.2547986894560569,1,valid_win,471.90473269997165,62,,,,,,,,,,,,,,,sub_1022,2025-03-30_11h59.24.733,Reversal,2023.1.3,59.99462446865294,2,
5,exp3.png,exp4.png,,,,,,,,,,,,,,,,,,1,0,1,0,0,5,5,5,,,,,,,,,False,25,86,False,exp3.png,exp4.png,trial_right_image,-1,exp4.png,2,exp4.png,exp3.png,0,4,reversed,correct,0.11645907782208531,0,invalid_lose,476.46985309990123,62,,,,,,,,,,,,,,,sub_1022,2025-03-30_11h59.24.733,Reversal,2023.1.3,59.99462446865294,2,
6,exp1.png,exp2.png,,,,,,,,,,,,,,,,,,1,0,1,0,0,6,6,6,,,,,,,,,False,26,87,False,exp1.png,exp2.png,trial_left_image,1,exp1.png,2,exp1.png,exp2.png,1,1,non-reversed,correct,0.6376961883690514,1,valid_win,480.71826319990214,63,,,,,,,,,,,,,,,sub_1022,2025-03-30_11h59.24.733,Reversal,2023.1.3,59.99462446865294,2,
7,exp3.png,exp4.png,,,,,,,,,,,,,,,,,,1,0,1,0,0,7,7,7,,,,,,,,,False,27,88,True,exp4.png,exp3.png,trial_right_image,-1,exp3.png,2,exp4.png,exp3.png,1,3,reversed,incorrect,0.5671329636376157,0,valid_lose,486.4498033999698,63,,,,,,,,,,,,,,,sub_1022,2025-03-30_11h59.24.733,Reversal,2023.1.3,59.99462446865294,2,
8,exp1.png,exp2.png,,,,,,,,,,,,,,,,,,1,0,1,0,0,8,8,8,,,,,,,,,False,28,89,False,exp1.png,exp2.png,trial_left_image,1,exp1.png,2,exp1.png,exp2.png,1,1,non-reversed,correct,0.5924384791397401,1,valid_win,490.9485770999454,64,,,,,,,,,,,,,,,sub_1022,2025-03-30_11h59.24.733,Reversal,2023.1.3,59.99462446865294,2,
9,exp3.png,exp4.png,,,,,,,,,,,,,,,,,,1,0,1,0,0,9,9,9,,,,,,,,,False,29,90,False,exp3.png,exp4.png,trial_right_image,-1,exp4.png,2,exp4.png,exp3.png,0,4,reversed,correct,0.511153607396594,1,valid_win,495.3645538999699,65,,,,,,,,,,,,,,,sub_1022,2025-03-30_11h59.24.733,Reversal,2023.1.3,59.99462446865294,2,
10,exp1.png,exp2.png,,,,,,,,,,,,,,,,,,1,0,1,0,0,10,10,10,,,,,,,,,False,30,91,False,exp1.png,exp2.png,trial_left_image,1,exp1.png,2,exp1.png,exp2.png,1,1,non-reversed,correct,0.8403567785835548,1,valid_win,500.345376299927,66,,,,,,,,,,,,,,,sub_1022,2025-03-30_11h59.24.733,Reversal,2023.1.3,59.99462446865294,2,
11,exp3.png,exp4.png,,,,,,,,,,,,,,,,,,1,0,1,0,0,11,11,11,,,,,,,,,False,31,92,True,exp4.png,exp3.png,trial_right_image,-1,exp3.png,2,exp4.png,exp3.png,1,3,reversed,incorrect,0.8101553165264147,0,valid_lose,505.3273140999954,66,,,,,,,,,,,,,,,sub_1022,2025-03-30_11h59.24.733,Reversal,2023.1.3,59.99462446865294,2,
12,exp1.png,exp2.png,,,,,,,,,,,,,,,,,,1,0,1,0,0,12,12,12,,,,,,,,,False,32,93,True,exp2.png,exp1.png,trial_right_image,-1,exp1.png,2,exp1.png,exp2.png,1,1,non-reversed,correct,0.03788365471975308,0,invalid_lose,509.4590169999283,66,,,,,,,,,,,,,,,sub_1022,2025-03-30_11h59.24.733,Reversal,2023.1.3,59.99462446865294,2,
13,exp3.png,exp4.png,,,,,,,,,,,,,,,,,,1,0,1,0,0,13,13,13,,,,,,,,,False,33,94,False,exp3.png,exp4.png,trial_right_image,-1,exp4.png,2,exp4.png,exp3.png,0,4,reversed,correct,0.7935025100586999,1,valid_win,513.8571967999451,67,,,,,,,,,,,,,,,sub_1022,2025-03-30_11h59.24.733,Reversal,2023.1.3,59.99462446865294,2,
14,exp1.png,exp2.png,,,,,,,,,,,,,,,,,,1,0,1,0,0,14,14,14,,,,,,,,,False,34,95,True,exp2.png,exp1.png,trial_right_image,-1,exp1.png,2,exp1.png,exp2.png,1,1,non-reversed,correct,0.615892276858721,1,valid_win,518.1392941999948,68,,,,,,,,,,,,,,,sub_1022,2025-03-30_11h59.24.733,Reversal,2023.1.3,59.99462446865294,2,
15,exp3.png,exp4.png,,,,,,,,,,,,,,,,,,1,0,1,0,0,15,15,15,,,,,,,,,False,35,96,False,exp3.png,exp4.png,trial_right_image,-1,exp4.png,2,exp4.png,exp3.png,0,4,reversed,correct,0.010609513184016595,0,invalid_lose,522.3041321999626,68,,,,,,,,,,,,,,,sub_1022,2025-03-30_11h59.24.733,Reversal,2023.1.3,59.99462446865294,2,
16,exp1.png,exp2.png,,,,,,,,,,,,,,,,,,1,0,1,0,0,16,16,16,,,,,,,,,False,36,97,True,exp2.png,exp1.png,trial_right_image,-1,exp1.png,2,exp1.png,exp2.png,1,1,non-reversed,correct,0.8120040947707892,1,valid_win,526.9860036999453,69,,,,,,,,,,,,,,,sub_1022,2025-03-30_11h59.24.733,Reversal,2023.1.3,59.99462446865294,2,
17,exp3.png,exp4.png,,,,,,,,,,,,,,,,,,1,0,1,0,0,17,17,17,,,,,,,,,False,37,98,True,exp4.png,exp3.png,trial_right_image,-1,exp3.png,2,exp4.png,exp3.png,1,3,reversed,incorrect,0.714809388028541,0,valid_lose,531.3177321999101,69,,,,,,,,,,,,,,,sub_1022,2025-03-30_11h59.24.733,Reversal,2023.1.3,59.99462446865294,2,
18,exp1.png,exp2.png,,,,,,,,,,,,,,,,,,1,0,1,0,0,18,18,18,,,,,,,,,False,38,99,True,exp2.png,exp1.png,trial_right_image,-1,exp1.png,2,exp1.png,exp2.png,1,1,non-reversed,correct,0.3939769244534629,1,valid_win,535.766297299997,70,,,,,,,,,,,,,,,sub_1022,2025-03-30_11h59.24.733,Reversal,2023.1.3,59.99462446865294,2,
19,exp3.png,exp4.png,,,,,,,,,,,,,,,,,,1,0,1,0,0,19,19,19,,,,,,,,,False,39,100,True,exp4.png,exp3.png,trial_left_image,1,exp4.png,2,exp4.png,exp3.png,0,4,reversed,correct,0.05048791512636874,0,invalid_lose,541.0981535000028,70,,,,,,,,,,,,,,,sub_1022,2025-03-30_11h59.24.733,Reversal,2023.1.3,59.99462446865294,2,
20,exp1.png,exp2.png,,,,,,,,,,,,,,,,,,1,0,1,0,0,20,20,20,,,,,,,,,True,,,,,,,,,,,,,,,,,,,,,,,,,,,,,,,,,,,sub_1022,2025-03-30_11h59.24.733,Reversal,2023.1.3,59.99462446865294,2,
,,,exp1.png,,,,,,,,,,,,,,,,,1,0,1,0,,,,,0,0,0,0,0,0,0,0,,,,,,,,,,,,,,,,,,,,,,609.9431136000203,92.0,92.0,4.794286800082773,"[(94.0, 3.127433200017549), (92.0, 4.794286800082773)]",,,,,,,,,,sub_1022,2025-03-30_11h59.24.733,Reversal,2023.1.3,59.99462446865294,2,
,,,exp2.png,,,,,,,,,,,,,,,,,1,0,1,0,,,,,0,0,0,0,0,1,1,1,,,,,,,,,,,,,,,,,,,,,,615.6728124000365,,25.0,2.993746899999678,"[(25.0, 2.993746899999678)]",25.0,,,,,,,,,sub_1022,2025-03-30_11h59.24.733,Reversal,2023.1.3,59.99462446865294,2,
,,,exp3.png,,,,,,,,,,,,,,,,,1,0,1,0,,,,,0,0,0,0,0,2,2,2,,,,,,,,,,,,,,,,,,,,,,619.6360638999613,,14.0,1.8106237000320107,"[(14.0, 1.8106237000320107)]",,14.0,,,,,,,,sub_1022,2025-03-30_11h59.24.733,Reversal,2023.1.3,59.99462446865294,2,
,,,exp4.png,,,,,,,,,,,,,,,,,1,0,1,0,,,,,0,0,0,0,0,3,3,3,,,,,,,,,,,,,,,,,,,,,,622.48981249996,,8.0,1.5897577999858186,"[(8.0, 1.5897577999858186)]",,,8.0,,,,,,,sub_1022,2025-03-30_11h59.24.733,Reversal,2023.1.3,59.99462446865294,2,
0,exp1.png,exp2.png,,,,,,,,,,,,,,,,,,2,0,2,0,0,0,0,0,,,,,,,,,False,40,101,False,exp1.png,exp2.png,trial_left_image,1,exp1.png,2,exp1.png,exp2.png,1,1,non-reversed,correct,0.9768827339255965,1,valid_win,561.7740626999876,71,,,,,,,,,,,,,,,sub_1022,2025-03-30_11h59.24.733,Reversal,2023.1.3,59.99462446865294,2,
1,exp3.png,exp4.png,,,,,,,,,,,,,,,,,,2,0,2,0,0,1,1,1,,,,,,,,,False,41,102,False,exp3.png,exp4.png,trial_left_image,1,exp3.png,2,exp4.png,exp3.png,1,3,reversed,incorrect,0.27109534628005716,0,valid_lose,567.0056435000151,71,,,,,,,,,,,,,,,sub_1022,2025-03-30_11h59.24.733,Reversal,2023.1.3,59.99462446865294,2,
2,exp1.png,exp2.png,,,,,,,,,,,,,,,,,,2,0,2,0,0,2,2,2,,,,,,,,,False,42,103,True,exp2.png,exp1.png,trial_right_image,-1,exp1.png,2,exp1.png,exp2.png,1,1,non-reversed,correct,0.6727115283319783,1,valid_win,571.1541925999336,72,,,,,,,,,,,,,,,sub_1022,2025-03-30_11h59.24.733,Reversal,2023.1.3,59.99462446865294,2,
3,exp3.png,exp4.png,,,,,,,,,,,,,,,,,,2,0,2,0,0,3,3,3,,,,,,,,,False,43,104,True,exp4.png,exp3.png,trial_left_image,1,exp4.png,2,exp4.png,exp3.png,0,4,reversed,correct,0.45473394105628406,1,valid_win,575.7864141999744,73,,,,,,,,,,,,,,,sub_1022,2025-03-30_11h59.24.733,Reversal,2023.1.3,59.99462446865294,2,
4,exp1.png,exp2.png,,,,,,,,,,,,,,,,,,2,0,2,0,0,4,4,4,,,,,,,,,False,44,105,False,exp1.png,exp2.png,trial_left_image,1,exp1.png,2,exp1.png,exp2.png,1,1,non-reversed,correct,0.14730482870595085,0,invalid_lose,579.9846908999607,73,,,,,,,,,,,,,,,sub_1022,2025-03-30_11h59.24.733,Reversal,2023.1.3,59.99462446865294,2,
5,exp3.png,exp4.png,,,,,,,,,,,,,,,,,,2,0,2,0,0,5,5,5,,,,,,,,,False,45,106,False,exp3.png,exp4.png,trial_left_image,1,exp3.png,2,exp4.png,exp3.png,1,3,reversed,incorrect,0.4817910410776345,0,valid_lose,584.6495100999018,73,,,,,,,,,,,,,,,sub_1022,2025-03-30_11h59.24.733,Reversal,2023.1.3,59.99462446865294,2,
6,exp1.png,exp2.png,,,,,,,,,,,,,,,,,,2,0,2,0,0,6,6,6,,,,,,,,,False,46,107,False,exp1.png,exp2.png,trial_left_image,1,exp1.png,2,exp1.png,exp2.png,1,1,non-reversed,correct,0.17484735796783812,0,invalid_lose,589.2815427999012,73,,,,,,,,,,,,,,,sub_1022,2025-03-30_11h59.24.733,Reversal,2023.1.3,59.99462446865294,2,
7,exp3.png,exp4.png,,,,,,,,,,,,,,,,,,2,0,2,0,0,7,7,7,,,,,,,,,False,47,108,True,exp4.png,exp3.png,trial_left_image,1,exp4.png,2,exp4.png,exp3.png,0,4,reversed,correct,0.7840925480802123,1,valid_win,595.2126568999374,74,,,,,,,,,,,,,,,sub_1022,2025-03-30_11h59.24.733,Reversal,2023.1.3,59.99462446865294,2,
8,exp1.png,exp2.png,,,,,,,,,,,,,,,,,,2,0,2,0,0,8,8,8,,,,,,,,,False,48,109,False,exp1.png,exp2.png,trial_left_image,1,exp1.png,2,exp1.png,exp2.png,1,1,non-reversed,correct,0.12990437582721093,0,invalid_lose,599.611126499949,74,,,,,,,,,,,,,,,sub_1022,2025-03-30_11h59.24.733,Reversal,2023.1.3,59.99462446865294,2,
9,exp3.png,exp4.png,,,,,,,,,,,,,,,,,,2,0,2,0,0,9,9,9,,,,,,,,,False,49,110,True,exp4.png,exp3.png,trial_left_image,1,exp4.png,2,exp4.png,exp3.png,0,4,reversed,correct,0.3371394295514851,1,valid_win,605.0935959999915,75,,,,,,,,,,,,,,,sub_1022,2025-03-30_11h59.24.733,Reversal,2023.1.3,59.99462446865294,2,
10,exp1.png,exp2.png,,,,,,,,,,,,,,,,,,2,0,2,0,0,10,10,10,,,,,,,,,False,50,111,True,exp2.png,exp1.png,trial_left_image,1,exp2.png,2,exp1.png,exp2.png,0,2,non-reversed,incorrect,0.008548202570382357,1,invalid_win,609.2913033999503,76,,,,,,,,,,,,,,,sub_1022,2025-03-30_11h59.24.733,Reversal,2023.1.3,59.99462446865294,2,
11,exp3.png,exp4.png,,,,,,,,,,,,,,,,,,2,0,2,0,0,11,11,11,,,,,,,,,False,51,112,True,exp4.png,exp3.png,trial_left_image,1,exp4.png,2,exp4.png,exp3.png,0,4,reversed,correct,0.08574116784674157,0,invalid_lose,613.3568431999302,76,,,,,,,,,,,,,,,sub_1022,2025-03-30_11h59.24.733,Reversal,2023.1.3,59.99462446865294,2,
12,exp1.png,exp2.png,,,,,,,,,,,,,,,,,,2,0,2,0,0,12,12,12,,,,,,,,,False,52,113,False,exp1.png,exp2.png,trial_right_image,-1,exp2.png,2,exp1.png,exp2.png,0,2,non-reversed,incorrect,0.37008079219543044,0,valid_lose,617.5578273999272,76,,,,,,,,,,,,,,,sub_1022,2025-03-30_11h59.24.733,Reversal,2023.1.3,59.99462446865294,2,
13,exp3.png,exp4.png,,,,,,,,,,,,,,,,,,2,0,2,0,0,13,13,13,,,,,,,,,False,53,114,True,exp4.png,exp3.png,trial_left_image,1,exp4.png,2,exp4.png,exp3.png,0,4,reversed,correct,0.9376306319435613,1,valid_win,622.1704514999874,77,,,,,,,,,,,,,,,sub_1022,2025-03-30_11h59.24.733,Reversal,2023.1.3,59.99462446865294,2,
14,exp1.png,exp2.png,,,,,,,,,,,,,,,,,,2,0,2,0,0,14,14,14,,,,,,,,,False,54,115,False,exp1.png,exp2.png,trial_right_image,-1,exp2.png,2,exp1.png,exp2.png,0,2,non-reversed,incorrect,0.3377484148916915,0,valid_lose,627.2682453999296,77,,,,,,,,,,,,,,,sub_1022,2025-03-30_11h59.24.733,Reversal,2023.1.3,59.99462446865294,2,
15,exp3.png,exp4.png,,,,,,,,,,,,,,,,,,2,0,2,0,0,15,15,15,,,,,,,,,False,55,116,False,exp3.png,exp4.png,trial_right_image,-1,exp4.png,2,exp4.png,exp3.png,0,4,reversed,correct,0.3341267027747028,1,valid_win,631.4341673000017,78,,,,,,,,,,,,,,,sub_1022,2025-03-30_11h59.24.733,Reversal,2023.1.3,59.99462446865294,2,
16,exp1.png,exp2.png,,,,,,,,,,,,,,,,,,2,0,2,0,0,16,16,16,,,,,,,,,False,56,117,False,exp1.png,exp2.png,trial_left_image,1,exp1.png,2,exp1.png,exp2.png,1,1,non-reversed,correct,0.8085566094805257,1,valid_win,636.9486422999762,79,,,,,,,,,,,,,,,sub_1022,2025-03-30_11h59.24.733,Reversal,2023.1.3,59.99462446865294,2,
17,exp3.png,exp4.png,,,,,,,,,,,,,,,,,,2,0,2,0,0,17,17,17,,,,,,,,,False,57,118,True,exp4.png,exp3.png,trial_left_image,1,exp4.png,2,exp4.png,exp3.png,0,4,reversed,correct,0.2315575197747024,0,invalid_lose,641.6304094999796,79,,,,,,,,,,,,,,,sub_1022,2025-03-30_11h59.24.733,Reversal,2023.1.3,59.99462446865294,2,
18,exp1.png,exp2.png,,,,,,,,,,,,,,,,,,2,0,2,0,0,18,18,18,,,,,,,,,False,58,119,True,exp2.png,exp1.png,trial_right_image,-1,exp1.png,2,exp1.png,exp2.png,1,1,non-reversed,correct,0.9055393644677642,1,valid_win,646.8617896999931,80,,,,,,,,,,,,,,,sub_1022,2025-03-30_11h59.24.733,Reversal,2023.1.3,59.99462446865294,2,
19,exp3.png,exp4.png,,,,,,,,,,,,,,,,,,2,0,2,0,0,19,19,19,,,,,,,,,False,59,120,True,exp4.png,exp3.png,trial_left_image,1,exp4.png,2,exp4.png,exp3.png,0,4,reversed,correct,0.8260176446208162,1,valid_win,651.4440321999136,81,,,,,,,,,,,,,,,sub_1022,2025-03-30_11h59.24.733,Reversal,2023.1.3,59.99462446865294,2,
20,exp1.png,exp2.png,,,,,,,,,,,,,,,,,,2,0,2,0,0,20,20,20,,,,,,,,,True,,,,,,,,,,,,,,,,,,,,,,,,,,,,,,,,,,,sub_1022,2025-03-30_11h59.24.733,Reversal,2023.1.3,59.99462446865294,2,
,,,exp1.png,,,,,,,,,,,,,,,,,2,0,2,0,,,,,0,0,0,0,0,0,0,0,,,,,,,,,,,,,,,,,,,,,,720.2844014000148,38.0,38.0,5.782125399913639,"[(38.0, 5.782125399913639)]",,,,,,,,,,sub_1022,2025-03-30_11h59.24.733,Reversal,2023.1.3,59.99462446865294,2,
,,,exp2.png,,,,,,,,,,,,,,,,,2,0,2,0,,,,,0,0,0,0,0,1,1,1,,,,,,,,,,,,,,,,,,,,,,727.0835309999529,,35.0,3.3117474999744445,"[(38.0, 2.4435241000028327), (35.0, 3.3117474999744445)]",35.0,,,,,,,,,sub_1022,2025-03-30_11h59.24.733,Reversal,2023.1.3,59.99462446865294,2,
,,,exp3.png,,,,,,,,,,,,,,,,,2,0,2,0,,,,,0,0,0,0,0,2,2,2,,,,,,,,,,,,,,,,,,,,,,731.1980336999986,,41.0,2.128440500004217,"[(41.0, 2.128440500004217)]",,41.0,,,,,,,,sub_1022,2025-03-30_11h59.24.733,Reversal,2023.1.3,59.99462446865294,2,
,,,exp4.png,,,,,,,,,,,,,,,,,2,0,2,0,,,,,0,0,0,0,0,3,3,3,,,,,,,,,,,,,,,,,,,,,,734.1639695999911,,68.0,1.6929901000112295,"[(68.0, 1.6929901000112295)]",,,68.0,,,,,,,sub_1022,2025-03-30_11h59.24.733,Reversal,2023.1.3,59.99462446865294,2,
,,,,,,,,,,,,,,,,,,,,,,,,,,,,,,,,,,,,,,,,,,,,,,,,,,,,,,,,81,,,,,,,,,,92,57,35,323.4667248999467,0,,,,,,,
