trial_index,trial_image1_file,trial_image2_file,image_file,learning_outer_loop.thisRepN,learning_outer_loop.thisTrialN,learning_outer_loop.thisN,learning_outer_loop.thisIndex,learning_inner_loop.thisRepN,learning_inner_loop.thisTrialN,learning_inner_loop.thisN,learning_inner_loop.thisIndex,learning_estimation_outer_loop.thisRepN,learning_estimation_outer_loop.thisTrialN,learning_estimation_outer_loop.thisN,learning_estimation_outer_loop.thisIndex,learning_estimation_inner_loop.thisRepN,learning_estimation_inner_loop.thisTrialN,learning_estimation_inner_loop.thisN,learning_estimation_inner_loop.thisIndex,reversal_outer_loop.thisRepN,reversal_outer_loop.thisTrialN,reversal_outer_loop.thisN,reversal_outer_loop.thisIndex,reversal_inner_loop.thisRepN,reversal_inner_loop.thisTrialN,reversal_inner_loop.thisN,reversal_inner_loop.thisIndex,reversal_estimation_outer_loop.thisRepN,reversal_estimation_outer_loop.thisTrialN,reversal_estimation_outer_loop.thisN,reversal_estimation_outer_loop.thisIndex,reversal_estimation_inner_loop.thisRepN,reversal_estimation_inner_loop.thisTrialN,reversal_estimation_inner_loop.thisN,reversal_estimation_inner_loop.thisIndex,skipped,total_trial_counter,trial_num,left_right_flip,left_image_file,right_image_file,clicked_stimulus_side,side,clicked_stimulus,version,high_prob_image_file,low_prob_image_file,choice_a,choice_b,pair_type,correct,trial_feedback_random,reward,trial_type,overall_time_after_trial,score,estimation_exp1.png,estimation_rating.response,estimation_rating.rt,estimation_rating.history,estimation_rating.started,estimation_rating.stopped,estimation_exp3.png,estimation_exp4.png,estimation_exp2.png,total_learning_time,total_correct,learning_correct,reversal_correct,total_reversal_time,extra_block,end_experiment.keys,end_experiment.rt,participant,date,expName,psychopyVersion,frameRate,ver,
0,exp1.png,exp2.png,,0,0,0,0,0,0,0,0,,,,,,,,,,,,,,,,,,,,,,,,,False,0,1,True,exp2.png,exp1.png,trial_right_image,-1,exp1.png,2,exp1.png,exp2.png,1,1,non-reversed,correct,0.5179720073873197,1,valid_win,22.96631059999345,1,,,,,,,,,,,,,,,,,,sub_046,2022-08-14_15h21.43.156,Reversal,2022.1.2,60.06814130088215,2,
1,exp3.png,exp4.png,,0,0,0,0,0,1,1,1,,,,,,,,,,,,,,,,,,,,,,,,,False,1,2,False,exp3.png,exp4.png,trial_left_image,1,exp3.png,2,exp3.png,exp4.png,1,3,reversed,correct,0.050999877110449954,0,invalid_lose,36.099382899992634,1,,,,,,,,,,,,,,,,,,sub_046,2022-08-14_15h21.43.156,Reversal,2022.1.2,60.06814130088215,2,
2,exp1.png,exp2.png,,0,0,0,0,0,2,2,2,,,,,,,,,,,,,,,,,,,,,,,,,False,2,3,True,exp2.png,exp1.png,trial_left_image,1,exp2.png,2,exp1.png,exp2.png,0,2,non-reversed,incorrect,0.1713585168881131,1,invalid_win,45.61583699999028,2,,,,,,,,,,,,,,,,,,sub_046,2022-08-14_15h21.43.156,Reversal,2022.1.2,60.06814130088215,2,
3,exp3.png,exp4.png,,0,0,0,0,0,3,3,3,,,,,,,,,,,,,,,,,,,,,,,,,False,3,4,True,exp4.png,exp3.png,trial_right_image,-1,exp3.png,2,exp3.png,exp4.png,1,3,reversed,correct,0.4509948361616055,1,valid_win,71.4157261000073,3,,,,,,,,,,,,,,,,,,sub_046,2022-08-14_15h21.43.156,Reversal,2022.1.2,60.06814130088215,2,
4,exp1.png,exp2.png,,0,0,0,0,0,4,4,4,,,,,,,,,,,,,,,,,,,,,,,,,False,4,5,True,exp2.png,exp1.png,trial_left_image,1,exp2.png,2,exp1.png,exp2.png,0,2,non-reversed,incorrect,0.837278426980209,0,valid_lose,80.08221059999778,3,,,,,,,,,,,,,,,,,,sub_046,2022-08-14_15h21.43.156,Reversal,2022.1.2,60.06814130088215,2,
5,exp3.png,exp4.png,,0,0,0,0,0,5,5,5,,,,,,,,,,,,,,,,,,,,,,,,,False,5,6,True,exp4.png,exp3.png,trial_right_image,-1,exp3.png,2,exp3.png,exp4.png,1,3,reversed,correct,0.5654484299279829,1,valid_win,87.78198359999806,4,,,,,,,,,,,,,,,,,,sub_046,2022-08-14_15h21.43.156,Reversal,2022.1.2,60.06814130088215,2,
6,exp1.png,exp2.png,,0,0,0,0,0,6,6,6,,,,,,,,,,,,,,,,,,,,,,,,,False,6,7,False,exp1.png,exp2.png,trial_right_image,-1,exp2.png,2,exp1.png,exp2.png,0,2,non-reversed,incorrect,0.010757974731875786,1,invalid_win,98.74863280000864,5,,,,,,,,,,,,,,,,,,sub_046,2022-08-14_15h21.43.156,Reversal,2022.1.2,60.06814130088215,2,
7,exp3.png,exp4.png,,0,0,0,0,0,7,7,7,,,,,,,,,,,,,,,,,,,,,,,,,False,7,8,False,exp3.png,exp4.png,trial_left_image,1,exp3.png,2,exp3.png,exp4.png,1,3,reversed,correct,0.7871993588348296,1,valid_win,107.49832350001088,6,,,,,,,,,,,,,,,,,,sub_046,2022-08-14_15h21.43.156,Reversal,2022.1.2,60.06814130088215,2,
8,exp1.png,exp2.png,,0,0,0,0,0,8,8,8,,,,,,,,,,,,,,,,,,,,,,,,,False,8,9,False,exp1.png,exp2.png,trial_left_image,1,exp1.png,2,exp1.png,exp2.png,1,1,non-reversed,correct,0.6729508632181564,1,valid_win,116.56463569999323,7,,,,,,,,,,,,,,,,,,sub_046,2022-08-14_15h21.43.156,Reversal,2022.1.2,60.06814130088215,2,
9,exp3.png,exp4.png,,0,0,0,0,0,9,9,9,,,,,,,,,,,,,,,,,,,,,,,,,False,9,10,True,exp4.png,exp3.png,trial_right_image,-1,exp3.png,2,exp3.png,exp4.png,1,3,reversed,correct,0.2985065379768881,1,valid_win,130.86476950001088,8,,,,,,,,,,,,,,,,,,sub_046,2022-08-14_15h21.43.156,Reversal,2022.1.2,60.06814130088215,2,
10,exp1.png,exp2.png,,0,0,0,0,0,10,10,10,,,,,,,,,,,,,,,,,,,,,,,,,False,10,11,False,exp1.png,exp2.png,trial_left_image,1,exp1.png,2,exp1.png,exp2.png,1,1,non-reversed,correct,0.03518649563839593,0,invalid_lose,138.06433680001646,8,,,,,,,,,,,,,,,,,,sub_046,2022-08-14_15h21.43.156,Reversal,2022.1.2,60.06814130088215,2,
11,exp3.png,exp4.png,,0,0,0,0,0,11,11,11,,,,,,,,,,,,,,,,,,,,,,,,,False,11,12,True,exp4.png,exp3.png,trial_right_image,-1,exp3.png,2,exp3.png,exp4.png,1,3,reversed,correct,0.5219025199380826,1,valid_win,143.24785640000482,9,,,,,,,,,,,,,,,,,,sub_046,2022-08-14_15h21.43.156,Reversal,2022.1.2,60.06814130088215,2,
12,exp1.png,exp2.png,,0,0,0,0,0,12,12,12,,,,,,,,,,,,,,,,,,,,,,,,,False,12,13,False,exp1.png,exp2.png,trial_right_image,-1,exp2.png,2,exp1.png,exp2.png,0,2,non-reversed,incorrect,0.1517127396742759,1,invalid_win,157.0307679999969,10,,,,,,,,,,,,,,,,,,sub_046,2022-08-14_15h21.43.156,Reversal,2022.1.2,60.06814130088215,2,
13,exp3.png,exp4.png,,0,0,0,0,0,13,13,13,,,,,,,,,,,,,,,,,,,,,,,,,False,13,14,True,exp4.png,exp3.png,trial_right_image,-1,exp3.png,2,exp3.png,exp4.png,1,3,reversed,correct,0.20574508470483022,0,invalid_lose,162.9472412999894,10,,,,,,,,,,,,,,,,,,sub_046,2022-08-14_15h21.43.156,Reversal,2022.1.2,60.06814130088215,2,
14,exp1.png,exp2.png,,0,0,0,0,0,14,14,14,,,,,,,,,,,,,,,,,,,,,,,,,False,14,15,False,exp1.png,exp2.png,trial_right_image,-1,exp2.png,2,exp1.png,exp2.png,0,2,non-reversed,incorrect,0.07535732862178446,1,invalid_win,172.91346929999418,11,,,,,,,,,,,,,,,,,,sub_046,2022-08-14_15h21.43.156,Reversal,2022.1.2,60.06814130088215,2,
15,exp3.png,exp4.png,,0,0,0,0,0,15,15,15,,,,,,,,,,,,,,,,,,,,,,,,,False,15,16,False,exp3.png,exp4.png,trial_left_image,1,exp3.png,2,exp3.png,exp4.png,1,3,reversed,correct,0.5213547227904924,1,valid_win,180.01367590000154,12,,,,,,,,,,,,,,,,,,sub_046,2022-08-14_15h21.43.156,Reversal,2022.1.2,60.06814130088215,2,
16,exp1.png,exp2.png,,0,0,0,0,0,16,16,16,,,,,,,,,,,,,,,,,,,,,,,,,False,16,17,False,exp1.png,exp2.png,trial_left_image,1,exp1.png,2,exp1.png,exp2.png,1,1,non-reversed,correct,0.6462640636072399,1,valid_win,194.71367890000693,13,,,,,,,,,,,,,,,,,,sub_046,2022-08-14_15h21.43.156,Reversal,2022.1.2,60.06814130088215,2,
17,exp3.png,exp4.png,,0,0,0,0,0,17,17,17,,,,,,,,,,,,,,,,,,,,,,,,,False,17,18,False,exp3.png,exp4.png,trial_left_image,1,exp3.png,2,exp3.png,exp4.png,1,3,reversed,correct,0.2455951946177013,0,invalid_lose,201.96329459999106,13,,,,,,,,,,,,,,,,,,sub_046,2022-08-14_15h21.43.156,Reversal,2022.1.2,60.06814130088215,2,
18,exp1.png,exp2.png,,0,0,0,0,0,18,18,18,,,,,,,,,,,,,,,,,,,,,,,,,False,18,19,True,exp2.png,exp1.png,trial_right_image,-1,exp1.png,2,exp1.png,exp2.png,1,1,non-reversed,correct,0.6740445489352573,1,valid_win,208.34661989999586,14,,,,,,,,,,,,,,,,,,sub_046,2022-08-14_15h21.43.156,Reversal,2022.1.2,60.06814130088215,2,
19,exp3.png,exp4.png,,0,0,0,0,0,19,19,19,,,,,,,,,,,,,,,,,,,,,,,,,False,19,20,True,exp4.png,exp3.png,trial_left_image,1,exp4.png,2,exp3.png,exp4.png,0,4,reversed,incorrect,0.49179820994504475,0,valid_lose,218.19654850001098,14,,,,,,,,,,,,,,,,,,sub_046,2022-08-14_15h21.43.156,Reversal,2022.1.2,60.06814130088215,2,
20,exp1.png,exp2.png,,0,0,0,0,0,20,20,20,,,,,,,,,,,,,,,,,,,,,,,,,True,,,,,,,,,,,,,,,,,,,,,,,,,,,,,,,,,,,,,,sub_046,2022-08-14_15h21.43.156,Reversal,2022.1.2,60.06814130088215,2,
,,,exp1.png,0,0,0,0,,,,,0,0,0,0,0,0,0,0,,,,,,,,,,,,,,,,,,,,,,,,,,,,,,,,,,,,,,100.0,100.0,17.61469349998515,"[(100.0, 17.61469349998515)]",387.4538678000099,None,,,,,,,,,,,,sub_046,2022-08-14_15h21.43.156,Reversal,2022.1.2,60.06814130088215,2,
,,,exp2.png,0,0,0,0,,,,,0,0,0,0,0,1,1,1,,,,,,,,,,,,,,,,,,,,,,,,,,,,,,,,,,,,,,,50.0,None,[],406.83213770002476,None,,,,,,,,,,,,sub_046,2022-08-14_15h21.43.156,Reversal,2022.1.2,60.06814130088215,2,
,,,exp3.png,0,0,0,0,,,,,0,0,0,0,0,2,2,2,,,,,,,,,,,,,,,,,,,,,,,,,,,,,,,,,,,,,,,100.0,5.950053199980175,"[(100.0, 5.950053199980175)]",411.8151077000075,None,100.0,,,,,,,,,,,sub_046,2022-08-14_15h21.43.156,Reversal,2022.1.2,60.06814130088215,2,
,,,exp4.png,0,0,0,0,,,,,0,0,0,0,0,3,3,3,,,,,,,,,,,,,,,,,,,,,,,,,,,,,,,,,,,,,,,100.0,5.101031400001375,"[(100.0, 5.101031400001375)]",419.3675397000043,None,,100.0,,,,,,,,,,sub_046,2022-08-14_15h21.43.156,Reversal,2022.1.2,60.06814130088215,2,
0,exp1.png,exp2.png,,1,0,1,0,0,0,0,0,,,,,,,,,,,,,,,,,,,,,,,,,False,20,21,False,exp1.png,exp2.png,trial_right_image,-1,exp2.png,2,exp1.png,exp2.png,0,2,non-reversed,incorrect,0.18414281792005982,1,invalid_win,268.3623368999979,15,,,,,,,,,,,,,,,,,,sub_046,2022-08-14_15h21.43.156,Reversal,2022.1.2,60.06814130088215,2,
1,exp3.png,exp4.png,,1,0,1,0,0,1,1,1,,,,,,,,,,,,,,,,,,,,,,,,,False,21,22,False,exp3.png,exp4.png,trial_left_image,1,exp3.png,2,exp3.png,exp4.png,1,3,reversed,correct,0.5464516145909984,1,valid_win,290.4616554999957,16,,,,,,,,,,,,,,,,,,sub_046,2022-08-14_15h21.43.156,Reversal,2022.1.2,60.06814130088215,2,
2,exp1.png,exp2.png,,1,0,1,0,0,2,2,2,,,,,,,,,,,,,,,,,,,,,,,,,False,22,23,True,exp2.png,exp1.png,trial_right_image,-1,exp1.png,2,exp1.png,exp2.png,1,1,non-reversed,correct,0.8784115329733783,1,valid_win,299.04534010001225,17,,,,,,,,,,,,,,,,,,sub_046,2022-08-14_15h21.43.156,Reversal,2022.1.2,60.06814130088215,2,
3,exp3.png,exp4.png,,1,0,1,0,0,3,3,3,,,,,,,,,,,,,,,,,,,,,,,,,False,23,24,True,exp4.png,exp3.png,trial_right_image,-1,exp3.png,2,exp3.png,exp4.png,1,3,reversed,correct,0.5200313455500589,1,valid_win,308.66122929999256,18,,,,,,,,,,,,,,,,,,sub_046,2022-08-14_15h21.43.156,Reversal,2022.1.2,60.06814130088215,2,
4,exp1.png,exp2.png,,1,0,1,0,0,4,4,4,,,,,,,,,,,,,,,,,,,,,,,,,False,24,25,False,exp1.png,exp2.png,trial_left_image,1,exp1.png,2,exp1.png,exp2.png,1,1,non-reversed,correct,0.9661491098969839,1,valid_win,319.5444145000074,19,,,,,,,,,,,,,,,,,,sub_046,2022-08-14_15h21.43.156,Reversal,2022.1.2,60.06814130088215,2,
5,exp3.png,exp4.png,,1,0,1,0,0,5,5,5,,,,,,,,,,,,,,,,,,,,,,,,,False,25,26,False,exp3.png,exp4.png,trial_left_image,1,exp3.png,2,exp3.png,exp4.png,1,3,reversed,correct,0.10255030414316613,0,invalid_lose,328.3947850000113,19,,,,,,,,,,,,,,,,,,sub_046,2022-08-14_15h21.43.156,Reversal,2022.1.2,60.06814130088215,2,
6,exp1.png,exp2.png,,1,0,1,0,0,6,6,6,,,,,,,,,,,,,,,,,,,,,,,,,False,26,27,True,exp2.png,exp1.png,trial_right_image,-1,exp1.png,2,exp1.png,exp2.png,1,1,non-reversed,correct,0.9828046569804069,1,valid_win,344.89413840000634,20,,,,,,,,,,,,,,,,,,sub_046,2022-08-14_15h21.43.156,Reversal,2022.1.2,60.06814130088215,2,
7,exp3.png,exp4.png,,1,0,1,0,0,7,7,7,,,,,,,,,,,,,,,,,,,,,,,,,False,27,28,True,exp4.png,exp3.png,trial_right_image,-1,exp3.png,2,exp3.png,exp4.png,1,3,reversed,correct,0.21218520473323688,0,invalid_lose,351.0272469999909,20,,,,,,,,,,,,,,,,,,sub_046,2022-08-14_15h21.43.156,Reversal,2022.1.2,60.06814130088215,2,
8,exp1.png,exp2.png,,1,0,1,0,0,8,8,8,,,,,,,,,,,,,,,,,,,,,,,,,False,28,29,False,exp1.png,exp2.png,trial_left_image,1,exp1.png,2,exp1.png,exp2.png,1,1,non-reversed,correct,0.2709921631424316,1,valid_win,356.526829600014,21,,,,,,,,,,,,,,,,,,sub_046,2022-08-14_15h21.43.156,Reversal,2022.1.2,60.06814130088215,2,
9,exp3.png,exp4.png,,1,0,1,0,0,9,9,9,,,,,,,,,,,,,,,,,,,,,,,,,False,29,30,True,exp4.png,exp3.png,trial_right_image,-1,exp3.png,2,exp3.png,exp4.png,1,3,reversed,correct,0.2923750696479893,1,valid_win,364.26067489999696,22,,,,,,,,,,,,,,,,,,sub_046,2022-08-14_15h21.43.156,Reversal,2022.1.2,60.06814130088215,2,
10,exp1.png,exp2.png,,1,0,1,0,0,10,10,10,,,,,,,,,,,,,,,,,,,,,,,,,False,30,31,True,exp2.png,exp1.png,trial_right_image,-1,exp1.png,2,exp1.png,exp2.png,1,1,non-reversed,correct,0.2672869493959702,1,valid_win,376.5776029000117,23,,,,,,,,,,,,,,,,,,sub_046,2022-08-14_15h21.43.156,Reversal,2022.1.2,60.06814130088215,2,
11,exp3.png,exp4.png,,1,0,1,0,0,11,11,11,,,,,,,,,,,,,,,,,,,,,,,,,False,31,32,True,exp4.png,exp3.png,trial_right_image,-1,exp3.png,2,exp3.png,exp4.png,1,3,reversed,correct,0.7824940426091351,1,valid_win,384.243472800008,24,,,,,,,,,,,,,,,,,,sub_046,2022-08-14_15h21.43.156,Reversal,2022.1.2,60.06814130088215,2,
12,exp1.png,exp2.png,,1,0,1,0,0,12,12,12,,,,,,,,,,,,,,,,,,,,,,,,,False,32,33,True,exp2.png,exp1.png,trial_left_image,1,exp2.png,2,exp1.png,exp2.png,0,2,non-reversed,incorrect,0.739868107346958,0,valid_lose,401.5932991000009,24,,,,,,,,,,,,,,,,,,sub_046,2022-08-14_15h21.43.156,Reversal,2022.1.2,60.06814130088215,2,
13,exp3.png,exp4.png,,1,0,1,0,0,13,13,13,,,,,,,,,,,,,,,,,,,,,,,,,False,33,34,False,exp3.png,exp4.png,trial_left_image,1,exp3.png,2,exp3.png,exp4.png,1,3,reversed,correct,0.5533586467816644,1,valid_win,407.16015410001273,25,,,,,,,,,,,,,,,,,,sub_046,2022-08-14_15h21.43.156,Reversal,2022.1.2,60.06814130088215,2,
14,exp1.png,exp2.png,,1,0,1,0,0,14,14,14,,,,,,,,,,,,,,,,,,,,,,,,,False,34,35,False,exp1.png,exp2.png,trial_right_image,-1,exp2.png,2,exp1.png,exp2.png,0,2,non-reversed,incorrect,0.7859565285918907,0,valid_lose,416.9098942000128,25,,,,,,,,,,,,,,,,,,sub_046,2022-08-14_15h21.43.156,Reversal,2022.1.2,60.06814130088215,2,
15,exp3.png,exp4.png,,1,0,1,0,0,15,15,15,,,,,,,,,,,,,,,,,,,,,,,,,False,35,36,False,exp3.png,exp4.png,trial_left_image,1,exp3.png,2,exp3.png,exp4.png,1,3,reversed,correct,0.29321793474901814,1,valid_win,424.7593128000153,26,,,,,,,,,,,,,,,,,,sub_046,2022-08-14_15h21.43.156,Reversal,2022.1.2,60.06814130088215,2,
16,exp1.png,exp2.png,,1,0,1,0,0,16,16,16,,,,,,,,,,,,,,,,,,,,,,,,,False,36,37,False,exp1.png,exp2.png,trial_left_image,1,exp1.png,2,exp1.png,exp2.png,1,1,non-reversed,correct,0.1757134524978763,0,invalid_lose,429.9759378999879,26,,,,,,,,,,,,,,,,,,sub_046,2022-08-14_15h21.43.156,Reversal,2022.1.2,60.06814130088215,2,
17,exp3.png,exp4.png,,1,0,1,0,0,17,17,17,,,,,,,,,,,,,,,,,,,,,,,,,False,37,38,True,exp4.png,exp3.png,trial_right_image,-1,exp3.png,2,exp3.png,exp4.png,1,3,reversed,correct,0.3143894160855907,1,valid_win,436.1762252000044,27,,,,,,,,,,,,,,,,,,sub_046,2022-08-14_15h21.43.156,Reversal,2022.1.2,60.06814130088215,2,
18,exp1.png,exp2.png,,1,0,1,0,0,18,18,18,,,,,,,,,,,,,,,,,,,,,,,,,False,38,39,False,exp1.png,exp2.png,trial_right_image,-1,exp2.png,2,exp1.png,exp2.png,0,2,non-reversed,incorrect,0.7752965338593193,0,valid_lose,445.9595732000016,27,,,,,,,,,,,,,,,,,,sub_046,2022-08-14_15h21.43.156,Reversal,2022.1.2,60.06814130088215,2,
19,exp3.png,exp4.png,,1,0,1,0,0,19,19,19,,,,,,,,,,,,,,,,,,,,,,,,,False,39,40,True,exp4.png,exp3.png,trial_right_image,-1,exp3.png,2,exp3.png,exp4.png,1,3,reversed,correct,0.915766206274929,1,valid_win,453.54195079999045,28,,,,,,,,,,,,,,,,,,sub_046,2022-08-14_15h21.43.156,Reversal,2022.1.2,60.06814130088215,2,
20,exp1.png,exp2.png,,1,0,1,0,0,20,20,20,,,,,,,,,,,,,,,,,,,,,,,,,True,,,,,,,,,,,,,,,,,,,,,,,,,,,,,,,,,,,,,,sub_046,2022-08-14_15h21.43.156,Reversal,2022.1.2,60.06814130088215,2,
,,,exp1.png,1,0,1,0,,,,,0,0,0,0,0,0,0,0,,,,,,,,,,,,,,,,,,,,,,,,,,,,,,,,,,,,,,100.0,100.0,9.499182499974268,"[(100.0, 9.499182499974268)]",622.8025590000034,None,,,,,,,,,,,,sub_046,2022-08-14_15h21.43.156,Reversal,2022.1.2,60.06814130088215,2,
,,,exp2.png,1,0,1,0,,,,,0,0,0,0,0,1,1,1,,,,,,,,,,,,,,,,,,,,,,,,,,,,,,,,,,,,,,,100.0,4.734361000009812,"[(100.0, 4.734361000009812)]",633.82960680002,None,,,100.0,,,,,,,,,sub_046,2022-08-14_15h21.43.156,Reversal,2022.1.2,60.06814130088215,2,
,,,exp3.png,1,0,1,0,,,,,0,0,0,0,0,2,2,2,,,,,,,,,,,,,,,,,,,,,,,,,,,,,,,,,,,,,,,100.0,7.035691600001883,"[(100.0, 7.035691600001883)]",641.6477954000002,None,100.0,,,,,,,,,,,sub_046,2022-08-14_15h21.43.156,Reversal,2022.1.2,60.06814130088215,2,
,,,exp4.png,1,0,1,0,,,,,0,0,0,0,0,3,3,3,,,,,,,,,,,,,,,,,,,,,,,,,,,,,,,,,,,,,,,100.0,7.267820499982918,"[(100.0, 7.267820499982918)]",649.7299843000073,None,,100.0,,,,,,,,,,sub_046,2022-08-14_15h21.43.156,Reversal,2022.1.2,60.06814130088215,2,
0,exp1.png,exp2.png,,2,0,2,0,0,0,0,0,,,,,,,,,,,,,,,,,,,,,,,,,False,40,41,True,exp2.png,exp1.png,trial_right_image,-1,exp1.png,2,exp1.png,exp2.png,1,1,non-reversed,correct,0.5586814879857724,1,valid_win,513.3412939000118,29,,,,,,,,,,,,,,,,,,sub_046,2022-08-14_15h21.43.156,Reversal,2022.1.2,60.06814130088215,2,
1,exp3.png,exp4.png,,2,0,2,0,0,1,1,1,,,,,,,,,,,,,,,,,,,,,,,,,False,41,42,False,exp3.png,exp4.png,trial_left_image,1,exp3.png,2,exp3.png,exp4.png,1,3,reversed,correct,0.26701420574769086,1,valid_win,519.2078740000143,30,,,,,,,,,,,,,,,,,,sub_046,2022-08-14_15h21.43.156,Reversal,2022.1.2,60.06814130088215,2,
2,exp1.png,exp2.png,,2,0,2,0,0,2,2,2,,,,,,,,,,,,,,,,,,,,,,,,,False,42,43,True,exp2.png,exp1.png,trial_right_image,-1,exp1.png,2,exp1.png,exp2.png,1,1,non-reversed,correct,0.7634858012285864,1,valid_win,525.6577306000108,31,,,,,,,,,,,,,,,,,,sub_046,2022-08-14_15h21.43.156,Reversal,2022.1.2,60.06814130088215,2,
3,exp3.png,exp4.png,,2,0,2,0,0,3,3,3,,,,,,,,,,,,,,,,,,,,,,,,,False,43,44,True,exp4.png,exp3.png,trial_left_image,1,exp4.png,2,exp3.png,exp4.png,0,4,reversed,incorrect,0.3225256752664031,0,valid_lose,534.8742905000108,31,,,,,,,,,,,,,,,,,,sub_046,2022-08-14_15h21.43.156,Reversal,2022.1.2,60.06814130088215,2,
4,exp1.png,exp2.png,,2,0,2,0,0,4,4,4,,,,,,,,,,,,,,,,,,,,,,,,,False,44,45,True,exp2.png,exp1.png,trial_left_image,1,exp2.png,2,exp1.png,exp2.png,0,2,non-reversed,incorrect,0.452229107155259,0,valid_lose,542.9240434000094,31,,,,,,,,,,,,,,,,,,sub_046,2022-08-14_15h21.43.156,Reversal,2022.1.2,60.06814130088215,2,
5,exp3.png,exp4.png,,2,0,2,0,0,5,5,5,,,,,,,,,,,,,,,,,,,,,,,,,False,45,46,False,exp3.png,exp4.png,trial_left_image,1,exp3.png,2,exp3.png,exp4.png,1,3,reversed,correct,0.6349962531960793,1,valid_win,548.1409368000168,32,,,,,,,,,,,,,,,,,,sub_046,2022-08-14_15h21.43.156,Reversal,2022.1.2,60.06814130088215,2,
6,exp1.png,exp2.png,,2,0,2,0,0,6,6,6,,,,,,,,,,,,,,,,,,,,,,,,,False,46,47,True,exp2.png,exp1.png,trial_right_image,-1,exp1.png,2,exp1.png,exp2.png,1,1,non-reversed,correct,0.36491011232987214,1,valid_win,560.2737759000156,33,,,,,,,,,,,,,,,,,,sub_046,2022-08-14_15h21.43.156,Reversal,2022.1.2,60.06814130088215,2,
7,exp3.png,exp4.png,,2,0,2,0,0,7,7,7,,,,,,,,,,,,,,,,,,,,,,,,,False,47,48,False,exp3.png,exp4.png,trial_left_image,1,exp3.png,2,exp3.png,exp4.png,1,3,reversed,correct,0.8995960056523923,1,valid_win,567.8238993000123,34,,,,,,,,,,,,,,,,,,sub_046,2022-08-14_15h21.43.156,Reversal,2022.1.2,60.06814130088215,2,
8,exp1.png,exp2.png,,2,0,2,0,0,8,8,8,,,,,,,,,,,,,,,,,,,,,,,,,False,48,49,True,exp2.png,exp1.png,trial_right_image,-1,exp1.png,2,exp1.png,exp2.png,1,1,non-reversed,correct,0.29005363809717666,1,valid_win,578.9104301999905,35,,,,,,,,,,,,,,,,,,sub_046,2022-08-14_15h21.43.156,Reversal,2022.1.2,60.06814130088215,2,
9,exp3.png,exp4.png,,2,0,2,0,0,9,9,9,,,,,,,,,,,,,,,,,,,,,,,,,False,49,50,False,exp3.png,exp4.png,trial_left_image,1,exp3.png,2,exp3.png,exp4.png,1,3,reversed,correct,0.3323557530091188,1,valid_win,585.6563753999944,36,,,,,,,,,,,,,,,,,,sub_046,2022-08-14_15h21.43.156,Reversal,2022.1.2,60.06814130088215,2,
10,exp1.png,exp2.png,,2,0,2,0,0,10,10,10,,,,,,,,,,,,,,,,,,,,,,,,,False,50,51,False,exp1.png,exp2.png,trial_right_image,-1,exp2.png,2,exp1.png,exp2.png,0,2,non-reversed,incorrect,0.11233334296687048,1,invalid_win,590.8727927000145,37,,,,,,,,,,,,,,,,,,sub_046,2022-08-14_15h21.43.156,Reversal,2022.1.2,60.06814130088215,2,
11,exp3.png,exp4.png,,2,0,2,0,0,11,11,11,,,,,,,,,,,,,,,,,,,,,,,,,False,51,52,True,exp4.png,exp3.png,trial_right_image,-1,exp3.png,2,exp3.png,exp4.png,1,3,reversed,correct,0.6979096924305338,1,valid_win,598.9061064000125,38,,,,,,,,,,,,,,,,,,sub_046,2022-08-14_15h21.43.156,Reversal,2022.1.2,60.06814130088215,2,
12,exp1.png,exp2.png,,2,0,2,0,0,12,12,12,,,,,,,,,,,,,,,,,,,,,,,,,False,52,53,False,exp1.png,exp2.png,trial_right_image,-1,exp2.png,2,exp1.png,exp2.png,0,2,non-reversed,incorrect,0.2395744469439165,1,invalid_win,608.1226942999929,39,,,,,,,,,,,,,,,,,,sub_046,2022-08-14_15h21.43.156,Reversal,2022.1.2,60.06814130088215,2,
13,exp3.png,exp4.png,,2,0,2,0,0,13,13,13,,,,,,,,,,,,,,,,,,,,,,,,,False,53,54,True,exp4.png,exp3.png,trial_right_image,-1,exp3.png,2,exp3.png,exp4.png,1,3,reversed,correct,0.5845496865921093,1,valid_win,614.1060346000013,40,,,,,,,,,,,,,,,,,,sub_046,2022-08-14_15h21.43.156,Reversal,2022.1.2,60.06814130088215,2,
14,exp1.png,exp2.png,,2,0,2,0,0,14,14,14,,,,,,,,,,,,,,,,,,,,,,,,,False,54,55,False,exp1.png,exp2.png,trial_left_image,1,exp1.png,2,exp1.png,exp2.png,1,1,non-reversed,correct,0.09101893192005672,0,invalid_lose,620.3724242000026,40,,,,,,,,,,,,,,,,,,sub_046,2022-08-14_15h21.43.156,Reversal,2022.1.2,60.06814130088215,2,
15,exp3.png,exp4.png,,2,0,2,0,0,15,15,15,,,,,,,,,,,,,,,,,,,,,,,,,False,55,56,True,exp4.png,exp3.png,trial_right_image,-1,exp3.png,2,exp3.png,exp4.png,1,3,reversed,correct,0.33986018721152345,1,valid_win,625.539208400005,41,,,,,,,,,,,,,,,,,,sub_046,2022-08-14_15h21.43.156,Reversal,2022.1.2,60.06814130088215,2,
16,exp1.png,exp2.png,,2,0,2,0,0,16,16,16,,,,,,,,,,,,,,,,,,,,,,,,,False,56,57,False,exp1.png,exp2.png,trial_left_image,1,exp1.png,2,exp1.png,exp2.png,1,1,non-reversed,correct,0.08125938561214208,0,invalid_lose,633.0058534000127,41,,,,,,,,,,,,,,,,,,sub_046,2022-08-14_15h21.43.156,Reversal,2022.1.2,60.06814130088215,2,
17,exp3.png,exp4.png,,2,0,2,0,0,17,17,17,,,,,,,,,,,,,,,,,,,,,,,,,False,57,58,False,exp3.png,exp4.png,trial_left_image,1,exp3.png,2,exp3.png,exp4.png,1,3,reversed,correct,0.7442131975280094,1,valid_win,641.0893885999976,42,,,,,,,,,,,,,,,,,,sub_046,2022-08-14_15h21.43.156,Reversal,2022.1.2,60.06814130088215,2,
18,exp1.png,exp2.png,,2,0,2,0,0,18,18,18,,,,,,,,,,,,,,,,,,,,,,,,,False,58,59,False,exp1.png,exp2.png,trial_right_image,-1,exp2.png,2,exp1.png,exp2.png,0,2,non-reversed,incorrect,0.7281990814908944,0,valid_lose,648.5220220999909,42,,,,,,,,,,,,,,,,,,sub_046,2022-08-14_15h21.43.156,Reversal,2022.1.2,60.06814130088215,2,
19,exp3.png,exp4.png,,2,0,2,0,0,19,19,19,,,,,,,,,,,,,,,,,,,,,,,,,False,59,60,True,exp4.png,exp3.png,trial_right_image,-1,exp3.png,2,exp3.png,exp4.png,1,3,reversed,correct,0.9020099718396992,1,valid_win,653.3889515000046,43,,,,,,,,,,,,,,,,,,sub_046,2022-08-14_15h21.43.156,Reversal,2022.1.2,60.06814130088215,2,
20,exp1.png,exp2.png,,2,0,2,0,0,20,20,20,,,,,,,,,,,,,,,,,,,,,,,,,True,,,,,,,,,,,,,,,,,,,,,,,,,,,,,,,,,,,,,,sub_046,2022-08-14_15h21.43.156,Reversal,2022.1.2,60.06814130088215,2,
,,,exp1.png,2,0,2,0,,,,,0,0,0,0,0,0,0,0,,,,,,,,,,,,,,,,,,,,,,,,,,,,,,,,,,,,,,100.0,100.0,6.717757599981269,"[(100.0, 6.717757599981269)]",822.6599664000096,None,,,,,,,,,,,,sub_046,2022-08-14_15h21.43.156,Reversal,2022.1.2,60.06814130088215,2,
,,,exp2.png,2,0,2,0,,,,,0,0,0,0,0,1,1,1,,,,,,,,,,,,,,,,,,,,,,,,,,,,,,,,,,,,,,,100.0,2.667510700004641,"[(100.0, 2.667510700004641)]",830.5558354000095,None,,,100.0,,,,,,,,,sub_046,2022-08-14_15h21.43.156,Reversal,2022.1.2,60.06814130088215,2,
,,,exp3.png,2,0,2,0,,,,,0,0,0,0,0,2,2,2,,,,,,,,,,,,,,,,,,,,,,,,,,,,,,,,,,,,,,,100.0,3.2855892999796197,"[(100.0, 3.2855892999796197)]",834.2706018000026,None,100.0,,,,,,,,,,,sub_046,2022-08-14_15h21.43.156,Reversal,2022.1.2,60.06814130088215,2,
,,,exp4.png,2,0,2,0,,,,,0,0,0,0,0,3,3,3,,,,,,,,,,,,,,,,,,,,,,,,,,,,,,,,,,,,,,,50.0,None,[],838.8399308000226,None,,,,,,,,,,,,sub_046,2022-08-14_15h21.43.156,Reversal,2022.1.2,60.06814130088215,2,
0,exp1.png,exp2.png,,3,0,3,0,0,0,0,0,,,,,,,,,,,,,,,,,,,,,,,,,False,60,61,False,exp1.png,exp2.png,trial_right_image,-1,exp2.png,2,exp1.png,exp2.png,0,2,non-reversed,incorrect,0.8016801667694925,0,valid_lose,679.9379337000137,43,,,,,,,,,,,,,,,,,,sub_046,2022-08-14_15h21.43.156,Reversal,2022.1.2,60.06814130088215,2,
1,exp3.png,exp4.png,,3,0,3,0,0,1,1,1,,,,,,,,,,,,,,,,,,,,,,,,,False,61,62,True,exp4.png,exp3.png,trial_right_image,-1,exp3.png,2,exp3.png,exp4.png,1,3,reversed,correct,0.46195500959821745,1,valid_win,686.0548546999926,44,,,,,,,,,,,,,,,,,,sub_046,2022-08-14_15h21.43.156,Reversal,2022.1.2,60.06814130088215,2,
2,exp1.png,exp2.png,,3,0,3,0,0,2,2,2,,,,,,,,,,,,,,,,,,,,,,,,,False,62,63,False,exp1.png,exp2.png,trial_left_image,1,exp1.png,2,exp1.png,exp2.png,1,1,non-reversed,correct,0.09850014769764925,0,invalid_lose,693.0549740999995,44,,,,,,,,,,,,,,,,,,sub_046,2022-08-14_15h21.43.156,Reversal,2022.1.2,60.06814130088215,2,
3,exp3.png,exp4.png,,3,0,3,0,0,3,3,3,,,,,,,,,,,,,,,,,,,,,,,,,False,63,64,True,exp4.png,exp3.png,trial_left_image,1,exp4.png,2,exp3.png,exp4.png,0,4,reversed,incorrect,0.5884070847634204,0,valid_lose,698.521358900005,44,,,,,,,,,,,,,,,,,,sub_046,2022-08-14_15h21.43.156,Reversal,2022.1.2,60.06814130088215,2,
4,exp1.png,exp2.png,,3,0,3,0,0,4,4,4,,,,,,,,,,,,,,,,,,,,,,,,,False,64,65,False,exp1.png,exp2.png,trial_left_image,1,exp1.png,2,exp1.png,exp2.png,1,1,non-reversed,correct,0.6517820088948911,1,valid_win,703.7876225000073,45,,,,,,,,,,,,,,,,,,sub_046,2022-08-14_15h21.43.156,Reversal,2022.1.2,60.06814130088215,2,
5,exp3.png,exp4.png,,3,0,3,0,0,5,5,5,,,,,,,,,,,,,,,,,,,,,,,,,False,65,66,False,exp3.png,exp4.png,trial_right_image,-1,exp4.png,2,exp3.png,exp4.png,0,4,reversed,incorrect,0.6911157314639076,0,valid_lose,709.1212696000002,45,,,,,,,,,,,,,,,,,,sub_046,2022-08-14_15h21.43.156,Reversal,2022.1.2,60.06814130088215,2,
6,exp1.png,exp2.png,,3,0,3,0,0,6,6,6,,,,,,,,,,,,,,,,,,,,,,,,,False,66,67,False,exp1.png,exp2.png,trial_right_image,-1,exp2.png,2,exp1.png,exp2.png,0,2,non-reversed,incorrect,0.6395614117873645,0,valid_lose,714.7872832000139,45,,,,,,,,,,,,,,,,,,sub_046,2022-08-14_15h21.43.156,Reversal,2022.1.2,60.06814130088215,2,
7,exp3.png,exp4.png,,3,0,3,0,0,7,7,7,,,,,,,,,,,,,,,,,,,,,,,,,False,67,68,False,exp3.png,exp4.png,trial_right_image,-1,exp4.png,2,exp3.png,exp4.png,0,4,reversed,incorrect,0.398759716661084,0,valid_lose,719.9876102000126,45,,,,,,,,,,,,,,,,,,sub_046,2022-08-14_15h21.43.156,Reversal,2022.1.2,60.06814130088215,2,
8,exp1.png,exp2.png,,3,0,3,0,0,8,8,8,,,,,,,,,,,,,,,,,,,,,,,,,False,68,69,True,exp2.png,exp1.png,trial_left_image,1,exp2.png,2,exp1.png,exp2.png,0,2,non-reversed,incorrect,0.7848308183800082,0,valid_lose,724.5037841000012,45,,,,,,,,,,,,,,,,,,sub_046,2022-08-14_15h21.43.156,Reversal,2022.1.2,60.06814130088215,2,
9,exp3.png,exp4.png,,3,0,3,0,0,9,9,9,,,,,,,,,,,,,,,,,,,,,,,,,False,69,70,True,exp4.png,exp3.png,trial_left_image,1,exp4.png,2,exp3.png,exp4.png,0,4,reversed,incorrect,0.3905516287312485,0,valid_lose,729.4873691000103,45,,,,,,,,,,,,,,,,,,sub_046,2022-08-14_15h21.43.156,Reversal,2022.1.2,60.06814130088215,2,
10,exp1.png,exp2.png,,3,0,3,0,0,10,10,10,,,,,,,,,,,,,,,,,,,,,,,,,False,70,71,True,exp2.png,exp1.png,trial_right_image,-1,exp1.png,2,exp1.png,exp2.png,1,1,non-reversed,correct,0.14013448577618937,0,invalid_lose,734.1045012999966,45,,,,,,,,,,,,,,,,,,sub_046,2022-08-14_15h21.43.156,Reversal,2022.1.2,60.06814130088215,2,
11,exp3.png,exp4.png,,3,0,3,0,0,11,11,11,,,,,,,,,,,,,,,,,,,,,,,,,False,71,72,False,exp3.png,exp4.png,trial_right_image,-1,exp4.png,2,exp3.png,exp4.png,0,4,reversed,incorrect,0.9838279425767756,0,valid_lose,738.5537925999961,45,,,,,,,,,,,,,,,,,,sub_046,2022-08-14_15h21.43.156,Reversal,2022.1.2,60.06814130088215,2,
12,exp1.png,exp2.png,,3,0,3,0,0,12,12,12,,,,,,,,,,,,,,,,,,,,,,,,,False,72,73,True,exp2.png,exp1.png,trial_right_image,-1,exp1.png,2,exp1.png,exp2.png,1,1,non-reversed,correct,0.8506414878491783,1,valid_win,743.3204905999883,46,,,,,,,,,,,,,,,,,,sub_046,2022-08-14_15h21.43.156,Reversal,2022.1.2,60.06814130088215,2,
13,exp3.png,exp4.png,,3,0,3,0,0,13,13,13,,,,,,,,,,,,,,,,,,,,,,,,,False,73,74,False,exp3.png,exp4.png,trial_right_image,-1,exp4.png,2,exp3.png,exp4.png,0,4,reversed,incorrect,0.9214746718734294,0,valid_lose,748.4708168999932,46,,,,,,,,,,,,,,,,,,sub_046,2022-08-14_15h21.43.156,Reversal,2022.1.2,60.06814130088215,2,
14,exp1.png,exp2.png,,3,0,3,0,0,14,14,14,,,,,,,,,,,,,,,,,,,,,,,,,False,74,75,False,exp1.png,exp2.png,trial_right_image,-1,exp2.png,2,exp1.png,exp2.png,0,2,non-reversed,incorrect,0.2422220042040094,1,invalid_win,753.9200071000087,47,,,,,,,,,,,,,,,,,,sub_046,2022-08-14_15h21.43.156,Reversal,2022.1.2,60.06814130088215,2,
15,exp3.png,exp4.png,,3,0,3,0,0,15,15,15,,,,,,,,,,,,,,,,,,,,,,,,,False,75,76,True,exp4.png,exp3.png,trial_right_image,-1,exp3.png,2,exp3.png,exp4.png,1,3,reversed,correct,0.340436778098102,1,valid_win,759.7201252999948,48,,,,,,,,,,,,,,,,,,sub_046,2022-08-14_15h21.43.156,Reversal,2022.1.2,60.06814130088215,2,
16,exp1.png,exp2.png,,3,0,3,0,0,16,16,16,,,,,,,,,,,,,,,,,,,,,,,,,False,76,77,True,exp2.png,exp1.png,trial_right_image,-1,exp1.png,2,exp1.png,exp2.png,1,1,non-reversed,correct,0.03451850559710734,0,invalid_lose,765.6366942999884,48,,,,,,,,,,,,,,,,,,sub_046,2022-08-14_15h21.43.156,Reversal,2022.1.2,60.06814130088215,2,
17,exp3.png,exp4.png,,3,0,3,0,0,17,17,17,,,,,,,,,,,,,,,,,,,,,,,,,False,77,78,False,exp3.png,exp4.png,trial_left_image,1,exp3.png,2,exp3.png,exp4.png,1,3,reversed,correct,0.03456337953620847,0,invalid_lose,771.3699688999914,48,,,,,,,,,,,,,,,,,,sub_046,2022-08-14_15h21.43.156,Reversal,2022.1.2,60.06814130088215,2,
18,exp1.png,exp2.png,,3,0,3,0,0,18,18,18,,,,,,,,,,,,,,,,,,,,,,,,,False,78,79,True,exp2.png,exp1.png,trial_left_image,1,exp2.png,2,exp1.png,exp2.png,0,2,non-reversed,incorrect,0.8096330275108337,0,valid_lose,778.4865442000155,48,,,,,,,,,,,,,,,,,,sub_046,2022-08-14_15h21.43.156,Reversal,2022.1.2,60.06814130088215,2,
19,exp3.png,exp4.png,,3,0,3,0,0,19,19,19,,,,,,,,,,,,,,,,,,,,,,,,,False,79,80,True,exp4.png,exp3.png,trial_right_image,-1,exp3.png,2,exp3.png,exp4.png,1,3,reversed,correct,0.2247335730208314,0,invalid_lose,783.6367935000162,48,,,,,,,,,,,,,,,,,,sub_046,2022-08-14_15h21.43.156,Reversal,2022.1.2,60.06814130088215,2,
20,exp1.png,exp2.png,,3,0,3,0,0,20,20,20,,,,,,,,,,,,,,,,,,,,,,,,,True,,,,,,,,,,,,,,,,,,,,,,,,,,,,,,,,,,,,,,sub_046,2022-08-14_15h21.43.156,Reversal,2022.1.2,60.06814130088215,2,
,,,exp1.png,3,0,3,0,,,,,0,0,0,0,0,0,0,0,,,,,,,,,,,,,,,,,,,,,,,,,,,,,,,,,,,,,,75.0,75.0,4.456541000021389,"[(5.0, 2.1236829000117723), (75.0, 4.456541000021389)]",952.8995020000148,None,,,,,,,,,,,,sub_046,2022-08-14_15h21.43.156,Reversal,2022.1.2,60.06814130088215,2,
,,,exp2.png,3,0,3,0,,,,,0,0,0,0,0,1,1,1,,,,,,,,,,,,,,,,,,,,,,,,,,,,,,,,,,,,,,,50.0,None,[],959.6365087000013,None,,,,,,,,,,,,sub_046,2022-08-14_15h21.43.156,Reversal,2022.1.2,60.06814130088215,2,
,,,exp3.png,3,0,3,0,,,,,0,0,0,0,0,2,2,2,,,,,,,,,,,,,,,,,,,,,,,,,,,,,,,,,,,,,,,100.0,3.318851399992127,"[(100.0, 3.318851399992127)]",961.5512547000253,None,100.0,,,,,,,,,,,sub_046,2022-08-14_15h21.43.156,Reversal,2022.1.2,60.06814130088215,2,
,,,exp4.png,3,0,3,0,,,,,0,0,0,0,0,3,3,3,,,,,,,,,,,,,,,,,,,,,,,,,,,,,,,,,,,,,,,100.0,1.7348123000119813,"[(100.0, 1.7348123000119813)]",966.086329600017,None,,100.0,,,,,,,,,,sub_046,2022-08-14_15h21.43.156,Reversal,2022.1.2,60.06814130088215,2,
0,exp1.png,exp2.png,,,,,,,,,,,,,,,,,,0,0,0,0,0,0,0,0,,,,,,,,,False,0,81,True,exp2.png,exp1.png,trial_right_image,-1,exp1.png,2,exp1.png,exp2.png,1,1,non-reversed,correct,0.19656879563542673,0,invalid_lose,805.369314200012,48,,,,,,,,,,802.0906587000063,,,,,,,,sub_046,2022-08-14_15h21.43.156,Reversal,2022.1.2,60.06814130088215,2,
1,exp3.png,exp4.png,,,,,,,,,,,,,,,,,,0,0,0,0,0,1,1,1,,,,,,,,,False,1,82,True,exp4.png,exp3.png,trial_right_image,-1,exp3.png,2,exp4.png,exp3.png,1,3,reversed,incorrect,0.556805528176368,0,valid_lose,810.3692600000068,48,,,,,,,,,,,,,,,,,,sub_046,2022-08-14_15h21.43.156,Reversal,2022.1.2,60.06814130088215,2,
2,exp1.png,exp2.png,,,,,,,,,,,,,,,,,,0,0,0,0,0,2,2,2,,,,,,,,,False,2,83,False,exp1.png,exp2.png,trial_right_image,-1,exp2.png,2,exp1.png,exp2.png,0,2,non-reversed,incorrect,0.18660329022388056,1,invalid_win,814.6354576000012,49,,,,,,,,,,,,,,,,,,sub_046,2022-08-14_15h21.43.156,Reversal,2022.1.2,60.06814130088215,2,
3,exp3.png,exp4.png,,,,,,,,,,,,,,,,,,0,0,0,0,0,3,3,3,,,,,,,,,False,3,84,True,exp4.png,exp3.png,trial_right_image,-1,exp3.png,2,exp4.png,exp3.png,1,3,reversed,incorrect,0.8822583382673966,0,valid_lose,819.3693905000109,49,,,,,,,,,,,,,,,,,,sub_046,2022-08-14_15h21.43.156,Reversal,2022.1.2,60.06814130088215,2,
4,exp1.png,exp2.png,,,,,,,,,,,,,,,,,,0,0,0,0,0,4,4,4,,,,,,,,,False,4,85,False,exp1.png,exp2.png,trial_right_image,-1,exp2.png,2,exp1.png,exp2.png,0,2,non-reversed,incorrect,0.24524195583798392,1,invalid_win,824.0023401000071,50,,,,,,,,,,,,,,,,,,sub_046,2022-08-14_15h21.43.156,Reversal,2022.1.2,60.06814130088215,2,
5,exp3.png,exp4.png,,,,,,,,,,,,,,,,,,0,0,0,0,0,5,5,5,,,,,,,,,False,5,86,True,exp4.png,exp3.png,trial_right_image,-1,exp3.png,2,exp4.png,exp3.png,1,3,reversed,incorrect,0.9775178419933594,0,valid_lose,829.6354382999998,50,,,,,,,,,,,,,,,,,,sub_046,2022-08-14_15h21.43.156,Reversal,2022.1.2,60.06814130088215,2,
6,exp1.png,exp2.png,,,,,,,,,,,,,,,,,,0,0,0,0,0,6,6,6,,,,,,,,,False,6,87,True,exp2.png,exp1.png,trial_left_image,1,exp2.png,2,exp1.png,exp2.png,0,2,non-reversed,incorrect,0.2842184666445765,0,valid_lose,834.2854336000164,50,,,,,,,,,,,,,,,,,,sub_046,2022-08-14_15h21.43.156,Reversal,2022.1.2,60.06814130088215,2,
7,exp3.png,exp4.png,,,,,,,,,,,,,,,,,,0,0,0,0,0,7,7,7,,,,,,,,,False,7,88,True,exp4.png,exp3.png,trial_right_image,-1,exp3.png,2,exp4.png,exp3.png,1,3,reversed,incorrect,0.8426489535251453,0,valid_lose,839.2688301999879,50,,,,,,,,,,,,,,,,,,sub_046,2022-08-14_15h21.43.156,Reversal,2022.1.2,60.06814130088215,2,
8,exp1.png,exp2.png,,,,,,,,,,,,,,,,,,0,0,0,0,0,8,8,8,,,,,,,,,False,8,89,False,exp1.png,exp2.png,trial_right_image,-1,exp2.png,2,exp1.png,exp2.png,0,2,non-reversed,incorrect,0.22391999192907153,1,invalid_win,843.8184207000013,51,,,,,,,,,,,,,,,,,,sub_046,2022-08-14_15h21.43.156,Reversal,2022.1.2,60.06814130088215,2,
9,exp3.png,exp4.png,,,,,,,,,,,,,,,,,,0,0,0,0,0,9,9,9,,,,,,,,,False,9,90,True,exp4.png,exp3.png,trial_right_image,-1,exp3.png,2,exp4.png,exp3.png,1,3,reversed,incorrect,0.8278345909039954,0,valid_lose,849.2186925999995,51,,,,,,,,,,,,,,,,,,sub_046,2022-08-14_15h21.43.156,Reversal,2022.1.2,60.06814130088215,2,
10,exp1.png,exp2.png,,,,,,,,,,,,,,,,,,0,0,0,0,0,10,10,10,,,,,,,,,False,10,91,False,exp1.png,exp2.png,trial_left_image,1,exp1.png,2,exp1.png,exp2.png,1,1,non-reversed,correct,0.21768434158314387,0,invalid_lose,853.5682047000155,51,,,,,,,,,,,,,,,,,,sub_046,2022-08-14_15h21.43.156,Reversal,2022.1.2,60.06814130088215,2,
11,exp3.png,exp4.png,,,,,,,,,,,,,,,,,,0,0,0,0,0,11,11,11,,,,,,,,,False,11,92,False,exp3.png,exp4.png,trial_left_image,1,exp3.png,2,exp4.png,exp3.png,1,3,reversed,incorrect,0.72155729467395,0,valid_lose,857.7521465999889,51,,,,,,,,,,,,,,,,,,sub_046,2022-08-14_15h21.43.156,Reversal,2022.1.2,60.06814130088215,2,
12,exp1.png,exp2.png,,,,,,,,,,,,,,,,,,0,0,0,0,0,12,12,12,,,,,,,,,False,12,93,False,exp1.png,exp2.png,trial_right_image,-1,exp2.png,2,exp1.png,exp2.png,0,2,non-reversed,incorrect,0.4310639932437337,0,valid_lose,862.5181949000107,51,,,,,,,,,,,,,,,,,,sub_046,2022-08-14_15h21.43.156,Reversal,2022.1.2,60.06814130088215,2,
13,exp3.png,exp4.png,,,,,,,,,,,,,,,,,,0,0,0,0,0,13,13,13,,,,,,,,,False,13,94,True,exp4.png,exp3.png,trial_right_image,-1,exp3.png,2,exp4.png,exp3.png,1,3,reversed,incorrect,0.6308032103615016,0,valid_lose,867.2683276000025,51,,,,,,,,,,,,,,,,,,sub_046,2022-08-14_15h21.43.156,Reversal,2022.1.2,60.06814130088215,2,
14,exp1.png,exp2.png,,,,,,,,,,,,,,,,,,0,0,0,0,0,14,14,14,,,,,,,,,False,14,95,False,exp1.png,exp2.png,trial_right_image,-1,exp2.png,2,exp1.png,exp2.png,0,2,non-reversed,incorrect,0.05105493579759601,1,invalid_win,871.3181481999927,52,,,,,,,,,,,,,,,,,,sub_046,2022-08-14_15h21.43.156,Reversal,2022.1.2,60.06814130088215,2,
15,exp3.png,exp4.png,,,,,,,,,,,,,,,,,,0,0,0,0,0,15,15,15,,,,,,,,,False,15,96,False,exp3.png,exp4.png,trial_right_image,-1,exp4.png,2,exp4.png,exp3.png,0,4,reversed,correct,0.23335147610764317,0,invalid_lose,875.634813200013,52,,,,,,,,,,,,,,,,,,sub_046,2022-08-14_15h21.43.156,Reversal,2022.1.2,60.06814130088215,2,
16,exp1.png,exp2.png,,,,,,,,,,,,,,,,,,0,0,0,0,0,16,16,16,,,,,,,,,False,16,97,False,exp1.png,exp2.png,trial_right_image,-1,exp2.png,2,exp1.png,exp2.png,0,2,non-reversed,incorrect,0.6399720097280598,0,valid_lose,880.4512844000128,52,,,,,,,,,,,,,,,,,,sub_046,2022-08-14_15h21.43.156,Reversal,2022.1.2,60.06814130088215,2,
17,exp3.png,exp4.png,,,,,,,,,,,,,,,,,,0,0,0,0,0,17,17,17,,,,,,,,,False,17,98,True,exp4.png,exp3.png,trial_right_image,-1,exp3.png,2,exp4.png,exp3.png,1,3,reversed,incorrect,0.12043032381500784,1,invalid_win,885.367899600009,53,,,,,,,,,,,,,,,,,,sub_046,2022-08-14_15h21.43.156,Reversal,2022.1.2,60.06814130088215,2,
18,exp1.png,exp2.png,,,,,,,,,,,,,,,,,,0,0,0,0,0,18,18,18,,,,,,,,,False,18,99,True,exp2.png,exp1.png,trial_left_image,1,exp2.png,2,exp1.png,exp2.png,0,2,non-reversed,incorrect,0.7365612541060086,0,valid_lose,891.3511511000106,53,,,,,,,,,,,,,,,,,,sub_046,2022-08-14_15h21.43.156,Reversal,2022.1.2,60.06814130088215,2,
19,exp3.png,exp4.png,,,,,,,,,,,,,,,,,,0,0,0,0,0,19,19,19,,,,,,,,,False,19,100,False,exp3.png,exp4.png,trial_right_image,-1,exp4.png,2,exp4.png,exp3.png,0,4,reversed,correct,0.7879256746272068,1,valid_win,896.6677902000083,54,,,,,,,,,,,,,,,,,,sub_046,2022-08-14_15h21.43.156,Reversal,2022.1.2,60.06814130088215,2,
20,exp1.png,exp2.png,,,,,,,,,,,,,,,,,,0,0,0,0,0,20,20,20,,,,,,,,,True,,,,,,,,,,,,,,,,,,,,,,,,,,,,,,,,,,,,,,sub_046,2022-08-14_15h21.43.156,Reversal,2022.1.2,60.06814130088215,2,
,,,exp1.png,,,,,,,,,,,,,,,,,0,0,0,0,,,,,0,0,0,0,0,0,0,0,,,,,,,,,,,,,,,,,,,,,,100.0,100.0,2.042311500001233,"[(100.0, 2.042311500001233)]",1065.9292390000192,None,,,,,,,,,,,,sub_046,2022-08-14_15h21.43.156,Reversal,2022.1.2,60.06814130088215,2,
,,,exp2.png,,,,,,,,,,,,,,,,,0,0,0,0,,,,,0,0,0,0,0,1,1,1,,,,,,,,,,,,,,,,,,,,,,,50.0,None,[],1068.9135526000173,None,,,,,,,,,,,,sub_046,2022-08-14_15h21.43.156,Reversal,2022.1.2,60.06814130088215,2,
,,,exp3.png,,,,,,,,,,,,,,,,,0,0,0,0,,,,,0,0,0,0,0,2,2,2,,,,,,,,,,,,,,,,,,,,,,,100.0,2.3516449999879114,"[(100.0, 2.3516449999879114)]",1069.3661810000194,None,100.0,,,,,,,,,,,sub_046,2022-08-14_15h21.43.156,Reversal,2022.1.2,60.06814130088215,2,
,,,exp4.png,,,,,,,,,,,,,,,,,0,0,0,0,,,,,0,0,0,0,0,3,3,3,,,,,,,,,,,,,,,,,,,,,,,7.0,1.9165776000008918,"[(7.0, 1.9165776000008918)]",1072.8851413000084,None,,7.0,,,,,,,,,,sub_046,2022-08-14_15h21.43.156,Reversal,2022.1.2,60.06814130088215,2,
0,exp1.png,exp2.png,,,,,,,,,,,,,,,,,,1,0,1,0,0,0,0,0,,,,,,,,,False,20,101,True,exp2.png,exp1.png,trial_right_image,-1,exp1.png,2,exp1.png,exp2.png,1,1,non-reversed,correct,0.38272168748806057,1,valid_win,913.7010383000015,55,,,,,,,,,,,,,,,,,,sub_046,2022-08-14_15h21.43.156,Reversal,2022.1.2,60.06814130088215,2,
1,exp3.png,exp4.png,,,,,,,,,,,,,,,,,,1,0,1,0,0,1,1,1,,,,,,,,,False,21,102,False,exp3.png,exp4.png,trial_right_image,-1,exp4.png,2,exp4.png,exp3.png,0,4,reversed,correct,0.7111457413023754,1,valid_win,924.117487200012,56,,,,,,,,,,,,,,,,,,sub_046,2022-08-14_15h21.43.156,Reversal,2022.1.2,60.06814130088215,2,
2,exp1.png,exp2.png,,,,,,,,,,,,,,,,,,1,0,1,0,0,2,2,2,,,,,,,,,False,22,103,True,exp2.png,exp1.png,trial_left_image,1,exp2.png,2,exp1.png,exp2.png,0,2,non-reversed,incorrect,0.9193773361323448,0,valid_lose,930.8170494000078,56,,,,,,,,,,,,,,,,,,sub_046,2022-08-14_15h21.43.156,Reversal,2022.1.2,60.06814130088215,2,
3,exp3.png,exp4.png,,,,,,,,,,,,,,,,,,1,0,1,0,0,3,3,3,,,,,,,,,False,23,104,True,exp4.png,exp3.png,trial_right_image,-1,exp3.png,2,exp4.png,exp3.png,1,3,reversed,incorrect,0.2899461637398878,0,valid_lose,935.6508613000042,56,,,,,,,,,,,,,,,,,,sub_046,2022-08-14_15h21.43.156,Reversal,2022.1.2,60.06814130088215,2,
4,exp1.png,exp2.png,,,,,,,,,,,,,,,,,,1,0,1,0,0,4,4,4,,,,,,,,,False,24,105,False,exp1.png,exp2.png,trial_right_image,-1,exp2.png,2,exp1.png,exp2.png,0,2,non-reversed,incorrect,0.642623552622201,0,valid_lose,940.0668472000107,56,,,,,,,,,,,,,,,,,,sub_046,2022-08-14_15h21.43.156,Reversal,2022.1.2,60.06814130088215,2,
5,exp3.png,exp4.png,,,,,,,,,,,,,,,,,,1,0,1,0,0,5,5,5,,,,,,,,,False,25,106,False,exp3.png,exp4.png,trial_right_image,-1,exp4.png,2,exp4.png,exp3.png,0,4,reversed,correct,0.7194800306295267,1,valid_win,944.7674096999981,57,,,,,,,,,,,,,,,,,,sub_046,2022-08-14_15h21.43.156,Reversal,2022.1.2,60.06814130088215,2,
6,exp1.png,exp2.png,,,,,,,,,,,,,,,,,,1,0,1,0,0,6,6,6,,,,,,,,,False,26,107,True,exp2.png,exp1.png,trial_right_image,-1,exp1.png,2,exp1.png,exp2.png,1,1,non-reversed,correct,0.4155191936423981,1,valid_win,951.5335204000003,58,,,,,,,,,,,,,,,,,,sub_046,2022-08-14_15h21.43.156,Reversal,2022.1.2,60.06814130088215,2,
7,exp3.png,exp4.png,,,,,,,,,,,,,,,,,,1,0,1,0,0,7,7,7,,,,,,,,,False,27,108,True,exp4.png,exp3.png,trial_right_image,-1,exp3.png,2,exp4.png,exp3.png,1,3,reversed,incorrect,0.666689465839449,0,valid_lose,956.0172350000066,58,,,,,,,,,,,,,,,,,,sub_046,2022-08-14_15h21.43.156,Reversal,2022.1.2,60.06814130088215,2,
8,exp1.png,exp2.png,,,,,,,,,,,,,,,,,,1,0,1,0,0,8,8,8,,,,,,,,,False,28,109,False,exp1.png,exp2.png,trial_left_image,1,exp1.png,2,exp1.png,exp2.png,1,1,non-reversed,correct,0.33448593059012355,1,valid_win,960.6831012000039,59,,,,,,,,,,,,,,,,,,sub_046,2022-08-14_15h21.43.156,Reversal,2022.1.2,60.06814130088215,2,
9,exp3.png,exp4.png,,,,,,,,,,,,,,,,,,1,0,1,0,0,9,9,9,,,,,,,,,False,29,110,False,exp3.png,exp4.png,trial_right_image,-1,exp4.png,2,exp4.png,exp3.png,0,4,reversed,correct,0.053499596388597914,0,invalid_lose,965.1500455999922,59,,,,,,,,,,,,,,,,,,sub_046,2022-08-14_15h21.43.156,Reversal,2022.1.2,60.06814130088215,2,
10,exp1.png,exp2.png,,,,,,,,,,,,,,,,,,1,0,1,0,0,10,10,10,,,,,,,,,False,30,111,True,exp2.png,exp1.png,trial_right_image,-1,exp1.png,2,exp1.png,exp2.png,1,1,non-reversed,correct,0.03808648745489607,0,invalid_lose,970.833022900013,59,,,,,,,,,,,,,,,,,,sub_046,2022-08-14_15h21.43.156,Reversal,2022.1.2,60.06814130088215,2,
11,exp3.png,exp4.png,,,,,,,,,,,,,,,,,,1,0,1,0,0,11,11,11,,,,,,,,,False,31,112,False,exp3.png,exp4.png,trial_left_image,1,exp3.png,2,exp4.png,exp3.png,1,3,reversed,incorrect,0.4220105740836404,0,valid_lose,974.8831161000126,59,,,,,,,,,,,,,,,,,,sub_046,2022-08-14_15h21.43.156,Reversal,2022.1.2,60.06814130088215,2,
12,exp1.png,exp2.png,,,,,,,,,,,,,,,,,,1,0,1,0,0,12,12,12,,,,,,,,,False,32,113,False,exp1.png,exp2.png,trial_right_image,-1,exp2.png,2,exp1.png,exp2.png,0,2,non-reversed,incorrect,0.4990236671850744,0,valid_lose,980.7330432999879,59,,,,,,,,,,,,,,,,,,sub_046,2022-08-14_15h21.43.156,Reversal,2022.1.2,60.06814130088215,2,
13,exp3.png,exp4.png,,,,,,,,,,,,,,,,,,1,0,1,0,0,13,13,13,,,,,,,,,False,33,114,False,exp3.png,exp4.png,trial_right_image,-1,exp4.png,2,exp4.png,exp3.png,0,4,reversed,correct,0.8739956611253321,1,valid_win,985.1159543000103,60,,,,,,,,,,,,,,,,,,sub_046,2022-08-14_15h21.43.156,Reversal,2022.1.2,60.06814130088215,2,
14,exp1.png,exp2.png,,,,,,,,,,,,,,,,,,1,0,1,0,0,14,14,14,,,,,,,,,False,34,115,True,exp2.png,exp1.png,trial_right_image,-1,exp1.png,2,exp1.png,exp2.png,1,1,non-reversed,correct,0.9986027908082226,1,valid_win,989.432733900001,61,,,,,,,,,,,,,,,,,,sub_046,2022-08-14_15h21.43.156,Reversal,2022.1.2,60.06814130088215,2,
15,exp3.png,exp4.png,,,,,,,,,,,,,,,,,,1,0,1,0,0,15,15,15,,,,,,,,,False,35,116,False,exp3.png,exp4.png,trial_left_image,1,exp3.png,2,exp4.png,exp3.png,1,3,reversed,incorrect,0.3769780316105399,0,valid_lose,993.916143600014,61,,,,,,,,,,,,,,,,,,sub_046,2022-08-14_15h21.43.156,Reversal,2022.1.2,60.06814130088215,2,
16,exp1.png,exp2.png,,,,,,,,,,,,,,,,,,1,0,1,0,0,16,16,16,,,,,,,,,False,36,117,False,exp1.png,exp2.png,trial_right_image,-1,exp2.png,2,exp1.png,exp2.png,0,2,non-reversed,incorrect,0.32543061615834945,0,valid_lose,999.8993401000043,61,,,,,,,,,,,,,,,,,,sub_046,2022-08-14_15h21.43.156,Reversal,2022.1.2,60.06814130088215,2,
17,exp3.png,exp4.png,,,,,,,,,,,,,,,,,,1,0,1,0,0,17,17,17,,,,,,,,,False,37,118,True,exp4.png,exp3.png,trial_right_image,-1,exp3.png,2,exp4.png,exp3.png,1,3,reversed,incorrect,0.9466373675024837,0,valid_lose,1004.8827395999979,61,,,,,,,,,,,,,,,,,,sub_046,2022-08-14_15h21.43.156,Reversal,2022.1.2,60.06814130088215,2,
18,exp1.png,exp2.png,,,,,,,,,,,,,,,,,,1,0,1,0,0,18,18,18,,,,,,,,,False,38,119,True,exp2.png,exp1.png,trial_right_image,-1,exp1.png,2,exp1.png,exp2.png,1,1,non-reversed,correct,0.45879885157613864,1,valid_win,1009.2659120000026,62,,,,,,,,,,,,,,,,,,sub_046,2022-08-14_15h21.43.156,Reversal,2022.1.2,60.06814130088215,2,
19,exp3.png,exp4.png,,,,,,,,,,,,,,,,,,1,0,1,0,0,19,19,19,,,,,,,,,False,39,120,True,exp4.png,exp3.png,trial_left_image,1,exp4.png,2,exp4.png,exp3.png,0,4,reversed,correct,0.7717388590158504,1,valid_win,1014.2492545999994,63,,,,,,,,,,,,,,,,,,sub_046,2022-08-14_15h21.43.156,Reversal,2022.1.2,60.06814130088215,2,
20,exp1.png,exp2.png,,,,,,,,,,,,,,,,,,1,0,1,0,0,20,20,20,,,,,,,,,True,,,,,,,,,,,,,,,,,,,,,,,,,,,,,,,,,,,,,,sub_046,2022-08-14_15h21.43.156,Reversal,2022.1.2,60.06814130088215,2,
,,,exp1.png,,,,,,,,,,,,,,,,,1,0,1,0,,,,,0,0,0,0,0,0,0,0,,,,,,,,,,,,,,,,,,,,,,100.0,100.0,2.275129499990726,"[(100.0, 2.275129499990726)]",1183.4951686000277,None,,,,,,,,,,,,sub_046,2022-08-14_15h21.43.156,Reversal,2022.1.2,60.06814130088215,2,
,,,exp2.png,,,,,,,,,,,,,,,,,1,0,1,0,,,,,0,0,0,0,0,1,1,1,,,,,,,,,,,,,,,,,,,,,,,100.0,2.1846992999780923,"[(100.0, 2.1846992999780923)]",1186.983796000015,None,,,100.0,,,,,,,,,sub_046,2022-08-14_15h21.43.156,Reversal,2022.1.2,60.06814130088215,2,
,,,exp3.png,,,,,,,,,,,,,,,,,1,0,1,0,,,,,0,0,0,0,0,2,2,2,,,,,,,,,,,,,,,,,,,,,,,18.0,2.103154699987499,"[(18.0, 2.103154699987499)]",1190.214224700001,None,18.0,,,,,,,,,,,sub_046,2022-08-14_15h21.43.156,Reversal,2022.1.2,60.06814130088215,2,
,,,exp4.png,,,,,,,,,,,,,,,,,1,0,1,0,,,,,0,0,0,0,0,3,3,3,,,,,,,,,,,,,,,,,,,,,,,99.0,1.5518256000068504,"[(99.0, 1.5518256000068504)]",1193.3482719000021,None,,99.0,,,,,,,,,,sub_046,2022-08-14_15h21.43.156,Reversal,2022.1.2,60.06814130088215,2,
0,exp1.png,exp2.png,,,,,,,,,,,,,,,,,,2,0,2,0,0,0,0,0,,,,,,,,,False,40,121,False,exp1.png,exp2.png,trial_right_image,-1,exp2.png,2,exp1.png,exp2.png,0,2,non-reversed,incorrect,0.7466021130412506,0,valid_lose,1033.7158153000055,63,,,,,,,,,,,,,,,,,,sub_046,2022-08-14_15h21.43.156,Reversal,2022.1.2,60.06814130088215,2,
1,exp3.png,exp4.png,,,,,,,,,,,,,,,,,,2,0,2,0,0,1,1,1,,,,,,,,,False,41,122,True,exp4.png,exp3.png,trial_left_image,1,exp4.png,2,exp4.png,exp3.png,0,4,reversed,correct,0.7604805002538418,1,valid_win,1039.3153036000149,64,,,,,,,,,,,,,,,,,,sub_046,2022-08-14_15h21.43.156,Reversal,2022.1.2,60.06814130088215,2,
2,exp1.png,exp2.png,,,,,,,,,,,,,,,,,,2,0,2,0,0,2,2,2,,,,,,,,,False,42,123,True,exp2.png,exp1.png,trial_right_image,-1,exp1.png,2,exp1.png,exp2.png,1,1,non-reversed,correct,0.3040407231931731,1,valid_win,1049.4480766000052,65,,,,,,,,,,,,,,,,,,sub_046,2022-08-14_15h21.43.156,Reversal,2022.1.2,60.06814130088215,2,
3,exp3.png,exp4.png,,,,,,,,,,,,,,,,,,2,0,2,0,0,3,3,3,,,,,,,,,False,43,124,False,exp3.png,exp4.png,trial_left_image,1,exp3.png,2,exp4.png,exp3.png,1,3,reversed,incorrect,0.6585137095421489,0,valid_lose,1055.3815665000002,65,,,,,,,,,,,,,,,,,,sub_046,2022-08-14_15h21.43.156,Reversal,2022.1.2,60.06814130088215,2,
4,exp1.png,exp2.png,,,,,,,,,,,,,,,,,,2,0,2,0,0,4,4,4,,,,,,,,,False,44,125,False,exp1.png,exp2.png,trial_right_image,-1,exp2.png,2,exp1.png,exp2.png,0,2,non-reversed,incorrect,0.3569734660097106,0,valid_lose,1060.314857499994,65,,,,,,,,,,,,,,,,,,sub_046,2022-08-14_15h21.43.156,Reversal,2022.1.2,60.06814130088215,2,
5,exp3.png,exp4.png,,,,,,,,,,,,,,,,,,2,0,2,0,0,5,5,5,,,,,,,,,False,45,126,False,exp3.png,exp4.png,trial_left_image,1,exp3.png,2,exp4.png,exp3.png,1,3,reversed,incorrect,0.877847758885869,0,valid_lose,1064.8481797999993,65,,,,,,,,,,,,,,,,,,sub_046,2022-08-14_15h21.43.156,Reversal,2022.1.2,60.06814130088215,2,
6,exp1.png,exp2.png,,,,,,,,,,,,,,,,,,2,0,2,0,0,6,6,6,,,,,,,,,False,46,127,True,exp2.png,exp1.png,trial_left_image,1,exp2.png,2,exp1.png,exp2.png,0,2,non-reversed,incorrect,0.7709437486657705,0,valid_lose,1072.547983700002,65,,,,,,,,,,,,,,,,,,sub_046,2022-08-14_15h21.43.156,Reversal,2022.1.2,60.06814130088215,2,
7,exp3.png,exp4.png,,,,,,,,,,,,,,,,,,2,0,2,0,0,7,7,7,,,,,,,,,False,47,128,False,exp3.png,exp4.png,trial_left_image,1,exp3.png,2,exp4.png,exp3.png,1,3,reversed,incorrect,0.015697357505018328,1,invalid_win,1076.9482261000085,66,,,,,,,,,,,,,,,,,,sub_046,2022-08-14_15h21.43.156,Reversal,2022.1.2,60.06814130088215,2,
8,exp1.png,exp2.png,,,,,,,,,,,,,,,,,,2,0,2,0,0,8,8,8,,,,,,,,,False,48,129,False,exp1.png,exp2.png,trial_right_image,-1,exp2.png,2,exp1.png,exp2.png,0,2,non-reversed,incorrect,0.7265002877902359,0,valid_lose,1083.3479221000161,66,,,,,,,,,,,,,,,,,,sub_046,2022-08-14_15h21.43.156,Reversal,2022.1.2,60.06814130088215,2,
9,exp3.png,exp4.png,,,,,,,,,,,,,,,,,,2,0,2,0,0,9,9,9,,,,,,,,,False,49,130,True,exp4.png,exp3.png,trial_right_image,-1,exp3.png,2,exp4.png,exp3.png,1,3,reversed,incorrect,0.46920374040012414,0,valid_lose,1088.364782699995,66,,,,,,,,,,,,,,,,,,sub_046,2022-08-14_15h21.43.156,Reversal,2022.1.2,60.06814130088215,2,
10,exp1.png,exp2.png,,,,,,,,,,,,,,,,,,2,0,2,0,0,10,10,10,,,,,,,,,False,50,131,True,exp2.png,exp1.png,trial_right_image,-1,exp1.png,2,exp1.png,exp2.png,1,1,non-reversed,correct,0.18181293470313054,0,invalid_lose,1092.763990700012,66,,,,,,,,,,,,,,,,,,sub_046,2022-08-14_15h21.43.156,Reversal,2022.1.2,60.06814130088215,2,
11,exp3.png,exp4.png,,,,,,,,,,,,,,,,,,2,0,2,0,0,11,11,11,,,,,,,,,False,51,132,True,exp4.png,exp3.png,trial_right_image,-1,exp3.png,2,exp4.png,exp3.png,1,3,reversed,incorrect,0.6191524241777496,0,valid_lose,1097.1140375999967,66,,,,,,,,,,,,,,,,,,sub_046,2022-08-14_15h21.43.156,Reversal,2022.1.2,60.06814130088215,2,
12,exp1.png,exp2.png,,,,,,,,,,,,,,,,,,2,0,2,0,0,12,12,12,,,,,,,,,False,52,133,True,exp2.png,exp1.png,trial_left_image,1,exp2.png,2,exp1.png,exp2.png,0,2,non-reversed,incorrect,0.017044672334127098,1,invalid_win,1101.2809122999897,67,,,,,,,,,,,,,,,,,,sub_046,2022-08-14_15h21.43.156,Reversal,2022.1.2,60.06814130088215,2,
13,exp3.png,exp4.png,,,,,,,,,,,,,,,,,,2,0,2,0,0,13,13,13,,,,,,,,,False,53,134,True,exp4.png,exp3.png,trial_left_image,1,exp4.png,2,exp4.png,exp3.png,0,4,reversed,correct,0.16077503174379193,0,invalid_lose,1105.7807047000097,67,,,,,,,,,,,,,,,,,,sub_046,2022-08-14_15h21.43.156,Reversal,2022.1.2,60.06814130088215,2,
14,exp1.png,exp2.png,,,,,,,,,,,,,,,,,,2,0,2,0,0,14,14,14,,,,,,,,,False,54,135,False,exp1.png,exp2.png,trial_right_image,-1,exp2.png,2,exp1.png,exp2.png,0,2,non-reversed,incorrect,0.8244725885227177,0,valid_lose,1110.2810776999977,67,,,,,,,,,,,,,,,,,,sub_046,2022-08-14_15h21.43.156,Reversal,2022.1.2,60.06814130088215,2,
15,exp3.png,exp4.png,,,,,,,,,,,,,,,,,,2,0,2,0,0,15,15,15,,,,,,,,,False,55,136,False,exp3.png,exp4.png,trial_left_image,1,exp3.png,2,exp4.png,exp3.png,1,3,reversed,incorrect,0.7514995214293261,0,valid_lose,1115.1304904000135,67,,,,,,,,,,,,,,,,,,sub_046,2022-08-14_15h21.43.156,Reversal,2022.1.2,60.06814130088215,2,
16,exp1.png,exp2.png,,,,,,,,,,,,,,,,,,2,0,2,0,0,16,16,16,,,,,,,,,False,56,137,True,exp2.png,exp1.png,trial_left_image,1,exp2.png,2,exp1.png,exp2.png,0,2,non-reversed,incorrect,0.3204129654626693,0,valid_lose,1120.0636149999918,67,,,,,,,,,,,,,,,,,,sub_046,2022-08-14_15h21.43.156,Reversal,2022.1.2,60.06814130088215,2,
17,exp3.png,exp4.png,,,,,,,,,,,,,,,,,,2,0,2,0,0,17,17,17,,,,,,,,,False,57,138,False,exp3.png,exp4.png,trial_right_image,-1,exp4.png,2,exp4.png,exp3.png,0,4,reversed,correct,0.01009950817266314,0,invalid_lose,1125.1307731000124,67,,,,,,,,,,,,,,,,,,sub_046,2022-08-14_15h21.43.156,Reversal,2022.1.2,60.06814130088215,2,
18,exp1.png,exp2.png,,,,,,,,,,,,,,,,,,2,0,2,0,0,18,18,18,,,,,,,,,False,58,139,True,exp2.png,exp1.png,trial_right_image,-1,exp1.png,2,exp1.png,exp2.png,1,1,non-reversed,correct,0.09967965608574414,0,invalid_lose,1129.164390799997,67,,,,,,,,,,,,,,,,,,sub_046,2022-08-14_15h21.43.156,Reversal,2022.1.2,60.06814130088215,2,
19,exp3.png,exp4.png,,,,,,,,,,,,,,,,,,2,0,2,0,0,19,19,19,,,,,,,,,False,59,140,False,exp3.png,exp4.png,trial_right_image,-1,exp4.png,2,exp4.png,exp3.png,0,4,reversed,correct,0.1655609125818598,0,invalid_lose,1133.4303041000094,67,,,,,,,,,,,,,,,,,,sub_046,2022-08-14_15h21.43.156,Reversal,2022.1.2,60.06814130088215,2,
20,exp1.png,exp2.png,,,,,,,,,,,,,,,,,,2,0,2,0,0,20,20,20,,,,,,,,,True,,,,,,,,,,,,,,,,,,,,,,,,,,,,,,,,,,,,,,sub_046,2022-08-14_15h21.43.156,Reversal,2022.1.2,60.06814130088215,2,
,,,exp1.png,,,,,,,,,,,,,,,,,2,0,2,0,,,,,0,0,0,0,0,0,0,0,,,,,,,,,,,,,,,,,,,,,,1.0,1.0,1.609881199983647,"[(1.0, 1.609881199983647)]",1302.6962789000245,None,,,,,,,,,,,,sub_046,2022-08-14_15h21.43.156,Reversal,2022.1.2,60.06814130088215,2,
,,,exp2.png,,,,,,,,,,,,,,,,,2,0,2,0,,,,,0,0,0,0,0,1,1,1,,,,,,,,,,,,,,,,,,,,,,,73.0,1.4530000000086147,"[(73.0, 1.4530000000086147)]",1305.7948433000129,None,,,73.0,,,,,,,,,sub_046,2022-08-14_15h21.43.156,Reversal,2022.1.2,60.06814130088215,2,
,,,exp3.png,,,,,,,,,,,,,,,,,2,0,2,0,,,,,0,0,0,0,0,2,2,2,,,,,,,,,,,,,,,,,,,,,,,9.0,1.4187769999844022,"[(9.0, 1.4187769999844022)]",1308.112197600014,None,9.0,,,,,,,,,,,sub_046,2022-08-14_15h21.43.156,Reversal,2022.1.2,60.06814130088215,2,
,,,exp4.png,,,,,,,,,,,,,,,,,2,0,2,0,,,,,0,0,0,0,0,3,3,3,,,,,,,,,,,,,,,,,,,,,,,50.0,None,[],1310.1669280000206,None,,,,,,,,,,,,sub_046,2022-08-14_15h21.43.156,Reversal,2022.1.2,60.06814130088215,2,
,,,,,,,,,,,,,,,,,,,,,,,,,,,,,,,,,,,,,,,,,,,,,,,,,,,,,,,,67,,,,,,,,,,,76,54,22,341.74031580000883,1,space,94.00757269997848,sub_046,2022-08-14_15h21.43.156,Reversal,2022.1.2,60.06814130088215,2,
