trial_index,trial_image1_file,trial_image2_file,image_file,learning_outer_loop.thisRepN,learning_outer_loop.thisTrialN,learning_outer_loop.thisN,learning_outer_loop.thisIndex,learning_inner_loop.thisRepN,learning_inner_loop.thisTrialN,learning_inner_loop.thisN,learning_inner_loop.thisIndex,learning_estimation_outer_loop.thisRepN,learning_estimation_outer_loop.thisTrialN,learning_estimation_outer_loop.thisN,learning_estimation_outer_loop.thisIndex,learning_estimation_inner_loop.thisRepN,learning_estimation_inner_loop.thisTrialN,learning_estimation_inner_loop.thisN,learning_estimation_inner_loop.thisIndex,reversal_outer_loop.thisRepN,reversal_outer_loop.thisTrialN,reversal_outer_loop.thisN,reversal_outer_loop.thisIndex,reversal_inner_loop.thisRepN,reversal_inner_loop.thisTrialN,reversal_inner_loop.thisN,reversal_inner_loop.thisIndex,reversal_estimation_outer_loop.thisRepN,reversal_estimation_outer_loop.thisTrialN,reversal_estimation_outer_loop.thisN,reversal_estimation_outer_loop.thisIndex,reversal_estimation_inner_loop.thisRepN,reversal_estimation_inner_loop.thisTrialN,reversal_estimation_inner_loop.thisN,reversal_estimation_inner_loop.thisIndex,skipped,total_trial_counter,trial_num,left_right_flip,left_image_file,right_image_file,clicked_stimulus_side,side,clicked_stimulus,version,high_prob_image_file,low_prob_image_file,choice_a,choice_b,pair_type,correct,trial_feedback_random,reward,trial_type,overall_time_after_trial,score,estimation_exp1.png,estimation_rating.response,estimation_rating.rt,estimation_rating.history,estimation_rating.started,estimation_rating.stopped,estimation_exp2.png,estimation_exp3.png,estimation_exp4.png,total_learning_time,total_correct,learning_correct,reversal_correct,total_reversal_time,extra_block,participant,date,expName,psychopyVersion,frameRate,ver,
0,exp1.png,exp2.png,,0,0,0,0,0,0,0,0,,,,,,,,,,,,,,,,,,,,,,,,,True,,,,,,,,,,,,,,,,,,,,,,,,,,,,,,,,,,,,sub_146,2022-11-02_11h15.57.368,Reversal,2022.1.1,59.895518159822075,2,
1,exp3.png,exp4.png,,0,0,0,0,0,1,1,1,,,,,,,,,,,,,,,,,,,,,,,,,False,0,1,True,exp4.png,exp3.png,trial_right_image,-1,exp3.png,2,exp3.png,exp4.png,1,3,reversed,correct,0.6265205789407177,1,valid_win,6.998348200228065,1,,,,,,,,,,,,,,,,sub_146,2022-11-02_11h15.57.368,Reversal,2022.1.1,59.895518159822075,2,
2,exp1.png,exp2.png,,0,0,0,0,0,2,2,2,,,,,,,,,,,,,,,,,,,,,,,,,False,1,2,True,exp2.png,exp1.png,trial_right_image,-1,exp1.png,2,exp1.png,exp2.png,1,1,non-reversed,correct,0.6804701636592377,1,valid_win,29.661010400392115,2,,,,,,,,,,,,,,,,sub_146,2022-11-02_11h15.57.368,Reversal,2022.1.1,59.895518159822075,2,
3,exp3.png,exp4.png,,0,0,0,0,0,3,3,3,,,,,,,,,,,,,,,,,,,,,,,,,False,2,3,False,exp3.png,exp4.png,trial_left_image,1,exp3.png,2,exp3.png,exp4.png,1,3,reversed,correct,0.6436789791593526,1,valid_win,38.793689200188965,3,,,,,,,,,,,,,,,,sub_146,2022-11-02_11h15.57.368,Reversal,2022.1.1,59.895518159822075,2,
4,exp1.png,exp2.png,,0,0,0,0,0,4,4,4,,,,,,,,,,,,,,,,,,,,,,,,,False,3,4,True,exp2.png,exp1.png,trial_right_image,-1,exp1.png,2,exp1.png,exp2.png,1,1,non-reversed,correct,0.6812083319080683,1,valid_win,47.37609550030902,4,,,,,,,,,,,,,,,,sub_146,2022-11-02_11h15.57.368,Reversal,2022.1.1,59.895518159822075,2,
5,exp3.png,exp4.png,,0,0,0,0,0,5,5,5,,,,,,,,,,,,,,,,,,,,,,,,,False,4,5,False,exp3.png,exp4.png,trial_left_image,1,exp3.png,2,exp3.png,exp4.png,1,3,reversed,correct,0.9751807535825279,1,valid_win,53.05812339996919,5,,,,,,,,,,,,,,,,sub_146,2022-11-02_11h15.57.368,Reversal,2022.1.1,59.895518159822075,2,
6,exp1.png,exp2.png,,0,0,0,0,0,6,6,6,,,,,,,,,,,,,,,,,,,,,,,,,False,5,6,True,exp2.png,exp1.png,trial_right_image,-1,exp1.png,2,exp1.png,exp2.png,1,1,non-reversed,correct,0.7801233540141337,1,valid_win,58.65773130021989,6,,,,,,,,,,,,,,,,sub_146,2022-11-02_11h15.57.368,Reversal,2022.1.1,59.895518159822075,2,
7,exp3.png,exp4.png,,0,0,0,0,0,7,7,7,,,,,,,,,,,,,,,,,,,,,,,,,False,6,7,True,exp4.png,exp3.png,trial_right_image,-1,exp3.png,2,exp3.png,exp4.png,1,3,reversed,correct,0.34191259364411786,1,valid_win,63.92352670012042,7,,,,,,,,,,,,,,,,sub_146,2022-11-02_11h15.57.368,Reversal,2022.1.1,59.895518159822075,2,
8,exp1.png,exp2.png,,0,0,0,0,0,8,8,8,,,,,,,,,,,,,,,,,,,,,,,,,False,7,8,True,exp2.png,exp1.png,trial_left_image,1,exp2.png,2,exp1.png,exp2.png,0,2,non-reversed,incorrect,0.3378833413831036,0,valid_lose,69.29009110014886,7,,,,,,,,,,,,,,,,sub_146,2022-11-02_11h15.57.368,Reversal,2022.1.1,59.895518159822075,2,
9,exp3.png,exp4.png,,0,0,0,0,0,9,9,9,,,,,,,,,,,,,,,,,,,,,,,,,False,8,9,False,exp3.png,exp4.png,trial_right_image,-1,exp4.png,2,exp3.png,exp4.png,0,4,reversed,incorrect,0.7348473014157014,0,valid_lose,90.1047291001305,7,,,,,,,,,,,,,,,,sub_146,2022-11-02_11h15.57.368,Reversal,2022.1.1,59.895518159822075,2,
10,exp1.png,exp2.png,,0,0,0,0,0,10,10,10,,,,,,,,,,,,,,,,,,,,,,,,,False,9,10,True,exp2.png,exp1.png,trial_right_image,-1,exp1.png,2,exp1.png,exp2.png,1,1,non-reversed,correct,0.5811961582409312,1,valid_win,101.08609260013327,8,,,,,,,,,,,,,,,,sub_146,2022-11-02_11h15.57.368,Reversal,2022.1.1,59.895518159822075,2,
11,exp3.png,exp4.png,,0,0,0,0,0,11,11,11,,,,,,,,,,,,,,,,,,,,,,,,,False,10,11,False,exp3.png,exp4.png,trial_left_image,1,exp3.png,2,exp3.png,exp4.png,1,3,reversed,correct,0.3897774685166344,1,valid_win,108.43393310019746,9,,,,,,,,,,,,,,,,sub_146,2022-11-02_11h15.57.368,Reversal,2022.1.1,59.895518159822075,2,
12,exp1.png,exp2.png,,0,0,0,0,0,12,12,12,,,,,,,,,,,,,,,,,,,,,,,,,False,11,12,False,exp1.png,exp2.png,trial_left_image,1,exp1.png,2,exp1.png,exp2.png,1,1,non-reversed,correct,0.8358780244037044,1,valid_win,113.66706550028175,10,,,,,,,,,,,,,,,,sub_146,2022-11-02_11h15.57.368,Reversal,2022.1.1,59.895518159822075,2,
13,exp3.png,exp4.png,,0,0,0,0,0,13,13,13,,,,,,,,,,,,,,,,,,,,,,,,,False,12,13,False,exp3.png,exp4.png,trial_left_image,1,exp3.png,2,exp3.png,exp4.png,1,3,reversed,correct,0.2599871115712996,1,valid_win,118.90033080009744,11,,,,,,,,,,,,,,,,sub_146,2022-11-02_11h15.57.368,Reversal,2022.1.1,59.895518159822075,2,
14,exp1.png,exp2.png,,0,0,0,0,0,14,14,14,,,,,,,,,,,,,,,,,,,,,,,,,False,13,14,True,exp2.png,exp1.png,trial_right_image,-1,exp1.png,2,exp1.png,exp2.png,1,1,non-reversed,correct,0.6974029113068373,1,valid_win,124.165470500011,12,,,,,,,,,,,,,,,,sub_146,2022-11-02_11h15.57.368,Reversal,2022.1.1,59.895518159822075,2,
15,exp3.png,exp4.png,,0,0,0,0,0,15,15,15,,,,,,,,,,,,,,,,,,,,,,,,,False,14,15,False,exp3.png,exp4.png,trial_left_image,1,exp3.png,2,exp3.png,exp4.png,1,3,reversed,correct,0.9404421791532108,1,valid_win,129.51567050023004,13,,,,,,,,,,,,,,,,sub_146,2022-11-02_11h15.57.368,Reversal,2022.1.1,59.895518159822075,2,
16,exp1.png,exp2.png,,0,0,0,0,0,16,16,16,,,,,,,,,,,,,,,,,,,,,,,,,False,15,16,False,exp1.png,exp2.png,trial_left_image,1,exp1.png,2,exp1.png,exp2.png,1,1,non-reversed,correct,0.9335103619093049,1,valid_win,134.44774760026485,14,,,,,,,,,,,,,,,,sub_146,2022-11-02_11h15.57.368,Reversal,2022.1.1,59.895518159822075,2,
17,exp3.png,exp4.png,,0,0,0,0,0,17,17,17,,,,,,,,,,,,,,,,,,,,,,,,,False,16,17,True,exp4.png,exp3.png,trial_right_image,-1,exp3.png,2,exp3.png,exp4.png,1,3,reversed,correct,0.7335870242427179,1,valid_win,139.46396230021492,15,,,,,,,,,,,,,,,,sub_146,2022-11-02_11h15.57.368,Reversal,2022.1.1,59.895518159822075,2,
18,exp1.png,exp2.png,,0,0,0,0,0,18,18,18,,,,,,,,,,,,,,,,,,,,,,,,,False,17,18,False,exp1.png,exp2.png,trial_left_image,1,exp1.png,2,exp1.png,exp2.png,1,1,non-reversed,correct,0.24613599255518015,0,invalid_lose,144.76321000000462,15,,,,,,,,,,,,,,,,sub_146,2022-11-02_11h15.57.368,Reversal,2022.1.1,59.895518159822075,2,
19,exp3.png,exp4.png,,0,0,0,0,0,19,19,19,,,,,,,,,,,,,,,,,,,,,,,,,False,18,19,True,exp4.png,exp3.png,trial_right_image,-1,exp3.png,2,exp3.png,exp4.png,1,3,reversed,correct,0.8333017730515849,1,valid_win,150.02907930035144,16,,,,,,,,,,,,,,,,sub_146,2022-11-02_11h15.57.368,Reversal,2022.1.1,59.895518159822075,2,
20,exp1.png,exp2.png,,0,0,0,0,0,20,20,20,,,,,,,,,,,,,,,,,,,,,,,,,False,19,20,False,exp1.png,exp2.png,trial_left_image,1,exp1.png,2,exp1.png,exp2.png,1,1,non-reversed,correct,0.46322722375081204,1,valid_win,155.52988609997556,17,,,,,,,,,,,,,,,,sub_146,2022-11-02_11h15.57.368,Reversal,2022.1.1,59.895518159822075,2,
,,,exp1.png,0,0,0,0,,,,,0,0,0,0,0,0,0,0,,,,,,,,,,,,,,,,,,,,,,,,,,,,,,,,,,,,,,100.0,100.0,10.83490869961679,"[(100.0, 10.83490869961679)]",225.74345620023087,None,,,,,,,,,,sub_146,2022-11-02_11h15.57.368,Reversal,2022.1.1,59.895518159822075,2,
,,,exp2.png,0,0,0,0,,,,,0,0,0,0,0,1,1,1,,,,,,,,,,,,,,,,,,,,,,,,,,,,,,,,,,,,,,,50.0,5.875127300154418,"[(50.0, 5.875127300154418)]",237.66006659995764,None,50.0,,,,,,,,,sub_146,2022-11-02_11h15.57.368,Reversal,2022.1.1,59.895518159822075,2,
,,,exp3.png,0,0,0,0,,,,,0,0,0,0,0,2,2,2,,,,,,,,,,,,,,,,,,,,,,,,,,,,,,,,,,,,,,,50.0,None,[],244.375845100265,None,,,,,,,,,,sub_146,2022-11-02_11h15.57.368,Reversal,2022.1.1,59.895518159822075,2,
,,,exp4.png,0,0,0,0,,,,,0,0,0,0,0,3,3,3,,,,,,,,,,,,,,,,,,,,,,,,,,,,,,,,,,,,,,,50.0,None,[],250.203171600122,None,,,,,,,,,,sub_146,2022-11-02_11h15.57.368,Reversal,2022.1.1,59.895518159822075,2,
0,exp1.png,exp2.png,,1,0,1,0,0,0,0,0,,,,,,,,,,,,,,,,,,,,,,,,,True,,,,,,,,,,,,,,,,,,,,,,,,,,,,,,,,,,,,sub_146,2022-11-02_11h15.57.368,Reversal,2022.1.1,59.895518159822075,2,
1,exp3.png,exp4.png,,1,0,1,0,0,1,1,1,,,,,,,,,,,,,,,,,,,,,,,,,False,20,21,True,exp4.png,exp3.png,trial_right_image,-1,exp3.png,2,exp3.png,exp4.png,1,3,reversed,correct,0.5030627352402652,1,valid_win,201.0556936999783,18,,,,,,,,,,,,,,,,sub_146,2022-11-02_11h15.57.368,Reversal,2022.1.1,59.895518159822075,2,
2,exp1.png,exp2.png,,1,0,1,0,0,2,2,2,,,,,,,,,,,,,,,,,,,,,,,,,False,21,22,False,exp1.png,exp2.png,trial_left_image,1,exp1.png,2,exp1.png,exp2.png,1,1,non-reversed,correct,0.21548308200804245,0,invalid_lose,212.8039155001752,18,,,,,,,,,,,,,,,,sub_146,2022-11-02_11h15.57.368,Reversal,2022.1.1,59.895518159822075,2,
3,exp3.png,exp4.png,,1,0,1,0,0,3,3,3,,,,,,,,,,,,,,,,,,,,,,,,,False,22,23,False,exp3.png,exp4.png,trial_left_image,1,exp3.png,2,exp3.png,exp4.png,1,3,reversed,correct,0.9875816407224012,1,valid_win,219.5024415999651,19,,,,,,,,,,,,,,,,sub_146,2022-11-02_11h15.57.368,Reversal,2022.1.1,59.895518159822075,2,
4,exp1.png,exp2.png,,1,0,1,0,0,4,4,4,,,,,,,,,,,,,,,,,,,,,,,,,False,23,24,False,exp1.png,exp2.png,trial_right_image,-1,exp2.png,2,exp1.png,exp2.png,0,2,non-reversed,incorrect,0.5256819465709641,0,valid_lose,225.05242880014703,19,,,,,,,,,,,,,,,,sub_146,2022-11-02_11h15.57.368,Reversal,2022.1.1,59.895518159822075,2,
5,exp3.png,exp4.png,,1,0,1,0,0,5,5,5,,,,,,,,,,,,,,,,,,,,,,,,,False,24,25,False,exp3.png,exp4.png,trial_left_image,1,exp3.png,2,exp3.png,exp4.png,1,3,reversed,correct,0.726419512177283,1,valid_win,231.45083930017427,20,,,,,,,,,,,,,,,,sub_146,2022-11-02_11h15.57.368,Reversal,2022.1.1,59.895518159822075,2,
6,exp1.png,exp2.png,,1,0,1,0,0,6,6,6,,,,,,,,,,,,,,,,,,,,,,,,,False,25,26,True,exp2.png,exp1.png,trial_right_image,-1,exp1.png,2,exp1.png,exp2.png,1,1,non-reversed,correct,0.33680077526656316,1,valid_win,241.16607880033553,21,,,,,,,,,,,,,,,,sub_146,2022-11-02_11h15.57.368,Reversal,2022.1.1,59.895518159822075,2,
7,exp3.png,exp4.png,,1,0,1,0,0,7,7,7,,,,,,,,,,,,,,,,,,,,,,,,,False,26,27,True,exp4.png,exp3.png,trial_left_image,1,exp4.png,2,exp3.png,exp4.png,0,4,reversed,incorrect,0.5678278927984093,0,valid_lose,247.88189209997654,21,,,,,,,,,,,,,,,,sub_146,2022-11-02_11h15.57.368,Reversal,2022.1.1,59.895518159822075,2,
8,exp1.png,exp2.png,,1,0,1,0,0,8,8,8,,,,,,,,,,,,,,,,,,,,,,,,,False,27,28,False,exp1.png,exp2.png,trial_left_image,1,exp1.png,2,exp1.png,exp2.png,1,1,non-reversed,correct,0.7620209394583426,1,valid_win,255.8644203003496,22,,,,,,,,,,,,,,,,sub_146,2022-11-02_11h15.57.368,Reversal,2022.1.1,59.895518159822075,2,
9,exp3.png,exp4.png,,1,0,1,0,0,9,9,9,,,,,,,,,,,,,,,,,,,,,,,,,False,28,29,False,exp3.png,exp4.png,trial_right_image,-1,exp4.png,2,exp3.png,exp4.png,0,4,reversed,incorrect,0.27986756095987886,0,valid_lose,263.04670470021665,22,,,,,,,,,,,,,,,,sub_146,2022-11-02_11h15.57.368,Reversal,2022.1.1,59.895518159822075,2,
10,exp1.png,exp2.png,,1,0,1,0,0,10,10,10,,,,,,,,,,,,,,,,,,,,,,,,,False,29,30,True,exp2.png,exp1.png,trial_right_image,-1,exp1.png,2,exp1.png,exp2.png,1,1,non-reversed,correct,0.5348139640913966,1,valid_win,269.6291001001373,23,,,,,,,,,,,,,,,,sub_146,2022-11-02_11h15.57.368,Reversal,2022.1.1,59.895518159822075,2,
11,exp3.png,exp4.png,,1,0,1,0,0,11,11,11,,,,,,,,,,,,,,,,,,,,,,,,,False,30,31,True,exp4.png,exp3.png,trial_right_image,-1,exp3.png,2,exp3.png,exp4.png,1,3,reversed,correct,0.5681326943748728,1,valid_win,278.1448083999567,24,,,,,,,,,,,,,,,,sub_146,2022-11-02_11h15.57.368,Reversal,2022.1.1,59.895518159822075,2,
12,exp1.png,exp2.png,,1,0,1,0,0,12,12,12,,,,,,,,,,,,,,,,,,,,,,,,,False,31,32,True,exp2.png,exp1.png,trial_right_image,-1,exp1.png,2,exp1.png,exp2.png,1,1,non-reversed,correct,0.45326436906611955,1,valid_win,287.8445146000013,25,,,,,,,,,,,,,,,,sub_146,2022-11-02_11h15.57.368,Reversal,2022.1.1,59.895518159822075,2,
13,exp3.png,exp4.png,,1,0,1,0,0,13,13,13,,,,,,,,,,,,,,,,,,,,,,,,,False,32,33,False,exp3.png,exp4.png,trial_left_image,1,exp3.png,2,exp3.png,exp4.png,1,3,reversed,correct,0.26218648333862216,1,valid_win,297.72552770003676,26,,,,,,,,,,,,,,,,sub_146,2022-11-02_11h15.57.368,Reversal,2022.1.1,59.895518159822075,2,
14,exp1.png,exp2.png,,1,0,1,0,0,14,14,14,,,,,,,,,,,,,,,,,,,,,,,,,False,33,34,True,exp2.png,exp1.png,trial_right_image,-1,exp1.png,2,exp1.png,exp2.png,1,1,non-reversed,correct,0.6004168599563418,1,valid_win,302.92524950020015,27,,,,,,,,,,,,,,,,sub_146,2022-11-02_11h15.57.368,Reversal,2022.1.1,59.895518159822075,2,
15,exp3.png,exp4.png,,1,0,1,0,0,15,15,15,,,,,,,,,,,,,,,,,,,,,,,,,False,34,35,True,exp4.png,exp3.png,trial_right_image,-1,exp3.png,2,exp3.png,exp4.png,1,3,reversed,correct,0.23819631066514702,0,invalid_lose,308.7080561001785,27,,,,,,,,,,,,,,,,sub_146,2022-11-02_11h15.57.368,Reversal,2022.1.1,59.895518159822075,2,
16,exp1.png,exp2.png,,1,0,1,0,0,16,16,16,,,,,,,,,,,,,,,,,,,,,,,,,False,35,36,True,exp2.png,exp1.png,trial_right_image,-1,exp1.png,2,exp1.png,exp2.png,1,1,non-reversed,correct,0.8686928518082758,1,valid_win,317.9404679001309,28,,,,,,,,,,,,,,,,sub_146,2022-11-02_11h15.57.368,Reversal,2022.1.1,59.895518159822075,2,
17,exp3.png,exp4.png,,1,0,1,0,0,17,17,17,,,,,,,,,,,,,,,,,,,,,,,,,False,36,37,False,exp3.png,exp4.png,trial_right_image,-1,exp4.png,2,exp3.png,exp4.png,0,4,reversed,incorrect,0.9559310746554099,0,valid_lose,323.7227319004014,28,,,,,,,,,,,,,,,,sub_146,2022-11-02_11h15.57.368,Reversal,2022.1.1,59.895518159822075,2,
18,exp1.png,exp2.png,,1,0,1,0,0,18,18,18,,,,,,,,,,,,,,,,,,,,,,,,,False,37,38,True,exp2.png,exp1.png,trial_right_image,-1,exp1.png,2,exp1.png,exp2.png,1,1,non-reversed,correct,0.9263579525868715,1,valid_win,328.7213996001519,29,,,,,,,,,,,,,,,,sub_146,2022-11-02_11h15.57.368,Reversal,2022.1.1,59.895518159822075,2,
19,exp3.png,exp4.png,,1,0,1,0,0,19,19,19,,,,,,,,,,,,,,,,,,,,,,,,,False,38,39,False,exp3.png,exp4.png,trial_left_image,1,exp3.png,2,exp3.png,exp4.png,1,3,reversed,correct,0.5594854705788204,1,valid_win,334.50418510008603,30,,,,,,,,,,,,,,,,sub_146,2022-11-02_11h15.57.368,Reversal,2022.1.1,59.895518159822075,2,
20,exp1.png,exp2.png,,1,0,1,0,0,20,20,20,,,,,,,,,,,,,,,,,,,,,,,,,False,39,40,False,exp1.png,exp2.png,trial_left_image,1,exp1.png,2,exp1.png,exp2.png,1,1,non-reversed,correct,0.4022355902214174,1,valid_win,339.53666200023144,31,,,,,,,,,,,,,,,,sub_146,2022-11-02_11h15.57.368,Reversal,2022.1.1,59.895518159822075,2,
,,,exp1.png,1,0,1,0,,,,,0,0,0,0,0,0,0,0,,,,,,,,,,,,,,,,,,,,,,,,,,,,,,,,,,,,,,100.0,100.0,3.925078600179404,"[(100.0, 3.925078600179404)]",409.7354343999177,None,,,,,,,,,,sub_146,2022-11-02_11h15.57.368,Reversal,2022.1.1,59.895518159822075,2,
,,,exp2.png,1,0,1,0,,,,,0,0,0,0,0,1,1,1,,,,,,,,,,,,,,,,,,,,,,,,,,,,,,,,,,,,,,,50.0,None,[],414.7672355999239,None,,,,,,,,,,sub_146,2022-11-02_11h15.57.368,Reversal,2022.1.1,59.895518159822075,2,
,,,exp3.png,1,0,1,0,,,,,0,0,0,0,0,2,2,2,,,,,,,,,,,,,,,,,,,,,,,,,,,,,,,,,,,,,,,50.0,None,[],419.8838778003119,None,,,,,,,,,,sub_146,2022-11-02_11h15.57.368,Reversal,2022.1.1,59.895518159822075,2,
,,,exp4.png,1,0,1,0,,,,,0,0,0,0,0,3,3,3,,,,,,,,,,,,,,,,,,,,,,,,,,,,,,,,,,,,,,,50.0,None,[],423.3959349999204,None,,,,,,,,,,sub_146,2022-11-02_11h15.57.368,Reversal,2022.1.1,59.895518159822075,2,
0,exp1.png,exp2.png,,2,0,2,0,0,0,0,0,,,,,,,,,,,,,,,,,,,,,,,,,True,,,,,,,,,,,,,,,,,,,,,,,,,,,,,,,,,,,,sub_146,2022-11-02_11h15.57.368,Reversal,2022.1.1,59.895518159822075,2,
1,exp3.png,exp4.png,,2,0,2,0,0,1,1,1,,,,,,,,,,,,,,,,,,,,,,,,,False,40,41,True,exp4.png,exp3.png,trial_left_image,1,exp4.png,2,exp3.png,exp4.png,0,4,reversed,incorrect,0.5720163899453627,0,valid_lose,365.334199400153,31,,,,,,,,,,,,,,,,sub_146,2022-11-02_11h15.57.368,Reversal,2022.1.1,59.895518159822075,2,
2,exp1.png,exp2.png,,2,0,2,0,0,2,2,2,,,,,,,,,,,,,,,,,,,,,,,,,False,41,42,True,exp2.png,exp1.png,trial_right_image,-1,exp1.png,2,exp1.png,exp2.png,1,1,non-reversed,correct,0.4769741447239151,1,valid_win,370.3998722000979,32,,,,,,,,,,,,,,,,sub_146,2022-11-02_11h15.57.368,Reversal,2022.1.1,59.895518159822075,2,
3,exp3.png,exp4.png,,2,0,2,0,0,3,3,3,,,,,,,,,,,,,,,,,,,,,,,,,False,42,43,False,exp3.png,exp4.png,trial_left_image,1,exp3.png,2,exp3.png,exp4.png,1,3,reversed,correct,0.9587524905741862,1,valid_win,378.2484030001797,33,,,,,,,,,,,,,,,,sub_146,2022-11-02_11h15.57.368,Reversal,2022.1.1,59.895518159822075,2,
4,exp1.png,exp2.png,,2,0,2,0,0,4,4,4,,,,,,,,,,,,,,,,,,,,,,,,,False,43,44,True,exp2.png,exp1.png,trial_right_image,-1,exp1.png,2,exp1.png,exp2.png,1,1,non-reversed,correct,0.12956654909851884,0,invalid_lose,383.9153627003543,33,,,,,,,,,,,,,,,,sub_146,2022-11-02_11h15.57.368,Reversal,2022.1.1,59.895518159822075,2,
5,exp3.png,exp4.png,,2,0,2,0,0,5,5,5,,,,,,,,,,,,,,,,,,,,,,,,,False,44,45,True,exp4.png,exp3.png,trial_right_image,-1,exp3.png,2,exp3.png,exp4.png,1,3,reversed,correct,0.5703188239831383,1,valid_win,391.9633271000348,34,,,,,,,,,,,,,,,,sub_146,2022-11-02_11h15.57.368,Reversal,2022.1.1,59.895518159822075,2,
6,exp1.png,exp2.png,,2,0,2,0,0,6,6,6,,,,,,,,,,,,,,,,,,,,,,,,,False,45,46,True,exp2.png,exp1.png,trial_right_image,-1,exp1.png,2,exp1.png,exp2.png,1,1,non-reversed,correct,0.5675038375502882,1,valid_win,400.74536330020055,35,,,,,,,,,,,,,,,,sub_146,2022-11-02_11h15.57.368,Reversal,2022.1.1,59.895518159822075,2,
7,exp3.png,exp4.png,,2,0,2,0,0,7,7,7,,,,,,,,,,,,,,,,,,,,,,,,,False,46,47,False,exp3.png,exp4.png,trial_left_image,1,exp3.png,2,exp3.png,exp4.png,1,3,reversed,correct,0.58578624587439,1,valid_win,406.8946964000352,36,,,,,,,,,,,,,,,,sub_146,2022-11-02_11h15.57.368,Reversal,2022.1.1,59.895518159822075,2,
8,exp1.png,exp2.png,,2,0,2,0,0,8,8,8,,,,,,,,,,,,,,,,,,,,,,,,,False,47,48,False,exp1.png,exp2.png,trial_left_image,1,exp1.png,2,exp1.png,exp2.png,1,1,non-reversed,correct,0.5659622718451361,1,valid_win,412.12733130017295,37,,,,,,,,,,,,,,,,sub_146,2022-11-02_11h15.57.368,Reversal,2022.1.1,59.895518159822075,2,
9,exp3.png,exp4.png,,2,0,2,0,0,9,9,9,,,,,,,,,,,,,,,,,,,,,,,,,False,48,49,False,exp3.png,exp4.png,trial_left_image,1,exp3.png,2,exp3.png,exp4.png,1,3,reversed,correct,0.8511531458679866,1,valid_win,424.57609360013157,38,,,,,,,,,,,,,,,,sub_146,2022-11-02_11h15.57.368,Reversal,2022.1.1,59.895518159822075,2,
10,exp1.png,exp2.png,,2,0,2,0,0,10,10,10,,,,,,,,,,,,,,,,,,,,,,,,,False,49,50,False,exp1.png,exp2.png,trial_right_image,-1,exp2.png,2,exp1.png,exp2.png,0,2,non-reversed,incorrect,0.9793099826462937,0,valid_lose,430.4748830003664,38,,,,,,,,,,,,,,,,sub_146,2022-11-02_11h15.57.368,Reversal,2022.1.1,59.895518159822075,2,
11,exp3.png,exp4.png,,2,0,2,0,0,11,11,11,,,,,,,,,,,,,,,,,,,,,,,,,False,50,51,True,exp4.png,exp3.png,trial_right_image,-1,exp3.png,2,exp3.png,exp4.png,1,3,reversed,correct,0.7510532101428541,1,valid_win,435.7416854002513,39,,,,,,,,,,,,,,,,sub_146,2022-11-02_11h15.57.368,Reversal,2022.1.1,59.895518159822075,2,
12,exp1.png,exp2.png,,2,0,2,0,0,12,12,12,,,,,,,,,,,,,,,,,,,,,,,,,False,51,52,False,exp1.png,exp2.png,trial_left_image,1,exp1.png,2,exp1.png,exp2.png,1,1,non-reversed,correct,0.2346981530177199,0,invalid_lose,441.60759430006146,39,,,,,,,,,,,,,,,,sub_146,2022-11-02_11h15.57.368,Reversal,2022.1.1,59.895518159822075,2,
13,exp3.png,exp4.png,,2,0,2,0,0,13,13,13,,,,,,,,,,,,,,,,,,,,,,,,,False,52,53,False,exp3.png,exp4.png,trial_left_image,1,exp3.png,2,exp3.png,exp4.png,1,3,reversed,correct,0.4025675146675459,1,valid_win,447.6229542000219,40,,,,,,,,,,,,,,,,sub_146,2022-11-02_11h15.57.368,Reversal,2022.1.1,59.895518159822075,2,
14,exp1.png,exp2.png,,2,0,2,0,0,14,14,14,,,,,,,,,,,,,,,,,,,,,,,,,False,53,54,False,exp1.png,exp2.png,trial_right_image,-1,exp2.png,2,exp1.png,exp2.png,0,2,non-reversed,incorrect,0.5008567912768502,0,valid_lose,452.87246670015156,40,,,,,,,,,,,,,,,,sub_146,2022-11-02_11h15.57.368,Reversal,2022.1.1,59.895518159822075,2,
15,exp3.png,exp4.png,,2,0,2,0,0,15,15,15,,,,,,,,,,,,,,,,,,,,,,,,,False,54,55,False,exp3.png,exp4.png,trial_left_image,1,exp3.png,2,exp3.png,exp4.png,1,3,reversed,correct,0.4492028392377284,1,valid_win,461.7214427003637,41,,,,,,,,,,,,,,,,sub_146,2022-11-02_11h15.57.368,Reversal,2022.1.1,59.895518159822075,2,
16,exp1.png,exp2.png,,2,0,2,0,0,16,16,16,,,,,,,,,,,,,,,,,,,,,,,,,False,55,56,True,exp2.png,exp1.png,trial_left_image,1,exp2.png,2,exp1.png,exp2.png,0,2,non-reversed,incorrect,0.07760535351308573,1,invalid_win,476.5856417999603,42,,,,,,,,,,,,,,,,sub_146,2022-11-02_11h15.57.368,Reversal,2022.1.1,59.895518159822075,2,
17,exp3.png,exp4.png,,2,0,2,0,0,17,17,17,,,,,,,,,,,,,,,,,,,,,,,,,False,56,57,True,exp4.png,exp3.png,trial_right_image,-1,exp3.png,2,exp3.png,exp4.png,1,3,reversed,correct,0.842109621718211,1,valid_win,484.38451300002635,43,,,,,,,,,,,,,,,,sub_146,2022-11-02_11h15.57.368,Reversal,2022.1.1,59.895518159822075,2,
18,exp1.png,exp2.png,,2,0,2,0,0,18,18,18,,,,,,,,,,,,,,,,,,,,,,,,,False,57,58,False,exp1.png,exp2.png,trial_right_image,-1,exp2.png,2,exp1.png,exp2.png,0,2,non-reversed,incorrect,0.2811483913581194,0,valid_lose,490.6004608999938,43,,,,,,,,,,,,,,,,sub_146,2022-11-02_11h15.57.368,Reversal,2022.1.1,59.895518159822075,2,
19,exp3.png,exp4.png,,2,0,2,0,0,19,19,19,,,,,,,,,,,,,,,,,,,,,,,,,False,58,59,True,exp4.png,exp3.png,trial_right_image,-1,exp3.png,2,exp3.png,exp4.png,1,3,reversed,correct,0.4366499594347719,1,valid_win,497.6176536004059,44,,,,,,,,,,,,,,,,sub_146,2022-11-02_11h15.57.368,Reversal,2022.1.1,59.895518159822075,2,
20,exp1.png,exp2.png,,2,0,2,0,0,20,20,20,,,,,,,,,,,,,,,,,,,,,,,,,False,59,60,True,exp2.png,exp1.png,trial_right_image,-1,exp1.png,2,exp1.png,exp2.png,1,1,non-reversed,correct,0.07140980952961062,0,invalid_lose,506.16518840007484,44,,,,,,,,,,,,,,,,sub_146,2022-11-02_11h15.57.368,Reversal,2022.1.1,59.895518159822075,2,
,,,exp1.png,2,0,2,0,,,,,0,0,0,0,0,0,0,0,,,,,,,,,,,,,,,,,,,,,,,,,,,,,,,,,,,,,,24.0,24.0,7.455201999749988,"[(24.0, 7.455201999749988)]",576.3707866999321,None,,,,,,,,,,sub_146,2022-11-02_11h15.57.368,Reversal,2022.1.1,59.895518159822075,2,
,,,exp2.png,2,0,2,0,,,,,0,0,0,0,0,1,1,1,,,,,,,,,,,,,,,,,,,,,,,,,,,,,,,,,,,,,,,73.0,3.793600299861282,"[(73.0, 3.793600299861282)]",584.9272835999727,None,73.0,,,,,,,,,sub_146,2022-11-02_11h15.57.368,Reversal,2022.1.1,59.895518159822075,2,
,,,exp3.png,2,0,2,0,,,,,0,0,0,0,0,2,2,2,,,,,,,,,,,,,,,,,,,,,,,,,,,,,,,,,,,,,,,100.0,3.0759511003270745,"[(100.0, 3.0759511003270745)]",589.8947302000597,None,,100.0,,,,,,,,sub_146,2022-11-02_11h15.57.368,Reversal,2022.1.1,59.895518159822075,2,
,,,exp4.png,2,0,2,0,,,,,0,0,0,0,0,3,3,3,,,,,,,,,,,,,,,,,,,,,,,,,,,,,,,,,,,,,,,11.0,4.02413190016523,"[(1.0, 2.0741946999914944), (11.0, 4.02413190016523)]",593.9506626003422,None,,,11.0,,,,,,,sub_146,2022-11-02_11h15.57.368,Reversal,2022.1.1,59.895518159822075,2,
0,exp1.png,exp2.png,,3,0,3,0,0,0,0,0,,,,,,,,,,,,,,,,,,,,,,,,,True,,,,,,,,,,,,,,,,,,,,,,,,,,,,,,,,,,,,sub_146,2022-11-02_11h15.57.368,Reversal,2022.1.1,59.895518159822075,2,
1,exp3.png,exp4.png,,3,0,3,0,0,1,1,1,,,,,,,,,,,,,,,,,,,,,,,,,False,60,61,False,exp3.png,exp4.png,trial_right_image,-1,exp4.png,2,exp3.png,exp4.png,0,4,reversed,incorrect,0.09835503438352422,1,invalid_win,551.8924120003358,45,,,,,,,,,,,,,,,,sub_146,2022-11-02_11h15.57.368,Reversal,2022.1.1,59.895518159822075,2,
2,exp1.png,exp2.png,,3,0,3,0,0,2,2,2,,,,,,,,,,,,,,,,,,,,,,,,,False,61,62,False,exp1.png,exp2.png,trial_right_image,-1,exp2.png,2,exp1.png,exp2.png,0,2,non-reversed,incorrect,0.947016393639203,0,valid_lose,578.7390150004067,45,,,,,,,,,,,,,,,,sub_146,2022-11-02_11h15.57.368,Reversal,2022.1.1,59.895518159822075,2,
3,exp3.png,exp4.png,,3,0,3,0,0,3,3,3,,,,,,,,,,,,,,,,,,,,,,,,,False,62,63,True,exp4.png,exp3.png,trial_left_image,1,exp4.png,2,exp3.png,exp4.png,0,4,reversed,incorrect,0.11378969111606574,1,invalid_win,588.0380977001041,46,,,,,,,,,,,,,,,,sub_146,2022-11-02_11h15.57.368,Reversal,2022.1.1,59.895518159822075,2,
4,exp1.png,exp2.png,,3,0,3,0,0,4,4,4,,,,,,,,,,,,,,,,,,,,,,,,,False,63,64,False,exp1.png,exp2.png,trial_right_image,-1,exp2.png,2,exp1.png,exp2.png,0,2,non-reversed,incorrect,0.8083073266493901,0,valid_lose,597.7532236999832,46,,,,,,,,,,,,,,,,sub_146,2022-11-02_11h15.57.368,Reversal,2022.1.1,59.895518159822075,2,
5,exp3.png,exp4.png,,3,0,3,0,0,5,5,5,,,,,,,,,,,,,,,,,,,,,,,,,False,64,65,False,exp3.png,exp4.png,trial_right_image,-1,exp4.png,2,exp3.png,exp4.png,0,4,reversed,incorrect,0.17027794871824198,1,invalid_win,605.5188653003424,47,,,,,,,,,,,,,,,,sub_146,2022-11-02_11h15.57.368,Reversal,2022.1.1,59.895518159822075,2,
6,exp1.png,exp2.png,,3,0,3,0,0,6,6,6,,,,,,,,,,,,,,,,,,,,,,,,,False,65,66,True,exp2.png,exp1.png,trial_right_image,-1,exp1.png,2,exp1.png,exp2.png,1,1,non-reversed,correct,0.9302469072507632,1,valid_win,612.5017580999993,48,,,,,,,,,,,,,,,,sub_146,2022-11-02_11h15.57.368,Reversal,2022.1.1,59.895518159822075,2,
7,exp3.png,exp4.png,,3,0,3,0,0,7,7,7,,,,,,,,,,,,,,,,,,,,,,,,,False,66,67,True,exp4.png,exp3.png,trial_left_image,1,exp4.png,2,exp3.png,exp4.png,0,4,reversed,incorrect,0.31558731626251757,0,valid_lose,628.0326364999637,48,,,,,,,,,,,,,,,,sub_146,2022-11-02_11h15.57.368,Reversal,2022.1.1,59.895518159822075,2,
8,exp1.png,exp2.png,,3,0,3,0,0,8,8,8,,,,,,,,,,,,,,,,,,,,,,,,,False,67,68,True,exp2.png,exp1.png,trial_right_image,-1,exp1.png,2,exp1.png,exp2.png,1,1,non-reversed,correct,0.016520191299273956,0,invalid_lose,636.4323020000011,48,,,,,,,,,,,,,,,,sub_146,2022-11-02_11h15.57.368,Reversal,2022.1.1,59.895518159822075,2,
9,exp3.png,exp4.png,,3,0,3,0,0,9,9,9,,,,,,,,,,,,,,,,,,,,,,,,,False,68,69,True,exp4.png,exp3.png,trial_left_image,1,exp4.png,2,exp3.png,exp4.png,0,4,reversed,incorrect,0.6037054143912635,0,valid_lose,651.9795145001262,48,,,,,,,,,,,,,,,,sub_146,2022-11-02_11h15.57.368,Reversal,2022.1.1,59.895518159822075,2,
10,exp1.png,exp2.png,,3,0,3,0,0,10,10,10,,,,,,,,,,,,,,,,,,,,,,,,,False,69,70,False,exp1.png,exp2.png,trial_right_image,-1,exp2.png,2,exp1.png,exp2.png,0,2,non-reversed,incorrect,0.8513061063380215,0,valid_lose,661.2949597002007,48,,,,,,,,,,,,,,,,sub_146,2022-11-02_11h15.57.368,Reversal,2022.1.1,59.895518159822075,2,
11,exp3.png,exp4.png,,3,0,3,0,0,11,11,11,,,,,,,,,,,,,,,,,,,,,,,,,False,70,71,False,exp3.png,exp4.png,trial_right_image,-1,exp4.png,2,exp3.png,exp4.png,0,4,reversed,incorrect,0.5191855346991567,0,valid_lose,666.8443577000871,48,,,,,,,,,,,,,,,,sub_146,2022-11-02_11h15.57.368,Reversal,2022.1.1,59.895518159822075,2,
12,exp1.png,exp2.png,,3,0,3,0,0,12,12,12,,,,,,,,,,,,,,,,,,,,,,,,,False,71,72,True,exp2.png,exp1.png,trial_left_image,1,exp2.png,2,exp1.png,exp2.png,0,2,non-reversed,incorrect,0.7399454871368253,0,valid_lose,673.1441990002058,48,,,,,,,,,,,,,,,,sub_146,2022-11-02_11h15.57.368,Reversal,2022.1.1,59.895518159822075,2,
13,exp3.png,exp4.png,,3,0,3,0,0,13,13,13,,,,,,,,,,,,,,,,,,,,,,,,,False,72,73,False,exp3.png,exp4.png,trial_left_image,1,exp3.png,2,exp3.png,exp4.png,1,3,reversed,correct,0.7956055360584627,1,valid_win,678.9763593999669,49,,,,,,,,,,,,,,,,sub_146,2022-11-02_11h15.57.368,Reversal,2022.1.1,59.895518159822075,2,
14,exp1.png,exp2.png,,3,0,3,0,0,14,14,14,,,,,,,,,,,,,,,,,,,,,,,,,False,73,74,False,exp1.png,exp2.png,trial_left_image,1,exp1.png,2,exp1.png,exp2.png,1,1,non-reversed,correct,0.5153182888062164,1,valid_win,684.2586426003836,50,,,,,,,,,,,,,,,,sub_146,2022-11-02_11h15.57.368,Reversal,2022.1.1,59.895518159822075,2,
15,exp3.png,exp4.png,,3,0,3,0,0,15,15,15,,,,,,,,,,,,,,,,,,,,,,,,,False,74,75,True,exp4.png,exp3.png,trial_right_image,-1,exp3.png,2,exp3.png,exp4.png,1,3,reversed,correct,0.27703448628410676,1,valid_win,691.0415749000385,51,,,,,,,,,,,,,,,,sub_146,2022-11-02_11h15.57.368,Reversal,2022.1.1,59.895518159822075,2,
16,exp1.png,exp2.png,,3,0,3,0,0,16,16,16,,,,,,,,,,,,,,,,,,,,,,,,,False,75,76,True,exp2.png,exp1.png,trial_right_image,-1,exp1.png,2,exp1.png,exp2.png,1,1,non-reversed,correct,0.41032833203938457,1,valid_win,695.940485900268,52,,,,,,,,,,,,,,,,sub_146,2022-11-02_11h15.57.368,Reversal,2022.1.1,59.895518159822075,2,
17,exp3.png,exp4.png,,3,0,3,0,0,17,17,17,,,,,,,,,,,,,,,,,,,,,,,,,False,76,77,True,exp4.png,exp3.png,trial_right_image,-1,exp3.png,2,exp3.png,exp4.png,1,3,reversed,correct,0.026608148535341214,0,invalid_lose,700.8738369001076,52,,,,,,,,,,,,,,,,sub_146,2022-11-02_11h15.57.368,Reversal,2022.1.1,59.895518159822075,2,
18,exp1.png,exp2.png,,3,0,3,0,0,18,18,18,,,,,,,,,,,,,,,,,,,,,,,,,False,77,78,False,exp1.png,exp2.png,trial_left_image,1,exp1.png,2,exp1.png,exp2.png,1,1,non-reversed,correct,0.9867224136549508,1,valid_win,706.2059065001085,53,,,,,,,,,,,,,,,,sub_146,2022-11-02_11h15.57.368,Reversal,2022.1.1,59.895518159822075,2,
19,exp3.png,exp4.png,,3,0,3,0,0,19,19,19,,,,,,,,,,,,,,,,,,,,,,,,,False,78,79,True,exp4.png,exp3.png,trial_right_image,-1,exp3.png,2,exp3.png,exp4.png,1,3,reversed,correct,0.054101021328615495,0,invalid_lose,713.2548184003681,53,,,,,,,,,,,,,,,,sub_146,2022-11-02_11h15.57.368,Reversal,2022.1.1,59.895518159822075,2,
20,exp1.png,exp2.png,,3,0,3,0,0,20,20,20,,,,,,,,,,,,,,,,,,,,,,,,,False,79,80,False,exp1.png,exp2.png,trial_left_image,1,exp1.png,2,exp1.png,exp2.png,1,1,non-reversed,correct,0.7603557665207675,1,valid_win,723.9041283000261,54,,,,,,,,,,,,,,,,sub_146,2022-11-02_11h15.57.368,Reversal,2022.1.1,59.895518159822075,2,
,,,exp1.png,3,0,3,0,,,,,0,0,0,0,0,0,0,0,,,,,,,,,,,,,,,,,,,,,,,,,,,,,,,,,,,,,,80.0,80.0,15.474734300281852,"[(77.0, 13.80826360033825), (80.0, 15.474734300281852)]",794.0997581998818,None,,,,,,,,,,sub_146,2022-11-02_11h15.57.368,Reversal,2022.1.1,59.895518159822075,2,
,,,exp2.png,3,0,3,0,,,,,0,0,0,0,0,1,1,1,,,,,,,,,,,,,,,,,,,,,,,,,,,,,,,,,,,,,,,50.0,None,[],811.7507178001106,None,,,,,,,,,,sub_146,2022-11-02_11h15.57.368,Reversal,2022.1.1,59.895518159822075,2,
,,,exp3.png,3,0,3,0,,,,,0,0,0,0,0,2,2,2,,,,,,,,,,,,,,,,,,,,,,,,,,,,,,,,,,,,,,,50.0,None,[],816.1161919999868,None,,,,,,,,,,sub_146,2022-11-02_11h15.57.368,Reversal,2022.1.1,59.895518159822075,2,
,,,exp4.png,3,0,3,0,,,,,0,0,0,0,0,3,3,3,,,,,,,,,,,,,,,,,,,,,,,,,,,,,,,,,,,,,,,50.0,None,[],818.8622763999738,None,,,,,,,,,,sub_146,2022-11-02_11h15.57.368,Reversal,2022.1.1,59.895518159822075,2,
0,exp1.png,exp2.png,,,,,,,,,,,,,,,,,,0,0,0,0,0,0,0,0,,,,,,,,,True,,,,,,,,,,,,,,,,,,,,,,,,,,,,,,,,,,,,sub_146,2022-11-02_11h15.57.368,Reversal,2022.1.1,59.895518159822075,2,
1,exp3.png,exp4.png,,,,,,,,,,,,,,,,,,0,0,0,0,0,1,1,1,,,,,,,,,False,0,81,True,exp4.png,exp3.png,trial_left_image,1,exp4.png,2,exp4.png,exp3.png,0,4,reversed,correct,0.05927282333817041,0,invalid_lose,764.6150026000105,54,,,,,,,,,,753.7058302001096,,,,,,sub_146,2022-11-02_11h15.57.368,Reversal,2022.1.1,59.895518159822075,2,
2,exp1.png,exp2.png,,,,,,,,,,,,,,,,,,0,0,0,0,0,2,2,2,,,,,,,,,False,1,82,False,exp1.png,exp2.png,trial_right_image,-1,exp2.png,2,exp1.png,exp2.png,0,2,non-reversed,incorrect,0.44089308672685523,0,valid_lose,771.7140068002045,54,,,,,,,,,,,,,,,,sub_146,2022-11-02_11h15.57.368,Reversal,2022.1.1,59.895518159822075,2,
3,exp3.png,exp4.png,,,,,,,,,,,,,,,,,,0,0,0,0,0,3,3,3,,,,,,,,,False,2,83,True,exp4.png,exp3.png,trial_right_image,-1,exp3.png,2,exp4.png,exp3.png,1,3,reversed,incorrect,0.9923805447500321,0,valid_lose,777.1965846000239,54,,,,,,,,,,,,,,,,sub_146,2022-11-02_11h15.57.368,Reversal,2022.1.1,59.895518159822075,2,
4,exp1.png,exp2.png,,,,,,,,,,,,,,,,,,0,0,0,0,0,4,4,4,,,,,,,,,False,3,84,True,exp2.png,exp1.png,trial_right_image,-1,exp1.png,2,exp1.png,exp2.png,1,1,non-reversed,correct,0.996254368834797,1,valid_win,782.3297001002356,55,,,,,,,,,,,,,,,,sub_146,2022-11-02_11h15.57.368,Reversal,2022.1.1,59.895518159822075,2,
5,exp3.png,exp4.png,,,,,,,,,,,,,,,,,,0,0,0,0,0,5,5,5,,,,,,,,,False,4,85,False,exp3.png,exp4.png,trial_left_image,1,exp3.png,2,exp4.png,exp3.png,1,3,reversed,incorrect,0.2925180205120722,0,valid_lose,787.9956143000163,55,,,,,,,,,,,,,,,,sub_146,2022-11-02_11h15.57.368,Reversal,2022.1.1,59.895518159822075,2,
6,exp1.png,exp2.png,,,,,,,,,,,,,,,,,,0,0,0,0,0,6,6,6,,,,,,,,,False,5,86,True,exp2.png,exp1.png,trial_right_image,-1,exp1.png,2,exp1.png,exp2.png,1,1,non-reversed,correct,0.5367755807997403,1,valid_win,792.7786449003033,56,,,,,,,,,,,,,,,,sub_146,2022-11-02_11h15.57.368,Reversal,2022.1.1,59.895518159822075,2,
7,exp3.png,exp4.png,,,,,,,,,,,,,,,,,,0,0,0,0,0,7,7,7,,,,,,,,,False,6,87,False,exp3.png,exp4.png,trial_left_image,1,exp3.png,2,exp4.png,exp3.png,1,3,reversed,incorrect,0.579785434294866,0,valid_lose,797.6944433003664,56,,,,,,,,,,,,,,,,sub_146,2022-11-02_11h15.57.368,Reversal,2022.1.1,59.895518159822075,2,
8,exp1.png,exp2.png,,,,,,,,,,,,,,,,,,0,0,0,0,0,8,8,8,,,,,,,,,False,7,88,True,exp2.png,exp1.png,trial_right_image,-1,exp1.png,2,exp1.png,exp2.png,1,1,non-reversed,correct,0.0358897028707017,0,invalid_lose,802.593738600146,56,,,,,,,,,,,,,,,,sub_146,2022-11-02_11h15.57.368,Reversal,2022.1.1,59.895518159822075,2,
9,exp3.png,exp4.png,,,,,,,,,,,,,,,,,,0,0,0,0,0,9,9,9,,,,,,,,,False,8,89,False,exp3.png,exp4.png,trial_right_image,-1,exp4.png,2,exp4.png,exp3.png,0,4,reversed,correct,0.9834805693355544,1,valid_win,808.5425161002204,57,,,,,,,,,,,,,,,,sub_146,2022-11-02_11h15.57.368,Reversal,2022.1.1,59.895518159822075,2,
10,exp1.png,exp2.png,,,,,,,,,,,,,,,,,,0,0,0,0,0,10,10,10,,,,,,,,,False,9,90,False,exp1.png,exp2.png,trial_left_image,1,exp1.png,2,exp1.png,exp2.png,1,1,non-reversed,correct,0.09654983876684531,0,invalid_lose,814.2417112002149,57,,,,,,,,,,,,,,,,sub_146,2022-11-02_11h15.57.368,Reversal,2022.1.1,59.895518159822075,2,
11,exp3.png,exp4.png,,,,,,,,,,,,,,,,,,0,0,0,0,0,11,11,11,,,,,,,,,False,10,91,False,exp3.png,exp4.png,trial_left_image,1,exp3.png,2,exp4.png,exp3.png,1,3,reversed,incorrect,0.9641255838859626,0,valid_lose,820.2577988002449,57,,,,,,,,,,,,,,,,sub_146,2022-11-02_11h15.57.368,Reversal,2022.1.1,59.895518159822075,2,
12,exp1.png,exp2.png,,,,,,,,,,,,,,,,,,0,0,0,0,0,12,12,12,,,,,,,,,False,11,92,False,exp1.png,exp2.png,trial_right_image,-1,exp2.png,2,exp1.png,exp2.png,0,2,non-reversed,incorrect,0.19655786912640183,1,invalid_win,826.1571341999806,58,,,,,,,,,,,,,,,,sub_146,2022-11-02_11h15.57.368,Reversal,2022.1.1,59.895518159822075,2,
13,exp3.png,exp4.png,,,,,,,,,,,,,,,,,,0,0,0,0,0,13,13,13,,,,,,,,,False,12,93,False,exp3.png,exp4.png,trial_right_image,-1,exp4.png,2,exp4.png,exp3.png,0,4,reversed,correct,0.9992938515134633,1,valid_win,843.8882724000141,59,,,,,,,,,,,,,,,,sub_146,2022-11-02_11h15.57.368,Reversal,2022.1.1,59.895518159822075,2,
14,exp1.png,exp2.png,,,,,,,,,,,,,,,,,,0,0,0,0,0,14,14,14,,,,,,,,,False,13,94,False,exp1.png,exp2.png,trial_left_image,1,exp1.png,2,exp1.png,exp2.png,1,1,non-reversed,correct,0.6828697005086286,1,valid_win,849.1210166001692,60,,,,,,,,,,,,,,,,sub_146,2022-11-02_11h15.57.368,Reversal,2022.1.1,59.895518159822075,2,
15,exp3.png,exp4.png,,,,,,,,,,,,,,,,,,0,0,0,0,0,15,15,15,,,,,,,,,False,14,95,True,exp4.png,exp3.png,trial_right_image,-1,exp3.png,2,exp4.png,exp3.png,1,3,reversed,incorrect,0.5555988756855119,0,valid_lose,853.5535913002677,60,,,,,,,,,,,,,,,,sub_146,2022-11-02_11h15.57.368,Reversal,2022.1.1,59.895518159822075,2,
16,exp1.png,exp2.png,,,,,,,,,,,,,,,,,,0,0,0,0,0,16,16,16,,,,,,,,,False,15,96,True,exp2.png,exp1.png,trial_left_image,1,exp2.png,2,exp1.png,exp2.png,0,2,non-reversed,incorrect,0.30780483339910214,0,valid_lose,858.1693724002689,60,,,,,,,,,,,,,,,,sub_146,2022-11-02_11h15.57.368,Reversal,2022.1.1,59.895518159822075,2,
17,exp3.png,exp4.png,,,,,,,,,,,,,,,,,,0,0,0,0,0,17,17,17,,,,,,,,,False,16,97,False,exp3.png,exp4.png,trial_right_image,-1,exp4.png,2,exp4.png,exp3.png,0,4,reversed,correct,0.4111152066461343,1,valid_win,881.5003697001375,61,,,,,,,,,,,,,,,,sub_146,2022-11-02_11h15.57.368,Reversal,2022.1.1,59.895518159822075,2,
18,exp1.png,exp2.png,,,,,,,,,,,,,,,,,,0,0,0,0,0,18,18,18,,,,,,,,,False,17,98,True,exp2.png,exp1.png,trial_left_image,1,exp2.png,2,exp1.png,exp2.png,0,2,non-reversed,incorrect,0.13908674408649857,1,invalid_win,886.7837571003474,62,,,,,,,,,,,,,,,,sub_146,2022-11-02_11h15.57.368,Reversal,2022.1.1,59.895518159822075,2,
19,exp3.png,exp4.png,,,,,,,,,,,,,,,,,,0,0,0,0,0,19,19,19,,,,,,,,,False,18,99,True,exp4.png,exp3.png,trial_left_image,1,exp4.png,2,exp4.png,exp3.png,0,4,reversed,correct,0.9948019879961256,1,valid_win,891.4671788001433,63,,,,,,,,,,,,,,,,sub_146,2022-11-02_11h15.57.368,Reversal,2022.1.1,59.895518159822075,2,
20,exp1.png,exp2.png,,,,,,,,,,,,,,,,,,0,0,0,0,0,20,20,20,,,,,,,,,False,19,100,True,exp2.png,exp1.png,trial_left_image,1,exp2.png,2,exp1.png,exp2.png,0,2,non-reversed,incorrect,0.04319318239418812,1,invalid_win,895.8654430001043,64,,,,,,,,,,,,,,,,sub_146,2022-11-02_11h15.57.368,Reversal,2022.1.1,59.895518159822075,2,
,,,exp1.png,,,,,,,,,,,,,,,,,0,0,0,0,,,,,0,0,0,0,0,0,0,0,,,,,,,,,,,,,,,,,,,,,,,50.0,None,[],966.0975240003318,None,,,,,,,,,,sub_146,2022-11-02_11h15.57.368,Reversal,2022.1.1,59.895518159822075,2,
,,,exp2.png,,,,,,,,,,,,,,,,,0,0,0,0,,,,,0,0,0,0,0,1,1,1,,,,,,,,,,,,,,,,,,,,,,,50.0,None,[],990.3006814001128,None,,,,,,,,,,sub_146,2022-11-02_11h15.57.368,Reversal,2022.1.1,59.895518159822075,2,
,,,exp3.png,,,,,,,,,,,,,,,,,0,0,0,0,,,,,0,0,0,0,0,2,2,2,,,,,,,,,,,,,,,,,,,,,,,50.0,None,[],991.2277827002108,None,,,,,,,,,,sub_146,2022-11-02_11h15.57.368,Reversal,2022.1.1,59.895518159822075,2,
,,,exp4.png,,,,,,,,,,,,,,,,,0,0,0,0,,,,,0,0,0,0,0,3,3,3,,,,,,,,,,,,,,,,,,,,,,,50.0,None,[],992.0499142003246,None,,,,,,,,,,sub_146,2022-11-02_11h15.57.368,Reversal,2022.1.1,59.895518159822075,2,
0,exp1.png,exp2.png,,,,,,,,,,,,,,,,,,1,0,1,0,0,0,0,0,,,,,,,,,True,,,,,,,,,,,,,,,,,,,,,,,,,,,,,,,,,,,,sub_146,2022-11-02_11h15.57.368,Reversal,2022.1.1,59.895518159822075,2,
1,exp3.png,exp4.png,,,,,,,,,,,,,,,,,,1,0,1,0,0,1,1,1,,,,,,,,,False,20,101,True,exp4.png,exp3.png,trial_left_image,1,exp4.png,2,exp4.png,exp3.png,0,4,reversed,correct,0.6398723911427167,1,valid_win,951.0916622001678,65,,,,,,,,,,,,,,,,sub_146,2022-11-02_11h15.57.368,Reversal,2022.1.1,59.895518159822075,2,
2,exp1.png,exp2.png,,,,,,,,,,,,,,,,,,1,0,1,0,0,2,2,2,,,,,,,,,False,21,102,False,exp1.png,exp2.png,trial_right_image,-1,exp2.png,2,exp1.png,exp2.png,0,2,non-reversed,incorrect,0.5684092106557265,0,valid_lose,958.2570708002895,65,,,,,,,,,,,,,,,,sub_146,2022-11-02_11h15.57.368,Reversal,2022.1.1,59.895518159822075,2,
3,exp3.png,exp4.png,,,,,,,,,,,,,,,,,,1,0,1,0,0,3,3,3,,,,,,,,,False,22,103,False,exp3.png,exp4.png,trial_right_image,-1,exp4.png,2,exp4.png,exp3.png,0,4,reversed,correct,0.6351865866878945,1,valid_win,965.8897951003164,66,,,,,,,,,,,,,,,,sub_146,2022-11-02_11h15.57.368,Reversal,2022.1.1,59.895518159822075,2,
4,exp1.png,exp2.png,,,,,,,,,,,,,,,,,,1,0,1,0,0,4,4,4,,,,,,,,,False,23,104,False,exp1.png,exp2.png,trial_right_image,-1,exp2.png,2,exp1.png,exp2.png,0,2,non-reversed,incorrect,0.42626649805538264,0,valid_lose,971.6387031003833,66,,,,,,,,,,,,,,,,sub_146,2022-11-02_11h15.57.368,Reversal,2022.1.1,59.895518159822075,2,
5,exp3.png,exp4.png,,,,,,,,,,,,,,,,,,1,0,1,0,0,5,5,5,,,,,,,,,False,24,105,True,exp4.png,exp3.png,trial_left_image,1,exp4.png,2,exp4.png,exp3.png,0,4,reversed,correct,0.23905680860994205,0,invalid_lose,980.1055458001792,66,,,,,,,,,,,,,,,,sub_146,2022-11-02_11h15.57.368,Reversal,2022.1.1,59.895518159822075,2,
6,exp1.png,exp2.png,,,,,,,,,,,,,,,,,,1,0,1,0,0,6,6,6,,,,,,,,,False,25,106,True,exp2.png,exp1.png,trial_left_image,1,exp2.png,2,exp1.png,exp2.png,0,2,non-reversed,incorrect,0.03892277313574921,1,invalid_win,985.7543181004003,67,,,,,,,,,,,,,,,,sub_146,2022-11-02_11h15.57.368,Reversal,2022.1.1,59.895518159822075,2,
7,exp3.png,exp4.png,,,,,,,,,,,,,,,,,,1,0,1,0,0,7,7,7,,,,,,,,,False,26,107,True,exp4.png,exp3.png,trial_left_image,1,exp4.png,2,exp4.png,exp3.png,0,4,reversed,correct,0.5339473763337153,1,valid_win,995.7531298999675,68,,,,,,,,,,,,,,,,sub_146,2022-11-02_11h15.57.368,Reversal,2022.1.1,59.895518159822075,2,
8,exp1.png,exp2.png,,,,,,,,,,,,,,,,,,1,0,1,0,0,8,8,8,,,,,,,,,False,27,108,False,exp1.png,exp2.png,trial_right_image,-1,exp2.png,2,exp1.png,exp2.png,0,2,non-reversed,incorrect,0.36893759729765985,0,valid_lose,1002.6519402000122,68,,,,,,,,,,,,,,,,sub_146,2022-11-02_11h15.57.368,Reversal,2022.1.1,59.895518159822075,2,
9,exp3.png,exp4.png,,,,,,,,,,,,,,,,,,1,0,1,0,0,9,9,9,,,,,,,,,False,28,109,True,exp4.png,exp3.png,trial_left_image,1,exp4.png,2,exp4.png,exp3.png,0,4,reversed,correct,0.11409425413959284,0,invalid_lose,1008.4676990001462,68,,,,,,,,,,,,,,,,sub_146,2022-11-02_11h15.57.368,Reversal,2022.1.1,59.895518159822075,2,
10,exp1.png,exp2.png,,,,,,,,,,,,,,,,,,1,0,1,0,0,10,10,10,,,,,,,,,False,29,110,True,exp2.png,exp1.png,trial_left_image,1,exp2.png,2,exp1.png,exp2.png,0,2,non-reversed,incorrect,0.6368918165666673,0,valid_lose,1015.2324508000165,68,,,,,,,,,,,,,,,,sub_146,2022-11-02_11h15.57.368,Reversal,2022.1.1,59.895518159822075,2,
11,exp3.png,exp4.png,,,,,,,,,,,,,,,,,,1,0,1,0,0,11,11,11,,,,,,,,,False,30,111,False,exp3.png,exp4.png,trial_right_image,-1,exp4.png,2,exp4.png,exp3.png,0,4,reversed,correct,0.7149475669307767,1,valid_win,1020.1998795000836,69,,,,,,,,,,,,,,,,sub_146,2022-11-02_11h15.57.368,Reversal,2022.1.1,59.895518159822075,2,
12,exp1.png,exp2.png,,,,,,,,,,,,,,,,,,1,0,1,0,0,12,12,12,,,,,,,,,False,31,112,False,exp1.png,exp2.png,trial_right_image,-1,exp2.png,2,exp1.png,exp2.png,0,2,non-reversed,incorrect,0.9260725514980479,0,valid_lose,1025.1010489002801,69,,,,,,,,,,,,,,,,sub_146,2022-11-02_11h15.57.368,Reversal,2022.1.1,59.895518159822075,2,
13,exp3.png,exp4.png,,,,,,,,,,,,,,,,,,1,0,1,0,0,13,13,13,,,,,,,,,False,32,113,True,exp4.png,exp3.png,trial_left_image,1,exp4.png,2,exp4.png,exp3.png,0,4,reversed,correct,0.0348271806735877,0,invalid_lose,1029.4319256003946,69,,,,,,,,,,,,,,,,sub_146,2022-11-02_11h15.57.368,Reversal,2022.1.1,59.895518159822075,2,
14,exp1.png,exp2.png,,,,,,,,,,,,,,,,,,1,0,1,0,0,14,14,14,,,,,,,,,False,33,114,False,exp1.png,exp2.png,trial_right_image,-1,exp2.png,2,exp1.png,exp2.png,0,2,non-reversed,incorrect,0.8592913105933095,0,valid_lose,1037.913875900209,69,,,,,,,,,,,,,,,,sub_146,2022-11-02_11h15.57.368,Reversal,2022.1.1,59.895518159822075,2,
15,exp3.png,exp4.png,,,,,,,,,,,,,,,,,,1,0,1,0,0,15,15,15,,,,,,,,,False,34,115,True,exp4.png,exp3.png,trial_left_image,1,exp4.png,2,exp4.png,exp3.png,0,4,reversed,correct,0.36684097298813023,1,valid_win,1043.4295843001455,70,,,,,,,,,,,,,,,,sub_146,2022-11-02_11h15.57.368,Reversal,2022.1.1,59.895518159822075,2,
16,exp1.png,exp2.png,,,,,,,,,,,,,,,,,,1,0,1,0,0,16,16,16,,,,,,,,,False,35,116,True,exp2.png,exp1.png,trial_left_image,1,exp2.png,2,exp1.png,exp2.png,0,2,non-reversed,incorrect,0.20364713953268754,1,invalid_win,1048.529763400089,71,,,,,,,,,,,,,,,,sub_146,2022-11-02_11h15.57.368,Reversal,2022.1.1,59.895518159822075,2,
17,exp3.png,exp4.png,,,,,,,,,,,,,,,,,,1,0,1,0,0,17,17,17,,,,,,,,,False,36,117,False,exp3.png,exp4.png,trial_right_image,-1,exp4.png,2,exp4.png,exp3.png,0,4,reversed,correct,0.7907464097485255,1,valid_win,1054.5294162002392,72,,,,,,,,,,,,,,,,sub_146,2022-11-02_11h15.57.368,Reversal,2022.1.1,59.895518159822075,2,
18,exp1.png,exp2.png,,,,,,,,,,,,,,,,,,1,0,1,0,0,18,18,18,,,,,,,,,False,37,118,False,exp1.png,exp2.png,trial_right_image,-1,exp2.png,2,exp1.png,exp2.png,0,2,non-reversed,incorrect,0.6704466162041386,0,valid_lose,1060.444372900296,72,,,,,,,,,,,,,,,,sub_146,2022-11-02_11h15.57.368,Reversal,2022.1.1,59.895518159822075,2,
19,exp3.png,exp4.png,,,,,,,,,,,,,,,,,,1,0,1,0,0,19,19,19,,,,,,,,,False,38,119,False,exp3.png,exp4.png,trial_right_image,-1,exp4.png,2,exp4.png,exp3.png,0,4,reversed,correct,0.061295038247123235,0,invalid_lose,1067.5932606002316,72,,,,,,,,,,,,,,,,sub_146,2022-11-02_11h15.57.368,Reversal,2022.1.1,59.895518159822075,2,
20,exp1.png,exp2.png,,,,,,,,,,,,,,,,,,1,0,1,0,0,20,20,20,,,,,,,,,False,39,120,True,exp2.png,exp1.png,trial_left_image,1,exp2.png,2,exp1.png,exp2.png,0,2,non-reversed,incorrect,0.31507674801758656,0,valid_lose,1076.293985400349,72,,,,,,,,,,,,,,,,sub_146,2022-11-02_11h15.57.368,Reversal,2022.1.1,59.895518159822075,2,
,,,exp1.png,,,,,,,,,,,,,,,,,1,0,1,0,,,,,0,0,0,0,0,0,0,0,,,,,,,,,,,,,,,,,,,,,,92.0,92.0,6.917624699883163,"[(92.0, 6.917624699883163)]",1146.5159265999682,None,,,,,,,,,,sub_146,2022-11-02_11h15.57.368,Reversal,2022.1.1,59.895518159822075,2,
,,,exp2.png,,,,,,,,,,,,,,,,,1,0,1,0,,,,,0,0,0,0,0,1,1,1,,,,,,,,,,,,,,,,,,,,,,,14.0,8.340492899995297,"[(9.0, 5.640428899787366), (14.0, 8.340492899995297)]",1154.6905625001527,None,14.0,,,,,,,,,sub_146,2022-11-02_11h15.57.368,Reversal,2022.1.1,59.895518159822075,2,
,,,exp3.png,,,,,,,,,,,,,,,,,1,0,1,0,,,,,0,0,0,0,0,2,2,2,,,,,,,,,,,,,,,,,,,,,,,89.0,3.6900164000689983,"[(89.0, 3.6900164000689983)]",1164.3769755000249,None,,89.0,,,,,,,,sub_146,2022-11-02_11h15.57.368,Reversal,2022.1.1,59.895518159822075,2,
,,,exp4.png,,,,,,,,,,,,,,,,,1,0,1,0,,,,,0,0,0,0,0,3,3,3,,,,,,,,,,,,,,,,,,,,,,,11.0,2.168343700002879,"[(11.0, 2.168343700002879)]",1169.3281952999532,None,,,11.0,,,,,,,sub_146,2022-11-02_11h15.57.368,Reversal,2022.1.1,59.895518159822075,2,
0,exp1.png,exp2.png,,,,,,,,,,,,,,,,,,2,0,2,0,0,0,0,0,,,,,,,,,True,,,,,,,,,,,,,,,,,,,,,,,,,,,,,,,,,,,,sub_146,2022-11-02_11h15.57.368,Reversal,2022.1.1,59.895518159822075,2,
1,exp3.png,exp4.png,,,,,,,,,,,,,,,,,,2,0,2,0,0,1,1,1,,,,,,,,,False,40,121,True,exp4.png,exp3.png,trial_left_image,1,exp4.png,2,exp4.png,exp3.png,0,4,reversed,correct,0.9742477135658879,1,valid_win,1125.235248300247,73,,,,,,,,,,,,,,,,sub_146,2022-11-02_11h15.57.368,Reversal,2022.1.1,59.895518159822075,2,
2,exp1.png,exp2.png,,,,,,,,,,,,,,,,,,2,0,2,0,0,2,2,2,,,,,,,,,False,41,122,False,exp1.png,exp2.png,trial_right_image,-1,exp2.png,2,exp1.png,exp2.png,0,2,non-reversed,incorrect,0.35412874373041114,0,valid_lose,1137.2012463002466,73,,,,,,,,,,,,,,,,sub_146,2022-11-02_11h15.57.368,Reversal,2022.1.1,59.895518159822075,2,
3,exp3.png,exp4.png,,,,,,,,,,,,,,,,,,2,0,2,0,0,3,3,3,,,,,,,,,False,42,123,True,exp4.png,exp3.png,trial_left_image,1,exp4.png,2,exp4.png,exp3.png,0,4,reversed,correct,0.8512201900814865,1,valid_win,1148.7160964002833,74,,,,,,,,,,,,,,,,sub_146,2022-11-02_11h15.57.368,Reversal,2022.1.1,59.895518159822075,2,
4,exp1.png,exp2.png,,,,,,,,,,,,,,,,,,2,0,2,0,0,4,4,4,,,,,,,,,False,43,124,False,exp1.png,exp2.png,trial_right_image,-1,exp2.png,2,exp1.png,exp2.png,0,2,non-reversed,incorrect,0.6890761915850655,0,valid_lose,1154.53312750021,74,,,,,,,,,,,,,,,,sub_146,2022-11-02_11h15.57.368,Reversal,2022.1.1,59.895518159822075,2,
5,exp3.png,exp4.png,,,,,,,,,,,,,,,,,,2,0,2,0,0,5,5,5,,,,,,,,,False,44,125,False,exp3.png,exp4.png,trial_right_image,-1,exp4.png,2,exp4.png,exp3.png,0,4,reversed,correct,0.16203048473222348,0,invalid_lose,1162.7310220999643,74,,,,,,,,,,,,,,,,sub_146,2022-11-02_11h15.57.368,Reversal,2022.1.1,59.895518159822075,2,
6,exp1.png,exp2.png,,,,,,,,,,,,,,,,,,2,0,2,0,0,6,6,6,,,,,,,,,False,45,126,False,exp1.png,exp2.png,trial_right_image,-1,exp2.png,2,exp1.png,exp2.png,0,2,non-reversed,incorrect,0.3128271294467617,0,valid_lose,1167.9306783000939,74,,,,,,,,,,,,,,,,sub_146,2022-11-02_11h15.57.368,Reversal,2022.1.1,59.895518159822075,2,
7,exp3.png,exp4.png,,,,,,,,,,,,,,,,,,2,0,2,0,0,7,7,7,,,,,,,,,False,46,127,True,exp4.png,exp3.png,trial_left_image,1,exp4.png,2,exp4.png,exp3.png,0,4,reversed,correct,0.49904625007500514,1,valid_win,1173.446292000357,75,,,,,,,,,,,,,,,,sub_146,2022-11-02_11h15.57.368,Reversal,2022.1.1,59.895518159822075,2,
8,exp1.png,exp2.png,,,,,,,,,,,,,,,,,,2,0,2,0,0,8,8,8,,,,,,,,,False,47,128,False,exp1.png,exp2.png,trial_right_image,-1,exp2.png,2,exp1.png,exp2.png,0,2,non-reversed,incorrect,0.34561445814324543,0,valid_lose,1178.3130217003636,75,,,,,,,,,,,,,,,,sub_146,2022-11-02_11h15.57.368,Reversal,2022.1.1,59.895518159822075,2,
9,exp3.png,exp4.png,,,,,,,,,,,,,,,,,,2,0,2,0,0,9,9,9,,,,,,,,,False,48,129,True,exp4.png,exp3.png,trial_left_image,1,exp4.png,2,exp4.png,exp3.png,0,4,reversed,correct,0.20703629861687112,0,invalid_lose,1183.677835999988,75,,,,,,,,,,,,,,,,sub_146,2022-11-02_11h15.57.368,Reversal,2022.1.1,59.895518159822075,2,
10,exp1.png,exp2.png,,,,,,,,,,,,,,,,,,2,0,2,0,0,10,10,10,,,,,,,,,False,49,130,False,exp1.png,exp2.png,trial_right_image,-1,exp2.png,2,exp1.png,exp2.png,0,2,non-reversed,incorrect,0.17304426713130616,1,invalid_win,1189.0274813999422,76,,,,,,,,,,,,,,,,sub_146,2022-11-02_11h15.57.368,Reversal,2022.1.1,59.895518159822075,2,
11,exp3.png,exp4.png,,,,,,,,,,,,,,,,,,2,0,2,0,0,11,11,11,,,,,,,,,False,50,131,True,exp4.png,exp3.png,trial_left_image,1,exp4.png,2,exp4.png,exp3.png,0,4,reversed,correct,0.5213136411240273,1,valid_win,1196.1783545003273,77,,,,,,,,,,,,,,,,sub_146,2022-11-02_11h15.57.368,Reversal,2022.1.1,59.895518159822075,2,
12,exp1.png,exp2.png,,,,,,,,,,,,,,,,,,2,0,2,0,0,12,12,12,,,,,,,,,False,51,132,True,exp2.png,exp1.png,trial_left_image,1,exp2.png,2,exp1.png,exp2.png,0,2,non-reversed,incorrect,0.8264182149663057,0,valid_lose,1201.4616454001516,77,,,,,,,,,,,,,,,,sub_146,2022-11-02_11h15.57.368,Reversal,2022.1.1,59.895518159822075,2,
13,exp3.png,exp4.png,,,,,,,,,,,,,,,,,,2,0,2,0,0,13,13,13,,,,,,,,,False,52,133,True,exp4.png,exp3.png,trial_left_image,1,exp4.png,2,exp4.png,exp3.png,0,4,reversed,correct,0.4390412211366366,1,valid_win,1207.2250423999503,78,,,,,,,,,,,,,,,,sub_146,2022-11-02_11h15.57.368,Reversal,2022.1.1,59.895518159822075,2,
14,exp1.png,exp2.png,,,,,,,,,,,,,,,,,,2,0,2,0,0,14,14,14,,,,,,,,,False,53,134,False,exp1.png,exp2.png,trial_right_image,-1,exp2.png,2,exp1.png,exp2.png,0,2,non-reversed,incorrect,0.08459318191586729,1,invalid_win,1213.940390100237,79,,,,,,,,,,,,,,,,sub_146,2022-11-02_11h15.57.368,Reversal,2022.1.1,59.895518159822075,2,
15,exp3.png,exp4.png,,,,,,,,,,,,,,,,,,2,0,2,0,0,15,15,15,,,,,,,,,False,54,135,True,exp4.png,exp3.png,trial_left_image,1,exp4.png,2,exp4.png,exp3.png,0,4,reversed,correct,0.7365748410459688,1,valid_win,1218.3238038001582,80,,,,,,,,,,,,,,,,sub_146,2022-11-02_11h15.57.368,Reversal,2022.1.1,59.895518159822075,2,
16,exp1.png,exp2.png,,,,,,,,,,,,,,,,,,2,0,2,0,0,16,16,16,,,,,,,,,False,55,136,True,exp2.png,exp1.png,trial_left_image,1,exp2.png,2,exp1.png,exp2.png,0,2,non-reversed,incorrect,0.6205152104005626,0,valid_lose,1222.8730332003906,80,,,,,,,,,,,,,,,,sub_146,2022-11-02_11h15.57.368,Reversal,2022.1.1,59.895518159822075,2,
17,exp3.png,exp4.png,,,,,,,,,,,,,,,,,,2,0,2,0,0,17,17,17,,,,,,,,,False,56,137,True,exp4.png,exp3.png,trial_left_image,1,exp4.png,2,exp4.png,exp3.png,0,4,reversed,correct,0.33409620719450717,1,valid_win,1227.8557978002355,81,,,,,,,,,,,,,,,,sub_146,2022-11-02_11h15.57.368,Reversal,2022.1.1,59.895518159822075,2,
18,exp1.png,exp2.png,,,,,,,,,,,,,,,,,,2,0,2,0,0,18,18,18,,,,,,,,,False,57,138,False,exp1.png,exp2.png,trial_right_image,-1,exp2.png,2,exp1.png,exp2.png,0,2,non-reversed,incorrect,0.8725617881454963,0,valid_lose,1233.4882096000947,81,,,,,,,,,,,,,,,,sub_146,2022-11-02_11h15.57.368,Reversal,2022.1.1,59.895518159822075,2,
19,exp3.png,exp4.png,,,,,,,,,,,,,,,,,,2,0,2,0,0,19,19,19,,,,,,,,,False,58,139,False,exp3.png,exp4.png,trial_right_image,-1,exp4.png,2,exp4.png,exp3.png,0,4,reversed,correct,0.36139091631753417,1,valid_win,1245.2535700001754,82,,,,,,,,,,,,,,,,sub_146,2022-11-02_11h15.57.368,Reversal,2022.1.1,59.895518159822075,2,
20,exp1.png,exp2.png,,,,,,,,,,,,,,,,,,2,0,2,0,0,20,20,20,,,,,,,,,False,59,140,False,exp1.png,exp2.png,trial_right_image,-1,exp2.png,2,exp1.png,exp2.png,0,2,non-reversed,incorrect,0.4678186193424356,0,valid_lose,1252.8521207999438,82,,,,,,,,,,,,,,,,sub_146,2022-11-02_11h15.57.368,Reversal,2022.1.1,59.895518159822075,2,
,,,exp1.png,,,,,,,,,,,,,,,,,2,0,2,0,,,,,0,0,0,0,0,0,0,0,,,,,,,,,,,,,,,,,,,,,,92.0,92.0,14.159463100135326,"[(92.0, 14.159463100135326)]",1323.0655765002593,None,,,,,,,,,,sub_146,2022-11-02_11h15.57.368,Reversal,2022.1.1,59.895518159822075,2,
,,,exp2.png,,,,,,,,,,,,,,,,,2,0,2,0,,,,,0,0,0,0,0,1,1,1,,,,,,,,,,,,,,,,,,,,,,,9.0,3.806400999892503,"[(9.0, 3.806400999892503)]",1338.2362854001112,None,9.0,,,,,,,,,sub_146,2022-11-02_11h15.57.368,Reversal,2022.1.1,59.895518159822075,2,
,,,exp3.png,,,,,,,,,,,,,,,,,2,0,2,0,,,,,0,0,0,0,0,2,2,2,,,,,,,,,,,,,,,,,,,,,,,93.0,3.5575152998790145,"[(93.0, 3.5575152998790145)]",1343.0676842001267,None,,93.0,,,,,,,,sub_146,2022-11-02_11h15.57.368,Reversal,2022.1.1,59.895518159822075,2,
,,,exp4.png,,,,,,,,,,,,,,,,,2,0,2,0,,,,,0,0,0,0,0,3,3,3,,,,,,,,,,,,,,,,,,,,,,,92.0,18.570915800053626,"[(11.0, 7.238799000158906), (92.0, 18.570915800053626)]",1348.349432399962,None,,,92.0,,,,,,,sub_146,2022-11-02_11h15.57.368,Reversal,2022.1.1,59.895518159822075,2,
,,,,,,,,,,,,,,,,,,,,,,,,,,,,,,,,,,,,,,,,,,,,,,,,,,,,,,,,82,,,,,,,,,,,89,59,30,546.3262597001158,1,,,,,,,
