trial_index,trial_image1_file,trial_image2_file,image_file,learning_outer_loop.thisRepN,learning_outer_loop.thisTrialN,learning_outer_loop.thisN,learning_outer_loop.thisIndex,learning_inner_loop.thisRepN,learning_inner_loop.thisTrialN,learning_inner_loop.thisN,learning_inner_loop.thisIndex,learning_estimation_outer_loop.thisRepN,learning_estimation_outer_loop.thisTrialN,learning_estimation_outer_loop.thisN,learning_estimation_outer_loop.thisIndex,learning_estimation_inner_loop.thisRepN,learning_estimation_inner_loop.thisTrialN,learning_estimation_inner_loop.thisN,learning_estimation_inner_loop.thisIndex,reversal_outer_loop.thisRepN,reversal_outer_loop.thisTrialN,reversal_outer_loop.thisN,reversal_outer_loop.thisIndex,reversal_inner_loop.thisRepN,reversal_inner_loop.thisTrialN,reversal_inner_loop.thisN,reversal_inner_loop.thisIndex,reversal_estimation_outer_loop.thisRepN,reversal_estimation_outer_loop.thisTrialN,reversal_estimation_outer_loop.thisN,reversal_estimation_outer_loop.thisIndex,reversal_estimation_inner_loop.thisRepN,reversal_estimation_inner_loop.thisTrialN,reversal_estimation_inner_loop.thisN,reversal_estimation_inner_loop.thisIndex,skipped,total_trial_counter,trial_num,left_right_flip,left_image_file,right_image_file,clicked_stimulus_side,side,clicked_stimulus,version,high_prob_image_file,low_prob_image_file,choice_a,choice_b,pair_type,correct,trial_feedback_random,reward,trial_type,overall_time_after_trial,score,estimation_rating.response,estimation_rating.rt,estimation_rating.history,estimation_rating.started,estimation_rating.stopped,estimation_exp2.png,estimation_exp3.png,estimation_exp4.png,estimation_exp1.png,total_learning_time,total_correct,learning_correct,reversal_correct,total_reversal_time,extra_block,participant,date,expName,psychopyVersion,frameRate,ver,
0,exp1.png,exp2.png,,0,0,0,0,0,0,0,0,,,,,,,,,,,,,,,,,,,,,,,,,True,,,,,,,,,,,,,,,,,,,,,,,,,,,,,,,,,,,,sub_284,2022-12-21_12h48.24.296,Reversal,2022.1.1,59.85507887351414,4,
1,exp3.png,exp4.png,,0,0,0,0,0,1,1,1,,,,,,,,,,,,,,,,,,,,,,,,,False,0,1,True,exp4.png,exp3.png,trial_right_image,-1,exp3.png,4,exp4.png,exp3.png,0,4,reversed,incorrect,0.1789049375841334,1,invalid_win,10.246981299947947,1,,,,,,,,,,,,,,,,sub_284,2022-12-21_12h48.24.296,Reversal,2022.1.1,59.85507887351414,4,
2,exp1.png,exp2.png,,0,0,0,0,0,2,2,2,,,,,,,,,,,,,,,,,,,,,,,,,False,1,2,True,exp2.png,exp1.png,trial_left_image,1,exp2.png,4,exp2.png,exp1.png,1,1,non-reversed,correct,0.6503814262505487,1,valid_win,16.246605699998327,2,,,,,,,,,,,,,,,,sub_284,2022-12-21_12h48.24.296,Reversal,2022.1.1,59.85507887351414,4,
3,exp3.png,exp4.png,,0,0,0,0,0,3,3,3,,,,,,,,,,,,,,,,,,,,,,,,,False,2,3,True,exp4.png,exp3.png,trial_right_image,-1,exp3.png,4,exp4.png,exp3.png,0,4,reversed,incorrect,0.4293026062765658,0,valid_lose,22.730193499999586,2,,,,,,,,,,,,,,,,sub_284,2022-12-21_12h48.24.296,Reversal,2022.1.1,59.85507887351414,4,
4,exp1.png,exp2.png,,0,0,0,0,0,4,4,4,,,,,,,,,,,,,,,,,,,,,,,,,False,3,4,True,exp2.png,exp1.png,trial_right_image,-1,exp1.png,4,exp2.png,exp1.png,0,2,non-reversed,incorrect,0.0070388046085090306,1,invalid_win,31.328190899977926,3,,,,,,,,,,,,,,,,sub_284,2022-12-21_12h48.24.296,Reversal,2022.1.1,59.85507887351414,4,
5,exp3.png,exp4.png,,0,0,0,0,0,5,5,5,,,,,,,,,,,,,,,,,,,,,,,,,False,4,5,False,exp3.png,exp4.png,trial_right_image,-1,exp4.png,4,exp4.png,exp3.png,1,3,reversed,correct,0.43485638373396396,1,valid_win,38.67851429997245,4,,,,,,,,,,,,,,,,sub_284,2022-12-21_12h48.24.296,Reversal,2022.1.1,59.85507887351414,4,
6,exp1.png,exp2.png,,0,0,0,0,0,6,6,6,,,,,,,,,,,,,,,,,,,,,,,,,False,5,6,True,exp2.png,exp1.png,trial_left_image,1,exp2.png,4,exp2.png,exp1.png,1,1,non-reversed,correct,0.9387009967683687,1,valid_win,44.69256779999705,5,,,,,,,,,,,,,,,,sub_284,2022-12-21_12h48.24.296,Reversal,2022.1.1,59.85507887351414,4,
7,exp3.png,exp4.png,,0,0,0,0,0,7,7,7,,,,,,,,,,,,,,,,,,,,,,,,,False,6,7,True,exp4.png,exp3.png,trial_left_image,1,exp4.png,4,exp4.png,exp3.png,1,3,reversed,correct,0.7661364495583551,1,valid_win,51.57414049998624,6,,,,,,,,,,,,,,,,sub_284,2022-12-21_12h48.24.296,Reversal,2022.1.1,59.85507887351414,4,
8,exp1.png,exp2.png,,0,0,0,0,0,8,8,8,,,,,,,,,,,,,,,,,,,,,,,,,False,7,8,False,exp1.png,exp2.png,trial_right_image,-1,exp2.png,4,exp2.png,exp1.png,1,1,non-reversed,correct,0.6119052978203973,1,valid_win,56.357329799968284,7,,,,,,,,,,,,,,,,sub_284,2022-12-21_12h48.24.296,Reversal,2022.1.1,59.85507887351414,4,
9,exp3.png,exp4.png,,0,0,0,0,0,9,9,9,,,,,,,,,,,,,,,,,,,,,,,,,False,8,9,False,exp3.png,exp4.png,trial_right_image,-1,exp4.png,4,exp4.png,exp3.png,1,3,reversed,correct,0.05045924977713945,0,invalid_lose,60.85777699999744,7,,,,,,,,,,,,,,,,sub_284,2022-12-21_12h48.24.296,Reversal,2022.1.1,59.85507887351414,4,
10,exp1.png,exp2.png,,0,0,0,0,0,10,10,10,,,,,,,,,,,,,,,,,,,,,,,,,False,9,10,False,exp1.png,exp2.png,trial_right_image,-1,exp2.png,4,exp2.png,exp1.png,1,1,non-reversed,correct,0.22007752334396014,0,invalid_lose,66.68941329995869,7,,,,,,,,,,,,,,,,sub_284,2022-12-21_12h48.24.296,Reversal,2022.1.1,59.85507887351414,4,
11,exp3.png,exp4.png,,0,0,0,0,0,11,11,11,,,,,,,,,,,,,,,,,,,,,,,,,False,10,11,False,exp3.png,exp4.png,trial_left_image,1,exp3.png,4,exp4.png,exp3.png,0,4,reversed,incorrect,0.8748316003820733,0,valid_lose,72.50656279997202,7,,,,,,,,,,,,,,,,sub_284,2022-12-21_12h48.24.296,Reversal,2022.1.1,59.85507887351414,4,
12,exp1.png,exp2.png,,0,0,0,0,0,12,12,12,,,,,,,,,,,,,,,,,,,,,,,,,False,11,12,True,exp2.png,exp1.png,trial_left_image,1,exp2.png,4,exp2.png,exp1.png,1,1,non-reversed,correct,0.045824741382680334,0,invalid_lose,78.88778289995389,7,,,,,,,,,,,,,,,,sub_284,2022-12-21_12h48.24.296,Reversal,2022.1.1,59.85507887351414,4,
13,exp3.png,exp4.png,,0,0,0,0,0,13,13,13,,,,,,,,,,,,,,,,,,,,,,,,,False,12,13,True,exp4.png,exp3.png,trial_right_image,-1,exp3.png,4,exp4.png,exp3.png,0,4,reversed,incorrect,0.08221320042190394,1,invalid_win,84.32159419998061,8,,,,,,,,,,,,,,,,sub_284,2022-12-21_12h48.24.296,Reversal,2022.1.1,59.85507887351414,4,
14,exp1.png,exp2.png,,0,0,0,0,0,14,14,14,,,,,,,,,,,,,,,,,,,,,,,,,False,13,14,True,exp2.png,exp1.png,trial_left_image,1,exp2.png,4,exp2.png,exp1.png,1,1,non-reversed,correct,0.6740239708832828,1,valid_win,91.43677689996548,9,,,,,,,,,,,,,,,,sub_284,2022-12-21_12h48.24.296,Reversal,2022.1.1,59.85507887351414,4,
15,exp3.png,exp4.png,,0,0,0,0,0,15,15,15,,,,,,,,,,,,,,,,,,,,,,,,,False,14,15,False,exp3.png,exp4.png,trial_right_image,-1,exp4.png,4,exp4.png,exp3.png,1,3,reversed,correct,0.6124489634164911,1,valid_win,96.168919299962,10,,,,,,,,,,,,,,,,sub_284,2022-12-21_12h48.24.296,Reversal,2022.1.1,59.85507887351414,4,
16,exp1.png,exp2.png,,0,0,0,0,0,16,16,16,,,,,,,,,,,,,,,,,,,,,,,,,False,15,16,False,exp1.png,exp2.png,trial_right_image,-1,exp2.png,4,exp2.png,exp1.png,1,1,non-reversed,correct,0.8147406465189988,1,valid_win,102.1863237999496,11,,,,,,,,,,,,,,,,sub_284,2022-12-21_12h48.24.296,Reversal,2022.1.1,59.85507887351414,4,
17,exp3.png,exp4.png,,0,0,0,0,0,17,17,17,,,,,,,,,,,,,,,,,,,,,,,,,False,16,17,False,exp3.png,exp4.png,trial_right_image,-1,exp4.png,4,exp4.png,exp3.png,1,3,reversed,correct,0.5580664830357652,1,valid_win,107.31899599998724,12,,,,,,,,,,,,,,,,sub_284,2022-12-21_12h48.24.296,Reversal,2022.1.1,59.85507887351414,4,
18,exp1.png,exp2.png,,0,0,0,0,0,18,18,18,,,,,,,,,,,,,,,,,,,,,,,,,False,17,18,False,exp1.png,exp2.png,trial_right_image,-1,exp2.png,4,exp2.png,exp1.png,1,1,non-reversed,correct,0.5684724815318848,1,valid_win,113.01667189999716,13,,,,,,,,,,,,,,,,sub_284,2022-12-21_12h48.24.296,Reversal,2022.1.1,59.85507887351414,4,
19,exp3.png,exp4.png,,0,0,0,0,0,19,19,19,,,,,,,,,,,,,,,,,,,,,,,,,False,18,19,False,exp3.png,exp4.png,trial_right_image,-1,exp4.png,4,exp4.png,exp3.png,1,3,reversed,correct,0.948973593417531,1,valid_win,119.49916629999643,14,,,,,,,,,,,,,,,,sub_284,2022-12-21_12h48.24.296,Reversal,2022.1.1,59.85507887351414,4,
20,exp1.png,exp2.png,,0,0,0,0,0,20,20,20,,,,,,,,,,,,,,,,,,,,,,,,,False,19,20,True,exp2.png,exp1.png,trial_left_image,1,exp2.png,4,exp2.png,exp1.png,1,1,non-reversed,correct,0.3296870168920393,1,valid_win,124.5990491999546,15,,,,,,,,,,,,,,,,sub_284,2022-12-21_12h48.24.296,Reversal,2022.1.1,59.85507887351414,4,
,,,exp1.png,0,0,0,0,,,,,0,0,0,0,0,0,0,0,,,,,,,,,,,,,,,,,,,,,,,,,,,,,,,,,,,,,,50.0,None,[],244.8640377999982,None,,,,,,,,,,,sub_284,2022-12-21_12h48.24.296,Reversal,2022.1.1,59.85507887351414,4,
,,,exp2.png,0,0,0,0,,,,,0,0,0,0,0,1,1,1,,,,,,,,,,,,,,,,,,,,,,,,,,,,,,,,,,,,,,99.0,13.587109999964014,"[(70.0, 10.986426599964034), (86.0, 12.120875299966428), (94.0, 12.87411139998585), (99.0, 13.587109999964014)]",253.91552260000026,None,99.0,,,,,,,,,,sub_284,2022-12-21_12h48.24.296,Reversal,2022.1.1,59.85507887351414,4,
,,,exp3.png,0,0,0,0,,,,,0,0,0,0,0,2,2,2,,,,,,,,,,,,,,,,,,,,,,,,,,,,,,,,,,,,,,4.0,7.388752300001215,"[(15.0, 6.606440300005488), (4.0, 7.388752300001215)]",268.816845000023,None,,4.0,,,,,,,,,sub_284,2022-12-21_12h48.24.296,Reversal,2022.1.1,59.85507887351414,4,
,,,exp4.png,0,0,0,0,,,,,0,0,0,0,0,3,3,3,,,,,,,,,,,,,,,,,,,,,,,,,,,,,,,,,,,,,,98.0,4.050518800038844,"[(98.0, 4.050518800038844)]",277.5189219000167,None,,,98.0,,,,,,,,sub_284,2022-12-21_12h48.24.296,Reversal,2022.1.1,59.85507887351414,4,
0,exp1.png,exp2.png,,1,0,1,0,0,0,0,0,,,,,,,,,,,,,,,,,,,,,,,,,True,,,,,,,,,,,,,,,,,,,,,,,,,,,,,,,,,,,,sub_284,2022-12-21_12h48.24.296,Reversal,2022.1.1,59.85507887351414,4,
1,exp3.png,exp4.png,,1,0,1,0,0,1,1,1,,,,,,,,,,,,,,,,,,,,,,,,,False,20,21,True,exp4.png,exp3.png,trial_left_image,1,exp4.png,4,exp4.png,exp3.png,1,3,reversed,correct,0.35300931330907415,1,valid_win,168.87663559999783,16,,,,,,,,,,,,,,,,sub_284,2022-12-21_12h48.24.296,Reversal,2022.1.1,59.85507887351414,4,
2,exp1.png,exp2.png,,1,0,1,0,0,2,2,2,,,,,,,,,,,,,,,,,,,,,,,,,False,21,22,True,exp2.png,exp1.png,trial_left_image,1,exp2.png,4,exp2.png,exp1.png,1,1,non-reversed,correct,0.5012960170641191,1,valid_win,173.9589801999973,17,,,,,,,,,,,,,,,,sub_284,2022-12-21_12h48.24.296,Reversal,2022.1.1,59.85507887351414,4,
3,exp3.png,exp4.png,,1,0,1,0,0,3,3,3,,,,,,,,,,,,,,,,,,,,,,,,,False,22,23,False,exp3.png,exp4.png,trial_right_image,-1,exp4.png,4,exp4.png,exp3.png,1,3,reversed,correct,0.5570550328290039,1,valid_win,178.90806689998135,18,,,,,,,,,,,,,,,,sub_284,2022-12-21_12h48.24.296,Reversal,2022.1.1,59.85507887351414,4,
4,exp1.png,exp2.png,,1,0,1,0,0,4,4,4,,,,,,,,,,,,,,,,,,,,,,,,,False,23,24,False,exp1.png,exp2.png,trial_right_image,-1,exp2.png,4,exp2.png,exp1.png,1,1,non-reversed,correct,0.795797610594049,1,valid_win,183.69177229999332,19,,,,,,,,,,,,,,,,sub_284,2022-12-21_12h48.24.296,Reversal,2022.1.1,59.85507887351414,4,
5,exp3.png,exp4.png,,1,0,1,0,0,5,5,5,,,,,,,,,,,,,,,,,,,,,,,,,False,24,25,False,exp3.png,exp4.png,trial_right_image,-1,exp4.png,4,exp4.png,exp3.png,1,3,reversed,correct,0.9252023908971492,1,valid_win,188.3084917999804,20,,,,,,,,,,,,,,,,sub_284,2022-12-21_12h48.24.296,Reversal,2022.1.1,59.85507887351414,4,
6,exp1.png,exp2.png,,1,0,1,0,0,6,6,6,,,,,,,,,,,,,,,,,,,,,,,,,False,25,26,True,exp2.png,exp1.png,trial_left_image,1,exp2.png,4,exp2.png,exp1.png,1,1,non-reversed,correct,0.38838284396666845,1,valid_win,193.0901055999566,21,,,,,,,,,,,,,,,,sub_284,2022-12-21_12h48.24.296,Reversal,2022.1.1,59.85507887351414,4,
7,exp3.png,exp4.png,,1,0,1,0,0,7,7,7,,,,,,,,,,,,,,,,,,,,,,,,,False,26,27,True,exp4.png,exp3.png,trial_left_image,1,exp4.png,4,exp4.png,exp3.png,1,3,reversed,correct,0.03232214334167105,0,invalid_lose,198.10598679998657,21,,,,,,,,,,,,,,,,sub_284,2022-12-21_12h48.24.296,Reversal,2022.1.1,59.85507887351414,4,
8,exp1.png,exp2.png,,1,0,1,0,0,8,8,8,,,,,,,,,,,,,,,,,,,,,,,,,False,27,28,True,exp2.png,exp1.png,trial_right_image,-1,exp1.png,4,exp2.png,exp1.png,0,2,non-reversed,incorrect,0.19398280217127017,1,invalid_win,205.44045029999688,22,,,,,,,,,,,,,,,,sub_284,2022-12-21_12h48.24.296,Reversal,2022.1.1,59.85507887351414,4,
9,exp3.png,exp4.png,,1,0,1,0,0,9,9,9,,,,,,,,,,,,,,,,,,,,,,,,,False,28,29,True,exp4.png,exp3.png,trial_left_image,1,exp4.png,4,exp4.png,exp3.png,1,3,reversed,correct,0.20734950332828628,0,invalid_lose,210.32119170000078,22,,,,,,,,,,,,,,,,sub_284,2022-12-21_12h48.24.296,Reversal,2022.1.1,59.85507887351414,4,
10,exp1.png,exp2.png,,1,0,1,0,0,10,10,10,,,,,,,,,,,,,,,,,,,,,,,,,False,29,30,False,exp1.png,exp2.png,trial_left_image,1,exp1.png,4,exp2.png,exp1.png,0,2,non-reversed,incorrect,0.19280333577672903,1,invalid_win,216.9874343999545,23,,,,,,,,,,,,,,,,sub_284,2022-12-21_12h48.24.296,Reversal,2022.1.1,59.85507887351414,4,
11,exp3.png,exp4.png,,1,0,1,0,0,11,11,11,,,,,,,,,,,,,,,,,,,,,,,,,False,30,31,False,exp3.png,exp4.png,trial_left_image,1,exp3.png,4,exp4.png,exp3.png,0,4,reversed,incorrect,0.1882590571024747,1,invalid_win,223.23694329999853,24,,,,,,,,,,,,,,,,sub_284,2022-12-21_12h48.24.296,Reversal,2022.1.1,59.85507887351414,4,
12,exp1.png,exp2.png,,1,0,1,0,0,12,12,12,,,,,,,,,,,,,,,,,,,,,,,,,False,31,32,True,exp2.png,exp1.png,trial_left_image,1,exp2.png,4,exp2.png,exp1.png,1,1,non-reversed,correct,0.39266865656854744,1,valid_win,228.3855523999664,25,,,,,,,,,,,,,,,,sub_284,2022-12-21_12h48.24.296,Reversal,2022.1.1,59.85507887351414,4,
13,exp3.png,exp4.png,,1,0,1,0,0,13,13,13,,,,,,,,,,,,,,,,,,,,,,,,,False,32,33,True,exp4.png,exp3.png,trial_left_image,1,exp4.png,4,exp4.png,exp3.png,1,3,reversed,correct,0.007291460021703777,0,invalid_lose,233.65084939997178,25,,,,,,,,,,,,,,,,sub_284,2022-12-21_12h48.24.296,Reversal,2022.1.1,59.85507887351414,4,
14,exp1.png,exp2.png,,1,0,1,0,0,14,14,14,,,,,,,,,,,,,,,,,,,,,,,,,False,33,34,False,exp1.png,exp2.png,trial_left_image,1,exp1.png,4,exp2.png,exp1.png,0,2,non-reversed,incorrect,0.09532193951003265,1,invalid_win,238.31841039995197,26,,,,,,,,,,,,,,,,sub_284,2022-12-21_12h48.24.296,Reversal,2022.1.1,59.85507887351414,4,
15,exp3.png,exp4.png,,1,0,1,0,0,15,15,15,,,,,,,,,,,,,,,,,,,,,,,,,False,34,35,False,exp3.png,exp4.png,trial_left_image,1,exp3.png,4,exp4.png,exp3.png,0,4,reversed,incorrect,0.9693701612958255,0,valid_lose,245.83339069999056,26,,,,,,,,,,,,,,,,sub_284,2022-12-21_12h48.24.296,Reversal,2022.1.1,59.85507887351414,4,
16,exp1.png,exp2.png,,1,0,1,0,0,16,16,16,,,,,,,,,,,,,,,,,,,,,,,,,False,35,36,True,exp2.png,exp1.png,trial_right_image,-1,exp1.png,4,exp2.png,exp1.png,0,2,non-reversed,incorrect,0.5687910565623884,0,valid_lose,250.18488600000273,26,,,,,,,,,,,,,,,,sub_284,2022-12-21_12h48.24.296,Reversal,2022.1.1,59.85507887351414,4,
17,exp3.png,exp4.png,,1,0,1,0,0,17,17,17,,,,,,,,,,,,,,,,,,,,,,,,,False,36,37,False,exp3.png,exp4.png,trial_right_image,-1,exp4.png,4,exp4.png,exp3.png,1,3,reversed,correct,0.8551518604732116,1,valid_win,255.51556999998866,27,,,,,,,,,,,,,,,,sub_284,2022-12-21_12h48.24.296,Reversal,2022.1.1,59.85507887351414,4,
18,exp1.png,exp2.png,,1,0,1,0,0,18,18,18,,,,,,,,,,,,,,,,,,,,,,,,,False,37,38,True,exp2.png,exp1.png,trial_left_image,1,exp2.png,4,exp2.png,exp1.png,1,1,non-reversed,correct,0.7488331202601384,1,valid_win,260.0812237999635,28,,,,,,,,,,,,,,,,sub_284,2022-12-21_12h48.24.296,Reversal,2022.1.1,59.85507887351414,4,
19,exp3.png,exp4.png,,1,0,1,0,0,19,19,19,,,,,,,,,,,,,,,,,,,,,,,,,False,38,39,False,exp3.png,exp4.png,trial_right_image,-1,exp4.png,4,exp4.png,exp3.png,1,3,reversed,correct,0.02864815685078015,0,invalid_lose,264.79745959996944,28,,,,,,,,,,,,,,,,sub_284,2022-12-21_12h48.24.296,Reversal,2022.1.1,59.85507887351414,4,
20,exp1.png,exp2.png,,1,0,1,0,0,20,20,20,,,,,,,,,,,,,,,,,,,,,,,,,False,39,40,False,exp1.png,exp2.png,trial_right_image,-1,exp2.png,4,exp2.png,exp1.png,1,1,non-reversed,correct,0.10207856380924474,0,invalid_lose,270.64684619999025,28,,,,,,,,,,,,,,,,sub_284,2022-12-21_12h48.24.296,Reversal,2022.1.1,59.85507887351414,4,
,,,exp1.png,1,0,1,0,,,,,0,0,0,0,0,0,0,0,,,,,,,,,,,,,,,,,,,,,,,,,,,,,,,,,,,,,,98.0,6.834944500005804,"[(98.0, 6.834944500005804)]",390.9180057000485,None,,,,98.0,,,,,,,sub_284,2022-12-21_12h48.24.296,Reversal,2022.1.1,59.85507887351414,4,
,,,exp2.png,1,0,1,0,,,,,0,0,0,0,0,1,1,1,,,,,,,,,,,,,,,,,,,,,,,,,,,,,,,,,,,,,,50.0,None,[],398.8650871000136,None,,,,,,,,,,,sub_284,2022-12-21_12h48.24.296,Reversal,2022.1.1,59.85507887351414,4,
,,,exp3.png,1,0,1,0,,,,,0,0,0,0,0,2,2,2,,,,,,,,,,,,,,,,,,,,,,,,,,,,,,,,,,,,,,4.0,2.834269899991341,"[(16.0, 1.9018341000191867), (4.0, 2.834269899991341)]",403.78286999999546,None,,4.0,,,,,,,,,sub_284,2022-12-21_12h48.24.296,Reversal,2022.1.1,59.85507887351414,4,
,,,exp4.png,1,0,1,0,,,,,0,0,0,0,0,3,3,3,,,,,,,,,,,,,,,,,,,,,,,,,,,,,,,,,,,,,,100.0,1.7409935999894515,"[(100.0, 1.7409935999894515)]",407.85754340002313,None,,,100.0,,,,,,,,sub_284,2022-12-21_12h48.24.296,Reversal,2022.1.1,59.85507887351414,4,
0,exp1.png,exp2.png,,2,0,2,0,0,0,0,0,,,,,,,,,,,,,,,,,,,,,,,,,True,,,,,,,,,,,,,,,,,,,,,,,,,,,,,,,,,,,,sub_284,2022-12-21_12h48.24.296,Reversal,2022.1.1,59.85507887351414,4,
1,exp3.png,exp4.png,,2,0,2,0,0,1,1,1,,,,,,,,,,,,,,,,,,,,,,,,,False,40,41,True,exp4.png,exp3.png,trial_left_image,1,exp4.png,4,exp4.png,exp3.png,1,3,reversed,correct,0.2753965489646343,1,valid_win,295.7595358999679,29,,,,,,,,,,,,,,,,sub_284,2022-12-21_12h48.24.296,Reversal,2022.1.1,59.85507887351414,4,
2,exp1.png,exp2.png,,2,0,2,0,0,2,2,2,,,,,,,,,,,,,,,,,,,,,,,,,False,41,42,False,exp1.png,exp2.png,trial_left_image,1,exp1.png,4,exp2.png,exp1.png,0,2,non-reversed,incorrect,0.23514407202854404,1,invalid_win,302.5438224999816,30,,,,,,,,,,,,,,,,sub_284,2022-12-21_12h48.24.296,Reversal,2022.1.1,59.85507887351414,4,
3,exp3.png,exp4.png,,2,0,2,0,0,3,3,3,,,,,,,,,,,,,,,,,,,,,,,,,False,42,43,False,exp3.png,exp4.png,trial_right_image,-1,exp4.png,4,exp4.png,exp3.png,1,3,reversed,correct,0.4385168224412599,1,valid_win,307.4260924999835,31,,,,,,,,,,,,,,,,sub_284,2022-12-21_12h48.24.296,Reversal,2022.1.1,59.85507887351414,4,
4,exp1.png,exp2.png,,2,0,2,0,0,4,4,4,,,,,,,,,,,,,,,,,,,,,,,,,False,43,44,True,exp2.png,exp1.png,trial_left_image,1,exp2.png,4,exp2.png,exp1.png,1,1,non-reversed,correct,0.2618956238686099,1,valid_win,313.7757326999563,32,,,,,,,,,,,,,,,,sub_284,2022-12-21_12h48.24.296,Reversal,2022.1.1,59.85507887351414,4,
5,exp3.png,exp4.png,,2,0,2,0,0,5,5,5,,,,,,,,,,,,,,,,,,,,,,,,,False,44,45,True,exp4.png,exp3.png,trial_left_image,1,exp4.png,4,exp4.png,exp3.png,1,3,reversed,correct,0.0317419364217455,0,invalid_lose,318.556972499995,32,,,,,,,,,,,,,,,,sub_284,2022-12-21_12h48.24.296,Reversal,2022.1.1,59.85507887351414,4,
6,exp1.png,exp2.png,,2,0,2,0,0,6,6,6,,,,,,,,,,,,,,,,,,,,,,,,,False,45,46,True,exp2.png,exp1.png,trial_right_image,-1,exp1.png,4,exp2.png,exp1.png,0,2,non-reversed,incorrect,0.05193807396145489,1,invalid_win,323.18962479999755,33,,,,,,,,,,,,,,,,sub_284,2022-12-21_12h48.24.296,Reversal,2022.1.1,59.85507887351414,4,
7,exp3.png,exp4.png,,2,0,2,0,0,7,7,7,,,,,,,,,,,,,,,,,,,,,,,,,False,46,47,False,exp3.png,exp4.png,trial_right_image,-1,exp4.png,4,exp4.png,exp3.png,1,3,reversed,correct,0.6581210687755923,1,valid_win,327.92310459999135,34,,,,,,,,,,,,,,,,sub_284,2022-12-21_12h48.24.296,Reversal,2022.1.1,59.85507887351414,4,
8,exp1.png,exp2.png,,2,0,2,0,0,8,8,8,,,,,,,,,,,,,,,,,,,,,,,,,False,47,48,False,exp1.png,exp2.png,trial_right_image,-1,exp2.png,4,exp2.png,exp1.png,1,1,non-reversed,correct,0.5547217645426452,1,valid_win,332.95626039995113,35,,,,,,,,,,,,,,,,sub_284,2022-12-21_12h48.24.296,Reversal,2022.1.1,59.85507887351414,4,
9,exp3.png,exp4.png,,2,0,2,0,0,9,9,9,,,,,,,,,,,,,,,,,,,,,,,,,False,48,49,True,exp4.png,exp3.png,trial_left_image,1,exp4.png,4,exp4.png,exp3.png,1,3,reversed,correct,0.2470890436194606,0,invalid_lose,338.9216720999684,35,,,,,,,,,,,,,,,,sub_284,2022-12-21_12h48.24.296,Reversal,2022.1.1,59.85507887351414,4,
10,exp1.png,exp2.png,,2,0,2,0,0,10,10,10,,,,,,,,,,,,,,,,,,,,,,,,,False,49,50,True,exp2.png,exp1.png,trial_right_image,-1,exp1.png,4,exp2.png,exp1.png,0,2,non-reversed,incorrect,0.48862117171679886,0,valid_lose,343.6871966999606,35,,,,,,,,,,,,,,,,sub_284,2022-12-21_12h48.24.296,Reversal,2022.1.1,59.85507887351414,4,
11,exp3.png,exp4.png,,2,0,2,0,0,11,11,11,,,,,,,,,,,,,,,,,,,,,,,,,False,50,51,False,exp3.png,exp4.png,trial_right_image,-1,exp4.png,4,exp4.png,exp3.png,1,3,reversed,correct,0.7496844707513355,1,valid_win,348.50564989994746,36,,,,,,,,,,,,,,,,sub_284,2022-12-21_12h48.24.296,Reversal,2022.1.1,59.85507887351414,4,
12,exp1.png,exp2.png,,2,0,2,0,0,12,12,12,,,,,,,,,,,,,,,,,,,,,,,,,False,51,52,False,exp1.png,exp2.png,trial_left_image,1,exp1.png,4,exp2.png,exp1.png,0,2,non-reversed,incorrect,0.6025414014188373,0,valid_lose,353.28504609997617,36,,,,,,,,,,,,,,,,sub_284,2022-12-21_12h48.24.296,Reversal,2022.1.1,59.85507887351414,4,
13,exp3.png,exp4.png,,2,0,2,0,0,13,13,13,,,,,,,,,,,,,,,,,,,,,,,,,False,52,53,True,exp4.png,exp3.png,trial_left_image,1,exp4.png,4,exp4.png,exp3.png,1,3,reversed,correct,0.4941479640575437,1,valid_win,357.9853588999831,37,,,,,,,,,,,,,,,,sub_284,2022-12-21_12h48.24.296,Reversal,2022.1.1,59.85507887351414,4,
14,exp1.png,exp2.png,,2,0,2,0,0,14,14,14,,,,,,,,,,,,,,,,,,,,,,,,,False,53,54,True,exp2.png,exp1.png,trial_right_image,-1,exp1.png,4,exp2.png,exp1.png,0,2,non-reversed,incorrect,0.15344143798025134,1,invalid_win,362.8175034999731,38,,,,,,,,,,,,,,,,sub_284,2022-12-21_12h48.24.296,Reversal,2022.1.1,59.85507887351414,4,
15,exp3.png,exp4.png,,2,0,2,0,0,15,15,15,,,,,,,,,,,,,,,,,,,,,,,,,False,54,55,False,exp3.png,exp4.png,trial_right_image,-1,exp4.png,4,exp4.png,exp3.png,1,3,reversed,correct,0.43688150428303785,1,valid_win,367.4678891999647,39,,,,,,,,,,,,,,,,sub_284,2022-12-21_12h48.24.296,Reversal,2022.1.1,59.85507887351414,4,
16,exp1.png,exp2.png,,2,0,2,0,0,16,16,16,,,,,,,,,,,,,,,,,,,,,,,,,False,55,56,False,exp1.png,exp2.png,trial_left_image,1,exp1.png,4,exp2.png,exp1.png,0,2,non-reversed,incorrect,0.9908573148430838,0,valid_lose,372.8836010999512,39,,,,,,,,,,,,,,,,sub_284,2022-12-21_12h48.24.296,Reversal,2022.1.1,59.85507887351414,4,
17,exp3.png,exp4.png,,2,0,2,0,0,17,17,17,,,,,,,,,,,,,,,,,,,,,,,,,False,56,57,False,exp3.png,exp4.png,trial_right_image,-1,exp4.png,4,exp4.png,exp3.png,1,3,reversed,correct,0.9261603801279984,1,valid_win,377.48273499996867,40,,,,,,,,,,,,,,,,sub_284,2022-12-21_12h48.24.296,Reversal,2022.1.1,59.85507887351414,4,
18,exp1.png,exp2.png,,2,0,2,0,0,18,18,18,,,,,,,,,,,,,,,,,,,,,,,,,False,57,58,True,exp2.png,exp1.png,trial_right_image,-1,exp1.png,4,exp2.png,exp1.png,0,2,non-reversed,incorrect,0.4880856675698785,0,valid_lose,382.4158551999717,40,,,,,,,,,,,,,,,,sub_284,2022-12-21_12h48.24.296,Reversal,2022.1.1,59.85507887351414,4,
19,exp3.png,exp4.png,,2,0,2,0,0,19,19,19,,,,,,,,,,,,,,,,,,,,,,,,,False,58,59,False,exp3.png,exp4.png,trial_right_image,-1,exp4.png,4,exp4.png,exp3.png,1,3,reversed,correct,0.15737411985697214,0,invalid_lose,387.09820539999055,40,,,,,,,,,,,,,,,,sub_284,2022-12-21_12h48.24.296,Reversal,2022.1.1,59.85507887351414,4,
20,exp1.png,exp2.png,,2,0,2,0,0,20,20,20,,,,,,,,,,,,,,,,,,,,,,,,,False,59,60,True,exp2.png,exp1.png,trial_left_image,1,exp2.png,4,exp2.png,exp1.png,1,1,non-reversed,correct,0.6964848633364704,1,valid_win,392.3810091999476,41,,,,,,,,,,,,,,,,sub_284,2022-12-21_12h48.24.296,Reversal,2022.1.1,59.85507887351414,4,
,,,exp1.png,2,0,2,0,,,,,0,0,0,0,0,0,0,0,,,,,,,,,,,,,,,,,,,,,,,,,,,,,,,,,,,,,,99.0,3.779428999987431,"[(99.0, 3.779428999987431)]",512.6431839000434,None,,,,99.0,,,,,,,sub_284,2022-12-21_12h48.24.296,Reversal,2022.1.1,59.85507887351414,4,
,,,exp2.png,2,0,2,0,,,,,0,0,0,0,0,1,1,1,,,,,,,,,,,,,,,,,,,,,,,,,,,,,,,,,,,,,,100.0,2.4329203000525013,"[(93.0, 1.4134527000132948), (100.0, 2.4329203000525013)]",518.0883242000127,None,100.0,,,,,,,,,,sub_284,2022-12-21_12h48.24.296,Reversal,2022.1.1,59.85507887351414,4,
,,,exp3.png,2,0,2,0,,,,,0,0,0,0,0,2,2,2,,,,,,,,,,,,,,,,,,,,,,,,,,,,,,,,,,,,,,99.0,3.491413999989163,"[(99.0, 3.491413999989163)]",521.5602214999963,None,,99.0,,,,,,,,,sub_284,2022-12-21_12h48.24.296,Reversal,2022.1.1,59.85507887351414,4,
,,,exp4.png,2,0,2,0,,,,,0,0,0,0,0,3,3,3,,,,,,,,,,,,,,,,,,,,,,,,,,,,,,,,,,,,,,50.0,None,[],526.7493477000389,None,,,,,,,,,,,sub_284,2022-12-21_12h48.24.296,Reversal,2022.1.1,59.85507887351414,4,
0,exp1.png,exp2.png,,3,0,3,0,0,0,0,0,,,,,,,,,,,,,,,,,,,,,,,,,True,,,,,,,,,,,,,,,,,,,,,,,,,,,,,,,,,,,,sub_284,2022-12-21_12h48.24.296,Reversal,2022.1.1,59.85507887351414,4,
1,exp3.png,exp4.png,,3,0,3,0,0,1,1,1,,,,,,,,,,,,,,,,,,,,,,,,,False,60,61,True,exp4.png,exp3.png,trial_right_image,-1,exp3.png,4,exp4.png,exp3.png,0,4,reversed,incorrect,0.100766966274217,1,invalid_win,416.2275484999991,42,,,,,,,,,,,,,,,,sub_284,2022-12-21_12h48.24.296,Reversal,2022.1.1,59.85507887351414,4,
2,exp1.png,exp2.png,,3,0,3,0,0,2,2,2,,,,,,,,,,,,,,,,,,,,,,,,,False,61,62,False,exp1.png,exp2.png,trial_left_image,1,exp1.png,4,exp2.png,exp1.png,0,2,non-reversed,incorrect,0.45580059777367354,0,valid_lose,422.79381149995606,42,,,,,,,,,,,,,,,,sub_284,2022-12-21_12h48.24.296,Reversal,2022.1.1,59.85507887351414,4,
3,exp3.png,exp4.png,,3,0,3,0,0,3,3,3,,,,,,,,,,,,,,,,,,,,,,,,,False,62,63,False,exp3.png,exp4.png,trial_right_image,-1,exp4.png,4,exp4.png,exp3.png,1,3,reversed,correct,0.3359473170158579,1,valid_win,427.67650299996603,43,,,,,,,,,,,,,,,,sub_284,2022-12-21_12h48.24.296,Reversal,2022.1.1,59.85507887351414,4,
4,exp1.png,exp2.png,,3,0,3,0,0,4,4,4,,,,,,,,,,,,,,,,,,,,,,,,,False,63,64,True,exp2.png,exp1.png,trial_right_image,-1,exp1.png,4,exp2.png,exp1.png,0,2,non-reversed,incorrect,0.8997999098446752,0,valid_lose,432.5130461999797,43,,,,,,,,,,,,,,,,sub_284,2022-12-21_12h48.24.296,Reversal,2022.1.1,59.85507887351414,4,
5,exp3.png,exp4.png,,3,0,3,0,0,5,5,5,,,,,,,,,,,,,,,,,,,,,,,,,False,64,65,True,exp4.png,exp3.png,trial_right_image,-1,exp3.png,4,exp4.png,exp3.png,0,4,reversed,incorrect,0.19357282579645751,1,invalid_win,438.3084296999732,44,,,,,,,,,,,,,,,,sub_284,2022-12-21_12h48.24.296,Reversal,2022.1.1,59.85507887351414,4,
6,exp1.png,exp2.png,,3,0,3,0,0,6,6,6,,,,,,,,,,,,,,,,,,,,,,,,,False,65,66,False,exp1.png,exp2.png,trial_left_image,1,exp1.png,4,exp2.png,exp1.png,0,2,non-reversed,incorrect,0.29674369983729565,0,valid_lose,444.9749288999592,44,,,,,,,,,,,,,,,,sub_284,2022-12-21_12h48.24.296,Reversal,2022.1.1,59.85507887351414,4,
7,exp3.png,exp4.png,,3,0,3,0,0,7,7,7,,,,,,,,,,,,,,,,,,,,,,,,,False,66,67,True,exp4.png,exp3.png,trial_left_image,1,exp4.png,4,exp4.png,exp3.png,1,3,reversed,correct,0.38436827275615026,1,valid_win,449.72338049998507,45,,,,,,,,,,,,,,,,sub_284,2022-12-21_12h48.24.296,Reversal,2022.1.1,59.85507887351414,4,
8,exp1.png,exp2.png,,3,0,3,0,0,8,8,8,,,,,,,,,,,,,,,,,,,,,,,,,False,67,68,True,exp2.png,exp1.png,trial_right_image,-1,exp1.png,4,exp2.png,exp1.png,0,2,non-reversed,incorrect,0.371552796548157,0,valid_lose,454.2560668999795,45,,,,,,,,,,,,,,,,sub_284,2022-12-21_12h48.24.296,Reversal,2022.1.1,59.85507887351414,4,
9,exp3.png,exp4.png,,3,0,3,0,0,9,9,9,,,,,,,,,,,,,,,,,,,,,,,,,False,68,69,True,exp4.png,exp3.png,trial_left_image,1,exp4.png,4,exp4.png,exp3.png,1,3,reversed,correct,0.7622091092370916,1,valid_win,458.98884949996136,46,,,,,,,,,,,,,,,,sub_284,2022-12-21_12h48.24.296,Reversal,2022.1.1,59.85507887351414,4,
10,exp1.png,exp2.png,,3,0,3,0,0,10,10,10,,,,,,,,,,,,,,,,,,,,,,,,,False,69,70,False,exp1.png,exp2.png,trial_left_image,1,exp1.png,4,exp2.png,exp1.png,0,2,non-reversed,incorrect,0.2586250402545267,0,valid_lose,463.90471539995633,46,,,,,,,,,,,,,,,,sub_284,2022-12-21_12h48.24.296,Reversal,2022.1.1,59.85507887351414,4,
11,exp3.png,exp4.png,,3,0,3,0,0,11,11,11,,,,,,,,,,,,,,,,,,,,,,,,,False,70,71,False,exp3.png,exp4.png,trial_right_image,-1,exp4.png,4,exp4.png,exp3.png,1,3,reversed,correct,0.8257182354302606,1,valid_win,468.5545407999889,47,,,,,,,,,,,,,,,,sub_284,2022-12-21_12h48.24.296,Reversal,2022.1.1,59.85507887351414,4,
12,exp1.png,exp2.png,,3,0,3,0,0,12,12,12,,,,,,,,,,,,,,,,,,,,,,,,,False,71,72,False,exp1.png,exp2.png,trial_right_image,-1,exp2.png,4,exp2.png,exp1.png,1,1,non-reversed,correct,0.5998333210810451,1,valid_win,473.77120399998967,48,,,,,,,,,,,,,,,,sub_284,2022-12-21_12h48.24.296,Reversal,2022.1.1,59.85507887351414,4,
13,exp3.png,exp4.png,,3,0,3,0,0,13,13,13,,,,,,,,,,,,,,,,,,,,,,,,,False,72,73,False,exp3.png,exp4.png,trial_right_image,-1,exp4.png,4,exp4.png,exp3.png,1,3,reversed,correct,0.395200995423042,1,valid_win,478.61964779999107,49,,,,,,,,,,,,,,,,sub_284,2022-12-21_12h48.24.296,Reversal,2022.1.1,59.85507887351414,4,
14,exp1.png,exp2.png,,3,0,3,0,0,14,14,14,,,,,,,,,,,,,,,,,,,,,,,,,False,73,74,False,exp1.png,exp2.png,trial_right_image,-1,exp2.png,4,exp2.png,exp1.png,1,1,non-reversed,correct,0.019651381245484045,0,invalid_lose,483.7362712000031,49,,,,,,,,,,,,,,,,sub_284,2022-12-21_12h48.24.296,Reversal,2022.1.1,59.85507887351414,4,
15,exp3.png,exp4.png,,3,0,3,0,0,15,15,15,,,,,,,,,,,,,,,,,,,,,,,,,False,74,75,True,exp4.png,exp3.png,trial_left_image,1,exp4.png,4,exp4.png,exp3.png,1,3,reversed,correct,0.5823016218870178,1,valid_win,488.5852681999677,50,,,,,,,,,,,,,,,,sub_284,2022-12-21_12h48.24.296,Reversal,2022.1.1,59.85507887351414,4,
16,exp1.png,exp2.png,,3,0,3,0,0,16,16,16,,,,,,,,,,,,,,,,,,,,,,,,,False,75,76,False,exp1.png,exp2.png,trial_right_image,-1,exp2.png,4,exp2.png,exp1.png,1,1,non-reversed,correct,0.8484629402507428,1,valid_win,493.602984899946,51,,,,,,,,,,,,,,,,sub_284,2022-12-21_12h48.24.296,Reversal,2022.1.1,59.85507887351414,4,
17,exp3.png,exp4.png,,3,0,3,0,0,17,17,17,,,,,,,,,,,,,,,,,,,,,,,,,False,76,77,False,exp3.png,exp4.png,trial_right_image,-1,exp4.png,4,exp4.png,exp3.png,1,3,reversed,correct,0.23168481137579022,0,invalid_lose,498.3506711999653,51,,,,,,,,,,,,,,,,sub_284,2022-12-21_12h48.24.296,Reversal,2022.1.1,59.85507887351414,4,
18,exp1.png,exp2.png,,3,0,3,0,0,18,18,18,,,,,,,,,,,,,,,,,,,,,,,,,False,77,78,True,exp2.png,exp1.png,trial_right_image,-1,exp1.png,4,exp2.png,exp1.png,0,2,non-reversed,incorrect,0.2938716204536912,0,valid_lose,503.215917399968,51,,,,,,,,,,,,,,,,sub_284,2022-12-21_12h48.24.296,Reversal,2022.1.1,59.85507887351414,4,
19,exp3.png,exp4.png,,3,0,3,0,0,19,19,19,,,,,,,,,,,,,,,,,,,,,,,,,False,78,79,True,exp4.png,exp3.png,trial_left_image,1,exp4.png,4,exp4.png,exp3.png,1,3,reversed,correct,0.7240010304245205,1,valid_win,507.56642269995064,52,,,,,,,,,,,,,,,,sub_284,2022-12-21_12h48.24.296,Reversal,2022.1.1,59.85507887351414,4,
20,exp1.png,exp2.png,,3,0,3,0,0,20,20,20,,,,,,,,,,,,,,,,,,,,,,,,,False,79,80,True,exp2.png,exp1.png,trial_left_image,1,exp2.png,4,exp2.png,exp1.png,1,1,non-reversed,correct,0.1893001947187245,0,invalid_lose,512.3494566999725,52,,,,,,,,,,,,,,,,sub_284,2022-12-21_12h48.24.296,Reversal,2022.1.1,59.85507887351414,4,
,,,exp1.png,3,0,3,0,,,,,0,0,0,0,0,0,0,0,,,,,,,,,,,,,,,,,,,,,,,,,,,,,,,,,,,,,,100.0,6.566222299996298,"[(100.0, 6.566222299996298)]",632.6214244000148,None,,,,100.0,,,,,,,sub_284,2022-12-21_12h48.24.296,Reversal,2022.1.1,59.85507887351414,4,
,,,exp2.png,3,0,3,0,,,,,0,0,0,0,0,1,1,1,,,,,,,,,,,,,,,,,,,,,,,,,,,,,,,,,,,,,,99.0,1.7730997999897227,"[(99.0, 1.7730997999897227)]",640.6797762000351,None,99.0,,,,,,,,,,sub_284,2022-12-21_12h48.24.296,Reversal,2022.1.1,59.85507887351414,4,
,,,exp3.png,3,0,3,0,,,,,0,0,0,0,0,2,2,2,,,,,,,,,,,,,,,,,,,,,,,,,,,,,,,,,,,,,,5.0,4.571432400029153,"[(17.0, 3.6538486999925226), (5.0, 4.571432400029153)]",643.5642494000494,None,,5.0,,,,,,,,,sub_284,2022-12-21_12h48.24.296,Reversal,2022.1.1,59.85507887351414,4,
,,,exp4.png,3,0,3,0,,,,,0,0,0,0,0,3,3,3,,,,,,,,,,,,,,,,,,,,,,,,,,,,,,,,,,,,,,96.0,2.300278700015042,"[(96.0, 2.300278700015042)]",649.2848247000366,None,,,96.0,,,,,,,,sub_284,2022-12-21_12h48.24.296,Reversal,2022.1.1,59.85507887351414,4,
0,exp1.png,exp2.png,,,,,,,,,,,,,,,,,,0,0,0,0,0,0,0,0,,,,,,,,,True,,,,,,,,,,,,,,,,,,,,,,,,,,,,,,,,,,,,sub_284,2022-12-21_12h48.24.296,Reversal,2022.1.1,59.85507887351414,4,
1,exp3.png,exp4.png,,,,,,,,,,,,,,,,,,0,0,0,0,0,1,1,1,,,,,,,,,False,0,81,True,exp4.png,exp3.png,trial_left_image,1,exp4.png,4,exp3.png,exp4.png,1,3,reversed,incorrect,0.40765892648754065,0,valid_lose,537.630417599983,52,,,,,,,,,,535.0779425999499,,,,,,sub_284,2022-12-21_12h48.24.296,Reversal,2022.1.1,59.85507887351414,4,
2,exp1.png,exp2.png,,,,,,,,,,,,,,,,,,0,0,0,0,0,2,2,2,,,,,,,,,False,1,82,True,exp2.png,exp1.png,trial_right_image,-1,exp1.png,4,exp2.png,exp1.png,0,2,non-reversed,incorrect,0.5381100024150123,0,valid_lose,542.4939665999846,52,,,,,,,,,,,,,,,,sub_284,2022-12-21_12h48.24.296,Reversal,2022.1.1,59.85507887351414,4,
3,exp3.png,exp4.png,,,,,,,,,,,,,,,,,,0,0,0,0,0,3,3,3,,,,,,,,,False,2,83,False,exp3.png,exp4.png,trial_right_image,-1,exp4.png,4,exp3.png,exp4.png,1,3,reversed,incorrect,0.8509775426923089,0,valid_lose,547.1102491999627,52,,,,,,,,,,,,,,,,sub_284,2022-12-21_12h48.24.296,Reversal,2022.1.1,59.85507887351414,4,
4,exp1.png,exp2.png,,,,,,,,,,,,,,,,,,0,0,0,0,0,4,4,4,,,,,,,,,False,3,84,False,exp1.png,exp2.png,trial_left_image,1,exp1.png,4,exp2.png,exp1.png,0,2,non-reversed,incorrect,0.6568025725505091,0,valid_lose,552.2266333999578,52,,,,,,,,,,,,,,,,sub_284,2022-12-21_12h48.24.296,Reversal,2022.1.1,59.85507887351414,4,
5,exp3.png,exp4.png,,,,,,,,,,,,,,,,,,0,0,0,0,0,5,5,5,,,,,,,,,False,4,85,True,exp4.png,exp3.png,trial_right_image,-1,exp3.png,4,exp3.png,exp4.png,0,4,reversed,correct,0.3289512987580433,1,valid_win,557.2755003999919,53,,,,,,,,,,,,,,,,sub_284,2022-12-21_12h48.24.296,Reversal,2022.1.1,59.85507887351414,4,
6,exp1.png,exp2.png,,,,,,,,,,,,,,,,,,0,0,0,0,0,6,6,6,,,,,,,,,False,5,86,True,exp2.png,exp1.png,trial_left_image,1,exp2.png,4,exp2.png,exp1.png,1,1,non-reversed,correct,0.6126521803382724,1,valid_win,565.1251340999734,54,,,,,,,,,,,,,,,,sub_284,2022-12-21_12h48.24.296,Reversal,2022.1.1,59.85507887351414,4,
7,exp3.png,exp4.png,,,,,,,,,,,,,,,,,,0,0,0,0,0,7,7,7,,,,,,,,,False,6,87,True,exp4.png,exp3.png,trial_right_image,-1,exp3.png,4,exp3.png,exp4.png,0,4,reversed,correct,0.1710250631881104,0,invalid_lose,569.7241947999573,54,,,,,,,,,,,,,,,,sub_284,2022-12-21_12h48.24.296,Reversal,2022.1.1,59.85507887351414,4,
8,exp1.png,exp2.png,,,,,,,,,,,,,,,,,,0,0,0,0,0,8,8,8,,,,,,,,,False,7,88,False,exp1.png,exp2.png,trial_right_image,-1,exp2.png,4,exp2.png,exp1.png,1,1,non-reversed,correct,0.28618446319877,1,valid_win,574.1736558999983,55,,,,,,,,,,,,,,,,sub_284,2022-12-21_12h48.24.296,Reversal,2022.1.1,59.85507887351414,4,
9,exp3.png,exp4.png,,,,,,,,,,,,,,,,,,0,0,0,0,0,9,9,9,,,,,,,,,False,8,89,False,exp3.png,exp4.png,trial_left_image,1,exp3.png,4,exp3.png,exp4.png,0,4,reversed,correct,0.26837730174005836,1,valid_win,579.0566301999497,56,,,,,,,,,,,,,,,,sub_284,2022-12-21_12h48.24.296,Reversal,2022.1.1,59.85507887351414,4,
10,exp1.png,exp2.png,,,,,,,,,,,,,,,,,,0,0,0,0,0,10,10,10,,,,,,,,,False,9,90,True,exp2.png,exp1.png,trial_right_image,-1,exp1.png,4,exp2.png,exp1.png,0,2,non-reversed,incorrect,0.20064145009702072,1,invalid_win,583.8223777999519,57,,,,,,,,,,,,,,,,sub_284,2022-12-21_12h48.24.296,Reversal,2022.1.1,59.85507887351414,4,
11,exp3.png,exp4.png,,,,,,,,,,,,,,,,,,0,0,0,0,0,11,11,11,,,,,,,,,False,10,91,False,exp3.png,exp4.png,trial_left_image,1,exp3.png,4,exp3.png,exp4.png,0,4,reversed,correct,0.9562024342693104,1,valid_win,588.5722132999799,58,,,,,,,,,,,,,,,,sub_284,2022-12-21_12h48.24.296,Reversal,2022.1.1,59.85507887351414,4,
12,exp1.png,exp2.png,,,,,,,,,,,,,,,,,,0,0,0,0,0,12,12,12,,,,,,,,,False,11,92,False,exp1.png,exp2.png,trial_right_image,-1,exp2.png,4,exp2.png,exp1.png,1,1,non-reversed,correct,0.8484500269715596,1,valid_win,594.0211301999516,59,,,,,,,,,,,,,,,,sub_284,2022-12-21_12h48.24.296,Reversal,2022.1.1,59.85507887351414,4,
13,exp3.png,exp4.png,,,,,,,,,,,,,,,,,,0,0,0,0,0,13,13,13,,,,,,,,,False,12,93,True,exp4.png,exp3.png,trial_right_image,-1,exp3.png,4,exp3.png,exp4.png,0,4,reversed,correct,0.8372938172075732,1,valid_win,598.7373456999776,60,,,,,,,,,,,,,,,,sub_284,2022-12-21_12h48.24.296,Reversal,2022.1.1,59.85507887351414,4,
14,exp1.png,exp2.png,,,,,,,,,,,,,,,,,,0,0,0,0,0,14,14,14,,,,,,,,,False,13,94,True,exp2.png,exp1.png,trial_left_image,1,exp2.png,4,exp2.png,exp1.png,1,1,non-reversed,correct,0.7537488421819204,1,valid_win,603.9204279999831,61,,,,,,,,,,,,,,,,sub_284,2022-12-21_12h48.24.296,Reversal,2022.1.1,59.85507887351414,4,
15,exp3.png,exp4.png,,,,,,,,,,,,,,,,,,0,0,0,0,0,15,15,15,,,,,,,,,False,14,95,False,exp3.png,exp4.png,trial_left_image,1,exp3.png,4,exp3.png,exp4.png,0,4,reversed,correct,0.803269073274936,1,valid_win,608.820699999982,62,,,,,,,,,,,,,,,,sub_284,2022-12-21_12h48.24.296,Reversal,2022.1.1,59.85507887351414,4,
16,exp1.png,exp2.png,,,,,,,,,,,,,,,,,,0,0,0,0,0,16,16,16,,,,,,,,,False,15,96,False,exp1.png,exp2.png,trial_right_image,-1,exp2.png,4,exp2.png,exp1.png,1,1,non-reversed,correct,0.6462110333748972,1,valid_win,613.9019985999912,63,,,,,,,,,,,,,,,,sub_284,2022-12-21_12h48.24.296,Reversal,2022.1.1,59.85507887351414,4,
17,exp3.png,exp4.png,,,,,,,,,,,,,,,,,,0,0,0,0,0,17,17,17,,,,,,,,,False,16,97,True,exp4.png,exp3.png,trial_right_image,-1,exp3.png,4,exp3.png,exp4.png,0,4,reversed,correct,0.8199255212976688,1,valid_win,619.1020781999687,64,,,,,,,,,,,,,,,,sub_284,2022-12-21_12h48.24.296,Reversal,2022.1.1,59.85507887351414,4,
18,exp1.png,exp2.png,,,,,,,,,,,,,,,,,,0,0,0,0,0,18,18,18,,,,,,,,,False,17,98,False,exp1.png,exp2.png,trial_right_image,-1,exp2.png,4,exp2.png,exp1.png,1,1,non-reversed,correct,0.48015619105833796,1,valid_win,623.8179245999781,65,,,,,,,,,,,,,,,,sub_284,2022-12-21_12h48.24.296,Reversal,2022.1.1,59.85507887351414,4,
19,exp3.png,exp4.png,,,,,,,,,,,,,,,,,,0,0,0,0,0,19,19,19,,,,,,,,,False,18,99,False,exp3.png,exp4.png,trial_left_image,1,exp3.png,4,exp3.png,exp4.png,0,4,reversed,correct,0.7212680226478905,1,valid_win,629.0835831000004,66,,,,,,,,,,,,,,,,sub_284,2022-12-21_12h48.24.296,Reversal,2022.1.1,59.85507887351414,4,
20,exp1.png,exp2.png,,,,,,,,,,,,,,,,,,0,0,0,0,0,20,20,20,,,,,,,,,False,19,100,True,exp2.png,exp1.png,trial_left_image,1,exp2.png,4,exp2.png,exp1.png,1,1,non-reversed,correct,0.045471105537981615,0,invalid_lose,634.6660076999688,66,,,,,,,,,,,,,,,,sub_284,2022-12-21_12h48.24.296,Reversal,2022.1.1,59.85507887351414,4,
,,,exp1.png,,,,,,,,,,,,,,,,,0,0,0,0,,,,,0,0,0,0,0,0,0,0,,,,,,,,,,,,,,,,,,,,,,100.0,7.882627600047272,"[(100.0, 7.882627600047272)]",754.9414522000006,None,,,,100.0,,,,,,,sub_284,2022-12-21_12h48.24.296,Reversal,2022.1.1,59.85507887351414,4,
,,,exp2.png,,,,,,,,,,,,,,,,,0,0,0,0,,,,,0,0,0,0,0,1,1,1,,,,,,,,,,,,,,,,,,,,,,100.0,3.3884185000206344,"[(100.0, 3.3884185000206344)]",765.5992918999982,None,100.0,,,,,,,,,,sub_284,2022-12-21_12h48.24.296,Reversal,2022.1.1,59.85507887351414,4,
,,,exp3.png,,,,,,,,,,,,,,,,,0,0,0,0,,,,,0,0,0,0,0,2,2,2,,,,,,,,,,,,,,,,,,,,,,3.0,2.261281599989161,"[(3.0, 2.261281599989161)]",772.7894364000531,None,,3.0,,,,,,,,,sub_284,2022-12-21_12h48.24.296,Reversal,2022.1.1,59.85507887351414,4,
,,,exp4.png,,,,,,,,,,,,,,,,,0,0,0,0,,,,,0,0,0,0,0,3,3,3,,,,,,,,,,,,,,,,,,,,,,4.0,4.849550599989016,"[(10.0, 3.916823800012935), (4.0, 4.849550599989016)]",776.401553200034,None,,,4.0,,,,,,,,sub_284,2022-12-21_12h48.24.296,Reversal,2022.1.1,59.85507887351414,4,
0,exp1.png,exp2.png,,,,,,,,,,,,,,,,,,1,0,1,0,0,0,0,0,,,,,,,,,True,,,,,,,,,,,,,,,,,,,,,,,,,,,,,,,,,,,,sub_284,2022-12-21_12h48.24.296,Reversal,2022.1.1,59.85507887351414,4,
1,exp3.png,exp4.png,,,,,,,,,,,,,,,,,,1,0,1,0,0,1,1,1,,,,,,,,,False,20,101,True,exp4.png,exp3.png,trial_right_image,-1,exp3.png,4,exp3.png,exp4.png,0,4,reversed,correct,0.9940174181879726,1,valid_win,667.7130815999699,67,,,,,,,,,,,,,,,,sub_284,2022-12-21_12h48.24.296,Reversal,2022.1.1,59.85507887351414,4,
2,exp1.png,exp2.png,,,,,,,,,,,,,,,,,,1,0,1,0,0,2,2,2,,,,,,,,,False,21,102,True,exp2.png,exp1.png,trial_left_image,1,exp2.png,4,exp2.png,exp1.png,1,1,non-reversed,correct,0.3428381999441197,1,valid_win,672.3275275999913,68,,,,,,,,,,,,,,,,sub_284,2022-12-21_12h48.24.296,Reversal,2022.1.1,59.85507887351414,4,
3,exp3.png,exp4.png,,,,,,,,,,,,,,,,,,1,0,1,0,0,3,3,3,,,,,,,,,False,22,103,False,exp3.png,exp4.png,trial_left_image,1,exp3.png,4,exp3.png,exp4.png,0,4,reversed,correct,0.09508922306948919,0,invalid_lose,677.6271499999566,68,,,,,,,,,,,,,,,,sub_284,2022-12-21_12h48.24.296,Reversal,2022.1.1,59.85507887351414,4,
4,exp1.png,exp2.png,,,,,,,,,,,,,,,,,,1,0,1,0,0,4,4,4,,,,,,,,,False,23,104,False,exp1.png,exp2.png,trial_right_image,-1,exp2.png,4,exp2.png,exp1.png,1,1,non-reversed,correct,0.6686909201311304,1,valid_win,682.959898400004,69,,,,,,,,,,,,,,,,sub_284,2022-12-21_12h48.24.296,Reversal,2022.1.1,59.85507887351414,4,
5,exp3.png,exp4.png,,,,,,,,,,,,,,,,,,1,0,1,0,0,5,5,5,,,,,,,,,False,24,105,True,exp4.png,exp3.png,trial_left_image,1,exp4.png,4,exp3.png,exp4.png,1,3,reversed,incorrect,0.8211972423814271,0,valid_lose,688.4597841999494,69,,,,,,,,,,,,,,,,sub_284,2022-12-21_12h48.24.296,Reversal,2022.1.1,59.85507887351414,4,
6,exp1.png,exp2.png,,,,,,,,,,,,,,,,,,1,0,1,0,0,6,6,6,,,,,,,,,False,25,106,False,exp1.png,exp2.png,trial_right_image,-1,exp2.png,4,exp2.png,exp1.png,1,1,non-reversed,correct,0.9109463291204457,1,valid_win,693.6083867999841,70,,,,,,,,,,,,,,,,sub_284,2022-12-21_12h48.24.296,Reversal,2022.1.1,59.85507887351414,4,
7,exp3.png,exp4.png,,,,,,,,,,,,,,,,,,1,0,1,0,0,7,7,7,,,,,,,,,False,26,107,False,exp3.png,exp4.png,trial_left_image,1,exp3.png,4,exp3.png,exp4.png,0,4,reversed,correct,0.37084085120330434,1,valid_win,699.7407869999879,71,,,,,,,,,,,,,,,,sub_284,2022-12-21_12h48.24.296,Reversal,2022.1.1,59.85507887351414,4,
8,exp1.png,exp2.png,,,,,,,,,,,,,,,,,,1,0,1,0,0,8,8,8,,,,,,,,,False,27,108,True,exp2.png,exp1.png,trial_right_image,-1,exp1.png,4,exp2.png,exp1.png,0,2,non-reversed,incorrect,0.22183115910117923,1,invalid_win,707.3233227999881,72,,,,,,,,,,,,,,,,sub_284,2022-12-21_12h48.24.296,Reversal,2022.1.1,59.85507887351414,4,
9,exp3.png,exp4.png,,,,,,,,,,,,,,,,,,1,0,1,0,0,9,9,9,,,,,,,,,False,28,109,False,exp3.png,exp4.png,trial_left_image,1,exp3.png,4,exp3.png,exp4.png,0,4,reversed,correct,0.41512018837488185,1,valid_win,712.6389543999685,73,,,,,,,,,,,,,,,,sub_284,2022-12-21_12h48.24.296,Reversal,2022.1.1,59.85507887351414,4,
10,exp1.png,exp2.png,,,,,,,,,,,,,,,,,,1,0,1,0,0,10,10,10,,,,,,,,,False,29,110,False,exp1.png,exp2.png,trial_right_image,-1,exp2.png,4,exp2.png,exp1.png,1,1,non-reversed,correct,0.02308152057628099,0,invalid_lose,717.538150599983,73,,,,,,,,,,,,,,,,sub_284,2022-12-21_12h48.24.296,Reversal,2022.1.1,59.85507887351414,4,
11,exp3.png,exp4.png,,,,,,,,,,,,,,,,,,1,0,1,0,0,11,11,11,,,,,,,,,False,30,111,True,exp4.png,exp3.png,trial_right_image,-1,exp3.png,4,exp3.png,exp4.png,0,4,reversed,correct,0.8913769192640357,1,valid_win,722.6897283999715,74,,,,,,,,,,,,,,,,sub_284,2022-12-21_12h48.24.296,Reversal,2022.1.1,59.85507887351414,4,
12,exp1.png,exp2.png,,,,,,,,,,,,,,,,,,1,0,1,0,0,12,12,12,,,,,,,,,False,31,112,True,exp2.png,exp1.png,trial_right_image,-1,exp1.png,4,exp2.png,exp1.png,0,2,non-reversed,incorrect,0.5418047993208422,0,valid_lose,727.5543883999926,74,,,,,,,,,,,,,,,,sub_284,2022-12-21_12h48.24.296,Reversal,2022.1.1,59.85507887351414,4,
13,exp3.png,exp4.png,,,,,,,,,,,,,,,,,,1,0,1,0,0,13,13,13,,,,,,,,,False,32,113,True,exp4.png,exp3.png,trial_right_image,-1,exp3.png,4,exp3.png,exp4.png,0,4,reversed,correct,0.5047318710038373,1,valid_win,732.5033207999659,75,,,,,,,,,,,,,,,,sub_284,2022-12-21_12h48.24.296,Reversal,2022.1.1,59.85507887351414,4,
14,exp1.png,exp2.png,,,,,,,,,,,,,,,,,,1,0,1,0,0,14,14,14,,,,,,,,,False,33,114,True,exp2.png,exp1.png,trial_right_image,-1,exp1.png,4,exp2.png,exp1.png,0,2,non-reversed,incorrect,0.8159115321734028,0,valid_lose,737.9213266999577,75,,,,,,,,,,,,,,,,sub_284,2022-12-21_12h48.24.296,Reversal,2022.1.1,59.85507887351414,4,
15,exp3.png,exp4.png,,,,,,,,,,,,,,,,,,1,0,1,0,0,15,15,15,,,,,,,,,False,34,115,True,exp4.png,exp3.png,trial_right_image,-1,exp3.png,4,exp3.png,exp4.png,0,4,reversed,correct,0.9508576007516644,1,valid_win,742.535054899985,76,,,,,,,,,,,,,,,,sub_284,2022-12-21_12h48.24.296,Reversal,2022.1.1,59.85507887351414,4,
16,exp1.png,exp2.png,,,,,,,,,,,,,,,,,,1,0,1,0,0,16,16,16,,,,,,,,,False,35,116,True,exp2.png,exp1.png,trial_left_image,1,exp2.png,4,exp2.png,exp1.png,1,1,non-reversed,correct,0.44022511653094976,1,valid_win,747.4513831999502,77,,,,,,,,,,,,,,,,sub_284,2022-12-21_12h48.24.296,Reversal,2022.1.1,59.85507887351414,4,
17,exp3.png,exp4.png,,,,,,,,,,,,,,,,,,1,0,1,0,0,17,17,17,,,,,,,,,False,36,117,False,exp3.png,exp4.png,trial_left_image,1,exp3.png,4,exp3.png,exp4.png,0,4,reversed,correct,0.40864806493616634,1,valid_win,752.6838441999862,78,,,,,,,,,,,,,,,,sub_284,2022-12-21_12h48.24.296,Reversal,2022.1.1,59.85507887351414,4,
18,exp1.png,exp2.png,,,,,,,,,,,,,,,,,,1,0,1,0,0,18,18,18,,,,,,,,,False,37,118,False,exp1.png,exp2.png,trial_right_image,-1,exp2.png,4,exp2.png,exp1.png,1,1,non-reversed,correct,0.38427002466775717,1,valid_win,757.8848102999618,79,,,,,,,,,,,,,,,,sub_284,2022-12-21_12h48.24.296,Reversal,2022.1.1,59.85507887351414,4,
19,exp3.png,exp4.png,,,,,,,,,,,,,,,,,,1,0,1,0,0,19,19,19,,,,,,,,,False,38,119,False,exp3.png,exp4.png,trial_left_image,1,exp3.png,4,exp3.png,exp4.png,0,4,reversed,correct,0.5605892491303378,1,valid_win,762.7993718999787,80,,,,,,,,,,,,,,,,sub_284,2022-12-21_12h48.24.296,Reversal,2022.1.1,59.85507887351414,4,
20,exp1.png,exp2.png,,,,,,,,,,,,,,,,,,1,0,1,0,0,20,20,20,,,,,,,,,False,39,120,False,exp1.png,exp2.png,trial_right_image,-1,exp2.png,4,exp2.png,exp1.png,1,1,non-reversed,correct,0.770096219803878,1,valid_win,767.5821170999552,81,,,,,,,,,,,,,,,,sub_284,2022-12-21_12h48.24.296,Reversal,2022.1.1,59.85507887351414,4,
,,,exp1.png,,,,,,,,,,,,,,,,,1,0,1,0,,,,,0,0,0,0,0,0,0,0,,,,,,,,,,,,,,,,,,,,,,100.0,8.482839500007685,"[(100.0, 8.482839500007685)]",887.8544278000481,None,,,,100.0,,,,,,,sub_284,2022-12-21_12h48.24.296,Reversal,2022.1.1,59.85507887351414,4,
,,,exp2.png,,,,,,,,,,,,,,,,,1,0,1,0,,,,,0,0,0,0,0,1,1,1,,,,,,,,,,,,,,,,,,,,,,2.0,5.570833700010553,"[(2.0, 5.570833700010553)]",897.5509177000495,None,2.0,,,,,,,,,,sub_284,2022-12-21_12h48.24.296,Reversal,2022.1.1,59.85507887351414,4,
,,,exp3.png,,,,,,,,,,,,,,,,,1,0,1,0,,,,,0,0,0,0,0,2,2,2,,,,,,,,,,,,,,,,,,,,,,1.0,2.2535118999658152,"[(1.0, 2.2535118999658152)]",904.8996444000513,None,,1.0,,,,,,,,,sub_284,2022-12-21_12h48.24.296,Reversal,2022.1.1,59.85507887351414,4,
,,,exp4.png,,,,,,,,,,,,,,,,,1,0,1,0,,,,,0,0,0,0,0,3,3,3,,,,,,,,,,,,,,,,,,,,,,100.0,1.5216351000126451,"[(100.0, 1.5216351000126451)]",908.2616419999977,None,,,100.0,,,,,,,,sub_284,2022-12-21_12h48.24.296,Reversal,2022.1.1,59.85507887351414,4,
0,exp1.png,exp2.png,,,,,,,,,,,,,,,,,,2,0,2,0,0,0,0,0,,,,,,,,,True,,,,,,,,,,,,,,,,,,,,,,,,,,,,,,,,,,,,sub_284,2022-12-21_12h48.24.296,Reversal,2022.1.1,59.85507887351414,4,
1,exp3.png,exp4.png,,,,,,,,,,,,,,,,,,2,0,2,0,0,1,1,1,,,,,,,,,False,40,121,False,exp3.png,exp4.png,trial_left_image,1,exp3.png,4,exp3.png,exp4.png,0,4,reversed,correct,0.734500990598986,1,valid_win,795.7956099999719,82,,,,,,,,,,,,,,,,sub_284,2022-12-21_12h48.24.296,Reversal,2022.1.1,59.85507887351414,4,
2,exp1.png,exp2.png,,,,,,,,,,,,,,,,,,2,0,2,0,0,2,2,2,,,,,,,,,False,41,122,True,exp2.png,exp1.png,trial_right_image,-1,exp1.png,4,exp2.png,exp1.png,0,2,non-reversed,incorrect,0.18878446003451133,1,invalid_win,801.1775786999497,83,,,,,,,,,,,,,,,,sub_284,2022-12-21_12h48.24.296,Reversal,2022.1.1,59.85507887351414,4,
3,exp3.png,exp4.png,,,,,,,,,,,,,,,,,,2,0,2,0,0,3,3,3,,,,,,,,,False,42,123,False,exp3.png,exp4.png,trial_left_image,1,exp3.png,4,exp3.png,exp4.png,0,4,reversed,correct,0.6909038875234795,1,valid_win,805.8451163999853,84,,,,,,,,,,,,,,,,sub_284,2022-12-21_12h48.24.296,Reversal,2022.1.1,59.85507887351414,4,
4,exp1.png,exp2.png,,,,,,,,,,,,,,,,,,2,0,2,0,0,4,4,4,,,,,,,,,False,43,124,True,exp2.png,exp1.png,trial_left_image,1,exp2.png,4,exp2.png,exp1.png,1,1,non-reversed,correct,0.6317743048638103,1,valid_win,812.2933028999832,85,,,,,,,,,,,,,,,,sub_284,2022-12-21_12h48.24.296,Reversal,2022.1.1,59.85507887351414,4,
5,exp3.png,exp4.png,,,,,,,,,,,,,,,,,,2,0,2,0,0,5,5,5,,,,,,,,,False,44,125,True,exp4.png,exp3.png,trial_right_image,-1,exp3.png,4,exp3.png,exp4.png,0,4,reversed,correct,0.7152668705404506,1,valid_win,817.5251136999577,86,,,,,,,,,,,,,,,,sub_284,2022-12-21_12h48.24.296,Reversal,2022.1.1,59.85507887351414,4,
6,exp1.png,exp2.png,,,,,,,,,,,,,,,,,,2,0,2,0,0,6,6,6,,,,,,,,,False,45,126,False,exp1.png,exp2.png,trial_right_image,-1,exp2.png,4,exp2.png,exp1.png,1,1,non-reversed,correct,0.01808610494294227,0,invalid_lose,823.2606460999814,86,,,,,,,,,,,,,,,,sub_284,2022-12-21_12h48.24.296,Reversal,2022.1.1,59.85507887351414,4,
7,exp3.png,exp4.png,,,,,,,,,,,,,,,,,,2,0,2,0,0,7,7,7,,,,,,,,,False,46,127,True,exp4.png,exp3.png,trial_right_image,-1,exp3.png,4,exp3.png,exp4.png,0,4,reversed,correct,0.4746588876069432,1,valid_win,827.8406824999838,87,,,,,,,,,,,,,,,,sub_284,2022-12-21_12h48.24.296,Reversal,2022.1.1,59.85507887351414,4,
8,exp1.png,exp2.png,,,,,,,,,,,,,,,,,,2,0,2,0,0,8,8,8,,,,,,,,,False,47,128,True,exp2.png,exp1.png,trial_left_image,1,exp2.png,4,exp2.png,exp1.png,1,1,non-reversed,correct,0.025713229163446982,0,invalid_lose,834.0237742000027,87,,,,,,,,,,,,,,,,sub_284,2022-12-21_12h48.24.296,Reversal,2022.1.1,59.85507887351414,4,
9,exp3.png,exp4.png,,,,,,,,,,,,,,,,,,2,0,2,0,0,9,9,9,,,,,,,,,False,48,129,False,exp3.png,exp4.png,trial_left_image,1,exp3.png,4,exp3.png,exp4.png,0,4,reversed,correct,0.24616041287626989,0,invalid_lose,839.0902345999493,87,,,,,,,,,,,,,,,,sub_284,2022-12-21_12h48.24.296,Reversal,2022.1.1,59.85507887351414,4,
10,exp1.png,exp2.png,,,,,,,,,,,,,,,,,,2,0,2,0,0,10,10,10,,,,,,,,,False,49,130,True,exp2.png,exp1.png,trial_right_image,-1,exp1.png,4,exp2.png,exp1.png,0,2,non-reversed,incorrect,0.19266583634754397,1,invalid_win,844.0907380999997,88,,,,,,,,,,,,,,,,sub_284,2022-12-21_12h48.24.296,Reversal,2022.1.1,59.85507887351414,4,
11,exp3.png,exp4.png,,,,,,,,,,,,,,,,,,2,0,2,0,0,11,11,11,,,,,,,,,False,50,131,False,exp3.png,exp4.png,trial_left_image,1,exp3.png,4,exp3.png,exp4.png,0,4,reversed,correct,0.8777978621328739,1,valid_win,849.671378799947,89,,,,,,,,,,,,,,,,sub_284,2022-12-21_12h48.24.296,Reversal,2022.1.1,59.85507887351414,4,
12,exp1.png,exp2.png,,,,,,,,,,,,,,,,,,2,0,2,0,0,12,12,12,,,,,,,,,False,51,132,True,exp2.png,exp1.png,trial_left_image,1,exp2.png,4,exp2.png,exp1.png,1,1,non-reversed,correct,0.9411020946298706,1,valid_win,855.9543813999626,90,,,,,,,,,,,,,,,,sub_284,2022-12-21_12h48.24.296,Reversal,2022.1.1,59.85507887351414,4,
13,exp3.png,exp4.png,,,,,,,,,,,,,,,,,,2,0,2,0,0,13,13,13,,,,,,,,,False,52,133,False,exp3.png,exp4.png,trial_left_image,1,exp3.png,4,exp3.png,exp4.png,0,4,reversed,correct,0.3517279178406034,1,valid_win,860.8537393999868,91,,,,,,,,,,,,,,,,sub_284,2022-12-21_12h48.24.296,Reversal,2022.1.1,59.85507887351414,4,
14,exp1.png,exp2.png,,,,,,,,,,,,,,,,,,2,0,2,0,0,14,14,14,,,,,,,,,False,53,134,False,exp1.png,exp2.png,trial_right_image,-1,exp2.png,4,exp2.png,exp1.png,1,1,non-reversed,correct,0.2527316116132269,1,valid_win,865.6525837999652,92,,,,,,,,,,,,,,,,sub_284,2022-12-21_12h48.24.296,Reversal,2022.1.1,59.85507887351414,4,
15,exp3.png,exp4.png,,,,,,,,,,,,,,,,,,2,0,2,0,0,15,15,15,,,,,,,,,False,54,135,True,exp4.png,exp3.png,trial_right_image,-1,exp3.png,4,exp3.png,exp4.png,0,4,reversed,correct,0.3189681732796922,1,valid_win,870.4523244999582,93,,,,,,,,,,,,,,,,sub_284,2022-12-21_12h48.24.296,Reversal,2022.1.1,59.85507887351414,4,
16,exp1.png,exp2.png,,,,,,,,,,,,,,,,,,2,0,2,0,0,16,16,16,,,,,,,,,False,55,136,True,exp2.png,exp1.png,trial_left_image,1,exp2.png,4,exp2.png,exp1.png,1,1,non-reversed,correct,0.38013624536230783,1,valid_win,878.5516051999875,94,,,,,,,,,,,,,,,,sub_284,2022-12-21_12h48.24.296,Reversal,2022.1.1,59.85507887351414,4,
17,exp3.png,exp4.png,,,,,,,,,,,,,,,,,,2,0,2,0,0,17,17,17,,,,,,,,,False,56,137,False,exp3.png,exp4.png,trial_left_image,1,exp3.png,4,exp3.png,exp4.png,0,4,reversed,correct,0.20001719716343935,0,invalid_lose,883.4019871999626,94,,,,,,,,,,,,,,,,sub_284,2022-12-21_12h48.24.296,Reversal,2022.1.1,59.85507887351414,4,
18,exp1.png,exp2.png,,,,,,,,,,,,,,,,,,2,0,2,0,0,18,18,18,,,,,,,,,False,57,138,False,exp1.png,exp2.png,trial_right_image,-1,exp2.png,4,exp2.png,exp1.png,1,1,non-reversed,correct,0.47785125040840026,1,valid_win,887.9178759999922,95,,,,,,,,,,,,,,,,sub_284,2022-12-21_12h48.24.296,Reversal,2022.1.1,59.85507887351414,4,
19,exp3.png,exp4.png,,,,,,,,,,,,,,,,,,2,0,2,0,0,19,19,19,,,,,,,,,False,58,139,True,exp4.png,exp3.png,trial_right_image,-1,exp3.png,4,exp3.png,exp4.png,0,4,reversed,correct,0.6987729329172888,1,valid_win,892.9488428999903,96,,,,,,,,,,,,,,,,sub_284,2022-12-21_12h48.24.296,Reversal,2022.1.1,59.85507887351414,4,
20,exp1.png,exp2.png,,,,,,,,,,,,,,,,,,2,0,2,0,0,20,20,20,,,,,,,,,False,59,140,False,exp1.png,exp2.png,trial_left_image,1,exp1.png,4,exp2.png,exp1.png,0,2,non-reversed,incorrect,0.29351752473990456,0,valid_lose,897.9828195999726,96,,,,,,,,,,,,,,,,sub_284,2022-12-21_12h48.24.296,Reversal,2022.1.1,59.85507887351414,4,
,,,exp1.png,,,,,,,,,,,,,,,,,2,0,2,0,,,,,0,0,0,0,0,0,0,0,,,,,,,,,,,,,,,,,,,,,,100.0,6.715672599966638,"[(100.0, 6.715672599966638)]",1018.2563854000182,None,,,,100.0,,,,,,,sub_284,2022-12-21_12h48.24.296,Reversal,2022.1.1,59.85507887351414,4,
,,,exp2.png,,,,,,,,,,,,,,,,,2,0,2,0,,,,,0,0,0,0,0,1,1,1,,,,,,,,,,,,,,,,,,,,,,100.0,1.5075562999700196,"[(100.0, 1.5075562999700196)]",1028.193785200012,None,100.0,,,,,,,,,,sub_284,2022-12-21_12h48.24.296,Reversal,2022.1.1,59.85507887351414,4,
,,,exp3.png,,,,,,,,,,,,,,,,,2,0,2,0,,,,,0,0,0,0,0,2,2,2,,,,,,,,,,,,,,,,,,,,,,1.0,1.7212384999729693,"[(1.0, 1.7212384999729693)]",1030.763450700033,None,,1.0,,,,,,,,,sub_284,2022-12-21_12h48.24.296,Reversal,2022.1.1,59.85507887351414,4,
,,,exp4.png,,,,,,,,,,,,,,,,,2,0,2,0,,,,,0,0,0,0,0,3,3,3,,,,,,,,,,,,,,,,,,,,,,1.0,3.5716343999956734,"[(1.0, 3.5716343999956734)]",1033.66369690001,None,,,1.0,,,,,,,,sub_284,2022-12-21_12h48.24.296,Reversal,2022.1.1,59.85507887351414,4,
,,,,,,,,,,,,,,,,,,,,,,,,,,,,,,,,,,,,,,,,,,,,,,,,,,,,,,,,96,,,,,,,,,,,102,54,48,385.4532326000044,1,,,,,,,
