trial_index,trial_image1_file,trial_image2_file,image_file,learning_outer_loop.thisRepN,learning_outer_loop.thisTrialN,learning_outer_loop.thisN,learning_outer_loop.thisIndex,learning_inner_loop.thisRepN,learning_inner_loop.thisTrialN,learning_inner_loop.thisN,learning_inner_loop.thisIndex,learning_estimation_outer_loop.thisRepN,learning_estimation_outer_loop.thisTrialN,learning_estimation_outer_loop.thisN,learning_estimation_outer_loop.thisIndex,learning_estimation_inner_loop.thisRepN,learning_estimation_inner_loop.thisTrialN,learning_estimation_inner_loop.thisN,learning_estimation_inner_loop.thisIndex,reversal_outer_loop.thisRepN,reversal_outer_loop.thisTrialN,reversal_outer_loop.thisN,reversal_outer_loop.thisIndex,reversal_inner_loop.thisRepN,reversal_inner_loop.thisTrialN,reversal_inner_loop.thisN,reversal_inner_loop.thisIndex,reversal_estimation_outer_loop.thisRepN,reversal_estimation_outer_loop.thisTrialN,reversal_estimation_outer_loop.thisN,reversal_estimation_outer_loop.thisIndex,reversal_estimation_inner_loop.thisRepN,reversal_estimation_inner_loop.thisTrialN,reversal_estimation_inner_loop.thisN,reversal_estimation_inner_loop.thisIndex,skipped,total_trial_counter,trial_num,left_right_flip,left_image_file,right_image_file,clicked_stimulus_side,side,clicked_stimulus,version,high_prob_image_file,low_prob_image_file,choice_a,choice_b,pair_type,correct,trial_feedback_random,reward,trial_type,overall_time_after_trial,score,estimation_exp1.png,estimation_rating.response,estimation_rating.rt,estimation_rating.history,estimation_rating.started,estimation_rating.stopped,estimation_exp2.png,estimation_exp3.png,estimation_exp4.png,total_learning_time,total_correct,learning_correct,reversal_correct,total_reversal_time,extra_block,participant,date,expName,psychopyVersion,frameRate,ver,
0,exp1.png,exp2.png,,0,0,0,0,0,0,0,0,,,,,,,,,,,,,,,,,,,,,,,,,True,,,,,,,,,,,,,,,,,,,,,,,,,,,,,,,,,,,,sub_480,2023-08-02_17h17.33.176,Reversal,2022.1.1,59.88798551171328,4,
1,exp3.png,exp4.png,,0,0,0,0,0,1,1,1,,,,,,,,,,,,,,,,,,,,,,,,,False,0,1,True,exp4.png,exp3.png,trial_left_image,1,exp4.png,4,exp4.png,exp3.png,1,3,reversed,correct,0.31392871559998237,1,valid_win,2.433022900000651,1,,,,,,,,,,,,,,,,sub_480,2023-08-02_17h17.33.176,Reversal,2022.1.1,59.88798551171328,4,
2,exp1.png,exp2.png,,0,0,0,0,0,2,2,2,,,,,,,,,,,,,,,,,,,,,,,,,False,1,2,True,exp2.png,exp1.png,trial_right_image,-1,exp1.png,4,exp2.png,exp1.png,0,2,non-reversed,incorrect,0.9165160800167931,0,valid_lose,6.716774400001668,1,,,,,,,,,,,,,,,,sub_480,2023-08-02_17h17.33.176,Reversal,2022.1.1,59.88798551171328,4,
3,exp3.png,exp4.png,,0,0,0,0,0,3,3,3,,,,,,,,,,,,,,,,,,,,,,,,,False,2,3,False,exp3.png,exp4.png,trial_right_image,-1,exp4.png,4,exp4.png,exp3.png,1,3,reversed,correct,0.18013366260786168,0,invalid_lose,10.930925300001036,1,,,,,,,,,,,,,,,,sub_480,2023-08-02_17h17.33.176,Reversal,2022.1.1,59.88798551171328,4,
4,exp1.png,exp2.png,,0,0,0,0,0,4,4,4,,,,,,,,,,,,,,,,,,,,,,,,,False,3,4,False,exp1.png,exp2.png,trial_left_image,1,exp1.png,4,exp2.png,exp1.png,0,2,non-reversed,incorrect,0.7093387111975443,0,valid_lose,14.99800040000082,1,,,,,,,,,,,,,,,,sub_480,2023-08-02_17h17.33.176,Reversal,2022.1.1,59.88798551171328,4,
5,exp3.png,exp4.png,,0,0,0,0,0,5,5,5,,,,,,,,,,,,,,,,,,,,,,,,,False,4,5,False,exp3.png,exp4.png,trial_left_image,1,exp3.png,4,exp4.png,exp3.png,0,4,reversed,incorrect,0.7755084706397727,0,valid_lose,19.196680500001094,1,,,,,,,,,,,,,,,,sub_480,2023-08-02_17h17.33.176,Reversal,2022.1.1,59.88798551171328,4,
6,exp1.png,exp2.png,,0,0,0,0,0,6,6,6,,,,,,,,,,,,,,,,,,,,,,,,,False,5,6,False,exp1.png,exp2.png,trial_right_image,-1,exp2.png,4,exp2.png,exp1.png,1,1,non-reversed,correct,0.2643985285424765,1,valid_win,23.064264300001014,2,,,,,,,,,,,,,,,,sub_480,2023-08-02_17h17.33.176,Reversal,2022.1.1,59.88798551171328,4,
7,exp3.png,exp4.png,,0,0,0,0,0,7,7,7,,,,,,,,,,,,,,,,,,,,,,,,,False,6,7,True,exp4.png,exp3.png,trial_right_image,-1,exp3.png,4,exp4.png,exp3.png,0,4,reversed,incorrect,0.6345332049354883,0,valid_lose,27.27961030000006,2,,,,,,,,,,,,,,,,sub_480,2023-08-02_17h17.33.176,Reversal,2022.1.1,59.88798551171328,4,
8,exp1.png,exp2.png,,0,0,0,0,0,8,8,8,,,,,,,,,,,,,,,,,,,,,,,,,False,7,8,True,exp2.png,exp1.png,trial_left_image,1,exp2.png,4,exp2.png,exp1.png,1,1,non-reversed,correct,0.4845295018711262,1,valid_win,31.645549100001517,3,,,,,,,,,,,,,,,,sub_480,2023-08-02_17h17.33.176,Reversal,2022.1.1,59.88798551171328,4,
9,exp3.png,exp4.png,,0,0,0,0,0,9,9,9,,,,,,,,,,,,,,,,,,,,,,,,,False,8,9,True,exp4.png,exp3.png,trial_left_image,1,exp4.png,4,exp4.png,exp3.png,1,3,reversed,correct,0.7547713236151486,1,valid_win,36.311360100000456,4,,,,,,,,,,,,,,,,sub_480,2023-08-02_17h17.33.176,Reversal,2022.1.1,59.88798551171328,4,
10,exp1.png,exp2.png,,0,0,0,0,0,10,10,10,,,,,,,,,,,,,,,,,,,,,,,,,False,9,10,True,exp2.png,exp1.png,trial_right_image,-1,exp1.png,4,exp2.png,exp1.png,0,2,non-reversed,incorrect,0.42007364573585726,0,valid_lose,40.7274105000015,4,,,,,,,,,,,,,,,,sub_480,2023-08-02_17h17.33.176,Reversal,2022.1.1,59.88798551171328,4,
11,exp3.png,exp4.png,,0,0,0,0,0,11,11,11,,,,,,,,,,,,,,,,,,,,,,,,,False,10,11,False,exp3.png,exp4.png,trial_left_image,1,exp3.png,4,exp4.png,exp3.png,0,4,reversed,incorrect,0.03833647814182717,1,invalid_win,44.89385050000055,5,,,,,,,,,,,,,,,,sub_480,2023-08-02_17h17.33.176,Reversal,2022.1.1,59.88798551171328,4,
12,exp1.png,exp2.png,,0,0,0,0,0,12,12,12,,,,,,,,,,,,,,,,,,,,,,,,,False,11,12,True,exp2.png,exp1.png,trial_left_image,1,exp2.png,4,exp2.png,exp1.png,1,1,non-reversed,correct,0.2604522704145604,1,valid_win,49.01031910000165,6,,,,,,,,,,,,,,,,sub_480,2023-08-02_17h17.33.176,Reversal,2022.1.1,59.88798551171328,4,
13,exp3.png,exp4.png,,0,0,0,0,0,13,13,13,,,,,,,,,,,,,,,,,,,,,,,,,False,12,13,False,exp3.png,exp4.png,trial_left_image,1,exp3.png,4,exp4.png,exp3.png,0,4,reversed,incorrect,0.560663845025564,0,valid_lose,53.32508890000099,6,,,,,,,,,,,,,,,,sub_480,2023-08-02_17h17.33.176,Reversal,2022.1.1,59.88798551171328,4,
14,exp1.png,exp2.png,,0,0,0,0,0,14,14,14,,,,,,,,,,,,,,,,,,,,,,,,,False,13,14,True,exp2.png,exp1.png,trial_left_image,1,exp2.png,4,exp2.png,exp1.png,1,1,non-reversed,correct,0.25081615476667296,1,valid_win,57.508276399999886,7,,,,,,,,,,,,,,,,sub_480,2023-08-02_17h17.33.176,Reversal,2022.1.1,59.88798551171328,4,
15,exp3.png,exp4.png,,0,0,0,0,0,15,15,15,,,,,,,,,,,,,,,,,,,,,,,,,False,14,15,True,exp4.png,exp3.png,trial_right_image,-1,exp3.png,4,exp4.png,exp3.png,0,4,reversed,incorrect,0.3317136628182329,0,valid_lose,61.59136690000014,7,,,,,,,,,,,,,,,,sub_480,2023-08-02_17h17.33.176,Reversal,2022.1.1,59.88798551171328,4,
16,exp1.png,exp2.png,,0,0,0,0,0,16,16,16,,,,,,,,,,,,,,,,,,,,,,,,,False,15,16,False,exp1.png,exp2.png,trial_left_image,1,exp1.png,4,exp2.png,exp1.png,0,2,non-reversed,incorrect,0.5342305523731556,0,valid_lose,65.95815500000026,7,,,,,,,,,,,,,,,,sub_480,2023-08-02_17h17.33.176,Reversal,2022.1.1,59.88798551171328,4,
17,exp3.png,exp4.png,,0,0,0,0,0,17,17,17,,,,,,,,,,,,,,,,,,,,,,,,,False,16,17,False,exp3.png,exp4.png,trial_right_image,-1,exp4.png,4,exp4.png,exp3.png,1,3,reversed,correct,0.5137877259910586,1,valid_win,70.35673820000011,8,,,,,,,,,,,,,,,,sub_480,2023-08-02_17h17.33.176,Reversal,2022.1.1,59.88798551171328,4,
18,exp1.png,exp2.png,,0,0,0,0,0,18,18,18,,,,,,,,,,,,,,,,,,,,,,,,,False,17,18,False,exp1.png,exp2.png,trial_right_image,-1,exp2.png,4,exp2.png,exp1.png,1,1,non-reversed,correct,0.3494027285955831,1,valid_win,74.55515540000124,9,,,,,,,,,,,,,,,,sub_480,2023-08-02_17h17.33.176,Reversal,2022.1.1,59.88798551171328,4,
19,exp3.png,exp4.png,,0,0,0,0,0,19,19,19,,,,,,,,,,,,,,,,,,,,,,,,,False,18,19,True,exp4.png,exp3.png,trial_right_image,-1,exp3.png,4,exp4.png,exp3.png,0,4,reversed,incorrect,0.0779515453846864,1,invalid_win,78.58902670000134,10,,,,,,,,,,,,,,,,sub_480,2023-08-02_17h17.33.176,Reversal,2022.1.1,59.88798551171328,4,
20,exp1.png,exp2.png,,0,0,0,0,0,20,20,20,,,,,,,,,,,,,,,,,,,,,,,,,False,19,20,False,exp1.png,exp2.png,trial_right_image,-1,exp2.png,4,exp2.png,exp1.png,1,1,non-reversed,correct,0.33661092615908306,1,valid_win,82.7718332000004,11,,,,,,,,,,,,,,,,sub_480,2023-08-02_17h17.33.176,Reversal,2022.1.1,59.88798551171328,4,
,,,exp1.png,0,0,0,0,,,,,0,0,0,0,0,0,0,0,,,,,,,,,,,,,,,,,,,,,,,,,,,,,,,,,,,,,,100.0,100.0,11.136241199999859,"[(100.0, 11.136241199999859)]",106.84530779999841,None,,,,,,,,,,sub_480,2023-08-02_17h17.33.176,Reversal,2022.1.1,59.88798551171328,4,
,,,exp2.png,0,0,0,0,,,,,0,0,0,0,0,1,1,1,,,,,,,,,,,,,,,,,,,,,,,,,,,,,,,,,,,,,,,1.0,3.697835599999962,"[(1.0, 3.697835599999962)]",119.2367792999994,None,1.0,,,,,,,,,sub_480,2023-08-02_17h17.33.176,Reversal,2022.1.1,59.88798551171328,4,
,,,exp3.png,0,0,0,0,,,,,0,0,0,0,0,2,2,2,,,,,,,,,,,,,,,,,,,,,,,,,,,,,,,,,,,,,,,100.0,1.9640204999996058,"[(100.0, 1.9640204999996058)]",124.13752439999917,None,,100.0,,,,,,,,sub_480,2023-08-02_17h17.33.176,Reversal,2022.1.1,59.88798551171328,4,
,,,exp4.png,0,0,0,0,,,,,0,0,0,0,0,3,3,3,,,,,,,,,,,,,,,,,,,,,,,,,,,,,,,,,,,,,,,4.0,3.069014300001072,"[(4.0, 3.069014300001072)]",127.39685269999973,None,,,4.0,,,,,,,sub_480,2023-08-02_17h17.33.176,Reversal,2022.1.1,59.88798551171328,4,
0,exp1.png,exp2.png,,1,0,1,0,0,0,0,0,,,,,,,,,,,,,,,,,,,,,,,,,True,,,,,,,,,,,,,,,,,,,,,,,,,,,,,,,,,,,,sub_480,2023-08-02_17h17.33.176,Reversal,2022.1.1,59.88798551171328,4,
1,exp3.png,exp4.png,,1,0,1,0,0,1,1,1,,,,,,,,,,,,,,,,,,,,,,,,,False,20,21,True,exp4.png,exp3.png,trial_left_image,1,exp4.png,4,exp4.png,exp3.png,1,3,reversed,correct,0.7200763095055114,1,valid_win,114.30113430000165,12,,,,,,,,,,,,,,,,sub_480,2023-08-02_17h17.33.176,Reversal,2022.1.1,59.88798551171328,4,
2,exp1.png,exp2.png,,1,0,1,0,0,2,2,2,,,,,,,,,,,,,,,,,,,,,,,,,False,21,22,True,exp2.png,exp1.png,trial_left_image,1,exp2.png,4,exp2.png,exp1.png,1,1,non-reversed,correct,0.2469657464949787,0,invalid_lose,118.96785610000006,12,,,,,,,,,,,,,,,,sub_480,2023-08-02_17h17.33.176,Reversal,2022.1.1,59.88798551171328,4,
3,exp3.png,exp4.png,,1,0,1,0,0,3,3,3,,,,,,,,,,,,,,,,,,,,,,,,,False,22,23,False,exp3.png,exp4.png,trial_right_image,-1,exp4.png,4,exp4.png,exp3.png,1,3,reversed,correct,0.5487018883746526,1,valid_win,123.10086600000068,13,,,,,,,,,,,,,,,,sub_480,2023-08-02_17h17.33.176,Reversal,2022.1.1,59.88798551171328,4,
4,exp1.png,exp2.png,,1,0,1,0,0,4,4,4,,,,,,,,,,,,,,,,,,,,,,,,,False,23,24,True,exp2.png,exp1.png,trial_right_image,-1,exp1.png,4,exp2.png,exp1.png,0,2,non-reversed,incorrect,0.11870895893002387,1,invalid_win,127.23969260000013,14,,,,,,,,,,,,,,,,sub_480,2023-08-02_17h17.33.176,Reversal,2022.1.1,59.88798551171328,4,
5,exp3.png,exp4.png,,1,0,1,0,0,5,5,5,,,,,,,,,,,,,,,,,,,,,,,,,False,24,25,False,exp3.png,exp4.png,trial_right_image,-1,exp4.png,4,exp4.png,exp3.png,1,3,reversed,correct,0.25645310715339986,1,valid_win,131.98240260000057,15,,,,,,,,,,,,,,,,sub_480,2023-08-02_17h17.33.176,Reversal,2022.1.1,59.88798551171328,4,
6,exp1.png,exp2.png,,1,0,1,0,0,6,6,6,,,,,,,,,,,,,,,,,,,,,,,,,False,25,26,False,exp1.png,exp2.png,trial_left_image,1,exp1.png,4,exp2.png,exp1.png,0,2,non-reversed,incorrect,0.9344105229722967,0,valid_lose,136.53124820000085,15,,,,,,,,,,,,,,,,sub_480,2023-08-02_17h17.33.176,Reversal,2022.1.1,59.88798551171328,4,
7,exp3.png,exp4.png,,1,0,1,0,0,7,7,7,,,,,,,,,,,,,,,,,,,,,,,,,False,26,27,True,exp4.png,exp3.png,trial_left_image,1,exp4.png,4,exp4.png,exp3.png,1,3,reversed,correct,0.6586996639166102,1,valid_win,141.01398880000124,16,,,,,,,,,,,,,,,,sub_480,2023-08-02_17h17.33.176,Reversal,2022.1.1,59.88798551171328,4,
8,exp1.png,exp2.png,,1,0,1,0,0,8,8,8,,,,,,,,,,,,,,,,,,,,,,,,,False,27,28,False,exp1.png,exp2.png,trial_left_image,1,exp1.png,4,exp2.png,exp1.png,0,2,non-reversed,incorrect,0.8192266020981902,0,valid_lose,145.2461843000001,16,,,,,,,,,,,,,,,,sub_480,2023-08-02_17h17.33.176,Reversal,2022.1.1,59.88798551171328,4,
9,exp3.png,exp4.png,,1,0,1,0,0,9,9,9,,,,,,,,,,,,,,,,,,,,,,,,,False,28,29,True,exp4.png,exp3.png,trial_right_image,-1,exp3.png,4,exp4.png,exp3.png,0,4,reversed,incorrect,0.9426846549849944,0,valid_lose,149.39603330000136,16,,,,,,,,,,,,,,,,sub_480,2023-08-02_17h17.33.176,Reversal,2022.1.1,59.88798551171328,4,
10,exp1.png,exp2.png,,1,0,1,0,0,10,10,10,,,,,,,,,,,,,,,,,,,,,,,,,False,29,30,False,exp1.png,exp2.png,trial_right_image,-1,exp2.png,4,exp2.png,exp1.png,1,1,non-reversed,correct,0.965373297415615,1,valid_win,154.0127089000016,17,,,,,,,,,,,,,,,,sub_480,2023-08-02_17h17.33.176,Reversal,2022.1.1,59.88798551171328,4,
11,exp3.png,exp4.png,,1,0,1,0,0,11,11,11,,,,,,,,,,,,,,,,,,,,,,,,,False,30,31,False,exp3.png,exp4.png,trial_right_image,-1,exp4.png,4,exp4.png,exp3.png,1,3,reversed,correct,0.8299206135234884,1,valid_win,158.32888380000077,18,,,,,,,,,,,,,,,,sub_480,2023-08-02_17h17.33.176,Reversal,2022.1.1,59.88798551171328,4,
12,exp1.png,exp2.png,,1,0,1,0,0,12,12,12,,,,,,,,,,,,,,,,,,,,,,,,,False,31,32,False,exp1.png,exp2.png,trial_right_image,-1,exp2.png,4,exp2.png,exp1.png,1,1,non-reversed,correct,0.21927476919591182,0,invalid_lose,162.544576100001,18,,,,,,,,,,,,,,,,sub_480,2023-08-02_17h17.33.176,Reversal,2022.1.1,59.88798551171328,4,
13,exp3.png,exp4.png,,1,0,1,0,0,13,13,13,,,,,,,,,,,,,,,,,,,,,,,,,False,32,33,True,exp4.png,exp3.png,trial_left_image,1,exp4.png,4,exp4.png,exp3.png,1,3,reversed,correct,0.40482541567258856,1,valid_win,166.84467050000057,19,,,,,,,,,,,,,,,,sub_480,2023-08-02_17h17.33.176,Reversal,2022.1.1,59.88798551171328,4,
14,exp1.png,exp2.png,,1,0,1,0,0,14,14,14,,,,,,,,,,,,,,,,,,,,,,,,,False,33,34,False,exp1.png,exp2.png,trial_left_image,1,exp1.png,4,exp2.png,exp1.png,0,2,non-reversed,incorrect,0.3179610933543303,0,valid_lose,171.07794960000138,19,,,,,,,,,,,,,,,,sub_480,2023-08-02_17h17.33.176,Reversal,2022.1.1,59.88798551171328,4,
15,exp3.png,exp4.png,,1,0,1,0,0,15,15,15,,,,,,,,,,,,,,,,,,,,,,,,,False,34,35,True,exp4.png,exp3.png,trial_right_image,-1,exp3.png,4,exp4.png,exp3.png,0,4,reversed,incorrect,0.6070348419614385,0,valid_lose,175.32673760000034,19,,,,,,,,,,,,,,,,sub_480,2023-08-02_17h17.33.176,Reversal,2022.1.1,59.88798551171328,4,
16,exp1.png,exp2.png,,1,0,1,0,0,16,16,16,,,,,,,,,,,,,,,,,,,,,,,,,False,35,36,True,exp2.png,exp1.png,trial_right_image,-1,exp1.png,4,exp2.png,exp1.png,0,2,non-reversed,incorrect,0.9277331354656597,0,valid_lose,179.32602980000047,19,,,,,,,,,,,,,,,,sub_480,2023-08-02_17h17.33.176,Reversal,2022.1.1,59.88798551171328,4,
17,exp3.png,exp4.png,,1,0,1,0,0,17,17,17,,,,,,,,,,,,,,,,,,,,,,,,,False,36,37,True,exp4.png,exp3.png,trial_right_image,-1,exp3.png,4,exp4.png,exp3.png,0,4,reversed,incorrect,0.6606586154681364,0,valid_lose,183.27559640000072,19,,,,,,,,,,,,,,,,sub_480,2023-08-02_17h17.33.176,Reversal,2022.1.1,59.88798551171328,4,
18,exp1.png,exp2.png,,1,0,1,0,0,18,18,18,,,,,,,,,,,,,,,,,,,,,,,,,False,37,38,False,exp1.png,exp2.png,trial_left_image,1,exp1.png,4,exp2.png,exp1.png,0,2,non-reversed,incorrect,0.26760418994838897,0,valid_lose,187.4913531000002,19,,,,,,,,,,,,,,,,sub_480,2023-08-02_17h17.33.176,Reversal,2022.1.1,59.88798551171328,4,
19,exp3.png,exp4.png,,1,0,1,0,0,19,19,19,,,,,,,,,,,,,,,,,,,,,,,,,False,38,39,True,exp4.png,exp3.png,trial_left_image,1,exp4.png,4,exp4.png,exp3.png,1,3,reversed,correct,0.6674050148026497,1,valid_win,191.80869960000018,20,,,,,,,,,,,,,,,,sub_480,2023-08-02_17h17.33.176,Reversal,2022.1.1,59.88798551171328,4,
20,exp1.png,exp2.png,,1,0,1,0,0,20,20,20,,,,,,,,,,,,,,,,,,,,,,,,,False,39,40,False,exp1.png,exp2.png,trial_left_image,1,exp1.png,4,exp2.png,exp1.png,0,2,non-reversed,incorrect,0.04760500503906617,1,invalid_win,195.65737480000098,21,,,,,,,,,,,,,,,,sub_480,2023-08-02_17h17.33.176,Reversal,2022.1.1,59.88798551171328,4,
,,,exp1.png,1,0,1,0,,,,,0,0,0,0,0,0,0,0,,,,,,,,,,,,,,,,,,,,,,,,,,,,,,,,,,,,,,100.0,100.0,1.595117200000459,"[(100.0, 1.595117200000459)]",219.74402249999912,None,,,,,,,,,,sub_480,2023-08-02_17h17.33.176,Reversal,2022.1.1,59.88798551171328,4,
,,,exp2.png,1,0,1,0,,,,,0,0,0,0,0,1,1,1,,,,,,,,,,,,,,,,,,,,,,,,,,,,,,,,,,,,,,,1.0,1.3696464000004198,"[(1.0, 1.3696464000004198)]",222.31882899999982,None,1.0,,,,,,,,,sub_480,2023-08-02_17h17.33.176,Reversal,2022.1.1,59.88798551171328,4,
,,,exp3.png,1,0,1,0,,,,,0,0,0,0,0,2,2,2,,,,,,,,,,,,,,,,,,,,,,,,,,,,,,,,,,,,,,,97.0,1.1075562999994872,"[(97.0, 1.1075562999994872)]",225.41414069999882,None,,97.0,,,,,,,,sub_480,2023-08-02_17h17.33.176,Reversal,2022.1.1,59.88798551171328,4,
,,,exp4.png,1,0,1,0,,,,,0,0,0,0,0,3,3,3,,,,,,,,,,,,,,,,,,,,,,,,,,,,,,,,,,,,,,,1.0,1.2179328000001988,"[(1.0, 1.2179328000001988)]",227.85168909999993,None,,,1.0,,,,,,,sub_480,2023-08-02_17h17.33.176,Reversal,2022.1.1,59.88798551171328,4,
0,exp1.png,exp2.png,,2,0,2,0,0,0,0,0,,,,,,,,,,,,,,,,,,,,,,,,,True,,,,,,,,,,,,,,,,,,,,,,,,,,,,,,,,,,,,sub_480,2023-08-02_17h17.33.176,Reversal,2022.1.1,59.88798551171328,4,
1,exp3.png,exp4.png,,2,0,2,0,0,1,1,1,,,,,,,,,,,,,,,,,,,,,,,,,False,40,41,False,exp3.png,exp4.png,trial_right_image,-1,exp4.png,4,exp4.png,exp3.png,1,3,reversed,correct,0.3142535906063397,1,valid_win,210.3887050000012,22,,,,,,,,,,,,,,,,sub_480,2023-08-02_17h17.33.176,Reversal,2022.1.1,59.88798551171328,4,
2,exp1.png,exp2.png,,2,0,2,0,0,2,2,2,,,,,,,,,,,,,,,,,,,,,,,,,False,41,42,True,exp2.png,exp1.png,trial_right_image,-1,exp1.png,4,exp2.png,exp1.png,0,2,non-reversed,incorrect,0.3599491709760161,0,valid_lose,214.57338210000125,22,,,,,,,,,,,,,,,,sub_480,2023-08-02_17h17.33.176,Reversal,2022.1.1,59.88798551171328,4,
3,exp3.png,exp4.png,,2,0,2,0,0,3,3,3,,,,,,,,,,,,,,,,,,,,,,,,,False,42,43,True,exp4.png,exp3.png,trial_right_image,-1,exp3.png,4,exp4.png,exp3.png,0,4,reversed,incorrect,0.013113209455964725,1,invalid_win,218.48809000000074,23,,,,,,,,,,,,,,,,sub_480,2023-08-02_17h17.33.176,Reversal,2022.1.1,59.88798551171328,4,
4,exp1.png,exp2.png,,2,0,2,0,0,4,4,4,,,,,,,,,,,,,,,,,,,,,,,,,False,43,44,True,exp2.png,exp1.png,trial_right_image,-1,exp1.png,4,exp2.png,exp1.png,0,2,non-reversed,incorrect,0.0464893722344103,1,invalid_win,222.48687880000034,24,,,,,,,,,,,,,,,,sub_480,2023-08-02_17h17.33.176,Reversal,2022.1.1,59.88798551171328,4,
5,exp3.png,exp4.png,,2,0,2,0,0,5,5,5,,,,,,,,,,,,,,,,,,,,,,,,,False,44,45,False,exp3.png,exp4.png,trial_right_image,-1,exp4.png,4,exp4.png,exp3.png,1,3,reversed,correct,0.3015494120741934,1,valid_win,227.10323960000096,25,,,,,,,,,,,,,,,,sub_480,2023-08-02_17h17.33.176,Reversal,2022.1.1,59.88798551171328,4,
6,exp1.png,exp2.png,,2,0,2,0,0,6,6,6,,,,,,,,,,,,,,,,,,,,,,,,,False,45,46,False,exp1.png,exp2.png,trial_right_image,-1,exp2.png,4,exp2.png,exp1.png,1,1,non-reversed,correct,0.34320457988707287,1,valid_win,231.10249860000113,26,,,,,,,,,,,,,,,,sub_480,2023-08-02_17h17.33.176,Reversal,2022.1.1,59.88798551171328,4,
7,exp3.png,exp4.png,,2,0,2,0,0,7,7,7,,,,,,,,,,,,,,,,,,,,,,,,,False,46,47,True,exp4.png,exp3.png,trial_right_image,-1,exp3.png,4,exp4.png,exp3.png,0,4,reversed,incorrect,0.26852553102532484,0,valid_lose,235.0352554000001,26,,,,,,,,,,,,,,,,sub_480,2023-08-02_17h17.33.176,Reversal,2022.1.1,59.88798551171328,4,
8,exp1.png,exp2.png,,2,0,2,0,0,8,8,8,,,,,,,,,,,,,,,,,,,,,,,,,False,47,48,True,exp2.png,exp1.png,trial_left_image,1,exp2.png,4,exp2.png,exp1.png,1,1,non-reversed,correct,0.655507671714473,1,valid_win,239.31819580000047,27,,,,,,,,,,,,,,,,sub_480,2023-08-02_17h17.33.176,Reversal,2022.1.1,59.88798551171328,4,
9,exp3.png,exp4.png,,2,0,2,0,0,9,9,9,,,,,,,,,,,,,,,,,,,,,,,,,False,48,49,False,exp3.png,exp4.png,trial_left_image,1,exp3.png,4,exp4.png,exp3.png,0,4,reversed,incorrect,0.9405941306990773,0,valid_lose,243.26857860000018,27,,,,,,,,,,,,,,,,sub_480,2023-08-02_17h17.33.176,Reversal,2022.1.1,59.88798551171328,4,
10,exp1.png,exp2.png,,2,0,2,0,0,10,10,10,,,,,,,,,,,,,,,,,,,,,,,,,False,49,50,False,exp1.png,exp2.png,trial_left_image,1,exp1.png,4,exp2.png,exp1.png,0,2,non-reversed,incorrect,0.4237904658418865,0,valid_lose,247.33392260000073,27,,,,,,,,,,,,,,,,sub_480,2023-08-02_17h17.33.176,Reversal,2022.1.1,59.88798551171328,4,
11,exp3.png,exp4.png,,2,0,2,0,0,11,11,11,,,,,,,,,,,,,,,,,,,,,,,,,False,50,51,False,exp3.png,exp4.png,trial_right_image,-1,exp4.png,4,exp4.png,exp3.png,1,3,reversed,correct,0.12586744560461438,0,invalid_lose,251.1851964000016,27,,,,,,,,,,,,,,,,sub_480,2023-08-02_17h17.33.176,Reversal,2022.1.1,59.88798551171328,4,
12,exp1.png,exp2.png,,2,0,2,0,0,12,12,12,,,,,,,,,,,,,,,,,,,,,,,,,False,51,52,True,exp2.png,exp1.png,trial_right_image,-1,exp1.png,4,exp2.png,exp1.png,0,2,non-reversed,incorrect,0.9158514325589123,0,valid_lose,255.0661439000014,27,,,,,,,,,,,,,,,,sub_480,2023-08-02_17h17.33.176,Reversal,2022.1.1,59.88798551171328,4,
13,exp3.png,exp4.png,,2,0,2,0,0,13,13,13,,,,,,,,,,,,,,,,,,,,,,,,,False,52,53,True,exp4.png,exp3.png,trial_left_image,1,exp4.png,4,exp4.png,exp3.png,1,3,reversed,correct,0.14663511132843776,0,invalid_lose,261.133861100001,27,,,,,,,,,,,,,,,,sub_480,2023-08-02_17h17.33.176,Reversal,2022.1.1,59.88798551171328,4,
14,exp1.png,exp2.png,,2,0,2,0,0,14,14,14,,,,,,,,,,,,,,,,,,,,,,,,,False,53,54,False,exp1.png,exp2.png,trial_right_image,-1,exp2.png,4,exp2.png,exp1.png,1,1,non-reversed,correct,0.147161211076694,0,invalid_lose,265.7149444000006,27,,,,,,,,,,,,,,,,sub_480,2023-08-02_17h17.33.176,Reversal,2022.1.1,59.88798551171328,4,
15,exp3.png,exp4.png,,2,0,2,0,0,15,15,15,,,,,,,,,,,,,,,,,,,,,,,,,False,54,55,True,exp4.png,exp3.png,trial_right_image,-1,exp3.png,4,exp4.png,exp3.png,0,4,reversed,incorrect,0.6211452039625933,0,valid_lose,269.7146547000011,27,,,,,,,,,,,,,,,,sub_480,2023-08-02_17h17.33.176,Reversal,2022.1.1,59.88798551171328,4,
16,exp1.png,exp2.png,,2,0,2,0,0,16,16,16,,,,,,,,,,,,,,,,,,,,,,,,,False,55,56,False,exp1.png,exp2.png,trial_left_image,1,exp1.png,4,exp2.png,exp1.png,0,2,non-reversed,incorrect,0.7964127838697627,0,valid_lose,273.61369970000123,27,,,,,,,,,,,,,,,,sub_480,2023-08-02_17h17.33.176,Reversal,2022.1.1,59.88798551171328,4,
17,exp3.png,exp4.png,,2,0,2,0,0,17,17,17,,,,,,,,,,,,,,,,,,,,,,,,,False,56,57,False,exp3.png,exp4.png,trial_right_image,-1,exp4.png,4,exp4.png,exp3.png,1,3,reversed,correct,0.1732612302033143,0,invalid_lose,277.5311350000011,27,,,,,,,,,,,,,,,,sub_480,2023-08-02_17h17.33.176,Reversal,2022.1.1,59.88798551171328,4,
18,exp1.png,exp2.png,,2,0,2,0,0,18,18,18,,,,,,,,,,,,,,,,,,,,,,,,,False,57,58,True,exp2.png,exp1.png,trial_right_image,-1,exp1.png,4,exp2.png,exp1.png,0,2,non-reversed,incorrect,0.9864780773285187,0,valid_lose,281.46305590000156,27,,,,,,,,,,,,,,,,sub_480,2023-08-02_17h17.33.176,Reversal,2022.1.1,59.88798551171328,4,
19,exp3.png,exp4.png,,2,0,2,0,0,19,19,19,,,,,,,,,,,,,,,,,,,,,,,,,False,58,59,False,exp3.png,exp4.png,trial_right_image,-1,exp4.png,4,exp4.png,exp3.png,1,3,reversed,correct,0.48177391832545735,1,valid_win,285.7790220000006,28,,,,,,,,,,,,,,,,sub_480,2023-08-02_17h17.33.176,Reversal,2022.1.1,59.88798551171328,4,
20,exp1.png,exp2.png,,2,0,2,0,0,20,20,20,,,,,,,,,,,,,,,,,,,,,,,,,False,59,60,True,exp2.png,exp1.png,trial_right_image,-1,exp1.png,4,exp2.png,exp1.png,0,2,non-reversed,incorrect,0.9075294163459285,0,valid_lose,289.67966180000076,28,,,,,,,,,,,,,,,,sub_480,2023-08-02_17h17.33.176,Reversal,2022.1.1,59.88798551171328,4,
,,,exp1.png,2,0,2,0,,,,,0,0,0,0,0,0,0,0,,,,,,,,,,,,,,,,,,,,,,,,,,,,,,,,,,,,,,100.0,100.0,1.8664961000013136,"[(100.0, 1.8664961000013136)]",313.7438911999998,None,,,,,,,,,,sub_480,2023-08-02_17h17.33.176,Reversal,2022.1.1,59.88798551171328,4,
,,,exp2.png,2,0,2,0,,,,,0,0,0,0,0,1,1,1,,,,,,,,,,,,,,,,,,,,,,,,,,,,,,,,,,,,,,,100.0,1.1100114999990183,"[(100.0, 1.1100114999990183)]",317.8490864999985,None,100.0,,,,,,,,,sub_480,2023-08-02_17h17.33.176,Reversal,2022.1.1,59.88798551171328,4,
,,,exp3.png,2,0,2,0,,,,,0,0,0,0,0,2,2,2,,,,,,,,,,,,,,,,,,,,,,,,,,,,,,,,,,,,,,,2.0,1.1054091000005428,"[(2.0, 1.1054091000005428)]",320.06864889999997,None,,2.0,,,,,,,,sub_480,2023-08-02_17h17.33.176,Reversal,2022.1.1,59.88798551171328,4,
,,,exp4.png,2,0,2,0,,,,,0,0,0,0,0,3,3,3,,,,,,,,,,,,,,,,,,,,,,,,,,,,,,,,,,,,,,,1.0,0.9374508000000787,"[(1.0, 0.9374508000000787)]",322.22149269999863,None,,,1.0,,,,,,,sub_480,2023-08-02_17h17.33.176,Reversal,2022.1.1,59.88798551171328,4,
0,exp1.png,exp2.png,,3,0,3,0,0,0,0,0,,,,,,,,,,,,,,,,,,,,,,,,,True,,,,,,,,,,,,,,,,,,,,,,,,,,,,,,,,,,,,sub_480,2023-08-02_17h17.33.176,Reversal,2022.1.1,59.88798551171328,4,
1,exp3.png,exp4.png,,3,0,3,0,0,1,1,1,,,,,,,,,,,,,,,,,,,,,,,,,False,60,61,True,exp4.png,exp3.png,trial_right_image,-1,exp3.png,4,exp4.png,exp3.png,0,4,reversed,incorrect,0.2785570870041305,0,valid_lose,304.49380530000053,28,,,,,,,,,,,,,,,,sub_480,2023-08-02_17h17.33.176,Reversal,2022.1.1,59.88798551171328,4,
2,exp1.png,exp2.png,,3,0,3,0,0,2,2,2,,,,,,,,,,,,,,,,,,,,,,,,,False,61,62,True,exp2.png,exp1.png,trial_left_image,1,exp2.png,4,exp2.png,exp1.png,1,1,non-reversed,correct,0.9068812329749637,1,valid_win,311.1274372000007,29,,,,,,,,,,,,,,,,sub_480,2023-08-02_17h17.33.176,Reversal,2022.1.1,59.88798551171328,4,
3,exp3.png,exp4.png,,3,0,3,0,0,3,3,3,,,,,,,,,,,,,,,,,,,,,,,,,False,62,63,False,exp3.png,exp4.png,trial_left_image,1,exp3.png,4,exp4.png,exp3.png,0,4,reversed,incorrect,0.5053142439872713,0,valid_lose,315.6092660000013,29,,,,,,,,,,,,,,,,sub_480,2023-08-02_17h17.33.176,Reversal,2022.1.1,59.88798551171328,4,
4,exp1.png,exp2.png,,3,0,3,0,0,4,4,4,,,,,,,,,,,,,,,,,,,,,,,,,False,63,64,False,exp1.png,exp2.png,trial_left_image,1,exp1.png,4,exp2.png,exp1.png,0,2,non-reversed,incorrect,0.5872431137287863,0,valid_lose,320.34224320000067,29,,,,,,,,,,,,,,,,sub_480,2023-08-02_17h17.33.176,Reversal,2022.1.1,59.88798551171328,4,
5,exp3.png,exp4.png,,3,0,3,0,0,5,5,5,,,,,,,,,,,,,,,,,,,,,,,,,False,64,65,True,exp4.png,exp3.png,trial_left_image,1,exp4.png,4,exp4.png,exp3.png,1,3,reversed,correct,0.513345372711203,1,valid_win,325.1583918000015,30,,,,,,,,,,,,,,,,sub_480,2023-08-02_17h17.33.176,Reversal,2022.1.1,59.88798551171328,4,
6,exp1.png,exp2.png,,3,0,3,0,0,6,6,6,,,,,,,,,,,,,,,,,,,,,,,,,False,65,66,False,exp1.png,exp2.png,trial_right_image,-1,exp2.png,4,exp2.png,exp1.png,1,1,non-reversed,correct,0.058439283319435376,0,invalid_lose,329.97338350000064,30,,,,,,,,,,,,,,,,sub_480,2023-08-02_17h17.33.176,Reversal,2022.1.1,59.88798551171328,4,
7,exp3.png,exp4.png,,3,0,3,0,0,7,7,7,,,,,,,,,,,,,,,,,,,,,,,,,False,66,67,True,exp4.png,exp3.png,trial_left_image,1,exp4.png,4,exp4.png,exp3.png,1,3,reversed,correct,0.671899982361848,1,valid_win,334.6743108999999,31,,,,,,,,,,,,,,,,sub_480,2023-08-02_17h17.33.176,Reversal,2022.1.1,59.88798551171328,4,
8,exp1.png,exp2.png,,3,0,3,0,0,8,8,8,,,,,,,,,,,,,,,,,,,,,,,,,False,67,68,True,exp2.png,exp1.png,trial_right_image,-1,exp1.png,4,exp2.png,exp1.png,0,2,non-reversed,incorrect,0.14509094912616782,1,invalid_win,340.921127900001,32,,,,,,,,,,,,,,,,sub_480,2023-08-02_17h17.33.176,Reversal,2022.1.1,59.88798551171328,4,
9,exp3.png,exp4.png,,3,0,3,0,0,9,9,9,,,,,,,,,,,,,,,,,,,,,,,,,False,68,69,True,exp4.png,exp3.png,trial_left_image,1,exp4.png,4,exp4.png,exp3.png,1,3,reversed,correct,0.45182083952509833,1,valid_win,345.9876542000002,33,,,,,,,,,,,,,,,,sub_480,2023-08-02_17h17.33.176,Reversal,2022.1.1,59.88798551171328,4,
10,exp1.png,exp2.png,,3,0,3,0,0,10,10,10,,,,,,,,,,,,,,,,,,,,,,,,,False,69,70,False,exp1.png,exp2.png,trial_left_image,1,exp1.png,4,exp2.png,exp1.png,0,2,non-reversed,incorrect,0.6856085527748985,0,valid_lose,351.7534919000009,33,,,,,,,,,,,,,,,,sub_480,2023-08-02_17h17.33.176,Reversal,2022.1.1,59.88798551171328,4,
11,exp3.png,exp4.png,,3,0,3,0,0,11,11,11,,,,,,,,,,,,,,,,,,,,,,,,,False,70,71,True,exp4.png,exp3.png,trial_left_image,1,exp4.png,4,exp4.png,exp3.png,1,3,reversed,correct,0.798117908572624,1,valid_win,356.50427240000135,34,,,,,,,,,,,,,,,,sub_480,2023-08-02_17h17.33.176,Reversal,2022.1.1,59.88798551171328,4,
12,exp1.png,exp2.png,,3,0,3,0,0,12,12,12,,,,,,,,,,,,,,,,,,,,,,,,,False,71,72,False,exp1.png,exp2.png,trial_right_image,-1,exp2.png,4,exp2.png,exp1.png,1,1,non-reversed,correct,0.44648624017728145,1,valid_win,360.8548085000002,35,,,,,,,,,,,,,,,,sub_480,2023-08-02_17h17.33.176,Reversal,2022.1.1,59.88798551171328,4,
13,exp3.png,exp4.png,,3,0,3,0,0,13,13,13,,,,,,,,,,,,,,,,,,,,,,,,,False,72,73,False,exp3.png,exp4.png,trial_right_image,-1,exp4.png,4,exp4.png,exp3.png,1,3,reversed,correct,0.8744273979382893,1,valid_win,365.2853328000001,36,,,,,,,,,,,,,,,,sub_480,2023-08-02_17h17.33.176,Reversal,2022.1.1,59.88798551171328,4,
14,exp1.png,exp2.png,,3,0,3,0,0,14,14,14,,,,,,,,,,,,,,,,,,,,,,,,,False,73,74,False,exp1.png,exp2.png,trial_right_image,-1,exp2.png,4,exp2.png,exp1.png,1,1,non-reversed,correct,0.46265750694506347,1,valid_win,370.23566759999994,37,,,,,,,,,,,,,,,,sub_480,2023-08-02_17h17.33.176,Reversal,2022.1.1,59.88798551171328,4,
15,exp3.png,exp4.png,,3,0,3,0,0,15,15,15,,,,,,,,,,,,,,,,,,,,,,,,,False,74,75,False,exp3.png,exp4.png,trial_right_image,-1,exp4.png,4,exp4.png,exp3.png,1,3,reversed,correct,0.4094339735511239,1,valid_win,374.60168390000035,38,,,,,,,,,,,,,,,,sub_480,2023-08-02_17h17.33.176,Reversal,2022.1.1,59.88798551171328,4,
16,exp1.png,exp2.png,,3,0,3,0,0,16,16,16,,,,,,,,,,,,,,,,,,,,,,,,,False,75,76,False,exp1.png,exp2.png,trial_right_image,-1,exp2.png,4,exp2.png,exp1.png,1,1,non-reversed,correct,0.9099023346260711,1,valid_win,379.5668257000016,39,,,,,,,,,,,,,,,,sub_480,2023-08-02_17h17.33.176,Reversal,2022.1.1,59.88798551171328,4,
17,exp3.png,exp4.png,,3,0,3,0,0,17,17,17,,,,,,,,,,,,,,,,,,,,,,,,,False,76,77,True,exp4.png,exp3.png,trial_left_image,1,exp4.png,4,exp4.png,exp3.png,1,3,reversed,correct,0.08508338173561947,0,invalid_lose,384.31651260000035,39,,,,,,,,,,,,,,,,sub_480,2023-08-02_17h17.33.176,Reversal,2022.1.1,59.88798551171328,4,
18,exp1.png,exp2.png,,3,0,3,0,0,18,18,18,,,,,,,,,,,,,,,,,,,,,,,,,False,77,78,True,exp2.png,exp1.png,trial_left_image,1,exp2.png,4,exp2.png,exp1.png,1,1,non-reversed,correct,0.71863781668025,1,valid_win,389.96480880000126,40,,,,,,,,,,,,,,,,sub_480,2023-08-02_17h17.33.176,Reversal,2022.1.1,59.88798551171328,4,
19,exp3.png,exp4.png,,3,0,3,0,0,19,19,19,,,,,,,,,,,,,,,,,,,,,,,,,False,78,79,False,exp3.png,exp4.png,trial_right_image,-1,exp4.png,4,exp4.png,exp3.png,1,3,reversed,correct,0.9262468637618833,1,valid_win,394.2174201000016,41,,,,,,,,,,,,,,,,sub_480,2023-08-02_17h17.33.176,Reversal,2022.1.1,59.88798551171328,4,
20,exp1.png,exp2.png,,3,0,3,0,0,20,20,20,,,,,,,,,,,,,,,,,,,,,,,,,False,79,80,True,exp2.png,exp1.png,trial_left_image,1,exp2.png,4,exp2.png,exp1.png,1,1,non-reversed,correct,0.8627308684678222,1,valid_win,398.4651083000008,42,,,,,,,,,,,,,,,,sub_480,2023-08-02_17h17.33.176,Reversal,2022.1.1,59.88798551171328,4,
,,,exp1.png,3,0,3,0,,,,,0,0,0,0,0,0,0,0,,,,,,,,,,,,,,,,,,,,,,,,,,,,,,,,,,,,,,5.0,5.0,3.0938610000011977,"[(5.0, 3.0938610000011977)]",422.5513902999992,None,,,,,,,,,,sub_480,2023-08-02_17h17.33.176,Reversal,2022.1.1,59.88798551171328,4,
,,,exp2.png,3,0,3,0,,,,,0,0,0,0,0,1,1,1,,,,,,,,,,,,,,,,,,,,,,,,,,,,,,,,,,,,,,,100.0,2.2715070999984164,"[(100.0, 2.2715070999984164)]",426.8220808999995,None,100.0,,,,,,,,,sub_480,2023-08-02_17h17.33.176,Reversal,2022.1.1,59.88798551171328,4,
,,,exp3.png,3,0,3,0,,,,,0,0,0,0,0,2,2,2,,,,,,,,,,,,,,,,,,,,,,,,,,,,,,,,,,,,,,,100.0,2.3659972000004927,"[(100.0, 2.3659972000004927)]",430.1098719999991,None,,100.0,,,,,,,,sub_480,2023-08-02_17h17.33.176,Reversal,2022.1.1,59.88798551171328,4,
,,,exp4.png,3,0,3,0,,,,,0,0,0,0,0,3,3,3,,,,,,,,,,,,,,,,,,,,,,,,,,,,,,,,,,,,,,,100.0,1.3531245999984094,"[(100.0, 1.3531245999984094)]",433.4398625999984,None,,,100.0,,,,,,,sub_480,2023-08-02_17h17.33.176,Reversal,2022.1.1,59.88798551171328,4,
0,exp1.png,exp2.png,,,,,,,,,,,,,,,,,,0,0,0,0,0,0,0,0,,,,,,,,,True,,,,,,,,,,,,,,,,,,,,,,,,,,,,,,,,,,,,sub_480,2023-08-02_17h17.33.176,Reversal,2022.1.1,59.88798551171328,4,
1,exp3.png,exp4.png,,,,,,,,,,,,,,,,,,0,0,0,0,0,1,1,1,,,,,,,,,False,0,81,False,exp3.png,exp4.png,trial_right_image,-1,exp4.png,4,exp3.png,exp4.png,1,3,reversed,incorrect,0.2001091658351405,1,invalid_win,416.26255390000006,43,,,,,,,,,,414.31989350000003,,,,,,sub_480,2023-08-02_17h17.33.176,Reversal,2022.1.1,59.88798551171328,4,
2,exp1.png,exp2.png,,,,,,,,,,,,,,,,,,0,0,0,0,0,2,2,2,,,,,,,,,False,1,82,False,exp1.png,exp2.png,trial_left_image,1,exp1.png,4,exp2.png,exp1.png,0,2,non-reversed,incorrect,0.7494504708103098,0,valid_lose,420.9784069000016,43,,,,,,,,,,,,,,,,sub_480,2023-08-02_17h17.33.176,Reversal,2022.1.1,59.88798551171328,4,
3,exp3.png,exp4.png,,,,,,,,,,,,,,,,,,0,0,0,0,0,3,3,3,,,,,,,,,False,2,83,True,exp4.png,exp3.png,trial_left_image,1,exp4.png,4,exp3.png,exp4.png,1,3,reversed,incorrect,0.34347309661738057,0,valid_lose,425.43027690000054,43,,,,,,,,,,,,,,,,sub_480,2023-08-02_17h17.33.176,Reversal,2022.1.1,59.88798551171328,4,
4,exp1.png,exp2.png,,,,,,,,,,,,,,,,,,0,0,0,0,0,4,4,4,,,,,,,,,False,3,84,False,exp1.png,exp2.png,trial_right_image,-1,exp2.png,4,exp2.png,exp1.png,1,1,non-reversed,correct,0.8074867785495066,1,valid_win,429.6943613000003,44,,,,,,,,,,,,,,,,sub_480,2023-08-02_17h17.33.176,Reversal,2022.1.1,59.88798551171328,4,
5,exp3.png,exp4.png,,,,,,,,,,,,,,,,,,0,0,0,0,0,5,5,5,,,,,,,,,False,4,85,False,exp3.png,exp4.png,trial_right_image,-1,exp4.png,4,exp3.png,exp4.png,1,3,reversed,incorrect,0.0892343342379972,1,invalid_win,433.7600437000001,45,,,,,,,,,,,,,,,,sub_480,2023-08-02_17h17.33.176,Reversal,2022.1.1,59.88798551171328,4,
6,exp1.png,exp2.png,,,,,,,,,,,,,,,,,,0,0,0,0,0,6,6,6,,,,,,,,,False,5,86,True,exp2.png,exp1.png,trial_left_image,1,exp2.png,4,exp2.png,exp1.png,1,1,non-reversed,correct,0.6039651318331256,1,valid_win,439.72586540000157,46,,,,,,,,,,,,,,,,sub_480,2023-08-02_17h17.33.176,Reversal,2022.1.1,59.88798551171328,4,
7,exp3.png,exp4.png,,,,,,,,,,,,,,,,,,0,0,0,0,0,7,7,7,,,,,,,,,False,6,87,True,exp4.png,exp3.png,trial_left_image,1,exp4.png,4,exp3.png,exp4.png,1,3,reversed,incorrect,0.6284845446146793,0,valid_lose,444.0422647000014,46,,,,,,,,,,,,,,,,sub_480,2023-08-02_17h17.33.176,Reversal,2022.1.1,59.88798551171328,4,
8,exp1.png,exp2.png,,,,,,,,,,,,,,,,,,0,0,0,0,0,8,8,8,,,,,,,,,False,7,88,True,exp2.png,exp1.png,trial_left_image,1,exp2.png,4,exp2.png,exp1.png,1,1,non-reversed,correct,0.7201387725320659,1,valid_win,450.5084440999999,47,,,,,,,,,,,,,,,,sub_480,2023-08-02_17h17.33.176,Reversal,2022.1.1,59.88798551171328,4,
9,exp3.png,exp4.png,,,,,,,,,,,,,,,,,,0,0,0,0,0,9,9,9,,,,,,,,,False,8,89,True,exp4.png,exp3.png,trial_left_image,1,exp4.png,4,exp3.png,exp4.png,1,3,reversed,incorrect,0.5627555981578272,0,valid_lose,455.04171470000074,47,,,,,,,,,,,,,,,,sub_480,2023-08-02_17h17.33.176,Reversal,2022.1.1,59.88798551171328,4,
10,exp1.png,exp2.png,,,,,,,,,,,,,,,,,,0,0,0,0,0,10,10,10,,,,,,,,,False,9,90,True,exp2.png,exp1.png,trial_left_image,1,exp2.png,4,exp2.png,exp1.png,1,1,non-reversed,correct,0.45731865675882866,1,valid_win,459.7408617000001,48,,,,,,,,,,,,,,,,sub_480,2023-08-02_17h17.33.176,Reversal,2022.1.1,59.88798551171328,4,
11,exp3.png,exp4.png,,,,,,,,,,,,,,,,,,0,0,0,0,0,11,11,11,,,,,,,,,False,10,91,False,exp3.png,exp4.png,trial_right_image,-1,exp4.png,4,exp3.png,exp4.png,1,3,reversed,incorrect,0.49463945810822374,0,valid_lose,464.3051071000009,48,,,,,,,,,,,,,,,,sub_480,2023-08-02_17h17.33.176,Reversal,2022.1.1,59.88798551171328,4,
12,exp1.png,exp2.png,,,,,,,,,,,,,,,,,,0,0,0,0,0,12,12,12,,,,,,,,,False,11,92,True,exp2.png,exp1.png,trial_left_image,1,exp2.png,4,exp2.png,exp1.png,1,1,non-reversed,correct,0.9162774867749577,1,valid_win,468.5550997999999,49,,,,,,,,,,,,,,,,sub_480,2023-08-02_17h17.33.176,Reversal,2022.1.1,59.88798551171328,4,
13,exp3.png,exp4.png,,,,,,,,,,,,,,,,,,0,0,0,0,0,13,13,13,,,,,,,,,False,12,93,False,exp3.png,exp4.png,trial_left_image,1,exp3.png,4,exp3.png,exp4.png,0,4,reversed,correct,0.3707816436697363,1,valid_win,473.17169810000087,50,,,,,,,,,,,,,,,,sub_480,2023-08-02_17h17.33.176,Reversal,2022.1.1,59.88798551171328,4,
14,exp1.png,exp2.png,,,,,,,,,,,,,,,,,,0,0,0,0,0,14,14,14,,,,,,,,,False,13,94,False,exp1.png,exp2.png,trial_right_image,-1,exp2.png,4,exp2.png,exp1.png,1,1,non-reversed,correct,0.6781895700200536,1,valid_win,478.8209760000009,51,,,,,,,,,,,,,,,,sub_480,2023-08-02_17h17.33.176,Reversal,2022.1.1,59.88798551171328,4,
15,exp3.png,exp4.png,,,,,,,,,,,,,,,,,,0,0,0,0,0,15,15,15,,,,,,,,,False,14,95,False,exp3.png,exp4.png,trial_left_image,1,exp3.png,4,exp3.png,exp4.png,0,4,reversed,correct,0.11474562938247412,0,invalid_lose,483.6365818000013,51,,,,,,,,,,,,,,,,sub_480,2023-08-02_17h17.33.176,Reversal,2022.1.1,59.88798551171328,4,
16,exp1.png,exp2.png,,,,,,,,,,,,,,,,,,0,0,0,0,0,16,16,16,,,,,,,,,False,15,96,False,exp1.png,exp2.png,trial_right_image,-1,exp2.png,4,exp2.png,exp1.png,1,1,non-reversed,correct,0.09747285413787776,0,invalid_lose,489.1869999999999,51,,,,,,,,,,,,,,,,sub_480,2023-08-02_17h17.33.176,Reversal,2022.1.1,59.88798551171328,4,
17,exp3.png,exp4.png,,,,,,,,,,,,,,,,,,0,0,0,0,0,17,17,17,,,,,,,,,False,16,97,True,exp4.png,exp3.png,trial_right_image,-1,exp3.png,4,exp3.png,exp4.png,0,4,reversed,correct,0.6385799846308456,1,valid_win,493.6689237999999,52,,,,,,,,,,,,,,,,sub_480,2023-08-02_17h17.33.176,Reversal,2022.1.1,59.88798551171328,4,
18,exp1.png,exp2.png,,,,,,,,,,,,,,,,,,0,0,0,0,0,18,18,18,,,,,,,,,False,17,98,True,exp2.png,exp1.png,trial_left_image,1,exp2.png,4,exp2.png,exp1.png,1,1,non-reversed,correct,0.9643182985817654,1,valid_win,498.03625170000123,53,,,,,,,,,,,,,,,,sub_480,2023-08-02_17h17.33.176,Reversal,2022.1.1,59.88798551171328,4,
19,exp3.png,exp4.png,,,,,,,,,,,,,,,,,,0,0,0,0,0,19,19,19,,,,,,,,,False,18,99,True,exp4.png,exp3.png,trial_left_image,1,exp4.png,4,exp3.png,exp4.png,1,3,reversed,incorrect,0.8577120575671617,0,valid_lose,502.41806950000137,53,,,,,,,,,,,,,,,,sub_480,2023-08-02_17h17.33.176,Reversal,2022.1.1,59.88798551171328,4,
20,exp1.png,exp2.png,,,,,,,,,,,,,,,,,,0,0,0,0,0,20,20,20,,,,,,,,,False,19,100,False,exp1.png,exp2.png,trial_right_image,-1,exp2.png,4,exp2.png,exp1.png,1,1,non-reversed,correct,0.20478865879020414,0,invalid_lose,508.31669560000046,53,,,,,,,,,,,,,,,,sub_480,2023-08-02_17h17.33.176,Reversal,2022.1.1,59.88798551171328,4,
,,,exp1.png,,,,,,,,,,,,,,,,,0,0,0,0,,,,,0,0,0,0,0,0,0,0,,,,,,,,,,,,,,,,,,,,,,1.0,1.0,2.319973100000425,"[(1.0, 2.319973100000425)]",532.3950629999999,None,,,,,,,,,,sub_480,2023-08-02_17h17.33.176,Reversal,2022.1.1,59.88798551171328,4,
,,,exp2.png,,,,,,,,,,,,,,,,,0,0,0,0,,,,,0,0,0,0,0,1,1,1,,,,,,,,,,,,,,,,,,,,,,,100.0,2.6388893999992433,"[(100.0, 2.6388893999992433)]",536.2920934999984,None,100.0,,,,,,,,,sub_480,2023-08-02_17h17.33.176,Reversal,2022.1.1,59.88798551171328,4,
,,,exp3.png,,,,,,,,,,,,,,,,,0,0,0,0,,,,,0,0,0,0,0,2,2,2,,,,,,,,,,,,,,,,,,,,,,,100.0,2.0864831999988382,"[(100.0, 2.0864831999988382)]",539.9934968999987,None,,100.0,,,,,,,,sub_480,2023-08-02_17h17.33.176,Reversal,2022.1.1,59.88798551171328,4,
,,,exp4.png,,,,,,,,,,,,,,,,,0,0,0,0,,,,,0,0,0,0,0,3,3,3,,,,,,,,,,,,,,,,,,,,,,,100.0,1.9371652999998332,"[(100.0, 1.9371652999998332)]",543.1079665999987,None,,,100.0,,,,,,,sub_480,2023-08-02_17h17.33.176,Reversal,2022.1.1,59.88798551171328,4,
0,exp1.png,exp2.png,,,,,,,,,,,,,,,,,,1,0,1,0,0,0,0,0,,,,,,,,,True,,,,,,,,,,,,,,,,,,,,,,,,,,,,,,,,,,,,sub_480,2023-08-02_17h17.33.176,Reversal,2022.1.1,59.88798551171328,4,
1,exp3.png,exp4.png,,,,,,,,,,,,,,,,,,1,0,1,0,0,1,1,1,,,,,,,,,False,20,101,True,exp4.png,exp3.png,trial_left_image,1,exp4.png,4,exp3.png,exp4.png,1,3,reversed,incorrect,0.212737806437706,1,invalid_win,527.7808855000003,54,,,,,,,,,,,,,,,,sub_480,2023-08-02_17h17.33.176,Reversal,2022.1.1,59.88798551171328,4,
2,exp1.png,exp2.png,,,,,,,,,,,,,,,,,,1,0,1,0,0,2,2,2,,,,,,,,,False,21,102,False,exp1.png,exp2.png,trial_right_image,-1,exp2.png,4,exp2.png,exp1.png,1,1,non-reversed,correct,0.809590958946085,1,valid_win,532.6971659999999,55,,,,,,,,,,,,,,,,sub_480,2023-08-02_17h17.33.176,Reversal,2022.1.1,59.88798551171328,4,
3,exp3.png,exp4.png,,,,,,,,,,,,,,,,,,1,0,1,0,0,3,3,3,,,,,,,,,False,22,103,True,exp4.png,exp3.png,trial_left_image,1,exp4.png,4,exp3.png,exp4.png,1,3,reversed,incorrect,0.4069728445884363,0,valid_lose,537.9134103000015,55,,,,,,,,,,,,,,,,sub_480,2023-08-02_17h17.33.176,Reversal,2022.1.1,59.88798551171328,4,
4,exp1.png,exp2.png,,,,,,,,,,,,,,,,,,1,0,1,0,0,4,4,4,,,,,,,,,False,23,104,True,exp2.png,exp1.png,trial_left_image,1,exp2.png,4,exp2.png,exp1.png,1,1,non-reversed,correct,0.7543353957489711,1,valid_win,542.5638100000015,56,,,,,,,,,,,,,,,,sub_480,2023-08-02_17h17.33.176,Reversal,2022.1.1,59.88798551171328,4,
5,exp3.png,exp4.png,,,,,,,,,,,,,,,,,,1,0,1,0,0,5,5,5,,,,,,,,,False,24,105,True,exp4.png,exp3.png,trial_right_image,-1,exp3.png,4,exp3.png,exp4.png,0,4,reversed,correct,0.14951322385518317,0,invalid_lose,548.9798131000007,56,,,,,,,,,,,,,,,,sub_480,2023-08-02_17h17.33.176,Reversal,2022.1.1,59.88798551171328,4,
6,exp1.png,exp2.png,,,,,,,,,,,,,,,,,,1,0,1,0,0,6,6,6,,,,,,,,,False,25,106,False,exp1.png,exp2.png,trial_left_image,1,exp1.png,4,exp2.png,exp1.png,0,2,non-reversed,incorrect,0.784609508847688,0,valid_lose,553.3779723000007,56,,,,,,,,,,,,,,,,sub_480,2023-08-02_17h17.33.176,Reversal,2022.1.1,59.88798551171328,4,
7,exp3.png,exp4.png,,,,,,,,,,,,,,,,,,1,0,1,0,0,7,7,7,,,,,,,,,False,26,107,True,exp4.png,exp3.png,trial_left_image,1,exp4.png,4,exp3.png,exp4.png,1,3,reversed,incorrect,0.35845061371004105,0,valid_lose,557.4950337000009,56,,,,,,,,,,,,,,,,sub_480,2023-08-02_17h17.33.176,Reversal,2022.1.1,59.88798551171328,4,
8,exp1.png,exp2.png,,,,,,,,,,,,,,,,,,1,0,1,0,0,8,8,8,,,,,,,,,False,27,108,False,exp1.png,exp2.png,trial_right_image,-1,exp2.png,4,exp2.png,exp1.png,1,1,non-reversed,correct,0.9394982244466167,1,valid_win,561.6772933000011,57,,,,,,,,,,,,,,,,sub_480,2023-08-02_17h17.33.176,Reversal,2022.1.1,59.88798551171328,4,
9,exp3.png,exp4.png,,,,,,,,,,,,,,,,,,1,0,1,0,0,9,9,9,,,,,,,,,False,28,109,False,exp3.png,exp4.png,trial_right_image,-1,exp4.png,4,exp3.png,exp4.png,1,3,reversed,incorrect,0.13079147575385164,1,invalid_win,565.8955492000005,58,,,,,,,,,,,,,,,,sub_480,2023-08-02_17h17.33.176,Reversal,2022.1.1,59.88798551171328,4,
10,exp1.png,exp2.png,,,,,,,,,,,,,,,,,,1,0,1,0,0,10,10,10,,,,,,,,,False,29,110,False,exp1.png,exp2.png,trial_right_image,-1,exp2.png,4,exp2.png,exp1.png,1,1,non-reversed,correct,0.2607350043197505,1,valid_win,570.0256033000005,59,,,,,,,,,,,,,,,,sub_480,2023-08-02_17h17.33.176,Reversal,2022.1.1,59.88798551171328,4,
11,exp3.png,exp4.png,,,,,,,,,,,,,,,,,,1,0,1,0,0,11,11,11,,,,,,,,,False,30,111,True,exp4.png,exp3.png,trial_right_image,-1,exp3.png,4,exp3.png,exp4.png,0,4,reversed,correct,0.6777094603253199,1,valid_win,574.477774500001,60,,,,,,,,,,,,,,,,sub_480,2023-08-02_17h17.33.176,Reversal,2022.1.1,59.88798551171328,4,
12,exp1.png,exp2.png,,,,,,,,,,,,,,,,,,1,0,1,0,0,12,12,12,,,,,,,,,False,31,112,True,exp2.png,exp1.png,trial_right_image,-1,exp1.png,4,exp2.png,exp1.png,0,2,non-reversed,incorrect,0.7033612522813457,0,valid_lose,578.5597850000013,60,,,,,,,,,,,,,,,,sub_480,2023-08-02_17h17.33.176,Reversal,2022.1.1,59.88798551171328,4,
13,exp3.png,exp4.png,,,,,,,,,,,,,,,,,,1,0,1,0,0,13,13,13,,,,,,,,,False,32,113,True,exp4.png,exp3.png,trial_left_image,1,exp4.png,4,exp3.png,exp4.png,1,3,reversed,incorrect,0.18531550126603547,1,invalid_win,582.8074129000015,61,,,,,,,,,,,,,,,,sub_480,2023-08-02_17h17.33.176,Reversal,2022.1.1,59.88798551171328,4,
14,exp1.png,exp2.png,,,,,,,,,,,,,,,,,,1,0,1,0,0,14,14,14,,,,,,,,,False,33,114,False,exp1.png,exp2.png,trial_right_image,-1,exp2.png,4,exp2.png,exp1.png,1,1,non-reversed,correct,0.8206413619687289,1,valid_win,587.0226186,62,,,,,,,,,,,,,,,,sub_480,2023-08-02_17h17.33.176,Reversal,2022.1.1,59.88798551171328,4,
15,exp3.png,exp4.png,,,,,,,,,,,,,,,,,,1,0,1,0,0,15,15,15,,,,,,,,,False,34,115,False,exp3.png,exp4.png,trial_right_image,-1,exp4.png,4,exp3.png,exp4.png,1,3,reversed,incorrect,0.31543684005665096,0,valid_lose,591.1233823000002,62,,,,,,,,,,,,,,,,sub_480,2023-08-02_17h17.33.176,Reversal,2022.1.1,59.88798551171328,4,
16,exp1.png,exp2.png,,,,,,,,,,,,,,,,,,1,0,1,0,0,16,16,16,,,,,,,,,False,35,116,False,exp1.png,exp2.png,trial_right_image,-1,exp2.png,4,exp2.png,exp1.png,1,1,non-reversed,correct,0.9973187811956594,1,valid_win,595.2722706000004,63,,,,,,,,,,,,,,,,sub_480,2023-08-02_17h17.33.176,Reversal,2022.1.1,59.88798551171328,4,
17,exp3.png,exp4.png,,,,,,,,,,,,,,,,,,1,0,1,0,0,17,17,17,,,,,,,,,False,36,117,False,exp3.png,exp4.png,trial_right_image,-1,exp4.png,4,exp3.png,exp4.png,1,3,reversed,incorrect,0.56491665147018,0,valid_lose,599.3387321000009,63,,,,,,,,,,,,,,,,sub_480,2023-08-02_17h17.33.176,Reversal,2022.1.1,59.88798551171328,4,
18,exp1.png,exp2.png,,,,,,,,,,,,,,,,,,1,0,1,0,0,18,18,18,,,,,,,,,False,37,118,True,exp2.png,exp1.png,trial_right_image,-1,exp1.png,4,exp2.png,exp1.png,0,2,non-reversed,incorrect,0.8998448116524208,0,valid_lose,603.421448000001,63,,,,,,,,,,,,,,,,sub_480,2023-08-02_17h17.33.176,Reversal,2022.1.1,59.88798551171328,4,
19,exp3.png,exp4.png,,,,,,,,,,,,,,,,,,1,0,1,0,0,19,19,19,,,,,,,,,False,38,119,True,exp4.png,exp3.png,trial_left_image,1,exp4.png,4,exp3.png,exp4.png,1,3,reversed,incorrect,0.8523829079200834,0,valid_lose,607.6047980000003,63,,,,,,,,,,,,,,,,sub_480,2023-08-02_17h17.33.176,Reversal,2022.1.1,59.88798551171328,4,
20,exp1.png,exp2.png,,,,,,,,,,,,,,,,,,1,0,1,0,0,20,20,20,,,,,,,,,False,39,120,False,exp1.png,exp2.png,trial_right_image,-1,exp2.png,4,exp2.png,exp1.png,1,1,non-reversed,correct,0.4211912337090391,1,valid_win,611.7203841999999,64,,,,,,,,,,,,,,,,sub_480,2023-08-02_17h17.33.176,Reversal,2022.1.1,59.88798551171328,4,
,,,exp1.png,,,,,,,,,,,,,,,,,1,0,1,0,,,,,0,0,0,0,0,0,0,0,,,,,,,,,,,,,,,,,,,,,,1.0,1.0,3.0487942999989173,"[(100.0, 1.548035499999969), (14.0, 2.8134236999994755), (1.0, 3.0487942999989173)]",635.8081942999997,None,,,,,,,,,,sub_480,2023-08-02_17h17.33.176,Reversal,2022.1.1,59.88798551171328,4,
,,,exp2.png,,,,,,,,,,,,,,,,,1,0,1,0,,,,,0,0,0,0,0,1,1,1,,,,,,,,,,,,,,,,,,,,,,,100.0,0.983269600001222,"[(100.0, 0.983269600001222)]",640.0996406999984,None,100.0,,,,,,,,,sub_480,2023-08-02_17h17.33.176,Reversal,2022.1.1,59.88798551171328,4,
,,,exp3.png,,,,,,,,,,,,,,,,,1,0,1,0,,,,,0,0,0,0,0,2,2,2,,,,,,,,,,,,,,,,,,,,,,,100.0,1.3559960999991745,"[(100.0, 1.3559960999991745)]",642.2595432999988,None,,100.0,,,,,,,,sub_480,2023-08-02_17h17.33.176,Reversal,2022.1.1,59.88798551171328,4,
,,,exp4.png,,,,,,,,,,,,,,,,,1,0,1,0,,,,,0,0,0,0,0,3,3,3,,,,,,,,,,,,,,,,,,,,,,,100.0,1.1719415000006848,"[(100.0, 1.1719415000006848)]",644.6128649999991,None,,,100.0,,,,,,,sub_480,2023-08-02_17h17.33.176,Reversal,2022.1.1,59.88798551171328,4,
0,exp1.png,exp2.png,,,,,,,,,,,,,,,,,,2,0,2,0,0,0,0,0,,,,,,,,,True,,,,,,,,,,,,,,,,,,,,,,,,,,,,,,,,,,,,sub_480,2023-08-02_17h17.33.176,Reversal,2022.1.1,59.88798551171328,4,
1,exp3.png,exp4.png,,,,,,,,,,,,,,,,,,2,0,2,0,0,1,1,1,,,,,,,,,False,40,121,False,exp3.png,exp4.png,trial_right_image,-1,exp4.png,4,exp3.png,exp4.png,1,3,reversed,incorrect,0.9124476405620339,0,valid_lose,627.1685264000007,64,,,,,,,,,,,,,,,,sub_480,2023-08-02_17h17.33.176,Reversal,2022.1.1,59.88798551171328,4,
2,exp1.png,exp2.png,,,,,,,,,,,,,,,,,,2,0,2,0,0,2,2,2,,,,,,,,,False,41,122,True,exp2.png,exp1.png,trial_left_image,1,exp2.png,4,exp2.png,exp1.png,1,1,non-reversed,correct,0.34831099589117376,1,valid_win,631.6181366000001,65,,,,,,,,,,,,,,,,sub_480,2023-08-02_17h17.33.176,Reversal,2022.1.1,59.88798551171328,4,
3,exp3.png,exp4.png,,,,,,,,,,,,,,,,,,2,0,2,0,0,3,3,3,,,,,,,,,False,42,123,False,exp3.png,exp4.png,trial_right_image,-1,exp4.png,4,exp3.png,exp4.png,1,3,reversed,incorrect,0.28004580973862914,0,valid_lose,635.7690079000004,65,,,,,,,,,,,,,,,,sub_480,2023-08-02_17h17.33.176,Reversal,2022.1.1,59.88798551171328,4,
4,exp1.png,exp2.png,,,,,,,,,,,,,,,,,,2,0,2,0,0,4,4,4,,,,,,,,,False,43,124,False,exp1.png,exp2.png,trial_right_image,-1,exp2.png,4,exp2.png,exp1.png,1,1,non-reversed,correct,0.29913843252015015,1,valid_win,639.8675596000012,66,,,,,,,,,,,,,,,,sub_480,2023-08-02_17h17.33.176,Reversal,2022.1.1,59.88798551171328,4,
5,exp3.png,exp4.png,,,,,,,,,,,,,,,,,,2,0,2,0,0,5,5,5,,,,,,,,,False,44,125,False,exp3.png,exp4.png,trial_right_image,-1,exp4.png,4,exp3.png,exp4.png,1,3,reversed,incorrect,0.8975136121719068,0,valid_lose,643.8664206000012,66,,,,,,,,,,,,,,,,sub_480,2023-08-02_17h17.33.176,Reversal,2022.1.1,59.88798551171328,4,
6,exp1.png,exp2.png,,,,,,,,,,,,,,,,,,2,0,2,0,0,6,6,6,,,,,,,,,False,45,126,False,exp1.png,exp2.png,trial_right_image,-1,exp2.png,4,exp2.png,exp1.png,1,1,non-reversed,correct,0.5518781410732396,1,valid_win,647.9827723000017,67,,,,,,,,,,,,,,,,sub_480,2023-08-02_17h17.33.176,Reversal,2022.1.1,59.88798551171328,4,
7,exp3.png,exp4.png,,,,,,,,,,,,,,,,,,2,0,2,0,0,7,7,7,,,,,,,,,False,46,127,False,exp3.png,exp4.png,trial_right_image,-1,exp4.png,4,exp3.png,exp4.png,1,3,reversed,incorrect,0.16775000666977513,1,invalid_win,652.1324887999999,68,,,,,,,,,,,,,,,,sub_480,2023-08-02_17h17.33.176,Reversal,2022.1.1,59.88798551171328,4,
8,exp1.png,exp2.png,,,,,,,,,,,,,,,,,,2,0,2,0,0,8,8,8,,,,,,,,,False,47,128,True,exp2.png,exp1.png,trial_left_image,1,exp2.png,4,exp2.png,exp1.png,1,1,non-reversed,correct,0.08880876346990285,0,invalid_lose,656.2664580000001,68,,,,,,,,,,,,,,,,sub_480,2023-08-02_17h17.33.176,Reversal,2022.1.1,59.88798551171328,4,
9,exp3.png,exp4.png,,,,,,,,,,,,,,,,,,2,0,2,0,0,9,9,9,,,,,,,,,False,48,129,False,exp3.png,exp4.png,trial_right_image,-1,exp4.png,4,exp3.png,exp4.png,1,3,reversed,incorrect,0.39734358783345614,0,valid_lose,660.2141786000011,68,,,,,,,,,,,,,,,,sub_480,2023-08-02_17h17.33.176,Reversal,2022.1.1,59.88798551171328,4,
10,exp1.png,exp2.png,,,,,,,,,,,,,,,,,,2,0,2,0,0,10,10,10,,,,,,,,,False,49,130,True,exp2.png,exp1.png,trial_right_image,-1,exp1.png,4,exp2.png,exp1.png,0,2,non-reversed,incorrect,0.5423451576593281,0,valid_lose,664.1466384000014,68,,,,,,,,,,,,,,,,sub_480,2023-08-02_17h17.33.176,Reversal,2022.1.1,59.88798551171328,4,
11,exp3.png,exp4.png,,,,,,,,,,,,,,,,,,2,0,2,0,0,11,11,11,,,,,,,,,False,50,131,True,exp4.png,exp3.png,trial_left_image,1,exp4.png,4,exp3.png,exp4.png,1,3,reversed,incorrect,0.718673121710954,0,valid_lose,668.2801851000004,68,,,,,,,,,,,,,,,,sub_480,2023-08-02_17h17.33.176,Reversal,2022.1.1,59.88798551171328,4,
12,exp1.png,exp2.png,,,,,,,,,,,,,,,,,,2,0,2,0,0,12,12,12,,,,,,,,,False,51,132,True,exp2.png,exp1.png,trial_left_image,1,exp2.png,4,exp2.png,exp1.png,1,1,non-reversed,correct,0.2657347963571466,1,valid_win,672.612468700001,69,,,,,,,,,,,,,,,,sub_480,2023-08-02_17h17.33.176,Reversal,2022.1.1,59.88798551171328,4,
13,exp3.png,exp4.png,,,,,,,,,,,,,,,,,,2,0,2,0,0,13,13,13,,,,,,,,,False,52,133,False,exp3.png,exp4.png,trial_right_image,-1,exp4.png,4,exp3.png,exp4.png,1,3,reversed,incorrect,0.597036268058431,0,valid_lose,676.7295575000007,69,,,,,,,,,,,,,,,,sub_480,2023-08-02_17h17.33.176,Reversal,2022.1.1,59.88798551171328,4,
14,exp1.png,exp2.png,,,,,,,,,,,,,,,,,,2,0,2,0,0,14,14,14,,,,,,,,,False,53,134,True,exp2.png,exp1.png,trial_left_image,1,exp2.png,4,exp2.png,exp1.png,1,1,non-reversed,correct,0.15843294472787894,0,invalid_lose,681.5122701,69,,,,,,,,,,,,,,,,sub_480,2023-08-02_17h17.33.176,Reversal,2022.1.1,59.88798551171328,4,
15,exp3.png,exp4.png,,,,,,,,,,,,,,,,,,2,0,2,0,0,15,15,15,,,,,,,,,False,54,135,True,exp4.png,exp3.png,trial_right_image,-1,exp3.png,4,exp3.png,exp4.png,0,4,reversed,correct,0.14468885176104318,0,invalid_lose,685.5613415000007,69,,,,,,,,,,,,,,,,sub_480,2023-08-02_17h17.33.176,Reversal,2022.1.1,59.88798551171328,4,
16,exp1.png,exp2.png,,,,,,,,,,,,,,,,,,2,0,2,0,0,16,16,16,,,,,,,,,False,55,136,False,exp1.png,exp2.png,trial_right_image,-1,exp2.png,4,exp2.png,exp1.png,1,1,non-reversed,correct,0.5693300060916819,1,valid_win,689.5801393000002,70,,,,,,,,,,,,,,,,sub_480,2023-08-02_17h17.33.176,Reversal,2022.1.1,59.88798551171328,4,
17,exp3.png,exp4.png,,,,,,,,,,,,,,,,,,2,0,2,0,0,17,17,17,,,,,,,,,False,56,137,False,exp3.png,exp4.png,trial_right_image,-1,exp4.png,4,exp3.png,exp4.png,1,3,reversed,incorrect,0.5477250455636403,0,valid_lose,693.6593682000002,70,,,,,,,,,,,,,,,,sub_480,2023-08-02_17h17.33.176,Reversal,2022.1.1,59.88798551171328,4,
18,exp1.png,exp2.png,,,,,,,,,,,,,,,,,,2,0,2,0,0,18,18,18,,,,,,,,,False,57,138,True,exp2.png,exp1.png,trial_left_image,1,exp2.png,4,exp2.png,exp1.png,1,1,non-reversed,correct,0.7168788116205427,1,valid_win,697.6762541000007,71,,,,,,,,,,,,,,,,sub_480,2023-08-02_17h17.33.176,Reversal,2022.1.1,59.88798551171328,4,
19,exp3.png,exp4.png,,,,,,,,,,,,,,,,,,2,0,2,0,0,19,19,19,,,,,,,,,False,58,139,True,exp4.png,exp3.png,trial_left_image,1,exp4.png,4,exp3.png,exp4.png,1,3,reversed,incorrect,0.1849126465366311,1,invalid_win,701.7761356999999,72,,,,,,,,,,,,,,,,sub_480,2023-08-02_17h17.33.176,Reversal,2022.1.1,59.88798551171328,4,
20,exp1.png,exp2.png,,,,,,,,,,,,,,,,,,2,0,2,0,0,20,20,20,,,,,,,,,False,59,140,True,exp2.png,exp1.png,trial_left_image,1,exp2.png,4,exp2.png,exp1.png,1,1,non-reversed,correct,0.7584862896745057,1,valid_win,705.8412070000013,73,,,,,,,,,,,,,,,,sub_480,2023-08-02_17h17.33.176,Reversal,2022.1.1,59.88798551171328,4,
,,,exp1.png,,,,,,,,,,,,,,,,,2,0,2,0,,,,,0,0,0,0,0,0,0,0,,,,,,,,,,,,,,,,,,,,,,100.0,100.0,1.6295952000000398,"[(100.0, 1.6295952000000398)]",729.9114394999997,None,,,,,,,,,,sub_480,2023-08-02_17h17.33.176,Reversal,2022.1.1,59.88798551171328,4,
,,,exp2.png,,,,,,,,,,,,,,,,,2,0,2,0,,,,,0,0,0,0,0,1,1,1,,,,,,,,,,,,,,,,,,,,,,,100.0,1.0057259000004706,"[(100.0, 1.0057259000004706)]",732.5987971999984,None,100.0,,,,,,,,,sub_480,2023-08-02_17h17.33.176,Reversal,2022.1.1,59.88798551171328,4,
,,,exp3.png,,,,,,,,,,,,,,,,,2,0,2,0,,,,,0,0,0,0,0,2,2,2,,,,,,,,,,,,,,,,,,,,,,,1.0,1.2669911999983015,"[(1.0, 1.2669911999983015)]",734.5767630999999,None,,1.0,,,,,,,,sub_480,2023-08-02_17h17.33.176,Reversal,2022.1.1,59.88798551171328,4,
,,,exp4.png,,,,,,,,,,,,,,,,,2,0,2,0,,,,,0,0,0,0,0,3,3,3,,,,,,,,,,,,,,,,,,,,,,,100.0,1.21705750000001,"[(100.0, 1.21705750000001)]",736.9715235999993,None,,,100.0,,,,,,,sub_480,2023-08-02_17h17.33.176,Reversal,2022.1.1,59.88798551171328,4,
,,,,,,,,,,,,,,,,,,,,,,,,,,,,,,,,,,,,,,,,,,,,,,,,,,,,,,,,73,,,,,,,,,,,75,44,31,303.2050913000003,1,,,,,,,
