trial_index,trial_image1_file,trial_image2_file,image_file,learning_outer_loop.thisRepN,learning_outer_loop.thisTrialN,learning_outer_loop.thisN,learning_outer_loop.thisIndex,learning_inner_loop.thisRepN,learning_inner_loop.thisTrialN,learning_inner_loop.thisN,learning_inner_loop.thisIndex,learning_estimation_outer_loop.thisRepN,learning_estimation_outer_loop.thisTrialN,learning_estimation_outer_loop.thisN,learning_estimation_outer_loop.thisIndex,learning_estimation_inner_loop.thisRepN,learning_estimation_inner_loop.thisTrialN,learning_estimation_inner_loop.thisN,learning_estimation_inner_loop.thisIndex,reversal_outer_loop.thisRepN,reversal_outer_loop.thisTrialN,reversal_outer_loop.thisN,reversal_outer_loop.thisIndex,reversal_inner_loop.thisRepN,reversal_inner_loop.thisTrialN,reversal_inner_loop.thisN,reversal_inner_loop.thisIndex,reversal_estimation_outer_loop.thisRepN,reversal_estimation_outer_loop.thisTrialN,reversal_estimation_outer_loop.thisN,reversal_estimation_outer_loop.thisIndex,reversal_estimation_inner_loop.thisRepN,reversal_estimation_inner_loop.thisTrialN,reversal_estimation_inner_loop.thisN,reversal_estimation_inner_loop.thisIndex,skipped,total_trial_counter,trial_num,left_right_flip,left_image_file,right_image_file,clicked_stimulus_side,side,clicked_stimulus,version,high_prob_image_file,low_prob_image_file,choice_a,choice_b,pair_type,correct,trial_feedback_random,reward,trial_type,overall_time_after_trial,score,estimation_exp1.png,estimation_rating.response,estimation_rating.rt,estimation_rating.history,estimation_rating.started,estimation_rating.stopped,estimation_exp2.png,estimation_exp3.png,estimation_exp4.png,total_learning_time,total_correct,learning_correct,reversal_correct,total_reversal_time,extra_block,end_experiment.keys,end_experiment.rt,participant,date,expName,psychopyVersion,frameRate,ver,
0,exp1.png,exp2.png,,0,0,0,0,0,0,0,0,,,,,,,,,,,,,,,,,,,,,,,,,False,0,1,False,exp1.png,exp2.png,trial_right_image,-1,exp2.png,1,exp1.png,exp2.png,0,4,reversed,incorrect,0.37998575673352286,0,valid_lose,16.44976639933884,0,,,,,,,,,,,,,,,,,,sub_385,2024-05-17_11h25.33.001,Reversal,2022.1.2,59.98667059493196,1,
1,exp3.png,exp4.png,,0,0,0,0,0,1,1,1,,,,,,,,,,,,,,,,,,,,,,,,,False,1,2,True,exp4.png,exp3.png,trial_right_image,-1,exp3.png,1,exp3.png,exp4.png,1,1,non-reversed,correct,0.869917385408503,1,valid_win,22.96603330038488,1,,,,,,,,,,,,,,,,,,sub_385,2024-05-17_11h25.33.001,Reversal,2022.1.2,59.98667059493196,1,
2,exp1.png,exp2.png,,0,0,0,0,0,2,2,2,,,,,,,,,,,,,,,,,,,,,,,,,False,2,3,True,exp2.png,exp1.png,trial_right_image,-1,exp1.png,1,exp1.png,exp2.png,1,3,reversed,correct,0.8481280028367122,1,valid_win,35.16656509973109,2,,,,,,,,,,,,,,,,,,sub_385,2024-05-17_11h25.33.001,Reversal,2022.1.2,59.98667059493196,1,
3,exp3.png,exp4.png,,0,0,0,0,0,3,3,3,,,,,,,,,,,,,,,,,,,,,,,,,False,3,4,False,exp3.png,exp4.png,trial_left_image,1,exp3.png,1,exp3.png,exp4.png,1,1,non-reversed,correct,0.6596168866446354,1,valid_win,39.732612900435925,3,,,,,,,,,,,,,,,,,,sub_385,2024-05-17_11h25.33.001,Reversal,2022.1.2,59.98667059493196,1,
4,exp1.png,exp2.png,,0,0,0,0,0,4,4,4,,,,,,,,,,,,,,,,,,,,,,,,,False,4,5,True,exp2.png,exp1.png,trial_right_image,-1,exp1.png,1,exp1.png,exp2.png,1,3,reversed,correct,0.8379761071820468,1,valid_win,44.566195499151945,4,,,,,,,,,,,,,,,,,,sub_385,2024-05-17_11h25.33.001,Reversal,2022.1.2,59.98667059493196,1,
5,exp3.png,exp4.png,,0,0,0,0,0,5,5,5,,,,,,,,,,,,,,,,,,,,,,,,,False,5,6,True,exp4.png,exp3.png,trial_right_image,-1,exp3.png,1,exp3.png,exp4.png,1,1,non-reversed,correct,0.6455674688733676,1,valid_win,49.21576330065727,5,,,,,,,,,,,,,,,,,,sub_385,2024-05-17_11h25.33.001,Reversal,2022.1.2,59.98667059493196,1,
6,exp1.png,exp2.png,,0,0,0,0,0,6,6,6,,,,,,,,,,,,,,,,,,,,,,,,,False,6,7,True,exp2.png,exp1.png,trial_right_image,-1,exp1.png,1,exp1.png,exp2.png,1,3,reversed,correct,0.7542437632310186,1,valid_win,53.898563800379634,6,,,,,,,,,,,,,,,,,,sub_385,2024-05-17_11h25.33.001,Reversal,2022.1.2,59.98667059493196,1,
7,exp3.png,exp4.png,,0,0,0,0,0,7,7,7,,,,,,,,,,,,,,,,,,,,,,,,,False,7,8,False,exp3.png,exp4.png,trial_left_image,1,exp3.png,1,exp3.png,exp4.png,1,1,non-reversed,correct,0.3480656491700408,1,valid_win,58.53291139937937,7,,,,,,,,,,,,,,,,,,sub_385,2024-05-17_11h25.33.001,Reversal,2022.1.2,59.98667059493196,1,
8,exp1.png,exp2.png,,0,0,0,0,0,8,8,8,,,,,,,,,,,,,,,,,,,,,,,,,False,8,9,False,exp1.png,exp2.png,trial_left_image,1,exp1.png,1,exp1.png,exp2.png,1,3,reversed,correct,0.14484125617788446,0,invalid_lose,63.06531360000372,7,,,,,,,,,,,,,,,,,,sub_385,2024-05-17_11h25.33.001,Reversal,2022.1.2,59.98667059493196,1,
9,exp3.png,exp4.png,,0,0,0,0,0,9,9,9,,,,,,,,,,,,,,,,,,,,,,,,,False,9,10,False,exp3.png,exp4.png,trial_left_image,1,exp3.png,1,exp3.png,exp4.png,1,1,non-reversed,correct,0.6281996725046755,1,valid_win,67.59937920048833,8,,,,,,,,,,,,,,,,,,sub_385,2024-05-17_11h25.33.001,Reversal,2022.1.2,59.98667059493196,1,
10,exp1.png,exp2.png,,0,0,0,0,0,10,10,10,,,,,,,,,,,,,,,,,,,,,,,,,False,10,11,True,exp2.png,exp1.png,trial_right_image,-1,exp1.png,1,exp1.png,exp2.png,1,3,reversed,correct,0.8590230523210858,1,valid_win,72.08194239996374,9,,,,,,,,,,,,,,,,,,sub_385,2024-05-17_11h25.33.001,Reversal,2022.1.2,59.98667059493196,1,
11,exp3.png,exp4.png,,0,0,0,0,0,11,11,11,,,,,,,,,,,,,,,,,,,,,,,,,False,11,12,True,exp4.png,exp3.png,trial_right_image,-1,exp3.png,1,exp3.png,exp4.png,1,1,non-reversed,correct,0.7479220990575992,1,valid_win,76.68178110010922,10,,,,,,,,,,,,,,,,,,sub_385,2024-05-17_11h25.33.001,Reversal,2022.1.2,59.98667059493196,1,
12,exp1.png,exp2.png,,0,0,0,0,0,12,12,12,,,,,,,,,,,,,,,,,,,,,,,,,False,12,13,False,exp1.png,exp2.png,trial_left_image,1,exp1.png,1,exp1.png,exp2.png,1,3,reversed,correct,0.00849383499707801,0,invalid_lose,81.14861820079386,10,,,,,,,,,,,,,,,,,,sub_385,2024-05-17_11h25.33.001,Reversal,2022.1.2,59.98667059493196,1,
13,exp3.png,exp4.png,,0,0,0,0,0,13,13,13,,,,,,,,,,,,,,,,,,,,,,,,,False,13,14,False,exp3.png,exp4.png,trial_left_image,1,exp3.png,1,exp3.png,exp4.png,1,1,non-reversed,correct,0.3940642270572412,1,valid_win,86.48116140067577,11,,,,,,,,,,,,,,,,,,sub_385,2024-05-17_11h25.33.001,Reversal,2022.1.2,59.98667059493196,1,
14,exp1.png,exp2.png,,0,0,0,0,0,14,14,14,,,,,,,,,,,,,,,,,,,,,,,,,False,14,15,False,exp1.png,exp2.png,trial_left_image,1,exp1.png,1,exp1.png,exp2.png,1,3,reversed,correct,0.40652095596439586,1,valid_win,91.265511399135,12,,,,,,,,,,,,,,,,,,sub_385,2024-05-17_11h25.33.001,Reversal,2022.1.2,59.98667059493196,1,
15,exp3.png,exp4.png,,0,0,0,0,0,15,15,15,,,,,,,,,,,,,,,,,,,,,,,,,False,15,16,True,exp4.png,exp3.png,trial_right_image,-1,exp3.png,1,exp3.png,exp4.png,1,1,non-reversed,correct,0.2511558519055034,1,valid_win,96.01507030054927,13,,,,,,,,,,,,,,,,,,sub_385,2024-05-17_11h25.33.001,Reversal,2022.1.2,59.98667059493196,1,
16,exp1.png,exp2.png,,0,0,0,0,0,16,16,16,,,,,,,,,,,,,,,,,,,,,,,,,False,16,17,True,exp2.png,exp1.png,trial_right_image,-1,exp1.png,1,exp1.png,exp2.png,1,3,reversed,correct,0.232159480756574,0,invalid_lose,100.49804699979722,13,,,,,,,,,,,,,,,,,,sub_385,2024-05-17_11h25.33.001,Reversal,2022.1.2,59.98667059493196,1,
17,exp3.png,exp4.png,,0,0,0,0,0,17,17,17,,,,,,,,,,,,,,,,,,,,,,,,,False,17,18,False,exp3.png,exp4.png,trial_left_image,1,exp3.png,1,exp3.png,exp4.png,1,1,non-reversed,correct,0.7539959031327962,1,valid_win,105.04819729924202,14,,,,,,,,,,,,,,,,,,sub_385,2024-05-17_11h25.33.001,Reversal,2022.1.2,59.98667059493196,1,
18,exp1.png,exp2.png,,0,0,0,0,0,18,18,18,,,,,,,,,,,,,,,,,,,,,,,,,False,18,19,True,exp2.png,exp1.png,trial_right_image,-1,exp1.png,1,exp1.png,exp2.png,1,3,reversed,correct,0.679674923586152,1,valid_win,109.54830819927156,15,,,,,,,,,,,,,,,,,,sub_385,2024-05-17_11h25.33.001,Reversal,2022.1.2,59.98667059493196,1,
19,exp3.png,exp4.png,,0,0,0,0,0,19,19,19,,,,,,,,,,,,,,,,,,,,,,,,,False,19,20,False,exp3.png,exp4.png,trial_right_image,-1,exp4.png,1,exp3.png,exp4.png,0,2,non-reversed,incorrect,0.3848234614346908,0,valid_lose,116.56454380042851,15,,,,,,,,,,,,,,,,,,sub_385,2024-05-17_11h25.33.001,Reversal,2022.1.2,59.98667059493196,1,
20,exp1.png,exp2.png,,0,0,0,0,0,20,20,20,,,,,,,,,,,,,,,,,,,,,,,,,True,,,,,,,,,,,,,,,,,,,,,,,,,,,,,,,,,,,,,,sub_385,2024-05-17_11h25.33.001,Reversal,2022.1.2,59.98667059493196,1,
,,,exp1.png,0,0,0,0,,,,,0,0,0,0,0,0,0,0,,,,,,,,,,,,,,,,,,,,,,,,,,,,,,,,,,,,,,83.0,83.0,11.055332301184535,"[(83.0, 11.055332301184535)]",197.71016170084476,None,,,,,,,,,,,,sub_385,2024-05-17_11h25.33.001,Reversal,2022.1.2,59.98667059493196,1,
,,,exp2.png,0,0,0,0,,,,,0,0,0,0,0,1,1,1,,,,,,,,,,,,,,,,,,,,,,,,,,,,,,,,,,,,,,,1.0,11.859425799921155,"[(28.0, 9.092946000397205), (1.0, 11.859425799921155)]",214.9468302000314,None,1.0,,,,,,,,,,,sub_385,2024-05-17_11h25.33.001,Reversal,2022.1.2,59.98667059493196,1,
,,,exp3.png,0,0,0,0,,,,,0,0,0,0,0,2,2,2,,,,,,,,,,,,,,,,,,,,,,,,,,,,,,,,,,,,,,,29.0,6.698372898623347,"[(29.0, 6.698372898623347)]",228.27406669966877,None,,29.0,,,,,,,,,,sub_385,2024-05-17_11h25.33.001,Reversal,2022.1.2,59.98667059493196,1,
,,,exp4.png,0,0,0,0,,,,,0,0,0,0,0,3,3,3,,,,,,,,,,,,,,,,,,,,,,,,,,,,,,,,,,,,,,,1.0,4.600697899237275,"[(1.0, 4.600697899237275)]",236.03997509926558,None,,,1.0,,,,,,,,,sub_385,2024-05-17_11h25.33.001,Reversal,2022.1.2,59.98667059493196,1,
0,exp1.png,exp2.png,,1,0,1,0,0,0,0,0,,,,,,,,,,,,,,,,,,,,,,,,,False,20,21,True,exp2.png,exp1.png,trial_right_image,-1,exp1.png,1,exp1.png,exp2.png,1,3,reversed,correct,0.9783423213308552,1,valid_win,165.83018070086837,16,,,,,,,,,,,,,,,,,,sub_385,2024-05-17_11h25.33.001,Reversal,2022.1.2,59.98667059493196,1,
1,exp3.png,exp4.png,,1,0,1,0,0,1,1,1,,,,,,,,,,,,,,,,,,,,,,,,,False,21,22,True,exp4.png,exp3.png,trial_left_image,1,exp4.png,1,exp3.png,exp4.png,0,2,non-reversed,incorrect,0.4101324273303518,0,valid_lose,173.11314840056002,16,,,,,,,,,,,,,,,,,,sub_385,2024-05-17_11h25.33.001,Reversal,2022.1.2,59.98667059493196,1,
2,exp1.png,exp2.png,,1,0,1,0,0,2,2,2,,,,,,,,,,,,,,,,,,,,,,,,,False,22,23,False,exp1.png,exp2.png,trial_left_image,1,exp1.png,1,exp1.png,exp2.png,1,3,reversed,correct,0.8988326693282142,1,valid_win,177.5638660006225,17,,,,,,,,,,,,,,,,,,sub_385,2024-05-17_11h25.33.001,Reversal,2022.1.2,59.98667059493196,1,
3,exp3.png,exp4.png,,1,0,1,0,0,3,3,3,,,,,,,,,,,,,,,,,,,,,,,,,False,23,24,False,exp3.png,exp4.png,trial_left_image,1,exp3.png,1,exp3.png,exp4.png,1,1,non-reversed,correct,0.6709735550771267,1,valid_win,182.2468822002411,18,,,,,,,,,,,,,,,,,,sub_385,2024-05-17_11h25.33.001,Reversal,2022.1.2,59.98667059493196,1,
4,exp1.png,exp2.png,,1,0,1,0,0,4,4,4,,,,,,,,,,,,,,,,,,,,,,,,,False,24,25,True,exp2.png,exp1.png,trial_left_image,1,exp2.png,1,exp1.png,exp2.png,0,4,reversed,incorrect,0.3352784573957125,0,valid_lose,186.69716870039701,18,,,,,,,,,,,,,,,,,,sub_385,2024-05-17_11h25.33.001,Reversal,2022.1.2,59.98667059493196,1,
5,exp3.png,exp4.png,,1,0,1,0,0,5,5,5,,,,,,,,,,,,,,,,,,,,,,,,,False,25,26,True,exp4.png,exp3.png,trial_left_image,1,exp4.png,1,exp3.png,exp4.png,0,2,non-reversed,incorrect,0.21922727349377968,1,invalid_win,191.44741220027208,19,,,,,,,,,,,,,,,,,,sub_385,2024-05-17_11h25.33.001,Reversal,2022.1.2,59.98667059493196,1,
6,exp1.png,exp2.png,,1,0,1,0,0,6,6,6,,,,,,,,,,,,,,,,,,,,,,,,,False,26,27,True,exp2.png,exp1.png,trial_left_image,1,exp2.png,1,exp1.png,exp2.png,0,4,reversed,incorrect,0.13630918496153355,1,invalid_win,196.81362760066986,20,,,,,,,,,,,,,,,,,,sub_385,2024-05-17_11h25.33.001,Reversal,2022.1.2,59.98667059493196,1,
7,exp3.png,exp4.png,,1,0,1,0,0,7,7,7,,,,,,,,,,,,,,,,,,,,,,,,,False,27,28,True,exp4.png,exp3.png,trial_right_image,-1,exp3.png,1,exp3.png,exp4.png,1,1,non-reversed,correct,0.2577638497895337,1,valid_win,201.8634321000427,21,,,,,,,,,,,,,,,,,,sub_385,2024-05-17_11h25.33.001,Reversal,2022.1.2,59.98667059493196,1,
8,exp1.png,exp2.png,,1,0,1,0,0,8,8,8,,,,,,,,,,,,,,,,,,,,,,,,,False,28,29,True,exp2.png,exp1.png,trial_left_image,1,exp2.png,1,exp1.png,exp2.png,0,4,reversed,incorrect,0.9897764099578971,0,valid_lose,206.11322299949825,21,,,,,,,,,,,,,,,,,,sub_385,2024-05-17_11h25.33.001,Reversal,2022.1.2,59.98667059493196,1,
9,exp3.png,exp4.png,,1,0,1,0,0,9,9,9,,,,,,,,,,,,,,,,,,,,,,,,,False,29,30,True,exp4.png,exp3.png,trial_right_image,-1,exp3.png,1,exp3.png,exp4.png,1,1,non-reversed,correct,0.9858603561169264,1,valid_win,210.68024349957705,22,,,,,,,,,,,,,,,,,,sub_385,2024-05-17_11h25.33.001,Reversal,2022.1.2,59.98667059493196,1,
10,exp1.png,exp2.png,,1,0,1,0,0,10,10,10,,,,,,,,,,,,,,,,,,,,,,,,,False,30,31,False,exp1.png,exp2.png,trial_left_image,1,exp1.png,1,exp1.png,exp2.png,1,3,reversed,correct,0.764585442799049,1,valid_win,215.11295180022717,23,,,,,,,,,,,,,,,,,,sub_385,2024-05-17_11h25.33.001,Reversal,2022.1.2,59.98667059493196,1,
11,exp3.png,exp4.png,,1,0,1,0,0,11,11,11,,,,,,,,,,,,,,,,,,,,,,,,,False,31,32,True,exp4.png,exp3.png,trial_left_image,1,exp4.png,1,exp3.png,exp4.png,0,2,non-reversed,incorrect,0.15993509435693654,1,invalid_win,220.37931920029223,24,,,,,,,,,,,,,,,,,,sub_385,2024-05-17_11h25.33.001,Reversal,2022.1.2,59.98667059493196,1,
12,exp1.png,exp2.png,,1,0,1,0,0,12,12,12,,,,,,,,,,,,,,,,,,,,,,,,,False,32,33,False,exp1.png,exp2.png,trial_right_image,-1,exp2.png,1,exp1.png,exp2.png,0,4,reversed,incorrect,0.30722861658552214,0,valid_lose,225.04652580060065,24,,,,,,,,,,,,,,,,,,sub_385,2024-05-17_11h25.33.001,Reversal,2022.1.2,59.98667059493196,1,
13,exp3.png,exp4.png,,1,0,1,0,0,13,13,13,,,,,,,,,,,,,,,,,,,,,,,,,False,33,34,False,exp3.png,exp4.png,trial_right_image,-1,exp4.png,1,exp3.png,exp4.png,0,2,non-reversed,incorrect,0.5107774807372728,0,valid_lose,230.37969459965825,24,,,,,,,,,,,,,,,,,,sub_385,2024-05-17_11h25.33.001,Reversal,2022.1.2,59.98667059493196,1,
14,exp1.png,exp2.png,,1,0,1,0,0,14,14,14,,,,,,,,,,,,,,,,,,,,,,,,,False,34,35,True,exp2.png,exp1.png,trial_right_image,-1,exp1.png,1,exp1.png,exp2.png,1,3,reversed,correct,0.4373224503307793,1,valid_win,235.92901499941945,25,,,,,,,,,,,,,,,,,,sub_385,2024-05-17_11h25.33.001,Reversal,2022.1.2,59.98667059493196,1,
15,exp3.png,exp4.png,,1,0,1,0,0,15,15,15,,,,,,,,,,,,,,,,,,,,,,,,,False,35,36,False,exp3.png,exp4.png,trial_right_image,-1,exp4.png,1,exp3.png,exp4.png,0,2,non-reversed,incorrect,0.4095621494645475,0,valid_lose,242.3962900992483,25,,,,,,,,,,,,,,,,,,sub_385,2024-05-17_11h25.33.001,Reversal,2022.1.2,59.98667059493196,1,
16,exp1.png,exp2.png,,1,0,1,0,0,16,16,16,,,,,,,,,,,,,,,,,,,,,,,,,False,36,37,False,exp1.png,exp2.png,trial_left_image,1,exp1.png,1,exp1.png,exp2.png,1,3,reversed,correct,0.6076859976376331,1,valid_win,247.02951180003583,26,,,,,,,,,,,,,,,,,,sub_385,2024-05-17_11h25.33.001,Reversal,2022.1.2,59.98667059493196,1,
17,exp3.png,exp4.png,,1,0,1,0,0,17,17,17,,,,,,,,,,,,,,,,,,,,,,,,,False,37,38,False,exp3.png,exp4.png,trial_left_image,1,exp3.png,1,exp3.png,exp4.png,1,1,non-reversed,correct,0.3214536329533162,1,valid_win,252.8626310992986,27,,,,,,,,,,,,,,,,,,sub_385,2024-05-17_11h25.33.001,Reversal,2022.1.2,59.98667059493196,1,
18,exp1.png,exp2.png,,1,0,1,0,0,18,18,18,,,,,,,,,,,,,,,,,,,,,,,,,False,38,39,False,exp1.png,exp2.png,trial_left_image,1,exp1.png,1,exp1.png,exp2.png,1,3,reversed,correct,0.03207979328068511,0,invalid_lose,258.19566950015724,27,,,,,,,,,,,,,,,,,,sub_385,2024-05-17_11h25.33.001,Reversal,2022.1.2,59.98667059493196,1,
19,exp3.png,exp4.png,,1,0,1,0,0,19,19,19,,,,,,,,,,,,,,,,,,,,,,,,,False,39,40,False,exp3.png,exp4.png,trial_left_image,1,exp3.png,1,exp3.png,exp4.png,1,1,non-reversed,correct,0.6099272849682655,1,valid_win,263.09539110027254,28,,,,,,,,,,,,,,,,,,sub_385,2024-05-17_11h25.33.001,Reversal,2022.1.2,59.98667059493196,1,
20,exp1.png,exp2.png,,1,0,1,0,0,20,20,20,,,,,,,,,,,,,,,,,,,,,,,,,True,,,,,,,,,,,,,,,,,,,,,,,,,,,,,,,,,,,,,,sub_385,2024-05-17_11h25.33.001,Reversal,2022.1.2,59.98667059493196,1,
,,,exp1.png,1,0,1,0,,,,,0,0,0,0,0,0,0,0,,,,,,,,,,,,,,,,,,,,,,,,,,,,,,,,,,,,,,25.0,25.0,6.310533499345183,"[(25.0, 6.310533499345183)]",344.2260660994798,None,,,,,,,,,,,,sub_385,2024-05-17_11h25.33.001,Reversal,2022.1.2,59.98667059493196,1,
,,,exp2.png,1,0,1,0,,,,,0,0,0,0,0,1,1,1,,,,,,,,,,,,,,,,,,,,,,,,,,,,,,,,,,,,,,,1.0,6.318029699847102,"[(1.0, 6.318029699847102)]",352.18286260031164,None,1.0,,,,,,,,,,,sub_385,2024-05-17_11h25.33.001,Reversal,2022.1.2,59.98667059493196,1,
,,,exp3.png,1,0,1,0,,,,,0,0,0,0,0,2,2,2,,,,,,,,,,,,,,,,,,,,,,,,,,,,,,,,,,,,,,,22.0,5.533253999426961,"[(22.0, 5.533253999426961)]",360.18373760022223,None,,22.0,,,,,,,,,,sub_385,2024-05-17_11h25.33.001,Reversal,2022.1.2,59.98667059493196,1,
,,,exp4.png,1,0,1,0,,,,,0,0,0,0,0,3,3,3,,,,,,,,,,,,,,,,,,,,,,,,,,,,,,,,,,,,,,,1.0,3.9688199013471603,"[(1.0, 3.9688199013471603)]",367.27151050046086,None,,,1.0,,,,,,,,,sub_385,2024-05-17_11h25.33.001,Reversal,2022.1.2,59.98667059493196,1,
0,exp1.png,exp2.png,,2,0,2,0,0,0,0,0,,,,,,,,,,,,,,,,,,,,,,,,,False,40,41,True,exp2.png,exp1.png,trial_right_image,-1,exp1.png,1,exp1.png,exp2.png,1,3,reversed,correct,0.010768232367705854,0,invalid_lose,297.36145699955523,28,,,,,,,,,,,,,,,,,,sub_385,2024-05-17_11h25.33.001,Reversal,2022.1.2,59.98667059493196,1,
1,exp3.png,exp4.png,,2,0,2,0,0,1,1,1,,,,,,,,,,,,,,,,,,,,,,,,,False,41,42,False,exp3.png,exp4.png,trial_left_image,1,exp3.png,1,exp3.png,exp4.png,1,1,non-reversed,correct,0.5270485493216398,1,valid_win,302.4614221993834,29,,,,,,,,,,,,,,,,,,sub_385,2024-05-17_11h25.33.001,Reversal,2022.1.2,59.98667059493196,1,
2,exp1.png,exp2.png,,2,0,2,0,0,2,2,2,,,,,,,,,,,,,,,,,,,,,,,,,False,42,43,False,exp1.png,exp2.png,trial_left_image,1,exp1.png,1,exp1.png,exp2.png,1,3,reversed,correct,0.5708950765044751,1,valid_win,320.0117717999965,30,,,,,,,,,,,,,,,,,,sub_385,2024-05-17_11h25.33.001,Reversal,2022.1.2,59.98667059493196,1,
3,exp3.png,exp4.png,,2,0,2,0,0,3,3,3,,,,,,,,,,,,,,,,,,,,,,,,,False,43,44,True,exp4.png,exp3.png,trial_right_image,-1,exp3.png,1,exp3.png,exp4.png,1,1,non-reversed,correct,0.6050640080967491,1,valid_win,324.8443647995591,31,,,,,,,,,,,,,,,,,,sub_385,2024-05-17_11h25.33.001,Reversal,2022.1.2,59.98667059493196,1,
4,exp1.png,exp2.png,,2,0,2,0,0,4,4,4,,,,,,,,,,,,,,,,,,,,,,,,,False,44,45,True,exp2.png,exp1.png,trial_right_image,-1,exp1.png,1,exp1.png,exp2.png,1,3,reversed,correct,0.6103460534130188,1,valid_win,330.1609125994146,32,,,,,,,,,,,,,,,,,,sub_385,2024-05-17_11h25.33.001,Reversal,2022.1.2,59.98667059493196,1,
5,exp3.png,exp4.png,,2,0,2,0,0,5,5,5,,,,,,,,,,,,,,,,,,,,,,,,,False,45,46,True,exp4.png,exp3.png,trial_right_image,-1,exp3.png,1,exp3.png,exp4.png,1,1,non-reversed,correct,0.20789598656729813,0,invalid_lose,338.52712710015476,32,,,,,,,,,,,,,,,,,,sub_385,2024-05-17_11h25.33.001,Reversal,2022.1.2,59.98667059493196,1,
6,exp1.png,exp2.png,,2,0,2,0,0,6,6,6,,,,,,,,,,,,,,,,,,,,,,,,,False,46,47,False,exp1.png,exp2.png,trial_left_image,1,exp1.png,1,exp1.png,exp2.png,1,3,reversed,correct,0.5188977763862562,1,valid_win,343.5111570004374,33,,,,,,,,,,,,,,,,,,sub_385,2024-05-17_11h25.33.001,Reversal,2022.1.2,59.98667059493196,1,
7,exp3.png,exp4.png,,2,0,2,0,0,7,7,7,,,,,,,,,,,,,,,,,,,,,,,,,False,47,48,False,exp3.png,exp4.png,trial_right_image,-1,exp4.png,1,exp3.png,exp4.png,0,2,non-reversed,incorrect,0.4999306162888123,0,valid_lose,349.7445314005017,33,,,,,,,,,,,,,,,,,,sub_385,2024-05-17_11h25.33.001,Reversal,2022.1.2,59.98667059493196,1,
8,exp1.png,exp2.png,,2,0,2,0,0,8,8,8,,,,,,,,,,,,,,,,,,,,,,,,,False,48,49,True,exp2.png,exp1.png,trial_right_image,-1,exp1.png,1,exp1.png,exp2.png,1,3,reversed,correct,0.6206047643819659,1,valid_win,354.5938495993614,34,,,,,,,,,,,,,,,,,,sub_385,2024-05-17_11h25.33.001,Reversal,2022.1.2,59.98667059493196,1,
9,exp3.png,exp4.png,,2,0,2,0,0,9,9,9,,,,,,,,,,,,,,,,,,,,,,,,,False,49,50,False,exp3.png,exp4.png,trial_left_image,1,exp3.png,1,exp3.png,exp4.png,1,1,non-reversed,correct,0.25488026271069286,1,valid_win,360.62705560028553,35,,,,,,,,,,,,,,,,,,sub_385,2024-05-17_11h25.33.001,Reversal,2022.1.2,59.98667059493196,1,
10,exp1.png,exp2.png,,2,0,2,0,0,10,10,10,,,,,,,,,,,,,,,,,,,,,,,,,False,50,51,False,exp1.png,exp2.png,trial_left_image,1,exp1.png,1,exp1.png,exp2.png,1,3,reversed,correct,0.3483490315167137,1,valid_win,365.81040870025754,36,,,,,,,,,,,,,,,,,,sub_385,2024-05-17_11h25.33.001,Reversal,2022.1.2,59.98667059493196,1,
11,exp3.png,exp4.png,,2,0,2,0,0,11,11,11,,,,,,,,,,,,,,,,,,,,,,,,,False,51,52,True,exp4.png,exp3.png,trial_left_image,1,exp4.png,1,exp3.png,exp4.png,0,2,non-reversed,incorrect,0.620259716814225,0,valid_lose,372.1433930005878,36,,,,,,,,,,,,,,,,,,sub_385,2024-05-17_11h25.33.001,Reversal,2022.1.2,59.98667059493196,1,
12,exp1.png,exp2.png,,2,0,2,0,0,12,12,12,,,,,,,,,,,,,,,,,,,,,,,,,False,52,53,True,exp2.png,exp1.png,trial_right_image,-1,exp1.png,1,exp1.png,exp2.png,1,3,reversed,correct,0.6436451694408,1,valid_win,376.943200699985,37,,,,,,,,,,,,,,,,,,sub_385,2024-05-17_11h25.33.001,Reversal,2022.1.2,59.98667059493196,1,
13,exp3.png,exp4.png,,2,0,2,0,0,13,13,13,,,,,,,,,,,,,,,,,,,,,,,,,False,53,54,False,exp3.png,exp4.png,trial_left_image,1,exp3.png,1,exp3.png,exp4.png,1,1,non-reversed,correct,0.8203443729998661,1,valid_win,381.9100723993033,38,,,,,,,,,,,,,,,,,,sub_385,2024-05-17_11h25.33.001,Reversal,2022.1.2,59.98667059493196,1,
14,exp1.png,exp2.png,,2,0,2,0,0,14,14,14,,,,,,,,,,,,,,,,,,,,,,,,,False,54,55,True,exp2.png,exp1.png,trial_right_image,-1,exp1.png,1,exp1.png,exp2.png,1,3,reversed,correct,0.8763589218427058,1,valid_win,388.61020670086145,39,,,,,,,,,,,,,,,,,,sub_385,2024-05-17_11h25.33.001,Reversal,2022.1.2,59.98667059493196,1,
15,exp3.png,exp4.png,,2,0,2,0,0,15,15,15,,,,,,,,,,,,,,,,,,,,,,,,,False,55,56,False,exp3.png,exp4.png,trial_left_image,1,exp3.png,1,exp3.png,exp4.png,1,1,non-reversed,correct,0.38127285264847943,1,valid_win,393.59345760010183,40,,,,,,,,,,,,,,,,,,sub_385,2024-05-17_11h25.33.001,Reversal,2022.1.2,59.98667059493196,1,
16,exp1.png,exp2.png,,2,0,2,0,0,16,16,16,,,,,,,,,,,,,,,,,,,,,,,,,False,56,57,False,exp1.png,exp2.png,trial_left_image,1,exp1.png,1,exp1.png,exp2.png,1,3,reversed,correct,0.6666981231366447,1,valid_win,398.70996709913015,41,,,,,,,,,,,,,,,,,,sub_385,2024-05-17_11h25.33.001,Reversal,2022.1.2,59.98667059493196,1,
17,exp3.png,exp4.png,,2,0,2,0,0,17,17,17,,,,,,,,,,,,,,,,,,,,,,,,,False,57,58,True,exp4.png,exp3.png,trial_right_image,-1,exp3.png,1,exp3.png,exp4.png,1,1,non-reversed,correct,0.642419815678896,1,valid_win,403.44355140067637,42,,,,,,,,,,,,,,,,,,sub_385,2024-05-17_11h25.33.001,Reversal,2022.1.2,59.98667059493196,1,
18,exp1.png,exp2.png,,2,0,2,0,0,18,18,18,,,,,,,,,,,,,,,,,,,,,,,,,False,58,59,True,exp2.png,exp1.png,trial_right_image,-1,exp1.png,1,exp1.png,exp2.png,1,3,reversed,correct,0.5312726706949411,1,valid_win,408.72677629999816,43,,,,,,,,,,,,,,,,,,sub_385,2024-05-17_11h25.33.001,Reversal,2022.1.2,59.98667059493196,1,
19,exp3.png,exp4.png,,2,0,2,0,0,19,19,19,,,,,,,,,,,,,,,,,,,,,,,,,False,59,60,False,exp3.png,exp4.png,trial_left_image,1,exp3.png,1,exp3.png,exp4.png,1,1,non-reversed,correct,0.2501333786208455,1,valid_win,413.70932729914784,44,,,,,,,,,,,,,,,,,,sub_385,2024-05-17_11h25.33.001,Reversal,2022.1.2,59.98667059493196,1,
20,exp1.png,exp2.png,,2,0,2,0,0,20,20,20,,,,,,,,,,,,,,,,,,,,,,,,,True,,,,,,,,,,,,,,,,,,,,,,,,,,,,,,,,,,,,,,sub_385,2024-05-17_11h25.33.001,Reversal,2022.1.2,59.98667059493196,1,
,,,exp1.png,2,0,2,0,,,,,0,0,0,0,0,0,0,0,,,,,,,,,,,,,,,,,,,,,,,,,,,,,,,,,,,,,,66.0,66.0,11.865872198715806,"[(66.0, 11.865872198715806)]",494.83698520064354,None,,,,,,,,,,,,sub_385,2024-05-17_11h25.33.001,Reversal,2022.1.2,59.98667059493196,1,
,,,exp2.png,2,0,2,0,,,,,0,0,0,0,0,1,1,1,,,,,,,,,,,,,,,,,,,,,,,,,,,,,,,,,,,,,,,1.0,4.417397299781442,"[(1.0, 4.417397299781442)]",508.03101360052824,None,1.0,,,,,,,,,,,sub_385,2024-05-17_11h25.33.001,Reversal,2022.1.2,59.98667059493196,1,
,,,exp3.png,2,0,2,0,,,,,0,0,0,0,0,2,2,2,,,,,,,,,,,,,,,,,,,,,,,,,,,,,,,,,,,,,,,30.0,5.697633299976587,"[(30.0, 5.697633299976587)]",513.9700125008821,None,,30.0,,,,,,,,,,sub_385,2024-05-17_11h25.33.001,Reversal,2022.1.2,59.98667059493196,1,
,,,exp4.png,2,0,2,0,,,,,0,0,0,0,0,3,3,3,,,,,,,,,,,,,,,,,,,,,,,,,,,,,,,,,,,,,,,2.0,3.7339881006628275,"[(2.0, 3.7339881006628275)]",521.1997841000557,None,,,2.0,,,,,,,,,sub_385,2024-05-17_11h25.33.001,Reversal,2022.1.2,59.98667059493196,1,
0,exp1.png,exp2.png,,,,,,,,,,,,,,,,,,0,0,0,0,0,0,0,0,,,,,,,,,False,0,61,False,exp1.png,exp2.png,trial_left_image,1,exp1.png,1,exp2.png,exp1.png,1,3,reversed,incorrect,0.36592952049507455,0,valid_lose,450.79252520017326,44,,,,,,,,,,447.7130887005478,,,,,,,,sub_385,2024-05-17_11h25.33.001,Reversal,2022.1.2,59.98667059493196,1,
1,exp3.png,exp4.png,,,,,,,,,,,,,,,,,,0,0,0,0,0,1,1,1,,,,,,,,,False,1,62,False,exp3.png,exp4.png,trial_left_image,1,exp3.png,1,exp3.png,exp4.png,1,1,non-reversed,correct,0.6026093198181474,1,valid_win,455.50842949934304,45,,,,,,,,,,,,,,,,,,sub_385,2024-05-17_11h25.33.001,Reversal,2022.1.2,59.98667059493196,1,
2,exp1.png,exp2.png,,,,,,,,,,,,,,,,,,0,0,0,0,0,2,2,2,,,,,,,,,False,2,63,True,exp2.png,exp1.png,trial_left_image,1,exp2.png,1,exp2.png,exp1.png,0,4,reversed,correct,0.28021469211023076,1,valid_win,460.7755564991385,46,,,,,,,,,,,,,,,,,,sub_385,2024-05-17_11h25.33.001,Reversal,2022.1.2,59.98667059493196,1,
3,exp3.png,exp4.png,,,,,,,,,,,,,,,,,,0,0,0,0,0,3,3,3,,,,,,,,,False,3,64,True,exp4.png,exp3.png,trial_right_image,-1,exp3.png,1,exp3.png,exp4.png,1,1,non-reversed,correct,0.6124345332624083,1,valid_win,465.77509240061045,47,,,,,,,,,,,,,,,,,,sub_385,2024-05-17_11h25.33.001,Reversal,2022.1.2,59.98667059493196,1,
4,exp1.png,exp2.png,,,,,,,,,,,,,,,,,,0,0,0,0,0,4,4,4,,,,,,,,,False,4,65,False,exp1.png,exp2.png,trial_right_image,-1,exp2.png,1,exp2.png,exp1.png,0,4,reversed,correct,0.8369626159334441,1,valid_win,471.07547540031374,48,,,,,,,,,,,,,,,,,,sub_385,2024-05-17_11h25.33.001,Reversal,2022.1.2,59.98667059493196,1,
5,exp3.png,exp4.png,,,,,,,,,,,,,,,,,,0,0,0,0,0,5,5,5,,,,,,,,,False,5,66,False,exp3.png,exp4.png,trial_left_image,1,exp3.png,1,exp3.png,exp4.png,1,1,non-reversed,correct,0.41545334114200616,1,valid_win,476.20840530097485,49,,,,,,,,,,,,,,,,,,sub_385,2024-05-17_11h25.33.001,Reversal,2022.1.2,59.98667059493196,1,
6,exp1.png,exp2.png,,,,,,,,,,,,,,,,,,0,0,0,0,0,6,6,6,,,,,,,,,False,6,67,True,exp2.png,exp1.png,trial_left_image,1,exp2.png,1,exp2.png,exp1.png,0,4,reversed,correct,0.7258182623785382,1,valid_win,482.0755119007081,50,,,,,,,,,,,,,,,,,,sub_385,2024-05-17_11h25.33.001,Reversal,2022.1.2,59.98667059493196,1,
7,exp3.png,exp4.png,,,,,,,,,,,,,,,,,,0,0,0,0,0,7,7,7,,,,,,,,,False,7,68,True,exp4.png,exp3.png,trial_right_image,-1,exp3.png,1,exp3.png,exp4.png,1,1,non-reversed,correct,0.6163917853747755,1,valid_win,486.89159430004656,51,,,,,,,,,,,,,,,,,,sub_385,2024-05-17_11h25.33.001,Reversal,2022.1.2,59.98667059493196,1,
8,exp1.png,exp2.png,,,,,,,,,,,,,,,,,,0,0,0,0,0,8,8,8,,,,,,,,,False,8,69,False,exp1.png,exp2.png,trial_left_image,1,exp1.png,1,exp2.png,exp1.png,1,3,reversed,incorrect,0.9519489751914081,0,valid_lose,491.62538130022585,51,,,,,,,,,,,,,,,,,,sub_385,2024-05-17_11h25.33.001,Reversal,2022.1.2,59.98667059493196,1,
9,exp3.png,exp4.png,,,,,,,,,,,,,,,,,,0,0,0,0,0,9,9,9,,,,,,,,,False,9,70,True,exp4.png,exp3.png,trial_right_image,-1,exp3.png,1,exp3.png,exp4.png,1,1,non-reversed,correct,0.752986362210202,1,valid_win,496.5081893000752,52,,,,,,,,,,,,,,,,,,sub_385,2024-05-17_11h25.33.001,Reversal,2022.1.2,59.98667059493196,1,
10,exp1.png,exp2.png,,,,,,,,,,,,,,,,,,0,0,0,0,0,10,10,10,,,,,,,,,False,10,71,True,exp2.png,exp1.png,trial_left_image,1,exp2.png,1,exp2.png,exp1.png,0,4,reversed,correct,0.16736028654499924,0,invalid_lose,502.6414957996458,52,,,,,,,,,,,,,,,,,,sub_385,2024-05-17_11h25.33.001,Reversal,2022.1.2,59.98667059493196,1,
11,exp3.png,exp4.png,,,,,,,,,,,,,,,,,,0,0,0,0,0,11,11,11,,,,,,,,,False,11,72,False,exp3.png,exp4.png,trial_left_image,1,exp3.png,1,exp3.png,exp4.png,1,1,non-reversed,correct,0.5101677441639529,1,valid_win,508.1745925992727,53,,,,,,,,,,,,,,,,,,sub_385,2024-05-17_11h25.33.001,Reversal,2022.1.2,59.98667059493196,1,
12,exp1.png,exp2.png,,,,,,,,,,,,,,,,,,0,0,0,0,0,12,12,12,,,,,,,,,False,12,73,False,exp1.png,exp2.png,trial_right_image,-1,exp2.png,1,exp2.png,exp1.png,0,4,reversed,correct,0.5365959880946729,1,valid_win,512.8913662005216,54,,,,,,,,,,,,,,,,,,sub_385,2024-05-17_11h25.33.001,Reversal,2022.1.2,59.98667059493196,1,
13,exp3.png,exp4.png,,,,,,,,,,,,,,,,,,0,0,0,0,0,13,13,13,,,,,,,,,False,13,74,False,exp3.png,exp4.png,trial_left_image,1,exp3.png,1,exp3.png,exp4.png,1,1,non-reversed,correct,0.33209244328794085,1,valid_win,517.9909189995378,55,,,,,,,,,,,,,,,,,,sub_385,2024-05-17_11h25.33.001,Reversal,2022.1.2,59.98667059493196,1,
14,exp1.png,exp2.png,,,,,,,,,,,,,,,,,,0,0,0,0,0,14,14,14,,,,,,,,,False,14,75,False,exp1.png,exp2.png,trial_right_image,-1,exp2.png,1,exp2.png,exp1.png,0,4,reversed,correct,0.8965125304123547,1,valid_win,522.9407941997051,56,,,,,,,,,,,,,,,,,,sub_385,2024-05-17_11h25.33.001,Reversal,2022.1.2,59.98667059493196,1,
15,exp3.png,exp4.png,,,,,,,,,,,,,,,,,,0,0,0,0,0,15,15,15,,,,,,,,,False,15,76,True,exp4.png,exp3.png,trial_right_image,-1,exp3.png,1,exp3.png,exp4.png,1,1,non-reversed,correct,0.3685581031097216,1,valid_win,527.6404643002898,57,,,,,,,,,,,,,,,,,,sub_385,2024-05-17_11h25.33.001,Reversal,2022.1.2,59.98667059493196,1,
16,exp1.png,exp2.png,,,,,,,,,,,,,,,,,,0,0,0,0,0,16,16,16,,,,,,,,,False,16,77,True,exp2.png,exp1.png,trial_left_image,1,exp2.png,1,exp2.png,exp1.png,0,4,reversed,correct,0.49217022500476526,1,valid_win,533.6742247007787,58,,,,,,,,,,,,,,,,,,sub_385,2024-05-17_11h25.33.001,Reversal,2022.1.2,59.98667059493196,1,
17,exp3.png,exp4.png,,,,,,,,,,,,,,,,,,0,0,0,0,0,17,17,17,,,,,,,,,False,17,78,True,exp4.png,exp3.png,trial_right_image,-1,exp3.png,1,exp3.png,exp4.png,1,1,non-reversed,correct,0.45925516744349193,1,valid_win,538.9575519002974,59,,,,,,,,,,,,,,,,,,sub_385,2024-05-17_11h25.33.001,Reversal,2022.1.2,59.98667059493196,1,
18,exp1.png,exp2.png,,,,,,,,,,,,,,,,,,0,0,0,0,0,18,18,18,,,,,,,,,False,18,79,True,exp2.png,exp1.png,trial_left_image,1,exp2.png,1,exp2.png,exp1.png,0,4,reversed,correct,0.03478829047846199,0,invalid_lose,543.6737337000668,59,,,,,,,,,,,,,,,,,,sub_385,2024-05-17_11h25.33.001,Reversal,2022.1.2,59.98667059493196,1,
19,exp3.png,exp4.png,,,,,,,,,,,,,,,,,,0,0,0,0,0,19,19,19,,,,,,,,,False,19,80,False,exp3.png,exp4.png,trial_left_image,1,exp3.png,1,exp3.png,exp4.png,1,1,non-reversed,correct,0.759690868775976,1,valid_win,549.4901372008026,60,,,,,,,,,,,,,,,,,,sub_385,2024-05-17_11h25.33.001,Reversal,2022.1.2,59.98667059493196,1,
20,exp1.png,exp2.png,,,,,,,,,,,,,,,,,,0,0,0,0,0,20,20,20,,,,,,,,,True,,,,,,,,,,,,,,,,,,,,,,,,,,,,,,,,,,,,,,sub_385,2024-05-17_11h25.33.001,Reversal,2022.1.2,59.98667059493196,1,
,,,exp1.png,,,,,,,,,,,,,,,,,0,0,0,0,,,,,0,0,0,0,0,0,0,0,,,,,,,,,,,,,,,,,,,,,,38.0,38.0,12.946457801386714,"[(38.0, 12.946457801386714)]",630.6177938003093,None,,,,,,,,,,,,sub_385,2024-05-17_11h25.33.001,Reversal,2022.1.2,59.98667059493196,1,
,,,exp2.png,,,,,,,,,,,,,,,,,0,0,0,0,,,,,0,0,0,0,0,1,1,1,,,,,,,,,,,,,,,,,,,,,,,99.0,13.53449589945376,"[(71.0, 12.017180299386382), (99.0, 13.53449589945376)]",644.9782902002335,None,99.0,,,,,,,,,,,sub_385,2024-05-17_11h25.33.001,Reversal,2022.1.2,59.98667059493196,1,
,,,exp3.png,,,,,,,,,,,,,,,,,0,0,0,0,,,,,0,0,0,0,0,2,2,2,,,,,,,,,,,,,,,,,,,,,,,64.0,8.299569001421332,"[(64.0, 8.299569001421332)]",659.8481166996062,None,,64.0,,,,,,,,,,sub_385,2024-05-17_11h25.33.001,Reversal,2022.1.2,59.98667059493196,1,
,,,exp4.png,,,,,,,,,,,,,,,,,0,0,0,0,,,,,0,0,0,0,0,3,3,3,,,,,,,,,,,,,,,,,,,,,,,86.0,25.06669900007546,"[(59.0, 18.967771099880338), (81.0, 20.833790499716997), (86.0, 25.06669900007546)]",669.330001199618,None,,,86.0,,,,,,,,,sub_385,2024-05-17_11h25.33.001,Reversal,2022.1.2,59.98667059493196,1,
0,exp1.png,exp2.png,,,,,,,,,,,,,,,,,,1,0,1,0,0,0,0,0,,,,,,,,,False,20,81,True,exp2.png,exp1.png,trial_right_image,-1,exp1.png,1,exp2.png,exp1.png,1,3,reversed,incorrect,0.360388278163147,0,valid_lose,627.1056894995272,60,,,,,,,,,,,,,,,,,,sub_385,2024-05-17_11h25.33.001,Reversal,2022.1.2,59.98667059493196,1,
1,exp3.png,exp4.png,,,,,,,,,,,,,,,,,,1,0,1,0,0,1,1,1,,,,,,,,,False,21,82,True,exp4.png,exp3.png,trial_right_image,-1,exp3.png,1,exp3.png,exp4.png,1,1,non-reversed,correct,0.8556833902187181,1,valid_win,632.5887000001967,61,,,,,,,,,,,,,,,,,,sub_385,2024-05-17_11h25.33.001,Reversal,2022.1.2,59.98667059493196,1,
2,exp1.png,exp2.png,,,,,,,,,,,,,,,,,,1,0,1,0,0,2,2,2,,,,,,,,,False,22,83,True,exp2.png,exp1.png,trial_left_image,1,exp2.png,1,exp2.png,exp1.png,0,4,reversed,correct,0.6267745399580753,1,valid_win,637.9888860005885,62,,,,,,,,,,,,,,,,,,sub_385,2024-05-17_11h25.33.001,Reversal,2022.1.2,59.98667059493196,1,
3,exp3.png,exp4.png,,,,,,,,,,,,,,,,,,1,0,1,0,0,3,3,3,,,,,,,,,False,23,84,True,exp4.png,exp3.png,trial_right_image,-1,exp3.png,1,exp3.png,exp4.png,1,1,non-reversed,correct,0.5187032467114951,1,valid_win,642.7384399008006,63,,,,,,,,,,,,,,,,,,sub_385,2024-05-17_11h25.33.001,Reversal,2022.1.2,59.98667059493196,1,
4,exp1.png,exp2.png,,,,,,,,,,,,,,,,,,1,0,1,0,0,4,4,4,,,,,,,,,False,24,85,False,exp1.png,exp2.png,trial_left_image,1,exp1.png,1,exp2.png,exp1.png,1,3,reversed,incorrect,0.9771828394306479,0,valid_lose,648.2894854992628,63,,,,,,,,,,,,,,,,,,sub_385,2024-05-17_11h25.33.001,Reversal,2022.1.2,59.98667059493196,1,
5,exp3.png,exp4.png,,,,,,,,,,,,,,,,,,1,0,1,0,0,5,5,5,,,,,,,,,False,25,86,False,exp3.png,exp4.png,trial_left_image,1,exp3.png,1,exp3.png,exp4.png,1,1,non-reversed,correct,0.4861372658210712,1,valid_win,652.9558192994446,64,,,,,,,,,,,,,,,,,,sub_385,2024-05-17_11h25.33.001,Reversal,2022.1.2,59.98667059493196,1,
6,exp1.png,exp2.png,,,,,,,,,,,,,,,,,,1,0,1,0,0,6,6,6,,,,,,,,,False,26,87,True,exp2.png,exp1.png,trial_left_image,1,exp2.png,1,exp2.png,exp1.png,0,4,reversed,correct,0.04755587223851476,0,invalid_lose,658.505156699568,64,,,,,,,,,,,,,,,,,,sub_385,2024-05-17_11h25.33.001,Reversal,2022.1.2,59.98667059493196,1,
7,exp3.png,exp4.png,,,,,,,,,,,,,,,,,,1,0,1,0,0,7,7,7,,,,,,,,,False,27,88,False,exp3.png,exp4.png,trial_left_image,1,exp3.png,1,exp3.png,exp4.png,1,1,non-reversed,correct,0.6772500453927444,1,valid_win,664.3720724992454,65,,,,,,,,,,,,,,,,,,sub_385,2024-05-17_11h25.33.001,Reversal,2022.1.2,59.98667059493196,1,
8,exp1.png,exp2.png,,,,,,,,,,,,,,,,,,1,0,1,0,0,8,8,8,,,,,,,,,False,28,89,True,exp2.png,exp1.png,trial_left_image,1,exp2.png,1,exp2.png,exp1.png,0,4,reversed,correct,0.7204328415136253,1,valid_win,671.0220088995993,66,,,,,,,,,,,,,,,,,,sub_385,2024-05-17_11h25.33.001,Reversal,2022.1.2,59.98667059493196,1,
9,exp3.png,exp4.png,,,,,,,,,,,,,,,,,,1,0,1,0,0,9,9,9,,,,,,,,,False,29,90,False,exp3.png,exp4.png,trial_left_image,1,exp3.png,1,exp3.png,exp4.png,1,1,non-reversed,correct,0.8612414133718287,1,valid_win,675.6548047997057,67,,,,,,,,,,,,,,,,,,sub_385,2024-05-17_11h25.33.001,Reversal,2022.1.2,59.98667059493196,1,
10,exp1.png,exp2.png,,,,,,,,,,,,,,,,,,1,0,1,0,0,10,10,10,,,,,,,,,False,30,91,False,exp1.png,exp2.png,trial_right_image,-1,exp2.png,1,exp2.png,exp1.png,0,4,reversed,correct,0.39197358762020484,1,valid_win,680.6712477002293,68,,,,,,,,,,,,,,,,,,sub_385,2024-05-17_11h25.33.001,Reversal,2022.1.2,59.98667059493196,1,
11,exp3.png,exp4.png,,,,,,,,,,,,,,,,,,1,0,1,0,0,11,11,11,,,,,,,,,False,31,92,True,exp4.png,exp3.png,trial_right_image,-1,exp3.png,1,exp3.png,exp4.png,1,1,non-reversed,correct,0.6062061600510539,1,valid_win,685.3047829009593,69,,,,,,,,,,,,,,,,,,sub_385,2024-05-17_11h25.33.001,Reversal,2022.1.2,59.98667059493196,1,
12,exp1.png,exp2.png,,,,,,,,,,,,,,,,,,1,0,1,0,0,12,12,12,,,,,,,,,False,32,93,False,exp1.png,exp2.png,trial_right_image,-1,exp2.png,1,exp2.png,exp1.png,0,4,reversed,correct,0.41008927277945917,1,valid_win,690.5384835004807,70,,,,,,,,,,,,,,,,,,sub_385,2024-05-17_11h25.33.001,Reversal,2022.1.2,59.98667059493196,1,
13,exp3.png,exp4.png,,,,,,,,,,,,,,,,,,1,0,1,0,0,13,13,13,,,,,,,,,False,33,94,False,exp3.png,exp4.png,trial_left_image,1,exp3.png,1,exp3.png,exp4.png,1,1,non-reversed,correct,0.9659233719863899,1,valid_win,695.3711828999221,71,,,,,,,,,,,,,,,,,,sub_385,2024-05-17_11h25.33.001,Reversal,2022.1.2,59.98667059493196,1,
14,exp1.png,exp2.png,,,,,,,,,,,,,,,,,,1,0,1,0,0,14,14,14,,,,,,,,,False,34,95,False,exp1.png,exp2.png,trial_right_image,-1,exp2.png,1,exp2.png,exp1.png,0,4,reversed,correct,0.019788306609345163,0,invalid_lose,700.1547763999552,71,,,,,,,,,,,,,,,,,,sub_385,2024-05-17_11h25.33.001,Reversal,2022.1.2,59.98667059493196,1,
15,exp3.png,exp4.png,,,,,,,,,,,,,,,,,,1,0,1,0,0,15,15,15,,,,,,,,,False,35,96,False,exp3.png,exp4.png,trial_left_image,1,exp3.png,1,exp3.png,exp4.png,1,1,non-reversed,correct,0.053536561824485296,0,invalid_lose,704.5545604992658,71,,,,,,,,,,,,,,,,,,sub_385,2024-05-17_11h25.33.001,Reversal,2022.1.2,59.98667059493196,1,
16,exp1.png,exp2.png,,,,,,,,,,,,,,,,,,1,0,1,0,0,16,16,16,,,,,,,,,False,36,97,True,exp2.png,exp1.png,trial_left_image,1,exp2.png,1,exp2.png,exp1.png,0,4,reversed,correct,0.8510559076727305,1,valid_win,711.0206259004772,72,,,,,,,,,,,,,,,,,,sub_385,2024-05-17_11h25.33.001,Reversal,2022.1.2,59.98667059493196,1,
17,exp3.png,exp4.png,,,,,,,,,,,,,,,,,,1,0,1,0,0,17,17,17,,,,,,,,,False,37,98,False,exp3.png,exp4.png,trial_left_image,1,exp3.png,1,exp3.png,exp4.png,1,1,non-reversed,correct,0.5288386608288829,1,valid_win,715.6872911993414,73,,,,,,,,,,,,,,,,,,sub_385,2024-05-17_11h25.33.001,Reversal,2022.1.2,59.98667059493196,1,
18,exp1.png,exp2.png,,,,,,,,,,,,,,,,,,1,0,1,0,0,18,18,18,,,,,,,,,False,38,99,True,exp2.png,exp1.png,trial_right_image,-1,exp1.png,1,exp2.png,exp1.png,1,3,reversed,incorrect,0.4750942412679513,0,valid_lose,721.1370541993529,73,,,,,,,,,,,,,,,,,,sub_385,2024-05-17_11h25.33.001,Reversal,2022.1.2,59.98667059493196,1,
19,exp3.png,exp4.png,,,,,,,,,,,,,,,,,,1,0,1,0,0,19,19,19,,,,,,,,,False,39,100,True,exp4.png,exp3.png,trial_right_image,-1,exp3.png,1,exp3.png,exp4.png,1,1,non-reversed,correct,0.18137903097694708,0,invalid_lose,726.8542582001537,73,,,,,,,,,,,,,,,,,,sub_385,2024-05-17_11h25.33.001,Reversal,2022.1.2,59.98667059493196,1,
20,exp1.png,exp2.png,,,,,,,,,,,,,,,,,,1,0,1,0,0,20,20,20,,,,,,,,,True,,,,,,,,,,,,,,,,,,,,,,,,,,,,,,,,,,,,,,sub_385,2024-05-17_11h25.33.001,Reversal,2022.1.2,59.98667059493196,1,
,,,exp1.png,,,,,,,,,,,,,,,,,1,0,1,0,,,,,0,0,0,0,0,0,0,0,,,,,,,,,,,,,,,,,,,,,,66.0,66.0,8.040218299254775,"[(66.0, 8.040218299254775)]",807.9869461003691,None,,,,,,,,,,,,sub_385,2024-05-17_11h25.33.001,Reversal,2022.1.2,59.98667059493196,1,
,,,exp2.png,,,,,,,,,,,,,,,,,1,0,1,0,,,,,0,0,0,0,0,1,1,1,,,,,,,,,,,,,,,,,,,,,,,100.0,5.26453959941864,"[(100.0, 5.26453959941864)]",827.344561399892,None,100.0,,,,,,,,,,,sub_385,2024-05-17_11h25.33.001,Reversal,2022.1.2,59.98667059493196,1,
,,,exp3.png,,,,,,,,,,,,,,,,,1,0,1,0,,,,,0,0,0,0,0,2,2,2,,,,,,,,,,,,,,,,,,,,,,,50.0,None,[],834.0916713997722,None,,,,,,,,,,,,sub_385,2024-05-17_11h25.33.001,Reversal,2022.1.2,59.98667059493196,1,
,,,exp4.png,,,,,,,,,,,,,,,,,1,0,1,0,,,,,0,0,0,0,0,3,3,3,,,,,,,,,,,,,,,,,,,,,,,100.0,4.367371000349522,"[(100.0, 4.367371000349522)]",839.4617929998785,None,,,100.0,,,,,,,,,sub_385,2024-05-17_11h25.33.001,Reversal,2022.1.2,59.98667059493196,1,
0,exp1.png,exp2.png,,,,,,,,,,,,,,,,,,2,0,2,0,0,0,0,0,,,,,,,,,False,40,101,False,exp1.png,exp2.png,trial_right_image,-1,exp2.png,1,exp2.png,exp1.png,0,4,reversed,correct,0.667205859192151,1,valid_win,770.6034430004656,74,,,,,,,,,,,,,,,,,,sub_385,2024-05-17_11h25.33.001,Reversal,2022.1.2,59.98667059493196,1,
1,exp3.png,exp4.png,,,,,,,,,,,,,,,,,,2,0,2,0,0,1,1,1,,,,,,,,,False,41,102,True,exp4.png,exp3.png,trial_right_image,-1,exp3.png,1,exp3.png,exp4.png,1,1,non-reversed,correct,0.6107121364172171,1,valid_win,777.9703877009451,75,,,,,,,,,,,,,,,,,,sub_385,2024-05-17_11h25.33.001,Reversal,2022.1.2,59.98667059493196,1,
2,exp1.png,exp2.png,,,,,,,,,,,,,,,,,,2,0,2,0,0,2,2,2,,,,,,,,,False,42,103,False,exp1.png,exp2.png,trial_left_image,1,exp1.png,1,exp2.png,exp1.png,1,3,reversed,incorrect,0.42847196861020787,0,valid_lose,783.3860883992165,75,,,,,,,,,,,,,,,,,,sub_385,2024-05-17_11h25.33.001,Reversal,2022.1.2,59.98667059493196,1,
3,exp3.png,exp4.png,,,,,,,,,,,,,,,,,,2,0,2,0,0,3,3,3,,,,,,,,,False,43,104,False,exp3.png,exp4.png,trial_left_image,1,exp3.png,1,exp3.png,exp4.png,1,1,non-reversed,correct,0.5038794919183981,1,valid_win,788.8864989001304,76,,,,,,,,,,,,,,,,,,sub_385,2024-05-17_11h25.33.001,Reversal,2022.1.2,59.98667059493196,1,
4,exp1.png,exp2.png,,,,,,,,,,,,,,,,,,2,0,2,0,0,4,4,4,,,,,,,,,False,44,105,True,exp2.png,exp1.png,trial_left_image,1,exp2.png,1,exp2.png,exp1.png,0,4,reversed,correct,0.48012639557222436,1,valid_win,791.8019453007728,77,,,,,,,,,,,,,,,,,,sub_385,2024-05-17_11h25.33.001,Reversal,2022.1.2,59.98667059493196,1,
5,exp3.png,exp4.png,,,,,,,,,,,,,,,,,,2,0,2,0,0,5,5,5,,,,,,,,,False,45,106,True,exp4.png,exp3.png,trial_right_image,-1,exp3.png,1,exp3.png,exp4.png,1,1,non-reversed,correct,0.6457828250980201,1,valid_win,796.4523175992072,78,,,,,,,,,,,,,,,,,,sub_385,2024-05-17_11h25.33.001,Reversal,2022.1.2,59.98667059493196,1,
6,exp1.png,exp2.png,,,,,,,,,,,,,,,,,,2,0,2,0,0,6,6,6,,,,,,,,,False,46,107,True,exp2.png,exp1.png,trial_left_image,1,exp2.png,1,exp2.png,exp1.png,0,4,reversed,correct,0.40284399840626794,1,valid_win,800.8369593992829,79,,,,,,,,,,,,,,,,,,sub_385,2024-05-17_11h25.33.001,Reversal,2022.1.2,59.98667059493196,1,
7,exp3.png,exp4.png,,,,,,,,,,,,,,,,,,2,0,2,0,0,7,7,7,,,,,,,,,False,47,108,False,exp3.png,exp4.png,trial_left_image,1,exp3.png,1,exp3.png,exp4.png,1,1,non-reversed,correct,0.8292046167137551,1,valid_win,805.4695779997855,80,,,,,,,,,,,,,,,,,,sub_385,2024-05-17_11h25.33.001,Reversal,2022.1.2,59.98667059493196,1,
8,exp1.png,exp2.png,,,,,,,,,,,,,,,,,,2,0,2,0,0,8,8,8,,,,,,,,,False,48,109,False,exp1.png,exp2.png,trial_right_image,-1,exp2.png,1,exp2.png,exp1.png,0,4,reversed,correct,0.26128680208997834,1,valid_win,810.9691819995642,81,,,,,,,,,,,,,,,,,,sub_385,2024-05-17_11h25.33.001,Reversal,2022.1.2,59.98667059493196,1,
9,exp3.png,exp4.png,,,,,,,,,,,,,,,,,,2,0,2,0,0,9,9,9,,,,,,,,,False,49,110,False,exp3.png,exp4.png,trial_left_image,1,exp3.png,1,exp3.png,exp4.png,1,1,non-reversed,correct,0.5922335531643147,1,valid_win,815.5355130005628,82,,,,,,,,,,,,,,,,,,sub_385,2024-05-17_11h25.33.001,Reversal,2022.1.2,59.98667059493196,1,
10,exp1.png,exp2.png,,,,,,,,,,,,,,,,,,2,0,2,0,0,10,10,10,,,,,,,,,False,50,111,True,exp2.png,exp1.png,trial_left_image,1,exp2.png,1,exp2.png,exp1.png,0,4,reversed,correct,0.8118421895091933,1,valid_win,820.701956000179,83,,,,,,,,,,,,,,,,,,sub_385,2024-05-17_11h25.33.001,Reversal,2022.1.2,59.98667059493196,1,
11,exp3.png,exp4.png,,,,,,,,,,,,,,,,,,2,0,2,0,0,11,11,11,,,,,,,,,False,51,112,False,exp3.png,exp4.png,trial_left_image,1,exp3.png,1,exp3.png,exp4.png,1,1,non-reversed,correct,0.6874640970444189,1,valid_win,825.7360332999378,84,,,,,,,,,,,,,,,,,,sub_385,2024-05-17_11h25.33.001,Reversal,2022.1.2,59.98667059493196,1,
12,exp1.png,exp2.png,,,,,,,,,,,,,,,,,,2,0,2,0,0,12,12,12,,,,,,,,,False,52,113,True,exp2.png,exp1.png,trial_left_image,1,exp2.png,1,exp2.png,exp1.png,0,4,reversed,correct,0.5727046504792805,1,valid_win,830.6185836009681,85,,,,,,,,,,,,,,,,,,sub_385,2024-05-17_11h25.33.001,Reversal,2022.1.2,59.98667059493196,1,
13,exp3.png,exp4.png,,,,,,,,,,,,,,,,,,2,0,2,0,0,13,13,13,,,,,,,,,False,53,114,False,exp3.png,exp4.png,trial_left_image,1,exp3.png,1,exp3.png,exp4.png,1,1,non-reversed,correct,0.18134927428182335,0,invalid_lose,835.5015146993101,85,,,,,,,,,,,,,,,,,,sub_385,2024-05-17_11h25.33.001,Reversal,2022.1.2,59.98667059493196,1,
14,exp1.png,exp2.png,,,,,,,,,,,,,,,,,,2,0,2,0,0,14,14,14,,,,,,,,,False,54,115,False,exp1.png,exp2.png,trial_right_image,-1,exp2.png,1,exp2.png,exp1.png,0,4,reversed,correct,0.5533727643854922,1,valid_win,840.5690404009074,86,,,,,,,,,,,,,,,,,,sub_385,2024-05-17_11h25.33.001,Reversal,2022.1.2,59.98667059493196,1,
15,exp3.png,exp4.png,,,,,,,,,,,,,,,,,,2,0,2,0,0,15,15,15,,,,,,,,,False,55,116,True,exp4.png,exp3.png,trial_right_image,-1,exp3.png,1,exp3.png,exp4.png,1,1,non-reversed,correct,0.5929436690509087,1,valid_win,845.3690246008337,87,,,,,,,,,,,,,,,,,,sub_385,2024-05-17_11h25.33.001,Reversal,2022.1.2,59.98667059493196,1,
16,exp1.png,exp2.png,,,,,,,,,,,,,,,,,,2,0,2,0,0,16,16,16,,,,,,,,,False,56,117,True,exp2.png,exp1.png,trial_left_image,1,exp2.png,1,exp2.png,exp1.png,0,4,reversed,correct,0.883318504109887,1,valid_win,851.6687761992216,88,,,,,,,,,,,,,,,,,,sub_385,2024-05-17_11h25.33.001,Reversal,2022.1.2,59.98667059493196,1,
17,exp3.png,exp4.png,,,,,,,,,,,,,,,,,,2,0,2,0,0,17,17,17,,,,,,,,,False,57,118,True,exp4.png,exp3.png,trial_right_image,-1,exp3.png,1,exp3.png,exp4.png,1,1,non-reversed,correct,0.6671850740496631,1,valid_win,856.5515346005559,89,,,,,,,,,,,,,,,,,,sub_385,2024-05-17_11h25.33.001,Reversal,2022.1.2,59.98667059493196,1,
18,exp1.png,exp2.png,,,,,,,,,,,,,,,,,,2,0,2,0,0,18,18,18,,,,,,,,,False,58,119,True,exp2.png,exp1.png,trial_left_image,1,exp2.png,1,exp2.png,exp1.png,0,4,reversed,correct,0.9814325746953021,1,valid_win,862.5857808999717,90,,,,,,,,,,,,,,,,,,sub_385,2024-05-17_11h25.33.001,Reversal,2022.1.2,59.98667059493196,1,
19,exp3.png,exp4.png,,,,,,,,,,,,,,,,,,2,0,2,0,0,19,19,19,,,,,,,,,False,59,120,False,exp3.png,exp4.png,trial_left_image,1,exp3.png,1,exp3.png,exp4.png,1,1,non-reversed,correct,0.6037244330270023,1,valid_win,867.1342871002853,91,,,,,,,,,,,,,,,,,,sub_385,2024-05-17_11h25.33.001,Reversal,2022.1.2,59.98667059493196,1,
20,exp1.png,exp2.png,,,,,,,,,,,,,,,,,,2,0,2,0,0,20,20,20,,,,,,,,,True,,,,,,,,,,,,,,,,,,,,,,,,,,,,,,,,,,,,,,sub_385,2024-05-17_11h25.33.001,Reversal,2022.1.2,59.98667059493196,1,
,,,exp1.png,,,,,,,,,,,,,,,,,2,0,2,0,,,,,0,0,0,0,0,0,0,0,,,,,,,,,,,,,,,,,,,,,,100.0,100.0,6.168539199978113,"[(100.0, 6.168539199978113)]",948.2740241996944,None,,,,,,,,,,,,sub_385,2024-05-17_11h25.33.001,Reversal,2022.1.2,59.98667059493196,1,
,,,exp2.png,,,,,,,,,,,,,,,,,2,0,2,0,,,,,0,0,0,0,0,1,1,1,,,,,,,,,,,,,,,,,,,,,,,100.0,3.997163001447916,"[(100.0, 3.997163001447916)]",955.6425762008876,None,100.0,,,,,,,,,,,sub_385,2024-05-17_11h25.33.001,Reversal,2022.1.2,59.98667059493196,1,
,,,exp3.png,,,,,,,,,,,,,,,,,2,0,2,0,,,,,0,0,0,0,0,2,2,2,,,,,,,,,,,,,,,,,,,,,,,50.0,None,[],960.8890432994813,None,,,,,,,,,,,,sub_385,2024-05-17_11h25.33.001,Reversal,2022.1.2,59.98667059493196,1,
,,,exp4.png,,,,,,,,,,,,,,,,,2,0,2,0,,,,,0,0,0,0,0,3,3,3,,,,,,,,,,,,,,,,,,,,,,,100.0,3.4185428991913795,"[(100.0, 3.4185428991913795)]",967.8249504007399,None,,,100.0,,,,,,,,,sub_385,2024-05-17_11h25.33.001,Reversal,2022.1.2,59.98667059493196,1,
,,,,,,,,,,,,,,,,,,,,,,,,,,,,,,,,,,,,,,,,,,,,,,,,,,,,,,,,91,,,,,,,,,,,101,47,54,446.00600059889257,0,space,50.103288600221276,sub_385,2024-05-17_11h25.33.001,Reversal,2022.1.2,59.98667059493196,1,
