trial_index,trial_image1_file,trial_image2_file,image_file,learning_outer_loop.thisRepN,learning_outer_loop.thisTrialN,learning_outer_loop.thisN,learning_outer_loop.thisIndex,learning_inner_loop.thisRepN,learning_inner_loop.thisTrialN,learning_inner_loop.thisN,learning_inner_loop.thisIndex,learning_estimation_outer_loop.thisRepN,learning_estimation_outer_loop.thisTrialN,learning_estimation_outer_loop.thisN,learning_estimation_outer_loop.thisIndex,learning_estimation_inner_loop.thisRepN,learning_estimation_inner_loop.thisTrialN,learning_estimation_inner_loop.thisN,learning_estimation_inner_loop.thisIndex,reversal_outer_loop.thisRepN,reversal_outer_loop.thisTrialN,reversal_outer_loop.thisN,reversal_outer_loop.thisIndex,reversal_inner_loop.thisRepN,reversal_inner_loop.thisTrialN,reversal_inner_loop.thisN,reversal_inner_loop.thisIndex,reversal_estimation_outer_loop.thisRepN,reversal_estimation_outer_loop.thisTrialN,reversal_estimation_outer_loop.thisN,reversal_estimation_outer_loop.thisIndex,reversal_estimation_inner_loop.thisRepN,reversal_estimation_inner_loop.thisTrialN,reversal_estimation_inner_loop.thisN,reversal_estimation_inner_loop.thisIndex,skipped,total_trial_counter,trial_num,left_right_flip,left_image_file,right_image_file,clicked_stimulus_side,side,clicked_stimulus,version,high_prob_image_file,low_prob_image_file,choice_a,choice_b,pair_type,correct,trial_feedback_random,reward,trial_type,overall_time_after_trial,score,estimation_exp1.png,estimation_rating.response,estimation_rating.rt,estimation_rating.history,estimation_rating.started,estimation_rating.stopped,estimation_exp2.png,estimation_exp3.png,estimation_exp4.png,total_learning_time,total_correct,learning_correct,reversal_correct,total_reversal_time,extra_block,participant,date,expName,psychopyVersion,frameRate,ver,
0,exp1.png,exp2.png,,0,0,0,0,0,0,0,0,,,,,,,,,,,,,,,,,,,,,,,,,False,0,1,True,exp2.png,exp1.png,trial_right_image,-1,exp1.png,2,exp1.png,exp2.png,1,1,non-reversed,correct,0.09444810384690605,0,invalid_lose,2.967123399999764,0,,,,,,,,,,,,,,,,sub_1578,2025-04-06_11h51.06.252,Reversal,2022.1.2,59.94873184453059,2,
1,exp3.png,exp4.png,,0,0,0,0,0,1,1,1,,,,,,,,,,,,,,,,,,,,,,,,,False,1,2,False,exp3.png,exp4.png,trial_left_image,1,exp3.png,2,exp3.png,exp4.png,1,3,reversed,correct,0.5574837057667298,1,valid_win,8.48351730000104,1,,,,,,,,,,,,,,,,sub_1578,2025-04-06_11h51.06.252,Reversal,2022.1.2,59.94873184453059,2,
2,exp1.png,exp2.png,,0,0,0,0,0,2,2,2,,,,,,,,,,,,,,,,,,,,,,,,,False,2,3,True,exp2.png,exp1.png,trial_right_image,-1,exp1.png,2,exp1.png,exp2.png,1,1,non-reversed,correct,0.879654195787873,1,valid_win,13.783110100001068,2,,,,,,,,,,,,,,,,sub_1578,2025-04-06_11h51.06.252,Reversal,2022.1.2,59.94873184453059,2,
3,exp3.png,exp4.png,,0,0,0,0,0,3,3,3,,,,,,,,,,,,,,,,,,,,,,,,,False,3,4,False,exp3.png,exp4.png,trial_left_image,1,exp3.png,2,exp3.png,exp4.png,1,3,reversed,correct,0.6379660549720633,1,valid_win,19.18320769999991,3,,,,,,,,,,,,,,,,sub_1578,2025-04-06_11h51.06.252,Reversal,2022.1.2,59.94873184453059,2,
4,exp1.png,exp2.png,,0,0,0,0,0,4,4,4,,,,,,,,,,,,,,,,,,,,,,,,,False,4,5,True,exp2.png,exp1.png,trial_right_image,-1,exp1.png,2,exp1.png,exp2.png,1,1,non-reversed,correct,0.2204500715730625,0,invalid_lose,26.617100600000413,3,,,,,,,,,,,,,,,,sub_1578,2025-04-06_11h51.06.252,Reversal,2022.1.2,59.94873184453059,2,
5,exp3.png,exp4.png,,0,0,0,0,0,5,5,5,,,,,,,,,,,,,,,,,,,,,,,,,False,5,6,True,exp4.png,exp3.png,trial_right_image,-1,exp3.png,2,exp3.png,exp4.png,1,3,reversed,correct,0.9787009655362526,1,valid_win,31.950484900000447,4,,,,,,,,,,,,,,,,sub_1578,2025-04-06_11h51.06.252,Reversal,2022.1.2,59.94873184453059,2,
6,exp1.png,exp2.png,,0,0,0,0,0,6,6,6,,,,,,,,,,,,,,,,,,,,,,,,,False,6,7,True,exp2.png,exp1.png,trial_left_image,1,exp2.png,2,exp1.png,exp2.png,0,2,non-reversed,incorrect,0.4713301379143715,0,valid_lose,38.30026060000091,4,,,,,,,,,,,,,,,,sub_1578,2025-04-06_11h51.06.252,Reversal,2022.1.2,59.94873184453059,2,
7,exp3.png,exp4.png,,0,0,0,0,0,7,7,7,,,,,,,,,,,,,,,,,,,,,,,,,False,7,8,False,exp3.png,exp4.png,trial_left_image,1,exp3.png,2,exp3.png,exp4.png,1,3,reversed,correct,0.3082141800874012,1,valid_win,43.865179700000226,5,,,,,,,,,,,,,,,,sub_1578,2025-04-06_11h51.06.252,Reversal,2022.1.2,59.94873184453059,2,
8,exp1.png,exp2.png,,0,0,0,0,0,8,8,8,,,,,,,,,,,,,,,,,,,,,,,,,False,8,9,False,exp1.png,exp2.png,trial_left_image,1,exp1.png,2,exp1.png,exp2.png,1,1,non-reversed,correct,0.8599612494309553,1,valid_win,49.96584310000071,6,,,,,,,,,,,,,,,,sub_1578,2025-04-06_11h51.06.252,Reversal,2022.1.2,59.94873184453059,2,
9,exp3.png,exp4.png,,0,0,0,0,0,9,9,9,,,,,,,,,,,,,,,,,,,,,,,,,False,9,10,False,exp3.png,exp4.png,trial_right_image,-1,exp4.png,2,exp3.png,exp4.png,0,4,reversed,incorrect,0.8833157463333392,0,valid_lose,55.91572020000058,6,,,,,,,,,,,,,,,,sub_1578,2025-04-06_11h51.06.252,Reversal,2022.1.2,59.94873184453059,2,
10,exp1.png,exp2.png,,0,0,0,0,0,10,10,10,,,,,,,,,,,,,,,,,,,,,,,,,False,10,11,False,exp1.png,exp2.png,trial_left_image,1,exp1.png,2,exp1.png,exp2.png,1,1,non-reversed,correct,0.9253993610220871,1,valid_win,61.79879110000002,7,,,,,,,,,,,,,,,,sub_1578,2025-04-06_11h51.06.252,Reversal,2022.1.2,59.94873184453059,2,
11,exp3.png,exp4.png,,0,0,0,0,0,11,11,11,,,,,,,,,,,,,,,,,,,,,,,,,False,11,12,False,exp3.png,exp4.png,trial_left_image,1,exp3.png,2,exp3.png,exp4.png,1,3,reversed,correct,0.619926555635988,1,valid_win,67.26594119999936,8,,,,,,,,,,,,,,,,sub_1578,2025-04-06_11h51.06.252,Reversal,2022.1.2,59.94873184453059,2,
12,exp1.png,exp2.png,,0,0,0,0,0,12,12,12,,,,,,,,,,,,,,,,,,,,,,,,,False,12,13,True,exp2.png,exp1.png,trial_left_image,1,exp2.png,2,exp1.png,exp2.png,0,2,non-reversed,incorrect,0.9695104910276422,0,valid_lose,73.56589720000011,8,,,,,,,,,,,,,,,,sub_1578,2025-04-06_11h51.06.252,Reversal,2022.1.2,59.94873184453059,2,
13,exp3.png,exp4.png,,0,0,0,0,0,13,13,13,,,,,,,,,,,,,,,,,,,,,,,,,False,13,14,True,exp4.png,exp3.png,trial_right_image,-1,exp3.png,2,exp3.png,exp4.png,1,3,reversed,correct,0.26711590346108993,1,valid_win,79.2826397000008,9,,,,,,,,,,,,,,,,sub_1578,2025-04-06_11h51.06.252,Reversal,2022.1.2,59.94873184453059,2,
14,exp1.png,exp2.png,,0,0,0,0,0,14,14,14,,,,,,,,,,,,,,,,,,,,,,,,,False,14,15,False,exp1.png,exp2.png,trial_right_image,-1,exp2.png,2,exp1.png,exp2.png,0,2,non-reversed,incorrect,0.09939980859136477,1,invalid_win,85.16526189999968,10,,,,,,,,,,,,,,,,sub_1578,2025-04-06_11h51.06.252,Reversal,2022.1.2,59.94873184453059,2,
15,exp3.png,exp4.png,,0,0,0,0,0,15,15,15,,,,,,,,,,,,,,,,,,,,,,,,,False,15,16,True,exp4.png,exp3.png,trial_right_image,-1,exp3.png,2,exp3.png,exp4.png,1,3,reversed,correct,0.9179988774668492,1,valid_win,90.46529410000039,11,,,,,,,,,,,,,,,,sub_1578,2025-04-06_11h51.06.252,Reversal,2022.1.2,59.94873184453059,2,
16,exp1.png,exp2.png,,0,0,0,0,0,16,16,16,,,,,,,,,,,,,,,,,,,,,,,,,False,16,17,False,exp1.png,exp2.png,trial_right_image,-1,exp2.png,2,exp1.png,exp2.png,0,2,non-reversed,incorrect,0.4237242869152815,0,valid_lose,95.33234950000042,11,,,,,,,,,,,,,,,,sub_1578,2025-04-06_11h51.06.252,Reversal,2022.1.2,59.94873184453059,2,
17,exp3.png,exp4.png,,0,0,0,0,0,17,17,17,,,,,,,,,,,,,,,,,,,,,,,,,False,17,18,False,exp3.png,exp4.png,trial_left_image,1,exp3.png,2,exp3.png,exp4.png,1,3,reversed,correct,0.8079101080951532,1,valid_win,100.23238780000065,12,,,,,,,,,,,,,,,,sub_1578,2025-04-06_11h51.06.252,Reversal,2022.1.2,59.94873184453059,2,
18,exp1.png,exp2.png,,0,0,0,0,0,18,18,18,,,,,,,,,,,,,,,,,,,,,,,,,False,18,19,True,exp2.png,exp1.png,trial_right_image,-1,exp1.png,2,exp1.png,exp2.png,1,1,non-reversed,correct,0.5331391478099154,1,valid_win,105.51464950000081,13,,,,,,,,,,,,,,,,sub_1578,2025-04-06_11h51.06.252,Reversal,2022.1.2,59.94873184453059,2,
19,exp3.png,exp4.png,,0,0,0,0,0,19,19,19,,,,,,,,,,,,,,,,,,,,,,,,,False,19,20,True,exp4.png,exp3.png,trial_right_image,-1,exp3.png,2,exp3.png,exp4.png,1,3,reversed,correct,0.5067217695553379,1,valid_win,110.69873030000053,14,,,,,,,,,,,,,,,,sub_1578,2025-04-06_11h51.06.252,Reversal,2022.1.2,59.94873184453059,2,
20,exp1.png,exp2.png,,0,0,0,0,0,20,20,20,,,,,,,,,,,,,,,,,,,,,,,,,True,,,,,,,,,,,,,,,,,,,,,,,,,,,,,,,,,,,,sub_1578,2025-04-06_11h51.06.252,Reversal,2022.1.2,59.94873184453059,2,
,,,exp1.png,0,0,0,0,,,,,0,0,0,0,0,0,0,0,,,,,,,,,,,,,,,,,,,,,,,,,,,,,,,,,,,,,,85.0,85.0,25.875654899999063,"[(47.0, 11.675618599998415), (85.0, 22.97609669999838), (85.0, 25.875654899999063)]",142.06163190000007,None,,,,,,,,,,sub_1578,2025-04-06_11h51.06.252,Reversal,2022.1.2,59.94873184453059,2,
,,,exp2.png,0,0,0,0,,,,,0,0,0,0,0,1,1,1,,,,,,,,,,,,,,,,,,,,,,,,,,,,,,,,,,,,,,,20.0,3.665083499998218,"[(20.0, 3.665083499998218)]",168.94603710000047,None,20.0,,,,,,,,,sub_1578,2025-04-06_11h51.06.252,Reversal,2022.1.2,59.94873184453059,2,
,,,exp3.png,0,0,0,0,,,,,0,0,0,0,0,2,2,2,,,,,,,,,,,,,,,,,,,,,,,,,,,,,,,,,,,,,,,98.0,3.7023176000002422,"[(96.0, 3.0008195000009437), (98.0, 3.7023176000002422)]",174.0066349000008,None,,98.0,,,,,,,,sub_1578,2025-04-06_11h51.06.252,Reversal,2022.1.2,59.94873184453059,2,
,,,exp4.png,0,0,0,0,,,,,0,0,0,0,0,3,3,3,,,,,,,,,,,,,,,,,,,,,,,,,,,,,,,,,,,,,,,18.0,2.8862764999994397,"[(18.0, 2.8862764999994397)]",178.87317350000012,None,,,18.0,,,,,,,sub_1578,2025-04-06_11h51.06.252,Reversal,2022.1.2,59.94873184453059,2,
0,exp1.png,exp2.png,,1,0,1,0,0,0,0,0,,,,,,,,,,,,,,,,,,,,,,,,,False,20,21,True,exp2.png,exp1.png,trial_right_image,-1,exp1.png,2,exp1.png,exp2.png,1,1,non-reversed,correct,0.5043790595862181,1,valid_win,157.71443510000063,15,,,,,,,,,,,,,,,,sub_1578,2025-04-06_11h51.06.252,Reversal,2022.1.2,59.94873184453059,2,
1,exp3.png,exp4.png,,1,0,1,0,0,1,1,1,,,,,,,,,,,,,,,,,,,,,,,,,False,21,22,True,exp4.png,exp3.png,trial_right_image,-1,exp3.png,2,exp3.png,exp4.png,1,3,reversed,correct,0.2544657282965286,1,valid_win,162.74717919999966,16,,,,,,,,,,,,,,,,sub_1578,2025-04-06_11h51.06.252,Reversal,2022.1.2,59.94873184453059,2,
2,exp1.png,exp2.png,,1,0,1,0,0,2,2,2,,,,,,,,,,,,,,,,,,,,,,,,,False,22,23,True,exp2.png,exp1.png,trial_left_image,1,exp2.png,2,exp1.png,exp2.png,0,2,non-reversed,incorrect,0.7825745181082757,0,valid_lose,168.4642533999995,16,,,,,,,,,,,,,,,,sub_1578,2025-04-06_11h51.06.252,Reversal,2022.1.2,59.94873184453059,2,
3,exp3.png,exp4.png,,1,0,1,0,0,3,3,3,,,,,,,,,,,,,,,,,,,,,,,,,False,23,24,True,exp4.png,exp3.png,trial_right_image,-1,exp3.png,2,exp3.png,exp4.png,1,3,reversed,correct,0.8487527643937194,1,valid_win,173.76391449999937,17,,,,,,,,,,,,,,,,sub_1578,2025-04-06_11h51.06.252,Reversal,2022.1.2,59.94873184453059,2,
4,exp1.png,exp2.png,,1,0,1,0,0,4,4,4,,,,,,,,,,,,,,,,,,,,,,,,,False,24,25,True,exp2.png,exp1.png,trial_left_image,1,exp2.png,2,exp1.png,exp2.png,0,2,non-reversed,incorrect,0.0003862974048391976,1,invalid_win,179.2971254999993,18,,,,,,,,,,,,,,,,sub_1578,2025-04-06_11h51.06.252,Reversal,2022.1.2,59.94873184453059,2,
5,exp3.png,exp4.png,,1,0,1,0,0,5,5,5,,,,,,,,,,,,,,,,,,,,,,,,,False,25,26,False,exp3.png,exp4.png,trial_left_image,1,exp3.png,2,exp3.png,exp4.png,1,3,reversed,correct,0.8198763539913669,1,valid_win,184.03053030000046,19,,,,,,,,,,,,,,,,sub_1578,2025-04-06_11h51.06.252,Reversal,2022.1.2,59.94873184453059,2,
6,exp1.png,exp2.png,,1,0,1,0,0,6,6,6,,,,,,,,,,,,,,,,,,,,,,,,,False,26,27,False,exp1.png,exp2.png,trial_right_image,-1,exp2.png,2,exp1.png,exp2.png,0,2,non-reversed,incorrect,0.08423492189722037,1,invalid_win,189.32987390000017,20,,,,,,,,,,,,,,,,sub_1578,2025-04-06_11h51.06.252,Reversal,2022.1.2,59.94873184453059,2,
7,exp3.png,exp4.png,,1,0,1,0,0,7,7,7,,,,,,,,,,,,,,,,,,,,,,,,,False,27,28,False,exp3.png,exp4.png,trial_left_image,1,exp3.png,2,exp3.png,exp4.png,1,3,reversed,correct,0.07154938915909881,0,invalid_lose,194.38020730000062,20,,,,,,,,,,,,,,,,sub_1578,2025-04-06_11h51.06.252,Reversal,2022.1.2,59.94873184453059,2,
8,exp1.png,exp2.png,,1,0,1,0,0,8,8,8,,,,,,,,,,,,,,,,,,,,,,,,,False,28,29,False,exp1.png,exp2.png,trial_right_image,-1,exp2.png,2,exp1.png,exp2.png,0,2,non-reversed,incorrect,0.2945309123617643,0,valid_lose,199.9133552000003,20,,,,,,,,,,,,,,,,sub_1578,2025-04-06_11h51.06.252,Reversal,2022.1.2,59.94873184453059,2,
9,exp3.png,exp4.png,,1,0,1,0,0,9,9,9,,,,,,,,,,,,,,,,,,,,,,,,,False,29,30,False,exp3.png,exp4.png,trial_left_image,1,exp3.png,2,exp3.png,exp4.png,1,3,reversed,correct,0.6377147357205178,1,valid_win,204.66329020000012,21,,,,,,,,,,,,,,,,sub_1578,2025-04-06_11h51.06.252,Reversal,2022.1.2,59.94873184453059,2,
10,exp1.png,exp2.png,,1,0,1,0,0,10,10,10,,,,,,,,,,,,,,,,,,,,,,,,,False,30,31,False,exp1.png,exp2.png,trial_left_image,1,exp1.png,2,exp1.png,exp2.png,1,1,non-reversed,correct,0.2728825345914968,1,valid_win,209.39654639999935,22,,,,,,,,,,,,,,,,sub_1578,2025-04-06_11h51.06.252,Reversal,2022.1.2,59.94873184453059,2,
11,exp3.png,exp4.png,,1,0,1,0,0,11,11,11,,,,,,,,,,,,,,,,,,,,,,,,,False,31,32,True,exp4.png,exp3.png,trial_right_image,-1,exp3.png,2,exp3.png,exp4.png,1,3,reversed,correct,0.6864798413651164,1,valid_win,214.87981519999994,23,,,,,,,,,,,,,,,,sub_1578,2025-04-06_11h51.06.252,Reversal,2022.1.2,59.94873184453059,2,
12,exp1.png,exp2.png,,1,0,1,0,0,12,12,12,,,,,,,,,,,,,,,,,,,,,,,,,False,32,33,True,exp2.png,exp1.png,trial_right_image,-1,exp1.png,2,exp1.png,exp2.png,1,1,non-reversed,correct,0.20529288875863916,0,invalid_lose,220.8301878000002,23,,,,,,,,,,,,,,,,sub_1578,2025-04-06_11h51.06.252,Reversal,2022.1.2,59.94873184453059,2,
13,exp3.png,exp4.png,,1,0,1,0,0,13,13,13,,,,,,,,,,,,,,,,,,,,,,,,,False,33,34,True,exp4.png,exp3.png,trial_right_image,-1,exp3.png,2,exp3.png,exp4.png,1,3,reversed,correct,0.27052085221185673,1,valid_win,225.64655610000045,24,,,,,,,,,,,,,,,,sub_1578,2025-04-06_11h51.06.252,Reversal,2022.1.2,59.94873184453059,2,
14,exp1.png,exp2.png,,1,0,1,0,0,14,14,14,,,,,,,,,,,,,,,,,,,,,,,,,False,34,35,True,exp2.png,exp1.png,trial_left_image,1,exp2.png,2,exp1.png,exp2.png,0,2,non-reversed,incorrect,0.009329124343539719,1,invalid_win,230.92947769999955,25,,,,,,,,,,,,,,,,sub_1578,2025-04-06_11h51.06.252,Reversal,2022.1.2,59.94873184453059,2,
15,exp3.png,exp4.png,,1,0,1,0,0,15,15,15,,,,,,,,,,,,,,,,,,,,,,,,,False,35,36,False,exp3.png,exp4.png,trial_left_image,1,exp3.png,2,exp3.png,exp4.png,1,3,reversed,correct,0.5288111658338374,1,valid_win,235.71252149999964,26,,,,,,,,,,,,,,,,sub_1578,2025-04-06_11h51.06.252,Reversal,2022.1.2,59.94873184453059,2,
16,exp1.png,exp2.png,,1,0,1,0,0,16,16,16,,,,,,,,,,,,,,,,,,,,,,,,,False,36,37,True,exp2.png,exp1.png,trial_right_image,-1,exp1.png,2,exp1.png,exp2.png,1,1,non-reversed,correct,0.18430477377072718,0,invalid_lose,241.71327229999952,26,,,,,,,,,,,,,,,,sub_1578,2025-04-06_11h51.06.252,Reversal,2022.1.2,59.94873184453059,2,
17,exp3.png,exp4.png,,1,0,1,0,0,17,17,17,,,,,,,,,,,,,,,,,,,,,,,,,False,37,38,False,exp3.png,exp4.png,trial_left_image,1,exp3.png,2,exp3.png,exp4.png,1,3,reversed,correct,0.32842610444808473,1,valid_win,246.27983119999953,27,,,,,,,,,,,,,,,,sub_1578,2025-04-06_11h51.06.252,Reversal,2022.1.2,59.94873184453059,2,
18,exp1.png,exp2.png,,1,0,1,0,0,18,18,18,,,,,,,,,,,,,,,,,,,,,,,,,False,38,39,False,exp1.png,exp2.png,trial_left_image,1,exp1.png,2,exp1.png,exp2.png,1,1,non-reversed,correct,0.5793148076432332,1,valid_win,251.57902099999956,28,,,,,,,,,,,,,,,,sub_1578,2025-04-06_11h51.06.252,Reversal,2022.1.2,59.94873184453059,2,
19,exp3.png,exp4.png,,1,0,1,0,0,19,19,19,,,,,,,,,,,,,,,,,,,,,,,,,False,39,40,False,exp3.png,exp4.png,trial_left_image,1,exp3.png,2,exp3.png,exp4.png,1,3,reversed,correct,0.38730044543817754,1,valid_win,256.59561080000094,29,,,,,,,,,,,,,,,,sub_1578,2025-04-06_11h51.06.252,Reversal,2022.1.2,59.94873184453059,2,
20,exp1.png,exp2.png,,1,0,1,0,0,20,20,20,,,,,,,,,,,,,,,,,,,,,,,,,True,,,,,,,,,,,,,,,,,,,,,,,,,,,,,,,,,,,,sub_1578,2025-04-06_11h51.06.252,Reversal,2022.1.2,59.94873184453059,2,
,,,exp1.png,1,0,1,0,,,,,0,0,0,0,0,0,0,0,,,,,,,,,,,,,,,,,,,,,,,,,,,,,,,,,,,,,,78.0,78.0,5.771458299999722,"[(78.0, 5.771458299999722)]",287.95229030000155,None,,,,,,,,,,sub_1578,2025-04-06_11h51.06.252,Reversal,2022.1.2,59.94873184453059,2,
,,,exp2.png,1,0,1,0,,,,,0,0,0,0,0,1,1,1,,,,,,,,,,,,,,,,,,,,,,,,,,,,,,,,,,,,,,,50.0,None,[],294.7027124000015,None,,,,,,,,,,sub_1578,2025-04-06_11h51.06.252,Reversal,2022.1.2,59.94873184453059,2,
,,,exp3.png,1,0,1,0,,,,,0,0,0,0,0,2,2,2,,,,,,,,,,,,,,,,,,,,,,,,,,,,,,,,,,,,,,,78.0,2.1350983000011183,"[(78.0, 2.1350983000011183)]",298.1024644000008,None,,78.0,,,,,,,,sub_1578,2025-04-06_11h51.06.252,Reversal,2022.1.2,59.94873184453059,2,
,,,exp4.png,1,0,1,0,,,,,0,0,0,0,0,3,3,3,,,,,,,,,,,,,,,,,,,,,,,,,,,,,,,,,,,,,,,22.0,2.8846766999995452,"[(22.0, 2.8846766999995452)]",301.1365598000011,None,,,22.0,,,,,,,sub_1578,2025-04-06_11h51.06.252,Reversal,2022.1.2,59.94873184453059,2,
0,exp1.png,exp2.png,,2,0,2,0,0,0,0,0,,,,,,,,,,,,,,,,,,,,,,,,,False,40,41,False,exp1.png,exp2.png,trial_left_image,1,exp1.png,2,exp1.png,exp2.png,1,1,non-reversed,correct,0.2326755148576405,0,invalid_lose,279.14561049999975,29,,,,,,,,,,,,,,,,sub_1578,2025-04-06_11h51.06.252,Reversal,2022.1.2,59.94873184453059,2,
1,exp3.png,exp4.png,,2,0,2,0,0,1,1,1,,,,,,,,,,,,,,,,,,,,,,,,,False,41,42,True,exp4.png,exp3.png,trial_right_image,-1,exp3.png,2,exp3.png,exp4.png,1,3,reversed,correct,0.38360231213719176,1,valid_win,284.29529600000023,30,,,,,,,,,,,,,,,,sub_1578,2025-04-06_11h51.06.252,Reversal,2022.1.2,59.94873184453059,2,
2,exp1.png,exp2.png,,2,0,2,0,0,2,2,2,,,,,,,,,,,,,,,,,,,,,,,,,False,42,43,True,exp2.png,exp1.png,trial_left_image,1,exp2.png,2,exp1.png,exp2.png,0,2,non-reversed,incorrect,0.1421000396539056,1,invalid_win,289.8453229000006,31,,,,,,,,,,,,,,,,sub_1578,2025-04-06_11h51.06.252,Reversal,2022.1.2,59.94873184453059,2,
3,exp3.png,exp4.png,,2,0,2,0,0,3,3,3,,,,,,,,,,,,,,,,,,,,,,,,,False,43,44,True,exp4.png,exp3.png,trial_right_image,-1,exp3.png,2,exp3.png,exp4.png,1,3,reversed,correct,0.28099298740943823,1,valid_win,295.0116044000006,32,,,,,,,,,,,,,,,,sub_1578,2025-04-06_11h51.06.252,Reversal,2022.1.2,59.94873184453059,2,
4,exp1.png,exp2.png,,2,0,2,0,0,4,4,4,,,,,,,,,,,,,,,,,,,,,,,,,False,44,45,False,exp1.png,exp2.png,trial_left_image,1,exp1.png,2,exp1.png,exp2.png,1,1,non-reversed,correct,0.22104017109183982,0,invalid_lose,301.6444620000002,32,,,,,,,,,,,,,,,,sub_1578,2025-04-06_11h51.06.252,Reversal,2022.1.2,59.94873184453059,2,
5,exp3.png,exp4.png,,2,0,2,0,0,5,5,5,,,,,,,,,,,,,,,,,,,,,,,,,False,45,46,True,exp4.png,exp3.png,trial_right_image,-1,exp3.png,2,exp3.png,exp4.png,1,3,reversed,correct,0.20570480418474546,0,invalid_lose,307.8445771000006,32,,,,,,,,,,,,,,,,sub_1578,2025-04-06_11h51.06.252,Reversal,2022.1.2,59.94873184453059,2,
6,exp1.png,exp2.png,,2,0,2,0,0,6,6,6,,,,,,,,,,,,,,,,,,,,,,,,,False,46,47,False,exp1.png,exp2.png,trial_right_image,-1,exp2.png,2,exp1.png,exp2.png,0,2,non-reversed,incorrect,0.9481004820801803,0,valid_lose,314.3777958999999,32,,,,,,,,,,,,,,,,sub_1578,2025-04-06_11h51.06.252,Reversal,2022.1.2,59.94873184453059,2,
7,exp3.png,exp4.png,,2,0,2,0,0,7,7,7,,,,,,,,,,,,,,,,,,,,,,,,,False,47,48,True,exp4.png,exp3.png,trial_right_image,-1,exp3.png,2,exp3.png,exp4.png,1,3,reversed,correct,0.08552365982841803,0,invalid_lose,318.94040479999967,32,,,,,,,,,,,,,,,,sub_1578,2025-04-06_11h51.06.252,Reversal,2022.1.2,59.94873184453059,2,
8,exp1.png,exp2.png,,2,0,2,0,0,8,8,8,,,,,,,,,,,,,,,,,,,,,,,,,False,48,49,True,exp2.png,exp1.png,trial_left_image,1,exp2.png,2,exp1.png,exp2.png,0,2,non-reversed,incorrect,0.13550140534140154,1,invalid_win,324.8778170000005,33,,,,,,,,,,,,,,,,sub_1578,2025-04-06_11h51.06.252,Reversal,2022.1.2,59.94873184453059,2,
9,exp3.png,exp4.png,,2,0,2,0,0,9,9,9,,,,,,,,,,,,,,,,,,,,,,,,,False,49,50,False,exp3.png,exp4.png,trial_left_image,1,exp3.png,2,exp3.png,exp4.png,1,3,reversed,correct,0.8811486400574932,1,valid_win,330.61061660000087,34,,,,,,,,,,,,,,,,sub_1578,2025-04-06_11h51.06.252,Reversal,2022.1.2,59.94873184453059,2,
10,exp1.png,exp2.png,,2,0,2,0,0,10,10,10,,,,,,,,,,,,,,,,,,,,,,,,,False,50,51,True,exp2.png,exp1.png,trial_left_image,1,exp2.png,2,exp1.png,exp2.png,0,2,non-reversed,incorrect,0.6061036812362971,0,valid_lose,337.9945539,34,,,,,,,,,,,,,,,,sub_1578,2025-04-06_11h51.06.252,Reversal,2022.1.2,59.94873184453059,2,
11,exp3.png,exp4.png,,2,0,2,0,0,11,11,11,,,,,,,,,,,,,,,,,,,,,,,,,False,51,52,False,exp3.png,exp4.png,trial_left_image,1,exp3.png,2,exp3.png,exp4.png,1,3,reversed,correct,0.6782986976186619,1,valid_win,343.3612439999997,35,,,,,,,,,,,,,,,,sub_1578,2025-04-06_11h51.06.252,Reversal,2022.1.2,59.94873184453059,2,
12,exp1.png,exp2.png,,2,0,2,0,0,12,12,12,,,,,,,,,,,,,,,,,,,,,,,,,False,52,53,False,exp1.png,exp2.png,trial_right_image,-1,exp2.png,2,exp1.png,exp2.png,0,2,non-reversed,incorrect,0.04971473597461418,1,invalid_win,348.9941103000001,36,,,,,,,,,,,,,,,,sub_1578,2025-04-06_11h51.06.252,Reversal,2022.1.2,59.94873184453059,2,
13,exp3.png,exp4.png,,2,0,2,0,0,13,13,13,,,,,,,,,,,,,,,,,,,,,,,,,False,53,54,False,exp3.png,exp4.png,trial_left_image,1,exp3.png,2,exp3.png,exp4.png,1,3,reversed,correct,0.9294339089947672,1,valid_win,354.0442819,37,,,,,,,,,,,,,,,,sub_1578,2025-04-06_11h51.06.252,Reversal,2022.1.2,59.94873184453059,2,
14,exp1.png,exp2.png,,2,0,2,0,0,14,14,14,,,,,,,,,,,,,,,,,,,,,,,,,False,54,55,True,exp2.png,exp1.png,trial_left_image,1,exp2.png,2,exp1.png,exp2.png,0,2,non-reversed,incorrect,0.1024202472693827,1,invalid_win,359.31074350000017,38,,,,,,,,,,,,,,,,sub_1578,2025-04-06_11h51.06.252,Reversal,2022.1.2,59.94873184453059,2,
15,exp3.png,exp4.png,,2,0,2,0,0,15,15,15,,,,,,,,,,,,,,,,,,,,,,,,,False,55,56,True,exp4.png,exp3.png,trial_right_image,-1,exp3.png,2,exp3.png,exp4.png,1,3,reversed,correct,0.08355982942970253,0,invalid_lose,364.37743090000004,38,,,,,,,,,,,,,,,,sub_1578,2025-04-06_11h51.06.252,Reversal,2022.1.2,59.94873184453059,2,
16,exp1.png,exp2.png,,2,0,2,0,0,16,16,16,,,,,,,,,,,,,,,,,,,,,,,,,False,56,57,False,exp1.png,exp2.png,trial_right_image,-1,exp2.png,2,exp1.png,exp2.png,0,2,non-reversed,incorrect,0.2292495821541114,1,invalid_win,369.4432534999996,39,,,,,,,,,,,,,,,,sub_1578,2025-04-06_11h51.06.252,Reversal,2022.1.2,59.94873184453059,2,
17,exp3.png,exp4.png,,2,0,2,0,0,17,17,17,,,,,,,,,,,,,,,,,,,,,,,,,False,57,58,False,exp3.png,exp4.png,trial_left_image,1,exp3.png,2,exp3.png,exp4.png,1,3,reversed,correct,0.6512165129942559,1,valid_win,376.01021760000003,40,,,,,,,,,,,,,,,,sub_1578,2025-04-06_11h51.06.252,Reversal,2022.1.2,59.94873184453059,2,
18,exp1.png,exp2.png,,2,0,2,0,0,18,18,18,,,,,,,,,,,,,,,,,,,,,,,,,False,58,59,True,exp2.png,exp1.png,trial_left_image,1,exp2.png,2,exp1.png,exp2.png,0,2,non-reversed,incorrect,0.48621623530579827,0,valid_lose,381.42603899999995,40,,,,,,,,,,,,,,,,sub_1578,2025-04-06_11h51.06.252,Reversal,2022.1.2,59.94873184453059,2,
19,exp3.png,exp4.png,,2,0,2,0,0,19,19,19,,,,,,,,,,,,,,,,,,,,,,,,,False,59,60,False,exp3.png,exp4.png,trial_left_image,1,exp3.png,2,exp3.png,exp4.png,1,3,reversed,correct,0.012058371841672355,0,invalid_lose,386.5103063000006,40,,,,,,,,,,,,,,,,sub_1578,2025-04-06_11h51.06.252,Reversal,2022.1.2,59.94873184453059,2,
20,exp1.png,exp2.png,,2,0,2,0,0,20,20,20,,,,,,,,,,,,,,,,,,,,,,,,,True,,,,,,,,,,,,,,,,,,,,,,,,,,,,,,,,,,,,sub_1578,2025-04-06_11h51.06.252,Reversal,2022.1.2,59.94873184453059,2,
,,,exp1.png,2,0,2,0,,,,,0,0,0,0,0,0,0,0,,,,,,,,,,,,,,,,,,,,,,,,,,,,,,,,,,,,,,,50.0,None,[],417.8708746000011,None,,,,,,,,,,sub_1578,2025-04-06_11h51.06.252,Reversal,2022.1.2,59.94873184453059,2,
,,,exp2.png,2,0,2,0,,,,,0,0,0,0,0,1,1,1,,,,,,,,,,,,,,,,,,,,,,,,,,,,,,,,,,,,,,,50.0,None,[],421.11720520000017,None,,,,,,,,,,sub_1578,2025-04-06_11h51.06.252,Reversal,2022.1.2,59.94873184453059,2,
,,,exp3.png,2,0,2,0,,,,,0,0,0,0,0,2,2,2,,,,,,,,,,,,,,,,,,,,,,,,,,,,,,,,,,,,,,,90.0,4.315769699998782,"[(90.0, 4.315769699998782)]",424.06798960000015,None,,90.0,,,,,,,,sub_1578,2025-04-06_11h51.06.252,Reversal,2022.1.2,59.94873184453059,2,
,,,exp4.png,2,0,2,0,,,,,0,0,0,0,0,3,3,3,,,,,,,,,,,,,,,,,,,,,,,,,,,,,,,,,,,,,,,19.0,2.751008199998978,"[(19.0, 2.751008199998978)]",429.4172509,None,,,19.0,,,,,,,sub_1578,2025-04-06_11h51.06.252,Reversal,2022.1.2,59.94873184453059,2,
0,exp1.png,exp2.png,,3,0,3,0,0,0,0,0,,,,,,,,,,,,,,,,,,,,,,,,,False,60,61,False,exp1.png,exp2.png,trial_right_image,-1,exp2.png,2,exp1.png,exp2.png,0,2,non-reversed,incorrect,0.5167196073493232,0,valid_lose,407.74274759999935,40,,,,,,,,,,,,,,,,sub_1578,2025-04-06_11h51.06.252,Reversal,2022.1.2,59.94873184453059,2,
1,exp3.png,exp4.png,,3,0,3,0,0,1,1,1,,,,,,,,,,,,,,,,,,,,,,,,,False,61,62,False,exp3.png,exp4.png,trial_left_image,1,exp3.png,2,exp3.png,exp4.png,1,3,reversed,correct,0.9984359234323152,1,valid_win,412.79276690000006,41,,,,,,,,,,,,,,,,sub_1578,2025-04-06_11h51.06.252,Reversal,2022.1.2,59.94873184453059,2,
2,exp1.png,exp2.png,,3,0,3,0,0,2,2,2,,,,,,,,,,,,,,,,,,,,,,,,,False,62,63,False,exp1.png,exp2.png,trial_right_image,-1,exp2.png,2,exp1.png,exp2.png,0,2,non-reversed,incorrect,0.24661292650842448,1,invalid_win,418.7597096999998,42,,,,,,,,,,,,,,,,sub_1578,2025-04-06_11h51.06.252,Reversal,2022.1.2,59.94873184453059,2,
3,exp3.png,exp4.png,,3,0,3,0,0,3,3,3,,,,,,,,,,,,,,,,,,,,,,,,,False,63,64,True,exp4.png,exp3.png,trial_right_image,-1,exp3.png,2,exp3.png,exp4.png,1,3,reversed,correct,0.358891836987001,1,valid_win,423.67513660000077,43,,,,,,,,,,,,,,,,sub_1578,2025-04-06_11h51.06.252,Reversal,2022.1.2,59.94873184453059,2,
4,exp1.png,exp2.png,,3,0,3,0,0,4,4,4,,,,,,,,,,,,,,,,,,,,,,,,,False,64,65,False,exp1.png,exp2.png,trial_right_image,-1,exp2.png,2,exp1.png,exp2.png,0,2,non-reversed,incorrect,0.8245645971841722,0,valid_lose,430.12591470000007,43,,,,,,,,,,,,,,,,sub_1578,2025-04-06_11h51.06.252,Reversal,2022.1.2,59.94873184453059,2,
5,exp3.png,exp4.png,,3,0,3,0,0,5,5,5,,,,,,,,,,,,,,,,,,,,,,,,,False,65,66,True,exp4.png,exp3.png,trial_right_image,-1,exp3.png,2,exp3.png,exp4.png,1,3,reversed,correct,0.7637875686024777,1,valid_win,435.44250459999967,44,,,,,,,,,,,,,,,,sub_1578,2025-04-06_11h51.06.252,Reversal,2022.1.2,59.94873184453059,2,
6,exp1.png,exp2.png,,3,0,3,0,0,6,6,6,,,,,,,,,,,,,,,,,,,,,,,,,False,66,67,True,exp2.png,exp1.png,trial_left_image,1,exp2.png,2,exp1.png,exp2.png,0,2,non-reversed,incorrect,0.8304417218611609,0,valid_lose,441.27607200000057,44,,,,,,,,,,,,,,,,sub_1578,2025-04-06_11h51.06.252,Reversal,2022.1.2,59.94873184453059,2,
7,exp3.png,exp4.png,,3,0,3,0,0,7,7,7,,,,,,,,,,,,,,,,,,,,,,,,,False,67,68,False,exp3.png,exp4.png,trial_left_image,1,exp3.png,2,exp3.png,exp4.png,1,3,reversed,correct,0.47326985839028146,1,valid_win,446.4253881000004,45,,,,,,,,,,,,,,,,sub_1578,2025-04-06_11h51.06.252,Reversal,2022.1.2,59.94873184453059,2,
8,exp1.png,exp2.png,,3,0,3,0,0,8,8,8,,,,,,,,,,,,,,,,,,,,,,,,,False,68,69,False,exp1.png,exp2.png,trial_right_image,-1,exp2.png,2,exp1.png,exp2.png,0,2,non-reversed,incorrect,0.4147587522411945,0,valid_lose,453.3758493999994,45,,,,,,,,,,,,,,,,sub_1578,2025-04-06_11h51.06.252,Reversal,2022.1.2,59.94873184453059,2,
9,exp3.png,exp4.png,,3,0,3,0,0,9,9,9,,,,,,,,,,,,,,,,,,,,,,,,,False,69,70,False,exp3.png,exp4.png,trial_left_image,1,exp3.png,2,exp3.png,exp4.png,1,3,reversed,correct,0.39700335329816105,1,valid_win,458.0259203000005,46,,,,,,,,,,,,,,,,sub_1578,2025-04-06_11h51.06.252,Reversal,2022.1.2,59.94873184453059,2,
10,exp1.png,exp2.png,,3,0,3,0,0,10,10,10,,,,,,,,,,,,,,,,,,,,,,,,,False,70,71,False,exp1.png,exp2.png,trial_left_image,1,exp1.png,2,exp1.png,exp2.png,1,1,non-reversed,correct,0.8753549681537248,1,valid_win,462.608781500001,47,,,,,,,,,,,,,,,,sub_1578,2025-04-06_11h51.06.252,Reversal,2022.1.2,59.94873184453059,2,
11,exp3.png,exp4.png,,3,0,3,0,0,11,11,11,,,,,,,,,,,,,,,,,,,,,,,,,False,71,72,False,exp3.png,exp4.png,trial_left_image,1,exp3.png,2,exp3.png,exp4.png,1,3,reversed,correct,0.4283212638625613,1,valid_win,467.02482489999966,48,,,,,,,,,,,,,,,,sub_1578,2025-04-06_11h51.06.252,Reversal,2022.1.2,59.94873184453059,2,
12,exp1.png,exp2.png,,3,0,3,0,0,12,12,12,,,,,,,,,,,,,,,,,,,,,,,,,False,72,73,True,exp2.png,exp1.png,trial_right_image,-1,exp1.png,2,exp1.png,exp2.png,1,1,non-reversed,correct,0.07653223953660426,0,invalid_lose,472.25883819999945,48,,,,,,,,,,,,,,,,sub_1578,2025-04-06_11h51.06.252,Reversal,2022.1.2,59.94873184453059,2,
13,exp3.png,exp4.png,,3,0,3,0,0,13,13,13,,,,,,,,,,,,,,,,,,,,,,,,,False,73,74,True,exp4.png,exp3.png,trial_right_image,-1,exp3.png,2,exp3.png,exp4.png,1,3,reversed,correct,0.6291734204662314,1,valid_win,477.1919458000011,49,,,,,,,,,,,,,,,,sub_1578,2025-04-06_11h51.06.252,Reversal,2022.1.2,59.94873184453059,2,
14,exp1.png,exp2.png,,3,0,3,0,0,14,14,14,,,,,,,,,,,,,,,,,,,,,,,,,False,74,75,True,exp2.png,exp1.png,trial_right_image,-1,exp1.png,2,exp1.png,exp2.png,1,1,non-reversed,correct,0.46885105600278276,1,valid_win,482.9249161000007,50,,,,,,,,,,,,,,,,sub_1578,2025-04-06_11h51.06.252,Reversal,2022.1.2,59.94873184453059,2,
15,exp3.png,exp4.png,,3,0,3,0,0,15,15,15,,,,,,,,,,,,,,,,,,,,,,,,,False,75,76,True,exp4.png,exp3.png,trial_right_image,-1,exp3.png,2,exp3.png,exp4.png,1,3,reversed,correct,0.6262662677883192,1,valid_win,487.5744794000002,51,,,,,,,,,,,,,,,,sub_1578,2025-04-06_11h51.06.252,Reversal,2022.1.2,59.94873184453059,2,
16,exp1.png,exp2.png,,3,0,3,0,0,16,16,16,,,,,,,,,,,,,,,,,,,,,,,,,False,76,77,True,exp2.png,exp1.png,trial_right_image,-1,exp1.png,2,exp1.png,exp2.png,1,1,non-reversed,correct,0.5676757167673772,1,valid_win,493.10834650000106,52,,,,,,,,,,,,,,,,sub_1578,2025-04-06_11h51.06.252,Reversal,2022.1.2,59.94873184453059,2,
17,exp3.png,exp4.png,,3,0,3,0,0,17,17,17,,,,,,,,,,,,,,,,,,,,,,,,,False,77,78,False,exp3.png,exp4.png,trial_left_image,1,exp3.png,2,exp3.png,exp4.png,1,3,reversed,correct,0.40871465965278164,1,valid_win,500.2246673000009,53,,,,,,,,,,,,,,,,sub_1578,2025-04-06_11h51.06.252,Reversal,2022.1.2,59.94873184453059,2,
18,exp1.png,exp2.png,,3,0,3,0,0,18,18,18,,,,,,,,,,,,,,,,,,,,,,,,,False,78,79,True,exp2.png,exp1.png,trial_right_image,-1,exp1.png,2,exp1.png,exp2.png,1,1,non-reversed,correct,0.6022316350250964,1,valid_win,505.90816769999947,54,,,,,,,,,,,,,,,,sub_1578,2025-04-06_11h51.06.252,Reversal,2022.1.2,59.94873184453059,2,
19,exp3.png,exp4.png,,3,0,3,0,0,19,19,19,,,,,,,,,,,,,,,,,,,,,,,,,False,79,80,True,exp4.png,exp3.png,trial_right_image,-1,exp3.png,2,exp3.png,exp4.png,1,3,reversed,correct,0.9661901298082803,1,valid_win,511.2246546000006,55,,,,,,,,,,,,,,,,sub_1578,2025-04-06_11h51.06.252,Reversal,2022.1.2,59.94873184453059,2,
20,exp1.png,exp2.png,,3,0,3,0,0,20,20,20,,,,,,,,,,,,,,,,,,,,,,,,,True,,,,,,,,,,,,,,,,,,,,,,,,,,,,,,,,,,,,sub_1578,2025-04-06_11h51.06.252,Reversal,2022.1.2,59.94873184453059,2,
,,,exp1.png,3,0,3,0,,,,,0,0,0,0,0,0,0,0,,,,,,,,,,,,,,,,,,,,,,,,,,,,,,,,,,,,,,81.0,81.0,5.11879190000036,"[(81.0, 5.11879190000036)]",542.5838788000001,None,,,,,,,,,,sub_1578,2025-04-06_11h51.06.252,Reversal,2022.1.2,59.94873184453059,2,
,,,exp2.png,3,0,3,0,,,,,0,0,0,0,0,1,1,1,,,,,,,,,,,,,,,,,,,,,,,,,,,,,,,,,,,,,,,50.0,None,[],548.6863884000013,None,,,,,,,,,,sub_1578,2025-04-06_11h51.06.252,Reversal,2022.1.2,59.94873184453059,2,
,,,exp3.png,3,0,3,0,,,,,0,0,0,0,0,2,2,2,,,,,,,,,,,,,,,,,,,,,,,,,,,,,,,,,,,,,,,50.0,None,[],552.2640541000001,None,,,,,,,,,,sub_1578,2025-04-06_11h51.06.252,Reversal,2022.1.2,59.94873184453059,2,
,,,exp4.png,3,0,3,0,,,,,0,0,0,0,0,3,3,3,,,,,,,,,,,,,,,,,,,,,,,,,,,,,,,,,,,,,,,15.0,3.0341848000007303,"[(15.0, 3.0341848000007303)]",555.7142263000005,None,,,15.0,,,,,,,sub_1578,2025-04-06_11h51.06.252,Reversal,2022.1.2,59.94873184453059,2,
0,exp1.png,exp2.png,,,,,,,,,,,,,,,,,,0,0,0,0,0,0,0,0,,,,,,,,,False,0,81,True,exp2.png,exp1.png,trial_right_image,-1,exp1.png,2,exp1.png,exp2.png,1,1,non-reversed,correct,0.1373614134429113,0,invalid_lose,534.4071939999994,55,,,,,,,,,,531.009331700001,,,,,,sub_1578,2025-04-06_11h51.06.252,Reversal,2022.1.2,59.94873184453059,2,
1,exp3.png,exp4.png,,,,,,,,,,,,,,,,,,0,0,0,0,0,1,1,1,,,,,,,,,False,1,82,True,exp4.png,exp3.png,trial_right_image,-1,exp3.png,2,exp4.png,exp3.png,1,3,reversed,incorrect,0.11823903843253025,1,invalid_win,539.4738223999993,56,,,,,,,,,,,,,,,,sub_1578,2025-04-06_11h51.06.252,Reversal,2022.1.2,59.94873184453059,2,
2,exp1.png,exp2.png,,,,,,,,,,,,,,,,,,0,0,0,0,0,2,2,2,,,,,,,,,False,2,83,False,exp1.png,exp2.png,trial_right_image,-1,exp2.png,2,exp1.png,exp2.png,0,2,non-reversed,incorrect,0.7665240286846247,0,valid_lose,544.8574805999997,56,,,,,,,,,,,,,,,,sub_1578,2025-04-06_11h51.06.252,Reversal,2022.1.2,59.94873184453059,2,
3,exp3.png,exp4.png,,,,,,,,,,,,,,,,,,0,0,0,0,0,3,3,3,,,,,,,,,False,3,84,False,exp3.png,exp4.png,trial_left_image,1,exp3.png,2,exp4.png,exp3.png,1,3,reversed,incorrect,0.04812979541648421,1,invalid_win,550.3573692000009,57,,,,,,,,,,,,,,,,sub_1578,2025-04-06_11h51.06.252,Reversal,2022.1.2,59.94873184453059,2,
4,exp1.png,exp2.png,,,,,,,,,,,,,,,,,,0,0,0,0,0,4,4,4,,,,,,,,,False,4,85,True,exp2.png,exp1.png,trial_right_image,-1,exp1.png,2,exp1.png,exp2.png,1,1,non-reversed,correct,0.8147201003044873,1,valid_win,556.4900367999999,58,,,,,,,,,,,,,,,,sub_1578,2025-04-06_11h51.06.252,Reversal,2022.1.2,59.94873184453059,2,
5,exp3.png,exp4.png,,,,,,,,,,,,,,,,,,0,0,0,0,0,5,5,5,,,,,,,,,False,5,86,False,exp3.png,exp4.png,trial_left_image,1,exp3.png,2,exp4.png,exp3.png,1,3,reversed,incorrect,0.6318881981204989,0,valid_lose,561.7731294000005,58,,,,,,,,,,,,,,,,sub_1578,2025-04-06_11h51.06.252,Reversal,2022.1.2,59.94873184453059,2,
6,exp1.png,exp2.png,,,,,,,,,,,,,,,,,,0,0,0,0,0,6,6,6,,,,,,,,,False,6,87,True,exp2.png,exp1.png,trial_right_image,-1,exp1.png,2,exp1.png,exp2.png,1,1,non-reversed,correct,0.04542321472139088,0,invalid_lose,566.423240600001,58,,,,,,,,,,,,,,,,sub_1578,2025-04-06_11h51.06.252,Reversal,2022.1.2,59.94873184453059,2,
7,exp3.png,exp4.png,,,,,,,,,,,,,,,,,,0,0,0,0,0,7,7,7,,,,,,,,,False,7,88,True,exp4.png,exp3.png,trial_right_image,-1,exp3.png,2,exp4.png,exp3.png,1,3,reversed,incorrect,0.8508969525142637,0,valid_lose,571.8728461999999,58,,,,,,,,,,,,,,,,sub_1578,2025-04-06_11h51.06.252,Reversal,2022.1.2,59.94873184453059,2,
8,exp1.png,exp2.png,,,,,,,,,,,,,,,,,,0,0,0,0,0,8,8,8,,,,,,,,,False,8,89,False,exp1.png,exp2.png,trial_right_image,-1,exp2.png,2,exp1.png,exp2.png,0,2,non-reversed,incorrect,0.2374780879176247,1,invalid_win,577.5901771999997,59,,,,,,,,,,,,,,,,sub_1578,2025-04-06_11h51.06.252,Reversal,2022.1.2,59.94873184453059,2,
9,exp3.png,exp4.png,,,,,,,,,,,,,,,,,,0,0,0,0,0,9,9,9,,,,,,,,,False,9,90,True,exp4.png,exp3.png,trial_right_image,-1,exp3.png,2,exp4.png,exp3.png,1,3,reversed,incorrect,0.498824898404449,0,valid_lose,583.8574217000005,59,,,,,,,,,,,,,,,,sub_1578,2025-04-06_11h51.06.252,Reversal,2022.1.2,59.94873184453059,2,
10,exp1.png,exp2.png,,,,,,,,,,,,,,,,,,0,0,0,0,0,10,10,10,,,,,,,,,False,10,91,False,exp1.png,exp2.png,trial_left_image,1,exp1.png,2,exp1.png,exp2.png,1,1,non-reversed,correct,0.10357713564191151,0,invalid_lose,590.3062642999994,59,,,,,,,,,,,,,,,,sub_1578,2025-04-06_11h51.06.252,Reversal,2022.1.2,59.94873184453059,2,
11,exp3.png,exp4.png,,,,,,,,,,,,,,,,,,0,0,0,0,0,11,11,11,,,,,,,,,False,11,92,False,exp3.png,exp4.png,trial_left_image,1,exp3.png,2,exp4.png,exp3.png,1,3,reversed,incorrect,0.3208565079100121,0,valid_lose,595.456623,59,,,,,,,,,,,,,,,,sub_1578,2025-04-06_11h51.06.252,Reversal,2022.1.2,59.94873184453059,2,
12,exp1.png,exp2.png,,,,,,,,,,,,,,,,,,0,0,0,0,0,12,12,12,,,,,,,,,False,12,93,True,exp2.png,exp1.png,trial_right_image,-1,exp1.png,2,exp1.png,exp2.png,1,1,non-reversed,correct,0.37870825842287736,1,valid_win,601.4398149000008,60,,,,,,,,,,,,,,,,sub_1578,2025-04-06_11h51.06.252,Reversal,2022.1.2,59.94873184453059,2,
13,exp3.png,exp4.png,,,,,,,,,,,,,,,,,,0,0,0,0,0,13,13,13,,,,,,,,,False,13,94,False,exp3.png,exp4.png,trial_left_image,1,exp3.png,2,exp4.png,exp3.png,1,3,reversed,incorrect,0.897526342740412,0,valid_lose,607.0393344000004,60,,,,,,,,,,,,,,,,sub_1578,2025-04-06_11h51.06.252,Reversal,2022.1.2,59.94873184453059,2,
14,exp1.png,exp2.png,,,,,,,,,,,,,,,,,,0,0,0,0,0,14,14,14,,,,,,,,,False,14,95,False,exp1.png,exp2.png,trial_right_image,-1,exp2.png,2,exp1.png,exp2.png,0,2,non-reversed,incorrect,0.35167182841303124,0,valid_lose,612.8392442999993,60,,,,,,,,,,,,,,,,sub_1578,2025-04-06_11h51.06.252,Reversal,2022.1.2,59.94873184453059,2,
15,exp3.png,exp4.png,,,,,,,,,,,,,,,,,,0,0,0,0,0,15,15,15,,,,,,,,,False,15,96,False,exp3.png,exp4.png,trial_left_image,1,exp3.png,2,exp4.png,exp3.png,1,3,reversed,incorrect,0.30970736071315685,0,valid_lose,619.2226372999994,60,,,,,,,,,,,,,,,,sub_1578,2025-04-06_11h51.06.252,Reversal,2022.1.2,59.94873184453059,2,
16,exp1.png,exp2.png,,,,,,,,,,,,,,,,,,0,0,0,0,0,16,16,16,,,,,,,,,False,16,97,False,exp1.png,exp2.png,trial_left_image,1,exp1.png,2,exp1.png,exp2.png,1,1,non-reversed,correct,0.38802385654281435,1,valid_win,624.4893362000003,61,,,,,,,,,,,,,,,,sub_1578,2025-04-06_11h51.06.252,Reversal,2022.1.2,59.94873184453059,2,
17,exp3.png,exp4.png,,,,,,,,,,,,,,,,,,0,0,0,0,0,17,17,17,,,,,,,,,False,17,98,True,exp4.png,exp3.png,trial_right_image,-1,exp3.png,2,exp4.png,exp3.png,1,3,reversed,incorrect,0.918871689156403,0,valid_lose,630.4554279000004,61,,,,,,,,,,,,,,,,sub_1578,2025-04-06_11h51.06.252,Reversal,2022.1.2,59.94873184453059,2,
18,exp1.png,exp2.png,,,,,,,,,,,,,,,,,,0,0,0,0,0,18,18,18,,,,,,,,,False,18,99,True,exp2.png,exp1.png,trial_right_image,-1,exp1.png,2,exp1.png,exp2.png,1,1,non-reversed,correct,0.9461974163294887,1,valid_win,636.8057296000006,62,,,,,,,,,,,,,,,,sub_1578,2025-04-06_11h51.06.252,Reversal,2022.1.2,59.94873184453059,2,
19,exp3.png,exp4.png,,,,,,,,,,,,,,,,,,0,0,0,0,0,19,19,19,,,,,,,,,False,19,100,True,exp4.png,exp3.png,trial_right_image,-1,exp3.png,2,exp4.png,exp3.png,1,3,reversed,incorrect,0.5512555410182136,0,valid_lose,642.605618900001,62,,,,,,,,,,,,,,,,sub_1578,2025-04-06_11h51.06.252,Reversal,2022.1.2,59.94873184453059,2,
20,exp1.png,exp2.png,,,,,,,,,,,,,,,,,,0,0,0,0,0,20,20,20,,,,,,,,,True,,,,,,,,,,,,,,,,,,,,,,,,,,,,,,,,,,,,sub_1578,2025-04-06_11h51.06.252,Reversal,2022.1.2,59.94873184453059,2,
,,,exp1.png,,,,,,,,,,,,,,,,,0,0,0,0,,,,,0,0,0,0,0,0,0,0,,,,,,,,,,,,,,,,,,,,,,85.0,85.0,3.471173500000077,"[(85.0, 3.471173500000077)]",673.9616888,None,,,,,,,,,,sub_1578,2025-04-06_11h51.06.252,Reversal,2022.1.2,59.94873184453059,2,
,,,exp2.png,,,,,,,,,,,,,,,,,0,0,0,0,,,,,0,0,0,0,0,1,1,1,,,,,,,,,,,,,,,,,,,,,,,21.0,2.4156103000004805,"[(21.0, 2.4156103000004805)]",678.5152527000009,None,21.0,,,,,,,,,sub_1578,2025-04-06_11h51.06.252,Reversal,2022.1.2,59.94873184453059,2,
,,,exp3.png,,,,,,,,,,,,,,,,,0,0,0,0,,,,,0,0,0,0,0,2,2,2,,,,,,,,,,,,,,,,,,,,,,,50.0,None,[],681.8631056000013,None,,,,,,,,,,sub_1578,2025-04-06_11h51.06.252,Reversal,2022.1.2,59.94873184453059,2,
,,,exp4.png,,,,,,,,,,,,,,,,,0,0,0,0,,,,,0,0,0,0,0,3,3,3,,,,,,,,,,,,,,,,,,,,,,,20.0,2.750404800000979,"[(20.0, 2.750404800000979)]",685.7291174000002,None,,,20.0,,,,,,,sub_1578,2025-04-06_11h51.06.252,Reversal,2022.1.2,59.94873184453059,2,
0,exp1.png,exp2.png,,,,,,,,,,,,,,,,,,1,0,1,0,0,0,0,0,,,,,,,,,False,20,101,True,exp2.png,exp1.png,trial_right_image,-1,exp1.png,2,exp1.png,exp2.png,1,1,non-reversed,correct,0.7716379263392505,1,valid_win,663.8054819000008,63,,,,,,,,,,,,,,,,sub_1578,2025-04-06_11h51.06.252,Reversal,2022.1.2,59.94873184453059,2,
1,exp3.png,exp4.png,,,,,,,,,,,,,,,,,,1,0,1,0,0,1,1,1,,,,,,,,,False,21,102,False,exp3.png,exp4.png,trial_left_image,1,exp3.png,2,exp4.png,exp3.png,1,3,reversed,incorrect,0.9617927601857719,0,valid_lose,668.838216600001,63,,,,,,,,,,,,,,,,sub_1578,2025-04-06_11h51.06.252,Reversal,2022.1.2,59.94873184453059,2,
2,exp1.png,exp2.png,,,,,,,,,,,,,,,,,,1,0,1,0,0,2,2,2,,,,,,,,,False,22,103,True,exp2.png,exp1.png,trial_right_image,-1,exp1.png,2,exp1.png,exp2.png,1,1,non-reversed,correct,0.07471175585128209,0,invalid_lose,674.6384431999995,63,,,,,,,,,,,,,,,,sub_1578,2025-04-06_11h51.06.252,Reversal,2022.1.2,59.94873184453059,2,
3,exp3.png,exp4.png,,,,,,,,,,,,,,,,,,1,0,1,0,0,3,3,3,,,,,,,,,False,23,104,True,exp4.png,exp3.png,trial_right_image,-1,exp3.png,2,exp4.png,exp3.png,1,3,reversed,incorrect,0.5266954413203753,0,valid_lose,681.15517,63,,,,,,,,,,,,,,,,sub_1578,2025-04-06_11h51.06.252,Reversal,2022.1.2,59.94873184453059,2,
4,exp1.png,exp2.png,,,,,,,,,,,,,,,,,,1,0,1,0,0,4,4,4,,,,,,,,,False,24,105,True,exp2.png,exp1.png,trial_left_image,1,exp2.png,2,exp1.png,exp2.png,0,2,non-reversed,incorrect,0.6981462977486754,0,valid_lose,686.4540871999998,63,,,,,,,,,,,,,,,,sub_1578,2025-04-06_11h51.06.252,Reversal,2022.1.2,59.94873184453059,2,
5,exp3.png,exp4.png,,,,,,,,,,,,,,,,,,1,0,1,0,0,5,5,5,,,,,,,,,False,25,106,False,exp3.png,exp4.png,trial_right_image,-1,exp4.png,2,exp4.png,exp3.png,0,4,reversed,correct,0.23720380142442776,0,invalid_lose,691.9209821999993,63,,,,,,,,,,,,,,,,sub_1578,2025-04-06_11h51.06.252,Reversal,2022.1.2,59.94873184453059,2,
6,exp1.png,exp2.png,,,,,,,,,,,,,,,,,,1,0,1,0,0,6,6,6,,,,,,,,,False,26,107,False,exp1.png,exp2.png,trial_left_image,1,exp1.png,2,exp1.png,exp2.png,1,1,non-reversed,correct,0.392282985082984,1,valid_win,696.9210000000003,64,,,,,,,,,,,,,,,,sub_1578,2025-04-06_11h51.06.252,Reversal,2022.1.2,59.94873184453059,2,
7,exp3.png,exp4.png,,,,,,,,,,,,,,,,,,1,0,1,0,0,7,7,7,,,,,,,,,False,27,108,True,exp4.png,exp3.png,trial_right_image,-1,exp3.png,2,exp4.png,exp3.png,1,3,reversed,incorrect,0.8318094951173245,0,valid_lose,702.0877328000006,64,,,,,,,,,,,,,,,,sub_1578,2025-04-06_11h51.06.252,Reversal,2022.1.2,59.94873184453059,2,
8,exp1.png,exp2.png,,,,,,,,,,,,,,,,,,1,0,1,0,0,8,8,8,,,,,,,,,False,28,109,True,exp2.png,exp1.png,trial_right_image,-1,exp1.png,2,exp1.png,exp2.png,1,1,non-reversed,correct,0.7926485257312569,1,valid_win,706.9040621999993,65,,,,,,,,,,,,,,,,sub_1578,2025-04-06_11h51.06.252,Reversal,2022.1.2,59.94873184453059,2,
9,exp3.png,exp4.png,,,,,,,,,,,,,,,,,,1,0,1,0,0,9,9,9,,,,,,,,,False,29,110,True,exp4.png,exp3.png,trial_left_image,1,exp4.png,2,exp4.png,exp3.png,0,4,reversed,correct,0.22801291757319153,0,invalid_lose,712.9210619999994,65,,,,,,,,,,,,,,,,sub_1578,2025-04-06_11h51.06.252,Reversal,2022.1.2,59.94873184453059,2,
10,exp1.png,exp2.png,,,,,,,,,,,,,,,,,,1,0,1,0,0,10,10,10,,,,,,,,,False,30,111,False,exp1.png,exp2.png,trial_right_image,-1,exp2.png,2,exp1.png,exp2.png,0,2,non-reversed,incorrect,0.8983179899450263,0,valid_lose,718.3378802000007,65,,,,,,,,,,,,,,,,sub_1578,2025-04-06_11h51.06.252,Reversal,2022.1.2,59.94873184453059,2,
11,exp3.png,exp4.png,,,,,,,,,,,,,,,,,,1,0,1,0,0,11,11,11,,,,,,,,,False,31,112,False,exp3.png,exp4.png,trial_right_image,-1,exp4.png,2,exp4.png,exp3.png,0,4,reversed,correct,0.3599772457042333,1,valid_win,724.4199220999999,66,,,,,,,,,,,,,,,,sub_1578,2025-04-06_11h51.06.252,Reversal,2022.1.2,59.94873184453059,2,
12,exp1.png,exp2.png,,,,,,,,,,,,,,,,,,1,0,1,0,0,12,12,12,,,,,,,,,False,32,113,False,exp1.png,exp2.png,trial_right_image,-1,exp2.png,2,exp1.png,exp2.png,0,2,non-reversed,incorrect,0.40777053305671296,0,valid_lose,729.6203237000009,66,,,,,,,,,,,,,,,,sub_1578,2025-04-06_11h51.06.252,Reversal,2022.1.2,59.94873184453059,2,
13,exp3.png,exp4.png,,,,,,,,,,,,,,,,,,1,0,1,0,0,13,13,13,,,,,,,,,False,33,114,False,exp3.png,exp4.png,trial_left_image,1,exp3.png,2,exp4.png,exp3.png,1,3,reversed,incorrect,0.2530403255137559,0,valid_lose,734.403761900001,66,,,,,,,,,,,,,,,,sub_1578,2025-04-06_11h51.06.252,Reversal,2022.1.2,59.94873184453059,2,
14,exp1.png,exp2.png,,,,,,,,,,,,,,,,,,1,0,1,0,0,14,14,14,,,,,,,,,False,34,115,True,exp2.png,exp1.png,trial_right_image,-1,exp1.png,2,exp1.png,exp2.png,1,1,non-reversed,correct,0.1752299188622799,0,invalid_lose,739.4203531000003,66,,,,,,,,,,,,,,,,sub_1578,2025-04-06_11h51.06.252,Reversal,2022.1.2,59.94873184453059,2,
15,exp3.png,exp4.png,,,,,,,,,,,,,,,,,,1,0,1,0,0,15,15,15,,,,,,,,,False,35,116,True,exp4.png,exp3.png,trial_right_image,-1,exp3.png,2,exp4.png,exp3.png,1,3,reversed,incorrect,0.17105786033148696,1,invalid_win,745.5032477000004,67,,,,,,,,,,,,,,,,sub_1578,2025-04-06_11h51.06.252,Reversal,2022.1.2,59.94873184453059,2,
16,exp1.png,exp2.png,,,,,,,,,,,,,,,,,,1,0,1,0,0,16,16,16,,,,,,,,,False,36,117,True,exp2.png,exp1.png,trial_right_image,-1,exp1.png,2,exp1.png,exp2.png,1,1,non-reversed,correct,0.8434865032434891,1,valid_win,751.1028191999994,68,,,,,,,,,,,,,,,,sub_1578,2025-04-06_11h51.06.252,Reversal,2022.1.2,59.94873184453059,2,
17,exp3.png,exp4.png,,,,,,,,,,,,,,,,,,1,0,1,0,0,17,17,17,,,,,,,,,False,37,118,False,exp3.png,exp4.png,trial_left_image,1,exp3.png,2,exp4.png,exp3.png,1,3,reversed,incorrect,0.7297659161303149,0,valid_lose,755.8359338000009,68,,,,,,,,,,,,,,,,sub_1578,2025-04-06_11h51.06.252,Reversal,2022.1.2,59.94873184453059,2,
18,exp1.png,exp2.png,,,,,,,,,,,,,,,,,,1,0,1,0,0,18,18,18,,,,,,,,,False,38,119,False,exp1.png,exp2.png,trial_right_image,-1,exp2.png,2,exp1.png,exp2.png,0,2,non-reversed,incorrect,0.27563784963261606,0,valid_lose,761.2029111000011,68,,,,,,,,,,,,,,,,sub_1578,2025-04-06_11h51.06.252,Reversal,2022.1.2,59.94873184453059,2,
19,exp3.png,exp4.png,,,,,,,,,,,,,,,,,,1,0,1,0,0,19,19,19,,,,,,,,,False,39,120,False,exp3.png,exp4.png,trial_right_image,-1,exp4.png,2,exp4.png,exp3.png,0,4,reversed,correct,0.24402879017489698,0,invalid_lose,766.0530092000008,68,,,,,,,,,,,,,,,,sub_1578,2025-04-06_11h51.06.252,Reversal,2022.1.2,59.94873184453059,2,
20,exp1.png,exp2.png,,,,,,,,,,,,,,,,,,1,0,1,0,0,20,20,20,,,,,,,,,True,,,,,,,,,,,,,,,,,,,,,,,,,,,,,,,,,,,,sub_1578,2025-04-06_11h51.06.252,Reversal,2022.1.2,59.94873184453059,2,
,,,exp1.png,,,,,,,,,,,,,,,,,1,0,1,0,,,,,0,0,0,0,0,0,0,0,,,,,,,,,,,,,,,,,,,,,,88.0,88.0,3.2993177000007563,"[(88.0, 3.2993177000007563)]",797.4024833000003,None,,,,,,,,,,sub_1578,2025-04-06_11h51.06.252,Reversal,2022.1.2,59.94873184453059,2,
,,,exp2.png,,,,,,,,,,,,,,,,,1,0,1,0,,,,,0,0,0,0,0,1,1,1,,,,,,,,,,,,,,,,,,,,,,,50.0,None,[],802.0603182000013,None,,,,,,,,,,sub_1578,2025-04-06_11h51.06.252,Reversal,2022.1.2,59.94873184453059,2,
,,,exp3.png,,,,,,,,,,,,,,,,,1,0,1,0,,,,,0,0,0,0,0,2,2,2,,,,,,,,,,,,,,,,,,,,,,,86.0,3.6985107000000426,"[(86.0, 3.6985107000000426)]",806.4131877,None,,86.0,,,,,,,,sub_1578,2025-04-06_11h51.06.252,Reversal,2022.1.2,59.94873184453059,2,
,,,exp4.png,,,,,,,,,,,,,,,,,1,0,1,0,,,,,0,0,0,0,0,3,3,3,,,,,,,,,,,,,,,,,,,,,,,21.0,3.2005613000001176,"[(21.0, 3.2005613000001176)]",811.0801681000012,None,,,21.0,,,,,,,sub_1578,2025-04-06_11h51.06.252,Reversal,2022.1.2,59.94873184453059,2,
0,exp1.png,exp2.png,,,,,,,,,,,,,,,,,,2,0,2,0,0,0,0,0,,,,,,,,,False,40,121,False,exp1.png,exp2.png,trial_left_image,1,exp1.png,2,exp1.png,exp2.png,1,1,non-reversed,correct,0.0257330094499576,0,invalid_lose,790.0523138000008,68,,,,,,,,,,,,,,,,sub_1578,2025-04-06_11h51.06.252,Reversal,2022.1.2,59.94873184453059,2,
1,exp3.png,exp4.png,,,,,,,,,,,,,,,,,,2,0,2,0,0,1,1,1,,,,,,,,,False,41,122,True,exp4.png,exp3.png,trial_right_image,-1,exp3.png,2,exp4.png,exp3.png,1,3,reversed,incorrect,0.5556917353607091,0,valid_lose,795.1861955000004,68,,,,,,,,,,,,,,,,sub_1578,2025-04-06_11h51.06.252,Reversal,2022.1.2,59.94873184453059,2,
2,exp1.png,exp2.png,,,,,,,,,,,,,,,,,,2,0,2,0,0,2,2,2,,,,,,,,,False,42,123,False,exp1.png,exp2.png,trial_right_image,-1,exp2.png,2,exp1.png,exp2.png,0,2,non-reversed,incorrect,0.22321874808746378,1,invalid_win,800.4019711000001,69,,,,,,,,,,,,,,,,sub_1578,2025-04-06_11h51.06.252,Reversal,2022.1.2,59.94873184453059,2,
3,exp3.png,exp4.png,,,,,,,,,,,,,,,,,,2,0,2,0,0,3,3,3,,,,,,,,,False,43,124,False,exp3.png,exp4.png,trial_left_image,1,exp3.png,2,exp4.png,exp3.png,1,3,reversed,incorrect,0.8335550583314549,0,valid_lose,806.4355694999995,69,,,,,,,,,,,,,,,,sub_1578,2025-04-06_11h51.06.252,Reversal,2022.1.2,59.94873184453059,2,
4,exp1.png,exp2.png,,,,,,,,,,,,,,,,,,2,0,2,0,0,4,4,4,,,,,,,,,False,44,125,True,exp2.png,exp1.png,trial_right_image,-1,exp1.png,2,exp1.png,exp2.png,1,1,non-reversed,correct,0.14411584315307657,0,invalid_lose,811.9692359000001,69,,,,,,,,,,,,,,,,sub_1578,2025-04-06_11h51.06.252,Reversal,2022.1.2,59.94873184453059,2,
5,exp3.png,exp4.png,,,,,,,,,,,,,,,,,,2,0,2,0,0,5,5,5,,,,,,,,,False,45,126,True,exp4.png,exp3.png,trial_right_image,-1,exp3.png,2,exp4.png,exp3.png,1,3,reversed,incorrect,0.14922622006349096,1,invalid_win,816.5024816999994,70,,,,,,,,,,,,,,,,sub_1578,2025-04-06_11h51.06.252,Reversal,2022.1.2,59.94873184453059,2,
6,exp1.png,exp2.png,,,,,,,,,,,,,,,,,,2,0,2,0,0,6,6,6,,,,,,,,,False,46,127,True,exp2.png,exp1.png,trial_left_image,1,exp2.png,2,exp1.png,exp2.png,0,2,non-reversed,incorrect,0.2565810913394775,0,valid_lose,822.2857323999997,70,,,,,,,,,,,,,,,,sub_1578,2025-04-06_11h51.06.252,Reversal,2022.1.2,59.94873184453059,2,
7,exp3.png,exp4.png,,,,,,,,,,,,,,,,,,2,0,2,0,0,7,7,7,,,,,,,,,False,47,128,False,exp3.png,exp4.png,trial_left_image,1,exp3.png,2,exp4.png,exp3.png,1,3,reversed,incorrect,0.06542988366136082,1,invalid_win,827.1517345000011,71,,,,,,,,,,,,,,,,sub_1578,2025-04-06_11h51.06.252,Reversal,2022.1.2,59.94873184453059,2,
8,exp1.png,exp2.png,,,,,,,,,,,,,,,,,,2,0,2,0,0,8,8,8,,,,,,,,,False,48,129,True,exp2.png,exp1.png,trial_right_image,-1,exp1.png,2,exp1.png,exp2.png,1,1,non-reversed,correct,0.7573026217314869,1,valid_win,831.7186877000004,72,,,,,,,,,,,,,,,,sub_1578,2025-04-06_11h51.06.252,Reversal,2022.1.2,59.94873184453059,2,
9,exp3.png,exp4.png,,,,,,,,,,,,,,,,,,2,0,2,0,0,9,9,9,,,,,,,,,False,49,130,False,exp3.png,exp4.png,trial_left_image,1,exp3.png,2,exp4.png,exp3.png,1,3,reversed,incorrect,0.9619278756724949,0,valid_lose,836.8020945000007,72,,,,,,,,,,,,,,,,sub_1578,2025-04-06_11h51.06.252,Reversal,2022.1.2,59.94873184453059,2,
10,exp1.png,exp2.png,,,,,,,,,,,,,,,,,,2,0,2,0,0,10,10,10,,,,,,,,,False,50,131,False,exp1.png,exp2.png,trial_left_image,1,exp1.png,2,exp1.png,exp2.png,1,1,non-reversed,correct,0.9062556229279327,1,valid_win,841.6518056000004,73,,,,,,,,,,,,,,,,sub_1578,2025-04-06_11h51.06.252,Reversal,2022.1.2,59.94873184453059,2,
11,exp3.png,exp4.png,,,,,,,,,,,,,,,,,,2,0,2,0,0,11,11,11,,,,,,,,,False,51,132,False,exp3.png,exp4.png,trial_left_image,1,exp3.png,2,exp4.png,exp3.png,1,3,reversed,incorrect,0.24041299763276647,1,invalid_win,847.5845860000009,74,,,,,,,,,,,,,,,,sub_1578,2025-04-06_11h51.06.252,Reversal,2022.1.2,59.94873184453059,2,
12,exp1.png,exp2.png,,,,,,,,,,,,,,,,,,2,0,2,0,0,12,12,12,,,,,,,,,False,52,133,True,exp2.png,exp1.png,trial_right_image,-1,exp1.png,2,exp1.png,exp2.png,1,1,non-reversed,correct,0.5666067951418783,1,valid_win,852.4346929000003,75,,,,,,,,,,,,,,,,sub_1578,2025-04-06_11h51.06.252,Reversal,2022.1.2,59.94873184453059,2,
13,exp3.png,exp4.png,,,,,,,,,,,,,,,,,,2,0,2,0,0,13,13,13,,,,,,,,,False,53,134,True,exp4.png,exp3.png,trial_left_image,1,exp4.png,2,exp4.png,exp3.png,0,4,reversed,correct,0.8861149366580559,1,valid_win,858.0680967000008,76,,,,,,,,,,,,,,,,sub_1578,2025-04-06_11h51.06.252,Reversal,2022.1.2,59.94873184453059,2,
14,exp1.png,exp2.png,,,,,,,,,,,,,,,,,,2,0,2,0,0,14,14,14,,,,,,,,,False,54,135,True,exp2.png,exp1.png,trial_right_image,-1,exp1.png,2,exp1.png,exp2.png,1,1,non-reversed,correct,0.23907021297754838,0,invalid_lose,863.4182196000002,76,,,,,,,,,,,,,,,,sub_1578,2025-04-06_11h51.06.252,Reversal,2022.1.2,59.94873184453059,2,
15,exp3.png,exp4.png,,,,,,,,,,,,,,,,,,2,0,2,0,0,15,15,15,,,,,,,,,False,55,136,False,exp3.png,exp4.png,trial_right_image,-1,exp4.png,2,exp4.png,exp3.png,0,4,reversed,correct,0.48066240000187865,1,valid_win,869.3016829000007,77,,,,,,,,,,,,,,,,sub_1578,2025-04-06_11h51.06.252,Reversal,2022.1.2,59.94873184453059,2,
16,exp1.png,exp2.png,,,,,,,,,,,,,,,,,,2,0,2,0,0,16,16,16,,,,,,,,,False,56,137,False,exp1.png,exp2.png,trial_left_image,1,exp1.png,2,exp1.png,exp2.png,1,1,non-reversed,correct,0.6996750508081303,1,valid_win,874.5344454999995,78,,,,,,,,,,,,,,,,sub_1578,2025-04-06_11h51.06.252,Reversal,2022.1.2,59.94873184453059,2,
17,exp3.png,exp4.png,,,,,,,,,,,,,,,,,,2,0,2,0,0,17,17,17,,,,,,,,,False,57,138,True,exp4.png,exp3.png,trial_right_image,-1,exp3.png,2,exp4.png,exp3.png,1,3,reversed,incorrect,0.006686224625730208,1,invalid_win,879.9339763999997,79,,,,,,,,,,,,,,,,sub_1578,2025-04-06_11h51.06.252,Reversal,2022.1.2,59.94873184453059,2,
18,exp1.png,exp2.png,,,,,,,,,,,,,,,,,,2,0,2,0,0,18,18,18,,,,,,,,,False,58,139,True,exp2.png,exp1.png,trial_right_image,-1,exp1.png,2,exp1.png,exp2.png,1,1,non-reversed,correct,0.5785628932250984,1,valid_win,884.8839042,80,,,,,,,,,,,,,,,,sub_1578,2025-04-06_11h51.06.252,Reversal,2022.1.2,59.94873184453059,2,
19,exp3.png,exp4.png,,,,,,,,,,,,,,,,,,2,0,2,0,0,19,19,19,,,,,,,,,False,59,140,False,exp3.png,exp4.png,trial_right_image,-1,exp4.png,2,exp4.png,exp3.png,0,4,reversed,correct,0.5329969850100017,1,valid_win,890.6678243000006,81,,,,,,,,,,,,,,,,sub_1578,2025-04-06_11h51.06.252,Reversal,2022.1.2,59.94873184453059,2,
20,exp1.png,exp2.png,,,,,,,,,,,,,,,,,,2,0,2,0,0,20,20,20,,,,,,,,,True,,,,,,,,,,,,,,,,,,,,,,,,,,,,,,,,,,,,sub_1578,2025-04-06_11h51.06.252,Reversal,2022.1.2,59.94873184453059,2,
,,,exp1.png,,,,,,,,,,,,,,,,,2,0,2,0,,,,,0,0,0,0,0,0,0,0,,,,,,,,,,,,,,,,,,,,,,82.0,82.0,3.0173835000005056,"[(82.0, 3.0173835000005056)]",922.0291295000006,None,,,,,,,,,,sub_1578,2025-04-06_11h51.06.252,Reversal,2022.1.2,59.94873184453059,2,
,,,exp2.png,,,,,,,,,,,,,,,,,2,0,2,0,,,,,0,0,0,0,0,1,1,1,,,,,,,,,,,,,,,,,,,,,,,50.0,None,[],926.1402986000012,None,,,,,,,,,,sub_1578,2025-04-06_11h51.06.252,Reversal,2022.1.2,59.94873184453059,2,
,,,exp3.png,,,,,,,,,,,,,,,,,2,0,2,0,,,,,0,0,0,0,0,2,2,2,,,,,,,,,,,,,,,,,,,,,,,82.0,3.315168999999514,"[(82.0, 3.315168999999514)]",930.1765712000015,None,,82.0,,,,,,,,sub_1578,2025-04-06_11h51.06.252,Reversal,2022.1.2,59.94873184453059,2,
,,,exp4.png,,,,,,,,,,,,,,,,,2,0,2,0,,,,,0,0,0,0,0,3,3,3,,,,,,,,,,,,,,,,,,,,,,,20.0,3.0335433000000194,"[(20.0, 3.0335433000000194)]",934.6108967,None,,,20.0,,,,,,,sub_1578,2025-04-06_11h51.06.252,Reversal,2022.1.2,59.94873184453059,2,
,,,,,,,,,,,,,,,,,,,,,,,,,,,,,,,,,,,,,,,,,,,,,,,,,,,,,,,,81,,,,,,,,,,,85,57,28,378.79216579999957,1,,,,,,,
