trial_index,trial_image1_file,trial_image2_file,image_file,learning_outer_loop.thisRepN,learning_outer_loop.thisTrialN,learning_outer_loop.thisN,learning_outer_loop.thisIndex,learning_inner_loop.thisRepN,learning_inner_loop.thisTrialN,learning_inner_loop.thisN,learning_inner_loop.thisIndex,learning_estimation_outer_loop.thisRepN,learning_estimation_outer_loop.thisTrialN,learning_estimation_outer_loop.thisN,learning_estimation_outer_loop.thisIndex,learning_estimation_inner_loop.thisRepN,learning_estimation_inner_loop.thisTrialN,learning_estimation_inner_loop.thisN,learning_estimation_inner_loop.thisIndex,reversal_outer_loop.thisRepN,reversal_outer_loop.thisTrialN,reversal_outer_loop.thisN,reversal_outer_loop.thisIndex,reversal_inner_loop.thisRepN,reversal_inner_loop.thisTrialN,reversal_inner_loop.thisN,reversal_inner_loop.thisIndex,reversal_estimation_outer_loop.thisRepN,reversal_estimation_outer_loop.thisTrialN,reversal_estimation_outer_loop.thisN,reversal_estimation_outer_loop.thisIndex,reversal_estimation_inner_loop.thisRepN,reversal_estimation_inner_loop.thisTrialN,reversal_estimation_inner_loop.thisN,reversal_estimation_inner_loop.thisIndex,skipped,total_trial_counter,trial_num,left_right_flip,left_image_file,right_image_file,clicked_stimulus_side,side,clicked_stimulus,version,high_prob_image_file,low_prob_image_file,choice_a,choice_b,pair_type,correct,trial_feedback_random,reward,trial_type,overall_time_after_trial,score,estimation_rating.started,estimation_exp1.png,estimation_rating.response,estimation_rating.rt,estimation_rating.history,estimation_exp2.png,estimation_exp3.png,estimation_exp4.png,total_learning_time,total_correct,learning_correct,reversal_correct,total_reversal_time,extra_block,participant,date,expName,psychopyVersion,frameRate,ver,
0,exp1.png,exp2.png,,0,0,0,0,0,0,0,0,,,,,,,,,,,,,,,,,,,,,,,,,False,0,1,True,exp2.png,exp1.png,trial_right_image,-1,exp1.png,2,exp1.png,exp2.png,1,1,non-reversed,correct,0.8845340199841814,1,valid_win,36.15596230000028,1,,,,,,,,,,,,,,,sub_834,2025-03-23_11h46.22.625,Reversal,2023.1.3,59.94934280524619,2,
1,exp3.png,exp4.png,,0,0,0,0,0,1,1,1,,,,,,,,,,,,,,,,,,,,,,,,,False,1,2,True,exp4.png,exp3.png,trial_right_image,-1,exp3.png,2,exp3.png,exp4.png,1,3,reversed,correct,0.0628212411225294,0,invalid_lose,59.679076500000065,1,,,,,,,,,,,,,,,sub_834,2025-03-23_11h46.22.625,Reversal,2023.1.3,59.94934280524619,2,
2,exp1.png,exp2.png,,0,0,0,0,0,2,2,2,,,,,,,,,,,,,,,,,,,,,,,,,False,2,3,False,exp1.png,exp2.png,trial_right_image,-1,exp2.png,2,exp1.png,exp2.png,0,2,non-reversed,incorrect,0.1623308937486485,1,invalid_win,68.97573800000009,2,,,,,,,,,,,,,,,sub_834,2025-03-23_11h46.22.625,Reversal,2023.1.3,59.94934280524619,2,
3,exp3.png,exp4.png,,0,0,0,0,0,3,3,3,,,,,,,,,,,,,,,,,,,,,,,,,False,3,4,True,exp4.png,exp3.png,trial_left_image,1,exp4.png,2,exp3.png,exp4.png,0,4,reversed,incorrect,0.012996502000242827,1,invalid_win,80.32164039999998,3,,,,,,,,,,,,,,,sub_834,2025-03-23_11h46.22.625,Reversal,2023.1.3,59.94934280524619,2,
4,exp1.png,exp2.png,,0,0,0,0,0,4,4,4,,,,,,,,,,,,,,,,,,,,,,,,,False,4,5,False,exp1.png,exp2.png,trial_right_image,-1,exp2.png,2,exp1.png,exp2.png,0,2,non-reversed,incorrect,0.1933334128563431,1,invalid_win,91.98587530000032,4,,,,,,,,,,,,,,,sub_834,2025-03-23_11h46.22.625,Reversal,2023.1.3,59.94934280524619,2,
5,exp3.png,exp4.png,,0,0,0,0,0,5,5,5,,,,,,,,,,,,,,,,,,,,,,,,,False,5,6,False,exp3.png,exp4.png,trial_right_image,-1,exp4.png,2,exp3.png,exp4.png,0,4,reversed,incorrect,0.7727756560630273,0,valid_lose,100.16545540000016,4,,,,,,,,,,,,,,,sub_834,2025-03-23_11h46.22.625,Reversal,2023.1.3,59.94934280524619,2,
6,exp1.png,exp2.png,,0,0,0,0,0,6,6,6,,,,,,,,,,,,,,,,,,,,,,,,,False,6,7,False,exp1.png,exp2.png,trial_right_image,-1,exp2.png,2,exp1.png,exp2.png,0,2,non-reversed,incorrect,0.5695793598598202,0,valid_lose,105.84635290000006,4,,,,,,,,,,,,,,,sub_834,2025-03-23_11h46.22.625,Reversal,2023.1.3,59.94934280524619,2,
7,exp3.png,exp4.png,,0,0,0,0,0,7,7,7,,,,,,,,,,,,,,,,,,,,,,,,,False,7,8,True,exp4.png,exp3.png,trial_right_image,-1,exp3.png,2,exp3.png,exp4.png,1,3,reversed,correct,0.28140363527875456,1,valid_win,112.5273188000001,5,,,,,,,,,,,,,,,sub_834,2025-03-23_11h46.22.625,Reversal,2023.1.3,59.94934280524619,2,
8,exp1.png,exp2.png,,0,0,0,0,0,8,8,8,,,,,,,,,,,,,,,,,,,,,,,,,False,8,9,False,exp1.png,exp2.png,trial_left_image,1,exp1.png,2,exp1.png,exp2.png,1,1,non-reversed,correct,0.15332640189906444,0,invalid_lose,118.35872810000001,5,,,,,,,,,,,,,,,sub_834,2025-03-23_11h46.22.625,Reversal,2023.1.3,59.94934280524619,2,
9,exp3.png,exp4.png,,0,0,0,0,0,9,9,9,,,,,,,,,,,,,,,,,,,,,,,,,False,9,10,False,exp3.png,exp4.png,trial_left_image,1,exp3.png,2,exp3.png,exp4.png,1,3,reversed,correct,0.19870433670741683,0,invalid_lose,124.54000739999992,5,,,,,,,,,,,,,,,sub_834,2025-03-23_11h46.22.625,Reversal,2023.1.3,59.94934280524619,2,
10,exp1.png,exp2.png,,0,0,0,0,0,10,10,10,,,,,,,,,,,,,,,,,,,,,,,,,False,10,11,True,exp2.png,exp1.png,trial_right_image,-1,exp1.png,2,exp1.png,exp2.png,1,1,non-reversed,correct,0.3911101132033252,1,valid_win,129.38850460000003,6,,,,,,,,,,,,,,,sub_834,2025-03-23_11h46.22.625,Reversal,2023.1.3,59.94934280524619,2,
11,exp3.png,exp4.png,,0,0,0,0,0,11,11,11,,,,,,,,,,,,,,,,,,,,,,,,,False,11,12,True,exp4.png,exp3.png,trial_left_image,1,exp4.png,2,exp3.png,exp4.png,0,4,reversed,incorrect,0.553129761070006,0,valid_lose,138.55211180000015,6,,,,,,,,,,,,,,,sub_834,2025-03-23_11h46.22.625,Reversal,2023.1.3,59.94934280524619,2,
12,exp1.png,exp2.png,,0,0,0,0,0,12,12,12,,,,,,,,,,,,,,,,,,,,,,,,,False,12,13,True,exp2.png,exp1.png,trial_left_image,1,exp2.png,2,exp1.png,exp2.png,0,2,non-reversed,incorrect,0.835308323173173,0,valid_lose,144.2362094,6,,,,,,,,,,,,,,,sub_834,2025-03-23_11h46.22.625,Reversal,2023.1.3,59.94934280524619,2,
13,exp3.png,exp4.png,,0,0,0,0,0,13,13,13,,,,,,,,,,,,,,,,,,,,,,,,,False,13,14,False,exp3.png,exp4.png,trial_left_image,1,exp3.png,2,exp3.png,exp4.png,1,3,reversed,correct,0.44554227130351365,1,valid_win,150.34809540000015,7,,,,,,,,,,,,,,,sub_834,2025-03-23_11h46.22.625,Reversal,2023.1.3,59.94934280524619,2,
14,exp1.png,exp2.png,,0,0,0,0,0,14,14,14,,,,,,,,,,,,,,,,,,,,,,,,,False,14,15,False,exp1.png,exp2.png,trial_left_image,1,exp1.png,2,exp1.png,exp2.png,1,1,non-reversed,correct,0.636878476419678,1,valid_win,155.19625670000005,8,,,,,,,,,,,,,,,sub_834,2025-03-23_11h46.22.625,Reversal,2023.1.3,59.94934280524619,2,
15,exp3.png,exp4.png,,0,0,0,0,0,15,15,15,,,,,,,,,,,,,,,,,,,,,,,,,False,15,16,True,exp4.png,exp3.png,trial_right_image,-1,exp3.png,2,exp3.png,exp4.png,1,3,reversed,correct,0.9742383257028727,1,valid_win,160.0281715000001,9,,,,,,,,,,,,,,,sub_834,2025-03-23_11h46.22.625,Reversal,2023.1.3,59.94934280524619,2,
16,exp1.png,exp2.png,,0,0,0,0,0,16,16,16,,,,,,,,,,,,,,,,,,,,,,,,,False,16,17,True,exp2.png,exp1.png,trial_right_image,-1,exp1.png,2,exp1.png,exp2.png,1,1,non-reversed,correct,0.3604856676968955,1,valid_win,164.5762147999999,10,,,,,,,,,,,,,,,sub_834,2025-03-23_11h46.22.625,Reversal,2023.1.3,59.94934280524619,2,
17,exp3.png,exp4.png,,0,0,0,0,0,17,17,17,,,,,,,,,,,,,,,,,,,,,,,,,False,17,18,True,exp4.png,exp3.png,trial_right_image,-1,exp3.png,2,exp3.png,exp4.png,1,3,reversed,correct,0.7107610712162765,1,valid_win,169.04131800000005,11,,,,,,,,,,,,,,,sub_834,2025-03-23_11h46.22.625,Reversal,2023.1.3,59.94934280524619,2,
18,exp1.png,exp2.png,,0,0,0,0,0,18,18,18,,,,,,,,,,,,,,,,,,,,,,,,,False,18,19,False,exp1.png,exp2.png,trial_left_image,1,exp1.png,2,exp1.png,exp2.png,1,1,non-reversed,correct,0.5629359977199101,1,valid_win,173.5066697000002,12,,,,,,,,,,,,,,,sub_834,2025-03-23_11h46.22.625,Reversal,2023.1.3,59.94934280524619,2,
19,exp3.png,exp4.png,,0,0,0,0,0,19,19,19,,,,,,,,,,,,,,,,,,,,,,,,,False,19,20,False,exp3.png,exp4.png,trial_left_image,1,exp3.png,2,exp3.png,exp4.png,1,3,reversed,correct,0.3976371414689014,1,valid_win,178.08825750000005,13,,,,,,,,,,,,,,,sub_834,2025-03-23_11h46.22.625,Reversal,2023.1.3,59.94934280524619,2,
20,exp1.png,exp2.png,,0,0,0,0,0,20,20,20,,,,,,,,,,,,,,,,,,,,,,,,,True,,,,,,,,,,,,,,,,,,,,,,,,,,,,,,,,,,,sub_834,2025-03-23_11h46.22.625,Reversal,2023.1.3,59.94934280524619,2,
,,,exp1.png,0,0,0,0,,,,,0,0,0,0,0,0,0,0,,,,,,,,,,,,,,,,,,,,,,,,,,,,,,,,,,,,,,302.61186259999977,100.0,100.0,8.983650699999998,"[(100.0, 8.983650699999998)]",,,,,,,,,,sub_834,2025-03-23_11h46.22.625,Reversal,2023.1.3,59.94934280524619,2,
,,,exp2.png,0,0,0,0,,,,,0,0,0,0,0,1,1,1,,,,,,,,,,,,,,,,,,,,,,,,,,,,,,,,,,,,,,312.7254186,,1.0,2.7429807000003166,"[(1.0, 2.7429807000003166)]",1.0,,,,,,,,,sub_834,2025-03-23_11h46.22.625,Reversal,2023.1.3,59.94934280524619,2,
,,,exp3.png,0,0,0,0,,,,,0,0,0,0,0,2,2,2,,,,,,,,,,,,,,,,,,,,,,,,,,,,,,,,,,,,,,316.6244118999998,,100.0,1.6621456999996553,"[(100.0, 1.6621456999996553)]",,100.0,,,,,,,,sub_834,2025-03-23_11h46.22.625,Reversal,2023.1.3,59.94934280524619,2,
,,,exp4.png,0,0,0,0,,,,,0,0,0,0,0,3,3,3,,,,,,,,,,,,,,,,,,,,,,,,,,,,,,,,,,,,,,319.4063827,,5.0,1.7262258999999176,"[(5.0, 1.7262258999999176)]",,,5.0,,,,,,,sub_834,2025-03-23_11h46.22.625,Reversal,2023.1.3,59.94934280524619,2,
0,exp1.png,exp2.png,,1,0,1,0,0,0,0,0,,,,,,,,,,,,,,,,,,,,,,,,,False,20,21,True,exp2.png,exp1.png,trial_right_image,-1,exp1.png,2,exp1.png,exp2.png,1,1,non-reversed,correct,0.7474823739220618,1,valid_win,202.6798157000003,14,,,,,,,,,,,,,,,sub_834,2025-03-23_11h46.22.625,Reversal,2023.1.3,59.94934280524619,2,
1,exp3.png,exp4.png,,1,0,1,0,0,1,1,1,,,,,,,,,,,,,,,,,,,,,,,,,False,21,22,False,exp3.png,exp4.png,trial_left_image,1,exp3.png,2,exp3.png,exp4.png,1,3,reversed,correct,0.289942975566189,1,valid_win,207.1952395000003,15,,,,,,,,,,,,,,,sub_834,2025-03-23_11h46.22.625,Reversal,2023.1.3,59.94934280524619,2,
2,exp1.png,exp2.png,,1,0,1,0,0,2,2,2,,,,,,,,,,,,,,,,,,,,,,,,,False,22,23,False,exp1.png,exp2.png,trial_left_image,1,exp1.png,2,exp1.png,exp2.png,1,1,non-reversed,correct,0.6624203403773122,1,valid_win,211.3938946000003,16,,,,,,,,,,,,,,,sub_834,2025-03-23_11h46.22.625,Reversal,2023.1.3,59.94934280524619,2,
3,exp3.png,exp4.png,,1,0,1,0,0,3,3,3,,,,,,,,,,,,,,,,,,,,,,,,,False,23,24,True,exp4.png,exp3.png,trial_right_image,-1,exp3.png,2,exp3.png,exp4.png,1,3,reversed,correct,0.7719937244470771,1,valid_win,215.74219200000016,17,,,,,,,,,,,,,,,sub_834,2025-03-23_11h46.22.625,Reversal,2023.1.3,59.94934280524619,2,
4,exp1.png,exp2.png,,1,0,1,0,0,4,4,4,,,,,,,,,,,,,,,,,,,,,,,,,False,24,25,True,exp2.png,exp1.png,trial_right_image,-1,exp1.png,2,exp1.png,exp2.png,1,1,non-reversed,correct,0.6449520187155853,1,valid_win,219.82435170000008,18,,,,,,,,,,,,,,,sub_834,2025-03-23_11h46.22.625,Reversal,2023.1.3,59.94934280524619,2,
5,exp3.png,exp4.png,,1,0,1,0,0,5,5,5,,,,,,,,,,,,,,,,,,,,,,,,,False,25,26,True,exp4.png,exp3.png,trial_right_image,-1,exp3.png,2,exp3.png,exp4.png,1,3,reversed,correct,0.3185211686033409,1,valid_win,223.9728258,19,,,,,,,,,,,,,,,sub_834,2025-03-23_11h46.22.625,Reversal,2023.1.3,59.94934280524619,2,
6,exp1.png,exp2.png,,1,0,1,0,0,6,6,6,,,,,,,,,,,,,,,,,,,,,,,,,False,26,27,False,exp1.png,exp2.png,trial_left_image,1,exp1.png,2,exp1.png,exp2.png,1,1,non-reversed,correct,0.9083782816119013,1,valid_win,228.18794890000026,20,,,,,,,,,,,,,,,sub_834,2025-03-23_11h46.22.625,Reversal,2023.1.3,59.94934280524619,2,
7,exp3.png,exp4.png,,1,0,1,0,0,7,7,7,,,,,,,,,,,,,,,,,,,,,,,,,False,27,28,False,exp3.png,exp4.png,trial_left_image,1,exp3.png,2,exp3.png,exp4.png,1,3,reversed,correct,0.3717940444332365,1,valid_win,232.5197189999999,21,,,,,,,,,,,,,,,sub_834,2025-03-23_11h46.22.625,Reversal,2023.1.3,59.94934280524619,2,
8,exp1.png,exp2.png,,1,0,1,0,0,8,8,8,,,,,,,,,,,,,,,,,,,,,,,,,False,28,29,False,exp1.png,exp2.png,trial_left_image,1,exp1.png,2,exp1.png,exp2.png,1,1,non-reversed,correct,0.017721135835794155,0,invalid_lose,236.60158360000014,21,,,,,,,,,,,,,,,sub_834,2025-03-23_11h46.22.625,Reversal,2023.1.3,59.94934280524619,2,
9,exp3.png,exp4.png,,1,0,1,0,0,9,9,9,,,,,,,,,,,,,,,,,,,,,,,,,False,29,30,True,exp4.png,exp3.png,trial_right_image,-1,exp3.png,2,exp3.png,exp4.png,1,3,reversed,correct,0.01562220604041209,0,invalid_lose,241.40055549999988,21,,,,,,,,,,,,,,,sub_834,2025-03-23_11h46.22.625,Reversal,2023.1.3,59.94934280524619,2,
10,exp1.png,exp2.png,,1,0,1,0,0,10,10,10,,,,,,,,,,,,,,,,,,,,,,,,,False,30,31,True,exp2.png,exp1.png,trial_left_image,1,exp2.png,2,exp1.png,exp2.png,0,2,non-reversed,incorrect,0.49334262269876095,0,valid_lose,249.13065830000005,21,,,,,,,,,,,,,,,sub_834,2025-03-23_11h46.22.625,Reversal,2023.1.3,59.94934280524619,2,
11,exp3.png,exp4.png,,1,0,1,0,0,11,11,11,,,,,,,,,,,,,,,,,,,,,,,,,False,31,32,True,exp4.png,exp3.png,trial_right_image,-1,exp3.png,2,exp3.png,exp4.png,1,3,reversed,correct,0.8562583149500448,1,valid_win,253.5293931000001,22,,,,,,,,,,,,,,,sub_834,2025-03-23_11h46.22.625,Reversal,2023.1.3,59.94934280524619,2,
12,exp1.png,exp2.png,,1,0,1,0,0,12,12,12,,,,,,,,,,,,,,,,,,,,,,,,,False,32,33,True,exp2.png,exp1.png,trial_right_image,-1,exp1.png,2,exp1.png,exp2.png,1,1,non-reversed,correct,0.7240535078303363,1,valid_win,258.34458840000025,23,,,,,,,,,,,,,,,sub_834,2025-03-23_11h46.22.625,Reversal,2023.1.3,59.94934280524619,2,
13,exp3.png,exp4.png,,1,0,1,0,0,13,13,13,,,,,,,,,,,,,,,,,,,,,,,,,False,33,34,False,exp3.png,exp4.png,trial_left_image,1,exp3.png,2,exp3.png,exp4.png,1,3,reversed,correct,0.6657854989855666,1,valid_win,262.77659300000005,24,,,,,,,,,,,,,,,sub_834,2025-03-23_11h46.22.625,Reversal,2023.1.3,59.94934280524619,2,
14,exp1.png,exp2.png,,1,0,1,0,0,14,14,14,,,,,,,,,,,,,,,,,,,,,,,,,False,34,35,False,exp1.png,exp2.png,trial_left_image,1,exp1.png,2,exp1.png,exp2.png,1,1,non-reversed,correct,0.43113570503216414,1,valid_win,267.1248473999999,25,,,,,,,,,,,,,,,sub_834,2025-03-23_11h46.22.625,Reversal,2023.1.3,59.94934280524619,2,
15,exp3.png,exp4.png,,1,0,1,0,0,15,15,15,,,,,,,,,,,,,,,,,,,,,,,,,False,35,36,False,exp3.png,exp4.png,trial_left_image,1,exp3.png,2,exp3.png,exp4.png,1,3,reversed,correct,0.5093605882276794,1,valid_win,271.24060080000027,26,,,,,,,,,,,,,,,sub_834,2025-03-23_11h46.22.625,Reversal,2023.1.3,59.94934280524619,2,
16,exp1.png,exp2.png,,1,0,1,0,0,16,16,16,,,,,,,,,,,,,,,,,,,,,,,,,False,36,37,True,exp2.png,exp1.png,trial_right_image,-1,exp1.png,2,exp1.png,exp2.png,1,1,non-reversed,correct,0.13129856419163066,0,invalid_lose,275.73831610000025,26,,,,,,,,,,,,,,,sub_834,2025-03-23_11h46.22.625,Reversal,2023.1.3,59.94934280524619,2,
17,exp3.png,exp4.png,,1,0,1,0,0,17,17,17,,,,,,,,,,,,,,,,,,,,,,,,,False,37,38,True,exp4.png,exp3.png,trial_right_image,-1,exp3.png,2,exp3.png,exp4.png,1,3,reversed,correct,0.4451079587009016,1,valid_win,280.2708200000002,27,,,,,,,,,,,,,,,sub_834,2025-03-23_11h46.22.625,Reversal,2023.1.3,59.94934280524619,2,
18,exp1.png,exp2.png,,1,0,1,0,0,18,18,18,,,,,,,,,,,,,,,,,,,,,,,,,False,38,39,False,exp1.png,exp2.png,trial_left_image,1,exp1.png,2,exp1.png,exp2.png,1,1,non-reversed,correct,0.1695580669490554,0,invalid_lose,284.5525826000003,27,,,,,,,,,,,,,,,sub_834,2025-03-23_11h46.22.625,Reversal,2023.1.3,59.94934280524619,2,
19,exp3.png,exp4.png,,1,0,1,0,0,19,19,19,,,,,,,,,,,,,,,,,,,,,,,,,False,39,40,False,exp3.png,exp4.png,trial_left_image,1,exp3.png,2,exp3.png,exp4.png,1,3,reversed,correct,0.6115884075620601,1,valid_win,288.76761080000006,28,,,,,,,,,,,,,,,sub_834,2025-03-23_11h46.22.625,Reversal,2023.1.3,59.94934280524619,2,
20,exp1.png,exp2.png,,1,0,1,0,0,20,20,20,,,,,,,,,,,,,,,,,,,,,,,,,True,,,,,,,,,,,,,,,,,,,,,,,,,,,,,,,,,,,sub_834,2025-03-23_11h46.22.625,Reversal,2023.1.3,59.94934280524619,2,
,,,exp1.png,1,0,1,0,,,,,0,0,0,0,0,0,0,0,,,,,,,,,,,,,,,,,,,,,,,,,,,,,,,,,,,,,,413.2462409,98.0,98.0,4.540334599999824,"[(98.0, 4.540334599999824)]",,,,,,,,,,sub_834,2025-03-23_11h46.22.625,Reversal,2023.1.3,59.94934280524619,2,
,,,exp2.png,1,0,1,0,,,,,0,0,0,0,0,1,1,1,,,,,,,,,,,,,,,,,,,,,,,,,,,,,,,,,,,,,,418.5553904999997,,None,None,[],,,,,,,,,,sub_834,2025-03-23_11h46.22.625,Reversal,2023.1.3,59.94934280524619,2,
,,,exp3.png,1,0,1,0,,,,,0,0,0,0,0,2,2,2,,,,,,,,,,,,,,,,,,,,,,,,,,,,,,,,,,,,,,419.0199773999998,,93.0,5.6264742000003025,"[(93.0, 5.6264742000003025)]",,93.0,,,,,,,,sub_834,2025-03-23_11h46.22.625,Reversal,2023.1.3,59.94934280524619,2,
,,,exp4.png,1,0,1,0,,,,,0,0,0,0,0,3,3,3,,,,,,,,,,,,,,,,,,,,,,,,,,,,,,,,,,,,,,425.6865121999999,,1.0,1.926565500000379,"[(1.0, 1.926565500000379)]",,,1.0,,,,,,,sub_834,2025-03-23_11h46.22.625,Reversal,2023.1.3,59.94934280524619,2,
0,exp1.png,exp2.png,,2,0,2,0,0,0,0,0,,,,,,,,,,,,,,,,,,,,,,,,,False,40,41,True,exp2.png,exp1.png,trial_right_image,-1,exp1.png,2,exp1.png,exp2.png,1,1,non-reversed,correct,0.19081683647406722,0,invalid_lose,310.36053889999994,28,,,,,,,,,,,,,,,sub_834,2025-03-23_11h46.22.625,Reversal,2023.1.3,59.94934280524619,2,
1,exp3.png,exp4.png,,2,0,2,0,0,1,1,1,,,,,,,,,,,,,,,,,,,,,,,,,False,41,42,False,exp3.png,exp4.png,trial_left_image,1,exp3.png,2,exp3.png,exp4.png,1,3,reversed,correct,0.9143839268306929,1,valid_win,315.9085207000003,29,,,,,,,,,,,,,,,sub_834,2025-03-23_11h46.22.625,Reversal,2023.1.3,59.94934280524619,2,
2,exp1.png,exp2.png,,2,0,2,0,0,2,2,2,,,,,,,,,,,,,,,,,,,,,,,,,False,42,43,True,exp2.png,exp1.png,trial_right_image,-1,exp1.png,2,exp1.png,exp2.png,1,1,non-reversed,correct,0.25831689004149216,1,valid_win,320.94048280000015,30,,,,,,,,,,,,,,,sub_834,2025-03-23_11h46.22.625,Reversal,2023.1.3,59.94934280524619,2,
3,exp3.png,exp4.png,,2,0,2,0,0,3,3,3,,,,,,,,,,,,,,,,,,,,,,,,,False,43,44,False,exp3.png,exp4.png,trial_right_image,-1,exp4.png,2,exp3.png,exp4.png,0,4,reversed,incorrect,0.1812433473487921,1,invalid_win,328.0207584,31,,,,,,,,,,,,,,,sub_834,2025-03-23_11h46.22.625,Reversal,2023.1.3,59.94934280524619,2,
4,exp1.png,exp2.png,,2,0,2,0,0,4,4,4,,,,,,,,,,,,,,,,,,,,,,,,,False,44,45,False,exp1.png,exp2.png,trial_left_image,1,exp1.png,2,exp1.png,exp2.png,1,1,non-reversed,correct,0.14682648834544454,0,invalid_lose,332.78596590000006,31,,,,,,,,,,,,,,,sub_834,2025-03-23_11h46.22.625,Reversal,2023.1.3,59.94934280524619,2,
5,exp3.png,exp4.png,,2,0,2,0,0,5,5,5,,,,,,,,,,,,,,,,,,,,,,,,,False,45,46,True,exp4.png,exp3.png,trial_right_image,-1,exp3.png,2,exp3.png,exp4.png,1,3,reversed,correct,0.2667609441445883,1,valid_win,339.11695899999995,32,,,,,,,,,,,,,,,sub_834,2025-03-23_11h46.22.625,Reversal,2023.1.3,59.94934280524619,2,
6,exp1.png,exp2.png,,2,0,2,0,0,6,6,6,,,,,,,,,,,,,,,,,,,,,,,,,False,46,47,False,exp1.png,exp2.png,trial_right_image,-1,exp2.png,2,exp1.png,exp2.png,0,2,non-reversed,incorrect,0.944518403476248,0,valid_lose,343.73223770000004,32,,,,,,,,,,,,,,,sub_834,2025-03-23_11h46.22.625,Reversal,2023.1.3,59.94934280524619,2,
7,exp3.png,exp4.png,,2,0,2,0,0,7,7,7,,,,,,,,,,,,,,,,,,,,,,,,,False,47,48,True,exp4.png,exp3.png,trial_right_image,-1,exp3.png,2,exp3.png,exp4.png,1,3,reversed,correct,0.6760128979113004,1,valid_win,348.6481220999999,33,,,,,,,,,,,,,,,sub_834,2025-03-23_11h46.22.625,Reversal,2023.1.3,59.94934280524619,2,
8,exp1.png,exp2.png,,2,0,2,0,0,8,8,8,,,,,,,,,,,,,,,,,,,,,,,,,False,48,49,False,exp1.png,exp2.png,trial_right_image,-1,exp2.png,2,exp1.png,exp2.png,0,2,non-reversed,incorrect,0.6429653215747105,0,valid_lose,353.7121420000003,33,,,,,,,,,,,,,,,sub_834,2025-03-23_11h46.22.625,Reversal,2023.1.3,59.94934280524619,2,
9,exp3.png,exp4.png,,2,0,2,0,0,9,9,9,,,,,,,,,,,,,,,,,,,,,,,,,False,49,50,True,exp4.png,exp3.png,trial_right_image,-1,exp3.png,2,exp3.png,exp4.png,1,3,reversed,correct,0.11850139438166107,0,invalid_lose,358.3440177000002,33,,,,,,,,,,,,,,,sub_834,2025-03-23_11h46.22.625,Reversal,2023.1.3,59.94934280524619,2,
10,exp1.png,exp2.png,,2,0,2,0,0,10,10,10,,,,,,,,,,,,,,,,,,,,,,,,,False,50,51,False,exp1.png,exp2.png,trial_left_image,1,exp1.png,2,exp1.png,exp2.png,1,1,non-reversed,correct,0.7389528517672466,1,valid_win,363.9088961000002,34,,,,,,,,,,,,,,,sub_834,2025-03-23_11h46.22.625,Reversal,2023.1.3,59.94934280524619,2,
11,exp3.png,exp4.png,,2,0,2,0,0,11,11,11,,,,,,,,,,,,,,,,,,,,,,,,,False,51,52,True,exp4.png,exp3.png,trial_right_image,-1,exp3.png,2,exp3.png,exp4.png,1,3,reversed,correct,0.06480844069295044,0,invalid_lose,368.8405071000002,34,,,,,,,,,,,,,,,sub_834,2025-03-23_11h46.22.625,Reversal,2023.1.3,59.94934280524619,2,
12,exp1.png,exp2.png,,2,0,2,0,0,12,12,12,,,,,,,,,,,,,,,,,,,,,,,,,False,52,53,False,exp1.png,exp2.png,trial_left_image,1,exp1.png,2,exp1.png,exp2.png,1,1,non-reversed,correct,0.46602195436140637,1,valid_win,374.9882845000002,35,,,,,,,,,,,,,,,sub_834,2025-03-23_11h46.22.625,Reversal,2023.1.3,59.94934280524619,2,
13,exp3.png,exp4.png,,2,0,2,0,0,13,13,13,,,,,,,,,,,,,,,,,,,,,,,,,False,53,54,True,exp4.png,exp3.png,trial_right_image,-1,exp3.png,2,exp3.png,exp4.png,1,3,reversed,correct,0.27261192582216975,1,valid_win,384.83470239999997,36,,,,,,,,,,,,,,,sub_834,2025-03-23_11h46.22.625,Reversal,2023.1.3,59.94934280524619,2,
14,exp1.png,exp2.png,,2,0,2,0,0,14,14,14,,,,,,,,,,,,,,,,,,,,,,,,,False,54,55,True,exp2.png,exp1.png,trial_left_image,1,exp2.png,2,exp1.png,exp2.png,0,2,non-reversed,incorrect,0.29920897882002784,0,valid_lose,392.89879500000006,36,,,,,,,,,,,,,,,sub_834,2025-03-23_11h46.22.625,Reversal,2023.1.3,59.94934280524619,2,
15,exp3.png,exp4.png,,2,0,2,0,0,15,15,15,,,,,,,,,,,,,,,,,,,,,,,,,False,55,56,False,exp3.png,exp4.png,trial_left_image,1,exp3.png,2,exp3.png,exp4.png,1,3,reversed,correct,0.054039992512525004,0,invalid_lose,397.3140241000001,36,,,,,,,,,,,,,,,sub_834,2025-03-23_11h46.22.625,Reversal,2023.1.3,59.94934280524619,2,
16,exp1.png,exp2.png,,2,0,2,0,0,16,16,16,,,,,,,,,,,,,,,,,,,,,,,,,False,56,57,False,exp1.png,exp2.png,trial_left_image,1,exp1.png,2,exp1.png,exp2.png,1,1,non-reversed,correct,0.5988664028866629,1,valid_win,401.8299351999999,37,,,,,,,,,,,,,,,sub_834,2025-03-23_11h46.22.625,Reversal,2023.1.3,59.94934280524619,2,
17,exp3.png,exp4.png,,2,0,2,0,0,17,17,17,,,,,,,,,,,,,,,,,,,,,,,,,False,57,58,True,exp4.png,exp3.png,trial_right_image,-1,exp3.png,2,exp3.png,exp4.png,1,3,reversed,correct,0.12989364445023,0,invalid_lose,407.54363220000005,37,,,,,,,,,,,,,,,sub_834,2025-03-23_11h46.22.625,Reversal,2023.1.3,59.94934280524619,2,
18,exp1.png,exp2.png,,2,0,2,0,0,18,18,18,,,,,,,,,,,,,,,,,,,,,,,,,False,58,59,True,exp2.png,exp1.png,trial_right_image,-1,exp1.png,2,exp1.png,exp2.png,1,1,non-reversed,correct,0.7642562576998135,1,valid_win,412.12547429999995,38,,,,,,,,,,,,,,,sub_834,2025-03-23_11h46.22.625,Reversal,2023.1.3,59.94934280524619,2,
19,exp3.png,exp4.png,,2,0,2,0,0,19,19,19,,,,,,,,,,,,,,,,,,,,,,,,,False,59,60,False,exp3.png,exp4.png,trial_left_image,1,exp3.png,2,exp3.png,exp4.png,1,3,reversed,correct,0.9931482521831483,1,valid_win,417.07367680000016,39,,,,,,,,,,,,,,,sub_834,2025-03-23_11h46.22.625,Reversal,2023.1.3,59.94934280524619,2,
20,exp1.png,exp2.png,,2,0,2,0,0,20,20,20,,,,,,,,,,,,,,,,,,,,,,,,,True,,,,,,,,,,,,,,,,,,,,,,,,,,,,,,,,,,,sub_834,2025-03-23_11h46.22.625,Reversal,2023.1.3,59.94934280524619,2,
,,,exp1.png,2,0,2,0,,,,,0,0,0,0,0,0,0,0,,,,,,,,,,,,,,,,,,,,,,,,,,,,,,,,,,,,,,541.5567192999997,92.0,92.0,5.837000899999566,"[(92.0, 5.837000899999566)]",,,,,,,,,,sub_834,2025-03-23_11h46.22.625,Reversal,2023.1.3,59.94934280524619,2,
,,,exp2.png,2,0,2,0,,,,,0,0,0,0,0,1,1,1,,,,,,,,,,,,,,,,,,,,,,,,,,,,,,,,,,,,,,548.6934988999997,,1.0,3.2290491000003385,"[(7.0, 2.211829100000159), (1.0, 3.2290491000003385)]",1.0,,,,,,,,,sub_834,2025-03-23_11h46.22.625,Reversal,2023.1.3,59.94934280524619,2,
,,,exp3.png,2,0,2,0,,,,,0,0,0,0,0,2,2,2,,,,,,,,,,,,,,,,,,,,,,,,,,,,,,,,,,,,,,553.1086554999997,,94.0,3.510897699999987,"[(94.0, 3.510897699999987)]",,94.0,,,,,,,,sub_834,2025-03-23_11h46.22.625,Reversal,2023.1.3,59.94934280524619,2,
,,,exp4.png,2,0,2,0,,,,,0,0,0,0,0,3,3,3,,,,,,,,,,,,,,,,,,,,,,,,,,,,,,,,,,,,,,557.9725438999999,,6.0,4.310730100000001,"[(6.0, 4.310730100000001)]",,,6.0,,,,,,,sub_834,2025-03-23_11h46.22.625,Reversal,2023.1.3,59.94934280524619,2,
0,exp1.png,exp2.png,,,,,,,,,,,,,,,,,,0,0,0,0,0,0,0,0,,,,,,,,,False,0,61,False,exp1.png,exp2.png,trial_left_image,1,exp1.png,2,exp1.png,exp2.png,1,1,non-reversed,correct,0.4664487122559762,1,valid_win,448.38026519999994,40,,,,,,,,,441.72323110000025,,,,,,sub_834,2025-03-23_11h46.22.625,Reversal,2023.1.3,59.94934280524619,2,
1,exp3.png,exp4.png,,,,,,,,,,,,,,,,,,0,0,0,0,0,1,1,1,,,,,,,,,False,1,62,True,exp4.png,exp3.png,trial_right_image,-1,exp3.png,2,exp4.png,exp3.png,1,3,reversed,incorrect,0.34829516958691265,0,valid_lose,456.04398470000024,40,,,,,,,,,,,,,,,sub_834,2025-03-23_11h46.22.625,Reversal,2023.1.3,59.94934280524619,2,
2,exp1.png,exp2.png,,,,,,,,,,,,,,,,,,0,0,0,0,0,2,2,2,,,,,,,,,False,2,63,False,exp1.png,exp2.png,trial_left_image,1,exp1.png,2,exp1.png,exp2.png,1,1,non-reversed,correct,0.3847765412367605,1,valid_win,463.5416167000003,41,,,,,,,,,,,,,,,sub_834,2025-03-23_11h46.22.625,Reversal,2023.1.3,59.94934280524619,2,
3,exp3.png,exp4.png,,,,,,,,,,,,,,,,,,0,0,0,0,0,3,3,3,,,,,,,,,False,3,64,False,exp3.png,exp4.png,trial_right_image,-1,exp4.png,2,exp4.png,exp3.png,0,4,reversed,correct,0.4461457710286063,1,valid_win,470.2725005000002,42,,,,,,,,,,,,,,,sub_834,2025-03-23_11h46.22.625,Reversal,2023.1.3,59.94934280524619,2,
4,exp1.png,exp2.png,,,,,,,,,,,,,,,,,,0,0,0,0,0,4,4,4,,,,,,,,,False,4,65,True,exp2.png,exp1.png,trial_right_image,-1,exp1.png,2,exp1.png,exp2.png,1,1,non-reversed,correct,0.5515807919471029,1,valid_win,475.7709073000001,43,,,,,,,,,,,,,,,sub_834,2025-03-23_11h46.22.625,Reversal,2023.1.3,59.94934280524619,2,
5,exp3.png,exp4.png,,,,,,,,,,,,,,,,,,0,0,0,0,0,5,5,5,,,,,,,,,False,5,66,True,exp4.png,exp3.png,trial_left_image,1,exp4.png,2,exp4.png,exp3.png,0,4,reversed,correct,0.6817574172522242,1,valid_win,481.26910369999996,44,,,,,,,,,,,,,,,sub_834,2025-03-23_11h46.22.625,Reversal,2023.1.3,59.94934280524619,2,
6,exp1.png,exp2.png,,,,,,,,,,,,,,,,,,0,0,0,0,0,6,6,6,,,,,,,,,False,6,67,False,exp1.png,exp2.png,trial_left_image,1,exp1.png,2,exp1.png,exp2.png,1,1,non-reversed,correct,0.47799736364343814,1,valid_win,486.91671320000023,45,,,,,,,,,,,,,,,sub_834,2025-03-23_11h46.22.625,Reversal,2023.1.3,59.94934280524619,2,
7,exp3.png,exp4.png,,,,,,,,,,,,,,,,,,0,0,0,0,0,7,7,7,,,,,,,,,False,7,68,True,exp4.png,exp3.png,trial_left_image,1,exp4.png,2,exp4.png,exp3.png,0,4,reversed,correct,0.963178094060681,1,valid_win,491.9487541000003,46,,,,,,,,,,,,,,,sub_834,2025-03-23_11h46.22.625,Reversal,2023.1.3,59.94934280524619,2,
8,exp1.png,exp2.png,,,,,,,,,,,,,,,,,,0,0,0,0,0,8,8,8,,,,,,,,,False,8,69,False,exp1.png,exp2.png,trial_left_image,1,exp1.png,2,exp1.png,exp2.png,1,1,non-reversed,correct,0.12423605898811718,0,invalid_lose,497.8632957,46,,,,,,,,,,,,,,,sub_834,2025-03-23_11h46.22.625,Reversal,2023.1.3,59.94934280524619,2,
9,exp3.png,exp4.png,,,,,,,,,,,,,,,,,,0,0,0,0,0,9,9,9,,,,,,,,,False,9,70,False,exp3.png,exp4.png,trial_right_image,-1,exp4.png,2,exp4.png,exp3.png,0,4,reversed,correct,0.07028278546745192,0,invalid_lose,505.26080249999995,46,,,,,,,,,,,,,,,sub_834,2025-03-23_11h46.22.625,Reversal,2023.1.3,59.94934280524619,2,
10,exp1.png,exp2.png,,,,,,,,,,,,,,,,,,0,0,0,0,0,10,10,10,,,,,,,,,False,10,71,True,exp2.png,exp1.png,trial_right_image,-1,exp1.png,2,exp1.png,exp2.png,1,1,non-reversed,correct,0.5527666233218009,1,valid_win,511.42529590000004,47,,,,,,,,,,,,,,,sub_834,2025-03-23_11h46.22.625,Reversal,2023.1.3,59.94934280524619,2,
11,exp3.png,exp4.png,,,,,,,,,,,,,,,,,,0,0,0,0,0,11,11,11,,,,,,,,,False,11,72,True,exp4.png,exp3.png,trial_left_image,1,exp4.png,2,exp4.png,exp3.png,0,4,reversed,correct,0.6323368815525072,1,valid_win,517.6562678999999,48,,,,,,,,,,,,,,,sub_834,2025-03-23_11h46.22.625,Reversal,2023.1.3,59.94934280524619,2,
12,exp1.png,exp2.png,,,,,,,,,,,,,,,,,,0,0,0,0,0,12,12,12,,,,,,,,,False,12,73,True,exp2.png,exp1.png,trial_right_image,-1,exp1.png,2,exp1.png,exp2.png,1,1,non-reversed,correct,0.9894449921338667,1,valid_win,523.2714605000001,49,,,,,,,,,,,,,,,sub_834,2025-03-23_11h46.22.625,Reversal,2023.1.3,59.94934280524619,2,
13,exp3.png,exp4.png,,,,,,,,,,,,,,,,,,0,0,0,0,0,13,13,13,,,,,,,,,False,13,74,False,exp3.png,exp4.png,trial_right_image,-1,exp4.png,2,exp4.png,exp3.png,0,4,reversed,correct,0.5565908205499648,1,valid_win,529.5522743000001,50,,,,,,,,,,,,,,,sub_834,2025-03-23_11h46.22.625,Reversal,2023.1.3,59.94934280524619,2,
14,exp1.png,exp2.png,,,,,,,,,,,,,,,,,,0,0,0,0,0,14,14,14,,,,,,,,,False,14,75,False,exp1.png,exp2.png,trial_right_image,-1,exp2.png,2,exp1.png,exp2.png,0,2,non-reversed,incorrect,0.4075726965567448,0,valid_lose,537.4496192000001,50,,,,,,,,,,,,,,,sub_834,2025-03-23_11h46.22.625,Reversal,2023.1.3,59.94934280524619,2,
15,exp3.png,exp4.png,,,,,,,,,,,,,,,,,,0,0,0,0,0,15,15,15,,,,,,,,,False,15,76,True,exp4.png,exp3.png,trial_left_image,1,exp4.png,2,exp4.png,exp3.png,0,4,reversed,correct,0.991653139676206,1,valid_win,542.6976619000002,51,,,,,,,,,,,,,,,sub_834,2025-03-23_11h46.22.625,Reversal,2023.1.3,59.94934280524619,2,
16,exp1.png,exp2.png,,,,,,,,,,,,,,,,,,0,0,0,0,0,16,16,16,,,,,,,,,False,16,77,False,exp1.png,exp2.png,trial_left_image,1,exp1.png,2,exp1.png,exp2.png,1,1,non-reversed,correct,0.8274167521680257,1,valid_win,549.1621835999999,52,,,,,,,,,,,,,,,sub_834,2025-03-23_11h46.22.625,Reversal,2023.1.3,59.94934280524619,2,
17,exp3.png,exp4.png,,,,,,,,,,,,,,,,,,0,0,0,0,0,17,17,17,,,,,,,,,False,17,78,False,exp3.png,exp4.png,trial_right_image,-1,exp4.png,2,exp4.png,exp3.png,0,4,reversed,correct,0.17811069866576268,0,invalid_lose,554.1938125000001,52,,,,,,,,,,,,,,,sub_834,2025-03-23_11h46.22.625,Reversal,2023.1.3,59.94934280524619,2,
18,exp1.png,exp2.png,,,,,,,,,,,,,,,,,,0,0,0,0,0,18,18,18,,,,,,,,,False,18,79,True,exp2.png,exp1.png,trial_right_image,-1,exp1.png,2,exp1.png,exp2.png,1,1,non-reversed,correct,0.30134121974934835,1,valid_win,560.9581326000002,53,,,,,,,,,,,,,,,sub_834,2025-03-23_11h46.22.625,Reversal,2023.1.3,59.94934280524619,2,
19,exp3.png,exp4.png,,,,,,,,,,,,,,,,,,0,0,0,0,0,19,19,19,,,,,,,,,False,19,80,True,exp4.png,exp3.png,trial_right_image,-1,exp3.png,2,exp4.png,exp3.png,1,3,reversed,incorrect,0.03178042957927707,1,invalid_win,567.9392062000002,54,,,,,,,,,,,,,,,sub_834,2025-03-23_11h46.22.625,Reversal,2023.1.3,59.94934280524619,2,
20,exp1.png,exp2.png,,,,,,,,,,,,,,,,,,0,0,0,0,0,20,20,20,,,,,,,,,True,,,,,,,,,,,,,,,,,,,,,,,,,,,,,,,,,,,sub_834,2025-03-23_11h46.22.625,Reversal,2023.1.3,59.94934280524619,2,
,,,exp1.png,,,,,,,,,,,,,,,,,0,0,0,0,,,,,0,0,0,0,0,0,0,0,,,,,,,,,,,,,,,,,,,,,,692.4111383,95.0,95.0,4.512841499999922,"[(95.0, 4.512841499999922)]",,,,,,,,,,sub_834,2025-03-23_11h46.22.625,Reversal,2023.1.3,59.94934280524619,2,
,,,exp2.png,,,,,,,,,,,,,,,,,0,0,0,0,,,,,0,0,0,0,0,1,1,1,,,,,,,,,,,,,,,,,,,,,,698.0271665,,94.0,3.8438851000000795,"[(94.0, 3.8438851000000795)]",94.0,,,,,,,,,sub_834,2025-03-23_11h46.22.625,Reversal,2023.1.3,59.94934280524619,2,
,,,exp3.png,,,,,,,,,,,,,,,,,0,0,0,0,,,,,0,0,0,0,0,2,2,2,,,,,,,,,,,,,,,,,,,,,,703.1087195,,96.0,2.660141199999998,"[(96.0, 2.660141199999998)]",,96.0,,,,,,,,sub_834,2025-03-23_11h46.22.625,Reversal,2023.1.3,59.94934280524619,2,
,,,exp4.png,,,,,,,,,,,,,,,,,0,0,0,0,,,,,0,0,0,0,0,3,3,3,,,,,,,,,,,,,,,,,,,,,,706.8253009999999,,6.0,2.0103288999998767,"[(6.0, 2.0103288999998767)]",,,6.0,,,,,,,sub_834,2025-03-23_11h46.22.625,Reversal,2023.1.3,59.94934280524619,2,
0,exp1.png,exp2.png,,,,,,,,,,,,,,,,,,1,0,1,0,0,0,0,0,,,,,,,,,False,20,81,False,exp1.png,exp2.png,trial_left_image,1,exp1.png,2,exp1.png,exp2.png,1,1,non-reversed,correct,0.14442712232270305,0,invalid_lose,590.7146917,54,,,,,,,,,,,,,,,sub_834,2025-03-23_11h46.22.625,Reversal,2023.1.3,59.94934280524619,2,
1,exp3.png,exp4.png,,,,,,,,,,,,,,,,,,1,0,1,0,0,1,1,1,,,,,,,,,False,21,82,True,exp4.png,exp3.png,trial_left_image,1,exp4.png,2,exp4.png,exp3.png,0,4,reversed,correct,0.5450640145111282,1,valid_win,595.8467353000001,55,,,,,,,,,,,,,,,sub_834,2025-03-23_11h46.22.625,Reversal,2023.1.3,59.94934280524619,2,
2,exp1.png,exp2.png,,,,,,,,,,,,,,,,,,1,0,1,0,0,2,2,2,,,,,,,,,False,22,83,True,exp2.png,exp1.png,trial_right_image,-1,exp1.png,2,exp1.png,exp2.png,1,1,non-reversed,correct,0.04826899056380951,0,invalid_lose,601.2611891000001,55,,,,,,,,,,,,,,,sub_834,2025-03-23_11h46.22.625,Reversal,2023.1.3,59.94934280524619,2,
3,exp3.png,exp4.png,,,,,,,,,,,,,,,,,,1,0,1,0,0,3,3,3,,,,,,,,,False,23,84,False,exp3.png,exp4.png,trial_right_image,-1,exp4.png,2,exp4.png,exp3.png,0,4,reversed,correct,0.5565547767618674,1,valid_win,605.1933915,56,,,,,,,,,,,,,,,sub_834,2025-03-23_11h46.22.625,Reversal,2023.1.3,59.94934280524619,2,
4,exp1.png,exp2.png,,,,,,,,,,,,,,,,,,1,0,1,0,0,4,4,4,,,,,,,,,False,24,85,True,exp2.png,exp1.png,trial_right_image,-1,exp1.png,2,exp1.png,exp2.png,1,1,non-reversed,correct,0.9379921304338854,1,valid_win,612.8070495000002,57,,,,,,,,,,,,,,,sub_834,2025-03-23_11h46.22.625,Reversal,2023.1.3,59.94934280524619,2,
5,exp3.png,exp4.png,,,,,,,,,,,,,,,,,,1,0,1,0,0,5,5,5,,,,,,,,,False,25,86,True,exp4.png,exp3.png,trial_left_image,1,exp4.png,2,exp4.png,exp3.png,0,4,reversed,correct,0.5787001480449503,1,valid_win,619.9388607999999,58,,,,,,,,,,,,,,,sub_834,2025-03-23_11h46.22.625,Reversal,2023.1.3,59.94934280524619,2,
6,exp1.png,exp2.png,,,,,,,,,,,,,,,,,,1,0,1,0,0,6,6,6,,,,,,,,,False,26,87,True,exp2.png,exp1.png,trial_right_image,-1,exp1.png,2,exp1.png,exp2.png,1,1,non-reversed,correct,0.5982691556449092,1,valid_win,625.4032903000002,59,,,,,,,,,,,,,,,sub_834,2025-03-23_11h46.22.625,Reversal,2023.1.3,59.94934280524619,2,
7,exp3.png,exp4.png,,,,,,,,,,,,,,,,,,1,0,1,0,0,7,7,7,,,,,,,,,False,27,88,False,exp3.png,exp4.png,trial_right_image,-1,exp4.png,2,exp4.png,exp3.png,0,4,reversed,correct,0.22866285648299844,0,invalid_lose,631.0179515,59,,,,,,,,,,,,,,,sub_834,2025-03-23_11h46.22.625,Reversal,2023.1.3,59.94934280524619,2,
8,exp1.png,exp2.png,,,,,,,,,,,,,,,,,,1,0,1,0,0,8,8,8,,,,,,,,,False,28,89,True,exp2.png,exp1.png,trial_right_image,-1,exp1.png,2,exp1.png,exp2.png,1,1,non-reversed,correct,0.12037509618797015,0,invalid_lose,637.3824391000003,59,,,,,,,,,,,,,,,sub_834,2025-03-23_11h46.22.625,Reversal,2023.1.3,59.94934280524619,2,
9,exp3.png,exp4.png,,,,,,,,,,,,,,,,,,1,0,1,0,0,9,9,9,,,,,,,,,False,29,90,False,exp3.png,exp4.png,trial_left_image,1,exp3.png,2,exp4.png,exp3.png,1,3,reversed,incorrect,0.7960647614968243,0,valid_lose,641.6642584000001,59,,,,,,,,,,,,,,,sub_834,2025-03-23_11h46.22.625,Reversal,2023.1.3,59.94934280524619,2,
10,exp1.png,exp2.png,,,,,,,,,,,,,,,,,,1,0,1,0,0,10,10,10,,,,,,,,,False,30,91,False,exp1.png,exp2.png,trial_left_image,1,exp1.png,2,exp1.png,exp2.png,1,1,non-reversed,correct,0.340133532488164,1,valid_win,646.0461848,60,,,,,,,,,,,,,,,sub_834,2025-03-23_11h46.22.625,Reversal,2023.1.3,59.94934280524619,2,
11,exp3.png,exp4.png,,,,,,,,,,,,,,,,,,1,0,1,0,0,11,11,11,,,,,,,,,False,31,92,True,exp4.png,exp3.png,trial_right_image,-1,exp3.png,2,exp4.png,exp3.png,1,3,reversed,incorrect,0.5753543574236474,0,valid_lose,652.5438712,60,,,,,,,,,,,,,,,sub_834,2025-03-23_11h46.22.625,Reversal,2023.1.3,59.94934280524619,2,
12,exp1.png,exp2.png,,,,,,,,,,,,,,,,,,1,0,1,0,0,12,12,12,,,,,,,,,False,32,93,True,exp2.png,exp1.png,trial_right_image,-1,exp1.png,2,exp1.png,exp2.png,1,1,non-reversed,correct,0.9132003073434608,1,valid_win,657.1928668,61,,,,,,,,,,,,,,,sub_834,2025-03-23_11h46.22.625,Reversal,2023.1.3,59.94934280524619,2,
13,exp3.png,exp4.png,,,,,,,,,,,,,,,,,,1,0,1,0,0,13,13,13,,,,,,,,,False,33,94,True,exp4.png,exp3.png,trial_left_image,1,exp4.png,2,exp4.png,exp3.png,0,4,reversed,correct,0.7360602602774375,1,valid_win,664.4897473999999,62,,,,,,,,,,,,,,,sub_834,2025-03-23_11h46.22.625,Reversal,2023.1.3,59.94934280524619,2,
14,exp1.png,exp2.png,,,,,,,,,,,,,,,,,,1,0,1,0,0,14,14,14,,,,,,,,,False,34,95,False,exp1.png,exp2.png,trial_left_image,1,exp1.png,2,exp1.png,exp2.png,1,1,non-reversed,correct,0.49588009992763626,1,valid_win,669.2547400000003,63,,,,,,,,,,,,,,,sub_834,2025-03-23_11h46.22.625,Reversal,2023.1.3,59.94934280524619,2,
15,exp3.png,exp4.png,,,,,,,,,,,,,,,,,,1,0,1,0,0,15,15,15,,,,,,,,,False,35,96,True,exp4.png,exp3.png,trial_left_image,1,exp4.png,2,exp4.png,exp3.png,0,4,reversed,correct,0.005345038151205017,0,invalid_lose,675.486386,63,,,,,,,,,,,,,,,sub_834,2025-03-23_11h46.22.625,Reversal,2023.1.3,59.94934280524619,2,
16,exp1.png,exp2.png,,,,,,,,,,,,,,,,,,1,0,1,0,0,16,16,16,,,,,,,,,False,36,97,False,exp1.png,exp2.png,trial_left_image,1,exp1.png,2,exp1.png,exp2.png,1,1,non-reversed,correct,0.058640726511865915,0,invalid_lose,679.8679099999999,63,,,,,,,,,,,,,,,sub_834,2025-03-23_11h46.22.625,Reversal,2023.1.3,59.94934280524619,2,
17,exp3.png,exp4.png,,,,,,,,,,,,,,,,,,1,0,1,0,0,17,17,17,,,,,,,,,False,37,98,False,exp3.png,exp4.png,trial_right_image,-1,exp4.png,2,exp4.png,exp3.png,0,4,reversed,correct,0.08946827439882798,0,invalid_lose,684.4499613000003,63,,,,,,,,,,,,,,,sub_834,2025-03-23_11h46.22.625,Reversal,2023.1.3,59.94934280524619,2,
18,exp1.png,exp2.png,,,,,,,,,,,,,,,,,,1,0,1,0,0,18,18,18,,,,,,,,,False,38,99,False,exp1.png,exp2.png,trial_right_image,-1,exp2.png,2,exp1.png,exp2.png,0,2,non-reversed,incorrect,0.9631432249767863,0,valid_lose,689.3981879000003,63,,,,,,,,,,,,,,,sub_834,2025-03-23_11h46.22.625,Reversal,2023.1.3,59.94934280524619,2,
19,exp3.png,exp4.png,,,,,,,,,,,,,,,,,,1,0,1,0,0,19,19,19,,,,,,,,,False,39,100,False,exp3.png,exp4.png,trial_left_image,1,exp3.png,2,exp4.png,exp3.png,1,3,reversed,incorrect,0.7262415725505529,0,valid_lose,694.7796592,63,,,,,,,,,,,,,,,sub_834,2025-03-23_11h46.22.625,Reversal,2023.1.3,59.94934280524619,2,
20,exp1.png,exp2.png,,,,,,,,,,,,,,,,,,1,0,1,0,0,20,20,20,,,,,,,,,True,,,,,,,,,,,,,,,,,,,,,,,,,,,,,,,,,,,sub_834,2025-03-23_11h46.22.625,Reversal,2023.1.3,59.94934280524619,2,
,,,exp1.png,,,,,,,,,,,,,,,,,1,0,1,0,,,,,0,0,0,0,0,0,0,0,,,,,,,,,,,,,,,,,,,,,,819.2553287999999,86.0,86.0,2.5941468999999415,"[(86.0, 2.5941468999999415)]",,,,,,,,,,sub_834,2025-03-23_11h46.22.625,Reversal,2023.1.3,59.94934280524619,2,
,,,exp2.png,,,,,,,,,,,,,,,,,1,0,1,0,,,,,0,0,0,0,0,1,1,1,,,,,,,,,,,,,,,,,,,,,,822.7698044999997,,15.0,1.158888399999796,"[(15.0, 1.158888399999796)]",15.0,,,,,,,,,sub_834,2025-03-23_11h46.22.625,Reversal,2023.1.3,59.94934280524619,2,
,,,exp3.png,,,,,,,,,,,,,,,,,1,0,1,0,,,,,0,0,0,0,0,2,2,2,,,,,,,,,,,,,,,,,,,,,,824.9668057999997,,81.0,1.8110419999998157,"[(81.0, 1.8110419999998157)]",,81.0,,,,,,,,sub_834,2025-03-23_11h46.22.625,Reversal,2023.1.3,59.94934280524619,2,
,,,exp4.png,,,,,,,,,,,,,,,,,1,0,1,0,,,,,0,0,0,0,0,3,3,3,,,,,,,,,,,,,,,,,,,,,,827.6665644,,86.0,1.427732300000116,"[(86.0, 1.427732300000116)]",,,86.0,,,,,,,sub_834,2025-03-23_11h46.22.625,Reversal,2023.1.3,59.94934280524619,2,
0,exp1.png,exp2.png,,,,,,,,,,,,,,,,,,2,0,2,0,0,0,0,0,,,,,,,,,False,40,101,True,exp2.png,exp1.png,trial_right_image,-1,exp1.png,2,exp1.png,exp2.png,1,1,non-reversed,correct,0.37946601392581925,1,valid_win,710.4749270000002,64,,,,,,,,,,,,,,,sub_834,2025-03-23_11h46.22.625,Reversal,2023.1.3,59.94934280524619,2,
1,exp3.png,exp4.png,,,,,,,,,,,,,,,,,,2,0,2,0,0,1,1,1,,,,,,,,,False,41,102,True,exp4.png,exp3.png,trial_left_image,1,exp4.png,2,exp4.png,exp3.png,0,4,reversed,correct,0.21756793486055426,0,invalid_lose,716.6051388000001,64,,,,,,,,,,,,,,,sub_834,2025-03-23_11h46.22.625,Reversal,2023.1.3,59.94934280524619,2,
2,exp1.png,exp2.png,,,,,,,,,,,,,,,,,,2,0,2,0,0,2,2,2,,,,,,,,,False,42,103,False,exp1.png,exp2.png,trial_left_image,1,exp1.png,2,exp1.png,exp2.png,1,1,non-reversed,correct,0.1745969061284246,0,invalid_lose,721.1370133999999,64,,,,,,,,,,,,,,,sub_834,2025-03-23_11h46.22.625,Reversal,2023.1.3,59.94934280524619,2,
3,exp3.png,exp4.png,,,,,,,,,,,,,,,,,,2,0,2,0,0,3,3,3,,,,,,,,,False,43,104,True,exp4.png,exp3.png,trial_right_image,-1,exp3.png,2,exp4.png,exp3.png,1,3,reversed,incorrect,0.3153701951878024,0,valid_lose,726.0029405999999,64,,,,,,,,,,,,,,,sub_834,2025-03-23_11h46.22.625,Reversal,2023.1.3,59.94934280524619,2,
4,exp1.png,exp2.png,,,,,,,,,,,,,,,,,,2,0,2,0,0,4,4,4,,,,,,,,,False,44,105,False,exp1.png,exp2.png,trial_right_image,-1,exp2.png,2,exp1.png,exp2.png,0,2,non-reversed,incorrect,0.4993810407022484,0,valid_lose,731.0839113000002,64,,,,,,,,,,,,,,,sub_834,2025-03-23_11h46.22.625,Reversal,2023.1.3,59.94934280524619,2,
5,exp3.png,exp4.png,,,,,,,,,,,,,,,,,,2,0,2,0,0,5,5,5,,,,,,,,,False,45,106,True,exp4.png,exp3.png,trial_left_image,1,exp4.png,2,exp4.png,exp3.png,0,4,reversed,correct,0.22068560273106286,0,invalid_lose,735.3002792000002,64,,,,,,,,,,,,,,,sub_834,2025-03-23_11h46.22.625,Reversal,2023.1.3,59.94934280524619,2,
6,exp1.png,exp2.png,,,,,,,,,,,,,,,,,,2,0,2,0,0,6,6,6,,,,,,,,,False,46,107,False,exp1.png,exp2.png,trial_right_image,-1,exp2.png,2,exp1.png,exp2.png,0,2,non-reversed,incorrect,0.44549906716719034,0,valid_lose,739.2317181000003,64,,,,,,,,,,,,,,,sub_834,2025-03-23_11h46.22.625,Reversal,2023.1.3,59.94934280524619,2,
7,exp3.png,exp4.png,,,,,,,,,,,,,,,,,,2,0,2,0,0,7,7,7,,,,,,,,,False,47,108,True,exp4.png,exp3.png,trial_right_image,-1,exp3.png,2,exp4.png,exp3.png,1,3,reversed,incorrect,0.28907915085269986,0,valid_lose,743.4131455000002,64,,,,,,,,,,,,,,,sub_834,2025-03-23_11h46.22.625,Reversal,2023.1.3,59.94934280524619,2,
8,exp1.png,exp2.png,,,,,,,,,,,,,,,,,,2,0,2,0,0,8,8,8,,,,,,,,,False,48,109,False,exp1.png,exp2.png,trial_left_image,1,exp1.png,2,exp1.png,exp2.png,1,1,non-reversed,correct,0.8923476203744013,1,valid_win,747.7616708999999,65,,,,,,,,,,,,,,,sub_834,2025-03-23_11h46.22.625,Reversal,2023.1.3,59.94934280524619,2,
9,exp3.png,exp4.png,,,,,,,,,,,,,,,,,,2,0,2,0,0,9,9,9,,,,,,,,,False,49,110,False,exp3.png,exp4.png,trial_left_image,1,exp3.png,2,exp4.png,exp3.png,1,3,reversed,incorrect,0.9242367529088414,0,valid_lose,753.0595223,65,,,,,,,,,,,,,,,sub_834,2025-03-23_11h46.22.625,Reversal,2023.1.3,59.94934280524619,2,
10,exp1.png,exp2.png,,,,,,,,,,,,,,,,,,2,0,2,0,0,10,10,10,,,,,,,,,False,50,111,False,exp1.png,exp2.png,trial_left_image,1,exp1.png,2,exp1.png,exp2.png,1,1,non-reversed,correct,0.1661362361250862,0,invalid_lose,758.624464,65,,,,,,,,,,,,,,,sub_834,2025-03-23_11h46.22.625,Reversal,2023.1.3,59.94934280524619,2,
11,exp3.png,exp4.png,,,,,,,,,,,,,,,,,,2,0,2,0,0,11,11,11,,,,,,,,,False,51,112,False,exp3.png,exp4.png,trial_right_image,-1,exp4.png,2,exp4.png,exp3.png,0,4,reversed,correct,0.4640523775774359,1,valid_win,764.4559345000002,66,,,,,,,,,,,,,,,sub_834,2025-03-23_11h46.22.625,Reversal,2023.1.3,59.94934280524619,2,
12,exp1.png,exp2.png,,,,,,,,,,,,,,,,,,2,0,2,0,0,12,12,12,,,,,,,,,False,52,113,False,exp1.png,exp2.png,trial_right_image,-1,exp2.png,2,exp1.png,exp2.png,0,2,non-reversed,incorrect,0.11564208636549544,1,invalid_win,771.4199225000002,67,,,,,,,,,,,,,,,sub_834,2025-03-23_11h46.22.625,Reversal,2023.1.3,59.94934280524619,2,
13,exp3.png,exp4.png,,,,,,,,,,,,,,,,,,2,0,2,0,0,13,13,13,,,,,,,,,False,53,114,True,exp4.png,exp3.png,trial_left_image,1,exp4.png,2,exp4.png,exp3.png,0,4,reversed,correct,0.09240232054065367,0,invalid_lose,775.9186209,67,,,,,,,,,,,,,,,sub_834,2025-03-23_11h46.22.625,Reversal,2023.1.3,59.94934280524619,2,
14,exp1.png,exp2.png,,,,,,,,,,,,,,,,,,2,0,2,0,0,14,14,14,,,,,,,,,False,54,115,False,exp1.png,exp2.png,trial_left_image,1,exp1.png,2,exp1.png,exp2.png,1,1,non-reversed,correct,0.18629285766541126,0,invalid_lose,780.9334845000003,67,,,,,,,,,,,,,,,sub_834,2025-03-23_11h46.22.625,Reversal,2023.1.3,59.94934280524619,2,
15,exp3.png,exp4.png,,,,,,,,,,,,,,,,,,2,0,2,0,0,15,15,15,,,,,,,,,False,55,116,True,exp4.png,exp3.png,trial_right_image,-1,exp3.png,2,exp4.png,exp3.png,1,3,reversed,incorrect,0.4133690852271831,0,valid_lose,785.5654096000003,67,,,,,,,,,,,,,,,sub_834,2025-03-23_11h46.22.625,Reversal,2023.1.3,59.94934280524619,2,
16,exp1.png,exp2.png,,,,,,,,,,,,,,,,,,2,0,2,0,0,16,16,16,,,,,,,,,False,56,117,False,exp1.png,exp2.png,trial_right_image,-1,exp2.png,2,exp1.png,exp2.png,0,2,non-reversed,incorrect,0.7121229988289917,0,valid_lose,790.5806018000003,67,,,,,,,,,,,,,,,sub_834,2025-03-23_11h46.22.625,Reversal,2023.1.3,59.94934280524619,2,
17,exp3.png,exp4.png,,,,,,,,,,,,,,,,,,2,0,2,0,0,17,17,17,,,,,,,,,False,57,118,True,exp4.png,exp3.png,trial_right_image,-1,exp3.png,2,exp4.png,exp3.png,1,3,reversed,incorrect,0.020719935471598006,1,invalid_win,794.6620341000003,68,,,,,,,,,,,,,,,sub_834,2025-03-23_11h46.22.625,Reversal,2023.1.3,59.94934280524619,2,
18,exp1.png,exp2.png,,,,,,,,,,,,,,,,,,2,0,2,0,0,18,18,18,,,,,,,,,False,58,119,True,exp2.png,exp1.png,trial_right_image,-1,exp1.png,2,exp1.png,exp2.png,1,1,non-reversed,correct,0.10554715866762598,0,invalid_lose,798.827354,68,,,,,,,,,,,,,,,sub_834,2025-03-23_11h46.22.625,Reversal,2023.1.3,59.94934280524619,2,
19,exp3.png,exp4.png,,,,,,,,,,,,,,,,,,2,0,2,0,0,19,19,19,,,,,,,,,False,59,120,True,exp4.png,exp3.png,trial_right_image,-1,exp3.png,2,exp4.png,exp3.png,1,3,reversed,incorrect,0.7162626083673841,0,valid_lose,803.0260446000002,68,,,,,,,,,,,,,,,sub_834,2025-03-23_11h46.22.625,Reversal,2023.1.3,59.94934280524619,2,
20,exp1.png,exp2.png,,,,,,,,,,,,,,,,,,2,0,2,0,0,20,20,20,,,,,,,,,True,,,,,,,,,,,,,,,,,,,,,,,,,,,,,,,,,,,sub_834,2025-03-23_11h46.22.625,Reversal,2023.1.3,59.94934280524619,2,
,,,exp1.png,,,,,,,,,,,,,,,,,2,0,2,0,,,,,0,0,0,0,0,0,0,0,,,,,,,,,,,,,,,,,,,,,,927.5068131999997,84.0,84.0,1.7724218999996992,"[(84.0, 1.7724218999996992)]",,,,,,,,,,sub_834,2025-03-23_11h46.22.625,Reversal,2023.1.3,59.94934280524619,2,
,,,exp2.png,,,,,,,,,,,,,,,,,2,0,2,0,,,,,0,0,0,0,0,1,1,1,,,,,,,,,,,,,,,,,,,,,,930.4649798,,19.0,1.1285119999997733,"[(19.0, 1.1285119999997733)]",19.0,,,,,,,,,sub_834,2025-03-23_11h46.22.625,Reversal,2023.1.3,59.94934280524619,2,
,,,exp3.png,,,,,,,,,,,,,,,,,2,0,2,0,,,,,0,0,0,0,0,2,2,2,,,,,,,,,,,,,,,,,,,,,,932.5806162999997,,15.0,1.6267542000000503,"[(15.0, 1.6267542000000503)]",,15.0,,,,,,,,sub_834,2025-03-23_11h46.22.625,Reversal,2023.1.3,59.94934280524619,2,
,,,exp4.png,,,,,,,,,,,,,,,,,2,0,2,0,,,,,0,0,0,0,0,3,3,3,,,,,,,,,,,,,,,,,,,,,,935.0789679999998,,None,None,[],,,,,,,,,,sub_834,2025-03-23_11h46.22.625,Reversal,2023.1.3,59.94934280524619,2,
,,,,,,,,,,,,,,,,,,,,,,,,,,,,,,,,,,,,,,,,,,,,,,,,,,,,,,,,68,,,,,,,,,,91,48,43,372.75003190000007,0,,,,,,,
