trial_index,trial_image1_file,trial_image2_file,image_file,learning_outer_loop.thisRepN,learning_outer_loop.thisTrialN,learning_outer_loop.thisN,learning_outer_loop.thisIndex,learning_inner_loop.thisRepN,learning_inner_loop.thisTrialN,learning_inner_loop.thisN,learning_inner_loop.thisIndex,learning_estimation_outer_loop.thisRepN,learning_estimation_outer_loop.thisTrialN,learning_estimation_outer_loop.thisN,learning_estimation_outer_loop.thisIndex,learning_estimation_inner_loop.thisRepN,learning_estimation_inner_loop.thisTrialN,learning_estimation_inner_loop.thisN,learning_estimation_inner_loop.thisIndex,reversal_outer_loop.thisRepN,reversal_outer_loop.thisTrialN,reversal_outer_loop.thisN,reversal_outer_loop.thisIndex,reversal_inner_loop.thisRepN,reversal_inner_loop.thisTrialN,reversal_inner_loop.thisN,reversal_inner_loop.thisIndex,reversal_estimation_outer_loop.thisRepN,reversal_estimation_outer_loop.thisTrialN,reversal_estimation_outer_loop.thisN,reversal_estimation_outer_loop.thisIndex,reversal_estimation_inner_loop.thisRepN,reversal_estimation_inner_loop.thisTrialN,reversal_estimation_inner_loop.thisN,reversal_estimation_inner_loop.thisIndex,skipped,total_trial_counter,trial_num,left_right_flip,left_image_file,right_image_file,clicked_stimulus_side,side,clicked_stimulus,version,high_prob_image_file,low_prob_image_file,choice_a,choice_b,pair_type,correct,trial_feedback_random,reward,trial_type,overall_time_after_trial,score,estimation_exp1.png,estimation_rating.response,estimation_rating.rt,estimation_rating.history,estimation_rating.started,estimation_rating.stopped,estimation_exp2.png,estimation_exp3.png,estimation_exp4.png,total_learning_time,total_correct,learning_correct,reversal_correct,total_reversal_time,extra_block,end_experiment.keys,end_experiment.rt,participant,date,expName,psychopyVersion,frameRate,ver,
0,exp1.png,exp2.png,,0,0,0,0,0,0,0,0,,,,,,,,,,,,,,,,,,,,,,,,,False,0,1,False,exp1.png,exp2.png,trial_left_image,1,exp1.png,2,exp1.png,exp2.png,1,1,non-reversed,correct,0.9313189069266309,1,valid_win,4.16654969999945,1,,,,,,,,,,,,,,,,,,sub_094,2022-10-19_15h15.59.656,Reversal,2022.1.2,59.949306866574204,2,
1,exp3.png,exp4.png,,0,0,0,0,0,1,1,1,,,,,,,,,,,,,,,,,,,,,,,,,False,1,2,True,exp4.png,exp3.png,trial_right_image,-1,exp3.png,2,exp3.png,exp4.png,1,3,reversed,correct,0.4381098664123413,1,valid_win,9.583648899999389,2,,,,,,,,,,,,,,,,,,sub_094,2022-10-19_15h15.59.656,Reversal,2022.1.2,59.949306866574204,2,
2,exp1.png,exp2.png,,0,0,0,0,0,2,2,2,,,,,,,,,,,,,,,,,,,,,,,,,False,2,3,True,exp2.png,exp1.png,trial_left_image,1,exp2.png,2,exp1.png,exp2.png,0,2,non-reversed,incorrect,0.49690926915507405,0,valid_lose,14.616118699999788,2,,,,,,,,,,,,,,,,,,sub_094,2022-10-19_15h15.59.656,Reversal,2022.1.2,59.949306866574204,2,
3,exp3.png,exp4.png,,0,0,0,0,0,3,3,3,,,,,,,,,,,,,,,,,,,,,,,,,False,3,4,True,exp4.png,exp3.png,trial_right_image,-1,exp3.png,2,exp3.png,exp4.png,1,3,reversed,correct,0.8588109257824363,1,valid_win,21.149720099998376,3,,,,,,,,,,,,,,,,,,sub_094,2022-10-19_15h15.59.656,Reversal,2022.1.2,59.949306866574204,2,
4,exp1.png,exp2.png,,0,0,0,0,0,4,4,4,,,,,,,,,,,,,,,,,,,,,,,,,False,4,5,False,exp1.png,exp2.png,trial_right_image,-1,exp2.png,2,exp1.png,exp2.png,0,2,non-reversed,incorrect,0.6359229148399492,0,valid_lose,26.533151399999042,3,,,,,,,,,,,,,,,,,,sub_094,2022-10-19_15h15.59.656,Reversal,2022.1.2,59.949306866574204,2,
5,exp3.png,exp4.png,,0,0,0,0,0,5,5,5,,,,,,,,,,,,,,,,,,,,,,,,,False,5,6,True,exp4.png,exp3.png,trial_left_image,1,exp4.png,2,exp3.png,exp4.png,0,4,reversed,incorrect,0.2915584831803558,0,valid_lose,31.766213300001255,3,,,,,,,,,,,,,,,,,,sub_094,2022-10-19_15h15.59.656,Reversal,2022.1.2,59.949306866574204,2,
6,exp1.png,exp2.png,,0,0,0,0,0,6,6,6,,,,,,,,,,,,,,,,,,,,,,,,,False,6,7,True,exp2.png,exp1.png,trial_right_image,-1,exp1.png,2,exp1.png,exp2.png,1,1,non-reversed,correct,0.6002598685118902,1,valid_win,40.0995436000012,4,,,,,,,,,,,,,,,,,,sub_094,2022-10-19_15h15.59.656,Reversal,2022.1.2,59.949306866574204,2,
7,exp3.png,exp4.png,,0,0,0,0,0,7,7,7,,,,,,,,,,,,,,,,,,,,,,,,,False,7,8,False,exp3.png,exp4.png,trial_right_image,-1,exp4.png,2,exp3.png,exp4.png,0,4,reversed,incorrect,0.6127556811615557,0,valid_lose,44.34922490000099,4,,,,,,,,,,,,,,,,,,sub_094,2022-10-19_15h15.59.656,Reversal,2022.1.2,59.949306866574204,2,
8,exp1.png,exp2.png,,0,0,0,0,0,8,8,8,,,,,,,,,,,,,,,,,,,,,,,,,False,8,9,True,exp2.png,exp1.png,trial_right_image,-1,exp1.png,2,exp1.png,exp2.png,1,1,non-reversed,correct,0.7704707164213536,1,valid_win,50.76555440000084,5,,,,,,,,,,,,,,,,,,sub_094,2022-10-19_15h15.59.656,Reversal,2022.1.2,59.949306866574204,2,
9,exp3.png,exp4.png,,0,0,0,0,0,9,9,9,,,,,,,,,,,,,,,,,,,,,,,,,False,9,10,False,exp3.png,exp4.png,trial_right_image,-1,exp4.png,2,exp3.png,exp4.png,0,4,reversed,incorrect,0.21691694555842844,1,invalid_win,58.28277069999967,6,,,,,,,,,,,,,,,,,,sub_094,2022-10-19_15h15.59.656,Reversal,2022.1.2,59.949306866574204,2,
10,exp1.png,exp2.png,,0,0,0,0,0,10,10,10,,,,,,,,,,,,,,,,,,,,,,,,,False,10,11,True,exp2.png,exp1.png,trial_left_image,1,exp2.png,2,exp1.png,exp2.png,0,2,non-reversed,incorrect,0.5427466728828946,0,valid_lose,65.93237769999905,6,,,,,,,,,,,,,,,,,,sub_094,2022-10-19_15h15.59.656,Reversal,2022.1.2,59.949306866574204,2,
11,exp3.png,exp4.png,,0,0,0,0,0,11,11,11,,,,,,,,,,,,,,,,,,,,,,,,,False,11,12,False,exp3.png,exp4.png,trial_left_image,1,exp3.png,2,exp3.png,exp4.png,1,3,reversed,correct,0.9201456474804522,1,valid_win,72.76529980000123,7,,,,,,,,,,,,,,,,,,sub_094,2022-10-19_15h15.59.656,Reversal,2022.1.2,59.949306866574204,2,
12,exp1.png,exp2.png,,0,0,0,0,0,12,12,12,,,,,,,,,,,,,,,,,,,,,,,,,False,12,13,True,exp2.png,exp1.png,trial_right_image,-1,exp1.png,2,exp1.png,exp2.png,1,1,non-reversed,correct,0.7382054081566889,1,valid_win,79.08198229999834,8,,,,,,,,,,,,,,,,,,sub_094,2022-10-19_15h15.59.656,Reversal,2022.1.2,59.949306866574204,2,
13,exp3.png,exp4.png,,0,0,0,0,0,13,13,13,,,,,,,,,,,,,,,,,,,,,,,,,False,13,14,False,exp3.png,exp4.png,trial_left_image,1,exp3.png,2,exp3.png,exp4.png,1,3,reversed,correct,0.23624318824499135,0,invalid_lose,85.1156747999994,8,,,,,,,,,,,,,,,,,,sub_094,2022-10-19_15h15.59.656,Reversal,2022.1.2,59.949306866574204,2,
14,exp1.png,exp2.png,,0,0,0,0,0,14,14,14,,,,,,,,,,,,,,,,,,,,,,,,,False,14,15,False,exp1.png,exp2.png,trial_left_image,1,exp1.png,2,exp1.png,exp2.png,1,1,non-reversed,correct,0.23486489707337066,0,invalid_lose,93.16566759999841,8,,,,,,,,,,,,,,,,,,sub_094,2022-10-19_15h15.59.656,Reversal,2022.1.2,59.949306866574204,2,
15,exp3.png,exp4.png,,0,0,0,0,0,15,15,15,,,,,,,,,,,,,,,,,,,,,,,,,False,15,16,False,exp3.png,exp4.png,trial_right_image,-1,exp4.png,2,exp3.png,exp4.png,0,4,reversed,incorrect,0.17878801507122566,1,invalid_win,97.99898229999962,9,,,,,,,,,,,,,,,,,,sub_094,2022-10-19_15h15.59.656,Reversal,2022.1.2,59.949306866574204,2,
16,exp1.png,exp2.png,,0,0,0,0,0,16,16,16,,,,,,,,,,,,,,,,,,,,,,,,,False,16,17,False,exp1.png,exp2.png,trial_left_image,1,exp1.png,2,exp1.png,exp2.png,1,1,non-reversed,correct,0.017042586825048223,0,invalid_lose,103.61524510000163,9,,,,,,,,,,,,,,,,,,sub_094,2022-10-19_15h15.59.656,Reversal,2022.1.2,59.949306866574204,2,
17,exp3.png,exp4.png,,0,0,0,0,0,17,17,17,,,,,,,,,,,,,,,,,,,,,,,,,False,17,18,False,exp3.png,exp4.png,trial_left_image,1,exp3.png,2,exp3.png,exp4.png,1,3,reversed,correct,0.3567656551544235,1,valid_win,108.8986885000013,10,,,,,,,,,,,,,,,,,,sub_094,2022-10-19_15h15.59.656,Reversal,2022.1.2,59.949306866574204,2,
18,exp1.png,exp2.png,,0,0,0,0,0,18,18,18,,,,,,,,,,,,,,,,,,,,,,,,,False,18,19,True,exp2.png,exp1.png,trial_left_image,1,exp2.png,2,exp1.png,exp2.png,0,2,non-reversed,incorrect,0.6477271383094658,0,valid_lose,115.41405749999831,10,,,,,,,,,,,,,,,,,,sub_094,2022-10-19_15h15.59.656,Reversal,2022.1.2,59.949306866574204,2,
19,exp3.png,exp4.png,,0,0,0,0,0,19,19,19,,,,,,,,,,,,,,,,,,,,,,,,,False,19,20,True,exp4.png,exp3.png,trial_right_image,-1,exp3.png,2,exp3.png,exp4.png,1,3,reversed,correct,0.21115350438223401,0,invalid_lose,120.86450830000103,10,,,,,,,,,,,,,,,,,,sub_094,2022-10-19_15h15.59.656,Reversal,2022.1.2,59.949306866574204,2,
20,exp1.png,exp2.png,,0,0,0,0,0,20,20,20,,,,,,,,,,,,,,,,,,,,,,,,,True,,,,,,,,,,,,,,,,,,,,,,,,,,,,,,,,,,,,,,sub_094,2022-10-19_15h15.59.656,Reversal,2022.1.2,59.949306866574204,2,
,,,exp1.png,0,0,0,0,,,,,0,0,0,0,0,0,0,0,,,,,,,,,,,,,,,,,,,,,,,,,,,,,,,,,,,,,,1.0,1.0,10.606129800002236,"[(1.0, 10.606129800002236)]",204.69034860000102,None,,,,,,,,,,,,sub_094,2022-10-19_15h15.59.656,Reversal,2022.1.2,59.949306866574204,2,
,,,exp2.png,0,0,0,0,,,,,0,0,0,0,0,1,1,1,,,,,,,,,,,,,,,,,,,,,,,,,,,,,,,,,,,,,,,71.0,7.749713599998358,"[(71.0, 7.749713599998358)]",217.5884827000009,None,71.0,,,,,,,,,,,sub_094,2022-10-19_15h15.59.656,Reversal,2022.1.2,59.949306866574204,2,
,,,exp3.png,0,0,0,0,,,,,0,0,0,0,0,2,2,2,,,,,,,,,,,,,,,,,,,,,,,,,,,,,,,,,,,,,,,98.0,2.1007515999990574,"[(98.0, 2.1007515999990574)]",226.14006270000027,None,,98.0,,,,,,,,,,sub_094,2022-10-19_15h15.59.656,Reversal,2022.1.2,59.949306866574204,2,
,,,exp4.png,0,0,0,0,,,,,0,0,0,0,0,3,3,3,,,,,,,,,,,,,,,,,,,,,,,,,,,,,,,,,,,,,,,20.0,2.818119999999908,"[(20.0, 2.818119999999908)]",229.28690600000118,None,,,20.0,,,,,,,,,sub_094,2022-10-19_15h15.59.656,Reversal,2022.1.2,59.949306866574204,2,
0,exp1.png,exp2.png,,1,0,1,0,0,0,0,0,,,,,,,,,,,,,,,,,,,,,,,,,False,20,21,True,exp2.png,exp1.png,trial_right_image,-1,exp1.png,2,exp1.png,exp2.png,1,1,non-reversed,correct,0.005174433775500753,0,invalid_lose,159.98100369999884,10,,,,,,,,,,,,,,,,,,sub_094,2022-10-19_15h15.59.656,Reversal,2022.1.2,59.949306866574204,2,
1,exp3.png,exp4.png,,1,0,1,0,0,1,1,1,,,,,,,,,,,,,,,,,,,,,,,,,False,21,22,True,exp4.png,exp3.png,trial_right_image,-1,exp3.png,2,exp3.png,exp4.png,1,3,reversed,correct,0.3512450208676873,1,valid_win,165.16387010000108,11,,,,,,,,,,,,,,,,,,sub_094,2022-10-19_15h15.59.656,Reversal,2022.1.2,59.949306866574204,2,
2,exp1.png,exp2.png,,1,0,1,0,0,2,2,2,,,,,,,,,,,,,,,,,,,,,,,,,False,22,23,True,exp2.png,exp1.png,trial_right_image,-1,exp1.png,2,exp1.png,exp2.png,1,1,non-reversed,correct,0.2797383223823725,1,valid_win,172.4802165000001,12,,,,,,,,,,,,,,,,,,sub_094,2022-10-19_15h15.59.656,Reversal,2022.1.2,59.949306866574204,2,
3,exp3.png,exp4.png,,1,0,1,0,0,3,3,3,,,,,,,,,,,,,,,,,,,,,,,,,False,23,24,False,exp3.png,exp4.png,trial_left_image,1,exp3.png,2,exp3.png,exp4.png,1,3,reversed,correct,0.6362316448848085,1,valid_win,178.79690180000034,13,,,,,,,,,,,,,,,,,,sub_094,2022-10-19_15h15.59.656,Reversal,2022.1.2,59.949306866574204,2,
4,exp1.png,exp2.png,,1,0,1,0,0,4,4,4,,,,,,,,,,,,,,,,,,,,,,,,,False,24,25,True,exp2.png,exp1.png,trial_right_image,-1,exp1.png,2,exp1.png,exp2.png,1,1,non-reversed,correct,0.06122295373183784,0,invalid_lose,183.84699719999844,13,,,,,,,,,,,,,,,,,,sub_094,2022-10-19_15h15.59.656,Reversal,2022.1.2,59.949306866574204,2,
5,exp3.png,exp4.png,,1,0,1,0,0,5,5,5,,,,,,,,,,,,,,,,,,,,,,,,,False,25,26,True,exp4.png,exp3.png,trial_right_image,-1,exp3.png,2,exp3.png,exp4.png,1,3,reversed,correct,0.0921100596816371,0,invalid_lose,193.163177800001,13,,,,,,,,,,,,,,,,,,sub_094,2022-10-19_15h15.59.656,Reversal,2022.1.2,59.949306866574204,2,
6,exp1.png,exp2.png,,1,0,1,0,0,6,6,6,,,,,,,,,,,,,,,,,,,,,,,,,False,26,27,False,exp1.png,exp2.png,trial_left_image,1,exp1.png,2,exp1.png,exp2.png,1,1,non-reversed,correct,0.8339570669617737,1,valid_win,199.22975099999894,14,,,,,,,,,,,,,,,,,,sub_094,2022-10-19_15h15.59.656,Reversal,2022.1.2,59.949306866574204,2,
7,exp3.png,exp4.png,,1,0,1,0,0,7,7,7,,,,,,,,,,,,,,,,,,,,,,,,,False,27,28,False,exp3.png,exp4.png,trial_left_image,1,exp3.png,2,exp3.png,exp4.png,1,3,reversed,correct,0.7572689038944248,1,valid_win,204.54614930000025,15,,,,,,,,,,,,,,,,,,sub_094,2022-10-19_15h15.59.656,Reversal,2022.1.2,59.949306866574204,2,
8,exp1.png,exp2.png,,1,0,1,0,0,8,8,8,,,,,,,,,,,,,,,,,,,,,,,,,False,28,29,True,exp2.png,exp1.png,trial_right_image,-1,exp1.png,2,exp1.png,exp2.png,1,1,non-reversed,correct,0.2844270698856264,1,valid_win,209.41269739999916,16,,,,,,,,,,,,,,,,,,sub_094,2022-10-19_15h15.59.656,Reversal,2022.1.2,59.949306866574204,2,
9,exp3.png,exp4.png,,1,0,1,0,0,9,9,9,,,,,,,,,,,,,,,,,,,,,,,,,False,29,30,False,exp3.png,exp4.png,trial_left_image,1,exp3.png,2,exp3.png,exp4.png,1,3,reversed,correct,0.3288160421210936,1,valid_win,214.22905739999987,17,,,,,,,,,,,,,,,,,,sub_094,2022-10-19_15h15.59.656,Reversal,2022.1.2,59.949306866574204,2,
10,exp1.png,exp2.png,,1,0,1,0,0,10,10,10,,,,,,,,,,,,,,,,,,,,,,,,,False,30,31,False,exp1.png,exp2.png,trial_left_image,1,exp1.png,2,exp1.png,exp2.png,1,1,non-reversed,correct,0.8721351400654147,1,valid_win,218.84597550000035,18,,,,,,,,,,,,,,,,,,sub_094,2022-10-19_15h15.59.656,Reversal,2022.1.2,59.949306866574204,2,
11,exp3.png,exp4.png,,1,0,1,0,0,11,11,11,,,,,,,,,,,,,,,,,,,,,,,,,False,31,32,True,exp4.png,exp3.png,trial_right_image,-1,exp3.png,2,exp3.png,exp4.png,1,3,reversed,correct,0.11496352208179694,0,invalid_lose,223.8294062999994,18,,,,,,,,,,,,,,,,,,sub_094,2022-10-19_15h15.59.656,Reversal,2022.1.2,59.949306866574204,2,
12,exp1.png,exp2.png,,1,0,1,0,0,12,12,12,,,,,,,,,,,,,,,,,,,,,,,,,False,32,33,False,exp1.png,exp2.png,trial_left_image,1,exp1.png,2,exp1.png,exp2.png,1,1,non-reversed,correct,0.8551172735062491,1,valid_win,228.94637689999945,19,,,,,,,,,,,,,,,,,,sub_094,2022-10-19_15h15.59.656,Reversal,2022.1.2,59.949306866574204,2,
13,exp3.png,exp4.png,,1,0,1,0,0,13,13,13,,,,,,,,,,,,,,,,,,,,,,,,,False,33,34,False,exp3.png,exp4.png,trial_left_image,1,exp3.png,2,exp3.png,exp4.png,1,3,reversed,correct,0.4822401641200087,1,valid_win,234.01191639999888,20,,,,,,,,,,,,,,,,,,sub_094,2022-10-19_15h15.59.656,Reversal,2022.1.2,59.949306866574204,2,
14,exp1.png,exp2.png,,1,0,1,0,0,14,14,14,,,,,,,,,,,,,,,,,,,,,,,,,False,34,35,True,exp2.png,exp1.png,trial_right_image,-1,exp1.png,2,exp1.png,exp2.png,1,1,non-reversed,correct,0.1866327761181229,0,invalid_lose,240.47855590000108,20,,,,,,,,,,,,,,,,,,sub_094,2022-10-19_15h15.59.656,Reversal,2022.1.2,59.949306866574204,2,
15,exp3.png,exp4.png,,1,0,1,0,0,15,15,15,,,,,,,,,,,,,,,,,,,,,,,,,False,35,36,True,exp4.png,exp3.png,trial_right_image,-1,exp3.png,2,exp3.png,exp4.png,1,3,reversed,correct,0.277986585632641,1,valid_win,246.04582840000148,21,,,,,,,,,,,,,,,,,,sub_094,2022-10-19_15h15.59.656,Reversal,2022.1.2,59.949306866574204,2,
16,exp1.png,exp2.png,,1,0,1,0,0,16,16,16,,,,,,,,,,,,,,,,,,,,,,,,,False,36,37,False,exp1.png,exp2.png,trial_right_image,-1,exp2.png,2,exp1.png,exp2.png,0,2,non-reversed,incorrect,0.36289320855753604,0,valid_lose,251.09582800000135,21,,,,,,,,,,,,,,,,,,sub_094,2022-10-19_15h15.59.656,Reversal,2022.1.2,59.949306866574204,2,
17,exp3.png,exp4.png,,1,0,1,0,0,17,17,17,,,,,,,,,,,,,,,,,,,,,,,,,False,37,38,False,exp3.png,exp4.png,trial_left_image,1,exp3.png,2,exp3.png,exp4.png,1,3,reversed,correct,0.5704702067077674,1,valid_win,256.0456879000012,22,,,,,,,,,,,,,,,,,,sub_094,2022-10-19_15h15.59.656,Reversal,2022.1.2,59.949306866574204,2,
18,exp1.png,exp2.png,,1,0,1,0,0,18,18,18,,,,,,,,,,,,,,,,,,,,,,,,,False,38,39,False,exp1.png,exp2.png,trial_left_image,1,exp1.png,2,exp1.png,exp2.png,1,1,non-reversed,correct,0.9256949962226444,1,valid_win,261.4121464000018,23,,,,,,,,,,,,,,,,,,sub_094,2022-10-19_15h15.59.656,Reversal,2022.1.2,59.949306866574204,2,
19,exp3.png,exp4.png,,1,0,1,0,0,19,19,19,,,,,,,,,,,,,,,,,,,,,,,,,False,39,40,True,exp4.png,exp3.png,trial_right_image,-1,exp3.png,2,exp3.png,exp4.png,1,3,reversed,correct,0.20465520965226014,0,invalid_lose,267.2950316999995,23,,,,,,,,,,,,,,,,,,sub_094,2022-10-19_15h15.59.656,Reversal,2022.1.2,59.949306866574204,2,
20,exp1.png,exp2.png,,1,0,1,0,0,20,20,20,,,,,,,,,,,,,,,,,,,,,,,,,True,,,,,,,,,,,,,,,,,,,,,,,,,,,,,,,,,,,,,,sub_094,2022-10-19_15h15.59.656,Reversal,2022.1.2,59.949306866574204,2,
,,,exp1.png,1,0,1,0,,,,,0,0,0,0,0,0,0,0,,,,,,,,,,,,,,,,,,,,,,,,,,,,,,,,,,,,,,,50.0,None,[],351.137842600001,None,,,,,,,,,,,,sub_094,2022-10-19_15h15.59.656,Reversal,2022.1.2,59.949306866574204,2,
,,,exp2.png,1,0,1,0,,,,,0,0,0,0,0,1,1,1,,,,,,,,,,,,,,,,,,,,,,,,,,,,,,,,,,,,,,,50.0,None,[],358.4206020999991,None,,,,,,,,,,,,sub_094,2022-10-19_15h15.59.656,Reversal,2022.1.2,59.949306866574204,2,
,,,exp3.png,1,0,1,0,,,,,0,0,0,0,0,2,2,2,,,,,,,,,,,,,,,,,,,,,,,,,,,,,,,,,,,,,,,50.0,None,[],363.7608135999981,None,,,,,,,,,,,,sub_094,2022-10-19_15h15.59.656,Reversal,2022.1.2,59.949306866574204,2,
,,,exp4.png,1,0,1,0,,,,,0,0,0,0,0,3,3,3,,,,,,,,,,,,,,,,,,,,,,,,,,,,,,,,,,,,,,,17.0,3.284502899998188,"[(17.0, 3.284502899998188)]",364.20239070000025,None,,,17.0,,,,,,,,,sub_094,2022-10-19_15h15.59.656,Reversal,2022.1.2,59.949306866574204,2,
0,exp1.png,exp2.png,,2,0,2,0,0,0,0,0,,,,,,,,,,,,,,,,,,,,,,,,,False,40,41,False,exp1.png,exp2.png,trial_left_image,1,exp1.png,2,exp1.png,exp2.png,1,1,non-reversed,correct,0.4065033291732504,1,valid_win,290.3832376999999,24,,,,,,,,,,,,,,,,,,sub_094,2022-10-19_15h15.59.656,Reversal,2022.1.2,59.949306866574204,2,
1,exp3.png,exp4.png,,2,0,2,0,0,1,1,1,,,,,,,,,,,,,,,,,,,,,,,,,False,41,42,False,exp3.png,exp4.png,trial_left_image,1,exp3.png,2,exp3.png,exp4.png,1,3,reversed,correct,0.9698913310937434,1,valid_win,295.1943953000009,25,,,,,,,,,,,,,,,,,,sub_094,2022-10-19_15h15.59.656,Reversal,2022.1.2,59.949306866574204,2,
2,exp1.png,exp2.png,,2,0,2,0,0,2,2,2,,,,,,,,,,,,,,,,,,,,,,,,,False,42,43,False,exp1.png,exp2.png,trial_left_image,1,exp1.png,2,exp1.png,exp2.png,1,1,non-reversed,correct,0.7401955000651482,1,valid_win,300.3618853000007,26,,,,,,,,,,,,,,,,,,sub_094,2022-10-19_15h15.59.656,Reversal,2022.1.2,59.949306866574204,2,
3,exp3.png,exp4.png,,2,0,2,0,0,3,3,3,,,,,,,,,,,,,,,,,,,,,,,,,False,43,44,False,exp3.png,exp4.png,trial_left_image,1,exp3.png,2,exp3.png,exp4.png,1,3,reversed,correct,0.29530201513577303,1,valid_win,304.89515160000155,27,,,,,,,,,,,,,,,,,,sub_094,2022-10-19_15h15.59.656,Reversal,2022.1.2,59.949306866574204,2,
4,exp1.png,exp2.png,,2,0,2,0,0,4,4,4,,,,,,,,,,,,,,,,,,,,,,,,,False,44,45,True,exp2.png,exp1.png,trial_left_image,1,exp2.png,2,exp1.png,exp2.png,0,2,non-reversed,incorrect,0.19630488272798596,1,invalid_win,311.5275006000011,28,,,,,,,,,,,,,,,,,,sub_094,2022-10-19_15h15.59.656,Reversal,2022.1.2,59.949306866574204,2,
5,exp3.png,exp4.png,,2,0,2,0,0,5,5,5,,,,,,,,,,,,,,,,,,,,,,,,,False,45,46,True,exp4.png,exp3.png,trial_right_image,-1,exp3.png,2,exp3.png,exp4.png,1,3,reversed,correct,0.13265724987900662,0,invalid_lose,317.01119019999896,28,,,,,,,,,,,,,,,,,,sub_094,2022-10-19_15h15.59.656,Reversal,2022.1.2,59.949306866574204,2,
6,exp1.png,exp2.png,,2,0,2,0,0,6,6,6,,,,,,,,,,,,,,,,,,,,,,,,,False,46,47,True,exp2.png,exp1.png,trial_left_image,1,exp2.png,2,exp1.png,exp2.png,0,2,non-reversed,incorrect,0.4918186704925823,0,valid_lose,322.29450670000006,28,,,,,,,,,,,,,,,,,,sub_094,2022-10-19_15h15.59.656,Reversal,2022.1.2,59.949306866574204,2,
7,exp3.png,exp4.png,,2,0,2,0,0,7,7,7,,,,,,,,,,,,,,,,,,,,,,,,,False,47,48,True,exp4.png,exp3.png,trial_left_image,1,exp4.png,2,exp3.png,exp4.png,0,4,reversed,incorrect,0.22494442654431568,1,invalid_win,328.977640000001,29,,,,,,,,,,,,,,,,,,sub_094,2022-10-19_15h15.59.656,Reversal,2022.1.2,59.949306866574204,2,
8,exp1.png,exp2.png,,2,0,2,0,0,8,8,8,,,,,,,,,,,,,,,,,,,,,,,,,False,48,49,False,exp1.png,exp2.png,trial_left_image,1,exp1.png,2,exp1.png,exp2.png,1,1,non-reversed,correct,0.6166672543338538,1,valid_win,334.9124253000009,30,,,,,,,,,,,,,,,,,,sub_094,2022-10-19_15h15.59.656,Reversal,2022.1.2,59.949306866574204,2,
9,exp3.png,exp4.png,,2,0,2,0,0,9,9,9,,,,,,,,,,,,,,,,,,,,,,,,,False,49,50,False,exp3.png,exp4.png,trial_left_image,1,exp3.png,2,exp3.png,exp4.png,1,3,reversed,correct,0.5074888200113884,1,valid_win,340.4767576999984,31,,,,,,,,,,,,,,,,,,sub_094,2022-10-19_15h15.59.656,Reversal,2022.1.2,59.949306866574204,2,
10,exp1.png,exp2.png,,2,0,2,0,0,10,10,10,,,,,,,,,,,,,,,,,,,,,,,,,False,50,51,True,exp2.png,exp1.png,trial_left_image,1,exp2.png,2,exp1.png,exp2.png,0,2,non-reversed,incorrect,0.332969012049649,0,valid_lose,346.91055979999874,31,,,,,,,,,,,,,,,,,,sub_094,2022-10-19_15h15.59.656,Reversal,2022.1.2,59.949306866574204,2,
11,exp3.png,exp4.png,,2,0,2,0,0,11,11,11,,,,,,,,,,,,,,,,,,,,,,,,,False,51,52,False,exp3.png,exp4.png,trial_left_image,1,exp3.png,2,exp3.png,exp4.png,1,3,reversed,correct,0.6902491842002574,1,valid_win,352.1934259000009,32,,,,,,,,,,,,,,,,,,sub_094,2022-10-19_15h15.59.656,Reversal,2022.1.2,59.949306866574204,2,
12,exp1.png,exp2.png,,2,0,2,0,0,12,12,12,,,,,,,,,,,,,,,,,,,,,,,,,False,52,53,False,exp1.png,exp2.png,trial_left_image,1,exp1.png,2,exp1.png,exp2.png,1,1,non-reversed,correct,0.3235338953406117,1,valid_win,357.76003729999866,33,,,,,,,,,,,,,,,,,,sub_094,2022-10-19_15h15.59.656,Reversal,2022.1.2,59.949306866574204,2,
13,exp3.png,exp4.png,,2,0,2,0,0,13,13,13,,,,,,,,,,,,,,,,,,,,,,,,,False,53,54,True,exp4.png,exp3.png,trial_right_image,-1,exp3.png,2,exp3.png,exp4.png,1,3,reversed,correct,0.759225484891651,1,valid_win,364.07626639999944,34,,,,,,,,,,,,,,,,,,sub_094,2022-10-19_15h15.59.656,Reversal,2022.1.2,59.949306866574204,2,
14,exp1.png,exp2.png,,2,0,2,0,0,14,14,14,,,,,,,,,,,,,,,,,,,,,,,,,False,54,55,True,exp2.png,exp1.png,trial_left_image,1,exp2.png,2,exp1.png,exp2.png,0,2,non-reversed,incorrect,0.1257659254492819,1,invalid_win,370.6606052999996,35,,,,,,,,,,,,,,,,,,sub_094,2022-10-19_15h15.59.656,Reversal,2022.1.2,59.949306866574204,2,
15,exp3.png,exp4.png,,2,0,2,0,0,15,15,15,,,,,,,,,,,,,,,,,,,,,,,,,False,55,56,True,exp4.png,exp3.png,trial_right_image,-1,exp3.png,2,exp3.png,exp4.png,1,3,reversed,correct,0.35124120382938495,1,valid_win,376.8934439000004,36,,,,,,,,,,,,,,,,,,sub_094,2022-10-19_15h15.59.656,Reversal,2022.1.2,59.949306866574204,2,
16,exp1.png,exp2.png,,2,0,2,0,0,16,16,16,,,,,,,,,,,,,,,,,,,,,,,,,False,56,57,False,exp1.png,exp2.png,trial_left_image,1,exp1.png,2,exp1.png,exp2.png,1,1,non-reversed,correct,0.00045320271900584075,0,invalid_lose,382.21003310000015,36,,,,,,,,,,,,,,,,,,sub_094,2022-10-19_15h15.59.656,Reversal,2022.1.2,59.949306866574204,2,
17,exp3.png,exp4.png,,2,0,2,0,0,17,17,17,,,,,,,,,,,,,,,,,,,,,,,,,False,57,58,True,exp4.png,exp3.png,trial_right_image,-1,exp3.png,2,exp3.png,exp4.png,1,3,reversed,correct,0.7428238006521284,1,valid_win,386.77621200000067,37,,,,,,,,,,,,,,,,,,sub_094,2022-10-19_15h15.59.656,Reversal,2022.1.2,59.949306866574204,2,
18,exp1.png,exp2.png,,2,0,2,0,0,18,18,18,,,,,,,,,,,,,,,,,,,,,,,,,False,58,59,True,exp2.png,exp1.png,trial_left_image,1,exp2.png,2,exp1.png,exp2.png,0,2,non-reversed,incorrect,0.14198341086098276,1,invalid_win,391.7598015000003,38,,,,,,,,,,,,,,,,,,sub_094,2022-10-19_15h15.59.656,Reversal,2022.1.2,59.949306866574204,2,
19,exp3.png,exp4.png,,2,0,2,0,0,19,19,19,,,,,,,,,,,,,,,,,,,,,,,,,False,59,60,False,exp3.png,exp4.png,trial_left_image,1,exp3.png,2,exp3.png,exp4.png,1,3,reversed,correct,0.9200828155729952,1,valid_win,396.5257864999985,39,,,,,,,,,,,,,,,,,,sub_094,2022-10-19_15h15.59.656,Reversal,2022.1.2,59.949306866574204,2,
20,exp1.png,exp2.png,,2,0,2,0,0,20,20,20,,,,,,,,,,,,,,,,,,,,,,,,,True,,,,,,,,,,,,,,,,,,,,,,,,,,,,,,,,,,,,,,sub_094,2022-10-19_15h15.59.656,Reversal,2022.1.2,59.949306866574204,2,
,,,exp1.png,2,0,2,0,,,,,0,0,0,0,0,0,0,0,,,,,,,,,,,,,,,,,,,,,,,,,,,,,,,,,,,,,,30.0,30.0,4.326716600000509,"[(30.0, 4.326716600000509)]",480.3595830999984,None,,,,,,,,,,,,sub_094,2022-10-19_15h15.59.656,Reversal,2022.1.2,59.949306866574204,2,
,,,exp2.png,2,0,2,0,,,,,0,0,0,0,0,1,1,1,,,,,,,,,,,,,,,,,,,,,,,,,,,,,,,,,,,,,,,62.0,2.782685999998648,"[(62.0, 2.782685999998648)]",485.55102930000066,None,62.0,,,,,,,,,,,sub_094,2022-10-19_15h15.59.656,Reversal,2022.1.2,59.949306866574204,2,
,,,exp3.png,2,0,2,0,,,,,0,0,0,0,0,2,2,2,,,,,,,,,,,,,,,,,,,,,,,,,,,,,,,,,,,,,,,100.0,2.5506241000002774,"[(90.0, 1.468152099998406), (100.0, 2.5506241000002774)]",489.0160576999988,None,,100.0,,,,,,,,,,sub_094,2022-10-19_15h15.59.656,Reversal,2022.1.2,59.949306866574204,2,
,,,exp4.png,2,0,2,0,,,,,0,0,0,0,0,3,3,3,,,,,,,,,,,,,,,,,,,,,,,,,,,,,,,,,,,,,,,5.0,3.050750700000208,"[(5.0, 3.050750700000208)]",492.5498114000002,None,,,5.0,,,,,,,,,sub_094,2022-10-19_15h15.59.656,Reversal,2022.1.2,59.949306866574204,2,
0,exp1.png,exp2.png,,3,0,3,0,0,0,0,0,,,,,,,,,,,,,,,,,,,,,,,,,False,60,61,False,exp1.png,exp2.png,trial_right_image,-1,exp2.png,2,exp1.png,exp2.png,0,2,non-reversed,incorrect,0.25091675619861176,0,valid_lose,424.5592217000012,39,,,,,,,,,,,,,,,,,,sub_094,2022-10-19_15h15.59.656,Reversal,2022.1.2,59.949306866574204,2,
1,exp3.png,exp4.png,,3,0,3,0,0,1,1,1,,,,,,,,,,,,,,,,,,,,,,,,,False,61,62,False,exp3.png,exp4.png,trial_left_image,1,exp3.png,2,exp3.png,exp4.png,1,3,reversed,correct,0.5764133389477551,1,valid_win,429.40911849999975,40,,,,,,,,,,,,,,,,,,sub_094,2022-10-19_15h15.59.656,Reversal,2022.1.2,59.949306866574204,2,
2,exp1.png,exp2.png,,3,0,3,0,0,2,2,2,,,,,,,,,,,,,,,,,,,,,,,,,False,62,63,False,exp1.png,exp2.png,trial_left_image,1,exp1.png,2,exp1.png,exp2.png,1,1,non-reversed,correct,0.8240854859425177,1,valid_win,435.541883599999,41,,,,,,,,,,,,,,,,,,sub_094,2022-10-19_15h15.59.656,Reversal,2022.1.2,59.949306866574204,2,
3,exp3.png,exp4.png,,3,0,3,0,0,3,3,3,,,,,,,,,,,,,,,,,,,,,,,,,False,63,64,True,exp4.png,exp3.png,trial_right_image,-1,exp3.png,2,exp3.png,exp4.png,1,3,reversed,correct,0.39521012189739724,1,valid_win,440.8753918000002,42,,,,,,,,,,,,,,,,,,sub_094,2022-10-19_15h15.59.656,Reversal,2022.1.2,59.949306866574204,2,
4,exp1.png,exp2.png,,3,0,3,0,0,4,4,4,,,,,,,,,,,,,,,,,,,,,,,,,False,64,65,True,exp2.png,exp1.png,trial_left_image,1,exp2.png,2,exp1.png,exp2.png,0,2,non-reversed,incorrect,0.34719338419710233,0,valid_lose,446.97579960000076,42,,,,,,,,,,,,,,,,,,sub_094,2022-10-19_15h15.59.656,Reversal,2022.1.2,59.949306866574204,2,
5,exp3.png,exp4.png,,3,0,3,0,0,5,5,5,,,,,,,,,,,,,,,,,,,,,,,,,False,65,66,True,exp4.png,exp3.png,trial_right_image,-1,exp3.png,2,exp3.png,exp4.png,1,3,reversed,correct,0.14148533836047472,0,invalid_lose,451.6758692000003,42,,,,,,,,,,,,,,,,,,sub_094,2022-10-19_15h15.59.656,Reversal,2022.1.2,59.949306866574204,2,
6,exp1.png,exp2.png,,3,0,3,0,0,6,6,6,,,,,,,,,,,,,,,,,,,,,,,,,False,66,67,False,exp1.png,exp2.png,trial_left_image,1,exp1.png,2,exp1.png,exp2.png,1,1,non-reversed,correct,0.10204034369316639,0,invalid_lose,459.10840520000056,42,,,,,,,,,,,,,,,,,,sub_094,2022-10-19_15h15.59.656,Reversal,2022.1.2,59.949306866574204,2,
7,exp3.png,exp4.png,,3,0,3,0,0,7,7,7,,,,,,,,,,,,,,,,,,,,,,,,,False,67,68,False,exp3.png,exp4.png,trial_left_image,1,exp3.png,2,exp3.png,exp4.png,1,3,reversed,correct,0.8563308967520955,1,valid_win,464.274900299999,43,,,,,,,,,,,,,,,,,,sub_094,2022-10-19_15h15.59.656,Reversal,2022.1.2,59.949306866574204,2,
8,exp1.png,exp2.png,,3,0,3,0,0,8,8,8,,,,,,,,,,,,,,,,,,,,,,,,,False,68,69,True,exp2.png,exp1.png,trial_right_image,-1,exp1.png,2,exp1.png,exp2.png,1,1,non-reversed,correct,0.18418552863321003,0,invalid_lose,469.8248496999986,43,,,,,,,,,,,,,,,,,,sub_094,2022-10-19_15h15.59.656,Reversal,2022.1.2,59.949306866574204,2,
9,exp3.png,exp4.png,,3,0,3,0,0,9,9,9,,,,,,,,,,,,,,,,,,,,,,,,,False,69,70,True,exp4.png,exp3.png,trial_right_image,-1,exp3.png,2,exp3.png,exp4.png,1,3,reversed,correct,0.755107909295736,1,valid_win,475.22470239999893,44,,,,,,,,,,,,,,,,,,sub_094,2022-10-19_15h15.59.656,Reversal,2022.1.2,59.949306866574204,2,
10,exp1.png,exp2.png,,3,0,3,0,0,10,10,10,,,,,,,,,,,,,,,,,,,,,,,,,False,70,71,True,exp2.png,exp1.png,trial_left_image,1,exp2.png,2,exp1.png,exp2.png,0,2,non-reversed,incorrect,0.9109750830055635,0,valid_lose,480.4416603999998,44,,,,,,,,,,,,,,,,,,sub_094,2022-10-19_15h15.59.656,Reversal,2022.1.2,59.949306866574204,2,
11,exp3.png,exp4.png,,3,0,3,0,0,11,11,11,,,,,,,,,,,,,,,,,,,,,,,,,False,71,72,True,exp4.png,exp3.png,trial_right_image,-1,exp3.png,2,exp3.png,exp4.png,1,3,reversed,correct,0.19650860810163973,0,invalid_lose,485.7577569999994,44,,,,,,,,,,,,,,,,,,sub_094,2022-10-19_15h15.59.656,Reversal,2022.1.2,59.949306866574204,2,
12,exp1.png,exp2.png,,3,0,3,0,0,12,12,12,,,,,,,,,,,,,,,,,,,,,,,,,False,72,73,False,exp1.png,exp2.png,trial_right_image,-1,exp2.png,2,exp1.png,exp2.png,0,2,non-reversed,incorrect,0.7413312458858009,0,valid_lose,491.02506699999867,44,,,,,,,,,,,,,,,,,,sub_094,2022-10-19_15h15.59.656,Reversal,2022.1.2,59.949306866574204,2,
13,exp3.png,exp4.png,,3,0,3,0,0,13,13,13,,,,,,,,,,,,,,,,,,,,,,,,,False,73,74,False,exp3.png,exp4.png,trial_left_image,1,exp3.png,2,exp3.png,exp4.png,1,3,reversed,correct,0.05708795179447024,0,invalid_lose,495.6914966000004,44,,,,,,,,,,,,,,,,,,sub_094,2022-10-19_15h15.59.656,Reversal,2022.1.2,59.949306866574204,2,
14,exp1.png,exp2.png,,3,0,3,0,0,14,14,14,,,,,,,,,,,,,,,,,,,,,,,,,False,74,75,False,exp1.png,exp2.png,trial_right_image,-1,exp2.png,2,exp1.png,exp2.png,0,2,non-reversed,incorrect,0.9752517355981034,0,valid_lose,504.02444860000105,44,,,,,,,,,,,,,,,,,,sub_094,2022-10-19_15h15.59.656,Reversal,2022.1.2,59.949306866574204,2,
15,exp3.png,exp4.png,,3,0,3,0,0,15,15,15,,,,,,,,,,,,,,,,,,,,,,,,,False,75,76,False,exp3.png,exp4.png,trial_left_image,1,exp3.png,2,exp3.png,exp4.png,1,3,reversed,correct,0.043517483555420955,0,invalid_lose,513.6073999,44,,,,,,,,,,,,,,,,,,sub_094,2022-10-19_15h15.59.656,Reversal,2022.1.2,59.949306866574204,2,
16,exp1.png,exp2.png,,3,0,3,0,0,16,16,16,,,,,,,,,,,,,,,,,,,,,,,,,False,76,77,True,exp2.png,exp1.png,trial_left_image,1,exp2.png,2,exp1.png,exp2.png,0,2,non-reversed,incorrect,0.6194566376627154,0,valid_lose,522.4919616000006,44,,,,,,,,,,,,,,,,,,sub_094,2022-10-19_15h15.59.656,Reversal,2022.1.2,59.949306866574204,2,
17,exp3.png,exp4.png,,3,0,3,0,0,17,17,17,,,,,,,,,,,,,,,,,,,,,,,,,False,77,78,True,exp4.png,exp3.png,trial_right_image,-1,exp3.png,2,exp3.png,exp4.png,1,3,reversed,correct,0.48694864663754234,1,valid_win,528.8903916999989,45,,,,,,,,,,,,,,,,,,sub_094,2022-10-19_15h15.59.656,Reversal,2022.1.2,59.949306866574204,2,
18,exp1.png,exp2.png,,3,0,3,0,0,18,18,18,,,,,,,,,,,,,,,,,,,,,,,,,False,78,79,True,exp2.png,exp1.png,trial_right_image,-1,exp1.png,2,exp1.png,exp2.png,1,1,non-reversed,correct,0.1823241636891415,0,invalid_lose,534.8070058999983,45,,,,,,,,,,,,,,,,,,sub_094,2022-10-19_15h15.59.656,Reversal,2022.1.2,59.949306866574204,2,
19,exp3.png,exp4.png,,3,0,3,0,0,19,19,19,,,,,,,,,,,,,,,,,,,,,,,,,False,79,80,False,exp3.png,exp4.png,trial_left_image,1,exp3.png,2,exp3.png,exp4.png,1,3,reversed,correct,0.7427233865609281,1,valid_win,539.7236555000018,46,,,,,,,,,,,,,,,,,,sub_094,2022-10-19_15h15.59.656,Reversal,2022.1.2,59.949306866574204,2,
20,exp1.png,exp2.png,,3,0,3,0,0,20,20,20,,,,,,,,,,,,,,,,,,,,,,,,,True,,,,,,,,,,,,,,,,,,,,,,,,,,,,,,,,,,,,,,sub_094,2022-10-19_15h15.59.656,Reversal,2022.1.2,59.949306866574204,2,
,,,exp1.png,3,0,3,0,,,,,0,0,0,0,0,0,0,0,,,,,,,,,,,,,,,,,,,,,,,,,,,,,,,,,,,,,,1.0,1.0,6.860100900001271,"[(1.0, 6.860100900001271)]",623.5571705000002,None,,,,,,,,,,,,sub_094,2022-10-19_15h15.59.656,Reversal,2022.1.2,59.949306866574204,2,
,,,exp2.png,3,0,3,0,,,,,0,0,0,0,0,1,1,1,,,,,,,,,,,,,,,,,,,,,,,,,,,,,,,,,,,,,,,50.0,None,[],632.2137624999996,None,,,,,,,,,,,,sub_094,2022-10-19_15h15.59.656,Reversal,2022.1.2,59.949306866574204,2,
,,,exp3.png,3,0,3,0,,,,,0,0,0,0,0,2,2,2,,,,,,,,,,,,,,,,,,,,,,,,,,,,,,,,,,,,,,,100.0,1.3698941000002378,"[(100.0, 1.3698941000002378)]",635.0808367999998,None,,100.0,,,,,,,,,,sub_094,2022-10-19_15h15.59.656,Reversal,2022.1.2,59.949306866574204,2,
,,,exp4.png,3,0,3,0,,,,,0,0,0,0,0,3,3,3,,,,,,,,,,,,,,,,,,,,,,,,,,,,,,,,,,,,,,,1.0,2.352285100001609,"[(1.0, 2.352285100001609)]",637.3477491000012,None,,,1.0,,,,,,,,,sub_094,2022-10-19_15h15.59.656,Reversal,2022.1.2,59.949306866574204,2,
0,exp1.png,exp2.png,,,,,,,,,,,,,,,,,,0,0,0,0,0,0,0,0,,,,,,,,,False,0,81,False,exp1.png,exp2.png,trial_left_image,1,exp1.png,2,exp1.png,exp2.png,1,1,non-reversed,correct,0.4419703358589546,1,valid_win,563.4394046000016,47,,,,,,,,,,559.404430999999,,,,,,,,sub_094,2022-10-19_15h15.59.656,Reversal,2022.1.2,59.949306866574204,2,
1,exp3.png,exp4.png,,,,,,,,,,,,,,,,,,0,0,0,0,0,1,1,1,,,,,,,,,False,1,82,False,exp3.png,exp4.png,trial_left_image,1,exp3.png,2,exp4.png,exp3.png,1,3,reversed,incorrect,0.9440535503445114,0,valid_lose,568.4566344000013,47,,,,,,,,,,,,,,,,,,sub_094,2022-10-19_15h15.59.656,Reversal,2022.1.2,59.949306866574204,2,
2,exp1.png,exp2.png,,,,,,,,,,,,,,,,,,0,0,0,0,0,2,2,2,,,,,,,,,False,2,83,False,exp1.png,exp2.png,trial_left_image,1,exp1.png,2,exp1.png,exp2.png,1,1,non-reversed,correct,0.014869206156585602,0,invalid_lose,573.6228332999999,47,,,,,,,,,,,,,,,,,,sub_094,2022-10-19_15h15.59.656,Reversal,2022.1.2,59.949306866574204,2,
3,exp3.png,exp4.png,,,,,,,,,,,,,,,,,,0,0,0,0,0,3,3,3,,,,,,,,,False,3,84,True,exp4.png,exp3.png,trial_right_image,-1,exp3.png,2,exp4.png,exp3.png,1,3,reversed,incorrect,0.19276783557265298,1,invalid_win,579.3898888000003,48,,,,,,,,,,,,,,,,,,sub_094,2022-10-19_15h15.59.656,Reversal,2022.1.2,59.949306866574204,2,
4,exp1.png,exp2.png,,,,,,,,,,,,,,,,,,0,0,0,0,0,4,4,4,,,,,,,,,False,4,85,True,exp2.png,exp1.png,trial_right_image,-1,exp1.png,2,exp1.png,exp2.png,1,1,non-reversed,correct,0.4378420024219636,1,valid_win,585.1727331000002,49,,,,,,,,,,,,,,,,,,sub_094,2022-10-19_15h15.59.656,Reversal,2022.1.2,59.949306866574204,2,
5,exp3.png,exp4.png,,,,,,,,,,,,,,,,,,0,0,0,0,0,5,5,5,,,,,,,,,False,5,86,False,exp3.png,exp4.png,trial_left_image,1,exp3.png,2,exp4.png,exp3.png,1,3,reversed,incorrect,0.9770663188773743,0,valid_lose,589.9728165000015,49,,,,,,,,,,,,,,,,,,sub_094,2022-10-19_15h15.59.656,Reversal,2022.1.2,59.949306866574204,2,
6,exp1.png,exp2.png,,,,,,,,,,,,,,,,,,0,0,0,0,0,6,6,6,,,,,,,,,False,6,87,False,exp1.png,exp2.png,trial_right_image,-1,exp2.png,2,exp1.png,exp2.png,0,2,non-reversed,incorrect,0.04463724116263468,1,invalid_win,596.7392462999996,50,,,,,,,,,,,,,,,,,,sub_094,2022-10-19_15h15.59.656,Reversal,2022.1.2,59.949306866574204,2,
7,exp3.png,exp4.png,,,,,,,,,,,,,,,,,,0,0,0,0,0,7,7,7,,,,,,,,,False,7,88,False,exp3.png,exp4.png,trial_left_image,1,exp3.png,2,exp4.png,exp3.png,1,3,reversed,incorrect,0.8255961225008711,0,valid_lose,601.7057777000009,50,,,,,,,,,,,,,,,,,,sub_094,2022-10-19_15h15.59.656,Reversal,2022.1.2,59.949306866574204,2,
8,exp1.png,exp2.png,,,,,,,,,,,,,,,,,,0,0,0,0,0,8,8,8,,,,,,,,,False,8,89,False,exp1.png,exp2.png,trial_right_image,-1,exp2.png,2,exp1.png,exp2.png,0,2,non-reversed,incorrect,0.5684843786518805,0,valid_lose,611.1560186999995,50,,,,,,,,,,,,,,,,,,sub_094,2022-10-19_15h15.59.656,Reversal,2022.1.2,59.949306866574204,2,
9,exp3.png,exp4.png,,,,,,,,,,,,,,,,,,0,0,0,0,0,9,9,9,,,,,,,,,False,9,90,True,exp4.png,exp3.png,trial_right_image,-1,exp3.png,2,exp4.png,exp3.png,1,3,reversed,incorrect,0.511743900136262,0,valid_lose,616.4057123999992,50,,,,,,,,,,,,,,,,,,sub_094,2022-10-19_15h15.59.656,Reversal,2022.1.2,59.949306866574204,2,
10,exp1.png,exp2.png,,,,,,,,,,,,,,,,,,0,0,0,0,0,10,10,10,,,,,,,,,False,10,91,True,exp2.png,exp1.png,trial_left_image,1,exp2.png,2,exp1.png,exp2.png,0,2,non-reversed,incorrect,0.2832074737924908,0,valid_lose,622.0390857999992,50,,,,,,,,,,,,,,,,,,sub_094,2022-10-19_15h15.59.656,Reversal,2022.1.2,59.949306866574204,2,
11,exp3.png,exp4.png,,,,,,,,,,,,,,,,,,0,0,0,0,0,11,11,11,,,,,,,,,False,11,92,True,exp4.png,exp3.png,trial_right_image,-1,exp3.png,2,exp4.png,exp3.png,1,3,reversed,incorrect,0.5329485675187855,0,valid_lose,631.4551806999989,50,,,,,,,,,,,,,,,,,,sub_094,2022-10-19_15h15.59.656,Reversal,2022.1.2,59.949306866574204,2,
12,exp1.png,exp2.png,,,,,,,,,,,,,,,,,,0,0,0,0,0,12,12,12,,,,,,,,,False,12,93,True,exp2.png,exp1.png,trial_right_image,-1,exp1.png,2,exp1.png,exp2.png,1,1,non-reversed,correct,0.5407126754082041,1,valid_win,638.1556249999994,51,,,,,,,,,,,,,,,,,,sub_094,2022-10-19_15h15.59.656,Reversal,2022.1.2,59.949306866574204,2,
13,exp3.png,exp4.png,,,,,,,,,,,,,,,,,,0,0,0,0,0,13,13,13,,,,,,,,,False,13,94,False,exp3.png,exp4.png,trial_right_image,-1,exp4.png,2,exp4.png,exp3.png,0,4,reversed,correct,0.621706197737397,1,valid_win,643.7883642999986,52,,,,,,,,,,,,,,,,,,sub_094,2022-10-19_15h15.59.656,Reversal,2022.1.2,59.949306866574204,2,
14,exp1.png,exp2.png,,,,,,,,,,,,,,,,,,0,0,0,0,0,14,14,14,,,,,,,,,False,14,95,True,exp2.png,exp1.png,trial_right_image,-1,exp1.png,2,exp1.png,exp2.png,1,1,non-reversed,correct,0.4302831677459661,1,valid_win,649.6551112000016,53,,,,,,,,,,,,,,,,,,sub_094,2022-10-19_15h15.59.656,Reversal,2022.1.2,59.949306866574204,2,
15,exp3.png,exp4.png,,,,,,,,,,,,,,,,,,0,0,0,0,0,15,15,15,,,,,,,,,False,15,96,True,exp4.png,exp3.png,trial_left_image,1,exp4.png,2,exp4.png,exp3.png,0,4,reversed,correct,0.21606521675894208,0,invalid_lose,655.6723252999982,53,,,,,,,,,,,,,,,,,,sub_094,2022-10-19_15h15.59.656,Reversal,2022.1.2,59.949306866574204,2,
16,exp1.png,exp2.png,,,,,,,,,,,,,,,,,,0,0,0,0,0,16,16,16,,,,,,,,,False,16,97,True,exp2.png,exp1.png,trial_right_image,-1,exp1.png,2,exp1.png,exp2.png,1,1,non-reversed,correct,0.6140809588314364,1,valid_win,660.6211818000011,54,,,,,,,,,,,,,,,,,,sub_094,2022-10-19_15h15.59.656,Reversal,2022.1.2,59.949306866574204,2,
17,exp3.png,exp4.png,,,,,,,,,,,,,,,,,,0,0,0,0,0,17,17,17,,,,,,,,,False,17,98,False,exp3.png,exp4.png,trial_right_image,-1,exp4.png,2,exp4.png,exp3.png,0,4,reversed,correct,0.26760001742544137,1,valid_win,665.4542847000012,55,,,,,,,,,,,,,,,,,,sub_094,2022-10-19_15h15.59.656,Reversal,2022.1.2,59.949306866574204,2,
18,exp1.png,exp2.png,,,,,,,,,,,,,,,,,,0,0,0,0,0,18,18,18,,,,,,,,,False,18,99,False,exp1.png,exp2.png,trial_right_image,-1,exp2.png,2,exp1.png,exp2.png,0,2,non-reversed,incorrect,0.6037547355439744,0,valid_lose,670.7712457000016,55,,,,,,,,,,,,,,,,,,sub_094,2022-10-19_15h15.59.656,Reversal,2022.1.2,59.949306866574204,2,
19,exp3.png,exp4.png,,,,,,,,,,,,,,,,,,0,0,0,0,0,19,19,19,,,,,,,,,False,19,100,True,exp4.png,exp3.png,trial_right_image,-1,exp3.png,2,exp4.png,exp3.png,1,3,reversed,incorrect,0.7943681002235384,0,valid_lose,679.8211384999995,55,,,,,,,,,,,,,,,,,,sub_094,2022-10-19_15h15.59.656,Reversal,2022.1.2,59.949306866574204,2,
20,exp1.png,exp2.png,,,,,,,,,,,,,,,,,,0,0,0,0,0,20,20,20,,,,,,,,,True,,,,,,,,,,,,,,,,,,,,,,,,,,,,,,,,,,,,,,sub_094,2022-10-19_15h15.59.656,Reversal,2022.1.2,59.949306866574204,2,
,,,exp1.png,,,,,,,,,,,,,,,,,0,0,0,0,,,,,0,0,0,0,0,0,0,0,,,,,,,,,,,,,,,,,,,,,,85.0,85.0,5.255476300000737,"[(85.0, 5.255476300000737)]",763.6677743,None,,,,,,,,,,,,sub_094,2022-10-19_15h15.59.656,Reversal,2022.1.2,59.949306866574204,2,
,,,exp2.png,,,,,,,,,,,,,,,,,0,0,0,0,,,,,0,0,0,0,0,1,1,1,,,,,,,,,,,,,,,,,,,,,,,9.0,5.799081399996794,"[(9.0, 5.799081399996794)]",769.7963477999983,None,9.0,,,,,,,,,,,sub_094,2022-10-19_15h15.59.656,Reversal,2022.1.2,59.949306866574204,2,
,,,exp3.png,,,,,,,,,,,,,,,,,0,0,0,0,,,,,0,0,0,0,0,2,2,2,,,,,,,,,,,,,,,,,,,,,,,100.0,2.618440499998542,"[(100.0, 2.618440499998542)]",776.5795608000008,None,,100.0,,,,,,,,,,sub_094,2022-10-19_15h15.59.656,Reversal,2022.1.2,59.949306866574204,2,
,,,exp4.png,,,,,,,,,,,,,,,,,0,0,0,0,,,,,0,0,0,0,0,3,3,3,,,,,,,,,,,,,,,,,,,,,,,18.0,4.250804899998911,"[(18.0, 4.250804899998911)]",780.127698799999,None,,,18.0,,,,,,,,,sub_094,2022-10-19_15h15.59.656,Reversal,2022.1.2,59.949306866574204,2,
0,exp1.png,exp2.png,,,,,,,,,,,,,,,,,,1,0,1,0,0,0,0,0,,,,,,,,,False,20,101,False,exp1.png,exp2.png,trial_right_image,-1,exp2.png,2,exp1.png,exp2.png,0,2,non-reversed,incorrect,0.5461493307107528,0,valid_lose,712.6700371000006,55,,,,,,,,,,,,,,,,,,sub_094,2022-10-19_15h15.59.656,Reversal,2022.1.2,59.949306866574204,2,
1,exp3.png,exp4.png,,,,,,,,,,,,,,,,,,1,0,1,0,0,1,1,1,,,,,,,,,False,21,102,False,exp3.png,exp4.png,trial_left_image,1,exp3.png,2,exp4.png,exp3.png,1,3,reversed,incorrect,0.6437203245149428,0,valid_lose,718.0371679999989,55,,,,,,,,,,,,,,,,,,sub_094,2022-10-19_15h15.59.656,Reversal,2022.1.2,59.949306866574204,2,
2,exp1.png,exp2.png,,,,,,,,,,,,,,,,,,1,0,1,0,0,2,2,2,,,,,,,,,False,22,103,True,exp2.png,exp1.png,trial_left_image,1,exp2.png,2,exp1.png,exp2.png,0,2,non-reversed,incorrect,0.8583167017480848,0,valid_lose,724.953856600001,55,,,,,,,,,,,,,,,,,,sub_094,2022-10-19_15h15.59.656,Reversal,2022.1.2,59.949306866574204,2,
3,exp3.png,exp4.png,,,,,,,,,,,,,,,,,,1,0,1,0,0,3,3,3,,,,,,,,,False,23,104,True,exp4.png,exp3.png,trial_right_image,-1,exp3.png,2,exp4.png,exp3.png,1,3,reversed,incorrect,0.18603147458667013,1,invalid_win,730.7699682999992,56,,,,,,,,,,,,,,,,,,sub_094,2022-10-19_15h15.59.656,Reversal,2022.1.2,59.949306866574204,2,
4,exp1.png,exp2.png,,,,,,,,,,,,,,,,,,1,0,1,0,0,4,4,4,,,,,,,,,False,24,105,False,exp1.png,exp2.png,trial_right_image,-1,exp2.png,2,exp1.png,exp2.png,0,2,non-reversed,incorrect,0.3377306077843143,0,valid_lose,734.803564400001,56,,,,,,,,,,,,,,,,,,sub_094,2022-10-19_15h15.59.656,Reversal,2022.1.2,59.949306866574204,2,
5,exp3.png,exp4.png,,,,,,,,,,,,,,,,,,1,0,1,0,0,5,5,5,,,,,,,,,False,25,106,True,exp4.png,exp3.png,trial_right_image,-1,exp3.png,2,exp4.png,exp3.png,1,3,reversed,incorrect,0.10149019981859142,1,invalid_win,739.1203122000006,57,,,,,,,,,,,,,,,,,,sub_094,2022-10-19_15h15.59.656,Reversal,2022.1.2,59.949306866574204,2,
6,exp1.png,exp2.png,,,,,,,,,,,,,,,,,,1,0,1,0,0,6,6,6,,,,,,,,,False,26,107,False,exp1.png,exp2.png,trial_left_image,1,exp1.png,2,exp1.png,exp2.png,1,1,non-reversed,correct,0.650689536040634,1,valid_win,743.6698200999999,58,,,,,,,,,,,,,,,,,,sub_094,2022-10-19_15h15.59.656,Reversal,2022.1.2,59.949306866574204,2,
7,exp3.png,exp4.png,,,,,,,,,,,,,,,,,,1,0,1,0,0,7,7,7,,,,,,,,,False,27,108,True,exp4.png,exp3.png,trial_right_image,-1,exp3.png,2,exp4.png,exp3.png,1,3,reversed,incorrect,0.8427022396449312,0,valid_lose,748.403588000001,58,,,,,,,,,,,,,,,,,,sub_094,2022-10-19_15h15.59.656,Reversal,2022.1.2,59.949306866574204,2,
8,exp1.png,exp2.png,,,,,,,,,,,,,,,,,,1,0,1,0,0,8,8,8,,,,,,,,,False,28,109,False,exp1.png,exp2.png,trial_left_image,1,exp1.png,2,exp1.png,exp2.png,1,1,non-reversed,correct,0.8023727955880946,1,valid_win,753.8192772000002,59,,,,,,,,,,,,,,,,,,sub_094,2022-10-19_15h15.59.656,Reversal,2022.1.2,59.949306866574204,2,
9,exp3.png,exp4.png,,,,,,,,,,,,,,,,,,1,0,1,0,0,9,9,9,,,,,,,,,False,29,110,False,exp3.png,exp4.png,trial_right_image,-1,exp4.png,2,exp4.png,exp3.png,0,4,reversed,correct,0.45382112849209244,1,valid_win,760.4364443999984,60,,,,,,,,,,,,,,,,,,sub_094,2022-10-19_15h15.59.656,Reversal,2022.1.2,59.949306866574204,2,
10,exp1.png,exp2.png,,,,,,,,,,,,,,,,,,1,0,1,0,0,10,10,10,,,,,,,,,False,30,111,True,exp2.png,exp1.png,trial_left_image,1,exp2.png,2,exp1.png,exp2.png,0,2,non-reversed,incorrect,0.521855964123392,0,valid_lose,765.8527945999995,60,,,,,,,,,,,,,,,,,,sub_094,2022-10-19_15h15.59.656,Reversal,2022.1.2,59.949306866574204,2,
11,exp3.png,exp4.png,,,,,,,,,,,,,,,,,,1,0,1,0,0,11,11,11,,,,,,,,,False,31,112,False,exp3.png,exp4.png,trial_right_image,-1,exp4.png,2,exp4.png,exp3.png,0,4,reversed,correct,0.7377037541305729,1,valid_win,770.8528526000009,61,,,,,,,,,,,,,,,,,,sub_094,2022-10-19_15h15.59.656,Reversal,2022.1.2,59.949306866574204,2,
12,exp1.png,exp2.png,,,,,,,,,,,,,,,,,,1,0,1,0,0,12,12,12,,,,,,,,,False,32,113,True,exp2.png,exp1.png,trial_right_image,-1,exp1.png,2,exp1.png,exp2.png,1,1,non-reversed,correct,0.26605447425372397,1,valid_win,775.0024836999983,62,,,,,,,,,,,,,,,,,,sub_094,2022-10-19_15h15.59.656,Reversal,2022.1.2,59.949306866574204,2,
13,exp3.png,exp4.png,,,,,,,,,,,,,,,,,,1,0,1,0,0,13,13,13,,,,,,,,,False,33,114,False,exp3.png,exp4.png,trial_right_image,-1,exp4.png,2,exp4.png,exp3.png,0,4,reversed,correct,0.43400675863590243,1,valid_win,779.0358721000011,63,,,,,,,,,,,,,,,,,,sub_094,2022-10-19_15h15.59.656,Reversal,2022.1.2,59.949306866574204,2,
14,exp1.png,exp2.png,,,,,,,,,,,,,,,,,,1,0,1,0,0,14,14,14,,,,,,,,,False,34,115,True,exp2.png,exp1.png,trial_right_image,-1,exp1.png,2,exp1.png,exp2.png,1,1,non-reversed,correct,0.7762612896108213,1,valid_win,783.3191473000006,64,,,,,,,,,,,,,,,,,,sub_094,2022-10-19_15h15.59.656,Reversal,2022.1.2,59.949306866574204,2,
15,exp3.png,exp4.png,,,,,,,,,,,,,,,,,,1,0,1,0,0,15,15,15,,,,,,,,,False,35,116,True,exp4.png,exp3.png,trial_right_image,-1,exp3.png,2,exp4.png,exp3.png,1,3,reversed,incorrect,0.2658535919472861,0,valid_lose,787.7356378000004,64,,,,,,,,,,,,,,,,,,sub_094,2022-10-19_15h15.59.656,Reversal,2022.1.2,59.949306866574204,2,
16,exp1.png,exp2.png,,,,,,,,,,,,,,,,,,1,0,1,0,0,16,16,16,,,,,,,,,False,36,117,False,exp1.png,exp2.png,trial_right_image,-1,exp2.png,2,exp1.png,exp2.png,0,2,non-reversed,incorrect,0.5532848152596621,0,valid_lose,791.8191307999987,64,,,,,,,,,,,,,,,,,,sub_094,2022-10-19_15h15.59.656,Reversal,2022.1.2,59.949306866574204,2,
17,exp3.png,exp4.png,,,,,,,,,,,,,,,,,,1,0,1,0,0,17,17,17,,,,,,,,,False,37,118,True,exp4.png,exp3.png,trial_left_image,1,exp4.png,2,exp4.png,exp3.png,0,4,reversed,correct,0.6404442670363085,1,valid_win,797.0023043000001,65,,,,,,,,,,,,,,,,,,sub_094,2022-10-19_15h15.59.656,Reversal,2022.1.2,59.949306866574204,2,
18,exp1.png,exp2.png,,,,,,,,,,,,,,,,,,1,0,1,0,0,18,18,18,,,,,,,,,False,38,119,True,exp2.png,exp1.png,trial_left_image,1,exp2.png,2,exp1.png,exp2.png,0,2,non-reversed,incorrect,0.27085785536995133,0,valid_lose,803.0688483999984,65,,,,,,,,,,,,,,,,,,sub_094,2022-10-19_15h15.59.656,Reversal,2022.1.2,59.949306866574204,2,
19,exp3.png,exp4.png,,,,,,,,,,,,,,,,,,1,0,1,0,0,19,19,19,,,,,,,,,False,39,120,False,exp3.png,exp4.png,trial_right_image,-1,exp4.png,2,exp4.png,exp3.png,0,4,reversed,correct,0.8115076971026175,1,valid_win,807.9854231999998,66,,,,,,,,,,,,,,,,,,sub_094,2022-10-19_15h15.59.656,Reversal,2022.1.2,59.949306866574204,2,
20,exp1.png,exp2.png,,,,,,,,,,,,,,,,,,1,0,1,0,0,20,20,20,,,,,,,,,True,,,,,,,,,,,,,,,,,,,,,,,,,,,,,,,,,,,,,,sub_094,2022-10-19_15h15.59.656,Reversal,2022.1.2,59.949306866574204,2,
,,,exp1.png,,,,,,,,,,,,,,,,,1,0,1,0,,,,,0,0,0,0,0,0,0,0,,,,,,,,,,,,,,,,,,,,,,85.0,85.0,2.816563500000484,"[(85.0, 2.816563500000484)]",891.8290293999999,None,,,,,,,,,,,,sub_094,2022-10-19_15h15.59.656,Reversal,2022.1.2,59.949306866574204,2,
,,,exp2.png,,,,,,,,,,,,,,,,,1,0,1,0,,,,,0,0,0,0,0,1,1,1,,,,,,,,,,,,,,,,,,,,,,,1.0,1.6351135000004433,"[(1.0, 1.6351135000004433)]",895.4258544000004,None,1.0,,,,,,,,,,,sub_094,2022-10-19_15h15.59.656,Reversal,2022.1.2,59.949306866574204,2,
,,,exp3.png,,,,,,,,,,,,,,,,,1,0,1,0,,,,,0,0,0,0,0,2,2,2,,,,,,,,,,,,,,,,,,,,,,,1.0,1.198745500001678,"[(1.0, 1.198745500001678)]",898.066861700001,None,,1.0,,,,,,,,,,sub_094,2022-10-19_15h15.59.656,Reversal,2022.1.2,59.949306866574204,2,
,,,exp4.png,,,,,,,,,,,,,,,,,1,0,1,0,,,,,0,0,0,0,0,3,3,3,,,,,,,,,,,,,,,,,,,,,,,100.0,1.2498512000020128,"[(100.0, 1.2498512000020128)]",900.2099109999981,None,,,100.0,,,,,,,,,sub_094,2022-10-19_15h15.59.656,Reversal,2022.1.2,59.949306866574204,2,
0,exp1.png,exp2.png,,,,,,,,,,,,,,,,,,2,0,2,0,0,0,0,0,,,,,,,,,False,40,121,True,exp2.png,exp1.png,trial_right_image,-1,exp1.png,2,exp1.png,exp2.png,1,1,non-reversed,correct,0.2091151775686504,0,invalid_lose,826.0683535999997,66,,,,,,,,,,,,,,,,,,sub_094,2022-10-19_15h15.59.656,Reversal,2022.1.2,59.949306866574204,2,
1,exp3.png,exp4.png,,,,,,,,,,,,,,,,,,2,0,2,0,0,1,1,1,,,,,,,,,False,41,122,True,exp4.png,exp3.png,trial_right_image,-1,exp3.png,2,exp4.png,exp3.png,1,3,reversed,incorrect,0.5555141336516677,0,valid_lose,830.0519064,66,,,,,,,,,,,,,,,,,,sub_094,2022-10-19_15h15.59.656,Reversal,2022.1.2,59.949306866574204,2,
2,exp1.png,exp2.png,,,,,,,,,,,,,,,,,,2,0,2,0,0,2,2,2,,,,,,,,,False,42,123,True,exp2.png,exp1.png,trial_left_image,1,exp2.png,2,exp1.png,exp2.png,0,2,non-reversed,incorrect,0.29046042061727806,0,valid_lose,834.4015188999983,66,,,,,,,,,,,,,,,,,,sub_094,2022-10-19_15h15.59.656,Reversal,2022.1.2,59.949306866574204,2,
3,exp3.png,exp4.png,,,,,,,,,,,,,,,,,,2,0,2,0,0,3,3,3,,,,,,,,,False,43,124,False,exp3.png,exp4.png,trial_left_image,1,exp3.png,2,exp4.png,exp3.png,1,3,reversed,incorrect,0.18265373598840318,1,invalid_win,841.2015874999997,67,,,,,,,,,,,,,,,,,,sub_094,2022-10-19_15h15.59.656,Reversal,2022.1.2,59.949306866574204,2,
4,exp1.png,exp2.png,,,,,,,,,,,,,,,,,,2,0,2,0,0,4,4,4,,,,,,,,,False,44,125,True,exp2.png,exp1.png,trial_right_image,-1,exp1.png,2,exp1.png,exp2.png,1,1,non-reversed,correct,0.13549308398828452,0,invalid_lose,847.6346486000002,67,,,,,,,,,,,,,,,,,,sub_094,2022-10-19_15h15.59.656,Reversal,2022.1.2,59.949306866574204,2,
5,exp3.png,exp4.png,,,,,,,,,,,,,,,,,,2,0,2,0,0,5,5,5,,,,,,,,,False,45,126,False,exp3.png,exp4.png,trial_left_image,1,exp3.png,2,exp4.png,exp3.png,1,3,reversed,incorrect,0.07225134470970329,1,invalid_win,852.651687900001,68,,,,,,,,,,,,,,,,,,sub_094,2022-10-19_15h15.59.656,Reversal,2022.1.2,59.949306866574204,2,
6,exp1.png,exp2.png,,,,,,,,,,,,,,,,,,2,0,2,0,0,6,6,6,,,,,,,,,False,46,127,False,exp1.png,exp2.png,trial_right_image,-1,exp2.png,2,exp1.png,exp2.png,0,2,non-reversed,incorrect,0.5262825673676128,0,valid_lose,857.2844207000016,68,,,,,,,,,,,,,,,,,,sub_094,2022-10-19_15h15.59.656,Reversal,2022.1.2,59.949306866574204,2,
7,exp3.png,exp4.png,,,,,,,,,,,,,,,,,,2,0,2,0,0,7,7,7,,,,,,,,,False,47,128,True,exp4.png,exp3.png,trial_right_image,-1,exp3.png,2,exp4.png,exp3.png,1,3,reversed,incorrect,0.7065971315367418,0,valid_lose,861.6345626000002,68,,,,,,,,,,,,,,,,,,sub_094,2022-10-19_15h15.59.656,Reversal,2022.1.2,59.949306866574204,2,
8,exp1.png,exp2.png,,,,,,,,,,,,,,,,,,2,0,2,0,0,8,8,8,,,,,,,,,False,48,129,False,exp1.png,exp2.png,trial_left_image,1,exp1.png,2,exp1.png,exp2.png,1,1,non-reversed,correct,0.46520806055736974,1,valid_win,865.5343604000009,69,,,,,,,,,,,,,,,,,,sub_094,2022-10-19_15h15.59.656,Reversal,2022.1.2,59.949306866574204,2,
9,exp3.png,exp4.png,,,,,,,,,,,,,,,,,,2,0,2,0,0,9,9,9,,,,,,,,,False,49,130,True,exp4.png,exp3.png,trial_left_image,1,exp4.png,2,exp4.png,exp3.png,0,4,reversed,correct,0.2014030776069594,0,invalid_lose,869.9176570000018,69,,,,,,,,,,,,,,,,,,sub_094,2022-10-19_15h15.59.656,Reversal,2022.1.2,59.949306866574204,2,
10,exp1.png,exp2.png,,,,,,,,,,,,,,,,,,2,0,2,0,0,10,10,10,,,,,,,,,False,50,131,True,exp2.png,exp1.png,trial_left_image,1,exp2.png,2,exp1.png,exp2.png,0,2,non-reversed,incorrect,0.021865447956328943,1,invalid_win,875.0008120999992,70,,,,,,,,,,,,,,,,,,sub_094,2022-10-19_15h15.59.656,Reversal,2022.1.2,59.949306866574204,2,
11,exp3.png,exp4.png,,,,,,,,,,,,,,,,,,2,0,2,0,0,11,11,11,,,,,,,,,False,51,132,True,exp4.png,exp3.png,trial_left_image,1,exp4.png,2,exp4.png,exp3.png,0,4,reversed,correct,0.026822222063079604,0,invalid_lose,885.7175504000006,70,,,,,,,,,,,,,,,,,,sub_094,2022-10-19_15h15.59.656,Reversal,2022.1.2,59.949306866574204,2,
12,exp1.png,exp2.png,,,,,,,,,,,,,,,,,,2,0,2,0,0,12,12,12,,,,,,,,,False,52,133,False,exp1.png,exp2.png,trial_left_image,1,exp1.png,2,exp1.png,exp2.png,1,1,non-reversed,correct,0.3808617502916827,1,valid_win,890.5334767999993,71,,,,,,,,,,,,,,,,,,sub_094,2022-10-19_15h15.59.656,Reversal,2022.1.2,59.949306866574204,2,
13,exp3.png,exp4.png,,,,,,,,,,,,,,,,,,2,0,2,0,0,13,13,13,,,,,,,,,False,53,134,True,exp4.png,exp3.png,trial_right_image,-1,exp3.png,2,exp4.png,exp3.png,1,3,reversed,incorrect,0.35036226999203945,0,valid_lose,896.2999839000004,71,,,,,,,,,,,,,,,,,,sub_094,2022-10-19_15h15.59.656,Reversal,2022.1.2,59.949306866574204,2,
14,exp1.png,exp2.png,,,,,,,,,,,,,,,,,,2,0,2,0,0,14,14,14,,,,,,,,,False,54,135,False,exp1.png,exp2.png,trial_left_image,1,exp1.png,2,exp1.png,exp2.png,1,1,non-reversed,correct,0.5706433964101183,1,valid_win,900.285538600001,72,,,,,,,,,,,,,,,,,,sub_094,2022-10-19_15h15.59.656,Reversal,2022.1.2,59.949306866574204,2,
15,exp3.png,exp4.png,,,,,,,,,,,,,,,,,,2,0,2,0,0,15,15,15,,,,,,,,,False,55,136,False,exp3.png,exp4.png,trial_left_image,1,exp3.png,2,exp4.png,exp3.png,1,3,reversed,incorrect,0.41009109503383157,0,valid_lose,905.2506715999989,72,,,,,,,,,,,,,,,,,,sub_094,2022-10-19_15h15.59.656,Reversal,2022.1.2,59.949306866574204,2,
16,exp1.png,exp2.png,,,,,,,,,,,,,,,,,,2,0,2,0,0,16,16,16,,,,,,,,,False,56,137,False,exp1.png,exp2.png,trial_left_image,1,exp1.png,2,exp1.png,exp2.png,1,1,non-reversed,correct,0.7991317077798538,1,valid_win,912.1836831,73,,,,,,,,,,,,,,,,,,sub_094,2022-10-19_15h15.59.656,Reversal,2022.1.2,59.949306866574204,2,
17,exp3.png,exp4.png,,,,,,,,,,,,,,,,,,2,0,2,0,0,17,17,17,,,,,,,,,False,57,138,False,exp3.png,exp4.png,trial_right_image,-1,exp4.png,2,exp4.png,exp3.png,0,4,reversed,correct,0.3353124470675868,1,valid_win,919.0502897000006,74,,,,,,,,,,,,,,,,,,sub_094,2022-10-19_15h15.59.656,Reversal,2022.1.2,59.949306866574204,2,
18,exp1.png,exp2.png,,,,,,,,,,,,,,,,,,2,0,2,0,0,18,18,18,,,,,,,,,False,58,139,True,exp2.png,exp1.png,trial_right_image,-1,exp1.png,2,exp1.png,exp2.png,1,1,non-reversed,correct,0.3457183817204005,1,valid_win,923.7335438000009,75,,,,,,,,,,,,,,,,,,sub_094,2022-10-19_15h15.59.656,Reversal,2022.1.2,59.949306866574204,2,
19,exp3.png,exp4.png,,,,,,,,,,,,,,,,,,2,0,2,0,0,19,19,19,,,,,,,,,False,59,140,False,exp3.png,exp4.png,trial_right_image,-1,exp4.png,2,exp4.png,exp3.png,0,4,reversed,correct,0.27817190095287336,1,valid_win,927.9833971000007,76,,,,,,,,,,,,,,,,,,sub_094,2022-10-19_15h15.59.656,Reversal,2022.1.2,59.949306866574204,2,
20,exp1.png,exp2.png,,,,,,,,,,,,,,,,,,2,0,2,0,0,20,20,20,,,,,,,,,True,,,,,,,,,,,,,,,,,,,,,,,,,,,,,,,,,,,,,,sub_094,2022-10-19_15h15.59.656,Reversal,2022.1.2,59.949306866574204,2,
,,,exp1.png,,,,,,,,,,,,,,,,,2,0,2,0,,,,,0,0,0,0,0,0,0,0,,,,,,,,,,,,,,,,,,,,,,100.0,100.0,6.66551900000195,"[(100.0, 6.66551900000195)]",1011.8291319999989,None,,,,,,,,,,,,sub_094,2022-10-19_15h15.59.656,Reversal,2022.1.2,59.949306866574204,2,
,,,exp2.png,,,,,,,,,,,,,,,,,2,0,2,0,,,,,0,0,0,0,0,1,1,1,,,,,,,,,,,,,,,,,,,,,,,1.0,1.269382799997402,"[(1.0, 1.269382799997402)]",1019.3238999999994,None,1.0,,,,,,,,,,,sub_094,2022-10-19_15h15.59.656,Reversal,2022.1.2,59.949306866574204,2,
,,,exp3.png,,,,,,,,,,,,,,,,,2,0,2,0,,,,,0,0,0,0,0,2,2,2,,,,,,,,,,,,,,,,,,,,,,,1.0,16.450202200001513,"[(1.0, 16.450202200001513)]",1021.5747492999981,None,,1.0,,,,,,,,,,sub_094,2022-10-19_15h15.59.656,Reversal,2022.1.2,59.949306866574204,2,
,,,exp4.png,,,,,,,,,,,,,,,,,2,0,2,0,,,,,0,0,0,0,0,3,3,3,,,,,,,,,,,,,,,,,,,,,,,100.0,1.2316950999993423,"[(100.0, 1.2316950999993423)]",1038.961499500001,None,,,100.0,,,,,,,,,sub_094,2022-10-19_15h15.59.656,Reversal,2022.1.2,59.949306866574204,2,
,,,,,,,,,,,,,,,,,,,,,,,,,,,,,,,,,,,,,,,,,,,,,,,,,,,,,,,,76,,,,,,,,,,,88,59,29,400.3300263000019,1,space,47.58660630000304,sub_094,2022-10-19_15h15.59.656,Reversal,2022.1.2,59.949306866574204,2,
