trial_index,trial_image1_file,trial_image2_file,image_file,learning_outer_loop.thisRepN,learning_outer_loop.thisTrialN,learning_outer_loop.thisN,learning_outer_loop.thisIndex,learning_inner_loop.thisRepN,learning_inner_loop.thisTrialN,learning_inner_loop.thisN,learning_inner_loop.thisIndex,learning_estimation_outer_loop.thisRepN,learning_estimation_outer_loop.thisTrialN,learning_estimation_outer_loop.thisN,learning_estimation_outer_loop.thisIndex,learning_estimation_inner_loop.thisRepN,learning_estimation_inner_loop.thisTrialN,learning_estimation_inner_loop.thisN,learning_estimation_inner_loop.thisIndex,reversal_outer_loop.thisRepN,reversal_outer_loop.thisTrialN,reversal_outer_loop.thisN,reversal_outer_loop.thisIndex,reversal_inner_loop.thisRepN,reversal_inner_loop.thisTrialN,reversal_inner_loop.thisN,reversal_inner_loop.thisIndex,reversal_estimation_outer_loop.thisRepN,reversal_estimation_outer_loop.thisTrialN,reversal_estimation_outer_loop.thisN,reversal_estimation_outer_loop.thisIndex,reversal_estimation_inner_loop.thisRepN,reversal_estimation_inner_loop.thisTrialN,reversal_estimation_inner_loop.thisN,reversal_estimation_inner_loop.thisIndex,skipped,total_trial_counter,trial_num,left_right_flip,left_image_file,right_image_file,clicked_stimulus_side,side,clicked_stimulus,version,high_prob_image_file,low_prob_image_file,choice_a,choice_b,pair_type,correct,trial_feedback_random,reward,trial_type,overall_time_after_trial,score,estimation_rating.started,estimation_exp1.png,estimation_rating.response,estimation_rating.rt,estimation_rating.history,estimation_exp2.png,estimation_exp3.png,estimation_exp4.png,total_learning_time,total_correct,learning_correct,reversal_correct,total_reversal_time,extra_block,participant,date,expName,psychopyVersion,frameRate,ver,
0,exp1.png,exp2.png,,0,0,0,0,0,0,0,0,,,,,,,,,,,,,,,,,,,,,,,,,False,0,1,False,exp1.png,exp2.png,trial_right_image,-1,exp2.png,1,exp1.png,exp2.png,0,4,reversed,incorrect,0.2689410435479602,0,valid_lose,4.66288749999967,0,,,,,,,,,,,,,,,sub_605,2024-08-18_11h30.46.736,Reversal,2023.1.3,60.00294014397095,1,
1,exp3.png,exp4.png,,0,0,0,0,0,1,1,1,,,,,,,,,,,,,,,,,,,,,,,,,False,1,2,False,exp3.png,exp4.png,trial_left_image,1,exp3.png,1,exp3.png,exp4.png,1,1,non-reversed,correct,0.6708104285518198,1,valid_win,9.944910000000164,1,,,,,,,,,,,,,,,sub_605,2024-08-18_11h30.46.736,Reversal,2023.1.3,60.00294014397095,1,
2,exp1.png,exp2.png,,0,0,0,0,0,2,2,2,,,,,,,,,,,,,,,,,,,,,,,,,False,2,3,True,exp2.png,exp1.png,trial_right_image,-1,exp1.png,1,exp1.png,exp2.png,1,3,reversed,correct,0.4943437116234054,1,valid_win,14.74314940000022,2,,,,,,,,,,,,,,,sub_605,2024-08-18_11h30.46.736,Reversal,2023.1.3,60.00294014397095,1,
3,exp3.png,exp4.png,,0,0,0,0,0,3,3,3,,,,,,,,,,,,,,,,,,,,,,,,,False,3,4,True,exp4.png,exp3.png,trial_right_image,-1,exp3.png,1,exp3.png,exp4.png,1,1,non-reversed,correct,0.2935069743938227,1,valid_win,21.710163300000204,3,,,,,,,,,,,,,,,sub_605,2024-08-18_11h30.46.736,Reversal,2023.1.3,60.00294014397095,1,
4,exp1.png,exp2.png,,0,0,0,0,0,4,4,4,,,,,,,,,,,,,,,,,,,,,,,,,False,4,5,True,exp2.png,exp1.png,trial_right_image,-1,exp1.png,1,exp1.png,exp2.png,1,3,reversed,correct,0.9249703641298963,1,valid_win,26.222004000000197,4,,,,,,,,,,,,,,,sub_605,2024-08-18_11h30.46.736,Reversal,2023.1.3,60.00294014397095,1,
5,exp3.png,exp4.png,,0,0,0,0,0,5,5,5,,,,,,,,,,,,,,,,,,,,,,,,,False,5,6,False,exp3.png,exp4.png,trial_left_image,1,exp3.png,1,exp3.png,exp4.png,1,1,non-reversed,correct,0.003567883048701148,0,invalid_lose,30.854203899999447,4,,,,,,,,,,,,,,,sub_605,2024-08-18_11h30.46.736,Reversal,2023.1.3,60.00294014397095,1,
6,exp1.png,exp2.png,,0,0,0,0,0,6,6,6,,,,,,,,,,,,,,,,,,,,,,,,,False,6,7,False,exp1.png,exp2.png,trial_right_image,-1,exp2.png,1,exp1.png,exp2.png,0,4,reversed,incorrect,0.5301425862471756,0,valid_lose,35.868571599999996,4,,,,,,,,,,,,,,,sub_605,2024-08-18_11h30.46.736,Reversal,2023.1.3,60.00294014397095,1,
7,exp3.png,exp4.png,,0,0,0,0,0,7,7,7,,,,,,,,,,,,,,,,,,,,,,,,,False,7,8,True,exp4.png,exp3.png,trial_right_image,-1,exp3.png,1,exp3.png,exp4.png,1,1,non-reversed,correct,0.7050860358137845,1,valid_win,40.35088259999975,5,,,,,,,,,,,,,,,sub_605,2024-08-18_11h30.46.736,Reversal,2023.1.3,60.00294014397095,1,
8,exp1.png,exp2.png,,0,0,0,0,0,8,8,8,,,,,,,,,,,,,,,,,,,,,,,,,False,8,9,False,exp1.png,exp2.png,trial_left_image,1,exp1.png,1,exp1.png,exp2.png,1,3,reversed,correct,0.9829837649377476,1,valid_win,45.14897060000021,6,,,,,,,,,,,,,,,sub_605,2024-08-18_11h30.46.736,Reversal,2023.1.3,60.00294014397095,1,
9,exp3.png,exp4.png,,0,0,0,0,0,9,9,9,,,,,,,,,,,,,,,,,,,,,,,,,False,9,10,False,exp3.png,exp4.png,trial_left_image,1,exp3.png,1,exp3.png,exp4.png,1,1,non-reversed,correct,0.008104793455500747,0,invalid_lose,49.74793619999946,6,,,,,,,,,,,,,,,sub_605,2024-08-18_11h30.46.736,Reversal,2023.1.3,60.00294014397095,1,
10,exp1.png,exp2.png,,0,0,0,0,0,10,10,10,,,,,,,,,,,,,,,,,,,,,,,,,False,10,11,True,exp2.png,exp1.png,trial_right_image,-1,exp1.png,1,exp1.png,exp2.png,1,3,reversed,correct,0.4900517349235336,1,valid_win,54.09578710000005,7,,,,,,,,,,,,,,,sub_605,2024-08-18_11h30.46.736,Reversal,2023.1.3,60.00294014397095,1,
11,exp3.png,exp4.png,,0,0,0,0,0,11,11,11,,,,,,,,,,,,,,,,,,,,,,,,,False,11,12,False,exp3.png,exp4.png,trial_right_image,-1,exp4.png,1,exp3.png,exp4.png,0,2,non-reversed,incorrect,0.2448667645388114,1,invalid_win,59.24456829999963,8,,,,,,,,,,,,,,,sub_605,2024-08-18_11h30.46.736,Reversal,2023.1.3,60.00294014397095,1,
12,exp1.png,exp2.png,,0,0,0,0,0,12,12,12,,,,,,,,,,,,,,,,,,,,,,,,,False,12,13,False,exp1.png,exp2.png,trial_left_image,1,exp1.png,1,exp1.png,exp2.png,1,3,reversed,correct,0.12202162061240718,0,invalid_lose,64.60878259999936,8,,,,,,,,,,,,,,,sub_605,2024-08-18_11h30.46.736,Reversal,2023.1.3,60.00294014397095,1,
13,exp3.png,exp4.png,,0,0,0,0,0,13,13,13,,,,,,,,,,,,,,,,,,,,,,,,,False,13,14,True,exp4.png,exp3.png,trial_right_image,-1,exp3.png,1,exp3.png,exp4.png,1,1,non-reversed,correct,0.4232190538032907,1,valid_win,69.1409993999996,9,,,,,,,,,,,,,,,sub_605,2024-08-18_11h30.46.736,Reversal,2023.1.3,60.00294014397095,1,
14,exp1.png,exp2.png,,0,0,0,0,0,14,14,14,,,,,,,,,,,,,,,,,,,,,,,,,False,14,15,False,exp1.png,exp2.png,trial_left_image,1,exp1.png,1,exp1.png,exp2.png,1,3,reversed,correct,0.2685892934800709,1,valid_win,75.2555013000001,10,,,,,,,,,,,,,,,sub_605,2024-08-18_11h30.46.736,Reversal,2023.1.3,60.00294014397095,1,
15,exp3.png,exp4.png,,0,0,0,0,0,15,15,15,,,,,,,,,,,,,,,,,,,,,,,,,False,15,16,False,exp3.png,exp4.png,trial_right_image,-1,exp4.png,1,exp3.png,exp4.png,0,2,non-reversed,incorrect,0.9962718777714787,0,valid_lose,79.48736120000012,10,,,,,,,,,,,,,,,sub_605,2024-08-18_11h30.46.736,Reversal,2023.1.3,60.00294014397095,1,
16,exp1.png,exp2.png,,0,0,0,0,0,16,16,16,,,,,,,,,,,,,,,,,,,,,,,,,False,16,17,True,exp2.png,exp1.png,trial_left_image,1,exp2.png,1,exp1.png,exp2.png,0,4,reversed,incorrect,0.6664974097818882,0,valid_lose,84.50222020000001,10,,,,,,,,,,,,,,,sub_605,2024-08-18_11h30.46.736,Reversal,2023.1.3,60.00294014397095,1,
17,exp3.png,exp4.png,,0,0,0,0,0,17,17,17,,,,,,,,,,,,,,,,,,,,,,,,,False,17,18,True,exp4.png,exp3.png,trial_left_image,1,exp4.png,1,exp3.png,exp4.png,0,2,non-reversed,incorrect,0.34042646359638784,0,valid_lose,88.31843639999988,10,,,,,,,,,,,,,,,sub_605,2024-08-18_11h30.46.736,Reversal,2023.1.3,60.00294014397095,1,
18,exp1.png,exp2.png,,0,0,0,0,0,18,18,18,,,,,,,,,,,,,,,,,,,,,,,,,False,18,19,True,exp2.png,exp1.png,trial_right_image,-1,exp1.png,1,exp1.png,exp2.png,1,3,reversed,correct,0.08031138218868239,0,invalid_lose,92.31626020000022,10,,,,,,,,,,,,,,,sub_605,2024-08-18_11h30.46.736,Reversal,2023.1.3,60.00294014397095,1,
19,exp3.png,exp4.png,,0,0,0,0,0,19,19,19,,,,,,,,,,,,,,,,,,,,,,,,,False,19,20,True,exp4.png,exp3.png,trial_right_image,-1,exp3.png,1,exp3.png,exp4.png,1,1,non-reversed,correct,0.927602797293286,1,valid_win,96.51493419999952,11,,,,,,,,,,,,,,,sub_605,2024-08-18_11h30.46.736,Reversal,2023.1.3,60.00294014397095,1,
20,exp1.png,exp2.png,,0,0,0,0,0,20,20,20,,,,,,,,,,,,,,,,,,,,,,,,,True,,,,,,,,,,,,,,,,,,,,,,,,,,,,,,,,,,,sub_605,2024-08-18_11h30.46.736,Reversal,2023.1.3,60.00294014397095,1,
,,,exp1.png,0,0,0,0,,,,,0,0,0,0,0,0,0,0,,,,,,,,,,,,,,,,,,,,,,,,,,,,,,,,,,,,,,244.61590109999997,100.0,100.0,7.226283999999396,"[(83.0, 6.45940470000005), (100.0, 7.226283999999396)]",,,,,,,,,,sub_605,2024-08-18_11h30.46.736,Reversal,2023.1.3,60.00294014397095,1,
,,,exp2.png,0,0,0,0,,,,,0,0,0,0,0,1,1,1,,,,,,,,,,,,,,,,,,,,,,,,,,,,,,,,,,,,,,252.92011410000032,,77.0,5.443272900000011,"[(58.0, 3.7602335000001403), (66.0, 4.560592200000428), (77.0, 5.443272900000011)]",77.0,,,,,,,,,sub_605,2024-08-18_11h30.46.736,Reversal,2023.1.3,60.00294014397095,1,
,,,exp3.png,0,0,0,0,,,,,0,0,0,0,0,2,2,2,,,,,,,,,,,,,,,,,,,,,,,,,,,,,,,,,,,,,,259.34126259999994,,3.0,2.6242369999999937,"[(3.0, 2.6242369999999937)]",,3.0,,,,,,,,sub_605,2024-08-18_11h30.46.736,Reversal,2023.1.3,60.00294014397095,1,
,,,exp4.png,0,0,0,0,,,,,0,0,0,0,0,3,3,3,,,,,,,,,,,,,,,,,,,,,,,,,,,,,,,,,,,,,,263.1154873000005,,82.0,3.5115476999999373,"[(82.0, 3.5115476999999373)]",,,82.0,,,,,,,sub_605,2024-08-18_11h30.46.736,Reversal,2023.1.3,60.00294014397095,1,
0,exp1.png,exp2.png,,1,0,1,0,0,0,0,0,,,,,,,,,,,,,,,,,,,,,,,,,False,20,21,True,exp2.png,exp1.png,trial_right_image,-1,exp1.png,1,exp1.png,exp2.png,1,3,reversed,correct,0.6401388781925507,1,valid_win,124.35507059999964,12,,,,,,,,,,,,,,,sub_605,2024-08-18_11h30.46.736,Reversal,2023.1.3,60.00294014397095,1,
1,exp3.png,exp4.png,,1,0,1,0,0,1,1,1,,,,,,,,,,,,,,,,,,,,,,,,,False,21,22,True,exp4.png,exp3.png,trial_left_image,1,exp4.png,1,exp3.png,exp4.png,0,2,non-reversed,incorrect,0.9164559684469115,0,valid_lose,129.37048510000022,12,,,,,,,,,,,,,,,sub_605,2024-08-18_11h30.46.736,Reversal,2023.1.3,60.00294014397095,1,
2,exp1.png,exp2.png,,1,0,1,0,0,2,2,2,,,,,,,,,,,,,,,,,,,,,,,,,False,22,23,False,exp1.png,exp2.png,trial_right_image,-1,exp2.png,1,exp1.png,exp2.png,0,4,reversed,incorrect,0.6522192932970304,0,valid_lose,133.20213989999957,12,,,,,,,,,,,,,,,sub_605,2024-08-18_11h30.46.736,Reversal,2023.1.3,60.00294014397095,1,
3,exp3.png,exp4.png,,1,0,1,0,0,3,3,3,,,,,,,,,,,,,,,,,,,,,,,,,False,23,24,True,exp4.png,exp3.png,trial_right_image,-1,exp3.png,1,exp3.png,exp4.png,1,1,non-reversed,correct,0.9061202525597272,1,valid_win,138.45065259999956,13,,,,,,,,,,,,,,,sub_605,2024-08-18_11h30.46.736,Reversal,2023.1.3,60.00294014397095,1,
4,exp1.png,exp2.png,,1,0,1,0,0,4,4,4,,,,,,,,,,,,,,,,,,,,,,,,,False,24,25,False,exp1.png,exp2.png,trial_right_image,-1,exp2.png,1,exp1.png,exp2.png,0,4,reversed,incorrect,0.5353446881104741,0,valid_lose,142.94873000000007,13,,,,,,,,,,,,,,,sub_605,2024-08-18_11h30.46.736,Reversal,2023.1.3,60.00294014397095,1,
5,exp3.png,exp4.png,,1,0,1,0,0,5,5,5,,,,,,,,,,,,,,,,,,,,,,,,,False,25,26,True,exp4.png,exp3.png,trial_right_image,-1,exp3.png,1,exp3.png,exp4.png,1,1,non-reversed,correct,0.7786772723840736,1,valid_win,146.99749770000017,14,,,,,,,,,,,,,,,sub_605,2024-08-18_11h30.46.736,Reversal,2023.1.3,60.00294014397095,1,
6,exp1.png,exp2.png,,1,0,1,0,0,6,6,6,,,,,,,,,,,,,,,,,,,,,,,,,False,26,27,False,exp1.png,exp2.png,trial_left_image,1,exp1.png,1,exp1.png,exp2.png,1,3,reversed,correct,0.24712499094824403,0,invalid_lose,151.99562999999944,14,,,,,,,,,,,,,,,sub_605,2024-08-18_11h30.46.736,Reversal,2023.1.3,60.00294014397095,1,
7,exp3.png,exp4.png,,1,0,1,0,0,7,7,7,,,,,,,,,,,,,,,,,,,,,,,,,False,27,28,True,exp4.png,exp3.png,trial_right_image,-1,exp3.png,1,exp3.png,exp4.png,1,1,non-reversed,correct,0.7547581372504731,1,valid_win,155.51104870000017,15,,,,,,,,,,,,,,,sub_605,2024-08-18_11h30.46.736,Reversal,2023.1.3,60.00294014397095,1,
8,exp1.png,exp2.png,,1,0,1,0,0,8,8,8,,,,,,,,,,,,,,,,,,,,,,,,,False,28,29,False,exp1.png,exp2.png,trial_right_image,-1,exp2.png,1,exp1.png,exp2.png,0,4,reversed,incorrect,0.6224044141922194,0,valid_lose,160.17669750000005,15,,,,,,,,,,,,,,,sub_605,2024-08-18_11h30.46.736,Reversal,2023.1.3,60.00294014397095,1,
9,exp3.png,exp4.png,,1,0,1,0,0,9,9,9,,,,,,,,,,,,,,,,,,,,,,,,,False,29,30,True,exp4.png,exp3.png,trial_right_image,-1,exp3.png,1,exp3.png,exp4.png,1,1,non-reversed,correct,0.9631370015226917,1,valid_win,164.17558169999938,16,,,,,,,,,,,,,,,sub_605,2024-08-18_11h30.46.736,Reversal,2023.1.3,60.00294014397095,1,
10,exp1.png,exp2.png,,1,0,1,0,0,10,10,10,,,,,,,,,,,,,,,,,,,,,,,,,False,30,31,False,exp1.png,exp2.png,trial_right_image,-1,exp2.png,1,exp1.png,exp2.png,0,4,reversed,incorrect,0.5057514541539013,0,valid_lose,168.54085889999988,16,,,,,,,,,,,,,,,sub_605,2024-08-18_11h30.46.736,Reversal,2023.1.3,60.00294014397095,1,
11,exp3.png,exp4.png,,1,0,1,0,0,11,11,11,,,,,,,,,,,,,,,,,,,,,,,,,False,31,32,True,exp4.png,exp3.png,trial_left_image,1,exp4.png,1,exp3.png,exp4.png,0,2,non-reversed,incorrect,0.11169393027455432,1,invalid_win,172.5728036999999,17,,,,,,,,,,,,,,,sub_605,2024-08-18_11h30.46.736,Reversal,2023.1.3,60.00294014397095,1,
12,exp1.png,exp2.png,,1,0,1,0,0,12,12,12,,,,,,,,,,,,,,,,,,,,,,,,,False,32,33,False,exp1.png,exp2.png,trial_left_image,1,exp1.png,1,exp1.png,exp2.png,1,3,reversed,correct,0.1411295177285976,0,invalid_lose,176.7207042,17,,,,,,,,,,,,,,,sub_605,2024-08-18_11h30.46.736,Reversal,2023.1.3,60.00294014397095,1,
13,exp3.png,exp4.png,,1,0,1,0,0,13,13,13,,,,,,,,,,,,,,,,,,,,,,,,,False,33,34,True,exp4.png,exp3.png,trial_left_image,1,exp4.png,1,exp3.png,exp4.png,0,2,non-reversed,incorrect,0.08423510247937838,1,invalid_win,180.7032247999996,18,,,,,,,,,,,,,,,sub_605,2024-08-18_11h30.46.736,Reversal,2023.1.3,60.00294014397095,1,
14,exp1.png,exp2.png,,1,0,1,0,0,14,14,14,,,,,,,,,,,,,,,,,,,,,,,,,False,34,35,False,exp1.png,exp2.png,trial_left_image,1,exp1.png,1,exp1.png,exp2.png,1,3,reversed,correct,0.36384763054433056,1,valid_win,185.58452560000023,19,,,,,,,,,,,,,,,sub_605,2024-08-18_11h30.46.736,Reversal,2023.1.3,60.00294014397095,1,
15,exp3.png,exp4.png,,1,0,1,0,0,15,15,15,,,,,,,,,,,,,,,,,,,,,,,,,False,35,36,False,exp3.png,exp4.png,trial_right_image,-1,exp4.png,1,exp3.png,exp4.png,0,2,non-reversed,incorrect,0.3051635922273125,0,valid_lose,190.06619539999974,19,,,,,,,,,,,,,,,sub_605,2024-08-18_11h30.46.736,Reversal,2023.1.3,60.00294014397095,1,
16,exp1.png,exp2.png,,1,0,1,0,0,16,16,16,,,,,,,,,,,,,,,,,,,,,,,,,False,36,37,False,exp1.png,exp2.png,trial_left_image,1,exp1.png,1,exp1.png,exp2.png,1,3,reversed,correct,0.1633540764599617,0,invalid_lose,194.8980878000002,19,,,,,,,,,,,,,,,sub_605,2024-08-18_11h30.46.736,Reversal,2023.1.3,60.00294014397095,1,
17,exp3.png,exp4.png,,1,0,1,0,0,17,17,17,,,,,,,,,,,,,,,,,,,,,,,,,False,37,38,True,exp4.png,exp3.png,trial_right_image,-1,exp3.png,1,exp3.png,exp4.png,1,1,non-reversed,correct,0.5350187302331092,1,valid_win,198.7299439999997,20,,,,,,,,,,,,,,,sub_605,2024-08-18_11h30.46.736,Reversal,2023.1.3,60.00294014397095,1,
18,exp1.png,exp2.png,,1,0,1,0,0,18,18,18,,,,,,,,,,,,,,,,,,,,,,,,,False,38,39,True,exp2.png,exp1.png,trial_right_image,-1,exp1.png,1,exp1.png,exp2.png,1,3,reversed,correct,0.9773037972139919,1,valid_win,202.54533869999977,21,,,,,,,,,,,,,,,sub_605,2024-08-18_11h30.46.736,Reversal,2023.1.3,60.00294014397095,1,
19,exp3.png,exp4.png,,1,0,1,0,0,19,19,19,,,,,,,,,,,,,,,,,,,,,,,,,False,39,40,False,exp3.png,exp4.png,trial_right_image,-1,exp4.png,1,exp3.png,exp4.png,0,2,non-reversed,incorrect,0.11008504405158681,1,invalid_win,208.51017589999992,22,,,,,,,,,,,,,,,sub_605,2024-08-18_11h30.46.736,Reversal,2023.1.3,60.00294014397095,1,
20,exp1.png,exp2.png,,1,0,1,0,0,20,20,20,,,,,,,,,,,,,,,,,,,,,,,,,True,,,,,,,,,,,,,,,,,,,,,,,,,,,,,,,,,,,sub_605,2024-08-18_11h30.46.736,Reversal,2023.1.3,60.00294014397095,1,
,,,exp1.png,1,0,1,0,,,,,0,0,0,0,0,0,0,0,,,,,,,,,,,,,,,,,,,,,,,,,,,,,,,,,,,,,,356.6182177999999,1.0,1.0,2.0831843999994817,"[(1.0, 2.0831843999994817)]",,,,,,,,,,sub_605,2024-08-18_11h30.46.736,Reversal,2023.1.3,60.00294014397095,1,
,,,exp2.png,1,0,1,0,,,,,0,0,0,0,0,1,1,1,,,,,,,,,,,,,,,,,,,,,,,,,,,,,,,,,,,,,,359.75014460000057,,6.0,2.7436854999996285,"[(69.0, 1.5268048999996608), (6.0, 2.7436854999996285)]",6.0,,,,,,,,,sub_605,2024-08-18_11h30.46.736,Reversal,2023.1.3,60.00294014397095,1,
,,,exp3.png,1,0,1,0,,,,,0,0,0,0,0,2,2,2,,,,,,,,,,,,,,,,,,,,,,,,,,,,,,,,,,,,,,363.6140346000002,,10.0,1.179019100000005,"[(10.0, 1.179019100000005)]",,10.0,,,,,,,,sub_605,2024-08-18_11h30.46.736,Reversal,2023.1.3,60.00294014397095,1,
,,,exp4.png,1,0,1,0,,,,,0,0,0,0,0,3,3,3,,,,,,,,,,,,,,,,,,,,,,,,,,,,,,,,,,,,,,366.06182119999994,,100.0,1.0629236999993736,"[(100.0, 1.0629236999993736)]",,,100.0,,,,,,,sub_605,2024-08-18_11h30.46.736,Reversal,2023.1.3,60.00294014397095,1,
0,exp1.png,exp2.png,,2,0,2,0,0,0,0,0,,,,,,,,,,,,,,,,,,,,,,,,,False,40,41,False,exp1.png,exp2.png,trial_right_image,-1,exp2.png,1,exp1.png,exp2.png,0,4,reversed,incorrect,0.35398988892842376,0,valid_lose,225.4542918999996,22,,,,,,,,,,,,,,,sub_605,2024-08-18_11h30.46.736,Reversal,2023.1.3,60.00294014397095,1,
1,exp3.png,exp4.png,,2,0,2,0,0,1,1,1,,,,,,,,,,,,,,,,,,,,,,,,,False,41,42,False,exp3.png,exp4.png,trial_left_image,1,exp3.png,1,exp3.png,exp4.png,1,1,non-reversed,correct,0.016282932187288934,0,invalid_lose,229.28625620000003,22,,,,,,,,,,,,,,,sub_605,2024-08-18_11h30.46.736,Reversal,2023.1.3,60.00294014397095,1,
2,exp1.png,exp2.png,,2,0,2,0,0,2,2,2,,,,,,,,,,,,,,,,,,,,,,,,,False,42,43,True,exp2.png,exp1.png,trial_right_image,-1,exp1.png,1,exp1.png,exp2.png,1,3,reversed,correct,0.14811098882652618,0,invalid_lose,233.03514279999945,22,,,,,,,,,,,,,,,sub_605,2024-08-18_11h30.46.736,Reversal,2023.1.3,60.00294014397095,1,
3,exp3.png,exp4.png,,2,0,2,0,0,3,3,3,,,,,,,,,,,,,,,,,,,,,,,,,False,43,44,True,exp4.png,exp3.png,trial_left_image,1,exp4.png,1,exp3.png,exp4.png,0,2,non-reversed,incorrect,0.03499790096328659,1,invalid_win,237.94988169999942,23,,,,,,,,,,,,,,,sub_605,2024-08-18_11h30.46.736,Reversal,2023.1.3,60.00294014397095,1,
4,exp1.png,exp2.png,,2,0,2,0,0,4,4,4,,,,,,,,,,,,,,,,,,,,,,,,,False,44,45,True,exp2.png,exp1.png,trial_right_image,-1,exp1.png,1,exp1.png,exp2.png,1,3,reversed,correct,0.8767610882991782,1,valid_win,241.91535979999935,24,,,,,,,,,,,,,,,sub_605,2024-08-18_11h30.46.736,Reversal,2023.1.3,60.00294014397095,1,
5,exp3.png,exp4.png,,2,0,2,0,0,5,5,5,,,,,,,,,,,,,,,,,,,,,,,,,False,45,46,True,exp4.png,exp3.png,trial_right_image,-1,exp3.png,1,exp3.png,exp4.png,1,1,non-reversed,correct,0.5952425187784983,1,valid_win,246.86359639999955,25,,,,,,,,,,,,,,,sub_605,2024-08-18_11h30.46.736,Reversal,2023.1.3,60.00294014397095,1,
6,exp1.png,exp2.png,,2,0,2,0,0,6,6,6,,,,,,,,,,,,,,,,,,,,,,,,,False,46,47,False,exp1.png,exp2.png,trial_left_image,1,exp1.png,1,exp1.png,exp2.png,1,3,reversed,correct,0.9670599659620461,1,valid_win,251.5289585999999,26,,,,,,,,,,,,,,,sub_605,2024-08-18_11h30.46.736,Reversal,2023.1.3,60.00294014397095,1,
7,exp3.png,exp4.png,,2,0,2,0,0,7,7,7,,,,,,,,,,,,,,,,,,,,,,,,,False,47,48,True,exp4.png,exp3.png,trial_left_image,1,exp4.png,1,exp3.png,exp4.png,0,2,non-reversed,incorrect,0.7106043036714123,0,valid_lose,257.2770310999995,26,,,,,,,,,,,,,,,sub_605,2024-08-18_11h30.46.736,Reversal,2023.1.3,60.00294014397095,1,
8,exp1.png,exp2.png,,2,0,2,0,0,8,8,8,,,,,,,,,,,,,,,,,,,,,,,,,False,48,49,False,exp1.png,exp2.png,trial_left_image,1,exp1.png,1,exp1.png,exp2.png,1,3,reversed,correct,0.831625969553219,1,valid_win,261.84188859999995,27,,,,,,,,,,,,,,,sub_605,2024-08-18_11h30.46.736,Reversal,2023.1.3,60.00294014397095,1,
9,exp3.png,exp4.png,,2,0,2,0,0,9,9,9,,,,,,,,,,,,,,,,,,,,,,,,,False,49,50,True,exp4.png,exp3.png,trial_left_image,1,exp4.png,1,exp3.png,exp4.png,0,2,non-reversed,incorrect,0.9128582314518081,0,valid_lose,268.4230028000002,27,,,,,,,,,,,,,,,sub_605,2024-08-18_11h30.46.736,Reversal,2023.1.3,60.00294014397095,1,
10,exp1.png,exp2.png,,2,0,2,0,0,10,10,10,,,,,,,,,,,,,,,,,,,,,,,,,False,50,51,True,exp2.png,exp1.png,trial_right_image,-1,exp1.png,1,exp1.png,exp2.png,1,3,reversed,correct,0.5156804336043196,1,valid_win,272.34050409999963,28,,,,,,,,,,,,,,,sub_605,2024-08-18_11h30.46.736,Reversal,2023.1.3,60.00294014397095,1,
11,exp3.png,exp4.png,,2,0,2,0,0,11,11,11,,,,,,,,,,,,,,,,,,,,,,,,,False,51,52,False,exp3.png,exp4.png,trial_right_image,-1,exp4.png,1,exp3.png,exp4.png,0,2,non-reversed,incorrect,0.7526739810860822,0,valid_lose,277.3367773,28,,,,,,,,,,,,,,,sub_605,2024-08-18_11h30.46.736,Reversal,2023.1.3,60.00294014397095,1,
12,exp1.png,exp2.png,,2,0,2,0,0,12,12,12,,,,,,,,,,,,,,,,,,,,,,,,,False,52,53,True,exp2.png,exp1.png,trial_right_image,-1,exp1.png,1,exp1.png,exp2.png,1,3,reversed,correct,0.004626653001667869,0,invalid_lose,281.3519193000002,28,,,,,,,,,,,,,,,sub_605,2024-08-18_11h30.46.736,Reversal,2023.1.3,60.00294014397095,1,
13,exp3.png,exp4.png,,2,0,2,0,0,13,13,13,,,,,,,,,,,,,,,,,,,,,,,,,False,53,54,False,exp3.png,exp4.png,trial_right_image,-1,exp4.png,1,exp3.png,exp4.png,0,2,non-reversed,incorrect,0.21973950449964685,1,invalid_win,285.4170666,29,,,,,,,,,,,,,,,sub_605,2024-08-18_11h30.46.736,Reversal,2023.1.3,60.00294014397095,1,
14,exp1.png,exp2.png,,2,0,2,0,0,14,14,14,,,,,,,,,,,,,,,,,,,,,,,,,False,54,55,False,exp1.png,exp2.png,trial_left_image,1,exp1.png,1,exp1.png,exp2.png,1,3,reversed,correct,0.7244609093582955,1,valid_win,290.79937979999977,30,,,,,,,,,,,,,,,sub_605,2024-08-18_11h30.46.736,Reversal,2023.1.3,60.00294014397095,1,
15,exp3.png,exp4.png,,2,0,2,0,0,15,15,15,,,,,,,,,,,,,,,,,,,,,,,,,False,55,56,False,exp3.png,exp4.png,trial_right_image,-1,exp4.png,1,exp3.png,exp4.png,0,2,non-reversed,incorrect,0.8400287795564589,0,valid_lose,295.3636975999998,30,,,,,,,,,,,,,,,sub_605,2024-08-18_11h30.46.736,Reversal,2023.1.3,60.00294014397095,1,
16,exp1.png,exp2.png,,2,0,2,0,0,16,16,16,,,,,,,,,,,,,,,,,,,,,,,,,False,56,57,True,exp2.png,exp1.png,trial_right_image,-1,exp1.png,1,exp1.png,exp2.png,1,3,reversed,correct,0.41256018093479896,1,valid_win,299.4126277999994,31,,,,,,,,,,,,,,,sub_605,2024-08-18_11h30.46.736,Reversal,2023.1.3,60.00294014397095,1,
17,exp3.png,exp4.png,,2,0,2,0,0,17,17,17,,,,,,,,,,,,,,,,,,,,,,,,,False,57,58,True,exp4.png,exp3.png,trial_left_image,1,exp4.png,1,exp3.png,exp4.png,0,2,non-reversed,incorrect,0.8199185079606057,0,valid_lose,304.5275799000001,31,,,,,,,,,,,,,,,sub_605,2024-08-18_11h30.46.736,Reversal,2023.1.3,60.00294014397095,1,
18,exp1.png,exp2.png,,2,0,2,0,0,18,18,18,,,,,,,,,,,,,,,,,,,,,,,,,False,58,59,False,exp1.png,exp2.png,trial_right_image,-1,exp2.png,1,exp1.png,exp2.png,0,4,reversed,incorrect,0.8576087353002577,0,valid_lose,308.8425268000001,31,,,,,,,,,,,,,,,sub_605,2024-08-18_11h30.46.736,Reversal,2023.1.3,60.00294014397095,1,
19,exp3.png,exp4.png,,2,0,2,0,0,19,19,19,,,,,,,,,,,,,,,,,,,,,,,,,False,59,60,False,exp3.png,exp4.png,trial_right_image,-1,exp4.png,1,exp3.png,exp4.png,0,2,non-reversed,incorrect,0.6801880252367175,0,valid_lose,313.0250103999997,31,,,,,,,,,,,,,,,sub_605,2024-08-18_11h30.46.736,Reversal,2023.1.3,60.00294014397095,1,
20,exp1.png,exp2.png,,2,0,2,0,0,20,20,20,,,,,,,,,,,,,,,,,,,,,,,,,True,,,,,,,,,,,,,,,,,,,,,,,,,,,,,,,,,,,sub_605,2024-08-18_11h30.46.736,Reversal,2023.1.3,60.00294014397095,1,
,,,exp1.png,2,0,2,0,,,,,0,0,0,0,0,0,0,0,,,,,,,,,,,,,,,,,,,,,,,,,,,,,,,,,,,,,,461.13179540000056,100.0,100.0,3.0135082999995575,"[(100.0, 3.0135082999995575)]",,,,,,,,,,sub_605,2024-08-18_11h30.46.736,Reversal,2023.1.3,60.00294014397095,1,
,,,exp2.png,2,0,2,0,,,,,0,0,0,0,0,1,1,1,,,,,,,,,,,,,,,,,,,,,,,,,,,,,,,,,,,,,,465.1712152,,100.0,1.5947441999996954,"[(100.0, 1.5947441999996954)]",100.0,,,,,,,,,sub_605,2024-08-18_11h30.46.736,Reversal,2023.1.3,60.00294014397095,1,
,,,exp3.png,2,0,2,0,,,,,0,0,0,0,0,2,2,2,,,,,,,,,,,,,,,,,,,,,,,,,,,,,,,,,,,,,,467.7947787000003,,1.0,1.2793209000001298,"[(1.0, 1.2793209000001298)]",,1.0,,,,,,,,sub_605,2024-08-18_11h30.46.736,Reversal,2023.1.3,60.00294014397095,1,
,,,exp4.png,2,0,2,0,,,,,0,0,0,0,0,3,3,3,,,,,,,,,,,,,,,,,,,,,,,,,,,,,,,,,,,,,,470.1616006000004,,1.0,1.177909300000465,"[(1.0, 1.177909300000465)]",,,1.0,,,,,,,sub_605,2024-08-18_11h30.46.736,Reversal,2023.1.3,60.00294014397095,1,
0,exp1.png,exp2.png,,3,0,3,0,0,0,0,0,,,,,,,,,,,,,,,,,,,,,,,,,False,60,61,True,exp2.png,exp1.png,trial_right_image,-1,exp1.png,1,exp1.png,exp2.png,1,3,reversed,correct,0.12030979975514244,0,invalid_lose,328.7858277999994,31,,,,,,,,,,,,,,,sub_605,2024-08-18_11h30.46.736,Reversal,2023.1.3,60.00294014397095,1,
1,exp3.png,exp4.png,,3,0,3,0,0,1,1,1,,,,,,,,,,,,,,,,,,,,,,,,,False,61,62,False,exp3.png,exp4.png,trial_left_image,1,exp3.png,1,exp3.png,exp4.png,1,1,non-reversed,correct,0.4918377101774192,1,valid_win,332.8678070999995,32,,,,,,,,,,,,,,,sub_605,2024-08-18_11h30.46.736,Reversal,2023.1.3,60.00294014397095,1,
2,exp1.png,exp2.png,,3,0,3,0,0,2,2,2,,,,,,,,,,,,,,,,,,,,,,,,,False,62,63,False,exp1.png,exp2.png,trial_left_image,1,exp1.png,1,exp1.png,exp2.png,1,3,reversed,correct,0.7155536457053185,1,valid_win,336.9998114,33,,,,,,,,,,,,,,,sub_605,2024-08-18_11h30.46.736,Reversal,2023.1.3,60.00294014397095,1,
3,exp3.png,exp4.png,,3,0,3,0,0,3,3,3,,,,,,,,,,,,,,,,,,,,,,,,,False,63,64,False,exp3.png,exp4.png,trial_left_image,1,exp3.png,1,exp3.png,exp4.png,1,1,non-reversed,correct,0.9532004354976743,1,valid_win,342.21503159999975,34,,,,,,,,,,,,,,,sub_605,2024-08-18_11h30.46.736,Reversal,2023.1.3,60.00294014397095,1,
4,exp1.png,exp2.png,,3,0,3,0,0,4,4,4,,,,,,,,,,,,,,,,,,,,,,,,,False,64,65,True,exp2.png,exp1.png,trial_right_image,-1,exp1.png,1,exp1.png,exp2.png,1,3,reversed,correct,0.1978059111061672,0,invalid_lose,346.67952460000015,34,,,,,,,,,,,,,,,sub_605,2024-08-18_11h30.46.736,Reversal,2023.1.3,60.00294014397095,1,
5,exp3.png,exp4.png,,3,0,3,0,0,5,5,5,,,,,,,,,,,,,,,,,,,,,,,,,False,65,66,True,exp4.png,exp3.png,trial_right_image,-1,exp3.png,1,exp3.png,exp4.png,1,1,non-reversed,correct,0.026148914949123303,0,invalid_lose,351.6946879999996,34,,,,,,,,,,,,,,,sub_605,2024-08-18_11h30.46.736,Reversal,2023.1.3,60.00294014397095,1,
6,exp1.png,exp2.png,,3,0,3,0,0,6,6,6,,,,,,,,,,,,,,,,,,,,,,,,,False,66,67,True,exp2.png,exp1.png,trial_right_image,-1,exp1.png,1,exp1.png,exp2.png,1,3,reversed,correct,0.3002168663217294,1,valid_win,355.46022129999983,35,,,,,,,,,,,,,,,sub_605,2024-08-18_11h30.46.736,Reversal,2023.1.3,60.00294014397095,1,
7,exp3.png,exp4.png,,3,0,3,0,0,7,7,7,,,,,,,,,,,,,,,,,,,,,,,,,False,67,68,True,exp4.png,exp3.png,trial_right_image,-1,exp3.png,1,exp3.png,exp4.png,1,1,non-reversed,correct,0.45045880216531764,1,valid_win,359.3250505999995,36,,,,,,,,,,,,,,,sub_605,2024-08-18_11h30.46.736,Reversal,2023.1.3,60.00294014397095,1,
8,exp1.png,exp2.png,,3,0,3,0,0,8,8,8,,,,,,,,,,,,,,,,,,,,,,,,,False,68,69,True,exp2.png,exp1.png,trial_left_image,1,exp2.png,1,exp1.png,exp2.png,0,4,reversed,incorrect,0.3284178878599201,0,valid_lose,363.40743479999946,36,,,,,,,,,,,,,,,sub_605,2024-08-18_11h30.46.736,Reversal,2023.1.3,60.00294014397095,1,
9,exp3.png,exp4.png,,3,0,3,0,0,9,9,9,,,,,,,,,,,,,,,,,,,,,,,,,False,69,70,False,exp3.png,exp4.png,trial_left_image,1,exp3.png,1,exp3.png,exp4.png,1,1,non-reversed,correct,0.25542392693037286,1,valid_win,367.8895791999994,37,,,,,,,,,,,,,,,sub_605,2024-08-18_11h30.46.736,Reversal,2023.1.3,60.00294014397095,1,
10,exp1.png,exp2.png,,3,0,3,0,0,10,10,10,,,,,,,,,,,,,,,,,,,,,,,,,False,70,71,False,exp1.png,exp2.png,trial_left_image,1,exp1.png,1,exp1.png,exp2.png,1,3,reversed,correct,0.8572903953384771,1,valid_win,371.95452250000017,38,,,,,,,,,,,,,,,sub_605,2024-08-18_11h30.46.736,Reversal,2023.1.3,60.00294014397095,1,
11,exp3.png,exp4.png,,3,0,3,0,0,11,11,11,,,,,,,,,,,,,,,,,,,,,,,,,False,71,72,True,exp4.png,exp3.png,trial_left_image,1,exp4.png,1,exp3.png,exp4.png,0,2,non-reversed,incorrect,0.17578138925732356,1,invalid_win,376.2696288999996,39,,,,,,,,,,,,,,,sub_605,2024-08-18_11h30.46.736,Reversal,2023.1.3,60.00294014397095,1,
12,exp1.png,exp2.png,,3,0,3,0,0,12,12,12,,,,,,,,,,,,,,,,,,,,,,,,,False,72,73,False,exp1.png,exp2.png,trial_left_image,1,exp1.png,1,exp1.png,exp2.png,1,3,reversed,correct,0.041941532789354974,0,invalid_lose,380.4350506999999,39,,,,,,,,,,,,,,,sub_605,2024-08-18_11h30.46.736,Reversal,2023.1.3,60.00294014397095,1,
13,exp3.png,exp4.png,,3,0,3,0,0,13,13,13,,,,,,,,,,,,,,,,,,,,,,,,,False,73,74,False,exp3.png,exp4.png,trial_right_image,-1,exp4.png,1,exp3.png,exp4.png,0,2,non-reversed,incorrect,0.8106228886120199,0,valid_lose,384.21709009999995,39,,,,,,,,,,,,,,,sub_605,2024-08-18_11h30.46.736,Reversal,2023.1.3,60.00294014397095,1,
14,exp1.png,exp2.png,,3,0,3,0,0,14,14,14,,,,,,,,,,,,,,,,,,,,,,,,,False,74,75,True,exp2.png,exp1.png,trial_right_image,-1,exp1.png,1,exp1.png,exp2.png,1,3,reversed,correct,0.07705034707421055,0,invalid_lose,387.98259940000025,39,,,,,,,,,,,,,,,sub_605,2024-08-18_11h30.46.736,Reversal,2023.1.3,60.00294014397095,1,
15,exp3.png,exp4.png,,3,0,3,0,0,15,15,15,,,,,,,,,,,,,,,,,,,,,,,,,False,75,76,False,exp3.png,exp4.png,trial_right_image,-1,exp4.png,1,exp3.png,exp4.png,0,2,non-reversed,incorrect,0.6147221651467298,0,valid_lose,391.78115009999965,39,,,,,,,,,,,,,,,sub_605,2024-08-18_11h30.46.736,Reversal,2023.1.3,60.00294014397095,1,
16,exp1.png,exp2.png,,3,0,3,0,0,16,16,16,,,,,,,,,,,,,,,,,,,,,,,,,False,76,77,False,exp1.png,exp2.png,trial_right_image,-1,exp2.png,1,exp1.png,exp2.png,0,4,reversed,incorrect,0.43189823679364836,0,valid_lose,395.5632728999999,39,,,,,,,,,,,,,,,sub_605,2024-08-18_11h30.46.736,Reversal,2023.1.3,60.00294014397095,1,
17,exp3.png,exp4.png,,3,0,3,0,0,17,17,17,,,,,,,,,,,,,,,,,,,,,,,,,False,77,78,True,exp4.png,exp3.png,trial_left_image,1,exp4.png,1,exp3.png,exp4.png,0,2,non-reversed,incorrect,0.8065001254037634,0,valid_lose,399.37885899999947,39,,,,,,,,,,,,,,,sub_605,2024-08-18_11h30.46.736,Reversal,2023.1.3,60.00294014397095,1,
18,exp1.png,exp2.png,,3,0,3,0,0,18,18,18,,,,,,,,,,,,,,,,,,,,,,,,,False,78,79,True,exp2.png,exp1.png,trial_left_image,1,exp2.png,1,exp1.png,exp2.png,0,4,reversed,incorrect,0.03484081794531724,1,invalid_win,403.17764199999965,40,,,,,,,,,,,,,,,sub_605,2024-08-18_11h30.46.736,Reversal,2023.1.3,60.00294014397095,1,
19,exp3.png,exp4.png,,3,0,3,0,0,19,19,19,,,,,,,,,,,,,,,,,,,,,,,,,False,79,80,False,exp3.png,exp4.png,trial_left_image,1,exp3.png,1,exp3.png,exp4.png,1,1,non-reversed,correct,0.12761336246578414,0,invalid_lose,407.07574979999936,40,,,,,,,,,,,,,,,sub_605,2024-08-18_11h30.46.736,Reversal,2023.1.3,60.00294014397095,1,
20,exp1.png,exp2.png,,3,0,3,0,0,20,20,20,,,,,,,,,,,,,,,,,,,,,,,,,True,,,,,,,,,,,,,,,,,,,,,,,,,,,,,,,,,,,sub_605,2024-08-18_11h30.46.736,Reversal,2023.1.3,60.00294014397095,1,
,,,exp1.png,3,0,3,0,,,,,0,0,0,0,0,0,0,0,,,,,,,,,,,,,,,,,,,,,,,,,,,,,,,,,,,,,,555.1901346000004,33.0,33.0,1.4230539000000135,"[(33.0, 1.4230539000000135)]",,,,,,,,,,sub_605,2024-08-18_11h30.46.736,Reversal,2023.1.3,60.00294014397095,1,
,,,exp2.png,3,0,3,0,,,,,0,0,0,0,0,1,1,1,,,,,,,,,,,,,,,,,,,,,,,,,,,,,,,,,,,,,,557.4977220000001,,63.0,0.8788152999995873,"[(63.0, 0.8788152999995873)]",63.0,,,,,,,,,sub_605,2024-08-18_11h30.46.736,Reversal,2023.1.3,60.00294014397095,1,
,,,exp3.png,3,0,3,0,,,,,0,0,0,0,0,2,2,2,,,,,,,,,,,,,,,,,,,,,,,,,,,,,,,,,,,,,,560.8464072000006,,29.0,0.8794992000002821,"[(29.0, 0.8794992000002821)]",,29.0,,,,,,,,sub_605,2024-08-18_11h30.46.736,Reversal,2023.1.3,60.00294014397095,1,
,,,exp4.png,3,0,3,0,,,,,0,0,0,0,0,3,3,3,,,,,,,,,,,,,,,,,,,,,,,,,,,,,,,,,,,,,,562.6804852000005,,76.0,0.8956865000000107,"[(76.0, 0.8956865000000107)]",,,76.0,,,,,,,sub_605,2024-08-18_11h30.46.736,Reversal,2023.1.3,60.00294014397095,1,
0,exp1.png,exp2.png,,,,,,,,,,,,,,,,,,0,0,0,0,0,0,0,0,,,,,,,,,False,0,81,True,exp2.png,exp1.png,trial_right_image,-1,exp1.png,1,exp2.png,exp1.png,1,3,reversed,incorrect,0.8412643829601332,0,valid_lose,421.50477200000023,40,,,,,,,,,419.4659230999996,,,,,,sub_605,2024-08-18_11h30.46.736,Reversal,2023.1.3,60.00294014397095,1,
1,exp3.png,exp4.png,,,,,,,,,,,,,,,,,,0,0,0,0,0,1,1,1,,,,,,,,,False,1,82,True,exp4.png,exp3.png,trial_left_image,1,exp4.png,1,exp3.png,exp4.png,0,2,non-reversed,incorrect,0.09774667253426039,1,invalid_win,425.3029766999998,41,,,,,,,,,,,,,,,sub_605,2024-08-18_11h30.46.736,Reversal,2023.1.3,60.00294014397095,1,
2,exp1.png,exp2.png,,,,,,,,,,,,,,,,,,0,0,0,0,0,2,2,2,,,,,,,,,False,2,83,True,exp2.png,exp1.png,trial_right_image,-1,exp1.png,1,exp2.png,exp1.png,1,3,reversed,incorrect,0.4244525001823216,0,valid_lose,429.13502439999957,41,,,,,,,,,,,,,,,sub_605,2024-08-18_11h30.46.736,Reversal,2023.1.3,60.00294014397095,1,
3,exp3.png,exp4.png,,,,,,,,,,,,,,,,,,0,0,0,0,0,3,3,3,,,,,,,,,False,3,84,False,exp3.png,exp4.png,trial_left_image,1,exp3.png,1,exp3.png,exp4.png,1,1,non-reversed,correct,0.6480187874072947,1,valid_win,432.91717789999984,42,,,,,,,,,,,,,,,sub_605,2024-08-18_11h30.46.736,Reversal,2023.1.3,60.00294014397095,1,
4,exp1.png,exp2.png,,,,,,,,,,,,,,,,,,0,0,0,0,0,4,4,4,,,,,,,,,False,4,85,True,exp2.png,exp1.png,trial_right_image,-1,exp1.png,1,exp2.png,exp1.png,1,3,reversed,incorrect,0.24374554076432597,1,invalid_win,436.7655605,43,,,,,,,,,,,,,,,sub_605,2024-08-18_11h30.46.736,Reversal,2023.1.3,60.00294014397095,1,
5,exp3.png,exp4.png,,,,,,,,,,,,,,,,,,0,0,0,0,0,5,5,5,,,,,,,,,False,5,86,False,exp3.png,exp4.png,trial_left_image,1,exp3.png,1,exp3.png,exp4.png,1,1,non-reversed,correct,0.07450825400763916,0,invalid_lose,440.5811116999994,43,,,,,,,,,,,,,,,sub_605,2024-08-18_11h30.46.736,Reversal,2023.1.3,60.00294014397095,1,
6,exp1.png,exp2.png,,,,,,,,,,,,,,,,,,0,0,0,0,0,6,6,6,,,,,,,,,False,6,87,True,exp2.png,exp1.png,trial_right_image,-1,exp1.png,1,exp2.png,exp1.png,1,3,reversed,incorrect,0.5793410130924808,0,valid_lose,444.44639430000007,43,,,,,,,,,,,,,,,sub_605,2024-08-18_11h30.46.736,Reversal,2023.1.3,60.00294014397095,1,
7,exp3.png,exp4.png,,,,,,,,,,,,,,,,,,0,0,0,0,0,7,7,7,,,,,,,,,False,7,88,True,exp4.png,exp3.png,trial_right_image,-1,exp3.png,1,exp3.png,exp4.png,1,1,non-reversed,correct,0.9836746311138158,1,valid_win,448.24562270000024,44,,,,,,,,,,,,,,,sub_605,2024-08-18_11h30.46.736,Reversal,2023.1.3,60.00294014397095,1,
8,exp1.png,exp2.png,,,,,,,,,,,,,,,,,,0,0,0,0,0,8,8,8,,,,,,,,,False,8,89,False,exp1.png,exp2.png,trial_left_image,1,exp1.png,1,exp2.png,exp1.png,1,3,reversed,incorrect,0.44772826713635794,0,valid_lose,452.04452630000014,44,,,,,,,,,,,,,,,sub_605,2024-08-18_11h30.46.736,Reversal,2023.1.3,60.00294014397095,1,
9,exp3.png,exp4.png,,,,,,,,,,,,,,,,,,0,0,0,0,0,9,9,9,,,,,,,,,False,9,90,False,exp3.png,exp4.png,trial_right_image,-1,exp4.png,1,exp3.png,exp4.png,0,2,non-reversed,incorrect,0.5347118659386353,0,valid_lose,455.44254980000005,44,,,,,,,,,,,,,,,sub_605,2024-08-18_11h30.46.736,Reversal,2023.1.3,60.00294014397095,1,
10,exp1.png,exp2.png,,,,,,,,,,,,,,,,,,0,0,0,0,0,10,10,10,,,,,,,,,False,10,91,False,exp1.png,exp2.png,trial_right_image,-1,exp2.png,1,exp2.png,exp1.png,0,4,reversed,correct,0.06958771504305539,0,invalid_lose,459.2083579,44,,,,,,,,,,,,,,,sub_605,2024-08-18_11h30.46.736,Reversal,2023.1.3,60.00294014397095,1,
11,exp3.png,exp4.png,,,,,,,,,,,,,,,,,,0,0,0,0,0,11,11,11,,,,,,,,,False,11,92,True,exp4.png,exp3.png,trial_right_image,-1,exp3.png,1,exp3.png,exp4.png,1,1,non-reversed,correct,0.42500350978426293,1,valid_win,462.9568451999994,45,,,,,,,,,,,,,,,sub_605,2024-08-18_11h30.46.736,Reversal,2023.1.3,60.00294014397095,1,
12,exp1.png,exp2.png,,,,,,,,,,,,,,,,,,0,0,0,0,0,12,12,12,,,,,,,,,False,12,93,False,exp1.png,exp2.png,trial_left_image,1,exp1.png,1,exp2.png,exp1.png,1,3,reversed,incorrect,0.34332087374401066,0,valid_lose,467.5718079999997,45,,,,,,,,,,,,,,,sub_605,2024-08-18_11h30.46.736,Reversal,2023.1.3,60.00294014397095,1,
13,exp3.png,exp4.png,,,,,,,,,,,,,,,,,,0,0,0,0,0,13,13,13,,,,,,,,,False,13,94,False,exp3.png,exp4.png,trial_right_image,-1,exp4.png,1,exp3.png,exp4.png,0,2,non-reversed,incorrect,0.005272573945746872,1,invalid_win,471.38726899999983,46,,,,,,,,,,,,,,,sub_605,2024-08-18_11h30.46.736,Reversal,2023.1.3,60.00294014397095,1,
14,exp1.png,exp2.png,,,,,,,,,,,,,,,,,,0,0,0,0,0,14,14,14,,,,,,,,,False,14,95,True,exp2.png,exp1.png,trial_right_image,-1,exp1.png,1,exp2.png,exp1.png,1,3,reversed,incorrect,0.1598885041182848,1,invalid_win,475.1526217999999,47,,,,,,,,,,,,,,,sub_605,2024-08-18_11h30.46.736,Reversal,2023.1.3,60.00294014397095,1,
15,exp3.png,exp4.png,,,,,,,,,,,,,,,,,,0,0,0,0,0,15,15,15,,,,,,,,,False,15,96,False,exp3.png,exp4.png,trial_right_image,-1,exp4.png,1,exp3.png,exp4.png,0,2,non-reversed,incorrect,0.8472626458985983,0,valid_lose,478.95139839999956,47,,,,,,,,,,,,,,,sub_605,2024-08-18_11h30.46.736,Reversal,2023.1.3,60.00294014397095,1,
16,exp1.png,exp2.png,,,,,,,,,,,,,,,,,,0,0,0,0,0,16,16,16,,,,,,,,,False,16,97,True,exp2.png,exp1.png,trial_right_image,-1,exp1.png,1,exp2.png,exp1.png,1,3,reversed,incorrect,0.2855335786821316,0,valid_lose,484.6326823999998,47,,,,,,,,,,,,,,,sub_605,2024-08-18_11h30.46.736,Reversal,2023.1.3,60.00294014397095,1,
17,exp3.png,exp4.png,,,,,,,,,,,,,,,,,,0,0,0,0,0,17,17,17,,,,,,,,,False,17,98,True,exp4.png,exp3.png,trial_left_image,1,exp4.png,1,exp3.png,exp4.png,0,2,non-reversed,incorrect,0.4677423811697755,0,valid_lose,488.6319244999995,47,,,,,,,,,,,,,,,sub_605,2024-08-18_11h30.46.736,Reversal,2023.1.3,60.00294014397095,1,
18,exp1.png,exp2.png,,,,,,,,,,,,,,,,,,0,0,0,0,0,18,18,18,,,,,,,,,False,18,99,False,exp1.png,exp2.png,trial_left_image,1,exp1.png,1,exp2.png,exp1.png,1,3,reversed,incorrect,0.5326662442871556,0,valid_lose,492.4143491999994,47,,,,,,,,,,,,,,,sub_605,2024-08-18_11h30.46.736,Reversal,2023.1.3,60.00294014397095,1,
19,exp3.png,exp4.png,,,,,,,,,,,,,,,,,,0,0,0,0,0,19,19,19,,,,,,,,,False,19,100,False,exp3.png,exp4.png,trial_left_image,1,exp3.png,1,exp3.png,exp4.png,1,1,non-reversed,correct,0.8871935392228222,1,valid_win,496.29533979999997,48,,,,,,,,,,,,,,,sub_605,2024-08-18_11h30.46.736,Reversal,2023.1.3,60.00294014397095,1,
20,exp1.png,exp2.png,,,,,,,,,,,,,,,,,,0,0,0,0,0,20,20,20,,,,,,,,,True,,,,,,,,,,,,,,,,,,,,,,,,,,,,,,,,,,,sub_605,2024-08-18_11h30.46.736,Reversal,2023.1.3,60.00294014397095,1,
,,,exp1.png,,,,,,,,,,,,,,,,,0,0,0,0,,,,,0,0,0,0,0,0,0,0,,,,,,,,,,,,,,,,,,,,,,644.3981874000001,26.0,26.0,1.127284299999701,"[(26.0, 1.127284299999701)]",,,,,,,,,,sub_605,2024-08-18_11h30.46.736,Reversal,2023.1.3,60.00294014397095,1,
,,,exp2.png,,,,,,,,,,,,,,,,,0,0,0,0,,,,,0,0,0,0,0,1,1,1,,,,,,,,,,,,,,,,,,,,,,646.4503501999998,,27.0,1.161846400000286,"[(27.0, 1.161846400000286)]",27.0,,,,,,,,,sub_605,2024-08-18_11h30.46.736,Reversal,2023.1.3,60.00294014397095,1,
,,,exp3.png,,,,,,,,,,,,,,,,,0,0,0,0,,,,,0,0,0,0,0,2,2,2,,,,,,,,,,,,,,,,,,,,,,648.6681321000005,,75.0,0.7447573999997985,"[(75.0, 0.7447573999997985)]",,75.0,,,,,,,,sub_605,2024-08-18_11h30.46.736,Reversal,2023.1.3,60.00294014397095,1,
,,,exp4.png,,,,,,,,,,,,,,,,,0,0,0,0,,,,,0,0,0,0,0,3,3,3,,,,,,,,,,,,,,,,,,,,,,650.4998667,,71.0,0.8628466000000117,"[(71.0, 0.8628466000000117)]",,,71.0,,,,,,,sub_605,2024-08-18_11h30.46.736,Reversal,2023.1.3,60.00294014397095,1,
0,exp1.png,exp2.png,,,,,,,,,,,,,,,,,,1,0,1,0,0,0,0,0,,,,,,,,,False,20,101,True,exp2.png,exp1.png,trial_right_image,-1,exp1.png,1,exp2.png,exp1.png,1,3,reversed,incorrect,0.8295166526350538,0,valid_lose,509.359641,48,,,,,,,,,,,,,,,sub_605,2024-08-18_11h30.46.736,Reversal,2023.1.3,60.00294014397095,1,
1,exp3.png,exp4.png,,,,,,,,,,,,,,,,,,1,0,1,0,0,1,1,1,,,,,,,,,False,21,102,True,exp4.png,exp3.png,trial_right_image,-1,exp3.png,1,exp3.png,exp4.png,1,1,non-reversed,correct,0.7326322722798897,1,valid_win,512.3231759,49,,,,,,,,,,,,,,,sub_605,2024-08-18_11h30.46.736,Reversal,2023.1.3,60.00294014397095,1,
2,exp1.png,exp2.png,,,,,,,,,,,,,,,,,,1,0,1,0,0,2,2,2,,,,,,,,,False,22,103,False,exp1.png,exp2.png,trial_right_image,-1,exp2.png,1,exp2.png,exp1.png,0,4,reversed,correct,0.3289504377627537,1,valid_win,516.0719520000002,50,,,,,,,,,,,,,,,sub_605,2024-08-18_11h30.46.736,Reversal,2023.1.3,60.00294014397095,1,
3,exp3.png,exp4.png,,,,,,,,,,,,,,,,,,1,0,1,0,0,3,3,3,,,,,,,,,False,23,104,False,exp3.png,exp4.png,trial_right_image,-1,exp4.png,1,exp3.png,exp4.png,0,2,non-reversed,incorrect,0.21873165278842543,1,invalid_win,519.8374984000002,51,,,,,,,,,,,,,,,sub_605,2024-08-18_11h30.46.736,Reversal,2023.1.3,60.00294014397095,1,
4,exp1.png,exp2.png,,,,,,,,,,,,,,,,,,1,0,1,0,0,4,4,4,,,,,,,,,False,24,105,True,exp2.png,exp1.png,trial_right_image,-1,exp1.png,1,exp2.png,exp1.png,1,3,reversed,incorrect,0.09815152029885421,1,invalid_win,525.0691766999998,52,,,,,,,,,,,,,,,sub_605,2024-08-18_11h30.46.736,Reversal,2023.1.3,60.00294014397095,1,
5,exp3.png,exp4.png,,,,,,,,,,,,,,,,,,1,0,1,0,0,5,5,5,,,,,,,,,False,25,106,True,exp4.png,exp3.png,trial_right_image,-1,exp3.png,1,exp3.png,exp4.png,1,1,non-reversed,correct,0.9663741439858088,1,valid_win,528.8847908999996,53,,,,,,,,,,,,,,,sub_605,2024-08-18_11h30.46.736,Reversal,2023.1.3,60.00294014397095,1,
6,exp1.png,exp2.png,,,,,,,,,,,,,,,,,,1,0,1,0,0,6,6,6,,,,,,,,,False,26,107,True,exp2.png,exp1.png,trial_right_image,-1,exp1.png,1,exp2.png,exp1.png,1,3,reversed,incorrect,0.013791692902021646,1,invalid_win,532.6666790999998,54,,,,,,,,,,,,,,,sub_605,2024-08-18_11h30.46.736,Reversal,2023.1.3,60.00294014397095,1,
7,exp3.png,exp4.png,,,,,,,,,,,,,,,,,,1,0,1,0,0,7,7,7,,,,,,,,,False,27,108,True,exp4.png,exp3.png,trial_right_image,-1,exp3.png,1,exp3.png,exp4.png,1,1,non-reversed,correct,0.36031685377500333,1,valid_win,536.4487546999999,55,,,,,,,,,,,,,,,sub_605,2024-08-18_11h30.46.736,Reversal,2023.1.3,60.00294014397095,1,
8,exp1.png,exp2.png,,,,,,,,,,,,,,,,,,1,0,1,0,0,8,8,8,,,,,,,,,False,28,109,True,exp2.png,exp1.png,trial_right_image,-1,exp1.png,1,exp2.png,exp1.png,1,3,reversed,incorrect,0.8413897345485978,0,valid_lose,540.2142947000002,55,,,,,,,,,,,,,,,sub_605,2024-08-18_11h30.46.736,Reversal,2023.1.3,60.00294014397095,1,
9,exp3.png,exp4.png,,,,,,,,,,,,,,,,,,1,0,1,0,0,9,9,9,,,,,,,,,False,29,110,False,exp3.png,exp4.png,trial_left_image,1,exp3.png,1,exp3.png,exp4.png,1,1,non-reversed,correct,0.5179143581663412,1,valid_win,545.9785520999994,56,,,,,,,,,,,,,,,sub_605,2024-08-18_11h30.46.736,Reversal,2023.1.3,60.00294014397095,1,
10,exp1.png,exp2.png,,,,,,,,,,,,,,,,,,1,0,1,0,0,10,10,10,,,,,,,,,False,30,111,True,exp2.png,exp1.png,trial_left_image,1,exp2.png,1,exp2.png,exp1.png,0,4,reversed,correct,0.9920330153840197,1,valid_win,549.9274466999996,57,,,,,,,,,,,,,,,sub_605,2024-08-18_11h30.46.736,Reversal,2023.1.3,60.00294014397095,1,
11,exp3.png,exp4.png,,,,,,,,,,,,,,,,,,1,0,1,0,0,11,11,11,,,,,,,,,False,31,112,False,exp3.png,exp4.png,trial_left_image,1,exp3.png,1,exp3.png,exp4.png,1,1,non-reversed,correct,0.8614281343300542,1,valid_win,553.8600052000002,58,,,,,,,,,,,,,,,sub_605,2024-08-18_11h30.46.736,Reversal,2023.1.3,60.00294014397095,1,
12,exp1.png,exp2.png,,,,,,,,,,,,,,,,,,1,0,1,0,0,12,12,12,,,,,,,,,False,32,113,True,exp2.png,exp1.png,trial_left_image,1,exp2.png,1,exp2.png,exp1.png,0,4,reversed,correct,0.2734280740724393,1,valid_win,557.8417466999999,59,,,,,,,,,,,,,,,sub_605,2024-08-18_11h30.46.736,Reversal,2023.1.3,60.00294014397095,1,
13,exp3.png,exp4.png,,,,,,,,,,,,,,,,,,1,0,1,0,0,13,13,13,,,,,,,,,False,33,114,False,exp3.png,exp4.png,trial_left_image,1,exp3.png,1,exp3.png,exp4.png,1,1,non-reversed,correct,0.46035397008789747,1,valid_win,561.9231162999995,60,,,,,,,,,,,,,,,sub_605,2024-08-18_11h30.46.736,Reversal,2023.1.3,60.00294014397095,1,
14,exp1.png,exp2.png,,,,,,,,,,,,,,,,,,1,0,1,0,0,14,14,14,,,,,,,,,False,34,115,False,exp1.png,exp2.png,trial_left_image,1,exp1.png,1,exp2.png,exp1.png,1,3,reversed,incorrect,0.15997004001965487,1,invalid_win,566.1552966999998,61,,,,,,,,,,,,,,,sub_605,2024-08-18_11h30.46.736,Reversal,2023.1.3,60.00294014397095,1,
15,exp3.png,exp4.png,,,,,,,,,,,,,,,,,,1,0,1,0,0,15,15,15,,,,,,,,,False,35,116,False,exp3.png,exp4.png,trial_left_image,1,exp3.png,1,exp3.png,exp4.png,1,1,non-reversed,correct,0.2597879169749845,1,valid_win,570.3537617000002,62,,,,,,,,,,,,,,,sub_605,2024-08-18_11h30.46.736,Reversal,2023.1.3,60.00294014397095,1,
16,exp1.png,exp2.png,,,,,,,,,,,,,,,,,,1,0,1,0,0,16,16,16,,,,,,,,,False,36,117,True,exp2.png,exp1.png,trial_left_image,1,exp2.png,1,exp2.png,exp1.png,0,4,reversed,correct,0.4498449342482961,1,valid_win,574.3690916999994,63,,,,,,,,,,,,,,,sub_605,2024-08-18_11h30.46.736,Reversal,2023.1.3,60.00294014397095,1,
17,exp3.png,exp4.png,,,,,,,,,,,,,,,,,,1,0,1,0,0,17,17,17,,,,,,,,,False,37,118,False,exp3.png,exp4.png,trial_left_image,1,exp3.png,1,exp3.png,exp4.png,1,1,non-reversed,correct,0.6442333573809514,1,valid_win,578.4345400000002,64,,,,,,,,,,,,,,,sub_605,2024-08-18_11h30.46.736,Reversal,2023.1.3,60.00294014397095,1,
18,exp1.png,exp2.png,,,,,,,,,,,,,,,,,,1,0,1,0,0,18,18,18,,,,,,,,,False,38,119,False,exp1.png,exp2.png,trial_left_image,1,exp1.png,1,exp2.png,exp1.png,1,3,reversed,incorrect,0.04807885222475139,1,invalid_win,582.5993781999996,65,,,,,,,,,,,,,,,sub_605,2024-08-18_11h30.46.736,Reversal,2023.1.3,60.00294014397095,1,
19,exp3.png,exp4.png,,,,,,,,,,,,,,,,,,1,0,1,0,0,19,19,19,,,,,,,,,False,39,120,False,exp3.png,exp4.png,trial_left_image,1,exp3.png,1,exp3.png,exp4.png,1,1,non-reversed,correct,0.9569062055675847,1,valid_win,586.5812434999998,66,,,,,,,,,,,,,,,sub_605,2024-08-18_11h30.46.736,Reversal,2023.1.3,60.00294014397095,1,
20,exp1.png,exp2.png,,,,,,,,,,,,,,,,,,1,0,1,0,0,20,20,20,,,,,,,,,True,,,,,,,,,,,,,,,,,,,,,,,,,,,,,,,,,,,sub_605,2024-08-18_11h30.46.736,Reversal,2023.1.3,60.00294014397095,1,
,,,exp1.png,,,,,,,,,,,,,,,,,1,0,1,0,,,,,0,0,0,0,0,0,0,0,,,,,,,,,,,,,,,,,,,,,,734.6892668999999,25.0,25.0,2.032080799999676,"[(25.0, 2.032080799999676)]",,,,,,,,,,sub_605,2024-08-18_11h30.46.736,Reversal,2023.1.3,60.00294014397095,1,
,,,exp2.png,,,,,,,,,,,,,,,,,1,0,1,0,,,,,0,0,0,0,0,1,1,1,,,,,,,,,,,,,,,,,,,,,,738.1219435000003,,75.0,1.3107190000000628,"[(75.0, 1.3107190000000628)]",75.0,,,,,,,,,sub_605,2024-08-18_11h30.46.736,Reversal,2023.1.3,60.00294014397095,1,
,,,exp3.png,,,,,,,,,,,,,,,,,1,0,1,0,,,,,0,0,0,0,0,2,2,2,,,,,,,,,,,,,,,,,,,,,,740.3528739000003,,29.0,1.2278351999993902,"[(29.0, 1.2278351999993902)]",,29.0,,,,,,,,sub_605,2024-08-18_11h30.46.736,Reversal,2023.1.3,60.00294014397095,1,
,,,exp4.png,,,,,,,,,,,,,,,,,1,0,1,0,,,,,0,0,0,0,0,3,3,3,,,,,,,,,,,,,,,,,,,,,,742.652420200001,,71.0,0.9790831999998773,"[(71.0, 0.9790831999998773)]",,,71.0,,,,,,,sub_605,2024-08-18_11h30.46.736,Reversal,2023.1.3,60.00294014397095,1,
0,exp1.png,exp2.png,,,,,,,,,,,,,,,,,,2,0,2,0,0,0,0,0,,,,,,,,,False,40,121,False,exp1.png,exp2.png,trial_left_image,1,exp1.png,1,exp2.png,exp1.png,1,3,reversed,incorrect,0.10759596395521409,1,invalid_win,600.9601607999994,67,,,,,,,,,,,,,,,sub_605,2024-08-18_11h30.46.736,Reversal,2023.1.3,60.00294014397095,1,
1,exp3.png,exp4.png,,,,,,,,,,,,,,,,,,2,0,2,0,0,1,1,1,,,,,,,,,False,41,122,False,exp3.png,exp4.png,trial_left_image,1,exp3.png,1,exp3.png,exp4.png,1,1,non-reversed,correct,0.420616973392428,1,valid_win,604.8589260999997,68,,,,,,,,,,,,,,,sub_605,2024-08-18_11h30.46.736,Reversal,2023.1.3,60.00294014397095,1,
2,exp1.png,exp2.png,,,,,,,,,,,,,,,,,,2,0,2,0,0,2,2,2,,,,,,,,,False,42,123,False,exp1.png,exp2.png,trial_left_image,1,exp1.png,1,exp2.png,exp1.png,1,3,reversed,incorrect,0.014747786521555284,1,invalid_win,608.874475999999,69,,,,,,,,,,,,,,,sub_605,2024-08-18_11h30.46.736,Reversal,2023.1.3,60.00294014397095,1,
3,exp3.png,exp4.png,,,,,,,,,,,,,,,,,,2,0,2,0,0,3,3,3,,,,,,,,,False,43,124,False,exp3.png,exp4.png,trial_left_image,1,exp3.png,1,exp3.png,exp4.png,1,1,non-reversed,correct,0.9160909644915214,1,valid_win,612.8889727000005,70,,,,,,,,,,,,,,,sub_605,2024-08-18_11h30.46.736,Reversal,2023.1.3,60.00294014397095,1,
4,exp1.png,exp2.png,,,,,,,,,,,,,,,,,,2,0,2,0,0,4,4,4,,,,,,,,,False,44,125,False,exp1.png,exp2.png,trial_left_image,1,exp1.png,1,exp2.png,exp1.png,1,3,reversed,incorrect,0.3449816372800344,0,valid_lose,617.0209670000004,70,,,,,,,,,,,,,,,sub_605,2024-08-18_11h30.46.736,Reversal,2023.1.3,60.00294014397095,1,
5,exp3.png,exp4.png,,,,,,,,,,,,,,,,,,2,0,2,0,0,5,5,5,,,,,,,,,False,45,126,False,exp3.png,exp4.png,trial_right_image,-1,exp4.png,1,exp3.png,exp4.png,0,2,non-reversed,incorrect,0.9784488020694682,0,valid_lose,621.8867891999998,70,,,,,,,,,,,,,,,sub_605,2024-08-18_11h30.46.736,Reversal,2023.1.3,60.00294014397095,1,
6,exp1.png,exp2.png,,,,,,,,,,,,,,,,,,2,0,2,0,0,6,6,6,,,,,,,,,False,46,127,True,exp2.png,exp1.png,trial_right_image,-1,exp1.png,1,exp2.png,exp1.png,1,3,reversed,incorrect,0.05668612147093843,1,invalid_win,626.4344841000002,71,,,,,,,,,,,,,,,sub_605,2024-08-18_11h30.46.736,Reversal,2023.1.3,60.00294014397095,1,
7,exp3.png,exp4.png,,,,,,,,,,,,,,,,,,2,0,2,0,0,7,7,7,,,,,,,,,False,47,128,True,exp4.png,exp3.png,trial_right_image,-1,exp3.png,1,exp3.png,exp4.png,1,1,non-reversed,correct,0.2416039992001645,0,invalid_lose,631.4328726999993,71,,,,,,,,,,,,,,,sub_605,2024-08-18_11h30.46.736,Reversal,2023.1.3,60.00294014397095,1,
8,exp1.png,exp2.png,,,,,,,,,,,,,,,,,,2,0,2,0,0,8,8,8,,,,,,,,,False,48,129,False,exp1.png,exp2.png,trial_right_image,-1,exp2.png,1,exp2.png,exp1.png,0,4,reversed,correct,0.2134644912901441,0,invalid_lose,635.4977832000004,71,,,,,,,,,,,,,,,sub_605,2024-08-18_11h30.46.736,Reversal,2023.1.3,60.00294014397095,1,
9,exp3.png,exp4.png,,,,,,,,,,,,,,,,,,2,0,2,0,0,9,9,9,,,,,,,,,False,49,130,True,exp4.png,exp3.png,trial_right_image,-1,exp3.png,1,exp3.png,exp4.png,1,1,non-reversed,correct,0.7636916627317751,1,valid_win,640.5297484999992,72,,,,,,,,,,,,,,,sub_605,2024-08-18_11h30.46.736,Reversal,2023.1.3,60.00294014397095,1,
10,exp1.png,exp2.png,,,,,,,,,,,,,,,,,,2,0,2,0,0,10,10,10,,,,,,,,,False,50,131,True,exp2.png,exp1.png,trial_right_image,-1,exp1.png,1,exp2.png,exp1.png,1,3,reversed,incorrect,0.8476638140701507,0,valid_lose,644.4783200000002,72,,,,,,,,,,,,,,,sub_605,2024-08-18_11h30.46.736,Reversal,2023.1.3,60.00294014397095,1,
11,exp3.png,exp4.png,,,,,,,,,,,,,,,,,,2,0,2,0,0,11,11,11,,,,,,,,,False,51,132,True,exp4.png,exp3.png,trial_right_image,-1,exp3.png,1,exp3.png,exp4.png,1,1,non-reversed,correct,0.7653134953046338,1,valid_win,648.8269235999996,73,,,,,,,,,,,,,,,sub_605,2024-08-18_11h30.46.736,Reversal,2023.1.3,60.00294014397095,1,
12,exp1.png,exp2.png,,,,,,,,,,,,,,,,,,2,0,2,0,0,12,12,12,,,,,,,,,False,52,133,False,exp1.png,exp2.png,trial_right_image,-1,exp2.png,1,exp2.png,exp1.png,0,4,reversed,correct,0.1642054075611773,0,invalid_lose,652.9426344999993,73,,,,,,,,,,,,,,,sub_605,2024-08-18_11h30.46.736,Reversal,2023.1.3,60.00294014397095,1,
13,exp3.png,exp4.png,,,,,,,,,,,,,,,,,,2,0,2,0,0,13,13,13,,,,,,,,,False,53,134,True,exp4.png,exp3.png,trial_left_image,1,exp4.png,1,exp3.png,exp4.png,0,2,non-reversed,incorrect,0.41272891850376014,0,valid_lose,657.2240693000003,73,,,,,,,,,,,,,,,sub_605,2024-08-18_11h30.46.736,Reversal,2023.1.3,60.00294014397095,1,
14,exp1.png,exp2.png,,,,,,,,,,,,,,,,,,2,0,2,0,0,14,14,14,,,,,,,,,False,54,135,True,exp2.png,exp1.png,trial_left_image,1,exp2.png,1,exp2.png,exp1.png,0,4,reversed,correct,0.9792349055554527,1,valid_win,661.3899332000001,74,,,,,,,,,,,,,,,sub_605,2024-08-18_11h30.46.736,Reversal,2023.1.3,60.00294014397095,1,
15,exp3.png,exp4.png,,,,,,,,,,,,,,,,,,2,0,2,0,0,15,15,15,,,,,,,,,False,55,136,False,exp3.png,exp4.png,trial_left_image,1,exp3.png,1,exp3.png,exp4.png,1,1,non-reversed,correct,0.9204638698075659,1,valid_win,665.521359299999,75,,,,,,,,,,,,,,,sub_605,2024-08-18_11h30.46.736,Reversal,2023.1.3,60.00294014397095,1,
16,exp1.png,exp2.png,,,,,,,,,,,,,,,,,,2,0,2,0,0,16,16,16,,,,,,,,,False,56,137,True,exp2.png,exp1.png,trial_left_image,1,exp2.png,1,exp2.png,exp1.png,0,4,reversed,correct,0.26125859563980935,1,valid_win,669.7200890999993,76,,,,,,,,,,,,,,,sub_605,2024-08-18_11h30.46.736,Reversal,2023.1.3,60.00294014397095,1,
17,exp3.png,exp4.png,,,,,,,,,,,,,,,,,,2,0,2,0,0,17,17,17,,,,,,,,,False,57,138,True,exp4.png,exp3.png,trial_left_image,1,exp4.png,1,exp3.png,exp4.png,0,2,non-reversed,incorrect,0.6609380899585864,0,valid_lose,673.8525319,76,,,,,,,,,,,,,,,sub_605,2024-08-18_11h30.46.736,Reversal,2023.1.3,60.00294014397095,1,
18,exp1.png,exp2.png,,,,,,,,,,,,,,,,,,2,0,2,0,0,18,18,18,,,,,,,,,False,58,139,False,exp1.png,exp2.png,trial_left_image,1,exp1.png,1,exp2.png,exp1.png,1,3,reversed,incorrect,0.7932403697563774,0,valid_lose,677.9513422,76,,,,,,,,,,,,,,,sub_605,2024-08-18_11h30.46.736,Reversal,2023.1.3,60.00294014397095,1,
19,exp3.png,exp4.png,,,,,,,,,,,,,,,,,,2,0,2,0,0,19,19,19,,,,,,,,,False,59,140,True,exp4.png,exp3.png,trial_left_image,1,exp4.png,1,exp3.png,exp4.png,0,2,non-reversed,incorrect,0.49307378948247427,0,valid_lose,682.0158642000006,76,,,,,,,,,,,,,,,sub_605,2024-08-18_11h30.46.736,Reversal,2023.1.3,60.00294014397095,1,
20,exp1.png,exp2.png,,,,,,,,,,,,,,,,,,2,0,2,0,0,20,20,20,,,,,,,,,True,,,,,,,,,,,,,,,,,,,,,,,,,,,,,,,,,,,sub_605,2024-08-18_11h30.46.736,Reversal,2023.1.3,60.00294014397095,1,
,,,exp1.png,,,,,,,,,,,,,,,,,2,0,2,0,,,,,0,0,0,0,0,0,0,0,,,,,,,,,,,,,,,,,,,,,,830.1176576999997,,None,None,[],,,,,,,,,,sub_605,2024-08-18_11h30.46.736,Reversal,2023.1.3,60.00294014397095,1,
,,,exp2.png,,,,,,,,,,,,,,,,,2,0,2,0,,,,,0,0,0,0,0,1,1,1,,,,,,,,,,,,,,,,,,,,,,832.2893260999999,,None,None,[],,,,,,,,,,sub_605,2024-08-18_11h30.46.736,Reversal,2023.1.3,60.00294014397095,1,
,,,exp3.png,,,,,,,,,,,,,,,,,2,0,2,0,,,,,0,0,0,0,0,2,2,2,,,,,,,,,,,,,,,,,,,,,,833.4874439000005,,None,None,[],,,,,,,,,,sub_605,2024-08-18_11h30.46.736,Reversal,2023.1.3,60.00294014397095,1,
,,,exp4.png,,,,,,,,,,,,,,,,,2,0,2,0,,,,,0,0,0,0,0,3,3,3,,,,,,,,,,,,,,,,,,,,,,834.7380851000007,,None,None,[],,,,,,,,,,sub_605,2024-08-18_11h30.46.736,Reversal,2023.1.3,60.00294014397095,1,
,,,,,,,,,,,,,,,,,,,,,,,,,,,,,,,,,,,,,,,,,,,,,,,,,,,,,,,,76,,,,,,,,,,77,48,29,270.78193460000057,1,,,,,,,
