trial_index,trial_image1_file,trial_image2_file,image_file,learning_outer_loop.thisRepN,learning_outer_loop.thisTrialN,learning_outer_loop.thisN,learning_outer_loop.thisIndex,learning_inner_loop.thisRepN,learning_inner_loop.thisTrialN,learning_inner_loop.thisN,learning_inner_loop.thisIndex,learning_estimation_outer_loop.thisRepN,learning_estimation_outer_loop.thisTrialN,learning_estimation_outer_loop.thisN,learning_estimation_outer_loop.thisIndex,learning_estimation_inner_loop.thisRepN,learning_estimation_inner_loop.thisTrialN,learning_estimation_inner_loop.thisN,learning_estimation_inner_loop.thisIndex,reversal_outer_loop.thisRepN,reversal_outer_loop.thisTrialN,reversal_outer_loop.thisN,reversal_outer_loop.thisIndex,reversal_inner_loop.thisRepN,reversal_inner_loop.thisTrialN,reversal_inner_loop.thisN,reversal_inner_loop.thisIndex,reversal_estimation_outer_loop.thisRepN,reversal_estimation_outer_loop.thisTrialN,reversal_estimation_outer_loop.thisN,reversal_estimation_outer_loop.thisIndex,reversal_estimation_inner_loop.thisRepN,reversal_estimation_inner_loop.thisTrialN,reversal_estimation_inner_loop.thisN,reversal_estimation_inner_loop.thisIndex,skipped,total_trial_counter,trial_num,left_right_flip,left_image_file,right_image_file,clicked_stimulus_side,side,clicked_stimulus,version,high_prob_image_file,low_prob_image_file,choice_a,choice_b,pair_type,correct,trial_feedback_random,reward,trial_type,overall_time_after_trial,score,estimation_rating.started,estimation_exp1.png,estimation_rating.response,estimation_rating.rt,estimation_rating.history,estimation_exp2.png,estimation_exp3.png,estimation_exp4.png,total_learning_time,total_correct,learning_correct,reversal_correct,total_reversal_time,extra_block,participant,date,expName,psychopyVersion,frameRate,ver,
0,exp1.png,exp2.png,,0,0,0,0,0,0,0,0,,,,,,,,,,,,,,,,,,,,,,,,,True,,,,,,,,,,,,,,,,,,,,,,,,,,,,,,,,,,,sub_969,2024-06-30_16h22.08.455,Reversal,2023.1.3,59.86185082070763,1,
1,exp3.png,exp4.png,,0,0,0,0,0,1,1,1,,,,,,,,,,,,,,,,,,,,,,,,,False,0,1,True,exp4.png,exp3.png,trial_left_image,1,exp4.png,1,exp3.png,exp4.png,0,2,non-reversed,incorrect,0.9215489523529647,0,valid_lose,4.946796799999902,0,,,,,,,,,,,,,,,sub_969,2024-06-30_16h22.08.455,Reversal,2023.1.3,59.86185082070763,1,
2,exp1.png,exp2.png,,0,0,0,0,0,2,2,2,,,,,,,,,,,,,,,,,,,,,,,,,False,1,2,True,exp2.png,exp1.png,trial_right_image,-1,exp1.png,1,exp1.png,exp2.png,1,3,reversed,correct,0.8995945155115463,1,valid_win,8.912321799999972,1,,,,,,,,,,,,,,,sub_969,2024-06-30_16h22.08.455,Reversal,2023.1.3,59.86185082070763,1,
3,exp3.png,exp4.png,,0,0,0,0,0,3,3,3,,,,,,,,,,,,,,,,,,,,,,,,,False,2,3,False,exp3.png,exp4.png,trial_right_image,-1,exp4.png,1,exp3.png,exp4.png,0,2,non-reversed,incorrect,0.25601528066591794,0,valid_lose,13.627152300000034,1,,,,,,,,,,,,,,,sub_969,2024-06-30_16h22.08.455,Reversal,2023.1.3,59.86185082070763,1,
4,exp1.png,exp2.png,,0,0,0,0,0,4,4,4,,,,,,,,,,,,,,,,,,,,,,,,,False,3,4,True,exp2.png,exp1.png,trial_left_image,1,exp2.png,1,exp1.png,exp2.png,0,4,reversed,incorrect,0.3974617616872418,0,valid_lose,17.975711600000068,1,,,,,,,,,,,,,,,sub_969,2024-06-30_16h22.08.455,Reversal,2023.1.3,59.86185082070763,1,
5,exp3.png,exp4.png,,0,0,0,0,0,5,5,5,,,,,,,,,,,,,,,,,,,,,,,,,False,4,5,True,exp4.png,exp3.png,trial_left_image,1,exp4.png,1,exp3.png,exp4.png,0,2,non-reversed,incorrect,0.21657572253705215,1,invalid_win,24.007046199999877,2,,,,,,,,,,,,,,,sub_969,2024-06-30_16h22.08.455,Reversal,2023.1.3,59.86185082070763,1,
6,exp1.png,exp2.png,,0,0,0,0,0,6,6,6,,,,,,,,,,,,,,,,,,,,,,,,,False,5,6,False,exp1.png,exp2.png,trial_right_image,-1,exp2.png,1,exp1.png,exp2.png,0,4,reversed,incorrect,0.9377948787916487,0,valid_lose,30.38835629999994,2,,,,,,,,,,,,,,,sub_969,2024-06-30_16h22.08.455,Reversal,2023.1.3,59.86185082070763,1,
7,exp3.png,exp4.png,,0,0,0,0,0,7,7,7,,,,,,,,,,,,,,,,,,,,,,,,,False,6,7,False,exp3.png,exp4.png,trial_left_image,1,exp3.png,1,exp3.png,exp4.png,1,1,non-reversed,correct,0.6337802501870308,1,valid_win,37.30299620000005,3,,,,,,,,,,,,,,,sub_969,2024-06-30_16h22.08.455,Reversal,2023.1.3,59.86185082070763,1,
8,exp1.png,exp2.png,,0,0,0,0,0,8,8,8,,,,,,,,,,,,,,,,,,,,,,,,,False,7,8,True,exp2.png,exp1.png,trial_right_image,-1,exp1.png,1,exp1.png,exp2.png,1,3,reversed,correct,0.6506748258311625,1,valid_win,41.98453849999987,4,,,,,,,,,,,,,,,sub_969,2024-06-30_16h22.08.455,Reversal,2023.1.3,59.86185082070763,1,
9,exp3.png,exp4.png,,0,0,0,0,0,9,9,9,,,,,,,,,,,,,,,,,,,,,,,,,False,8,9,True,exp4.png,exp3.png,trial_right_image,-1,exp3.png,1,exp3.png,exp4.png,1,1,non-reversed,correct,0.5843415759401241,1,valid_win,46.39940089999982,5,,,,,,,,,,,,,,,sub_969,2024-06-30_16h22.08.455,Reversal,2023.1.3,59.86185082070763,1,
10,exp1.png,exp2.png,,0,0,0,0,0,10,10,10,,,,,,,,,,,,,,,,,,,,,,,,,False,9,10,False,exp1.png,exp2.png,trial_left_image,1,exp1.png,1,exp1.png,exp2.png,1,3,reversed,correct,0.8562159654781779,1,valid_win,52.830370499999844,6,,,,,,,,,,,,,,,sub_969,2024-06-30_16h22.08.455,Reversal,2023.1.3,59.86185082070763,1,
11,exp3.png,exp4.png,,0,0,0,0,0,11,11,11,,,,,,,,,,,,,,,,,,,,,,,,,False,10,11,True,exp4.png,exp3.png,trial_right_image,-1,exp3.png,1,exp3.png,exp4.png,1,1,non-reversed,correct,0.6299641486421503,1,valid_win,58.228792500000054,7,,,,,,,,,,,,,,,sub_969,2024-06-30_16h22.08.455,Reversal,2023.1.3,59.86185082070763,1,
12,exp1.png,exp2.png,,0,0,0,0,0,12,12,12,,,,,,,,,,,,,,,,,,,,,,,,,False,11,12,True,exp2.png,exp1.png,trial_right_image,-1,exp1.png,1,exp1.png,exp2.png,1,3,reversed,correct,0.12710178291054308,0,invalid_lose,63.11047929999995,7,,,,,,,,,,,,,,,sub_969,2024-06-30_16h22.08.455,Reversal,2023.1.3,59.86185082070763,1,
13,exp3.png,exp4.png,,0,0,0,0,0,13,13,13,,,,,,,,,,,,,,,,,,,,,,,,,False,12,13,False,exp3.png,exp4.png,trial_left_image,1,exp3.png,1,exp3.png,exp4.png,1,1,non-reversed,correct,0.3001793027890778,1,valid_win,68.52522270000009,8,,,,,,,,,,,,,,,sub_969,2024-06-30_16h22.08.455,Reversal,2023.1.3,59.86185082070763,1,
14,exp1.png,exp2.png,,0,0,0,0,0,14,14,14,,,,,,,,,,,,,,,,,,,,,,,,,False,13,14,True,exp2.png,exp1.png,trial_right_image,-1,exp1.png,1,exp1.png,exp2.png,1,3,reversed,correct,0.6120232167425028,1,valid_win,73.45712980000008,9,,,,,,,,,,,,,,,sub_969,2024-06-30_16h22.08.455,Reversal,2023.1.3,59.86185082070763,1,
15,exp3.png,exp4.png,,0,0,0,0,0,15,15,15,,,,,,,,,,,,,,,,,,,,,,,,,False,14,15,False,exp3.png,exp4.png,trial_left_image,1,exp3.png,1,exp3.png,exp4.png,1,1,non-reversed,correct,0.06749282261754219,0,invalid_lose,78.05613420000009,9,,,,,,,,,,,,,,,sub_969,2024-06-30_16h22.08.455,Reversal,2023.1.3,59.86185082070763,1,
16,exp1.png,exp2.png,,0,0,0,0,0,16,16,16,,,,,,,,,,,,,,,,,,,,,,,,,False,15,16,False,exp1.png,exp2.png,trial_left_image,1,exp1.png,1,exp1.png,exp2.png,1,3,reversed,correct,0.39262734811504274,1,valid_win,84.18677720000005,10,,,,,,,,,,,,,,,sub_969,2024-06-30_16h22.08.455,Reversal,2023.1.3,59.86185082070763,1,
17,exp3.png,exp4.png,,0,0,0,0,0,17,17,17,,,,,,,,,,,,,,,,,,,,,,,,,False,16,17,True,exp4.png,exp3.png,trial_right_image,-1,exp3.png,1,exp3.png,exp4.png,1,1,non-reversed,correct,0.15168665112441448,0,invalid_lose,91.3009662999998,10,,,,,,,,,,,,,,,sub_969,2024-06-30_16h22.08.455,Reversal,2023.1.3,59.86185082070763,1,
18,exp1.png,exp2.png,,0,0,0,0,0,18,18,18,,,,,,,,,,,,,,,,,,,,,,,,,False,17,18,False,exp1.png,exp2.png,trial_left_image,1,exp1.png,1,exp1.png,exp2.png,1,3,reversed,correct,0.9662027452360009,1,valid_win,95.69914489999974,11,,,,,,,,,,,,,,,sub_969,2024-06-30_16h22.08.455,Reversal,2023.1.3,59.86185082070763,1,
19,exp3.png,exp4.png,,0,0,0,0,0,19,19,19,,,,,,,,,,,,,,,,,,,,,,,,,False,18,19,False,exp3.png,exp4.png,trial_left_image,1,exp3.png,1,exp3.png,exp4.png,1,1,non-reversed,correct,0.4248600152659434,1,valid_win,101.13085039999987,12,,,,,,,,,,,,,,,sub_969,2024-06-30_16h22.08.455,Reversal,2023.1.3,59.86185082070763,1,
20,exp1.png,exp2.png,,0,0,0,0,0,20,20,20,,,,,,,,,,,,,,,,,,,,,,,,,False,19,20,False,exp1.png,exp2.png,trial_left_image,1,exp1.png,1,exp1.png,exp2.png,1,3,reversed,correct,0.3407924052111857,1,valid_win,105.59610440000006,13,,,,,,,,,,,,,,,sub_969,2024-06-30_16h22.08.455,Reversal,2023.1.3,59.86185082070763,1,
,,,exp1.png,0,0,0,0,,,,,0,0,0,0,0,0,0,0,,,,,,,,,,,,,,,,,,,,,,,,,,,,,,,,,,,,,,209.06355139999982,100.0,100.0,4.184616800000185,"[(100.0, 4.184616800000185)]",,,,,,,,,,sub_969,2024-06-30_16h22.08.455,Reversal,2023.1.3,59.86185082070763,1,
,,,exp2.png,0,0,0,0,,,,,0,0,0,0,0,1,1,1,,,,,,,,,,,,,,,,,,,,,,,,,,,,,,,,,,,,,,217.31144040000004,,1.0,2.726976200000081,"[(1.0, 2.726976200000081)]",1.0,,,,,,,,,sub_969,2024-06-30_16h22.08.455,Reversal,2023.1.3,59.86185082070763,1,
,,,exp3.png,0,0,0,0,,,,,0,0,0,0,0,2,2,2,,,,,,,,,,,,,,,,,,,,,,,,,,,,,,,,,,,,,,221.26014250000003,,71.0,7.109987900000306,"[(59.0, 2.9771998000001076), (66.0, 4.392713400000048), (71.0, 7.109987900000306)]",,71.0,,,,,,,,sub_969,2024-06-30_16h22.08.455,Reversal,2023.1.3,59.86185082070763,1,
,,,exp4.png,0,0,0,0,,,,,0,0,0,0,0,3,3,3,,,,,,,,,,,,,,,,,,,,,,,,,,,,,,,,,,,,,,229.54273850000004,,25.0,1.710235300000022,"[(25.0, 1.710235300000022)]",,,25.0,,,,,,,sub_969,2024-06-30_16h22.08.455,Reversal,2023.1.3,59.86185082070763,1,
0,exp1.png,exp2.png,,1,0,1,0,0,0,0,0,,,,,,,,,,,,,,,,,,,,,,,,,True,,,,,,,,,,,,,,,,,,,,,,,,,,,,,,,,,,,sub_969,2024-06-30_16h22.08.455,Reversal,2023.1.3,59.86185082070763,1,
1,exp3.png,exp4.png,,1,0,1,0,0,1,1,1,,,,,,,,,,,,,,,,,,,,,,,,,False,20,21,False,exp3.png,exp4.png,trial_left_image,1,exp3.png,1,exp3.png,exp4.png,1,1,non-reversed,correct,0.7621878231713238,1,valid_win,134.63710739999988,14,,,,,,,,,,,,,,,sub_969,2024-06-30_16h22.08.455,Reversal,2023.1.3,59.86185082070763,1,
2,exp1.png,exp2.png,,1,0,1,0,0,2,2,2,,,,,,,,,,,,,,,,,,,,,,,,,False,21,22,True,exp2.png,exp1.png,trial_right_image,-1,exp1.png,1,exp1.png,exp2.png,1,3,reversed,correct,0.1680192031494503,0,invalid_lose,139.0181189,14,,,,,,,,,,,,,,,sub_969,2024-06-30_16h22.08.455,Reversal,2023.1.3,59.86185082070763,1,
3,exp3.png,exp4.png,,1,0,1,0,0,3,3,3,,,,,,,,,,,,,,,,,,,,,,,,,False,22,23,True,exp4.png,exp3.png,trial_right_image,-1,exp3.png,1,exp3.png,exp4.png,1,1,non-reversed,correct,0.7923223553252886,1,valid_win,143.69968419999987,15,,,,,,,,,,,,,,,sub_969,2024-06-30_16h22.08.455,Reversal,2023.1.3,59.86185082070763,1,
4,exp1.png,exp2.png,,1,0,1,0,0,4,4,4,,,,,,,,,,,,,,,,,,,,,,,,,False,23,24,True,exp2.png,exp1.png,trial_right_image,-1,exp1.png,1,exp1.png,exp2.png,1,3,reversed,correct,0.08967651608791449,0,invalid_lose,148.06563659999983,15,,,,,,,,,,,,,,,sub_969,2024-06-30_16h22.08.455,Reversal,2023.1.3,59.86185082070763,1,
5,exp3.png,exp4.png,,1,0,1,0,0,5,5,5,,,,,,,,,,,,,,,,,,,,,,,,,False,24,25,True,exp4.png,exp3.png,trial_right_image,-1,exp3.png,1,exp3.png,exp4.png,1,1,non-reversed,correct,0.31015416942305774,1,valid_win,152.74731509999992,16,,,,,,,,,,,,,,,sub_969,2024-06-30_16h22.08.455,Reversal,2023.1.3,59.86185082070763,1,
6,exp1.png,exp2.png,,1,0,1,0,0,6,6,6,,,,,,,,,,,,,,,,,,,,,,,,,False,25,26,True,exp2.png,exp1.png,trial_left_image,1,exp2.png,1,exp1.png,exp2.png,0,4,reversed,incorrect,0.9880261128287927,0,valid_lose,157.61196680000012,16,,,,,,,,,,,,,,,sub_969,2024-06-30_16h22.08.455,Reversal,2023.1.3,59.86185082070763,1,
7,exp3.png,exp4.png,,1,0,1,0,0,7,7,7,,,,,,,,,,,,,,,,,,,,,,,,,False,26,27,False,exp3.png,exp4.png,trial_left_image,1,exp3.png,1,exp3.png,exp4.png,1,1,non-reversed,correct,0.09072835721646377,0,invalid_lose,162.06042649999972,16,,,,,,,,,,,,,,,sub_969,2024-06-30_16h22.08.455,Reversal,2023.1.3,59.86185082070763,1,
8,exp1.png,exp2.png,,1,0,1,0,0,8,8,8,,,,,,,,,,,,,,,,,,,,,,,,,False,27,28,True,exp2.png,exp1.png,trial_right_image,-1,exp1.png,1,exp1.png,exp2.png,1,3,reversed,correct,0.7385516923871145,1,valid_win,167.94184489999998,17,,,,,,,,,,,,,,,sub_969,2024-06-30_16h22.08.455,Reversal,2023.1.3,59.86185082070763,1,
9,exp3.png,exp4.png,,1,0,1,0,0,9,9,9,,,,,,,,,,,,,,,,,,,,,,,,,False,28,29,False,exp3.png,exp4.png,trial_left_image,1,exp3.png,1,exp3.png,exp4.png,1,1,non-reversed,correct,0.6133852635745455,1,valid_win,172.37336109999978,18,,,,,,,,,,,,,,,sub_969,2024-06-30_16h22.08.455,Reversal,2023.1.3,59.86185082070763,1,
10,exp1.png,exp2.png,,1,0,1,0,0,10,10,10,,,,,,,,,,,,,,,,,,,,,,,,,False,29,30,True,exp2.png,exp1.png,trial_right_image,-1,exp1.png,1,exp1.png,exp2.png,1,3,reversed,correct,0.13500425836655516,0,invalid_lose,176.9411252,18,,,,,,,,,,,,,,,sub_969,2024-06-30_16h22.08.455,Reversal,2023.1.3,59.86185082070763,1,
11,exp3.png,exp4.png,,1,0,1,0,0,11,11,11,,,,,,,,,,,,,,,,,,,,,,,,,False,30,31,False,exp3.png,exp4.png,trial_left_image,1,exp3.png,1,exp3.png,exp4.png,1,1,non-reversed,correct,0.3755596222293589,1,valid_win,181.63754530000006,19,,,,,,,,,,,,,,,sub_969,2024-06-30_16h22.08.455,Reversal,2023.1.3,59.86185082070763,1,
12,exp1.png,exp2.png,,1,0,1,0,0,12,12,12,,,,,,,,,,,,,,,,,,,,,,,,,False,31,32,False,exp1.png,exp2.png,trial_right_image,-1,exp2.png,1,exp1.png,exp2.png,0,4,reversed,incorrect,0.5275910808999242,0,valid_lose,186.7021979000001,19,,,,,,,,,,,,,,,sub_969,2024-06-30_16h22.08.455,Reversal,2023.1.3,59.86185082070763,1,
13,exp3.png,exp4.png,,1,0,1,0,0,13,13,13,,,,,,,,,,,,,,,,,,,,,,,,,False,32,33,False,exp3.png,exp4.png,trial_left_image,1,exp3.png,1,exp3.png,exp4.png,1,1,non-reversed,correct,0.9035128652074215,1,valid_win,191.33407450000004,20,,,,,,,,,,,,,,,sub_969,2024-06-30_16h22.08.455,Reversal,2023.1.3,59.86185082070763,1,
14,exp1.png,exp2.png,,1,0,1,0,0,14,14,14,,,,,,,,,,,,,,,,,,,,,,,,,False,33,34,False,exp1.png,exp2.png,trial_left_image,1,exp1.png,1,exp1.png,exp2.png,1,3,reversed,correct,0.25288547072692613,1,valid_win,198.09780929999988,21,,,,,,,,,,,,,,,sub_969,2024-06-30_16h22.08.455,Reversal,2023.1.3,59.86185082070763,1,
15,exp3.png,exp4.png,,1,0,1,0,0,15,15,15,,,,,,,,,,,,,,,,,,,,,,,,,False,34,35,True,exp4.png,exp3.png,trial_right_image,-1,exp3.png,1,exp3.png,exp4.png,1,1,non-reversed,correct,0.8713829327026897,1,valid_win,202.6296529000001,22,,,,,,,,,,,,,,,sub_969,2024-06-30_16h22.08.455,Reversal,2023.1.3,59.86185082070763,1,
16,exp1.png,exp2.png,,1,0,1,0,0,16,16,16,,,,,,,,,,,,,,,,,,,,,,,,,False,35,36,True,exp2.png,exp1.png,trial_right_image,-1,exp1.png,1,exp1.png,exp2.png,1,3,reversed,correct,0.4567651236244261,1,valid_win,207.21145939999997,23,,,,,,,,,,,,,,,sub_969,2024-06-30_16h22.08.455,Reversal,2023.1.3,59.86185082070763,1,
17,exp3.png,exp4.png,,1,0,1,0,0,17,17,17,,,,,,,,,,,,,,,,,,,,,,,,,False,36,37,False,exp3.png,exp4.png,trial_left_image,1,exp3.png,1,exp3.png,exp4.png,1,1,non-reversed,correct,0.5671903081190415,1,valid_win,211.51022759999978,24,,,,,,,,,,,,,,,sub_969,2024-06-30_16h22.08.455,Reversal,2023.1.3,59.86185082070763,1,
18,exp1.png,exp2.png,,1,0,1,0,0,18,18,18,,,,,,,,,,,,,,,,,,,,,,,,,False,37,38,False,exp1.png,exp2.png,trial_left_image,1,exp1.png,1,exp1.png,exp2.png,1,3,reversed,correct,0.22265425886674906,0,invalid_lose,216.69214009999996,24,,,,,,,,,,,,,,,sub_969,2024-06-30_16h22.08.455,Reversal,2023.1.3,59.86185082070763,1,
19,exp3.png,exp4.png,,1,0,1,0,0,19,19,19,,,,,,,,,,,,,,,,,,,,,,,,,False,38,39,False,exp3.png,exp4.png,trial_left_image,1,exp3.png,1,exp3.png,exp4.png,1,1,non-reversed,correct,0.9083088047875892,1,valid_win,221.1733776000001,25,,,,,,,,,,,,,,,sub_969,2024-06-30_16h22.08.455,Reversal,2023.1.3,59.86185082070763,1,
20,exp1.png,exp2.png,,1,0,1,0,0,20,20,20,,,,,,,,,,,,,,,,,,,,,,,,,False,39,40,True,exp2.png,exp1.png,trial_right_image,-1,exp1.png,1,exp1.png,exp2.png,1,3,reversed,correct,0.1771054519255163,0,invalid_lose,225.50530449999997,25,,,,,,,,,,,,,,,sub_969,2024-06-30_16h22.08.455,Reversal,2023.1.3,59.86185082070763,1,
,,,exp1.png,1,0,1,0,,,,,0,0,0,0,0,0,0,0,,,,,,,,,,,,,,,,,,,,,,,,,,,,,,,,,,,,,,328.9650032000002,39.0,39.0,3.53713259999995,"[(39.0, 3.53713259999995)]",,,,,,,,,,sub_969,2024-06-30_16h22.08.455,Reversal,2023.1.3,59.86185082070763,1,
,,,exp2.png,1,0,1,0,,,,,0,0,0,0,0,1,1,1,,,,,,,,,,,,,,,,,,,,,,,,,,,,,,,,,,,,,,334.6376025000002,,56.0,2.9778188000000227,"[(56.0, 2.9778188000000227)]",56.0,,,,,,,,,sub_969,2024-06-30_16h22.08.455,Reversal,2023.1.3,59.86185082070763,1,
,,,exp3.png,1,0,1,0,,,,,0,0,0,0,0,2,2,2,,,,,,,,,,,,,,,,,,,,,,,,,,,,,,,,,,,,,,339.56773439999984,,88.0,2.4951225999998314,"[(88.0, 2.4951225999998314)]",,88.0,,,,,,,,sub_969,2024-06-30_16h22.08.455,Reversal,2023.1.3,59.86185082070763,1,
,,,exp4.png,1,0,1,0,,,,,0,0,0,0,0,3,3,3,,,,,,,,,,,,,,,,,,,,,,,,,,,,,,,,,,,,,,343.47099170000024,,16.0,1.6918519000000742,"[(16.0, 1.6918519000000742)]",,,16.0,,,,,,,sub_969,2024-06-30_16h22.08.455,Reversal,2023.1.3,59.86185082070763,1,
0,exp1.png,exp2.png,,2,0,2,0,0,0,0,0,,,,,,,,,,,,,,,,,,,,,,,,,True,,,,,,,,,,,,,,,,,,,,,,,,,,,,,,,,,,,sub_969,2024-06-30_16h22.08.455,Reversal,2023.1.3,59.86185082070763,1,
1,exp3.png,exp4.png,,2,0,2,0,0,1,1,1,,,,,,,,,,,,,,,,,,,,,,,,,False,40,41,False,exp3.png,exp4.png,trial_left_image,1,exp3.png,1,exp3.png,exp4.png,1,1,non-reversed,correct,0.042959740002788016,0,invalid_lose,247.8808472999999,25,,,,,,,,,,,,,,,sub_969,2024-06-30_16h22.08.455,Reversal,2023.1.3,59.86185082070763,1,
2,exp1.png,exp2.png,,2,0,2,0,0,2,2,2,,,,,,,,,,,,,,,,,,,,,,,,,False,41,42,True,exp2.png,exp1.png,trial_right_image,-1,exp1.png,1,exp1.png,exp2.png,1,3,reversed,correct,0.17111953121116485,0,invalid_lose,252.6132207999999,25,,,,,,,,,,,,,,,sub_969,2024-06-30_16h22.08.455,Reversal,2023.1.3,59.86185082070763,1,
3,exp3.png,exp4.png,,2,0,2,0,0,3,3,3,,,,,,,,,,,,,,,,,,,,,,,,,False,42,43,True,exp4.png,exp3.png,trial_left_image,1,exp4.png,1,exp3.png,exp4.png,0,2,non-reversed,incorrect,0.976922636526827,0,valid_lose,258.2942131,25,,,,,,,,,,,,,,,sub_969,2024-06-30_16h22.08.455,Reversal,2023.1.3,59.86185082070763,1,
4,exp1.png,exp2.png,,2,0,2,0,0,4,4,4,,,,,,,,,,,,,,,,,,,,,,,,,False,43,44,True,exp2.png,exp1.png,trial_right_image,-1,exp1.png,1,exp1.png,exp2.png,1,3,reversed,correct,0.8807200985072883,1,valid_win,262.55973619999986,26,,,,,,,,,,,,,,,sub_969,2024-06-30_16h22.08.455,Reversal,2023.1.3,59.86185082070763,1,
5,exp3.png,exp4.png,,2,0,2,0,0,5,5,5,,,,,,,,,,,,,,,,,,,,,,,,,False,44,45,True,exp4.png,exp3.png,trial_right_image,-1,exp3.png,1,exp3.png,exp4.png,1,1,non-reversed,correct,0.15327592905026954,0,invalid_lose,266.9424405,26,,,,,,,,,,,,,,,sub_969,2024-06-30_16h22.08.455,Reversal,2023.1.3,59.86185082070763,1,
6,exp1.png,exp2.png,,2,0,2,0,0,6,6,6,,,,,,,,,,,,,,,,,,,,,,,,,False,45,46,True,exp2.png,exp1.png,trial_right_image,-1,exp1.png,1,exp1.png,exp2.png,1,3,reversed,correct,0.8681831517696675,1,valid_win,271.0073494999997,27,,,,,,,,,,,,,,,sub_969,2024-06-30_16h22.08.455,Reversal,2023.1.3,59.86185082070763,1,
7,exp3.png,exp4.png,,2,0,2,0,0,7,7,7,,,,,,,,,,,,,,,,,,,,,,,,,False,46,47,True,exp4.png,exp3.png,trial_right_image,-1,exp3.png,1,exp3.png,exp4.png,1,1,non-reversed,correct,0.9087102863971354,1,valid_win,275.18850729999986,28,,,,,,,,,,,,,,,sub_969,2024-06-30_16h22.08.455,Reversal,2023.1.3,59.86185082070763,1,
8,exp1.png,exp2.png,,2,0,2,0,0,8,8,8,,,,,,,,,,,,,,,,,,,,,,,,,False,47,48,False,exp1.png,exp2.png,trial_left_image,1,exp1.png,1,exp1.png,exp2.png,1,3,reversed,correct,0.9901913449849143,1,valid_win,279.5870713999998,29,,,,,,,,,,,,,,,sub_969,2024-06-30_16h22.08.455,Reversal,2023.1.3,59.86185082070763,1,
9,exp3.png,exp4.png,,2,0,2,0,0,9,9,9,,,,,,,,,,,,,,,,,,,,,,,,,False,48,49,False,exp3.png,exp4.png,trial_left_image,1,exp3.png,1,exp3.png,exp4.png,1,1,non-reversed,correct,0.8493945283415223,1,valid_win,283.8859917,30,,,,,,,,,,,,,,,sub_969,2024-06-30_16h22.08.455,Reversal,2023.1.3,59.86185082070763,1,
10,exp1.png,exp2.png,,2,0,2,0,0,10,10,10,,,,,,,,,,,,,,,,,,,,,,,,,False,49,50,False,exp1.png,exp2.png,trial_left_image,1,exp1.png,1,exp1.png,exp2.png,1,3,reversed,correct,0.13337631674954098,0,invalid_lose,288.0838854999997,30,,,,,,,,,,,,,,,sub_969,2024-06-30_16h22.08.455,Reversal,2023.1.3,59.86185082070763,1,
11,exp3.png,exp4.png,,2,0,2,0,0,11,11,11,,,,,,,,,,,,,,,,,,,,,,,,,False,50,51,True,exp4.png,exp3.png,trial_right_image,-1,exp3.png,1,exp3.png,exp4.png,1,1,non-reversed,correct,0.9180360508219226,1,valid_win,292.4993566999997,31,,,,,,,,,,,,,,,sub_969,2024-06-30_16h22.08.455,Reversal,2023.1.3,59.86185082070763,1,
12,exp1.png,exp2.png,,2,0,2,0,0,12,12,12,,,,,,,,,,,,,,,,,,,,,,,,,False,51,52,False,exp1.png,exp2.png,trial_left_image,1,exp1.png,1,exp1.png,exp2.png,1,3,reversed,correct,0.7526967824348789,1,valid_win,296.76445590000003,32,,,,,,,,,,,,,,,sub_969,2024-06-30_16h22.08.455,Reversal,2023.1.3,59.86185082070763,1,
13,exp3.png,exp4.png,,2,0,2,0,0,13,13,13,,,,,,,,,,,,,,,,,,,,,,,,,False,52,53,False,exp3.png,exp4.png,trial_left_image,1,exp3.png,1,exp3.png,exp4.png,1,1,non-reversed,correct,0.5148852837528247,1,valid_win,301.2299748999999,33,,,,,,,,,,,,,,,sub_969,2024-06-30_16h22.08.455,Reversal,2023.1.3,59.86185082070763,1,
14,exp1.png,exp2.png,,2,0,2,0,0,14,14,14,,,,,,,,,,,,,,,,,,,,,,,,,False,53,54,False,exp1.png,exp2.png,trial_left_image,1,exp1.png,1,exp1.png,exp2.png,1,3,reversed,correct,0.4331859723078637,1,valid_win,305.4614827999999,34,,,,,,,,,,,,,,,sub_969,2024-06-30_16h22.08.455,Reversal,2023.1.3,59.86185082070763,1,
15,exp3.png,exp4.png,,2,0,2,0,0,15,15,15,,,,,,,,,,,,,,,,,,,,,,,,,False,54,55,False,exp3.png,exp4.png,trial_left_image,1,exp3.png,1,exp3.png,exp4.png,1,1,non-reversed,correct,0.9135187227470696,1,valid_win,310.0439483,35,,,,,,,,,,,,,,,sub_969,2024-06-30_16h22.08.455,Reversal,2023.1.3,59.86185082070763,1,
16,exp1.png,exp2.png,,2,0,2,0,0,16,16,16,,,,,,,,,,,,,,,,,,,,,,,,,False,55,56,False,exp1.png,exp2.png,trial_left_image,1,exp1.png,1,exp1.png,exp2.png,1,3,reversed,correct,0.17504374682871005,0,invalid_lose,314.2086970999999,35,,,,,,,,,,,,,,,sub_969,2024-06-30_16h22.08.455,Reversal,2023.1.3,59.86185082070763,1,
17,exp3.png,exp4.png,,2,0,2,0,0,17,17,17,,,,,,,,,,,,,,,,,,,,,,,,,False,56,57,True,exp4.png,exp3.png,trial_right_image,-1,exp3.png,1,exp3.png,exp4.png,1,1,non-reversed,correct,0.8562589052276584,1,valid_win,318.9070630000001,36,,,,,,,,,,,,,,,sub_969,2024-06-30_16h22.08.455,Reversal,2023.1.3,59.86185082070763,1,
18,exp1.png,exp2.png,,2,0,2,0,0,18,18,18,,,,,,,,,,,,,,,,,,,,,,,,,False,57,58,True,exp2.png,exp1.png,trial_right_image,-1,exp1.png,1,exp1.png,exp2.png,1,3,reversed,correct,0.31154244601603087,1,valid_win,323.18967939999993,37,,,,,,,,,,,,,,,sub_969,2024-06-30_16h22.08.455,Reversal,2023.1.3,59.86185082070763,1,
19,exp3.png,exp4.png,,2,0,2,0,0,19,19,19,,,,,,,,,,,,,,,,,,,,,,,,,False,58,59,True,exp4.png,exp3.png,trial_right_image,-1,exp3.png,1,exp3.png,exp4.png,1,1,non-reversed,correct,0.23305192841881905,0,invalid_lose,327.2718116000001,37,,,,,,,,,,,,,,,sub_969,2024-06-30_16h22.08.455,Reversal,2023.1.3,59.86185082070763,1,
20,exp1.png,exp2.png,,2,0,2,0,0,20,20,20,,,,,,,,,,,,,,,,,,,,,,,,,False,59,60,False,exp1.png,exp2.png,trial_left_image,1,exp1.png,1,exp1.png,exp2.png,1,3,reversed,correct,0.8593041064705874,1,valid_win,331.5362301,38,,,,,,,,,,,,,,,sub_969,2024-06-30_16h22.08.455,Reversal,2023.1.3,59.86185082070763,1,
,,,exp1.png,2,0,2,0,,,,,0,0,0,0,0,0,0,0,,,,,,,,,,,,,,,,,,,,,,,,,,,,,,,,,,,,,,434.99345430000017,72.0,72.0,2.4884863999996014,"[(72.0, 2.4884863999996014)]",,,,,,,,,,sub_969,2024-06-30_16h22.08.455,Reversal,2023.1.3,59.86185082070763,1,
,,,exp2.png,2,0,2,0,,,,,0,0,0,0,0,1,1,1,,,,,,,,,,,,,,,,,,,,,,,,,,,,,,,,,,,,,,438.8871228999999,,24.0,1.2441119000000072,"[(24.0, 1.2441119000000072)]",24.0,,,,,,,,,sub_969,2024-06-30_16h22.08.455,Reversal,2023.1.3,59.86185082070763,1,
,,,exp3.png,2,0,2,0,,,,,0,0,0,0,0,2,2,2,,,,,,,,,,,,,,,,,,,,,,,,,,,,,,,,,,,,,,441.15113970000016,,87.0,2.1792694000000665,"[(87.0, 2.1792694000000665)]",,87.0,,,,,,,,sub_969,2024-06-30_16h22.08.455,Reversal,2023.1.3,59.86185082070763,1,
,,,exp4.png,2,0,2,0,,,,,0,0,0,0,0,3,3,3,,,,,,,,,,,,,,,,,,,,,,,,,,,,,,,,,,,,,,444.47011610000004,,15.0,1.3114654999999402,"[(15.0, 1.3114654999999402)]",,,15.0,,,,,,,sub_969,2024-06-30_16h22.08.455,Reversal,2023.1.3,59.86185082070763,1,
0,exp1.png,exp2.png,,,,,,,,,,,,,,,,,,0,0,0,0,0,0,0,0,,,,,,,,,True,,,,,,,,,,,,,,,,,,,,,,,,,,,,,,,,,,,sub_969,2024-06-30_16h22.08.455,Reversal,2023.1.3,59.86185082070763,1,
1,exp3.png,exp4.png,,,,,,,,,,,,,,,,,,0,0,0,0,0,1,1,1,,,,,,,,,False,0,61,True,exp4.png,exp3.png,trial_right_image,-1,exp3.png,1,exp3.png,exp4.png,1,1,non-reversed,correct,0.016216873893003303,0,invalid_lose,349.58003899999994,38,,,,,,,,,345.97034510000003,,,,,,sub_969,2024-06-30_16h22.08.455,Reversal,2023.1.3,59.86185082070763,1,
2,exp1.png,exp2.png,,,,,,,,,,,,,,,,,,0,0,0,0,0,2,2,2,,,,,,,,,False,1,62,False,exp1.png,exp2.png,trial_left_image,1,exp1.png,1,exp2.png,exp1.png,1,3,reversed,incorrect,0.36248924350725054,0,valid_lose,353.9448606000001,38,,,,,,,,,,,,,,,sub_969,2024-06-30_16h22.08.455,Reversal,2023.1.3,59.86185082070763,1,
3,exp3.png,exp4.png,,,,,,,,,,,,,,,,,,0,0,0,0,0,3,3,3,,,,,,,,,False,2,63,False,exp3.png,exp4.png,trial_left_image,1,exp3.png,1,exp3.png,exp4.png,1,1,non-reversed,correct,0.2041746600375396,0,invalid_lose,358.17705109999997,38,,,,,,,,,,,,,,,sub_969,2024-06-30_16h22.08.455,Reversal,2023.1.3,59.86185082070763,1,
4,exp1.png,exp2.png,,,,,,,,,,,,,,,,,,0,0,0,0,0,4,4,4,,,,,,,,,False,3,64,False,exp1.png,exp2.png,trial_left_image,1,exp1.png,1,exp2.png,exp1.png,1,3,reversed,incorrect,0.07082154352472936,1,invalid_win,362.6924912999998,39,,,,,,,,,,,,,,,sub_969,2024-06-30_16h22.08.455,Reversal,2023.1.3,59.86185082070763,1,
5,exp3.png,exp4.png,,,,,,,,,,,,,,,,,,0,0,0,0,0,5,5,5,,,,,,,,,False,4,65,False,exp3.png,exp4.png,trial_right_image,-1,exp4.png,1,exp3.png,exp4.png,0,2,non-reversed,incorrect,0.43085869553630907,0,valid_lose,367.3073919999997,39,,,,,,,,,,,,,,,sub_969,2024-06-30_16h22.08.455,Reversal,2023.1.3,59.86185082070763,1,
6,exp1.png,exp2.png,,,,,,,,,,,,,,,,,,0,0,0,0,0,6,6,6,,,,,,,,,False,5,66,False,exp1.png,exp2.png,trial_left_image,1,exp1.png,1,exp2.png,exp1.png,1,3,reversed,incorrect,0.10952033662077942,1,invalid_win,371.506527,40,,,,,,,,,,,,,,,sub_969,2024-06-30_16h22.08.455,Reversal,2023.1.3,59.86185082070763,1,
7,exp3.png,exp4.png,,,,,,,,,,,,,,,,,,0,0,0,0,0,7,7,7,,,,,,,,,False,6,67,False,exp3.png,exp4.png,trial_right_image,-1,exp4.png,1,exp3.png,exp4.png,0,2,non-reversed,incorrect,0.633794189091106,0,valid_lose,376.3707930999999,40,,,,,,,,,,,,,,,sub_969,2024-06-30_16h22.08.455,Reversal,2023.1.3,59.86185082070763,1,
8,exp1.png,exp2.png,,,,,,,,,,,,,,,,,,0,0,0,0,0,8,8,8,,,,,,,,,False,7,68,False,exp1.png,exp2.png,trial_left_image,1,exp1.png,1,exp2.png,exp1.png,1,3,reversed,incorrect,0.6398627037063664,0,valid_lose,380.48616089999996,40,,,,,,,,,,,,,,,sub_969,2024-06-30_16h22.08.455,Reversal,2023.1.3,59.86185082070763,1,
9,exp3.png,exp4.png,,,,,,,,,,,,,,,,,,0,0,0,0,0,9,9,9,,,,,,,,,False,8,69,True,exp4.png,exp3.png,trial_right_image,-1,exp3.png,1,exp3.png,exp4.png,1,1,non-reversed,correct,0.7955588940573669,1,valid_win,384.5676860999997,41,,,,,,,,,,,,,,,sub_969,2024-06-30_16h22.08.455,Reversal,2023.1.3,59.86185082070763,1,
10,exp1.png,exp2.png,,,,,,,,,,,,,,,,,,0,0,0,0,0,10,10,10,,,,,,,,,False,9,70,True,exp2.png,exp1.png,trial_right_image,-1,exp1.png,1,exp2.png,exp1.png,1,3,reversed,incorrect,0.6128970996759626,0,valid_lose,388.6339076999998,41,,,,,,,,,,,,,,,sub_969,2024-06-30_16h22.08.455,Reversal,2023.1.3,59.86185082070763,1,
11,exp3.png,exp4.png,,,,,,,,,,,,,,,,,,0,0,0,0,0,11,11,11,,,,,,,,,False,10,71,False,exp3.png,exp4.png,trial_left_image,1,exp3.png,1,exp3.png,exp4.png,1,1,non-reversed,correct,0.24212692894375454,0,invalid_lose,394.34806979999985,41,,,,,,,,,,,,,,,sub_969,2024-06-30_16h22.08.455,Reversal,2023.1.3,59.86185082070763,1,
12,exp1.png,exp2.png,,,,,,,,,,,,,,,,,,0,0,0,0,0,12,12,12,,,,,,,,,False,11,72,True,exp2.png,exp1.png,trial_right_image,-1,exp1.png,1,exp2.png,exp1.png,1,3,reversed,incorrect,0.6775687122030952,0,valid_lose,399.2464713999998,41,,,,,,,,,,,,,,,sub_969,2024-06-30_16h22.08.455,Reversal,2023.1.3,59.86185082070763,1,
13,exp3.png,exp4.png,,,,,,,,,,,,,,,,,,0,0,0,0,0,13,13,13,,,,,,,,,False,12,73,False,exp3.png,exp4.png,trial_left_image,1,exp3.png,1,exp3.png,exp4.png,1,1,non-reversed,correct,0.174645644939722,0,invalid_lose,404.8613873999998,41,,,,,,,,,,,,,,,sub_969,2024-06-30_16h22.08.455,Reversal,2023.1.3,59.86185082070763,1,
14,exp1.png,exp2.png,,,,,,,,,,,,,,,,,,0,0,0,0,0,14,14,14,,,,,,,,,False,13,74,True,exp2.png,exp1.png,trial_left_image,1,exp2.png,1,exp2.png,exp1.png,0,4,reversed,correct,0.046526379918997995,0,invalid_lose,409.7435760999997,41,,,,,,,,,,,,,,,sub_969,2024-06-30_16h22.08.455,Reversal,2023.1.3,59.86185082070763,1,
15,exp3.png,exp4.png,,,,,,,,,,,,,,,,,,0,0,0,0,0,15,15,15,,,,,,,,,False,14,75,True,exp4.png,exp3.png,trial_left_image,1,exp4.png,1,exp3.png,exp4.png,0,2,non-reversed,incorrect,0.334660447334035,0,valid_lose,414.2413210999998,41,,,,,,,,,,,,,,,sub_969,2024-06-30_16h22.08.455,Reversal,2023.1.3,59.86185082070763,1,
16,exp1.png,exp2.png,,,,,,,,,,,,,,,,,,0,0,0,0,0,16,16,16,,,,,,,,,False,15,76,False,exp1.png,exp2.png,trial_right_image,-1,exp2.png,1,exp2.png,exp1.png,0,4,reversed,correct,0.2576093532479742,1,valid_win,418.6397232999998,42,,,,,,,,,,,,,,,sub_969,2024-06-30_16h22.08.455,Reversal,2023.1.3,59.86185082070763,1,
17,exp3.png,exp4.png,,,,,,,,,,,,,,,,,,0,0,0,0,0,17,17,17,,,,,,,,,False,16,77,True,exp4.png,exp3.png,trial_left_image,1,exp4.png,1,exp3.png,exp4.png,0,2,non-reversed,incorrect,0.4982497717824601,0,valid_lose,423.0051467999997,42,,,,,,,,,,,,,,,sub_969,2024-06-30_16h22.08.455,Reversal,2023.1.3,59.86185082070763,1,
18,exp1.png,exp2.png,,,,,,,,,,,,,,,,,,0,0,0,0,0,18,18,18,,,,,,,,,False,17,78,True,exp2.png,exp1.png,trial_left_image,1,exp2.png,1,exp2.png,exp1.png,0,4,reversed,correct,0.04867326749331535,0,invalid_lose,427.35366810000005,42,,,,,,,,,,,,,,,sub_969,2024-06-30_16h22.08.455,Reversal,2023.1.3,59.86185082070763,1,
19,exp3.png,exp4.png,,,,,,,,,,,,,,,,,,0,0,0,0,0,19,19,19,,,,,,,,,False,18,79,True,exp4.png,exp3.png,trial_left_image,1,exp4.png,1,exp3.png,exp4.png,0,2,non-reversed,incorrect,0.5895459001325114,0,valid_lose,431.6695737,42,,,,,,,,,,,,,,,sub_969,2024-06-30_16h22.08.455,Reversal,2023.1.3,59.86185082070763,1,
20,exp1.png,exp2.png,,,,,,,,,,,,,,,,,,0,0,0,0,0,20,20,20,,,,,,,,,False,19,80,True,exp2.png,exp1.png,trial_right_image,-1,exp1.png,1,exp2.png,exp1.png,1,3,reversed,incorrect,0.9986475380249911,0,valid_lose,435.6680231,42,,,,,,,,,,,,,,,sub_969,2024-06-30_16h22.08.455,Reversal,2023.1.3,59.86185082070763,1,
,,,exp1.png,,,,,,,,,,,,,,,,,0,0,0,0,,,,,0,0,0,0,0,0,0,0,,,,,,,,,,,,,,,,,,,,,,539.1346903000001,,None,None,[],,,,,,,,,,sub_969,2024-06-30_16h22.08.455,Reversal,2023.1.3,59.86185082070763,1,
,,,exp2.png,,,,,,,,,,,,,,,,,0,0,0,0,,,,,0,0,0,0,0,1,1,1,,,,,,,,,,,,,,,,,,,,,,541.2015244000002,,None,None,[],,,,,,,,,,sub_969,2024-06-30_16h22.08.455,Reversal,2023.1.3,59.86185082070763,1,
,,,exp3.png,,,,,,,,,,,,,,,,,0,0,0,0,,,,,0,0,0,0,0,2,2,2,,,,,,,,,,,,,,,,,,,,,,542.5147622000002,,None,None,[],,,,,,,,,,sub_969,2024-06-30_16h22.08.455,Reversal,2023.1.3,59.86185082070763,1,
,,,exp4.png,,,,,,,,,,,,,,,,,0,0,0,0,,,,,0,0,0,0,0,3,3,3,,,,,,,,,,,,,,,,,,,,,,543.6170714000002,,None,None,[],,,,,,,,,,sub_969,2024-06-30_16h22.08.455,Reversal,2023.1.3,59.86185082070763,1,
0,exp1.png,exp2.png,,,,,,,,,,,,,,,,,,1,0,1,0,0,0,0,0,,,,,,,,,True,,,,,,,,,,,,,,,,,,,,,,,,,,,,,,,,,,,sub_969,2024-06-30_16h22.08.455,Reversal,2023.1.3,59.86185082070763,1,
1,exp3.png,exp4.png,,,,,,,,,,,,,,,,,,1,0,1,0,0,1,1,1,,,,,,,,,False,20,81,True,exp4.png,exp3.png,trial_right_image,-1,exp3.png,1,exp3.png,exp4.png,1,1,non-reversed,correct,0.4945832338257313,1,valid_win,446.3136260000001,43,,,,,,,,,,,,,,,sub_969,2024-06-30_16h22.08.455,Reversal,2023.1.3,59.86185082070763,1,
2,exp1.png,exp2.png,,,,,,,,,,,,,,,,,,1,0,1,0,0,2,2,2,,,,,,,,,False,21,82,True,exp2.png,exp1.png,trial_right_image,-1,exp1.png,1,exp2.png,exp1.png,1,3,reversed,incorrect,0.06272075743783379,1,invalid_win,450.4307435999999,44,,,,,,,,,,,,,,,sub_969,2024-06-30_16h22.08.455,Reversal,2023.1.3,59.86185082070763,1,
3,exp3.png,exp4.png,,,,,,,,,,,,,,,,,,1,0,1,0,0,3,3,3,,,,,,,,,False,22,83,True,exp4.png,exp3.png,trial_right_image,-1,exp3.png,1,exp3.png,exp4.png,1,1,non-reversed,correct,0.5730891956922614,1,valid_win,454.6947245000001,45,,,,,,,,,,,,,,,sub_969,2024-06-30_16h22.08.455,Reversal,2023.1.3,59.86185082070763,1,
4,exp1.png,exp2.png,,,,,,,,,,,,,,,,,,1,0,1,0,0,4,4,4,,,,,,,,,False,23,84,True,exp2.png,exp1.png,trial_right_image,-1,exp1.png,1,exp2.png,exp1.png,1,3,reversed,incorrect,0.7111738382538341,0,valid_lose,458.7604489999999,45,,,,,,,,,,,,,,,sub_969,2024-06-30_16h22.08.455,Reversal,2023.1.3,59.86185082070763,1,
5,exp3.png,exp4.png,,,,,,,,,,,,,,,,,,1,0,1,0,0,5,5,5,,,,,,,,,False,24,85,False,exp3.png,exp4.png,trial_left_image,1,exp3.png,1,exp3.png,exp4.png,1,1,non-reversed,correct,0.9881187859466334,1,valid_win,463.22530129999996,46,,,,,,,,,,,,,,,sub_969,2024-06-30_16h22.08.455,Reversal,2023.1.3,59.86185082070763,1,
6,exp1.png,exp2.png,,,,,,,,,,,,,,,,,,1,0,1,0,0,6,6,6,,,,,,,,,False,25,86,False,exp1.png,exp2.png,trial_left_image,1,exp1.png,1,exp2.png,exp1.png,1,3,reversed,incorrect,0.19503323471803635,1,invalid_win,467.5233859,47,,,,,,,,,,,,,,,sub_969,2024-06-30_16h22.08.455,Reversal,2023.1.3,59.86185082070763,1,
7,exp3.png,exp4.png,,,,,,,,,,,,,,,,,,1,0,1,0,0,7,7,7,,,,,,,,,False,26,87,True,exp4.png,exp3.png,trial_right_image,-1,exp3.png,1,exp3.png,exp4.png,1,1,non-reversed,correct,0.871725018527365,1,valid_win,471.82253949999995,48,,,,,,,,,,,,,,,sub_969,2024-06-30_16h22.08.455,Reversal,2023.1.3,59.86185082070763,1,
8,exp1.png,exp2.png,,,,,,,,,,,,,,,,,,1,0,1,0,0,8,8,8,,,,,,,,,False,27,88,False,exp1.png,exp2.png,trial_left_image,1,exp1.png,1,exp2.png,exp1.png,1,3,reversed,incorrect,0.45426776534587,0,valid_lose,476.1867462,48,,,,,,,,,,,,,,,sub_969,2024-06-30_16h22.08.455,Reversal,2023.1.3,59.86185082070763,1,
9,exp3.png,exp4.png,,,,,,,,,,,,,,,,,,1,0,1,0,0,9,9,9,,,,,,,,,False,28,89,False,exp3.png,exp4.png,trial_left_image,1,exp3.png,1,exp3.png,exp4.png,1,1,non-reversed,correct,0.3774094834052759,1,valid_win,480.38535709999996,49,,,,,,,,,,,,,,,sub_969,2024-06-30_16h22.08.455,Reversal,2023.1.3,59.86185082070763,1,
10,exp1.png,exp2.png,,,,,,,,,,,,,,,,,,1,0,1,0,0,10,10,10,,,,,,,,,False,29,90,False,exp1.png,exp2.png,trial_left_image,1,exp1.png,1,exp2.png,exp1.png,1,3,reversed,incorrect,0.08240613309103462,1,invalid_win,484.83420419999993,50,,,,,,,,,,,,,,,sub_969,2024-06-30_16h22.08.455,Reversal,2023.1.3,59.86185082070763,1,
11,exp3.png,exp4.png,,,,,,,,,,,,,,,,,,1,0,1,0,0,11,11,11,,,,,,,,,False,30,91,False,exp3.png,exp4.png,trial_left_image,1,exp3.png,1,exp3.png,exp4.png,1,1,non-reversed,correct,0.8697727001559985,1,valid_win,489.35032869999986,51,,,,,,,,,,,,,,,sub_969,2024-06-30_16h22.08.455,Reversal,2023.1.3,59.86185082070763,1,
12,exp1.png,exp2.png,,,,,,,,,,,,,,,,,,1,0,1,0,0,12,12,12,,,,,,,,,False,31,92,False,exp1.png,exp2.png,trial_left_image,1,exp1.png,1,exp2.png,exp1.png,1,3,reversed,incorrect,0.7719448247567636,0,valid_lose,493.59803439999996,51,,,,,,,,,,,,,,,sub_969,2024-06-30_16h22.08.455,Reversal,2023.1.3,59.86185082070763,1,
13,exp3.png,exp4.png,,,,,,,,,,,,,,,,,,1,0,1,0,0,13,13,13,,,,,,,,,False,32,93,True,exp4.png,exp3.png,trial_right_image,-1,exp3.png,1,exp3.png,exp4.png,1,1,non-reversed,correct,0.2850034363787336,1,valid_win,498.2465994999998,52,,,,,,,,,,,,,,,sub_969,2024-06-30_16h22.08.455,Reversal,2023.1.3,59.86185082070763,1,
14,exp1.png,exp2.png,,,,,,,,,,,,,,,,,,1,0,1,0,0,14,14,14,,,,,,,,,False,33,94,True,exp2.png,exp1.png,trial_right_image,-1,exp1.png,1,exp2.png,exp1.png,1,3,reversed,incorrect,0.056396726392854646,1,invalid_win,502.67802189999975,53,,,,,,,,,,,,,,,sub_969,2024-06-30_16h22.08.455,Reversal,2023.1.3,59.86185082070763,1,
15,exp3.png,exp4.png,,,,,,,,,,,,,,,,,,1,0,1,0,0,15,15,15,,,,,,,,,False,34,95,True,exp4.png,exp3.png,trial_right_image,-1,exp3.png,1,exp3.png,exp4.png,1,1,non-reversed,correct,0.5246608257989992,1,valid_win,506.77642289999994,54,,,,,,,,,,,,,,,sub_969,2024-06-30_16h22.08.455,Reversal,2023.1.3,59.86185082070763,1,
16,exp1.png,exp2.png,,,,,,,,,,,,,,,,,,1,0,1,0,0,16,16,16,,,,,,,,,False,35,96,False,exp1.png,exp2.png,trial_left_image,1,exp1.png,1,exp2.png,exp1.png,1,3,reversed,incorrect,0.4826943912845243,0,valid_lose,510.9751312999997,54,,,,,,,,,,,,,,,sub_969,2024-06-30_16h22.08.455,Reversal,2023.1.3,59.86185082070763,1,
17,exp3.png,exp4.png,,,,,,,,,,,,,,,,,,1,0,1,0,0,17,17,17,,,,,,,,,False,36,97,False,exp3.png,exp4.png,trial_left_image,1,exp3.png,1,exp3.png,exp4.png,1,1,non-reversed,correct,0.36234580866496,1,valid_win,515.3737000000001,55,,,,,,,,,,,,,,,sub_969,2024-06-30_16h22.08.455,Reversal,2023.1.3,59.86185082070763,1,
18,exp1.png,exp2.png,,,,,,,,,,,,,,,,,,1,0,1,0,0,18,18,18,,,,,,,,,False,37,98,False,exp1.png,exp2.png,trial_left_image,1,exp1.png,1,exp2.png,exp1.png,1,3,reversed,incorrect,0.8573906070422125,0,valid_lose,519.6729436999999,55,,,,,,,,,,,,,,,sub_969,2024-06-30_16h22.08.455,Reversal,2023.1.3,59.86185082070763,1,
19,exp3.png,exp4.png,,,,,,,,,,,,,,,,,,1,0,1,0,0,19,19,19,,,,,,,,,False,38,99,True,exp4.png,exp3.png,trial_right_image,-1,exp3.png,1,exp3.png,exp4.png,1,1,non-reversed,correct,0.2325598653137947,0,invalid_lose,523.8873822999999,55,,,,,,,,,,,,,,,sub_969,2024-06-30_16h22.08.455,Reversal,2023.1.3,59.86185082070763,1,
20,exp1.png,exp2.png,,,,,,,,,,,,,,,,,,1,0,1,0,0,20,20,20,,,,,,,,,False,39,100,True,exp2.png,exp1.png,trial_right_image,-1,exp1.png,1,exp2.png,exp1.png,1,3,reversed,incorrect,0.45957391493852184,0,valid_lose,528.3859176999999,55,,,,,,,,,,,,,,,sub_969,2024-06-30_16h22.08.455,Reversal,2023.1.3,59.86185082070763,1,
,,,exp1.png,,,,,,,,,,,,,,,,,1,0,1,0,,,,,0,0,0,0,0,0,0,0,,,,,,,,,,,,,,,,,,,,,,631.8491329999999,,None,None,[],,,,,,,,,,sub_969,2024-06-30_16h22.08.455,Reversal,2023.1.3,59.86185082070763,1,
,,,exp2.png,,,,,,,,,,,,,,,,,1,0,1,0,,,,,0,0,0,0,0,1,1,1,,,,,,,,,,,,,,,,,,,,,,634.788307,,None,None,[],,,,,,,,,,sub_969,2024-06-30_16h22.08.455,Reversal,2023.1.3,59.86185082070763,1,
,,,exp3.png,,,,,,,,,,,,,,,,,1,0,1,0,,,,,0,0,0,0,0,2,2,2,,,,,,,,,,,,,,,,,,,,,,636.1850792000002,,86.0,1.7864832000000206,"[(86.0, 1.7864832000000206)]",,86.0,,,,,,,,sub_969,2024-06-30_16h22.08.455,Reversal,2023.1.3,59.86185082070763,1,
,,,exp4.png,,,,,,,,,,,,,,,,,1,0,1,0,,,,,0,0,0,0,0,3,3,3,,,,,,,,,,,,,,,,,,,,,,638.8836459000001,,18.0,1.6286144000000604,"[(18.0, 1.6286144000000604)]",,,18.0,,,,,,,sub_969,2024-06-30_16h22.08.455,Reversal,2023.1.3,59.86185082070763,1,
0,exp1.png,exp2.png,,,,,,,,,,,,,,,,,,2,0,2,0,0,0,0,0,,,,,,,,,True,,,,,,,,,,,,,,,,,,,,,,,,,,,,,,,,,,,sub_969,2024-06-30_16h22.08.455,Reversal,2023.1.3,59.86185082070763,1,
1,exp3.png,exp4.png,,,,,,,,,,,,,,,,,,2,0,2,0,0,1,1,1,,,,,,,,,False,40,101,False,exp3.png,exp4.png,trial_left_image,1,exp3.png,1,exp3.png,exp4.png,1,1,non-reversed,correct,0.2071491081039939,0,invalid_lose,543.8140482999997,55,,,,,,,,,,,,,,,sub_969,2024-06-30_16h22.08.455,Reversal,2023.1.3,59.86185082070763,1,
2,exp1.png,exp2.png,,,,,,,,,,,,,,,,,,2,0,2,0,0,2,2,2,,,,,,,,,False,41,102,False,exp1.png,exp2.png,trial_left_image,1,exp1.png,1,exp2.png,exp1.png,1,3,reversed,incorrect,0.5955576902900731,0,valid_lose,548.3455614999998,55,,,,,,,,,,,,,,,sub_969,2024-06-30_16h22.08.455,Reversal,2023.1.3,59.86185082070763,1,
3,exp3.png,exp4.png,,,,,,,,,,,,,,,,,,2,0,2,0,0,3,3,3,,,,,,,,,False,42,103,True,exp4.png,exp3.png,trial_left_image,1,exp4.png,1,exp3.png,exp4.png,0,2,non-reversed,incorrect,0.2855970107761119,0,valid_lose,553.1275541,55,,,,,,,,,,,,,,,sub_969,2024-06-30_16h22.08.455,Reversal,2023.1.3,59.86185082070763,1,
4,exp1.png,exp2.png,,,,,,,,,,,,,,,,,,2,0,2,0,0,4,4,4,,,,,,,,,False,43,104,True,exp2.png,exp1.png,trial_left_image,1,exp2.png,1,exp2.png,exp1.png,0,4,reversed,correct,0.7777281866833466,1,valid_win,557.5426908,56,,,,,,,,,,,,,,,sub_969,2024-06-30_16h22.08.455,Reversal,2023.1.3,59.86185082070763,1,
5,exp3.png,exp4.png,,,,,,,,,,,,,,,,,,2,0,2,0,0,5,5,5,,,,,,,,,False,44,105,False,exp3.png,exp4.png,trial_right_image,-1,exp4.png,1,exp3.png,exp4.png,0,2,non-reversed,incorrect,0.07729020913853002,1,invalid_win,562.5741290000001,57,,,,,,,,,,,,,,,sub_969,2024-06-30_16h22.08.455,Reversal,2023.1.3,59.86185082070763,1,
6,exp1.png,exp2.png,,,,,,,,,,,,,,,,,,2,0,2,0,0,6,6,6,,,,,,,,,False,45,106,True,exp2.png,exp1.png,trial_left_image,1,exp2.png,1,exp2.png,exp1.png,0,4,reversed,correct,0.6990826634179996,1,valid_win,566.8727543,58,,,,,,,,,,,,,,,sub_969,2024-06-30_16h22.08.455,Reversal,2023.1.3,59.86185082070763,1,
7,exp3.png,exp4.png,,,,,,,,,,,,,,,,,,2,0,2,0,0,7,7,7,,,,,,,,,False,46,107,False,exp3.png,exp4.png,trial_right_image,-1,exp4.png,1,exp3.png,exp4.png,0,2,non-reversed,incorrect,0.8071679117007755,0,valid_lose,571.2545114,58,,,,,,,,,,,,,,,sub_969,2024-06-30_16h22.08.455,Reversal,2023.1.3,59.86185082070763,1,
8,exp1.png,exp2.png,,,,,,,,,,,,,,,,,,2,0,2,0,0,8,8,8,,,,,,,,,False,47,108,True,exp2.png,exp1.png,trial_left_image,1,exp2.png,1,exp2.png,exp1.png,0,4,reversed,correct,0.15060908162161546,0,invalid_lose,575.5032100999997,58,,,,,,,,,,,,,,,sub_969,2024-06-30_16h22.08.455,Reversal,2023.1.3,59.86185082070763,1,
9,exp3.png,exp4.png,,,,,,,,,,,,,,,,,,2,0,2,0,0,9,9,9,,,,,,,,,False,48,109,True,exp4.png,exp3.png,trial_left_image,1,exp4.png,1,exp3.png,exp4.png,0,2,non-reversed,incorrect,0.23644241963719548,1,invalid_win,580.0682412000001,59,,,,,,,,,,,,,,,sub_969,2024-06-30_16h22.08.455,Reversal,2023.1.3,59.86185082070763,1,
10,exp1.png,exp2.png,,,,,,,,,,,,,,,,,,2,0,2,0,0,10,10,10,,,,,,,,,False,49,110,True,exp2.png,exp1.png,trial_left_image,1,exp2.png,1,exp2.png,exp1.png,0,4,reversed,correct,0.13702673743464377,0,invalid_lose,584.4166709000001,59,,,,,,,,,,,,,,,sub_969,2024-06-30_16h22.08.455,Reversal,2023.1.3,59.86185082070763,1,
11,exp3.png,exp4.png,,,,,,,,,,,,,,,,,,2,0,2,0,0,11,11,11,,,,,,,,,False,50,111,True,exp4.png,exp3.png,trial_left_image,1,exp4.png,1,exp3.png,exp4.png,0,2,non-reversed,incorrect,0.08098002029974372,1,invalid_win,588.7661895000001,60,,,,,,,,,,,,,,,sub_969,2024-06-30_16h22.08.455,Reversal,2023.1.3,59.86185082070763,1,
12,exp1.png,exp2.png,,,,,,,,,,,,,,,,,,2,0,2,0,0,12,12,12,,,,,,,,,False,51,112,True,exp2.png,exp1.png,trial_left_image,1,exp2.png,1,exp2.png,exp1.png,0,4,reversed,correct,0.532373460596707,1,valid_win,593.1310613999999,61,,,,,,,,,,,,,,,sub_969,2024-06-30_16h22.08.455,Reversal,2023.1.3,59.86185082070763,1,
13,exp3.png,exp4.png,,,,,,,,,,,,,,,,,,2,0,2,0,0,13,13,13,,,,,,,,,False,52,113,True,exp4.png,exp3.png,trial_left_image,1,exp4.png,1,exp3.png,exp4.png,0,2,non-reversed,incorrect,0.18054832917570507,1,invalid_win,598.5786303999998,62,,,,,,,,,,,,,,,sub_969,2024-06-30_16h22.08.455,Reversal,2023.1.3,59.86185082070763,1,
14,exp1.png,exp2.png,,,,,,,,,,,,,,,,,,2,0,2,0,0,14,14,14,,,,,,,,,False,53,114,False,exp1.png,exp2.png,trial_right_image,-1,exp2.png,1,exp2.png,exp1.png,0,4,reversed,correct,0.37437417376377213,1,valid_win,602.8113957,63,,,,,,,,,,,,,,,sub_969,2024-06-30_16h22.08.455,Reversal,2023.1.3,59.86185082070763,1,
15,exp3.png,exp4.png,,,,,,,,,,,,,,,,,,2,0,2,0,0,15,15,15,,,,,,,,,False,54,115,False,exp3.png,exp4.png,trial_right_image,-1,exp4.png,1,exp3.png,exp4.png,0,2,non-reversed,incorrect,0.12533917759519897,1,invalid_win,607.7928185999999,64,,,,,,,,,,,,,,,sub_969,2024-06-30_16h22.08.455,Reversal,2023.1.3,59.86185082070763,1,
16,exp1.png,exp2.png,,,,,,,,,,,,,,,,,,2,0,2,0,0,16,16,16,,,,,,,,,False,55,116,False,exp1.png,exp2.png,trial_right_image,-1,exp2.png,1,exp2.png,exp1.png,0,4,reversed,correct,0.8669934523345794,1,valid_win,612.8572739000001,65,,,,,,,,,,,,,,,sub_969,2024-06-30_16h22.08.455,Reversal,2023.1.3,59.86185082070763,1,
17,exp3.png,exp4.png,,,,,,,,,,,,,,,,,,2,0,2,0,0,17,17,17,,,,,,,,,False,56,117,False,exp3.png,exp4.png,trial_right_image,-1,exp4.png,1,exp3.png,exp4.png,0,2,non-reversed,incorrect,0.7543034474723046,0,valid_lose,617.3387812999999,65,,,,,,,,,,,,,,,sub_969,2024-06-30_16h22.08.455,Reversal,2023.1.3,59.86185082070763,1,
18,exp1.png,exp2.png,,,,,,,,,,,,,,,,,,2,0,2,0,0,18,18,18,,,,,,,,,False,57,118,True,exp2.png,exp1.png,trial_left_image,1,exp2.png,1,exp2.png,exp1.png,0,4,reversed,correct,0.3821293260439307,1,valid_win,621.7719671,66,,,,,,,,,,,,,,,sub_969,2024-06-30_16h22.08.455,Reversal,2023.1.3,59.86185082070763,1,
19,exp3.png,exp4.png,,,,,,,,,,,,,,,,,,2,0,2,0,0,19,19,19,,,,,,,,,False,58,119,False,exp3.png,exp4.png,trial_right_image,-1,exp4.png,1,exp3.png,exp4.png,0,2,non-reversed,incorrect,0.4312578765322358,0,valid_lose,626.3699438999997,66,,,,,,,,,,,,,,,sub_969,2024-06-30_16h22.08.455,Reversal,2023.1.3,59.86185082070763,1,
20,exp1.png,exp2.png,,,,,,,,,,,,,,,,,,2,0,2,0,0,20,20,20,,,,,,,,,False,59,120,False,exp1.png,exp2.png,trial_right_image,-1,exp2.png,1,exp2.png,exp1.png,0,4,reversed,correct,0.05749272918242021,0,invalid_lose,630.8680847999999,66,,,,,,,,,,,,,,,sub_969,2024-06-30_16h22.08.455,Reversal,2023.1.3,59.86185082070763,1,
,,,exp1.png,,,,,,,,,,,,,,,,,2,0,2,0,,,,,0,0,0,0,0,0,0,0,,,,,,,,,,,,,,,,,,,,,,734.3424290999999,38.0,38.0,2.238552400000117,"[(38.0, 2.238552400000117)]",,,,,,,,,,sub_969,2024-06-30_16h22.08.455,Reversal,2023.1.3,59.86185082070763,1,
,,,exp2.png,,,,,,,,,,,,,,,,,2,0,2,0,,,,,0,0,0,0,0,1,1,1,,,,,,,,,,,,,,,,,,,,,,738.7671530999999,,68.0,2.262163700000201,"[(68.0, 2.262163700000201)]",68.0,,,,,,,,,sub_969,2024-06-30_16h22.08.455,Reversal,2023.1.3,59.86185082070763,1,
,,,exp3.png,,,,,,,,,,,,,,,,,2,0,2,0,,,,,0,0,0,0,0,2,2,2,,,,,,,,,,,,,,,,,,,,,,741.9320178,,34.0,2.3785594000000856,"[(37.0, 1.2288853000000017), (34.0, 2.3785594000000856)]",,34.0,,,,,,,,sub_969,2024-06-30_16h22.08.455,Reversal,2023.1.3,59.86185082070763,1,
,,,exp4.png,,,,,,,,,,,,,,,,,2,0,2,0,,,,,0,0,0,0,0,3,3,3,,,,,,,,,,,,,,,,,,,,,,745.1802352000002,,71.0,1.080083100000138,"[(71.0, 1.080083100000138)]",,,71.0,,,,,,,sub_969,2024-06-30_16h22.08.455,Reversal,2023.1.3,59.86185082070763,1,
,,,,,,,,,,,,,,,,,,,,,,,,,,,,,,,,,,,,,,,,,,,,,,,,,,,,,,,,66,,,,,,,,,,80,52,28,300.90943359999983,0,,,,,,,
