trial_index,trial_image1_file,trial_image2_file,image_file,learning_outer_loop.thisRepN,learning_outer_loop.thisTrialN,learning_outer_loop.thisN,learning_outer_loop.thisIndex,learning_inner_loop.thisRepN,learning_inner_loop.thisTrialN,learning_inner_loop.thisN,learning_inner_loop.thisIndex,learning_estimation_outer_loop.thisRepN,learning_estimation_outer_loop.thisTrialN,learning_estimation_outer_loop.thisN,learning_estimation_outer_loop.thisIndex,learning_estimation_inner_loop.thisRepN,learning_estimation_inner_loop.thisTrialN,learning_estimation_inner_loop.thisN,learning_estimation_inner_loop.thisIndex,reversal_outer_loop.thisRepN,reversal_outer_loop.thisTrialN,reversal_outer_loop.thisN,reversal_outer_loop.thisIndex,reversal_inner_loop.thisRepN,reversal_inner_loop.thisTrialN,reversal_inner_loop.thisN,reversal_inner_loop.thisIndex,reversal_estimation_outer_loop.thisRepN,reversal_estimation_outer_loop.thisTrialN,reversal_estimation_outer_loop.thisN,reversal_estimation_outer_loop.thisIndex,reversal_estimation_inner_loop.thisRepN,reversal_estimation_inner_loop.thisTrialN,reversal_estimation_inner_loop.thisN,reversal_estimation_inner_loop.thisIndex,skipped,total_trial_counter,trial_num,left_right_flip,left_image_file,right_image_file,clicked_stimulus_side,side,clicked_stimulus,version,high_prob_image_file,low_prob_image_file,choice_a,choice_b,pair_type,correct,trial_feedback_random,reward,trial_type,overall_time_after_trial,score,estimation_rating.started,estimation_exp1.png,estimation_rating.response,estimation_rating.rt,estimation_rating.history,estimation_exp2.png,estimation_exp3.png,estimation_exp4.png,total_learning_time,total_correct,learning_correct,reversal_correct,total_reversal_time,extra_block,participant,date,expName,psychopyVersion,frameRate,ver,
0,exp1.png,exp2.png,,0,0,0,0,0,0,0,0,,,,,,,,,,,,,,,,,,,,,,,,,False,0,1,True,exp2.png,exp1.png,trial_right_image,-1,exp1.png,2,exp1.png,exp2.png,1,1,non-reversed,correct,0.6712180637744632,1,valid_win,4.630528200000299,1,,,,,,,,,,,,,,,sub_1010,2025-01-05_11h31.26.801,Reversal,2023.1.3,60.06139475761675,2,
1,exp3.png,exp4.png,,0,0,0,0,0,1,1,1,,,,,,,,,,,,,,,,,,,,,,,,,False,1,2,True,exp4.png,exp3.png,trial_right_image,-1,exp3.png,2,exp3.png,exp4.png,1,3,reversed,correct,0.9950282507745609,1,valid_win,13.560528500000146,2,,,,,,,,,,,,,,,sub_1010,2025-01-05_11h31.26.801,Reversal,2023.1.3,60.06139475761675,2,
2,exp1.png,exp2.png,,0,0,0,0,0,2,2,2,,,,,,,,,,,,,,,,,,,,,,,,,False,2,3,True,exp2.png,exp1.png,trial_right_image,-1,exp1.png,2,exp1.png,exp2.png,1,1,non-reversed,correct,0.01565352680903076,0,invalid_lose,22.67306280000048,2,,,,,,,,,,,,,,,sub_1010,2025-01-05_11h31.26.801,Reversal,2023.1.3,60.06139475761675,2,
3,exp3.png,exp4.png,,0,0,0,0,0,3,3,3,,,,,,,,,,,,,,,,,,,,,,,,,False,3,4,False,exp3.png,exp4.png,trial_right_image,-1,exp4.png,2,exp3.png,exp4.png,0,4,reversed,incorrect,0.4851694863543229,0,valid_lose,41.69967110000016,2,,,,,,,,,,,,,,,sub_1010,2025-01-05_11h31.26.801,Reversal,2023.1.3,60.06139475761675,2,
4,exp1.png,exp2.png,,0,0,0,0,0,4,4,4,,,,,,,,,,,,,,,,,,,,,,,,,False,4,5,True,exp2.png,exp1.png,trial_right_image,-1,exp1.png,2,exp1.png,exp2.png,1,1,non-reversed,correct,0.6822083046196707,1,valid_win,51.23026779999964,3,,,,,,,,,,,,,,,sub_1010,2025-01-05_11h31.26.801,Reversal,2023.1.3,60.06139475761675,2,
5,exp3.png,exp4.png,,0,0,0,0,0,5,5,5,,,,,,,,,,,,,,,,,,,,,,,,,False,5,6,True,exp4.png,exp3.png,trial_right_image,-1,exp3.png,2,exp3.png,exp4.png,1,3,reversed,correct,0.6657122208481465,1,valid_win,60.626715200000035,4,,,,,,,,,,,,,,,sub_1010,2025-01-05_11h31.26.801,Reversal,2023.1.3,60.06139475761675,2,
6,exp1.png,exp2.png,,0,0,0,0,0,6,6,6,,,,,,,,,,,,,,,,,,,,,,,,,False,6,7,True,exp2.png,exp1.png,trial_left_image,1,exp2.png,2,exp1.png,exp2.png,0,2,non-reversed,incorrect,0.696597916218589,0,valid_lose,68.7922478999999,4,,,,,,,,,,,,,,,sub_1010,2025-01-05_11h31.26.801,Reversal,2023.1.3,60.06139475761675,2,
7,exp3.png,exp4.png,,0,0,0,0,0,7,7,7,,,,,,,,,,,,,,,,,,,,,,,,,False,7,8,False,exp3.png,exp4.png,trial_left_image,1,exp3.png,2,exp3.png,exp4.png,1,3,reversed,correct,0.1647584184012213,0,invalid_lose,78.2706035000001,4,,,,,,,,,,,,,,,sub_1010,2025-01-05_11h31.26.801,Reversal,2023.1.3,60.06139475761675,2,
8,exp1.png,exp2.png,,0,0,0,0,0,8,8,8,,,,,,,,,,,,,,,,,,,,,,,,,False,8,9,True,exp2.png,exp1.png,trial_right_image,-1,exp1.png,2,exp1.png,exp2.png,1,1,non-reversed,correct,0.4368397138076675,1,valid_win,89.56702630000018,5,,,,,,,,,,,,,,,sub_1010,2025-01-05_11h31.26.801,Reversal,2023.1.3,60.06139475761675,2,
9,exp3.png,exp4.png,,0,0,0,0,0,9,9,9,,,,,,,,,,,,,,,,,,,,,,,,,False,9,10,False,exp3.png,exp4.png,trial_right_image,-1,exp4.png,2,exp3.png,exp4.png,0,4,reversed,incorrect,0.48724843061032785,0,valid_lose,101.24619650000022,5,,,,,,,,,,,,,,,sub_1010,2025-01-05_11h31.26.801,Reversal,2023.1.3,60.06139475761675,2,
10,exp1.png,exp2.png,,0,0,0,0,0,10,10,10,,,,,,,,,,,,,,,,,,,,,,,,,False,10,11,True,exp2.png,exp1.png,trial_right_image,-1,exp1.png,2,exp1.png,exp2.png,1,1,non-reversed,correct,0.6834298105910411,1,valid_win,113.0924359999999,6,,,,,,,,,,,,,,,sub_1010,2025-01-05_11h31.26.801,Reversal,2023.1.3,60.06139475761675,2,
11,exp3.png,exp4.png,,0,0,0,0,0,11,11,11,,,,,,,,,,,,,,,,,,,,,,,,,False,11,12,False,exp3.png,exp4.png,trial_left_image,1,exp3.png,2,exp3.png,exp4.png,1,3,reversed,correct,0.9715766084987271,1,valid_win,120.83926479999991,7,,,,,,,,,,,,,,,sub_1010,2025-01-05_11h31.26.801,Reversal,2023.1.3,60.06139475761675,2,
12,exp1.png,exp2.png,,0,0,0,0,0,12,12,12,,,,,,,,,,,,,,,,,,,,,,,,,False,12,13,False,exp1.png,exp2.png,trial_left_image,1,exp1.png,2,exp1.png,exp2.png,1,1,non-reversed,correct,0.656545001810304,1,valid_win,131.5032159000002,8,,,,,,,,,,,,,,,sub_1010,2025-01-05_11h31.26.801,Reversal,2023.1.3,60.06139475761675,2,
13,exp3.png,exp4.png,,0,0,0,0,0,13,13,13,,,,,,,,,,,,,,,,,,,,,,,,,False,13,14,False,exp3.png,exp4.png,trial_right_image,-1,exp4.png,2,exp3.png,exp4.png,0,4,reversed,incorrect,0.40562328839225614,0,valid_lose,139.2664033000001,8,,,,,,,,,,,,,,,sub_1010,2025-01-05_11h31.26.801,Reversal,2023.1.3,60.06139475761675,2,
14,exp1.png,exp2.png,,0,0,0,0,0,14,14,14,,,,,,,,,,,,,,,,,,,,,,,,,False,14,15,True,exp2.png,exp1.png,trial_right_image,-1,exp1.png,2,exp1.png,exp2.png,1,1,non-reversed,correct,0.5517578708644846,1,valid_win,145.49907410000014,9,,,,,,,,,,,,,,,sub_1010,2025-01-05_11h31.26.801,Reversal,2023.1.3,60.06139475761675,2,
15,exp3.png,exp4.png,,0,0,0,0,0,15,15,15,,,,,,,,,,,,,,,,,,,,,,,,,False,15,16,False,exp3.png,exp4.png,trial_left_image,1,exp3.png,2,exp3.png,exp4.png,1,3,reversed,correct,0.6606891161656366,1,valid_win,152.41237569999976,10,,,,,,,,,,,,,,,sub_1010,2025-01-05_11h31.26.801,Reversal,2023.1.3,60.06139475761675,2,
16,exp1.png,exp2.png,,0,0,0,0,0,16,16,16,,,,,,,,,,,,,,,,,,,,,,,,,False,16,17,False,exp1.png,exp2.png,trial_left_image,1,exp1.png,2,exp1.png,exp2.png,1,1,non-reversed,correct,0.5651070406834297,1,valid_win,158.39500839999982,11,,,,,,,,,,,,,,,sub_1010,2025-01-05_11h31.26.801,Reversal,2023.1.3,60.06139475761675,2,
17,exp3.png,exp4.png,,0,0,0,0,0,17,17,17,,,,,,,,,,,,,,,,,,,,,,,,,False,17,18,False,exp3.png,exp4.png,trial_right_image,-1,exp4.png,2,exp3.png,exp4.png,0,4,reversed,incorrect,0.17426629260551818,1,invalid_win,165.24090520000027,12,,,,,,,,,,,,,,,sub_1010,2025-01-05_11h31.26.801,Reversal,2023.1.3,60.06139475761675,2,
18,exp1.png,exp2.png,,0,0,0,0,0,18,18,18,,,,,,,,,,,,,,,,,,,,,,,,,False,18,19,False,exp1.png,exp2.png,trial_left_image,1,exp1.png,2,exp1.png,exp2.png,1,1,non-reversed,correct,0.600120318220306,1,valid_win,170.90625389999968,13,,,,,,,,,,,,,,,sub_1010,2025-01-05_11h31.26.801,Reversal,2023.1.3,60.06139475761675,2,
19,exp3.png,exp4.png,,0,0,0,0,0,19,19,19,,,,,,,,,,,,,,,,,,,,,,,,,False,19,20,True,exp4.png,exp3.png,trial_left_image,1,exp4.png,2,exp3.png,exp4.png,0,4,reversed,incorrect,0.6791638772963505,0,valid_lose,177.37051200000042,13,,,,,,,,,,,,,,,sub_1010,2025-01-05_11h31.26.801,Reversal,2023.1.3,60.06139475761675,2,
20,exp1.png,exp2.png,,0,0,0,0,0,20,20,20,,,,,,,,,,,,,,,,,,,,,,,,,True,,,,,,,,,,,,,,,,,,,,,,,,,,,,,,,,,,,sub_1010,2025-01-05_11h31.26.801,Reversal,2023.1.3,60.06139475761675,2,
,,,exp1.png,0,0,0,0,,,,,0,0,0,0,0,0,0,0,,,,,,,,,,,,,,,,,,,,,,,,,,,,,,,,,,,,,,251.14356539999972,69.0,69.0,11.922350499999993,"[(69.0, 11.922350499999993)]",,,,,,,,,,sub_1010,2025-01-05_11h31.26.801,Reversal,2023.1.3,60.06139475761675,2,
,,,exp2.png,0,0,0,0,,,,,0,0,0,0,0,1,1,1,,,,,,,,,,,,,,,,,,,,,,,,,,,,,,,,,,,,,,265.28393659999983,,28.0,8.609511499999826,"[(31.0, 6.603556699999899), (28.0, 8.609511499999826)]",28.0,,,,,,,,,sub_1010,2025-01-05_11h31.26.801,Reversal,2023.1.3,60.06139475761675,2,
,,,exp3.png,0,0,0,0,,,,,0,0,0,0,0,2,2,2,,,,,,,,,,,,,,,,,,,,,,,,,,,,,,,,,,,,,,274.97313739999936,,68.0,3.9860090000001946,"[(68.0, 3.9860090000001946)]",,68.0,,,,,,,,sub_1010,2025-01-05_11h31.26.801,Reversal,2023.1.3,60.06139475761675,2,
,,,exp4.png,0,0,0,0,,,,,0,0,0,0,0,3,3,3,,,,,,,,,,,,,,,,,,,,,,,,,,,,,,,,,,,,,,280.3910374999996,,64.0,6.241934399999991,"[(64.0, 6.241934399999991)]",,,64.0,,,,,,,sub_1010,2025-01-05_11h31.26.801,Reversal,2023.1.3,60.06139475761675,2,
0,exp1.png,exp2.png,,1,0,1,0,0,0,0,0,,,,,,,,,,,,,,,,,,,,,,,,,False,20,21,False,exp1.png,exp2.png,trial_left_image,1,exp1.png,2,exp1.png,exp2.png,1,1,non-reversed,correct,0.7020972382762852,1,valid_win,219.93891540000004,14,,,,,,,,,,,,,,,sub_1010,2025-01-05_11h31.26.801,Reversal,2023.1.3,60.06139475761675,2,
1,exp3.png,exp4.png,,1,0,1,0,0,1,1,1,,,,,,,,,,,,,,,,,,,,,,,,,False,21,22,True,exp4.png,exp3.png,trial_left_image,1,exp4.png,2,exp3.png,exp4.png,0,4,reversed,incorrect,0.9519494055964423,0,valid_lose,225.3875168000004,14,,,,,,,,,,,,,,,sub_1010,2025-01-05_11h31.26.801,Reversal,2023.1.3,60.06139475761675,2,
2,exp1.png,exp2.png,,1,0,1,0,0,2,2,2,,,,,,,,,,,,,,,,,,,,,,,,,False,22,23,False,exp1.png,exp2.png,trial_left_image,1,exp1.png,2,exp1.png,exp2.png,1,1,non-reversed,correct,0.6852978557592392,1,valid_win,230.3362863000002,15,,,,,,,,,,,,,,,sub_1010,2025-01-05_11h31.26.801,Reversal,2023.1.3,60.06139475761675,2,
3,exp3.png,exp4.png,,1,0,1,0,0,3,3,3,,,,,,,,,,,,,,,,,,,,,,,,,False,23,24,False,exp3.png,exp4.png,trial_left_image,1,exp3.png,2,exp3.png,exp4.png,1,3,reversed,correct,0.8696882856160718,1,valid_win,235.56682199999977,16,,,,,,,,,,,,,,,sub_1010,2025-01-05_11h31.26.801,Reversal,2023.1.3,60.06139475761675,2,
4,exp1.png,exp2.png,,1,0,1,0,0,4,4,4,,,,,,,,,,,,,,,,,,,,,,,,,False,24,25,True,exp2.png,exp1.png,trial_right_image,-1,exp1.png,2,exp1.png,exp2.png,1,1,non-reversed,correct,0.2571926545738322,1,valid_win,241.31578340000033,17,,,,,,,,,,,,,,,sub_1010,2025-01-05_11h31.26.801,Reversal,2023.1.3,60.06139475761675,2,
5,exp3.png,exp4.png,,1,0,1,0,0,5,5,5,,,,,,,,,,,,,,,,,,,,,,,,,False,25,26,True,exp4.png,exp3.png,trial_right_image,-1,exp3.png,2,exp3.png,exp4.png,1,3,reversed,correct,0.542880870742497,1,valid_win,246.19647820000046,18,,,,,,,,,,,,,,,sub_1010,2025-01-05_11h31.26.801,Reversal,2023.1.3,60.06139475761675,2,
6,exp1.png,exp2.png,,1,0,1,0,0,6,6,6,,,,,,,,,,,,,,,,,,,,,,,,,False,26,27,True,exp2.png,exp1.png,trial_right_image,-1,exp1.png,2,exp1.png,exp2.png,1,1,non-reversed,correct,0.43593574279582215,1,valid_win,251.37860230000024,19,,,,,,,,,,,,,,,sub_1010,2025-01-05_11h31.26.801,Reversal,2023.1.3,60.06139475761675,2,
7,exp3.png,exp4.png,,1,0,1,0,0,7,7,7,,,,,,,,,,,,,,,,,,,,,,,,,False,27,28,True,exp4.png,exp3.png,trial_right_image,-1,exp3.png,2,exp3.png,exp4.png,1,3,reversed,correct,0.7442652874898016,1,valid_win,256.2439677000002,20,,,,,,,,,,,,,,,sub_1010,2025-01-05_11h31.26.801,Reversal,2023.1.3,60.06139475761675,2,
8,exp1.png,exp2.png,,1,0,1,0,0,8,8,8,,,,,,,,,,,,,,,,,,,,,,,,,False,28,29,False,exp1.png,exp2.png,trial_left_image,1,exp1.png,2,exp1.png,exp2.png,1,1,non-reversed,correct,0.3617581515168645,1,valid_win,261.0418077000004,21,,,,,,,,,,,,,,,sub_1010,2025-01-05_11h31.26.801,Reversal,2023.1.3,60.06139475761675,2,
9,exp3.png,exp4.png,,1,0,1,0,0,9,9,9,,,,,,,,,,,,,,,,,,,,,,,,,False,29,30,False,exp3.png,exp4.png,trial_left_image,1,exp3.png,2,exp3.png,exp4.png,1,3,reversed,correct,0.9559915015983103,1,valid_win,265.62398029999986,22,,,,,,,,,,,,,,,sub_1010,2025-01-05_11h31.26.801,Reversal,2023.1.3,60.06139475761675,2,
10,exp1.png,exp2.png,,1,0,1,0,0,10,10,10,,,,,,,,,,,,,,,,,,,,,,,,,False,30,31,False,exp1.png,exp2.png,trial_left_image,1,exp1.png,2,exp1.png,exp2.png,1,1,non-reversed,correct,0.46804567152984855,1,valid_win,270.10697809999965,23,,,,,,,,,,,,,,,sub_1010,2025-01-05_11h31.26.801,Reversal,2023.1.3,60.06139475761675,2,
11,exp3.png,exp4.png,,1,0,1,0,0,11,11,11,,,,,,,,,,,,,,,,,,,,,,,,,False,31,32,True,exp4.png,exp3.png,trial_right_image,-1,exp3.png,2,exp3.png,exp4.png,1,3,reversed,correct,0.10562783866187275,0,invalid_lose,274.3542328000003,23,,,,,,,,,,,,,,,sub_1010,2025-01-05_11h31.26.801,Reversal,2023.1.3,60.06139475761675,2,
12,exp1.png,exp2.png,,1,0,1,0,0,12,12,12,,,,,,,,,,,,,,,,,,,,,,,,,False,32,33,True,exp2.png,exp1.png,trial_right_image,-1,exp1.png,2,exp1.png,exp2.png,1,1,non-reversed,correct,0.37871669050233137,1,valid_win,278.98651979999977,24,,,,,,,,,,,,,,,sub_1010,2025-01-05_11h31.26.801,Reversal,2023.1.3,60.06139475761675,2,
13,exp3.png,exp4.png,,1,0,1,0,0,13,13,13,,,,,,,,,,,,,,,,,,,,,,,,,False,33,34,False,exp3.png,exp4.png,trial_left_image,1,exp3.png,2,exp3.png,exp4.png,1,3,reversed,correct,0.5057522727618821,1,valid_win,285.7837018,25,,,,,,,,,,,,,,,sub_1010,2025-01-05_11h31.26.801,Reversal,2023.1.3,60.06139475761675,2,
14,exp1.png,exp2.png,,1,0,1,0,0,14,14,14,,,,,,,,,,,,,,,,,,,,,,,,,False,34,35,True,exp2.png,exp1.png,trial_right_image,-1,exp1.png,2,exp1.png,exp2.png,1,1,non-reversed,correct,0.8198396155636095,1,valid_win,290.2155322999997,26,,,,,,,,,,,,,,,sub_1010,2025-01-05_11h31.26.801,Reversal,2023.1.3,60.06139475761675,2,
15,exp3.png,exp4.png,,1,0,1,0,0,15,15,15,,,,,,,,,,,,,,,,,,,,,,,,,False,35,36,False,exp3.png,exp4.png,trial_left_image,1,exp3.png,2,exp3.png,exp4.png,1,3,reversed,correct,0.2583110076014091,1,valid_win,294.7140384000004,27,,,,,,,,,,,,,,,sub_1010,2025-01-05_11h31.26.801,Reversal,2023.1.3,60.06139475761675,2,
16,exp1.png,exp2.png,,1,0,1,0,0,16,16,16,,,,,,,,,,,,,,,,,,,,,,,,,False,36,37,False,exp1.png,exp2.png,trial_left_image,1,exp1.png,2,exp1.png,exp2.png,1,1,non-reversed,correct,0.22791724874358588,0,invalid_lose,299.5290528000005,27,,,,,,,,,,,,,,,sub_1010,2025-01-05_11h31.26.801,Reversal,2023.1.3,60.06139475761675,2,
17,exp3.png,exp4.png,,1,0,1,0,0,17,17,17,,,,,,,,,,,,,,,,,,,,,,,,,False,37,38,True,exp4.png,exp3.png,trial_right_image,-1,exp3.png,2,exp3.png,exp4.png,1,3,reversed,correct,0.3052439153331906,1,valid_win,304.31221259999984,28,,,,,,,,,,,,,,,sub_1010,2025-01-05_11h31.26.801,Reversal,2023.1.3,60.06139475761675,2,
18,exp1.png,exp2.png,,1,0,1,0,0,18,18,18,,,,,,,,,,,,,,,,,,,,,,,,,False,38,39,False,exp1.png,exp2.png,trial_left_image,1,exp1.png,2,exp1.png,exp2.png,1,1,non-reversed,correct,0.19551711930176607,0,invalid_lose,308.8425352000004,28,,,,,,,,,,,,,,,sub_1010,2025-01-05_11h31.26.801,Reversal,2023.1.3,60.06139475761675,2,
19,exp3.png,exp4.png,,1,0,1,0,0,19,19,19,,,,,,,,,,,,,,,,,,,,,,,,,False,39,40,True,exp4.png,exp3.png,trial_right_image,-1,exp3.png,2,exp3.png,exp4.png,1,3,reversed,correct,0.9656564873917954,1,valid_win,313.0759128999998,29,,,,,,,,,,,,,,,sub_1010,2025-01-05_11h31.26.801,Reversal,2023.1.3,60.06139475761675,2,
20,exp1.png,exp2.png,,1,0,1,0,0,20,20,20,,,,,,,,,,,,,,,,,,,,,,,,,True,,,,,,,,,,,,,,,,,,,,,,,,,,,,,,,,,,,sub_1010,2025-01-05_11h31.26.801,Reversal,2023.1.3,60.06139475761675,2,
,,,exp1.png,1,0,1,0,,,,,0,0,0,0,0,0,0,0,,,,,,,,,,,,,,,,,,,,,,,,,,,,,,,,,,,,,,386.84961810000004,84.0,84.0,5.472984999999426,"[(84.0, 5.472984999999426)]",,,,,,,,,,sub_1010,2025-01-05_11h31.26.801,Reversal,2023.1.3,60.06139475761675,2,
,,,exp2.png,1,0,1,0,,,,,0,0,0,0,0,1,1,1,,,,,,,,,,,,,,,,,,,,,,,,,,,,,,,,,,,,,,393.99722609999935,,14.0,3.3530393000000913,"[(14.0, 3.3530393000000913)]",14.0,,,,,,,,,sub_1010,2025-01-05_11h31.26.801,Reversal,2023.1.3,60.06139475761675,2,
,,,exp3.png,1,0,1,0,,,,,0,0,0,0,0,2,2,2,,,,,,,,,,,,,,,,,,,,,,,,,,,,,,,,,,,,,,398.66764280000007,,88.0,3.260790199999974,"[(88.0, 3.260790199999974)]",,88.0,,,,,,,,sub_1010,2025-01-05_11h31.26.801,Reversal,2023.1.3,60.06139475761675,2,
,,,exp4.png,1,0,1,0,,,,,0,0,0,0,0,3,3,3,,,,,,,,,,,,,,,,,,,,,,,,,,,,,,,,,,,,,,403.3247668999993,,14.0,2.8447645999995075,"[(14.0, 2.8447645999995075)]",,,14.0,,,,,,,sub_1010,2025-01-05_11h31.26.801,Reversal,2023.1.3,60.06139475761675,2,
0,exp1.png,exp2.png,,2,0,2,0,0,0,0,0,,,,,,,,,,,,,,,,,,,,,,,,,False,40,41,True,exp2.png,exp1.png,trial_right_image,-1,exp1.png,2,exp1.png,exp2.png,1,1,non-reversed,correct,0.4801349692442264,1,valid_win,338.26549929999965,30,,,,,,,,,,,,,,,sub_1010,2025-01-05_11h31.26.801,Reversal,2023.1.3,60.06139475761675,2,
1,exp3.png,exp4.png,,2,0,2,0,0,1,1,1,,,,,,,,,,,,,,,,,,,,,,,,,False,41,42,False,exp3.png,exp4.png,trial_left_image,1,exp3.png,2,exp3.png,exp4.png,1,3,reversed,correct,0.7490459966124159,1,valid_win,343.1305129000002,31,,,,,,,,,,,,,,,sub_1010,2025-01-05_11h31.26.801,Reversal,2023.1.3,60.06139475761675,2,
2,exp1.png,exp2.png,,2,0,2,0,0,2,2,2,,,,,,,,,,,,,,,,,,,,,,,,,False,42,43,False,exp1.png,exp2.png,trial_left_image,1,exp1.png,2,exp1.png,exp2.png,1,1,non-reversed,correct,0.060089292474689526,0,invalid_lose,347.7467765000001,31,,,,,,,,,,,,,,,sub_1010,2025-01-05_11h31.26.801,Reversal,2023.1.3,60.06139475761675,2,
3,exp3.png,exp4.png,,2,0,2,0,0,3,3,3,,,,,,,,,,,,,,,,,,,,,,,,,False,43,44,False,exp3.png,exp4.png,trial_left_image,1,exp3.png,2,exp3.png,exp4.png,1,3,reversed,correct,0.0031070645967129495,0,invalid_lose,352.2778019999996,31,,,,,,,,,,,,,,,sub_1010,2025-01-05_11h31.26.801,Reversal,2023.1.3,60.06139475761675,2,
4,exp1.png,exp2.png,,2,0,2,0,0,4,4,4,,,,,,,,,,,,,,,,,,,,,,,,,False,44,45,True,exp2.png,exp1.png,trial_left_image,1,exp2.png,2,exp1.png,exp2.png,0,2,non-reversed,incorrect,0.610137530140108,0,valid_lose,356.87627390000034,31,,,,,,,,,,,,,,,sub_1010,2025-01-05_11h31.26.801,Reversal,2023.1.3,60.06139475761675,2,
5,exp3.png,exp4.png,,2,0,2,0,0,5,5,5,,,,,,,,,,,,,,,,,,,,,,,,,False,45,46,True,exp4.png,exp3.png,trial_right_image,-1,exp3.png,2,exp3.png,exp4.png,1,3,reversed,correct,0.4535684483428253,1,valid_win,361.24088289999963,32,,,,,,,,,,,,,,,sub_1010,2025-01-05_11h31.26.801,Reversal,2023.1.3,60.06139475761675,2,
6,exp1.png,exp2.png,,2,0,2,0,0,6,6,6,,,,,,,,,,,,,,,,,,,,,,,,,False,46,47,True,exp2.png,exp1.png,trial_right_image,-1,exp1.png,2,exp1.png,exp2.png,1,1,non-reversed,correct,0.7453024519195492,1,valid_win,365.45657910000045,33,,,,,,,,,,,,,,,sub_1010,2025-01-05_11h31.26.801,Reversal,2023.1.3,60.06139475761675,2,
7,exp3.png,exp4.png,,2,0,2,0,0,7,7,7,,,,,,,,,,,,,,,,,,,,,,,,,False,47,48,False,exp3.png,exp4.png,trial_left_image,1,exp3.png,2,exp3.png,exp4.png,1,3,reversed,correct,0.4836198221782315,1,valid_win,370.8880581000003,34,,,,,,,,,,,,,,,sub_1010,2025-01-05_11h31.26.801,Reversal,2023.1.3,60.06139475761675,2,
8,exp1.png,exp2.png,,2,0,2,0,0,8,8,8,,,,,,,,,,,,,,,,,,,,,,,,,False,48,49,True,exp2.png,exp1.png,trial_right_image,-1,exp1.png,2,exp1.png,exp2.png,1,1,non-reversed,correct,0.6601643044620908,1,valid_win,375.15427980000004,35,,,,,,,,,,,,,,,sub_1010,2025-01-05_11h31.26.801,Reversal,2023.1.3,60.06139475761675,2,
9,exp3.png,exp4.png,,2,0,2,0,0,9,9,9,,,,,,,,,,,,,,,,,,,,,,,,,False,49,50,True,exp4.png,exp3.png,trial_right_image,-1,exp3.png,2,exp3.png,exp4.png,1,3,reversed,correct,0.7576214610444061,1,valid_win,379.4350333000002,36,,,,,,,,,,,,,,,sub_1010,2025-01-05_11h31.26.801,Reversal,2023.1.3,60.06139475761675,2,
10,exp1.png,exp2.png,,2,0,2,0,0,10,10,10,,,,,,,,,,,,,,,,,,,,,,,,,False,50,51,False,exp1.png,exp2.png,trial_left_image,1,exp1.png,2,exp1.png,exp2.png,1,1,non-reversed,correct,0.6388067506685461,1,valid_win,383.85020429999986,37,,,,,,,,,,,,,,,sub_1010,2025-01-05_11h31.26.801,Reversal,2023.1.3,60.06139475761675,2,
11,exp3.png,exp4.png,,2,0,2,0,0,11,11,11,,,,,,,,,,,,,,,,,,,,,,,,,False,51,52,False,exp3.png,exp4.png,trial_left_image,1,exp3.png,2,exp3.png,exp4.png,1,3,reversed,correct,0.14463625469902297,0,invalid_lose,388.3496909000005,37,,,,,,,,,,,,,,,sub_1010,2025-01-05_11h31.26.801,Reversal,2023.1.3,60.06139475761675,2,
12,exp1.png,exp2.png,,2,0,2,0,0,12,12,12,,,,,,,,,,,,,,,,,,,,,,,,,False,52,53,False,exp1.png,exp2.png,trial_left_image,1,exp1.png,2,exp1.png,exp2.png,1,1,non-reversed,correct,0.679893252118725,1,valid_win,392.5641587,38,,,,,,,,,,,,,,,sub_1010,2025-01-05_11h31.26.801,Reversal,2023.1.3,60.06139475761675,2,
13,exp3.png,exp4.png,,2,0,2,0,0,13,13,13,,,,,,,,,,,,,,,,,,,,,,,,,False,53,54,True,exp4.png,exp3.png,trial_right_image,-1,exp3.png,2,exp3.png,exp4.png,1,3,reversed,correct,0.4404194150174896,1,valid_win,397.67918120000013,39,,,,,,,,,,,,,,,sub_1010,2025-01-05_11h31.26.801,Reversal,2023.1.3,60.06139475761675,2,
14,exp1.png,exp2.png,,2,0,2,0,0,14,14,14,,,,,,,,,,,,,,,,,,,,,,,,,False,54,55,True,exp2.png,exp1.png,trial_right_image,-1,exp1.png,2,exp1.png,exp2.png,1,1,non-reversed,correct,0.47792548457726536,1,valid_win,402.34365049999997,40,,,,,,,,,,,,,,,sub_1010,2025-01-05_11h31.26.801,Reversal,2023.1.3,60.06139475761675,2,
15,exp3.png,exp4.png,,2,0,2,0,0,15,15,15,,,,,,,,,,,,,,,,,,,,,,,,,False,55,56,True,exp4.png,exp3.png,trial_right_image,-1,exp3.png,2,exp3.png,exp4.png,1,3,reversed,correct,0.8160232932358942,1,valid_win,407.39241479999964,41,,,,,,,,,,,,,,,sub_1010,2025-01-05_11h31.26.801,Reversal,2023.1.3,60.06139475761675,2,
16,exp1.png,exp2.png,,2,0,2,0,0,16,16,16,,,,,,,,,,,,,,,,,,,,,,,,,False,56,57,True,exp2.png,exp1.png,trial_right_image,-1,exp1.png,2,exp1.png,exp2.png,1,1,non-reversed,correct,0.559811657750923,1,valid_win,411.92441299999973,42,,,,,,,,,,,,,,,sub_1010,2025-01-05_11h31.26.801,Reversal,2023.1.3,60.06139475761675,2,
17,exp3.png,exp4.png,,2,0,2,0,0,17,17,17,,,,,,,,,,,,,,,,,,,,,,,,,False,57,58,False,exp3.png,exp4.png,trial_left_image,1,exp3.png,2,exp3.png,exp4.png,1,3,reversed,correct,0.05629963764597812,0,invalid_lose,416.5060739999999,42,,,,,,,,,,,,,,,sub_1010,2025-01-05_11h31.26.801,Reversal,2023.1.3,60.06139475761675,2,
18,exp1.png,exp2.png,,2,0,2,0,0,18,18,18,,,,,,,,,,,,,,,,,,,,,,,,,False,58,59,False,exp1.png,exp2.png,trial_left_image,1,exp1.png,2,exp1.png,exp2.png,1,1,non-reversed,correct,0.2933727254806773,1,valid_win,420.9718720000001,43,,,,,,,,,,,,,,,sub_1010,2025-01-05_11h31.26.801,Reversal,2023.1.3,60.06139475761675,2,
19,exp3.png,exp4.png,,2,0,2,0,0,19,19,19,,,,,,,,,,,,,,,,,,,,,,,,,False,59,60,False,exp3.png,exp4.png,trial_left_image,1,exp3.png,2,exp3.png,exp4.png,1,3,reversed,correct,0.5664807078560946,1,valid_win,427.88531820000026,44,,,,,,,,,,,,,,,sub_1010,2025-01-05_11h31.26.801,Reversal,2023.1.3,60.06139475761675,2,
20,exp1.png,exp2.png,,2,0,2,0,0,20,20,20,,,,,,,,,,,,,,,,,,,,,,,,,True,,,,,,,,,,,,,,,,,,,,,,,,,,,,,,,,,,,sub_1010,2025-01-05_11h31.26.801,Reversal,2023.1.3,60.06139475761675,2,
,,,exp1.png,2,0,2,0,,,,,0,0,0,0,0,0,0,0,,,,,,,,,,,,,,,,,,,,,,,,,,,,,,,,,,,,,,501.6523172999996,92.0,92.0,4.846821299999647,"[(92.0, 4.846821299999647)]",,,,,,,,,,sub_1010,2025-01-05_11h31.26.801,Reversal,2023.1.3,60.06139475761675,2,
,,,exp2.png,2,0,2,0,,,,,0,0,0,0,0,1,1,1,,,,,,,,,,,,,,,,,,,,,,,,,,,,,,,,,,,,,,507.8138153,,8.0,3.4391709000001356,"[(8.0, 3.4391709000001356)]",8.0,,,,,,,,,sub_1010,2025-01-05_11h31.26.801,Reversal,2023.1.3,60.06139475761675,2,
,,,exp3.png,2,0,2,0,,,,,0,0,0,0,0,2,2,2,,,,,,,,,,,,,,,,,,,,,,,,,,,,,,,,,,,,,,512.4710340000001,,92.0,3.013036800000009,"[(92.0, 3.013036800000009)]",,92.0,,,,,,,,sub_1010,2025-01-05_11h31.26.801,Reversal,2023.1.3,60.06139475761675,2,
,,,exp4.png,2,0,2,0,,,,,0,0,0,0,0,3,3,3,,,,,,,,,,,,,,,,,,,,,,,,,,,,,,,,,,,,,,516.8721900999999,,9.0,2.6060028000001694,"[(9.0, 2.6060028000001694)]",,,9.0,,,,,,,sub_1010,2025-01-05_11h31.26.801,Reversal,2023.1.3,60.06139475761675,2,
0,exp1.png,exp2.png,,,,,,,,,,,,,,,,,,0,0,0,0,0,0,0,0,,,,,,,,,False,0,61,False,exp1.png,exp2.png,trial_left_image,1,exp1.png,2,exp1.png,exp2.png,1,1,non-reversed,correct,0.05255345945292467,0,invalid_lose,454.9755919999998,44,,,,,,,,,449.57815690000007,,,,,,sub_1010,2025-01-05_11h31.26.801,Reversal,2023.1.3,60.06139475761675,2,
1,exp3.png,exp4.png,,,,,,,,,,,,,,,,,,0,0,0,0,0,1,1,1,,,,,,,,,False,1,62,True,exp4.png,exp3.png,trial_right_image,-1,exp3.png,2,exp4.png,exp3.png,1,3,reversed,incorrect,0.4204565028635936,0,valid_lose,459.9412895000005,44,,,,,,,,,,,,,,,sub_1010,2025-01-05_11h31.26.801,Reversal,2023.1.3,60.06139475761675,2,
2,exp1.png,exp2.png,,,,,,,,,,,,,,,,,,0,0,0,0,0,2,2,2,,,,,,,,,False,2,63,False,exp1.png,exp2.png,trial_left_image,1,exp1.png,2,exp1.png,exp2.png,1,1,non-reversed,correct,0.7499838106376373,1,valid_win,464.7903464000001,45,,,,,,,,,,,,,,,sub_1010,2025-01-05_11h31.26.801,Reversal,2023.1.3,60.06139475761675,2,
3,exp3.png,exp4.png,,,,,,,,,,,,,,,,,,0,0,0,0,0,3,3,3,,,,,,,,,False,3,64,True,exp4.png,exp3.png,trial_right_image,-1,exp3.png,2,exp4.png,exp3.png,1,3,reversed,incorrect,0.5697461815545206,0,valid_lose,469.65591760000007,45,,,,,,,,,,,,,,,sub_1010,2025-01-05_11h31.26.801,Reversal,2023.1.3,60.06139475761675,2,
4,exp1.png,exp2.png,,,,,,,,,,,,,,,,,,0,0,0,0,0,4,4,4,,,,,,,,,False,4,65,True,exp2.png,exp1.png,trial_right_image,-1,exp1.png,2,exp1.png,exp2.png,1,1,non-reversed,correct,0.5277832252432028,1,valid_win,474.5036006,46,,,,,,,,,,,,,,,sub_1010,2025-01-05_11h31.26.801,Reversal,2023.1.3,60.06139475761675,2,
5,exp3.png,exp4.png,,,,,,,,,,,,,,,,,,0,0,0,0,0,5,5,5,,,,,,,,,False,5,66,True,exp4.png,exp3.png,trial_right_image,-1,exp3.png,2,exp4.png,exp3.png,1,3,reversed,incorrect,0.33104331380778607,0,valid_lose,480.88417019999997,46,,,,,,,,,,,,,,,sub_1010,2025-01-05_11h31.26.801,Reversal,2023.1.3,60.06139475761675,2,
6,exp1.png,exp2.png,,,,,,,,,,,,,,,,,,0,0,0,0,0,6,6,6,,,,,,,,,False,6,67,False,exp1.png,exp2.png,trial_left_image,1,exp1.png,2,exp1.png,exp2.png,1,1,non-reversed,correct,0.97039772449065,1,valid_win,485.3825151000001,47,,,,,,,,,,,,,,,sub_1010,2025-01-05_11h31.26.801,Reversal,2023.1.3,60.06139475761675,2,
7,exp3.png,exp4.png,,,,,,,,,,,,,,,,,,0,0,0,0,0,7,7,7,,,,,,,,,False,7,68,True,exp4.png,exp3.png,trial_left_image,1,exp4.png,2,exp4.png,exp3.png,0,4,reversed,correct,0.9257371059494867,1,valid_win,489.76426119999996,48,,,,,,,,,,,,,,,sub_1010,2025-01-05_11h31.26.801,Reversal,2023.1.3,60.06139475761675,2,
8,exp1.png,exp2.png,,,,,,,,,,,,,,,,,,0,0,0,0,0,8,8,8,,,,,,,,,False,8,69,True,exp2.png,exp1.png,trial_right_image,-1,exp1.png,2,exp1.png,exp2.png,1,1,non-reversed,correct,0.8855831558547286,1,valid_win,494.4477499000004,49,,,,,,,,,,,,,,,sub_1010,2025-01-05_11h31.26.801,Reversal,2023.1.3,60.06139475761675,2,
9,exp3.png,exp4.png,,,,,,,,,,,,,,,,,,0,0,0,0,0,9,9,9,,,,,,,,,False,9,70,True,exp4.png,exp3.png,trial_left_image,1,exp4.png,2,exp4.png,exp3.png,0,4,reversed,correct,0.868997709995495,1,valid_win,498.82888770000045,50,,,,,,,,,,,,,,,sub_1010,2025-01-05_11h31.26.801,Reversal,2023.1.3,60.06139475761675,2,
10,exp1.png,exp2.png,,,,,,,,,,,,,,,,,,0,0,0,0,0,10,10,10,,,,,,,,,False,10,71,False,exp1.png,exp2.png,trial_left_image,1,exp1.png,2,exp1.png,exp2.png,1,1,non-reversed,correct,0.5767783995823014,1,valid_win,503.44456720000017,51,,,,,,,,,,,,,,,sub_1010,2025-01-05_11h31.26.801,Reversal,2023.1.3,60.06139475761675,2,
11,exp3.png,exp4.png,,,,,,,,,,,,,,,,,,0,0,0,0,0,11,11,11,,,,,,,,,False,11,72,False,exp3.png,exp4.png,trial_right_image,-1,exp4.png,2,exp4.png,exp3.png,0,4,reversed,correct,0.9585365230569645,1,valid_win,508.87357340000017,52,,,,,,,,,,,,,,,sub_1010,2025-01-05_11h31.26.801,Reversal,2023.1.3,60.06139475761675,2,
12,exp1.png,exp2.png,,,,,,,,,,,,,,,,,,0,0,0,0,0,12,12,12,,,,,,,,,False,12,73,False,exp1.png,exp2.png,trial_left_image,1,exp1.png,2,exp1.png,exp2.png,1,1,non-reversed,correct,0.3182592325540885,1,valid_win,513.6229417000004,53,,,,,,,,,,,,,,,sub_1010,2025-01-05_11h31.26.801,Reversal,2023.1.3,60.06139475761675,2,
13,exp3.png,exp4.png,,,,,,,,,,,,,,,,,,0,0,0,0,0,13,13,13,,,,,,,,,False,13,74,True,exp4.png,exp3.png,trial_left_image,1,exp4.png,2,exp4.png,exp3.png,0,4,reversed,correct,0.747093858880654,1,valid_win,518.4211633000004,54,,,,,,,,,,,,,,,sub_1010,2025-01-05_11h31.26.801,Reversal,2023.1.3,60.06139475761675,2,
14,exp1.png,exp2.png,,,,,,,,,,,,,,,,,,0,0,0,0,0,14,14,14,,,,,,,,,False,14,75,True,exp2.png,exp1.png,trial_right_image,-1,exp1.png,2,exp1.png,exp2.png,1,1,non-reversed,correct,0.22089476016867815,0,invalid_lose,523.3028457,54,,,,,,,,,,,,,,,sub_1010,2025-01-05_11h31.26.801,Reversal,2023.1.3,60.06139475761675,2,
15,exp3.png,exp4.png,,,,,,,,,,,,,,,,,,0,0,0,0,0,15,15,15,,,,,,,,,False,15,76,False,exp3.png,exp4.png,trial_right_image,-1,exp4.png,2,exp4.png,exp3.png,0,4,reversed,correct,0.3934273619454529,1,valid_win,528.0684757999998,55,,,,,,,,,,,,,,,sub_1010,2025-01-05_11h31.26.801,Reversal,2023.1.3,60.06139475761675,2,
16,exp1.png,exp2.png,,,,,,,,,,,,,,,,,,0,0,0,0,0,16,16,16,,,,,,,,,False,16,77,False,exp1.png,exp2.png,trial_left_image,1,exp1.png,2,exp1.png,exp2.png,1,1,non-reversed,correct,0.3423324378413586,1,valid_win,532.9171125000003,56,,,,,,,,,,,,,,,sub_1010,2025-01-05_11h31.26.801,Reversal,2023.1.3,60.06139475761675,2,
17,exp3.png,exp4.png,,,,,,,,,,,,,,,,,,0,0,0,0,0,17,17,17,,,,,,,,,False,17,78,True,exp4.png,exp3.png,trial_left_image,1,exp4.png,2,exp4.png,exp3.png,0,4,reversed,correct,0.8199958952563703,1,valid_win,537.3832208000003,57,,,,,,,,,,,,,,,sub_1010,2025-01-05_11h31.26.801,Reversal,2023.1.3,60.06139475761675,2,
18,exp1.png,exp2.png,,,,,,,,,,,,,,,,,,0,0,0,0,0,18,18,18,,,,,,,,,False,18,79,False,exp1.png,exp2.png,trial_left_image,1,exp1.png,2,exp1.png,exp2.png,1,1,non-reversed,correct,0.34331210932000833,1,valid_win,541.7300224999999,58,,,,,,,,,,,,,,,sub_1010,2025-01-05_11h31.26.801,Reversal,2023.1.3,60.06139475761675,2,
19,exp3.png,exp4.png,,,,,,,,,,,,,,,,,,0,0,0,0,0,19,19,19,,,,,,,,,False,19,80,False,exp3.png,exp4.png,trial_right_image,-1,exp4.png,2,exp4.png,exp3.png,0,4,reversed,correct,0.28838013829041986,1,valid_win,546.3453055999998,59,,,,,,,,,,,,,,,sub_1010,2025-01-05_11h31.26.801,Reversal,2023.1.3,60.06139475761675,2,
20,exp1.png,exp2.png,,,,,,,,,,,,,,,,,,0,0,0,0,0,20,20,20,,,,,,,,,True,,,,,,,,,,,,,,,,,,,,,,,,,,,,,,,,,,,sub_1010,2025-01-05_11h31.26.801,Reversal,2023.1.3,60.06139475761675,2,
,,,exp1.png,,,,,,,,,,,,,,,,,0,0,0,0,,,,,0,0,0,0,0,0,0,0,,,,,,,,,,,,,,,,,,,,,,620.1227521000001,94.0,94.0,3.146864800000003,"[(94.0, 3.146864800000003)]",,,,,,,,,,sub_1010,2025-01-05_11h31.26.801,Reversal,2023.1.3,60.06139475761675,2,
,,,exp2.png,,,,,,,,,,,,,,,,,0,0,0,0,,,,,0,0,0,0,0,1,1,1,,,,,,,,,,,,,,,,,,,,,,624.7968059999994,,7.0,3.501205200000186,"[(7.0, 3.501205200000186)]",7.0,,,,,,,,,sub_1010,2025-01-05_11h31.26.801,Reversal,2023.1.3,60.06139475761675,2,
,,,exp3.png,,,,,,,,,,,,,,,,,0,0,0,0,,,,,0,0,0,0,0,2,2,2,,,,,,,,,,,,,,,,,,,,,,629.5976817999999,,1.0,3.146662300000571,"[(1.0, 3.146662300000571)]",,1.0,,,,,,,,sub_1010,2025-01-05_11h31.26.801,Reversal,2023.1.3,60.06139475761675,2,
,,,exp4.png,,,,,,,,,,,,,,,,,0,0,0,0,,,,,0,0,0,0,0,3,3,3,,,,,,,,,,,,,,,,,,,,,,634.0187091999996,,100.0,1.4584383999999773,"[(100.0, 1.4584383999999773)]",,,100.0,,,,,,,sub_1010,2025-01-05_11h31.26.801,Reversal,2023.1.3,60.06139475761675,2,
0,exp1.png,exp2.png,,,,,,,,,,,,,,,,,,1,0,1,0,0,0,0,0,,,,,,,,,False,20,81,False,exp1.png,exp2.png,trial_left_image,1,exp1.png,2,exp1.png,exp2.png,1,1,non-reversed,correct,0.7622247721966827,1,valid_win,568.936686,60,,,,,,,,,,,,,,,sub_1010,2025-01-05_11h31.26.801,Reversal,2023.1.3,60.06139475761675,2,
1,exp3.png,exp4.png,,,,,,,,,,,,,,,,,,1,0,1,0,0,1,1,1,,,,,,,,,False,21,82,True,exp4.png,exp3.png,trial_left_image,1,exp4.png,2,exp4.png,exp3.png,0,4,reversed,correct,0.7602477173761514,1,valid_win,573.3538459000001,61,,,,,,,,,,,,,,,sub_1010,2025-01-05_11h31.26.801,Reversal,2023.1.3,60.06139475761675,2,
2,exp1.png,exp2.png,,,,,,,,,,,,,,,,,,1,0,1,0,0,2,2,2,,,,,,,,,False,22,83,False,exp1.png,exp2.png,trial_left_image,1,exp1.png,2,exp1.png,exp2.png,1,1,non-reversed,correct,0.8592453077658966,1,valid_win,577.9519212000005,62,,,,,,,,,,,,,,,sub_1010,2025-01-05_11h31.26.801,Reversal,2023.1.3,60.06139475761675,2,
3,exp3.png,exp4.png,,,,,,,,,,,,,,,,,,1,0,1,0,0,3,3,3,,,,,,,,,False,23,84,True,exp4.png,exp3.png,trial_left_image,1,exp4.png,2,exp4.png,exp3.png,0,4,reversed,correct,0.8580264454893484,1,valid_win,582.5661275000002,63,,,,,,,,,,,,,,,sub_1010,2025-01-05_11h31.26.801,Reversal,2023.1.3,60.06139475761675,2,
4,exp1.png,exp2.png,,,,,,,,,,,,,,,,,,1,0,1,0,0,4,4,4,,,,,,,,,False,24,85,True,exp2.png,exp1.png,trial_right_image,-1,exp1.png,2,exp1.png,exp2.png,1,1,non-reversed,correct,0.8221643153207102,1,valid_win,586.9806562000003,64,,,,,,,,,,,,,,,sub_1010,2025-01-05_11h31.26.801,Reversal,2023.1.3,60.06139475761675,2,
5,exp3.png,exp4.png,,,,,,,,,,,,,,,,,,1,0,1,0,0,5,5,5,,,,,,,,,False,25,86,False,exp3.png,exp4.png,trial_right_image,-1,exp4.png,2,exp4.png,exp3.png,0,4,reversed,correct,0.0968312495799869,0,invalid_lose,591.5961258999996,64,,,,,,,,,,,,,,,sub_1010,2025-01-05_11h31.26.801,Reversal,2023.1.3,60.06139475761675,2,
6,exp1.png,exp2.png,,,,,,,,,,,,,,,,,,1,0,1,0,0,6,6,6,,,,,,,,,False,26,87,True,exp2.png,exp1.png,trial_right_image,-1,exp1.png,2,exp1.png,exp2.png,1,1,non-reversed,correct,0.9805230498413824,1,valid_win,595.7442836,65,,,,,,,,,,,,,,,sub_1010,2025-01-05_11h31.26.801,Reversal,2023.1.3,60.06139475761675,2,
7,exp3.png,exp4.png,,,,,,,,,,,,,,,,,,1,0,1,0,0,7,7,7,,,,,,,,,False,27,88,True,exp4.png,exp3.png,trial_left_image,1,exp4.png,2,exp4.png,exp3.png,0,4,reversed,correct,0.09544604567751691,0,invalid_lose,600.7939662999997,65,,,,,,,,,,,,,,,sub_1010,2025-01-05_11h31.26.801,Reversal,2023.1.3,60.06139475761675,2,
8,exp1.png,exp2.png,,,,,,,,,,,,,,,,,,1,0,1,0,0,8,8,8,,,,,,,,,False,28,89,False,exp1.png,exp2.png,trial_left_image,1,exp1.png,2,exp1.png,exp2.png,1,1,non-reversed,correct,0.6494944314544898,1,valid_win,605.0916410999998,66,,,,,,,,,,,,,,,sub_1010,2025-01-05_11h31.26.801,Reversal,2023.1.3,60.06139475761675,2,
9,exp3.png,exp4.png,,,,,,,,,,,,,,,,,,1,0,1,0,0,9,9,9,,,,,,,,,False,29,90,True,exp4.png,exp3.png,trial_right_image,-1,exp3.png,2,exp4.png,exp3.png,1,3,reversed,incorrect,0.7797388234219415,0,valid_lose,609.2064308999998,66,,,,,,,,,,,,,,,sub_1010,2025-01-05_11h31.26.801,Reversal,2023.1.3,60.06139475761675,2,
10,exp1.png,exp2.png,,,,,,,,,,,,,,,,,,1,0,1,0,0,10,10,10,,,,,,,,,False,30,91,False,exp1.png,exp2.png,trial_left_image,1,exp1.png,2,exp1.png,exp2.png,1,1,non-reversed,correct,0.1473086479675404,0,invalid_lose,614.5553826000005,66,,,,,,,,,,,,,,,sub_1010,2025-01-05_11h31.26.801,Reversal,2023.1.3,60.06139475761675,2,
11,exp3.png,exp4.png,,,,,,,,,,,,,,,,,,1,0,1,0,0,11,11,11,,,,,,,,,False,31,92,True,exp4.png,exp3.png,trial_left_image,1,exp4.png,2,exp4.png,exp3.png,0,4,reversed,correct,0.69519163260474,1,valid_win,619.9209037,67,,,,,,,,,,,,,,,sub_1010,2025-01-05_11h31.26.801,Reversal,2023.1.3,60.06139475761675,2,
12,exp1.png,exp2.png,,,,,,,,,,,,,,,,,,1,0,1,0,0,12,12,12,,,,,,,,,False,32,93,False,exp1.png,exp2.png,trial_left_image,1,exp1.png,2,exp1.png,exp2.png,1,1,non-reversed,correct,0.25266591259142723,1,valid_win,624.2017071999999,68,,,,,,,,,,,,,,,sub_1010,2025-01-05_11h31.26.801,Reversal,2023.1.3,60.06139475761675,2,
13,exp3.png,exp4.png,,,,,,,,,,,,,,,,,,1,0,1,0,0,13,13,13,,,,,,,,,False,33,94,False,exp3.png,exp4.png,trial_right_image,-1,exp4.png,2,exp4.png,exp3.png,0,4,reversed,correct,0.997091084892402,1,valid_win,629.5489275,69,,,,,,,,,,,,,,,sub_1010,2025-01-05_11h31.26.801,Reversal,2023.1.3,60.06139475761675,2,
14,exp1.png,exp2.png,,,,,,,,,,,,,,,,,,1,0,1,0,0,14,14,14,,,,,,,,,False,34,95,False,exp1.png,exp2.png,trial_left_image,1,exp1.png,2,exp1.png,exp2.png,1,1,non-reversed,correct,0.4754392753131784,1,valid_win,633.9995187000004,70,,,,,,,,,,,,,,,sub_1010,2025-01-05_11h31.26.801,Reversal,2023.1.3,60.06139475761675,2,
15,exp3.png,exp4.png,,,,,,,,,,,,,,,,,,1,0,1,0,0,15,15,15,,,,,,,,,False,35,96,True,exp4.png,exp3.png,trial_left_image,1,exp4.png,2,exp4.png,exp3.png,0,4,reversed,correct,0.5303747427352891,1,valid_win,640.9794732,71,,,,,,,,,,,,,,,sub_1010,2025-01-05_11h31.26.801,Reversal,2023.1.3,60.06139475761675,2,
16,exp1.png,exp2.png,,,,,,,,,,,,,,,,,,1,0,1,0,0,16,16,16,,,,,,,,,False,36,97,False,exp1.png,exp2.png,trial_left_image,1,exp1.png,2,exp1.png,exp2.png,1,1,non-reversed,correct,0.08458210115967091,0,invalid_lose,645.6281532000003,71,,,,,,,,,,,,,,,sub_1010,2025-01-05_11h31.26.801,Reversal,2023.1.3,60.06139475761675,2,
17,exp3.png,exp4.png,,,,,,,,,,,,,,,,,,1,0,1,0,0,17,17,17,,,,,,,,,False,37,98,True,exp4.png,exp3.png,trial_left_image,1,exp4.png,2,exp4.png,exp3.png,0,4,reversed,correct,0.09989423873510217,0,invalid_lose,650.1438612000002,71,,,,,,,,,,,,,,,sub_1010,2025-01-05_11h31.26.801,Reversal,2023.1.3,60.06139475761675,2,
18,exp1.png,exp2.png,,,,,,,,,,,,,,,,,,1,0,1,0,0,18,18,18,,,,,,,,,False,38,99,True,exp2.png,exp1.png,trial_right_image,-1,exp1.png,2,exp1.png,exp2.png,1,1,non-reversed,correct,0.790101072127659,1,valid_win,654.5248399000002,72,,,,,,,,,,,,,,,sub_1010,2025-01-05_11h31.26.801,Reversal,2023.1.3,60.06139475761675,2,
19,exp3.png,exp4.png,,,,,,,,,,,,,,,,,,1,0,1,0,0,19,19,19,,,,,,,,,False,39,100,False,exp3.png,exp4.png,trial_right_image,-1,exp4.png,2,exp4.png,exp3.png,0,4,reversed,correct,0.6040758431435672,1,valid_win,659.2731019000003,73,,,,,,,,,,,,,,,sub_1010,2025-01-05_11h31.26.801,Reversal,2023.1.3,60.06139475761675,2,
20,exp1.png,exp2.png,,,,,,,,,,,,,,,,,,1,0,1,0,0,20,20,20,,,,,,,,,True,,,,,,,,,,,,,,,,,,,,,,,,,,,,,,,,,,,sub_1010,2025-01-05_11h31.26.801,Reversal,2023.1.3,60.06139475761675,2,
,,,exp1.png,,,,,,,,,,,,,,,,,1,0,1,0,,,,,0,0,0,0,0,0,0,0,,,,,,,,,,,,,,,,,,,,,,733.0375508999996,86.0,86.0,4.199568199999703,"[(86.0, 4.199568199999703)]",,,,,,,,,,sub_1010,2025-01-05_11h31.26.801,Reversal,2023.1.3,60.06139475761675,2,
,,,exp2.png,,,,,,,,,,,,,,,,,1,0,1,0,,,,,0,0,0,0,0,1,1,1,,,,,,,,,,,,,,,,,,,,,,739.0396910999998,,15.0,5.463854800000263,"[(15.0, 5.463854800000263)]",15.0,,,,,,,,,sub_1010,2025-01-05_11h31.26.801,Reversal,2023.1.3,60.06139475761675,2,
,,,exp3.png,,,,,,,,,,,,,,,,,1,0,1,0,,,,,0,0,0,0,0,2,2,2,,,,,,,,,,,,,,,,,,,,,,745.8041352999999,,12.0,3.871283399999811,"[(12.0, 3.871283399999811)]",,12.0,,,,,,,,sub_1010,2025-01-05_11h31.26.801,Reversal,2023.1.3,60.06139475761675,2,
,,,exp4.png,,,,,,,,,,,,,,,,,1,0,1,0,,,,,0,0,0,0,0,3,3,3,,,,,,,,,,,,,,,,,,,,,,751.0630094999997,,90.0,3.4631337000000713,"[(90.0, 3.4631337000000713)]",,,90.0,,,,,,,sub_1010,2025-01-05_11h31.26.801,Reversal,2023.1.3,60.06139475761675,2,
0,exp1.png,exp2.png,,,,,,,,,,,,,,,,,,2,0,2,0,0,0,0,0,,,,,,,,,False,40,101,False,exp1.png,exp2.png,trial_left_image,1,exp1.png,2,exp1.png,exp2.png,1,1,non-reversed,correct,0.8676657102636774,1,valid_win,688.7794346999999,74,,,,,,,,,,,,,,,sub_1010,2025-01-05_11h31.26.801,Reversal,2023.1.3,60.06139475761675,2,
1,exp3.png,exp4.png,,,,,,,,,,,,,,,,,,2,0,2,0,0,1,1,1,,,,,,,,,False,41,102,True,exp4.png,exp3.png,trial_left_image,1,exp4.png,2,exp4.png,exp3.png,0,4,reversed,correct,0.8668772257887688,1,valid_win,693.7292285000003,75,,,,,,,,,,,,,,,sub_1010,2025-01-05_11h31.26.801,Reversal,2023.1.3,60.06139475761675,2,
2,exp1.png,exp2.png,,,,,,,,,,,,,,,,,,2,0,2,0,0,2,2,2,,,,,,,,,False,42,103,True,exp2.png,exp1.png,trial_right_image,-1,exp1.png,2,exp1.png,exp2.png,1,1,non-reversed,correct,0.10953619998561048,0,invalid_lose,698.1601337000002,75,,,,,,,,,,,,,,,sub_1010,2025-01-05_11h31.26.801,Reversal,2023.1.3,60.06139475761675,2,
3,exp3.png,exp4.png,,,,,,,,,,,,,,,,,,2,0,2,0,0,3,3,3,,,,,,,,,False,43,104,True,exp4.png,exp3.png,trial_left_image,1,exp4.png,2,exp4.png,exp3.png,0,4,reversed,correct,0.18036039650346714,0,invalid_lose,702.7246152999996,75,,,,,,,,,,,,,,,sub_1010,2025-01-05_11h31.26.801,Reversal,2023.1.3,60.06139475761675,2,
4,exp1.png,exp2.png,,,,,,,,,,,,,,,,,,2,0,2,0,0,4,4,4,,,,,,,,,False,44,105,True,exp2.png,exp1.png,trial_right_image,-1,exp1.png,2,exp1.png,exp2.png,1,1,non-reversed,correct,0.9231315500669214,1,valid_win,707.1231642000002,76,,,,,,,,,,,,,,,sub_1010,2025-01-05_11h31.26.801,Reversal,2023.1.3,60.06139475761675,2,
5,exp3.png,exp4.png,,,,,,,,,,,,,,,,,,2,0,2,0,0,5,5,5,,,,,,,,,False,45,106,False,exp3.png,exp4.png,trial_right_image,-1,exp4.png,2,exp4.png,exp3.png,0,4,reversed,correct,0.6374694347055536,1,valid_win,711.6885499999999,77,,,,,,,,,,,,,,,sub_1010,2025-01-05_11h31.26.801,Reversal,2023.1.3,60.06139475761675,2,
6,exp1.png,exp2.png,,,,,,,,,,,,,,,,,,2,0,2,0,0,6,6,6,,,,,,,,,False,46,107,True,exp2.png,exp1.png,trial_right_image,-1,exp1.png,2,exp1.png,exp2.png,1,1,non-reversed,correct,0.24454365316560234,0,invalid_lose,715.8886095999997,77,,,,,,,,,,,,,,,sub_1010,2025-01-05_11h31.26.801,Reversal,2023.1.3,60.06139475761675,2,
7,exp3.png,exp4.png,,,,,,,,,,,,,,,,,,2,0,2,0,0,7,7,7,,,,,,,,,False,47,108,False,exp3.png,exp4.png,trial_right_image,-1,exp4.png,2,exp4.png,exp3.png,0,4,reversed,correct,0.21220330630627104,0,invalid_lose,720.5698614000003,77,,,,,,,,,,,,,,,sub_1010,2025-01-05_11h31.26.801,Reversal,2023.1.3,60.06139475761675,2,
8,exp1.png,exp2.png,,,,,,,,,,,,,,,,,,2,0,2,0,0,8,8,8,,,,,,,,,False,48,109,False,exp1.png,exp2.png,trial_left_image,1,exp1.png,2,exp1.png,exp2.png,1,1,non-reversed,correct,0.2660384183121325,1,valid_win,724.8688351999999,78,,,,,,,,,,,,,,,sub_1010,2025-01-05_11h31.26.801,Reversal,2023.1.3,60.06139475761675,2,
9,exp3.png,exp4.png,,,,,,,,,,,,,,,,,,2,0,2,0,0,9,9,9,,,,,,,,,False,49,110,True,exp4.png,exp3.png,trial_left_image,1,exp4.png,2,exp4.png,exp3.png,0,4,reversed,correct,0.5044864011372808,1,valid_win,729.6496018999997,79,,,,,,,,,,,,,,,sub_1010,2025-01-05_11h31.26.801,Reversal,2023.1.3,60.06139475761675,2,
10,exp1.png,exp2.png,,,,,,,,,,,,,,,,,,2,0,2,0,0,10,10,10,,,,,,,,,False,50,111,False,exp1.png,exp2.png,trial_left_image,1,exp1.png,2,exp1.png,exp2.png,1,1,non-reversed,correct,0.08168735381945436,0,invalid_lose,734.1307459999998,79,,,,,,,,,,,,,,,sub_1010,2025-01-05_11h31.26.801,Reversal,2023.1.3,60.06139475761675,2,
11,exp3.png,exp4.png,,,,,,,,,,,,,,,,,,2,0,2,0,0,11,11,11,,,,,,,,,False,51,112,True,exp4.png,exp3.png,trial_right_image,-1,exp3.png,2,exp4.png,exp3.png,1,3,reversed,incorrect,0.7041734345458031,0,valid_lose,738.1965821000003,79,,,,,,,,,,,,,,,sub_1010,2025-01-05_11h31.26.801,Reversal,2023.1.3,60.06139475761675,2,
12,exp1.png,exp2.png,,,,,,,,,,,,,,,,,,2,0,2,0,0,12,12,12,,,,,,,,,False,52,113,True,exp2.png,exp1.png,trial_right_image,-1,exp1.png,2,exp1.png,exp2.png,1,1,non-reversed,correct,0.10737956442093244,0,invalid_lose,742.5784842000003,79,,,,,,,,,,,,,,,sub_1010,2025-01-05_11h31.26.801,Reversal,2023.1.3,60.06139475761675,2,
13,exp3.png,exp4.png,,,,,,,,,,,,,,,,,,2,0,2,0,0,13,13,13,,,,,,,,,False,53,114,False,exp3.png,exp4.png,trial_right_image,-1,exp4.png,2,exp4.png,exp3.png,0,4,reversed,correct,0.5445912344949514,1,valid_win,748.3771809,80,,,,,,,,,,,,,,,sub_1010,2025-01-05_11h31.26.801,Reversal,2023.1.3,60.06139475761675,2,
14,exp1.png,exp2.png,,,,,,,,,,,,,,,,,,2,0,2,0,0,14,14,14,,,,,,,,,False,54,115,False,exp1.png,exp2.png,trial_right_image,-1,exp2.png,2,exp1.png,exp2.png,0,2,non-reversed,incorrect,0.4668376722876434,0,valid_lose,753.8911135999997,80,,,,,,,,,,,,,,,sub_1010,2025-01-05_11h31.26.801,Reversal,2023.1.3,60.06139475761675,2,
15,exp3.png,exp4.png,,,,,,,,,,,,,,,,,,2,0,2,0,0,15,15,15,,,,,,,,,False,55,116,False,exp3.png,exp4.png,trial_right_image,-1,exp4.png,2,exp4.png,exp3.png,0,4,reversed,correct,0.8443819576878964,1,valid_win,760.6721353000003,81,,,,,,,,,,,,,,,sub_1010,2025-01-05_11h31.26.801,Reversal,2023.1.3,60.06139475761675,2,
16,exp1.png,exp2.png,,,,,,,,,,,,,,,,,,2,0,2,0,0,16,16,16,,,,,,,,,False,56,117,False,exp1.png,exp2.png,trial_left_image,1,exp1.png,2,exp1.png,exp2.png,1,1,non-reversed,correct,0.6299989107352881,1,valid_win,765.1533706,82,,,,,,,,,,,,,,,sub_1010,2025-01-05_11h31.26.801,Reversal,2023.1.3,60.06139475761675,2,
17,exp3.png,exp4.png,,,,,,,,,,,,,,,,,,2,0,2,0,0,17,17,17,,,,,,,,,False,57,118,True,exp4.png,exp3.png,trial_left_image,1,exp4.png,2,exp4.png,exp3.png,0,4,reversed,correct,0.9408702822723584,1,valid_win,770.2019086999999,83,,,,,,,,,,,,,,,sub_1010,2025-01-05_11h31.26.801,Reversal,2023.1.3,60.06139475761675,2,
18,exp1.png,exp2.png,,,,,,,,,,,,,,,,,,2,0,2,0,0,18,18,18,,,,,,,,,False,58,119,True,exp2.png,exp1.png,trial_right_image,-1,exp1.png,2,exp1.png,exp2.png,1,1,non-reversed,correct,0.8714553667914581,1,valid_win,774.6338138000001,84,,,,,,,,,,,,,,,sub_1010,2025-01-05_11h31.26.801,Reversal,2023.1.3,60.06139475761675,2,
19,exp3.png,exp4.png,,,,,,,,,,,,,,,,,,2,0,2,0,0,19,19,19,,,,,,,,,False,59,120,False,exp3.png,exp4.png,trial_right_image,-1,exp4.png,2,exp4.png,exp3.png,0,4,reversed,correct,0.7536435311738563,1,valid_win,781.9825939000002,85,,,,,,,,,,,,,,,sub_1010,2025-01-05_11h31.26.801,Reversal,2023.1.3,60.06139475761675,2,
20,exp1.png,exp2.png,,,,,,,,,,,,,,,,,,2,0,2,0,0,20,20,20,,,,,,,,,True,,,,,,,,,,,,,,,,,,,,,,,,,,,,,,,,,,,sub_1010,2025-01-05_11h31.26.801,Reversal,2023.1.3,60.06139475761675,2,
,,,exp1.png,,,,,,,,,,,,,,,,,2,0,2,0,,,,,0,0,0,0,0,0,0,0,,,,,,,,,,,,,,,,,,,,,,855.7698047999993,77.0,77.0,2.9345695000001797,"[(77.0, 2.9345695000001797)]",,,,,,,,,,sub_1010,2025-01-05_11h31.26.801,Reversal,2023.1.3,60.06139475761675,2,
,,,exp2.png,,,,,,,,,,,,,,,,,2,0,2,0,,,,,0,0,0,0,0,1,1,1,,,,,,,,,,,,,,,,,,,,,,859.8433719999994,,21.0,4.089598799999294,"[(21.0, 4.089598799999294)]",21.0,,,,,,,,,sub_1010,2025-01-05_11h31.26.801,Reversal,2023.1.3,60.06139475761675,2,
,,,exp3.png,,,,,,,,,,,,,,,,,2,0,2,0,,,,,0,0,0,0,0,2,2,2,,,,,,,,,,,,,,,,,,,,,,865.1226833000001,,16.0,4.12949430000026,"[(16.0, 4.12949430000026)]",,16.0,,,,,,,,sub_1010,2025-01-05_11h31.26.801,Reversal,2023.1.3,60.06139475761675,2,
,,,exp4.png,,,,,,,,,,,,,,,,,2,0,2,0,,,,,0,0,0,0,0,3,3,3,,,,,,,,,,,,,,,,,,,,,,870.4502763,,82.0,2.0123991000000387,"[(82.0, 2.0123991000000387)]",,,82.0,,,,,,,sub_1010,2025-01-05_11h31.26.801,Reversal,2023.1.3,60.06139475761675,2,
,,,,,,,,,,,,,,,,,,,,,,,,,,,,,,,,,,,,,,,,,,,,,,,,,,,,,,,,85,,,,,,,,,,106,52,54,352.78375479999977,0,,,,,,,
