trial_index,trial_image1_file,trial_image2_file,image_file,learning_outer_loop.thisRepN,learning_outer_loop.thisTrialN,learning_outer_loop.thisN,learning_outer_loop.thisIndex,learning_inner_loop.thisRepN,learning_inner_loop.thisTrialN,learning_inner_loop.thisN,learning_inner_loop.thisIndex,learning_estimation_outer_loop.thisRepN,learning_estimation_outer_loop.thisTrialN,learning_estimation_outer_loop.thisN,learning_estimation_outer_loop.thisIndex,learning_estimation_inner_loop.thisRepN,learning_estimation_inner_loop.thisTrialN,learning_estimation_inner_loop.thisN,learning_estimation_inner_loop.thisIndex,reversal_outer_loop.thisRepN,reversal_outer_loop.thisTrialN,reversal_outer_loop.thisN,reversal_outer_loop.thisIndex,reversal_inner_loop.thisRepN,reversal_inner_loop.thisTrialN,reversal_inner_loop.thisN,reversal_inner_loop.thisIndex,reversal_estimation_outer_loop.thisRepN,reversal_estimation_outer_loop.thisTrialN,reversal_estimation_outer_loop.thisN,reversal_estimation_outer_loop.thisIndex,reversal_estimation_inner_loop.thisRepN,reversal_estimation_inner_loop.thisTrialN,reversal_estimation_inner_loop.thisN,reversal_estimation_inner_loop.thisIndex,skipped,total_trial_counter,trial_num,left_right_flip,left_image_file,right_image_file,clicked_stimulus_side,side,clicked_stimulus,version,high_prob_image_file,low_prob_image_file,choice_a,choice_b,pair_type,correct,trial_feedback_random,reward,trial_type,overall_time_after_trial,score,estimation_exp1.png,estimation_rating.response,estimation_rating.rt,estimation_rating.history,estimation_rating.started,estimation_rating.stopped,estimation_exp2.png,estimation_exp3.png,estimation_exp4.png,total_learning_time,total_correct,learning_correct,reversal_correct,total_reversal_time,extra_block,participant,date,expName,psychopyVersion,frameRate,ver,
0,exp1.png,exp2.png,,0,0,0,0,0,0,0,0,,,,,,,,,,,,,,,,,,,,,,,,,False,0,1,True,exp2.png,exp1.png,trial_left_image,1,exp2.png,4,exp2.png,exp1.png,1,1,non-reversed,correct,0.8317274126738593,1,valid_win,12.867120599374175,1,,,,,,,,,,,,,,,,sub_448,2024-05-12_18h03.02.314,Reversal,2022.1.2,59.975013786119426,4,
1,exp3.png,exp4.png,,0,0,0,0,0,1,1,1,,,,,,,,,,,,,,,,,,,,,,,,,False,1,2,False,exp3.png,exp4.png,trial_left_image,1,exp3.png,4,exp4.png,exp3.png,0,4,reversed,incorrect,0.898576232203275,0,valid_lose,34.583990098908544,1,,,,,,,,,,,,,,,,sub_448,2024-05-12_18h03.02.314,Reversal,2022.1.2,59.975013786119426,4,
2,exp1.png,exp2.png,,0,0,0,0,0,2,2,2,,,,,,,,,,,,,,,,,,,,,,,,,False,2,3,False,exp1.png,exp2.png,trial_right_image,-1,exp2.png,4,exp2.png,exp1.png,1,1,non-reversed,correct,0.5641327451336903,1,valid_win,51.16620069928467,2,,,,,,,,,,,,,,,,sub_448,2024-05-12_18h03.02.314,Reversal,2022.1.2,59.975013786119426,4,
3,exp3.png,exp4.png,,0,0,0,0,0,3,3,3,,,,,,,,,,,,,,,,,,,,,,,,,False,3,4,True,exp4.png,exp3.png,trial_left_image,1,exp4.png,4,exp4.png,exp3.png,1,3,reversed,correct,0.09637043026982295,0,invalid_lose,57.21671549975872,2,,,,,,,,,,,,,,,,sub_448,2024-05-12_18h03.02.314,Reversal,2022.1.2,59.975013786119426,4,
4,exp1.png,exp2.png,,0,0,0,0,0,4,4,4,,,,,,,,,,,,,,,,,,,,,,,,,False,4,5,True,exp2.png,exp1.png,trial_right_image,-1,exp1.png,4,exp2.png,exp1.png,0,2,non-reversed,incorrect,0.7845155464299941,0,valid_lose,78.98209830000997,2,,,,,,,,,,,,,,,,sub_448,2024-05-12_18h03.02.314,Reversal,2022.1.2,59.975013786119426,4,
5,exp3.png,exp4.png,,0,0,0,0,0,5,5,5,,,,,,,,,,,,,,,,,,,,,,,,,False,5,6,True,exp4.png,exp3.png,trial_right_image,-1,exp3.png,4,exp4.png,exp3.png,0,4,reversed,incorrect,0.2560862407809844,0,valid_lose,90.04898059926927,2,,,,,,,,,,,,,,,,sub_448,2024-05-12_18h03.02.314,Reversal,2022.1.2,59.975013786119426,4,
6,exp1.png,exp2.png,,0,0,0,0,0,6,6,6,,,,,,,,,,,,,,,,,,,,,,,,,False,6,7,False,exp1.png,exp2.png,trial_left_image,1,exp1.png,4,exp2.png,exp1.png,0,2,non-reversed,incorrect,0.7080923811800597,0,valid_lose,101.14872789941728,2,,,,,,,,,,,,,,,,sub_448,2024-05-12_18h03.02.314,Reversal,2022.1.2,59.975013786119426,4,
7,exp3.png,exp4.png,,0,0,0,0,0,7,7,7,,,,,,,,,,,,,,,,,,,,,,,,,False,7,8,False,exp3.png,exp4.png,trial_right_image,-1,exp4.png,4,exp4.png,exp3.png,1,3,reversed,correct,0.19343574855715573,0,invalid_lose,110.6478220988065,2,,,,,,,,,,,,,,,,sub_448,2024-05-12_18h03.02.314,Reversal,2022.1.2,59.975013786119426,4,
8,exp1.png,exp2.png,,0,0,0,0,0,8,8,8,,,,,,,,,,,,,,,,,,,,,,,,,False,8,9,True,exp2.png,exp1.png,trial_right_image,-1,exp1.png,4,exp2.png,exp1.png,0,2,non-reversed,incorrect,0.5839730284511224,0,valid_lose,118.63033999875188,2,,,,,,,,,,,,,,,,sub_448,2024-05-12_18h03.02.314,Reversal,2022.1.2,59.975013786119426,4,
9,exp3.png,exp4.png,,0,0,0,0,0,9,9,9,,,,,,,,,,,,,,,,,,,,,,,,,False,9,10,True,exp4.png,exp3.png,trial_right_image,-1,exp3.png,4,exp4.png,exp3.png,0,4,reversed,incorrect,0.9645432934013127,0,valid_lose,138.56482519954443,2,,,,,,,,,,,,,,,,sub_448,2024-05-12_18h03.02.314,Reversal,2022.1.2,59.975013786119426,4,
10,exp1.png,exp2.png,,0,0,0,0,0,10,10,10,,,,,,,,,,,,,,,,,,,,,,,,,False,10,11,True,exp2.png,exp1.png,trial_left_image,1,exp2.png,4,exp2.png,exp1.png,1,1,non-reversed,correct,0.966551118545248,1,valid_win,149.43035739846528,3,,,,,,,,,,,,,,,,sub_448,2024-05-12_18h03.02.314,Reversal,2022.1.2,59.975013786119426,4,
11,exp3.png,exp4.png,,0,0,0,0,0,11,11,11,,,,,,,,,,,,,,,,,,,,,,,,,False,11,12,False,exp3.png,exp4.png,trial_left_image,1,exp3.png,4,exp4.png,exp3.png,0,4,reversed,incorrect,0.42893650798515337,0,valid_lose,157.9802578985691,3,,,,,,,,,,,,,,,,sub_448,2024-05-12_18h03.02.314,Reversal,2022.1.2,59.975013786119426,4,
12,exp1.png,exp2.png,,0,0,0,0,0,12,12,12,,,,,,,,,,,,,,,,,,,,,,,,,False,12,13,False,exp1.png,exp2.png,trial_right_image,-1,exp2.png,4,exp2.png,exp1.png,1,1,non-reversed,correct,0.7769879040310557,1,valid_win,180.68049739859998,4,,,,,,,,,,,,,,,,sub_448,2024-05-12_18h03.02.314,Reversal,2022.1.2,59.975013786119426,4,
13,exp3.png,exp4.png,,0,0,0,0,0,13,13,13,,,,,,,,,,,,,,,,,,,,,,,,,False,13,14,True,exp4.png,exp3.png,trial_left_image,1,exp4.png,4,exp4.png,exp3.png,1,3,reversed,correct,0.6302020375186552,1,valid_win,190.89605049975216,5,,,,,,,,,,,,,,,,sub_448,2024-05-12_18h03.02.314,Reversal,2022.1.2,59.975013786119426,4,
14,exp1.png,exp2.png,,0,0,0,0,0,14,14,14,,,,,,,,,,,,,,,,,,,,,,,,,False,14,15,False,exp1.png,exp2.png,trial_left_image,1,exp1.png,4,exp2.png,exp1.png,0,2,non-reversed,incorrect,0.5387094477110671,0,valid_lose,201.02936579845846,5,,,,,,,,,,,,,,,,sub_448,2024-05-12_18h03.02.314,Reversal,2022.1.2,59.975013786119426,4,
15,exp3.png,exp4.png,,0,0,0,0,0,15,15,15,,,,,,,,,,,,,,,,,,,,,,,,,False,15,16,False,exp3.png,exp4.png,trial_left_image,1,exp3.png,4,exp4.png,exp3.png,0,4,reversed,incorrect,0.8433509217690416,0,valid_lose,213.42945939861238,5,,,,,,,,,,,,,,,,sub_448,2024-05-12_18h03.02.314,Reversal,2022.1.2,59.975013786119426,4,
16,exp1.png,exp2.png,,0,0,0,0,0,16,16,16,,,,,,,,,,,,,,,,,,,,,,,,,False,16,17,False,exp1.png,exp2.png,trial_right_image,-1,exp2.png,4,exp2.png,exp1.png,1,1,non-reversed,correct,0.4104854350598389,1,valid_win,225.062162399292,6,,,,,,,,,,,,,,,,sub_448,2024-05-12_18h03.02.314,Reversal,2022.1.2,59.975013786119426,4,
17,exp3.png,exp4.png,,0,0,0,0,0,17,17,17,,,,,,,,,,,,,,,,,,,,,,,,,False,17,18,True,exp4.png,exp3.png,trial_left_image,1,exp4.png,4,exp4.png,exp3.png,1,3,reversed,correct,0.2264536427370918,0,invalid_lose,231.5800585988909,6,,,,,,,,,,,,,,,,sub_448,2024-05-12_18h03.02.314,Reversal,2022.1.2,59.975013786119426,4,
18,exp1.png,exp2.png,,0,0,0,0,0,18,18,18,,,,,,,,,,,,,,,,,,,,,,,,,False,18,19,False,exp1.png,exp2.png,trial_left_image,1,exp1.png,4,exp2.png,exp1.png,0,2,non-reversed,incorrect,0.7133754964504125,0,valid_lose,240.46303300000727,6,,,,,,,,,,,,,,,,sub_448,2024-05-12_18h03.02.314,Reversal,2022.1.2,59.975013786119426,4,
19,exp3.png,exp4.png,,0,0,0,0,0,19,19,19,,,,,,,,,,,,,,,,,,,,,,,,,False,19,20,True,exp4.png,exp3.png,trial_left_image,1,exp4.png,4,exp4.png,exp3.png,1,3,reversed,correct,0.7150392560532354,1,valid_win,245.88027059845626,7,,,,,,,,,,,,,,,,sub_448,2024-05-12_18h03.02.314,Reversal,2022.1.2,59.975013786119426,4,
20,exp1.png,exp2.png,,0,0,0,0,0,20,20,20,,,,,,,,,,,,,,,,,,,,,,,,,True,,,,,,,,,,,,,,,,,,,,,,,,,,,,,,,,,,,,sub_448,2024-05-12_18h03.02.314,Reversal,2022.1.2,59.975013786119426,4,
,,,exp1.png,0,0,0,0,,,,,0,0,0,0,0,0,0,0,,,,,,,,,,,,,,,,,,,,,,,,,,,,,,,,,,,,,,12.0,12.0,16.908280201256275,"[(12.0, 16.908280201256275)]",334.9193476997316,None,,,,,,,,,,sub_448,2024-05-12_18h03.02.314,Reversal,2022.1.2,59.975013786119426,4,
,,,exp2.png,0,0,0,0,,,,,0,0,0,0,0,1,1,1,,,,,,,,,,,,,,,,,,,,,,,,,,,,,,,,,,,,,,,1.0,15.710270499810576,"[(1.0, 15.710270499810576)]",354.67748139984906,None,1.0,,,,,,,,,sub_448,2024-05-12_18h03.02.314,Reversal,2022.1.2,59.975013786119426,4,
,,,exp3.png,0,0,0,0,,,,,0,0,0,0,0,2,2,2,,,,,,,,,,,,,,,,,,,,,,,,,,,,,,,,,,,,,,,70.0,6.617688599973917,"[(67.0, 5.3678026013076305), (70.0, 6.617688599973917)]",372.6371010001749,None,,70.0,,,,,,,,sub_448,2024-05-12_18h03.02.314,Reversal,2022.1.2,59.975013786119426,4,
,,,exp4.png,0,0,0,0,,,,,0,0,0,0,0,3,3,3,,,,,,,,,,,,,,,,,,,,,,,,,,,,,,,,,,,,,,,15.0,3.6671680007129908,"[(21.0, 2.6340381000190973), (15.0, 3.6671680007129908)]",380.11799269914627,None,,,15.0,,,,,,,sub_448,2024-05-12_18h03.02.314,Reversal,2022.1.2,59.975013786119426,4,
0,exp1.png,exp2.png,,1,0,1,0,0,0,0,0,,,,,,,,,,,,,,,,,,,,,,,,,False,20,21,True,exp2.png,exp1.png,trial_left_image,1,exp2.png,4,exp2.png,exp1.png,1,1,non-reversed,correct,0.5849843347209474,1,valid_win,307.2946223989129,8,,,,,,,,,,,,,,,,sub_448,2024-05-12_18h03.02.314,Reversal,2022.1.2,59.975013786119426,4,
1,exp3.png,exp4.png,,1,0,1,0,0,1,1,1,,,,,,,,,,,,,,,,,,,,,,,,,False,21,22,False,exp3.png,exp4.png,trial_left_image,1,exp3.png,4,exp4.png,exp3.png,0,4,reversed,incorrect,0.24553510675788248,1,invalid_win,318.62766619957983,9,,,,,,,,,,,,,,,,sub_448,2024-05-12_18h03.02.314,Reversal,2022.1.2,59.975013786119426,4,
2,exp1.png,exp2.png,,1,0,1,0,0,2,2,2,,,,,,,,,,,,,,,,,,,,,,,,,False,22,23,True,exp2.png,exp1.png,trial_right_image,-1,exp1.png,4,exp2.png,exp1.png,0,2,non-reversed,incorrect,0.2968258938858126,0,valid_lose,334.9116543997079,9,,,,,,,,,,,,,,,,sub_448,2024-05-12_18h03.02.314,Reversal,2022.1.2,59.975013786119426,4,
3,exp3.png,exp4.png,,1,0,1,0,0,3,3,3,,,,,,,,,,,,,,,,,,,,,,,,,False,23,24,True,exp4.png,exp3.png,trial_left_image,1,exp4.png,4,exp4.png,exp3.png,1,3,reversed,correct,0.37215731619109904,1,valid_win,342.0782105997205,10,,,,,,,,,,,,,,,,sub_448,2024-05-12_18h03.02.314,Reversal,2022.1.2,59.975013786119426,4,
4,exp1.png,exp2.png,,1,0,1,0,0,4,4,4,,,,,,,,,,,,,,,,,,,,,,,,,False,24,25,False,exp1.png,exp2.png,trial_right_image,-1,exp2.png,4,exp2.png,exp1.png,1,1,non-reversed,correct,0.6330048632063368,1,valid_win,349.84308539889753,11,,,,,,,,,,,,,,,,sub_448,2024-05-12_18h03.02.314,Reversal,2022.1.2,59.975013786119426,4,
5,exp3.png,exp4.png,,1,0,1,0,0,5,5,5,,,,,,,,,,,,,,,,,,,,,,,,,False,25,26,True,exp4.png,exp3.png,trial_left_image,1,exp4.png,4,exp4.png,exp3.png,1,3,reversed,correct,0.09304201882888485,0,invalid_lose,359.02628729864955,11,,,,,,,,,,,,,,,,sub_448,2024-05-12_18h03.02.314,Reversal,2022.1.2,59.975013786119426,4,
6,exp1.png,exp2.png,,1,0,1,0,0,6,6,6,,,,,,,,,,,,,,,,,,,,,,,,,False,26,27,False,exp1.png,exp2.png,trial_right_image,-1,exp2.png,4,exp2.png,exp1.png,1,1,non-reversed,correct,0.14315313706571153,0,invalid_lose,364.7594715990126,11,,,,,,,,,,,,,,,,sub_448,2024-05-12_18h03.02.314,Reversal,2022.1.2,59.975013786119426,4,
7,exp3.png,exp4.png,,1,0,1,0,0,7,7,7,,,,,,,,,,,,,,,,,,,,,,,,,False,27,28,False,exp3.png,exp4.png,trial_right_image,-1,exp4.png,4,exp4.png,exp3.png,1,3,reversed,correct,0.08782606329853648,0,invalid_lose,371.14296329952776,11,,,,,,,,,,,,,,,,sub_448,2024-05-12_18h03.02.314,Reversal,2022.1.2,59.975013786119426,4,
8,exp1.png,exp2.png,,1,0,1,0,0,8,8,8,,,,,,,,,,,,,,,,,,,,,,,,,False,28,29,True,exp2.png,exp1.png,trial_left_image,1,exp2.png,4,exp2.png,exp1.png,1,1,non-reversed,correct,0.8875393601842203,1,valid_win,376.3100888989866,12,,,,,,,,,,,,,,,,sub_448,2024-05-12_18h03.02.314,Reversal,2022.1.2,59.975013786119426,4,
9,exp3.png,exp4.png,,1,0,1,0,0,9,9,9,,,,,,,,,,,,,,,,,,,,,,,,,False,29,30,True,exp4.png,exp3.png,trial_left_image,1,exp4.png,4,exp4.png,exp3.png,1,3,reversed,correct,0.20230786232167075,0,invalid_lose,381.8429471999407,12,,,,,,,,,,,,,,,,sub_448,2024-05-12_18h03.02.314,Reversal,2022.1.2,59.975013786119426,4,
10,exp1.png,exp2.png,,1,0,1,0,0,10,10,10,,,,,,,,,,,,,,,,,,,,,,,,,False,30,31,False,exp1.png,exp2.png,trial_left_image,1,exp1.png,4,exp2.png,exp1.png,0,2,non-reversed,incorrect,0.1906840829222669,1,invalid_win,389.07611079886556,13,,,,,,,,,,,,,,,,sub_448,2024-05-12_18h03.02.314,Reversal,2022.1.2,59.975013786119426,4,
11,exp3.png,exp4.png,,1,0,1,0,0,11,11,11,,,,,,,,,,,,,,,,,,,,,,,,,False,31,32,False,exp3.png,exp4.png,trial_right_image,-1,exp4.png,4,exp4.png,exp3.png,1,3,reversed,correct,0.37089352914944185,1,valid_win,400.44366519898176,14,,,,,,,,,,,,,,,,sub_448,2024-05-12_18h03.02.314,Reversal,2022.1.2,59.975013786119426,4,
12,exp1.png,exp2.png,,1,0,1,0,0,12,12,12,,,,,,,,,,,,,,,,,,,,,,,,,False,32,33,False,exp1.png,exp2.png,trial_left_image,1,exp1.png,4,exp2.png,exp1.png,0,2,non-reversed,incorrect,0.4789864195646448,0,valid_lose,408.2270133998245,14,,,,,,,,,,,,,,,,sub_448,2024-05-12_18h03.02.314,Reversal,2022.1.2,59.975013786119426,4,
13,exp3.png,exp4.png,,1,0,1,0,0,13,13,13,,,,,,,,,,,,,,,,,,,,,,,,,False,33,34,False,exp3.png,exp4.png,trial_left_image,1,exp3.png,4,exp4.png,exp3.png,0,4,reversed,incorrect,0.9849573266739153,0,valid_lose,414.3100111987442,14,,,,,,,,,,,,,,,,sub_448,2024-05-12_18h03.02.314,Reversal,2022.1.2,59.975013786119426,4,
14,exp1.png,exp2.png,,1,0,1,0,0,14,14,14,,,,,,,,,,,,,,,,,,,,,,,,,False,34,35,True,exp2.png,exp1.png,trial_right_image,-1,exp1.png,4,exp2.png,exp1.png,0,2,non-reversed,incorrect,0.3137344898388248,0,valid_lose,419.109868099913,14,,,,,,,,,,,,,,,,sub_448,2024-05-12_18h03.02.314,Reversal,2022.1.2,59.975013786119426,4,
15,exp3.png,exp4.png,,1,0,1,0,0,15,15,15,,,,,,,,,,,,,,,,,,,,,,,,,False,35,36,True,exp4.png,exp3.png,trial_left_image,1,exp4.png,4,exp4.png,exp3.png,1,3,reversed,correct,0.18217409928741957,0,invalid_lose,424.41005959920585,14,,,,,,,,,,,,,,,,sub_448,2024-05-12_18h03.02.314,Reversal,2022.1.2,59.975013786119426,4,
16,exp1.png,exp2.png,,1,0,1,0,0,16,16,16,,,,,,,,,,,,,,,,,,,,,,,,,False,36,37,False,exp1.png,exp2.png,trial_left_image,1,exp1.png,4,exp2.png,exp1.png,0,2,non-reversed,incorrect,0.005884465073699219,1,invalid_win,429.2768920995295,15,,,,,,,,,,,,,,,,sub_448,2024-05-12_18h03.02.314,Reversal,2022.1.2,59.975013786119426,4,
17,exp3.png,exp4.png,,1,0,1,0,0,17,17,17,,,,,,,,,,,,,,,,,,,,,,,,,False,37,38,True,exp4.png,exp3.png,trial_left_image,1,exp4.png,4,exp4.png,exp3.png,1,3,reversed,correct,0.38013417700239716,1,valid_win,434.0430970992893,16,,,,,,,,,,,,,,,,sub_448,2024-05-12_18h03.02.314,Reversal,2022.1.2,59.975013786119426,4,
18,exp1.png,exp2.png,,1,0,1,0,0,18,18,18,,,,,,,,,,,,,,,,,,,,,,,,,False,38,39,False,exp1.png,exp2.png,trial_right_image,-1,exp2.png,4,exp2.png,exp1.png,1,1,non-reversed,correct,0.10707241457881367,0,invalid_lose,439.0268096998334,16,,,,,,,,,,,,,,,,sub_448,2024-05-12_18h03.02.314,Reversal,2022.1.2,59.975013786119426,4,
19,exp3.png,exp4.png,,1,0,1,0,0,19,19,19,,,,,,,,,,,,,,,,,,,,,,,,,False,39,40,True,exp4.png,exp3.png,trial_right_image,-1,exp3.png,4,exp4.png,exp3.png,0,4,reversed,incorrect,0.5057344571480332,0,valid_lose,444.9087284989655,16,,,,,,,,,,,,,,,,sub_448,2024-05-12_18h03.02.314,Reversal,2022.1.2,59.975013786119426,4,
20,exp1.png,exp2.png,,1,0,1,0,0,20,20,20,,,,,,,,,,,,,,,,,,,,,,,,,True,,,,,,,,,,,,,,,,,,,,,,,,,,,,,,,,,,,,sub_448,2024-05-12_18h03.02.314,Reversal,2022.1.2,59.975013786119426,4,
,,,exp1.png,1,0,1,0,,,,,0,0,0,0,0,0,0,0,,,,,,,,,,,,,,,,,,,,,,,,,,,,,,,,,,,,,,25.0,25.0,5.723548900336027,"[(25.0, 5.723548900336027)]",533.8597724996507,None,,,,,,,,,,sub_448,2024-05-12_18h03.02.314,Reversal,2022.1.2,59.975013786119426,4,
,,,exp2.png,1,0,1,0,,,,,0,0,0,0,0,1,1,1,,,,,,,,,,,,,,,,,,,,,,,,,,,,,,,,,,,,,,,50.0,None,[],540.167724698782,None,,,,,,,,,,sub_448,2024-05-12_18h03.02.314,Reversal,2022.1.2,59.975013786119426,4,
,,,exp3.png,1,0,1,0,,,,,0,0,0,0,0,2,2,2,,,,,,,,,,,,,,,,,,,,,,,,,,,,,,,,,,,,,,,65.0,3.0349990017712116,"[(65.0, 3.0349990017712116)]",540.6113174986094,None,,65.0,,,,,,,,sub_448,2024-05-12_18h03.02.314,Reversal,2022.1.2,59.975013786119426,4,
,,,exp4.png,1,0,1,0,,,,,0,0,0,0,0,3,3,3,,,,,,,,,,,,,,,,,,,,,,,,,,,,,,,,,,,,,,,85.0,2.4501076005399227,"[(85.0, 2.4501076005399227)]",544.5599849000573,None,,,85.0,,,,,,,sub_448,2024-05-12_18h03.02.314,Reversal,2022.1.2,59.975013786119426,4,
0,exp1.png,exp2.png,,2,0,2,0,0,0,0,0,,,,,,,,,,,,,,,,,,,,,,,,,False,40,41,True,exp2.png,exp1.png,trial_right_image,-1,exp1.png,4,exp2.png,exp1.png,0,2,non-reversed,incorrect,0.18543902349549202,1,invalid_win,472.659287199378,17,,,,,,,,,,,,,,,,sub_448,2024-05-12_18h03.02.314,Reversal,2022.1.2,59.975013786119426,4,
1,exp3.png,exp4.png,,2,0,2,0,0,1,1,1,,,,,,,,,,,,,,,,,,,,,,,,,False,41,42,True,exp4.png,exp3.png,trial_right_image,-1,exp3.png,4,exp4.png,exp3.png,0,4,reversed,incorrect,0.8224883888890777,0,valid_lose,482.007565099746,17,,,,,,,,,,,,,,,,sub_448,2024-05-12_18h03.02.314,Reversal,2022.1.2,59.975013786119426,4,
2,exp1.png,exp2.png,,2,0,2,0,0,2,2,2,,,,,,,,,,,,,,,,,,,,,,,,,False,42,43,True,exp2.png,exp1.png,trial_left_image,1,exp2.png,4,exp2.png,exp1.png,1,1,non-reversed,correct,0.912285738146503,1,valid_win,488.29128129966557,18,,,,,,,,,,,,,,,,sub_448,2024-05-12_18h03.02.314,Reversal,2022.1.2,59.975013786119426,4,
3,exp3.png,exp4.png,,2,0,2,0,0,3,3,3,,,,,,,,,,,,,,,,,,,,,,,,,False,43,44,False,exp3.png,exp4.png,trial_left_image,1,exp3.png,4,exp4.png,exp3.png,0,4,reversed,incorrect,0.18850799299573417,1,invalid_win,494.5409474000335,19,,,,,,,,,,,,,,,,sub_448,2024-05-12_18h03.02.314,Reversal,2022.1.2,59.975013786119426,4,
4,exp1.png,exp2.png,,2,0,2,0,0,4,4,4,,,,,,,,,,,,,,,,,,,,,,,,,False,44,45,False,exp1.png,exp2.png,trial_left_image,1,exp1.png,4,exp2.png,exp1.png,0,2,non-reversed,incorrect,0.935626313295388,0,valid_lose,504.45834860019386,19,,,,,,,,,,,,,,,,sub_448,2024-05-12_18h03.02.314,Reversal,2022.1.2,59.975013786119426,4,
5,exp3.png,exp4.png,,2,0,2,0,0,5,5,5,,,,,,,,,,,,,,,,,,,,,,,,,False,45,46,True,exp4.png,exp3.png,trial_right_image,-1,exp3.png,4,exp4.png,exp3.png,0,4,reversed,incorrect,0.6797127416166792,0,valid_lose,511.4077281989157,19,,,,,,,,,,,,,,,,sub_448,2024-05-12_18h03.02.314,Reversal,2022.1.2,59.975013786119426,4,
6,exp1.png,exp2.png,,2,0,2,0,0,6,6,6,,,,,,,,,,,,,,,,,,,,,,,,,False,46,47,False,exp1.png,exp2.png,trial_left_image,1,exp1.png,4,exp2.png,exp1.png,0,2,non-reversed,incorrect,0.7222543300550073,0,valid_lose,516.0408040992916,19,,,,,,,,,,,,,,,,sub_448,2024-05-12_18h03.02.314,Reversal,2022.1.2,59.975013786119426,4,
7,exp3.png,exp4.png,,2,0,2,0,0,7,7,7,,,,,,,,,,,,,,,,,,,,,,,,,False,47,48,False,exp3.png,exp4.png,trial_right_image,-1,exp4.png,4,exp4.png,exp3.png,1,3,reversed,correct,0.8218805878210903,1,valid_win,520.4911556001753,20,,,,,,,,,,,,,,,,sub_448,2024-05-12_18h03.02.314,Reversal,2022.1.2,59.975013786119426,4,
8,exp1.png,exp2.png,,2,0,2,0,0,8,8,8,,,,,,,,,,,,,,,,,,,,,,,,,False,48,49,True,exp2.png,exp1.png,trial_right_image,-1,exp1.png,4,exp2.png,exp1.png,0,2,non-reversed,incorrect,0.9110419363956233,0,valid_lose,525.5235503986478,20,,,,,,,,,,,,,,,,sub_448,2024-05-12_18h03.02.314,Reversal,2022.1.2,59.975013786119426,4,
9,exp3.png,exp4.png,,2,0,2,0,0,9,9,9,,,,,,,,,,,,,,,,,,,,,,,,,False,49,50,True,exp4.png,exp3.png,trial_right_image,-1,exp3.png,4,exp4.png,exp3.png,0,4,reversed,incorrect,0.8971264887376668,0,valid_lose,530.9403028991073,20,,,,,,,,,,,,,,,,sub_448,2024-05-12_18h03.02.314,Reversal,2022.1.2,59.975013786119426,4,
10,exp1.png,exp2.png,,2,0,2,0,0,10,10,10,,,,,,,,,,,,,,,,,,,,,,,,,False,50,51,False,exp1.png,exp2.png,trial_left_image,1,exp1.png,4,exp2.png,exp1.png,0,2,non-reversed,incorrect,0.8198366094416174,0,valid_lose,535.1235520001501,20,,,,,,,,,,,,,,,,sub_448,2024-05-12_18h03.02.314,Reversal,2022.1.2,59.975013786119426,4,
11,exp3.png,exp4.png,,2,0,2,0,0,11,11,11,,,,,,,,,,,,,,,,,,,,,,,,,False,51,52,False,exp3.png,exp4.png,trial_left_image,1,exp3.png,4,exp4.png,exp3.png,0,4,reversed,incorrect,0.8677077243452129,0,valid_lose,539.2232133001089,20,,,,,,,,,,,,,,,,sub_448,2024-05-12_18h03.02.314,Reversal,2022.1.2,59.975013786119426,4,
12,exp1.png,exp2.png,,2,0,2,0,0,12,12,12,,,,,,,,,,,,,,,,,,,,,,,,,False,52,53,False,exp1.png,exp2.png,trial_left_image,1,exp1.png,4,exp2.png,exp1.png,0,2,non-reversed,incorrect,0.7234211952090962,0,valid_lose,543.9233316984028,20,,,,,,,,,,,,,,,,sub_448,2024-05-12_18h03.02.314,Reversal,2022.1.2,59.975013786119426,4,
13,exp3.png,exp4.png,,2,0,2,0,0,13,13,13,,,,,,,,,,,,,,,,,,,,,,,,,False,53,54,True,exp4.png,exp3.png,trial_left_image,1,exp4.png,4,exp4.png,exp3.png,1,3,reversed,correct,0.13018284595829177,0,invalid_lose,548.1234606001526,20,,,,,,,,,,,,,,,,sub_448,2024-05-12_18h03.02.314,Reversal,2022.1.2,59.975013786119426,4,
14,exp1.png,exp2.png,,2,0,2,0,0,14,14,14,,,,,,,,,,,,,,,,,,,,,,,,,False,54,55,True,exp2.png,exp1.png,trial_left_image,1,exp2.png,4,exp2.png,exp1.png,1,1,non-reversed,correct,0.48882796388572136,1,valid_win,562.5397948995233,21,,,,,,,,,,,,,,,,sub_448,2024-05-12_18h03.02.314,Reversal,2022.1.2,59.975013786119426,4,
15,exp3.png,exp4.png,,2,0,2,0,0,15,15,15,,,,,,,,,,,,,,,,,,,,,,,,,False,55,56,False,exp3.png,exp4.png,trial_right_image,-1,exp4.png,4,exp4.png,exp3.png,1,3,reversed,correct,0.18415677672480746,0,invalid_lose,575.0571890994906,21,,,,,,,,,,,,,,,,sub_448,2024-05-12_18h03.02.314,Reversal,2022.1.2,59.975013786119426,4,
16,exp1.png,exp2.png,,2,0,2,0,0,16,16,16,,,,,,,,,,,,,,,,,,,,,,,,,False,56,57,True,exp2.png,exp1.png,trial_left_image,1,exp2.png,4,exp2.png,exp1.png,1,1,non-reversed,correct,0.17262463829879204,0,invalid_lose,583.1422566995025,21,,,,,,,,,,,,,,,,sub_448,2024-05-12_18h03.02.314,Reversal,2022.1.2,59.975013786119426,4,
17,exp3.png,exp4.png,,2,0,2,0,0,17,17,17,,,,,,,,,,,,,,,,,,,,,,,,,False,57,58,True,exp4.png,exp3.png,trial_left_image,1,exp4.png,4,exp4.png,exp3.png,1,3,reversed,correct,0.6430339748930278,1,valid_win,587.705951699987,22,,,,,,,,,,,,,,,,sub_448,2024-05-12_18h03.02.314,Reversal,2022.1.2,59.975013786119426,4,
18,exp1.png,exp2.png,,2,0,2,0,0,18,18,18,,,,,,,,,,,,,,,,,,,,,,,,,False,58,59,False,exp1.png,exp2.png,trial_left_image,1,exp1.png,4,exp2.png,exp1.png,0,2,non-reversed,incorrect,0.7285650638528806,0,valid_lose,602.6059565991163,22,,,,,,,,,,,,,,,,sub_448,2024-05-12_18h03.02.314,Reversal,2022.1.2,59.975013786119426,4,
19,exp3.png,exp4.png,,2,0,2,0,0,19,19,19,,,,,,,,,,,,,,,,,,,,,,,,,False,59,60,False,exp3.png,exp4.png,trial_left_image,1,exp3.png,4,exp4.png,exp3.png,0,4,reversed,incorrect,0.2875754759921696,0,valid_lose,608.6387203987688,22,,,,,,,,,,,,,,,,sub_448,2024-05-12_18h03.02.314,Reversal,2022.1.2,59.975013786119426,4,
20,exp1.png,exp2.png,,2,0,2,0,0,20,20,20,,,,,,,,,,,,,,,,,,,,,,,,,True,,,,,,,,,,,,,,,,,,,,,,,,,,,,,,,,,,,,sub_448,2024-05-12_18h03.02.314,Reversal,2022.1.2,59.975013786119426,4,
,,,exp1.png,2,0,2,0,,,,,0,0,0,0,0,0,0,0,,,,,,,,,,,,,,,,,,,,,,,,,,,,,,,,,,,,,,69.0,69.0,3.2052532006055117,"[(69.0, 3.2052532006055117)]",697.6063874997199,None,,,,,,,,,,sub_448,2024-05-12_18h03.02.314,Reversal,2022.1.2,59.975013786119426,4,
,,,exp2.png,2,0,2,0,,,,,0,0,0,0,0,1,1,1,,,,,,,,,,,,,,,,,,,,,,,,,,,,,,,,,,,,,,,26.0,1.1146279014647007,"[(26.0, 1.1146279014647007)]",702.3756478987634,None,26.0,,,,,,,,,sub_448,2024-05-12_18h03.02.314,Reversal,2022.1.2,59.975013786119426,4,
,,,exp3.png,2,0,2,0,,,,,0,0,0,0,0,2,2,2,,,,,,,,,,,,,,,,,,,,,,,,,,,,,,,,,,,,,,,86.0,1.0511755999177694,"[(86.0, 1.0511755999177694)]",704.4262204002589,None,,86.0,,,,,,,,sub_448,2024-05-12_18h03.02.314,Reversal,2022.1.2,59.975013786119426,4,
,,,exp4.png,2,0,2,0,,,,,0,0,0,0,0,3,3,3,,,,,,,,,,,,,,,,,,,,,,,,,,,,,,,,,,,,,,,85.0,1.738247001543641,"[(85.0, 1.738247001543641)]",706.6231337990612,None,,,85.0,,,,,,,sub_448,2024-05-12_18h03.02.314,Reversal,2022.1.2,59.975013786119426,4,
0,exp1.png,exp2.png,,3,0,3,0,0,0,0,0,,,,,,,,,,,,,,,,,,,,,,,,,False,60,61,True,exp2.png,exp1.png,trial_right_image,-1,exp1.png,4,exp2.png,exp1.png,0,2,non-reversed,incorrect,0.907407154683886,0,valid_lose,625.4563992992043,22,,,,,,,,,,,,,,,,sub_448,2024-05-12_18h03.02.314,Reversal,2022.1.2,59.975013786119426,4,
1,exp3.png,exp4.png,,3,0,3,0,0,1,1,1,,,,,,,,,,,,,,,,,,,,,,,,,False,61,62,False,exp3.png,exp4.png,trial_left_image,1,exp3.png,4,exp4.png,exp3.png,0,4,reversed,incorrect,0.5164175307104185,0,valid_lose,629.472309499979,22,,,,,,,,,,,,,,,,sub_448,2024-05-12_18h03.02.314,Reversal,2022.1.2,59.975013786119426,4,
2,exp1.png,exp2.png,,3,0,3,0,0,2,2,2,,,,,,,,,,,,,,,,,,,,,,,,,False,62,63,False,exp1.png,exp2.png,trial_right_image,-1,exp2.png,4,exp2.png,exp1.png,1,1,non-reversed,correct,0.18387818182341287,0,invalid_lose,633.5884719993919,22,,,,,,,,,,,,,,,,sub_448,2024-05-12_18h03.02.314,Reversal,2022.1.2,59.975013786119426,4,
3,exp3.png,exp4.png,,3,0,3,0,0,3,3,3,,,,,,,,,,,,,,,,,,,,,,,,,False,63,64,True,exp4.png,exp3.png,trial_right_image,-1,exp3.png,4,exp4.png,exp3.png,0,4,reversed,incorrect,0.24671712701404303,1,invalid_win,636.5381753984839,23,,,,,,,,,,,,,,,,sub_448,2024-05-12_18h03.02.314,Reversal,2022.1.2,59.975013786119426,4,
4,exp1.png,exp2.png,,3,0,3,0,0,4,4,4,,,,,,,,,,,,,,,,,,,,,,,,,False,64,65,False,exp1.png,exp2.png,trial_right_image,-1,exp2.png,4,exp2.png,exp1.png,1,1,non-reversed,correct,0.35583837792729966,1,valid_win,640.6711352989078,24,,,,,,,,,,,,,,,,sub_448,2024-05-12_18h03.02.314,Reversal,2022.1.2,59.975013786119426,4,
5,exp3.png,exp4.png,,3,0,3,0,0,5,5,5,,,,,,,,,,,,,,,,,,,,,,,,,False,65,66,True,exp4.png,exp3.png,trial_left_image,1,exp4.png,4,exp4.png,exp3.png,1,3,reversed,correct,0.6090616838371123,1,valid_win,647.7216660995036,25,,,,,,,,,,,,,,,,sub_448,2024-05-12_18h03.02.314,Reversal,2022.1.2,59.975013786119426,4,
6,exp1.png,exp2.png,,3,0,3,0,0,6,6,6,,,,,,,,,,,,,,,,,,,,,,,,,False,66,67,True,exp2.png,exp1.png,trial_left_image,1,exp2.png,4,exp2.png,exp1.png,1,1,non-reversed,correct,0.13197179144478322,0,invalid_lose,654.7724541984499,25,,,,,,,,,,,,,,,,sub_448,2024-05-12_18h03.02.314,Reversal,2022.1.2,59.975013786119426,4,
7,exp3.png,exp4.png,,3,0,3,0,0,7,7,7,,,,,,,,,,,,,,,,,,,,,,,,,False,67,68,False,exp3.png,exp4.png,trial_right_image,-1,exp4.png,4,exp4.png,exp3.png,1,3,reversed,correct,0.9944449925309701,1,valid_win,659.0575235001743,26,,,,,,,,,,,,,,,,sub_448,2024-05-12_18h03.02.314,Reversal,2022.1.2,59.975013786119426,4,
8,exp1.png,exp2.png,,3,0,3,0,0,8,8,8,,,,,,,,,,,,,,,,,,,,,,,,,False,68,69,False,exp1.png,exp2.png,trial_right_image,-1,exp2.png,4,exp2.png,exp1.png,1,1,non-reversed,correct,0.499119426219061,1,valid_win,662.3256652001292,27,,,,,,,,,,,,,,,,sub_448,2024-05-12_18h03.02.314,Reversal,2022.1.2,59.975013786119426,4,
9,exp3.png,exp4.png,,3,0,3,0,0,9,9,9,,,,,,,,,,,,,,,,,,,,,,,,,False,69,70,True,exp4.png,exp3.png,trial_right_image,-1,exp3.png,4,exp4.png,exp3.png,0,4,reversed,incorrect,0.554121341907108,0,valid_lose,668.8392581995577,27,,,,,,,,,,,,,,,,sub_448,2024-05-12_18h03.02.314,Reversal,2022.1.2,59.975013786119426,4,
10,exp1.png,exp2.png,,3,0,3,0,0,10,10,10,,,,,,,,,,,,,,,,,,,,,,,,,False,70,71,False,exp1.png,exp2.png,trial_right_image,-1,exp2.png,4,exp2.png,exp1.png,1,1,non-reversed,correct,0.4110035880848478,1,valid_win,672.4460658989847,28,,,,,,,,,,,,,,,,sub_448,2024-05-12_18h03.02.314,Reversal,2022.1.2,59.975013786119426,4,
11,exp3.png,exp4.png,,3,0,3,0,0,11,11,11,,,,,,,,,,,,,,,,,,,,,,,,,False,71,72,True,exp4.png,exp3.png,trial_right_image,-1,exp3.png,4,exp4.png,exp3.png,0,4,reversed,incorrect,0.39212233409016917,0,valid_lose,676.8225667998195,28,,,,,,,,,,,,,,,,sub_448,2024-05-12_18h03.02.314,Reversal,2022.1.2,59.975013786119426,4,
12,exp1.png,exp2.png,,3,0,3,0,0,12,12,12,,,,,,,,,,,,,,,,,,,,,,,,,False,72,73,False,exp1.png,exp2.png,trial_left_image,1,exp1.png,4,exp2.png,exp1.png,0,2,non-reversed,incorrect,0.5159745171290535,0,valid_lose,680.9720284994692,28,,,,,,,,,,,,,,,,sub_448,2024-05-12_18h03.02.314,Reversal,2022.1.2,59.975013786119426,4,
13,exp3.png,exp4.png,,3,0,3,0,0,13,13,13,,,,,,,,,,,,,,,,,,,,,,,,,False,73,74,True,exp4.png,exp3.png,trial_left_image,1,exp4.png,4,exp4.png,exp3.png,1,3,reversed,correct,0.9007593419780625,1,valid_win,684.8053419999778,29,,,,,,,,,,,,,,,,sub_448,2024-05-12_18h03.02.314,Reversal,2022.1.2,59.975013786119426,4,
14,exp1.png,exp2.png,,3,0,3,0,0,14,14,14,,,,,,,,,,,,,,,,,,,,,,,,,False,74,75,True,exp2.png,exp1.png,trial_left_image,1,exp2.png,4,exp2.png,exp1.png,1,1,non-reversed,correct,0.18260462278195866,0,invalid_lose,689.0056247990578,29,,,,,,,,,,,,,,,,sub_448,2024-05-12_18h03.02.314,Reversal,2022.1.2,59.975013786119426,4,
15,exp3.png,exp4.png,,3,0,3,0,0,15,15,15,,,,,,,,,,,,,,,,,,,,,,,,,False,75,76,True,exp4.png,exp3.png,trial_right_image,-1,exp3.png,4,exp4.png,exp3.png,0,4,reversed,incorrect,0.9075546816452531,0,valid_lose,693.6549899000674,29,,,,,,,,,,,,,,,,sub_448,2024-05-12_18h03.02.314,Reversal,2022.1.2,59.975013786119426,4,
16,exp1.png,exp2.png,,3,0,3,0,0,16,16,16,,,,,,,,,,,,,,,,,,,,,,,,,False,76,77,True,exp2.png,exp1.png,trial_left_image,1,exp2.png,4,exp2.png,exp1.png,1,1,non-reversed,correct,0.5188756551004112,1,valid_win,698.2718394994736,30,,,,,,,,,,,,,,,,sub_448,2024-05-12_18h03.02.314,Reversal,2022.1.2,59.975013786119426,4,
17,exp3.png,exp4.png,,3,0,3,0,0,17,17,17,,,,,,,,,,,,,,,,,,,,,,,,,False,77,78,False,exp3.png,exp4.png,trial_left_image,1,exp3.png,4,exp4.png,exp3.png,0,4,reversed,incorrect,0.06413426968111446,1,invalid_win,702.3049896992743,31,,,,,,,,,,,,,,,,sub_448,2024-05-12_18h03.02.314,Reversal,2022.1.2,59.975013786119426,4,
18,exp1.png,exp2.png,,3,0,3,0,0,18,18,18,,,,,,,,,,,,,,,,,,,,,,,,,False,78,79,False,exp1.png,exp2.png,trial_left_image,1,exp1.png,4,exp2.png,exp1.png,0,2,non-reversed,incorrect,0.011257176240572875,1,invalid_win,707.80503519997,32,,,,,,,,,,,,,,,,sub_448,2024-05-12_18h03.02.314,Reversal,2022.1.2,59.975013786119426,4,
19,exp3.png,exp4.png,,3,0,3,0,0,19,19,19,,,,,,,,,,,,,,,,,,,,,,,,,False,79,80,False,exp3.png,exp4.png,trial_right_image,-1,exp4.png,4,exp4.png,exp3.png,1,3,reversed,correct,0.31380500164678926,1,valid_win,715.6213964987546,33,,,,,,,,,,,,,,,,sub_448,2024-05-12_18h03.02.314,Reversal,2022.1.2,59.975013786119426,4,
20,exp1.png,exp2.png,,3,0,3,0,0,20,20,20,,,,,,,,,,,,,,,,,,,,,,,,,True,,,,,,,,,,,,,,,,,,,,,,,,,,,,,,,,,,,,sub_448,2024-05-12_18h03.02.314,Reversal,2022.1.2,59.975013786119426,4,
,,,exp1.png,3,0,3,0,,,,,0,0,0,0,0,0,0,0,,,,,,,,,,,,,,,,,,,,,,,,,,,,,,,,,,,,,,25.0,25.0,3.3437280990183353,"[(25.0, 3.3437280990183353)]",804.6934433989227,None,,,,,,,,,,sub_448,2024-05-12_18h03.02.314,Reversal,2022.1.2,59.975013786119426,4,
,,,exp2.png,3,0,3,0,,,,,0,0,0,0,0,1,1,1,,,,,,,,,,,,,,,,,,,,,,,,,,,,,,,,,,,,,,,32.0,0.8838631995022297,"[(32.0, 0.8838631995022297)]",809.0390838999301,None,32.0,,,,,,,,,sub_448,2024-05-12_18h03.02.314,Reversal,2022.1.2,59.975013786119426,4,
,,,exp3.png,3,0,3,0,,,,,0,0,0,0,0,2,2,2,,,,,,,,,,,,,,,,,,,,,,,,,,,,,,,,,,,,,,,72.0,0.8030392993241549,"[(72.0, 0.8030392993241549)]",810.7406926993281,None,,72.0,,,,,,,,sub_448,2024-05-12_18h03.02.314,Reversal,2022.1.2,59.975013786119426,4,
,,,exp4.png,3,0,3,0,,,,,0,0,0,0,0,3,3,3,,,,,,,,,,,,,,,,,,,,,,,,,,,,,,,,,,,,,,,61.0,1.1674856003373861,"[(61.0, 1.1674856003373861)]",812.4393392000347,None,,,61.0,,,,,,,sub_448,2024-05-12_18h03.02.314,Reversal,2022.1.2,59.975013786119426,4,
0,exp1.png,exp2.png,,,,,,,,,,,,,,,,,,0,0,0,0,0,0,0,0,,,,,,,,,False,0,81,True,exp2.png,exp1.png,trial_left_image,1,exp2.png,4,exp2.png,exp1.png,1,1,non-reversed,correct,0.14164220365267233,0,invalid_lose,730.4369920995086,33,,,,,,,,,,727.9420778993517,,,,,,sub_448,2024-05-12_18h03.02.314,Reversal,2022.1.2,59.975013786119426,4,
1,exp3.png,exp4.png,,,,,,,,,,,,,,,,,,0,0,0,0,0,1,1,1,,,,,,,,,False,1,82,True,exp4.png,exp3.png,trial_left_image,1,exp4.png,4,exp3.png,exp4.png,1,3,reversed,incorrect,0.18113059191270153,1,invalid_win,734.537182899192,34,,,,,,,,,,,,,,,,sub_448,2024-05-12_18h03.02.314,Reversal,2022.1.2,59.975013786119426,4,
2,exp1.png,exp2.png,,,,,,,,,,,,,,,,,,0,0,0,0,0,2,2,2,,,,,,,,,False,2,83,False,exp1.png,exp2.png,trial_left_image,1,exp1.png,4,exp2.png,exp1.png,0,2,non-reversed,incorrect,0.4063208939782893,0,valid_lose,738.503659998998,34,,,,,,,,,,,,,,,,sub_448,2024-05-12_18h03.02.314,Reversal,2022.1.2,59.975013786119426,4,
3,exp3.png,exp4.png,,,,,,,,,,,,,,,,,,0,0,0,0,0,3,3,3,,,,,,,,,False,3,84,True,exp4.png,exp3.png,trial_right_image,-1,exp3.png,4,exp3.png,exp4.png,0,4,reversed,correct,0.9777558780905908,1,valid_win,743.1200920995325,35,,,,,,,,,,,,,,,,sub_448,2024-05-12_18h03.02.314,Reversal,2022.1.2,59.975013786119426,4,
4,exp1.png,exp2.png,,,,,,,,,,,,,,,,,,0,0,0,0,0,4,4,4,,,,,,,,,False,4,85,False,exp1.png,exp2.png,trial_right_image,-1,exp2.png,4,exp2.png,exp1.png,1,1,non-reversed,correct,0.9957219021169502,1,valid_win,747.7370425984263,36,,,,,,,,,,,,,,,,sub_448,2024-05-12_18h03.02.314,Reversal,2022.1.2,59.975013786119426,4,
5,exp3.png,exp4.png,,,,,,,,,,,,,,,,,,0,0,0,0,0,5,5,5,,,,,,,,,False,5,86,False,exp3.png,exp4.png,trial_left_image,1,exp3.png,4,exp3.png,exp4.png,0,4,reversed,correct,0.630496696509881,1,valid_win,751.9567277990282,37,,,,,,,,,,,,,,,,sub_448,2024-05-12_18h03.02.314,Reversal,2022.1.2,59.975013786119426,4,
6,exp1.png,exp2.png,,,,,,,,,,,,,,,,,,0,0,0,0,0,6,6,6,,,,,,,,,False,6,87,False,exp1.png,exp2.png,trial_right_image,-1,exp2.png,4,exp2.png,exp1.png,1,1,non-reversed,correct,0.7715354407777864,1,valid_win,758.3864959999919,38,,,,,,,,,,,,,,,,sub_448,2024-05-12_18h03.02.314,Reversal,2022.1.2,59.975013786119426,4,
7,exp3.png,exp4.png,,,,,,,,,,,,,,,,,,0,0,0,0,0,7,7,7,,,,,,,,,False,7,88,False,exp3.png,exp4.png,trial_left_image,1,exp3.png,4,exp3.png,exp4.png,0,4,reversed,correct,0.5426775418401015,1,valid_win,767.3860535994172,39,,,,,,,,,,,,,,,,sub_448,2024-05-12_18h03.02.314,Reversal,2022.1.2,59.975013786119426,4,
8,exp1.png,exp2.png,,,,,,,,,,,,,,,,,,0,0,0,0,0,8,8,8,,,,,,,,,False,8,89,True,exp2.png,exp1.png,trial_right_image,-1,exp1.png,4,exp2.png,exp1.png,0,2,non-reversed,incorrect,0.6659514870552454,0,valid_lose,774.7361432984471,39,,,,,,,,,,,,,,,,sub_448,2024-05-12_18h03.02.314,Reversal,2022.1.2,59.975013786119426,4,
9,exp3.png,exp4.png,,,,,,,,,,,,,,,,,,0,0,0,0,0,9,9,9,,,,,,,,,False,9,90,True,exp4.png,exp3.png,trial_right_image,-1,exp3.png,4,exp3.png,exp4.png,0,4,reversed,correct,0.6405186824130239,1,valid_win,780.4858847986907,40,,,,,,,,,,,,,,,,sub_448,2024-05-12_18h03.02.314,Reversal,2022.1.2,59.975013786119426,4,
10,exp1.png,exp2.png,,,,,,,,,,,,,,,,,,0,0,0,0,0,10,10,10,,,,,,,,,False,10,91,True,exp2.png,exp1.png,trial_right_image,-1,exp1.png,4,exp2.png,exp1.png,0,2,non-reversed,incorrect,0.3223944385947164,0,valid_lose,785.7194212991744,40,,,,,,,,,,,,,,,,sub_448,2024-05-12_18h03.02.314,Reversal,2022.1.2,59.975013786119426,4,
11,exp3.png,exp4.png,,,,,,,,,,,,,,,,,,0,0,0,0,0,11,11,11,,,,,,,,,False,11,92,False,exp3.png,exp4.png,trial_left_image,1,exp3.png,4,exp3.png,exp4.png,0,4,reversed,correct,0.665883767695817,1,valid_win,790.2528496999294,41,,,,,,,,,,,,,,,,sub_448,2024-05-12_18h03.02.314,Reversal,2022.1.2,59.975013786119426,4,
12,exp1.png,exp2.png,,,,,,,,,,,,,,,,,,0,0,0,0,0,12,12,12,,,,,,,,,False,12,93,True,exp2.png,exp1.png,trial_right_image,-1,exp1.png,4,exp2.png,exp1.png,0,2,non-reversed,incorrect,0.9062750368789662,0,valid_lose,794.7521548997611,41,,,,,,,,,,,,,,,,sub_448,2024-05-12_18h03.02.314,Reversal,2022.1.2,59.975013786119426,4,
13,exp3.png,exp4.png,,,,,,,,,,,,,,,,,,0,0,0,0,0,13,13,13,,,,,,,,,False,13,94,False,exp3.png,exp4.png,trial_right_image,-1,exp4.png,4,exp3.png,exp4.png,1,3,reversed,incorrect,0.6613149548111331,0,valid_lose,799.2025221996009,41,,,,,,,,,,,,,,,,sub_448,2024-05-12_18h03.02.314,Reversal,2022.1.2,59.975013786119426,4,
14,exp1.png,exp2.png,,,,,,,,,,,,,,,,,,0,0,0,0,0,14,14,14,,,,,,,,,False,14,95,False,exp1.png,exp2.png,trial_right_image,-1,exp2.png,4,exp2.png,exp1.png,1,1,non-reversed,correct,0.7706755318432466,1,valid_win,803.5527368988842,42,,,,,,,,,,,,,,,,sub_448,2024-05-12_18h03.02.314,Reversal,2022.1.2,59.975013786119426,4,
15,exp3.png,exp4.png,,,,,,,,,,,,,,,,,,0,0,0,0,0,15,15,15,,,,,,,,,False,15,96,True,exp4.png,exp3.png,trial_right_image,-1,exp3.png,4,exp3.png,exp4.png,0,4,reversed,correct,0.287414534200084,1,valid_win,807.5856224000454,43,,,,,,,,,,,,,,,,sub_448,2024-05-12_18h03.02.314,Reversal,2022.1.2,59.975013786119426,4,
16,exp1.png,exp2.png,,,,,,,,,,,,,,,,,,0,0,0,0,0,16,16,16,,,,,,,,,False,16,97,True,exp2.png,exp1.png,trial_left_image,1,exp2.png,4,exp2.png,exp1.png,1,1,non-reversed,correct,0.5807100531602286,1,valid_win,814.8691857997328,44,,,,,,,,,,,,,,,,sub_448,2024-05-12_18h03.02.314,Reversal,2022.1.2,59.975013786119426,4,
17,exp3.png,exp4.png,,,,,,,,,,,,,,,,,,0,0,0,0,0,17,17,17,,,,,,,,,False,17,98,True,exp4.png,exp3.png,trial_right_image,-1,exp3.png,4,exp3.png,exp4.png,0,4,reversed,correct,0.498039796723573,1,valid_win,820.5355861987919,45,,,,,,,,,,,,,,,,sub_448,2024-05-12_18h03.02.314,Reversal,2022.1.2,59.975013786119426,4,
18,exp1.png,exp2.png,,,,,,,,,,,,,,,,,,0,0,0,0,0,18,18,18,,,,,,,,,False,18,99,False,exp1.png,exp2.png,trial_right_image,-1,exp2.png,4,exp2.png,exp1.png,1,1,non-reversed,correct,0.681977117604811,1,valid_win,828.6354885995388,46,,,,,,,,,,,,,,,,sub_448,2024-05-12_18h03.02.314,Reversal,2022.1.2,59.975013786119426,4,
19,exp3.png,exp4.png,,,,,,,,,,,,,,,,,,0,0,0,0,0,19,19,19,,,,,,,,,False,19,100,False,exp3.png,exp4.png,trial_right_image,-1,exp4.png,4,exp3.png,exp4.png,1,3,reversed,incorrect,0.6539538807129462,0,valid_lose,834.6686185989529,46,,,,,,,,,,,,,,,,sub_448,2024-05-12_18h03.02.314,Reversal,2022.1.2,59.975013786119426,4,
20,exp1.png,exp2.png,,,,,,,,,,,,,,,,,,0,0,0,0,0,20,20,20,,,,,,,,,True,,,,,,,,,,,,,,,,,,,,,,,,,,,,,,,,,,,,sub_448,2024-05-12_18h03.02.314,Reversal,2022.1.2,59.975013786119426,4,
,,,exp1.png,,,,,,,,,,,,,,,,,0,0,0,0,,,,,0,0,0,0,0,0,0,0,,,,,,,,,,,,,,,,,,,,,,70.0,70.0,1.6451648008078337,"[(70.0, 1.6451648008078337)]",923.6460713986307,None,,,,,,,,,,sub_448,2024-05-12_18h03.02.314,Reversal,2022.1.2,59.975013786119426,4,
,,,exp2.png,,,,,,,,,,,,,,,,,0,0,0,0,,,,,0,0,0,0,0,1,1,1,,,,,,,,,,,,,,,,,,,,,,,60.0,0.7679463997483253,"[(60.0, 0.7679463997483253)]",926.236347598955,None,60.0,,,,,,,,,sub_448,2024-05-12_18h03.02.314,Reversal,2022.1.2,59.975013786119426,4,
,,,exp3.png,,,,,,,,,,,,,,,,,0,0,0,0,,,,,0,0,0,0,0,2,2,2,,,,,,,,,,,,,,,,,,,,,,,71.0,0.9315914008766413,"[(53.0, 0.5325070004910231), (71.0, 0.9315914008766413)]",927.7888357993215,None,,71.0,,,,,,,,sub_448,2024-05-12_18h03.02.314,Reversal,2022.1.2,59.975013786119426,4,
,,,exp4.png,,,,,,,,,,,,,,,,,0,0,0,0,,,,,0,0,0,0,0,3,3,3,,,,,,,,,,,,,,,,,,,,,,,30.0,2.034858699887991,"[(30.0, 2.034858699887991)]",929.4524167999625,None,,,30.0,,,,,,,sub_448,2024-05-12_18h03.02.314,Reversal,2022.1.2,59.975013786119426,4,
0,exp1.png,exp2.png,,,,,,,,,,,,,,,,,,1,0,1,0,0,0,0,0,,,,,,,,,False,20,101,True,exp2.png,exp1.png,trial_left_image,1,exp2.png,4,exp2.png,exp1.png,1,1,non-reversed,correct,0.5478133056562183,1,valid_win,849.4682267997414,47,,,,,,,,,,,,,,,,sub_448,2024-05-12_18h03.02.314,Reversal,2022.1.2,59.975013786119426,4,
1,exp3.png,exp4.png,,,,,,,,,,,,,,,,,,1,0,1,0,0,1,1,1,,,,,,,,,False,21,102,True,exp4.png,exp3.png,trial_right_image,-1,exp3.png,4,exp3.png,exp4.png,0,4,reversed,correct,0.7292252387716077,1,valid_win,855.2846543993801,48,,,,,,,,,,,,,,,,sub_448,2024-05-12_18h03.02.314,Reversal,2022.1.2,59.975013786119426,4,
2,exp1.png,exp2.png,,,,,,,,,,,,,,,,,,1,0,1,0,0,2,2,2,,,,,,,,,False,22,103,False,exp1.png,exp2.png,trial_left_image,1,exp1.png,4,exp2.png,exp1.png,0,2,non-reversed,incorrect,0.028424864698448626,1,invalid_win,860.3676185999066,49,,,,,,,,,,,,,,,,sub_448,2024-05-12_18h03.02.314,Reversal,2022.1.2,59.975013786119426,4,
3,exp3.png,exp4.png,,,,,,,,,,,,,,,,,,1,0,1,0,0,3,3,3,,,,,,,,,False,23,104,True,exp4.png,exp3.png,trial_right_image,-1,exp3.png,4,exp3.png,exp4.png,0,4,reversed,correct,0.6727982686908044,1,valid_win,865.3681575991213,50,,,,,,,,,,,,,,,,sub_448,2024-05-12_18h03.02.314,Reversal,2022.1.2,59.975013786119426,4,
4,exp1.png,exp2.png,,,,,,,,,,,,,,,,,,1,0,1,0,0,4,4,4,,,,,,,,,False,24,105,True,exp2.png,exp1.png,trial_right_image,-1,exp1.png,4,exp2.png,exp1.png,0,2,non-reversed,incorrect,0.7296397758123443,0,valid_lose,871.284257600084,50,,,,,,,,,,,,,,,,sub_448,2024-05-12_18h03.02.314,Reversal,2022.1.2,59.975013786119426,4,
5,exp3.png,exp4.png,,,,,,,,,,,,,,,,,,1,0,1,0,0,5,5,5,,,,,,,,,False,25,106,False,exp3.png,exp4.png,trial_left_image,1,exp3.png,4,exp3.png,exp4.png,0,4,reversed,correct,0.25305707272568734,1,valid_win,876.0178822986782,51,,,,,,,,,,,,,,,,sub_448,2024-05-12_18h03.02.314,Reversal,2022.1.2,59.975013786119426,4,
6,exp1.png,exp2.png,,,,,,,,,,,,,,,,,,1,0,1,0,0,6,6,6,,,,,,,,,False,26,107,True,exp2.png,exp1.png,trial_right_image,-1,exp1.png,4,exp2.png,exp1.png,0,2,non-reversed,incorrect,0.6865527614396719,0,valid_lose,880.1676415000111,51,,,,,,,,,,,,,,,,sub_448,2024-05-12_18h03.02.314,Reversal,2022.1.2,59.975013786119426,4,
7,exp3.png,exp4.png,,,,,,,,,,,,,,,,,,1,0,1,0,0,7,7,7,,,,,,,,,False,27,108,False,exp3.png,exp4.png,trial_right_image,-1,exp4.png,4,exp3.png,exp4.png,1,3,reversed,incorrect,0.502357356055793,0,valid_lose,884.7007403988391,51,,,,,,,,,,,,,,,,sub_448,2024-05-12_18h03.02.314,Reversal,2022.1.2,59.975013786119426,4,
8,exp1.png,exp2.png,,,,,,,,,,,,,,,,,,1,0,1,0,0,8,8,8,,,,,,,,,False,28,109,False,exp1.png,exp2.png,trial_left_image,1,exp1.png,4,exp2.png,exp1.png,0,2,non-reversed,incorrect,0.12052702954016836,1,invalid_win,888.9514246992767,52,,,,,,,,,,,,,,,,sub_448,2024-05-12_18h03.02.314,Reversal,2022.1.2,59.975013786119426,4,
9,exp3.png,exp4.png,,,,,,,,,,,,,,,,,,1,0,1,0,0,9,9,9,,,,,,,,,False,29,110,False,exp3.png,exp4.png,trial_right_image,-1,exp4.png,4,exp3.png,exp4.png,1,3,reversed,incorrect,0.8147137029615372,0,valid_lose,893.4007648993284,52,,,,,,,,,,,,,,,,sub_448,2024-05-12_18h03.02.314,Reversal,2022.1.2,59.975013786119426,4,
10,exp1.png,exp2.png,,,,,,,,,,,,,,,,,,1,0,1,0,0,10,10,10,,,,,,,,,False,30,111,False,exp1.png,exp2.png,trial_left_image,1,exp1.png,4,exp2.png,exp1.png,0,2,non-reversed,incorrect,0.54311542246359,0,valid_lose,897.7005729991943,52,,,,,,,,,,,,,,,,sub_448,2024-05-12_18h03.02.314,Reversal,2022.1.2,59.975013786119426,4,
11,exp3.png,exp4.png,,,,,,,,,,,,,,,,,,1,0,1,0,0,11,11,11,,,,,,,,,False,31,112,False,exp3.png,exp4.png,trial_right_image,-1,exp4.png,4,exp3.png,exp4.png,1,3,reversed,incorrect,0.5931620544466851,0,valid_lose,901.4845396988094,52,,,,,,,,,,,,,,,,sub_448,2024-05-12_18h03.02.314,Reversal,2022.1.2,59.975013786119426,4,
12,exp1.png,exp2.png,,,,,,,,,,,,,,,,,,1,0,1,0,0,12,12,12,,,,,,,,,False,32,113,True,exp2.png,exp1.png,trial_left_image,1,exp2.png,4,exp2.png,exp1.png,1,1,non-reversed,correct,0.8169214754283348,1,valid_win,905.4006781000644,53,,,,,,,,,,,,,,,,sub_448,2024-05-12_18h03.02.314,Reversal,2022.1.2,59.975013786119426,4,
13,exp3.png,exp4.png,,,,,,,,,,,,,,,,,,1,0,1,0,0,13,13,13,,,,,,,,,False,33,114,True,exp4.png,exp3.png,trial_right_image,-1,exp3.png,4,exp3.png,exp4.png,0,4,reversed,correct,0.16355188251864938,0,invalid_lose,909.8501523993909,53,,,,,,,,,,,,,,,,sub_448,2024-05-12_18h03.02.314,Reversal,2022.1.2,59.975013786119426,4,
14,exp1.png,exp2.png,,,,,,,,,,,,,,,,,,1,0,1,0,0,14,14,14,,,,,,,,,False,34,115,False,exp1.png,exp2.png,trial_right_image,-1,exp2.png,4,exp2.png,exp1.png,1,1,non-reversed,correct,0.4621163915519245,1,valid_win,913.5016665998846,54,,,,,,,,,,,,,,,,sub_448,2024-05-12_18h03.02.314,Reversal,2022.1.2,59.975013786119426,4,
15,exp3.png,exp4.png,,,,,,,,,,,,,,,,,,1,0,1,0,0,15,15,15,,,,,,,,,False,35,116,True,exp4.png,exp3.png,trial_right_image,-1,exp3.png,4,exp3.png,exp4.png,0,4,reversed,correct,0.30453826317017985,1,valid_win,918.6003053989261,55,,,,,,,,,,,,,,,,sub_448,2024-05-12_18h03.02.314,Reversal,2022.1.2,59.975013786119426,4,
16,exp1.png,exp2.png,,,,,,,,,,,,,,,,,,1,0,1,0,0,16,16,16,,,,,,,,,False,36,117,False,exp1.png,exp2.png,trial_left_image,1,exp1.png,4,exp2.png,exp1.png,0,2,non-reversed,incorrect,0.16483929497361105,1,invalid_win,923.3001070991158,56,,,,,,,,,,,,,,,,sub_448,2024-05-12_18h03.02.314,Reversal,2022.1.2,59.975013786119426,4,
17,exp3.png,exp4.png,,,,,,,,,,,,,,,,,,1,0,1,0,0,17,17,17,,,,,,,,,False,37,118,False,exp3.png,exp4.png,trial_right_image,-1,exp4.png,4,exp3.png,exp4.png,1,3,reversed,incorrect,0.4999726448021381,0,valid_lose,927.3516226988286,56,,,,,,,,,,,,,,,,sub_448,2024-05-12_18h03.02.314,Reversal,2022.1.2,59.975013786119426,4,
18,exp1.png,exp2.png,,,,,,,,,,,,,,,,,,1,0,1,0,0,18,18,18,,,,,,,,,False,38,119,True,exp2.png,exp1.png,trial_right_image,-1,exp1.png,4,exp2.png,exp1.png,0,2,non-reversed,incorrect,0.4532960592498586,0,valid_lose,931.0404885988683,56,,,,,,,,,,,,,,,,sub_448,2024-05-12_18h03.02.314,Reversal,2022.1.2,59.975013786119426,4,
19,exp3.png,exp4.png,,,,,,,,,,,,,,,,,,1,0,1,0,0,19,19,19,,,,,,,,,False,39,120,True,exp4.png,exp3.png,trial_left_image,1,exp4.png,4,exp3.png,exp4.png,1,3,reversed,incorrect,0.734224114944138,0,valid_lose,934.9332047998905,56,,,,,,,,,,,,,,,,sub_448,2024-05-12_18h03.02.314,Reversal,2022.1.2,59.975013786119426,4,
20,exp1.png,exp2.png,,,,,,,,,,,,,,,,,,1,0,1,0,0,20,20,20,,,,,,,,,True,,,,,,,,,,,,,,,,,,,,,,,,,,,,,,,,,,,,sub_448,2024-05-12_18h03.02.314,Reversal,2022.1.2,59.975013786119426,4,
,,,exp1.png,,,,,,,,,,,,,,,,,1,0,1,0,,,,,0,0,0,0,0,0,0,0,,,,,,,,,,,,,,,,,,,,,,65.0,65.0,1.6128547005355358,"[(65.0, 1.6128547005355358)]",1023.9151571001858,None,,,,,,,,,,sub_448,2024-05-12_18h03.02.314,Reversal,2022.1.2,59.975013786119426,4,
,,,exp2.png,,,,,,,,,,,,,,,,,1,0,1,0,,,,,0,0,0,0,0,1,1,1,,,,,,,,,,,,,,,,,,,,,,,73.0,1.0035478994250298,"[(73.0, 1.0035478994250298)]",1026.5846324991435,None,73.0,,,,,,,,,sub_448,2024-05-12_18h03.02.314,Reversal,2022.1.2,59.975013786119426,4,
,,,exp3.png,,,,,,,,,,,,,,,,,1,0,1,0,,,,,0,0,0,0,0,2,2,2,,,,,,,,,,,,,,,,,,,,,,,100.0,1.0650093015283346,"[(100.0, 1.0650093015283346)]",1028.3535674996674,None,,100.0,,,,,,,,sub_448,2024-05-12_18h03.02.314,Reversal,2022.1.2,59.975013786119426,4,
,,,exp4.png,,,,,,,,,,,,,,,,,1,0,1,0,,,,,0,0,0,0,0,3,3,3,,,,,,,,,,,,,,,,,,,,,,,50.0,None,[],1029.8762943986803,None,,,,,,,,,,sub_448,2024-05-12_18h03.02.314,Reversal,2022.1.2,59.975013786119426,4,
0,exp1.png,exp2.png,,,,,,,,,,,,,,,,,,2,0,2,0,0,0,0,0,,,,,,,,,False,40,121,True,exp2.png,exp1.png,trial_right_image,-1,exp1.png,4,exp2.png,exp1.png,0,2,non-reversed,incorrect,0.8071288297695359,0,valid_lose,945.8833734001964,56,,,,,,,,,,,,,,,,sub_448,2024-05-12_18h03.02.314,Reversal,2022.1.2,59.975013786119426,4,
1,exp3.png,exp4.png,,,,,,,,,,,,,,,,,,2,0,2,0,0,1,1,1,,,,,,,,,False,41,122,True,exp4.png,exp3.png,trial_left_image,1,exp4.png,4,exp3.png,exp4.png,1,3,reversed,incorrect,0.06623709919062237,1,invalid_win,949.7668851986527,57,,,,,,,,,,,,,,,,sub_448,2024-05-12_18h03.02.314,Reversal,2022.1.2,59.975013786119426,4,
2,exp1.png,exp2.png,,,,,,,,,,,,,,,,,,2,0,2,0,0,2,2,2,,,,,,,,,False,42,123,True,exp2.png,exp1.png,trial_right_image,-1,exp1.png,4,exp2.png,exp1.png,0,2,non-reversed,incorrect,0.9194971602169999,0,valid_lose,954.6374173983932,57,,,,,,,,,,,,,,,,sub_448,2024-05-12_18h03.02.314,Reversal,2022.1.2,59.975013786119426,4,
3,exp3.png,exp4.png,,,,,,,,,,,,,,,,,,2,0,2,0,0,3,3,3,,,,,,,,,False,43,124,False,exp3.png,exp4.png,trial_right_image,-1,exp4.png,4,exp3.png,exp4.png,1,3,reversed,incorrect,0.2935062812142697,0,valid_lose,959.0659545995295,57,,,,,,,,,,,,,,,,sub_448,2024-05-12_18h03.02.314,Reversal,2022.1.2,59.975013786119426,4,
4,exp1.png,exp2.png,,,,,,,,,,,,,,,,,,2,0,2,0,0,4,4,4,,,,,,,,,False,44,125,True,exp2.png,exp1.png,trial_right_image,-1,exp1.png,4,exp2.png,exp1.png,0,2,non-reversed,incorrect,0.20941553433154336,1,invalid_win,963.1493585985154,58,,,,,,,,,,,,,,,,sub_448,2024-05-12_18h03.02.314,Reversal,2022.1.2,59.975013786119426,4,
5,exp3.png,exp4.png,,,,,,,,,,,,,,,,,,2,0,2,0,0,5,5,5,,,,,,,,,False,45,126,True,exp4.png,exp3.png,trial_right_image,-1,exp3.png,4,exp3.png,exp4.png,0,4,reversed,correct,0.5296101504853763,1,valid_win,968.69950879924,59,,,,,,,,,,,,,,,,sub_448,2024-05-12_18h03.02.314,Reversal,2022.1.2,59.975013786119426,4,
6,exp1.png,exp2.png,,,,,,,,,,,,,,,,,,2,0,2,0,0,6,6,6,,,,,,,,,False,46,127,False,exp1.png,exp2.png,trial_right_image,-1,exp2.png,4,exp2.png,exp1.png,1,1,non-reversed,correct,0.5551787313613171,1,valid_win,973.8334129992872,60,,,,,,,,,,,,,,,,sub_448,2024-05-12_18h03.02.314,Reversal,2022.1.2,59.975013786119426,4,
7,exp3.png,exp4.png,,,,,,,,,,,,,,,,,,2,0,2,0,0,7,7,7,,,,,,,,,False,47,128,False,exp3.png,exp4.png,trial_left_image,1,exp3.png,4,exp3.png,exp4.png,0,4,reversed,correct,0.327742761907845,1,valid_win,978.3990254998207,61,,,,,,,,,,,,,,,,sub_448,2024-05-12_18h03.02.314,Reversal,2022.1.2,59.975013786119426,4,
8,exp1.png,exp2.png,,,,,,,,,,,,,,,,,,2,0,2,0,0,8,8,8,,,,,,,,,False,48,129,True,exp2.png,exp1.png,trial_right_image,-1,exp1.png,4,exp2.png,exp1.png,0,2,non-reversed,incorrect,0.22542970995942624,1,invalid_win,982.9836886990815,62,,,,,,,,,,,,,,,,sub_448,2024-05-12_18h03.02.314,Reversal,2022.1.2,59.975013786119426,4,
9,exp3.png,exp4.png,,,,,,,,,,,,,,,,,,2,0,2,0,0,9,9,9,,,,,,,,,False,49,130,False,exp3.png,exp4.png,trial_left_image,1,exp3.png,4,exp3.png,exp4.png,0,4,reversed,correct,0.9244322494989732,1,valid_win,990.5177686996758,63,,,,,,,,,,,,,,,,sub_448,2024-05-12_18h03.02.314,Reversal,2022.1.2,59.975013786119426,4,
10,exp1.png,exp2.png,,,,,,,,,,,,,,,,,,2,0,2,0,0,10,10,10,,,,,,,,,False,50,131,False,exp1.png,exp2.png,trial_right_image,-1,exp2.png,4,exp2.png,exp1.png,1,1,non-reversed,correct,0.4764650164547152,1,valid_win,999.5990474987775,64,,,,,,,,,,,,,,,,sub_448,2024-05-12_18h03.02.314,Reversal,2022.1.2,59.975013786119426,4,
11,exp3.png,exp4.png,,,,,,,,,,,,,,,,,,2,0,2,0,0,11,11,11,,,,,,,,,False,51,132,False,exp3.png,exp4.png,trial_left_image,1,exp3.png,4,exp3.png,exp4.png,0,4,reversed,correct,0.9665845942161118,1,valid_win,1006.1654603984207,65,,,,,,,,,,,,,,,,sub_448,2024-05-12_18h03.02.314,Reversal,2022.1.2,59.975013786119426,4,
12,exp1.png,exp2.png,,,,,,,,,,,,,,,,,,2,0,2,0,0,12,12,12,,,,,,,,,False,52,133,False,exp1.png,exp2.png,trial_left_image,1,exp1.png,4,exp2.png,exp1.png,0,2,non-reversed,incorrect,0.8611214918022319,0,valid_lose,1011.6724475994706,65,,,,,,,,,,,,,,,,sub_448,2024-05-12_18h03.02.314,Reversal,2022.1.2,59.975013786119426,4,
13,exp3.png,exp4.png,,,,,,,,,,,,,,,,,,2,0,2,0,0,13,13,13,,,,,,,,,False,53,134,True,exp4.png,exp3.png,trial_right_image,-1,exp3.png,4,exp3.png,exp4.png,0,4,reversed,correct,0.12358209242628793,0,invalid_lose,1016.3521718997508,65,,,,,,,,,,,,,,,,sub_448,2024-05-12_18h03.02.314,Reversal,2022.1.2,59.975013786119426,4,
14,exp1.png,exp2.png,,,,,,,,,,,,,,,,,,2,0,2,0,0,14,14,14,,,,,,,,,False,54,135,True,exp2.png,exp1.png,trial_right_image,-1,exp1.png,4,exp2.png,exp1.png,0,2,non-reversed,incorrect,0.5371455270558452,0,valid_lose,1020.7485354989767,65,,,,,,,,,,,,,,,,sub_448,2024-05-12_18h03.02.314,Reversal,2022.1.2,59.975013786119426,4,
15,exp3.png,exp4.png,,,,,,,,,,,,,,,,,,2,0,2,0,0,15,15,15,,,,,,,,,False,55,136,False,exp3.png,exp4.png,trial_left_image,1,exp3.png,4,exp3.png,exp4.png,0,4,reversed,correct,0.7123367756296187,1,valid_win,1025.4485940001905,66,,,,,,,,,,,,,,,,sub_448,2024-05-12_18h03.02.314,Reversal,2022.1.2,59.975013786119426,4,
16,exp1.png,exp2.png,,,,,,,,,,,,,,,,,,2,0,2,0,0,16,16,16,,,,,,,,,False,56,137,False,exp1.png,exp2.png,trial_right_image,-1,exp2.png,4,exp2.png,exp1.png,1,1,non-reversed,correct,0.6107734323092231,1,valid_win,1031.4318925999105,67,,,,,,,,,,,,,,,,sub_448,2024-05-12_18h03.02.314,Reversal,2022.1.2,59.975013786119426,4,
17,exp3.png,exp4.png,,,,,,,,,,,,,,,,,,2,0,2,0,0,17,17,17,,,,,,,,,False,57,138,False,exp3.png,exp4.png,trial_left_image,1,exp3.png,4,exp3.png,exp4.png,0,4,reversed,correct,0.011079356835361764,0,invalid_lose,1036.899604300037,67,,,,,,,,,,,,,,,,sub_448,2024-05-12_18h03.02.314,Reversal,2022.1.2,59.975013786119426,4,
18,exp1.png,exp2.png,,,,,,,,,,,,,,,,,,2,0,2,0,0,18,18,18,,,,,,,,,False,58,139,True,exp2.png,exp1.png,trial_right_image,-1,exp1.png,4,exp2.png,exp1.png,0,2,non-reversed,incorrect,0.30816884729023775,0,valid_lose,1042.4496349990368,67,,,,,,,,,,,,,,,,sub_448,2024-05-12_18h03.02.314,Reversal,2022.1.2,59.975013786119426,4,
19,exp3.png,exp4.png,,,,,,,,,,,,,,,,,,2,0,2,0,0,19,19,19,,,,,,,,,False,59,140,True,exp4.png,exp3.png,trial_right_image,-1,exp3.png,4,exp3.png,exp4.png,0,4,reversed,correct,0.2732413420609744,1,valid_win,1047.6325164996088,68,,,,,,,,,,,,,,,,sub_448,2024-05-12_18h03.02.314,Reversal,2022.1.2,59.975013786119426,4,
20,exp1.png,exp2.png,,,,,,,,,,,,,,,,,,2,0,2,0,0,20,20,20,,,,,,,,,True,,,,,,,,,,,,,,,,,,,,,,,,,,,,,,,,,,,,sub_448,2024-05-12_18h03.02.314,Reversal,2022.1.2,59.975013786119426,4,
,,,exp1.png,,,,,,,,,,,,,,,,,2,0,2,0,,,,,0,0,0,0,0,0,0,0,,,,,,,,,,,,,,,,,,,,,,79.0,79.0,2.3700529988855124,"[(79.0, 2.3700529988855124)]",1136.6008834000677,None,,,,,,,,,,sub_448,2024-05-12_18h03.02.314,Reversal,2022.1.2,59.975013786119426,4,
,,,exp2.png,,,,,,,,,,,,,,,,,2,0,2,0,,,,,0,0,0,0,0,1,1,1,,,,,,,,,,,,,,,,,,,,,,,79.0,1.118928099051118,"[(79.0, 1.118928099051118)]",1139.8663055989891,None,79.0,,,,,,,,,sub_448,2024-05-12_18h03.02.314,Reversal,2022.1.2,59.975013786119426,4,
,,,exp3.png,,,,,,,,,,,,,,,,,2,0,2,0,,,,,0,0,0,0,0,2,2,2,,,,,,,,,,,,,,,,,,,,,,,22.0,1.1184892002493143,"[(22.0, 1.1184892002493143)]",1141.8990911990404,None,,22.0,,,,,,,,sub_448,2024-05-12_18h03.02.314,Reversal,2022.1.2,59.975013786119426,4,
,,,exp4.png,,,,,,,,,,,,,,,,,2,0,2,0,,,,,0,0,0,0,0,3,3,3,,,,,,,,,,,,,,,,,,,,,,,50.0,None,[],1143.307080598548,None,,,,,,,,,,sub_448,2024-05-12_18h03.02.314,Reversal,2022.1.2,59.975013786119426,4,
,,,,,,,,,,,,,,,,,,,,,,,,,,,,,,,,,,,,,,,,,,,,,,,,,,,,,,,,68,,,,,,,,,,,72,40,32,329.32338579930365,1,,,,,,,
