trial_index,trial_image1_file,trial_image2_file,image_file,learning_outer_loop.thisRepN,learning_outer_loop.thisTrialN,learning_outer_loop.thisN,learning_outer_loop.thisIndex,learning_inner_loop.thisRepN,learning_inner_loop.thisTrialN,learning_inner_loop.thisN,learning_inner_loop.thisIndex,learning_estimation_outer_loop.thisRepN,learning_estimation_outer_loop.thisTrialN,learning_estimation_outer_loop.thisN,learning_estimation_outer_loop.thisIndex,learning_estimation_inner_loop.thisRepN,learning_estimation_inner_loop.thisTrialN,learning_estimation_inner_loop.thisN,learning_estimation_inner_loop.thisIndex,reversal_outer_loop.thisRepN,reversal_outer_loop.thisTrialN,reversal_outer_loop.thisN,reversal_outer_loop.thisIndex,reversal_inner_loop.thisRepN,reversal_inner_loop.thisTrialN,reversal_inner_loop.thisN,reversal_inner_loop.thisIndex,reversal_estimation_outer_loop.thisRepN,reversal_estimation_outer_loop.thisTrialN,reversal_estimation_outer_loop.thisN,reversal_estimation_outer_loop.thisIndex,reversal_estimation_inner_loop.thisRepN,reversal_estimation_inner_loop.thisTrialN,reversal_estimation_inner_loop.thisN,reversal_estimation_inner_loop.thisIndex,skipped,total_trial_counter,trial_num,left_right_flip,left_image_file,right_image_file,clicked_stimulus_side,side,clicked_stimulus,version,high_prob_image_file,low_prob_image_file,choice_a,choice_b,pair_type,correct,trial_feedback_random,reward,trial_type,overall_time_after_trial,score,estimation_rating.started,estimation_exp1.png,estimation_rating.response,estimation_rating.rt,estimation_rating.history,estimation_exp2.png,estimation_exp3.png,estimation_exp4.png,total_learning_time,total_correct,learning_correct,reversal_correct,total_reversal_time,extra_block,end_experiment.keys,end_experiment.rt,end_experiment.duration,participant,date,expName,psychopyVersion,frameRate,ver,
0,exp1.png,exp2.png,,0,0,0,0,0,0,0,0,,,,,,,,,,,,,,,,,,,,,,,,,True,,,,,,,,,,,,,,,,,,,,,,,,,,,,,,,,,,,,,,sub_369,2024-03-10_11h54.46.530,Reversal,2023.1.3,60.03445978000417,1,
1,exp3.png,exp4.png,,0,0,0,0,0,1,1,1,,,,,,,,,,,,,,,,,,,,,,,,,False,0,1,True,exp4.png,exp3.png,trial_left_image,1,exp4.png,1,exp3.png,exp4.png,0,2,non-reversed,incorrect,0.722866832135409,0,valid_lose,9.145708000000013,0,,,,,,,,,,,,,,,,,,sub_369,2024-03-10_11h54.46.530,Reversal,2023.1.3,60.03445978000417,1,
2,exp1.png,exp2.png,,0,0,0,0,0,2,2,2,,,,,,,,,,,,,,,,,,,,,,,,,False,1,2,False,exp1.png,exp2.png,trial_right_image,-1,exp2.png,1,exp1.png,exp2.png,0,4,reversed,incorrect,0.7615408708057829,0,valid_lose,17.74175869999999,0,,,,,,,,,,,,,,,,,,sub_369,2024-03-10_11h54.46.530,Reversal,2023.1.3,60.03445978000417,1,
3,exp3.png,exp4.png,,0,0,0,0,0,3,3,3,,,,,,,,,,,,,,,,,,,,,,,,,False,2,3,False,exp3.png,exp4.png,trial_left_image,1,exp3.png,1,exp3.png,exp4.png,1,1,non-reversed,correct,0.5219927321209501,1,valid_win,22.83991690000039,1,,,,,,,,,,,,,,,,,,sub_369,2024-03-10_11h54.46.530,Reversal,2023.1.3,60.03445978000417,1,
4,exp1.png,exp2.png,,0,0,0,0,0,4,4,4,,,,,,,,,,,,,,,,,,,,,,,,,False,3,4,False,exp1.png,exp2.png,trial_left_image,1,exp1.png,1,exp1.png,exp2.png,1,3,reversed,correct,0.3974559050833001,1,valid_win,27.405238600000303,2,,,,,,,,,,,,,,,,,,sub_369,2024-03-10_11h54.46.530,Reversal,2023.1.3,60.03445978000417,1,
5,exp3.png,exp4.png,,0,0,0,0,0,5,5,5,,,,,,,,,,,,,,,,,,,,,,,,,False,4,5,False,exp3.png,exp4.png,trial_left_image,1,exp3.png,1,exp3.png,exp4.png,1,1,non-reversed,correct,0.36547687499700965,1,valid_win,32.83682930000032,3,,,,,,,,,,,,,,,,,,sub_369,2024-03-10_11h54.46.530,Reversal,2023.1.3,60.03445978000417,1,
6,exp1.png,exp2.png,,0,0,0,0,0,6,6,6,,,,,,,,,,,,,,,,,,,,,,,,,False,5,6,False,exp1.png,exp2.png,trial_left_image,1,exp1.png,1,exp1.png,exp2.png,1,3,reversed,correct,0.7124010080539556,1,valid_win,37.65209490000052,4,,,,,,,,,,,,,,,,,,sub_369,2024-03-10_11h54.46.530,Reversal,2023.1.3,60.03445978000417,1,
7,exp3.png,exp4.png,,0,0,0,0,0,7,7,7,,,,,,,,,,,,,,,,,,,,,,,,,False,6,7,False,exp3.png,exp4.png,trial_left_image,1,exp3.png,1,exp3.png,exp4.png,1,1,non-reversed,correct,0.9445816859680349,1,valid_win,42.117067000000134,5,,,,,,,,,,,,,,,,,,sub_369,2024-03-10_11h54.46.530,Reversal,2023.1.3,60.03445978000417,1,
8,exp1.png,exp2.png,,0,0,0,0,0,8,8,8,,,,,,,,,,,,,,,,,,,,,,,,,False,7,8,False,exp1.png,exp2.png,trial_left_image,1,exp1.png,1,exp1.png,exp2.png,1,3,reversed,correct,0.6432316844186929,1,valid_win,46.46547030000056,6,,,,,,,,,,,,,,,,,,sub_369,2024-03-10_11h54.46.530,Reversal,2023.1.3,60.03445978000417,1,
9,exp3.png,exp4.png,,0,0,0,0,0,9,9,9,,,,,,,,,,,,,,,,,,,,,,,,,False,8,9,True,exp4.png,exp3.png,trial_right_image,-1,exp3.png,1,exp3.png,exp4.png,1,1,non-reversed,correct,0.9219023746797441,1,valid_win,51.73064130000057,7,,,,,,,,,,,,,,,,,,sub_369,2024-03-10_11h54.46.530,Reversal,2023.1.3,60.03445978000417,1,
10,exp1.png,exp2.png,,0,0,0,0,0,10,10,10,,,,,,,,,,,,,,,,,,,,,,,,,False,9,10,True,exp2.png,exp1.png,trial_right_image,-1,exp1.png,1,exp1.png,exp2.png,1,3,reversed,correct,0.40964316150247126,1,valid_win,55.97895160000007,8,,,,,,,,,,,,,,,,,,sub_369,2024-03-10_11h54.46.530,Reversal,2023.1.3,60.03445978000417,1,
11,exp3.png,exp4.png,,0,0,0,0,0,11,11,11,,,,,,,,,,,,,,,,,,,,,,,,,False,10,11,False,exp3.png,exp4.png,trial_left_image,1,exp3.png,1,exp3.png,exp4.png,1,1,non-reversed,correct,0.1752676780640593,0,invalid_lose,60.74406750000071,8,,,,,,,,,,,,,,,,,,sub_369,2024-03-10_11h54.46.530,Reversal,2023.1.3,60.03445978000417,1,
12,exp1.png,exp2.png,,0,0,0,0,0,12,12,12,,,,,,,,,,,,,,,,,,,,,,,,,False,11,12,True,exp2.png,exp1.png,trial_left_image,1,exp2.png,1,exp1.png,exp2.png,0,4,reversed,incorrect,0.06580569275847814,1,invalid_win,65.4092768999999,9,,,,,,,,,,,,,,,,,,sub_369,2024-03-10_11h54.46.530,Reversal,2023.1.3,60.03445978000417,1,
13,exp3.png,exp4.png,,0,0,0,0,0,13,13,13,,,,,,,,,,,,,,,,,,,,,,,,,False,12,13,False,exp3.png,exp4.png,trial_right_image,-1,exp4.png,1,exp3.png,exp4.png,0,2,non-reversed,incorrect,0.10507760796093013,1,invalid_win,70.1405493000002,10,,,,,,,,,,,,,,,,,,sub_369,2024-03-10_11h54.46.530,Reversal,2023.1.3,60.03445978000417,1,
14,exp1.png,exp2.png,,0,0,0,0,0,14,14,14,,,,,,,,,,,,,,,,,,,,,,,,,False,13,14,True,exp2.png,exp1.png,trial_left_image,1,exp2.png,1,exp1.png,exp2.png,0,4,reversed,incorrect,0.8931993831243531,0,valid_lose,74.63961720000043,10,,,,,,,,,,,,,,,,,,sub_369,2024-03-10_11h54.46.530,Reversal,2023.1.3,60.03445978000417,1,
15,exp3.png,exp4.png,,0,0,0,0,0,15,15,15,,,,,,,,,,,,,,,,,,,,,,,,,False,14,15,False,exp3.png,exp4.png,trial_left_image,1,exp3.png,1,exp3.png,exp4.png,1,1,non-reversed,correct,0.11884260280525105,0,invalid_lose,79.87069500000052,10,,,,,,,,,,,,,,,,,,sub_369,2024-03-10_11h54.46.530,Reversal,2023.1.3,60.03445978000417,1,
16,exp1.png,exp2.png,,0,0,0,0,0,16,16,16,,,,,,,,,,,,,,,,,,,,,,,,,False,15,16,True,exp2.png,exp1.png,trial_right_image,-1,exp1.png,1,exp1.png,exp2.png,1,3,reversed,correct,0.37680209463833736,1,valid_win,84.41950260000067,11,,,,,,,,,,,,,,,,,,sub_369,2024-03-10_11h54.46.530,Reversal,2023.1.3,60.03445978000417,1,
17,exp3.png,exp4.png,,0,0,0,0,0,17,17,17,,,,,,,,,,,,,,,,,,,,,,,,,False,16,17,True,exp4.png,exp3.png,trial_right_image,-1,exp3.png,1,exp3.png,exp4.png,1,1,non-reversed,correct,0.5331180323872954,1,valid_win,88.75090230000023,12,,,,,,,,,,,,,,,,,,sub_369,2024-03-10_11h54.46.530,Reversal,2023.1.3,60.03445978000417,1,
18,exp1.png,exp2.png,,0,0,0,0,0,18,18,18,,,,,,,,,,,,,,,,,,,,,,,,,False,17,18,True,exp2.png,exp1.png,trial_right_image,-1,exp1.png,1,exp1.png,exp2.png,1,3,reversed,correct,0.2941627256045909,1,valid_win,92.8670732999999,13,,,,,,,,,,,,,,,,,,sub_369,2024-03-10_11h54.46.530,Reversal,2023.1.3,60.03445978000417,1,
19,exp3.png,exp4.png,,0,0,0,0,0,19,19,19,,,,,,,,,,,,,,,,,,,,,,,,,False,18,19,True,exp4.png,exp3.png,trial_right_image,-1,exp3.png,1,exp3.png,exp4.png,1,1,non-reversed,correct,0.29965338582301926,1,valid_win,97.14794950000032,14,,,,,,,,,,,,,,,,,,sub_369,2024-03-10_11h54.46.530,Reversal,2023.1.3,60.03445978000417,1,
20,exp1.png,exp2.png,,0,0,0,0,0,20,20,20,,,,,,,,,,,,,,,,,,,,,,,,,False,19,20,True,exp2.png,exp1.png,trial_right_image,-1,exp1.png,1,exp1.png,exp2.png,1,3,reversed,correct,0.5816541902049718,1,valid_win,101.29660779999995,15,,,,,,,,,,,,,,,,,,sub_369,2024-03-10_11h54.46.530,Reversal,2023.1.3,60.03445978000417,1,
,,,exp1.png,0,0,0,0,,,,,0,0,0,0,0,0,0,0,,,,,,,,,,,,,,,,,,,,,,,,,,,,,,,,,,,,,,188.35652759999994,83.0,83.0,9.630164300000615,"[(83.0, 9.630164300000615)]",,,,,,,,,,,,,sub_369,2024-03-10_11h54.46.530,Reversal,2023.1.3,60.03445978000417,1,
,,,exp2.png,0,0,0,0,,,,,0,0,0,0,0,1,1,1,,,,,,,,,,,,,,,,,,,,,,,,,,,,,,,,,,,,,,199.35266860000047,,23.0,4.224803100000827,"[(23.0, 4.224803100000827)]",23.0,,,,,,,,,,,,sub_369,2024-03-10_11h54.46.530,Reversal,2023.1.3,60.03445978000417,1,
,,,exp3.png,0,0,0,0,,,,,0,0,0,0,0,2,2,2,,,,,,,,,,,,,,,,,,,,,,,,,,,,,,,,,,,,,,204.83125500000006,,74.0,16.189917599999717,"[(79.0, 12.725017900000239), (74.0, 16.189917599999717)]",,74.0,,,,,,,,,,,sub_369,2024-03-10_11h54.46.530,Reversal,2023.1.3,60.03445978000417,1,
,,,exp4.png,0,0,0,0,,,,,0,0,0,0,0,3,3,3,,,,,,,,,,,,,,,,,,,,,,,,,,,,,,,,,,,,,,222.05836230000023,,29.0,2.8608116000004884,"[(29.0, 2.8608116000004884)]",,,29.0,,,,,,,,,,sub_369,2024-03-10_11h54.46.530,Reversal,2023.1.3,60.03445978000417,1,
0,exp1.png,exp2.png,,1,0,1,0,0,0,0,0,,,,,,,,,,,,,,,,,,,,,,,,,True,,,,,,,,,,,,,,,,,,,,,,,,,,,,,,,,,,,,,,sub_369,2024-03-10_11h54.46.530,Reversal,2023.1.3,60.03445978000417,1,
1,exp3.png,exp4.png,,1,0,1,0,0,1,1,1,,,,,,,,,,,,,,,,,,,,,,,,,False,20,21,False,exp3.png,exp4.png,trial_right_image,-1,exp4.png,1,exp3.png,exp4.png,0,2,non-reversed,incorrect,0.6970138423770564,0,valid_lose,144.5341853,15,,,,,,,,,,,,,,,,,,sub_369,2024-03-10_11h54.46.530,Reversal,2023.1.3,60.03445978000417,1,
2,exp1.png,exp2.png,,1,0,1,0,0,2,2,2,,,,,,,,,,,,,,,,,,,,,,,,,False,21,22,False,exp1.png,exp2.png,trial_right_image,-1,exp2.png,1,exp1.png,exp2.png,0,4,reversed,incorrect,0.11450420758917146,1,invalid_win,151.6797645000006,16,,,,,,,,,,,,,,,,,,sub_369,2024-03-10_11h54.46.530,Reversal,2023.1.3,60.03445978000417,1,
3,exp3.png,exp4.png,,1,0,1,0,0,3,3,3,,,,,,,,,,,,,,,,,,,,,,,,,False,22,23,False,exp3.png,exp4.png,trial_left_image,1,exp3.png,1,exp3.png,exp4.png,1,1,non-reversed,correct,0.6958088362160103,1,valid_win,156.44523290000052,17,,,,,,,,,,,,,,,,,,sub_369,2024-03-10_11h54.46.530,Reversal,2023.1.3,60.03445978000417,1,
4,exp1.png,exp2.png,,1,0,1,0,0,4,4,4,,,,,,,,,,,,,,,,,,,,,,,,,False,23,24,True,exp2.png,exp1.png,trial_left_image,1,exp2.png,1,exp1.png,exp2.png,0,4,reversed,incorrect,0.7136509827280131,0,valid_lose,167.49130520000017,17,,,,,,,,,,,,,,,,,,sub_369,2024-03-10_11h54.46.530,Reversal,2023.1.3,60.03445978000417,1,
5,exp3.png,exp4.png,,1,0,1,0,0,5,5,5,,,,,,,,,,,,,,,,,,,,,,,,,False,24,25,True,exp4.png,exp3.png,trial_left_image,1,exp4.png,1,exp3.png,exp4.png,0,2,non-reversed,incorrect,0.27741167095618824,0,valid_lose,174.63866940000025,17,,,,,,,,,,,,,,,,,,sub_369,2024-03-10_11h54.46.530,Reversal,2023.1.3,60.03445978000417,1,
6,exp1.png,exp2.png,,1,0,1,0,0,6,6,6,,,,,,,,,,,,,,,,,,,,,,,,,False,25,26,True,exp2.png,exp1.png,trial_right_image,-1,exp1.png,1,exp1.png,exp2.png,1,3,reversed,correct,0.41513144434460647,1,valid_win,179.00447890000032,18,,,,,,,,,,,,,,,,,,sub_369,2024-03-10_11h54.46.530,Reversal,2023.1.3,60.03445978000417,1,
7,exp3.png,exp4.png,,1,0,1,0,0,7,7,7,,,,,,,,,,,,,,,,,,,,,,,,,False,26,27,False,exp3.png,exp4.png,trial_left_image,1,exp3.png,1,exp3.png,exp4.png,1,1,non-reversed,correct,0.24225992569179344,0,invalid_lose,188.25091620000057,18,,,,,,,,,,,,,,,,,,sub_369,2024-03-10_11h54.46.530,Reversal,2023.1.3,60.03445978000417,1,
8,exp1.png,exp2.png,,1,0,1,0,0,8,8,8,,,,,,,,,,,,,,,,,,,,,,,,,False,27,28,True,exp2.png,exp1.png,trial_right_image,-1,exp1.png,1,exp1.png,exp2.png,1,3,reversed,correct,0.22359643851511546,0,invalid_lose,193.59966130000066,18,,,,,,,,,,,,,,,,,,sub_369,2024-03-10_11h54.46.530,Reversal,2023.1.3,60.03445978000417,1,
9,exp3.png,exp4.png,,1,0,1,0,0,9,9,9,,,,,,,,,,,,,,,,,,,,,,,,,False,28,29,False,exp3.png,exp4.png,trial_left_image,1,exp3.png,1,exp3.png,exp4.png,1,1,non-reversed,correct,0.534957342903733,1,valid_win,204.02941080000073,19,,,,,,,,,,,,,,,,,,sub_369,2024-03-10_11h54.46.530,Reversal,2023.1.3,60.03445978000417,1,
10,exp1.png,exp2.png,,1,0,1,0,0,10,10,10,,,,,,,,,,,,,,,,,,,,,,,,,False,29,30,True,exp2.png,exp1.png,trial_left_image,1,exp2.png,1,exp1.png,exp2.png,0,4,reversed,incorrect,0.6485743571203788,0,valid_lose,210.56019920000017,19,,,,,,,,,,,,,,,,,,sub_369,2024-03-10_11h54.46.530,Reversal,2023.1.3,60.03445978000417,1,
11,exp3.png,exp4.png,,1,0,1,0,0,11,11,11,,,,,,,,,,,,,,,,,,,,,,,,,False,30,31,False,exp3.png,exp4.png,trial_left_image,1,exp3.png,1,exp3.png,exp4.png,1,1,non-reversed,correct,0.422808103361339,1,valid_win,222.53907060000074,20,,,,,,,,,,,,,,,,,,sub_369,2024-03-10_11h54.46.530,Reversal,2023.1.3,60.03445978000417,1,
12,exp1.png,exp2.png,,1,0,1,0,0,12,12,12,,,,,,,,,,,,,,,,,,,,,,,,,False,31,32,True,exp2.png,exp1.png,trial_right_image,-1,exp1.png,1,exp1.png,exp2.png,1,3,reversed,correct,0.2235877436918261,0,invalid_lose,228.35384479999993,20,,,,,,,,,,,,,,,,,,sub_369,2024-03-10_11h54.46.530,Reversal,2023.1.3,60.03445978000417,1,
13,exp3.png,exp4.png,,1,0,1,0,0,13,13,13,,,,,,,,,,,,,,,,,,,,,,,,,False,32,33,False,exp3.png,exp4.png,trial_left_image,1,exp3.png,1,exp3.png,exp4.png,1,1,non-reversed,correct,0.2969957983895888,1,valid_win,233.28551740000057,21,,,,,,,,,,,,,,,,,,sub_369,2024-03-10_11h54.46.530,Reversal,2023.1.3,60.03445978000417,1,
14,exp1.png,exp2.png,,1,0,1,0,0,14,14,14,,,,,,,,,,,,,,,,,,,,,,,,,False,33,34,True,exp2.png,exp1.png,trial_left_image,1,exp2.png,1,exp1.png,exp2.png,0,4,reversed,incorrect,0.552757982465278,0,valid_lose,239.68320399999993,21,,,,,,,,,,,,,,,,,,sub_369,2024-03-10_11h54.46.530,Reversal,2023.1.3,60.03445978000417,1,
15,exp3.png,exp4.png,,1,0,1,0,0,15,15,15,,,,,,,,,,,,,,,,,,,,,,,,,False,34,35,True,exp4.png,exp3.png,trial_right_image,-1,exp3.png,1,exp3.png,exp4.png,1,1,non-reversed,correct,0.09274599470266776,0,invalid_lose,245.13236430000052,21,,,,,,,,,,,,,,,,,,sub_369,2024-03-10_11h54.46.530,Reversal,2023.1.3,60.03445978000417,1,
16,exp1.png,exp2.png,,1,0,1,0,0,16,16,16,,,,,,,,,,,,,,,,,,,,,,,,,False,35,36,False,exp1.png,exp2.png,trial_left_image,1,exp1.png,1,exp1.png,exp2.png,1,3,reversed,correct,0.689468713620308,1,valid_win,256.47750030000043,22,,,,,,,,,,,,,,,,,,sub_369,2024-03-10_11h54.46.530,Reversal,2023.1.3,60.03445978000417,1,
17,exp3.png,exp4.png,,1,0,1,0,0,17,17,17,,,,,,,,,,,,,,,,,,,,,,,,,False,36,37,False,exp3.png,exp4.png,trial_left_image,1,exp3.png,1,exp3.png,exp4.png,1,1,non-reversed,correct,0.9312448774095181,1,valid_win,262.7425862,23,,,,,,,,,,,,,,,,,,sub_369,2024-03-10_11h54.46.530,Reversal,2023.1.3,60.03445978000417,1,
18,exp1.png,exp2.png,,1,0,1,0,0,18,18,18,,,,,,,,,,,,,,,,,,,,,,,,,False,37,38,True,exp2.png,exp1.png,trial_left_image,1,exp2.png,1,exp1.png,exp2.png,0,4,reversed,incorrect,0.7064770194092155,0,valid_lose,271.1062158000004,23,,,,,,,,,,,,,,,,,,sub_369,2024-03-10_11h54.46.530,Reversal,2023.1.3,60.03445978000417,1,
19,exp3.png,exp4.png,,1,0,1,0,0,19,19,19,,,,,,,,,,,,,,,,,,,,,,,,,False,38,39,True,exp4.png,exp3.png,trial_right_image,-1,exp3.png,1,exp3.png,exp4.png,1,1,non-reversed,correct,0.07098033830732786,0,invalid_lose,276.1708987000002,23,,,,,,,,,,,,,,,,,,sub_369,2024-03-10_11h54.46.530,Reversal,2023.1.3,60.03445978000417,1,
20,exp1.png,exp2.png,,1,0,1,0,0,20,20,20,,,,,,,,,,,,,,,,,,,,,,,,,False,39,40,False,exp1.png,exp2.png,trial_left_image,1,exp1.png,1,exp1.png,exp2.png,1,3,reversed,correct,0.0803056488720234,0,invalid_lose,284.45197330000065,23,,,,,,,,,,,,,,,,,,sub_369,2024-03-10_11h54.46.530,Reversal,2023.1.3,60.03445978000417,1,
,,,exp1.png,1,0,1,0,,,,,0,0,0,0,0,0,0,0,,,,,,,,,,,,,,,,,,,,,,,,,,,,,,,,,,,,,,371.47617830000036,15.0,15.0,5.72677289999956,"[(15.0, 5.72677289999956)]",,,,,,,,,,,,,sub_369,2024-03-10_11h54.46.530,Reversal,2023.1.3,60.03445978000417,1,
,,,exp2.png,1,0,1,0,,,,,0,0,0,0,0,1,1,1,,,,,,,,,,,,,,,,,,,,,,,,,,,,,,,,,,,,,,378.38840170000003,,22.0,4.878249999999753,"[(22.0, 4.878249999999753)]",22.0,,,,,,,,,,,,sub_369,2024-03-10_11h54.46.530,Reversal,2023.1.3,60.03445978000417,1,
,,,exp3.png,1,0,1,0,,,,,0,0,0,0,0,2,2,2,,,,,,,,,,,,,,,,,,,,,,,,,,,,,,,,,,,,,,384.4036463000002,,74.0,2.4277326999999786,"[(74.0, 2.4277326999999786)]",,74.0,,,,,,,,,,,sub_369,2024-03-10_11h54.46.530,Reversal,2023.1.3,60.03445978000417,1,
,,,exp4.png,1,0,1,0,,,,,0,0,0,0,0,3,3,3,,,,,,,,,,,,,,,,,,,,,,,,,,,,,,,,,,,,,,387.8686985000004,,78.0,1.861092400000416,"[(78.0, 1.861092400000416)]",,,78.0,,,,,,,,,,sub_369,2024-03-10_11h54.46.530,Reversal,2023.1.3,60.03445978000417,1,
0,exp1.png,exp2.png,,2,0,2,0,0,0,0,0,,,,,,,,,,,,,,,,,,,,,,,,,True,,,,,,,,,,,,,,,,,,,,,,,,,,,,,,,,,,,,,,sub_369,2024-03-10_11h54.46.530,Reversal,2023.1.3,60.03445978000417,1,
1,exp3.png,exp4.png,,2,0,2,0,0,1,1,1,,,,,,,,,,,,,,,,,,,,,,,,,False,40,41,True,exp4.png,exp3.png,trial_right_image,-1,exp3.png,1,exp3.png,exp4.png,1,1,non-reversed,correct,0.7670240526760881,1,valid_win,311.85874870000043,24,,,,,,,,,,,,,,,,,,sub_369,2024-03-10_11h54.46.530,Reversal,2023.1.3,60.03445978000417,1,
2,exp1.png,exp2.png,,2,0,2,0,0,2,2,2,,,,,,,,,,,,,,,,,,,,,,,,,False,41,42,True,exp2.png,exp1.png,trial_right_image,-1,exp1.png,1,exp1.png,exp2.png,1,3,reversed,correct,0.03205081121345421,0,invalid_lose,316.8071557000003,24,,,,,,,,,,,,,,,,,,sub_369,2024-03-10_11h54.46.530,Reversal,2023.1.3,60.03445978000417,1,
3,exp3.png,exp4.png,,2,0,2,0,0,3,3,3,,,,,,,,,,,,,,,,,,,,,,,,,False,42,43,True,exp4.png,exp3.png,trial_right_image,-1,exp3.png,1,exp3.png,exp4.png,1,1,non-reversed,correct,0.1314988374608952,0,invalid_lose,321.45576810000057,24,,,,,,,,,,,,,,,,,,sub_369,2024-03-10_11h54.46.530,Reversal,2023.1.3,60.03445978000417,1,
4,exp1.png,exp2.png,,2,0,2,0,0,4,4,4,,,,,,,,,,,,,,,,,,,,,,,,,False,43,44,False,exp1.png,exp2.png,trial_left_image,1,exp1.png,1,exp1.png,exp2.png,1,3,reversed,correct,0.8984941422510264,1,valid_win,326.2375006000002,25,,,,,,,,,,,,,,,,,,sub_369,2024-03-10_11h54.46.530,Reversal,2023.1.3,60.03445978000417,1,
5,exp3.png,exp4.png,,2,0,2,0,0,5,5,5,,,,,,,,,,,,,,,,,,,,,,,,,False,44,45,False,exp3.png,exp4.png,trial_left_image,1,exp3.png,1,exp3.png,exp4.png,1,1,non-reversed,correct,0.7700077956146641,1,valid_win,332.4856415000004,26,,,,,,,,,,,,,,,,,,sub_369,2024-03-10_11h54.46.530,Reversal,2023.1.3,60.03445978000417,1,
6,exp1.png,exp2.png,,2,0,2,0,0,6,6,6,,,,,,,,,,,,,,,,,,,,,,,,,False,45,46,True,exp2.png,exp1.png,trial_left_image,1,exp2.png,1,exp1.png,exp2.png,0,4,reversed,incorrect,0.7067950601550668,0,valid_lose,337.9000466000007,26,,,,,,,,,,,,,,,,,,sub_369,2024-03-10_11h54.46.530,Reversal,2023.1.3,60.03445978000417,1,
7,exp3.png,exp4.png,,2,0,2,0,0,7,7,7,,,,,,,,,,,,,,,,,,,,,,,,,False,46,47,False,exp3.png,exp4.png,trial_left_image,1,exp3.png,1,exp3.png,exp4.png,1,1,non-reversed,correct,0.93034984319235,1,valid_win,343.2153280000002,27,,,,,,,,,,,,,,,,,,sub_369,2024-03-10_11h54.46.530,Reversal,2023.1.3,60.03445978000417,1,
8,exp1.png,exp2.png,,2,0,2,0,0,8,8,8,,,,,,,,,,,,,,,,,,,,,,,,,False,47,48,False,exp1.png,exp2.png,trial_right_image,-1,exp2.png,1,exp1.png,exp2.png,0,4,reversed,incorrect,0.06195965442579421,1,invalid_win,348.0636301000004,28,,,,,,,,,,,,,,,,,,sub_369,2024-03-10_11h54.46.530,Reversal,2023.1.3,60.03445978000417,1,
9,exp3.png,exp4.png,,2,0,2,0,0,9,9,9,,,,,,,,,,,,,,,,,,,,,,,,,False,48,49,True,exp4.png,exp3.png,trial_right_image,-1,exp3.png,1,exp3.png,exp4.png,1,1,non-reversed,correct,0.21839950024786947,0,invalid_lose,355.1113242000001,28,,,,,,,,,,,,,,,,,,sub_369,2024-03-10_11h54.46.530,Reversal,2023.1.3,60.03445978000417,1,
10,exp1.png,exp2.png,,2,0,2,0,0,10,10,10,,,,,,,,,,,,,,,,,,,,,,,,,False,49,50,True,exp2.png,exp1.png,trial_left_image,1,exp2.png,1,exp1.png,exp2.png,0,4,reversed,incorrect,0.7185321053934322,0,valid_lose,360.2257840000002,28,,,,,,,,,,,,,,,,,,sub_369,2024-03-10_11h54.46.530,Reversal,2023.1.3,60.03445978000417,1,
11,exp3.png,exp4.png,,2,0,2,0,0,11,11,11,,,,,,,,,,,,,,,,,,,,,,,,,False,50,51,False,exp3.png,exp4.png,trial_left_image,1,exp3.png,1,exp3.png,exp4.png,1,1,non-reversed,correct,0.15947567149918707,0,invalid_lose,365.3082026000002,28,,,,,,,,,,,,,,,,,,sub_369,2024-03-10_11h54.46.530,Reversal,2023.1.3,60.03445978000417,1,
12,exp1.png,exp2.png,,2,0,2,0,0,12,12,12,,,,,,,,,,,,,,,,,,,,,,,,,False,51,52,False,exp1.png,exp2.png,trial_right_image,-1,exp2.png,1,exp1.png,exp2.png,0,4,reversed,incorrect,0.29421673570366225,0,valid_lose,369.55583840000054,28,,,,,,,,,,,,,,,,,,sub_369,2024-03-10_11h54.46.530,Reversal,2023.1.3,60.03445978000417,1,
13,exp3.png,exp4.png,,2,0,2,0,0,13,13,13,,,,,,,,,,,,,,,,,,,,,,,,,False,52,53,False,exp3.png,exp4.png,trial_left_image,1,exp3.png,1,exp3.png,exp4.png,1,1,non-reversed,correct,0.233802549964794,0,invalid_lose,375.5044289000007,28,,,,,,,,,,,,,,,,,,sub_369,2024-03-10_11h54.46.530,Reversal,2023.1.3,60.03445978000417,1,
14,exp1.png,exp2.png,,2,0,2,0,0,14,14,14,,,,,,,,,,,,,,,,,,,,,,,,,False,53,54,True,exp2.png,exp1.png,trial_right_image,-1,exp1.png,1,exp1.png,exp2.png,1,3,reversed,correct,0.9919159366033826,1,valid_win,379.70273799999995,29,,,,,,,,,,,,,,,,,,sub_369,2024-03-10_11h54.46.530,Reversal,2023.1.3,60.03445978000417,1,
15,exp3.png,exp4.png,,2,0,2,0,0,15,15,15,,,,,,,,,,,,,,,,,,,,,,,,,False,54,55,False,exp3.png,exp4.png,trial_right_image,-1,exp4.png,1,exp3.png,exp4.png,0,2,non-reversed,incorrect,0.2031864154693358,1,invalid_win,383.9510545000003,30,,,,,,,,,,,,,,,,,,sub_369,2024-03-10_11h54.46.530,Reversal,2023.1.3,60.03445978000417,1,
16,exp1.png,exp2.png,,2,0,2,0,0,16,16,16,,,,,,,,,,,,,,,,,,,,,,,,,False,55,56,True,exp2.png,exp1.png,trial_right_image,-1,exp1.png,1,exp1.png,exp2.png,1,3,reversed,correct,0.021801003985563838,0,invalid_lose,389.1323757,30,,,,,,,,,,,,,,,,,,sub_369,2024-03-10_11h54.46.530,Reversal,2023.1.3,60.03445978000417,1,
17,exp3.png,exp4.png,,2,0,2,0,0,17,17,17,,,,,,,,,,,,,,,,,,,,,,,,,False,56,57,False,exp3.png,exp4.png,trial_left_image,1,exp3.png,1,exp3.png,exp4.png,1,1,non-reversed,correct,0.10181493575522327,0,invalid_lose,393.34770670000034,30,,,,,,,,,,,,,,,,,,sub_369,2024-03-10_11h54.46.530,Reversal,2023.1.3,60.03445978000417,1,
18,exp1.png,exp2.png,,2,0,2,0,0,18,18,18,,,,,,,,,,,,,,,,,,,,,,,,,False,57,58,True,exp2.png,exp1.png,trial_right_image,-1,exp1.png,1,exp1.png,exp2.png,1,3,reversed,correct,0.913219951190143,1,valid_win,397.9129352,31,,,,,,,,,,,,,,,,,,sub_369,2024-03-10_11h54.46.530,Reversal,2023.1.3,60.03445978000417,1,
19,exp3.png,exp4.png,,2,0,2,0,0,19,19,19,,,,,,,,,,,,,,,,,,,,,,,,,False,58,59,True,exp4.png,exp3.png,trial_right_image,-1,exp3.png,1,exp3.png,exp4.png,1,1,non-reversed,correct,0.07674913345894963,0,invalid_lose,402.6775770000004,31,,,,,,,,,,,,,,,,,,sub_369,2024-03-10_11h54.46.530,Reversal,2023.1.3,60.03445978000417,1,
20,exp1.png,exp2.png,,2,0,2,0,0,20,20,20,,,,,,,,,,,,,,,,,,,,,,,,,False,59,60,False,exp1.png,exp2.png,trial_left_image,1,exp1.png,1,exp1.png,exp2.png,1,3,reversed,correct,0.36655892226899134,1,valid_win,408.34247440000036,32,,,,,,,,,,,,,,,,,,sub_369,2024-03-10_11h54.46.530,Reversal,2023.1.3,60.03445978000417,1,
,,,exp1.png,2,0,2,0,,,,,0,0,0,0,0,0,0,0,,,,,,,,,,,,,,,,,,,,,,,,,,,,,,,,,,,,,,495.3643869000007,85.0,85.0,25.991284100000485,"[(85.0, 25.991284100000485)]",,,,,,,,,,,,,sub_369,2024-03-10_11h54.46.530,Reversal,2023.1.3,60.03445978000417,1,
,,,exp2.png,2,0,2,0,,,,,0,0,0,0,0,1,1,1,,,,,,,,,,,,,,,,,,,,,,,,,,,,,,,,,,,,,,522.4401702000005,,15.0,2.627369799999542,"[(15.0, 2.627369799999542)]",15.0,,,,,,,,,,,,sub_369,2024-03-10_11h54.46.530,Reversal,2023.1.3,60.03445978000417,1,
,,,exp3.png,2,0,2,0,,,,,0,0,0,0,0,2,2,2,,,,,,,,,,,,,,,,,,,,,,,,,,,,,,,,,,,,,,526.1432628000002,,79.0,2.83978180000031,"[(79.0, 2.83978180000031)]",,79.0,,,,,,,,,,,sub_369,2024-03-10_11h54.46.530,Reversal,2023.1.3,60.03445978000417,1,
,,,exp4.png,2,0,2,0,,,,,0,0,0,0,0,3,3,3,,,,,,,,,,,,,,,,,,,,,,,,,,,,,,,,,,,,,,530.0364356,,20.0,1.4295216000000437,"[(20.0, 1.4295216000000437)]",,,20.0,,,,,,,,,,sub_369,2024-03-10_11h54.46.530,Reversal,2023.1.3,60.03445978000417,1,
0,exp1.png,exp2.png,,3,0,3,0,0,0,0,0,,,,,,,,,,,,,,,,,,,,,,,,,True,,,,,,,,,,,,,,,,,,,,,,,,,,,,,,,,,,,,,,sub_369,2024-03-10_11h54.46.530,Reversal,2023.1.3,60.03445978000417,1,
1,exp3.png,exp4.png,,3,0,3,0,0,1,1,1,,,,,,,,,,,,,,,,,,,,,,,,,False,60,61,True,exp4.png,exp3.png,trial_right_image,-1,exp3.png,1,exp3.png,exp4.png,1,1,non-reversed,correct,0.6179915207267571,1,valid_win,451.5617267000007,33,,,,,,,,,,,,,,,,,,sub_369,2024-03-10_11h54.46.530,Reversal,2023.1.3,60.03445978000417,1,
2,exp1.png,exp2.png,,3,0,3,0,0,2,2,2,,,,,,,,,,,,,,,,,,,,,,,,,False,61,62,True,exp2.png,exp1.png,trial_right_image,-1,exp1.png,1,exp1.png,exp2.png,1,3,reversed,correct,0.5191945551809647,1,valid_win,456.6763733000007,34,,,,,,,,,,,,,,,,,,sub_369,2024-03-10_11h54.46.530,Reversal,2023.1.3,60.03445978000417,1,
3,exp3.png,exp4.png,,3,0,3,0,0,3,3,3,,,,,,,,,,,,,,,,,,,,,,,,,False,62,63,False,exp3.png,exp4.png,trial_left_image,1,exp3.png,1,exp3.png,exp4.png,1,1,non-reversed,correct,0.27036132405298774,1,valid_win,462.89120230000026,35,,,,,,,,,,,,,,,,,,sub_369,2024-03-10_11h54.46.530,Reversal,2023.1.3,60.03445978000417,1,
4,exp1.png,exp2.png,,3,0,3,0,0,4,4,4,,,,,,,,,,,,,,,,,,,,,,,,,False,63,64,True,exp2.png,exp1.png,trial_right_image,-1,exp1.png,1,exp1.png,exp2.png,1,3,reversed,correct,0.6682375215062715,1,valid_win,467.5557821000002,36,,,,,,,,,,,,,,,,,,sub_369,2024-03-10_11h54.46.530,Reversal,2023.1.3,60.03445978000417,1,
5,exp3.png,exp4.png,,3,0,3,0,0,5,5,5,,,,,,,,,,,,,,,,,,,,,,,,,False,64,65,True,exp4.png,exp3.png,trial_right_image,-1,exp3.png,1,exp3.png,exp4.png,1,1,non-reversed,correct,0.022507330495418754,0,invalid_lose,472.4210920000005,36,,,,,,,,,,,,,,,,,,sub_369,2024-03-10_11h54.46.530,Reversal,2023.1.3,60.03445978000417,1,
6,exp1.png,exp2.png,,3,0,3,0,0,6,6,6,,,,,,,,,,,,,,,,,,,,,,,,,False,65,66,False,exp1.png,exp2.png,trial_left_image,1,exp1.png,1,exp1.png,exp2.png,1,3,reversed,correct,0.6739507498265251,1,valid_win,480.7347587000004,37,,,,,,,,,,,,,,,,,,sub_369,2024-03-10_11h54.46.530,Reversal,2023.1.3,60.03445978000417,1,
7,exp3.png,exp4.png,,3,0,3,0,0,7,7,7,,,,,,,,,,,,,,,,,,,,,,,,,False,66,67,False,exp3.png,exp4.png,trial_left_image,1,exp3.png,1,exp3.png,exp4.png,1,1,non-reversed,correct,0.4019165354300771,1,valid_win,485.79991080000036,38,,,,,,,,,,,,,,,,,,sub_369,2024-03-10_11h54.46.530,Reversal,2023.1.3,60.03445978000417,1,
8,exp1.png,exp2.png,,3,0,3,0,0,8,8,8,,,,,,,,,,,,,,,,,,,,,,,,,False,67,68,True,exp2.png,exp1.png,trial_left_image,1,exp2.png,1,exp1.png,exp2.png,0,4,reversed,incorrect,0.6251771934713384,0,valid_lose,492.1983031,38,,,,,,,,,,,,,,,,,,sub_369,2024-03-10_11h54.46.530,Reversal,2023.1.3,60.03445978000417,1,
9,exp3.png,exp4.png,,3,0,3,0,0,9,9,9,,,,,,,,,,,,,,,,,,,,,,,,,False,68,69,False,exp3.png,exp4.png,trial_right_image,-1,exp4.png,1,exp3.png,exp4.png,0,2,non-reversed,incorrect,0.1262942757153035,1,invalid_win,496.2294397000005,39,,,,,,,,,,,,,,,,,,sub_369,2024-03-10_11h54.46.530,Reversal,2023.1.3,60.03445978000417,1,
10,exp1.png,exp2.png,,3,0,3,0,0,10,10,10,,,,,,,,,,,,,,,,,,,,,,,,,False,69,70,True,exp2.png,exp1.png,trial_right_image,-1,exp1.png,1,exp1.png,exp2.png,1,3,reversed,correct,0.45343463223751956,1,valid_win,500.97947470000054,40,,,,,,,,,,,,,,,,,,sub_369,2024-03-10_11h54.46.530,Reversal,2023.1.3,60.03445978000417,1,
11,exp3.png,exp4.png,,3,0,3,0,0,11,11,11,,,,,,,,,,,,,,,,,,,,,,,,,False,70,71,True,exp4.png,exp3.png,trial_left_image,1,exp4.png,1,exp3.png,exp4.png,0,2,non-reversed,incorrect,0.08565637344618826,1,invalid_win,509.7751437000006,41,,,,,,,,,,,,,,,,,,sub_369,2024-03-10_11h54.46.530,Reversal,2023.1.3,60.03445978000417,1,
12,exp1.png,exp2.png,,3,0,3,0,0,12,12,12,,,,,,,,,,,,,,,,,,,,,,,,,False,71,72,False,exp1.png,exp2.png,trial_left_image,1,exp1.png,1,exp1.png,exp2.png,1,3,reversed,correct,0.09603961778330761,0,invalid_lose,514.2067815,41,,,,,,,,,,,,,,,,,,sub_369,2024-03-10_11h54.46.530,Reversal,2023.1.3,60.03445978000417,1,
13,exp3.png,exp4.png,,3,0,3,0,0,13,13,13,,,,,,,,,,,,,,,,,,,,,,,,,False,72,73,False,exp3.png,exp4.png,trial_right_image,-1,exp4.png,1,exp3.png,exp4.png,0,2,non-reversed,incorrect,0.31193387572367515,0,valid_lose,518.2553737000007,41,,,,,,,,,,,,,,,,,,sub_369,2024-03-10_11h54.46.530,Reversal,2023.1.3,60.03445978000417,1,
14,exp1.png,exp2.png,,3,0,3,0,0,14,14,14,,,,,,,,,,,,,,,,,,,,,,,,,False,73,74,False,exp1.png,exp2.png,trial_right_image,-1,exp2.png,1,exp1.png,exp2.png,0,4,reversed,incorrect,0.16651718549304584,1,invalid_win,522.2873473,42,,,,,,,,,,,,,,,,,,sub_369,2024-03-10_11h54.46.530,Reversal,2023.1.3,60.03445978000417,1,
15,exp3.png,exp4.png,,3,0,3,0,0,15,15,15,,,,,,,,,,,,,,,,,,,,,,,,,False,74,75,True,exp4.png,exp3.png,trial_right_image,-1,exp3.png,1,exp3.png,exp4.png,1,1,non-reversed,correct,0.7171606979912694,1,valid_win,527.0859234,43,,,,,,,,,,,,,,,,,,sub_369,2024-03-10_11h54.46.530,Reversal,2023.1.3,60.03445978000417,1,
16,exp1.png,exp2.png,,3,0,3,0,0,16,16,16,,,,,,,,,,,,,,,,,,,,,,,,,False,75,76,True,exp2.png,exp1.png,trial_right_image,-1,exp1.png,1,exp1.png,exp2.png,1,3,reversed,correct,0.3343512031143453,1,valid_win,532.3341682999999,44,,,,,,,,,,,,,,,,,,sub_369,2024-03-10_11h54.46.530,Reversal,2023.1.3,60.03445978000417,1,
17,exp3.png,exp4.png,,3,0,3,0,0,17,17,17,,,,,,,,,,,,,,,,,,,,,,,,,False,76,77,True,exp4.png,exp3.png,trial_left_image,1,exp4.png,1,exp3.png,exp4.png,0,2,non-reversed,incorrect,0.001545335100347045,1,invalid_win,537.2492191000001,45,,,,,,,,,,,,,,,,,,sub_369,2024-03-10_11h54.46.530,Reversal,2023.1.3,60.03445978000417,1,
18,exp1.png,exp2.png,,3,0,3,0,0,18,18,18,,,,,,,,,,,,,,,,,,,,,,,,,False,77,78,False,exp1.png,exp2.png,trial_right_image,-1,exp2.png,1,exp1.png,exp2.png,0,4,reversed,incorrect,0.6639002257959616,0,valid_lose,541.6310100000001,45,,,,,,,,,,,,,,,,,,sub_369,2024-03-10_11h54.46.530,Reversal,2023.1.3,60.03445978000417,1,
19,exp3.png,exp4.png,,3,0,3,0,0,19,19,19,,,,,,,,,,,,,,,,,,,,,,,,,False,78,79,False,exp3.png,exp4.png,trial_left_image,1,exp3.png,1,exp3.png,exp4.png,1,1,non-reversed,correct,0.5934965086619529,1,valid_win,546.8126226000004,46,,,,,,,,,,,,,,,,,,sub_369,2024-03-10_11h54.46.530,Reversal,2023.1.3,60.03445978000417,1,
20,exp1.png,exp2.png,,3,0,3,0,0,20,20,20,,,,,,,,,,,,,,,,,,,,,,,,,False,79,80,False,exp1.png,exp2.png,trial_left_image,1,exp1.png,1,exp1.png,exp2.png,1,3,reversed,correct,0.9847242654820675,1,valid_win,555.2933659,47,,,,,,,,,,,,,,,,,,sub_369,2024-03-10_11h54.46.530,Reversal,2023.1.3,60.03445978000417,1,
,,,exp1.png,3,0,3,0,,,,,0,0,0,0,0,0,0,0,,,,,,,,,,,,,,,,,,,,,,,,,,,,,,,,,,,,,,642.3050805000003,80.0,80.0,14.037021099999947,"[(80.0, 14.037021099999947)]",,,,,,,,,,,,,sub_369,2024-03-10_11h54.46.530,Reversal,2023.1.3,60.03445978000417,1,
,,,exp2.png,3,0,3,0,,,,,0,0,0,0,0,1,1,1,,,,,,,,,,,,,,,,,,,,,,,,,,,,,,,,,,,,,,657.7277354000007,,22.0,2.2276128000003155,"[(22.0, 2.2276128000003155)]",22.0,,,,,,,,,,,,sub_369,2024-03-10_11h54.46.530,Reversal,2023.1.3,60.03445978000417,1,
,,,exp3.png,3,0,3,0,,,,,0,0,0,0,0,2,2,2,,,,,,,,,,,,,,,,,,,,,,,,,,,,,,,,,,,,,,660.9765537000003,,75.0,2.66355620000013,"[(75.0, 2.66355620000013)]",,75.0,,,,,,,,,,,sub_369,2024-03-10_11h54.46.530,Reversal,2023.1.3,60.03445978000417,1,
,,,exp4.png,3,0,3,0,,,,,0,0,0,0,0,3,3,3,,,,,,,,,,,,,,,,,,,,,,,,,,,,,,,,,,,,,,664.7434049000003,,25.0,1.293306599999596,"[(25.0, 1.293306599999596)]",,,25.0,,,,,,,,,,sub_369,2024-03-10_11h54.46.530,Reversal,2023.1.3,60.03445978000417,1,
0,exp1.png,exp2.png,,,,,,,,,,,,,,,,,,0,0,0,0,0,0,0,0,,,,,,,,,True,,,,,,,,,,,,,,,,,,,,,,,,,,,,,,,,,,,,,,sub_369,2024-03-10_11h54.46.530,Reversal,2023.1.3,60.03445978000417,1,
1,exp3.png,exp4.png,,,,,,,,,,,,,,,,,,0,0,0,0,0,1,1,1,,,,,,,,,False,0,81,True,exp4.png,exp3.png,trial_right_image,-1,exp3.png,1,exp3.png,exp4.png,1,1,non-reversed,correct,0.26962414540005375,1,valid_win,585.7830204000002,48,,,,,,,,,582.6829438000004,,,,,,,,,sub_369,2024-03-10_11h54.46.530,Reversal,2023.1.3,60.03445978000417,1,
2,exp1.png,exp2.png,,,,,,,,,,,,,,,,,,0,0,0,0,0,2,2,2,,,,,,,,,False,1,82,False,exp1.png,exp2.png,trial_left_image,1,exp1.png,1,exp2.png,exp1.png,1,3,reversed,incorrect,0.29298592973483684,0,valid_lose,591.8659379999999,48,,,,,,,,,,,,,,,,,,sub_369,2024-03-10_11h54.46.530,Reversal,2023.1.3,60.03445978000417,1,
3,exp3.png,exp4.png,,,,,,,,,,,,,,,,,,0,0,0,0,0,3,3,3,,,,,,,,,False,2,83,True,exp4.png,exp3.png,trial_right_image,-1,exp3.png,1,exp3.png,exp4.png,1,1,non-reversed,correct,0.2860644419924152,1,valid_win,595.9792465999999,49,,,,,,,,,,,,,,,,,,sub_369,2024-03-10_11h54.46.530,Reversal,2023.1.3,60.03445978000417,1,
4,exp1.png,exp2.png,,,,,,,,,,,,,,,,,,0,0,0,0,0,4,4,4,,,,,,,,,False,3,84,False,exp1.png,exp2.png,trial_left_image,1,exp1.png,1,exp2.png,exp1.png,1,3,reversed,incorrect,0.7838393968935355,0,valid_lose,600.4611616000002,49,,,,,,,,,,,,,,,,,,sub_369,2024-03-10_11h54.46.530,Reversal,2023.1.3,60.03445978000417,1,
5,exp3.png,exp4.png,,,,,,,,,,,,,,,,,,0,0,0,0,0,5,5,5,,,,,,,,,False,4,85,True,exp4.png,exp3.png,trial_right_image,-1,exp3.png,1,exp3.png,exp4.png,1,1,non-reversed,correct,0.09826031548868264,0,invalid_lose,605.0929960000003,49,,,,,,,,,,,,,,,,,,sub_369,2024-03-10_11h54.46.530,Reversal,2023.1.3,60.03445978000417,1,
6,exp1.png,exp2.png,,,,,,,,,,,,,,,,,,0,0,0,0,0,6,6,6,,,,,,,,,False,5,86,False,exp1.png,exp2.png,trial_left_image,1,exp1.png,1,exp2.png,exp1.png,1,3,reversed,incorrect,0.8200375957553103,0,valid_lose,610.2741106000003,49,,,,,,,,,,,,,,,,,,sub_369,2024-03-10_11h54.46.530,Reversal,2023.1.3,60.03445978000417,1,
7,exp3.png,exp4.png,,,,,,,,,,,,,,,,,,0,0,0,0,0,7,7,7,,,,,,,,,False,6,87,True,exp4.png,exp3.png,trial_right_image,-1,exp3.png,1,exp3.png,exp4.png,1,1,non-reversed,correct,0.7868154408729819,1,valid_win,614.6896332000006,50,,,,,,,,,,,,,,,,,,sub_369,2024-03-10_11h54.46.530,Reversal,2023.1.3,60.03445978000417,1,
8,exp1.png,exp2.png,,,,,,,,,,,,,,,,,,0,0,0,0,0,8,8,8,,,,,,,,,False,7,88,True,exp2.png,exp1.png,trial_right_image,-1,exp1.png,1,exp2.png,exp1.png,1,3,reversed,incorrect,0.5033424801206735,0,valid_lose,619.2048732000003,50,,,,,,,,,,,,,,,,,,sub_369,2024-03-10_11h54.46.530,Reversal,2023.1.3,60.03445978000417,1,
9,exp3.png,exp4.png,,,,,,,,,,,,,,,,,,0,0,0,0,0,9,9,9,,,,,,,,,False,8,89,False,exp3.png,exp4.png,trial_right_image,-1,exp4.png,1,exp3.png,exp4.png,0,2,non-reversed,incorrect,0.18992371974990807,1,invalid_win,624.5036775000008,51,,,,,,,,,,,,,,,,,,sub_369,2024-03-10_11h54.46.530,Reversal,2023.1.3,60.03445978000417,1,
10,exp1.png,exp2.png,,,,,,,,,,,,,,,,,,0,0,0,0,0,10,10,10,,,,,,,,,False,9,90,True,exp2.png,exp1.png,trial_right_image,-1,exp1.png,1,exp2.png,exp1.png,1,3,reversed,incorrect,0.38889213781577303,0,valid_lose,633.3498298000004,51,,,,,,,,,,,,,,,,,,sub_369,2024-03-10_11h54.46.530,Reversal,2023.1.3,60.03445978000417,1,
11,exp3.png,exp4.png,,,,,,,,,,,,,,,,,,0,0,0,0,0,11,11,11,,,,,,,,,False,10,91,True,exp4.png,exp3.png,trial_left_image,1,exp4.png,1,exp3.png,exp4.png,0,2,non-reversed,incorrect,0.09474034383265728,1,invalid_win,640.8803803999999,52,,,,,,,,,,,,,,,,,,sub_369,2024-03-10_11h54.46.530,Reversal,2023.1.3,60.03445978000417,1,
12,exp1.png,exp2.png,,,,,,,,,,,,,,,,,,0,0,0,0,0,12,12,12,,,,,,,,,False,11,92,False,exp1.png,exp2.png,trial_left_image,1,exp1.png,1,exp2.png,exp1.png,1,3,reversed,incorrect,0.08142518631166307,1,invalid_win,648.1956537000005,53,,,,,,,,,,,,,,,,,,sub_369,2024-03-10_11h54.46.530,Reversal,2023.1.3,60.03445978000417,1,
13,exp3.png,exp4.png,,,,,,,,,,,,,,,,,,0,0,0,0,0,13,13,13,,,,,,,,,False,12,93,True,exp4.png,exp3.png,trial_left_image,1,exp4.png,1,exp3.png,exp4.png,0,2,non-reversed,incorrect,0.8933353611330056,0,valid_lose,659.8907062000007,53,,,,,,,,,,,,,,,,,,sub_369,2024-03-10_11h54.46.530,Reversal,2023.1.3,60.03445978000417,1,
14,exp1.png,exp2.png,,,,,,,,,,,,,,,,,,0,0,0,0,0,14,14,14,,,,,,,,,False,13,94,True,exp2.png,exp1.png,trial_right_image,-1,exp1.png,1,exp2.png,exp1.png,1,3,reversed,incorrect,0.9348534775655691,0,valid_lose,664.0232182,53,,,,,,,,,,,,,,,,,,sub_369,2024-03-10_11h54.46.530,Reversal,2023.1.3,60.03445978000417,1,
15,exp3.png,exp4.png,,,,,,,,,,,,,,,,,,0,0,0,0,0,15,15,15,,,,,,,,,False,14,95,False,exp3.png,exp4.png,trial_left_image,1,exp3.png,1,exp3.png,exp4.png,1,1,non-reversed,correct,0.31160348617618017,1,valid_win,668.2710836000006,54,,,,,,,,,,,,,,,,,,sub_369,2024-03-10_11h54.46.530,Reversal,2023.1.3,60.03445978000417,1,
16,exp1.png,exp2.png,,,,,,,,,,,,,,,,,,0,0,0,0,0,16,16,16,,,,,,,,,False,15,96,False,exp1.png,exp2.png,trial_left_image,1,exp1.png,1,exp2.png,exp1.png,1,3,reversed,incorrect,0.1766775926544577,1,invalid_win,673.2363751000003,55,,,,,,,,,,,,,,,,,,sub_369,2024-03-10_11h54.46.530,Reversal,2023.1.3,60.03445978000417,1,
17,exp3.png,exp4.png,,,,,,,,,,,,,,,,,,0,0,0,0,0,17,17,17,,,,,,,,,False,16,97,True,exp4.png,exp3.png,trial_left_image,1,exp4.png,1,exp3.png,exp4.png,0,2,non-reversed,incorrect,0.27805392929759254,0,valid_lose,690.5646130000005,55,,,,,,,,,,,,,,,,,,sub_369,2024-03-10_11h54.46.530,Reversal,2023.1.3,60.03445978000417,1,
18,exp1.png,exp2.png,,,,,,,,,,,,,,,,,,0,0,0,0,0,18,18,18,,,,,,,,,False,17,98,False,exp1.png,exp2.png,trial_left_image,1,exp1.png,1,exp2.png,exp1.png,1,3,reversed,incorrect,0.3525261104118539,0,valid_lose,694.8789559000006,55,,,,,,,,,,,,,,,,,,sub_369,2024-03-10_11h54.46.530,Reversal,2023.1.3,60.03445978000417,1,
19,exp3.png,exp4.png,,,,,,,,,,,,,,,,,,0,0,0,0,0,19,19,19,,,,,,,,,False,18,99,False,exp3.png,exp4.png,trial_right_image,-1,exp4.png,1,exp3.png,exp4.png,0,2,non-reversed,incorrect,0.47206132631608266,0,valid_lose,698.7443168,55,,,,,,,,,,,,,,,,,,sub_369,2024-03-10_11h54.46.530,Reversal,2023.1.3,60.03445978000417,1,
20,exp1.png,exp2.png,,,,,,,,,,,,,,,,,,0,0,0,0,0,20,20,20,,,,,,,,,False,19,100,False,exp1.png,exp2.png,trial_left_image,1,exp1.png,1,exp2.png,exp1.png,1,3,reversed,incorrect,0.21966649107362635,1,invalid_win,704.0760060000002,56,,,,,,,,,,,,,,,,,,sub_369,2024-03-10_11h54.46.530,Reversal,2023.1.3,60.03445978000417,1,
,,,exp1.png,,,,,,,,,,,,,,,,,0,0,0,0,,,,,0,0,0,0,0,0,0,0,,,,,,,,,,,,,,,,,,,,,,791.1013927000004,,None,None,[],,,,,,,,,,,,,sub_369,2024-03-10_11h54.46.530,Reversal,2023.1.3,60.03445978000417,1,
,,,exp2.png,,,,,,,,,,,,,,,,,0,0,0,0,,,,,0,0,0,0,0,1,1,1,,,,,,,,,,,,,,,,,,,,,,800.7113694,,None,None,[],,,,,,,,,,,,,sub_369,2024-03-10_11h54.46.530,Reversal,2023.1.3,60.03445978000417,1,
,,,exp3.png,,,,,,,,,,,,,,,,,0,0,0,0,,,,,0,0,0,0,0,2,2,2,,,,,,,,,,,,,,,,,,,,,,802.0865927000004,,None,None,[],,,,,,,,,,,,,sub_369,2024-03-10_11h54.46.530,Reversal,2023.1.3,60.03445978000417,1,
,,,exp4.png,,,,,,,,,,,,,,,,,0,0,0,0,,,,,0,0,0,0,0,3,3,3,,,,,,,,,,,,,,,,,,,,,,803.4120255000007,,None,None,[],,,,,,,,,,,,,sub_369,2024-03-10_11h54.46.530,Reversal,2023.1.3,60.03445978000417,1,
0,exp1.png,exp2.png,,,,,,,,,,,,,,,,,,1,0,1,0,0,0,0,0,,,,,,,,,True,,,,,,,,,,,,,,,,,,,,,,,,,,,,,,,,,,,,,,sub_369,2024-03-10_11h54.46.530,Reversal,2023.1.3,60.03445978000417,1,
1,exp3.png,exp4.png,,,,,,,,,,,,,,,,,,1,0,1,0,0,1,1,1,,,,,,,,,False,20,101,True,exp4.png,exp3.png,trial_right_image,-1,exp3.png,1,exp3.png,exp4.png,1,1,non-reversed,correct,0.7357513850000897,1,valid_win,722.9032624000001,57,,,,,,,,,,,,,,,,,,sub_369,2024-03-10_11h54.46.530,Reversal,2023.1.3,60.03445978000417,1,
2,exp1.png,exp2.png,,,,,,,,,,,,,,,,,,1,0,1,0,0,2,2,2,,,,,,,,,False,21,102,True,exp2.png,exp1.png,trial_right_image,-1,exp1.png,1,exp2.png,exp1.png,1,3,reversed,incorrect,0.3194964964827469,0,valid_lose,730.0340646000004,57,,,,,,,,,,,,,,,,,,sub_369,2024-03-10_11h54.46.530,Reversal,2023.1.3,60.03445978000417,1,
3,exp3.png,exp4.png,,,,,,,,,,,,,,,,,,1,0,1,0,0,3,3,3,,,,,,,,,False,22,103,True,exp4.png,exp3.png,trial_left_image,1,exp4.png,1,exp3.png,exp4.png,0,2,non-reversed,incorrect,0.16614838275029353,1,invalid_win,734.3329264000004,58,,,,,,,,,,,,,,,,,,sub_369,2024-03-10_11h54.46.530,Reversal,2023.1.3,60.03445978000417,1,
4,exp1.png,exp2.png,,,,,,,,,,,,,,,,,,1,0,1,0,0,4,4,4,,,,,,,,,False,23,104,True,exp2.png,exp1.png,trial_left_image,1,exp2.png,1,exp2.png,exp1.png,0,4,reversed,correct,0.10188238417424322,0,invalid_lose,741.3629506000007,58,,,,,,,,,,,,,,,,,,sub_369,2024-03-10_11h54.46.530,Reversal,2023.1.3,60.03445978000417,1,
5,exp3.png,exp4.png,,,,,,,,,,,,,,,,,,1,0,1,0,0,5,5,5,,,,,,,,,False,24,105,False,exp3.png,exp4.png,trial_right_image,-1,exp4.png,1,exp3.png,exp4.png,0,2,non-reversed,incorrect,0.6690617061293924,0,valid_lose,747.7446038000007,58,,,,,,,,,,,,,,,,,,sub_369,2024-03-10_11h54.46.530,Reversal,2023.1.3,60.03445978000417,1,
6,exp1.png,exp2.png,,,,,,,,,,,,,,,,,,1,0,1,0,0,6,6,6,,,,,,,,,False,25,106,False,exp1.png,exp2.png,trial_left_image,1,exp1.png,1,exp2.png,exp1.png,1,3,reversed,incorrect,0.40676247698566614,0,valid_lose,752.0599961000007,58,,,,,,,,,,,,,,,,,,sub_369,2024-03-10_11h54.46.530,Reversal,2023.1.3,60.03445978000417,1,
7,exp3.png,exp4.png,,,,,,,,,,,,,,,,,,1,0,1,0,0,7,7,7,,,,,,,,,False,26,107,True,exp4.png,exp3.png,trial_left_image,1,exp4.png,1,exp3.png,exp4.png,0,2,non-reversed,incorrect,0.40953824294391505,0,valid_lose,757.0256487000006,58,,,,,,,,,,,,,,,,,,sub_369,2024-03-10_11h54.46.530,Reversal,2023.1.3,60.03445978000417,1,
8,exp1.png,exp2.png,,,,,,,,,,,,,,,,,,1,0,1,0,0,8,8,8,,,,,,,,,False,27,108,False,exp1.png,exp2.png,trial_right_image,-1,exp2.png,1,exp2.png,exp1.png,0,4,reversed,correct,0.5485871073412151,1,valid_win,761.3068006000003,59,,,,,,,,,,,,,,,,,,sub_369,2024-03-10_11h54.46.530,Reversal,2023.1.3,60.03445978000417,1,
9,exp3.png,exp4.png,,,,,,,,,,,,,,,,,,1,0,1,0,0,9,9,9,,,,,,,,,False,28,109,True,exp4.png,exp3.png,trial_right_image,-1,exp3.png,1,exp3.png,exp4.png,1,1,non-reversed,correct,0.8679338193302244,1,valid_win,766.1381773000003,60,,,,,,,,,,,,,,,,,,sub_369,2024-03-10_11h54.46.530,Reversal,2023.1.3,60.03445978000417,1,
10,exp1.png,exp2.png,,,,,,,,,,,,,,,,,,1,0,1,0,0,10,10,10,,,,,,,,,False,29,110,False,exp1.png,exp2.png,trial_right_image,-1,exp2.png,1,exp2.png,exp1.png,0,4,reversed,correct,0.06334240456944407,0,invalid_lose,771.9860181000004,60,,,,,,,,,,,,,,,,,,sub_369,2024-03-10_11h54.46.530,Reversal,2023.1.3,60.03445978000417,1,
11,exp3.png,exp4.png,,,,,,,,,,,,,,,,,,1,0,1,0,0,11,11,11,,,,,,,,,False,30,111,False,exp3.png,exp4.png,trial_right_image,-1,exp4.png,1,exp3.png,exp4.png,0,2,non-reversed,incorrect,0.9251802736155083,0,valid_lose,775.9354069999999,60,,,,,,,,,,,,,,,,,,sub_369,2024-03-10_11h54.46.530,Reversal,2023.1.3,60.03445978000417,1,
12,exp1.png,exp2.png,,,,,,,,,,,,,,,,,,1,0,1,0,0,12,12,12,,,,,,,,,False,31,112,False,exp1.png,exp2.png,trial_left_image,1,exp1.png,1,exp2.png,exp1.png,1,3,reversed,incorrect,0.04512806403964287,1,invalid_win,780.1172517000005,61,,,,,,,,,,,,,,,,,,sub_369,2024-03-10_11h54.46.530,Reversal,2023.1.3,60.03445978000417,1,
13,exp3.png,exp4.png,,,,,,,,,,,,,,,,,,1,0,1,0,0,13,13,13,,,,,,,,,False,32,113,False,exp3.png,exp4.png,trial_left_image,1,exp3.png,1,exp3.png,exp4.png,1,1,non-reversed,correct,0.3906127749451034,1,valid_win,786.2983004000007,62,,,,,,,,,,,,,,,,,,sub_369,2024-03-10_11h54.46.530,Reversal,2023.1.3,60.03445978000417,1,
14,exp1.png,exp2.png,,,,,,,,,,,,,,,,,,1,0,1,0,0,14,14,14,,,,,,,,,False,33,114,True,exp2.png,exp1.png,trial_right_image,-1,exp1.png,1,exp2.png,exp1.png,1,3,reversed,incorrect,0.6298480583874038,0,valid_lose,793.4795429000005,62,,,,,,,,,,,,,,,,,,sub_369,2024-03-10_11h54.46.530,Reversal,2023.1.3,60.03445978000417,1,
15,exp3.png,exp4.png,,,,,,,,,,,,,,,,,,1,0,1,0,0,15,15,15,,,,,,,,,False,34,115,True,exp4.png,exp3.png,trial_left_image,1,exp4.png,1,exp3.png,exp4.png,0,2,non-reversed,incorrect,0.52426006337385,0,valid_lose,797.4949621000005,62,,,,,,,,,,,,,,,,,,sub_369,2024-03-10_11h54.46.530,Reversal,2023.1.3,60.03445978000417,1,
16,exp1.png,exp2.png,,,,,,,,,,,,,,,,,,1,0,1,0,0,16,16,16,,,,,,,,,False,35,116,True,exp2.png,exp1.png,trial_right_image,-1,exp1.png,1,exp2.png,exp1.png,1,3,reversed,incorrect,0.9486146293729344,0,valid_lose,802.7923181000006,62,,,,,,,,,,,,,,,,,,sub_369,2024-03-10_11h54.46.530,Reversal,2023.1.3,60.03445978000417,1,
17,exp3.png,exp4.png,,,,,,,,,,,,,,,,,,1,0,1,0,0,17,17,17,,,,,,,,,False,36,117,True,exp4.png,exp3.png,trial_right_image,-1,exp3.png,1,exp3.png,exp4.png,1,1,non-reversed,correct,0.8484316440028009,1,valid_win,808.0906380000006,63,,,,,,,,,,,,,,,,,,sub_369,2024-03-10_11h54.46.530,Reversal,2023.1.3,60.03445978000417,1,
18,exp1.png,exp2.png,,,,,,,,,,,,,,,,,,1,0,1,0,0,18,18,18,,,,,,,,,False,37,118,False,exp1.png,exp2.png,trial_right_image,-1,exp2.png,1,exp2.png,exp1.png,0,4,reversed,correct,0.8282124750000532,1,valid_win,813.2231643000005,64,,,,,,,,,,,,,,,,,,sub_369,2024-03-10_11h54.46.530,Reversal,2023.1.3,60.03445978000417,1,
19,exp3.png,exp4.png,,,,,,,,,,,,,,,,,,1,0,1,0,0,19,19,19,,,,,,,,,False,38,119,False,exp3.png,exp4.png,trial_right_image,-1,exp4.png,1,exp3.png,exp4.png,0,2,non-reversed,incorrect,0.3327023445634737,0,valid_lose,820.6867489000006,64,,,,,,,,,,,,,,,,,,sub_369,2024-03-10_11h54.46.530,Reversal,2023.1.3,60.03445978000417,1,
20,exp1.png,exp2.png,,,,,,,,,,,,,,,,,,1,0,1,0,0,20,20,20,,,,,,,,,False,39,120,False,exp1.png,exp2.png,trial_left_image,1,exp1.png,1,exp2.png,exp1.png,1,3,reversed,incorrect,0.514587223401637,0,valid_lose,824.8517544000006,64,,,,,,,,,,,,,,,,,,sub_369,2024-03-10_11h54.46.530,Reversal,2023.1.3,60.03445978000417,1,
,,,exp1.png,,,,,,,,,,,,,,,,,1,0,1,0,,,,,0,0,0,0,0,0,0,0,,,,,,,,,,,,,,,,,,,,,,911.8807600999999,,None,None,[],,,,,,,,,,,,,sub_369,2024-03-10_11h54.46.530,Reversal,2023.1.3,60.03445978000417,1,
,,,exp2.png,,,,,,,,,,,,,,,,,1,0,1,0,,,,,0,0,0,0,0,1,1,1,,,,,,,,,,,,,,,,,,,,,,921.8709509999999,,None,None,[],,,,,,,,,,,,,sub_369,2024-03-10_11h54.46.530,Reversal,2023.1.3,60.03445978000417,1,
,,,exp3.png,,,,,,,,,,,,,,,,,1,0,1,0,,,,,0,0,0,0,0,2,2,2,,,,,,,,,,,,,,,,,,,,,,922.7856568000007,,None,None,[],,,,,,,,,,,,,sub_369,2024-03-10_11h54.46.530,Reversal,2023.1.3,60.03445978000417,1,
,,,exp4.png,,,,,,,,,,,,,,,,,1,0,1,0,,,,,0,0,0,0,0,3,3,3,,,,,,,,,,,,,,,,,,,,,,923.6874075000005,,None,None,[],,,,,,,,,,,,,sub_369,2024-03-10_11h54.46.530,Reversal,2023.1.3,60.03445978000417,1,
0,exp1.png,exp2.png,,,,,,,,,,,,,,,,,,2,0,2,0,0,0,0,0,,,,,,,,,True,,,,,,,,,,,,,,,,,,,,,,,,,,,,,,,,,,,,,,sub_369,2024-03-10_11h54.46.530,Reversal,2023.1.3,60.03445978000417,1,
1,exp3.png,exp4.png,,,,,,,,,,,,,,,,,,2,0,2,0,0,1,1,1,,,,,,,,,False,40,121,False,exp3.png,exp4.png,trial_left_image,1,exp3.png,1,exp3.png,exp4.png,1,1,non-reversed,correct,0.5330670131793697,1,valid_win,843.0786320000007,65,,,,,,,,,,,,,,,,,,sub_369,2024-03-10_11h54.46.530,Reversal,2023.1.3,60.03445978000417,1,
2,exp1.png,exp2.png,,,,,,,,,,,,,,,,,,2,0,2,0,0,2,2,2,,,,,,,,,False,41,122,True,exp2.png,exp1.png,trial_left_image,1,exp2.png,1,exp2.png,exp1.png,0,4,reversed,correct,0.7825168504036223,1,valid_win,851.2097753000007,66,,,,,,,,,,,,,,,,,,sub_369,2024-03-10_11h54.46.530,Reversal,2023.1.3,60.03445978000417,1,
3,exp3.png,exp4.png,,,,,,,,,,,,,,,,,,2,0,2,0,0,3,3,3,,,,,,,,,False,42,123,True,exp4.png,exp3.png,trial_left_image,1,exp4.png,1,exp3.png,exp4.png,0,2,non-reversed,incorrect,0.2544798653133846,0,valid_lose,858.3078122000006,66,,,,,,,,,,,,,,,,,,sub_369,2024-03-10_11h54.46.530,Reversal,2023.1.3,60.03445978000417,1,
4,exp1.png,exp2.png,,,,,,,,,,,,,,,,,,2,0,2,0,0,4,4,4,,,,,,,,,False,43,124,True,exp2.png,exp1.png,trial_right_image,-1,exp1.png,1,exp2.png,exp1.png,1,3,reversed,incorrect,0.3114582043507965,0,valid_lose,868.7870705000005,66,,,,,,,,,,,,,,,,,,sub_369,2024-03-10_11h54.46.530,Reversal,2023.1.3,60.03445978000417,1,
5,exp3.png,exp4.png,,,,,,,,,,,,,,,,,,2,0,2,0,0,5,5,5,,,,,,,,,False,44,125,False,exp3.png,exp4.png,trial_right_image,-1,exp4.png,1,exp3.png,exp4.png,0,2,non-reversed,incorrect,0.28385355869332574,0,valid_lose,873.4026189000006,66,,,,,,,,,,,,,,,,,,sub_369,2024-03-10_11h54.46.530,Reversal,2023.1.3,60.03445978000417,1,
6,exp1.png,exp2.png,,,,,,,,,,,,,,,,,,2,0,2,0,0,6,6,6,,,,,,,,,False,45,126,True,exp2.png,exp1.png,trial_right_image,-1,exp1.png,1,exp2.png,exp1.png,1,3,reversed,incorrect,0.2625078822999135,0,valid_lose,878.1839699000002,66,,,,,,,,,,,,,,,,,,sub_369,2024-03-10_11h54.46.530,Reversal,2023.1.3,60.03445978000417,1,
7,exp3.png,exp4.png,,,,,,,,,,,,,,,,,,2,0,2,0,0,7,7,7,,,,,,,,,False,46,127,False,exp3.png,exp4.png,trial_left_image,1,exp3.png,1,exp3.png,exp4.png,1,1,non-reversed,correct,0.36980616752359774,1,valid_win,882.5996853000006,67,,,,,,,,,,,,,,,,,,sub_369,2024-03-10_11h54.46.530,Reversal,2023.1.3,60.03445978000417,1,
8,exp1.png,exp2.png,,,,,,,,,,,,,,,,,,2,0,2,0,0,8,8,8,,,,,,,,,False,47,128,True,exp2.png,exp1.png,trial_left_image,1,exp2.png,1,exp2.png,exp1.png,0,4,reversed,correct,0.3063741620632282,1,valid_win,892.5954821000005,68,,,,,,,,,,,,,,,,,,sub_369,2024-03-10_11h54.46.530,Reversal,2023.1.3,60.03445978000417,1,
9,exp3.png,exp4.png,,,,,,,,,,,,,,,,,,2,0,2,0,0,9,9,9,,,,,,,,,False,48,129,True,exp4.png,exp3.png,trial_right_image,-1,exp3.png,1,exp3.png,exp4.png,1,1,non-reversed,correct,0.20781274394689686,0,invalid_lose,900.7094225000001,68,,,,,,,,,,,,,,,,,,sub_369,2024-03-10_11h54.46.530,Reversal,2023.1.3,60.03445978000417,1,
10,exp1.png,exp2.png,,,,,,,,,,,,,,,,,,2,0,2,0,0,10,10,10,,,,,,,,,False,49,130,False,exp1.png,exp2.png,trial_left_image,1,exp1.png,1,exp2.png,exp1.png,1,3,reversed,incorrect,0.5541561383522712,0,valid_lose,905.3910467000005,68,,,,,,,,,,,,,,,,,,sub_369,2024-03-10_11h54.46.530,Reversal,2023.1.3,60.03445978000417,1,
11,exp3.png,exp4.png,,,,,,,,,,,,,,,,,,2,0,2,0,0,11,11,11,,,,,,,,,False,50,131,False,exp3.png,exp4.png,trial_left_image,1,exp3.png,1,exp3.png,exp4.png,1,1,non-reversed,correct,0.8464666487833045,1,valid_win,920.8359062,69,,,,,,,,,,,,,,,,,,sub_369,2024-03-10_11h54.46.530,Reversal,2023.1.3,60.03445978000417,1,
12,exp1.png,exp2.png,,,,,,,,,,,,,,,,,,2,0,2,0,0,12,12,12,,,,,,,,,False,51,132,True,exp2.png,exp1.png,trial_left_image,1,exp2.png,1,exp2.png,exp1.png,0,4,reversed,correct,0.45629433118477436,1,valid_win,931.4488813000007,70,,,,,,,,,,,,,,,,,,sub_369,2024-03-10_11h54.46.530,Reversal,2023.1.3,60.03445978000417,1,
13,exp3.png,exp4.png,,,,,,,,,,,,,,,,,,2,0,2,0,0,13,13,13,,,,,,,,,False,52,133,True,exp4.png,exp3.png,trial_left_image,1,exp4.png,1,exp3.png,exp4.png,0,2,non-reversed,incorrect,0.6461689555721923,0,valid_lose,936.1145452000001,70,,,,,,,,,,,,,,,,,,sub_369,2024-03-10_11h54.46.530,Reversal,2023.1.3,60.03445978000417,1,
14,exp1.png,exp2.png,,,,,,,,,,,,,,,,,,2,0,2,0,0,14,14,14,,,,,,,,,False,53,134,False,exp1.png,exp2.png,trial_left_image,1,exp1.png,1,exp2.png,exp1.png,1,3,reversed,incorrect,0.10684582041369894,1,invalid_win,941.4290340000007,71,,,,,,,,,,,,,,,,,,sub_369,2024-03-10_11h54.46.530,Reversal,2023.1.3,60.03445978000417,1,
15,exp3.png,exp4.png,,,,,,,,,,,,,,,,,,2,0,2,0,0,15,15,15,,,,,,,,,False,54,135,True,exp4.png,exp3.png,trial_right_image,-1,exp3.png,1,exp3.png,exp4.png,1,1,non-reversed,correct,0.8033316264157397,1,valid_win,945.4608281000001,72,,,,,,,,,,,,,,,,,,sub_369,2024-03-10_11h54.46.530,Reversal,2023.1.3,60.03445978000417,1,
16,exp1.png,exp2.png,,,,,,,,,,,,,,,,,,2,0,2,0,0,16,16,16,,,,,,,,,False,55,136,False,exp1.png,exp2.png,trial_left_image,1,exp1.png,1,exp2.png,exp1.png,1,3,reversed,incorrect,0.5514965333138153,0,valid_lose,950.5754966000004,72,,,,,,,,,,,,,,,,,,sub_369,2024-03-10_11h54.46.530,Reversal,2023.1.3,60.03445978000417,1,
17,exp3.png,exp4.png,,,,,,,,,,,,,,,,,,2,0,2,0,0,17,17,17,,,,,,,,,False,56,137,True,exp4.png,exp3.png,trial_right_image,-1,exp3.png,1,exp3.png,exp4.png,1,1,non-reversed,correct,0.6707310208855694,1,valid_win,955.0243256000003,73,,,,,,,,,,,,,,,,,,sub_369,2024-03-10_11h54.46.530,Reversal,2023.1.3,60.03445978000417,1,
18,exp1.png,exp2.png,,,,,,,,,,,,,,,,,,2,0,2,0,0,18,18,18,,,,,,,,,False,57,138,False,exp1.png,exp2.png,trial_right_image,-1,exp2.png,1,exp2.png,exp1.png,0,4,reversed,correct,0.9109853828089566,1,valid_win,959.1560851000004,74,,,,,,,,,,,,,,,,,,sub_369,2024-03-10_11h54.46.530,Reversal,2023.1.3,60.03445978000417,1,
19,exp3.png,exp4.png,,,,,,,,,,,,,,,,,,2,0,2,0,0,19,19,19,,,,,,,,,False,58,139,False,exp3.png,exp4.png,trial_left_image,1,exp3.png,1,exp3.png,exp4.png,1,1,non-reversed,correct,0.8694596277883767,1,valid_win,967.4872352000002,75,,,,,,,,,,,,,,,,,,sub_369,2024-03-10_11h54.46.530,Reversal,2023.1.3,60.03445978000417,1,
20,exp1.png,exp2.png,,,,,,,,,,,,,,,,,,2,0,2,0,0,20,20,20,,,,,,,,,False,59,140,False,exp1.png,exp2.png,trial_right_image,-1,exp2.png,1,exp2.png,exp1.png,0,4,reversed,correct,0.580988897763275,1,valid_win,972.8178049000007,76,,,,,,,,,,,,,,,,,,sub_369,2024-03-10_11h54.46.530,Reversal,2023.1.3,60.03445978000417,1,
,,,exp1.png,,,,,,,,,,,,,,,,,2,0,2,0,,,,,0,0,0,0,0,0,0,0,,,,,,,,,,,,,,,,,,,,,,1059.8397820999999,,None,None,[],,,,,,,,,,,,,sub_369,2024-03-10_11h54.46.530,Reversal,2023.1.3,60.03445978000417,1,
,,,exp2.png,,,,,,,,,,,,,,,,,2,0,2,0,,,,,0,0,0,0,0,1,1,1,,,,,,,,,,,,,,,,,,,,,,1066.5218435000006,,None,None,[],,,,,,,,,,,,,sub_369,2024-03-10_11h54.46.530,Reversal,2023.1.3,60.03445978000417,1,
,,,exp3.png,,,,,,,,,,,,,,,,,2,0,2,0,,,,,0,0,0,0,0,2,2,2,,,,,,,,,,,,,,,,,,,,,,1067.6718693000003,,None,None,[],,,,,,,,,,,,,sub_369,2024-03-10_11h54.46.530,Reversal,2023.1.3,60.03445978000417,1,
,,,exp4.png,,,,,,,,,,,,,,,,,2,0,2,0,,,,,0,0,0,0,0,3,3,3,,,,,,,,,,,,,,,,,,,,,,1068.7217309000007,,None,None,[],,,,,,,,,,,,,sub_369,2024-03-10_11h54.46.530,Reversal,2023.1.3,60.03445978000417,1,
,,,,,,,,,,,,,,,,,,,,,,,,,,,,,,,,,,,,,,,,,,,,,,,,,,,,,,,,76,,,,,,,,,,81,56,25,402.4331976000003,1,space,57.59099349999997,None,sub_369,2024-03-10_11h54.46.530,Reversal,2023.1.3,60.03445978000417,1,
