trial_index,trial_image1_file,trial_image2_file,image_file,learning_outer_loop.thisRepN,learning_outer_loop.thisTrialN,learning_outer_loop.thisN,learning_outer_loop.thisIndex,learning_inner_loop.thisRepN,learning_inner_loop.thisTrialN,learning_inner_loop.thisN,learning_inner_loop.thisIndex,learning_estimation_outer_loop.thisRepN,learning_estimation_outer_loop.thisTrialN,learning_estimation_outer_loop.thisN,learning_estimation_outer_loop.thisIndex,learning_estimation_inner_loop.thisRepN,learning_estimation_inner_loop.thisTrialN,learning_estimation_inner_loop.thisN,learning_estimation_inner_loop.thisIndex,reversal_outer_loop.thisRepN,reversal_outer_loop.thisTrialN,reversal_outer_loop.thisN,reversal_outer_loop.thisIndex,reversal_inner_loop.thisRepN,reversal_inner_loop.thisTrialN,reversal_inner_loop.thisN,reversal_inner_loop.thisIndex,reversal_estimation_outer_loop.thisRepN,reversal_estimation_outer_loop.thisTrialN,reversal_estimation_outer_loop.thisN,reversal_estimation_outer_loop.thisIndex,reversal_estimation_inner_loop.thisRepN,reversal_estimation_inner_loop.thisTrialN,reversal_estimation_inner_loop.thisN,reversal_estimation_inner_loop.thisIndex,skipped,total_trial_counter,trial_num,left_right_flip,left_image_file,right_image_file,clicked_stimulus_side,side,clicked_stimulus,version,high_prob_image_file,low_prob_image_file,choice_a,choice_b,pair_type,correct,trial_feedback_random,reward,trial_type,overall_time_after_trial,score,estimation_exp1.png,estimation_rating.response,estimation_rating.rt,estimation_rating.history,estimation_rating.started,estimation_rating.stopped,estimation_exp2.png,estimation_exp4.png,estimation_exp3.png,total_learning_time,total_correct,learning_correct,reversal_correct,total_reversal_time,extra_block,participant,date,expName,psychopyVersion,frameRate,ver,
0,exp1.png,exp2.png,,0,0,0,0,0,0,0,0,,,,,,,,,,,,,,,,,,,,,,,,,True,,,,,,,,,,,,,,,,,,,,,,,,,,,,,,,,,,,,sub_248,2022-10-18_11h38.41.572,Reversal,2022.1.1,59.96188821286934,4,
1,exp3.png,exp4.png,,0,0,0,0,0,1,1,1,,,,,,,,,,,,,,,,,,,,,,,,,False,0,1,False,exp3.png,exp4.png,trial_right_image,-1,exp4.png,4,exp4.png,exp3.png,1,3,reversed,correct,0.991485511954543,1,valid_win,8.478834399953485,1,,,,,,,,,,,,,,,,sub_248,2022-10-18_11h38.41.572,Reversal,2022.1.1,59.96188821286934,4,
2,exp1.png,exp2.png,,0,0,0,0,0,2,2,2,,,,,,,,,,,,,,,,,,,,,,,,,False,1,2,True,exp2.png,exp1.png,trial_right_image,-1,exp1.png,4,exp2.png,exp1.png,0,2,non-reversed,incorrect,0.3132678772627564,0,valid_lose,16.760982800042257,1,,,,,,,,,,,,,,,,sub_248,2022-10-18_11h38.41.572,Reversal,2022.1.1,59.96188821286934,4,
3,exp3.png,exp4.png,,0,0,0,0,0,3,3,3,,,,,,,,,,,,,,,,,,,,,,,,,False,2,3,False,exp3.png,exp4.png,trial_right_image,-1,exp4.png,4,exp4.png,exp3.png,1,3,reversed,correct,0.9820873629359125,1,valid_win,23.543436999898404,2,,,,,,,,,,,,,,,,sub_248,2022-10-18_11h38.41.572,Reversal,2022.1.1,59.96188821286934,4,
4,exp1.png,exp2.png,,0,0,0,0,0,4,4,4,,,,,,,,,,,,,,,,,,,,,,,,,False,3,4,True,exp2.png,exp1.png,trial_left_image,1,exp2.png,4,exp2.png,exp1.png,1,1,non-reversed,correct,0.3139992863623079,1,valid_win,29.69363659992814,3,,,,,,,,,,,,,,,,sub_248,2022-10-18_11h38.41.572,Reversal,2022.1.1,59.96188821286934,4,
5,exp3.png,exp4.png,,0,0,0,0,0,5,5,5,,,,,,,,,,,,,,,,,,,,,,,,,False,4,5,False,exp3.png,exp4.png,trial_right_image,-1,exp4.png,4,exp4.png,exp3.png,1,3,reversed,correct,0.575379128335862,1,valid_win,39.79229849996045,4,,,,,,,,,,,,,,,,sub_248,2022-10-18_11h38.41.572,Reversal,2022.1.1,59.96188821286934,4,
6,exp1.png,exp2.png,,0,0,0,0,0,6,6,6,,,,,,,,,,,,,,,,,,,,,,,,,False,5,6,True,exp2.png,exp1.png,trial_left_image,1,exp2.png,4,exp2.png,exp1.png,1,1,non-reversed,correct,0.16684627991687206,0,invalid_lose,46.24121619993821,4,,,,,,,,,,,,,,,,sub_248,2022-10-18_11h38.41.572,Reversal,2022.1.1,59.96188821286934,4,
7,exp3.png,exp4.png,,0,0,0,0,0,7,7,7,,,,,,,,,,,,,,,,,,,,,,,,,False,6,7,True,exp4.png,exp3.png,trial_right_image,-1,exp3.png,4,exp4.png,exp3.png,0,4,reversed,incorrect,0.939274682345163,0,valid_lose,56.12295969994739,4,,,,,,,,,,,,,,,,sub_248,2022-10-18_11h38.41.572,Reversal,2022.1.1,59.96188821286934,4,
8,exp1.png,exp2.png,,0,0,0,0,0,8,8,8,,,,,,,,,,,,,,,,,,,,,,,,,False,7,8,False,exp1.png,exp2.png,trial_left_image,1,exp1.png,4,exp2.png,exp1.png,0,2,non-reversed,incorrect,0.8278944625820929,0,valid_lose,63.60604209988378,4,,,,,,,,,,,,,,,,sub_248,2022-10-18_11h38.41.572,Reversal,2022.1.1,59.96188821286934,4,
9,exp3.png,exp4.png,,0,0,0,0,0,9,9,9,,,,,,,,,,,,,,,,,,,,,,,,,False,8,9,True,exp4.png,exp3.png,trial_right_image,-1,exp3.png,4,exp4.png,exp3.png,0,4,reversed,incorrect,0.04093930256045675,1,invalid_win,71.20436510001309,5,,,,,,,,,,,,,,,,sub_248,2022-10-18_11h38.41.572,Reversal,2022.1.1,59.96188821286934,4,
10,exp1.png,exp2.png,,0,0,0,0,0,10,10,10,,,,,,,,,,,,,,,,,,,,,,,,,False,9,10,True,exp2.png,exp1.png,trial_right_image,-1,exp1.png,4,exp2.png,exp1.png,0,2,non-reversed,incorrect,0.0179501733509968,1,invalid_win,77.35320609994233,6,,,,,,,,,,,,,,,,sub_248,2022-10-18_11h38.41.572,Reversal,2022.1.1,59.96188821286934,4,
11,exp3.png,exp4.png,,0,0,0,0,0,11,11,11,,,,,,,,,,,,,,,,,,,,,,,,,False,10,11,False,exp3.png,exp4.png,trial_right_image,-1,exp4.png,4,exp4.png,exp3.png,1,3,reversed,correct,0.01055832526159528,0,invalid_lose,88.66803539986722,6,,,,,,,,,,,,,,,,sub_248,2022-10-18_11h38.41.572,Reversal,2022.1.1,59.96188821286934,4,
12,exp1.png,exp2.png,,0,0,0,0,0,12,12,12,,,,,,,,,,,,,,,,,,,,,,,,,False,11,12,True,exp2.png,exp1.png,trial_right_image,-1,exp1.png,4,exp2.png,exp1.png,0,2,non-reversed,incorrect,0.09110179610136093,1,invalid_win,93.83476209989749,7,,,,,,,,,,,,,,,,sub_248,2022-10-18_11h38.41.572,Reversal,2022.1.1,59.96188821286934,4,
13,exp3.png,exp4.png,,0,0,0,0,0,13,13,13,,,,,,,,,,,,,,,,,,,,,,,,,False,12,13,True,exp4.png,exp3.png,trial_right_image,-1,exp3.png,4,exp4.png,exp3.png,0,4,reversed,incorrect,0.27495284711013834,0,valid_lose,102.88299060007557,7,,,,,,,,,,,,,,,,sub_248,2022-10-18_11h38.41.572,Reversal,2022.1.1,59.96188821286934,4,
14,exp1.png,exp2.png,,0,0,0,0,0,14,14,14,,,,,,,,,,,,,,,,,,,,,,,,,False,13,14,True,exp2.png,exp1.png,trial_right_image,-1,exp1.png,4,exp2.png,exp1.png,0,2,non-reversed,incorrect,0.6337750861686735,0,valid_lose,108.23240550002083,7,,,,,,,,,,,,,,,,sub_248,2022-10-18_11h38.41.572,Reversal,2022.1.1,59.96188821286934,4,
15,exp3.png,exp4.png,,0,0,0,0,0,15,15,15,,,,,,,,,,,,,,,,,,,,,,,,,False,14,15,False,exp3.png,exp4.png,trial_right_image,-1,exp4.png,4,exp4.png,exp3.png,1,3,reversed,correct,0.364832651062044,1,valid_win,114.64802780002356,8,,,,,,,,,,,,,,,,sub_248,2022-10-18_11h38.41.572,Reversal,2022.1.1,59.96188821286934,4,
16,exp1.png,exp2.png,,0,0,0,0,0,16,16,16,,,,,,,,,,,,,,,,,,,,,,,,,False,15,16,True,exp2.png,exp1.png,trial_left_image,1,exp2.png,4,exp2.png,exp1.png,1,1,non-reversed,correct,0.935220851215407,1,valid_win,121.79786429996602,9,,,,,,,,,,,,,,,,sub_248,2022-10-18_11h38.41.572,Reversal,2022.1.1,59.96188821286934,4,
17,exp3.png,exp4.png,,0,0,0,0,0,17,17,17,,,,,,,,,,,,,,,,,,,,,,,,,False,16,17,False,exp3.png,exp4.png,trial_left_image,1,exp3.png,4,exp4.png,exp3.png,0,4,reversed,incorrect,0.3685240028328969,0,valid_lose,130.0474719000049,9,,,,,,,,,,,,,,,,sub_248,2022-10-18_11h38.41.572,Reversal,2022.1.1,59.96188821286934,4,
18,exp1.png,exp2.png,,0,0,0,0,0,18,18,18,,,,,,,,,,,,,,,,,,,,,,,,,False,17,18,False,exp1.png,exp2.png,trial_right_image,-1,exp2.png,4,exp2.png,exp1.png,1,1,non-reversed,correct,0.3631305436376452,1,valid_win,135.5958763998933,10,,,,,,,,,,,,,,,,sub_248,2022-10-18_11h38.41.572,Reversal,2022.1.1,59.96188821286934,4,
19,exp3.png,exp4.png,,0,0,0,0,0,19,19,19,,,,,,,,,,,,,,,,,,,,,,,,,False,18,19,False,exp3.png,exp4.png,trial_right_image,-1,exp4.png,4,exp4.png,exp3.png,1,3,reversed,correct,0.32812926200336334,1,valid_win,143.99527630000375,11,,,,,,,,,,,,,,,,sub_248,2022-10-18_11h38.41.572,Reversal,2022.1.1,59.96188821286934,4,
20,exp1.png,exp2.png,,0,0,0,0,0,20,20,20,,,,,,,,,,,,,,,,,,,,,,,,,False,19,20,False,exp1.png,exp2.png,trial_right_image,-1,exp2.png,4,exp2.png,exp1.png,1,1,non-reversed,correct,0.9826537898474966,1,valid_win,149.59479620005004,12,,,,,,,,,,,,,,,,sub_248,2022-10-18_11h38.41.572,Reversal,2022.1.1,59.96188821286934,4,
,,,exp1.png,0,0,0,0,,,,,0,0,0,0,0,0,0,0,,,,,,,,,,,,,,,,,,,,,,,,,,,,,,,,,,,,,,31.0,31.0,14.774519400205463,"[(31.0, 14.774519400205463)]",248.85071519995108,None,,,,,,,,,,sub_248,2022-10-18_11h38.41.572,Reversal,2022.1.1,59.96188821286934,4,
,,,exp2.png,0,0,0,0,,,,,0,0,0,0,0,1,1,1,,,,,,,,,,,,,,,,,,,,,,,,,,,,,,,,,,,,,,,63.0,6.191764400107786,"[(63.0, 6.191764400107786)]",276.0581567999907,None,63.0,,,,,,,,,sub_248,2022-10-18_11h38.41.572,Reversal,2022.1.1,59.96188821286934,4,
,,,exp3.png,0,0,0,0,,,,,0,0,0,0,0,2,2,2,,,,,,,,,,,,,,,,,,,,,,,,,,,,,,,,,,,,,,,50.0,None,[],283.33843579981476,None,,,,,,,,,,sub_248,2022-10-18_11h38.41.572,Reversal,2022.1.1,59.96188821286934,4,
,,,exp4.png,0,0,0,0,,,,,0,0,0,0,0,3,3,3,,,,,,,,,,,,,,,,,,,,,,,,,,,,,,,,,,,,,,,53.0,27.05572890001349,"[(57.0, 5.674612799892202), (53.0, 27.05572890001349)]",291.9851515998598,None,,53.0,,,,,,,,sub_248,2022-10-18_11h38.41.572,Reversal,2022.1.1,59.96188821286934,4,
0,exp1.png,exp2.png,,1,0,1,0,0,0,0,0,,,,,,,,,,,,,,,,,,,,,,,,,True,,,,,,,,,,,,,,,,,,,,,,,,,,,,,,,,,,,,sub_248,2022-10-18_11h38.41.572,Reversal,2022.1.1,59.96188821286934,4,
1,exp3.png,exp4.png,,1,0,1,0,0,1,1,1,,,,,,,,,,,,,,,,,,,,,,,,,False,20,21,False,exp3.png,exp4.png,trial_left_image,1,exp3.png,4,exp4.png,exp3.png,0,4,reversed,incorrect,0.8112581237116306,0,valid_lose,229.58554199989885,12,,,,,,,,,,,,,,,,sub_248,2022-10-18_11h38.41.572,Reversal,2022.1.1,59.96188821286934,4,
2,exp1.png,exp2.png,,1,0,1,0,0,2,2,2,,,,,,,,,,,,,,,,,,,,,,,,,False,21,22,True,exp2.png,exp1.png,trial_left_image,1,exp2.png,4,exp2.png,exp1.png,1,1,non-reversed,correct,0.30459881226671326,1,valid_win,235.74991789995693,13,,,,,,,,,,,,,,,,sub_248,2022-10-18_11h38.41.572,Reversal,2022.1.1,59.96188821286934,4,
3,exp3.png,exp4.png,,1,0,1,0,0,3,3,3,,,,,,,,,,,,,,,,,,,,,,,,,False,22,23,True,exp4.png,exp3.png,trial_right_image,-1,exp3.png,4,exp4.png,exp3.png,0,4,reversed,incorrect,0.6983764220570028,0,valid_lose,241.2651007999666,13,,,,,,,,,,,,,,,,sub_248,2022-10-18_11h38.41.572,Reversal,2022.1.1,59.96188821286934,4,
4,exp1.png,exp2.png,,1,0,1,0,0,4,4,4,,,,,,,,,,,,,,,,,,,,,,,,,False,23,24,False,exp1.png,exp2.png,trial_right_image,-1,exp2.png,4,exp2.png,exp1.png,1,1,non-reversed,correct,0.6903324463320548,1,valid_win,246.2983426998835,14,,,,,,,,,,,,,,,,sub_248,2022-10-18_11h38.41.572,Reversal,2022.1.1,59.96188821286934,4,
5,exp3.png,exp4.png,,1,0,1,0,0,5,5,5,,,,,,,,,,,,,,,,,,,,,,,,,False,24,25,True,exp4.png,exp3.png,trial_right_image,-1,exp3.png,4,exp4.png,exp3.png,0,4,reversed,incorrect,0.4675194167852078,0,valid_lose,255.0978582999669,14,,,,,,,,,,,,,,,,sub_248,2022-10-18_11h38.41.572,Reversal,2022.1.1,59.96188821286934,4,
6,exp1.png,exp2.png,,1,0,1,0,0,6,6,6,,,,,,,,,,,,,,,,,,,,,,,,,False,25,26,True,exp2.png,exp1.png,trial_left_image,1,exp2.png,4,exp2.png,exp1.png,1,1,non-reversed,correct,0.4393661476389795,1,valid_win,260.2134328999091,15,,,,,,,,,,,,,,,,sub_248,2022-10-18_11h38.41.572,Reversal,2022.1.1,59.96188821286934,4,
7,exp3.png,exp4.png,,1,0,1,0,0,7,7,7,,,,,,,,,,,,,,,,,,,,,,,,,False,26,27,True,exp4.png,exp3.png,trial_left_image,1,exp4.png,4,exp4.png,exp3.png,1,3,reversed,correct,0.4087770610984641,1,valid_win,266.34505130001344,16,,,,,,,,,,,,,,,,sub_248,2022-10-18_11h38.41.572,Reversal,2022.1.1,59.96188821286934,4,
8,exp1.png,exp2.png,,1,0,1,0,0,8,8,8,,,,,,,,,,,,,,,,,,,,,,,,,False,27,28,False,exp1.png,exp2.png,trial_right_image,-1,exp2.png,4,exp2.png,exp1.png,1,1,non-reversed,correct,0.10270984650277348,0,invalid_lose,271.2296245000325,16,,,,,,,,,,,,,,,,sub_248,2022-10-18_11h38.41.572,Reversal,2022.1.1,59.96188821286934,4,
9,exp3.png,exp4.png,,1,0,1,0,0,9,9,9,,,,,,,,,,,,,,,,,,,,,,,,,False,28,29,False,exp3.png,exp4.png,trial_right_image,-1,exp4.png,4,exp4.png,exp3.png,1,3,reversed,correct,0.8829932434258426,1,valid_win,277.0104950000532,17,,,,,,,,,,,,,,,,sub_248,2022-10-18_11h38.41.572,Reversal,2022.1.1,59.96188821286934,4,
10,exp1.png,exp2.png,,1,0,1,0,0,10,10,10,,,,,,,,,,,,,,,,,,,,,,,,,False,29,30,False,exp1.png,exp2.png,trial_left_image,1,exp1.png,4,exp2.png,exp1.png,0,2,non-reversed,incorrect,0.7453086979920432,0,valid_lose,283.2429831000045,17,,,,,,,,,,,,,,,,sub_248,2022-10-18_11h38.41.572,Reversal,2022.1.1,59.96188821286934,4,
11,exp3.png,exp4.png,,1,0,1,0,0,11,11,11,,,,,,,,,,,,,,,,,,,,,,,,,False,30,31,False,exp3.png,exp4.png,trial_right_image,-1,exp4.png,4,exp4.png,exp3.png,1,3,reversed,correct,0.11463365373329926,0,invalid_lose,288.8260892999824,17,,,,,,,,,,,,,,,,sub_248,2022-10-18_11h38.41.572,Reversal,2022.1.1,59.96188821286934,4,
12,exp1.png,exp2.png,,1,0,1,0,0,12,12,12,,,,,,,,,,,,,,,,,,,,,,,,,False,31,32,True,exp2.png,exp1.png,trial_right_image,-1,exp1.png,4,exp2.png,exp1.png,0,2,non-reversed,incorrect,0.604853340310309,0,valid_lose,294.2918561999686,17,,,,,,,,,,,,,,,,sub_248,2022-10-18_11h38.41.572,Reversal,2022.1.1,59.96188821286934,4,
13,exp3.png,exp4.png,,1,0,1,0,0,13,13,13,,,,,,,,,,,,,,,,,,,,,,,,,False,32,33,False,exp3.png,exp4.png,trial_left_image,1,exp3.png,4,exp4.png,exp3.png,0,4,reversed,incorrect,0.09268046635726312,1,invalid_win,299.0579701999668,18,,,,,,,,,,,,,,,,sub_248,2022-10-18_11h38.41.572,Reversal,2022.1.1,59.96188821286934,4,
14,exp1.png,exp2.png,,1,0,1,0,0,14,14,14,,,,,,,,,,,,,,,,,,,,,,,,,False,33,34,False,exp1.png,exp2.png,trial_right_image,-1,exp2.png,4,exp2.png,exp1.png,1,1,non-reversed,correct,0.07078285779338245,0,invalid_lose,304.25782119994983,18,,,,,,,,,,,,,,,,sub_248,2022-10-18_11h38.41.572,Reversal,2022.1.1,59.96188821286934,4,
15,exp3.png,exp4.png,,1,0,1,0,0,15,15,15,,,,,,,,,,,,,,,,,,,,,,,,,False,34,35,False,exp3.png,exp4.png,trial_left_image,1,exp3.png,4,exp4.png,exp3.png,0,4,reversed,incorrect,0.15102390596261184,1,invalid_win,312.20577190001495,19,,,,,,,,,,,,,,,,sub_248,2022-10-18_11h38.41.572,Reversal,2022.1.1,59.96188821286934,4,
16,exp1.png,exp2.png,,1,0,1,0,0,16,16,16,,,,,,,,,,,,,,,,,,,,,,,,,False,35,36,False,exp1.png,exp2.png,trial_right_image,-1,exp2.png,4,exp2.png,exp1.png,1,1,non-reversed,correct,0.3715189748453416,1,valid_win,317.38834220007993,20,,,,,,,,,,,,,,,,sub_248,2022-10-18_11h38.41.572,Reversal,2022.1.1,59.96188821286934,4,
17,exp3.png,exp4.png,,1,0,1,0,0,17,17,17,,,,,,,,,,,,,,,,,,,,,,,,,False,36,37,True,exp4.png,exp3.png,trial_right_image,-1,exp3.png,4,exp4.png,exp3.png,0,4,reversed,incorrect,0.7957631772626886,0,valid_lose,323.50436039990745,20,,,,,,,,,,,,,,,,sub_248,2022-10-18_11h38.41.572,Reversal,2022.1.1,59.96188821286934,4,
18,exp1.png,exp2.png,,1,0,1,0,0,18,18,18,,,,,,,,,,,,,,,,,,,,,,,,,False,37,38,True,exp2.png,exp1.png,trial_left_image,1,exp2.png,4,exp2.png,exp1.png,1,1,non-reversed,correct,0.27014633418030787,1,valid_win,329.10282439994626,21,,,,,,,,,,,,,,,,sub_248,2022-10-18_11h38.41.572,Reversal,2022.1.1,59.96188821286934,4,
19,exp3.png,exp4.png,,1,0,1,0,0,19,19,19,,,,,,,,,,,,,,,,,,,,,,,,,False,38,39,True,exp4.png,exp3.png,trial_right_image,-1,exp3.png,4,exp4.png,exp3.png,0,4,reversed,incorrect,0.5898056287231935,0,valid_lose,334.48623889987357,21,,,,,,,,,,,,,,,,sub_248,2022-10-18_11h38.41.572,Reversal,2022.1.1,59.96188821286934,4,
20,exp1.png,exp2.png,,1,0,1,0,0,20,20,20,,,,,,,,,,,,,,,,,,,,,,,,,False,39,40,True,exp2.png,exp1.png,trial_left_image,1,exp2.png,4,exp2.png,exp1.png,1,1,non-reversed,correct,0.7564334769699765,1,valid_win,339.4524349998683,22,,,,,,,,,,,,,,,,sub_248,2022-10-18_11h38.41.572,Reversal,2022.1.1,59.96188821286934,4,
,,,exp1.png,1,0,1,0,,,,,0,0,0,0,0,0,0,0,,,,,,,,,,,,,,,,,,,,,,,,,,,,,,,,,,,,,,13.0,13.0,5.574601199943572,"[(13.0, 5.574601199943572)]",438.7182265999727,None,,,,,,,,,,sub_248,2022-10-18_11h38.41.572,Reversal,2022.1.1,59.96188821286934,4,
,,,exp2.png,1,0,1,0,,,,,0,0,0,0,0,1,1,1,,,,,,,,,,,,,,,,,,,,,,,,,,,,,,,,,,,,,,,87.0,4.492324599996209,"[(87.0, 4.492324599996209)]",445.71808879985474,None,87.0,,,,,,,,,sub_248,2022-10-18_11h38.41.572,Reversal,2022.1.1,59.96188821286934,4,
,,,exp3.png,1,0,1,0,,,,,0,0,0,0,0,2,2,2,,,,,,,,,,,,,,,,,,,,,,,,,,,,,,,,,,,,,,,50.0,None,[],451.36750119994394,None,,,,,,,,,,sub_248,2022-10-18_11h38.41.572,Reversal,2022.1.1,59.96188821286934,4,
,,,exp4.png,1,0,1,0,,,,,0,0,0,0,0,3,3,3,,,,,,,,,,,,,,,,,,,,,,,,,,,,,,,,,,,,,,,50.0,None,[],456.45013209991157,None,,,,,,,,,,sub_248,2022-10-18_11h38.41.572,Reversal,2022.1.1,59.96188821286934,4,
0,exp1.png,exp2.png,,2,0,2,0,0,0,0,0,,,,,,,,,,,,,,,,,,,,,,,,,True,,,,,,,,,,,,,,,,,,,,,,,,,,,,,,,,,,,,sub_248,2022-10-18_11h38.41.572,Reversal,2022.1.1,59.96188821286934,4,
1,exp3.png,exp4.png,,2,0,2,0,0,1,1,1,,,,,,,,,,,,,,,,,,,,,,,,,False,40,41,False,exp3.png,exp4.png,trial_right_image,-1,exp4.png,4,exp4.png,exp3.png,1,3,reversed,correct,0.9141331228649322,1,valid_win,366.1000566999428,23,,,,,,,,,,,,,,,,sub_248,2022-10-18_11h38.41.572,Reversal,2022.1.1,59.96188821286934,4,
2,exp1.png,exp2.png,,2,0,2,0,0,2,2,2,,,,,,,,,,,,,,,,,,,,,,,,,False,41,42,True,exp2.png,exp1.png,trial_left_image,1,exp2.png,4,exp2.png,exp1.png,1,1,non-reversed,correct,0.2679185917734732,1,valid_win,371.6152609998826,24,,,,,,,,,,,,,,,,sub_248,2022-10-18_11h38.41.572,Reversal,2022.1.1,59.96188821286934,4,
3,exp3.png,exp4.png,,2,0,2,0,0,3,3,3,,,,,,,,,,,,,,,,,,,,,,,,,False,42,43,False,exp3.png,exp4.png,trial_right_image,-1,exp4.png,4,exp4.png,exp3.png,1,3,reversed,correct,0.30695952220846423,1,valid_win,378.5311581999995,25,,,,,,,,,,,,,,,,sub_248,2022-10-18_11h38.41.572,Reversal,2022.1.1,59.96188821286934,4,
4,exp1.png,exp2.png,,2,0,2,0,0,4,4,4,,,,,,,,,,,,,,,,,,,,,,,,,False,43,44,False,exp1.png,exp2.png,trial_right_image,-1,exp2.png,4,exp2.png,exp1.png,1,1,non-reversed,correct,0.4048144929957137,1,valid_win,383.2634135999251,26,,,,,,,,,,,,,,,,sub_248,2022-10-18_11h38.41.572,Reversal,2022.1.1,59.96188821286934,4,
5,exp3.png,exp4.png,,2,0,2,0,0,5,5,5,,,,,,,,,,,,,,,,,,,,,,,,,False,44,45,False,exp3.png,exp4.png,trial_right_image,-1,exp4.png,4,exp4.png,exp3.png,1,3,reversed,correct,0.21551620307128516,0,invalid_lose,388.21342239994556,26,,,,,,,,,,,,,,,,sub_248,2022-10-18_11h38.41.572,Reversal,2022.1.1,59.96188821286934,4,
6,exp1.png,exp2.png,,2,0,2,0,0,6,6,6,,,,,,,,,,,,,,,,,,,,,,,,,False,45,46,False,exp1.png,exp2.png,trial_right_image,-1,exp2.png,4,exp2.png,exp1.png,1,1,non-reversed,correct,0.7546137841711238,1,valid_win,392.8965586000122,27,,,,,,,,,,,,,,,,sub_248,2022-10-18_11h38.41.572,Reversal,2022.1.1,59.96188821286934,4,
7,exp3.png,exp4.png,,2,0,2,0,0,7,7,7,,,,,,,,,,,,,,,,,,,,,,,,,False,46,47,True,exp4.png,exp3.png,trial_right_image,-1,exp3.png,4,exp4.png,exp3.png,0,4,reversed,incorrect,0.8232659605464607,0,valid_lose,398.6944333000574,27,,,,,,,,,,,,,,,,sub_248,2022-10-18_11h38.41.572,Reversal,2022.1.1,59.96188821286934,4,
8,exp1.png,exp2.png,,2,0,2,0,0,8,8,8,,,,,,,,,,,,,,,,,,,,,,,,,False,47,48,True,exp2.png,exp1.png,trial_left_image,1,exp2.png,4,exp2.png,exp1.png,1,1,non-reversed,correct,0.8566765574819811,1,valid_win,404.69407889992,28,,,,,,,,,,,,,,,,sub_248,2022-10-18_11h38.41.572,Reversal,2022.1.1,59.96188821286934,4,
9,exp3.png,exp4.png,,2,0,2,0,0,9,9,9,,,,,,,,,,,,,,,,,,,,,,,,,False,48,49,False,exp3.png,exp4.png,trial_left_image,1,exp3.png,4,exp4.png,exp3.png,0,4,reversed,incorrect,0.7520683395942585,0,valid_lose,411.0763582000509,28,,,,,,,,,,,,,,,,sub_248,2022-10-18_11h38.41.572,Reversal,2022.1.1,59.96188821286934,4,
10,exp1.png,exp2.png,,2,0,2,0,0,10,10,10,,,,,,,,,,,,,,,,,,,,,,,,,False,49,50,True,exp2.png,exp1.png,trial_left_image,1,exp2.png,4,exp2.png,exp1.png,1,1,non-reversed,correct,0.3803866472931514,1,valid_win,416.82501289993525,29,,,,,,,,,,,,,,,,sub_248,2022-10-18_11h38.41.572,Reversal,2022.1.1,59.96188821286934,4,
11,exp3.png,exp4.png,,2,0,2,0,0,11,11,11,,,,,,,,,,,,,,,,,,,,,,,,,False,50,51,True,exp4.png,exp3.png,trial_right_image,-1,exp3.png,4,exp4.png,exp3.png,0,4,reversed,incorrect,0.136294498783046,1,invalid_win,421.90874239988625,30,,,,,,,,,,,,,,,,sub_248,2022-10-18_11h38.41.572,Reversal,2022.1.1,59.96188821286934,4,
12,exp1.png,exp2.png,,2,0,2,0,0,12,12,12,,,,,,,,,,,,,,,,,,,,,,,,,False,51,52,True,exp2.png,exp1.png,trial_left_image,1,exp2.png,4,exp2.png,exp1.png,1,1,non-reversed,correct,0.9786853801783773,1,valid_win,427.79133679997176,31,,,,,,,,,,,,,,,,sub_248,2022-10-18_11h38.41.572,Reversal,2022.1.1,59.96188821286934,4,
13,exp3.png,exp4.png,,2,0,2,0,0,13,13,13,,,,,,,,,,,,,,,,,,,,,,,,,False,52,53,False,exp3.png,exp4.png,trial_left_image,1,exp3.png,4,exp4.png,exp3.png,0,4,reversed,incorrect,0.8955838587655592,0,valid_lose,434.2736408000346,31,,,,,,,,,,,,,,,,sub_248,2022-10-18_11h38.41.572,Reversal,2022.1.1,59.96188821286934,4,
14,exp1.png,exp2.png,,2,0,2,0,0,14,14,14,,,,,,,,,,,,,,,,,,,,,,,,,False,53,54,False,exp1.png,exp2.png,trial_right_image,-1,exp2.png,4,exp2.png,exp1.png,1,1,non-reversed,correct,0.1437118886203499,0,invalid_lose,439.8897617999464,31,,,,,,,,,,,,,,,,sub_248,2022-10-18_11h38.41.572,Reversal,2022.1.1,59.96188821286934,4,
15,exp3.png,exp4.png,,2,0,2,0,0,15,15,15,,,,,,,,,,,,,,,,,,,,,,,,,False,54,55,False,exp3.png,exp4.png,trial_right_image,-1,exp4.png,4,exp4.png,exp3.png,1,3,reversed,correct,0.21958742475744808,0,invalid_lose,445.607335699955,31,,,,,,,,,,,,,,,,sub_248,2022-10-18_11h38.41.572,Reversal,2022.1.1,59.96188821286934,4,
16,exp1.png,exp2.png,,2,0,2,0,0,16,16,16,,,,,,,,,,,,,,,,,,,,,,,,,False,55,56,True,exp2.png,exp1.png,trial_right_image,-1,exp1.png,4,exp2.png,exp1.png,0,2,non-reversed,incorrect,0.7274134477982033,0,valid_lose,450.83876680000685,31,,,,,,,,,,,,,,,,sub_248,2022-10-18_11h38.41.572,Reversal,2022.1.1,59.96188821286934,4,
17,exp3.png,exp4.png,,2,0,2,0,0,17,17,17,,,,,,,,,,,,,,,,,,,,,,,,,False,56,57,False,exp3.png,exp4.png,trial_right_image,-1,exp4.png,4,exp4.png,exp3.png,1,3,reversed,correct,0.8070404685980788,1,valid_win,456.4386191999074,32,,,,,,,,,,,,,,,,sub_248,2022-10-18_11h38.41.572,Reversal,2022.1.1,59.96188821286934,4,
18,exp1.png,exp2.png,,2,0,2,0,0,18,18,18,,,,,,,,,,,,,,,,,,,,,,,,,False,57,58,True,exp2.png,exp1.png,trial_left_image,1,exp2.png,4,exp2.png,exp1.png,1,1,non-reversed,correct,0.7295424817995757,1,valid_win,462.4865776998922,33,,,,,,,,,,,,,,,,sub_248,2022-10-18_11h38.41.572,Reversal,2022.1.1,59.96188821286934,4,
19,exp3.png,exp4.png,,2,0,2,0,0,19,19,19,,,,,,,,,,,,,,,,,,,,,,,,,False,58,59,True,exp4.png,exp3.png,trial_left_image,1,exp4.png,4,exp4.png,exp3.png,1,3,reversed,correct,0.0007042344709985437,0,invalid_lose,467.7530320000369,33,,,,,,,,,,,,,,,,sub_248,2022-10-18_11h38.41.572,Reversal,2022.1.1,59.96188821286934,4,
20,exp1.png,exp2.png,,2,0,2,0,0,20,20,20,,,,,,,,,,,,,,,,,,,,,,,,,False,59,60,True,exp2.png,exp1.png,trial_left_image,1,exp2.png,4,exp2.png,exp1.png,1,1,non-reversed,correct,0.12846214700199077,0,invalid_lose,472.98445939994417,33,,,,,,,,,,,,,,,,sub_248,2022-10-18_11h38.41.572,Reversal,2022.1.1,59.96188821286934,4,
,,,exp1.png,2,0,2,0,,,,,0,0,0,0,0,0,0,0,,,,,,,,,,,,,,,,,,,,,,,,,,,,,,,,,,,,,,19.0,19.0,6.6034806000534445,"[(19.0, 6.6034806000534445)]",572.2551213998813,None,,,,,,,,,,sub_248,2022-10-18_11h38.41.572,Reversal,2022.1.1,59.96188821286934,4,
,,,exp2.png,2,0,2,0,,,,,0,0,0,0,0,1,1,1,,,,,,,,,,,,,,,,,,,,,,,,,,,,,,,,,,,,,,,82.0,2.4720475000794977,"[(82.0, 2.4720475000794977)]",580.3677305998281,None,82.0,,,,,,,,,sub_248,2022-10-18_11h38.41.572,Reversal,2022.1.1,59.96188821286934,4,
,,,exp3.png,2,0,2,0,,,,,0,0,0,0,0,2,2,2,,,,,,,,,,,,,,,,,,,,,,,,,,,,,,,,,,,,,,,24.0,3.689556800061837,"[(24.0, 3.689556800061837)]",583.9992686000187,None,,,24.0,,,,,,,sub_248,2022-10-18_11h38.41.572,Reversal,2022.1.1,59.96188821286934,4,
,,,exp4.png,2,0,2,0,,,,,0,0,0,0,0,3,3,3,,,,,,,,,,,,,,,,,,,,,,,,,,,,,,,,,,,,,,,76.0,2.105039400048554,"[(76.0, 2.105039400048554)]",589.0997319000307,None,,76.0,,,,,,,,sub_248,2022-10-18_11h38.41.572,Reversal,2022.1.1,59.96188821286934,4,
0,exp1.png,exp2.png,,3,0,3,0,0,0,0,0,,,,,,,,,,,,,,,,,,,,,,,,,True,,,,,,,,,,,,,,,,,,,,,,,,,,,,,,,,,,,,sub_248,2022-10-18_11h38.41.572,Reversal,2022.1.1,59.96188821286934,4,
1,exp3.png,exp4.png,,3,0,3,0,0,1,1,1,,,,,,,,,,,,,,,,,,,,,,,,,False,60,61,False,exp3.png,exp4.png,trial_right_image,-1,exp4.png,4,exp4.png,exp3.png,1,3,reversed,correct,0.5738745529648318,1,valid_win,499.51491359993815,34,,,,,,,,,,,,,,,,sub_248,2022-10-18_11h38.41.572,Reversal,2022.1.1,59.96188821286934,4,
2,exp1.png,exp2.png,,3,0,3,0,0,2,2,2,,,,,,,,,,,,,,,,,,,,,,,,,False,61,62,True,exp2.png,exp1.png,trial_left_image,1,exp2.png,4,exp2.png,exp1.png,1,1,non-reversed,correct,0.03434384350881936,0,invalid_lose,504.68216049997136,34,,,,,,,,,,,,,,,,sub_248,2022-10-18_11h38.41.572,Reversal,2022.1.1,59.96188821286934,4,
3,exp3.png,exp4.png,,3,0,3,0,0,3,3,3,,,,,,,,,,,,,,,,,,,,,,,,,False,62,63,False,exp3.png,exp4.png,trial_right_image,-1,exp4.png,4,exp4.png,exp3.png,1,3,reversed,correct,0.9983331981127869,1,valid_win,509.57981509994715,35,,,,,,,,,,,,,,,,sub_248,2022-10-18_11h38.41.572,Reversal,2022.1.1,59.96188821286934,4,
4,exp1.png,exp2.png,,3,0,3,0,0,4,4,4,,,,,,,,,,,,,,,,,,,,,,,,,False,63,64,True,exp2.png,exp1.png,trial_left_image,1,exp2.png,4,exp2.png,exp1.png,1,1,non-reversed,correct,0.7993663671967269,1,valid_win,514.5628134000581,36,,,,,,,,,,,,,,,,sub_248,2022-10-18_11h38.41.572,Reversal,2022.1.1,59.96188821286934,4,
5,exp3.png,exp4.png,,3,0,3,0,0,5,5,5,,,,,,,,,,,,,,,,,,,,,,,,,False,64,65,True,exp4.png,exp3.png,trial_left_image,1,exp4.png,4,exp4.png,exp3.png,1,3,reversed,correct,0.6809568285314864,1,valid_win,520.9455323000439,37,,,,,,,,,,,,,,,,sub_248,2022-10-18_11h38.41.572,Reversal,2022.1.1,59.96188821286934,4,
6,exp1.png,exp2.png,,3,0,3,0,0,6,6,6,,,,,,,,,,,,,,,,,,,,,,,,,False,65,66,True,exp2.png,exp1.png,trial_left_image,1,exp2.png,4,exp2.png,exp1.png,1,1,non-reversed,correct,0.6710400466942986,1,valid_win,528.5448443999048,38,,,,,,,,,,,,,,,,sub_248,2022-10-18_11h38.41.572,Reversal,2022.1.1,59.96188821286934,4,
7,exp3.png,exp4.png,,3,0,3,0,0,7,7,7,,,,,,,,,,,,,,,,,,,,,,,,,False,66,67,True,exp4.png,exp3.png,trial_right_image,-1,exp3.png,4,exp4.png,exp3.png,0,4,reversed,incorrect,0.8766077694632659,0,valid_lose,535.4103220000397,38,,,,,,,,,,,,,,,,sub_248,2022-10-18_11h38.41.572,Reversal,2022.1.1,59.96188821286934,4,
8,exp1.png,exp2.png,,3,0,3,0,0,8,8,8,,,,,,,,,,,,,,,,,,,,,,,,,False,67,68,True,exp2.png,exp1.png,trial_left_image,1,exp2.png,4,exp2.png,exp1.png,1,1,non-reversed,correct,0.9602480122003002,1,valid_win,540.625467899954,39,,,,,,,,,,,,,,,,sub_248,2022-10-18_11h38.41.572,Reversal,2022.1.1,59.96188821286934,4,
9,exp3.png,exp4.png,,3,0,3,0,0,9,9,9,,,,,,,,,,,,,,,,,,,,,,,,,False,68,69,False,exp3.png,exp4.png,trial_right_image,-1,exp4.png,4,exp4.png,exp3.png,1,3,reversed,correct,0.13817212056103367,0,invalid_lose,545.475548800081,39,,,,,,,,,,,,,,,,sub_248,2022-10-18_11h38.41.572,Reversal,2022.1.1,59.96188821286934,4,
10,exp1.png,exp2.png,,3,0,3,0,0,10,10,10,,,,,,,,,,,,,,,,,,,,,,,,,False,69,70,False,exp1.png,exp2.png,trial_right_image,-1,exp2.png,4,exp2.png,exp1.png,1,1,non-reversed,correct,0.525625280015347,1,valid_win,550.7084953999147,40,,,,,,,,,,,,,,,,sub_248,2022-10-18_11h38.41.572,Reversal,2022.1.1,59.96188821286934,4,
11,exp3.png,exp4.png,,3,0,3,0,0,11,11,11,,,,,,,,,,,,,,,,,,,,,,,,,False,70,71,False,exp3.png,exp4.png,trial_right_image,-1,exp4.png,4,exp4.png,exp3.png,1,3,reversed,correct,0.3436717895942477,1,valid_win,556.8574508999009,41,,,,,,,,,,,,,,,,sub_248,2022-10-18_11h38.41.572,Reversal,2022.1.1,59.96188821286934,4,
12,exp1.png,exp2.png,,3,0,3,0,0,12,12,12,,,,,,,,,,,,,,,,,,,,,,,,,False,71,72,True,exp2.png,exp1.png,trial_right_image,-1,exp1.png,4,exp2.png,exp1.png,0,2,non-reversed,incorrect,0.7461996651002795,0,valid_lose,565.6566806000192,41,,,,,,,,,,,,,,,,sub_248,2022-10-18_11h38.41.572,Reversal,2022.1.1,59.96188821286934,4,
13,exp3.png,exp4.png,,3,0,3,0,0,13,13,13,,,,,,,,,,,,,,,,,,,,,,,,,False,72,73,False,exp3.png,exp4.png,trial_right_image,-1,exp4.png,4,exp4.png,exp3.png,1,3,reversed,correct,0.8919226269484067,1,valid_win,570.7224087999202,42,,,,,,,,,,,,,,,,sub_248,2022-10-18_11h38.41.572,Reversal,2022.1.1,59.96188821286934,4,
14,exp1.png,exp2.png,,3,0,3,0,0,14,14,14,,,,,,,,,,,,,,,,,,,,,,,,,False,73,74,True,exp2.png,exp1.png,trial_left_image,1,exp2.png,4,exp2.png,exp1.png,1,1,non-reversed,correct,0.026783909870040867,0,invalid_lose,575.256255999906,42,,,,,,,,,,,,,,,,sub_248,2022-10-18_11h38.41.572,Reversal,2022.1.1,59.96188821286934,4,
15,exp3.png,exp4.png,,3,0,3,0,0,15,15,15,,,,,,,,,,,,,,,,,,,,,,,,,False,74,75,True,exp4.png,exp3.png,trial_left_image,1,exp4.png,4,exp4.png,exp3.png,1,3,reversed,correct,0.09564312756495397,0,invalid_lose,583.537235799944,42,,,,,,,,,,,,,,,,sub_248,2022-10-18_11h38.41.572,Reversal,2022.1.1,59.96188821286934,4,
16,exp1.png,exp2.png,,3,0,3,0,0,16,16,16,,,,,,,,,,,,,,,,,,,,,,,,,False,75,76,False,exp1.png,exp2.png,trial_right_image,-1,exp2.png,4,exp2.png,exp1.png,1,1,non-reversed,correct,0.7723814962643849,1,valid_win,590.588728700066,43,,,,,,,,,,,,,,,,sub_248,2022-10-18_11h38.41.572,Reversal,2022.1.1,59.96188821286934,4,
17,exp3.png,exp4.png,,3,0,3,0,0,17,17,17,,,,,,,,,,,,,,,,,,,,,,,,,False,76,77,True,exp4.png,exp3.png,trial_left_image,1,exp4.png,4,exp4.png,exp3.png,1,3,reversed,correct,0.6610270981587301,1,valid_win,597.1366486998741,44,,,,,,,,,,,,,,,,sub_248,2022-10-18_11h38.41.572,Reversal,2022.1.1,59.96188821286934,4,
18,exp1.png,exp2.png,,3,0,3,0,0,18,18,18,,,,,,,,,,,,,,,,,,,,,,,,,False,77,78,False,exp1.png,exp2.png,trial_right_image,-1,exp2.png,4,exp2.png,exp1.png,1,1,non-reversed,correct,0.8051360785110268,1,valid_win,602.2694311998785,45,,,,,,,,,,,,,,,,sub_248,2022-10-18_11h38.41.572,Reversal,2022.1.1,59.96188821286934,4,
19,exp3.png,exp4.png,,3,0,3,0,0,19,19,19,,,,,,,,,,,,,,,,,,,,,,,,,False,78,79,False,exp3.png,exp4.png,trial_right_image,-1,exp4.png,4,exp4.png,exp3.png,1,3,reversed,correct,0.31774893847513486,1,valid_win,607.7337571999524,46,,,,,,,,,,,,,,,,sub_248,2022-10-18_11h38.41.572,Reversal,2022.1.1,59.96188821286934,4,
20,exp1.png,exp2.png,,3,0,3,0,0,20,20,20,,,,,,,,,,,,,,,,,,,,,,,,,False,79,80,False,exp1.png,exp2.png,trial_right_image,-1,exp2.png,4,exp2.png,exp1.png,1,1,non-reversed,correct,0.3826576137514255,1,valid_win,612.8504266000818,47,,,,,,,,,,,,,,,,sub_248,2022-10-18_11h38.41.572,Reversal,2022.1.1,59.96188821286934,4,
,,,exp1.png,3,0,3,0,,,,,0,0,0,0,0,0,0,0,,,,,,,,,,,,,,,,,,,,,,,,,,,,,,,,,,,,,,17.0,17.0,4.940849200123921,"[(17.0, 4.940849200123921)]",712.1169346999377,None,,,,,,,,,,sub_248,2022-10-18_11h38.41.572,Reversal,2022.1.1,59.96188821286934,4,
,,,exp2.png,3,0,3,0,,,,,0,0,0,0,0,1,1,1,,,,,,,,,,,,,,,,,,,,,,,,,,,,,,,,,,,,,,,79.0,2.6427213000133634,"[(79.0, 2.6427213000133634)]",719.5461144999135,None,79.0,,,,,,,,,sub_248,2022-10-18_11h38.41.572,Reversal,2022.1.1,59.96188821286934,4,
,,,exp3.png,3,0,3,0,,,,,0,0,0,0,0,2,2,2,,,,,,,,,,,,,,,,,,,,,,,,,,,,,,,,,,,,,,,21.0,3.8067671998869628,"[(21.0, 3.8067671998869628)]",723.379717499949,None,,,21.0,,,,,,,sub_248,2022-10-18_11h38.41.572,Reversal,2022.1.1,59.96188821286934,4,
,,,exp4.png,3,0,3,0,,,,,0,0,0,0,0,3,3,3,,,,,,,,,,,,,,,,,,,,,,,,,,,,,,,,,,,,,,,81.0,2.104487100150436,"[(81.0, 2.104487100150436)]",729.3840854999144,None,,81.0,,,,,,,,sub_248,2022-10-18_11h38.41.572,Reversal,2022.1.1,59.96188821286934,4,
0,exp1.png,exp2.png,,,,,,,,,,,,,,,,,,0,0,0,0,0,0,0,0,,,,,,,,,True,,,,,,,,,,,,,,,,,,,,,,,,,,,,,,,,,,,,sub_248,2022-10-18_11h38.41.572,Reversal,2022.1.1,59.96188821286934,4,
1,exp3.png,exp4.png,,,,,,,,,,,,,,,,,,0,0,0,0,0,1,1,1,,,,,,,,,False,0,81,False,exp3.png,exp4.png,trial_right_image,-1,exp4.png,4,exp3.png,exp4.png,1,3,reversed,incorrect,0.42341240962965154,0,valid_lose,638.6980324999895,47,,,,,,,,,,635.9544812999666,,,,,,sub_248,2022-10-18_11h38.41.572,Reversal,2022.1.1,59.96188821286934,4,
2,exp1.png,exp2.png,,,,,,,,,,,,,,,,,,0,0,0,0,0,2,2,2,,,,,,,,,False,1,82,True,exp2.png,exp1.png,trial_left_image,1,exp2.png,4,exp2.png,exp1.png,1,1,non-reversed,correct,0.25002678491401864,1,valid_win,643.6793688999023,48,,,,,,,,,,,,,,,,sub_248,2022-10-18_11h38.41.572,Reversal,2022.1.1,59.96188821286934,4,
3,exp3.png,exp4.png,,,,,,,,,,,,,,,,,,0,0,0,0,0,3,3,3,,,,,,,,,False,2,83,False,exp3.png,exp4.png,trial_right_image,-1,exp4.png,4,exp3.png,exp4.png,1,3,reversed,incorrect,0.3397192401066891,0,valid_lose,649.245312999934,48,,,,,,,,,,,,,,,,sub_248,2022-10-18_11h38.41.572,Reversal,2022.1.1,59.96188821286934,4,
4,exp1.png,exp2.png,,,,,,,,,,,,,,,,,,0,0,0,0,0,4,4,4,,,,,,,,,False,3,84,True,exp2.png,exp1.png,trial_left_image,1,exp2.png,4,exp2.png,exp1.png,1,1,non-reversed,correct,0.6675004550151308,1,valid_win,655.6780803999864,49,,,,,,,,,,,,,,,,sub_248,2022-10-18_11h38.41.572,Reversal,2022.1.1,59.96188821286934,4,
5,exp3.png,exp4.png,,,,,,,,,,,,,,,,,,0,0,0,0,0,5,5,5,,,,,,,,,False,4,85,True,exp4.png,exp3.png,trial_left_image,1,exp4.png,4,exp3.png,exp4.png,1,3,reversed,incorrect,0.5488739353678536,0,valid_lose,662.7439109999686,49,,,,,,,,,,,,,,,,sub_248,2022-10-18_11h38.41.572,Reversal,2022.1.1,59.96188821286934,4,
6,exp1.png,exp2.png,,,,,,,,,,,,,,,,,,0,0,0,0,0,6,6,6,,,,,,,,,False,5,86,True,exp2.png,exp1.png,trial_left_image,1,exp2.png,4,exp2.png,exp1.png,1,1,non-reversed,correct,0.1886251767100986,0,invalid_lose,669.0430059998762,49,,,,,,,,,,,,,,,,sub_248,2022-10-18_11h38.41.572,Reversal,2022.1.1,59.96188821286934,4,
7,exp3.png,exp4.png,,,,,,,,,,,,,,,,,,0,0,0,0,0,7,7,7,,,,,,,,,False,6,87,True,exp4.png,exp3.png,trial_right_image,-1,exp3.png,4,exp3.png,exp4.png,0,4,reversed,correct,0.15829881622238218,0,invalid_lose,673.6597229999024,49,,,,,,,,,,,,,,,,sub_248,2022-10-18_11h38.41.572,Reversal,2022.1.1,59.96188821286934,4,
8,exp1.png,exp2.png,,,,,,,,,,,,,,,,,,0,0,0,0,0,8,8,8,,,,,,,,,False,7,88,False,exp1.png,exp2.png,trial_right_image,-1,exp2.png,4,exp2.png,exp1.png,1,1,non-reversed,correct,0.6227689964646783,1,valid_win,678.1088326000609,50,,,,,,,,,,,,,,,,sub_248,2022-10-18_11h38.41.572,Reversal,2022.1.1,59.96188821286934,4,
9,exp3.png,exp4.png,,,,,,,,,,,,,,,,,,0,0,0,0,0,9,9,9,,,,,,,,,False,8,89,True,exp4.png,exp3.png,trial_right_image,-1,exp3.png,4,exp3.png,exp4.png,0,4,reversed,correct,0.51469682904063,1,valid_win,682.4927580000367,51,,,,,,,,,,,,,,,,sub_248,2022-10-18_11h38.41.572,Reversal,2022.1.1,59.96188821286934,4,
10,exp1.png,exp2.png,,,,,,,,,,,,,,,,,,0,0,0,0,0,10,10,10,,,,,,,,,False,9,90,False,exp1.png,exp2.png,trial_right_image,-1,exp2.png,4,exp2.png,exp1.png,1,1,non-reversed,correct,0.5875595861547074,1,valid_win,687.2571002999321,52,,,,,,,,,,,,,,,,sub_248,2022-10-18_11h38.41.572,Reversal,2022.1.1,59.96188821286934,4,
11,exp3.png,exp4.png,,,,,,,,,,,,,,,,,,0,0,0,0,0,11,11,11,,,,,,,,,False,10,91,True,exp4.png,exp3.png,trial_right_image,-1,exp3.png,4,exp3.png,exp4.png,0,4,reversed,correct,0.9238175730083387,1,valid_win,691.692994199926,53,,,,,,,,,,,,,,,,sub_248,2022-10-18_11h38.41.572,Reversal,2022.1.1,59.96188821286934,4,
12,exp1.png,exp2.png,,,,,,,,,,,,,,,,,,0,0,0,0,0,12,12,12,,,,,,,,,False,11,92,True,exp2.png,exp1.png,trial_right_image,-1,exp1.png,4,exp2.png,exp1.png,0,2,non-reversed,incorrect,0.38564593409276104,0,valid_lose,697.9222617999185,53,,,,,,,,,,,,,,,,sub_248,2022-10-18_11h38.41.572,Reversal,2022.1.1,59.96188821286934,4,
13,exp3.png,exp4.png,,,,,,,,,,,,,,,,,,0,0,0,0,0,13,13,13,,,,,,,,,False,12,93,False,exp3.png,exp4.png,trial_left_image,1,exp3.png,4,exp3.png,exp4.png,0,4,reversed,correct,0.7214594758954025,1,valid_win,702.9222074998543,54,,,,,,,,,,,,,,,,sub_248,2022-10-18_11h38.41.572,Reversal,2022.1.1,59.96188821286934,4,
14,exp1.png,exp2.png,,,,,,,,,,,,,,,,,,0,0,0,0,0,14,14,14,,,,,,,,,False,13,94,False,exp1.png,exp2.png,trial_right_image,-1,exp2.png,4,exp2.png,exp1.png,1,1,non-reversed,correct,0.8849705854983045,1,valid_win,707.2224242999218,55,,,,,,,,,,,,,,,,sub_248,2022-10-18_11h38.41.572,Reversal,2022.1.1,59.96188821286934,4,
15,exp3.png,exp4.png,,,,,,,,,,,,,,,,,,0,0,0,0,0,15,15,15,,,,,,,,,False,14,95,False,exp3.png,exp4.png,trial_left_image,1,exp3.png,4,exp3.png,exp4.png,0,4,reversed,correct,0.7359425070223503,1,valid_win,713.3714195999783,56,,,,,,,,,,,,,,,,sub_248,2022-10-18_11h38.41.572,Reversal,2022.1.1,59.96188821286934,4,
16,exp1.png,exp2.png,,,,,,,,,,,,,,,,,,0,0,0,0,0,16,16,16,,,,,,,,,False,15,96,False,exp1.png,exp2.png,trial_right_image,-1,exp2.png,4,exp2.png,exp1.png,1,1,non-reversed,correct,0.4094567447422752,1,valid_win,718.4032517999876,57,,,,,,,,,,,,,,,,sub_248,2022-10-18_11h38.41.572,Reversal,2022.1.1,59.96188821286934,4,
17,exp3.png,exp4.png,,,,,,,,,,,,,,,,,,0,0,0,0,0,17,17,17,,,,,,,,,False,16,97,True,exp4.png,exp3.png,trial_right_image,-1,exp3.png,4,exp3.png,exp4.png,0,4,reversed,correct,0.6509737603384116,1,valid_win,722.7857248999644,58,,,,,,,,,,,,,,,,sub_248,2022-10-18_11h38.41.572,Reversal,2022.1.1,59.96188821286934,4,
18,exp1.png,exp2.png,,,,,,,,,,,,,,,,,,0,0,0,0,0,18,18,18,,,,,,,,,False,17,98,False,exp1.png,exp2.png,trial_right_image,-1,exp2.png,4,exp2.png,exp1.png,1,1,non-reversed,correct,0.3083984517269225,1,valid_win,727.2021480000112,59,,,,,,,,,,,,,,,,sub_248,2022-10-18_11h38.41.572,Reversal,2022.1.1,59.96188821286934,4,
19,exp3.png,exp4.png,,,,,,,,,,,,,,,,,,0,0,0,0,0,19,19,19,,,,,,,,,False,18,99,False,exp3.png,exp4.png,trial_left_image,1,exp3.png,4,exp3.png,exp4.png,0,4,reversed,correct,0.8084433249729223,1,valid_win,733.5352181000635,60,,,,,,,,,,,,,,,,sub_248,2022-10-18_11h38.41.572,Reversal,2022.1.1,59.96188821286934,4,
20,exp1.png,exp2.png,,,,,,,,,,,,,,,,,,0,0,0,0,0,20,20,20,,,,,,,,,False,19,100,True,exp2.png,exp1.png,trial_left_image,1,exp2.png,4,exp2.png,exp1.png,1,1,non-reversed,correct,0.7431226110989381,1,valid_win,739.4672157999594,61,,,,,,,,,,,,,,,,sub_248,2022-10-18_11h38.41.572,Reversal,2022.1.1,59.96188821286934,4,
,,,exp1.png,,,,,,,,,,,,,,,,,0,0,0,0,,,,,0,0,0,0,0,0,0,0,,,,,,,,,,,,,,,,,,,,,,22.0,22.0,5.144486799836159,"[(22.0, 5.144486799836159)]",838.7470897999592,None,,,,,,,,,,sub_248,2022-10-18_11h38.41.572,Reversal,2022.1.1,59.96188821286934,4,
,,,exp2.png,,,,,,,,,,,,,,,,,0,0,0,0,,,,,0,0,0,0,0,1,1,1,,,,,,,,,,,,,,,,,,,,,,,84.0,2.102847100002691,"[(84.0, 2.102847100002691)]",845.3356735999696,None,84.0,,,,,,,,,sub_248,2022-10-18_11h38.41.572,Reversal,2022.1.1,59.96188821286934,4,
,,,exp3.png,,,,,,,,,,,,,,,,,0,0,0,0,,,,,0,0,0,0,0,2,2,2,,,,,,,,,,,,,,,,,,,,,,,83.0,2.6095008000265807,"[(83.0, 2.6095008000265807)]",848.5950527000241,None,,,83.0,,,,,,,sub_248,2022-10-18_11h38.41.572,Reversal,2022.1.1,59.96188821286934,4,
,,,exp4.png,,,,,,,,,,,,,,,,,0,0,0,0,,,,,0,0,0,0,0,3,3,3,,,,,,,,,,,,,,,,,,,,,,,18.0,2.0396797999273986,"[(18.0, 2.0396797999273986)]",852.332484100014,None,,18.0,,,,,,,,sub_248,2022-10-18_11h38.41.572,Reversal,2022.1.1,59.96188821286934,4,
0,exp1.png,exp2.png,,,,,,,,,,,,,,,,,,1,0,1,0,0,0,0,0,,,,,,,,,True,,,,,,,,,,,,,,,,,,,,,,,,,,,,,,,,,,,,sub_248,2022-10-18_11h38.41.572,Reversal,2022.1.1,59.96188821286934,4,
1,exp3.png,exp4.png,,,,,,,,,,,,,,,,,,1,0,1,0,0,1,1,1,,,,,,,,,False,20,101,True,exp4.png,exp3.png,trial_right_image,-1,exp3.png,4,exp3.png,exp4.png,0,4,reversed,correct,0.1283001691816763,0,invalid_lose,761.8309971999843,61,,,,,,,,,,,,,,,,sub_248,2022-10-18_11h38.41.572,Reversal,2022.1.1,59.96188821286934,4,
2,exp1.png,exp2.png,,,,,,,,,,,,,,,,,,1,0,1,0,0,2,2,2,,,,,,,,,False,21,102,False,exp1.png,exp2.png,trial_right_image,-1,exp2.png,4,exp2.png,exp1.png,1,1,non-reversed,correct,0.1538084986834326,0,invalid_lose,766.5974033998791,61,,,,,,,,,,,,,,,,sub_248,2022-10-18_11h38.41.572,Reversal,2022.1.1,59.96188821286934,4,
3,exp3.png,exp4.png,,,,,,,,,,,,,,,,,,1,0,1,0,0,3,3,3,,,,,,,,,False,22,103,False,exp3.png,exp4.png,trial_left_image,1,exp3.png,4,exp3.png,exp4.png,0,4,reversed,correct,0.3023674719712135,1,valid_win,772.3630689999554,62,,,,,,,,,,,,,,,,sub_248,2022-10-18_11h38.41.572,Reversal,2022.1.1,59.96188821286934,4,
4,exp1.png,exp2.png,,,,,,,,,,,,,,,,,,1,0,1,0,0,4,4,4,,,,,,,,,False,23,104,True,exp2.png,exp1.png,trial_left_image,1,exp2.png,4,exp2.png,exp1.png,1,1,non-reversed,correct,0.6383161288975198,1,valid_win,777.428703899961,63,,,,,,,,,,,,,,,,sub_248,2022-10-18_11h38.41.572,Reversal,2022.1.1,59.96188821286934,4,
5,exp3.png,exp4.png,,,,,,,,,,,,,,,,,,1,0,1,0,0,5,5,5,,,,,,,,,False,24,105,False,exp3.png,exp4.png,trial_left_image,1,exp3.png,4,exp3.png,exp4.png,0,4,reversed,correct,0.8833035768666123,1,valid_win,783.3625262998976,64,,,,,,,,,,,,,,,,sub_248,2022-10-18_11h38.41.572,Reversal,2022.1.1,59.96188821286934,4,
6,exp1.png,exp2.png,,,,,,,,,,,,,,,,,,1,0,1,0,0,6,6,6,,,,,,,,,False,25,106,False,exp1.png,exp2.png,trial_right_image,-1,exp2.png,4,exp2.png,exp1.png,1,1,non-reversed,correct,0.7419438940082275,1,valid_win,788.6123937999364,65,,,,,,,,,,,,,,,,sub_248,2022-10-18_11h38.41.572,Reversal,2022.1.1,59.96188821286934,4,
7,exp3.png,exp4.png,,,,,,,,,,,,,,,,,,1,0,1,0,0,7,7,7,,,,,,,,,False,26,107,False,exp3.png,exp4.png,trial_left_image,1,exp3.png,4,exp3.png,exp4.png,0,4,reversed,correct,0.7823001929904461,1,valid_win,793.210355399875,66,,,,,,,,,,,,,,,,sub_248,2022-10-18_11h38.41.572,Reversal,2022.1.1,59.96188821286934,4,
8,exp1.png,exp2.png,,,,,,,,,,,,,,,,,,1,0,1,0,0,8,8,8,,,,,,,,,False,27,108,True,exp2.png,exp1.png,trial_right_image,-1,exp1.png,4,exp2.png,exp1.png,0,2,non-reversed,incorrect,0.07958415053842105,1,invalid_win,797.6428632000461,67,,,,,,,,,,,,,,,,sub_248,2022-10-18_11h38.41.572,Reversal,2022.1.1,59.96188821286934,4,
9,exp3.png,exp4.png,,,,,,,,,,,,,,,,,,1,0,1,0,0,9,9,9,,,,,,,,,False,28,109,False,exp3.png,exp4.png,trial_left_image,1,exp3.png,4,exp3.png,exp4.png,0,4,reversed,correct,0.7649880338446858,1,valid_win,803.1089160998818,68,,,,,,,,,,,,,,,,sub_248,2022-10-18_11h38.41.572,Reversal,2022.1.1,59.96188821286934,4,
10,exp1.png,exp2.png,,,,,,,,,,,,,,,,,,1,0,1,0,0,10,10,10,,,,,,,,,False,29,110,True,exp2.png,exp1.png,trial_left_image,1,exp2.png,4,exp2.png,exp1.png,1,1,non-reversed,correct,0.8460763823860658,1,valid_win,809.0580430999398,69,,,,,,,,,,,,,,,,sub_248,2022-10-18_11h38.41.572,Reversal,2022.1.1,59.96188821286934,4,
11,exp3.png,exp4.png,,,,,,,,,,,,,,,,,,1,0,1,0,0,11,11,11,,,,,,,,,False,30,111,False,exp3.png,exp4.png,trial_left_image,1,exp3.png,4,exp3.png,exp4.png,0,4,reversed,correct,0.4214253019718268,1,valid_win,814.8573403998744,70,,,,,,,,,,,,,,,,sub_248,2022-10-18_11h38.41.572,Reversal,2022.1.1,59.96188821286934,4,
12,exp1.png,exp2.png,,,,,,,,,,,,,,,,,,1,0,1,0,0,12,12,12,,,,,,,,,False,31,112,True,exp2.png,exp1.png,trial_left_image,1,exp2.png,4,exp2.png,exp1.png,1,1,non-reversed,correct,0.24111445435563095,0,invalid_lose,820.2070138000418,70,,,,,,,,,,,,,,,,sub_248,2022-10-18_11h38.41.572,Reversal,2022.1.1,59.96188821286934,4,
13,exp3.png,exp4.png,,,,,,,,,,,,,,,,,,1,0,1,0,0,13,13,13,,,,,,,,,False,32,113,True,exp4.png,exp3.png,trial_left_image,1,exp4.png,4,exp3.png,exp4.png,1,3,reversed,incorrect,0.3304247023466871,0,valid_lose,826.0904057999142,70,,,,,,,,,,,,,,,,sub_248,2022-10-18_11h38.41.572,Reversal,2022.1.1,59.96188821286934,4,
14,exp1.png,exp2.png,,,,,,,,,,,,,,,,,,1,0,1,0,0,14,14,14,,,,,,,,,False,33,114,True,exp2.png,exp1.png,trial_left_image,1,exp2.png,4,exp2.png,exp1.png,1,1,non-reversed,correct,0.2414396847095336,0,invalid_lose,830.5558333999943,70,,,,,,,,,,,,,,,,sub_248,2022-10-18_11h38.41.572,Reversal,2022.1.1,59.96188821286934,4,
15,exp3.png,exp4.png,,,,,,,,,,,,,,,,,,1,0,1,0,0,15,15,15,,,,,,,,,False,34,115,False,exp3.png,exp4.png,trial_left_image,1,exp3.png,4,exp3.png,exp4.png,0,4,reversed,correct,0.6561284518985686,1,valid_win,836.3545593000017,71,,,,,,,,,,,,,,,,sub_248,2022-10-18_11h38.41.572,Reversal,2022.1.1,59.96188821286934,4,
16,exp1.png,exp2.png,,,,,,,,,,,,,,,,,,1,0,1,0,0,16,16,16,,,,,,,,,False,35,116,False,exp1.png,exp2.png,trial_right_image,-1,exp2.png,4,exp2.png,exp1.png,1,1,non-reversed,correct,0.6688466228915433,1,valid_win,841.4542064999696,72,,,,,,,,,,,,,,,,sub_248,2022-10-18_11h38.41.572,Reversal,2022.1.1,59.96188821286934,4,
17,exp3.png,exp4.png,,,,,,,,,,,,,,,,,,1,0,1,0,0,17,17,17,,,,,,,,,False,36,117,True,exp4.png,exp3.png,trial_right_image,-1,exp3.png,4,exp3.png,exp4.png,0,4,reversed,correct,0.2619339951381906,1,valid_win,847.8360180999152,73,,,,,,,,,,,,,,,,sub_248,2022-10-18_11h38.41.572,Reversal,2022.1.1,59.96188821286934,4,
18,exp1.png,exp2.png,,,,,,,,,,,,,,,,,,1,0,1,0,0,18,18,18,,,,,,,,,False,37,118,False,exp1.png,exp2.png,trial_right_image,-1,exp2.png,4,exp2.png,exp1.png,1,1,non-reversed,correct,0.375232141086949,1,valid_win,852.8018461000174,74,,,,,,,,,,,,,,,,sub_248,2022-10-18_11h38.41.572,Reversal,2022.1.1,59.96188821286934,4,
19,exp3.png,exp4.png,,,,,,,,,,,,,,,,,,1,0,1,0,0,19,19,19,,,,,,,,,False,38,119,True,exp4.png,exp3.png,trial_right_image,-1,exp3.png,4,exp3.png,exp4.png,0,4,reversed,correct,0.9008262670876109,1,valid_win,857.986336800037,75,,,,,,,,,,,,,,,,sub_248,2022-10-18_11h38.41.572,Reversal,2022.1.1,59.96188821286934,4,
20,exp1.png,exp2.png,,,,,,,,,,,,,,,,,,1,0,1,0,0,20,20,20,,,,,,,,,False,39,120,True,exp2.png,exp1.png,trial_right_image,-1,exp1.png,4,exp2.png,exp1.png,0,2,non-reversed,incorrect,0.46736865970084474,0,valid_lose,862.384524299996,75,,,,,,,,,,,,,,,,sub_248,2022-10-18_11h38.41.572,Reversal,2022.1.1,59.96188821286934,4,
,,,exp1.png,,,,,,,,,,,,,,,,,1,0,1,0,,,,,0,0,0,0,0,0,0,0,,,,,,,,,,,,,,,,,,,,,,19.0,19.0,3.3100563001353294,"[(19.0, 3.3100563001353294)]",961.6468673998024,None,,,,,,,,,,sub_248,2022-10-18_11h38.41.572,Reversal,2022.1.1,59.96188821286934,4,
,,,exp2.png,,,,,,,,,,,,,,,,,1,0,1,0,,,,,0,0,0,0,0,1,1,1,,,,,,,,,,,,,,,,,,,,,,,85.0,1.7063722999300808,"[(85.0, 1.7063722999300808)]",966.5657938998193,None,85.0,,,,,,,,,sub_248,2022-10-18_11h38.41.572,Reversal,2022.1.1,59.96188821286934,4,
,,,exp3.png,,,,,,,,,,,,,,,,,1,0,1,0,,,,,0,0,0,0,0,2,2,2,,,,,,,,,,,,,,,,,,,,,,,84.0,3.6388789999764413,"[(84.0, 3.6388789999764413)]",969.3506353998091,None,,,84.0,,,,,,,sub_248,2022-10-18_11h38.41.572,Reversal,2022.1.1,59.96188821286934,4,
,,,exp4.png,,,,,,,,,,,,,,,,,1,0,1,0,,,,,0,0,0,0,0,3,3,3,,,,,,,,,,,,,,,,,,,,,,,17.0,2.107839100062847,"[(17.0, 2.107839100062847)]",974.179215000011,None,,17.0,,,,,,,,sub_248,2022-10-18_11h38.41.572,Reversal,2022.1.1,59.96188821286934,4,
0,exp1.png,exp2.png,,,,,,,,,,,,,,,,,,2,0,2,0,0,0,0,0,,,,,,,,,True,,,,,,,,,,,,,,,,,,,,,,,,,,,,,,,,,,,,sub_248,2022-10-18_11h38.41.572,Reversal,2022.1.1,59.96188821286934,4,
1,exp3.png,exp4.png,,,,,,,,,,,,,,,,,,2,0,2,0,0,1,1,1,,,,,,,,,False,40,121,True,exp4.png,exp3.png,trial_right_image,-1,exp3.png,4,exp3.png,exp4.png,0,4,reversed,correct,0.5232844621558563,1,valid_win,887.2645914999302,76,,,,,,,,,,,,,,,,sub_248,2022-10-18_11h38.41.572,Reversal,2022.1.1,59.96188821286934,4,
2,exp1.png,exp2.png,,,,,,,,,,,,,,,,,,2,0,2,0,0,2,2,2,,,,,,,,,False,41,122,False,exp1.png,exp2.png,trial_right_image,-1,exp2.png,4,exp2.png,exp1.png,1,1,non-reversed,correct,0.09891195803589425,0,invalid_lose,891.9975097000133,76,,,,,,,,,,,,,,,,sub_248,2022-10-18_11h38.41.572,Reversal,2022.1.1,59.96188821286934,4,
3,exp3.png,exp4.png,,,,,,,,,,,,,,,,,,2,0,2,0,0,3,3,3,,,,,,,,,False,42,123,False,exp3.png,exp4.png,trial_left_image,1,exp3.png,4,exp3.png,exp4.png,0,4,reversed,correct,0.11392660415718625,0,invalid_lose,896.8637765999883,76,,,,,,,,,,,,,,,,sub_248,2022-10-18_11h38.41.572,Reversal,2022.1.1,59.96188821286934,4,
4,exp1.png,exp2.png,,,,,,,,,,,,,,,,,,2,0,2,0,0,4,4,4,,,,,,,,,False,43,124,True,exp2.png,exp1.png,trial_left_image,1,exp2.png,4,exp2.png,exp1.png,1,1,non-reversed,correct,0.4817614034079768,1,valid_win,903.0296825000551,77,,,,,,,,,,,,,,,,sub_248,2022-10-18_11h38.41.572,Reversal,2022.1.1,59.96188821286934,4,
5,exp3.png,exp4.png,,,,,,,,,,,,,,,,,,2,0,2,0,0,5,5,5,,,,,,,,,False,44,125,True,exp4.png,exp3.png,trial_right_image,-1,exp3.png,4,exp3.png,exp4.png,0,4,reversed,correct,0.11405143353771252,0,invalid_lose,907.5780692000408,77,,,,,,,,,,,,,,,,sub_248,2022-10-18_11h38.41.572,Reversal,2022.1.1,59.96188821286934,4,
6,exp1.png,exp2.png,,,,,,,,,,,,,,,,,,2,0,2,0,0,6,6,6,,,,,,,,,False,45,126,False,exp1.png,exp2.png,trial_right_image,-1,exp2.png,4,exp2.png,exp1.png,1,1,non-reversed,correct,0.5024464382965926,1,valid_win,912.7445324000437,78,,,,,,,,,,,,,,,,sub_248,2022-10-18_11h38.41.572,Reversal,2022.1.1,59.96188821286934,4,
7,exp3.png,exp4.png,,,,,,,,,,,,,,,,,,2,0,2,0,0,7,7,7,,,,,,,,,False,46,127,True,exp4.png,exp3.png,trial_right_image,-1,exp3.png,4,exp3.png,exp4.png,0,4,reversed,correct,0.02888010538792163,0,invalid_lose,917.5789784998633,78,,,,,,,,,,,,,,,,sub_248,2022-10-18_11h38.41.572,Reversal,2022.1.1,59.96188821286934,4,
8,exp1.png,exp2.png,,,,,,,,,,,,,,,,,,2,0,2,0,0,8,8,8,,,,,,,,,False,47,128,False,exp1.png,exp2.png,trial_right_image,-1,exp2.png,4,exp2.png,exp1.png,1,1,non-reversed,correct,0.09826370858226796,0,invalid_lose,922.7433088000398,78,,,,,,,,,,,,,,,,sub_248,2022-10-18_11h38.41.572,Reversal,2022.1.1,59.96188821286934,4,
9,exp3.png,exp4.png,,,,,,,,,,,,,,,,,,2,0,2,0,0,9,9,9,,,,,,,,,False,48,129,True,exp4.png,exp3.png,trial_left_image,1,exp4.png,4,exp3.png,exp4.png,1,3,reversed,incorrect,0.008295181491065229,1,invalid_win,927.1925723999739,79,,,,,,,,,,,,,,,,sub_248,2022-10-18_11h38.41.572,Reversal,2022.1.1,59.96188821286934,4,
10,exp1.png,exp2.png,,,,,,,,,,,,,,,,,,2,0,2,0,0,10,10,10,,,,,,,,,False,49,130,False,exp1.png,exp2.png,trial_right_image,-1,exp2.png,4,exp2.png,exp1.png,1,1,non-reversed,correct,0.6153710406560363,1,valid_win,932.2925521000288,80,,,,,,,,,,,,,,,,sub_248,2022-10-18_11h38.41.572,Reversal,2022.1.1,59.96188821286934,4,
11,exp3.png,exp4.png,,,,,,,,,,,,,,,,,,2,0,2,0,0,11,11,11,,,,,,,,,False,50,131,True,exp4.png,exp3.png,trial_left_image,1,exp4.png,4,exp3.png,exp4.png,1,3,reversed,incorrect,0.8802490486593563,0,valid_lose,938.5239241998643,80,,,,,,,,,,,,,,,,sub_248,2022-10-18_11h38.41.572,Reversal,2022.1.1,59.96188821286934,4,
12,exp1.png,exp2.png,,,,,,,,,,,,,,,,,,2,0,2,0,0,12,12,12,,,,,,,,,False,51,132,True,exp2.png,exp1.png,trial_left_image,1,exp2.png,4,exp2.png,exp1.png,1,1,non-reversed,correct,0.5038538286027225,1,valid_win,945.3071584000718,81,,,,,,,,,,,,,,,,sub_248,2022-10-18_11h38.41.572,Reversal,2022.1.1,59.96188821286934,4,
13,exp3.png,exp4.png,,,,,,,,,,,,,,,,,,2,0,2,0,0,13,13,13,,,,,,,,,False,52,133,False,exp3.png,exp4.png,trial_right_image,-1,exp4.png,4,exp3.png,exp4.png,1,3,reversed,incorrect,0.6784309477608128,0,valid_lose,953.6890435998794,81,,,,,,,,,,,,,,,,sub_248,2022-10-18_11h38.41.572,Reversal,2022.1.1,59.96188821286934,4,
14,exp1.png,exp2.png,,,,,,,,,,,,,,,,,,2,0,2,0,0,14,14,14,,,,,,,,,False,53,134,False,exp1.png,exp2.png,trial_right_image,-1,exp2.png,4,exp2.png,exp1.png,1,1,non-reversed,correct,0.24478600790348048,0,invalid_lose,958.8885687999427,81,,,,,,,,,,,,,,,,sub_248,2022-10-18_11h38.41.572,Reversal,2022.1.1,59.96188821286934,4,
15,exp3.png,exp4.png,,,,,,,,,,,,,,,,,,2,0,2,0,0,15,15,15,,,,,,,,,False,54,135,True,exp4.png,exp3.png,trial_right_image,-1,exp3.png,4,exp3.png,exp4.png,0,4,reversed,correct,0.15581305693877323,0,invalid_lose,964.7055154000409,81,,,,,,,,,,,,,,,,sub_248,2022-10-18_11h38.41.572,Reversal,2022.1.1,59.96188821286934,4,
16,exp1.png,exp2.png,,,,,,,,,,,,,,,,,,2,0,2,0,0,16,16,16,,,,,,,,,False,55,136,True,exp2.png,exp1.png,trial_left_image,1,exp2.png,4,exp2.png,exp1.png,1,1,non-reversed,correct,0.3198836974181648,1,valid_win,972.4539389000274,82,,,,,,,,,,,,,,,,sub_248,2022-10-18_11h38.41.572,Reversal,2022.1.1,59.96188821286934,4,
17,exp3.png,exp4.png,,,,,,,,,,,,,,,,,,2,0,2,0,0,17,17,17,,,,,,,,,False,56,137,True,exp4.png,exp3.png,trial_right_image,-1,exp3.png,4,exp3.png,exp4.png,0,4,reversed,correct,0.523760110916831,1,valid_win,980.2860030999873,83,,,,,,,,,,,,,,,,sub_248,2022-10-18_11h38.41.572,Reversal,2022.1.1,59.96188821286934,4,
18,exp1.png,exp2.png,,,,,,,,,,,,,,,,,,2,0,2,0,0,18,18,18,,,,,,,,,False,57,138,False,exp1.png,exp2.png,trial_right_image,-1,exp2.png,4,exp2.png,exp1.png,1,1,non-reversed,correct,0.3381879742097942,1,valid_win,985.7353491000831,84,,,,,,,,,,,,,,,,sub_248,2022-10-18_11h38.41.572,Reversal,2022.1.1,59.96188821286934,4,
19,exp3.png,exp4.png,,,,,,,,,,,,,,,,,,2,0,2,0,0,19,19,19,,,,,,,,,False,58,139,False,exp3.png,exp4.png,trial_left_image,1,exp3.png,4,exp3.png,exp4.png,0,4,reversed,correct,0.2607213870450995,1,valid_win,991.985503599979,85,,,,,,,,,,,,,,,,sub_248,2022-10-18_11h38.41.572,Reversal,2022.1.1,59.96188821286934,4,
20,exp1.png,exp2.png,,,,,,,,,,,,,,,,,,2,0,2,0,0,20,20,20,,,,,,,,,False,59,140,False,exp1.png,exp2.png,trial_right_image,-1,exp2.png,4,exp2.png,exp1.png,1,1,non-reversed,correct,0.6382152659352435,1,valid_win,996.7174382999074,86,,,,,,,,,,,,,,,,sub_248,2022-10-18_11h38.41.572,Reversal,2022.1.1,59.96188821286934,4,
,,,exp1.png,,,,,,,,,,,,,,,,,2,0,2,0,,,,,0,0,0,0,0,0,0,0,,,,,,,,,,,,,,,,,,,,,,17.0,17.0,4.9388810999225825,"[(21.0, 3.105118799954653), (17.0, 4.9388810999225825)]",1095.969970599981,None,,,,,,,,,,sub_248,2022-10-18_11h38.41.572,Reversal,2022.1.1,59.96188821286934,4,
,,,exp2.png,,,,,,,,,,,,,,,,,2,0,2,0,,,,,0,0,0,0,0,1,1,1,,,,,,,,,,,,,,,,,,,,,,,82.0,2.0597999999299645,"[(82.0, 2.0597999999299645)]",1102.1115323998965,None,82.0,,,,,,,,,sub_248,2022-10-18_11h38.41.572,Reversal,2022.1.1,59.96188821286934,4,
,,,exp3.png,,,,,,,,,,,,,,,,,2,0,2,0,,,,,0,0,0,0,0,2,2,2,,,,,,,,,,,,,,,,,,,,,,,50.0,None,[],1105.2455815998837,None,,,,,,,,,,sub_248,2022-10-18_11h38.41.572,Reversal,2022.1.1,59.96188821286934,4,
,,,exp4.png,,,,,,,,,,,,,,,,,2,0,2,0,,,,,0,0,0,0,0,3,3,3,,,,,,,,,,,,,,,,,,,,,,,50.0,None,[],1107.3620555999223,None,,,,,,,,,,sub_248,2022-10-18_11h38.41.572,Reversal,2022.1.1,59.96188821286934,4,
,,,,,,,,,,,,,,,,,,,,,,,,,,,,,,,,,,,,,,,,,,,,,,,,,,,,,,,,86,,,,,,,,,,,105,55,50,375.695350300055,1,,,,,,,
