trial_index,trial_image1_file,trial_image2_file,image_file,learning_outer_loop.thisRepN,learning_outer_loop.thisTrialN,learning_outer_loop.thisN,learning_outer_loop.thisIndex,learning_inner_loop.thisRepN,learning_inner_loop.thisTrialN,learning_inner_loop.thisN,learning_inner_loop.thisIndex,learning_estimation_outer_loop.thisRepN,learning_estimation_outer_loop.thisTrialN,learning_estimation_outer_loop.thisN,learning_estimation_outer_loop.thisIndex,learning_estimation_inner_loop.thisRepN,learning_estimation_inner_loop.thisTrialN,learning_estimation_inner_loop.thisN,learning_estimation_inner_loop.thisIndex,reversal_outer_loop.thisRepN,reversal_outer_loop.thisTrialN,reversal_outer_loop.thisN,reversal_outer_loop.thisIndex,reversal_inner_loop.thisRepN,reversal_inner_loop.thisTrialN,reversal_inner_loop.thisN,reversal_inner_loop.thisIndex,reversal_estimation_outer_loop.thisRepN,reversal_estimation_outer_loop.thisTrialN,reversal_estimation_outer_loop.thisN,reversal_estimation_outer_loop.thisIndex,reversal_estimation_inner_loop.thisRepN,reversal_estimation_inner_loop.thisTrialN,reversal_estimation_inner_loop.thisN,reversal_estimation_inner_loop.thisIndex,skipped,total_trial_counter,trial_num,left_right_flip,left_image_file,right_image_file,clicked_stimulus_side,side,clicked_stimulus,version,high_prob_image_file,low_prob_image_file,choice_a,choice_b,pair_type,correct,trial_feedback_random,reward,trial_type,overall_time_after_trial,score,estimation_exp1.png,estimation_rating.response,estimation_rating.rt,estimation_rating.history,estimation_rating.started,estimation_rating.stopped,estimation_exp2.png,estimation_exp3.png,estimation_exp4.png,total_learning_time,total_correct,learning_correct,reversal_correct,total_reversal_time,extra_block,end_experiment.keys,end_experiment.rt,participant,date,expName,psychopyVersion,frameRate,ver,
0,exp1.png,exp2.png,,0,0,0,0,0,0,0,0,,,,,,,,,,,,,,,,,,,,,,,,,True,,,,,,,,,,,,,,,,,,,,,,,,,,,,,,,,,,,,,,sub_716,2024-06-07_11h03.53.795,Reversal,2022.1.2,59.946719229392464,4,
1,exp3.png,exp4.png,,0,0,0,0,0,1,1,1,,,,,,,,,,,,,,,,,,,,,,,,,False,0,1,True,exp4.png,exp3.png,trial_left_image,1,exp4.png,4,exp4.png,exp3.png,1,3,reversed,correct,0.27813047528315527,1,valid_win,2.633145000785589,1,,,,,,,,,,,,,,,,,,sub_716,2024-06-07_11h03.53.795,Reversal,2022.1.2,59.946719229392464,4,
2,exp1.png,exp2.png,,0,0,0,0,0,2,2,2,,,,,,,,,,,,,,,,,,,,,,,,,False,1,2,False,exp1.png,exp2.png,trial_right_image,-1,exp2.png,4,exp2.png,exp1.png,1,1,non-reversed,correct,0.23950750691056544,0,invalid_lose,24.466187000274658,1,,,,,,,,,,,,,,,,,,sub_716,2024-06-07_11h03.53.795,Reversal,2022.1.2,59.946719229392464,4,
3,exp3.png,exp4.png,,0,0,0,0,0,3,3,3,,,,,,,,,,,,,,,,,,,,,,,,,False,2,3,False,exp3.png,exp4.png,trial_left_image,1,exp3.png,4,exp4.png,exp3.png,0,4,reversed,incorrect,0.1291098913997304,1,invalid_win,33.58210860006511,2,,,,,,,,,,,,,,,,,,sub_716,2024-06-07_11h03.53.795,Reversal,2022.1.2,59.946719229392464,4,
4,exp1.png,exp2.png,,0,0,0,0,0,4,4,4,,,,,,,,,,,,,,,,,,,,,,,,,False,3,4,True,exp2.png,exp1.png,trial_left_image,1,exp2.png,4,exp2.png,exp1.png,1,1,non-reversed,correct,0.8987416474690828,1,valid_win,38.16585719957948,3,,,,,,,,,,,,,,,,,,sub_716,2024-06-07_11h03.53.795,Reversal,2022.1.2,59.946719229392464,4,
5,exp3.png,exp4.png,,0,0,0,0,0,5,5,5,,,,,,,,,,,,,,,,,,,,,,,,,False,4,5,False,exp3.png,exp4.png,trial_left_image,1,exp3.png,4,exp4.png,exp3.png,0,4,reversed,incorrect,0.7970963238277482,0,valid_lose,42.51588699966669,3,,,,,,,,,,,,,,,,,,sub_716,2024-06-07_11h03.53.795,Reversal,2022.1.2,59.946719229392464,4,
6,exp1.png,exp2.png,,0,0,0,0,0,6,6,6,,,,,,,,,,,,,,,,,,,,,,,,,False,5,6,True,exp2.png,exp1.png,trial_right_image,-1,exp1.png,4,exp2.png,exp1.png,0,2,non-reversed,incorrect,0.945469228476699,0,valid_lose,48.166298899799585,3,,,,,,,,,,,,,,,,,,sub_716,2024-06-07_11h03.53.795,Reversal,2022.1.2,59.946719229392464,4,
7,exp3.png,exp4.png,,0,0,0,0,0,7,7,7,,,,,,,,,,,,,,,,,,,,,,,,,False,6,7,True,exp4.png,exp3.png,trial_left_image,1,exp4.png,4,exp4.png,exp3.png,1,3,reversed,correct,0.2201345179690869,0,invalid_lose,52.54874919913709,3,,,,,,,,,,,,,,,,,,sub_716,2024-06-07_11h03.53.795,Reversal,2022.1.2,59.946719229392464,4,
8,exp1.png,exp2.png,,0,0,0,0,0,8,8,8,,,,,,,,,,,,,,,,,,,,,,,,,False,7,8,False,exp1.png,exp2.png,trial_right_image,-1,exp2.png,4,exp2.png,exp1.png,1,1,non-reversed,correct,0.25885301292692475,1,valid_win,59.43222480081022,4,,,,,,,,,,,,,,,,,,sub_716,2024-06-07_11h03.53.795,Reversal,2022.1.2,59.946719229392464,4,
9,exp3.png,exp4.png,,0,0,0,0,0,9,9,9,,,,,,,,,,,,,,,,,,,,,,,,,False,8,9,False,exp3.png,exp4.png,trial_left_image,1,exp3.png,4,exp4.png,exp3.png,0,4,reversed,incorrect,0.9521840654699824,0,valid_lose,66.11563359946012,4,,,,,,,,,,,,,,,,,,sub_716,2024-06-07_11h03.53.795,Reversal,2022.1.2,59.946719229392464,4,
10,exp1.png,exp2.png,,0,0,0,0,0,10,10,10,,,,,,,,,,,,,,,,,,,,,,,,,False,9,10,True,exp2.png,exp1.png,trial_left_image,1,exp2.png,4,exp2.png,exp1.png,1,1,non-reversed,correct,0.5701506099539326,1,valid_win,69.03190300054848,5,,,,,,,,,,,,,,,,,,sub_716,2024-06-07_11h03.53.795,Reversal,2022.1.2,59.946719229392464,4,
11,exp3.png,exp4.png,,0,0,0,0,0,11,11,11,,,,,,,,,,,,,,,,,,,,,,,,,False,10,11,False,exp3.png,exp4.png,trial_right_image,-1,exp4.png,4,exp4.png,exp3.png,1,3,reversed,correct,0.3669835601660387,1,valid_win,73.3820866998285,6,,,,,,,,,,,,,,,,,,sub_716,2024-06-07_11h03.53.795,Reversal,2022.1.2,59.946719229392464,4,
12,exp1.png,exp2.png,,0,0,0,0,0,12,12,12,,,,,,,,,,,,,,,,,,,,,,,,,False,11,12,True,exp2.png,exp1.png,trial_left_image,1,exp2.png,4,exp2.png,exp1.png,1,1,non-reversed,correct,0.9139804266352737,1,valid_win,77.68230590038002,7,,,,,,,,,,,,,,,,,,sub_716,2024-06-07_11h03.53.795,Reversal,2022.1.2,59.946719229392464,4,
13,exp3.png,exp4.png,,0,0,0,0,0,13,13,13,,,,,,,,,,,,,,,,,,,,,,,,,False,12,13,False,exp3.png,exp4.png,trial_right_image,-1,exp4.png,4,exp4.png,exp3.png,1,3,reversed,correct,0.07277727430377967,0,invalid_lose,81.91546979919076,7,,,,,,,,,,,,,,,,,,sub_716,2024-06-07_11h03.53.795,Reversal,2022.1.2,59.946719229392464,4,
14,exp1.png,exp2.png,,0,0,0,0,0,14,14,14,,,,,,,,,,,,,,,,,,,,,,,,,False,13,14,True,exp2.png,exp1.png,trial_left_image,1,exp2.png,4,exp2.png,exp1.png,1,1,non-reversed,correct,0.09355400951014636,0,invalid_lose,87.83186779916286,7,,,,,,,,,,,,,,,,,,sub_716,2024-06-07_11h03.53.795,Reversal,2022.1.2,59.946719229392464,4,
15,exp3.png,exp4.png,,0,0,0,0,0,15,15,15,,,,,,,,,,,,,,,,,,,,,,,,,False,14,15,True,exp4.png,exp3.png,trial_right_image,-1,exp3.png,4,exp4.png,exp3.png,0,4,reversed,incorrect,0.4232479389607807,0,valid_lose,92.33152800053358,7,,,,,,,,,,,,,,,,,,sub_716,2024-06-07_11h03.53.795,Reversal,2022.1.2,59.946719229392464,4,
16,exp1.png,exp2.png,,0,0,0,0,0,16,16,16,,,,,,,,,,,,,,,,,,,,,,,,,False,15,16,True,exp2.png,exp1.png,trial_left_image,1,exp2.png,4,exp2.png,exp1.png,1,1,non-reversed,correct,0.8609015710527763,1,valid_win,96.48157789930701,8,,,,,,,,,,,,,,,,,,sub_716,2024-06-07_11h03.53.795,Reversal,2022.1.2,59.946719229392464,4,
17,exp3.png,exp4.png,,0,0,0,0,0,17,17,17,,,,,,,,,,,,,,,,,,,,,,,,,False,16,17,False,exp3.png,exp4.png,trial_left_image,1,exp3.png,4,exp4.png,exp3.png,0,4,reversed,incorrect,0.07230727657712654,1,invalid_win,102.43179840035737,9,,,,,,,,,,,,,,,,,,sub_716,2024-06-07_11h03.53.795,Reversal,2022.1.2,59.946719229392464,4,
18,exp1.png,exp2.png,,0,0,0,0,0,18,18,18,,,,,,,,,,,,,,,,,,,,,,,,,False,17,18,False,exp1.png,exp2.png,trial_left_image,1,exp1.png,4,exp2.png,exp1.png,0,2,non-reversed,incorrect,0.08059660571491012,1,invalid_win,108.9812221005559,10,,,,,,,,,,,,,,,,,,sub_716,2024-06-07_11h03.53.795,Reversal,2022.1.2,59.946719229392464,4,
19,exp3.png,exp4.png,,0,0,0,0,0,19,19,19,,,,,,,,,,,,,,,,,,,,,,,,,False,18,19,False,exp3.png,exp4.png,trial_left_image,1,exp3.png,4,exp4.png,exp3.png,0,4,reversed,incorrect,0.21617322981728837,1,invalid_win,115.64871059916914,11,,,,,,,,,,,,,,,,,,sub_716,2024-06-07_11h03.53.795,Reversal,2022.1.2,59.946719229392464,4,
20,exp1.png,exp2.png,,0,0,0,0,0,20,20,20,,,,,,,,,,,,,,,,,,,,,,,,,False,19,20,True,exp2.png,exp1.png,trial_right_image,-1,exp1.png,4,exp2.png,exp1.png,0,2,non-reversed,incorrect,0.05072658642415795,1,invalid_win,119.73199320025742,12,,,,,,,,,,,,,,,,,,sub_716,2024-06-07_11h03.53.795,Reversal,2022.1.2,59.946719229392464,4,
,,,exp1.png,0,0,0,0,,,,,0,0,0,0,0,0,0,0,,,,,,,,,,,,,,,,,,,,,,,,,,,,,,,,,,,,,,21.0,21.0,10.97612139955163,"[(47.0, 8.608907299116254), (21.0, 10.97612139955163)]",194.23362169973552,None,,,,,,,,,,,,sub_716,2024-06-07_11h03.53.795,Reversal,2022.1.2,59.946719229392464,4,
,,,exp2.png,0,0,0,0,,,,,0,0,0,0,0,1,1,1,,,,,,,,,,,,,,,,,,,,,,,,,,,,,,,,,,,,,,,73.0,4.718590199947357,"[(73.0, 4.718590199947357)]",206.2542476002127,None,73.0,,,,,,,,,,,sub_716,2024-06-07_11h03.53.795,Reversal,2022.1.2,59.946719229392464,4,
,,,exp3.png,0,0,0,0,,,,,0,0,0,0,0,2,2,2,,,,,,,,,,,,,,,,,,,,,,,,,,,,,,,,,,,,,,,68.0,5.050315000116825,"[(68.0, 5.050315000116825)]",212.10054250061512,None,,68.0,,,,,,,,,,sub_716,2024-06-07_11h03.53.795,Reversal,2022.1.2,59.946719229392464,4,
,,,exp4.png,0,0,0,0,,,,,0,0,0,0,0,3,3,3,,,,,,,,,,,,,,,,,,,,,,,,,,,,,,,,,,,,,,,72.0,4.351219998672605,"[(72.0, 4.351219998672605)]",217.8997825998813,None,,,72.0,,,,,,,,,sub_716,2024-06-07_11h03.53.795,Reversal,2022.1.2,59.946719229392464,4,
0,exp1.png,exp2.png,,1,0,1,0,0,0,0,0,,,,,,,,,,,,,,,,,,,,,,,,,True,,,,,,,,,,,,,,,,,,,,,,,,,,,,,,,,,,,,,,sub_716,2024-06-07_11h03.53.795,Reversal,2022.1.2,59.946719229392464,4,
1,exp3.png,exp4.png,,1,0,1,0,0,1,1,1,,,,,,,,,,,,,,,,,,,,,,,,,False,20,21,False,exp3.png,exp4.png,trial_right_image,-1,exp4.png,4,exp4.png,exp3.png,1,3,reversed,correct,0.6904010613417757,1,valid_win,157.0310657992959,13,,,,,,,,,,,,,,,,,,sub_716,2024-06-07_11h03.53.795,Reversal,2022.1.2,59.946719229392464,4,
2,exp1.png,exp2.png,,1,0,1,0,0,2,2,2,,,,,,,,,,,,,,,,,,,,,,,,,False,21,22,False,exp1.png,exp2.png,trial_left_image,1,exp1.png,4,exp2.png,exp1.png,0,2,non-reversed,incorrect,0.18785396158394074,1,invalid_win,161.21413470059633,14,,,,,,,,,,,,,,,,,,sub_716,2024-06-07_11h03.53.795,Reversal,2022.1.2,59.946719229392464,4,
3,exp3.png,exp4.png,,1,0,1,0,0,3,3,3,,,,,,,,,,,,,,,,,,,,,,,,,False,22,23,False,exp3.png,exp4.png,trial_right_image,-1,exp4.png,4,exp4.png,exp3.png,1,3,reversed,correct,0.22934776018404524,0,invalid_lose,165.8141668997705,14,,,,,,,,,,,,,,,,,,sub_716,2024-06-07_11h03.53.795,Reversal,2022.1.2,59.946719229392464,4,
4,exp1.png,exp2.png,,1,0,1,0,0,4,4,4,,,,,,,,,,,,,,,,,,,,,,,,,False,23,24,False,exp1.png,exp2.png,trial_left_image,1,exp1.png,4,exp2.png,exp1.png,0,2,non-reversed,incorrect,0.9946857297903073,0,valid_lose,169.99718260020018,14,,,,,,,,,,,,,,,,,,sub_716,2024-06-07_11h03.53.795,Reversal,2022.1.2,59.946719229392464,4,
5,exp3.png,exp4.png,,1,0,1,0,0,5,5,5,,,,,,,,,,,,,,,,,,,,,,,,,False,24,25,True,exp4.png,exp3.png,trial_left_image,1,exp4.png,4,exp4.png,exp3.png,1,3,reversed,correct,0.12625497868285784,0,invalid_lose,175.53011300042272,14,,,,,,,,,,,,,,,,,,sub_716,2024-06-07_11h03.53.795,Reversal,2022.1.2,59.946719229392464,4,
6,exp1.png,exp2.png,,1,0,1,0,0,6,6,6,,,,,,,,,,,,,,,,,,,,,,,,,False,25,26,False,exp1.png,exp2.png,trial_right_image,-1,exp2.png,4,exp2.png,exp1.png,1,1,non-reversed,correct,0.5736441549174064,1,valid_win,179.93062110058963,15,,,,,,,,,,,,,,,,,,sub_716,2024-06-07_11h03.53.795,Reversal,2022.1.2,59.946719229392464,4,
7,exp3.png,exp4.png,,1,0,1,0,0,7,7,7,,,,,,,,,,,,,,,,,,,,,,,,,False,26,27,False,exp3.png,exp4.png,trial_right_image,-1,exp4.png,4,exp4.png,exp3.png,1,3,reversed,correct,0.8945137265318883,1,valid_win,184.4804219007492,16,,,,,,,,,,,,,,,,,,sub_716,2024-06-07_11h03.53.795,Reversal,2022.1.2,59.946719229392464,4,
8,exp1.png,exp2.png,,1,0,1,0,0,8,8,8,,,,,,,,,,,,,,,,,,,,,,,,,False,27,28,False,exp1.png,exp2.png,trial_right_image,-1,exp2.png,4,exp2.png,exp1.png,1,1,non-reversed,correct,0.24233152152472903,0,invalid_lose,189.23051360063255,16,,,,,,,,,,,,,,,,,,sub_716,2024-06-07_11h03.53.795,Reversal,2022.1.2,59.946719229392464,4,
9,exp3.png,exp4.png,,1,0,1,0,0,9,9,9,,,,,,,,,,,,,,,,,,,,,,,,,False,28,29,False,exp3.png,exp4.png,trial_right_image,-1,exp4.png,4,exp4.png,exp3.png,1,3,reversed,correct,0.49021912509506316,1,valid_win,194.54666719958186,17,,,,,,,,,,,,,,,,,,sub_716,2024-06-07_11h03.53.795,Reversal,2022.1.2,59.946719229392464,4,
10,exp1.png,exp2.png,,1,0,1,0,0,10,10,10,,,,,,,,,,,,,,,,,,,,,,,,,False,29,30,True,exp2.png,exp1.png,trial_right_image,-1,exp1.png,4,exp2.png,exp1.png,0,2,non-reversed,incorrect,0.9103722096386652,0,valid_lose,199.1129941996187,17,,,,,,,,,,,,,,,,,,sub_716,2024-06-07_11h03.53.795,Reversal,2022.1.2,59.946719229392464,4,
11,exp3.png,exp4.png,,1,0,1,0,0,11,11,11,,,,,,,,,,,,,,,,,,,,,,,,,False,30,31,True,exp4.png,exp3.png,trial_right_image,-1,exp3.png,4,exp4.png,exp3.png,0,4,reversed,incorrect,0.43582898887728827,0,valid_lose,203.3466152008623,17,,,,,,,,,,,,,,,,,,sub_716,2024-06-07_11h03.53.795,Reversal,2022.1.2,59.946719229392464,4,
12,exp1.png,exp2.png,,1,0,1,0,0,12,12,12,,,,,,,,,,,,,,,,,,,,,,,,,False,31,32,True,exp2.png,exp1.png,trial_left_image,1,exp2.png,4,exp2.png,exp1.png,1,1,non-reversed,correct,0.13389643086171865,0,invalid_lose,207.54624469950795,17,,,,,,,,,,,,,,,,,,sub_716,2024-06-07_11h03.53.795,Reversal,2022.1.2,59.946719229392464,4,
13,exp3.png,exp4.png,,1,0,1,0,0,13,13,13,,,,,,,,,,,,,,,,,,,,,,,,,False,32,33,False,exp3.png,exp4.png,trial_right_image,-1,exp4.png,4,exp4.png,exp3.png,1,3,reversed,correct,0.8621481494597283,1,valid_win,213.51331759989262,18,,,,,,,,,,,,,,,,,,sub_716,2024-06-07_11h03.53.795,Reversal,2022.1.2,59.946719229392464,4,
14,exp1.png,exp2.png,,1,0,1,0,0,14,14,14,,,,,,,,,,,,,,,,,,,,,,,,,False,33,34,True,exp2.png,exp1.png,trial_left_image,1,exp2.png,4,exp2.png,exp1.png,1,1,non-reversed,correct,0.7684456163938889,1,valid_win,218.18039109930396,19,,,,,,,,,,,,,,,,,,sub_716,2024-06-07_11h03.53.795,Reversal,2022.1.2,59.946719229392464,4,
15,exp3.png,exp4.png,,1,0,1,0,0,15,15,15,,,,,,,,,,,,,,,,,,,,,,,,,False,34,35,True,exp4.png,exp3.png,trial_left_image,1,exp4.png,4,exp4.png,exp3.png,1,3,reversed,correct,0.8508005901614651,1,valid_win,222.9465414993465,20,,,,,,,,,,,,,,,,,,sub_716,2024-06-07_11h03.53.795,Reversal,2022.1.2,59.946719229392464,4,
16,exp1.png,exp2.png,,1,0,1,0,0,16,16,16,,,,,,,,,,,,,,,,,,,,,,,,,False,35,36,False,exp1.png,exp2.png,trial_right_image,-1,exp2.png,4,exp2.png,exp1.png,1,1,non-reversed,correct,0.6124261211473798,1,valid_win,227.24669709987938,21,,,,,,,,,,,,,,,,,,sub_716,2024-06-07_11h03.53.795,Reversal,2022.1.2,59.946719229392464,4,
17,exp3.png,exp4.png,,1,0,1,0,0,17,17,17,,,,,,,,,,,,,,,,,,,,,,,,,False,36,37,True,exp4.png,exp3.png,trial_left_image,1,exp4.png,4,exp4.png,exp3.png,1,3,reversed,correct,0.08729345255876575,0,invalid_lose,231.39586820080876,21,,,,,,,,,,,,,,,,,,sub_716,2024-06-07_11h03.53.795,Reversal,2022.1.2,59.946719229392464,4,
18,exp1.png,exp2.png,,1,0,1,0,0,18,18,18,,,,,,,,,,,,,,,,,,,,,,,,,False,37,38,True,exp2.png,exp1.png,trial_left_image,1,exp2.png,4,exp2.png,exp1.png,1,1,non-reversed,correct,0.4478195987233665,1,valid_win,235.69565409980714,22,,,,,,,,,,,,,,,,,,sub_716,2024-06-07_11h03.53.795,Reversal,2022.1.2,59.946719229392464,4,
19,exp3.png,exp4.png,,1,0,1,0,0,19,19,19,,,,,,,,,,,,,,,,,,,,,,,,,False,38,39,True,exp4.png,exp3.png,trial_left_image,1,exp4.png,4,exp4.png,exp3.png,1,3,reversed,correct,0.1825334547441858,0,invalid_lose,240.37920659966767,22,,,,,,,,,,,,,,,,,,sub_716,2024-06-07_11h03.53.795,Reversal,2022.1.2,59.946719229392464,4,
20,exp1.png,exp2.png,,1,0,1,0,0,20,20,20,,,,,,,,,,,,,,,,,,,,,,,,,False,39,40,True,exp2.png,exp1.png,trial_left_image,1,exp2.png,4,exp2.png,exp1.png,1,1,non-reversed,correct,0.9283592983975008,1,valid_win,244.46242330037057,23,,,,,,,,,,,,,,,,,,sub_716,2024-06-07_11h03.53.795,Reversal,2022.1.2,59.946719229392464,4,
,,,exp1.png,1,0,1,0,,,,,0,0,0,0,0,0,0,0,,,,,,,,,,,,,,,,,,,,,,,,,,,,,,,,,,,,,,23.0,23.0,8.215210000053048,"[(23.0, 8.215210000053048)]",318.98323770053685,None,,,,,,,,,,,,sub_716,2024-06-07_11h03.53.795,Reversal,2022.1.2,59.946719229392464,4,
,,,exp2.png,1,0,1,0,,,,,0,0,0,0,0,1,1,1,,,,,,,,,,,,,,,,,,,,,,,,,,,,,,,,,,,,,,,94.0,2.999873800203204,"[(94.0, 2.999873800203204)]",328.3490992002189,None,94.0,,,,,,,,,,,sub_716,2024-06-07_11h03.53.795,Reversal,2022.1.2,59.946719229392464,4,
,,,exp3.png,1,0,1,0,,,,,0,0,0,0,0,2,2,2,,,,,,,,,,,,,,,,,,,,,,,,,,,,,,,,,,,,,,,50.0,None,[],332.4617828000337,None,,,,,,,,,,,,sub_716,2024-06-07_11h03.53.795,Reversal,2022.1.2,59.946719229392464,4,
,,,exp4.png,1,0,1,0,,,,,0,0,0,0,0,3,3,3,,,,,,,,,,,,,,,,,,,,,,,,,,,,,,,,,,,,,,,83.0,4.43124240078032,"[(83.0, 4.43124240078032)]",335.281299199909,None,,,83.0,,,,,,,,,sub_716,2024-06-07_11h03.53.795,Reversal,2022.1.2,59.946719229392464,4,
0,exp1.png,exp2.png,,2,0,2,0,0,0,0,0,,,,,,,,,,,,,,,,,,,,,,,,,True,,,,,,,,,,,,,,,,,,,,,,,,,,,,,,,,,,,,,,sub_716,2024-06-07_11h03.53.795,Reversal,2022.1.2,59.946719229392464,4,
1,exp3.png,exp4.png,,2,0,2,0,0,1,1,1,,,,,,,,,,,,,,,,,,,,,,,,,False,40,41,False,exp3.png,exp4.png,trial_left_image,1,exp3.png,4,exp4.png,exp3.png,0,4,reversed,incorrect,0.05473056651496655,1,invalid_win,272.11196929961443,24,,,,,,,,,,,,,,,,,,sub_716,2024-06-07_11h03.53.795,Reversal,2022.1.2,59.946719229392464,4,
2,exp1.png,exp2.png,,2,0,2,0,0,2,2,2,,,,,,,,,,,,,,,,,,,,,,,,,False,41,42,True,exp2.png,exp1.png,trial_left_image,1,exp2.png,4,exp2.png,exp1.png,1,1,non-reversed,correct,0.312227654691538,1,valid_win,279.478943599388,25,,,,,,,,,,,,,,,,,,sub_716,2024-06-07_11h03.53.795,Reversal,2022.1.2,59.946719229392464,4,
3,exp3.png,exp4.png,,2,0,2,0,0,3,3,3,,,,,,,,,,,,,,,,,,,,,,,,,False,42,43,True,exp4.png,exp3.png,trial_right_image,-1,exp3.png,4,exp4.png,exp3.png,0,4,reversed,incorrect,0.5554234257631224,0,valid_lose,284.7784356996417,25,,,,,,,,,,,,,,,,,,sub_716,2024-06-07_11h03.53.795,Reversal,2022.1.2,59.946719229392464,4,
4,exp1.png,exp2.png,,2,0,2,0,0,4,4,4,,,,,,,,,,,,,,,,,,,,,,,,,False,43,44,True,exp2.png,exp1.png,trial_left_image,1,exp2.png,4,exp2.png,exp1.png,1,1,non-reversed,correct,0.060806214641251466,0,invalid_lose,291.6114345006645,25,,,,,,,,,,,,,,,,,,sub_716,2024-06-07_11h03.53.795,Reversal,2022.1.2,59.946719229392464,4,
5,exp3.png,exp4.png,,2,0,2,0,0,5,5,5,,,,,,,,,,,,,,,,,,,,,,,,,False,44,45,False,exp3.png,exp4.png,trial_right_image,-1,exp4.png,4,exp4.png,exp3.png,1,3,reversed,correct,0.04680294232439164,0,invalid_lose,297.39432710036635,25,,,,,,,,,,,,,,,,,,sub_716,2024-06-07_11h03.53.795,Reversal,2022.1.2,59.946719229392464,4,
6,exp1.png,exp2.png,,2,0,2,0,0,6,6,6,,,,,,,,,,,,,,,,,,,,,,,,,False,45,46,False,exp1.png,exp2.png,trial_left_image,1,exp1.png,4,exp2.png,exp1.png,0,2,non-reversed,incorrect,0.5810741126379054,0,valid_lose,301.6783390995115,25,,,,,,,,,,,,,,,,,,sub_716,2024-06-07_11h03.53.795,Reversal,2022.1.2,59.946719229392464,4,
7,exp3.png,exp4.png,,2,0,2,0,0,7,7,7,,,,,,,,,,,,,,,,,,,,,,,,,False,46,47,False,exp3.png,exp4.png,trial_right_image,-1,exp4.png,4,exp4.png,exp3.png,1,3,reversed,correct,0.9413133589621263,1,valid_win,305.82767760008574,26,,,,,,,,,,,,,,,,,,sub_716,2024-06-07_11h03.53.795,Reversal,2022.1.2,59.946719229392464,4,
8,exp1.png,exp2.png,,2,0,2,0,0,8,8,8,,,,,,,,,,,,,,,,,,,,,,,,,False,47,48,True,exp2.png,exp1.png,trial_right_image,-1,exp1.png,4,exp2.png,exp1.png,0,2,non-reversed,incorrect,0.3882897008545315,0,valid_lose,312.66099460050464,26,,,,,,,,,,,,,,,,,,sub_716,2024-06-07_11h03.53.795,Reversal,2022.1.2,59.946719229392464,4,
9,exp3.png,exp4.png,,2,0,2,0,0,9,9,9,,,,,,,,,,,,,,,,,,,,,,,,,False,48,49,True,exp4.png,exp3.png,trial_left_image,1,exp4.png,4,exp4.png,exp3.png,1,3,reversed,correct,0.5954637301956683,1,valid_win,316.8612172007561,27,,,,,,,,,,,,,,,,,,sub_716,2024-06-07_11h03.53.795,Reversal,2022.1.2,59.946719229392464,4,
10,exp1.png,exp2.png,,2,0,2,0,0,10,10,10,,,,,,,,,,,,,,,,,,,,,,,,,False,49,50,False,exp1.png,exp2.png,trial_left_image,1,exp1.png,4,exp2.png,exp1.png,0,2,non-reversed,incorrect,0.7684789358189679,0,valid_lose,321.4115021992475,27,,,,,,,,,,,,,,,,,,sub_716,2024-06-07_11h03.53.795,Reversal,2022.1.2,59.946719229392464,4,
11,exp3.png,exp4.png,,2,0,2,0,0,11,11,11,,,,,,,,,,,,,,,,,,,,,,,,,False,50,51,True,exp4.png,exp3.png,trial_left_image,1,exp4.png,4,exp4.png,exp3.png,1,3,reversed,correct,0.1439115723486344,0,invalid_lose,326.01111840084195,27,,,,,,,,,,,,,,,,,,sub_716,2024-06-07_11h03.53.795,Reversal,2022.1.2,59.946719229392464,4,
12,exp1.png,exp2.png,,2,0,2,0,0,12,12,12,,,,,,,,,,,,,,,,,,,,,,,,,False,51,52,True,exp2.png,exp1.png,trial_left_image,1,exp2.png,4,exp2.png,exp1.png,1,1,non-reversed,correct,0.6875896132789105,1,valid_win,331.2442851997912,28,,,,,,,,,,,,,,,,,,sub_716,2024-06-07_11h03.53.795,Reversal,2022.1.2,59.946719229392464,4,
13,exp3.png,exp4.png,,2,0,2,0,0,13,13,13,,,,,,,,,,,,,,,,,,,,,,,,,False,52,53,True,exp4.png,exp3.png,trial_right_image,-1,exp3.png,4,exp4.png,exp3.png,0,4,reversed,incorrect,0.7234590374616032,0,valid_lose,336.1277270000428,28,,,,,,,,,,,,,,,,,,sub_716,2024-06-07_11h03.53.795,Reversal,2022.1.2,59.946719229392464,4,
14,exp1.png,exp2.png,,2,0,2,0,0,14,14,14,,,,,,,,,,,,,,,,,,,,,,,,,False,53,54,False,exp1.png,exp2.png,trial_right_image,-1,exp2.png,4,exp2.png,exp1.png,1,1,non-reversed,correct,0.43940944734266973,1,valid_win,342.22786949947476,29,,,,,,,,,,,,,,,,,,sub_716,2024-06-07_11h03.53.795,Reversal,2022.1.2,59.946719229392464,4,
15,exp3.png,exp4.png,,2,0,2,0,0,15,15,15,,,,,,,,,,,,,,,,,,,,,,,,,False,54,55,False,exp3.png,exp4.png,trial_left_image,1,exp3.png,4,exp4.png,exp3.png,0,4,reversed,incorrect,0.3346359606610638,0,valid_lose,347.011134499684,29,,,,,,,,,,,,,,,,,,sub_716,2024-06-07_11h03.53.795,Reversal,2022.1.2,59.946719229392464,4,
16,exp1.png,exp2.png,,2,0,2,0,0,16,16,16,,,,,,,,,,,,,,,,,,,,,,,,,False,55,56,False,exp1.png,exp2.png,trial_right_image,-1,exp2.png,4,exp2.png,exp1.png,1,1,non-reversed,correct,0.4901282552208722,1,valid_win,351.9771873001009,30,,,,,,,,,,,,,,,,,,sub_716,2024-06-07_11h03.53.795,Reversal,2022.1.2,59.946719229392464,4,
17,exp3.png,exp4.png,,2,0,2,0,0,17,17,17,,,,,,,,,,,,,,,,,,,,,,,,,False,56,57,False,exp3.png,exp4.png,trial_right_image,-1,exp4.png,4,exp4.png,exp3.png,1,3,reversed,correct,0.8013814741059173,1,valid_win,359.5113887991756,31,,,,,,,,,,,,,,,,,,sub_716,2024-06-07_11h03.53.795,Reversal,2022.1.2,59.946719229392464,4,
18,exp1.png,exp2.png,,2,0,2,0,0,18,18,18,,,,,,,,,,,,,,,,,,,,,,,,,False,57,58,True,exp2.png,exp1.png,trial_left_image,1,exp2.png,4,exp2.png,exp1.png,1,1,non-reversed,correct,0.16726895804416642,0,invalid_lose,365.8438969999552,31,,,,,,,,,,,,,,,,,,sub_716,2024-06-07_11h03.53.795,Reversal,2022.1.2,59.946719229392464,4,
19,exp3.png,exp4.png,,2,0,2,0,0,19,19,19,,,,,,,,,,,,,,,,,,,,,,,,,False,58,59,True,exp4.png,exp3.png,trial_right_image,-1,exp3.png,4,exp4.png,exp3.png,0,4,reversed,incorrect,0.06095394947515209,1,invalid_win,371.8100834004581,32,,,,,,,,,,,,,,,,,,sub_716,2024-06-07_11h03.53.795,Reversal,2022.1.2,59.946719229392464,4,
20,exp1.png,exp2.png,,2,0,2,0,0,20,20,20,,,,,,,,,,,,,,,,,,,,,,,,,False,59,60,False,exp1.png,exp2.png,trial_left_image,1,exp1.png,4,exp2.png,exp1.png,0,2,non-reversed,incorrect,0.9866027892845974,0,valid_lose,377.46025869995356,32,,,,,,,,,,,,,,,,,,sub_716,2024-06-07_11h03.53.795,Reversal,2022.1.2,59.946719229392464,4,
,,,exp1.png,2,0,2,0,,,,,0,0,0,0,0,0,0,0,,,,,,,,,,,,,,,,,,,,,,,,,,,,,,,,,,,,,,17.0,17.0,6.6905620992183685,"[(17.0, 6.6905620992183685)]",451.9883794002235,None,,,,,,,,,,,,sub_716,2024-06-07_11h03.53.795,Reversal,2022.1.2,59.946719229392464,4,
,,,exp2.png,2,0,2,0,,,,,0,0,0,0,0,1,1,1,,,,,,,,,,,,,,,,,,,,,,,,,,,,,,,,,,,,,,,65.0,4.200399100780487,"[(65.0, 4.200399100780487)]",460.0098905004561,None,65.0,,,,,,,,,,,sub_716,2024-06-07_11h03.53.795,Reversal,2022.1.2,59.946719229392464,4,
,,,exp3.png,2,0,2,0,,,,,0,0,0,0,0,2,2,2,,,,,,,,,,,,,,,,,,,,,,,,,,,,,,,,,,,,,,,85.0,3.9681700002402067,"[(85.0, 3.9681700002402067)]",465.0434153005481,None,,85.0,,,,,,,,,,sub_716,2024-06-07_11h03.53.795,Reversal,2022.1.2,59.946719229392464,4,
,,,exp4.png,2,0,2,0,,,,,0,0,0,0,0,3,3,3,,,,,,,,,,,,,,,,,,,,,,,,,,,,,,,,,,,,,,,82.0,5.176068499684334,"[(82.0, 5.176068499684334)]",470.0556490998715,None,,,82.0,,,,,,,,,sub_716,2024-06-07_11h03.53.795,Reversal,2022.1.2,59.946719229392464,4,
0,exp1.png,exp2.png,,3,0,3,0,0,0,0,0,,,,,,,,,,,,,,,,,,,,,,,,,True,,,,,,,,,,,,,,,,,,,,,,,,,,,,,,,,,,,,,,sub_716,2024-06-07_11h03.53.795,Reversal,2022.1.2,59.946719229392464,4,
1,exp3.png,exp4.png,,3,0,3,0,0,1,1,1,,,,,,,,,,,,,,,,,,,,,,,,,False,60,61,True,exp4.png,exp3.png,trial_right_image,-1,exp3.png,4,exp4.png,exp3.png,0,4,reversed,incorrect,0.644836853544824,0,valid_lose,409.926363600418,32,,,,,,,,,,,,,,,,,,sub_716,2024-06-07_11h03.53.795,Reversal,2022.1.2,59.946719229392464,4,
2,exp1.png,exp2.png,,3,0,3,0,0,2,2,2,,,,,,,,,,,,,,,,,,,,,,,,,False,61,62,True,exp2.png,exp1.png,trial_left_image,1,exp2.png,4,exp2.png,exp1.png,1,1,non-reversed,correct,0.8709302124831201,1,valid_win,415.1260692998767,33,,,,,,,,,,,,,,,,,,sub_716,2024-06-07_11h03.53.795,Reversal,2022.1.2,59.946719229392464,4,
3,exp3.png,exp4.png,,3,0,3,0,0,3,3,3,,,,,,,,,,,,,,,,,,,,,,,,,False,62,63,True,exp4.png,exp3.png,trial_left_image,1,exp4.png,4,exp4.png,exp3.png,1,3,reversed,correct,0.19898118586075753,0,invalid_lose,420.6095237005502,33,,,,,,,,,,,,,,,,,,sub_716,2024-06-07_11h03.53.795,Reversal,2022.1.2,59.946719229392464,4,
4,exp1.png,exp2.png,,3,0,3,0,0,4,4,4,,,,,,,,,,,,,,,,,,,,,,,,,False,63,64,False,exp1.png,exp2.png,trial_right_image,-1,exp2.png,4,exp2.png,exp1.png,1,1,non-reversed,correct,0.33865836803416594,1,valid_win,425.05953639931977,34,,,,,,,,,,,,,,,,,,sub_716,2024-06-07_11h03.53.795,Reversal,2022.1.2,59.946719229392464,4,
5,exp3.png,exp4.png,,3,0,3,0,0,5,5,5,,,,,,,,,,,,,,,,,,,,,,,,,False,64,65,True,exp4.png,exp3.png,trial_right_image,-1,exp3.png,4,exp4.png,exp3.png,0,4,reversed,incorrect,0.325956712050397,0,valid_lose,430.1090558003634,34,,,,,,,,,,,,,,,,,,sub_716,2024-06-07_11h03.53.795,Reversal,2022.1.2,59.946719229392464,4,
6,exp1.png,exp2.png,,3,0,3,0,0,6,6,6,,,,,,,,,,,,,,,,,,,,,,,,,False,65,66,False,exp1.png,exp2.png,trial_right_image,-1,exp2.png,4,exp2.png,exp1.png,1,1,non-reversed,correct,0.7983731665528774,1,valid_win,434.77541339956224,35,,,,,,,,,,,,,,,,,,sub_716,2024-06-07_11h03.53.795,Reversal,2022.1.2,59.946719229392464,4,
7,exp3.png,exp4.png,,3,0,3,0,0,7,7,7,,,,,,,,,,,,,,,,,,,,,,,,,False,66,67,False,exp3.png,exp4.png,trial_right_image,-1,exp4.png,4,exp4.png,exp3.png,1,3,reversed,correct,0.7068468395426583,1,valid_win,440.3094073999673,36,,,,,,,,,,,,,,,,,,sub_716,2024-06-07_11h03.53.795,Reversal,2022.1.2,59.946719229392464,4,
8,exp1.png,exp2.png,,3,0,3,0,0,8,8,8,,,,,,,,,,,,,,,,,,,,,,,,,False,67,68,True,exp2.png,exp1.png,trial_left_image,1,exp2.png,4,exp2.png,exp1.png,1,1,non-reversed,correct,0.5715399288925879,1,valid_win,445.37984500080347,37,,,,,,,,,,,,,,,,,,sub_716,2024-06-07_11h03.53.795,Reversal,2022.1.2,59.946719229392464,4,
9,exp3.png,exp4.png,,3,0,3,0,0,9,9,9,,,,,,,,,,,,,,,,,,,,,,,,,False,68,69,False,exp3.png,exp4.png,trial_right_image,-1,exp4.png,4,exp4.png,exp3.png,1,3,reversed,correct,0.41884542897071386,1,valid_win,450.17534100078046,38,,,,,,,,,,,,,,,,,,sub_716,2024-06-07_11h03.53.795,Reversal,2022.1.2,59.946719229392464,4,
10,exp1.png,exp2.png,,3,0,3,0,0,10,10,10,,,,,,,,,,,,,,,,,,,,,,,,,False,69,70,True,exp2.png,exp1.png,trial_left_image,1,exp2.png,4,exp2.png,exp1.png,1,1,non-reversed,correct,0.8897137938948885,1,valid_win,454.9420331995934,39,,,,,,,,,,,,,,,,,,sub_716,2024-06-07_11h03.53.795,Reversal,2022.1.2,59.946719229392464,4,
11,exp3.png,exp4.png,,3,0,3,0,0,11,11,11,,,,,,,,,,,,,,,,,,,,,,,,,False,70,71,True,exp4.png,exp3.png,trial_right_image,-1,exp3.png,4,exp4.png,exp3.png,0,4,reversed,incorrect,0.2626098084528351,0,valid_lose,464.07540480047464,39,,,,,,,,,,,,,,,,,,sub_716,2024-06-07_11h03.53.795,Reversal,2022.1.2,59.946719229392464,4,
12,exp1.png,exp2.png,,3,0,3,0,0,12,12,12,,,,,,,,,,,,,,,,,,,,,,,,,False,71,72,False,exp1.png,exp2.png,trial_left_image,1,exp1.png,4,exp2.png,exp1.png,0,2,non-reversed,incorrect,0.878999622014466,0,valid_lose,468.6085665002465,39,,,,,,,,,,,,,,,,,,sub_716,2024-06-07_11h03.53.795,Reversal,2022.1.2,59.946719229392464,4,
13,exp3.png,exp4.png,,3,0,3,0,0,13,13,13,,,,,,,,,,,,,,,,,,,,,,,,,False,72,73,False,exp3.png,exp4.png,trial_right_image,-1,exp4.png,4,exp4.png,exp3.png,1,3,reversed,correct,0.7565416120833058,1,valid_win,477.3914967998862,40,,,,,,,,,,,,,,,,,,sub_716,2024-06-07_11h03.53.795,Reversal,2022.1.2,59.946719229392464,4,
14,exp1.png,exp2.png,,3,0,3,0,0,14,14,14,,,,,,,,,,,,,,,,,,,,,,,,,False,73,74,False,exp1.png,exp2.png,trial_right_image,-1,exp2.png,4,exp2.png,exp1.png,1,1,non-reversed,correct,0.7300312256766385,1,valid_win,483.72487029992044,41,,,,,,,,,,,,,,,,,,sub_716,2024-06-07_11h03.53.795,Reversal,2022.1.2,59.946719229392464,4,
15,exp3.png,exp4.png,,3,0,3,0,0,15,15,15,,,,,,,,,,,,,,,,,,,,,,,,,False,74,75,False,exp3.png,exp4.png,trial_right_image,-1,exp4.png,4,exp4.png,exp3.png,1,3,reversed,correct,0.5509051047241534,1,valid_win,494.8584068994969,42,,,,,,,,,,,,,,,,,,sub_716,2024-06-07_11h03.53.795,Reversal,2022.1.2,59.946719229392464,4,
16,exp1.png,exp2.png,,3,0,3,0,0,16,16,16,,,,,,,,,,,,,,,,,,,,,,,,,False,75,76,True,exp2.png,exp1.png,trial_left_image,1,exp2.png,4,exp2.png,exp1.png,1,1,non-reversed,correct,0.342193760433421,1,valid_win,500.0916956998408,43,,,,,,,,,,,,,,,,,,sub_716,2024-06-07_11h03.53.795,Reversal,2022.1.2,59.946719229392464,4,
17,exp3.png,exp4.png,,3,0,3,0,0,17,17,17,,,,,,,,,,,,,,,,,,,,,,,,,False,76,77,True,exp4.png,exp3.png,trial_left_image,1,exp4.png,4,exp4.png,exp3.png,1,3,reversed,correct,0.10269399528151246,0,invalid_lose,508.7743296995759,43,,,,,,,,,,,,,,,,,,sub_716,2024-06-07_11h03.53.795,Reversal,2022.1.2,59.946719229392464,4,
18,exp1.png,exp2.png,,3,0,3,0,0,18,18,18,,,,,,,,,,,,,,,,,,,,,,,,,False,77,78,False,exp1.png,exp2.png,trial_right_image,-1,exp2.png,4,exp2.png,exp1.png,1,1,non-reversed,correct,0.23215409511320717,0,invalid_lose,514.1915377993137,43,,,,,,,,,,,,,,,,,,sub_716,2024-06-07_11h03.53.795,Reversal,2022.1.2,59.946719229392464,4,
19,exp3.png,exp4.png,,3,0,3,0,0,19,19,19,,,,,,,,,,,,,,,,,,,,,,,,,False,78,79,False,exp3.png,exp4.png,trial_right_image,-1,exp4.png,4,exp4.png,exp3.png,1,3,reversed,correct,0.18390221396897533,0,invalid_lose,519.3914110008627,43,,,,,,,,,,,,,,,,,,sub_716,2024-06-07_11h03.53.795,Reversal,2022.1.2,59.946719229392464,4,
20,exp1.png,exp2.png,,3,0,3,0,0,20,20,20,,,,,,,,,,,,,,,,,,,,,,,,,False,79,80,True,exp2.png,exp1.png,trial_left_image,1,exp2.png,4,exp2.png,exp1.png,1,1,non-reversed,correct,0.8599903840540138,1,valid_win,527.6572114992887,44,,,,,,,,,,,,,,,,,,sub_716,2024-06-07_11h03.53.795,Reversal,2022.1.2,59.946719229392464,4,
,,,exp1.png,3,0,3,0,,,,,0,0,0,0,0,0,0,0,,,,,,,,,,,,,,,,,,,,,,,,,,,,,,,,,,,,,,4.0,4.0,8.244810599833727,"[(4.0, 8.244810599833727)]",602.182426000014,None,,,,,,,,,,,,sub_716,2024-06-07_11h03.53.795,Reversal,2022.1.2,59.946719229392464,4,
,,,exp2.png,3,0,3,0,,,,,0,0,0,0,0,1,1,1,,,,,,,,,,,,,,,,,,,,,,,,,,,,,,,,,,,,,,,84.0,4.218156499788165,"[(84.0, 4.218156499788165)]",611.7279960997403,None,84.0,,,,,,,,,,,sub_716,2024-06-07_11h03.53.795,Reversal,2022.1.2,59.946719229392464,4,
,,,exp3.png,3,0,3,0,,,,,0,0,0,0,0,2,2,2,,,,,,,,,,,,,,,,,,,,,,,,,,,,,,,,,,,,,,,19.0,7.167552299797535,"[(19.0, 7.167552299797535)]",617.1084423996508,None,,19.0,,,,,,,,,,sub_716,2024-06-07_11h03.53.795,Reversal,2022.1.2,59.946719229392464,4,
,,,exp4.png,3,0,3,0,,,,,0,0,0,0,0,3,3,3,,,,,,,,,,,,,,,,,,,,,,,,,,,,,,,,,,,,,,,98.0,4.4971849992871284,"[(98.0, 4.4971849992871284)]",625.0639958996326,None,,,98.0,,,,,,,,,sub_716,2024-06-07_11h03.53.795,Reversal,2022.1.2,59.946719229392464,4,
0,exp1.png,exp2.png,,,,,,,,,,,,,,,,,,0,0,0,0,0,0,0,0,,,,,,,,,True,,,,,,,,,,,,,,,,,,,,,,,,,,,,,,,,,,,,,,sub_716,2024-06-07_11h03.53.795,Reversal,2022.1.2,59.946719229392464,4,
1,exp3.png,exp4.png,,,,,,,,,,,,,,,,,,0,0,0,0,0,1,1,1,,,,,,,,,False,0,81,False,exp3.png,exp4.png,trial_right_image,-1,exp4.png,4,exp3.png,exp4.png,1,3,reversed,incorrect,0.6896817306734726,0,valid_lose,561.7067657001317,44,,,,,,,,,,558.6836591009051,,,,,,,,sub_716,2024-06-07_11h03.53.795,Reversal,2022.1.2,59.946719229392464,4,
2,exp1.png,exp2.png,,,,,,,,,,,,,,,,,,0,0,0,0,0,2,2,2,,,,,,,,,False,1,82,False,exp1.png,exp2.png,trial_right_image,-1,exp2.png,4,exp2.png,exp1.png,1,1,non-reversed,correct,0.3709493922226007,1,valid_win,566.5401207003742,45,,,,,,,,,,,,,,,,,,sub_716,2024-06-07_11h03.53.795,Reversal,2022.1.2,59.946719229392464,4,
3,exp3.png,exp4.png,,,,,,,,,,,,,,,,,,0,0,0,0,0,3,3,3,,,,,,,,,False,2,83,True,exp4.png,exp3.png,trial_left_image,1,exp4.png,4,exp3.png,exp4.png,1,3,reversed,incorrect,0.201489693304732,1,invalid_win,573.8401529993862,46,,,,,,,,,,,,,,,,,,sub_716,2024-06-07_11h03.53.795,Reversal,2022.1.2,59.946719229392464,4,
4,exp1.png,exp2.png,,,,,,,,,,,,,,,,,,0,0,0,0,0,4,4,4,,,,,,,,,False,3,84,True,exp2.png,exp1.png,trial_left_image,1,exp2.png,4,exp2.png,exp1.png,1,1,non-reversed,correct,0.9184809066808406,1,valid_win,578.7733545005322,47,,,,,,,,,,,,,,,,,,sub_716,2024-06-07_11h03.53.795,Reversal,2022.1.2,59.946719229392464,4,
5,exp3.png,exp4.png,,,,,,,,,,,,,,,,,,0,0,0,0,0,5,5,5,,,,,,,,,False,4,85,True,exp4.png,exp3.png,trial_right_image,-1,exp3.png,4,exp3.png,exp4.png,0,4,reversed,correct,0.9864789191840951,1,valid_win,585.6733192000538,48,,,,,,,,,,,,,,,,,,sub_716,2024-06-07_11h03.53.795,Reversal,2022.1.2,59.946719229392464,4,
6,exp1.png,exp2.png,,,,,,,,,,,,,,,,,,0,0,0,0,0,6,6,6,,,,,,,,,False,5,86,False,exp1.png,exp2.png,trial_right_image,-1,exp2.png,4,exp2.png,exp1.png,1,1,non-reversed,correct,0.09159311250150892,0,invalid_lose,592.1233908999711,48,,,,,,,,,,,,,,,,,,sub_716,2024-06-07_11h03.53.795,Reversal,2022.1.2,59.946719229392464,4,
7,exp3.png,exp4.png,,,,,,,,,,,,,,,,,,0,0,0,0,0,7,7,7,,,,,,,,,False,6,87,False,exp3.png,exp4.png,trial_left_image,1,exp3.png,4,exp3.png,exp4.png,0,4,reversed,correct,0.5263681081936749,1,valid_win,598.5893648006022,49,,,,,,,,,,,,,,,,,,sub_716,2024-06-07_11h03.53.795,Reversal,2022.1.2,59.946719229392464,4,
8,exp1.png,exp2.png,,,,,,,,,,,,,,,,,,0,0,0,0,0,8,8,8,,,,,,,,,False,7,88,True,exp2.png,exp1.png,trial_left_image,1,exp2.png,4,exp2.png,exp1.png,1,1,non-reversed,correct,0.5756040524712207,1,valid_win,603.9731859005988,50,,,,,,,,,,,,,,,,,,sub_716,2024-06-07_11h03.53.795,Reversal,2022.1.2,59.946719229392464,4,
9,exp3.png,exp4.png,,,,,,,,,,,,,,,,,,0,0,0,0,0,9,9,9,,,,,,,,,False,8,89,True,exp4.png,exp3.png,trial_right_image,-1,exp3.png,4,exp3.png,exp4.png,0,4,reversed,correct,0.3461957126749351,1,valid_win,609.9895031005144,51,,,,,,,,,,,,,,,,,,sub_716,2024-06-07_11h03.53.795,Reversal,2022.1.2,59.946719229392464,4,
10,exp1.png,exp2.png,,,,,,,,,,,,,,,,,,0,0,0,0,0,10,10,10,,,,,,,,,False,9,90,False,exp1.png,exp2.png,trial_right_image,-1,exp2.png,4,exp2.png,exp1.png,1,1,non-reversed,correct,0.5346762358742373,1,valid_win,614.7396836001426,52,,,,,,,,,,,,,,,,,,sub_716,2024-06-07_11h03.53.795,Reversal,2022.1.2,59.946719229392464,4,
11,exp3.png,exp4.png,,,,,,,,,,,,,,,,,,0,0,0,0,0,11,11,11,,,,,,,,,False,10,91,False,exp3.png,exp4.png,trial_left_image,1,exp3.png,4,exp3.png,exp4.png,0,4,reversed,correct,0.7193641432622215,1,valid_win,620.3227274995297,53,,,,,,,,,,,,,,,,,,sub_716,2024-06-07_11h03.53.795,Reversal,2022.1.2,59.946719229392464,4,
12,exp1.png,exp2.png,,,,,,,,,,,,,,,,,,0,0,0,0,0,12,12,12,,,,,,,,,False,11,92,False,exp1.png,exp2.png,trial_right_image,-1,exp2.png,4,exp2.png,exp1.png,1,1,non-reversed,correct,0.6941671233294237,1,valid_win,626.2558513004333,54,,,,,,,,,,,,,,,,,,sub_716,2024-06-07_11h03.53.795,Reversal,2022.1.2,59.946719229392464,4,
13,exp3.png,exp4.png,,,,,,,,,,,,,,,,,,0,0,0,0,0,13,13,13,,,,,,,,,False,12,93,False,exp3.png,exp4.png,trial_left_image,1,exp3.png,4,exp3.png,exp4.png,0,4,reversed,correct,0.0933089213094691,0,invalid_lose,631.2558164000511,54,,,,,,,,,,,,,,,,,,sub_716,2024-06-07_11h03.53.795,Reversal,2022.1.2,59.946719229392464,4,
14,exp1.png,exp2.png,,,,,,,,,,,,,,,,,,0,0,0,0,0,14,14,14,,,,,,,,,False,13,94,True,exp2.png,exp1.png,trial_left_image,1,exp2.png,4,exp2.png,exp1.png,1,1,non-reversed,correct,0.22769367624592485,0,invalid_lose,636.1058983001858,54,,,,,,,,,,,,,,,,,,sub_716,2024-06-07_11h03.53.795,Reversal,2022.1.2,59.946719229392464,4,
15,exp3.png,exp4.png,,,,,,,,,,,,,,,,,,0,0,0,0,0,15,15,15,,,,,,,,,False,14,95,False,exp3.png,exp4.png,trial_left_image,1,exp3.png,4,exp3.png,exp4.png,0,4,reversed,correct,0.6394018526220469,1,valid_win,641.7220083996654,55,,,,,,,,,,,,,,,,,,sub_716,2024-06-07_11h03.53.795,Reversal,2022.1.2,59.946719229392464,4,
16,exp1.png,exp2.png,,,,,,,,,,,,,,,,,,0,0,0,0,0,16,16,16,,,,,,,,,False,15,96,True,exp2.png,exp1.png,trial_left_image,1,exp2.png,4,exp2.png,exp1.png,1,1,non-reversed,correct,0.7853155875098359,1,valid_win,646.3058918006718,56,,,,,,,,,,,,,,,,,,sub_716,2024-06-07_11h03.53.795,Reversal,2022.1.2,59.946719229392464,4,
17,exp3.png,exp4.png,,,,,,,,,,,,,,,,,,0,0,0,0,0,17,17,17,,,,,,,,,False,16,97,False,exp3.png,exp4.png,trial_left_image,1,exp3.png,4,exp3.png,exp4.png,0,4,reversed,correct,0.3967594410398402,1,valid_win,651.1721409000456,57,,,,,,,,,,,,,,,,,,sub_716,2024-06-07_11h03.53.795,Reversal,2022.1.2,59.946719229392464,4,
18,exp1.png,exp2.png,,,,,,,,,,,,,,,,,,0,0,0,0,0,18,18,18,,,,,,,,,False,17,98,True,exp2.png,exp1.png,trial_left_image,1,exp2.png,4,exp2.png,exp1.png,1,1,non-reversed,correct,0.2749766484206476,1,valid_win,655.7384696006775,58,,,,,,,,,,,,,,,,,,sub_716,2024-06-07_11h03.53.795,Reversal,2022.1.2,59.946719229392464,4,
19,exp3.png,exp4.png,,,,,,,,,,,,,,,,,,0,0,0,0,0,19,19,19,,,,,,,,,False,18,99,True,exp4.png,exp3.png,trial_right_image,-1,exp3.png,4,exp3.png,exp4.png,0,4,reversed,correct,0.38355592654297477,1,valid_win,661.155405299738,59,,,,,,,,,,,,,,,,,,sub_716,2024-06-07_11h03.53.795,Reversal,2022.1.2,59.946719229392464,4,
20,exp1.png,exp2.png,,,,,,,,,,,,,,,,,,0,0,0,0,0,20,20,20,,,,,,,,,False,19,100,True,exp2.png,exp1.png,trial_left_image,1,exp2.png,4,exp2.png,exp1.png,1,1,non-reversed,correct,0.40313816969538585,1,valid_win,665.9386946000159,60,,,,,,,,,,,,,,,,,,sub_716,2024-06-07_11h03.53.795,Reversal,2022.1.2,59.946719229392464,4,
,,,exp1.png,,,,,,,,,,,,,,,,,0,0,0,0,,,,,0,0,0,0,0,0,0,0,,,,,,,,,,,,,,,,,,,,,,3.0,3.0,4.55990169942379,"[(3.0, 4.55990169942379)]",740.4638392012566,None,,,,,,,,,,,,sub_716,2024-06-07_11h03.53.795,Reversal,2022.1.2,59.946719229392464,4,
,,,exp2.png,,,,,,,,,,,,,,,,,0,0,0,0,,,,,0,0,0,0,0,1,1,1,,,,,,,,,,,,,,,,,,,,,,,99.0,3.6514566000550985,"[(99.0, 3.6514566000550985)]",745.8389750998467,None,99.0,,,,,,,,,,,sub_716,2024-06-07_11h03.53.795,Reversal,2022.1.2,59.946719229392464,4,
,,,exp3.png,,,,,,,,,,,,,,,,,0,0,0,0,,,,,0,0,0,0,0,2,2,2,,,,,,,,,,,,,,,,,,,,,,,99.0,5.534232499077916,"[(99.0, 5.534232499077916)]",751.0249678008258,None,,99.0,,,,,,,,,,sub_716,2024-06-07_11h03.53.795,Reversal,2022.1.2,59.946719229392464,4,
,,,exp4.png,,,,,,,,,,,,,,,,,0,0,0,0,,,,,0,0,0,0,0,3,3,3,,,,,,,,,,,,,,,,,,,,,,,11.0,6.417115800082684,"[(11.0, 6.417115800082684)]",757.6076337005943,None,,,11.0,,,,,,,,,sub_716,2024-06-07_11h03.53.795,Reversal,2022.1.2,59.946719229392464,4,
0,exp1.png,exp2.png,,,,,,,,,,,,,,,,,,1,0,1,0,0,0,0,0,,,,,,,,,True,,,,,,,,,,,,,,,,,,,,,,,,,,,,,,,,,,,,,,sub_716,2024-06-07_11h03.53.795,Reversal,2022.1.2,59.946719229392464,4,
1,exp3.png,exp4.png,,,,,,,,,,,,,,,,,,1,0,1,0,0,1,1,1,,,,,,,,,False,20,101,True,exp4.png,exp3.png,trial_right_image,-1,exp3.png,4,exp3.png,exp4.png,0,4,reversed,correct,0.9168751302440032,1,valid_win,696.0380815006793,61,,,,,,,,,,,,,,,,,,sub_716,2024-06-07_11h03.53.795,Reversal,2022.1.2,59.946719229392464,4,
2,exp1.png,exp2.png,,,,,,,,,,,,,,,,,,1,0,1,0,0,2,2,2,,,,,,,,,False,21,102,True,exp2.png,exp1.png,trial_left_image,1,exp2.png,4,exp2.png,exp1.png,1,1,non-reversed,correct,0.570597630651644,1,valid_win,701.171065300703,62,,,,,,,,,,,,,,,,,,sub_716,2024-06-07_11h03.53.795,Reversal,2022.1.2,59.946719229392464,4,
3,exp3.png,exp4.png,,,,,,,,,,,,,,,,,,1,0,1,0,0,3,3,3,,,,,,,,,False,22,103,False,exp3.png,exp4.png,trial_left_image,1,exp3.png,4,exp3.png,exp4.png,0,4,reversed,correct,0.08679004204812912,0,invalid_lose,706.1045775003731,62,,,,,,,,,,,,,,,,,,sub_716,2024-06-07_11h03.53.795,Reversal,2022.1.2,59.946719229392464,4,
4,exp1.png,exp2.png,,,,,,,,,,,,,,,,,,1,0,1,0,0,4,4,4,,,,,,,,,False,23,104,True,exp2.png,exp1.png,trial_left_image,1,exp2.png,4,exp2.png,exp1.png,1,1,non-reversed,correct,0.207518514712434,0,invalid_lose,710.8545104004443,62,,,,,,,,,,,,,,,,,,sub_716,2024-06-07_11h03.53.795,Reversal,2022.1.2,59.946719229392464,4,
5,exp3.png,exp4.png,,,,,,,,,,,,,,,,,,1,0,1,0,0,5,5,5,,,,,,,,,False,24,105,False,exp3.png,exp4.png,trial_left_image,1,exp3.png,4,exp3.png,exp4.png,0,4,reversed,correct,0.13259052399074578,0,invalid_lose,717.4545655995607,62,,,,,,,,,,,,,,,,,,sub_716,2024-06-07_11h03.53.795,Reversal,2022.1.2,59.946719229392464,4,
6,exp1.png,exp2.png,,,,,,,,,,,,,,,,,,1,0,1,0,0,6,6,6,,,,,,,,,False,25,106,True,exp2.png,exp1.png,trial_left_image,1,exp2.png,4,exp2.png,exp1.png,1,1,non-reversed,correct,0.49176744247060167,1,valid_win,722.0211543999612,63,,,,,,,,,,,,,,,,,,sub_716,2024-06-07_11h03.53.795,Reversal,2022.1.2,59.946719229392464,4,
7,exp3.png,exp4.png,,,,,,,,,,,,,,,,,,1,0,1,0,0,7,7,7,,,,,,,,,False,26,107,True,exp4.png,exp3.png,trial_right_image,-1,exp3.png,4,exp3.png,exp4.png,0,4,reversed,correct,0.28979390453951426,1,valid_win,728.6205465998501,64,,,,,,,,,,,,,,,,,,sub_716,2024-06-07_11h03.53.795,Reversal,2022.1.2,59.946719229392464,4,
8,exp1.png,exp2.png,,,,,,,,,,,,,,,,,,1,0,1,0,0,8,8,8,,,,,,,,,False,27,108,True,exp2.png,exp1.png,trial_left_image,1,exp2.png,4,exp2.png,exp1.png,1,1,non-reversed,correct,0.7606993080178318,1,valid_win,733.1873078998178,65,,,,,,,,,,,,,,,,,,sub_716,2024-06-07_11h03.53.795,Reversal,2022.1.2,59.946719229392464,4,
9,exp3.png,exp4.png,,,,,,,,,,,,,,,,,,1,0,1,0,0,9,9,9,,,,,,,,,False,28,109,False,exp3.png,exp4.png,trial_left_image,1,exp3.png,4,exp3.png,exp4.png,0,4,reversed,correct,0.3387883543426782,1,valid_win,738.8035329002887,66,,,,,,,,,,,,,,,,,,sub_716,2024-06-07_11h03.53.795,Reversal,2022.1.2,59.946719229392464,4,
10,exp1.png,exp2.png,,,,,,,,,,,,,,,,,,1,0,1,0,0,10,10,10,,,,,,,,,False,29,110,True,exp2.png,exp1.png,trial_left_image,1,exp2.png,4,exp2.png,exp1.png,1,1,non-reversed,correct,0.942370785096921,1,valid_win,743.9205421004444,67,,,,,,,,,,,,,,,,,,sub_716,2024-06-07_11h03.53.795,Reversal,2022.1.2,59.946719229392464,4,
11,exp3.png,exp4.png,,,,,,,,,,,,,,,,,,1,0,1,0,0,11,11,11,,,,,,,,,False,30,111,False,exp3.png,exp4.png,trial_left_image,1,exp3.png,4,exp3.png,exp4.png,0,4,reversed,correct,0.5987852427592602,1,valid_win,750.4038878995925,68,,,,,,,,,,,,,,,,,,sub_716,2024-06-07_11h03.53.795,Reversal,2022.1.2,59.946719229392464,4,
12,exp1.png,exp2.png,,,,,,,,,,,,,,,,,,1,0,1,0,0,12,12,12,,,,,,,,,False,31,112,True,exp2.png,exp1.png,trial_left_image,1,exp2.png,4,exp2.png,exp1.png,1,1,non-reversed,correct,0.3255122785443957,1,valid_win,754.8703556992114,69,,,,,,,,,,,,,,,,,,sub_716,2024-06-07_11h03.53.795,Reversal,2022.1.2,59.946719229392464,4,
13,exp3.png,exp4.png,,,,,,,,,,,,,,,,,,1,0,1,0,0,13,13,13,,,,,,,,,False,32,113,False,exp3.png,exp4.png,trial_left_image,1,exp3.png,4,exp3.png,exp4.png,0,4,reversed,correct,0.5928361870847884,1,valid_win,761.8873983994126,70,,,,,,,,,,,,,,,,,,sub_716,2024-06-07_11h03.53.795,Reversal,2022.1.2,59.946719229392464,4,
14,exp1.png,exp2.png,,,,,,,,,,,,,,,,,,1,0,1,0,0,14,14,14,,,,,,,,,False,33,114,False,exp1.png,exp2.png,trial_right_image,-1,exp2.png,4,exp2.png,exp1.png,1,1,non-reversed,correct,0.047057498712259616,0,invalid_lose,766.9370431993157,70,,,,,,,,,,,,,,,,,,sub_716,2024-06-07_11h03.53.795,Reversal,2022.1.2,59.946719229392464,4,
15,exp3.png,exp4.png,,,,,,,,,,,,,,,,,,1,0,1,0,0,15,15,15,,,,,,,,,False,34,115,True,exp4.png,exp3.png,trial_left_image,1,exp4.png,4,exp3.png,exp4.png,1,3,reversed,incorrect,0.7121795833685736,0,valid_lose,772.0865157004446,70,,,,,,,,,,,,,,,,,,sub_716,2024-06-07_11h03.53.795,Reversal,2022.1.2,59.946719229392464,4,
16,exp1.png,exp2.png,,,,,,,,,,,,,,,,,,1,0,1,0,0,16,16,16,,,,,,,,,False,35,116,False,exp1.png,exp2.png,trial_right_image,-1,exp2.png,4,exp2.png,exp1.png,1,1,non-reversed,correct,0.7485054638182301,1,valid_win,776.7198942992836,71,,,,,,,,,,,,,,,,,,sub_716,2024-06-07_11h03.53.795,Reversal,2022.1.2,59.946719229392464,4,
17,exp3.png,exp4.png,,,,,,,,,,,,,,,,,,1,0,1,0,0,17,17,17,,,,,,,,,False,36,117,False,exp3.png,exp4.png,trial_left_image,1,exp3.png,4,exp3.png,exp4.png,0,4,reversed,correct,0.24523217253130258,0,invalid_lose,782.5368739999831,71,,,,,,,,,,,,,,,,,,sub_716,2024-06-07_11h03.53.795,Reversal,2022.1.2,59.946719229392464,4,
18,exp1.png,exp2.png,,,,,,,,,,,,,,,,,,1,0,1,0,0,18,18,18,,,,,,,,,False,37,118,True,exp2.png,exp1.png,trial_left_image,1,exp2.png,4,exp2.png,exp1.png,1,1,non-reversed,correct,0.25646997277913264,1,valid_win,787.0536701995879,72,,,,,,,,,,,,,,,,,,sub_716,2024-06-07_11h03.53.795,Reversal,2022.1.2,59.946719229392464,4,
19,exp3.png,exp4.png,,,,,,,,,,,,,,,,,,1,0,1,0,0,19,19,19,,,,,,,,,False,38,119,False,exp3.png,exp4.png,trial_left_image,1,exp3.png,4,exp3.png,exp4.png,0,4,reversed,correct,0.1040386223718408,0,invalid_lose,797.6693354994059,72,,,,,,,,,,,,,,,,,,sub_716,2024-06-07_11h03.53.795,Reversal,2022.1.2,59.946719229392464,4,
20,exp1.png,exp2.png,,,,,,,,,,,,,,,,,,1,0,1,0,0,20,20,20,,,,,,,,,False,39,120,False,exp1.png,exp2.png,trial_right_image,-1,exp2.png,4,exp2.png,exp1.png,1,1,non-reversed,correct,0.18702306021177773,0,invalid_lose,802.186091599986,72,,,,,,,,,,,,,,,,,,sub_716,2024-06-07_11h03.53.795,Reversal,2022.1.2,59.946719229392464,4,
,,,exp1.png,,,,,,,,,,,,,,,,,1,0,1,0,,,,,0,0,0,0,0,0,0,0,,,,,,,,,,,,,,,,,,,,,,12.0,12.0,4.229396400973201,"[(12.0, 4.229396400973201)]",876.7094634007663,None,,,,,,,,,,,,sub_716,2024-06-07_11h03.53.795,Reversal,2022.1.2,59.946719229392464,4,
,,,exp2.png,,,,,,,,,,,,,,,,,1,0,1,0,,,,,0,0,0,0,0,1,1,1,,,,,,,,,,,,,,,,,,,,,,,98.0,3.235240200534463,"[(98.0, 3.235240200534463)]",882.6685650013387,None,98.0,,,,,,,,,,,sub_716,2024-06-07_11h03.53.795,Reversal,2022.1.2,59.946719229392464,4,
,,,exp3.png,,,,,,,,,,,,,,,,,1,0,1,0,,,,,0,0,0,0,0,2,2,2,,,,,,,,,,,,,,,,,,,,,,,82.0,6.366514200344682,"[(82.0, 6.366514200344682)]",887.0211776997894,None,,82.0,,,,,,,,,,sub_716,2024-06-07_11h03.53.795,Reversal,2022.1.2,59.946719229392464,4,
,,,exp4.png,,,,,,,,,,,,,,,,,1,0,1,0,,,,,0,0,0,0,0,3,3,3,,,,,,,,,,,,,,,,,,,,,,,84.0,4.150194199755788,"[(84.0, 4.150194199755788)]",894.7033578008413,None,,,84.0,,,,,,,,,sub_716,2024-06-07_11h03.53.795,Reversal,2022.1.2,59.946719229392464,4,
0,exp1.png,exp2.png,,,,,,,,,,,,,,,,,,2,0,2,0,0,0,0,0,,,,,,,,,True,,,,,,,,,,,,,,,,,,,,,,,,,,,,,,,,,,,,,,sub_716,2024-06-07_11h03.53.795,Reversal,2022.1.2,59.946719229392464,4,
1,exp3.png,exp4.png,,,,,,,,,,,,,,,,,,2,0,2,0,0,1,1,1,,,,,,,,,False,40,121,False,exp3.png,exp4.png,trial_right_image,-1,exp4.png,4,exp3.png,exp4.png,1,3,reversed,incorrect,0.9403130101097812,0,valid_lose,830.8189300000668,72,,,,,,,,,,,,,,,,,,sub_716,2024-06-07_11h03.53.795,Reversal,2022.1.2,59.946719229392464,4,
2,exp1.png,exp2.png,,,,,,,,,,,,,,,,,,2,0,2,0,0,2,2,2,,,,,,,,,False,41,122,True,exp2.png,exp1.png,trial_left_image,1,exp2.png,4,exp2.png,exp1.png,1,1,non-reversed,correct,0.9620711894948256,1,valid_win,835.5025313999504,73,,,,,,,,,,,,,,,,,,sub_716,2024-06-07_11h03.53.795,Reversal,2022.1.2,59.946719229392464,4,
3,exp3.png,exp4.png,,,,,,,,,,,,,,,,,,2,0,2,0,0,3,3,3,,,,,,,,,False,42,123,True,exp4.png,exp3.png,trial_right_image,-1,exp3.png,4,exp3.png,exp4.png,0,4,reversed,correct,0.7977545903723632,1,valid_win,841.6854691002518,74,,,,,,,,,,,,,,,,,,sub_716,2024-06-07_11h03.53.795,Reversal,2022.1.2,59.946719229392464,4,
4,exp1.png,exp2.png,,,,,,,,,,,,,,,,,,2,0,2,0,0,4,4,4,,,,,,,,,False,43,124,True,exp2.png,exp1.png,trial_left_image,1,exp2.png,4,exp2.png,exp1.png,1,1,non-reversed,correct,0.182865730467203,0,invalid_lose,849.1850665006787,74,,,,,,,,,,,,,,,,,,sub_716,2024-06-07_11h03.53.795,Reversal,2022.1.2,59.946719229392464,4,
5,exp3.png,exp4.png,,,,,,,,,,,,,,,,,,2,0,2,0,0,5,5,5,,,,,,,,,False,44,125,True,exp4.png,exp3.png,trial_left_image,1,exp4.png,4,exp3.png,exp4.png,1,3,reversed,incorrect,0.8965652319910646,0,valid_lose,856.8516998998821,74,,,,,,,,,,,,,,,,,,sub_716,2024-06-07_11h03.53.795,Reversal,2022.1.2,59.946719229392464,4,
6,exp1.png,exp2.png,,,,,,,,,,,,,,,,,,2,0,2,0,0,6,6,6,,,,,,,,,False,45,126,True,exp2.png,exp1.png,trial_left_image,1,exp2.png,4,exp2.png,exp1.png,1,1,non-reversed,correct,0.4252289058735328,1,valid_win,861.40244670026,75,,,,,,,,,,,,,,,,,,sub_716,2024-06-07_11h03.53.795,Reversal,2022.1.2,59.946719229392464,4,
7,exp3.png,exp4.png,,,,,,,,,,,,,,,,,,2,0,2,0,0,7,7,7,,,,,,,,,False,46,127,True,exp4.png,exp3.png,trial_right_image,-1,exp3.png,4,exp3.png,exp4.png,0,4,reversed,correct,0.3706134664244113,1,valid_win,868.7514807991683,76,,,,,,,,,,,,,,,,,,sub_716,2024-06-07_11h03.53.795,Reversal,2022.1.2,59.946719229392464,4,
8,exp1.png,exp2.png,,,,,,,,,,,,,,,,,,2,0,2,0,0,8,8,8,,,,,,,,,False,47,128,False,exp1.png,exp2.png,trial_right_image,-1,exp2.png,4,exp2.png,exp1.png,1,1,non-reversed,correct,0.6377507701066524,1,valid_win,873.5517615005374,77,,,,,,,,,,,,,,,,,,sub_716,2024-06-07_11h03.53.795,Reversal,2022.1.2,59.946719229392464,4,
9,exp3.png,exp4.png,,,,,,,,,,,,,,,,,,2,0,2,0,0,9,9,9,,,,,,,,,False,48,129,False,exp3.png,exp4.png,trial_left_image,1,exp3.png,4,exp3.png,exp4.png,0,4,reversed,correct,0.27639243844183914,1,valid_win,879.1186165008694,78,,,,,,,,,,,,,,,,,,sub_716,2024-06-07_11h03.53.795,Reversal,2022.1.2,59.946719229392464,4,
10,exp1.png,exp2.png,,,,,,,,,,,,,,,,,,2,0,2,0,0,10,10,10,,,,,,,,,False,49,130,False,exp1.png,exp2.png,trial_right_image,-1,exp2.png,4,exp2.png,exp1.png,1,1,non-reversed,correct,0.5039926588397501,1,valid_win,884.2354403994977,79,,,,,,,,,,,,,,,,,,sub_716,2024-06-07_11h03.53.795,Reversal,2022.1.2,59.946719229392464,4,
11,exp3.png,exp4.png,,,,,,,,,,,,,,,,,,2,0,2,0,0,11,11,11,,,,,,,,,False,50,131,False,exp3.png,exp4.png,trial_left_image,1,exp3.png,4,exp3.png,exp4.png,0,4,reversed,correct,0.8433099616894655,1,valid_win,889.3848052006215,80,,,,,,,,,,,,,,,,,,sub_716,2024-06-07_11h03.53.795,Reversal,2022.1.2,59.946719229392464,4,
12,exp1.png,exp2.png,,,,,,,,,,,,,,,,,,2,0,2,0,0,12,12,12,,,,,,,,,False,51,132,True,exp2.png,exp1.png,trial_left_image,1,exp2.png,4,exp2.png,exp1.png,1,1,non-reversed,correct,0.692525418831086,1,valid_win,894.7845728006214,81,,,,,,,,,,,,,,,,,,sub_716,2024-06-07_11h03.53.795,Reversal,2022.1.2,59.946719229392464,4,
13,exp3.png,exp4.png,,,,,,,,,,,,,,,,,,2,0,2,0,0,13,13,13,,,,,,,,,False,52,133,True,exp4.png,exp3.png,trial_left_image,1,exp4.png,4,exp3.png,exp4.png,1,3,reversed,incorrect,0.01686269723877598,1,invalid_win,900.2177108004689,82,,,,,,,,,,,,,,,,,,sub_716,2024-06-07_11h03.53.795,Reversal,2022.1.2,59.946719229392464,4,
14,exp1.png,exp2.png,,,,,,,,,,,,,,,,,,2,0,2,0,0,14,14,14,,,,,,,,,False,53,134,True,exp2.png,exp1.png,trial_left_image,1,exp2.png,4,exp2.png,exp1.png,1,1,non-reversed,correct,0.30533678425767563,1,valid_win,904.9181548003107,83,,,,,,,,,,,,,,,,,,sub_716,2024-06-07_11h03.53.795,Reversal,2022.1.2,59.946719229392464,4,
15,exp3.png,exp4.png,,,,,,,,,,,,,,,,,,2,0,2,0,0,15,15,15,,,,,,,,,False,54,135,False,exp3.png,exp4.png,trial_left_image,1,exp3.png,4,exp3.png,exp4.png,0,4,reversed,correct,0.3502672540790511,1,valid_win,910.6676164995879,84,,,,,,,,,,,,,,,,,,sub_716,2024-06-07_11h03.53.795,Reversal,2022.1.2,59.946719229392464,4,
16,exp1.png,exp2.png,,,,,,,,,,,,,,,,,,2,0,2,0,0,16,16,16,,,,,,,,,False,55,136,False,exp1.png,exp2.png,trial_right_image,-1,exp2.png,4,exp2.png,exp1.png,1,1,non-reversed,correct,0.34180666363938306,1,valid_win,915.3842725008726,85,,,,,,,,,,,,,,,,,,sub_716,2024-06-07_11h03.53.795,Reversal,2022.1.2,59.946719229392464,4,
17,exp3.png,exp4.png,,,,,,,,,,,,,,,,,,2,0,2,0,0,17,17,17,,,,,,,,,False,56,137,False,exp3.png,exp4.png,trial_left_image,1,exp3.png,4,exp3.png,exp4.png,0,4,reversed,correct,0.3043758417935202,1,valid_win,921.4675347991288,86,,,,,,,,,,,,,,,,,,sub_716,2024-06-07_11h03.53.795,Reversal,2022.1.2,59.946719229392464,4,
18,exp1.png,exp2.png,,,,,,,,,,,,,,,,,,2,0,2,0,0,18,18,18,,,,,,,,,False,57,138,True,exp2.png,exp1.png,trial_left_image,1,exp2.png,4,exp2.png,exp1.png,1,1,non-reversed,correct,0.06531241526235143,0,invalid_lose,926.1506558991969,86,,,,,,,,,,,,,,,,,,sub_716,2024-06-07_11h03.53.795,Reversal,2022.1.2,59.946719229392464,4,
19,exp3.png,exp4.png,,,,,,,,,,,,,,,,,,2,0,2,0,0,19,19,19,,,,,,,,,False,58,139,False,exp3.png,exp4.png,trial_left_image,1,exp3.png,4,exp3.png,exp4.png,0,4,reversed,correct,0.588038518869225,1,valid_win,933.6171560995281,87,,,,,,,,,,,,,,,,,,sub_716,2024-06-07_11h03.53.795,Reversal,2022.1.2,59.946719229392464,4,
20,exp1.png,exp2.png,,,,,,,,,,,,,,,,,,2,0,2,0,0,20,20,20,,,,,,,,,False,59,140,False,exp1.png,exp2.png,trial_right_image,-1,exp2.png,4,exp2.png,exp1.png,1,1,non-reversed,correct,0.2190475462771463,0,invalid_lose,938.7006326001137,87,,,,,,,,,,,,,,,,,,sub_716,2024-06-07_11h03.53.795,Reversal,2022.1.2,59.946719229392464,4,
,,,exp1.png,,,,,,,,,,,,,,,,,2,0,2,0,,,,,0,0,0,0,0,0,0,0,,,,,,,,,,,,,,,,,,,,,,22.0,22.0,3.1122897006571293,"[(22.0, 3.1122897006571293)]",1013.223660800606,None,,,,,,,,,,,,sub_716,2024-06-07_11h03.53.795,Reversal,2022.1.2,59.946719229392464,4,
,,,exp2.png,,,,,,,,,,,,,,,,,2,0,2,0,,,,,0,0,0,0,0,1,1,1,,,,,,,,,,,,,,,,,,,,,,,94.0,3.0674735009670258,"[(94.0, 3.0674735009670258)]",1017.2044891007245,None,94.0,,,,,,,,,,,sub_716,2024-06-07_11h03.53.795,Reversal,2022.1.2,59.946719229392464,4,
,,,exp3.png,,,,,,,,,,,,,,,,,2,0,2,0,,,,,0,0,0,0,0,2,2,2,,,,,,,,,,,,,,,,,,,,,,,94.0,4.267322300001979,"[(94.0, 4.267322300001979)]",1021.8344100005925,None,,94.0,,,,,,,,,,sub_716,2024-06-07_11h03.53.795,Reversal,2022.1.2,59.946719229392464,4,
,,,exp4.png,,,,,,,,,,,,,,,,,2,0,2,0,,,,,0,0,0,0,0,3,3,3,,,,,,,,,,,,,,,,,,,,,,,50.0,None,[],1027.371508801356,None,,,,,,,,,,,,sub_716,2024-06-07_11h03.53.795,Reversal,2022.1.2,59.946719229392464,4,
,,,,,,,,,,,,,,,,,,,,,,,,,,,,,,,,,,,,,,,,,,,,,,,,,,,,,,,,87,,,,,,,,,,,108,54,54,400.8009303994477,1,space,74.49074240028858,sub_716,2024-06-07_11h03.53.795,Reversal,2022.1.2,59.946719229392464,4,
