trial_index,trial_image1_file,trial_image2_file,image_file,learning_outer_loop.thisRepN,learning_outer_loop.thisTrialN,learning_outer_loop.thisN,learning_outer_loop.thisIndex,learning_inner_loop.thisRepN,learning_inner_loop.thisTrialN,learning_inner_loop.thisN,learning_inner_loop.thisIndex,learning_estimation_outer_loop.thisRepN,learning_estimation_outer_loop.thisTrialN,learning_estimation_outer_loop.thisN,learning_estimation_outer_loop.thisIndex,learning_estimation_inner_loop.thisRepN,learning_estimation_inner_loop.thisTrialN,learning_estimation_inner_loop.thisN,learning_estimation_inner_loop.thisIndex,reversal_outer_loop.thisRepN,reversal_outer_loop.thisTrialN,reversal_outer_loop.thisN,reversal_outer_loop.thisIndex,reversal_inner_loop.thisRepN,reversal_inner_loop.thisTrialN,reversal_inner_loop.thisN,reversal_inner_loop.thisIndex,reversal_estimation_outer_loop.thisRepN,reversal_estimation_outer_loop.thisTrialN,reversal_estimation_outer_loop.thisN,reversal_estimation_outer_loop.thisIndex,reversal_estimation_inner_loop.thisRepN,reversal_estimation_inner_loop.thisTrialN,reversal_estimation_inner_loop.thisN,reversal_estimation_inner_loop.thisIndex,skipped,total_trial_counter,trial_num,left_right_flip,left_image_file,right_image_file,clicked_stimulus_side,side,clicked_stimulus,version,high_prob_image_file,low_prob_image_file,choice_a,choice_b,pair_type,correct,trial_feedback_random,reward,trial_type,overall_time_after_trial,score,estimation_exp1.png,estimation_rating.response,estimation_rating.rt,estimation_rating.history,estimation_rating.started,estimation_rating.stopped,estimation_exp4.png,total_learning_time,estimation_exp2.png,estimation_exp3.png,total_correct,learning_correct,reversal_correct,total_reversal_time,extra_block,participant,date,expName,psychopyVersion,frameRate,ver,
0,exp1.png,exp2.png,,0,0,0,0,0,0,0,0,,,,,,,,,,,,,,,,,,,,,,,,,False,0,1,False,exp1.png,exp2.png,trial_right_image,-1,exp2.png,3,exp2.png,exp1.png,1,3,reversed,correct,0.8442228991490679,1,valid_win,2.316828999999416,1,,,,,,,,,,,,,,,,sub_711,2024-11-24_11h14.47.363,Reversal,2022.1.2,60.0108619659816,3,
1,exp3.png,exp4.png,,0,0,0,0,0,1,1,1,,,,,,,,,,,,,,,,,,,,,,,,,False,1,2,False,exp3.png,exp4.png,trial_right_image,-1,exp4.png,3,exp4.png,exp3.png,1,1,non-reversed,correct,0.4106756507485565,1,valid_win,7.666416399999434,2,,,,,,,,,,,,,,,,sub_711,2024-11-24_11h14.47.363,Reversal,2022.1.2,60.0108619659816,3,
2,exp1.png,exp2.png,,0,0,0,0,0,2,2,2,,,,,,,,,,,,,,,,,,,,,,,,,False,2,3,True,exp2.png,exp1.png,trial_right_image,-1,exp1.png,3,exp2.png,exp1.png,0,4,reversed,incorrect,0.34488979999775116,0,valid_lose,12.100383999999394,2,,,,,,,,,,,,,,,,sub_711,2024-11-24_11h14.47.363,Reversal,2022.1.2,60.0108619659816,3,
3,exp3.png,exp4.png,,0,0,0,0,0,3,3,3,,,,,,,,,,,,,,,,,,,,,,,,,False,3,4,True,exp4.png,exp3.png,trial_left_image,1,exp4.png,3,exp4.png,exp3.png,1,1,non-reversed,correct,0.47626588013057813,1,valid_win,21.06615099999908,3,,,,,,,,,,,,,,,,sub_711,2024-11-24_11h14.47.363,Reversal,2022.1.2,60.0108619659816,3,
4,exp1.png,exp2.png,,0,0,0,0,0,4,4,4,,,,,,,,,,,,,,,,,,,,,,,,,False,4,5,True,exp2.png,exp1.png,trial_left_image,1,exp2.png,3,exp2.png,exp1.png,1,3,reversed,correct,0.7020555614455128,1,valid_win,27.533066199999666,4,,,,,,,,,,,,,,,,sub_711,2024-11-24_11h14.47.363,Reversal,2022.1.2,60.0108619659816,3,
5,exp3.png,exp4.png,,0,0,0,0,0,5,5,5,,,,,,,,,,,,,,,,,,,,,,,,,False,5,6,False,exp3.png,exp4.png,trial_right_image,-1,exp4.png,3,exp4.png,exp3.png,1,1,non-reversed,correct,0.18982277578116458,0,invalid_lose,31.999633699999322,4,,,,,,,,,,,,,,,,sub_711,2024-11-24_11h14.47.363,Reversal,2022.1.2,60.0108619659816,3,
6,exp1.png,exp2.png,,0,0,0,0,0,6,6,6,,,,,,,,,,,,,,,,,,,,,,,,,False,6,7,False,exp1.png,exp2.png,trial_left_image,1,exp1.png,3,exp2.png,exp1.png,0,4,reversed,incorrect,0.40010697597295064,0,valid_lose,39.08298879999893,4,,,,,,,,,,,,,,,,sub_711,2024-11-24_11h14.47.363,Reversal,2022.1.2,60.0108619659816,3,
7,exp3.png,exp4.png,,0,0,0,0,0,7,7,7,,,,,,,,,,,,,,,,,,,,,,,,,False,7,8,True,exp4.png,exp3.png,trial_right_image,-1,exp3.png,3,exp4.png,exp3.png,0,2,non-reversed,incorrect,0.5518857528171214,0,valid_lose,48.28278339999997,4,,,,,,,,,,,,,,,,sub_711,2024-11-24_11h14.47.363,Reversal,2022.1.2,60.0108619659816,3,
8,exp1.png,exp2.png,,0,0,0,0,0,8,8,8,,,,,,,,,,,,,,,,,,,,,,,,,False,8,9,True,exp2.png,exp1.png,trial_left_image,1,exp2.png,3,exp2.png,exp1.png,1,3,reversed,correct,0.5625967215879969,1,valid_win,56.165794799999276,5,,,,,,,,,,,,,,,,sub_711,2024-11-24_11h14.47.363,Reversal,2022.1.2,60.0108619659816,3,
9,exp3.png,exp4.png,,0,0,0,0,0,9,9,9,,,,,,,,,,,,,,,,,,,,,,,,,False,9,10,True,exp4.png,exp3.png,trial_left_image,1,exp4.png,3,exp4.png,exp3.png,1,1,non-reversed,correct,0.6744645068346999,1,valid_win,62.56558369999948,6,,,,,,,,,,,,,,,,sub_711,2024-11-24_11h14.47.363,Reversal,2022.1.2,60.0108619659816,3,
10,exp1.png,exp2.png,,0,0,0,0,0,10,10,10,,,,,,,,,,,,,,,,,,,,,,,,,False,10,11,True,exp2.png,exp1.png,trial_left_image,1,exp2.png,3,exp2.png,exp1.png,1,3,reversed,correct,0.027137784491282346,0,invalid_lose,74.4489211,6,,,,,,,,,,,,,,,,sub_711,2024-11-24_11h14.47.363,Reversal,2022.1.2,60.0108619659816,3,
11,exp3.png,exp4.png,,0,0,0,0,0,11,11,11,,,,,,,,,,,,,,,,,,,,,,,,,False,11,12,False,exp3.png,exp4.png,trial_right_image,-1,exp4.png,3,exp4.png,exp3.png,1,1,non-reversed,correct,0.31308144861495724,1,valid_win,78.81604239999979,7,,,,,,,,,,,,,,,,sub_711,2024-11-24_11h14.47.363,Reversal,2022.1.2,60.0108619659816,3,
12,exp1.png,exp2.png,,0,0,0,0,0,12,12,12,,,,,,,,,,,,,,,,,,,,,,,,,False,12,13,False,exp1.png,exp2.png,trial_right_image,-1,exp2.png,3,exp2.png,exp1.png,1,3,reversed,correct,0.1298051510033309,0,invalid_lose,85.51569219999874,7,,,,,,,,,,,,,,,,sub_711,2024-11-24_11h14.47.363,Reversal,2022.1.2,60.0108619659816,3,
13,exp3.png,exp4.png,,0,0,0,0,0,13,13,13,,,,,,,,,,,,,,,,,,,,,,,,,False,13,14,True,exp4.png,exp3.png,trial_left_image,1,exp4.png,3,exp4.png,exp3.png,1,1,non-reversed,correct,0.5878859235568917,1,valid_win,89.76578150000023,8,,,,,,,,,,,,,,,,sub_711,2024-11-24_11h14.47.363,Reversal,2022.1.2,60.0108619659816,3,
14,exp1.png,exp2.png,,0,0,0,0,0,14,14,14,,,,,,,,,,,,,,,,,,,,,,,,,False,14,15,False,exp1.png,exp2.png,trial_right_image,-1,exp2.png,3,exp2.png,exp1.png,1,3,reversed,correct,0.24541392740959056,0,invalid_lose,93.81514099999913,8,,,,,,,,,,,,,,,,sub_711,2024-11-24_11h14.47.363,Reversal,2022.1.2,60.0108619659816,3,
15,exp3.png,exp4.png,,0,0,0,0,0,15,15,15,,,,,,,,,,,,,,,,,,,,,,,,,False,15,16,False,exp3.png,exp4.png,trial_right_image,-1,exp4.png,3,exp4.png,exp3.png,1,1,non-reversed,correct,0.7785192687763767,1,valid_win,101.11493449999944,9,,,,,,,,,,,,,,,,sub_711,2024-11-24_11h14.47.363,Reversal,2022.1.2,60.0108619659816,3,
16,exp1.png,exp2.png,,0,0,0,0,0,16,16,16,,,,,,,,,,,,,,,,,,,,,,,,,False,16,17,False,exp1.png,exp2.png,trial_left_image,1,exp1.png,3,exp2.png,exp1.png,0,4,reversed,incorrect,0.9024587615656345,0,valid_lose,106.06535509999958,9,,,,,,,,,,,,,,,,sub_711,2024-11-24_11h14.47.363,Reversal,2022.1.2,60.0108619659816,3,
17,exp3.png,exp4.png,,0,0,0,0,0,17,17,17,,,,,,,,,,,,,,,,,,,,,,,,,False,17,18,True,exp4.png,exp3.png,trial_left_image,1,exp4.png,3,exp4.png,exp3.png,1,1,non-reversed,correct,0.2620560123617568,1,valid_win,117.31449249999969,10,,,,,,,,,,,,,,,,sub_711,2024-11-24_11h14.47.363,Reversal,2022.1.2,60.0108619659816,3,
18,exp1.png,exp2.png,,0,0,0,0,0,18,18,18,,,,,,,,,,,,,,,,,,,,,,,,,False,18,19,True,exp2.png,exp1.png,trial_right_image,-1,exp1.png,3,exp2.png,exp1.png,0,4,reversed,incorrect,0.8095390536258794,0,valid_lose,127.81457950000004,10,,,,,,,,,,,,,,,,sub_711,2024-11-24_11h14.47.363,Reversal,2022.1.2,60.0108619659816,3,
19,exp3.png,exp4.png,,0,0,0,0,0,19,19,19,,,,,,,,,,,,,,,,,,,,,,,,,False,19,20,False,exp3.png,exp4.png,trial_right_image,-1,exp4.png,3,exp4.png,exp3.png,1,1,non-reversed,correct,0.600598881875455,1,valid_win,132.1986438999993,11,,,,,,,,,,,,,,,,sub_711,2024-11-24_11h14.47.363,Reversal,2022.1.2,60.0108619659816,3,
20,exp1.png,exp2.png,,0,0,0,0,0,20,20,20,,,,,,,,,,,,,,,,,,,,,,,,,True,,,,,,,,,,,,,,,,,,,,,,,,,,,,,,,,,,,,sub_711,2024-11-24_11h14.47.363,Reversal,2022.1.2,60.0108619659816,3,
,,,exp1.png,0,0,0,0,,,,,0,0,0,0,0,0,0,0,,,,,,,,,,,,,,,,,,,,,,,,,,,,,,,,,,,,,,100.0,100.0,8.958075200000167,"[(100.0, 8.958075200000167)]",224.95342809999966,None,,,,,,,,,,sub_711,2024-11-24_11h14.47.363,Reversal,2022.1.2,60.0108619659816,3,
,,,exp2.png,0,0,0,0,,,,,0,0,0,0,0,1,1,1,,,,,,,,,,,,,,,,,,,,,,,,,,,,,,,,,,,,,,,50.0,None,[],235.1390840999993,None,,,,,,,,,,sub_711,2024-11-24_11h14.47.363,Reversal,2022.1.2,60.0108619659816,3,
,,,exp3.png,0,0,0,0,,,,,0,0,0,0,0,2,2,2,,,,,,,,,,,,,,,,,,,,,,,,,,,,,,,,,,,,,,,50.0,None,[],246.80646569999953,None,,,,,,,,,,sub_711,2024-11-24_11h14.47.363,Reversal,2022.1.2,60.0108619659816,3,
,,,exp4.png,0,0,0,0,,,,,0,0,0,0,0,3,3,3,,,,,,,,,,,,,,,,,,,,,,,,,,,,,,,,,,,,,,,50.0,None,[],250.4495795999992,None,,,,,,,,,,sub_711,2024-11-24_11h14.47.363,Reversal,2022.1.2,60.0108619659816,3,
0,exp1.png,exp2.png,,1,0,1,0,0,0,0,0,,,,,,,,,,,,,,,,,,,,,,,,,False,20,21,True,exp2.png,exp1.png,trial_left_image,1,exp2.png,3,exp2.png,exp1.png,1,3,reversed,correct,0.1879985105898312,0,invalid_lose,174.64725579999867,11,,,,,,,,,,,,,,,,sub_711,2024-11-24_11h14.47.363,Reversal,2022.1.2,60.0108619659816,3,
1,exp3.png,exp4.png,,1,0,1,0,0,1,1,1,,,,,,,,,,,,,,,,,,,,,,,,,False,21,22,True,exp4.png,exp3.png,trial_left_image,1,exp4.png,3,exp4.png,exp3.png,1,1,non-reversed,correct,0.156285088576266,0,invalid_lose,192.69671469999957,11,,,,,,,,,,,,,,,,sub_711,2024-11-24_11h14.47.363,Reversal,2022.1.2,60.0108619659816,3,
2,exp1.png,exp2.png,,1,0,1,0,0,2,2,2,,,,,,,,,,,,,,,,,,,,,,,,,False,22,23,False,exp1.png,exp2.png,trial_right_image,-1,exp2.png,3,exp2.png,exp1.png,1,3,reversed,correct,0.056172824627091944,0,invalid_lose,197.3969664999986,11,,,,,,,,,,,,,,,,sub_711,2024-11-24_11h14.47.363,Reversal,2022.1.2,60.0108619659816,3,
3,exp3.png,exp4.png,,1,0,1,0,0,3,3,3,,,,,,,,,,,,,,,,,,,,,,,,,False,23,24,True,exp4.png,exp3.png,trial_left_image,1,exp4.png,3,exp4.png,exp3.png,1,1,non-reversed,correct,0.9599950775321219,1,valid_win,203.3468068000002,12,,,,,,,,,,,,,,,,sub_711,2024-11-24_11h14.47.363,Reversal,2022.1.2,60.0108619659816,3,
4,exp1.png,exp2.png,,1,0,1,0,0,4,4,4,,,,,,,,,,,,,,,,,,,,,,,,,False,24,25,False,exp1.png,exp2.png,trial_right_image,-1,exp2.png,3,exp2.png,exp1.png,1,3,reversed,correct,0.34517457876866553,1,valid_win,210.0299955999999,13,,,,,,,,,,,,,,,,sub_711,2024-11-24_11h14.47.363,Reversal,2022.1.2,60.0108619659816,3,
5,exp3.png,exp4.png,,1,0,1,0,0,5,5,5,,,,,,,,,,,,,,,,,,,,,,,,,False,25,26,False,exp3.png,exp4.png,trial_left_image,1,exp3.png,3,exp4.png,exp3.png,0,2,non-reversed,incorrect,0.18383869091114846,1,invalid_win,219.81361469999865,14,,,,,,,,,,,,,,,,sub_711,2024-11-24_11h14.47.363,Reversal,2022.1.2,60.0108619659816,3,
6,exp1.png,exp2.png,,1,0,1,0,0,6,6,6,,,,,,,,,,,,,,,,,,,,,,,,,False,26,27,False,exp1.png,exp2.png,trial_left_image,1,exp1.png,3,exp2.png,exp1.png,0,4,reversed,incorrect,0.6294027627045456,0,valid_lose,223.77998800000023,14,,,,,,,,,,,,,,,,sub_711,2024-11-24_11h14.47.363,Reversal,2022.1.2,60.0108619659816,3,
7,exp3.png,exp4.png,,1,0,1,0,0,7,7,7,,,,,,,,,,,,,,,,,,,,,,,,,False,27,28,True,exp4.png,exp3.png,trial_left_image,1,exp4.png,3,exp4.png,exp3.png,1,1,non-reversed,correct,0.2377600214053881,0,invalid_lose,230.31248249999953,14,,,,,,,,,,,,,,,,sub_711,2024-11-24_11h14.47.363,Reversal,2022.1.2,60.0108619659816,3,
8,exp1.png,exp2.png,,1,0,1,0,0,8,8,8,,,,,,,,,,,,,,,,,,,,,,,,,False,28,29,True,exp2.png,exp1.png,trial_right_image,-1,exp1.png,3,exp2.png,exp1.png,0,4,reversed,incorrect,0.4581784006070415,0,valid_lose,241.57917579999958,14,,,,,,,,,,,,,,,,sub_711,2024-11-24_11h14.47.363,Reversal,2022.1.2,60.0108619659816,3,
9,exp3.png,exp4.png,,1,0,1,0,0,9,9,9,,,,,,,,,,,,,,,,,,,,,,,,,False,29,30,False,exp3.png,exp4.png,trial_right_image,-1,exp4.png,3,exp4.png,exp3.png,1,1,non-reversed,correct,0.382677529505404,1,valid_win,245.64555219999966,15,,,,,,,,,,,,,,,,sub_711,2024-11-24_11h14.47.363,Reversal,2022.1.2,60.0108619659816,3,
10,exp1.png,exp2.png,,1,0,1,0,0,10,10,10,,,,,,,,,,,,,,,,,,,,,,,,,False,30,31,True,exp2.png,exp1.png,trial_right_image,-1,exp1.png,3,exp2.png,exp1.png,0,4,reversed,incorrect,0.6054142529497998,0,valid_lose,249.6462061000002,15,,,,,,,,,,,,,,,,sub_711,2024-11-24_11h14.47.363,Reversal,2022.1.2,60.0108619659816,3,
11,exp3.png,exp4.png,,1,0,1,0,0,11,11,11,,,,,,,,,,,,,,,,,,,,,,,,,False,31,32,False,exp3.png,exp4.png,trial_right_image,-1,exp4.png,3,exp4.png,exp3.png,1,1,non-reversed,correct,0.03709278029041063,0,invalid_lose,255.69581619999917,15,,,,,,,,,,,,,,,,sub_711,2024-11-24_11h14.47.363,Reversal,2022.1.2,60.0108619659816,3,
12,exp1.png,exp2.png,,1,0,1,0,0,12,12,12,,,,,,,,,,,,,,,,,,,,,,,,,False,32,33,False,exp1.png,exp2.png,trial_right_image,-1,exp2.png,3,exp2.png,exp1.png,1,3,reversed,correct,0.7482459047543755,1,valid_win,262.2286760999996,16,,,,,,,,,,,,,,,,sub_711,2024-11-24_11h14.47.363,Reversal,2022.1.2,60.0108619659816,3,
13,exp3.png,exp4.png,,1,0,1,0,0,13,13,13,,,,,,,,,,,,,,,,,,,,,,,,,False,33,34,False,exp3.png,exp4.png,trial_right_image,-1,exp4.png,3,exp4.png,exp3.png,1,1,non-reversed,correct,0.22872449253581062,0,invalid_lose,274.56143689999953,16,,,,,,,,,,,,,,,,sub_711,2024-11-24_11h14.47.363,Reversal,2022.1.2,60.0108619659816,3,
14,exp1.png,exp2.png,,1,0,1,0,0,14,14,14,,,,,,,,,,,,,,,,,,,,,,,,,False,34,35,False,exp1.png,exp2.png,trial_right_image,-1,exp2.png,3,exp2.png,exp1.png,1,3,reversed,correct,0.5696791226816333,1,valid_win,283.37888569999996,17,,,,,,,,,,,,,,,,sub_711,2024-11-24_11h14.47.363,Reversal,2022.1.2,60.0108619659816,3,
15,exp3.png,exp4.png,,1,0,1,0,0,15,15,15,,,,,,,,,,,,,,,,,,,,,,,,,False,35,36,True,exp4.png,exp3.png,trial_left_image,1,exp4.png,3,exp4.png,exp3.png,1,1,non-reversed,correct,0.14799523192111141,0,invalid_lose,287.94555319999927,17,,,,,,,,,,,,,,,,sub_711,2024-11-24_11h14.47.363,Reversal,2022.1.2,60.0108619659816,3,
16,exp1.png,exp2.png,,1,0,1,0,0,16,16,16,,,,,,,,,,,,,,,,,,,,,,,,,False,36,37,False,exp1.png,exp2.png,trial_right_image,-1,exp2.png,3,exp2.png,exp1.png,1,3,reversed,correct,0.4431296557251735,1,valid_win,293.19514720000006,18,,,,,,,,,,,,,,,,sub_711,2024-11-24_11h14.47.363,Reversal,2022.1.2,60.0108619659816,3,
17,exp3.png,exp4.png,,1,0,1,0,0,17,17,17,,,,,,,,,,,,,,,,,,,,,,,,,False,37,38,True,exp4.png,exp3.png,trial_right_image,-1,exp3.png,3,exp4.png,exp3.png,0,2,non-reversed,incorrect,0.74377157913479,0,valid_lose,303.06168330000037,18,,,,,,,,,,,,,,,,sub_711,2024-11-24_11h14.47.363,Reversal,2022.1.2,60.0108619659816,3,
18,exp1.png,exp2.png,,1,0,1,0,0,18,18,18,,,,,,,,,,,,,,,,,,,,,,,,,False,38,39,True,exp2.png,exp1.png,trial_left_image,1,exp2.png,3,exp2.png,exp1.png,1,3,reversed,correct,0.15909435959388296,0,invalid_lose,310.9951476999995,18,,,,,,,,,,,,,,,,sub_711,2024-11-24_11h14.47.363,Reversal,2022.1.2,60.0108619659816,3,
19,exp3.png,exp4.png,,1,0,1,0,0,19,19,19,,,,,,,,,,,,,,,,,,,,,,,,,False,39,40,True,exp4.png,exp3.png,trial_left_image,1,exp4.png,3,exp4.png,exp3.png,1,1,non-reversed,correct,0.1511904712672275,0,invalid_lose,316.07785369999874,18,,,,,,,,,,,,,,,,sub_711,2024-11-24_11h14.47.363,Reversal,2022.1.2,60.0108619659816,3,
20,exp1.png,exp2.png,,1,0,1,0,0,20,20,20,,,,,,,,,,,,,,,,,,,,,,,,,True,,,,,,,,,,,,,,,,,,,,,,,,,,,,,,,,,,,,sub_711,2024-11-24_11h14.47.363,Reversal,2022.1.2,60.0108619659816,3,
,,,exp1.png,1,0,1,0,,,,,0,0,0,0,0,0,0,0,,,,,,,,,,,,,,,,,,,,,,,,,,,,,,,,,,,,,,,50.0,None,[],408.8235478000006,None,,,,,,,,,,sub_711,2024-11-24_11h14.47.363,Reversal,2022.1.2,60.0108619659816,3,
,,,exp2.png,1,0,1,0,,,,,0,0,0,0,0,1,1,1,,,,,,,,,,,,,,,,,,,,,,,,,,,,,,,,,,,,,,,50.0,None,[],418.66319699999985,None,,,,,,,,,,sub_711,2024-11-24_11h14.47.363,Reversal,2022.1.2,60.0108619659816,3,
,,,exp3.png,1,0,1,0,,,,,0,0,0,0,0,2,2,2,,,,,,,,,,,,,,,,,,,,,,,,,,,,,,,,,,,,,,,50.0,None,[],435.8663512000003,None,,,,,,,,,,sub_711,2024-11-24_11h14.47.363,Reversal,2022.1.2,60.0108619659816,3,
,,,exp4.png,1,0,1,0,,,,,0,0,0,0,0,3,3,3,,,,,,,,,,,,,,,,,,,,,,,,,,,,,,,,,,,,,,,99.0,5.8839936000003945,"[(99.0, 5.8839936000003945)]",451.11728070000026,None,99.0,,,,,,,,,sub_711,2024-11-24_11h14.47.363,Reversal,2022.1.2,60.0108619659816,3,
0,exp1.png,exp2.png,,2,0,2,0,0,0,0,0,,,,,,,,,,,,,,,,,,,,,,,,,False,40,41,False,exp1.png,exp2.png,trial_right_image,-1,exp2.png,3,exp2.png,exp1.png,1,3,reversed,correct,0.3737908951082479,1,valid_win,372.94386289999966,19,,,,,,,,,,,,,,,,sub_711,2024-11-24_11h14.47.363,Reversal,2022.1.2,60.0108619659816,3,
1,exp3.png,exp4.png,,2,0,2,0,0,1,1,1,,,,,,,,,,,,,,,,,,,,,,,,,False,41,42,False,exp3.png,exp4.png,trial_left_image,1,exp3.png,3,exp4.png,exp3.png,0,2,non-reversed,incorrect,0.8536676134349748,0,valid_lose,377.726804599999,19,,,,,,,,,,,,,,,,sub_711,2024-11-24_11h14.47.363,Reversal,2022.1.2,60.0108619659816,3,
2,exp1.png,exp2.png,,2,0,2,0,0,2,2,2,,,,,,,,,,,,,,,,,,,,,,,,,False,42,43,False,exp1.png,exp2.png,trial_right_image,-1,exp2.png,3,exp2.png,exp1.png,1,3,reversed,correct,0.36519655640187143,1,valid_win,383.27708729999904,20,,,,,,,,,,,,,,,,sub_711,2024-11-24_11h14.47.363,Reversal,2022.1.2,60.0108619659816,3,
3,exp3.png,exp4.png,,2,0,2,0,0,3,3,3,,,,,,,,,,,,,,,,,,,,,,,,,False,43,44,True,exp4.png,exp3.png,trial_right_image,-1,exp3.png,3,exp4.png,exp3.png,0,2,non-reversed,incorrect,0.33855155788884106,0,valid_lose,388.79300089999924,20,,,,,,,,,,,,,,,,sub_711,2024-11-24_11h14.47.363,Reversal,2022.1.2,60.0108619659816,3,
4,exp1.png,exp2.png,,2,0,2,0,0,4,4,4,,,,,,,,,,,,,,,,,,,,,,,,,False,44,45,True,exp2.png,exp1.png,trial_right_image,-1,exp1.png,3,exp2.png,exp1.png,0,4,reversed,incorrect,0.6486248064759165,0,valid_lose,396.36010779999924,20,,,,,,,,,,,,,,,,sub_711,2024-11-24_11h14.47.363,Reversal,2022.1.2,60.0108619659816,3,
5,exp3.png,exp4.png,,2,0,2,0,0,5,5,5,,,,,,,,,,,,,,,,,,,,,,,,,False,45,46,True,exp4.png,exp3.png,trial_left_image,1,exp4.png,3,exp4.png,exp3.png,1,1,non-reversed,correct,0.2860895539097025,1,valid_win,400.6427404999995,21,,,,,,,,,,,,,,,,sub_711,2024-11-24_11h14.47.363,Reversal,2022.1.2,60.0108619659816,3,
6,exp1.png,exp2.png,,2,0,2,0,0,6,6,6,,,,,,,,,,,,,,,,,,,,,,,,,False,46,47,True,exp2.png,exp1.png,trial_right_image,-1,exp1.png,3,exp2.png,exp1.png,0,4,reversed,incorrect,0.30893300522842115,0,valid_lose,410.24298269999963,21,,,,,,,,,,,,,,,,sub_711,2024-11-24_11h14.47.363,Reversal,2022.1.2,60.0108619659816,3,
7,exp3.png,exp4.png,,2,0,2,0,0,7,7,7,,,,,,,,,,,,,,,,,,,,,,,,,False,47,48,False,exp3.png,exp4.png,trial_right_image,-1,exp4.png,3,exp4.png,exp3.png,1,1,non-reversed,correct,0.2196978922020728,0,invalid_lose,414.4259619000004,21,,,,,,,,,,,,,,,,sub_711,2024-11-24_11h14.47.363,Reversal,2022.1.2,60.0108619659816,3,
8,exp1.png,exp2.png,,2,0,2,0,0,8,8,8,,,,,,,,,,,,,,,,,,,,,,,,,False,48,49,True,exp2.png,exp1.png,trial_left_image,1,exp2.png,3,exp2.png,exp1.png,1,3,reversed,correct,0.9892257326447924,1,valid_win,420.025967399999,22,,,,,,,,,,,,,,,,sub_711,2024-11-24_11h14.47.363,Reversal,2022.1.2,60.0108619659816,3,
9,exp3.png,exp4.png,,2,0,2,0,0,9,9,9,,,,,,,,,,,,,,,,,,,,,,,,,False,49,50,True,exp4.png,exp3.png,trial_left_image,1,exp4.png,3,exp4.png,exp3.png,1,1,non-reversed,correct,0.14393114877063662,0,invalid_lose,425.89280809999946,22,,,,,,,,,,,,,,,,sub_711,2024-11-24_11h14.47.363,Reversal,2022.1.2,60.0108619659816,3,
10,exp1.png,exp2.png,,2,0,2,0,0,10,10,10,,,,,,,,,,,,,,,,,,,,,,,,,False,50,51,True,exp2.png,exp1.png,trial_left_image,1,exp2.png,3,exp2.png,exp1.png,1,3,reversed,correct,0.3967976660025545,1,valid_win,431.7585514000002,23,,,,,,,,,,,,,,,,sub_711,2024-11-24_11h14.47.363,Reversal,2022.1.2,60.0108619659816,3,
11,exp3.png,exp4.png,,2,0,2,0,0,11,11,11,,,,,,,,,,,,,,,,,,,,,,,,,False,51,52,False,exp3.png,exp4.png,trial_left_image,1,exp3.png,3,exp4.png,exp3.png,0,2,non-reversed,incorrect,0.39142635422561056,0,valid_lose,439.2259372999997,23,,,,,,,,,,,,,,,,sub_711,2024-11-24_11h14.47.363,Reversal,2022.1.2,60.0108619659816,3,
12,exp1.png,exp2.png,,2,0,2,0,0,12,12,12,,,,,,,,,,,,,,,,,,,,,,,,,False,52,53,False,exp1.png,exp2.png,trial_right_image,-1,exp2.png,3,exp2.png,exp1.png,1,3,reversed,correct,0.9332825371611686,1,valid_win,444.7251798999987,24,,,,,,,,,,,,,,,,sub_711,2024-11-24_11h14.47.363,Reversal,2022.1.2,60.0108619659816,3,
13,exp3.png,exp4.png,,2,0,2,0,0,13,13,13,,,,,,,,,,,,,,,,,,,,,,,,,False,53,54,True,exp4.png,exp3.png,trial_right_image,-1,exp3.png,3,exp4.png,exp3.png,0,2,non-reversed,incorrect,0.6860137127178823,0,valid_lose,451.75924080000004,24,,,,,,,,,,,,,,,,sub_711,2024-11-24_11h14.47.363,Reversal,2022.1.2,60.0108619659816,3,
14,exp1.png,exp2.png,,2,0,2,0,0,14,14,14,,,,,,,,,,,,,,,,,,,,,,,,,False,54,55,True,exp2.png,exp1.png,trial_left_image,1,exp2.png,3,exp2.png,exp1.png,1,3,reversed,correct,0.19902399857300512,0,invalid_lose,457.0920608999986,24,,,,,,,,,,,,,,,,sub_711,2024-11-24_11h14.47.363,Reversal,2022.1.2,60.0108619659816,3,
15,exp3.png,exp4.png,,2,0,2,0,0,15,15,15,,,,,,,,,,,,,,,,,,,,,,,,,False,55,56,True,exp4.png,exp3.png,trial_left_image,1,exp4.png,3,exp4.png,exp3.png,1,1,non-reversed,correct,0.6171234591491291,1,valid_win,461.59133719999954,25,,,,,,,,,,,,,,,,sub_711,2024-11-24_11h14.47.363,Reversal,2022.1.2,60.0108619659816,3,
16,exp1.png,exp2.png,,2,0,2,0,0,16,16,16,,,,,,,,,,,,,,,,,,,,,,,,,False,56,57,False,exp1.png,exp2.png,trial_right_image,-1,exp2.png,3,exp2.png,exp1.png,1,3,reversed,correct,0.2977895827700161,1,valid_win,468.32517349999944,26,,,,,,,,,,,,,,,,sub_711,2024-11-24_11h14.47.363,Reversal,2022.1.2,60.0108619659816,3,
17,exp3.png,exp4.png,,2,0,2,0,0,17,17,17,,,,,,,,,,,,,,,,,,,,,,,,,False,57,58,False,exp3.png,exp4.png,trial_left_image,1,exp3.png,3,exp4.png,exp3.png,0,2,non-reversed,incorrect,0.9065485806658296,0,valid_lose,476.5245261,26,,,,,,,,,,,,,,,,sub_711,2024-11-24_11h14.47.363,Reversal,2022.1.2,60.0108619659816,3,
18,exp1.png,exp2.png,,2,0,2,0,0,18,18,18,,,,,,,,,,,,,,,,,,,,,,,,,False,58,59,False,exp1.png,exp2.png,trial_right_image,-1,exp2.png,3,exp2.png,exp1.png,1,3,reversed,correct,0.3032713130987408,1,valid_win,480.7751864999991,27,,,,,,,,,,,,,,,,sub_711,2024-11-24_11h14.47.363,Reversal,2022.1.2,60.0108619659816,3,
19,exp3.png,exp4.png,,2,0,2,0,0,19,19,19,,,,,,,,,,,,,,,,,,,,,,,,,False,59,60,False,exp3.png,exp4.png,trial_right_image,-1,exp4.png,3,exp4.png,exp3.png,1,1,non-reversed,correct,0.5118780854891235,1,valid_win,484.8742148000001,28,,,,,,,,,,,,,,,,sub_711,2024-11-24_11h14.47.363,Reversal,2022.1.2,60.0108619659816,3,
20,exp1.png,exp2.png,,2,0,2,0,0,20,20,20,,,,,,,,,,,,,,,,,,,,,,,,,True,,,,,,,,,,,,,,,,,,,,,,,,,,,,,,,,,,,,sub_711,2024-11-24_11h14.47.363,Reversal,2022.1.2,60.0108619659816,3,
,,,exp1.png,2,0,2,0,,,,,0,0,0,0,0,0,0,0,,,,,,,,,,,,,,,,,,,,,,,,,,,,,,,,,,,,,,,50.0,None,[],577.6204419000005,None,,,,,,,,,,sub_711,2024-11-24_11h14.47.363,Reversal,2022.1.2,60.0108619659816,3,
,,,exp2.png,2,0,2,0,,,,,0,0,0,0,0,1,1,1,,,,,,,,,,,,,,,,,,,,,,,,,,,,,,,,,,,,,,,50.0,None,[],586.1283750999992,None,,,,,,,,,,sub_711,2024-11-24_11h14.47.363,Reversal,2022.1.2,60.0108619659816,3,
,,,exp3.png,2,0,2,0,,,,,0,0,0,0,0,2,2,2,,,,,,,,,,,,,,,,,,,,,,,,,,,,,,,,,,,,,,,50.0,None,[],590.5268593000001,None,,,,,,,,,,sub_711,2024-11-24_11h14.47.363,Reversal,2022.1.2,60.0108619659816,3,
,,,exp4.png,2,0,2,0,,,,,0,0,0,0,0,3,3,3,,,,,,,,,,,,,,,,,,,,,,,,,,,,,,,,,,,,,,,50.0,None,[],593.2635661000004,None,,,,,,,,,,sub_711,2024-11-24_11h14.47.363,Reversal,2022.1.2,60.0108619659816,3,
0,exp1.png,exp2.png,,3,0,3,0,0,0,0,0,,,,,,,,,,,,,,,,,,,,,,,,,False,60,61,False,exp1.png,exp2.png,trial_right_image,-1,exp2.png,3,exp2.png,exp1.png,1,3,reversed,correct,0.13820811959807133,0,invalid_lose,509.7081226999999,28,,,,,,,,,,,,,,,,sub_711,2024-11-24_11h14.47.363,Reversal,2022.1.2,60.0108619659816,3,
1,exp3.png,exp4.png,,3,0,3,0,0,1,1,1,,,,,,,,,,,,,,,,,,,,,,,,,False,61,62,True,exp4.png,exp3.png,trial_right_image,-1,exp3.png,3,exp4.png,exp3.png,0,2,non-reversed,incorrect,0.3993311345134185,0,valid_lose,515.174426399999,28,,,,,,,,,,,,,,,,sub_711,2024-11-24_11h14.47.363,Reversal,2022.1.2,60.0108619659816,3,
2,exp1.png,exp2.png,,3,0,3,0,0,2,2,2,,,,,,,,,,,,,,,,,,,,,,,,,False,62,63,False,exp1.png,exp2.png,trial_right_image,-1,exp2.png,3,exp2.png,exp1.png,1,3,reversed,correct,0.313663535231153,1,valid_win,521.4414361999989,29,,,,,,,,,,,,,,,,sub_711,2024-11-24_11h14.47.363,Reversal,2022.1.2,60.0108619659816,3,
3,exp3.png,exp4.png,,3,0,3,0,0,3,3,3,,,,,,,,,,,,,,,,,,,,,,,,,False,63,64,True,exp4.png,exp3.png,trial_right_image,-1,exp3.png,3,exp4.png,exp3.png,0,2,non-reversed,incorrect,0.17181430120603525,1,invalid_win,526.0070407999992,30,,,,,,,,,,,,,,,,sub_711,2024-11-24_11h14.47.363,Reversal,2022.1.2,60.0108619659816,3,
4,exp1.png,exp2.png,,3,0,3,0,0,4,4,4,,,,,,,,,,,,,,,,,,,,,,,,,False,64,65,True,exp2.png,exp1.png,trial_left_image,1,exp2.png,3,exp2.png,exp1.png,1,3,reversed,correct,0.0271978476233391,0,invalid_lose,531.1743294999997,30,,,,,,,,,,,,,,,,sub_711,2024-11-24_11h14.47.363,Reversal,2022.1.2,60.0108619659816,3,
5,exp3.png,exp4.png,,3,0,3,0,0,5,5,5,,,,,,,,,,,,,,,,,,,,,,,,,False,65,66,True,exp4.png,exp3.png,trial_right_image,-1,exp3.png,3,exp4.png,exp3.png,0,2,non-reversed,incorrect,0.4067214364886329,0,valid_lose,537.4239664999986,30,,,,,,,,,,,,,,,,sub_711,2024-11-24_11h14.47.363,Reversal,2022.1.2,60.0108619659816,3,
6,exp1.png,exp2.png,,3,0,3,0,0,6,6,6,,,,,,,,,,,,,,,,,,,,,,,,,False,66,67,True,exp2.png,exp1.png,trial_right_image,-1,exp1.png,3,exp2.png,exp1.png,0,4,reversed,incorrect,0.36077479183908057,0,valid_lose,541.7577013999999,30,,,,,,,,,,,,,,,,sub_711,2024-11-24_11h14.47.363,Reversal,2022.1.2,60.0108619659816,3,
7,exp3.png,exp4.png,,3,0,3,0,0,7,7,7,,,,,,,,,,,,,,,,,,,,,,,,,False,67,68,False,exp3.png,exp4.png,trial_left_image,1,exp3.png,3,exp4.png,exp3.png,0,2,non-reversed,incorrect,0.33646716649056685,0,valid_lose,547.4073523999996,30,,,,,,,,,,,,,,,,sub_711,2024-11-24_11h14.47.363,Reversal,2022.1.2,60.0108619659816,3,
8,exp1.png,exp2.png,,3,0,3,0,0,8,8,8,,,,,,,,,,,,,,,,,,,,,,,,,False,68,69,False,exp1.png,exp2.png,trial_left_image,1,exp1.png,3,exp2.png,exp1.png,0,4,reversed,incorrect,0.21228810182472924,1,invalid_win,551.5570300999989,31,,,,,,,,,,,,,,,,sub_711,2024-11-24_11h14.47.363,Reversal,2022.1.2,60.0108619659816,3,
9,exp3.png,exp4.png,,3,0,3,0,0,9,9,9,,,,,,,,,,,,,,,,,,,,,,,,,False,69,70,True,exp4.png,exp3.png,trial_left_image,1,exp4.png,3,exp4.png,exp3.png,1,1,non-reversed,correct,0.2906895540198219,1,valid_win,555.4068549000003,32,,,,,,,,,,,,,,,,sub_711,2024-11-24_11h14.47.363,Reversal,2022.1.2,60.0108619659816,3,
10,exp1.png,exp2.png,,3,0,3,0,0,10,10,10,,,,,,,,,,,,,,,,,,,,,,,,,False,70,71,True,exp2.png,exp1.png,trial_left_image,1,exp2.png,3,exp2.png,exp1.png,1,3,reversed,correct,0.20444116699482706,0,invalid_lose,559.3232511999995,32,,,,,,,,,,,,,,,,sub_711,2024-11-24_11h14.47.363,Reversal,2022.1.2,60.0108619659816,3,
11,exp3.png,exp4.png,,3,0,3,0,0,11,11,11,,,,,,,,,,,,,,,,,,,,,,,,,False,71,72,False,exp3.png,exp4.png,trial_right_image,-1,exp4.png,3,exp4.png,exp3.png,1,1,non-reversed,correct,0.5973824525138206,1,valid_win,563.4572124999995,33,,,,,,,,,,,,,,,,sub_711,2024-11-24_11h14.47.363,Reversal,2022.1.2,60.0108619659816,3,
12,exp1.png,exp2.png,,3,0,3,0,0,12,12,12,,,,,,,,,,,,,,,,,,,,,,,,,False,72,73,False,exp1.png,exp2.png,trial_right_image,-1,exp2.png,3,exp2.png,exp1.png,1,3,reversed,correct,0.9878529157923513,1,valid_win,569.7065363999991,34,,,,,,,,,,,,,,,,sub_711,2024-11-24_11h14.47.363,Reversal,2022.1.2,60.0108619659816,3,
13,exp3.png,exp4.png,,3,0,3,0,0,13,13,13,,,,,,,,,,,,,,,,,,,,,,,,,False,73,74,True,exp4.png,exp3.png,trial_left_image,1,exp4.png,3,exp4.png,exp3.png,1,1,non-reversed,correct,0.8011118461746091,1,valid_win,573.8397585000002,35,,,,,,,,,,,,,,,,sub_711,2024-11-24_11h14.47.363,Reversal,2022.1.2,60.0108619659816,3,
14,exp1.png,exp2.png,,3,0,3,0,0,14,14,14,,,,,,,,,,,,,,,,,,,,,,,,,False,74,75,True,exp2.png,exp1.png,trial_left_image,1,exp2.png,3,exp2.png,exp1.png,1,3,reversed,correct,0.044777878540186555,0,invalid_lose,577.7391429999989,35,,,,,,,,,,,,,,,,sub_711,2024-11-24_11h14.47.363,Reversal,2022.1.2,60.0108619659816,3,
15,exp3.png,exp4.png,,3,0,3,0,0,15,15,15,,,,,,,,,,,,,,,,,,,,,,,,,False,75,76,False,exp3.png,exp4.png,trial_right_image,-1,exp4.png,3,exp4.png,exp3.png,1,1,non-reversed,correct,0.07579305687183224,0,invalid_lose,581.9730173999997,35,,,,,,,,,,,,,,,,sub_711,2024-11-24_11h14.47.363,Reversal,2022.1.2,60.0108619659816,3,
16,exp1.png,exp2.png,,3,0,3,0,0,16,16,16,,,,,,,,,,,,,,,,,,,,,,,,,False,76,77,False,exp1.png,exp2.png,trial_right_image,-1,exp2.png,3,exp2.png,exp1.png,1,3,reversed,correct,0.03768289985945661,0,invalid_lose,585.9896732999987,35,,,,,,,,,,,,,,,,sub_711,2024-11-24_11h14.47.363,Reversal,2022.1.2,60.0108619659816,3,
17,exp3.png,exp4.png,,3,0,3,0,0,17,17,17,,,,,,,,,,,,,,,,,,,,,,,,,False,77,78,False,exp3.png,exp4.png,trial_right_image,-1,exp4.png,3,exp4.png,exp3.png,1,1,non-reversed,correct,0.909338618335309,1,valid_win,590.1060395999993,36,,,,,,,,,,,,,,,,sub_711,2024-11-24_11h14.47.363,Reversal,2022.1.2,60.0108619659816,3,
18,exp1.png,exp2.png,,3,0,3,0,0,18,18,18,,,,,,,,,,,,,,,,,,,,,,,,,False,78,79,True,exp2.png,exp1.png,trial_right_image,-1,exp1.png,3,exp2.png,exp1.png,0,4,reversed,incorrect,0.39396040584433456,0,valid_lose,594.2059878,36,,,,,,,,,,,,,,,,sub_711,2024-11-24_11h14.47.363,Reversal,2022.1.2,60.0108619659816,3,
19,exp3.png,exp4.png,,3,0,3,0,0,19,19,19,,,,,,,,,,,,,,,,,,,,,,,,,False,79,80,False,exp3.png,exp4.png,trial_left_image,1,exp3.png,3,exp4.png,exp3.png,0,2,non-reversed,incorrect,0.4933909465171131,0,valid_lose,602.8730113000001,36,,,,,,,,,,,,,,,,sub_711,2024-11-24_11h14.47.363,Reversal,2022.1.2,60.0108619659816,3,
20,exp1.png,exp2.png,,3,0,3,0,0,20,20,20,,,,,,,,,,,,,,,,,,,,,,,,,True,,,,,,,,,,,,,,,,,,,,,,,,,,,,,,,,,,,,sub_711,2024-11-24_11h14.47.363,Reversal,2022.1.2,60.0108619659816,3,
,,,exp1.png,3,0,3,0,,,,,0,0,0,0,0,0,0,0,,,,,,,,,,,,,,,,,,,,,,,,,,,,,,,,,,,,,,100.0,100.0,25.456727100001444,"[(100.0, 25.456727100001444)]",695.6237994999992,None,,,,,,,,,,sub_711,2024-11-24_11h14.47.363,Reversal,2022.1.2,60.0108619659816,3,
,,,exp2.png,3,0,3,0,,,,,0,0,0,0,0,1,1,1,,,,,,,,,,,,,,,,,,,,,,,,,,,,,,,,,,,,,,,50.0,None,[],722.2759353000001,None,,,,,,,,,,sub_711,2024-11-24_11h14.47.363,Reversal,2022.1.2,60.0108619659816,3,
,,,exp3.png,3,0,3,0,,,,,0,0,0,0,0,2,2,2,,,,,,,,,,,,,,,,,,,,,,,,,,,,,,,,,,,,,,,50.0,None,[],726.3788483999997,None,,,,,,,,,,sub_711,2024-11-24_11h14.47.363,Reversal,2022.1.2,60.0108619659816,3,
,,,exp4.png,3,0,3,0,,,,,0,0,0,0,0,3,3,3,,,,,,,,,,,,,,,,,,,,,,,,,,,,,,,,,,,,,,,50.0,None,[],732.7422908999997,None,,,,,,,,,,sub_711,2024-11-24_11h14.47.363,Reversal,2022.1.2,60.0108619659816,3,
0,exp1.png,exp2.png,,,,,,,,,,,,,,,,,,0,0,0,0,0,0,0,0,,,,,,,,,False,0,81,False,exp1.png,exp2.png,trial_left_image,1,exp1.png,3,exp1.png,exp2.png,0,4,reversed,correct,0.280104620998782,1,valid_win,650.0217003999987,37,,,,,,,,644.9477420000003,,,,,,,,sub_711,2024-11-24_11h14.47.363,Reversal,2022.1.2,60.0108619659816,3,
1,exp3.png,exp4.png,,,,,,,,,,,,,,,,,,0,0,0,0,0,1,1,1,,,,,,,,,False,1,82,True,exp4.png,exp3.png,trial_right_image,-1,exp3.png,3,exp4.png,exp3.png,0,2,non-reversed,incorrect,0.5439510434935595,0,valid_lose,654.9720430999987,37,,,,,,,,,,,,,,,,sub_711,2024-11-24_11h14.47.363,Reversal,2022.1.2,60.0108619659816,3,
2,exp1.png,exp2.png,,,,,,,,,,,,,,,,,,0,0,0,0,0,2,2,2,,,,,,,,,False,2,83,True,exp2.png,exp1.png,trial_left_image,1,exp2.png,3,exp1.png,exp2.png,1,3,reversed,incorrect,0.5064014307263284,0,valid_lose,664.2549746999994,37,,,,,,,,,,,,,,,,sub_711,2024-11-24_11h14.47.363,Reversal,2022.1.2,60.0108619659816,3,
3,exp3.png,exp4.png,,,,,,,,,,,,,,,,,,0,0,0,0,0,3,3,3,,,,,,,,,False,3,84,True,exp4.png,exp3.png,trial_right_image,-1,exp3.png,3,exp4.png,exp3.png,0,2,non-reversed,incorrect,0.4735293701020994,0,valid_lose,668.6049361999994,37,,,,,,,,,,,,,,,,sub_711,2024-11-24_11h14.47.363,Reversal,2022.1.2,60.0108619659816,3,
4,exp1.png,exp2.png,,,,,,,,,,,,,,,,,,0,0,0,0,0,4,4,4,,,,,,,,,False,4,85,True,exp2.png,exp1.png,trial_right_image,-1,exp1.png,3,exp1.png,exp2.png,0,4,reversed,correct,0.2377960160808743,0,invalid_lose,672.6045558999995,37,,,,,,,,,,,,,,,,sub_711,2024-11-24_11h14.47.363,Reversal,2022.1.2,60.0108619659816,3,
5,exp3.png,exp4.png,,,,,,,,,,,,,,,,,,0,0,0,0,0,5,5,5,,,,,,,,,False,5,86,True,exp4.png,exp3.png,trial_right_image,-1,exp3.png,3,exp4.png,exp3.png,0,2,non-reversed,incorrect,0.586783831929709,0,valid_lose,676.7213390999987,37,,,,,,,,,,,,,,,,sub_711,2024-11-24_11h14.47.363,Reversal,2022.1.2,60.0108619659816,3,
6,exp1.png,exp2.png,,,,,,,,,,,,,,,,,,0,0,0,0,0,6,6,6,,,,,,,,,False,6,87,False,exp1.png,exp2.png,trial_right_image,-1,exp2.png,3,exp1.png,exp2.png,1,3,reversed,incorrect,0.4782733922608271,0,valid_lose,680.8382005999993,37,,,,,,,,,,,,,,,,sub_711,2024-11-24_11h14.47.363,Reversal,2022.1.2,60.0108619659816,3,
7,exp3.png,exp4.png,,,,,,,,,,,,,,,,,,0,0,0,0,0,7,7,7,,,,,,,,,False,7,88,False,exp3.png,exp4.png,trial_left_image,1,exp3.png,3,exp4.png,exp3.png,0,2,non-reversed,incorrect,0.5190725666620456,0,valid_lose,685.0048086999996,37,,,,,,,,,,,,,,,,sub_711,2024-11-24_11h14.47.363,Reversal,2022.1.2,60.0108619659816,3,
8,exp1.png,exp2.png,,,,,,,,,,,,,,,,,,0,0,0,0,0,8,8,8,,,,,,,,,False,8,89,False,exp1.png,exp2.png,trial_right_image,-1,exp2.png,3,exp1.png,exp2.png,1,3,reversed,incorrect,0.06085114022040372,1,invalid_win,689.1552603,38,,,,,,,,,,,,,,,,sub_711,2024-11-24_11h14.47.363,Reversal,2022.1.2,60.0108619659816,3,
9,exp3.png,exp4.png,,,,,,,,,,,,,,,,,,0,0,0,0,0,9,9,9,,,,,,,,,False,9,90,False,exp3.png,exp4.png,trial_right_image,-1,exp4.png,3,exp4.png,exp3.png,1,1,non-reversed,correct,0.031742864921419756,0,invalid_lose,693.1711811999994,38,,,,,,,,,,,,,,,,sub_711,2024-11-24_11h14.47.363,Reversal,2022.1.2,60.0108619659816,3,
10,exp1.png,exp2.png,,,,,,,,,,,,,,,,,,0,0,0,0,0,10,10,10,,,,,,,,,False,10,91,True,exp2.png,exp1.png,trial_left_image,1,exp2.png,3,exp1.png,exp2.png,1,3,reversed,incorrect,0.42639780368356417,0,valid_lose,697.7541110000002,38,,,,,,,,,,,,,,,,sub_711,2024-11-24_11h14.47.363,Reversal,2022.1.2,60.0108619659816,3,
11,exp3.png,exp4.png,,,,,,,,,,,,,,,,,,0,0,0,0,0,11,11,11,,,,,,,,,False,11,92,False,exp3.png,exp4.png,trial_right_image,-1,exp4.png,3,exp4.png,exp3.png,1,1,non-reversed,correct,0.39138573498623663,1,valid_win,703.2209219999986,39,,,,,,,,,,,,,,,,sub_711,2024-11-24_11h14.47.363,Reversal,2022.1.2,60.0108619659816,3,
12,exp1.png,exp2.png,,,,,,,,,,,,,,,,,,0,0,0,0,0,12,12,12,,,,,,,,,False,12,93,False,exp1.png,exp2.png,trial_right_image,-1,exp2.png,3,exp1.png,exp2.png,1,3,reversed,incorrect,0.7990069365886564,0,valid_lose,707.303758099999,39,,,,,,,,,,,,,,,,sub_711,2024-11-24_11h14.47.363,Reversal,2022.1.2,60.0108619659816,3,
13,exp3.png,exp4.png,,,,,,,,,,,,,,,,,,0,0,0,0,0,13,13,13,,,,,,,,,False,13,94,False,exp3.png,exp4.png,trial_right_image,-1,exp4.png,3,exp4.png,exp3.png,1,1,non-reversed,correct,0.6920465257945925,1,valid_win,711.2870700000003,40,,,,,,,,,,,,,,,,sub_711,2024-11-24_11h14.47.363,Reversal,2022.1.2,60.0108619659816,3,
14,exp1.png,exp2.png,,,,,,,,,,,,,,,,,,0,0,0,0,0,14,14,14,,,,,,,,,False,14,95,True,exp2.png,exp1.png,trial_right_image,-1,exp1.png,3,exp1.png,exp2.png,0,4,reversed,correct,0.9215206216198443,1,valid_win,715.3042609000004,41,,,,,,,,,,,,,,,,sub_711,2024-11-24_11h14.47.363,Reversal,2022.1.2,60.0108619659816,3,
15,exp3.png,exp4.png,,,,,,,,,,,,,,,,,,0,0,0,0,0,15,15,15,,,,,,,,,False,15,96,True,exp4.png,exp3.png,trial_left_image,1,exp4.png,3,exp4.png,exp3.png,1,1,non-reversed,correct,0.09767512745659712,0,invalid_lose,722.237427099999,41,,,,,,,,,,,,,,,,sub_711,2024-11-24_11h14.47.363,Reversal,2022.1.2,60.0108619659816,3,
16,exp1.png,exp2.png,,,,,,,,,,,,,,,,,,0,0,0,0,0,16,16,16,,,,,,,,,False,16,97,True,exp2.png,exp1.png,trial_right_image,-1,exp1.png,3,exp1.png,exp2.png,0,4,reversed,correct,0.14354501470280845,0,invalid_lose,726.1211426999998,41,,,,,,,,,,,,,,,,sub_711,2024-11-24_11h14.47.363,Reversal,2022.1.2,60.0108619659816,3,
17,exp3.png,exp4.png,,,,,,,,,,,,,,,,,,0,0,0,0,0,17,17,17,,,,,,,,,False,17,98,False,exp3.png,exp4.png,trial_right_image,-1,exp4.png,3,exp4.png,exp3.png,1,1,non-reversed,correct,0.5758335411089288,1,valid_win,730.1868818000003,42,,,,,,,,,,,,,,,,sub_711,2024-11-24_11h14.47.363,Reversal,2022.1.2,60.0108619659816,3,
18,exp1.png,exp2.png,,,,,,,,,,,,,,,,,,0,0,0,0,0,18,18,18,,,,,,,,,False,18,99,True,exp2.png,exp1.png,trial_right_image,-1,exp1.png,3,exp1.png,exp2.png,0,4,reversed,correct,0.07576121090534094,0,invalid_lose,734.6699935999986,42,,,,,,,,,,,,,,,,sub_711,2024-11-24_11h14.47.363,Reversal,2022.1.2,60.0108619659816,3,
19,exp3.png,exp4.png,,,,,,,,,,,,,,,,,,0,0,0,0,0,19,19,19,,,,,,,,,False,19,100,False,exp3.png,exp4.png,trial_right_image,-1,exp4.png,3,exp4.png,exp3.png,1,1,non-reversed,correct,0.16829497956034967,0,invalid_lose,739.2037788999987,42,,,,,,,,,,,,,,,,sub_711,2024-11-24_11h14.47.363,Reversal,2022.1.2,60.0108619659816,3,
20,exp1.png,exp2.png,,,,,,,,,,,,,,,,,,0,0,0,0,0,20,20,20,,,,,,,,,True,,,,,,,,,,,,,,,,,,,,,,,,,,,,,,,,,,,,sub_711,2024-11-24_11h14.47.363,Reversal,2022.1.2,60.0108619659816,3,
,,,exp1.png,,,,,,,,,,,,,,,,,0,0,0,0,,,,,0,0,0,0,0,0,0,0,,,,,,,,,,,,,,,,,,,,,,,50.0,None,[],831.9447856999996,None,,,,,,,,,,sub_711,2024-11-24_11h14.47.363,Reversal,2022.1.2,60.0108619659816,3,
,,,exp2.png,,,,,,,,,,,,,,,,,0,0,0,0,,,,,0,0,0,0,0,1,1,1,,,,,,,,,,,,,,,,,,,,,,,50.0,None,[],837.7379440000004,None,,,,,,,,,,sub_711,2024-11-24_11h14.47.363,Reversal,2022.1.2,60.0108619659816,3,
,,,exp3.png,,,,,,,,,,,,,,,,,0,0,0,0,,,,,0,0,0,0,0,2,2,2,,,,,,,,,,,,,,,,,,,,,,,50.0,None,[],841.7394435999995,None,,,,,,,,,,sub_711,2024-11-24_11h14.47.363,Reversal,2022.1.2,60.0108619659816,3,
,,,exp4.png,,,,,,,,,,,,,,,,,0,0,0,0,,,,,0,0,0,0,0,3,3,3,,,,,,,,,,,,,,,,,,,,,,,50.0,None,[],843.1741748000004,None,,,,,,,,,,sub_711,2024-11-24_11h14.47.363,Reversal,2022.1.2,60.0108619659816,3,
0,exp1.png,exp2.png,,,,,,,,,,,,,,,,,,1,0,1,0,0,0,0,0,,,,,,,,,False,20,101,True,exp2.png,exp1.png,trial_left_image,1,exp2.png,3,exp1.png,exp2.png,1,3,reversed,incorrect,0.5972560075956918,0,valid_lose,758.6529998999995,42,,,,,,,,,,,,,,,,sub_711,2024-11-24_11h14.47.363,Reversal,2022.1.2,60.0108619659816,3,
1,exp3.png,exp4.png,,,,,,,,,,,,,,,,,,1,0,1,0,0,1,1,1,,,,,,,,,False,21,102,False,exp3.png,exp4.png,trial_left_image,1,exp3.png,3,exp4.png,exp3.png,0,2,non-reversed,incorrect,0.5890315963226661,0,valid_lose,762.9534716999988,42,,,,,,,,,,,,,,,,sub_711,2024-11-24_11h14.47.363,Reversal,2022.1.2,60.0108619659816,3,
2,exp1.png,exp2.png,,,,,,,,,,,,,,,,,,1,0,1,0,0,2,2,2,,,,,,,,,False,22,103,False,exp1.png,exp2.png,trial_left_image,1,exp1.png,3,exp1.png,exp2.png,0,4,reversed,correct,0.18267795000633502,0,invalid_lose,766.7696808000001,42,,,,,,,,,,,,,,,,sub_711,2024-11-24_11h14.47.363,Reversal,2022.1.2,60.0108619659816,3,
3,exp3.png,exp4.png,,,,,,,,,,,,,,,,,,1,0,1,0,0,3,3,3,,,,,,,,,False,23,104,False,exp3.png,exp4.png,trial_left_image,1,exp3.png,3,exp4.png,exp3.png,0,2,non-reversed,incorrect,0.09240162060242352,1,invalid_win,770.5862641999993,43,,,,,,,,,,,,,,,,sub_711,2024-11-24_11h14.47.363,Reversal,2022.1.2,60.0108619659816,3,
4,exp1.png,exp2.png,,,,,,,,,,,,,,,,,,1,0,1,0,0,4,4,4,,,,,,,,,False,24,105,True,exp2.png,exp1.png,trial_right_image,-1,exp1.png,3,exp1.png,exp2.png,0,4,reversed,correct,0.5333826929053547,1,valid_win,774.5608286999995,44,,,,,,,,,,,,,,,,sub_711,2024-11-24_11h14.47.363,Reversal,2022.1.2,60.0108619659816,3,
5,exp3.png,exp4.png,,,,,,,,,,,,,,,,,,1,0,1,0,0,5,5,5,,,,,,,,,False,25,106,True,exp4.png,exp3.png,trial_left_image,1,exp4.png,3,exp4.png,exp3.png,1,1,non-reversed,correct,0.8244590111636757,1,valid_win,778.5364666999994,45,,,,,,,,,,,,,,,,sub_711,2024-11-24_11h14.47.363,Reversal,2022.1.2,60.0108619659816,3,
6,exp1.png,exp2.png,,,,,,,,,,,,,,,,,,1,0,1,0,0,6,6,6,,,,,,,,,False,26,107,False,exp1.png,exp2.png,trial_right_image,-1,exp2.png,3,exp1.png,exp2.png,1,3,reversed,incorrect,0.14403318637359985,1,invalid_win,782.4530591999992,46,,,,,,,,,,,,,,,,sub_711,2024-11-24_11h14.47.363,Reversal,2022.1.2,60.0108619659816,3,
7,exp3.png,exp4.png,,,,,,,,,,,,,,,,,,1,0,1,0,0,7,7,7,,,,,,,,,False,27,108,True,exp4.png,exp3.png,trial_left_image,1,exp4.png,3,exp4.png,exp3.png,1,1,non-reversed,correct,0.5520563399100036,1,valid_win,786.6687411000003,47,,,,,,,,,,,,,,,,sub_711,2024-11-24_11h14.47.363,Reversal,2022.1.2,60.0108619659816,3,
8,exp1.png,exp2.png,,,,,,,,,,,,,,,,,,1,0,1,0,0,8,8,8,,,,,,,,,False,28,109,False,exp1.png,exp2.png,trial_right_image,-1,exp2.png,3,exp1.png,exp2.png,1,3,reversed,incorrect,0.13118565702603457,1,invalid_win,790.5527083999987,48,,,,,,,,,,,,,,,,sub_711,2024-11-24_11h14.47.363,Reversal,2022.1.2,60.0108619659816,3,
9,exp3.png,exp4.png,,,,,,,,,,,,,,,,,,1,0,1,0,0,9,9,9,,,,,,,,,False,29,110,False,exp3.png,exp4.png,trial_left_image,1,exp3.png,3,exp4.png,exp3.png,0,2,non-reversed,incorrect,0.6657050930539282,0,valid_lose,794.2021637999987,48,,,,,,,,,,,,,,,,sub_711,2024-11-24_11h14.47.363,Reversal,2022.1.2,60.0108619659816,3,
10,exp1.png,exp2.png,,,,,,,,,,,,,,,,,,1,0,1,0,0,10,10,10,,,,,,,,,False,30,111,False,exp1.png,exp2.png,trial_right_image,-1,exp2.png,3,exp1.png,exp2.png,1,3,reversed,incorrect,0.7093503478582672,0,valid_lose,798.3197402999995,48,,,,,,,,,,,,,,,,sub_711,2024-11-24_11h14.47.363,Reversal,2022.1.2,60.0108619659816,3,
11,exp3.png,exp4.png,,,,,,,,,,,,,,,,,,1,0,1,0,0,11,11,11,,,,,,,,,False,31,112,True,exp4.png,exp3.png,trial_left_image,1,exp4.png,3,exp4.png,exp3.png,1,1,non-reversed,correct,0.6606511057418176,1,valid_win,803.068513799999,49,,,,,,,,,,,,,,,,sub_711,2024-11-24_11h14.47.363,Reversal,2022.1.2,60.0108619659816,3,
12,exp1.png,exp2.png,,,,,,,,,,,,,,,,,,1,0,1,0,0,12,12,12,,,,,,,,,False,32,113,True,exp2.png,exp1.png,trial_right_image,-1,exp1.png,3,exp1.png,exp2.png,0,4,reversed,correct,0.4438931029702443,1,valid_win,807.0015910000002,50,,,,,,,,,,,,,,,,sub_711,2024-11-24_11h14.47.363,Reversal,2022.1.2,60.0108619659816,3,
13,exp3.png,exp4.png,,,,,,,,,,,,,,,,,,1,0,1,0,0,13,13,13,,,,,,,,,False,33,114,True,exp4.png,exp3.png,trial_left_image,1,exp4.png,3,exp4.png,exp3.png,1,1,non-reversed,correct,0.29344831997898657,1,valid_win,812.5690052999998,51,,,,,,,,,,,,,,,,sub_711,2024-11-24_11h14.47.363,Reversal,2022.1.2,60.0108619659816,3,
14,exp1.png,exp2.png,,,,,,,,,,,,,,,,,,1,0,1,0,0,14,14,14,,,,,,,,,False,34,115,True,exp2.png,exp1.png,trial_left_image,1,exp2.png,3,exp1.png,exp2.png,1,3,reversed,incorrect,0.3517305938721108,0,valid_lose,816.4524108999994,51,,,,,,,,,,,,,,,,sub_711,2024-11-24_11h14.47.363,Reversal,2022.1.2,60.0108619659816,3,
15,exp3.png,exp4.png,,,,,,,,,,,,,,,,,,1,0,1,0,0,15,15,15,,,,,,,,,False,35,116,False,exp3.png,exp4.png,trial_right_image,-1,exp4.png,3,exp4.png,exp3.png,1,1,non-reversed,correct,0.3968221382794914,1,valid_win,820.3189906999996,52,,,,,,,,,,,,,,,,sub_711,2024-11-24_11h14.47.363,Reversal,2022.1.2,60.0108619659816,3,
16,exp1.png,exp2.png,,,,,,,,,,,,,,,,,,1,0,1,0,0,16,16,16,,,,,,,,,False,36,117,True,exp2.png,exp1.png,trial_right_image,-1,exp1.png,3,exp1.png,exp2.png,0,4,reversed,correct,0.8913536115375829,1,valid_win,824.6856731999997,53,,,,,,,,,,,,,,,,sub_711,2024-11-24_11h14.47.363,Reversal,2022.1.2,60.0108619659816,3,
17,exp3.png,exp4.png,,,,,,,,,,,,,,,,,,1,0,1,0,0,17,17,17,,,,,,,,,False,37,118,False,exp3.png,exp4.png,trial_left_image,1,exp3.png,3,exp4.png,exp3.png,0,2,non-reversed,incorrect,0.5002554196056748,0,valid_lose,829.1519064000004,53,,,,,,,,,,,,,,,,sub_711,2024-11-24_11h14.47.363,Reversal,2022.1.2,60.0108619659816,3,
18,exp1.png,exp2.png,,,,,,,,,,,,,,,,,,1,0,1,0,0,18,18,18,,,,,,,,,False,38,119,False,exp1.png,exp2.png,trial_right_image,-1,exp2.png,3,exp1.png,exp2.png,1,3,reversed,incorrect,0.7843425674950618,0,valid_lose,833.0517925000004,53,,,,,,,,,,,,,,,,sub_711,2024-11-24_11h14.47.363,Reversal,2022.1.2,60.0108619659816,3,
19,exp3.png,exp4.png,,,,,,,,,,,,,,,,,,1,0,1,0,0,19,19,19,,,,,,,,,False,39,120,True,exp4.png,exp3.png,trial_right_image,-1,exp3.png,3,exp4.png,exp3.png,0,2,non-reversed,incorrect,0.8451551109777383,0,valid_lose,837.2853806999992,53,,,,,,,,,,,,,,,,sub_711,2024-11-24_11h14.47.363,Reversal,2022.1.2,60.0108619659816,3,
20,exp1.png,exp2.png,,,,,,,,,,,,,,,,,,1,0,1,0,0,20,20,20,,,,,,,,,True,,,,,,,,,,,,,,,,,,,,,,,,,,,,,,,,,,,,sub_711,2024-11-24_11h14.47.363,Reversal,2022.1.2,60.0108619659816,3,
,,,exp1.png,,,,,,,,,,,,,,,,,1,0,1,0,,,,,0,0,0,0,0,0,0,0,,,,,,,,,,,,,,,,,,,,,,93.0,93.0,15.33068749999984,"[(93.0, 15.33068749999984)]",930.0255338000006,None,,,,,,,,,,sub_711,2024-11-24_11h14.47.363,Reversal,2022.1.2,60.0108619659816,3,
,,,exp2.png,,,,,,,,,,,,,,,,,1,0,1,0,,,,,0,0,0,0,0,1,1,1,,,,,,,,,,,,,,,,,,,,,,,92.0,2.6673972999997204,"[(92.0, 2.6673972999997204)]",947.4210516000003,None,,,92.0,,,,,,,sub_711,2024-11-24_11h14.47.363,Reversal,2022.1.2,60.0108619659816,3,
,,,exp3.png,,,,,,,,,,,,,,,,,1,0,1,0,,,,,0,0,0,0,0,2,2,2,,,,,,,,,,,,,,,,,,,,,,,97.0,2.3343361000006553,"[(97.0, 2.3343361000006553)]",951.0206275,None,,,,97.0,,,,,,sub_711,2024-11-24_11h14.47.363,Reversal,2022.1.2,60.0108619659816,3,
,,,exp4.png,,,,,,,,,,,,,,,,,1,0,1,0,,,,,0,0,0,0,0,3,3,3,,,,,,,,,,,,,,,,,,,,,,,98.0,1.7490704000010737,"[(98.0, 1.7490704000010737)]",954.3215285999995,None,98.0,,,,,,,,,sub_711,2024-11-24_11h14.47.363,Reversal,2022.1.2,60.0108619659816,3,
0,exp1.png,exp2.png,,,,,,,,,,,,,,,,,,2,0,2,0,0,0,0,0,,,,,,,,,False,40,121,False,exp1.png,exp2.png,trial_right_image,-1,exp2.png,3,exp1.png,exp2.png,1,3,reversed,incorrect,0.5186662394668095,0,valid_lose,870.1846779999996,53,,,,,,,,,,,,,,,,sub_711,2024-11-24_11h14.47.363,Reversal,2022.1.2,60.0108619659816,3,
1,exp3.png,exp4.png,,,,,,,,,,,,,,,,,,2,0,2,0,0,1,1,1,,,,,,,,,False,41,122,True,exp4.png,exp3.png,trial_left_image,1,exp4.png,3,exp4.png,exp3.png,1,1,non-reversed,correct,0.8661590946384289,1,valid_win,876.5347045999988,54,,,,,,,,,,,,,,,,sub_711,2024-11-24_11h14.47.363,Reversal,2022.1.2,60.0108619659816,3,
2,exp1.png,exp2.png,,,,,,,,,,,,,,,,,,2,0,2,0,0,2,2,2,,,,,,,,,False,42,123,False,exp1.png,exp2.png,trial_left_image,1,exp1.png,3,exp1.png,exp2.png,0,4,reversed,correct,0.29041138937409516,1,valid_win,881.6348251,55,,,,,,,,,,,,,,,,sub_711,2024-11-24_11h14.47.363,Reversal,2022.1.2,60.0108619659816,3,
3,exp3.png,exp4.png,,,,,,,,,,,,,,,,,,2,0,2,0,0,3,3,3,,,,,,,,,False,43,124,False,exp3.png,exp4.png,trial_left_image,1,exp3.png,3,exp4.png,exp3.png,0,2,non-reversed,incorrect,0.49859326192036335,0,valid_lose,886.6344157000003,55,,,,,,,,,,,,,,,,sub_711,2024-11-24_11h14.47.363,Reversal,2022.1.2,60.0108619659816,3,
4,exp1.png,exp2.png,,,,,,,,,,,,,,,,,,2,0,2,0,0,4,4,4,,,,,,,,,False,44,125,False,exp1.png,exp2.png,trial_right_image,-1,exp2.png,3,exp1.png,exp2.png,1,3,reversed,incorrect,0.07481189423478829,1,invalid_win,890.8673043999988,56,,,,,,,,,,,,,,,,sub_711,2024-11-24_11h14.47.363,Reversal,2022.1.2,60.0108619659816,3,
5,exp3.png,exp4.png,,,,,,,,,,,,,,,,,,2,0,2,0,0,5,5,5,,,,,,,,,False,45,126,True,exp4.png,exp3.png,trial_right_image,-1,exp3.png,3,exp4.png,exp3.png,0,2,non-reversed,incorrect,0.055160730368704836,1,invalid_win,897.3345441999991,57,,,,,,,,,,,,,,,,sub_711,2024-11-24_11h14.47.363,Reversal,2022.1.2,60.0108619659816,3,
6,exp1.png,exp2.png,,,,,,,,,,,,,,,,,,2,0,2,0,0,6,6,6,,,,,,,,,False,46,127,True,exp2.png,exp1.png,trial_right_image,-1,exp1.png,3,exp1.png,exp2.png,0,4,reversed,correct,0.9684532059840536,1,valid_win,902.8674883000003,58,,,,,,,,,,,,,,,,sub_711,2024-11-24_11h14.47.363,Reversal,2022.1.2,60.0108619659816,3,
7,exp3.png,exp4.png,,,,,,,,,,,,,,,,,,2,0,2,0,0,7,7,7,,,,,,,,,False,47,128,True,exp4.png,exp3.png,trial_right_image,-1,exp3.png,3,exp4.png,exp3.png,0,2,non-reversed,incorrect,0.10637766754595401,1,invalid_win,910.9174819999989,59,,,,,,,,,,,,,,,,sub_711,2024-11-24_11h14.47.363,Reversal,2022.1.2,60.0108619659816,3,
8,exp1.png,exp2.png,,,,,,,,,,,,,,,,,,2,0,2,0,0,8,8,8,,,,,,,,,False,48,129,False,exp1.png,exp2.png,trial_right_image,-1,exp2.png,3,exp1.png,exp2.png,1,3,reversed,incorrect,0.3481784400876331,0,valid_lose,916.4499379999997,59,,,,,,,,,,,,,,,,sub_711,2024-11-24_11h14.47.363,Reversal,2022.1.2,60.0108619659816,3,
9,exp3.png,exp4.png,,,,,,,,,,,,,,,,,,2,0,2,0,0,9,9,9,,,,,,,,,False,49,130,True,exp4.png,exp3.png,trial_right_image,-1,exp3.png,3,exp4.png,exp3.png,0,2,non-reversed,incorrect,0.7943256858784605,0,valid_lose,924.7672898000001,59,,,,,,,,,,,,,,,,sub_711,2024-11-24_11h14.47.363,Reversal,2022.1.2,60.0108619659816,3,
10,exp1.png,exp2.png,,,,,,,,,,,,,,,,,,2,0,2,0,0,10,10,10,,,,,,,,,False,50,131,True,exp2.png,exp1.png,trial_right_image,-1,exp1.png,3,exp1.png,exp2.png,0,4,reversed,correct,0.5795081486287057,1,valid_win,928.8334522999994,60,,,,,,,,,,,,,,,,sub_711,2024-11-24_11h14.47.363,Reversal,2022.1.2,60.0108619659816,3,
11,exp3.png,exp4.png,,,,,,,,,,,,,,,,,,2,0,2,0,0,11,11,11,,,,,,,,,False,51,132,False,exp3.png,exp4.png,trial_left_image,1,exp3.png,3,exp4.png,exp3.png,0,2,non-reversed,incorrect,0.10107678222016259,1,invalid_win,934.2831181999991,61,,,,,,,,,,,,,,,,sub_711,2024-11-24_11h14.47.363,Reversal,2022.1.2,60.0108619659816,3,
12,exp1.png,exp2.png,,,,,,,,,,,,,,,,,,2,0,2,0,0,12,12,12,,,,,,,,,False,52,133,False,exp1.png,exp2.png,trial_right_image,-1,exp2.png,3,exp1.png,exp2.png,1,3,reversed,incorrect,0.047737389896388316,1,invalid_win,941.3669964000001,62,,,,,,,,,,,,,,,,sub_711,2024-11-24_11h14.47.363,Reversal,2022.1.2,60.0108619659816,3,
13,exp3.png,exp4.png,,,,,,,,,,,,,,,,,,2,0,2,0,0,13,13,13,,,,,,,,,False,53,134,True,exp4.png,exp3.png,trial_right_image,-1,exp3.png,3,exp4.png,exp3.png,0,2,non-reversed,incorrect,0.16744724182972515,1,invalid_win,947.3330819999992,63,,,,,,,,,,,,,,,,sub_711,2024-11-24_11h14.47.363,Reversal,2022.1.2,60.0108619659816,3,
14,exp1.png,exp2.png,,,,,,,,,,,,,,,,,,2,0,2,0,0,14,14,14,,,,,,,,,False,54,135,True,exp2.png,exp1.png,trial_left_image,1,exp2.png,3,exp1.png,exp2.png,1,3,reversed,incorrect,0.12592428949533185,1,invalid_win,952.7163911999996,64,,,,,,,,,,,,,,,,sub_711,2024-11-24_11h14.47.363,Reversal,2022.1.2,60.0108619659816,3,
15,exp3.png,exp4.png,,,,,,,,,,,,,,,,,,2,0,2,0,0,15,15,15,,,,,,,,,False,55,136,False,exp3.png,exp4.png,trial_left_image,1,exp3.png,3,exp4.png,exp3.png,0,2,non-reversed,incorrect,0.6276058016855293,0,valid_lose,958.4999430999997,64,,,,,,,,,,,,,,,,sub_711,2024-11-24_11h14.47.363,Reversal,2022.1.2,60.0108619659816,3,
16,exp1.png,exp2.png,,,,,,,,,,,,,,,,,,2,0,2,0,0,16,16,16,,,,,,,,,False,56,137,False,exp1.png,exp2.png,trial_left_image,1,exp1.png,3,exp1.png,exp2.png,0,4,reversed,correct,0.1952079921611456,0,invalid_lose,964.3659038999995,64,,,,,,,,,,,,,,,,sub_711,2024-11-24_11h14.47.363,Reversal,2022.1.2,60.0108619659816,3,
17,exp3.png,exp4.png,,,,,,,,,,,,,,,,,,2,0,2,0,0,17,17,17,,,,,,,,,False,57,138,False,exp3.png,exp4.png,trial_left_image,1,exp3.png,3,exp4.png,exp3.png,0,2,non-reversed,incorrect,0.2324814913995925,1,invalid_win,969.5330102999997,65,,,,,,,,,,,,,,,,sub_711,2024-11-24_11h14.47.363,Reversal,2022.1.2,60.0108619659816,3,
18,exp1.png,exp2.png,,,,,,,,,,,,,,,,,,2,0,2,0,0,18,18,18,,,,,,,,,False,58,139,True,exp2.png,exp1.png,trial_left_image,1,exp2.png,3,exp1.png,exp2.png,1,3,reversed,incorrect,0.6363272754808253,0,valid_lose,976.7327638999996,65,,,,,,,,,,,,,,,,sub_711,2024-11-24_11h14.47.363,Reversal,2022.1.2,60.0108619659816,3,
19,exp3.png,exp4.png,,,,,,,,,,,,,,,,,,2,0,2,0,0,19,19,19,,,,,,,,,False,59,140,True,exp4.png,exp3.png,trial_right_image,-1,exp3.png,3,exp4.png,exp3.png,0,2,non-reversed,incorrect,0.6456291848874999,0,valid_lose,981.3995436999994,65,,,,,,,,,,,,,,,,sub_711,2024-11-24_11h14.47.363,Reversal,2022.1.2,60.0108619659816,3,
20,exp1.png,exp2.png,,,,,,,,,,,,,,,,,,2,0,2,0,0,20,20,20,,,,,,,,,True,,,,,,,,,,,,,,,,,,,,,,,,,,,,,,,,,,,,sub_711,2024-11-24_11h14.47.363,Reversal,2022.1.2,60.0108619659816,3,
,,,exp1.png,,,,,,,,,,,,,,,,,2,0,2,0,,,,,0,0,0,0,0,0,0,0,,,,,,,,,,,,,,,,,,,,,,100.0,100.0,7.3778500000007625,"[(100.0, 7.3778500000007625)]",1074.1429411999998,None,,,,,,,,,,sub_711,2024-11-24_11h14.47.363,Reversal,2022.1.2,60.0108619659816,3,
,,,exp2.png,,,,,,,,,,,,,,,,,2,0,2,0,,,,,0,0,0,0,0,1,1,1,,,,,,,,,,,,,,,,,,,,,,,96.0,1.7840438000002905,"[(96.0, 1.7840438000002905)]",1082.6350805000002,None,,,96.0,,,,,,,sub_711,2024-11-24_11h14.47.363,Reversal,2022.1.2,60.0108619659816,3,
,,,exp3.png,,,,,,,,,,,,,,,,,2,0,2,0,,,,,0,0,0,0,0,2,2,2,,,,,,,,,,,,,,,,,,,,,,,96.0,1.3994318999993993,"[(96.0, 1.3994318999993993)]",1085.3191473999996,None,,,,96.0,,,,,,sub_711,2024-11-24_11h14.47.363,Reversal,2022.1.2,60.0108619659816,3,
,,,exp4.png,,,,,,,,,,,,,,,,,2,0,2,0,,,,,0,0,0,0,0,3,3,3,,,,,,,,,,,,,,,,,,,,,,,87.0,2.1025034000012965,"[(87.0, 2.1025034000012965)]",1087.750847199999,None,87.0,,,,,,,,,sub_711,2024-11-24_11h14.47.363,Reversal,2022.1.2,60.0108619659816,3,
,,,,,,,,,,,,,,,,,,,,,,,,,,,,,,,,,,,,,,,,,,,,,,,,,,,,,,,,65,,,,,,,,,,,80,55,25,355.55402069999946,1,,,,,,,
