trial_index,trial_image1_file,trial_image2_file,image_file,learning_outer_loop.thisRepN,learning_outer_loop.thisTrialN,learning_outer_loop.thisN,learning_outer_loop.thisIndex,learning_inner_loop.thisRepN,learning_inner_loop.thisTrialN,learning_inner_loop.thisN,learning_inner_loop.thisIndex,learning_estimation_outer_loop.thisRepN,learning_estimation_outer_loop.thisTrialN,learning_estimation_outer_loop.thisN,learning_estimation_outer_loop.thisIndex,learning_estimation_inner_loop.thisRepN,learning_estimation_inner_loop.thisTrialN,learning_estimation_inner_loop.thisN,learning_estimation_inner_loop.thisIndex,reversal_outer_loop.thisRepN,reversal_outer_loop.thisTrialN,reversal_outer_loop.thisN,reversal_outer_loop.thisIndex,reversal_inner_loop.thisRepN,reversal_inner_loop.thisTrialN,reversal_inner_loop.thisN,reversal_inner_loop.thisIndex,reversal_estimation_outer_loop.thisRepN,reversal_estimation_outer_loop.thisTrialN,reversal_estimation_outer_loop.thisN,reversal_estimation_outer_loop.thisIndex,reversal_estimation_inner_loop.thisRepN,reversal_estimation_inner_loop.thisTrialN,reversal_estimation_inner_loop.thisN,reversal_estimation_inner_loop.thisIndex,skipped,total_trial_counter,trial_num,left_right_flip,left_image_file,right_image_file,clicked_stimulus_side,side,clicked_stimulus,version,high_prob_image_file,low_prob_image_file,choice_a,choice_b,pair_type,correct,trial_feedback_random,reward,trial_type,overall_time_after_trial,score,estimation_rating.started,estimation_exp1.png,estimation_rating.response,estimation_rating.rt,estimation_rating.history,estimation_exp2.png,estimation_exp3.png,estimation_exp4.png,total_learning_time,total_correct,learning_correct,reversal_correct,total_reversal_time,extra_block,participant,date,expName,psychopyVersion,frameRate,ver,
0,exp1.png,exp2.png,,0,0,0,0,0,0,0,0,,,,,,,,,,,,,,,,,,,,,,,,,True,,,,,,,,,,,,,,,,,,,,,,,,,,,,,,,,,,,sub_954,2024-06-09_13h06.06.439,Reversal,2023.1.3,60.02826130551234,2,
1,exp3.png,exp4.png,,0,0,0,0,0,1,1,1,,,,,,,,,,,,,,,,,,,,,,,,,False,0,1,True,exp4.png,exp3.png,trial_left_image,1,exp4.png,2,exp3.png,exp4.png,0,4,reversed,incorrect,0.8315109364322595,0,valid_lose,47.982374400000026,0,,,,,,,,,,,,,,,sub_954,2024-06-09_13h06.06.439,Reversal,2023.1.3,60.02826130551234,2,
2,exp1.png,exp2.png,,0,0,0,0,0,2,2,2,,,,,,,,,,,,,,,,,,,,,,,,,False,1,2,False,exp1.png,exp2.png,trial_left_image,1,exp1.png,2,exp1.png,exp2.png,1,1,non-reversed,correct,0.3664025459254261,1,valid_win,79.65525500000012,1,,,,,,,,,,,,,,,sub_954,2024-06-09_13h06.06.439,Reversal,2023.1.3,60.02826130551234,2,
3,exp3.png,exp4.png,,0,0,0,0,0,3,3,3,,,,,,,,,,,,,,,,,,,,,,,,,False,2,3,False,exp3.png,exp4.png,trial_left_image,1,exp3.png,2,exp3.png,exp4.png,1,3,reversed,correct,0.34390066368489114,1,valid_win,92.58422939999991,2,,,,,,,,,,,,,,,sub_954,2024-06-09_13h06.06.439,Reversal,2023.1.3,60.02826130551234,2,
4,exp1.png,exp2.png,,0,0,0,0,0,4,4,4,,,,,,,,,,,,,,,,,,,,,,,,,False,3,4,True,exp2.png,exp1.png,trial_left_image,1,exp2.png,2,exp1.png,exp2.png,0,2,non-reversed,incorrect,0.24140829738721103,1,invalid_win,104.96321739999985,3,,,,,,,,,,,,,,,sub_954,2024-06-09_13h06.06.439,Reversal,2023.1.3,60.02826130551234,2,
5,exp3.png,exp4.png,,0,0,0,0,0,5,5,5,,,,,,,,,,,,,,,,,,,,,,,,,False,4,5,True,exp4.png,exp3.png,trial_right_image,-1,exp3.png,2,exp3.png,exp4.png,1,3,reversed,correct,0.7526758869696539,1,valid_win,126.47234380000009,4,,,,,,,,,,,,,,,sub_954,2024-06-09_13h06.06.439,Reversal,2023.1.3,60.02826130551234,2,
6,exp1.png,exp2.png,,0,0,0,0,0,6,6,6,,,,,,,,,,,,,,,,,,,,,,,,,False,5,6,True,exp2.png,exp1.png,trial_left_image,1,exp2.png,2,exp1.png,exp2.png,0,2,non-reversed,incorrect,0.7469279766669462,0,valid_lose,138.70184519999975,4,,,,,,,,,,,,,,,sub_954,2024-06-09_13h06.06.439,Reversal,2023.1.3,60.02826130551234,2,
7,exp3.png,exp4.png,,0,0,0,0,0,7,7,7,,,,,,,,,,,,,,,,,,,,,,,,,False,6,7,False,exp3.png,exp4.png,trial_left_image,1,exp3.png,2,exp3.png,exp4.png,1,3,reversed,correct,0.6369042069683553,1,valid_win,152.83300830000007,5,,,,,,,,,,,,,,,sub_954,2024-06-09_13h06.06.439,Reversal,2023.1.3,60.02826130551234,2,
8,exp1.png,exp2.png,,0,0,0,0,0,8,8,8,,,,,,,,,,,,,,,,,,,,,,,,,False,7,8,True,exp2.png,exp1.png,trial_right_image,-1,exp1.png,2,exp1.png,exp2.png,1,1,non-reversed,correct,0.1710508523198685,0,invalid_lose,162.8269068999998,5,,,,,,,,,,,,,,,sub_954,2024-06-09_13h06.06.439,Reversal,2023.1.3,60.02826130551234,2,
9,exp3.png,exp4.png,,0,0,0,0,0,9,9,9,,,,,,,,,,,,,,,,,,,,,,,,,False,8,9,True,exp4.png,exp3.png,trial_right_image,-1,exp3.png,2,exp3.png,exp4.png,1,3,reversed,correct,0.9834328613302028,1,valid_win,172.00772439999992,6,,,,,,,,,,,,,,,sub_954,2024-06-09_13h06.06.439,Reversal,2023.1.3,60.02826130551234,2,
10,exp1.png,exp2.png,,0,0,0,0,0,10,10,10,,,,,,,,,,,,,,,,,,,,,,,,,False,9,10,False,exp1.png,exp2.png,trial_right_image,-1,exp2.png,2,exp1.png,exp2.png,0,2,non-reversed,incorrect,0.7348588602911903,0,valid_lose,191.6342999999997,6,,,,,,,,,,,,,,,sub_954,2024-06-09_13h06.06.439,Reversal,2023.1.3,60.02826130551234,2,
11,exp3.png,exp4.png,,0,0,0,0,0,11,11,11,,,,,,,,,,,,,,,,,,,,,,,,,False,10,11,True,exp4.png,exp3.png,trial_right_image,-1,exp3.png,2,exp3.png,exp4.png,1,3,reversed,correct,0.8869232207548707,1,valid_win,206.97853189999978,7,,,,,,,,,,,,,,,sub_954,2024-06-09_13h06.06.439,Reversal,2023.1.3,60.02826130551234,2,
12,exp1.png,exp2.png,,0,0,0,0,0,12,12,12,,,,,,,,,,,,,,,,,,,,,,,,,False,11,12,False,exp1.png,exp2.png,trial_left_image,1,exp1.png,2,exp1.png,exp2.png,1,1,non-reversed,correct,0.24567699824047118,0,invalid_lose,223.58984959999998,7,,,,,,,,,,,,,,,sub_954,2024-06-09_13h06.06.439,Reversal,2023.1.3,60.02826130551234,2,
13,exp3.png,exp4.png,,0,0,0,0,0,13,13,13,,,,,,,,,,,,,,,,,,,,,,,,,False,12,13,True,exp4.png,exp3.png,trial_right_image,-1,exp3.png,2,exp3.png,exp4.png,1,3,reversed,correct,0.6185651186297881,1,valid_win,234.38623619999998,8,,,,,,,,,,,,,,,sub_954,2024-06-09_13h06.06.439,Reversal,2023.1.3,60.02826130551234,2,
14,exp1.png,exp2.png,,0,0,0,0,0,14,14,14,,,,,,,,,,,,,,,,,,,,,,,,,False,13,14,False,exp1.png,exp2.png,trial_left_image,1,exp1.png,2,exp1.png,exp2.png,1,1,non-reversed,correct,0.7885040917365742,1,valid_win,243.99905709999985,9,,,,,,,,,,,,,,,sub_954,2024-06-09_13h06.06.439,Reversal,2023.1.3,60.02826130551234,2,
15,exp3.png,exp4.png,,0,0,0,0,0,15,15,15,,,,,,,,,,,,,,,,,,,,,,,,,False,14,15,True,exp4.png,exp3.png,trial_left_image,1,exp4.png,2,exp3.png,exp4.png,0,4,reversed,incorrect,0.6844167373866993,0,valid_lose,254.32914010000013,9,,,,,,,,,,,,,,,sub_954,2024-06-09_13h06.06.439,Reversal,2023.1.3,60.02826130551234,2,
16,exp1.png,exp2.png,,0,0,0,0,0,16,16,16,,,,,,,,,,,,,,,,,,,,,,,,,False,15,16,False,exp1.png,exp2.png,trial_left_image,1,exp1.png,2,exp1.png,exp2.png,1,1,non-reversed,correct,0.46344881097134116,1,valid_win,264.80897079999977,10,,,,,,,,,,,,,,,sub_954,2024-06-09_13h06.06.439,Reversal,2023.1.3,60.02826130551234,2,
17,exp3.png,exp4.png,,0,0,0,0,0,17,17,17,,,,,,,,,,,,,,,,,,,,,,,,,False,16,17,True,exp4.png,exp3.png,trial_left_image,1,exp4.png,2,exp3.png,exp4.png,0,4,reversed,incorrect,0.010739986652839595,1,invalid_win,273.0395387999997,11,,,,,,,,,,,,,,,sub_954,2024-06-09_13h06.06.439,Reversal,2023.1.3,60.02826130551234,2,
18,exp1.png,exp2.png,,0,0,0,0,0,18,18,18,,,,,,,,,,,,,,,,,,,,,,,,,False,17,18,False,exp1.png,exp2.png,trial_right_image,-1,exp2.png,2,exp1.png,exp2.png,0,2,non-reversed,incorrect,0.3574749298432438,0,valid_lose,281.0033734999997,11,,,,,,,,,,,,,,,sub_954,2024-06-09_13h06.06.439,Reversal,2023.1.3,60.02826130551234,2,
19,exp3.png,exp4.png,,0,0,0,0,0,19,19,19,,,,,,,,,,,,,,,,,,,,,,,,,False,18,19,False,exp3.png,exp4.png,trial_left_image,1,exp3.png,2,exp3.png,exp4.png,1,3,reversed,correct,0.3720943504423597,1,valid_win,285.81887129999996,12,,,,,,,,,,,,,,,sub_954,2024-06-09_13h06.06.439,Reversal,2023.1.3,60.02826130551234,2,
20,exp1.png,exp2.png,,0,0,0,0,0,20,20,20,,,,,,,,,,,,,,,,,,,,,,,,,False,19,20,False,exp1.png,exp2.png,trial_left_image,1,exp1.png,2,exp1.png,exp2.png,1,1,non-reversed,correct,0.2786327966126402,1,valid_win,290.7336986999999,13,,,,,,,,,,,,,,,sub_954,2024-06-09_13h06.06.439,Reversal,2023.1.3,60.02826130551234,2,
,,,exp1.png,0,0,0,0,,,,,0,0,0,0,0,0,0,0,,,,,,,,,,,,,,,,,,,,,,,,,,,,,,,,,,,,,,371.66626270000006,100.0,100.0,9.774603200000001,"[(100.0, 9.774603200000001)]",,,,,,,,,,sub_954,2024-06-09_13h06.06.439,Reversal,2023.1.3,60.02826130551234,2,
,,,exp2.png,0,0,0,0,,,,,0,0,0,0,0,1,1,1,,,,,,,,,,,,,,,,,,,,,,,,,,,,,,,,,,,,,,383.9415562000004,,28.0,15.972738500000105,"[(28.0, 15.972738500000105)]",28.0,,,,,,,,,sub_954,2024-06-09_13h06.06.439,Reversal,2023.1.3,60.02826130551234,2,
,,,exp3.png,0,0,0,0,,,,,0,0,0,0,0,2,2,2,,,,,,,,,,,,,,,,,,,,,,,,,,,,,,,,,,,,,,400.9815709000004,,47.0,4.594086900000093,"[(47.0, 4.594086900000093)]",,47.0,,,,,,,,sub_954,2024-06-09_13h06.06.439,Reversal,2023.1.3,60.02826130551234,2,
,,,exp4.png,0,0,0,0,,,,,0,0,0,0,0,3,3,3,,,,,,,,,,,,,,,,,,,,,,,,,,,,,,,,,,,,,,406.4950584000003,,55.0,1.5443341999998665,"[(55.0, 1.5443341999998665)]",,,55.0,,,,,,,sub_954,2024-06-09_13h06.06.439,Reversal,2023.1.3,60.02826130551234,2,
0,exp1.png,exp2.png,,1,0,1,0,0,0,0,0,,,,,,,,,,,,,,,,,,,,,,,,,True,,,,,,,,,,,,,,,,,,,,,,,,,,,,,,,,,,,sub_954,2024-06-09_13h06.06.439,Reversal,2023.1.3,60.02826130551234,2,
1,exp3.png,exp4.png,,1,0,1,0,0,1,1,1,,,,,,,,,,,,,,,,,,,,,,,,,False,20,21,True,exp4.png,exp3.png,trial_left_image,1,exp4.png,2,exp3.png,exp4.png,0,4,reversed,incorrect,0.9105795590592772,0,valid_lose,340.9669466,13,,,,,,,,,,,,,,,sub_954,2024-06-09_13h06.06.439,Reversal,2023.1.3,60.02826130551234,2,
2,exp1.png,exp2.png,,1,0,1,0,0,2,2,2,,,,,,,,,,,,,,,,,,,,,,,,,False,21,22,False,exp1.png,exp2.png,trial_left_image,1,exp1.png,2,exp1.png,exp2.png,1,1,non-reversed,correct,0.9504642344117313,1,valid_win,346.43158989999984,14,,,,,,,,,,,,,,,sub_954,2024-06-09_13h06.06.439,Reversal,2023.1.3,60.02826130551234,2,
3,exp3.png,exp4.png,,1,0,1,0,0,3,3,3,,,,,,,,,,,,,,,,,,,,,,,,,False,22,23,False,exp3.png,exp4.png,trial_right_image,-1,exp4.png,2,exp3.png,exp4.png,0,4,reversed,incorrect,0.4341725964576175,0,valid_lose,353.44629799999984,14,,,,,,,,,,,,,,,sub_954,2024-06-09_13h06.06.439,Reversal,2023.1.3,60.02826130551234,2,
4,exp1.png,exp2.png,,1,0,1,0,0,4,4,4,,,,,,,,,,,,,,,,,,,,,,,,,False,23,24,True,exp2.png,exp1.png,trial_right_image,-1,exp1.png,2,exp1.png,exp2.png,1,1,non-reversed,correct,0.4418126120122913,1,valid_win,359.6105342999999,15,,,,,,,,,,,,,,,sub_954,2024-06-09_13h06.06.439,Reversal,2023.1.3,60.02826130551234,2,
5,exp3.png,exp4.png,,1,0,1,0,0,5,5,5,,,,,,,,,,,,,,,,,,,,,,,,,False,24,25,False,exp3.png,exp4.png,trial_left_image,1,exp3.png,2,exp3.png,exp4.png,1,3,reversed,correct,0.019737345332073608,0,invalid_lose,365.7245849000001,15,,,,,,,,,,,,,,,sub_954,2024-06-09_13h06.06.439,Reversal,2023.1.3,60.02826130551234,2,
6,exp1.png,exp2.png,,1,0,1,0,0,6,6,6,,,,,,,,,,,,,,,,,,,,,,,,,False,25,26,True,exp2.png,exp1.png,trial_left_image,1,exp2.png,2,exp1.png,exp2.png,0,2,non-reversed,incorrect,0.17637582129790286,1,invalid_win,370.2730686,16,,,,,,,,,,,,,,,sub_954,2024-06-09_13h06.06.439,Reversal,2023.1.3,60.02826130551234,2,
7,exp3.png,exp4.png,,1,0,1,0,0,7,7,7,,,,,,,,,,,,,,,,,,,,,,,,,False,26,27,True,exp4.png,exp3.png,trial_left_image,1,exp4.png,2,exp3.png,exp4.png,0,4,reversed,incorrect,0.45088254224924174,0,valid_lose,374.7385925999997,16,,,,,,,,,,,,,,,sub_954,2024-06-09_13h06.06.439,Reversal,2023.1.3,60.02826130551234,2,
8,exp1.png,exp2.png,,1,0,1,0,0,8,8,8,,,,,,,,,,,,,,,,,,,,,,,,,False,27,28,True,exp2.png,exp1.png,trial_left_image,1,exp2.png,2,exp1.png,exp2.png,0,2,non-reversed,incorrect,0.795906502306854,0,valid_lose,379.6701822,16,,,,,,,,,,,,,,,sub_954,2024-06-09_13h06.06.439,Reversal,2023.1.3,60.02826130551234,2,
9,exp3.png,exp4.png,,1,0,1,0,0,9,9,9,,,,,,,,,,,,,,,,,,,,,,,,,False,28,29,False,exp3.png,exp4.png,trial_right_image,-1,exp4.png,2,exp3.png,exp4.png,0,4,reversed,incorrect,0.0291573757823137,1,invalid_win,384.4857087999999,17,,,,,,,,,,,,,,,sub_954,2024-06-09_13h06.06.439,Reversal,2023.1.3,60.02826130551234,2,
10,exp1.png,exp2.png,,1,0,1,0,0,10,10,10,,,,,,,,,,,,,,,,,,,,,,,,,False,29,30,True,exp2.png,exp1.png,trial_right_image,-1,exp1.png,2,exp1.png,exp2.png,1,1,non-reversed,correct,0.834606196651985,1,valid_win,390.09980730000007,18,,,,,,,,,,,,,,,sub_954,2024-06-09_13h06.06.439,Reversal,2023.1.3,60.02826130551234,2,
11,exp3.png,exp4.png,,1,0,1,0,0,11,11,11,,,,,,,,,,,,,,,,,,,,,,,,,False,30,31,True,exp4.png,exp3.png,trial_left_image,1,exp4.png,2,exp3.png,exp4.png,0,4,reversed,incorrect,0.9688239783178847,0,valid_lose,395.7648306000001,18,,,,,,,,,,,,,,,sub_954,2024-06-09_13h06.06.439,Reversal,2023.1.3,60.02826130551234,2,
12,exp1.png,exp2.png,,1,0,1,0,0,12,12,12,,,,,,,,,,,,,,,,,,,,,,,,,False,31,32,True,exp2.png,exp1.png,trial_right_image,-1,exp1.png,2,exp1.png,exp2.png,1,1,non-reversed,correct,0.02350079811502981,0,invalid_lose,400.4463808999999,18,,,,,,,,,,,,,,,sub_954,2024-06-09_13h06.06.439,Reversal,2023.1.3,60.02826130551234,2,
13,exp3.png,exp4.png,,1,0,1,0,0,13,13,13,,,,,,,,,,,,,,,,,,,,,,,,,False,32,33,True,exp4.png,exp3.png,trial_left_image,1,exp4.png,2,exp3.png,exp4.png,0,4,reversed,incorrect,0.5226038472640925,0,valid_lose,404.9782274999998,18,,,,,,,,,,,,,,,sub_954,2024-06-09_13h06.06.439,Reversal,2023.1.3,60.02826130551234,2,
14,exp1.png,exp2.png,,1,0,1,0,0,14,14,14,,,,,,,,,,,,,,,,,,,,,,,,,False,33,34,True,exp2.png,exp1.png,trial_left_image,1,exp2.png,2,exp1.png,exp2.png,0,2,non-reversed,incorrect,0.8069049218731705,0,valid_lose,410.0267125999999,18,,,,,,,,,,,,,,,sub_954,2024-06-09_13h06.06.439,Reversal,2023.1.3,60.02826130551234,2,
15,exp3.png,exp4.png,,1,0,1,0,0,15,15,15,,,,,,,,,,,,,,,,,,,,,,,,,False,34,35,False,exp3.png,exp4.png,trial_right_image,-1,exp4.png,2,exp3.png,exp4.png,0,4,reversed,incorrect,0.7171117666797097,0,valid_lose,414.7080517999998,18,,,,,,,,,,,,,,,sub_954,2024-06-09_13h06.06.439,Reversal,2023.1.3,60.02826130551234,2,
16,exp1.png,exp2.png,,1,0,1,0,0,16,16,16,,,,,,,,,,,,,,,,,,,,,,,,,False,35,36,False,exp1.png,exp2.png,trial_left_image,1,exp1.png,2,exp1.png,exp2.png,1,1,non-reversed,correct,0.7674469289284016,1,valid_win,419.19017940000003,19,,,,,,,,,,,,,,,sub_954,2024-06-09_13h06.06.439,Reversal,2023.1.3,60.02826130551234,2,
17,exp3.png,exp4.png,,1,0,1,0,0,17,17,17,,,,,,,,,,,,,,,,,,,,,,,,,False,36,37,False,exp3.png,exp4.png,trial_left_image,1,exp3.png,2,exp3.png,exp4.png,1,3,reversed,correct,0.4994416605919566,1,valid_win,423.8718623999998,20,,,,,,,,,,,,,,,sub_954,2024-06-09_13h06.06.439,Reversal,2023.1.3,60.02826130551234,2,
18,exp1.png,exp2.png,,1,0,1,0,0,18,18,18,,,,,,,,,,,,,,,,,,,,,,,,,False,37,38,False,exp1.png,exp2.png,trial_right_image,-1,exp2.png,2,exp1.png,exp2.png,0,2,non-reversed,incorrect,0.6534148047416293,0,valid_lose,429.8033983999999,20,,,,,,,,,,,,,,,sub_954,2024-06-09_13h06.06.439,Reversal,2023.1.3,60.02826130551234,2,
19,exp3.png,exp4.png,,1,0,1,0,0,19,19,19,,,,,,,,,,,,,,,,,,,,,,,,,False,38,39,False,exp3.png,exp4.png,trial_left_image,1,exp3.png,2,exp3.png,exp4.png,1,3,reversed,correct,0.6641524554103698,1,valid_win,433.76874369999996,21,,,,,,,,,,,,,,,sub_954,2024-06-09_13h06.06.439,Reversal,2023.1.3,60.02826130551234,2,
20,exp1.png,exp2.png,,1,0,1,0,0,20,20,20,,,,,,,,,,,,,,,,,,,,,,,,,False,39,40,False,exp1.png,exp2.png,trial_left_image,1,exp1.png,2,exp1.png,exp2.png,1,1,non-reversed,correct,0.7981281194385539,1,valid_win,438.4835743999997,22,,,,,,,,,,,,,,,sub_954,2024-06-09_13h06.06.439,Reversal,2023.1.3,60.02826130551234,2,
,,,exp1.png,1,0,1,0,,,,,0,0,0,0,0,0,0,0,,,,,,,,,,,,,,,,,,,,,,,,,,,,,,,,,,,,,,519.4104702000004,100.0,100.0,2.5767092999999477,"[(100.0, 2.5767092999999477)]",,,,,,,,,,sub_954,2024-06-09_13h06.06.439,Reversal,2023.1.3,60.02826130551234,2,
,,,exp2.png,1,0,1,0,,,,,0,0,0,0,0,1,1,1,,,,,,,,,,,,,,,,,,,,,,,,,,,,,,,,,,,,,,524.1056320000002,,None,None,[],,,,,,,,,,sub_954,2024-06-09_13h06.06.439,Reversal,2023.1.3,60.02826130551234,2,
,,,exp3.png,1,0,1,0,,,,,0,0,0,0,0,2,2,2,,,,,,,,,,,,,,,,,,,,,,,,,,,,,,,,,,,,,,529.0708130000003,,44.0,5.2937182999999095,"[(44.0, 5.2937182999999095)]",,44.0,,,,,,,,sub_954,2024-06-09_13h06.06.439,Reversal,2023.1.3,60.02826130551234,2,
,,,exp4.png,1,0,1,0,,,,,0,0,0,0,0,3,3,3,,,,,,,,,,,,,,,,,,,,,,,,,,,,,,,,,,,,,,535.3033760000003,,38.0,2.69362910000018,"[(38.0, 2.69362910000018)]",,,38.0,,,,,,,sub_954,2024-06-09_13h06.06.439,Reversal,2023.1.3,60.02826130551234,2,
0,exp1.png,exp2.png,,2,0,2,0,0,0,0,0,,,,,,,,,,,,,,,,,,,,,,,,,True,,,,,,,,,,,,,,,,,,,,,,,,,,,,,,,,,,,sub_954,2024-06-09_13h06.06.439,Reversal,2023.1.3,60.02826130551234,2,
1,exp3.png,exp4.png,,2,0,2,0,0,1,1,1,,,,,,,,,,,,,,,,,,,,,,,,,False,40,41,False,exp3.png,exp4.png,trial_left_image,1,exp3.png,2,exp3.png,exp4.png,1,3,reversed,correct,0.8401891073510332,1,valid_win,467.1905422,23,,,,,,,,,,,,,,,sub_954,2024-06-09_13h06.06.439,Reversal,2023.1.3,60.02826130551234,2,
2,exp1.png,exp2.png,,2,0,2,0,0,2,2,2,,,,,,,,,,,,,,,,,,,,,,,,,False,41,42,True,exp2.png,exp1.png,trial_right_image,-1,exp1.png,2,exp1.png,exp2.png,1,1,non-reversed,correct,0.9892554660114583,1,valid_win,472.6719208999998,24,,,,,,,,,,,,,,,sub_954,2024-06-09_13h06.06.439,Reversal,2023.1.3,60.02826130551234,2,
3,exp3.png,exp4.png,,2,0,2,0,0,3,3,3,,,,,,,,,,,,,,,,,,,,,,,,,False,42,43,False,exp3.png,exp4.png,trial_right_image,-1,exp4.png,2,exp3.png,exp4.png,0,4,reversed,incorrect,0.37819006401179467,0,valid_lose,480.5867343,24,,,,,,,,,,,,,,,sub_954,2024-06-09_13h06.06.439,Reversal,2023.1.3,60.02826130551234,2,
4,exp1.png,exp2.png,,2,0,2,0,0,4,4,4,,,,,,,,,,,,,,,,,,,,,,,,,False,43,44,True,exp2.png,exp1.png,trial_right_image,-1,exp1.png,2,exp1.png,exp2.png,1,1,non-reversed,correct,0.9974327006709198,1,valid_win,485.2675132999998,25,,,,,,,,,,,,,,,sub_954,2024-06-09_13h06.06.439,Reversal,2023.1.3,60.02826130551234,2,
5,exp3.png,exp4.png,,2,0,2,0,0,5,5,5,,,,,,,,,,,,,,,,,,,,,,,,,False,44,45,True,exp4.png,exp3.png,trial_right_image,-1,exp3.png,2,exp3.png,exp4.png,1,3,reversed,correct,0.0010385110980801748,0,invalid_lose,491.9820890000001,25,,,,,,,,,,,,,,,sub_954,2024-06-09_13h06.06.439,Reversal,2023.1.3,60.02826130551234,2,
6,exp1.png,exp2.png,,2,0,2,0,0,6,6,6,,,,,,,,,,,,,,,,,,,,,,,,,False,45,46,True,exp2.png,exp1.png,trial_right_image,-1,exp1.png,2,exp1.png,exp2.png,1,1,non-reversed,correct,0.9995438158768236,1,valid_win,496.7304601000001,26,,,,,,,,,,,,,,,sub_954,2024-06-09_13h06.06.439,Reversal,2023.1.3,60.02826130551234,2,
7,exp3.png,exp4.png,,2,0,2,0,0,7,7,7,,,,,,,,,,,,,,,,,,,,,,,,,False,46,47,False,exp3.png,exp4.png,trial_left_image,1,exp3.png,2,exp3.png,exp4.png,1,3,reversed,correct,0.5404001033605685,1,valid_win,503.9112452999998,27,,,,,,,,,,,,,,,sub_954,2024-06-09_13h06.06.439,Reversal,2023.1.3,60.02826130551234,2,
8,exp1.png,exp2.png,,2,0,2,0,0,8,8,8,,,,,,,,,,,,,,,,,,,,,,,,,False,47,48,True,exp2.png,exp1.png,trial_right_image,-1,exp1.png,2,exp1.png,exp2.png,1,1,non-reversed,correct,0.08412347731527225,0,invalid_lose,508.6933733000001,27,,,,,,,,,,,,,,,sub_954,2024-06-09_13h06.06.439,Reversal,2023.1.3,60.02826130551234,2,
9,exp3.png,exp4.png,,2,0,2,0,0,9,9,9,,,,,,,,,,,,,,,,,,,,,,,,,False,48,49,False,exp3.png,exp4.png,trial_right_image,-1,exp4.png,2,exp3.png,exp4.png,0,4,reversed,incorrect,0.8258957345337177,0,valid_lose,514.6573644,27,,,,,,,,,,,,,,,sub_954,2024-06-09_13h06.06.439,Reversal,2023.1.3,60.02826130551234,2,
10,exp1.png,exp2.png,,2,0,2,0,0,10,10,10,,,,,,,,,,,,,,,,,,,,,,,,,False,49,50,True,exp2.png,exp1.png,trial_right_image,-1,exp1.png,2,exp1.png,exp2.png,1,1,non-reversed,correct,0.3296226991356521,1,valid_win,519.1724788000001,28,,,,,,,,,,,,,,,sub_954,2024-06-09_13h06.06.439,Reversal,2023.1.3,60.02826130551234,2,
11,exp3.png,exp4.png,,2,0,2,0,0,11,11,11,,,,,,,,,,,,,,,,,,,,,,,,,False,50,51,False,exp3.png,exp4.png,trial_left_image,1,exp3.png,2,exp3.png,exp4.png,1,3,reversed,correct,0.9459609047125589,1,valid_win,524.0210791999998,29,,,,,,,,,,,,,,,sub_954,2024-06-09_13h06.06.439,Reversal,2023.1.3,60.02826130551234,2,
12,exp1.png,exp2.png,,2,0,2,0,0,12,12,12,,,,,,,,,,,,,,,,,,,,,,,,,False,51,52,True,exp2.png,exp1.png,trial_right_image,-1,exp1.png,2,exp1.png,exp2.png,1,1,non-reversed,correct,0.7027899864194002,1,valid_win,528.6031644,30,,,,,,,,,,,,,,,sub_954,2024-06-09_13h06.06.439,Reversal,2023.1.3,60.02826130551234,2,
13,exp3.png,exp4.png,,2,0,2,0,0,13,13,13,,,,,,,,,,,,,,,,,,,,,,,,,False,52,53,True,exp4.png,exp3.png,trial_left_image,1,exp4.png,2,exp3.png,exp4.png,0,4,reversed,incorrect,0.1238912654103912,1,invalid_win,542.5147128999997,31,,,,,,,,,,,,,,,sub_954,2024-06-09_13h06.06.439,Reversal,2023.1.3,60.02826130551234,2,
14,exp1.png,exp2.png,,2,0,2,0,0,14,14,14,,,,,,,,,,,,,,,,,,,,,,,,,False,53,54,False,exp1.png,exp2.png,trial_left_image,1,exp1.png,2,exp1.png,exp2.png,1,1,non-reversed,correct,0.7785871117870206,1,valid_win,547.4629670999998,32,,,,,,,,,,,,,,,sub_954,2024-06-09_13h06.06.439,Reversal,2023.1.3,60.02826130551234,2,
15,exp3.png,exp4.png,,2,0,2,0,0,15,15,15,,,,,,,,,,,,,,,,,,,,,,,,,False,54,55,False,exp3.png,exp4.png,trial_left_image,1,exp3.png,2,exp3.png,exp4.png,1,3,reversed,correct,0.3946513096813917,1,valid_win,552.5779772000001,33,,,,,,,,,,,,,,,sub_954,2024-06-09_13h06.06.439,Reversal,2023.1.3,60.02826130551234,2,
16,exp1.png,exp2.png,,2,0,2,0,0,16,16,16,,,,,,,,,,,,,,,,,,,,,,,,,False,55,56,True,exp2.png,exp1.png,trial_right_image,-1,exp1.png,2,exp1.png,exp2.png,1,1,non-reversed,correct,0.30476981142309145,1,valid_win,557.1432185999997,34,,,,,,,,,,,,,,,sub_954,2024-06-09_13h06.06.439,Reversal,2023.1.3,60.02826130551234,2,
17,exp3.png,exp4.png,,2,0,2,0,0,17,17,17,,,,,,,,,,,,,,,,,,,,,,,,,False,56,57,False,exp3.png,exp4.png,trial_left_image,1,exp3.png,2,exp3.png,exp4.png,1,3,reversed,correct,0.7651037410909387,1,valid_win,564.4578143999997,35,,,,,,,,,,,,,,,sub_954,2024-06-09_13h06.06.439,Reversal,2023.1.3,60.02826130551234,2,
18,exp1.png,exp2.png,,2,0,2,0,0,18,18,18,,,,,,,,,,,,,,,,,,,,,,,,,False,57,58,False,exp1.png,exp2.png,trial_left_image,1,exp1.png,2,exp1.png,exp2.png,1,1,non-reversed,correct,0.4465933460780216,1,valid_win,571.3385552999998,36,,,,,,,,,,,,,,,sub_954,2024-06-09_13h06.06.439,Reversal,2023.1.3,60.02826130551234,2,
19,exp3.png,exp4.png,,2,0,2,0,0,19,19,19,,,,,,,,,,,,,,,,,,,,,,,,,False,58,59,True,exp4.png,exp3.png,trial_left_image,1,exp4.png,2,exp3.png,exp4.png,0,4,reversed,incorrect,0.5058109256647545,0,valid_lose,578.9025972,36,,,,,,,,,,,,,,,sub_954,2024-06-09_13h06.06.439,Reversal,2023.1.3,60.02826130551234,2,
20,exp1.png,exp2.png,,2,0,2,0,0,20,20,20,,,,,,,,,,,,,,,,,,,,,,,,,False,59,60,False,exp1.png,exp2.png,trial_left_image,1,exp1.png,2,exp1.png,exp2.png,1,1,non-reversed,correct,0.9875185318348543,1,valid_win,583.7843561999998,37,,,,,,,,,,,,,,,sub_954,2024-06-09_13h06.06.439,Reversal,2023.1.3,60.02826130551234,2,
,,,exp1.png,2,0,2,0,,,,,0,0,0,0,0,0,0,0,,,,,,,,,,,,,,,,,,,,,,,,,,,,,,,,,,,,,,664.7151961000004,100.0,100.0,6.139145000000099,"[(100.0, 6.139145000000099)]",,,,,,,,,,sub_954,2024-06-09_13h06.06.439,Reversal,2023.1.3,60.02826130551234,2,
,,,exp2.png,2,0,2,0,,,,,0,0,0,0,0,1,1,1,,,,,,,,,,,,,,,,,,,,,,,,,,,,,,,,,,,,,,672.0222719000003,,100.0,8.82625519999965,"[(100.0, 8.82625519999965)]",100.0,,,,,,,,,sub_954,2024-06-09_13h06.06.439,Reversal,2023.1.3,60.02826130551234,2,
,,,exp3.png,2,0,2,0,,,,,0,0,0,0,0,2,2,2,,,,,,,,,,,,,,,,,,,,,,,,,,,,,,,,,,,,,,681.9710378000004,,100.0,2.477626600000349,"[(100.0, 2.477626600000349)]",,100.0,,,,,,,,sub_954,2024-06-09_13h06.06.439,Reversal,2023.1.3,60.02826130551234,2,
,,,exp4.png,2,0,2,0,,,,,0,0,0,0,0,3,3,3,,,,,,,,,,,,,,,,,,,,,,,,,,,,,,,,,,,,,,685.5023012000001,,100.0,2.9927123999996184,"[(100.0, 2.9927123999996184)]",,,100.0,,,,,,,sub_954,2024-06-09_13h06.06.439,Reversal,2023.1.3,60.02826130551234,2,
0,exp1.png,exp2.png,,3,0,3,0,0,0,0,0,,,,,,,,,,,,,,,,,,,,,,,,,True,,,,,,,,,,,,,,,,,,,,,,,,,,,,,,,,,,,sub_954,2024-06-09_13h06.06.439,Reversal,2023.1.3,60.02826130551234,2,
1,exp3.png,exp4.png,,3,0,3,0,0,1,1,1,,,,,,,,,,,,,,,,,,,,,,,,,False,60,61,True,exp4.png,exp3.png,trial_left_image,1,exp4.png,2,exp3.png,exp4.png,0,4,reversed,incorrect,0.49051229352373005,0,valid_lose,613.6908088999999,37,,,,,,,,,,,,,,,sub_954,2024-06-09_13h06.06.439,Reversal,2023.1.3,60.02826130551234,2,
2,exp1.png,exp2.png,,3,0,3,0,0,2,2,2,,,,,,,,,,,,,,,,,,,,,,,,,False,61,62,False,exp1.png,exp2.png,trial_left_image,1,exp1.png,2,exp1.png,exp2.png,1,1,non-reversed,correct,0.7206951850770789,1,valid_win,618.8724514,38,,,,,,,,,,,,,,,sub_954,2024-06-09_13h06.06.439,Reversal,2023.1.3,60.02826130551234,2,
3,exp3.png,exp4.png,,3,0,3,0,0,3,3,3,,,,,,,,,,,,,,,,,,,,,,,,,False,62,63,False,exp3.png,exp4.png,trial_right_image,-1,exp4.png,2,exp3.png,exp4.png,0,4,reversed,incorrect,0.49885818337773025,0,valid_lose,624.8037045000001,38,,,,,,,,,,,,,,,sub_954,2024-06-09_13h06.06.439,Reversal,2023.1.3,60.02826130551234,2,
4,exp1.png,exp2.png,,3,0,3,0,0,4,4,4,,,,,,,,,,,,,,,,,,,,,,,,,False,63,64,False,exp1.png,exp2.png,trial_left_image,1,exp1.png,2,exp1.png,exp2.png,1,1,non-reversed,correct,0.22827855725480395,0,invalid_lose,629.1685030999997,38,,,,,,,,,,,,,,,sub_954,2024-06-09_13h06.06.439,Reversal,2023.1.3,60.02826130551234,2,
5,exp3.png,exp4.png,,3,0,3,0,0,5,5,5,,,,,,,,,,,,,,,,,,,,,,,,,False,64,65,False,exp3.png,exp4.png,trial_left_image,1,exp3.png,2,exp3.png,exp4.png,1,3,reversed,correct,0.25179115459683077,1,valid_win,634.0006628000001,39,,,,,,,,,,,,,,,sub_954,2024-06-09_13h06.06.439,Reversal,2023.1.3,60.02826130551234,2,
6,exp1.png,exp2.png,,3,0,3,0,0,6,6,6,,,,,,,,,,,,,,,,,,,,,,,,,False,65,66,False,exp1.png,exp2.png,trial_left_image,1,exp1.png,2,exp1.png,exp2.png,1,1,non-reversed,correct,0.5502446900336851,1,valid_win,639.9989476000001,40,,,,,,,,,,,,,,,sub_954,2024-06-09_13h06.06.439,Reversal,2023.1.3,60.02826130551234,2,
7,exp3.png,exp4.png,,3,0,3,0,0,7,7,7,,,,,,,,,,,,,,,,,,,,,,,,,False,66,67,False,exp3.png,exp4.png,trial_right_image,-1,exp4.png,2,exp3.png,exp4.png,0,4,reversed,incorrect,0.7574654180660033,0,valid_lose,647.3956481999999,40,,,,,,,,,,,,,,,sub_954,2024-06-09_13h06.06.439,Reversal,2023.1.3,60.02826130551234,2,
8,exp1.png,exp2.png,,3,0,3,0,0,8,8,8,,,,,,,,,,,,,,,,,,,,,,,,,False,67,68,True,exp2.png,exp1.png,trial_right_image,-1,exp1.png,2,exp1.png,exp2.png,1,1,non-reversed,correct,0.8636035083444892,1,valid_win,651.7944429999998,41,,,,,,,,,,,,,,,sub_954,2024-06-09_13h06.06.439,Reversal,2023.1.3,60.02826130551234,2,
9,exp3.png,exp4.png,,3,0,3,0,0,9,9,9,,,,,,,,,,,,,,,,,,,,,,,,,False,68,69,True,exp4.png,exp3.png,trial_right_image,-1,exp3.png,2,exp3.png,exp4.png,1,3,reversed,correct,0.801938457698224,1,valid_win,656.5760764000001,42,,,,,,,,,,,,,,,sub_954,2024-06-09_13h06.06.439,Reversal,2023.1.3,60.02826130551234,2,
10,exp1.png,exp2.png,,3,0,3,0,0,10,10,10,,,,,,,,,,,,,,,,,,,,,,,,,False,69,70,True,exp2.png,exp1.png,trial_left_image,1,exp2.png,2,exp1.png,exp2.png,0,2,non-reversed,incorrect,0.6970996084756684,0,valid_lose,662.1409665000001,42,,,,,,,,,,,,,,,sub_954,2024-06-09_13h06.06.439,Reversal,2023.1.3,60.02826130551234,2,
11,exp3.png,exp4.png,,3,0,3,0,0,11,11,11,,,,,,,,,,,,,,,,,,,,,,,,,False,70,71,True,exp4.png,exp3.png,trial_left_image,1,exp4.png,2,exp3.png,exp4.png,0,4,reversed,incorrect,0.43733566381105826,0,valid_lose,667.3893227999997,42,,,,,,,,,,,,,,,sub_954,2024-06-09_13h06.06.439,Reversal,2023.1.3,60.02826130551234,2,
12,exp1.png,exp2.png,,3,0,3,0,0,12,12,12,,,,,,,,,,,,,,,,,,,,,,,,,False,71,72,False,exp1.png,exp2.png,trial_left_image,1,exp1.png,2,exp1.png,exp2.png,1,1,non-reversed,correct,0.8663408353774185,1,valid_win,672.4040043,43,,,,,,,,,,,,,,,sub_954,2024-06-09_13h06.06.439,Reversal,2023.1.3,60.02826130551234,2,
13,exp3.png,exp4.png,,3,0,3,0,0,13,13,13,,,,,,,,,,,,,,,,,,,,,,,,,False,72,73,False,exp3.png,exp4.png,trial_left_image,1,exp3.png,2,exp3.png,exp4.png,1,3,reversed,correct,0.10697331230604878,0,invalid_lose,677.5857161999998,43,,,,,,,,,,,,,,,sub_954,2024-06-09_13h06.06.439,Reversal,2023.1.3,60.02826130551234,2,
14,exp1.png,exp2.png,,3,0,3,0,0,14,14,14,,,,,,,,,,,,,,,,,,,,,,,,,False,73,74,False,exp1.png,exp2.png,trial_left_image,1,exp1.png,2,exp1.png,exp2.png,1,1,non-reversed,correct,0.36710163832865383,1,valid_win,681.9343988999999,44,,,,,,,,,,,,,,,sub_954,2024-06-09_13h06.06.439,Reversal,2023.1.3,60.02826130551234,2,
15,exp3.png,exp4.png,,3,0,3,0,0,15,15,15,,,,,,,,,,,,,,,,,,,,,,,,,False,74,75,True,exp4.png,exp3.png,trial_right_image,-1,exp3.png,2,exp3.png,exp4.png,1,3,reversed,correct,0.6458762487300731,1,valid_win,686.9487697,45,,,,,,,,,,,,,,,sub_954,2024-06-09_13h06.06.439,Reversal,2023.1.3,60.02826130551234,2,
16,exp1.png,exp2.png,,3,0,3,0,0,16,16,16,,,,,,,,,,,,,,,,,,,,,,,,,False,75,76,True,exp2.png,exp1.png,trial_right_image,-1,exp1.png,2,exp1.png,exp2.png,1,1,non-reversed,correct,0.5761665694157331,1,valid_win,691.2140785000001,46,,,,,,,,,,,,,,,sub_954,2024-06-09_13h06.06.439,Reversal,2023.1.3,60.02826130551234,2,
17,exp3.png,exp4.png,,3,0,3,0,0,17,17,17,,,,,,,,,,,,,,,,,,,,,,,,,False,76,77,True,exp4.png,exp3.png,trial_right_image,-1,exp3.png,2,exp3.png,exp4.png,1,3,reversed,correct,0.6897579510054033,1,valid_win,695.4128783000001,47,,,,,,,,,,,,,,,sub_954,2024-06-09_13h06.06.439,Reversal,2023.1.3,60.02826130551234,2,
18,exp1.png,exp2.png,,3,0,3,0,0,18,18,18,,,,,,,,,,,,,,,,,,,,,,,,,False,77,78,True,exp2.png,exp1.png,trial_right_image,-1,exp1.png,2,exp1.png,exp2.png,1,1,non-reversed,correct,0.8734845277925019,1,valid_win,699.5116760999999,48,,,,,,,,,,,,,,,sub_954,2024-06-09_13h06.06.439,Reversal,2023.1.3,60.02826130551234,2,
19,exp3.png,exp4.png,,3,0,3,0,0,19,19,19,,,,,,,,,,,,,,,,,,,,,,,,,False,78,79,False,exp3.png,exp4.png,trial_left_image,1,exp3.png,2,exp3.png,exp4.png,1,3,reversed,correct,0.0195153138127363,0,invalid_lose,703.6433742999998,48,,,,,,,,,,,,,,,sub_954,2024-06-09_13h06.06.439,Reversal,2023.1.3,60.02826130551234,2,
20,exp1.png,exp2.png,,3,0,3,0,0,20,20,20,,,,,,,,,,,,,,,,,,,,,,,,,False,79,80,True,exp2.png,exp1.png,trial_right_image,-1,exp1.png,2,exp1.png,exp2.png,1,1,non-reversed,correct,0.9154104018496148,1,valid_win,707.7256278999998,49,,,,,,,,,,,,,,,sub_954,2024-06-09_13h06.06.439,Reversal,2023.1.3,60.02826130551234,2,
,,,exp1.png,3,0,3,0,,,,,0,0,0,0,0,0,0,0,,,,,,,,,,,,,,,,,,,,,,,,,,,,,,,,,,,,,,788.6658085000004,51.0,51.0,5.113255300000219,"[(51.0, 5.113255300000219)]",,,,,,,,,,sub_954,2024-06-09_13h06.06.439,Reversal,2023.1.3,60.02826130551234,2,
,,,exp2.png,3,0,3,0,,,,,0,0,0,0,0,1,1,1,,,,,,,,,,,,,,,,,,,,,,,,,,,,,,,,,,,,,,794.7238520000001,,None,None,[],,,,,,,,,,sub_954,2024-06-09_13h06.06.439,Reversal,2023.1.3,60.02826130551234,2,
,,,exp3.png,3,0,3,0,,,,,0,0,0,0,0,2,2,2,,,,,,,,,,,,,,,,,,,,,,,,,,,,,,,,,,,,,,796.7314726000004,,None,None,[],,,,,,,,,,sub_954,2024-06-09_13h06.06.439,Reversal,2023.1.3,60.02826130551234,2,
,,,exp4.png,3,0,3,0,,,,,0,0,0,0,0,3,3,3,,,,,,,,,,,,,,,,,,,,,,,,,,,,,,,,,,,,,,798.2965716000003,,None,None,[],,,,,,,,,,sub_954,2024-06-09_13h06.06.439,Reversal,2023.1.3,60.02826130551234,2,
0,exp1.png,exp2.png,,,,,,,,,,,,,,,,,,0,0,0,0,0,0,0,0,,,,,,,,,True,,,,,,,,,,,,,,,,,,,,,,,,,,,,,,,,,,,sub_954,2024-06-09_13h06.06.439,Reversal,2023.1.3,60.02826130551234,2,
1,exp3.png,exp4.png,,,,,,,,,,,,,,,,,,0,0,0,0,0,1,1,1,,,,,,,,,False,0,81,False,exp3.png,exp4.png,trial_left_image,1,exp3.png,2,exp4.png,exp3.png,1,3,reversed,incorrect,0.45826043120866855,0,valid_lose,723.4202104999999,49,,,,,,,,,721.1489143999997,,,,,,sub_954,2024-06-09_13h06.06.439,Reversal,2023.1.3,60.02826130551234,2,
2,exp1.png,exp2.png,,,,,,,,,,,,,,,,,,0,0,0,0,0,2,2,2,,,,,,,,,False,1,82,False,exp1.png,exp2.png,trial_left_image,1,exp1.png,2,exp1.png,exp2.png,1,1,non-reversed,correct,0.2713209852514801,1,valid_win,727.5343647,50,,,,,,,,,,,,,,,sub_954,2024-06-09_13h06.06.439,Reversal,2023.1.3,60.02826130551234,2,
3,exp3.png,exp4.png,,,,,,,,,,,,,,,,,,0,0,0,0,0,3,3,3,,,,,,,,,False,2,83,True,exp4.png,exp3.png,trial_left_image,1,exp4.png,2,exp4.png,exp3.png,0,4,reversed,correct,0.34758909648693415,1,valid_win,736.0329296,51,,,,,,,,,,,,,,,sub_954,2024-06-09_13h06.06.439,Reversal,2023.1.3,60.02826130551234,2,
4,exp1.png,exp2.png,,,,,,,,,,,,,,,,,,0,0,0,0,0,4,4,4,,,,,,,,,False,3,84,True,exp2.png,exp1.png,trial_right_image,-1,exp1.png,2,exp1.png,exp2.png,1,1,non-reversed,correct,0.6532776289129995,1,valid_win,740.4146474999998,52,,,,,,,,,,,,,,,sub_954,2024-06-09_13h06.06.439,Reversal,2023.1.3,60.02826130551234,2,
5,exp3.png,exp4.png,,,,,,,,,,,,,,,,,,0,0,0,0,0,5,5,5,,,,,,,,,False,4,85,False,exp3.png,exp4.png,trial_right_image,-1,exp4.png,2,exp4.png,exp3.png,0,4,reversed,correct,0.9322959641922546,1,valid_win,745.1625519999998,53,,,,,,,,,,,,,,,sub_954,2024-06-09_13h06.06.439,Reversal,2023.1.3,60.02826130551234,2,
6,exp1.png,exp2.png,,,,,,,,,,,,,,,,,,0,0,0,0,0,6,6,6,,,,,,,,,False,5,86,True,exp2.png,exp1.png,trial_right_image,-1,exp1.png,2,exp1.png,exp2.png,1,1,non-reversed,correct,0.9835082444996575,1,valid_win,749.8944965000001,54,,,,,,,,,,,,,,,sub_954,2024-06-09_13h06.06.439,Reversal,2023.1.3,60.02826130551234,2,
7,exp3.png,exp4.png,,,,,,,,,,,,,,,,,,0,0,0,0,0,7,7,7,,,,,,,,,False,6,87,True,exp4.png,exp3.png,trial_left_image,1,exp4.png,2,exp4.png,exp3.png,0,4,reversed,correct,0.04799415210842384,0,invalid_lose,754.3431187000001,54,,,,,,,,,,,,,,,sub_954,2024-06-09_13h06.06.439,Reversal,2023.1.3,60.02826130551234,2,
8,exp1.png,exp2.png,,,,,,,,,,,,,,,,,,0,0,0,0,0,8,8,8,,,,,,,,,False,7,88,False,exp1.png,exp2.png,trial_left_image,1,exp1.png,2,exp1.png,exp2.png,1,1,non-reversed,correct,0.8243806261011046,1,valid_win,758.4418805999999,55,,,,,,,,,,,,,,,sub_954,2024-06-09_13h06.06.439,Reversal,2023.1.3,60.02826130551234,2,
9,exp3.png,exp4.png,,,,,,,,,,,,,,,,,,0,0,0,0,0,9,9,9,,,,,,,,,False,8,89,False,exp3.png,exp4.png,trial_left_image,1,exp3.png,2,exp4.png,exp3.png,1,3,reversed,incorrect,0.34642299857394765,0,valid_lose,762.7075264999999,55,,,,,,,,,,,,,,,sub_954,2024-06-09_13h06.06.439,Reversal,2023.1.3,60.02826130551234,2,
10,exp1.png,exp2.png,,,,,,,,,,,,,,,,,,0,0,0,0,0,10,10,10,,,,,,,,,False,9,90,False,exp1.png,exp2.png,trial_left_image,1,exp1.png,2,exp1.png,exp2.png,1,1,non-reversed,correct,0.791794201811243,1,valid_win,766.8551598999998,56,,,,,,,,,,,,,,,sub_954,2024-06-09_13h06.06.439,Reversal,2023.1.3,60.02826130551234,2,
11,exp3.png,exp4.png,,,,,,,,,,,,,,,,,,0,0,0,0,0,11,11,11,,,,,,,,,False,10,91,False,exp3.png,exp4.png,trial_right_image,-1,exp4.png,2,exp4.png,exp3.png,0,4,reversed,correct,0.3696448162440156,1,valid_win,771.1872524999999,57,,,,,,,,,,,,,,,sub_954,2024-06-09_13h06.06.439,Reversal,2023.1.3,60.02826130551234,2,
12,exp1.png,exp2.png,,,,,,,,,,,,,,,,,,0,0,0,0,0,12,12,12,,,,,,,,,False,11,92,True,exp2.png,exp1.png,trial_right_image,-1,exp1.png,2,exp1.png,exp2.png,1,1,non-reversed,correct,0.6386971892083626,1,valid_win,775.4021558,58,,,,,,,,,,,,,,,sub_954,2024-06-09_13h06.06.439,Reversal,2023.1.3,60.02826130551234,2,
13,exp3.png,exp4.png,,,,,,,,,,,,,,,,,,0,0,0,0,0,13,13,13,,,,,,,,,False,12,93,True,exp4.png,exp3.png,trial_left_image,1,exp4.png,2,exp4.png,exp3.png,0,4,reversed,correct,0.5693152492902045,1,valid_win,779.8010988000001,59,,,,,,,,,,,,,,,sub_954,2024-06-09_13h06.06.439,Reversal,2023.1.3,60.02826130551234,2,
14,exp1.png,exp2.png,,,,,,,,,,,,,,,,,,0,0,0,0,0,14,14,14,,,,,,,,,False,13,94,False,exp1.png,exp2.png,trial_left_image,1,exp1.png,2,exp1.png,exp2.png,1,1,non-reversed,correct,0.39800213044935295,1,valid_win,784.9492721000001,60,,,,,,,,,,,,,,,sub_954,2024-06-09_13h06.06.439,Reversal,2023.1.3,60.02826130551234,2,
15,exp3.png,exp4.png,,,,,,,,,,,,,,,,,,0,0,0,0,0,15,15,15,,,,,,,,,False,14,95,False,exp3.png,exp4.png,trial_right_image,-1,exp4.png,2,exp4.png,exp3.png,0,4,reversed,correct,0.2867056292567306,1,valid_win,789.8642129999998,61,,,,,,,,,,,,,,,sub_954,2024-06-09_13h06.06.439,Reversal,2023.1.3,60.02826130551234,2,
16,exp1.png,exp2.png,,,,,,,,,,,,,,,,,,0,0,0,0,0,16,16,16,,,,,,,,,False,15,96,True,exp2.png,exp1.png,trial_right_image,-1,exp1.png,2,exp1.png,exp2.png,1,1,non-reversed,correct,0.7645434526922871,1,valid_win,794.879254,62,,,,,,,,,,,,,,,sub_954,2024-06-09_13h06.06.439,Reversal,2023.1.3,60.02826130551234,2,
17,exp3.png,exp4.png,,,,,,,,,,,,,,,,,,0,0,0,0,0,17,17,17,,,,,,,,,False,16,97,True,exp4.png,exp3.png,trial_left_image,1,exp4.png,2,exp4.png,exp3.png,0,4,reversed,correct,0.4123737811468653,1,valid_win,799.4442186000001,63,,,,,,,,,,,,,,,sub_954,2024-06-09_13h06.06.439,Reversal,2023.1.3,60.02826130551234,2,
18,exp1.png,exp2.png,,,,,,,,,,,,,,,,,,0,0,0,0,0,18,18,18,,,,,,,,,False,17,98,True,exp2.png,exp1.png,trial_right_image,-1,exp1.png,2,exp1.png,exp2.png,1,1,non-reversed,correct,0.6393330587097567,1,valid_win,803.8924624000001,64,,,,,,,,,,,,,,,sub_954,2024-06-09_13h06.06.439,Reversal,2023.1.3,60.02826130551234,2,
19,exp3.png,exp4.png,,,,,,,,,,,,,,,,,,0,0,0,0,0,19,19,19,,,,,,,,,False,18,99,True,exp4.png,exp3.png,trial_left_image,1,exp4.png,2,exp4.png,exp3.png,0,4,reversed,correct,0.05487661447304204,0,invalid_lose,808.7243333000001,64,,,,,,,,,,,,,,,sub_954,2024-06-09_13h06.06.439,Reversal,2023.1.3,60.02826130551234,2,
20,exp1.png,exp2.png,,,,,,,,,,,,,,,,,,0,0,0,0,0,20,20,20,,,,,,,,,False,19,100,False,exp1.png,exp2.png,trial_left_image,1,exp1.png,2,exp1.png,exp2.png,1,1,non-reversed,correct,0.5806679945512957,1,valid_win,813.3233982000002,65,,,,,,,,,,,,,,,sub_954,2024-06-09_13h06.06.439,Reversal,2023.1.3,60.02826130551234,2,
,,,exp1.png,,,,,,,,,,,,,,,,,0,0,0,0,,,,,0,0,0,0,0,0,0,0,,,,,,,,,,,,,,,,,,,,,,894.2565462000002,,None,None,[],,,,,,,,,,sub_954,2024-06-09_13h06.06.439,Reversal,2023.1.3,60.02826130551234,2,
,,,exp2.png,,,,,,,,,,,,,,,,,0,0,0,0,,,,,0,0,0,0,0,1,1,1,,,,,,,,,,,,,,,,,,,,,,916.1822231000001,,None,None,[],,,,,,,,,,sub_954,2024-06-09_13h06.06.439,Reversal,2023.1.3,60.02826130551234,2,
,,,exp3.png,,,,,,,,,,,,,,,,,0,0,0,0,,,,,0,0,0,0,0,2,2,2,,,,,,,,,,,,,,,,,,,,,,918.9788922000002,,29.0,0.6931765999997879,"[(29.0, 0.6931765999997879)]",,29.0,,,,,,,,sub_954,2024-06-09_13h06.06.439,Reversal,2023.1.3,60.02826130551234,2,
,,,exp4.png,,,,,,,,,,,,,,,,,0,0,0,0,,,,,0,0,0,0,0,3,3,3,,,,,,,,,,,,,,,,,,,,,,920.8884674000001,,30.0,1.6273955999999998,"[(30.0, 1.6273955999999998)]",,,30.0,,,,,,,sub_954,2024-06-09_13h06.06.439,Reversal,2023.1.3,60.02826130551234,2,
0,exp1.png,exp2.png,,,,,,,,,,,,,,,,,,1,0,1,0,0,0,0,0,,,,,,,,,True,,,,,,,,,,,,,,,,,,,,,,,,,,,,,,,,,,,sub_954,2024-06-09_13h06.06.439,Reversal,2023.1.3,60.02826130551234,2,
1,exp3.png,exp4.png,,,,,,,,,,,,,,,,,,1,0,1,0,0,1,1,1,,,,,,,,,False,20,101,False,exp3.png,exp4.png,trial_right_image,-1,exp4.png,2,exp4.png,exp3.png,0,4,reversed,correct,0.27808080028676396,1,valid_win,847.9448084,66,,,,,,,,,,,,,,,sub_954,2024-06-09_13h06.06.439,Reversal,2023.1.3,60.02826130551234,2,
2,exp1.png,exp2.png,,,,,,,,,,,,,,,,,,1,0,1,0,0,2,2,2,,,,,,,,,False,21,102,False,exp1.png,exp2.png,trial_left_image,1,exp1.png,2,exp1.png,exp2.png,1,1,non-reversed,correct,0.7311559988746282,1,valid_win,852.3930406999998,67,,,,,,,,,,,,,,,sub_954,2024-06-09_13h06.06.439,Reversal,2023.1.3,60.02826130551234,2,
3,exp3.png,exp4.png,,,,,,,,,,,,,,,,,,1,0,1,0,0,3,3,3,,,,,,,,,False,22,103,True,exp4.png,exp3.png,trial_left_image,1,exp4.png,2,exp4.png,exp3.png,0,4,reversed,correct,0.3643012091180272,1,valid_win,858.0075784,68,,,,,,,,,,,,,,,sub_954,2024-06-09_13h06.06.439,Reversal,2023.1.3,60.02826130551234,2,
4,exp1.png,exp2.png,,,,,,,,,,,,,,,,,,1,0,1,0,0,4,4,4,,,,,,,,,False,23,104,False,exp1.png,exp2.png,trial_left_image,1,exp1.png,2,exp1.png,exp2.png,1,1,non-reversed,correct,0.6490891035774506,1,valid_win,862.3727438999999,69,,,,,,,,,,,,,,,sub_954,2024-06-09_13h06.06.439,Reversal,2023.1.3,60.02826130551234,2,
5,exp3.png,exp4.png,,,,,,,,,,,,,,,,,,1,0,1,0,0,5,5,5,,,,,,,,,False,24,105,True,exp4.png,exp3.png,trial_left_image,1,exp4.png,2,exp4.png,exp3.png,0,4,reversed,correct,0.9741786602326589,1,valid_win,867.1048796999999,70,,,,,,,,,,,,,,,sub_954,2024-06-09_13h06.06.439,Reversal,2023.1.3,60.02826130551234,2,
6,exp1.png,exp2.png,,,,,,,,,,,,,,,,,,1,0,1,0,0,6,6,6,,,,,,,,,False,25,106,True,exp2.png,exp1.png,trial_right_image,-1,exp1.png,2,exp1.png,exp2.png,1,1,non-reversed,correct,0.44925565633641795,1,valid_win,871.5880542,71,,,,,,,,,,,,,,,sub_954,2024-06-09_13h06.06.439,Reversal,2023.1.3,60.02826130551234,2,
7,exp3.png,exp4.png,,,,,,,,,,,,,,,,,,1,0,1,0,0,7,7,7,,,,,,,,,False,26,107,True,exp4.png,exp3.png,trial_left_image,1,exp4.png,2,exp4.png,exp3.png,0,4,reversed,correct,0.3034208274309539,1,valid_win,876.5848449999999,72,,,,,,,,,,,,,,,sub_954,2024-06-09_13h06.06.439,Reversal,2023.1.3,60.02826130551234,2,
8,exp1.png,exp2.png,,,,,,,,,,,,,,,,,,1,0,1,0,0,8,8,8,,,,,,,,,False,27,108,True,exp2.png,exp1.png,trial_right_image,-1,exp1.png,2,exp1.png,exp2.png,1,1,non-reversed,correct,0.6590319194731845,1,valid_win,881.0499107999999,73,,,,,,,,,,,,,,,sub_954,2024-06-09_13h06.06.439,Reversal,2023.1.3,60.02826130551234,2,
9,exp3.png,exp4.png,,,,,,,,,,,,,,,,,,1,0,1,0,0,9,9,9,,,,,,,,,False,28,109,False,exp3.png,exp4.png,trial_right_image,-1,exp4.png,2,exp4.png,exp3.png,0,4,reversed,correct,0.18708944260278582,0,invalid_lose,885.7646667999998,73,,,,,,,,,,,,,,,sub_954,2024-06-09_13h06.06.439,Reversal,2023.1.3,60.02826130551234,2,
10,exp1.png,exp2.png,,,,,,,,,,,,,,,,,,1,0,1,0,0,10,10,10,,,,,,,,,False,29,110,True,exp2.png,exp1.png,trial_right_image,-1,exp1.png,2,exp1.png,exp2.png,1,1,non-reversed,correct,0.6043665538319671,1,valid_win,890.0469216000001,74,,,,,,,,,,,,,,,sub_954,2024-06-09_13h06.06.439,Reversal,2023.1.3,60.02826130551234,2,
11,exp3.png,exp4.png,,,,,,,,,,,,,,,,,,1,0,1,0,0,11,11,11,,,,,,,,,False,30,111,True,exp4.png,exp3.png,trial_left_image,1,exp4.png,2,exp4.png,exp3.png,0,4,reversed,correct,0.6487646074291988,1,valid_win,895.2448899999999,75,,,,,,,,,,,,,,,sub_954,2024-06-09_13h06.06.439,Reversal,2023.1.3,60.02826130551234,2,
12,exp1.png,exp2.png,,,,,,,,,,,,,,,,,,1,0,1,0,0,12,12,12,,,,,,,,,False,31,112,False,exp1.png,exp2.png,trial_left_image,1,exp1.png,2,exp1.png,exp2.png,1,1,non-reversed,correct,0.7421460328746714,1,valid_win,899.9102789999997,76,,,,,,,,,,,,,,,sub_954,2024-06-09_13h06.06.439,Reversal,2023.1.3,60.02826130551234,2,
13,exp3.png,exp4.png,,,,,,,,,,,,,,,,,,1,0,1,0,0,13,13,13,,,,,,,,,False,32,113,False,exp3.png,exp4.png,trial_right_image,-1,exp4.png,2,exp4.png,exp3.png,0,4,reversed,correct,0.14148530441724905,0,invalid_lose,904.7583129999998,76,,,,,,,,,,,,,,,sub_954,2024-06-09_13h06.06.439,Reversal,2023.1.3,60.02826130551234,2,
14,exp1.png,exp2.png,,,,,,,,,,,,,,,,,,1,0,1,0,0,14,14,14,,,,,,,,,False,33,114,False,exp1.png,exp2.png,trial_left_image,1,exp1.png,2,exp1.png,exp2.png,1,1,non-reversed,correct,0.27856217734732536,1,valid_win,909.0740553,77,,,,,,,,,,,,,,,sub_954,2024-06-09_13h06.06.439,Reversal,2023.1.3,60.02826130551234,2,
15,exp3.png,exp4.png,,,,,,,,,,,,,,,,,,1,0,1,0,0,15,15,15,,,,,,,,,False,34,115,False,exp3.png,exp4.png,trial_left_image,1,exp3.png,2,exp4.png,exp3.png,1,3,reversed,incorrect,0.8515415964109859,0,valid_lose,913.3722339999999,77,,,,,,,,,,,,,,,sub_954,2024-06-09_13h06.06.439,Reversal,2023.1.3,60.02826130551234,2,
16,exp1.png,exp2.png,,,,,,,,,,,,,,,,,,1,0,1,0,0,16,16,16,,,,,,,,,False,35,116,True,exp2.png,exp1.png,trial_right_image,-1,exp1.png,2,exp1.png,exp2.png,1,1,non-reversed,correct,0.8999919033489705,1,valid_win,917.9380316000002,78,,,,,,,,,,,,,,,sub_954,2024-06-09_13h06.06.439,Reversal,2023.1.3,60.02826130551234,2,
17,exp3.png,exp4.png,,,,,,,,,,,,,,,,,,1,0,1,0,0,17,17,17,,,,,,,,,False,36,117,False,exp3.png,exp4.png,trial_left_image,1,exp3.png,2,exp4.png,exp3.png,1,3,reversed,incorrect,0.4874076222277438,0,valid_lose,923.0196477,78,,,,,,,,,,,,,,,sub_954,2024-06-09_13h06.06.439,Reversal,2023.1.3,60.02826130551234,2,
18,exp1.png,exp2.png,,,,,,,,,,,,,,,,,,1,0,1,0,0,18,18,18,,,,,,,,,False,37,118,False,exp1.png,exp2.png,trial_right_image,-1,exp2.png,2,exp1.png,exp2.png,0,2,non-reversed,incorrect,0.31087332158974756,0,valid_lose,927.4007723,78,,,,,,,,,,,,,,,sub_954,2024-06-09_13h06.06.439,Reversal,2023.1.3,60.02826130551234,2,
19,exp3.png,exp4.png,,,,,,,,,,,,,,,,,,1,0,1,0,0,19,19,19,,,,,,,,,False,38,119,True,exp4.png,exp3.png,trial_right_image,-1,exp3.png,2,exp4.png,exp3.png,1,3,reversed,incorrect,0.1994073535487212,1,invalid_win,933.8487709999999,79,,,,,,,,,,,,,,,sub_954,2024-06-09_13h06.06.439,Reversal,2023.1.3,60.02826130551234,2,
20,exp1.png,exp2.png,,,,,,,,,,,,,,,,,,1,0,1,0,0,20,20,20,,,,,,,,,False,39,120,True,exp2.png,exp1.png,trial_right_image,-1,exp1.png,2,exp1.png,exp2.png,1,1,non-reversed,correct,0.3184647724252927,1,valid_win,938.3142711999999,80,,,,,,,,,,,,,,,sub_954,2024-06-09_13h06.06.439,Reversal,2023.1.3,60.02826130551234,2,
,,,exp1.png,,,,,,,,,,,,,,,,,1,0,1,0,,,,,0,0,0,0,0,0,0,0,,,,,,,,,,,,,,,,,,,,,,1019.2532804000002,76.0,76.0,9.063434500000312,"[(76.0, 9.063434500000312)]",,,,,,,,,,sub_954,2024-06-09_13h06.06.439,Reversal,2023.1.3,60.02826130551234,2,
,,,exp2.png,,,,,,,,,,,,,,,,,1,0,1,0,,,,,0,0,0,0,0,1,1,1,,,,,,,,,,,,,,,,,,,,,,1030.6360901000003,,50.0,6.208516600000166,"[(50.0, 6.208516600000166)]",50.0,,,,,,,,,sub_954,2024-06-09_13h06.06.439,Reversal,2023.1.3,60.02826130551234,2,
,,,exp3.png,,,,,,,,,,,,,,,,,1,0,1,0,,,,,0,0,0,0,0,2,2,2,,,,,,,,,,,,,,,,,,,,,,1038.1171237000003,,19.0,1.8453154999997423,"[(19.0, 1.8453154999997423)]",,19.0,,,,,,,,sub_954,2024-06-09_13h06.06.439,Reversal,2023.1.3,60.02826130551234,2,
,,,exp4.png,,,,,,,,,,,,,,,,,1,0,1,0,,,,,0,0,0,0,0,3,3,3,,,,,,,,,,,,,,,,,,,,,,1041.0318314,,20.0,1.611152299999958,"[(20.0, 1.611152299999958)]",,,20.0,,,,,,,sub_954,2024-06-09_13h06.06.439,Reversal,2023.1.3,60.02826130551234,2,
0,exp1.png,exp2.png,,,,,,,,,,,,,,,,,,2,0,2,0,0,0,0,0,,,,,,,,,True,,,,,,,,,,,,,,,,,,,,,,,,,,,,,,,,,,,sub_954,2024-06-09_13h06.06.439,Reversal,2023.1.3,60.02826130551234,2,
1,exp3.png,exp4.png,,,,,,,,,,,,,,,,,,2,0,2,0,0,1,1,1,,,,,,,,,False,40,121,False,exp3.png,exp4.png,trial_left_image,1,exp3.png,2,exp4.png,exp3.png,1,3,reversed,incorrect,0.3472938257337316,0,valid_lose,976.0012849999998,80,,,,,,,,,,,,,,,sub_954,2024-06-09_13h06.06.439,Reversal,2023.1.3,60.02826130551234,2,
2,exp1.png,exp2.png,,,,,,,,,,,,,,,,,,2,0,2,0,0,2,2,2,,,,,,,,,False,41,122,True,exp2.png,exp1.png,trial_right_image,-1,exp1.png,2,exp1.png,exp2.png,1,1,non-reversed,correct,0.3239605289544668,1,valid_win,981.1158581999998,81,,,,,,,,,,,,,,,sub_954,2024-06-09_13h06.06.439,Reversal,2023.1.3,60.02826130551234,2,
3,exp3.png,exp4.png,,,,,,,,,,,,,,,,,,2,0,2,0,0,3,3,3,,,,,,,,,False,42,123,False,exp3.png,exp4.png,trial_right_image,-1,exp4.png,2,exp4.png,exp3.png,0,4,reversed,correct,0.06698704390184484,0,invalid_lose,986.1643951000001,81,,,,,,,,,,,,,,,sub_954,2024-06-09_13h06.06.439,Reversal,2023.1.3,60.02826130551234,2,
4,exp1.png,exp2.png,,,,,,,,,,,,,,,,,,2,0,2,0,0,4,4,4,,,,,,,,,False,43,124,True,exp2.png,exp1.png,trial_right_image,-1,exp1.png,2,exp1.png,exp2.png,1,1,non-reversed,correct,0.24423306033888526,0,invalid_lose,990.7290635999998,81,,,,,,,,,,,,,,,sub_954,2024-06-09_13h06.06.439,Reversal,2023.1.3,60.02826130551234,2,
5,exp3.png,exp4.png,,,,,,,,,,,,,,,,,,2,0,2,0,0,5,5,5,,,,,,,,,False,44,125,True,exp4.png,exp3.png,trial_right_image,-1,exp3.png,2,exp4.png,exp3.png,1,3,reversed,incorrect,0.5906188669299737,0,valid_lose,995.8943718999999,81,,,,,,,,,,,,,,,sub_954,2024-06-09_13h06.06.439,Reversal,2023.1.3,60.02826130551234,2,
6,exp1.png,exp2.png,,,,,,,,,,,,,,,,,,2,0,2,0,0,6,6,6,,,,,,,,,False,45,126,True,exp2.png,exp1.png,trial_right_image,-1,exp1.png,2,exp1.png,exp2.png,1,1,non-reversed,correct,0.17078304266402466,0,invalid_lose,1001.5755353,81,,,,,,,,,,,,,,,sub_954,2024-06-09_13h06.06.439,Reversal,2023.1.3,60.02826130551234,2,
7,exp3.png,exp4.png,,,,,,,,,,,,,,,,,,2,0,2,0,0,7,7,7,,,,,,,,,False,46,127,False,exp3.png,exp4.png,trial_left_image,1,exp3.png,2,exp4.png,exp3.png,1,3,reversed,incorrect,0.5709690780007992,0,valid_lose,1005.8907451,81,,,,,,,,,,,,,,,sub_954,2024-06-09_13h06.06.439,Reversal,2023.1.3,60.02826130551234,2,
8,exp1.png,exp2.png,,,,,,,,,,,,,,,,,,2,0,2,0,0,8,8,8,,,,,,,,,False,47,128,False,exp1.png,exp2.png,trial_right_image,-1,exp2.png,2,exp1.png,exp2.png,0,2,non-reversed,incorrect,0.31554203285536,0,valid_lose,1010.1225543,81,,,,,,,,,,,,,,,sub_954,2024-06-09_13h06.06.439,Reversal,2023.1.3,60.02826130551234,2,
9,exp3.png,exp4.png,,,,,,,,,,,,,,,,,,2,0,2,0,0,9,9,9,,,,,,,,,False,48,129,False,exp3.png,exp4.png,trial_left_image,1,exp3.png,2,exp4.png,exp3.png,1,3,reversed,incorrect,0.6570422203853173,0,valid_lose,1013.9214729999999,81,,,,,,,,,,,,,,,sub_954,2024-06-09_13h06.06.439,Reversal,2023.1.3,60.02826130551234,2,
10,exp1.png,exp2.png,,,,,,,,,,,,,,,,,,2,0,2,0,0,10,10,10,,,,,,,,,False,49,130,True,exp2.png,exp1.png,trial_left_image,1,exp2.png,2,exp1.png,exp2.png,0,2,non-reversed,incorrect,0.6091495913497866,0,valid_lose,1019.4860961999998,81,,,,,,,,,,,,,,,sub_954,2024-06-09_13h06.06.439,Reversal,2023.1.3,60.02826130551234,2,
11,exp3.png,exp4.png,,,,,,,,,,,,,,,,,,2,0,2,0,0,11,11,11,,,,,,,,,False,50,131,True,exp4.png,exp3.png,trial_right_image,-1,exp3.png,2,exp4.png,exp3.png,1,3,reversed,incorrect,0.507030215321045,0,valid_lose,1023.5514257999998,81,,,,,,,,,,,,,,,sub_954,2024-06-09_13h06.06.439,Reversal,2023.1.3,60.02826130551234,2,
12,exp1.png,exp2.png,,,,,,,,,,,,,,,,,,2,0,2,0,0,12,12,12,,,,,,,,,False,51,132,True,exp2.png,exp1.png,trial_right_image,-1,exp1.png,2,exp1.png,exp2.png,1,1,non-reversed,correct,0.7985579931860012,1,valid_win,1027.8836864,82,,,,,,,,,,,,,,,sub_954,2024-06-09_13h06.06.439,Reversal,2023.1.3,60.02826130551234,2,
13,exp3.png,exp4.png,,,,,,,,,,,,,,,,,,2,0,2,0,0,13,13,13,,,,,,,,,False,52,133,True,exp4.png,exp3.png,trial_right_image,-1,exp3.png,2,exp4.png,exp3.png,1,3,reversed,incorrect,0.8957630281166566,0,valid_lose,1032.3483846999998,82,,,,,,,,,,,,,,,sub_954,2024-06-09_13h06.06.439,Reversal,2023.1.3,60.02826130551234,2,
14,exp1.png,exp2.png,,,,,,,,,,,,,,,,,,2,0,2,0,0,14,14,14,,,,,,,,,False,53,134,True,exp2.png,exp1.png,trial_right_image,-1,exp1.png,2,exp1.png,exp2.png,1,1,non-reversed,correct,0.061669069654285646,0,invalid_lose,1036.4812791999998,82,,,,,,,,,,,,,,,sub_954,2024-06-09_13h06.06.439,Reversal,2023.1.3,60.02826130551234,2,
15,exp3.png,exp4.png,,,,,,,,,,,,,,,,,,2,0,2,0,0,15,15,15,,,,,,,,,False,54,135,False,exp3.png,exp4.png,trial_left_image,1,exp3.png,2,exp4.png,exp3.png,1,3,reversed,incorrect,0.0757802747982812,1,invalid_win,1040.6127333999998,83,,,,,,,,,,,,,,,sub_954,2024-06-09_13h06.06.439,Reversal,2023.1.3,60.02826130551234,2,
16,exp1.png,exp2.png,,,,,,,,,,,,,,,,,,2,0,2,0,0,16,16,16,,,,,,,,,False,55,136,False,exp1.png,exp2.png,trial_left_image,1,exp1.png,2,exp1.png,exp2.png,1,1,non-reversed,correct,0.13684214685770002,0,invalid_lose,1044.4782323,83,,,,,,,,,,,,,,,sub_954,2024-06-09_13h06.06.439,Reversal,2023.1.3,60.02826130551234,2,
17,exp3.png,exp4.png,,,,,,,,,,,,,,,,,,2,0,2,0,0,17,17,17,,,,,,,,,False,56,137,True,exp4.png,exp3.png,trial_left_image,1,exp4.png,2,exp4.png,exp3.png,0,4,reversed,correct,0.707116660024136,1,valid_win,1048.3263106,84,,,,,,,,,,,,,,,sub_954,2024-06-09_13h06.06.439,Reversal,2023.1.3,60.02826130551234,2,
18,exp1.png,exp2.png,,,,,,,,,,,,,,,,,,2,0,2,0,0,18,18,18,,,,,,,,,False,57,138,False,exp1.png,exp2.png,trial_left_image,1,exp1.png,2,exp1.png,exp2.png,1,1,non-reversed,correct,0.357916637495148,1,valid_win,1052.2255366,85,,,,,,,,,,,,,,,sub_954,2024-06-09_13h06.06.439,Reversal,2023.1.3,60.02826130551234,2,
19,exp3.png,exp4.png,,,,,,,,,,,,,,,,,,2,0,2,0,0,19,19,19,,,,,,,,,False,58,139,False,exp3.png,exp4.png,trial_left_image,1,exp3.png,2,exp4.png,exp3.png,1,3,reversed,incorrect,0.34791300113006485,0,valid_lose,1056.1072668000002,85,,,,,,,,,,,,,,,sub_954,2024-06-09_13h06.06.439,Reversal,2023.1.3,60.02826130551234,2,
20,exp1.png,exp2.png,,,,,,,,,,,,,,,,,,2,0,2,0,0,20,20,20,,,,,,,,,False,59,140,False,exp1.png,exp2.png,trial_left_image,1,exp1.png,2,exp1.png,exp2.png,1,1,non-reversed,correct,0.6550920966065675,1,valid_win,1060.0226333,86,,,,,,,,,,,,,,,sub_954,2024-06-09_13h06.06.439,Reversal,2023.1.3,60.02826130551234,2,
,,,exp1.png,,,,,,,,,,,,,,,,,2,0,2,0,,,,,0,0,0,0,0,0,0,0,,,,,,,,,,,,,,,,,,,,,,1140.9591648,51.0,51.0,7.133024000000205,"[(51.0, 7.133024000000205)]",,,,,,,,,,sub_954,2024-06-09_13h06.06.439,Reversal,2023.1.3,60.02826130551234,2,
,,,exp2.png,,,,,,,,,,,,,,,,,2,0,2,0,,,,,0,0,0,0,0,1,1,1,,,,,,,,,,,,,,,,,,,,,,1149.5948861000002,,37.0,2.6612146000002213,"[(37.0, 2.6612146000002213)]",37.0,,,,,,,,,sub_954,2024-06-09_13h06.06.439,Reversal,2023.1.3,60.02826130551234,2,
,,,exp3.png,,,,,,,,,,,,,,,,,2,0,2,0,,,,,0,0,0,0,0,2,2,2,,,,,,,,,,,,,,,,,,,,,,1153.2102639000004,,25.0,2.3450419999999212,"[(25.0, 2.3450419999999212)]",,25.0,,,,,,,,sub_954,2024-06-09_13h06.06.439,Reversal,2023.1.3,60.02826130551234,2,
,,,exp4.png,,,,,,,,,,,,,,,,,2,0,2,0,,,,,0,0,0,0,0,3,3,3,,,,,,,,,,,,,,,,,,,,,,1156.8423934000002,,8.0,2.0276466000000255,"[(8.0, 2.0276466000000255)]",,,8.0,,,,,,,sub_954,2024-06-09_13h06.06.439,Reversal,2023.1.3,60.02826130551234,2,
,,,,,,,,,,,,,,,,,,,,,,,,,,,,,,,,,,,,,,,,,,,,,,,,,,,,,,,,86,,,,,,,,,,97,53,44,360.3007153000003,1,,,,,,,
