trial_index,trial_image1_file,trial_image2_file,image_file,learning_outer_loop.thisRepN,learning_outer_loop.thisTrialN,learning_outer_loop.thisN,learning_outer_loop.thisIndex,learning_inner_loop.thisRepN,learning_inner_loop.thisTrialN,learning_inner_loop.thisN,learning_inner_loop.thisIndex,learning_estimation_outer_loop.thisRepN,learning_estimation_outer_loop.thisTrialN,learning_estimation_outer_loop.thisN,learning_estimation_outer_loop.thisIndex,learning_estimation_inner_loop.thisRepN,learning_estimation_inner_loop.thisTrialN,learning_estimation_inner_loop.thisN,learning_estimation_inner_loop.thisIndex,reversal_outer_loop.thisRepN,reversal_outer_loop.thisTrialN,reversal_outer_loop.thisN,reversal_outer_loop.thisIndex,reversal_inner_loop.thisRepN,reversal_inner_loop.thisTrialN,reversal_inner_loop.thisN,reversal_inner_loop.thisIndex,reversal_estimation_outer_loop.thisRepN,reversal_estimation_outer_loop.thisTrialN,reversal_estimation_outer_loop.thisN,reversal_estimation_outer_loop.thisIndex,reversal_estimation_inner_loop.thisRepN,reversal_estimation_inner_loop.thisTrialN,reversal_estimation_inner_loop.thisN,reversal_estimation_inner_loop.thisIndex,skipped,total_trial_counter,trial_num,left_right_flip,left_image_file,right_image_file,clicked_stimulus_side,side,clicked_stimulus,version,high_prob_image_file,low_prob_image_file,choice_a,choice_b,pair_type,correct,trial_feedback_random,reward,trial_type,overall_time_after_trial,score,estimation_exp1.png,estimation_rating.response,estimation_rating.rt,estimation_rating.history,estimation_rating.started,estimation_rating.stopped,estimation_exp2.png,estimation_exp3.png,estimation_exp4.png,total_learning_time,total_correct,learning_correct,reversal_correct,total_reversal_time,extra_block,end_experiment.keys,end_experiment.rt,participant,date,expName,psychopyVersion,frameRate,ver,
0,exp1.png,exp2.png,,0,0,0,0,0,0,0,0,,,,,,,,,,,,,,,,,,,,,,,,,True,,,,,,,,,,,,,,,,,,,,,,,,,,,,,,,,,,,,,,sub_128,2023-05-05_10h34.04.278,Reversal,2022.1.2,60.008953335681355,4,
1,exp3.png,exp4.png,,0,0,0,0,0,1,1,1,,,,,,,,,,,,,,,,,,,,,,,,,False,0,1,False,exp3.png,exp4.png,trial_right_image,-1,exp4.png,4,exp4.png,exp3.png,1,3,reversed,correct,0.05597586221080675,0,invalid_lose,13.650275699999838,0,,,,,,,,,,,,,,,,,,sub_128,2023-05-05_10h34.04.278,Reversal,2022.1.2,60.008953335681355,4,
2,exp1.png,exp2.png,,0,0,0,0,0,2,2,2,,,,,,,,,,,,,,,,,,,,,,,,,False,1,2,False,exp1.png,exp2.png,trial_left_image,1,exp1.png,4,exp2.png,exp1.png,0,2,non-reversed,incorrect,0.8970267907630778,0,valid_lose,18.866387100000793,0,,,,,,,,,,,,,,,,,,sub_128,2023-05-05_10h34.04.278,Reversal,2022.1.2,60.008953335681355,4,
3,exp3.png,exp4.png,,0,0,0,0,0,3,3,3,,,,,,,,,,,,,,,,,,,,,,,,,False,2,3,True,exp4.png,exp3.png,trial_right_image,-1,exp3.png,4,exp4.png,exp3.png,0,4,reversed,incorrect,0.4491244524579474,0,valid_lose,23.698498600000676,0,,,,,,,,,,,,,,,,,,sub_128,2023-05-05_10h34.04.278,Reversal,2022.1.2,60.008953335681355,4,
4,exp1.png,exp2.png,,0,0,0,0,0,4,4,4,,,,,,,,,,,,,,,,,,,,,,,,,False,3,4,False,exp1.png,exp2.png,trial_right_image,-1,exp2.png,4,exp2.png,exp1.png,1,1,non-reversed,correct,0.07757004717182359,0,invalid_lose,28.89954250000119,0,,,,,,,,,,,,,,,,,,sub_128,2023-05-05_10h34.04.278,Reversal,2022.1.2,60.008953335681355,4,
5,exp3.png,exp4.png,,0,0,0,0,0,5,5,5,,,,,,,,,,,,,,,,,,,,,,,,,False,4,5,False,exp3.png,exp4.png,trial_left_image,1,exp3.png,4,exp4.png,exp3.png,0,4,reversed,incorrect,0.9495011924532647,0,valid_lose,33.6494416000005,0,,,,,,,,,,,,,,,,,,sub_128,2023-05-05_10h34.04.278,Reversal,2022.1.2,60.008953335681355,4,
6,exp1.png,exp2.png,,0,0,0,0,0,6,6,6,,,,,,,,,,,,,,,,,,,,,,,,,False,5,6,True,exp2.png,exp1.png,trial_left_image,1,exp2.png,4,exp2.png,exp1.png,1,1,non-reversed,correct,0.07685725300809898,0,invalid_lose,40.516067600001406,0,,,,,,,,,,,,,,,,,,sub_128,2023-05-05_10h34.04.278,Reversal,2022.1.2,60.008953335681355,4,
7,exp3.png,exp4.png,,0,0,0,0,0,7,7,7,,,,,,,,,,,,,,,,,,,,,,,,,False,6,7,True,exp4.png,exp3.png,trial_right_image,-1,exp3.png,4,exp4.png,exp3.png,0,4,reversed,incorrect,0.062327783442084894,1,invalid_win,45.61597419999998,1,,,,,,,,,,,,,,,,,,sub_128,2023-05-05_10h34.04.278,Reversal,2022.1.2,60.008953335681355,4,
8,exp1.png,exp2.png,,0,0,0,0,0,8,8,8,,,,,,,,,,,,,,,,,,,,,,,,,False,7,8,True,exp2.png,exp1.png,trial_right_image,-1,exp1.png,4,exp2.png,exp1.png,0,2,non-reversed,incorrect,0.3978821429297036,0,valid_lose,52.932717600000615,1,,,,,,,,,,,,,,,,,,sub_128,2023-05-05_10h34.04.278,Reversal,2022.1.2,60.008953335681355,4,
9,exp3.png,exp4.png,,0,0,0,0,0,9,9,9,,,,,,,,,,,,,,,,,,,,,,,,,False,8,9,False,exp3.png,exp4.png,trial_left_image,1,exp3.png,4,exp4.png,exp3.png,0,4,reversed,incorrect,0.07687041588017718,1,invalid_win,75.11577360000047,2,,,,,,,,,,,,,,,,,,sub_128,2023-05-05_10h34.04.278,Reversal,2022.1.2,60.008953335681355,4,
10,exp1.png,exp2.png,,0,0,0,0,0,10,10,10,,,,,,,,,,,,,,,,,,,,,,,,,False,9,10,False,exp1.png,exp2.png,trial_right_image,-1,exp2.png,4,exp2.png,exp1.png,1,1,non-reversed,correct,0.3452318564750452,1,valid_win,81.16522680000162,3,,,,,,,,,,,,,,,,,,sub_128,2023-05-05_10h34.04.278,Reversal,2022.1.2,60.008953335681355,4,
11,exp3.png,exp4.png,,0,0,0,0,0,11,11,11,,,,,,,,,,,,,,,,,,,,,,,,,False,10,11,True,exp4.png,exp3.png,trial_right_image,-1,exp3.png,4,exp4.png,exp3.png,0,4,reversed,incorrect,0.7763286158224735,0,valid_lose,87.28246770000078,3,,,,,,,,,,,,,,,,,,sub_128,2023-05-05_10h34.04.278,Reversal,2022.1.2,60.008953335681355,4,
12,exp1.png,exp2.png,,0,0,0,0,0,12,12,12,,,,,,,,,,,,,,,,,,,,,,,,,False,11,12,False,exp1.png,exp2.png,trial_left_image,1,exp1.png,4,exp2.png,exp1.png,0,2,non-reversed,incorrect,0.19822725699280597,1,invalid_win,92.18242960000134,4,,,,,,,,,,,,,,,,,,sub_128,2023-05-05_10h34.04.278,Reversal,2022.1.2,60.008953335681355,4,
13,exp3.png,exp4.png,,0,0,0,0,0,13,13,13,,,,,,,,,,,,,,,,,,,,,,,,,False,12,13,True,exp4.png,exp3.png,trial_left_image,1,exp4.png,4,exp4.png,exp3.png,1,3,reversed,correct,0.023581004201478906,0,invalid_lose,99.38170320000063,4,,,,,,,,,,,,,,,,,,sub_128,2023-05-05_10h34.04.278,Reversal,2022.1.2,60.008953335681355,4,
14,exp1.png,exp2.png,,0,0,0,0,0,14,14,14,,,,,,,,,,,,,,,,,,,,,,,,,False,13,14,False,exp1.png,exp2.png,trial_right_image,-1,exp2.png,4,exp2.png,exp1.png,1,1,non-reversed,correct,0.6858092275229908,1,valid_win,103.9817589000013,5,,,,,,,,,,,,,,,,,,sub_128,2023-05-05_10h34.04.278,Reversal,2022.1.2,60.008953335681355,4,
15,exp3.png,exp4.png,,0,0,0,0,0,15,15,15,,,,,,,,,,,,,,,,,,,,,,,,,False,14,15,True,exp4.png,exp3.png,trial_right_image,-1,exp3.png,4,exp4.png,exp3.png,0,4,reversed,incorrect,0.5334544299506777,0,valid_lose,113.81495090000135,5,,,,,,,,,,,,,,,,,,sub_128,2023-05-05_10h34.04.278,Reversal,2022.1.2,60.008953335681355,4,
16,exp1.png,exp2.png,,0,0,0,0,0,16,16,16,,,,,,,,,,,,,,,,,,,,,,,,,False,15,16,True,exp2.png,exp1.png,trial_left_image,1,exp2.png,4,exp2.png,exp1.png,1,1,non-reversed,correct,0.5793624795642027,1,valid_win,118.39849649999996,6,,,,,,,,,,,,,,,,,,sub_128,2023-05-05_10h34.04.278,Reversal,2022.1.2,60.008953335681355,4,
17,exp3.png,exp4.png,,0,0,0,0,0,17,17,17,,,,,,,,,,,,,,,,,,,,,,,,,False,16,17,True,exp4.png,exp3.png,trial_left_image,1,exp4.png,4,exp4.png,exp3.png,1,3,reversed,correct,0.26312149166334353,1,valid_win,123.28174160000162,7,,,,,,,,,,,,,,,,,,sub_128,2023-05-05_10h34.04.278,Reversal,2022.1.2,60.008953335681355,4,
18,exp1.png,exp2.png,,0,0,0,0,0,18,18,18,,,,,,,,,,,,,,,,,,,,,,,,,False,17,18,False,exp1.png,exp2.png,trial_right_image,-1,exp2.png,4,exp2.png,exp1.png,1,1,non-reversed,correct,0.6291170390139696,1,valid_win,129.44730540000091,8,,,,,,,,,,,,,,,,,,sub_128,2023-05-05_10h34.04.278,Reversal,2022.1.2,60.008953335681355,4,
19,exp3.png,exp4.png,,0,0,0,0,0,19,19,19,,,,,,,,,,,,,,,,,,,,,,,,,False,18,19,False,exp3.png,exp4.png,trial_left_image,1,exp3.png,4,exp4.png,exp3.png,0,4,reversed,incorrect,0.3085333512448043,0,valid_lose,141.7478695000009,8,,,,,,,,,,,,,,,,,,sub_128,2023-05-05_10h34.04.278,Reversal,2022.1.2,60.008953335681355,4,
20,exp1.png,exp2.png,,0,0,0,0,0,20,20,20,,,,,,,,,,,,,,,,,,,,,,,,,False,19,20,True,exp2.png,exp1.png,trial_right_image,-1,exp1.png,4,exp2.png,exp1.png,0,2,non-reversed,incorrect,0.9753625825876621,0,valid_lose,146.26412950000122,8,,,,,,,,,,,,,,,,,,sub_128,2023-05-05_10h34.04.278,Reversal,2022.1.2,60.008953335681355,4,
,,,exp1.png,0,0,0,0,,,,,0,0,0,0,0,0,0,0,,,,,,,,,,,,,,,,,,,,,,,,,,,,,,,,,,,,,,69.0,69.0,11.650288699998782,"[(69.0, 11.650288699998782)]",229.19680660000085,None,,,,,,,,,,,,sub_128,2023-05-05_10h34.04.278,Reversal,2022.1.2,60.008953335681355,4,
,,,exp2.png,0,0,0,0,,,,,0,0,0,0,0,1,1,1,,,,,,,,,,,,,,,,,,,,,,,,,,,,,,,,,,,,,,,32.0,6.417578199998388,"[(32.0, 6.417578199998388)]",241.9616059,None,32.0,,,,,,,,,,,sub_128,2023-05-05_10h34.04.278,Reversal,2022.1.2,60.008953335681355,4,
,,,exp3.png,0,0,0,0,,,,,0,0,0,0,0,2,2,2,,,,,,,,,,,,,,,,,,,,,,,,,,,,,,,,,,,,,,,80.0,4.868708899999547,"[(70.0, 2.9182471000003716), (80.0, 4.868708899999547)]",249.64534920000006,None,,80.0,,,,,,,,,,sub_128,2023-05-05_10h34.04.278,Reversal,2022.1.2,60.008953335681355,4,
,,,exp4.png,0,0,0,0,,,,,0,0,0,0,0,3,3,3,,,,,,,,,,,,,,,,,,,,,,,,,,,,,,,,,,,,,,,31.0,2.2661282000008214,"[(31.0, 2.2661282000008214)]",255.89673760000005,None,,,31.0,,,,,,,,,sub_128,2023-05-05_10h34.04.278,Reversal,2022.1.2,60.008953335681355,4,
0,exp1.png,exp2.png,,1,0,1,0,0,0,0,0,,,,,,,,,,,,,,,,,,,,,,,,,True,,,,,,,,,,,,,,,,,,,,,,,,,,,,,,,,,,,,,,sub_128,2023-05-05_10h34.04.278,Reversal,2022.1.2,60.008953335681355,4,
1,exp3.png,exp4.png,,1,0,1,0,0,1,1,1,,,,,,,,,,,,,,,,,,,,,,,,,False,20,21,True,exp4.png,exp3.png,trial_left_image,1,exp4.png,4,exp4.png,exp3.png,1,3,reversed,correct,0.5002238144567734,1,valid_win,183.23044260000097,9,,,,,,,,,,,,,,,,,,sub_128,2023-05-05_10h34.04.278,Reversal,2022.1.2,60.008953335681355,4,
2,exp1.png,exp2.png,,1,0,1,0,0,2,2,2,,,,,,,,,,,,,,,,,,,,,,,,,False,21,22,True,exp2.png,exp1.png,trial_right_image,-1,exp1.png,4,exp2.png,exp1.png,0,2,non-reversed,incorrect,0.06495223514537962,1,invalid_win,188.1142705000002,10,,,,,,,,,,,,,,,,,,sub_128,2023-05-05_10h34.04.278,Reversal,2022.1.2,60.008953335681355,4,
3,exp3.png,exp4.png,,1,0,1,0,0,3,3,3,,,,,,,,,,,,,,,,,,,,,,,,,False,22,23,False,exp3.png,exp4.png,trial_left_image,1,exp3.png,4,exp4.png,exp3.png,0,4,reversed,incorrect,0.9081231432451715,0,valid_lose,192.83078950000163,10,,,,,,,,,,,,,,,,,,sub_128,2023-05-05_10h34.04.278,Reversal,2022.1.2,60.008953335681355,4,
4,exp1.png,exp2.png,,1,0,1,0,0,4,4,4,,,,,,,,,,,,,,,,,,,,,,,,,False,23,24,False,exp1.png,exp2.png,trial_right_image,-1,exp2.png,4,exp2.png,exp1.png,1,1,non-reversed,correct,0.3858132448961681,1,valid_win,198.04660220000005,11,,,,,,,,,,,,,,,,,,sub_128,2023-05-05_10h34.04.278,Reversal,2022.1.2,60.008953335681355,4,
5,exp3.png,exp4.png,,1,0,1,0,0,5,5,5,,,,,,,,,,,,,,,,,,,,,,,,,False,24,25,False,exp3.png,exp4.png,trial_right_image,-1,exp4.png,4,exp4.png,exp3.png,1,3,reversed,correct,0.9685577330975267,1,valid_win,203.41328330000033,12,,,,,,,,,,,,,,,,,,sub_128,2023-05-05_10h34.04.278,Reversal,2022.1.2,60.008953335681355,4,
6,exp1.png,exp2.png,,1,0,1,0,0,6,6,6,,,,,,,,,,,,,,,,,,,,,,,,,False,25,26,False,exp1.png,exp2.png,trial_left_image,1,exp1.png,4,exp2.png,exp1.png,0,2,non-reversed,incorrect,0.933541404359083,0,valid_lose,207.82946410000113,12,,,,,,,,,,,,,,,,,,sub_128,2023-05-05_10h34.04.278,Reversal,2022.1.2,60.008953335681355,4,
7,exp3.png,exp4.png,,1,0,1,0,0,7,7,7,,,,,,,,,,,,,,,,,,,,,,,,,False,26,27,False,exp3.png,exp4.png,trial_right_image,-1,exp4.png,4,exp4.png,exp3.png,1,3,reversed,correct,0.10984775454048146,0,invalid_lose,212.09658750000017,12,,,,,,,,,,,,,,,,,,sub_128,2023-05-05_10h34.04.278,Reversal,2022.1.2,60.008953335681355,4,
8,exp1.png,exp2.png,,1,0,1,0,0,8,8,8,,,,,,,,,,,,,,,,,,,,,,,,,False,27,28,True,exp2.png,exp1.png,trial_right_image,-1,exp1.png,4,exp2.png,exp1.png,0,2,non-reversed,incorrect,0.3033739187016634,0,valid_lose,217.66342030000123,12,,,,,,,,,,,,,,,,,,sub_128,2023-05-05_10h34.04.278,Reversal,2022.1.2,60.008953335681355,4,
9,exp3.png,exp4.png,,1,0,1,0,0,9,9,9,,,,,,,,,,,,,,,,,,,,,,,,,False,28,29,False,exp3.png,exp4.png,trial_left_image,1,exp3.png,4,exp4.png,exp3.png,0,4,reversed,incorrect,0.2869888543132689,0,valid_lose,222.04644090000147,12,,,,,,,,,,,,,,,,,,sub_128,2023-05-05_10h34.04.278,Reversal,2022.1.2,60.008953335681355,4,
10,exp1.png,exp2.png,,1,0,1,0,0,10,10,10,,,,,,,,,,,,,,,,,,,,,,,,,False,29,30,True,exp2.png,exp1.png,trial_right_image,-1,exp1.png,4,exp2.png,exp1.png,0,2,non-reversed,incorrect,0.9319837844119553,0,valid_lose,226.49659130000146,12,,,,,,,,,,,,,,,,,,sub_128,2023-05-05_10h34.04.278,Reversal,2022.1.2,60.008953335681355,4,
11,exp3.png,exp4.png,,1,0,1,0,0,11,11,11,,,,,,,,,,,,,,,,,,,,,,,,,False,30,31,False,exp3.png,exp4.png,trial_left_image,1,exp3.png,4,exp4.png,exp3.png,0,4,reversed,incorrect,0.7979467656669523,0,valid_lose,230.72998050000024,12,,,,,,,,,,,,,,,,,,sub_128,2023-05-05_10h34.04.278,Reversal,2022.1.2,60.008953335681355,4,
12,exp1.png,exp2.png,,1,0,1,0,0,12,12,12,,,,,,,,,,,,,,,,,,,,,,,,,False,31,32,True,exp2.png,exp1.png,trial_right_image,-1,exp1.png,4,exp2.png,exp1.png,0,2,non-reversed,incorrect,0.31754544281662433,0,valid_lose,237.06296120000115,12,,,,,,,,,,,,,,,,,,sub_128,2023-05-05_10h34.04.278,Reversal,2022.1.2,60.008953335681355,4,
13,exp3.png,exp4.png,,1,0,1,0,0,13,13,13,,,,,,,,,,,,,,,,,,,,,,,,,False,32,33,False,exp3.png,exp4.png,trial_right_image,-1,exp4.png,4,exp4.png,exp3.png,1,3,reversed,correct,0.8597954716033724,1,valid_win,242.41223739999987,13,,,,,,,,,,,,,,,,,,sub_128,2023-05-05_10h34.04.278,Reversal,2022.1.2,60.008953335681355,4,
14,exp1.png,exp2.png,,1,0,1,0,0,14,14,14,,,,,,,,,,,,,,,,,,,,,,,,,False,33,34,True,exp2.png,exp1.png,trial_right_image,-1,exp1.png,4,exp2.png,exp1.png,0,2,non-reversed,incorrect,0.014035947659492232,1,invalid_win,247.47977440000068,14,,,,,,,,,,,,,,,,,,sub_128,2023-05-05_10h34.04.278,Reversal,2022.1.2,60.008953335681355,4,
15,exp3.png,exp4.png,,1,0,1,0,0,15,15,15,,,,,,,,,,,,,,,,,,,,,,,,,False,34,35,True,exp4.png,exp3.png,trial_right_image,-1,exp3.png,4,exp4.png,exp3.png,0,4,reversed,incorrect,0.6285917135055509,0,valid_lose,252.22918240000035,14,,,,,,,,,,,,,,,,,,sub_128,2023-05-05_10h34.04.278,Reversal,2022.1.2,60.008953335681355,4,
16,exp1.png,exp2.png,,1,0,1,0,0,16,16,16,,,,,,,,,,,,,,,,,,,,,,,,,False,35,36,False,exp1.png,exp2.png,trial_left_image,1,exp1.png,4,exp2.png,exp1.png,0,2,non-reversed,incorrect,0.5864574833956294,0,valid_lose,258.0289455000002,14,,,,,,,,,,,,,,,,,,sub_128,2023-05-05_10h34.04.278,Reversal,2022.1.2,60.008953335681355,4,
17,exp3.png,exp4.png,,1,0,1,0,0,17,17,17,,,,,,,,,,,,,,,,,,,,,,,,,False,36,37,True,exp4.png,exp3.png,trial_right_image,-1,exp3.png,4,exp4.png,exp3.png,0,4,reversed,incorrect,0.42788228765079006,0,valid_lose,262.4460717000002,14,,,,,,,,,,,,,,,,,,sub_128,2023-05-05_10h34.04.278,Reversal,2022.1.2,60.008953335681355,4,
18,exp1.png,exp2.png,,1,0,1,0,0,18,18,18,,,,,,,,,,,,,,,,,,,,,,,,,False,37,38,False,exp1.png,exp2.png,trial_left_image,1,exp1.png,4,exp2.png,exp1.png,0,2,non-reversed,incorrect,0.8270057827355455,0,valid_lose,268.12912120000146,14,,,,,,,,,,,,,,,,,,sub_128,2023-05-05_10h34.04.278,Reversal,2022.1.2,60.008953335681355,4,
19,exp3.png,exp4.png,,1,0,1,0,0,19,19,19,,,,,,,,,,,,,,,,,,,,,,,,,False,38,39,True,exp4.png,exp3.png,trial_right_image,-1,exp3.png,4,exp4.png,exp3.png,0,4,reversed,incorrect,0.3533288385646225,0,valid_lose,272.66240930000095,14,,,,,,,,,,,,,,,,,,sub_128,2023-05-05_10h34.04.278,Reversal,2022.1.2,60.008953335681355,4,
20,exp1.png,exp2.png,,1,0,1,0,0,20,20,20,,,,,,,,,,,,,,,,,,,,,,,,,False,39,40,True,exp2.png,exp1.png,trial_left_image,1,exp2.png,4,exp2.png,exp1.png,1,1,non-reversed,correct,0.4919333901791132,1,valid_win,277.56268439999985,15,,,,,,,,,,,,,,,,,,sub_128,2023-05-05_10h34.04.278,Reversal,2022.1.2,60.008953335681355,4,
,,,exp1.png,1,0,1,0,,,,,0,0,0,0,0,0,0,0,,,,,,,,,,,,,,,,,,,,,,,,,,,,,,,,,,,,,,80.0,80.0,6.331490200000189,"[(80.0, 6.331490200000189)]",360.5096934000012,None,,,,,,,,,,,,sub_128,2023-05-05_10h34.04.278,Reversal,2022.1.2,60.008953335681355,4,
,,,exp2.png,1,0,1,0,,,,,0,0,0,0,0,1,1,1,,,,,,,,,,,,,,,,,,,,,,,,,,,,,,,,,,,,,,,25.0,1.5989366000012524,"[(25.0, 1.5989366000012524)]",368.4072242000002,None,25.0,,,,,,,,,,,sub_128,2023-05-05_10h34.04.278,Reversal,2022.1.2,60.008953335681355,4,
,,,exp3.png,1,0,1,0,,,,,0,0,0,0,0,2,2,2,,,,,,,,,,,,,,,,,,,,,,,,,,,,,,,,,,,,,,,25.0,3.31652270000086,"[(25.0, 3.31652270000086)]",371.13812099999996,None,,25.0,,,,,,,,,,sub_128,2023-05-05_10h34.04.278,Reversal,2022.1.2,60.008953335681355,4,
,,,exp4.png,1,0,1,0,,,,,0,0,0,0,0,3,3,3,,,,,,,,,,,,,,,,,,,,,,,,,,,,,,,,,,,,,,,78.0,2.016562500000873,"[(78.0, 2.016562500000873)]",375.50756309999997,None,,,78.0,,,,,,,,,sub_128,2023-05-05_10h34.04.278,Reversal,2022.1.2,60.008953335681355,4,
0,exp1.png,exp2.png,,2,0,2,0,0,0,0,0,,,,,,,,,,,,,,,,,,,,,,,,,True,,,,,,,,,,,,,,,,,,,,,,,,,,,,,,,,,,,,,,sub_128,2023-05-05_10h34.04.278,Reversal,2022.1.2,60.008953335681355,4,
1,exp3.png,exp4.png,,2,0,2,0,0,1,1,1,,,,,,,,,,,,,,,,,,,,,,,,,False,40,41,False,exp3.png,exp4.png,trial_right_image,-1,exp4.png,4,exp4.png,exp3.png,1,3,reversed,correct,0.9624074386882013,1,valid_win,302.66126350000013,16,,,,,,,,,,,,,,,,,,sub_128,2023-05-05_10h34.04.278,Reversal,2022.1.2,60.008953335681355,4,
2,exp1.png,exp2.png,,2,0,2,0,0,2,2,2,,,,,,,,,,,,,,,,,,,,,,,,,False,41,42,False,exp1.png,exp2.png,trial_right_image,-1,exp2.png,4,exp2.png,exp1.png,1,1,non-reversed,correct,0.16567832192601462,0,invalid_lose,307.1120026000008,16,,,,,,,,,,,,,,,,,,sub_128,2023-05-05_10h34.04.278,Reversal,2022.1.2,60.008953335681355,4,
3,exp3.png,exp4.png,,2,0,2,0,0,3,3,3,,,,,,,,,,,,,,,,,,,,,,,,,False,42,43,True,exp4.png,exp3.png,trial_left_image,1,exp4.png,4,exp4.png,exp3.png,1,3,reversed,correct,0.7700682181917787,1,valid_win,311.4956200000015,17,,,,,,,,,,,,,,,,,,sub_128,2023-05-05_10h34.04.278,Reversal,2022.1.2,60.008953335681355,4,
4,exp1.png,exp2.png,,2,0,2,0,0,4,4,4,,,,,,,,,,,,,,,,,,,,,,,,,False,43,44,True,exp2.png,exp1.png,trial_left_image,1,exp2.png,4,exp2.png,exp1.png,1,1,non-reversed,correct,0.06388114697405123,0,invalid_lose,316.57843720000164,17,,,,,,,,,,,,,,,,,,sub_128,2023-05-05_10h34.04.278,Reversal,2022.1.2,60.008953335681355,4,
5,exp3.png,exp4.png,,2,0,2,0,0,5,5,5,,,,,,,,,,,,,,,,,,,,,,,,,False,44,45,False,exp3.png,exp4.png,trial_right_image,-1,exp4.png,4,exp4.png,exp3.png,1,3,reversed,correct,0.2705354236621049,1,valid_win,321.1279127000016,18,,,,,,,,,,,,,,,,,,sub_128,2023-05-05_10h34.04.278,Reversal,2022.1.2,60.008953335681355,4,
6,exp1.png,exp2.png,,2,0,2,0,0,6,6,6,,,,,,,,,,,,,,,,,,,,,,,,,False,45,46,True,exp2.png,exp1.png,trial_right_image,-1,exp1.png,4,exp2.png,exp1.png,0,2,non-reversed,incorrect,0.26995451813017135,0,valid_lose,325.99516890000086,18,,,,,,,,,,,,,,,,,,sub_128,2023-05-05_10h34.04.278,Reversal,2022.1.2,60.008953335681355,4,
7,exp3.png,exp4.png,,2,0,2,0,0,7,7,7,,,,,,,,,,,,,,,,,,,,,,,,,False,46,47,True,exp4.png,exp3.png,trial_left_image,1,exp4.png,4,exp4.png,exp3.png,1,3,reversed,correct,0.9667158471491781,1,valid_win,330.87834830000065,19,,,,,,,,,,,,,,,,,,sub_128,2023-05-05_10h34.04.278,Reversal,2022.1.2,60.008953335681355,4,
8,exp1.png,exp2.png,,2,0,2,0,0,8,8,8,,,,,,,,,,,,,,,,,,,,,,,,,False,47,48,True,exp2.png,exp1.png,trial_left_image,1,exp2.png,4,exp2.png,exp1.png,1,1,non-reversed,correct,0.3689822350048244,1,valid_win,336.9269761000014,20,,,,,,,,,,,,,,,,,,sub_128,2023-05-05_10h34.04.278,Reversal,2022.1.2,60.008953335681355,4,
9,exp3.png,exp4.png,,2,0,2,0,0,9,9,9,,,,,,,,,,,,,,,,,,,,,,,,,False,48,49,False,exp3.png,exp4.png,trial_left_image,1,exp3.png,4,exp4.png,exp3.png,0,4,reversed,incorrect,0.39980963147244286,0,valid_lose,342.21191220000037,20,,,,,,,,,,,,,,,,,,sub_128,2023-05-05_10h34.04.278,Reversal,2022.1.2,60.008953335681355,4,
10,exp1.png,exp2.png,,2,0,2,0,0,10,10,10,,,,,,,,,,,,,,,,,,,,,,,,,False,49,50,True,exp2.png,exp1.png,trial_right_image,-1,exp1.png,4,exp2.png,exp1.png,0,2,non-reversed,incorrect,0.24080168462038298,1,invalid_win,348.0605443000004,21,,,,,,,,,,,,,,,,,,sub_128,2023-05-05_10h34.04.278,Reversal,2022.1.2,60.008953335681355,4,
11,exp3.png,exp4.png,,2,0,2,0,0,11,11,11,,,,,,,,,,,,,,,,,,,,,,,,,False,50,51,False,exp3.png,exp4.png,trial_left_image,1,exp3.png,4,exp4.png,exp3.png,0,4,reversed,incorrect,0.8524838293156469,0,valid_lose,353.3276958000006,21,,,,,,,,,,,,,,,,,,sub_128,2023-05-05_10h34.04.278,Reversal,2022.1.2,60.008953335681355,4,
12,exp1.png,exp2.png,,2,0,2,0,0,12,12,12,,,,,,,,,,,,,,,,,,,,,,,,,False,51,52,False,exp1.png,exp2.png,trial_right_image,-1,exp2.png,4,exp2.png,exp1.png,1,1,non-reversed,correct,0.5864594250905861,1,valid_win,357.92751260000114,22,,,,,,,,,,,,,,,,,,sub_128,2023-05-05_10h34.04.278,Reversal,2022.1.2,60.008953335681355,4,
13,exp3.png,exp4.png,,2,0,2,0,0,13,13,13,,,,,,,,,,,,,,,,,,,,,,,,,False,52,53,True,exp4.png,exp3.png,trial_right_image,-1,exp3.png,4,exp4.png,exp3.png,0,4,reversed,incorrect,0.3357179250195018,0,valid_lose,363.4601867000001,22,,,,,,,,,,,,,,,,,,sub_128,2023-05-05_10h34.04.278,Reversal,2022.1.2,60.008953335681355,4,
14,exp1.png,exp2.png,,2,0,2,0,0,14,14,14,,,,,,,,,,,,,,,,,,,,,,,,,False,53,54,False,exp1.png,exp2.png,trial_left_image,1,exp1.png,4,exp2.png,exp1.png,0,2,non-reversed,incorrect,0.046741399325133104,1,invalid_win,367.32714400000077,23,,,,,,,,,,,,,,,,,,sub_128,2023-05-05_10h34.04.278,Reversal,2022.1.2,60.008953335681355,4,
15,exp3.png,exp4.png,,2,0,2,0,0,15,15,15,,,,,,,,,,,,,,,,,,,,,,,,,False,54,55,False,exp3.png,exp4.png,trial_left_image,1,exp3.png,4,exp4.png,exp3.png,0,4,reversed,incorrect,0.012143143455171868,1,invalid_win,372.1768219000005,24,,,,,,,,,,,,,,,,,,sub_128,2023-05-05_10h34.04.278,Reversal,2022.1.2,60.008953335681355,4,
16,exp1.png,exp2.png,,2,0,2,0,0,16,16,16,,,,,,,,,,,,,,,,,,,,,,,,,False,55,56,True,exp2.png,exp1.png,trial_right_image,-1,exp1.png,4,exp2.png,exp1.png,0,2,non-reversed,incorrect,0.5776833672955202,0,valid_lose,377.1934334000016,24,,,,,,,,,,,,,,,,,,sub_128,2023-05-05_10h34.04.278,Reversal,2022.1.2,60.008953335681355,4,
17,exp3.png,exp4.png,,2,0,2,0,0,17,17,17,,,,,,,,,,,,,,,,,,,,,,,,,False,56,57,False,exp3.png,exp4.png,trial_left_image,1,exp3.png,4,exp4.png,exp3.png,0,4,reversed,incorrect,0.9978516550263951,0,valid_lose,381.71106950000103,24,,,,,,,,,,,,,,,,,,sub_128,2023-05-05_10h34.04.278,Reversal,2022.1.2,60.008953335681355,4,
18,exp1.png,exp2.png,,2,0,2,0,0,18,18,18,,,,,,,,,,,,,,,,,,,,,,,,,False,57,58,True,exp2.png,exp1.png,trial_right_image,-1,exp1.png,4,exp2.png,exp1.png,0,2,non-reversed,incorrect,0.4598100516791178,0,valid_lose,386.12727950000044,24,,,,,,,,,,,,,,,,,,sub_128,2023-05-05_10h34.04.278,Reversal,2022.1.2,60.008953335681355,4,
19,exp3.png,exp4.png,,2,0,2,0,0,19,19,19,,,,,,,,,,,,,,,,,,,,,,,,,False,58,59,False,exp3.png,exp4.png,trial_left_image,1,exp3.png,4,exp4.png,exp3.png,0,4,reversed,incorrect,0.5904237471141183,0,valid_lose,390.47702590000154,24,,,,,,,,,,,,,,,,,,sub_128,2023-05-05_10h34.04.278,Reversal,2022.1.2,60.008953335681355,4,
20,exp1.png,exp2.png,,2,0,2,0,0,20,20,20,,,,,,,,,,,,,,,,,,,,,,,,,False,59,60,True,exp2.png,exp1.png,trial_right_image,-1,exp1.png,4,exp2.png,exp1.png,0,2,non-reversed,incorrect,0.1757814771772982,1,invalid_win,394.7270623000004,25,,,,,,,,,,,,,,,,,,sub_128,2023-05-05_10h34.04.278,Reversal,2022.1.2,60.008953335681355,4,
,,,exp1.png,2,0,2,0,,,,,0,0,0,0,0,0,0,0,,,,,,,,,,,,,,,,,,,,,,,,,,,,,,,,,,,,,,87.0,87.0,2.931485999999495,"[(87.0, 2.931485999999495)]",477.67455860000155,None,,,,,,,,,,,,sub_128,2023-05-05_10h34.04.278,Reversal,2022.1.2,60.008953335681355,4,
,,,exp2.png,2,0,2,0,,,,,0,0,0,0,0,1,1,1,,,,,,,,,,,,,,,,,,,,,,,,,,,,,,,,,,,,,,,24.0,2.549093300000095,"[(24.0, 2.549093300000095)]",481.93787690000136,None,24.0,,,,,,,,,,,sub_128,2023-05-05_10h34.04.278,Reversal,2022.1.2,60.008953335681355,4,
,,,exp3.png,2,0,2,0,,,,,0,0,0,0,0,2,2,2,,,,,,,,,,,,,,,,,,,,,,,,,,,,,,,,,,,,,,,68.0,3.2676678000007087,"[(68.0, 3.2676678000007087)]",485.6191651000008,None,,68.0,,,,,,,,,,sub_128,2023-05-05_10h34.04.278,Reversal,2022.1.2,60.008953335681355,4,
,,,exp4.png,2,0,2,0,,,,,0,0,0,0,0,3,3,3,,,,,,,,,,,,,,,,,,,,,,,,,,,,,,,,,,,,,,,26.0,1.7139860999996017,"[(26.0, 1.7139860999996017)]",490.09178650000104,None,,,26.0,,,,,,,,,sub_128,2023-05-05_10h34.04.278,Reversal,2022.1.2,60.008953335681355,4,
0,exp1.png,exp2.png,,3,0,3,0,0,0,0,0,,,,,,,,,,,,,,,,,,,,,,,,,True,,,,,,,,,,,,,,,,,,,,,,,,,,,,,,,,,,,,,,sub_128,2023-05-05_10h34.04.278,Reversal,2022.1.2,60.008953335681355,4,
1,exp3.png,exp4.png,,3,0,3,0,0,1,1,1,,,,,,,,,,,,,,,,,,,,,,,,,False,60,61,True,exp4.png,exp3.png,trial_left_image,1,exp4.png,4,exp4.png,exp3.png,1,3,reversed,correct,0.7465249609654292,1,valid_win,419.56030120000105,26,,,,,,,,,,,,,,,,,,sub_128,2023-05-05_10h34.04.278,Reversal,2022.1.2,60.008953335681355,4,
2,exp1.png,exp2.png,,3,0,3,0,0,2,2,2,,,,,,,,,,,,,,,,,,,,,,,,,False,61,62,False,exp1.png,exp2.png,trial_right_image,-1,exp2.png,4,exp2.png,exp1.png,1,1,non-reversed,correct,0.0046886369365151115,0,invalid_lose,426.22653750000063,26,,,,,,,,,,,,,,,,,,sub_128,2023-05-05_10h34.04.278,Reversal,2022.1.2,60.008953335681355,4,
3,exp3.png,exp4.png,,3,0,3,0,0,3,3,3,,,,,,,,,,,,,,,,,,,,,,,,,False,62,63,False,exp3.png,exp4.png,trial_left_image,1,exp3.png,4,exp4.png,exp3.png,0,4,reversed,incorrect,0.3443235262108624,0,valid_lose,431.3600694000015,26,,,,,,,,,,,,,,,,,,sub_128,2023-05-05_10h34.04.278,Reversal,2022.1.2,60.008953335681355,4,
4,exp1.png,exp2.png,,3,0,3,0,0,4,4,4,,,,,,,,,,,,,,,,,,,,,,,,,False,63,64,False,exp1.png,exp2.png,trial_left_image,1,exp1.png,4,exp2.png,exp1.png,0,2,non-reversed,incorrect,0.11636681402470261,1,invalid_win,435.94306600000164,27,,,,,,,,,,,,,,,,,,sub_128,2023-05-05_10h34.04.278,Reversal,2022.1.2,60.008953335681355,4,
5,exp3.png,exp4.png,,3,0,3,0,0,5,5,5,,,,,,,,,,,,,,,,,,,,,,,,,False,64,65,False,exp3.png,exp4.png,trial_right_image,-1,exp4.png,4,exp4.png,exp3.png,1,3,reversed,correct,0.18382900112550415,0,invalid_lose,441.0268100000012,27,,,,,,,,,,,,,,,,,,sub_128,2023-05-05_10h34.04.278,Reversal,2022.1.2,60.008953335681355,4,
6,exp1.png,exp2.png,,3,0,3,0,0,6,6,6,,,,,,,,,,,,,,,,,,,,,,,,,False,65,66,True,exp2.png,exp1.png,trial_left_image,1,exp2.png,4,exp2.png,exp1.png,1,1,non-reversed,correct,0.36908777585354746,1,valid_win,445.70953330000157,28,,,,,,,,,,,,,,,,,,sub_128,2023-05-05_10h34.04.278,Reversal,2022.1.2,60.008953335681355,4,
7,exp3.png,exp4.png,,3,0,3,0,0,7,7,7,,,,,,,,,,,,,,,,,,,,,,,,,False,66,67,True,exp4.png,exp3.png,trial_right_image,-1,exp3.png,4,exp4.png,exp3.png,0,4,reversed,incorrect,0.657615566377698,0,valid_lose,450.94228810000095,28,,,,,,,,,,,,,,,,,,sub_128,2023-05-05_10h34.04.278,Reversal,2022.1.2,60.008953335681355,4,
8,exp1.png,exp2.png,,3,0,3,0,0,8,8,8,,,,,,,,,,,,,,,,,,,,,,,,,False,67,68,False,exp1.png,exp2.png,trial_left_image,1,exp1.png,4,exp2.png,exp1.png,0,2,non-reversed,incorrect,0.9308227141964902,0,valid_lose,455.4424635000014,28,,,,,,,,,,,,,,,,,,sub_128,2023-05-05_10h34.04.278,Reversal,2022.1.2,60.008953335681355,4,
9,exp3.png,exp4.png,,3,0,3,0,0,9,9,9,,,,,,,,,,,,,,,,,,,,,,,,,False,68,69,True,exp4.png,exp3.png,trial_right_image,-1,exp3.png,4,exp4.png,exp3.png,0,4,reversed,incorrect,0.3012339935762498,0,valid_lose,460.0259726000004,28,,,,,,,,,,,,,,,,,,sub_128,2023-05-05_10h34.04.278,Reversal,2022.1.2,60.008953335681355,4,
10,exp1.png,exp2.png,,3,0,3,0,0,10,10,10,,,,,,,,,,,,,,,,,,,,,,,,,False,69,70,True,exp2.png,exp1.png,trial_left_image,1,exp2.png,4,exp2.png,exp1.png,1,1,non-reversed,correct,0.7395902233595589,1,valid_win,464.5593652000007,29,,,,,,,,,,,,,,,,,,sub_128,2023-05-05_10h34.04.278,Reversal,2022.1.2,60.008953335681355,4,
11,exp3.png,exp4.png,,3,0,3,0,0,11,11,11,,,,,,,,,,,,,,,,,,,,,,,,,False,70,71,True,exp4.png,exp3.png,trial_left_image,1,exp4.png,4,exp4.png,exp3.png,1,3,reversed,correct,0.4836817886951338,1,valid_win,469.02600359999997,30,,,,,,,,,,,,,,,,,,sub_128,2023-05-05_10h34.04.278,Reversal,2022.1.2,60.008953335681355,4,
12,exp1.png,exp2.png,,3,0,3,0,0,12,12,12,,,,,,,,,,,,,,,,,,,,,,,,,False,71,72,False,exp1.png,exp2.png,trial_left_image,1,exp1.png,4,exp2.png,exp1.png,0,2,non-reversed,incorrect,0.041748795312690046,1,invalid_win,473.4586238000011,31,,,,,,,,,,,,,,,,,,sub_128,2023-05-05_10h34.04.278,Reversal,2022.1.2,60.008953335681355,4,
13,exp3.png,exp4.png,,3,0,3,0,0,13,13,13,,,,,,,,,,,,,,,,,,,,,,,,,False,72,73,True,exp4.png,exp3.png,trial_left_image,1,exp4.png,4,exp4.png,exp3.png,1,3,reversed,correct,0.833210281749663,1,valid_win,477.9086952000016,32,,,,,,,,,,,,,,,,,,sub_128,2023-05-05_10h34.04.278,Reversal,2022.1.2,60.008953335681355,4,
14,exp1.png,exp2.png,,3,0,3,0,0,14,14,14,,,,,,,,,,,,,,,,,,,,,,,,,False,73,74,True,exp2.png,exp1.png,trial_left_image,1,exp2.png,4,exp2.png,exp1.png,1,1,non-reversed,correct,0.6404700632257283,1,valid_win,482.30854570000156,33,,,,,,,,,,,,,,,,,,sub_128,2023-05-05_10h34.04.278,Reversal,2022.1.2,60.008953335681355,4,
15,exp3.png,exp4.png,,3,0,3,0,0,15,15,15,,,,,,,,,,,,,,,,,,,,,,,,,False,74,75,False,exp3.png,exp4.png,trial_left_image,1,exp3.png,4,exp4.png,exp3.png,0,4,reversed,incorrect,0.7255768117507587,0,valid_lose,486.5590777000016,33,,,,,,,,,,,,,,,,,,sub_128,2023-05-05_10h34.04.278,Reversal,2022.1.2,60.008953335681355,4,
16,exp1.png,exp2.png,,3,0,3,0,0,16,16,16,,,,,,,,,,,,,,,,,,,,,,,,,False,75,76,True,exp2.png,exp1.png,trial_right_image,-1,exp1.png,4,exp2.png,exp1.png,0,2,non-reversed,incorrect,0.49108760526987283,0,valid_lose,491.0753514000007,33,,,,,,,,,,,,,,,,,,sub_128,2023-05-05_10h34.04.278,Reversal,2022.1.2,60.008953335681355,4,
17,exp3.png,exp4.png,,3,0,3,0,0,17,17,17,,,,,,,,,,,,,,,,,,,,,,,,,False,76,77,False,exp3.png,exp4.png,trial_left_image,1,exp3.png,4,exp4.png,exp3.png,0,4,reversed,incorrect,0.07772883876892211,1,invalid_win,495.44206380000105,34,,,,,,,,,,,,,,,,,,sub_128,2023-05-05_10h34.04.278,Reversal,2022.1.2,60.008953335681355,4,
18,exp1.png,exp2.png,,3,0,3,0,0,18,18,18,,,,,,,,,,,,,,,,,,,,,,,,,False,77,78,False,exp1.png,exp2.png,trial_left_image,1,exp1.png,4,exp2.png,exp1.png,0,2,non-reversed,incorrect,0.4181728854131972,0,valid_lose,500.042013100001,34,,,,,,,,,,,,,,,,,,sub_128,2023-05-05_10h34.04.278,Reversal,2022.1.2,60.008953335681355,4,
19,exp3.png,exp4.png,,3,0,3,0,0,19,19,19,,,,,,,,,,,,,,,,,,,,,,,,,False,78,79,True,exp4.png,exp3.png,trial_right_image,-1,exp3.png,4,exp4.png,exp3.png,0,4,reversed,incorrect,0.37202461791668495,0,valid_lose,504.2416478000014,34,,,,,,,,,,,,,,,,,,sub_128,2023-05-05_10h34.04.278,Reversal,2022.1.2,60.008953335681355,4,
20,exp1.png,exp2.png,,3,0,3,0,0,20,20,20,,,,,,,,,,,,,,,,,,,,,,,,,False,79,80,False,exp1.png,exp2.png,trial_left_image,1,exp1.png,4,exp2.png,exp1.png,0,2,non-reversed,incorrect,0.16924795306640827,1,invalid_win,508.1250370000016,35,,,,,,,,,,,,,,,,,,sub_128,2023-05-05_10h34.04.278,Reversal,2022.1.2,60.008953335681355,4,
,,,exp1.png,3,0,3,0,,,,,0,0,0,0,0,0,0,0,,,,,,,,,,,,,,,,,,,,,,,,,,,,,,,,,,,,,,23.0,23.0,4.161884799999825,"[(23.0, 4.161884799999825)]",591.0751489000013,None,,,,,,,,,,,,sub_128,2023-05-05_10h34.04.278,Reversal,2022.1.2,60.008953335681355,4,
,,,exp2.png,3,0,3,0,,,,,0,0,0,0,0,1,1,1,,,,,,,,,,,,,,,,,,,,,,,,,,,,,,,,,,,,,,,76.0,3.117500199999995,"[(76.0, 3.117500199999995)]",596.3675307000012,None,76.0,,,,,,,,,,,sub_128,2023-05-05_10h34.04.278,Reversal,2022.1.2,60.008953335681355,4,
,,,exp3.png,3,0,3,0,,,,,0,0,0,0,0,2,2,2,,,,,,,,,,,,,,,,,,,,,,,,,,,,,,,,,,,,,,,89.0,3.46551780000118,"[(89.0, 3.46551780000118)]",600.6034305000012,None,,89.0,,,,,,,,,,sub_128,2023-05-05_10h34.04.278,Reversal,2022.1.2,60.008953335681355,4,
,,,exp4.png,3,0,3,0,,,,,0,0,0,0,0,3,3,3,,,,,,,,,,,,,,,,,,,,,,,,,,,,,,,,,,,,,,,29.0,3.1338382000012643,"[(29.0, 3.1338382000012643)]",605.3706835000012,None,,,29.0,,,,,,,,,sub_128,2023-05-05_10h34.04.278,Reversal,2022.1.2,60.008953335681355,4,
0,exp1.png,exp2.png,,,,,,,,,,,,,,,,,,0,0,0,0,0,0,0,0,,,,,,,,,True,,,,,,,,,,,,,,,,,,,,,,,,,,,,,,,,,,,,,,sub_128,2023-05-05_10h34.04.278,Reversal,2022.1.2,60.008953335681355,4,
1,exp3.png,exp4.png,,,,,,,,,,,,,,,,,,0,0,0,0,0,1,1,1,,,,,,,,,False,0,81,False,exp3.png,exp4.png,trial_right_image,-1,exp4.png,4,exp3.png,exp4.png,1,3,reversed,incorrect,0.33153490845476163,0,valid_lose,532.5409960000015,35,,,,,,,,,,529.2175786000007,,,,,,,,sub_128,2023-05-05_10h34.04.278,Reversal,2022.1.2,60.008953335681355,4,
2,exp1.png,exp2.png,,,,,,,,,,,,,,,,,,0,0,0,0,0,2,2,2,,,,,,,,,False,1,82,True,exp2.png,exp1.png,trial_left_image,1,exp2.png,4,exp2.png,exp1.png,1,1,non-reversed,correct,0.6632038181963559,1,valid_win,537.274555,36,,,,,,,,,,,,,,,,,,sub_128,2023-05-05_10h34.04.278,Reversal,2022.1.2,60.008953335681355,4,
3,exp3.png,exp4.png,,,,,,,,,,,,,,,,,,0,0,0,0,0,3,3,3,,,,,,,,,False,2,83,False,exp3.png,exp4.png,trial_left_image,1,exp3.png,4,exp3.png,exp4.png,0,4,reversed,correct,0.9281117963058524,1,valid_win,541.9077106000004,37,,,,,,,,,,,,,,,,,,sub_128,2023-05-05_10h34.04.278,Reversal,2022.1.2,60.008953335681355,4,
4,exp1.png,exp2.png,,,,,,,,,,,,,,,,,,0,0,0,0,0,4,4,4,,,,,,,,,False,3,84,True,exp2.png,exp1.png,trial_right_image,-1,exp1.png,4,exp2.png,exp1.png,0,2,non-reversed,incorrect,0.7035454299957427,0,valid_lose,546.4410132000012,37,,,,,,,,,,,,,,,,,,sub_128,2023-05-05_10h34.04.278,Reversal,2022.1.2,60.008953335681355,4,
5,exp3.png,exp4.png,,,,,,,,,,,,,,,,,,0,0,0,0,0,5,5,5,,,,,,,,,False,4,85,False,exp3.png,exp4.png,trial_left_image,1,exp3.png,4,exp3.png,exp4.png,0,4,reversed,correct,0.34221829718418917,1,valid_win,550.8081554,38,,,,,,,,,,,,,,,,,,sub_128,2023-05-05_10h34.04.278,Reversal,2022.1.2,60.008953335681355,4,
6,exp1.png,exp2.png,,,,,,,,,,,,,,,,,,0,0,0,0,0,6,6,6,,,,,,,,,False,5,86,True,exp2.png,exp1.png,trial_left_image,1,exp2.png,4,exp2.png,exp1.png,1,1,non-reversed,correct,0.7808102732121468,1,valid_win,555.0410747000005,39,,,,,,,,,,,,,,,,,,sub_128,2023-05-05_10h34.04.278,Reversal,2022.1.2,60.008953335681355,4,
7,exp3.png,exp4.png,,,,,,,,,,,,,,,,,,0,0,0,0,0,7,7,7,,,,,,,,,False,6,87,False,exp3.png,exp4.png,trial_left_image,1,exp3.png,4,exp3.png,exp4.png,0,4,reversed,correct,0.09869434309928005,0,invalid_lose,559.2405812000015,39,,,,,,,,,,,,,,,,,,sub_128,2023-05-05_10h34.04.278,Reversal,2022.1.2,60.008953335681355,4,
8,exp1.png,exp2.png,,,,,,,,,,,,,,,,,,0,0,0,0,0,8,8,8,,,,,,,,,False,7,88,True,exp2.png,exp1.png,trial_right_image,-1,exp1.png,4,exp2.png,exp1.png,0,2,non-reversed,incorrect,0.31478104548667973,0,valid_lose,563.7070120000008,39,,,,,,,,,,,,,,,,,,sub_128,2023-05-05_10h34.04.278,Reversal,2022.1.2,60.008953335681355,4,
9,exp3.png,exp4.png,,,,,,,,,,,,,,,,,,0,0,0,0,0,9,9,9,,,,,,,,,False,8,89,True,exp4.png,exp3.png,trial_left_image,1,exp4.png,4,exp3.png,exp4.png,1,3,reversed,incorrect,0.1957347439200937,1,invalid_win,568.7404175000011,40,,,,,,,,,,,,,,,,,,sub_128,2023-05-05_10h34.04.278,Reversal,2022.1.2,60.008953335681355,4,
10,exp1.png,exp2.png,,,,,,,,,,,,,,,,,,0,0,0,0,0,10,10,10,,,,,,,,,False,9,90,True,exp2.png,exp1.png,trial_left_image,1,exp2.png,4,exp2.png,exp1.png,1,1,non-reversed,correct,0.07896556272535238,0,invalid_lose,573.3904065000006,40,,,,,,,,,,,,,,,,,,sub_128,2023-05-05_10h34.04.278,Reversal,2022.1.2,60.008953335681355,4,
11,exp3.png,exp4.png,,,,,,,,,,,,,,,,,,0,0,0,0,0,11,11,11,,,,,,,,,False,10,91,True,exp4.png,exp3.png,trial_right_image,-1,exp3.png,4,exp3.png,exp4.png,0,4,reversed,correct,0.4258468587838887,1,valid_win,577.8404189000012,41,,,,,,,,,,,,,,,,,,sub_128,2023-05-05_10h34.04.278,Reversal,2022.1.2,60.008953335681355,4,
12,exp1.png,exp2.png,,,,,,,,,,,,,,,,,,0,0,0,0,0,12,12,12,,,,,,,,,False,11,92,False,exp1.png,exp2.png,trial_right_image,-1,exp2.png,4,exp2.png,exp1.png,1,1,non-reversed,correct,0.8575959273180458,1,valid_win,585.2067133,42,,,,,,,,,,,,,,,,,,sub_128,2023-05-05_10h34.04.278,Reversal,2022.1.2,60.008953335681355,4,
13,exp3.png,exp4.png,,,,,,,,,,,,,,,,,,0,0,0,0,0,13,13,13,,,,,,,,,False,12,93,True,exp4.png,exp3.png,trial_left_image,1,exp4.png,4,exp3.png,exp4.png,1,3,reversed,incorrect,0.600393791961717,0,valid_lose,590.7904223000005,42,,,,,,,,,,,,,,,,,,sub_128,2023-05-05_10h34.04.278,Reversal,2022.1.2,60.008953335681355,4,
14,exp1.png,exp2.png,,,,,,,,,,,,,,,,,,0,0,0,0,0,14,14,14,,,,,,,,,False,13,94,True,exp2.png,exp1.png,trial_right_image,-1,exp1.png,4,exp2.png,exp1.png,0,2,non-reversed,incorrect,0.12417169224992386,1,invalid_win,595.3073248000001,43,,,,,,,,,,,,,,,,,,sub_128,2023-05-05_10h34.04.278,Reversal,2022.1.2,60.008953335681355,4,
15,exp3.png,exp4.png,,,,,,,,,,,,,,,,,,0,0,0,0,0,15,15,15,,,,,,,,,False,14,95,False,exp3.png,exp4.png,trial_right_image,-1,exp4.png,4,exp3.png,exp4.png,1,3,reversed,incorrect,0.9734585081828118,0,valid_lose,600.1568719000006,43,,,,,,,,,,,,,,,,,,sub_128,2023-05-05_10h34.04.278,Reversal,2022.1.2,60.008953335681355,4,
16,exp1.png,exp2.png,,,,,,,,,,,,,,,,,,0,0,0,0,0,16,16,16,,,,,,,,,False,15,96,False,exp1.png,exp2.png,trial_left_image,1,exp1.png,4,exp2.png,exp1.png,0,2,non-reversed,incorrect,0.5647850740580651,0,valid_lose,604.706438700001,43,,,,,,,,,,,,,,,,,,sub_128,2023-05-05_10h34.04.278,Reversal,2022.1.2,60.008953335681355,4,
17,exp3.png,exp4.png,,,,,,,,,,,,,,,,,,0,0,0,0,0,17,17,17,,,,,,,,,False,16,97,True,exp4.png,exp3.png,trial_right_image,-1,exp3.png,4,exp3.png,exp4.png,0,4,reversed,correct,0.1725505199334677,0,invalid_lose,609.2573513000007,43,,,,,,,,,,,,,,,,,,sub_128,2023-05-05_10h34.04.278,Reversal,2022.1.2,60.008953335681355,4,
18,exp1.png,exp2.png,,,,,,,,,,,,,,,,,,0,0,0,0,0,18,18,18,,,,,,,,,False,17,98,False,exp1.png,exp2.png,trial_left_image,1,exp1.png,4,exp2.png,exp1.png,0,2,non-reversed,incorrect,0.32273091590625824,0,valid_lose,613.6560823,43,,,,,,,,,,,,,,,,,,sub_128,2023-05-05_10h34.04.278,Reversal,2022.1.2,60.008953335681355,4,
19,exp3.png,exp4.png,,,,,,,,,,,,,,,,,,0,0,0,0,0,19,19,19,,,,,,,,,False,18,99,False,exp3.png,exp4.png,trial_right_image,-1,exp4.png,4,exp3.png,exp4.png,1,3,reversed,incorrect,0.29805960496365813,0,valid_lose,618.3566231000004,43,,,,,,,,,,,,,,,,,,sub_128,2023-05-05_10h34.04.278,Reversal,2022.1.2,60.008953335681355,4,
20,exp1.png,exp2.png,,,,,,,,,,,,,,,,,,0,0,0,0,0,20,20,20,,,,,,,,,False,19,100,False,exp1.png,exp2.png,trial_left_image,1,exp1.png,4,exp2.png,exp1.png,0,2,non-reversed,incorrect,0.006781914607040362,1,invalid_win,622.6226617000011,44,,,,,,,,,,,,,,,,,,sub_128,2023-05-05_10h34.04.278,Reversal,2022.1.2,60.008953335681355,4,
,,,exp1.png,,,,,,,,,,,,,,,,,0,0,0,0,,,,,0,0,0,0,0,0,0,0,,,,,,,,,,,,,,,,,,,,,,84.0,84.0,2.6615438000008,"[(84.0, 2.6615438000008)]",705.5730017000005,None,,,,,,,,,,,,sub_128,2023-05-05_10h34.04.278,Reversal,2022.1.2,60.008953335681355,4,
,,,exp2.png,,,,,,,,,,,,,,,,,0,0,0,0,,,,,0,0,0,0,0,1,1,1,,,,,,,,,,,,,,,,,,,,,,,7.0,2.1361123000006046,"[(7.0, 2.1361123000006046)]",709.382055,None,7.0,,,,,,,,,,,sub_128,2023-05-05_10h34.04.278,Reversal,2022.1.2,60.008953335681355,4,
,,,exp3.png,,,,,,,,,,,,,,,,,0,0,0,0,,,,,0,0,0,0,0,2,2,2,,,,,,,,,,,,,,,,,,,,,,,74.0,1.716784499998539,"[(74.0, 1.716784499998539)]",712.7674482000002,None,,74.0,,,,,,,,,,sub_128,2023-05-05_10h34.04.278,Reversal,2022.1.2,60.008953335681355,4,
,,,exp4.png,,,,,,,,,,,,,,,,,0,0,0,0,,,,,0,0,0,0,0,3,3,3,,,,,,,,,,,,,,,,,,,,,,,13.0,1.6015084000009665,"[(13.0, 1.6015084000009665)]",715.6990345000013,None,,,13.0,,,,,,,,,sub_128,2023-05-05_10h34.04.278,Reversal,2022.1.2,60.008953335681355,4,
0,exp1.png,exp2.png,,,,,,,,,,,,,,,,,,1,0,1,0,0,0,0,0,,,,,,,,,True,,,,,,,,,,,,,,,,,,,,,,,,,,,,,,,,,,,,,,sub_128,2023-05-05_10h34.04.278,Reversal,2022.1.2,60.008953335681355,4,
1,exp3.png,exp4.png,,,,,,,,,,,,,,,,,,1,0,1,0,0,1,1,1,,,,,,,,,False,20,101,False,exp3.png,exp4.png,trial_right_image,-1,exp4.png,4,exp3.png,exp4.png,1,3,reversed,incorrect,0.19982877442363634,1,invalid_win,640.2390132,45,,,,,,,,,,,,,,,,,,sub_128,2023-05-05_10h34.04.278,Reversal,2022.1.2,60.008953335681355,4,
2,exp1.png,exp2.png,,,,,,,,,,,,,,,,,,1,0,1,0,0,2,2,2,,,,,,,,,False,21,102,True,exp2.png,exp1.png,trial_left_image,1,exp2.png,4,exp2.png,exp1.png,1,1,non-reversed,correct,0.1493806744068522,0,invalid_lose,645.1233809000005,45,,,,,,,,,,,,,,,,,,sub_128,2023-05-05_10h34.04.278,Reversal,2022.1.2,60.008953335681355,4,
3,exp3.png,exp4.png,,,,,,,,,,,,,,,,,,1,0,1,0,0,3,3,3,,,,,,,,,False,22,103,True,exp4.png,exp3.png,trial_right_image,-1,exp3.png,4,exp3.png,exp4.png,0,4,reversed,correct,0.3789882710586523,1,valid_win,649.6731616000015,46,,,,,,,,,,,,,,,,,,sub_128,2023-05-05_10h34.04.278,Reversal,2022.1.2,60.008953335681355,4,
4,exp1.png,exp2.png,,,,,,,,,,,,,,,,,,1,0,1,0,0,4,4,4,,,,,,,,,False,23,104,True,exp2.png,exp1.png,trial_right_image,-1,exp1.png,4,exp2.png,exp1.png,0,2,non-reversed,incorrect,0.7892018672049809,0,valid_lose,654.1728554000001,46,,,,,,,,,,,,,,,,,,sub_128,2023-05-05_10h34.04.278,Reversal,2022.1.2,60.008953335681355,4,
5,exp3.png,exp4.png,,,,,,,,,,,,,,,,,,1,0,1,0,0,5,5,5,,,,,,,,,False,24,105,False,exp3.png,exp4.png,trial_left_image,1,exp3.png,4,exp3.png,exp4.png,0,4,reversed,correct,0.7892090320374167,1,valid_win,658.9728417000006,47,,,,,,,,,,,,,,,,,,sub_128,2023-05-05_10h34.04.278,Reversal,2022.1.2,60.008953335681355,4,
6,exp1.png,exp2.png,,,,,,,,,,,,,,,,,,1,0,1,0,0,6,6,6,,,,,,,,,False,25,106,False,exp1.png,exp2.png,trial_left_image,1,exp1.png,4,exp2.png,exp1.png,0,2,non-reversed,incorrect,0.9631224303332792,0,valid_lose,663.5059316000006,47,,,,,,,,,,,,,,,,,,sub_128,2023-05-05_10h34.04.278,Reversal,2022.1.2,60.008953335681355,4,
7,exp3.png,exp4.png,,,,,,,,,,,,,,,,,,1,0,1,0,0,7,7,7,,,,,,,,,False,26,107,True,exp4.png,exp3.png,trial_right_image,-1,exp3.png,4,exp3.png,exp4.png,0,4,reversed,correct,0.5108118709872664,1,valid_win,668.2063608000008,48,,,,,,,,,,,,,,,,,,sub_128,2023-05-05_10h34.04.278,Reversal,2022.1.2,60.008953335681355,4,
8,exp1.png,exp2.png,,,,,,,,,,,,,,,,,,1,0,1,0,0,8,8,8,,,,,,,,,False,27,108,True,exp2.png,exp1.png,trial_right_image,-1,exp1.png,4,exp2.png,exp1.png,0,2,non-reversed,incorrect,0.42944712464384627,0,valid_lose,672.6888068000007,48,,,,,,,,,,,,,,,,,,sub_128,2023-05-05_10h34.04.278,Reversal,2022.1.2,60.008953335681355,4,
9,exp3.png,exp4.png,,,,,,,,,,,,,,,,,,1,0,1,0,0,9,9,9,,,,,,,,,False,28,109,True,exp4.png,exp3.png,trial_left_image,1,exp4.png,4,exp3.png,exp4.png,1,3,reversed,incorrect,0.11926145189207149,1,invalid_win,676.9887712,49,,,,,,,,,,,,,,,,,,sub_128,2023-05-05_10h34.04.278,Reversal,2022.1.2,60.008953335681355,4,
10,exp1.png,exp2.png,,,,,,,,,,,,,,,,,,1,0,1,0,0,10,10,10,,,,,,,,,False,29,110,True,exp2.png,exp1.png,trial_left_image,1,exp2.png,4,exp2.png,exp1.png,1,1,non-reversed,correct,0.6651352547775498,1,valid_win,681.6223100000007,50,,,,,,,,,,,,,,,,,,sub_128,2023-05-05_10h34.04.278,Reversal,2022.1.2,60.008953335681355,4,
11,exp3.png,exp4.png,,,,,,,,,,,,,,,,,,1,0,1,0,0,11,11,11,,,,,,,,,False,30,111,True,exp4.png,exp3.png,trial_right_image,-1,exp3.png,4,exp3.png,exp4.png,0,4,reversed,correct,0.6338445668876531,1,valid_win,686.1726887000004,51,,,,,,,,,,,,,,,,,,sub_128,2023-05-05_10h34.04.278,Reversal,2022.1.2,60.008953335681355,4,
12,exp1.png,exp2.png,,,,,,,,,,,,,,,,,,1,0,1,0,0,12,12,12,,,,,,,,,False,31,112,True,exp2.png,exp1.png,trial_left_image,1,exp2.png,4,exp2.png,exp1.png,1,1,non-reversed,correct,0.4188109438096974,1,valid_win,690.8224147000001,52,,,,,,,,,,,,,,,,,,sub_128,2023-05-05_10h34.04.278,Reversal,2022.1.2,60.008953335681355,4,
13,exp3.png,exp4.png,,,,,,,,,,,,,,,,,,1,0,1,0,0,13,13,13,,,,,,,,,False,32,113,False,exp3.png,exp4.png,trial_left_image,1,exp3.png,4,exp3.png,exp4.png,0,4,reversed,correct,0.6893343705842628,1,valid_win,695.9222750000008,53,,,,,,,,,,,,,,,,,,sub_128,2023-05-05_10h34.04.278,Reversal,2022.1.2,60.008953335681355,4,
14,exp1.png,exp2.png,,,,,,,,,,,,,,,,,,1,0,1,0,0,14,14,14,,,,,,,,,False,33,114,True,exp2.png,exp1.png,trial_right_image,-1,exp1.png,4,exp2.png,exp1.png,0,2,non-reversed,incorrect,0.642876060464415,0,valid_lose,700.3549610999999,53,,,,,,,,,,,,,,,,,,sub_128,2023-05-05_10h34.04.278,Reversal,2022.1.2,60.008953335681355,4,
15,exp3.png,exp4.png,,,,,,,,,,,,,,,,,,1,0,1,0,0,15,15,15,,,,,,,,,False,34,115,False,exp3.png,exp4.png,trial_left_image,1,exp3.png,4,exp3.png,exp4.png,0,4,reversed,correct,0.5330077536062696,1,valid_win,705.3054360000006,54,,,,,,,,,,,,,,,,,,sub_128,2023-05-05_10h34.04.278,Reversal,2022.1.2,60.008953335681355,4,
16,exp1.png,exp2.png,,,,,,,,,,,,,,,,,,1,0,1,0,0,16,16,16,,,,,,,,,False,35,116,False,exp1.png,exp2.png,trial_left_image,1,exp1.png,4,exp2.png,exp1.png,0,2,non-reversed,incorrect,0.13425725532432886,1,invalid_win,709.7886864000011,55,,,,,,,,,,,,,,,,,,sub_128,2023-05-05_10h34.04.278,Reversal,2022.1.2,60.008953335681355,4,
17,exp3.png,exp4.png,,,,,,,,,,,,,,,,,,1,0,1,0,0,17,17,17,,,,,,,,,False,36,117,False,exp3.png,exp4.png,trial_left_image,1,exp3.png,4,exp3.png,exp4.png,0,4,reversed,correct,0.7129408161889653,1,valid_win,714.5547917000004,56,,,,,,,,,,,,,,,,,,sub_128,2023-05-05_10h34.04.278,Reversal,2022.1.2,60.008953335681355,4,
18,exp1.png,exp2.png,,,,,,,,,,,,,,,,,,1,0,1,0,0,18,18,18,,,,,,,,,False,37,118,False,exp1.png,exp2.png,trial_left_image,1,exp1.png,4,exp2.png,exp1.png,0,2,non-reversed,incorrect,0.3637307054275669,0,valid_lose,719.2217259000008,56,,,,,,,,,,,,,,,,,,sub_128,2023-05-05_10h34.04.278,Reversal,2022.1.2,60.008953335681355,4,
19,exp3.png,exp4.png,,,,,,,,,,,,,,,,,,1,0,1,0,0,19,19,19,,,,,,,,,False,38,119,False,exp3.png,exp4.png,trial_right_image,-1,exp4.png,4,exp3.png,exp4.png,1,3,reversed,incorrect,0.888807171881454,0,valid_lose,723.7220266000004,56,,,,,,,,,,,,,,,,,,sub_128,2023-05-05_10h34.04.278,Reversal,2022.1.2,60.008953335681355,4,
20,exp1.png,exp2.png,,,,,,,,,,,,,,,,,,1,0,1,0,0,20,20,20,,,,,,,,,False,39,120,False,exp1.png,exp2.png,trial_left_image,1,exp1.png,4,exp2.png,exp1.png,0,2,non-reversed,incorrect,0.35594952916022893,0,valid_lose,728.1545073000016,56,,,,,,,,,,,,,,,,,,sub_128,2023-05-05_10h34.04.278,Reversal,2022.1.2,60.008953335681355,4,
,,,exp1.png,,,,,,,,,,,,,,,,,1,0,1,0,,,,,0,0,0,0,0,0,0,0,,,,,,,,,,,,,,,,,,,,,,88.0,88.0,2.9438371999985975,"[(88.0, 2.9438371999985975)]",811.0889408000003,None,,,,,,,,,,,,sub_128,2023-05-05_10h34.04.278,Reversal,2022.1.2,60.008953335681355,4,
,,,exp2.png,,,,,,,,,,,,,,,,,1,0,1,0,,,,,0,0,0,0,0,1,1,1,,,,,,,,,,,,,,,,,,,,,,,11.0,2.0844718999996985,"[(11.0, 2.0844718999996985)]",816.3300189000001,None,11.0,,,,,,,,,,,sub_128,2023-05-05_10h34.04.278,Reversal,2022.1.2,60.008953335681355,4,
,,,exp3.png,,,,,,,,,,,,,,,,,1,0,1,0,,,,,0,0,0,0,0,2,2,2,,,,,,,,,,,,,,,,,,,,,,,79.0,1.76953820000017,"[(79.0, 1.76953820000017)]",819.5307237000015,None,,79.0,,,,,,,,,,sub_128,2023-05-05_10h34.04.278,Reversal,2022.1.2,60.008953335681355,4,
,,,exp4.png,,,,,,,,,,,,,,,,,1,0,1,0,,,,,0,0,0,0,0,3,3,3,,,,,,,,,,,,,,,,,,,,,,,21.0,2.0332593000002817,"[(21.0, 2.0332593000002817)]",822.4485431000012,None,,,21.0,,,,,,,,,sub_128,2023-05-05_10h34.04.278,Reversal,2022.1.2,60.008953335681355,4,
0,exp1.png,exp2.png,,,,,,,,,,,,,,,,,,2,0,2,0,0,0,0,0,,,,,,,,,True,,,,,,,,,,,,,,,,,,,,,,,,,,,,,,,,,,,,,,sub_128,2023-05-05_10h34.04.278,Reversal,2022.1.2,60.008953335681355,4,
1,exp3.png,exp4.png,,,,,,,,,,,,,,,,,,2,0,2,0,0,1,1,1,,,,,,,,,False,40,121,False,exp3.png,exp4.png,trial_right_image,-1,exp4.png,4,exp3.png,exp4.png,1,3,reversed,incorrect,0.9608375275793902,0,valid_lose,748.0377979000004,56,,,,,,,,,,,,,,,,,,sub_128,2023-05-05_10h34.04.278,Reversal,2022.1.2,60.008953335681355,4,
2,exp1.png,exp2.png,,,,,,,,,,,,,,,,,,2,0,2,0,0,2,2,2,,,,,,,,,False,41,122,True,exp2.png,exp1.png,trial_left_image,1,exp2.png,4,exp2.png,exp1.png,1,1,non-reversed,correct,0.3263079996027426,1,valid_win,752.7873954000006,57,,,,,,,,,,,,,,,,,,sub_128,2023-05-05_10h34.04.278,Reversal,2022.1.2,60.008953335681355,4,
3,exp3.png,exp4.png,,,,,,,,,,,,,,,,,,2,0,2,0,0,3,3,3,,,,,,,,,False,42,123,False,exp3.png,exp4.png,trial_left_image,1,exp3.png,4,exp3.png,exp4.png,0,4,reversed,correct,0.9503362599792019,1,valid_win,758.421397600001,58,,,,,,,,,,,,,,,,,,sub_128,2023-05-05_10h34.04.278,Reversal,2022.1.2,60.008953335681355,4,
4,exp1.png,exp2.png,,,,,,,,,,,,,,,,,,2,0,2,0,0,4,4,4,,,,,,,,,False,43,124,False,exp1.png,exp2.png,trial_right_image,-1,exp2.png,4,exp2.png,exp1.png,1,1,non-reversed,correct,0.37844740688571477,1,valid_win,764.6879446000003,59,,,,,,,,,,,,,,,,,,sub_128,2023-05-05_10h34.04.278,Reversal,2022.1.2,60.008953335681355,4,
5,exp3.png,exp4.png,,,,,,,,,,,,,,,,,,2,0,2,0,0,5,5,5,,,,,,,,,False,44,125,True,exp4.png,exp3.png,trial_left_image,1,exp4.png,4,exp3.png,exp4.png,1,3,reversed,incorrect,0.9486394409596344,0,valid_lose,769.3211980000015,59,,,,,,,,,,,,,,,,,,sub_128,2023-05-05_10h34.04.278,Reversal,2022.1.2,60.008953335681355,4,
6,exp1.png,exp2.png,,,,,,,,,,,,,,,,,,2,0,2,0,0,6,6,6,,,,,,,,,False,45,126,True,exp2.png,exp1.png,trial_left_image,1,exp2.png,4,exp2.png,exp1.png,1,1,non-reversed,correct,0.38318819847958985,1,valid_win,773.9708813000016,60,,,,,,,,,,,,,,,,,,sub_128,2023-05-05_10h34.04.278,Reversal,2022.1.2,60.008953335681355,4,
7,exp3.png,exp4.png,,,,,,,,,,,,,,,,,,2,0,2,0,0,7,7,7,,,,,,,,,False,46,127,False,exp3.png,exp4.png,trial_left_image,1,exp3.png,4,exp3.png,exp4.png,0,4,reversed,correct,0.9996926507716551,1,valid_win,778.9880759000007,61,,,,,,,,,,,,,,,,,,sub_128,2023-05-05_10h34.04.278,Reversal,2022.1.2,60.008953335681355,4,
8,exp1.png,exp2.png,,,,,,,,,,,,,,,,,,2,0,2,0,0,8,8,8,,,,,,,,,False,47,128,False,exp1.png,exp2.png,trial_left_image,1,exp1.png,4,exp2.png,exp1.png,0,2,non-reversed,incorrect,0.10911391680991611,1,invalid_win,784.1372159000002,62,,,,,,,,,,,,,,,,,,sub_128,2023-05-05_10h34.04.278,Reversal,2022.1.2,60.008953335681355,4,
9,exp3.png,exp4.png,,,,,,,,,,,,,,,,,,2,0,2,0,0,9,9,9,,,,,,,,,False,48,129,True,exp4.png,exp3.png,trial_right_image,-1,exp3.png,4,exp3.png,exp4.png,0,4,reversed,correct,0.7786887565695795,1,valid_win,790.7037969000012,63,,,,,,,,,,,,,,,,,,sub_128,2023-05-05_10h34.04.278,Reversal,2022.1.2,60.008953335681355,4,
10,exp1.png,exp2.png,,,,,,,,,,,,,,,,,,2,0,2,0,0,10,10,10,,,,,,,,,False,49,130,True,exp2.png,exp1.png,trial_left_image,1,exp2.png,4,exp2.png,exp1.png,1,1,non-reversed,correct,0.04134019743453787,0,invalid_lose,795.4863142000013,63,,,,,,,,,,,,,,,,,,sub_128,2023-05-05_10h34.04.278,Reversal,2022.1.2,60.008953335681355,4,
11,exp3.png,exp4.png,,,,,,,,,,,,,,,,,,2,0,2,0,0,11,11,11,,,,,,,,,False,50,131,True,exp4.png,exp3.png,trial_left_image,1,exp4.png,4,exp3.png,exp4.png,1,3,reversed,incorrect,0.6981964906008548,0,valid_lose,800.6035597999999,63,,,,,,,,,,,,,,,,,,sub_128,2023-05-05_10h34.04.278,Reversal,2022.1.2,60.008953335681355,4,
12,exp1.png,exp2.png,,,,,,,,,,,,,,,,,,2,0,2,0,0,12,12,12,,,,,,,,,False,51,132,True,exp2.png,exp1.png,trial_right_image,-1,exp1.png,4,exp2.png,exp1.png,0,2,non-reversed,incorrect,0.15994497606121394,1,invalid_win,805.3197279000015,64,,,,,,,,,,,,,,,,,,sub_128,2023-05-05_10h34.04.278,Reversal,2022.1.2,60.008953335681355,4,
13,exp3.png,exp4.png,,,,,,,,,,,,,,,,,,2,0,2,0,0,13,13,13,,,,,,,,,False,52,133,True,exp4.png,exp3.png,trial_left_image,1,exp4.png,4,exp3.png,exp4.png,1,3,reversed,incorrect,0.09990648797302404,1,invalid_win,810.3037007000003,65,,,,,,,,,,,,,,,,,,sub_128,2023-05-05_10h34.04.278,Reversal,2022.1.2,60.008953335681355,4,
14,exp1.png,exp2.png,,,,,,,,,,,,,,,,,,2,0,2,0,0,14,14,14,,,,,,,,,False,53,134,True,exp2.png,exp1.png,trial_right_image,-1,exp1.png,4,exp2.png,exp1.png,0,2,non-reversed,incorrect,0.7258777713648399,0,valid_lose,814.9702123000006,65,,,,,,,,,,,,,,,,,,sub_128,2023-05-05_10h34.04.278,Reversal,2022.1.2,60.008953335681355,4,
15,exp3.png,exp4.png,,,,,,,,,,,,,,,,,,2,0,2,0,0,15,15,15,,,,,,,,,False,54,135,False,exp3.png,exp4.png,trial_left_image,1,exp3.png,4,exp3.png,exp4.png,0,4,reversed,correct,0.1267005060939549,0,invalid_lose,819.5202968000012,65,,,,,,,,,,,,,,,,,,sub_128,2023-05-05_10h34.04.278,Reversal,2022.1.2,60.008953335681355,4,
16,exp1.png,exp2.png,,,,,,,,,,,,,,,,,,2,0,2,0,0,16,16,16,,,,,,,,,False,55,136,False,exp1.png,exp2.png,trial_right_image,-1,exp2.png,4,exp2.png,exp1.png,1,1,non-reversed,correct,0.35195598715396137,1,valid_win,824.1200234000007,66,,,,,,,,,,,,,,,,,,sub_128,2023-05-05_10h34.04.278,Reversal,2022.1.2,60.008953335681355,4,
17,exp3.png,exp4.png,,,,,,,,,,,,,,,,,,2,0,2,0,0,17,17,17,,,,,,,,,False,56,137,False,exp3.png,exp4.png,trial_left_image,1,exp3.png,4,exp3.png,exp4.png,0,4,reversed,correct,0.24475141851856996,0,invalid_lose,829.5032948000007,66,,,,,,,,,,,,,,,,,,sub_128,2023-05-05_10h34.04.278,Reversal,2022.1.2,60.008953335681355,4,
18,exp1.png,exp2.png,,,,,,,,,,,,,,,,,,2,0,2,0,0,18,18,18,,,,,,,,,False,57,138,False,exp1.png,exp2.png,trial_right_image,-1,exp2.png,4,exp2.png,exp1.png,1,1,non-reversed,correct,0.8393716430891425,1,valid_win,834.269664200001,67,,,,,,,,,,,,,,,,,,sub_128,2023-05-05_10h34.04.278,Reversal,2022.1.2,60.008953335681355,4,
19,exp3.png,exp4.png,,,,,,,,,,,,,,,,,,2,0,2,0,0,19,19,19,,,,,,,,,False,58,139,True,exp4.png,exp3.png,trial_right_image,-1,exp3.png,4,exp3.png,exp4.png,0,4,reversed,correct,0.2956789088685544,1,valid_win,839.2034424000012,68,,,,,,,,,,,,,,,,,,sub_128,2023-05-05_10h34.04.278,Reversal,2022.1.2,60.008953335681355,4,
20,exp1.png,exp2.png,,,,,,,,,,,,,,,,,,2,0,2,0,0,20,20,20,,,,,,,,,False,59,140,False,exp1.png,exp2.png,trial_right_image,-1,exp2.png,4,exp2.png,exp1.png,1,1,non-reversed,correct,0.43211921744372284,1,valid_win,843.8360600000015,69,,,,,,,,,,,,,,,,,,sub_128,2023-05-05_10h34.04.278,Reversal,2022.1.2,60.008953335681355,4,
,,,exp1.png,,,,,,,,,,,,,,,,,2,0,2,0,,,,,0,0,0,0,0,0,0,0,,,,,,,,,,,,,,,,,,,,,,81.0,81.0,3.7445713999986765,"[(81.0, 3.7445713999986765)]",926.7868930000004,None,,,,,,,,,,,,sub_128,2023-05-05_10h34.04.278,Reversal,2022.1.2,60.008953335681355,4,
,,,exp2.png,,,,,,,,,,,,,,,,,2,0,2,0,,,,,0,0,0,0,0,1,1,1,,,,,,,,,,,,,,,,,,,,,,,83.0,3.2847379999984696,"[(83.0, 3.2847379999984696)]",931.7118683000008,None,83.0,,,,,,,,,,,sub_128,2023-05-05_10h34.04.278,Reversal,2022.1.2,60.008953335681355,4,
,,,exp3.png,,,,,,,,,,,,,,,,,2,0,2,0,,,,,0,0,0,0,0,2,2,2,,,,,,,,,,,,,,,,,,,,,,,72.0,2.4157345999992685,"[(72.0, 2.4157345999992685)]",936.2309916000013,None,,72.0,,,,,,,,,,sub_128,2023-05-05_10h34.04.278,Reversal,2022.1.2,60.008953335681355,4,
,,,exp4.png,,,,,,,,,,,,,,,,,2,0,2,0,,,,,0,0,0,0,0,3,3,3,,,,,,,,,,,,,,,,,,,,,,,14.0,1.4677953999998863,"[(14.0, 1.4677953999998863)]",939.7450245,None,,,14.0,,,,,,,,,sub_128,2023-05-05_10h34.04.278,Reversal,2022.1.2,60.008953335681355,4,
,,,,,,,,,,,,,,,,,,,,,,,,,,,,,,,,,,,,,,,,,,,,,,,,,,,,,,,,69,,,,,,,,,,,63,31,32,333.10331919999953,1,space,9.003615699997681,sub_128,2023-05-05_10h34.04.278,Reversal,2022.1.2,60.008953335681355,4,
