trial_index,trial_image1_file,trial_image2_file,image_file,learning_outer_loop.thisRepN,learning_outer_loop.thisTrialN,learning_outer_loop.thisN,learning_outer_loop.thisIndex,learning_inner_loop.thisRepN,learning_inner_loop.thisTrialN,learning_inner_loop.thisN,learning_inner_loop.thisIndex,learning_estimation_outer_loop.thisRepN,learning_estimation_outer_loop.thisTrialN,learning_estimation_outer_loop.thisN,learning_estimation_outer_loop.thisIndex,learning_estimation_inner_loop.thisRepN,learning_estimation_inner_loop.thisTrialN,learning_estimation_inner_loop.thisN,learning_estimation_inner_loop.thisIndex,reversal_outer_loop.thisRepN,reversal_outer_loop.thisTrialN,reversal_outer_loop.thisN,reversal_outer_loop.thisIndex,reversal_inner_loop.thisRepN,reversal_inner_loop.thisTrialN,reversal_inner_loop.thisN,reversal_inner_loop.thisIndex,reversal_estimation_outer_loop.thisRepN,reversal_estimation_outer_loop.thisTrialN,reversal_estimation_outer_loop.thisN,reversal_estimation_outer_loop.thisIndex,reversal_estimation_inner_loop.thisRepN,reversal_estimation_inner_loop.thisTrialN,reversal_estimation_inner_loop.thisN,reversal_estimation_inner_loop.thisIndex,skipped,total_trial_counter,trial_num,left_right_flip,left_image_file,right_image_file,clicked_stimulus_side,side,clicked_stimulus,version,high_prob_image_file,low_prob_image_file,choice_a,choice_b,pair_type,correct,trial_feedback_random,reward,trial_type,overall_time_after_trial,score,estimation_exp1.png,estimation_rating.response,estimation_rating.rt,estimation_rating.history,estimation_rating.started,estimation_rating.stopped,estimation_exp2.png,estimation_exp3.png,estimation_exp4.png,total_learning_time,total_correct,learning_correct,reversal_correct,total_reversal_time,extra_block,participant,date,expName,psychopyVersion,frameRate,ver,
0,exp1.png,exp2.png,,0,0,0,0,0,0,0,0,,,,,,,,,,,,,,,,,,,,,,,,,False,0,1,False,exp1.png,exp2.png,trial_right_image,-1,exp2.png,4,exp2.png,exp1.png,1,1,non-reversed,correct,0.9600042083862728,1,valid_win,9.783386099996278,1,,,,,,,,,,,,,,,,sub_032,2022-09-14_17h39.31.519,Reversal,2022.1.2,60.00452434065863,4,
1,exp3.png,exp4.png,,0,0,0,0,0,1,1,1,,,,,,,,,,,,,,,,,,,,,,,,,False,1,2,False,exp3.png,exp4.png,trial_right_image,-1,exp4.png,4,exp4.png,exp3.png,1,3,reversed,correct,0.581526887888776,1,valid_win,28.03357599998708,2,,,,,,,,,,,,,,,,sub_032,2022-09-14_17h39.31.519,Reversal,2022.1.2,60.00452434065863,4,
2,exp1.png,exp2.png,,0,0,0,0,0,2,2,2,,,,,,,,,,,,,,,,,,,,,,,,,False,2,3,True,exp2.png,exp1.png,trial_left_image,1,exp2.png,4,exp2.png,exp1.png,1,1,non-reversed,correct,0.8114822367899652,1,valid_win,36.698867099999916,3,,,,,,,,,,,,,,,,sub_032,2022-09-14_17h39.31.519,Reversal,2022.1.2,60.00452434065863,4,
3,exp3.png,exp4.png,,0,0,0,0,0,3,3,3,,,,,,,,,,,,,,,,,,,,,,,,,False,3,4,False,exp3.png,exp4.png,trial_right_image,-1,exp4.png,4,exp4.png,exp3.png,1,3,reversed,correct,0.0415369867874017,0,invalid_lose,43.28175689998898,3,,,,,,,,,,,,,,,,sub_032,2022-09-14_17h39.31.519,Reversal,2022.1.2,60.00452434065863,4,
4,exp1.png,exp2.png,,0,0,0,0,0,4,4,4,,,,,,,,,,,,,,,,,,,,,,,,,False,4,5,True,exp2.png,exp1.png,trial_right_image,-1,exp1.png,4,exp2.png,exp1.png,0,2,non-reversed,incorrect,0.9876915907725864,0,valid_lose,56.03303639998194,3,,,,,,,,,,,,,,,,sub_032,2022-09-14_17h39.31.519,Reversal,2022.1.2,60.00452434065863,4,
5,exp3.png,exp4.png,,0,0,0,0,0,5,5,5,,,,,,,,,,,,,,,,,,,,,,,,,False,5,6,False,exp3.png,exp4.png,trial_right_image,-1,exp4.png,4,exp4.png,exp3.png,1,3,reversed,correct,0.061831901037773807,0,invalid_lose,61.21688359999098,3,,,,,,,,,,,,,,,,sub_032,2022-09-14_17h39.31.519,Reversal,2022.1.2,60.00452434065863,4,
6,exp1.png,exp2.png,,0,0,0,0,0,6,6,6,,,,,,,,,,,,,,,,,,,,,,,,,False,6,7,True,exp2.png,exp1.png,trial_left_image,1,exp2.png,4,exp2.png,exp1.png,1,1,non-reversed,correct,0.3696619385025286,1,valid_win,68.46575339999981,4,,,,,,,,,,,,,,,,sub_032,2022-09-14_17h39.31.519,Reversal,2022.1.2,60.00452434065863,4,
7,exp3.png,exp4.png,,0,0,0,0,0,7,7,7,,,,,,,,,,,,,,,,,,,,,,,,,False,7,8,False,exp3.png,exp4.png,trial_right_image,-1,exp4.png,4,exp4.png,exp3.png,1,3,reversed,correct,0.3974381611934542,1,valid_win,76.93256939999992,5,,,,,,,,,,,,,,,,sub_032,2022-09-14_17h39.31.519,Reversal,2022.1.2,60.00452434065863,4,
8,exp1.png,exp2.png,,0,0,0,0,0,8,8,8,,,,,,,,,,,,,,,,,,,,,,,,,False,8,9,True,exp2.png,exp1.png,trial_left_image,1,exp2.png,4,exp2.png,exp1.png,1,1,non-reversed,correct,0.8434808163162215,1,valid_win,86.21563109999988,6,,,,,,,,,,,,,,,,sub_032,2022-09-14_17h39.31.519,Reversal,2022.1.2,60.00452434065863,4,
9,exp3.png,exp4.png,,0,0,0,0,0,9,9,9,,,,,,,,,,,,,,,,,,,,,,,,,False,9,10,True,exp4.png,exp3.png,trial_left_image,1,exp4.png,4,exp4.png,exp3.png,1,3,reversed,correct,0.262153606974747,1,valid_win,91.79904749998241,7,,,,,,,,,,,,,,,,sub_032,2022-09-14_17h39.31.519,Reversal,2022.1.2,60.00452434065863,4,
10,exp1.png,exp2.png,,0,0,0,0,0,10,10,10,,,,,,,,,,,,,,,,,,,,,,,,,False,10,11,False,exp1.png,exp2.png,trial_right_image,-1,exp2.png,4,exp2.png,exp1.png,1,1,non-reversed,correct,0.6904998854900589,1,valid_win,97.14842729998054,8,,,,,,,,,,,,,,,,sub_032,2022-09-14_17h39.31.519,Reversal,2022.1.2,60.00452434065863,4,
11,exp3.png,exp4.png,,0,0,0,0,0,11,11,11,,,,,,,,,,,,,,,,,,,,,,,,,False,11,12,True,exp4.png,exp3.png,trial_left_image,1,exp4.png,4,exp4.png,exp3.png,1,3,reversed,correct,0.8813704399976967,1,valid_win,102.48220749999746,9,,,,,,,,,,,,,,,,sub_032,2022-09-14_17h39.31.519,Reversal,2022.1.2,60.00452434065863,4,
12,exp1.png,exp2.png,,0,0,0,0,0,12,12,12,,,,,,,,,,,,,,,,,,,,,,,,,False,12,13,True,exp2.png,exp1.png,trial_left_image,1,exp2.png,4,exp2.png,exp1.png,1,1,non-reversed,correct,0.059949852715152185,0,invalid_lose,107.86535539999022,9,,,,,,,,,,,,,,,,sub_032,2022-09-14_17h39.31.519,Reversal,2022.1.2,60.00452434065863,4,
13,exp3.png,exp4.png,,0,0,0,0,0,13,13,13,,,,,,,,,,,,,,,,,,,,,,,,,False,13,14,False,exp3.png,exp4.png,trial_right_image,-1,exp4.png,4,exp4.png,exp3.png,1,3,reversed,correct,0.21105750037748405,0,invalid_lose,113.3487335999962,9,,,,,,,,,,,,,,,,sub_032,2022-09-14_17h39.31.519,Reversal,2022.1.2,60.00452434065863,4,
14,exp1.png,exp2.png,,0,0,0,0,0,14,14,14,,,,,,,,,,,,,,,,,,,,,,,,,False,14,15,True,exp2.png,exp1.png,trial_left_image,1,exp2.png,4,exp2.png,exp1.png,1,1,non-reversed,correct,0.4870741720264443,1,valid_win,119.43204849999165,10,,,,,,,,,,,,,,,,sub_032,2022-09-14_17h39.31.519,Reversal,2022.1.2,60.00452434065863,4,
15,exp3.png,exp4.png,,0,0,0,0,0,15,15,15,,,,,,,,,,,,,,,,,,,,,,,,,False,15,16,False,exp3.png,exp4.png,trial_right_image,-1,exp4.png,4,exp4.png,exp3.png,1,3,reversed,correct,0.7510458061931854,1,valid_win,125.24849559998256,11,,,,,,,,,,,,,,,,sub_032,2022-09-14_17h39.31.519,Reversal,2022.1.2,60.00452434065863,4,
16,exp1.png,exp2.png,,0,0,0,0,0,16,16,16,,,,,,,,,,,,,,,,,,,,,,,,,False,16,17,False,exp1.png,exp2.png,trial_right_image,-1,exp2.png,4,exp2.png,exp1.png,1,1,non-reversed,correct,0.404562137827154,1,valid_win,130.48170979999122,12,,,,,,,,,,,,,,,,sub_032,2022-09-14_17h39.31.519,Reversal,2022.1.2,60.00452434065863,4,
17,exp3.png,exp4.png,,0,0,0,0,0,17,17,17,,,,,,,,,,,,,,,,,,,,,,,,,False,17,18,False,exp3.png,exp4.png,trial_right_image,-1,exp4.png,4,exp4.png,exp3.png,1,3,reversed,correct,0.5041194958092446,1,valid_win,135.7649209999945,13,,,,,,,,,,,,,,,,sub_032,2022-09-14_17h39.31.519,Reversal,2022.1.2,60.00452434065863,4,
18,exp1.png,exp2.png,,0,0,0,0,0,18,18,18,,,,,,,,,,,,,,,,,,,,,,,,,False,18,19,True,exp2.png,exp1.png,trial_left_image,1,exp2.png,4,exp2.png,exp1.png,1,1,non-reversed,correct,0.7695727809888263,1,valid_win,143.89837249999982,14,,,,,,,,,,,,,,,,sub_032,2022-09-14_17h39.31.519,Reversal,2022.1.2,60.00452434065863,4,
19,exp3.png,exp4.png,,0,0,0,0,0,19,19,19,,,,,,,,,,,,,,,,,,,,,,,,,False,19,20,True,exp4.png,exp3.png,trial_left_image,1,exp4.png,4,exp4.png,exp3.png,1,3,reversed,correct,0.6159390999520774,1,valid_win,150.01482849998865,15,,,,,,,,,,,,,,,,sub_032,2022-09-14_17h39.31.519,Reversal,2022.1.2,60.00452434065863,4,
20,exp1.png,exp2.png,,0,0,0,0,0,20,20,20,,,,,,,,,,,,,,,,,,,,,,,,,True,,,,,,,,,,,,,,,,,,,,,,,,,,,,,,,,,,,,sub_032,2022-09-14_17h39.31.519,Reversal,2022.1.2,60.00452434065863,4,
,,,exp1.png,0,0,0,0,,,,,0,0,0,0,0,0,0,0,,,,,,,,,,,,,,,,,,,,,,,,,,,,,,,,,,,,,,26.0,26.0,16.158875299995998,"[(33.0, 9.759583400009433), (26.0, 16.158875299995998)]",271.248883799999,None,,,,,,,,,,sub_032,2022-09-14_17h39.31.519,Reversal,2022.1.2,60.00452434065863,4,
,,,exp2.png,0,0,0,0,,,,,0,0,0,0,0,1,1,1,,,,,,,,,,,,,,,,,,,,,,,,,,,,,,,,,,,,,,,86.0,3.77257629999076,"[(86.0, 3.77257629999076)]",292.118833799992,None,86.0,,,,,,,,,sub_032,2022-09-14_17h39.31.519,Reversal,2022.1.2,60.00452434065863,4,
,,,exp3.png,0,0,0,0,,,,,0,0,0,0,0,2,2,2,,,,,,,,,,,,,,,,,,,,,,,,,,,,,,,,,,,,,,,30.0,5.351649200019892,"[(30.0, 5.351649200019892)]",297.99644449999323,None,,30.0,,,,,,,,sub_032,2022-09-14_17h39.31.519,Reversal,2022.1.2,60.00452434065863,4,
,,,exp4.png,0,0,0,0,,,,,0,0,0,0,0,3,3,3,,,,,,,,,,,,,,,,,,,,,,,,,,,,,,,,,,,,,,,73.0,3.084080900007393,"[(73.0, 3.084080900007393)]",305.764253500005,None,,,73.0,,,,,,,sub_032,2022-09-14_17h39.31.519,Reversal,2022.1.2,60.00452434065863,4,
0,exp1.png,exp2.png,,1,0,1,0,0,0,0,0,,,,,,,,,,,,,,,,,,,,,,,,,False,20,21,False,exp1.png,exp2.png,trial_right_image,-1,exp2.png,4,exp2.png,exp1.png,1,1,non-reversed,correct,0.017225706806414776,0,invalid_lose,195.89694969999255,15,,,,,,,,,,,,,,,,sub_032,2022-09-14_17h39.31.519,Reversal,2022.1.2,60.00452434065863,4,
1,exp3.png,exp4.png,,1,0,1,0,0,1,1,1,,,,,,,,,,,,,,,,,,,,,,,,,False,21,22,True,exp4.png,exp3.png,trial_left_image,1,exp4.png,4,exp4.png,exp3.png,1,3,reversed,correct,0.3943178599193651,1,valid_win,201.73053529998288,16,,,,,,,,,,,,,,,,sub_032,2022-09-14_17h39.31.519,Reversal,2022.1.2,60.00452434065863,4,
2,exp1.png,exp2.png,,1,0,1,0,0,2,2,2,,,,,,,,,,,,,,,,,,,,,,,,,False,22,23,True,exp2.png,exp1.png,trial_left_image,1,exp2.png,4,exp2.png,exp1.png,1,1,non-reversed,correct,0.06693253618714856,0,invalid_lose,206.71367909997934,16,,,,,,,,,,,,,,,,sub_032,2022-09-14_17h39.31.519,Reversal,2022.1.2,60.00452434065863,4,
3,exp3.png,exp4.png,,1,0,1,0,0,3,3,3,,,,,,,,,,,,,,,,,,,,,,,,,False,23,24,True,exp4.png,exp3.png,trial_left_image,1,exp4.png,4,exp4.png,exp3.png,1,3,reversed,correct,0.16936165572856976,0,invalid_lose,212.24712859999272,16,,,,,,,,,,,,,,,,sub_032,2022-09-14_17h39.31.519,Reversal,2022.1.2,60.00452434065863,4,
4,exp1.png,exp2.png,,1,0,1,0,0,4,4,4,,,,,,,,,,,,,,,,,,,,,,,,,False,24,25,False,exp1.png,exp2.png,trial_right_image,-1,exp2.png,4,exp2.png,exp1.png,1,1,non-reversed,correct,0.2604693889897952,1,valid_win,217.09713149999152,17,,,,,,,,,,,,,,,,sub_032,2022-09-14_17h39.31.519,Reversal,2022.1.2,60.00452434065863,4,
5,exp3.png,exp4.png,,1,0,1,0,0,5,5,5,,,,,,,,,,,,,,,,,,,,,,,,,False,25,26,False,exp3.png,exp4.png,trial_right_image,-1,exp4.png,4,exp4.png,exp3.png,1,3,reversed,correct,0.10965876556812038,0,invalid_lose,223.01369419999537,17,,,,,,,,,,,,,,,,sub_032,2022-09-14_17h39.31.519,Reversal,2022.1.2,60.00452434065863,4,
6,exp1.png,exp2.png,,1,0,1,0,0,6,6,6,,,,,,,,,,,,,,,,,,,,,,,,,False,26,27,False,exp1.png,exp2.png,trial_left_image,1,exp1.png,4,exp2.png,exp1.png,0,2,non-reversed,incorrect,0.12639505755416003,1,invalid_win,228.66300309999497,18,,,,,,,,,,,,,,,,sub_032,2022-09-14_17h39.31.519,Reversal,2022.1.2,60.00452434065863,4,
7,exp3.png,exp4.png,,1,0,1,0,0,7,7,7,,,,,,,,,,,,,,,,,,,,,,,,,False,27,28,False,exp3.png,exp4.png,trial_left_image,1,exp3.png,4,exp4.png,exp3.png,0,4,reversed,incorrect,0.7556966819349104,0,valid_lose,234.09635290000006,18,,,,,,,,,,,,,,,,sub_032,2022-09-14_17h39.31.519,Reversal,2022.1.2,60.00452434065863,4,
8,exp1.png,exp2.png,,1,0,1,0,0,8,8,8,,,,,,,,,,,,,,,,,,,,,,,,,False,28,29,False,exp1.png,exp2.png,trial_right_image,-1,exp2.png,4,exp2.png,exp1.png,1,1,non-reversed,correct,0.07149052439282788,0,invalid_lose,239.06287609998253,18,,,,,,,,,,,,,,,,sub_032,2022-09-14_17h39.31.519,Reversal,2022.1.2,60.00452434065863,4,
9,exp3.png,exp4.png,,1,0,1,0,0,9,9,9,,,,,,,,,,,,,,,,,,,,,,,,,False,29,30,True,exp4.png,exp3.png,trial_right_image,-1,exp3.png,4,exp4.png,exp3.png,0,4,reversed,incorrect,0.8805004869707155,0,valid_lose,244.77958489998127,18,,,,,,,,,,,,,,,,sub_032,2022-09-14_17h39.31.519,Reversal,2022.1.2,60.00452434065863,4,
10,exp1.png,exp2.png,,1,0,1,0,0,10,10,10,,,,,,,,,,,,,,,,,,,,,,,,,False,30,31,False,exp1.png,exp2.png,trial_right_image,-1,exp2.png,4,exp2.png,exp1.png,1,1,non-reversed,correct,0.5911242081129292,1,valid_win,250.09591419997741,19,,,,,,,,,,,,,,,,sub_032,2022-09-14_17h39.31.519,Reversal,2022.1.2,60.00452434065863,4,
11,exp3.png,exp4.png,,1,0,1,0,0,11,11,11,,,,,,,,,,,,,,,,,,,,,,,,,False,31,32,False,exp3.png,exp4.png,trial_right_image,-1,exp4.png,4,exp4.png,exp3.png,1,3,reversed,correct,0.8568220443302633,1,valid_win,254.9128428999975,20,,,,,,,,,,,,,,,,sub_032,2022-09-14_17h39.31.519,Reversal,2022.1.2,60.00452434065863,4,
12,exp1.png,exp2.png,,1,0,1,0,0,12,12,12,,,,,,,,,,,,,,,,,,,,,,,,,False,32,33,True,exp2.png,exp1.png,trial_left_image,1,exp2.png,4,exp2.png,exp1.png,1,1,non-reversed,correct,0.6289999052247007,1,valid_win,260.21245009999257,21,,,,,,,,,,,,,,,,sub_032,2022-09-14_17h39.31.519,Reversal,2022.1.2,60.00452434065863,4,
13,exp3.png,exp4.png,,1,0,1,0,0,13,13,13,,,,,,,,,,,,,,,,,,,,,,,,,False,33,34,False,exp3.png,exp4.png,trial_right_image,-1,exp4.png,4,exp4.png,exp3.png,1,3,reversed,correct,0.9831613402426327,1,valid_win,265.4459034999891,22,,,,,,,,,,,,,,,,sub_032,2022-09-14_17h39.31.519,Reversal,2022.1.2,60.00452434065863,4,
14,exp1.png,exp2.png,,1,0,1,0,0,14,14,14,,,,,,,,,,,,,,,,,,,,,,,,,False,34,35,True,exp2.png,exp1.png,trial_left_image,1,exp2.png,4,exp2.png,exp1.png,1,1,non-reversed,correct,0.6654210249283529,1,valid_win,270.4291500999825,23,,,,,,,,,,,,,,,,sub_032,2022-09-14_17h39.31.519,Reversal,2022.1.2,60.00452434065863,4,
15,exp3.png,exp4.png,,1,0,1,0,0,15,15,15,,,,,,,,,,,,,,,,,,,,,,,,,False,35,36,True,exp4.png,exp3.png,trial_left_image,1,exp4.png,4,exp4.png,exp3.png,1,3,reversed,correct,0.9713462809385561,1,valid_win,276.21245299998554,24,,,,,,,,,,,,,,,,sub_032,2022-09-14_17h39.31.519,Reversal,2022.1.2,60.00452434065863,4,
16,exp1.png,exp2.png,,1,0,1,0,0,16,16,16,,,,,,,,,,,,,,,,,,,,,,,,,False,36,37,True,exp2.png,exp1.png,trial_left_image,1,exp2.png,4,exp2.png,exp1.png,1,1,non-reversed,correct,0.6777255604266355,1,valid_win,281.91210950000095,25,,,,,,,,,,,,,,,,sub_032,2022-09-14_17h39.31.519,Reversal,2022.1.2,60.00452434065863,4,
17,exp3.png,exp4.png,,1,0,1,0,0,17,17,17,,,,,,,,,,,,,,,,,,,,,,,,,False,37,38,True,exp4.png,exp3.png,trial_left_image,1,exp4.png,4,exp4.png,exp3.png,1,3,reversed,correct,0.37102613540300033,1,valid_win,287.0453645999951,26,,,,,,,,,,,,,,,,sub_032,2022-09-14_17h39.31.519,Reversal,2022.1.2,60.00452434065863,4,
18,exp1.png,exp2.png,,1,0,1,0,0,18,18,18,,,,,,,,,,,,,,,,,,,,,,,,,False,38,39,False,exp1.png,exp2.png,trial_right_image,-1,exp2.png,4,exp2.png,exp1.png,1,1,non-reversed,correct,0.6646830943657428,1,valid_win,292.09536300000036,27,,,,,,,,,,,,,,,,sub_032,2022-09-14_17h39.31.519,Reversal,2022.1.2,60.00452434065863,4,
19,exp3.png,exp4.png,,1,0,1,0,0,19,19,19,,,,,,,,,,,,,,,,,,,,,,,,,False,39,40,True,exp4.png,exp3.png,trial_left_image,1,exp4.png,4,exp4.png,exp3.png,1,3,reversed,correct,0.22088305675843478,0,invalid_lose,297.2121332999959,27,,,,,,,,,,,,,,,,sub_032,2022-09-14_17h39.31.519,Reversal,2022.1.2,60.00452434065863,4,
20,exp1.png,exp2.png,,1,0,1,0,0,20,20,20,,,,,,,,,,,,,,,,,,,,,,,,,True,,,,,,,,,,,,,,,,,,,,,,,,,,,,,,,,,,,,sub_032,2022-09-14_17h39.31.519,Reversal,2022.1.2,60.00452434065863,4,
,,,exp1.png,1,0,1,0,,,,,0,0,0,0,0,0,0,0,,,,,,,,,,,,,,,,,,,,,,,,,,,,,,,,,,,,,,34.0,34.0,4.140007499983767,"[(34.0, 4.140007499983767)]",418.4859622999793,None,,,,,,,,,,sub_032,2022-09-14_17h39.31.519,Reversal,2022.1.2,60.00452434065863,4,
,,,exp2.png,1,0,1,0,,,,,0,0,0,0,0,1,1,1,,,,,,,,,,,,,,,,,,,,,,,,,,,,,,,,,,,,,,,72.0,2.7841247000033036,"[(72.0, 2.7841247000033036)]",424.6399080999836,None,72.0,,,,,,,,,sub_032,2022-09-14_17h39.31.519,Reversal,2022.1.2,60.00452434065863,4,
,,,exp3.png,1,0,1,0,,,,,0,0,0,0,0,2,2,2,,,,,,,,,,,,,,,,,,,,,,,,,,,,,,,,,,,,,,,72.0,3.9371685000078287,"[(72.0, 3.9371685000078287)]",429.78970559997833,None,,72.0,,,,,,,,sub_032,2022-09-14_17h39.31.519,Reversal,2022.1.2,60.00452434065863,4,
,,,exp4.png,1,0,1,0,,,,,0,0,0,0,0,3,3,3,,,,,,,,,,,,,,,,,,,,,,,,,,,,,,,,,,,,,,,75.0,2.4840966000047047,"[(75.0, 2.4840966000047047)]",435.37899440000183,None,,,75.0,,,,,,,sub_032,2022-09-14_17h39.31.519,Reversal,2022.1.2,60.00452434065863,4,
0,exp1.png,exp2.png,,2,0,2,0,0,0,0,0,,,,,,,,,,,,,,,,,,,,,,,,,False,40,41,True,exp2.png,exp1.png,trial_left_image,1,exp2.png,4,exp2.png,exp1.png,1,1,non-reversed,correct,0.9694726710388721,1,valid_win,324.04359369998565,28,,,,,,,,,,,,,,,,sub_032,2022-09-14_17h39.31.519,Reversal,2022.1.2,60.00452434065863,4,
1,exp3.png,exp4.png,,2,0,2,0,0,1,1,1,,,,,,,,,,,,,,,,,,,,,,,,,False,41,42,False,exp3.png,exp4.png,trial_right_image,-1,exp4.png,4,exp4.png,exp3.png,1,3,reversed,correct,0.4433794390008444,1,valid_win,328.9105949999939,29,,,,,,,,,,,,,,,,sub_032,2022-09-14_17h39.31.519,Reversal,2022.1.2,60.00452434065863,4,
2,exp1.png,exp2.png,,2,0,2,0,0,2,2,2,,,,,,,,,,,,,,,,,,,,,,,,,False,42,43,True,exp2.png,exp1.png,trial_left_image,1,exp2.png,4,exp2.png,exp1.png,1,1,non-reversed,correct,0.2874863711103606,1,valid_win,334.0101572999847,30,,,,,,,,,,,,,,,,sub_032,2022-09-14_17h39.31.519,Reversal,2022.1.2,60.00452434065863,4,
3,exp3.png,exp4.png,,2,0,2,0,0,3,3,3,,,,,,,,,,,,,,,,,,,,,,,,,False,43,44,False,exp3.png,exp4.png,trial_right_image,-1,exp4.png,4,exp4.png,exp3.png,1,3,reversed,correct,0.524540719857953,1,valid_win,339.2768559999822,31,,,,,,,,,,,,,,,,sub_032,2022-09-14_17h39.31.519,Reversal,2022.1.2,60.00452434065863,4,
4,exp1.png,exp2.png,,2,0,2,0,0,4,4,4,,,,,,,,,,,,,,,,,,,,,,,,,False,44,45,True,exp2.png,exp1.png,trial_left_image,1,exp2.png,4,exp2.png,exp1.png,1,1,non-reversed,correct,0.9882495985749538,1,valid_win,344.3268589999934,32,,,,,,,,,,,,,,,,sub_032,2022-09-14_17h39.31.519,Reversal,2022.1.2,60.00452434065863,4,
5,exp3.png,exp4.png,,2,0,2,0,0,5,5,5,,,,,,,,,,,,,,,,,,,,,,,,,False,45,46,False,exp3.png,exp4.png,trial_right_image,-1,exp4.png,4,exp4.png,exp3.png,1,3,reversed,correct,0.26647423122898095,1,valid_win,349.12654699999257,33,,,,,,,,,,,,,,,,sub_032,2022-09-14_17h39.31.519,Reversal,2022.1.2,60.00452434065863,4,
6,exp1.png,exp2.png,,2,0,2,0,0,6,6,6,,,,,,,,,,,,,,,,,,,,,,,,,False,46,47,False,exp1.png,exp2.png,trial_right_image,-1,exp2.png,4,exp2.png,exp1.png,1,1,non-reversed,correct,0.5653601364554274,1,valid_win,354.09317680000095,34,,,,,,,,,,,,,,,,sub_032,2022-09-14_17h39.31.519,Reversal,2022.1.2,60.00452434065863,4,
7,exp3.png,exp4.png,,2,0,2,0,0,7,7,7,,,,,,,,,,,,,,,,,,,,,,,,,False,47,48,True,exp4.png,exp3.png,trial_left_image,1,exp4.png,4,exp4.png,exp3.png,1,3,reversed,correct,0.2971250436060038,1,valid_win,359.3763546999835,35,,,,,,,,,,,,,,,,sub_032,2022-09-14_17h39.31.519,Reversal,2022.1.2,60.00452434065863,4,
8,exp1.png,exp2.png,,2,0,2,0,0,8,8,8,,,,,,,,,,,,,,,,,,,,,,,,,False,48,49,True,exp2.png,exp1.png,trial_left_image,1,exp2.png,4,exp2.png,exp1.png,1,1,non-reversed,correct,0.3663940175772743,1,valid_win,364.4096101000032,36,,,,,,,,,,,,,,,,sub_032,2022-09-14_17h39.31.519,Reversal,2022.1.2,60.00452434065863,4,
9,exp3.png,exp4.png,,2,0,2,0,0,9,9,9,,,,,,,,,,,,,,,,,,,,,,,,,False,49,50,True,exp4.png,exp3.png,trial_left_image,1,exp4.png,4,exp4.png,exp3.png,1,3,reversed,correct,0.5833086345613445,1,valid_win,369.57676109997556,37,,,,,,,,,,,,,,,,sub_032,2022-09-14_17h39.31.519,Reversal,2022.1.2,60.00452434065863,4,
10,exp1.png,exp2.png,,2,0,2,0,0,10,10,10,,,,,,,,,,,,,,,,,,,,,,,,,False,50,51,False,exp1.png,exp2.png,trial_right_image,-1,exp2.png,4,exp2.png,exp1.png,1,1,non-reversed,correct,0.24202206861099773,0,invalid_lose,374.4098576999968,37,,,,,,,,,,,,,,,,sub_032,2022-09-14_17h39.31.519,Reversal,2022.1.2,60.00452434065863,4,
11,exp3.png,exp4.png,,2,0,2,0,0,11,11,11,,,,,,,,,,,,,,,,,,,,,,,,,False,51,52,False,exp3.png,exp4.png,trial_right_image,-1,exp4.png,4,exp4.png,exp3.png,1,3,reversed,correct,0.4413622092163402,1,valid_win,379.4259578999772,38,,,,,,,,,,,,,,,,sub_032,2022-09-14_17h39.31.519,Reversal,2022.1.2,60.00452434065863,4,
12,exp1.png,exp2.png,,2,0,2,0,0,12,12,12,,,,,,,,,,,,,,,,,,,,,,,,,False,52,53,True,exp2.png,exp1.png,trial_left_image,1,exp2.png,4,exp2.png,exp1.png,1,1,non-reversed,correct,0.5424220959288693,1,valid_win,384.6594472999859,39,,,,,,,,,,,,,,,,sub_032,2022-09-14_17h39.31.519,Reversal,2022.1.2,60.00452434065863,4,
13,exp3.png,exp4.png,,2,0,2,0,0,13,13,13,,,,,,,,,,,,,,,,,,,,,,,,,False,53,54,True,exp4.png,exp3.png,trial_left_image,1,exp4.png,4,exp4.png,exp3.png,1,3,reversed,correct,0.34077764175096104,1,valid_win,389.89280489998055,40,,,,,,,,,,,,,,,,sub_032,2022-09-14_17h39.31.519,Reversal,2022.1.2,60.00452434065863,4,
14,exp1.png,exp2.png,,2,0,2,0,0,14,14,14,,,,,,,,,,,,,,,,,,,,,,,,,False,54,55,False,exp1.png,exp2.png,trial_right_image,-1,exp2.png,4,exp2.png,exp1.png,1,1,non-reversed,correct,0.04264965326686765,0,invalid_lose,394.95933220000006,40,,,,,,,,,,,,,,,,sub_032,2022-09-14_17h39.31.519,Reversal,2022.1.2,60.00452434065863,4,
15,exp3.png,exp4.png,,2,0,2,0,0,15,15,15,,,,,,,,,,,,,,,,,,,,,,,,,False,55,56,False,exp3.png,exp4.png,trial_left_image,1,exp3.png,4,exp4.png,exp3.png,0,4,reversed,incorrect,0.8235845000291478,0,valid_lose,400.07569879997754,40,,,,,,,,,,,,,,,,sub_032,2022-09-14_17h39.31.519,Reversal,2022.1.2,60.00452434065863,4,
16,exp1.png,exp2.png,,2,0,2,0,0,16,16,16,,,,,,,,,,,,,,,,,,,,,,,,,False,56,57,False,exp1.png,exp2.png,trial_right_image,-1,exp2.png,4,exp2.png,exp1.png,1,1,non-reversed,correct,0.047022806626078384,0,invalid_lose,404.64214069998707,40,,,,,,,,,,,,,,,,sub_032,2022-09-14_17h39.31.519,Reversal,2022.1.2,60.00452434065863,4,
17,exp3.png,exp4.png,,2,0,2,0,0,17,17,17,,,,,,,,,,,,,,,,,,,,,,,,,False,57,58,True,exp4.png,exp3.png,trial_right_image,-1,exp3.png,4,exp4.png,exp3.png,0,4,reversed,incorrect,0.16207450576613447,1,invalid_win,409.75897659998736,41,,,,,,,,,,,,,,,,sub_032,2022-09-14_17h39.31.519,Reversal,2022.1.2,60.00452434065863,4,
18,exp1.png,exp2.png,,2,0,2,0,0,18,18,18,,,,,,,,,,,,,,,,,,,,,,,,,False,58,59,False,exp1.png,exp2.png,trial_right_image,-1,exp2.png,4,exp2.png,exp1.png,1,1,non-reversed,correct,0.13999736827285048,0,invalid_lose,414.70899379998446,41,,,,,,,,,,,,,,,,sub_032,2022-09-14_17h39.31.519,Reversal,2022.1.2,60.00452434065863,4,
19,exp3.png,exp4.png,,2,0,2,0,0,19,19,19,,,,,,,,,,,,,,,,,,,,,,,,,False,59,60,True,exp4.png,exp3.png,trial_right_image,-1,exp3.png,4,exp4.png,exp3.png,0,4,reversed,incorrect,0.7630936882341681,0,valid_lose,420.2259466999967,41,,,,,,,,,,,,,,,,sub_032,2022-09-14_17h39.31.519,Reversal,2022.1.2,60.00452434065863,4,
20,exp1.png,exp2.png,,2,0,2,0,0,20,20,20,,,,,,,,,,,,,,,,,,,,,,,,,True,,,,,,,,,,,,,,,,,,,,,,,,,,,,,,,,,,,,sub_032,2022-09-14_17h39.31.519,Reversal,2022.1.2,60.00452434065863,4,
,,,exp1.png,2,0,2,0,,,,,0,0,0,0,0,0,0,0,,,,,,,,,,,,,,,,,,,,,,,,,,,,,,,,,,,,,,68.0,68.0,4.846761699998751,"[(68.0, 4.846761699998751)]",541.4110008999996,None,,,,,,,,,,sub_032,2022-09-14_17h39.31.519,Reversal,2022.1.2,60.00452434065863,4,
,,,exp2.png,2,0,2,0,,,,,0,0,0,0,0,1,1,1,,,,,,,,,,,,,,,,,,,,,,,,,,,,,,,,,,,,,,,67.0,3.7837546999799088,"[(67.0, 3.7837546999799088)]",547.8887091999932,None,67.0,,,,,,,,,sub_032,2022-09-14_17h39.31.519,Reversal,2022.1.2,60.00452434065863,4,
,,,exp3.png,2,0,2,0,,,,,0,0,0,0,0,2,2,2,,,,,,,,,,,,,,,,,,,,,,,,,,,,,,,,,,,,,,,33.0,2.65154099999927,"[(33.0, 2.65154099999927)]",553.256653199991,None,,33.0,,,,,,,,sub_032,2022-09-14_17h39.31.519,Reversal,2022.1.2,60.00452434065863,4,
,,,exp4.png,2,0,2,0,,,,,0,0,0,0,0,3,3,3,,,,,,,,,,,,,,,,,,,,,,,,,,,,,,,,,,,,,,,68.0,3.4508129000023473,"[(68.0, 3.4508129000023473)]",557.4596577000048,None,,,68.0,,,,,,,sub_032,2022-09-14_17h39.31.519,Reversal,2022.1.2,60.00452434065863,4,
0,exp1.png,exp2.png,,,,,,,,,,,,,,,,,,0,0,0,0,0,0,0,0,,,,,,,,,False,0,61,False,exp1.png,exp2.png,trial_right_image,-1,exp2.png,4,exp2.png,exp1.png,1,1,non-reversed,correct,0.6836316590096447,1,valid_win,446.9917535999848,42,,,,,,,,,,443.9620474999829,,,,,,sub_032,2022-09-14_17h39.31.519,Reversal,2022.1.2,60.00452434065863,4,
1,exp3.png,exp4.png,,,,,,,,,,,,,,,,,,0,0,0,0,0,1,1,1,,,,,,,,,False,1,62,False,exp3.png,exp4.png,trial_right_image,-1,exp4.png,4,exp3.png,exp4.png,1,3,reversed,incorrect,0.6882885572448728,0,valid_lose,451.87517529999604,42,,,,,,,,,,,,,,,,sub_032,2022-09-14_17h39.31.519,Reversal,2022.1.2,60.00452434065863,4,
2,exp1.png,exp2.png,,,,,,,,,,,,,,,,,,0,0,0,0,0,2,2,2,,,,,,,,,False,2,63,True,exp2.png,exp1.png,trial_left_image,1,exp2.png,4,exp2.png,exp1.png,1,1,non-reversed,correct,0.4465258068012494,1,valid_win,456.8084576999827,43,,,,,,,,,,,,,,,,sub_032,2022-09-14_17h39.31.519,Reversal,2022.1.2,60.00452434065863,4,
3,exp3.png,exp4.png,,,,,,,,,,,,,,,,,,0,0,0,0,0,3,3,3,,,,,,,,,False,3,64,True,exp4.png,exp3.png,trial_left_image,1,exp4.png,4,exp3.png,exp4.png,1,3,reversed,incorrect,0.02559098087619005,1,invalid_win,462.3585110999993,44,,,,,,,,,,,,,,,,sub_032,2022-09-14_17h39.31.519,Reversal,2022.1.2,60.00452434065863,4,
4,exp1.png,exp2.png,,,,,,,,,,,,,,,,,,0,0,0,0,0,4,4,4,,,,,,,,,False,4,65,True,exp2.png,exp1.png,trial_left_image,1,exp2.png,4,exp2.png,exp1.png,1,1,non-reversed,correct,0.7192707060320445,1,valid_win,467.3913340999861,45,,,,,,,,,,,,,,,,sub_032,2022-09-14_17h39.31.519,Reversal,2022.1.2,60.00452434065863,4,
5,exp3.png,exp4.png,,,,,,,,,,,,,,,,,,0,0,0,0,0,5,5,5,,,,,,,,,False,5,66,False,exp3.png,exp4.png,trial_right_image,-1,exp4.png,4,exp3.png,exp4.png,1,3,reversed,incorrect,0.42836513436601276,0,valid_lose,472.25788889999967,45,,,,,,,,,,,,,,,,sub_032,2022-09-14_17h39.31.519,Reversal,2022.1.2,60.00452434065863,4,
6,exp1.png,exp2.png,,,,,,,,,,,,,,,,,,0,0,0,0,0,6,6,6,,,,,,,,,False,6,67,True,exp2.png,exp1.png,trial_left_image,1,exp2.png,4,exp2.png,exp1.png,1,1,non-reversed,correct,0.35553029036176886,1,valid_win,477.5907624999818,46,,,,,,,,,,,,,,,,sub_032,2022-09-14_17h39.31.519,Reversal,2022.1.2,60.00452434065863,4,
7,exp3.png,exp4.png,,,,,,,,,,,,,,,,,,0,0,0,0,0,7,7,7,,,,,,,,,False,7,68,False,exp3.png,exp4.png,trial_right_image,-1,exp4.png,4,exp3.png,exp4.png,1,3,reversed,incorrect,0.7941692947606126,0,valid_lose,482.52388939997763,46,,,,,,,,,,,,,,,,sub_032,2022-09-14_17h39.31.519,Reversal,2022.1.2,60.00452434065863,4,
8,exp1.png,exp2.png,,,,,,,,,,,,,,,,,,0,0,0,0,0,8,8,8,,,,,,,,,False,8,69,True,exp2.png,exp1.png,trial_left_image,1,exp2.png,4,exp2.png,exp1.png,1,1,non-reversed,correct,0.4632126096845971,1,valid_win,487.47378439997556,47,,,,,,,,,,,,,,,,sub_032,2022-09-14_17h39.31.519,Reversal,2022.1.2,60.00452434065863,4,
9,exp3.png,exp4.png,,,,,,,,,,,,,,,,,,0,0,0,0,0,9,9,9,,,,,,,,,False,9,70,True,exp4.png,exp3.png,trial_right_image,-1,exp3.png,4,exp3.png,exp4.png,0,4,reversed,correct,0.6382516606278139,1,valid_win,492.2070304999943,48,,,,,,,,,,,,,,,,sub_032,2022-09-14_17h39.31.519,Reversal,2022.1.2,60.00452434065863,4,
10,exp1.png,exp2.png,,,,,,,,,,,,,,,,,,0,0,0,0,0,10,10,10,,,,,,,,,False,10,71,False,exp1.png,exp2.png,trial_right_image,-1,exp2.png,4,exp2.png,exp1.png,1,1,non-reversed,correct,0.07435261214017397,0,invalid_lose,496.9573373000021,48,,,,,,,,,,,,,,,,sub_032,2022-09-14_17h39.31.519,Reversal,2022.1.2,60.00452434065863,4,
11,exp3.png,exp4.png,,,,,,,,,,,,,,,,,,0,0,0,0,0,11,11,11,,,,,,,,,False,11,72,True,exp4.png,exp3.png,trial_left_image,1,exp4.png,4,exp3.png,exp4.png,1,3,reversed,incorrect,0.5308718416839178,0,valid_lose,502.17386680000345,48,,,,,,,,,,,,,,,,sub_032,2022-09-14_17h39.31.519,Reversal,2022.1.2,60.00452434065863,4,
12,exp1.png,exp2.png,,,,,,,,,,,,,,,,,,0,0,0,0,0,12,12,12,,,,,,,,,False,12,73,False,exp1.png,exp2.png,trial_right_image,-1,exp2.png,4,exp2.png,exp1.png,1,1,non-reversed,correct,0.375059689496655,1,valid_win,506.7911236999789,49,,,,,,,,,,,,,,,,sub_032,2022-09-14_17h39.31.519,Reversal,2022.1.2,60.00452434065863,4,
13,exp3.png,exp4.png,,,,,,,,,,,,,,,,,,0,0,0,0,0,13,13,13,,,,,,,,,False,13,74,True,exp4.png,exp3.png,trial_right_image,-1,exp3.png,4,exp3.png,exp4.png,0,4,reversed,correct,0.800982812947013,1,valid_win,512.3233369999798,50,,,,,,,,,,,,,,,,sub_032,2022-09-14_17h39.31.519,Reversal,2022.1.2,60.00452434065863,4,
14,exp1.png,exp2.png,,,,,,,,,,,,,,,,,,0,0,0,0,0,14,14,14,,,,,,,,,False,14,75,False,exp1.png,exp2.png,trial_right_image,-1,exp2.png,4,exp2.png,exp1.png,1,1,non-reversed,correct,0.7996647862132925,1,valid_win,518.4739092999953,51,,,,,,,,,,,,,,,,sub_032,2022-09-14_17h39.31.519,Reversal,2022.1.2,60.00452434065863,4,
15,exp3.png,exp4.png,,,,,,,,,,,,,,,,,,0,0,0,0,0,15,15,15,,,,,,,,,False,15,76,True,exp4.png,exp3.png,trial_left_image,1,exp4.png,4,exp3.png,exp4.png,1,3,reversed,incorrect,0.34038173922239123,0,valid_lose,524.8237953999778,51,,,,,,,,,,,,,,,,sub_032,2022-09-14_17h39.31.519,Reversal,2022.1.2,60.00452434065863,4,
16,exp1.png,exp2.png,,,,,,,,,,,,,,,,,,0,0,0,0,0,16,16,16,,,,,,,,,False,16,77,False,exp1.png,exp2.png,trial_right_image,-1,exp2.png,4,exp2.png,exp1.png,1,1,non-reversed,correct,0.48682233491254145,1,valid_win,529.5731784999953,52,,,,,,,,,,,,,,,,sub_032,2022-09-14_17h39.31.519,Reversal,2022.1.2,60.00452434065863,4,
17,exp3.png,exp4.png,,,,,,,,,,,,,,,,,,0,0,0,0,0,17,17,17,,,,,,,,,False,17,78,False,exp3.png,exp4.png,trial_right_image,-1,exp4.png,4,exp3.png,exp4.png,1,3,reversed,incorrect,0.04380252909948257,1,invalid_win,534.3735881999892,53,,,,,,,,,,,,,,,,sub_032,2022-09-14_17h39.31.519,Reversal,2022.1.2,60.00452434065863,4,
18,exp1.png,exp2.png,,,,,,,,,,,,,,,,,,0,0,0,0,0,18,18,18,,,,,,,,,False,18,79,True,exp2.png,exp1.png,trial_left_image,1,exp2.png,4,exp2.png,exp1.png,1,1,non-reversed,correct,0.006995772197850192,0,invalid_lose,539.5231434000016,53,,,,,,,,,,,,,,,,sub_032,2022-09-14_17h39.31.519,Reversal,2022.1.2,60.00452434065863,4,
19,exp3.png,exp4.png,,,,,,,,,,,,,,,,,,0,0,0,0,0,19,19,19,,,,,,,,,False,19,80,False,exp3.png,exp4.png,trial_right_image,-1,exp4.png,4,exp3.png,exp4.png,1,3,reversed,incorrect,0.9720421014835451,0,valid_lose,544.4394718999974,53,,,,,,,,,,,,,,,,sub_032,2022-09-14_17h39.31.519,Reversal,2022.1.2,60.00452434065863,4,
20,exp1.png,exp2.png,,,,,,,,,,,,,,,,,,0,0,0,0,0,20,20,20,,,,,,,,,True,,,,,,,,,,,,,,,,,,,,,,,,,,,,,,,,,,,,sub_032,2022-09-14_17h39.31.519,Reversal,2022.1.2,60.00452434065863,4,
,,,exp1.png,,,,,,,,,,,,,,,,,0,0,0,0,,,,,0,0,0,0,0,0,0,0,,,,,,,,,,,,,,,,,,,,,,35.0,35.0,2.7314537999918684,"[(35.0, 2.7314537999918684)]",665.6244044999767,None,,,,,,,,,,sub_032,2022-09-14_17h39.31.519,Reversal,2022.1.2,60.00452434065863,4,
,,,exp2.png,,,,,,,,,,,,,,,,,0,0,0,0,,,,,0,0,0,0,0,1,1,1,,,,,,,,,,,,,,,,,,,,,,,31.0,3.368182700010948,"[(31.0, 3.368182700010948)]",669.9684345999849,None,31.0,,,,,,,,,sub_032,2022-09-14_17h39.31.519,Reversal,2022.1.2,60.00452434065863,4,
,,,exp3.png,,,,,,,,,,,,,,,,,0,0,0,0,,,,,0,0,0,0,0,2,2,2,,,,,,,,,,,,,,,,,,,,,,,76.0,2.0509571000002325,"[(76.0, 2.0509571000002325)]",675.1035273000016,None,,76.0,,,,,,,,sub_032,2022-09-14_17h39.31.519,Reversal,2022.1.2,60.00452434065863,4,
,,,exp4.png,,,,,,,,,,,,,,,,,0,0,0,0,,,,,0,0,0,0,0,3,3,3,,,,,,,,,,,,,,,,,,,,,,,71.0,3.9348116999899503,"[(71.0, 3.9348116999899503)]",679.053136499977,None,,,71.0,,,,,,,sub_032,2022-09-14_17h39.31.519,Reversal,2022.1.2,60.00452434065863,4,
0,exp1.png,exp2.png,,,,,,,,,,,,,,,,,,1,0,1,0,0,0,0,0,,,,,,,,,False,20,81,False,exp1.png,exp2.png,trial_right_image,-1,exp2.png,4,exp2.png,exp1.png,1,1,non-reversed,correct,0.5852433923411547,1,valid_win,568.9395288999949,54,,,,,,,,,,,,,,,,sub_032,2022-09-14_17h39.31.519,Reversal,2022.1.2,60.00452434065863,4,
1,exp3.png,exp4.png,,,,,,,,,,,,,,,,,,1,0,1,0,0,1,1,1,,,,,,,,,False,21,82,True,exp4.png,exp3.png,trial_left_image,1,exp4.png,4,exp3.png,exp4.png,1,3,reversed,incorrect,0.7456807256995734,0,valid_lose,574.1225537999999,54,,,,,,,,,,,,,,,,sub_032,2022-09-14_17h39.31.519,Reversal,2022.1.2,60.00452434065863,4,
2,exp1.png,exp2.png,,,,,,,,,,,,,,,,,,1,0,1,0,0,2,2,2,,,,,,,,,False,22,83,True,exp2.png,exp1.png,trial_right_image,-1,exp1.png,4,exp2.png,exp1.png,0,2,non-reversed,incorrect,0.30386515272546955,0,valid_lose,579.0396016000013,54,,,,,,,,,,,,,,,,sub_032,2022-09-14_17h39.31.519,Reversal,2022.1.2,60.00452434065863,4,
3,exp3.png,exp4.png,,,,,,,,,,,,,,,,,,1,0,1,0,0,3,3,3,,,,,,,,,False,23,84,False,exp3.png,exp4.png,trial_right_image,-1,exp4.png,4,exp3.png,exp4.png,1,3,reversed,incorrect,0.3229756100832194,0,valid_lose,584.2559369999799,54,,,,,,,,,,,,,,,,sub_032,2022-09-14_17h39.31.519,Reversal,2022.1.2,60.00452434065863,4,
4,exp1.png,exp2.png,,,,,,,,,,,,,,,,,,1,0,1,0,0,4,4,4,,,,,,,,,False,24,85,True,exp2.png,exp1.png,trial_left_image,1,exp2.png,4,exp2.png,exp1.png,1,1,non-reversed,correct,0.038200349597348526,0,invalid_lose,589.4226518999785,54,,,,,,,,,,,,,,,,sub_032,2022-09-14_17h39.31.519,Reversal,2022.1.2,60.00452434065863,4,
5,exp3.png,exp4.png,,,,,,,,,,,,,,,,,,1,0,1,0,0,5,5,5,,,,,,,,,False,25,86,True,exp4.png,exp3.png,trial_left_image,1,exp4.png,4,exp3.png,exp4.png,1,3,reversed,incorrect,0.5878747936648432,0,valid_lose,594.4553665999847,54,,,,,,,,,,,,,,,,sub_032,2022-09-14_17h39.31.519,Reversal,2022.1.2,60.00452434065863,4,
6,exp1.png,exp2.png,,,,,,,,,,,,,,,,,,1,0,1,0,0,6,6,6,,,,,,,,,False,26,87,False,exp1.png,exp2.png,trial_right_image,-1,exp2.png,4,exp2.png,exp1.png,1,1,non-reversed,correct,0.9187311535927416,1,valid_win,599.0221386999765,55,,,,,,,,,,,,,,,,sub_032,2022-09-14_17h39.31.519,Reversal,2022.1.2,60.00452434065863,4,
7,exp3.png,exp4.png,,,,,,,,,,,,,,,,,,1,0,1,0,0,7,7,7,,,,,,,,,False,27,88,True,exp4.png,exp3.png,trial_left_image,1,exp4.png,4,exp3.png,exp4.png,1,3,reversed,incorrect,0.1494747749205858,1,invalid_win,604.2050684999849,56,,,,,,,,,,,,,,,,sub_032,2022-09-14_17h39.31.519,Reversal,2022.1.2,60.00452434065863,4,
8,exp1.png,exp2.png,,,,,,,,,,,,,,,,,,1,0,1,0,0,8,8,8,,,,,,,,,False,28,89,False,exp1.png,exp2.png,trial_right_image,-1,exp2.png,4,exp2.png,exp1.png,1,1,non-reversed,correct,0.7513036605202488,1,valid_win,609.0219804999942,57,,,,,,,,,,,,,,,,sub_032,2022-09-14_17h39.31.519,Reversal,2022.1.2,60.00452434065863,4,
9,exp3.png,exp4.png,,,,,,,,,,,,,,,,,,1,0,1,0,0,9,9,9,,,,,,,,,False,29,90,True,exp4.png,exp3.png,trial_left_image,1,exp4.png,4,exp3.png,exp4.png,1,3,reversed,incorrect,0.41861545073065687,0,valid_lose,614.2386083999882,57,,,,,,,,,,,,,,,,sub_032,2022-09-14_17h39.31.519,Reversal,2022.1.2,60.00452434065863,4,
10,exp1.png,exp2.png,,,,,,,,,,,,,,,,,,1,0,1,0,0,10,10,10,,,,,,,,,False,30,91,True,exp2.png,exp1.png,trial_left_image,1,exp2.png,4,exp2.png,exp1.png,1,1,non-reversed,correct,0.8803144874805651,1,valid_win,619.9386120999989,58,,,,,,,,,,,,,,,,sub_032,2022-09-14_17h39.31.519,Reversal,2022.1.2,60.00452434065863,4,
11,exp3.png,exp4.png,,,,,,,,,,,,,,,,,,1,0,1,0,0,11,11,11,,,,,,,,,False,31,92,False,exp3.png,exp4.png,trial_right_image,-1,exp4.png,4,exp3.png,exp4.png,1,3,reversed,incorrect,0.3548128554152846,0,valid_lose,624.8218493000022,58,,,,,,,,,,,,,,,,sub_032,2022-09-14_17h39.31.519,Reversal,2022.1.2,60.00452434065863,4,
12,exp1.png,exp2.png,,,,,,,,,,,,,,,,,,1,0,1,0,0,12,12,12,,,,,,,,,False,32,93,False,exp1.png,exp2.png,trial_right_image,-1,exp2.png,4,exp2.png,exp1.png,1,1,non-reversed,correct,0.33619877850213253,1,valid_win,629.7722237999842,59,,,,,,,,,,,,,,,,sub_032,2022-09-14_17h39.31.519,Reversal,2022.1.2,60.00452434065863,4,
13,exp3.png,exp4.png,,,,,,,,,,,,,,,,,,1,0,1,0,0,13,13,13,,,,,,,,,False,33,94,False,exp3.png,exp4.png,trial_right_image,-1,exp4.png,4,exp3.png,exp4.png,1,3,reversed,incorrect,0.4168202483457373,0,valid_lose,634.6383076999919,59,,,,,,,,,,,,,,,,sub_032,2022-09-14_17h39.31.519,Reversal,2022.1.2,60.00452434065863,4,
14,exp1.png,exp2.png,,,,,,,,,,,,,,,,,,1,0,1,0,0,14,14,14,,,,,,,,,False,34,95,True,exp2.png,exp1.png,trial_right_image,-1,exp1.png,4,exp2.png,exp1.png,0,2,non-reversed,incorrect,0.6095140009491111,0,valid_lose,639.5548624999938,59,,,,,,,,,,,,,,,,sub_032,2022-09-14_17h39.31.519,Reversal,2022.1.2,60.00452434065863,4,
15,exp3.png,exp4.png,,,,,,,,,,,,,,,,,,1,0,1,0,0,15,15,15,,,,,,,,,False,35,96,True,exp4.png,exp3.png,trial_left_image,1,exp4.png,4,exp3.png,exp4.png,1,3,reversed,incorrect,0.010874707367998893,1,invalid_win,644.2047319999838,60,,,,,,,,,,,,,,,,sub_032,2022-09-14_17h39.31.519,Reversal,2022.1.2,60.00452434065863,4,
16,exp1.png,exp2.png,,,,,,,,,,,,,,,,,,1,0,1,0,0,16,16,16,,,,,,,,,False,36,97,False,exp1.png,exp2.png,trial_right_image,-1,exp2.png,4,exp2.png,exp1.png,1,1,non-reversed,correct,0.8493592920046855,1,valid_win,649.170994199987,61,,,,,,,,,,,,,,,,sub_032,2022-09-14_17h39.31.519,Reversal,2022.1.2,60.00452434065863,4,
17,exp3.png,exp4.png,,,,,,,,,,,,,,,,,,1,0,1,0,0,17,17,17,,,,,,,,,False,37,98,False,exp3.png,exp4.png,trial_right_image,-1,exp4.png,4,exp3.png,exp4.png,1,3,reversed,incorrect,0.5767764821392203,0,valid_lose,654.1044365999987,61,,,,,,,,,,,,,,,,sub_032,2022-09-14_17h39.31.519,Reversal,2022.1.2,60.00452434065863,4,
18,exp1.png,exp2.png,,,,,,,,,,,,,,,,,,1,0,1,0,0,18,18,18,,,,,,,,,False,38,99,False,exp1.png,exp2.png,trial_left_image,1,exp1.png,4,exp2.png,exp1.png,0,2,non-reversed,incorrect,0.919524768384905,0,valid_lose,659.5878205999907,61,,,,,,,,,,,,,,,,sub_032,2022-09-14_17h39.31.519,Reversal,2022.1.2,60.00452434065863,4,
19,exp3.png,exp4.png,,,,,,,,,,,,,,,,,,1,0,1,0,0,19,19,19,,,,,,,,,False,39,100,True,exp4.png,exp3.png,trial_left_image,1,exp4.png,4,exp3.png,exp4.png,1,3,reversed,incorrect,0.5175035684770599,0,valid_lose,664.8876006999926,61,,,,,,,,,,,,,,,,sub_032,2022-09-14_17h39.31.519,Reversal,2022.1.2,60.00452434065863,4,
20,exp1.png,exp2.png,,,,,,,,,,,,,,,,,,1,0,1,0,0,20,20,20,,,,,,,,,True,,,,,,,,,,,,,,,,,,,,,,,,,,,,,,,,,,,,sub_032,2022-09-14_17h39.31.519,Reversal,2022.1.2,60.00452434065863,4,
,,,exp1.png,,,,,,,,,,,,,,,,,1,0,1,0,,,,,0,0,0,0,0,0,0,0,,,,,,,,,,,,,,,,,,,,,,82.0,82.0,3.0308314000139944,"[(82.0, 3.0308314000139944)]",786.1030244999856,None,,,,,,,,,,sub_032,2022-09-14_17h39.31.519,Reversal,2022.1.2,60.00452434065863,4,
,,,exp2.png,,,,,,,,,,,,,,,,,1,0,1,0,,,,,0,0,0,0,0,1,1,1,,,,,,,,,,,,,,,,,,,,,,,65.0,2.752529899997171,"[(65.0, 2.752529899997171)]",791.1832542999764,None,65.0,,,,,,,,,sub_032,2022-09-14_17h39.31.519,Reversal,2022.1.2,60.00452434065863,4,
,,,exp3.png,,,,,,,,,,,,,,,,,1,0,1,0,,,,,0,0,0,0,0,2,2,2,,,,,,,,,,,,,,,,,,,,,,,26.0,1.6042713999922853,"[(26.0, 1.6042713999922853)]",795.4496740000031,None,,26.0,,,,,,,,sub_032,2022-09-14_17h39.31.519,Reversal,2022.1.2,60.00452434065863,4,
,,,exp4.png,,,,,,,,,,,,,,,,,1,0,1,0,,,,,0,0,0,0,0,3,3,3,,,,,,,,,,,,,,,,,,,,,,,67.0,2.367896200012183,"[(67.0, 2.367896200012183)]",798.5499280999938,None,,,67.0,,,,,,,sub_032,2022-09-14_17h39.31.519,Reversal,2022.1.2,60.00452434065863,4,
0,exp1.png,exp2.png,,,,,,,,,,,,,,,,,,2,0,2,0,0,0,0,0,,,,,,,,,False,40,101,True,exp2.png,exp1.png,trial_right_image,-1,exp1.png,4,exp2.png,exp1.png,0,2,non-reversed,incorrect,0.9405611043700669,0,valid_lose,687.1209478999954,61,,,,,,,,,,,,,,,,sub_032,2022-09-14_17h39.31.519,Reversal,2022.1.2,60.00452434065863,4,
1,exp3.png,exp4.png,,,,,,,,,,,,,,,,,,2,0,2,0,0,1,1,1,,,,,,,,,False,41,102,False,exp3.png,exp4.png,trial_right_image,-1,exp4.png,4,exp3.png,exp4.png,1,3,reversed,incorrect,0.4498912740511455,0,valid_lose,692.8705226999882,61,,,,,,,,,,,,,,,,sub_032,2022-09-14_17h39.31.519,Reversal,2022.1.2,60.00452434065863,4,
2,exp1.png,exp2.png,,,,,,,,,,,,,,,,,,2,0,2,0,0,2,2,2,,,,,,,,,False,42,103,False,exp1.png,exp2.png,trial_right_image,-1,exp2.png,4,exp2.png,exp1.png,1,1,non-reversed,correct,0.08749552023665264,0,invalid_lose,698.0704652999993,61,,,,,,,,,,,,,,,,sub_032,2022-09-14_17h39.31.519,Reversal,2022.1.2,60.00452434065863,4,
3,exp3.png,exp4.png,,,,,,,,,,,,,,,,,,2,0,2,0,0,3,3,3,,,,,,,,,False,43,104,False,exp3.png,exp4.png,trial_left_image,1,exp3.png,4,exp3.png,exp4.png,0,4,reversed,correct,0.02659770756077895,0,invalid_lose,703.4868092999968,61,,,,,,,,,,,,,,,,sub_032,2022-09-14_17h39.31.519,Reversal,2022.1.2,60.00452434065863,4,
4,exp1.png,exp2.png,,,,,,,,,,,,,,,,,,2,0,2,0,0,4,4,4,,,,,,,,,False,44,105,True,exp2.png,exp1.png,trial_right_image,-1,exp1.png,4,exp2.png,exp1.png,0,2,non-reversed,incorrect,0.10658267927232101,1,invalid_win,708.0699259999965,62,,,,,,,,,,,,,,,,sub_032,2022-09-14_17h39.31.519,Reversal,2022.1.2,60.00452434065863,4,
5,exp3.png,exp4.png,,,,,,,,,,,,,,,,,,2,0,2,0,0,5,5,5,,,,,,,,,False,45,106,True,exp4.png,exp3.png,trial_left_image,1,exp4.png,4,exp3.png,exp4.png,1,3,reversed,incorrect,0.4865930196159859,0,valid_lose,713.3367843999877,62,,,,,,,,,,,,,,,,sub_032,2022-09-14_17h39.31.519,Reversal,2022.1.2,60.00452434065863,4,
6,exp1.png,exp2.png,,,,,,,,,,,,,,,,,,2,0,2,0,0,6,6,6,,,,,,,,,False,46,107,False,exp1.png,exp2.png,trial_right_image,-1,exp2.png,4,exp2.png,exp1.png,1,1,non-reversed,correct,0.7475805113538625,1,valid_win,718.2532000999781,63,,,,,,,,,,,,,,,,sub_032,2022-09-14_17h39.31.519,Reversal,2022.1.2,60.00452434065863,4,
7,exp3.png,exp4.png,,,,,,,,,,,,,,,,,,2,0,2,0,0,7,7,7,,,,,,,,,False,47,108,False,exp3.png,exp4.png,trial_right_image,-1,exp4.png,4,exp3.png,exp4.png,1,3,reversed,incorrect,0.09152953669161457,1,invalid_win,723.3368702000007,64,,,,,,,,,,,,,,,,sub_032,2022-09-14_17h39.31.519,Reversal,2022.1.2,60.00452434065863,4,
8,exp1.png,exp2.png,,,,,,,,,,,,,,,,,,2,0,2,0,0,8,8,8,,,,,,,,,False,48,109,True,exp2.png,exp1.png,trial_left_image,1,exp2.png,4,exp2.png,exp1.png,1,1,non-reversed,correct,0.5712244877357956,1,valid_win,728.6697903999884,65,,,,,,,,,,,,,,,,sub_032,2022-09-14_17h39.31.519,Reversal,2022.1.2,60.00452434065863,4,
9,exp3.png,exp4.png,,,,,,,,,,,,,,,,,,2,0,2,0,0,9,9,9,,,,,,,,,False,49,110,True,exp4.png,exp3.png,trial_left_image,1,exp4.png,4,exp3.png,exp4.png,1,3,reversed,incorrect,0.37764348036378215,0,valid_lose,733.8031625000003,65,,,,,,,,,,,,,,,,sub_032,2022-09-14_17h39.31.519,Reversal,2022.1.2,60.00452434065863,4,
10,exp1.png,exp2.png,,,,,,,,,,,,,,,,,,2,0,2,0,0,10,10,10,,,,,,,,,False,50,111,False,exp1.png,exp2.png,trial_right_image,-1,exp2.png,4,exp2.png,exp1.png,1,1,non-reversed,correct,0.9128387638852045,1,valid_win,738.7540789999766,66,,,,,,,,,,,,,,,,sub_032,2022-09-14_17h39.31.519,Reversal,2022.1.2,60.00452434065863,4,
11,exp3.png,exp4.png,,,,,,,,,,,,,,,,,,2,0,2,0,0,11,11,11,,,,,,,,,False,51,112,True,exp4.png,exp3.png,trial_left_image,1,exp4.png,4,exp3.png,exp4.png,1,3,reversed,incorrect,0.0018880182492894138,1,invalid_win,744.0527097999875,67,,,,,,,,,,,,,,,,sub_032,2022-09-14_17h39.31.519,Reversal,2022.1.2,60.00452434065863,4,
12,exp1.png,exp2.png,,,,,,,,,,,,,,,,,,2,0,2,0,0,12,12,12,,,,,,,,,False,52,113,True,exp2.png,exp1.png,trial_left_image,1,exp2.png,4,exp2.png,exp1.png,1,1,non-reversed,correct,0.65483592112339,1,valid_win,749.3864918999898,68,,,,,,,,,,,,,,,,sub_032,2022-09-14_17h39.31.519,Reversal,2022.1.2,60.00452434065863,4,
13,exp3.png,exp4.png,,,,,,,,,,,,,,,,,,2,0,2,0,0,13,13,13,,,,,,,,,False,53,114,False,exp3.png,exp4.png,trial_right_image,-1,exp4.png,4,exp3.png,exp4.png,1,3,reversed,incorrect,0.9324346816483373,0,valid_lose,754.7694132000033,68,,,,,,,,,,,,,,,,sub_032,2022-09-14_17h39.31.519,Reversal,2022.1.2,60.00452434065863,4,
14,exp1.png,exp2.png,,,,,,,,,,,,,,,,,,2,0,2,0,0,14,14,14,,,,,,,,,False,54,115,True,exp2.png,exp1.png,trial_left_image,1,exp2.png,4,exp2.png,exp1.png,1,1,non-reversed,correct,0.03617101524305988,0,invalid_lose,760.0524820999999,68,,,,,,,,,,,,,,,,sub_032,2022-09-14_17h39.31.519,Reversal,2022.1.2,60.00452434065863,4,
15,exp3.png,exp4.png,,,,,,,,,,,,,,,,,,2,0,2,0,0,15,15,15,,,,,,,,,False,55,116,False,exp3.png,exp4.png,trial_right_image,-1,exp4.png,4,exp3.png,exp4.png,1,3,reversed,incorrect,0.831888640000299,0,valid_lose,764.902656899998,68,,,,,,,,,,,,,,,,sub_032,2022-09-14_17h39.31.519,Reversal,2022.1.2,60.00452434065863,4,
16,exp1.png,exp2.png,,,,,,,,,,,,,,,,,,2,0,2,0,0,16,16,16,,,,,,,,,False,56,117,True,exp2.png,exp1.png,trial_right_image,-1,exp1.png,4,exp2.png,exp1.png,0,2,non-reversed,incorrect,0.8491862896368052,0,valid_lose,769.9030303999898,68,,,,,,,,,,,,,,,,sub_032,2022-09-14_17h39.31.519,Reversal,2022.1.2,60.00452434065863,4,
17,exp3.png,exp4.png,,,,,,,,,,,,,,,,,,2,0,2,0,0,17,17,17,,,,,,,,,False,57,118,True,exp4.png,exp3.png,trial_right_image,-1,exp3.png,4,exp3.png,exp4.png,0,4,reversed,correct,0.5206777663191205,1,valid_win,775.4189193999919,69,,,,,,,,,,,,,,,,sub_032,2022-09-14_17h39.31.519,Reversal,2022.1.2,60.00452434065863,4,
18,exp1.png,exp2.png,,,,,,,,,,,,,,,,,,2,0,2,0,0,18,18,18,,,,,,,,,False,58,119,False,exp1.png,exp2.png,trial_right_image,-1,exp2.png,4,exp2.png,exp1.png,1,1,non-reversed,correct,0.5719357634945303,1,valid_win,780.3193169999868,70,,,,,,,,,,,,,,,,sub_032,2022-09-14_17h39.31.519,Reversal,2022.1.2,60.00452434065863,4,
19,exp3.png,exp4.png,,,,,,,,,,,,,,,,,,2,0,2,0,0,19,19,19,,,,,,,,,False,59,120,False,exp3.png,exp4.png,trial_right_image,-1,exp4.png,4,exp3.png,exp4.png,1,3,reversed,incorrect,0.9808695694000388,0,valid_lose,785.3686170000001,70,,,,,,,,,,,,,,,,sub_032,2022-09-14_17h39.31.519,Reversal,2022.1.2,60.00452434065863,4,
20,exp1.png,exp2.png,,,,,,,,,,,,,,,,,,2,0,2,0,0,20,20,20,,,,,,,,,True,,,,,,,,,,,,,,,,,,,,,,,,,,,,,,,,,,,,sub_032,2022-09-14_17h39.31.519,Reversal,2022.1.2,60.00452434065863,4,
,,,exp1.png,,,,,,,,,,,,,,,,,2,0,2,0,,,,,0,0,0,0,0,0,0,0,,,,,,,,,,,,,,,,,,,,,,78.0,78.0,2.577218799997354,"[(78.0, 2.577218799997354)]",906.5746429999999,None,,,,,,,,,,sub_032,2022-09-14_17h39.31.519,Reversal,2022.1.2,60.00452434065863,4,
,,,exp2.png,,,,,,,,,,,,,,,,,2,0,2,0,,,,,0,0,0,0,0,1,1,1,,,,,,,,,,,,,,,,,,,,,,,71.0,2.2522876000148244,"[(71.0, 2.2522876000148244)]",910.8661124999926,None,71.0,,,,,,,,,sub_032,2022-09-14_17h39.31.519,Reversal,2022.1.2,60.00452434065863,4,
,,,exp3.png,,,,,,,,,,,,,,,,,2,0,2,0,,,,,0,0,0,0,0,2,2,2,,,,,,,,,,,,,,,,,,,,,,,29.0,1.9846644999925047,"[(29.0, 1.9846644999925047)]",914.7327282000042,None,,29.0,,,,,,,,sub_032,2022-09-14_17h39.31.519,Reversal,2022.1.2,60.00452434065863,4,
,,,exp4.png,,,,,,,,,,,,,,,,,2,0,2,0,,,,,0,0,0,0,0,3,3,3,,,,,,,,,,,,,,,,,,,,,,,66.0,2.935812599986093,"[(66.0, 2.935812599986093)]",918.2325820999977,None,,,66.0,,,,,,,sub_032,2022-09-14_17h39.31.519,Reversal,2022.1.2,60.00452434065863,4,
,,,,,,,,,,,,,,,,,,,,,,,,,,,,,,,,,,,,,,,,,,,,,,,,,,,,,,,,70,,,,,,,,,,,81,53,28,360.07446780000464,0,,,,,,,
