trial_index,trial_image1_file,trial_image2_file,image_file,learning_outer_loop.thisRepN,learning_outer_loop.thisTrialN,learning_outer_loop.thisN,learning_outer_loop.thisIndex,learning_inner_loop.thisRepN,learning_inner_loop.thisTrialN,learning_inner_loop.thisN,learning_inner_loop.thisIndex,learning_estimation_outer_loop.thisRepN,learning_estimation_outer_loop.thisTrialN,learning_estimation_outer_loop.thisN,learning_estimation_outer_loop.thisIndex,learning_estimation_inner_loop.thisRepN,learning_estimation_inner_loop.thisTrialN,learning_estimation_inner_loop.thisN,learning_estimation_inner_loop.thisIndex,reversal_outer_loop.thisRepN,reversal_outer_loop.thisTrialN,reversal_outer_loop.thisN,reversal_outer_loop.thisIndex,reversal_inner_loop.thisRepN,reversal_inner_loop.thisTrialN,reversal_inner_loop.thisN,reversal_inner_loop.thisIndex,reversal_estimation_outer_loop.thisRepN,reversal_estimation_outer_loop.thisTrialN,reversal_estimation_outer_loop.thisN,reversal_estimation_outer_loop.thisIndex,reversal_estimation_inner_loop.thisRepN,reversal_estimation_inner_loop.thisTrialN,reversal_estimation_inner_loop.thisN,reversal_estimation_inner_loop.thisIndex,skipped,total_trial_counter,trial_num,left_right_flip,left_image_file,right_image_file,clicked_stimulus_side,side,clicked_stimulus,version,high_prob_image_file,low_prob_image_file,choice_a,choice_b,pair_type,correct,trial_feedback_random,reward,trial_type,overall_time_after_trial,score,estimation_rating.started,estimation_exp1.png,estimation_rating.response,estimation_rating.rt,estimation_rating.history,estimation_exp3.png,estimation_exp4.png,estimation_exp2.png,total_learning_time,total_correct,learning_correct,reversal_correct,total_reversal_time,extra_block,participant,date,expName,psychopyVersion,frameRate,ver,
0,exp1.png,exp2.png,,0,0,0,0,0,0,0,0,,,,,,,,,,,,,,,,,,,,,,,,,False,0,1,True,exp2.png,exp1.png,trial_right_image,-1,exp1.png,3,exp2.png,exp1.png,0,4,reversed,incorrect,0.45130624157341814,0,valid_lose,3.464408300118521,0,,,,,,,,,,,,,,,sub_1003,2025-01-19_10h52.46.167,Reversal,2023.1.3,60.02872970324444,3,
1,exp3.png,exp4.png,,0,0,0,0,0,1,1,1,,,,,,,,,,,,,,,,,,,,,,,,,False,1,2,False,exp3.png,exp4.png,trial_left_image,1,exp3.png,3,exp4.png,exp3.png,0,2,non-reversed,incorrect,0.3159951482215425,0,valid_lose,8.4793198001571,0,,,,,,,,,,,,,,,sub_1003,2025-01-19_10h52.46.167,Reversal,2023.1.3,60.02872970324444,3,
2,exp1.png,exp2.png,,0,0,0,0,0,2,2,2,,,,,,,,,,,,,,,,,,,,,,,,,False,2,3,True,exp2.png,exp1.png,trial_left_image,1,exp2.png,3,exp2.png,exp1.png,1,3,reversed,correct,0.6693446909675187,1,valid_win,13.610797300003469,1,,,,,,,,,,,,,,,sub_1003,2025-01-19_10h52.46.167,Reversal,2023.1.3,60.02872970324444,3,
3,exp3.png,exp4.png,,0,0,0,0,0,3,3,3,,,,,,,,,,,,,,,,,,,,,,,,,False,3,4,False,exp3.png,exp4.png,trial_right_image,-1,exp4.png,3,exp4.png,exp3.png,1,1,non-reversed,correct,0.38542547583971465,1,valid_win,17.92615450010635,2,,,,,,,,,,,,,,,sub_1003,2025-01-19_10h52.46.167,Reversal,2023.1.3,60.02872970324444,3,
4,exp1.png,exp2.png,,0,0,0,0,0,4,4,4,,,,,,,,,,,,,,,,,,,,,,,,,False,4,5,False,exp1.png,exp2.png,trial_left_image,1,exp1.png,3,exp2.png,exp1.png,0,4,reversed,incorrect,0.6716397187675563,0,valid_lose,22.541143600130454,2,,,,,,,,,,,,,,,sub_1003,2025-01-19_10h52.46.167,Reversal,2023.1.3,60.02872970324444,3,
5,exp3.png,exp4.png,,0,0,0,0,0,5,5,5,,,,,,,,,,,,,,,,,,,,,,,,,False,5,6,True,exp4.png,exp3.png,trial_left_image,1,exp4.png,3,exp4.png,exp3.png,1,1,non-reversed,correct,0.541988643569418,1,valid_win,27.856315000215545,3,,,,,,,,,,,,,,,sub_1003,2025-01-19_10h52.46.167,Reversal,2023.1.3,60.02872970324444,3,
6,exp1.png,exp2.png,,0,0,0,0,0,6,6,6,,,,,,,,,,,,,,,,,,,,,,,,,False,6,7,True,exp2.png,exp1.png,trial_right_image,-1,exp1.png,3,exp2.png,exp1.png,0,4,reversed,incorrect,0.4037094319218065,0,valid_lose,32.98721440020017,3,,,,,,,,,,,,,,,sub_1003,2025-01-19_10h52.46.167,Reversal,2023.1.3,60.02872970324444,3,
7,exp3.png,exp4.png,,0,0,0,0,0,7,7,7,,,,,,,,,,,,,,,,,,,,,,,,,False,7,8,False,exp3.png,exp4.png,trial_right_image,-1,exp4.png,3,exp4.png,exp3.png,1,1,non-reversed,correct,0.5886688439707214,1,valid_win,37.46915590018034,4,,,,,,,,,,,,,,,sub_1003,2025-01-19_10h52.46.167,Reversal,2023.1.3,60.02872970324444,3,
8,exp1.png,exp2.png,,0,0,0,0,0,8,8,8,,,,,,,,,,,,,,,,,,,,,,,,,False,8,9,True,exp2.png,exp1.png,trial_left_image,1,exp2.png,3,exp2.png,exp1.png,1,3,reversed,correct,0.22143541386942467,0,invalid_lose,42.31746689998545,4,,,,,,,,,,,,,,,sub_1003,2025-01-19_10h52.46.167,Reversal,2023.1.3,60.02872970324444,3,
9,exp3.png,exp4.png,,0,0,0,0,0,9,9,9,,,,,,,,,,,,,,,,,,,,,,,,,False,9,10,True,exp4.png,exp3.png,trial_left_image,1,exp4.png,3,exp4.png,exp3.png,1,1,non-reversed,correct,0.33538387248242096,1,valid_win,48.1492541001644,5,,,,,,,,,,,,,,,sub_1003,2025-01-19_10h52.46.167,Reversal,2023.1.3,60.02872970324444,3,
10,exp1.png,exp2.png,,0,0,0,0,0,10,10,10,,,,,,,,,,,,,,,,,,,,,,,,,False,10,11,False,exp1.png,exp2.png,trial_left_image,1,exp1.png,3,exp2.png,exp1.png,0,4,reversed,incorrect,0.16100983129507895,1,invalid_win,52.94735270016827,6,,,,,,,,,,,,,,,sub_1003,2025-01-19_10h52.46.167,Reversal,2023.1.3,60.02872970324444,3,
11,exp3.png,exp4.png,,0,0,0,0,0,11,11,11,,,,,,,,,,,,,,,,,,,,,,,,,False,11,12,True,exp4.png,exp3.png,trial_left_image,1,exp4.png,3,exp4.png,exp3.png,1,1,non-reversed,correct,0.07815312384694062,0,invalid_lose,57.74605710012838,6,,,,,,,,,,,,,,,sub_1003,2025-01-19_10h52.46.167,Reversal,2023.1.3,60.02872970324444,3,
12,exp1.png,exp2.png,,0,0,0,0,0,12,12,12,,,,,,,,,,,,,,,,,,,,,,,,,False,12,13,False,exp1.png,exp2.png,trial_right_image,-1,exp2.png,3,exp2.png,exp1.png,1,3,reversed,correct,0.12901933685663103,0,invalid_lose,63.827059800038114,6,,,,,,,,,,,,,,,sub_1003,2025-01-19_10h52.46.167,Reversal,2023.1.3,60.02872970324444,3,
13,exp3.png,exp4.png,,0,0,0,0,0,13,13,13,,,,,,,,,,,,,,,,,,,,,,,,,False,13,14,False,exp3.png,exp4.png,trial_right_image,-1,exp4.png,3,exp4.png,exp3.png,1,1,non-reversed,correct,0.017106582440875928,0,invalid_lose,69.2917701001279,6,,,,,,,,,,,,,,,sub_1003,2025-01-19_10h52.46.167,Reversal,2023.1.3,60.02872970324444,3,
14,exp1.png,exp2.png,,0,0,0,0,0,14,14,14,,,,,,,,,,,,,,,,,,,,,,,,,False,14,15,False,exp1.png,exp2.png,trial_right_image,-1,exp2.png,3,exp2.png,exp1.png,1,3,reversed,correct,0.35125096956241053,1,valid_win,77.32261350005865,7,,,,,,,,,,,,,,,sub_1003,2025-01-19_10h52.46.167,Reversal,2023.1.3,60.02872970324444,3,
15,exp3.png,exp4.png,,0,0,0,0,0,15,15,15,,,,,,,,,,,,,,,,,,,,,,,,,False,15,16,True,exp4.png,exp3.png,trial_right_image,-1,exp3.png,3,exp4.png,exp3.png,0,2,non-reversed,incorrect,0.010574608702861976,1,invalid_win,86.40245580021292,8,,,,,,,,,,,,,,,sub_1003,2025-01-19_10h52.46.167,Reversal,2023.1.3,60.02872970324444,3,
16,exp1.png,exp2.png,,0,0,0,0,0,16,16,16,,,,,,,,,,,,,,,,,,,,,,,,,False,16,17,True,exp2.png,exp1.png,trial_left_image,1,exp2.png,3,exp2.png,exp1.png,1,3,reversed,correct,0.5369480445734797,1,valid_win,92.4337891000323,9,,,,,,,,,,,,,,,sub_1003,2025-01-19_10h52.46.167,Reversal,2023.1.3,60.02872970324444,3,
17,exp3.png,exp4.png,,0,0,0,0,0,17,17,17,,,,,,,,,,,,,,,,,,,,,,,,,False,17,18,True,exp4.png,exp3.png,trial_right_image,-1,exp3.png,3,exp4.png,exp3.png,0,2,non-reversed,incorrect,0.1250159528544027,1,invalid_win,98.48235040018335,10,,,,,,,,,,,,,,,sub_1003,2025-01-19_10h52.46.167,Reversal,2023.1.3,60.02872970324444,3,
18,exp1.png,exp2.png,,0,0,0,0,0,18,18,18,,,,,,,,,,,,,,,,,,,,,,,,,False,18,19,False,exp1.png,exp2.png,trial_right_image,-1,exp2.png,3,exp2.png,exp1.png,1,3,reversed,correct,0.23308957751438564,0,invalid_lose,104.51334250019863,10,,,,,,,,,,,,,,,sub_1003,2025-01-19_10h52.46.167,Reversal,2023.1.3,60.02872970324444,3,
19,exp3.png,exp4.png,,0,0,0,0,0,19,19,19,,,,,,,,,,,,,,,,,,,,,,,,,False,19,20,False,exp3.png,exp4.png,trial_right_image,-1,exp4.png,3,exp4.png,exp3.png,1,1,non-reversed,correct,0.5923378674713832,1,valid_win,109.67815010016784,11,,,,,,,,,,,,,,,sub_1003,2025-01-19_10h52.46.167,Reversal,2023.1.3,60.02872970324444,3,
20,exp1.png,exp2.png,,0,0,0,0,0,20,20,20,,,,,,,,,,,,,,,,,,,,,,,,,True,,,,,,,,,,,,,,,,,,,,,,,,,,,,,,,,,,,sub_1003,2025-01-19_10h52.46.167,Reversal,2023.1.3,60.02872970324444,3,
,,,exp1.png,0,0,0,0,,,,,0,0,0,0,0,0,0,0,,,,,,,,,,,,,,,,,,,,,,,,,,,,,,,,,,,,,,214.62500660005026,50.0,50.0,9.940797100076452,"[(50.0, 9.940797100076452)]",,,,,,,,,,sub_1003,2025-01-19_10h52.46.167,Reversal,2023.1.3,60.02872970324444,3,
,,,exp2.png,0,0,0,0,,,,,0,0,0,0,0,1,1,1,,,,,,,,,,,,,,,,,,,,,,,,,,,,,,,,,,,,,,225.46988329989836,,None,None,[],,,,,,,,,,sub_1003,2025-01-19_10h52.46.167,Reversal,2023.1.3,60.02872970324444,3,
,,,exp3.png,0,0,0,0,,,,,0,0,0,0,0,2,2,2,,,,,,,,,,,,,,,,,,,,,,,,,,,,,,,,,,,,,,226.85037579992786,,None,None,[],,,,,,,,,,sub_1003,2025-01-19_10h52.46.167,Reversal,2023.1.3,60.02872970324444,3,
,,,exp4.png,0,0,0,0,,,,,0,0,0,0,0,3,3,3,,,,,,,,,,,,,,,,,,,,,,,,,,,,,,,,,,,,,,227.86758429999463,,None,None,[],,,,,,,,,,sub_1003,2025-01-19_10h52.46.167,Reversal,2023.1.3,60.02872970324444,3,
0,exp1.png,exp2.png,,1,0,1,0,0,0,0,0,,,,,,,,,,,,,,,,,,,,,,,,,False,20,21,False,exp1.png,exp2.png,trial_right_image,-1,exp2.png,3,exp2.png,exp1.png,1,3,reversed,correct,0.13022033468779803,0,invalid_lose,131.52070680004545,11,,,,,,,,,,,,,,,sub_1003,2025-01-19_10h52.46.167,Reversal,2023.1.3,60.02872970324444,3,
1,exp3.png,exp4.png,,1,0,1,0,0,1,1,1,,,,,,,,,,,,,,,,,,,,,,,,,False,21,22,False,exp3.png,exp4.png,trial_right_image,-1,exp4.png,3,exp4.png,exp3.png,1,1,non-reversed,correct,0.2832432715954982,1,valid_win,136.40238390001468,12,,,,,,,,,,,,,,,sub_1003,2025-01-19_10h52.46.167,Reversal,2023.1.3,60.02872970324444,3,
2,exp1.png,exp2.png,,1,0,1,0,0,2,2,2,,,,,,,,,,,,,,,,,,,,,,,,,False,22,23,False,exp1.png,exp2.png,trial_left_image,1,exp1.png,3,exp2.png,exp1.png,0,4,reversed,incorrect,0.5766060352839624,0,valid_lose,141.3341989000328,12,,,,,,,,,,,,,,,sub_1003,2025-01-19_10h52.46.167,Reversal,2023.1.3,60.02872970324444,3,
3,exp3.png,exp4.png,,1,0,1,0,0,3,3,3,,,,,,,,,,,,,,,,,,,,,,,,,False,23,24,True,exp4.png,exp3.png,trial_left_image,1,exp4.png,3,exp4.png,exp3.png,1,1,non-reversed,correct,0.3865239034306127,1,valid_win,145.73304840014316,13,,,,,,,,,,,,,,,sub_1003,2025-01-19_10h52.46.167,Reversal,2023.1.3,60.02872970324444,3,
4,exp1.png,exp2.png,,1,0,1,0,0,4,4,4,,,,,,,,,,,,,,,,,,,,,,,,,False,24,25,False,exp1.png,exp2.png,trial_right_image,-1,exp2.png,3,exp2.png,exp1.png,1,3,reversed,correct,0.796885298454107,1,valid_win,151.013761700131,14,,,,,,,,,,,,,,,sub_1003,2025-01-19_10h52.46.167,Reversal,2023.1.3,60.02872970324444,3,
5,exp3.png,exp4.png,,1,0,1,0,0,5,5,5,,,,,,,,,,,,,,,,,,,,,,,,,False,25,26,True,exp4.png,exp3.png,trial_left_image,1,exp4.png,3,exp4.png,exp3.png,1,1,non-reversed,correct,0.06446492506894741,0,invalid_lose,155.69653710001148,14,,,,,,,,,,,,,,,sub_1003,2025-01-19_10h52.46.167,Reversal,2023.1.3,60.02872970324444,3,
6,exp1.png,exp2.png,,1,0,1,0,0,6,6,6,,,,,,,,,,,,,,,,,,,,,,,,,False,26,27,True,exp2.png,exp1.png,trial_right_image,-1,exp1.png,3,exp2.png,exp1.png,0,4,reversed,incorrect,0.815737745661345,0,valid_lose,161.41284440015443,14,,,,,,,,,,,,,,,sub_1003,2025-01-19_10h52.46.167,Reversal,2023.1.3,60.02872970324444,3,
7,exp3.png,exp4.png,,1,0,1,0,0,7,7,7,,,,,,,,,,,,,,,,,,,,,,,,,False,27,28,True,exp4.png,exp3.png,trial_right_image,-1,exp3.png,3,exp4.png,exp3.png,0,2,non-reversed,incorrect,0.6517700498229194,0,valid_lose,166.42531700013205,14,,,,,,,,,,,,,,,sub_1003,2025-01-19_10h52.46.167,Reversal,2023.1.3,60.02872970324444,3,
8,exp1.png,exp2.png,,1,0,1,0,0,8,8,8,,,,,,,,,,,,,,,,,,,,,,,,,False,28,29,True,exp2.png,exp1.png,trial_right_image,-1,exp1.png,3,exp2.png,exp1.png,0,4,reversed,incorrect,0.7050881509814446,0,valid_lose,171.64015250001103,14,,,,,,,,,,,,,,,sub_1003,2025-01-19_10h52.46.167,Reversal,2023.1.3,60.02872970324444,3,
9,exp3.png,exp4.png,,1,0,1,0,0,9,9,9,,,,,,,,,,,,,,,,,,,,,,,,,False,29,30,False,exp3.png,exp4.png,trial_right_image,-1,exp4.png,3,exp4.png,exp3.png,1,1,non-reversed,correct,0.8840684496008498,1,valid_win,176.3230253001675,15,,,,,,,,,,,,,,,sub_1003,2025-01-19_10h52.46.167,Reversal,2023.1.3,60.02872970324444,3,
10,exp1.png,exp2.png,,1,0,1,0,0,10,10,10,,,,,,,,,,,,,,,,,,,,,,,,,False,30,31,True,exp2.png,exp1.png,trial_right_image,-1,exp1.png,3,exp2.png,exp1.png,0,4,reversed,incorrect,0.3750286942997043,0,valid_lose,182.03685610019602,15,,,,,,,,,,,,,,,sub_1003,2025-01-19_10h52.46.167,Reversal,2023.1.3,60.02872970324444,3,
11,exp3.png,exp4.png,,1,0,1,0,0,11,11,11,,,,,,,,,,,,,,,,,,,,,,,,,False,31,32,True,exp4.png,exp3.png,trial_left_image,1,exp4.png,3,exp4.png,exp3.png,1,1,non-reversed,correct,0.711886966595619,1,valid_win,186.8849395001307,16,,,,,,,,,,,,,,,sub_1003,2025-01-19_10h52.46.167,Reversal,2023.1.3,60.02872970324444,3,
12,exp1.png,exp2.png,,1,0,1,0,0,12,12,12,,,,,,,,,,,,,,,,,,,,,,,,,False,32,33,False,exp1.png,exp2.png,trial_left_image,1,exp1.png,3,exp2.png,exp1.png,0,4,reversed,incorrect,0.6673471730426954,0,valid_lose,192.1999886999838,16,,,,,,,,,,,,,,,sub_1003,2025-01-19_10h52.46.167,Reversal,2023.1.3,60.02872970324444,3,
13,exp3.png,exp4.png,,1,0,1,0,0,13,13,13,,,,,,,,,,,,,,,,,,,,,,,,,False,33,34,False,exp3.png,exp4.png,trial_right_image,-1,exp4.png,3,exp4.png,exp3.png,1,1,non-reversed,correct,0.4837714624260222,1,valid_win,197.03187750000507,17,,,,,,,,,,,,,,,sub_1003,2025-01-19_10h52.46.167,Reversal,2023.1.3,60.02872970324444,3,
14,exp1.png,exp2.png,,1,0,1,0,0,14,14,14,,,,,,,,,,,,,,,,,,,,,,,,,False,34,35,True,exp2.png,exp1.png,trial_right_image,-1,exp1.png,3,exp2.png,exp1.png,0,4,reversed,incorrect,0.7610234001519943,0,valid_lose,202.029908800032,17,,,,,,,,,,,,,,,sub_1003,2025-01-19_10h52.46.167,Reversal,2023.1.3,60.02872970324444,3,
15,exp3.png,exp4.png,,1,0,1,0,0,15,15,15,,,,,,,,,,,,,,,,,,,,,,,,,False,35,36,False,exp3.png,exp4.png,trial_right_image,-1,exp4.png,3,exp4.png,exp3.png,1,1,non-reversed,correct,0.15948783131307964,0,invalid_lose,206.8116103000939,17,,,,,,,,,,,,,,,sub_1003,2025-01-19_10h52.46.167,Reversal,2023.1.3,60.02872970324444,3,
16,exp1.png,exp2.png,,1,0,1,0,0,16,16,16,,,,,,,,,,,,,,,,,,,,,,,,,False,36,37,True,exp2.png,exp1.png,trial_left_image,1,exp2.png,3,exp2.png,exp1.png,1,3,reversed,correct,0.7297541300738449,1,valid_win,211.01032070000656,18,,,,,,,,,,,,,,,sub_1003,2025-01-19_10h52.46.167,Reversal,2023.1.3,60.02872970324444,3,
17,exp3.png,exp4.png,,1,0,1,0,0,17,17,17,,,,,,,,,,,,,,,,,,,,,,,,,False,37,38,False,exp3.png,exp4.png,trial_left_image,1,exp3.png,3,exp4.png,exp3.png,0,2,non-reversed,incorrect,0.3571945954892589,0,valid_lose,215.29451839998364,18,,,,,,,,,,,,,,,sub_1003,2025-01-19_10h52.46.167,Reversal,2023.1.3,60.02872970324444,3,
18,exp1.png,exp2.png,,1,0,1,0,0,18,18,18,,,,,,,,,,,,,,,,,,,,,,,,,False,38,39,True,exp2.png,exp1.png,trial_left_image,1,exp2.png,3,exp2.png,exp1.png,1,3,reversed,correct,0.691540013985046,1,valid_win,219.6908007999882,19,,,,,,,,,,,,,,,sub_1003,2025-01-19_10h52.46.167,Reversal,2023.1.3,60.02872970324444,3,
19,exp3.png,exp4.png,,1,0,1,0,0,19,19,19,,,,,,,,,,,,,,,,,,,,,,,,,False,39,40,False,exp3.png,exp4.png,trial_right_image,-1,exp4.png,3,exp4.png,exp3.png,1,1,non-reversed,correct,0.6811764207416648,1,valid_win,224.2059465001803,20,,,,,,,,,,,,,,,sub_1003,2025-01-19_10h52.46.167,Reversal,2023.1.3,60.02872970324444,3,
20,exp1.png,exp2.png,,1,0,1,0,0,20,20,20,,,,,,,,,,,,,,,,,,,,,,,,,True,,,,,,,,,,,,,,,,,,,,,,,,,,,,,,,,,,,sub_1003,2025-01-19_10h52.46.167,Reversal,2023.1.3,60.02872970324444,3,
,,,exp1.png,1,0,1,0,,,,,0,0,0,0,0,0,0,0,,,,,,,,,,,,,,,,,,,,,,,,,,,,,,,,,,,,,,329.09379559988156,,None,None,[],,,,,,,,,,sub_1003,2025-01-19_10h52.46.167,Reversal,2023.1.3,60.02872970324444,3,
,,,exp2.png,1,0,1,0,,,,,0,0,0,0,0,1,1,1,,,,,,,,,,,,,,,,,,,,,,,,,,,,,,,,,,,,,,331.83059079991654,,None,None,[],,,,,,,,,,sub_1003,2025-01-19_10h52.46.167,Reversal,2023.1.3,60.02872970324444,3,
,,,exp3.png,1,0,1,0,,,,,0,0,0,0,0,2,2,2,,,,,,,,,,,,,,,,,,,,,,,,,,,,,,,,,,,,,,332.8797205998562,,None,None,[],,,,,,,,,,sub_1003,2025-01-19_10h52.46.167,Reversal,2023.1.3,60.02872970324444,3,
,,,exp4.png,1,0,1,0,,,,,0,0,0,0,0,3,3,3,,,,,,,,,,,,,,,,,,,,,,,,,,,,,,,,,,,,,,333.6971545999404,,None,None,[],,,,,,,,,,sub_1003,2025-01-19_10h52.46.167,Reversal,2023.1.3,60.02872970324444,3,
0,exp1.png,exp2.png,,2,0,2,0,0,0,0,0,,,,,,,,,,,,,,,,,,,,,,,,,False,40,41,True,exp2.png,exp1.png,trial_right_image,-1,exp1.png,3,exp2.png,exp1.png,0,4,reversed,incorrect,0.3153272514727469,0,valid_lose,236.50135750020854,20,,,,,,,,,,,,,,,sub_1003,2025-01-19_10h52.46.167,Reversal,2023.1.3,60.02872970324444,3,
1,exp3.png,exp4.png,,2,0,2,0,0,1,1,1,,,,,,,,,,,,,,,,,,,,,,,,,False,41,42,False,exp3.png,exp4.png,trial_right_image,-1,exp4.png,3,exp4.png,exp3.png,1,1,non-reversed,correct,0.2179722710033951,0,invalid_lose,241.69979540002532,20,,,,,,,,,,,,,,,sub_1003,2025-01-19_10h52.46.167,Reversal,2023.1.3,60.02872970324444,3,
2,exp1.png,exp2.png,,2,0,2,0,0,2,2,2,,,,,,,,,,,,,,,,,,,,,,,,,False,42,43,True,exp2.png,exp1.png,trial_left_image,1,exp2.png,3,exp2.png,exp1.png,1,3,reversed,correct,0.172033417893922,0,invalid_lose,246.2982103000395,20,,,,,,,,,,,,,,,sub_1003,2025-01-19_10h52.46.167,Reversal,2023.1.3,60.02872970324444,3,
3,exp3.png,exp4.png,,2,0,2,0,0,3,3,3,,,,,,,,,,,,,,,,,,,,,,,,,False,43,44,False,exp3.png,exp4.png,trial_left_image,1,exp3.png,3,exp4.png,exp3.png,0,2,non-reversed,incorrect,0.39407127753893645,0,valid_lose,250.63025410007685,20,,,,,,,,,,,,,,,sub_1003,2025-01-19_10h52.46.167,Reversal,2023.1.3,60.02872970324444,3,
4,exp1.png,exp2.png,,2,0,2,0,0,4,4,4,,,,,,,,,,,,,,,,,,,,,,,,,False,44,45,True,exp2.png,exp1.png,trial_right_image,-1,exp1.png,3,exp2.png,exp1.png,0,4,reversed,incorrect,0.31940298926737454,0,valid_lose,255.14569030003622,20,,,,,,,,,,,,,,,sub_1003,2025-01-19_10h52.46.167,Reversal,2023.1.3,60.02872970324444,3,
5,exp3.png,exp4.png,,2,0,2,0,0,5,5,5,,,,,,,,,,,,,,,,,,,,,,,,,False,45,46,True,exp4.png,exp3.png,trial_left_image,1,exp4.png,3,exp4.png,exp3.png,1,1,non-reversed,correct,0.0731134514833921,0,invalid_lose,259.26117840013467,20,,,,,,,,,,,,,,,sub_1003,2025-01-19_10h52.46.167,Reversal,2023.1.3,60.02872970324444,3,
6,exp1.png,exp2.png,,2,0,2,0,0,6,6,6,,,,,,,,,,,,,,,,,,,,,,,,,False,46,47,True,exp2.png,exp1.png,trial_left_image,1,exp2.png,3,exp2.png,exp1.png,1,3,reversed,correct,0.05226721936097645,0,invalid_lose,265.19186360016465,20,,,,,,,,,,,,,,,sub_1003,2025-01-19_10h52.46.167,Reversal,2023.1.3,60.02872970324444,3,
7,exp3.png,exp4.png,,2,0,2,0,0,7,7,7,,,,,,,,,,,,,,,,,,,,,,,,,False,47,48,True,exp4.png,exp3.png,trial_right_image,-1,exp3.png,3,exp4.png,exp3.png,0,2,non-reversed,incorrect,0.8176220565946519,0,valid_lose,269.6404101999942,20,,,,,,,,,,,,,,,sub_1003,2025-01-19_10h52.46.167,Reversal,2023.1.3,60.02872970324444,3,
8,exp1.png,exp2.png,,2,0,2,0,0,8,8,8,,,,,,,,,,,,,,,,,,,,,,,,,False,48,49,False,exp1.png,exp2.png,trial_left_image,1,exp1.png,3,exp2.png,exp1.png,0,4,reversed,incorrect,0.11092167041154755,1,invalid_win,273.75576150021516,21,,,,,,,,,,,,,,,sub_1003,2025-01-19_10h52.46.167,Reversal,2023.1.3,60.02872970324444,3,
9,exp3.png,exp4.png,,2,0,2,0,0,9,9,9,,,,,,,,,,,,,,,,,,,,,,,,,False,49,50,True,exp4.png,exp3.png,trial_left_image,1,exp4.png,3,exp4.png,exp3.png,1,1,non-reversed,correct,0.12121712186819766,0,invalid_lose,278.2373796000611,21,,,,,,,,,,,,,,,sub_1003,2025-01-19_10h52.46.167,Reversal,2023.1.3,60.02872970324444,3,
10,exp1.png,exp2.png,,2,0,2,0,0,10,10,10,,,,,,,,,,,,,,,,,,,,,,,,,False,50,51,False,exp1.png,exp2.png,trial_right_image,-1,exp2.png,3,exp2.png,exp1.png,1,3,reversed,correct,0.8057539579713529,1,valid_win,282.6527011001017,22,,,,,,,,,,,,,,,sub_1003,2025-01-19_10h52.46.167,Reversal,2023.1.3,60.02872970324444,3,
11,exp3.png,exp4.png,,2,0,2,0,0,11,11,11,,,,,,,,,,,,,,,,,,,,,,,,,False,51,52,True,exp4.png,exp3.png,trial_right_image,-1,exp3.png,3,exp4.png,exp3.png,0,2,non-reversed,incorrect,0.18252243809464952,1,invalid_win,287.4176901001483,23,,,,,,,,,,,,,,,sub_1003,2025-01-19_10h52.46.167,Reversal,2023.1.3,60.02872970324444,3,
12,exp1.png,exp2.png,,2,0,2,0,0,12,12,12,,,,,,,,,,,,,,,,,,,,,,,,,False,52,53,True,exp2.png,exp1.png,trial_left_image,1,exp2.png,3,exp2.png,exp1.png,1,3,reversed,correct,0.10019479163331613,0,invalid_lose,291.7330491000321,23,,,,,,,,,,,,,,,sub_1003,2025-01-19_10h52.46.167,Reversal,2023.1.3,60.02872970324444,3,
13,exp3.png,exp4.png,,2,0,2,0,0,13,13,13,,,,,,,,,,,,,,,,,,,,,,,,,False,53,54,False,exp3.png,exp4.png,trial_right_image,-1,exp4.png,3,exp4.png,exp3.png,1,1,non-reversed,correct,0.8203551643363208,1,valid_win,296.1654014000669,24,,,,,,,,,,,,,,,sub_1003,2025-01-19_10h52.46.167,Reversal,2023.1.3,60.02872970324444,3,
14,exp1.png,exp2.png,,2,0,2,0,0,14,14,14,,,,,,,,,,,,,,,,,,,,,,,,,False,54,55,False,exp1.png,exp2.png,trial_right_image,-1,exp2.png,3,exp2.png,exp1.png,1,3,reversed,correct,0.03991968448162664,0,invalid_lose,301.04619110003114,24,,,,,,,,,,,,,,,sub_1003,2025-01-19_10h52.46.167,Reversal,2023.1.3,60.02872970324444,3,
15,exp3.png,exp4.png,,2,0,2,0,0,15,15,15,,,,,,,,,,,,,,,,,,,,,,,,,False,55,56,False,exp3.png,exp4.png,trial_left_image,1,exp3.png,3,exp4.png,exp3.png,0,2,non-reversed,incorrect,0.01516399498444998,1,invalid_win,305.31168949999847,25,,,,,,,,,,,,,,,sub_1003,2025-01-19_10h52.46.167,Reversal,2023.1.3,60.02872970324444,3,
16,exp1.png,exp2.png,,2,0,2,0,0,16,16,16,,,,,,,,,,,,,,,,,,,,,,,,,False,56,57,False,exp1.png,exp2.png,trial_left_image,1,exp1.png,3,exp2.png,exp1.png,0,4,reversed,incorrect,0.8689921223255909,0,valid_lose,309.4462163001299,25,,,,,,,,,,,,,,,sub_1003,2025-01-19_10h52.46.167,Reversal,2023.1.3,60.02872970324444,3,
17,exp3.png,exp4.png,,2,0,2,0,0,17,17,17,,,,,,,,,,,,,,,,,,,,,,,,,False,57,58,False,exp3.png,exp4.png,trial_right_image,-1,exp4.png,3,exp4.png,exp3.png,1,1,non-reversed,correct,0.46684102040646624,1,valid_win,313.308910000138,26,,,,,,,,,,,,,,,sub_1003,2025-01-19_10h52.46.167,Reversal,2023.1.3,60.02872970324444,3,
18,exp1.png,exp2.png,,2,0,2,0,0,18,18,18,,,,,,,,,,,,,,,,,,,,,,,,,False,58,59,True,exp2.png,exp1.png,trial_right_image,-1,exp1.png,3,exp2.png,exp1.png,0,4,reversed,incorrect,0.6716292932641017,0,valid_lose,317.25829880009405,26,,,,,,,,,,,,,,,sub_1003,2025-01-19_10h52.46.167,Reversal,2023.1.3,60.02872970324444,3,
19,exp3.png,exp4.png,,2,0,2,0,0,19,19,19,,,,,,,,,,,,,,,,,,,,,,,,,False,59,60,False,exp3.png,exp4.png,trial_right_image,-1,exp4.png,3,exp4.png,exp3.png,1,1,non-reversed,correct,0.7847156928958885,1,valid_win,321.789296500152,27,,,,,,,,,,,,,,,sub_1003,2025-01-19_10h52.46.167,Reversal,2023.1.3,60.02872970324444,3,
20,exp1.png,exp2.png,,2,0,2,0,0,20,20,20,,,,,,,,,,,,,,,,,,,,,,,,,True,,,,,,,,,,,,,,,,,,,,,,,,,,,,,,,,,,,sub_1003,2025-01-19_10h52.46.167,Reversal,2023.1.3,60.02872970324444,3,
,,,exp1.png,2,0,2,0,,,,,0,0,0,0,0,0,0,0,,,,,,,,,,,,,,,,,,,,,,,,,,,,,,,,,,,,,,426.6828067000024,,None,None,[],,,,,,,,,,sub_1003,2025-01-19_10h52.46.167,Reversal,2023.1.3,60.02872970324444,3,
,,,exp2.png,2,0,2,0,,,,,0,0,0,0,0,1,1,1,,,,,,,,,,,,,,,,,,,,,,,,,,,,,,,,,,,,,,428.62939279992133,,None,None,[],,,,,,,,,,sub_1003,2025-01-19_10h52.46.167,Reversal,2023.1.3,60.02872970324444,3,
,,,exp3.png,2,0,2,0,,,,,0,0,0,0,0,2,2,2,,,,,,,,,,,,,,,,,,,,,,,,,,,,,,,,,,,,,,429.42901199986227,,56.0,0.9949145000427961,"[(56.0, 0.9949145000427961)]",56.0,,,,,,,,,sub_1003,2025-01-19_10h52.46.167,Reversal,2023.1.3,60.02872970324444,3,
,,,exp4.png,2,0,2,0,,,,,0,0,0,0,0,3,3,3,,,,,,,,,,,,,,,,,,,,,,,,,,,,,,,,,,,,,,431.2311118999496,,47.0,0.7785582998767495,"[(47.0, 0.7785582998767495)]",,47.0,,,,,,,,sub_1003,2025-01-19_10h52.46.167,Reversal,2023.1.3,60.02872970324444,3,
0,exp1.png,exp2.png,,3,0,3,0,0,0,0,0,,,,,,,,,,,,,,,,,,,,,,,,,False,60,61,False,exp1.png,exp2.png,trial_left_image,1,exp1.png,3,exp2.png,exp1.png,0,4,reversed,incorrect,0.5479778877691333,0,valid_lose,332.7195176000241,27,,,,,,,,,,,,,,,sub_1003,2025-01-19_10h52.46.167,Reversal,2023.1.3,60.02872970324444,3,
1,exp3.png,exp4.png,,3,0,3,0,0,1,1,1,,,,,,,,,,,,,,,,,,,,,,,,,False,61,62,False,exp3.png,exp4.png,trial_right_image,-1,exp4.png,3,exp4.png,exp3.png,1,1,non-reversed,correct,0.00023916572903204258,0,invalid_lose,336.8515499001369,27,,,,,,,,,,,,,,,sub_1003,2025-01-19_10h52.46.167,Reversal,2023.1.3,60.02872970324444,3,
2,exp1.png,exp2.png,,3,0,3,0,0,2,2,2,,,,,,,,,,,,,,,,,,,,,,,,,False,62,63,False,exp1.png,exp2.png,trial_left_image,1,exp1.png,3,exp2.png,exp1.png,0,4,reversed,incorrect,0.15441378472304967,1,invalid_win,340.74943020008504,28,,,,,,,,,,,,,,,sub_1003,2025-01-19_10h52.46.167,Reversal,2023.1.3,60.02872970324444,3,
3,exp3.png,exp4.png,,3,0,3,0,0,3,3,3,,,,,,,,,,,,,,,,,,,,,,,,,False,63,64,True,exp4.png,exp3.png,trial_right_image,-1,exp3.png,3,exp4.png,exp3.png,0,2,non-reversed,incorrect,0.9133872412110072,0,valid_lose,345.16521530016325,28,,,,,,,,,,,,,,,sub_1003,2025-01-19_10h52.46.167,Reversal,2023.1.3,60.02872970324444,3,
4,exp1.png,exp2.png,,3,0,3,0,0,4,4,4,,,,,,,,,,,,,,,,,,,,,,,,,False,64,65,True,exp2.png,exp1.png,trial_left_image,1,exp2.png,3,exp2.png,exp1.png,1,3,reversed,correct,0.6948585065795896,1,valid_win,351.01284490013495,29,,,,,,,,,,,,,,,sub_1003,2025-01-19_10h52.46.167,Reversal,2023.1.3,60.02872970324444,3,
5,exp3.png,exp4.png,,3,0,3,0,0,5,5,5,,,,,,,,,,,,,,,,,,,,,,,,,False,65,66,False,exp3.png,exp4.png,trial_left_image,1,exp3.png,3,exp4.png,exp3.png,0,2,non-reversed,incorrect,0.6603496930793622,0,valid_lose,355.1782105001621,29,,,,,,,,,,,,,,,sub_1003,2025-01-19_10h52.46.167,Reversal,2023.1.3,60.02872970324444,3,
6,exp1.png,exp2.png,,3,0,3,0,0,6,6,6,,,,,,,,,,,,,,,,,,,,,,,,,False,66,67,False,exp1.png,exp2.png,trial_left_image,1,exp1.png,3,exp2.png,exp1.png,0,4,reversed,incorrect,0.9919650237328799,0,valid_lose,359.0432549000252,29,,,,,,,,,,,,,,,sub_1003,2025-01-19_10h52.46.167,Reversal,2023.1.3,60.02872970324444,3,
7,exp3.png,exp4.png,,3,0,3,0,0,7,7,7,,,,,,,,,,,,,,,,,,,,,,,,,False,67,68,True,exp4.png,exp3.png,trial_right_image,-1,exp3.png,3,exp4.png,exp3.png,0,2,non-reversed,incorrect,0.6109739430831067,0,valid_lose,362.9583237001207,29,,,,,,,,,,,,,,,sub_1003,2025-01-19_10h52.46.167,Reversal,2023.1.3,60.02872970324444,3,
8,exp1.png,exp2.png,,3,0,3,0,0,8,8,8,,,,,,,,,,,,,,,,,,,,,,,,,False,68,69,True,exp2.png,exp1.png,trial_right_image,-1,exp1.png,3,exp2.png,exp1.png,0,4,reversed,incorrect,0.8592439331950426,0,valid_lose,367.70674430020154,29,,,,,,,,,,,,,,,sub_1003,2025-01-19_10h52.46.167,Reversal,2023.1.3,60.02872970324444,3,
9,exp3.png,exp4.png,,3,0,3,0,0,9,9,9,,,,,,,,,,,,,,,,,,,,,,,,,False,69,70,False,exp3.png,exp4.png,trial_right_image,-1,exp4.png,3,exp4.png,exp3.png,1,1,non-reversed,correct,0.3286846545395308,1,valid_win,371.77231220016256,30,,,,,,,,,,,,,,,sub_1003,2025-01-19_10h52.46.167,Reversal,2023.1.3,60.02872970324444,3,
10,exp1.png,exp2.png,,3,0,3,0,0,10,10,10,,,,,,,,,,,,,,,,,,,,,,,,,False,70,71,False,exp1.png,exp2.png,trial_right_image,-1,exp2.png,3,exp2.png,exp1.png,1,3,reversed,correct,0.9848475942599131,1,valid_win,376.0874027002137,31,,,,,,,,,,,,,,,sub_1003,2025-01-19_10h52.46.167,Reversal,2023.1.3,60.02872970324444,3,
11,exp3.png,exp4.png,,3,0,3,0,0,11,11,11,,,,,,,,,,,,,,,,,,,,,,,,,False,71,72,True,exp4.png,exp3.png,trial_left_image,1,exp4.png,3,exp4.png,exp3.png,1,1,non-reversed,correct,0.9210858259949775,1,valid_win,382.00241740001366,32,,,,,,,,,,,,,,,sub_1003,2025-01-19_10h52.46.167,Reversal,2023.1.3,60.02872970324444,3,
12,exp1.png,exp2.png,,3,0,3,0,0,12,12,12,,,,,,,,,,,,,,,,,,,,,,,,,False,72,73,False,exp1.png,exp2.png,trial_right_image,-1,exp2.png,3,exp2.png,exp1.png,1,3,reversed,correct,0.09266915395689668,0,invalid_lose,386.6837720000185,32,,,,,,,,,,,,,,,sub_1003,2025-01-19_10h52.46.167,Reversal,2023.1.3,60.02872970324444,3,
13,exp3.png,exp4.png,,3,0,3,0,0,13,13,13,,,,,,,,,,,,,,,,,,,,,,,,,False,73,74,True,exp4.png,exp3.png,trial_left_image,1,exp4.png,3,exp4.png,exp3.png,1,1,non-reversed,correct,0.2491685296683892,0,invalid_lose,391.1655776000116,32,,,,,,,,,,,,,,,sub_1003,2025-01-19_10h52.46.167,Reversal,2023.1.3,60.02872970324444,3,
14,exp1.png,exp2.png,,3,0,3,0,0,14,14,14,,,,,,,,,,,,,,,,,,,,,,,,,False,74,75,True,exp2.png,exp1.png,trial_right_image,-1,exp1.png,3,exp2.png,exp1.png,0,4,reversed,incorrect,0.805650768622076,0,valid_lose,395.04812870011665,32,,,,,,,,,,,,,,,sub_1003,2025-01-19_10h52.46.167,Reversal,2023.1.3,60.02872970324444,3,
15,exp3.png,exp4.png,,3,0,3,0,0,15,15,15,,,,,,,,,,,,,,,,,,,,,,,,,False,75,76,True,exp4.png,exp3.png,trial_left_image,1,exp4.png,3,exp4.png,exp3.png,1,1,non-reversed,correct,0.5659571385146864,1,valid_win,399.329689900158,33,,,,,,,,,,,,,,,sub_1003,2025-01-19_10h52.46.167,Reversal,2023.1.3,60.02872970324444,3,
16,exp1.png,exp2.png,,3,0,3,0,0,16,16,16,,,,,,,,,,,,,,,,,,,,,,,,,False,76,77,True,exp2.png,exp1.png,trial_right_image,-1,exp1.png,3,exp2.png,exp1.png,0,4,reversed,incorrect,0.21405386256556524,1,invalid_win,404.51140840002336,34,,,,,,,,,,,,,,,sub_1003,2025-01-19_10h52.46.167,Reversal,2023.1.3,60.02872970324444,3,
17,exp3.png,exp4.png,,3,0,3,0,0,17,17,17,,,,,,,,,,,,,,,,,,,,,,,,,False,77,78,False,exp3.png,exp4.png,trial_right_image,-1,exp4.png,3,exp4.png,exp3.png,1,1,non-reversed,correct,0.7250334095801202,1,valid_win,408.6932608000934,35,,,,,,,,,,,,,,,sub_1003,2025-01-19_10h52.46.167,Reversal,2023.1.3,60.02872970324444,3,
18,exp1.png,exp2.png,,3,0,3,0,0,18,18,18,,,,,,,,,,,,,,,,,,,,,,,,,False,78,79,True,exp2.png,exp1.png,trial_right_image,-1,exp1.png,3,exp2.png,exp1.png,0,4,reversed,incorrect,0.404141467496704,0,valid_lose,413.6914888001047,35,,,,,,,,,,,,,,,sub_1003,2025-01-19_10h52.46.167,Reversal,2023.1.3,60.02872970324444,3,
19,exp3.png,exp4.png,,3,0,3,0,0,19,19,19,,,,,,,,,,,,,,,,,,,,,,,,,False,79,80,False,exp3.png,exp4.png,trial_left_image,1,exp3.png,3,exp4.png,exp3.png,0,2,non-reversed,incorrect,0.02990705151937678,1,invalid_win,418.32308980007656,36,,,,,,,,,,,,,,,sub_1003,2025-01-19_10h52.46.167,Reversal,2023.1.3,60.02872970324444,3,
20,exp1.png,exp2.png,,3,0,3,0,0,20,20,20,,,,,,,,,,,,,,,,,,,,,,,,,True,,,,,,,,,,,,,,,,,,,,,,,,,,,,,,,,,,,sub_1003,2025-01-19_10h52.46.167,Reversal,2023.1.3,60.02872970324444,3,
,,,exp1.png,3,0,3,0,,,,,0,0,0,0,0,0,0,0,,,,,,,,,,,,,,,,,,,,,,,,,,,,,,,,,,,,,,523.2078287000768,44.0,44.0,3.704664200078696,"[(44.0, 3.704664200078696)]",,,,,,,,,,sub_1003,2025-01-19_10h52.46.167,Reversal,2023.1.3,60.02872970324444,3,
,,,exp2.png,3,0,3,0,,,,,0,0,0,0,0,1,1,1,,,,,,,,,,,,,,,,,,,,,,,,,,,,,,,,,,,,,,528.1972841999959,,40.0,1.4779626000672579,"[(40.0, 1.4779626000672579)]",,,40.0,,,,,,,sub_1003,2025-01-19_10h52.46.167,Reversal,2023.1.3,60.02872970324444,3,
,,,exp3.png,3,0,3,0,,,,,0,0,0,0,0,2,2,2,,,,,,,,,,,,,,,,,,,,,,,,,,,,,,,,,,,,,,530.494781000074,,58.0,1.828019900014624,"[(58.0, 1.828019900014624)]",58.0,,,,,,,,,sub_1003,2025-01-19_10h52.46.167,Reversal,2023.1.3,60.02872970324444,3,
,,,exp4.png,3,0,3,0,,,,,0,0,0,0,0,3,3,3,,,,,,,,,,,,,,,,,,,,,,,,,,,,,,,,,,,,,,533.1129087998997,,64.0,1.0445723999291658,"[(64.0, 1.0445723999291658)]",,64.0,,,,,,,,sub_1003,2025-01-19_10h52.46.167,Reversal,2023.1.3,60.02872970324444,3,
0,exp1.png,exp2.png,,,,,,,,,,,,,,,,,,0,0,0,0,0,0,0,0,,,,,,,,,False,0,81,True,exp2.png,exp1.png,trial_right_image,-1,exp1.png,3,exp1.png,exp2.png,0,4,reversed,correct,0.1182769280457796,0,invalid_lose,436.1840131999925,36,,,,,,,,,432.7276078001596,,,,,,sub_1003,2025-01-19_10h52.46.167,Reversal,2023.1.3,60.02872970324444,3,
1,exp3.png,exp4.png,,,,,,,,,,,,,,,,,,0,0,0,0,0,1,1,1,,,,,,,,,False,1,82,False,exp3.png,exp4.png,trial_right_image,-1,exp4.png,3,exp4.png,exp3.png,1,1,non-reversed,correct,0.8782797234283654,1,valid_win,441.1820028000511,37,,,,,,,,,,,,,,,sub_1003,2025-01-19_10h52.46.167,Reversal,2023.1.3,60.02872970324444,3,
2,exp1.png,exp2.png,,,,,,,,,,,,,,,,,,0,0,0,0,0,2,2,2,,,,,,,,,False,2,83,False,exp1.png,exp2.png,trial_right_image,-1,exp2.png,3,exp1.png,exp2.png,1,3,reversed,incorrect,0.6868815680300608,0,valid_lose,445.6475214001257,37,,,,,,,,,,,,,,,sub_1003,2025-01-19_10h52.46.167,Reversal,2023.1.3,60.02872970324444,3,
3,exp3.png,exp4.png,,,,,,,,,,,,,,,,,,0,0,0,0,0,3,3,3,,,,,,,,,False,3,84,False,exp3.png,exp4.png,trial_right_image,-1,exp4.png,3,exp4.png,exp3.png,1,1,non-reversed,correct,0.3419232596309577,1,valid_win,450.64553129998967,38,,,,,,,,,,,,,,,sub_1003,2025-01-19_10h52.46.167,Reversal,2023.1.3,60.02872970324444,3,
4,exp1.png,exp2.png,,,,,,,,,,,,,,,,,,0,0,0,0,0,4,4,4,,,,,,,,,False,4,85,False,exp1.png,exp2.png,trial_left_image,1,exp1.png,3,exp1.png,exp2.png,0,4,reversed,correct,0.7905179551689886,1,valid_win,455.32721470016986,39,,,,,,,,,,,,,,,sub_1003,2025-01-19_10h52.46.167,Reversal,2023.1.3,60.02872970324444,3,
5,exp3.png,exp4.png,,,,,,,,,,,,,,,,,,0,0,0,0,0,5,5,5,,,,,,,,,False,5,86,True,exp4.png,exp3.png,trial_left_image,1,exp4.png,3,exp4.png,exp3.png,1,1,non-reversed,correct,0.913806303277629,1,valid_win,459.7092292001471,40,,,,,,,,,,,,,,,sub_1003,2025-01-19_10h52.46.167,Reversal,2023.1.3,60.02872970324444,3,
6,exp1.png,exp2.png,,,,,,,,,,,,,,,,,,0,0,0,0,0,6,6,6,,,,,,,,,False,6,87,True,exp2.png,exp1.png,trial_right_image,-1,exp1.png,3,exp1.png,exp2.png,0,4,reversed,correct,0.6238772596842952,1,valid_win,463.9908686000854,41,,,,,,,,,,,,,,,sub_1003,2025-01-19_10h52.46.167,Reversal,2023.1.3,60.02872970324444,3,
7,exp3.png,exp4.png,,,,,,,,,,,,,,,,,,0,0,0,0,0,7,7,7,,,,,,,,,False,7,88,True,exp4.png,exp3.png,trial_left_image,1,exp4.png,3,exp4.png,exp3.png,1,1,non-reversed,correct,0.39315954884774795,1,valid_win,468.25648620002903,42,,,,,,,,,,,,,,,sub_1003,2025-01-19_10h52.46.167,Reversal,2023.1.3,60.02872970324444,3,
8,exp1.png,exp2.png,,,,,,,,,,,,,,,,,,0,0,0,0,0,8,8,8,,,,,,,,,False,8,89,False,exp1.png,exp2.png,trial_left_image,1,exp1.png,3,exp1.png,exp2.png,0,4,reversed,correct,0.5007283759647648,1,valid_win,475.7205368001014,43,,,,,,,,,,,,,,,sub_1003,2025-01-19_10h52.46.167,Reversal,2023.1.3,60.02872970324444,3,
9,exp3.png,exp4.png,,,,,,,,,,,,,,,,,,0,0,0,0,0,9,9,9,,,,,,,,,False,9,90,True,exp4.png,exp3.png,trial_left_image,1,exp4.png,3,exp4.png,exp3.png,1,1,non-reversed,correct,0.5952801050956731,1,valid_win,481.30195550015196,44,,,,,,,,,,,,,,,sub_1003,2025-01-19_10h52.46.167,Reversal,2023.1.3,60.02872970324444,3,
10,exp1.png,exp2.png,,,,,,,,,,,,,,,,,,0,0,0,0,0,10,10,10,,,,,,,,,False,10,91,False,exp1.png,exp2.png,trial_left_image,1,exp1.png,3,exp1.png,exp2.png,0,4,reversed,correct,0.014146970468740139,0,invalid_lose,487.5328066002112,44,,,,,,,,,,,,,,,sub_1003,2025-01-19_10h52.46.167,Reversal,2023.1.3,60.02872970324444,3,
11,exp3.png,exp4.png,,,,,,,,,,,,,,,,,,0,0,0,0,0,11,11,11,,,,,,,,,False,11,92,True,exp4.png,exp3.png,trial_left_image,1,exp4.png,3,exp4.png,exp3.png,1,1,non-reversed,correct,0.056052899853659466,0,invalid_lose,492.0314301000908,44,,,,,,,,,,,,,,,sub_1003,2025-01-19_10h52.46.167,Reversal,2023.1.3,60.02872970324444,3,
12,exp1.png,exp2.png,,,,,,,,,,,,,,,,,,0,0,0,0,0,12,12,12,,,,,,,,,False,12,93,True,exp2.png,exp1.png,trial_left_image,1,exp2.png,3,exp1.png,exp2.png,1,3,reversed,incorrect,0.4324471569497942,0,valid_lose,497.3634554001037,44,,,,,,,,,,,,,,,sub_1003,2025-01-19_10h52.46.167,Reversal,2023.1.3,60.02872970324444,3,
13,exp3.png,exp4.png,,,,,,,,,,,,,,,,,,0,0,0,0,0,13,13,13,,,,,,,,,False,13,94,False,exp3.png,exp4.png,trial_right_image,-1,exp4.png,3,exp4.png,exp3.png,1,1,non-reversed,correct,0.4598573426828483,1,valid_win,501.67823470011353,45,,,,,,,,,,,,,,,sub_1003,2025-01-19_10h52.46.167,Reversal,2023.1.3,60.02872970324444,3,
14,exp1.png,exp2.png,,,,,,,,,,,,,,,,,,0,0,0,0,0,14,14,14,,,,,,,,,False,14,95,False,exp1.png,exp2.png,trial_left_image,1,exp1.png,3,exp1.png,exp2.png,0,4,reversed,correct,0.2708096352085114,1,valid_win,506.37675970001146,46,,,,,,,,,,,,,,,sub_1003,2025-01-19_10h52.46.167,Reversal,2023.1.3,60.02872970324444,3,
15,exp3.png,exp4.png,,,,,,,,,,,,,,,,,,0,0,0,0,0,15,15,15,,,,,,,,,False,15,96,True,exp4.png,exp3.png,trial_left_image,1,exp4.png,3,exp4.png,exp3.png,1,1,non-reversed,correct,0.37211463873141015,1,valid_win,511.5417794000823,47,,,,,,,,,,,,,,,sub_1003,2025-01-19_10h52.46.167,Reversal,2023.1.3,60.02872970324444,3,
16,exp1.png,exp2.png,,,,,,,,,,,,,,,,,,0,0,0,0,0,16,16,16,,,,,,,,,False,16,97,True,exp2.png,exp1.png,trial_right_image,-1,exp1.png,3,exp1.png,exp2.png,0,4,reversed,correct,0.8055379293829515,1,valid_win,516.3904725001194,48,,,,,,,,,,,,,,,sub_1003,2025-01-19_10h52.46.167,Reversal,2023.1.3,60.02872970324444,3,
17,exp3.png,exp4.png,,,,,,,,,,,,,,,,,,0,0,0,0,0,17,17,17,,,,,,,,,False,17,98,False,exp3.png,exp4.png,trial_right_image,-1,exp4.png,3,exp4.png,exp3.png,1,1,non-reversed,correct,0.2075543691032038,0,invalid_lose,521.6879254002124,48,,,,,,,,,,,,,,,sub_1003,2025-01-19_10h52.46.167,Reversal,2023.1.3,60.02872970324444,3,
18,exp1.png,exp2.png,,,,,,,,,,,,,,,,,,0,0,0,0,0,18,18,18,,,,,,,,,False,18,99,True,exp2.png,exp1.png,trial_right_image,-1,exp1.png,3,exp1.png,exp2.png,0,4,reversed,correct,0.5675820830126578,1,valid_win,527.3191863000393,49,,,,,,,,,,,,,,,sub_1003,2025-01-19_10h52.46.167,Reversal,2023.1.3,60.02872970324444,3,
19,exp3.png,exp4.png,,,,,,,,,,,,,,,,,,0,0,0,0,0,19,19,19,,,,,,,,,False,19,100,False,exp3.png,exp4.png,trial_right_image,-1,exp4.png,3,exp4.png,exp3.png,1,1,non-reversed,correct,0.9375004559088519,1,valid_win,532.1012998002116,50,,,,,,,,,,,,,,,sub_1003,2025-01-19_10h52.46.167,Reversal,2023.1.3,60.02872970324444,3,
20,exp1.png,exp2.png,,,,,,,,,,,,,,,,,,0,0,0,0,0,20,20,20,,,,,,,,,True,,,,,,,,,,,,,,,,,,,,,,,,,,,,,,,,,,,sub_1003,2025-01-19_10h52.46.167,Reversal,2023.1.3,60.02872970324444,3,
,,,exp1.png,,,,,,,,,,,,,,,,,0,0,0,0,,,,,0,0,0,0,0,0,0,0,,,,,,,,,,,,,,,,,,,,,,636.9917550000828,64.0,64.0,3.1510308999568224,"[(64.0, 3.1510308999568224)]",,,,,,,,,,sub_1003,2025-01-19_10h52.46.167,Reversal,2023.1.3,60.02872970324444,3,
,,,exp2.png,,,,,,,,,,,,,,,,,0,0,0,0,,,,,0,0,0,0,0,1,1,1,,,,,,,,,,,,,,,,,,,,,,640.9767122999765,,25.0,1.4114056001417339,"[(25.0, 1.4114056001417339)]",,,25.0,,,,,,,sub_1003,2025-01-19_10h52.46.167,Reversal,2023.1.3,60.02872970324444,3,
,,,exp3.png,,,,,,,,,,,,,,,,,0,0,0,0,,,,,0,0,0,0,0,2,2,2,,,,,,,,,,,,,,,,,,,,,,643.3575840999838,,27.0,2.3444703998975456,"[(27.0, 2.3444703998975456)]",27.0,,,,,,,,,sub_1003,2025-01-19_10h52.46.167,Reversal,2023.1.3,60.02872970324444,3,
,,,exp4.png,,,,,,,,,,,,,,,,,0,0,0,0,,,,,0,0,0,0,0,3,3,3,,,,,,,,,,,,,,,,,,,,,,646.6395715000108,,71.0,1.0792227999772877,"[(71.0, 1.0792227999772877)]",,71.0,,,,,,,,sub_1003,2025-01-19_10h52.46.167,Reversal,2023.1.3,60.02872970324444,3,
0,exp1.png,exp2.png,,,,,,,,,,,,,,,,,,1,0,1,0,0,0,0,0,,,,,,,,,False,20,101,True,exp2.png,exp1.png,trial_right_image,-1,exp1.png,3,exp1.png,exp2.png,0,4,reversed,correct,0.26392362190769336,1,valid_win,549.1951875002123,51,,,,,,,,,,,,,,,sub_1003,2025-01-19_10h52.46.167,Reversal,2023.1.3,60.02872970324444,3,
1,exp3.png,exp4.png,,,,,,,,,,,,,,,,,,1,0,1,0,0,1,1,1,,,,,,,,,False,21,102,False,exp3.png,exp4.png,trial_right_image,-1,exp4.png,3,exp4.png,exp3.png,1,1,non-reversed,correct,0.9848287299280633,1,valid_win,554.1602872000076,52,,,,,,,,,,,,,,,sub_1003,2025-01-19_10h52.46.167,Reversal,2023.1.3,60.02872970324444,3,
2,exp1.png,exp2.png,,,,,,,,,,,,,,,,,,1,0,1,0,0,2,2,2,,,,,,,,,False,22,103,True,exp2.png,exp1.png,trial_right_image,-1,exp1.png,3,exp1.png,exp2.png,0,4,reversed,correct,0.8119304508874844,1,valid_win,562.5743339001201,53,,,,,,,,,,,,,,,sub_1003,2025-01-19_10h52.46.167,Reversal,2023.1.3,60.02872970324444,3,
3,exp3.png,exp4.png,,,,,,,,,,,,,,,,,,1,0,1,0,0,3,3,3,,,,,,,,,False,23,104,True,exp4.png,exp3.png,trial_left_image,1,exp4.png,3,exp4.png,exp3.png,1,1,non-reversed,correct,0.9091991457946045,1,valid_win,567.589351600036,54,,,,,,,,,,,,,,,sub_1003,2025-01-19_10h52.46.167,Reversal,2023.1.3,60.02872970324444,3,
4,exp1.png,exp2.png,,,,,,,,,,,,,,,,,,1,0,1,0,0,4,4,4,,,,,,,,,False,24,105,True,exp2.png,exp1.png,trial_right_image,-1,exp1.png,3,exp1.png,exp2.png,0,4,reversed,correct,0.7865274186244551,1,valid_win,573.0038453000598,55,,,,,,,,,,,,,,,sub_1003,2025-01-19_10h52.46.167,Reversal,2023.1.3,60.02872970324444,3,
5,exp3.png,exp4.png,,,,,,,,,,,,,,,,,,1,0,1,0,0,5,5,5,,,,,,,,,False,25,106,True,exp4.png,exp3.png,trial_left_image,1,exp4.png,3,exp4.png,exp3.png,1,1,non-reversed,correct,0.9742697916759885,1,valid_win,577.7024597001728,56,,,,,,,,,,,,,,,sub_1003,2025-01-19_10h52.46.167,Reversal,2023.1.3,60.02872970324444,3,
6,exp1.png,exp2.png,,,,,,,,,,,,,,,,,,1,0,1,0,0,6,6,6,,,,,,,,,False,26,107,False,exp1.png,exp2.png,trial_left_image,1,exp1.png,3,exp1.png,exp2.png,0,4,reversed,correct,0.6570468080331435,1,valid_win,582.4176095000003,57,,,,,,,,,,,,,,,sub_1003,2025-01-19_10h52.46.167,Reversal,2023.1.3,60.02872970324444,3,
7,exp3.png,exp4.png,,,,,,,,,,,,,,,,,,1,0,1,0,0,7,7,7,,,,,,,,,False,27,108,False,exp3.png,exp4.png,trial_right_image,-1,exp4.png,3,exp4.png,exp3.png,1,1,non-reversed,correct,0.42748196295116003,1,valid_win,588.7827253001742,58,,,,,,,,,,,,,,,sub_1003,2025-01-19_10h52.46.167,Reversal,2023.1.3,60.02872970324444,3,
8,exp1.png,exp2.png,,,,,,,,,,,,,,,,,,1,0,1,0,0,8,8,8,,,,,,,,,False,28,109,False,exp1.png,exp2.png,trial_left_image,1,exp1.png,3,exp1.png,exp2.png,0,4,reversed,correct,0.4452986384788875,1,valid_win,593.3636795000639,59,,,,,,,,,,,,,,,sub_1003,2025-01-19_10h52.46.167,Reversal,2023.1.3,60.02872970324444,3,
9,exp3.png,exp4.png,,,,,,,,,,,,,,,,,,1,0,1,0,0,9,9,9,,,,,,,,,False,29,110,False,exp3.png,exp4.png,trial_right_image,-1,exp4.png,3,exp4.png,exp3.png,1,1,non-reversed,correct,0.04878404246787704,0,invalid_lose,597.678783000214,59,,,,,,,,,,,,,,,sub_1003,2025-01-19_10h52.46.167,Reversal,2023.1.3,60.02872970324444,3,
10,exp1.png,exp2.png,,,,,,,,,,,,,,,,,,1,0,1,0,0,10,10,10,,,,,,,,,False,30,111,True,exp2.png,exp1.png,trial_left_image,1,exp2.png,3,exp1.png,exp2.png,1,3,reversed,incorrect,0.8914368213786406,0,valid_lose,602.2942402001936,59,,,,,,,,,,,,,,,sub_1003,2025-01-19_10h52.46.167,Reversal,2023.1.3,60.02872970324444,3,
11,exp3.png,exp4.png,,,,,,,,,,,,,,,,,,1,0,1,0,0,11,11,11,,,,,,,,,False,31,112,True,exp4.png,exp3.png,trial_right_image,-1,exp3.png,3,exp4.png,exp3.png,0,2,non-reversed,incorrect,0.6621813964544835,0,valid_lose,606.7596292002127,59,,,,,,,,,,,,,,,sub_1003,2025-01-19_10h52.46.167,Reversal,2023.1.3,60.02872970324444,3,
12,exp1.png,exp2.png,,,,,,,,,,,,,,,,,,1,0,1,0,0,12,12,12,,,,,,,,,False,32,113,True,exp2.png,exp1.png,trial_right_image,-1,exp1.png,3,exp1.png,exp2.png,0,4,reversed,correct,0.397782051339148,1,valid_win,611.9575715002138,60,,,,,,,,,,,,,,,sub_1003,2025-01-19_10h52.46.167,Reversal,2023.1.3,60.02872970324444,3,
13,exp3.png,exp4.png,,,,,,,,,,,,,,,,,,1,0,1,0,0,13,13,13,,,,,,,,,False,33,114,False,exp3.png,exp4.png,trial_right_image,-1,exp4.png,3,exp4.png,exp3.png,1,1,non-reversed,correct,0.16299895991382007,0,invalid_lose,616.4892852001358,60,,,,,,,,,,,,,,,sub_1003,2025-01-19_10h52.46.167,Reversal,2023.1.3,60.02872970324444,3,
14,exp1.png,exp2.png,,,,,,,,,,,,,,,,,,1,0,1,0,0,14,14,14,,,,,,,,,False,34,115,True,exp2.png,exp1.png,trial_right_image,-1,exp1.png,3,exp1.png,exp2.png,0,4,reversed,correct,0.665794675640546,1,valid_win,621.0042940001003,61,,,,,,,,,,,,,,,sub_1003,2025-01-19_10h52.46.167,Reversal,2023.1.3,60.02872970324444,3,
15,exp3.png,exp4.png,,,,,,,,,,,,,,,,,,1,0,1,0,0,15,15,15,,,,,,,,,False,35,116,False,exp3.png,exp4.png,trial_left_image,1,exp3.png,3,exp4.png,exp3.png,0,2,non-reversed,incorrect,0.7196779131351593,0,valid_lose,625.1694359001704,61,,,,,,,,,,,,,,,sub_1003,2025-01-19_10h52.46.167,Reversal,2023.1.3,60.02872970324444,3,
16,exp1.png,exp2.png,,,,,,,,,,,,,,,,,,1,0,1,0,0,16,16,16,,,,,,,,,False,36,117,True,exp2.png,exp1.png,trial_right_image,-1,exp1.png,3,exp1.png,exp2.png,0,4,reversed,correct,0.9499462073419087,1,valid_win,629.4683339002077,62,,,,,,,,,,,,,,,sub_1003,2025-01-19_10h52.46.167,Reversal,2023.1.3,60.02872970324444,3,
17,exp3.png,exp4.png,,,,,,,,,,,,,,,,,,1,0,1,0,0,17,17,17,,,,,,,,,False,37,118,False,exp3.png,exp4.png,trial_right_image,-1,exp4.png,3,exp4.png,exp3.png,1,1,non-reversed,correct,0.3606313914114678,1,valid_win,633.6499426001683,63,,,,,,,,,,,,,,,sub_1003,2025-01-19_10h52.46.167,Reversal,2023.1.3,60.02872970324444,3,
18,exp1.png,exp2.png,,,,,,,,,,,,,,,,,,1,0,1,0,0,18,18,18,,,,,,,,,False,38,119,False,exp1.png,exp2.png,trial_left_image,1,exp1.png,3,exp1.png,exp2.png,0,4,reversed,correct,0.35717132550932174,1,valid_win,641.9805827999953,64,,,,,,,,,,,,,,,sub_1003,2025-01-19_10h52.46.167,Reversal,2023.1.3,60.02872970324444,3,
19,exp3.png,exp4.png,,,,,,,,,,,,,,,,,,1,0,1,0,0,19,19,19,,,,,,,,,False,39,120,False,exp3.png,exp4.png,trial_right_image,-1,exp4.png,3,exp4.png,exp3.png,1,1,non-reversed,correct,0.1692947948482496,0,invalid_lose,647.278659600066,64,,,,,,,,,,,,,,,sub_1003,2025-01-19_10h52.46.167,Reversal,2023.1.3,60.02872970324444,3,
20,exp1.png,exp2.png,,,,,,,,,,,,,,,,,,1,0,1,0,0,20,20,20,,,,,,,,,True,,,,,,,,,,,,,,,,,,,,,,,,,,,,,,,,,,,sub_1003,2025-01-19_10h52.46.167,Reversal,2023.1.3,60.02872970324444,3,
,,,exp1.png,,,,,,,,,,,,,,,,,1,0,1,0,,,,,0,0,0,0,0,0,0,0,,,,,,,,,,,,,,,,,,,,,,752.1641042998526,67.0,67.0,2.4210316999815404,"[(67.0, 2.4210316999815404)]",,,,,,,,,,sub_1003,2025-01-19_10h52.46.167,Reversal,2023.1.3,60.02872970324444,3,
,,,exp2.png,,,,,,,,,,,,,,,,,1,0,1,0,,,,,0,0,0,0,0,1,1,1,,,,,,,,,,,,,,,,,,,,,,755.5019787000492,,27.0,2.5803274998907,"[(27.0, 2.5803274998907)]",,,27.0,,,,,,,sub_1003,2025-01-19_10h52.46.167,Reversal,2023.1.3,60.02872970324444,3,
,,,exp3.png,,,,,,,,,,,,,,,,,1,0,1,0,,,,,0,0,0,0,0,2,2,2,,,,,,,,,,,,,,,,,,,,,,759.5181750999764,,24.0,1.9155139001086354,"[(24.0, 1.9155139001086354)]",24.0,,,,,,,,,sub_1003,2025-01-19_10h52.46.167,Reversal,2023.1.3,60.02872970324444,3,
,,,exp4.png,,,,,,,,,,,,,,,,,1,0,1,0,,,,,0,0,0,0,0,3,3,3,,,,,,,,,,,,,,,,,,,,,,762.4159011999145,,81.0,1.9288433000911027,"[(78.0, 1.1290311999619007), (81.0, 1.9288433000911027)]",,81.0,,,,,,,,sub_1003,2025-01-19_10h52.46.167,Reversal,2023.1.3,60.02872970324444,3,
0,exp1.png,exp2.png,,,,,,,,,,,,,,,,,,2,0,2,0,0,0,0,0,,,,,,,,,False,40,121,True,exp2.png,exp1.png,trial_right_image,-1,exp1.png,3,exp1.png,exp2.png,0,4,reversed,correct,0.3605562861435442,1,valid_win,665.7388962002005,65,,,,,,,,,,,,,,,sub_1003,2025-01-19_10h52.46.167,Reversal,2023.1.3,60.02872970324444,3,
1,exp3.png,exp4.png,,,,,,,,,,,,,,,,,,2,0,2,0,0,1,1,1,,,,,,,,,False,41,122,False,exp3.png,exp4.png,trial_right_image,-1,exp4.png,3,exp4.png,exp3.png,1,1,non-reversed,correct,0.41752703679934844,1,valid_win,672.3865070000757,66,,,,,,,,,,,,,,,sub_1003,2025-01-19_10h52.46.167,Reversal,2023.1.3,60.02872970324444,3,
2,exp1.png,exp2.png,,,,,,,,,,,,,,,,,,2,0,2,0,0,2,2,2,,,,,,,,,False,42,123,True,exp2.png,exp1.png,trial_right_image,-1,exp1.png,3,exp1.png,exp2.png,0,4,reversed,correct,0.9233968411002423,1,valid_win,677.952110200189,67,,,,,,,,,,,,,,,sub_1003,2025-01-19_10h52.46.167,Reversal,2023.1.3,60.02872970324444,3,
3,exp3.png,exp4.png,,,,,,,,,,,,,,,,,,2,0,2,0,0,3,3,3,,,,,,,,,False,43,124,True,exp4.png,exp3.png,trial_left_image,1,exp4.png,3,exp4.png,exp3.png,1,1,non-reversed,correct,0.6732441764829326,1,valid_win,682.8999171000905,68,,,,,,,,,,,,,,,sub_1003,2025-01-19_10h52.46.167,Reversal,2023.1.3,60.02872970324444,3,
4,exp1.png,exp2.png,,,,,,,,,,,,,,,,,,2,0,2,0,0,4,4,4,,,,,,,,,False,44,125,False,exp1.png,exp2.png,trial_left_image,1,exp1.png,3,exp1.png,exp2.png,0,4,reversed,correct,0.43941972145617747,1,valid_win,688.5480751001742,69,,,,,,,,,,,,,,,sub_1003,2025-01-19_10h52.46.167,Reversal,2023.1.3,60.02872970324444,3,
5,exp3.png,exp4.png,,,,,,,,,,,,,,,,,,2,0,2,0,0,5,5,5,,,,,,,,,False,45,126,False,exp3.png,exp4.png,trial_right_image,-1,exp4.png,3,exp4.png,exp3.png,1,1,non-reversed,correct,0.9949986238701627,1,valid_win,693.3962157000788,70,,,,,,,,,,,,,,,sub_1003,2025-01-19_10h52.46.167,Reversal,2023.1.3,60.02872970324444,3,
6,exp1.png,exp2.png,,,,,,,,,,,,,,,,,,2,0,2,0,0,6,6,6,,,,,,,,,False,46,127,True,exp2.png,exp1.png,trial_right_image,-1,exp1.png,3,exp1.png,exp2.png,0,4,reversed,correct,0.5050817398615136,1,valid_win,698.9113066000864,71,,,,,,,,,,,,,,,sub_1003,2025-01-19_10h52.46.167,Reversal,2023.1.3,60.02872970324444,3,
7,exp3.png,exp4.png,,,,,,,,,,,,,,,,,,2,0,2,0,0,7,7,7,,,,,,,,,False,47,128,False,exp3.png,exp4.png,trial_right_image,-1,exp4.png,3,exp4.png,exp3.png,1,1,non-reversed,correct,0.695717980498222,1,valid_win,704.5592654000502,72,,,,,,,,,,,,,,,sub_1003,2025-01-19_10h52.46.167,Reversal,2023.1.3,60.02872970324444,3,
8,exp1.png,exp2.png,,,,,,,,,,,,,,,,,,2,0,2,0,0,8,8,8,,,,,,,,,False,48,129,True,exp2.png,exp1.png,trial_right_image,-1,exp1.png,3,exp1.png,exp2.png,0,4,reversed,correct,0.554543376024896,1,valid_win,709.1576143000275,73,,,,,,,,,,,,,,,sub_1003,2025-01-19_10h52.46.167,Reversal,2023.1.3,60.02872970324444,3,
9,exp3.png,exp4.png,,,,,,,,,,,,,,,,,,2,0,2,0,0,9,9,9,,,,,,,,,False,49,130,False,exp3.png,exp4.png,trial_right_image,-1,exp4.png,3,exp4.png,exp3.png,1,1,non-reversed,correct,0.4227555616073413,1,valid_win,714.6055817001034,74,,,,,,,,,,,,,,,sub_1003,2025-01-19_10h52.46.167,Reversal,2023.1.3,60.02872970324444,3,
10,exp1.png,exp2.png,,,,,,,,,,,,,,,,,,2,0,2,0,0,10,10,10,,,,,,,,,False,50,131,True,exp2.png,exp1.png,trial_right_image,-1,exp1.png,3,exp1.png,exp2.png,0,4,reversed,correct,0.012696071883517845,0,invalid_lose,721.2200919000898,74,,,,,,,,,,,,,,,sub_1003,2025-01-19_10h52.46.167,Reversal,2023.1.3,60.02872970324444,3,
11,exp3.png,exp4.png,,,,,,,,,,,,,,,,,,2,0,2,0,0,11,11,11,,,,,,,,,False,51,132,False,exp3.png,exp4.png,trial_right_image,-1,exp4.png,3,exp4.png,exp3.png,1,1,non-reversed,correct,0.19113019582160684,0,invalid_lose,726.5184139001649,74,,,,,,,,,,,,,,,sub_1003,2025-01-19_10h52.46.167,Reversal,2023.1.3,60.02872970324444,3,
12,exp1.png,exp2.png,,,,,,,,,,,,,,,,,,2,0,2,0,0,12,12,12,,,,,,,,,False,52,133,False,exp1.png,exp2.png,trial_left_image,1,exp1.png,3,exp1.png,exp2.png,0,4,reversed,correct,0.13430393019630849,0,invalid_lose,732.1495831001084,74,,,,,,,,,,,,,,,sub_1003,2025-01-19_10h52.46.167,Reversal,2023.1.3,60.02872970324444,3,
13,exp3.png,exp4.png,,,,,,,,,,,,,,,,,,2,0,2,0,0,13,13,13,,,,,,,,,False,53,134,True,exp4.png,exp3.png,trial_left_image,1,exp4.png,3,exp4.png,exp3.png,1,1,non-reversed,correct,0.9008350586238604,1,valid_win,736.8149891002104,75,,,,,,,,,,,,,,,sub_1003,2025-01-19_10h52.46.167,Reversal,2023.1.3,60.02872970324444,3,
14,exp1.png,exp2.png,,,,,,,,,,,,,,,,,,2,0,2,0,0,14,14,14,,,,,,,,,False,54,135,True,exp2.png,exp1.png,trial_right_image,-1,exp1.png,3,exp1.png,exp2.png,0,4,reversed,correct,0.9258245106566453,1,valid_win,743.212537900079,76,,,,,,,,,,,,,,,sub_1003,2025-01-19_10h52.46.167,Reversal,2023.1.3,60.02872970324444,3,
15,exp3.png,exp4.png,,,,,,,,,,,,,,,,,,2,0,2,0,0,15,15,15,,,,,,,,,False,55,136,False,exp3.png,exp4.png,trial_right_image,-1,exp4.png,3,exp4.png,exp3.png,1,1,non-reversed,correct,0.8836155381740457,1,valid_win,748.7442013002001,77,,,,,,,,,,,,,,,sub_1003,2025-01-19_10h52.46.167,Reversal,2023.1.3,60.02872970324444,3,
16,exp1.png,exp2.png,,,,,,,,,,,,,,,,,,2,0,2,0,0,16,16,16,,,,,,,,,False,56,137,False,exp1.png,exp2.png,trial_left_image,1,exp1.png,3,exp1.png,exp2.png,0,4,reversed,correct,0.35885213055933873,1,valid_win,753.193064799998,78,,,,,,,,,,,,,,,sub_1003,2025-01-19_10h52.46.167,Reversal,2023.1.3,60.02872970324444,3,
17,exp3.png,exp4.png,,,,,,,,,,,,,,,,,,2,0,2,0,0,17,17,17,,,,,,,,,False,57,138,True,exp4.png,exp3.png,trial_left_image,1,exp4.png,3,exp4.png,exp3.png,1,1,non-reversed,correct,0.8712733559094684,1,valid_win,757.7911936000455,79,,,,,,,,,,,,,,,sub_1003,2025-01-19_10h52.46.167,Reversal,2023.1.3,60.02872970324444,3,
18,exp1.png,exp2.png,,,,,,,,,,,,,,,,,,2,0,2,0,0,18,18,18,,,,,,,,,False,58,139,True,exp2.png,exp1.png,trial_right_image,-1,exp1.png,3,exp1.png,exp2.png,0,4,reversed,correct,0.5614488142142069,1,valid_win,762.356220100075,80,,,,,,,,,,,,,,,sub_1003,2025-01-19_10h52.46.167,Reversal,2023.1.3,60.02872970324444,3,
19,exp3.png,exp4.png,,,,,,,,,,,,,,,,,,2,0,2,0,0,19,19,19,,,,,,,,,False,59,140,False,exp3.png,exp4.png,trial_right_image,-1,exp4.png,3,exp4.png,exp3.png,1,1,non-reversed,correct,0.6008550756642562,1,valid_win,767.1878775001969,81,,,,,,,,,,,,,,,sub_1003,2025-01-19_10h52.46.167,Reversal,2023.1.3,60.02872970324444,3,
20,exp1.png,exp2.png,,,,,,,,,,,,,,,,,,2,0,2,0,0,20,20,20,,,,,,,,,True,,,,,,,,,,,,,,,,,,,,,,,,,,,,,,,,,,,sub_1003,2025-01-19_10h52.46.167,Reversal,2023.1.3,60.02872970324444,3,
,,,exp1.png,,,,,,,,,,,,,,,,,2,0,2,0,,,,,0,0,0,0,0,0,0,0,,,,,,,,,,,,,,,,,,,,,,872.0715016999748,77.0,77.0,3.256250800099224,"[(77.0, 3.256250800099224)]",,,,,,,,,,sub_1003,2025-01-19_10h52.46.167,Reversal,2023.1.3,60.02872970324444,3,
,,,exp2.png,,,,,,,,,,,,,,,,,2,0,2,0,,,,,0,0,0,0,0,1,1,1,,,,,,,,,,,,,,,,,,,,,,876.3782208000775,,19.0,2.0947374999523163,"[(19.0, 2.0947374999523163)]",,,19.0,,,,,,,sub_1003,2025-01-19_10h52.46.167,Reversal,2023.1.3,60.02872970324444,3,
,,,exp3.png,,,,,,,,,,,,,,,,,2,0,2,0,,,,,0,0,0,0,0,2,2,2,,,,,,,,,,,,,,,,,,,,,,879.4945221000817,,15.0,1.4278371999971569,"[(15.0, 1.4278371999971569)]",15.0,,,,,,,,,sub_1003,2025-01-19_10h52.46.167,Reversal,2023.1.3,60.02872970324444,3,
,,,exp4.png,,,,,,,,,,,,,,,,,2,0,2,0,,,,,0,0,0,0,0,3,3,3,,,,,,,,,,,,,,,,,,,,,,881.9275557999499,,84.0,1.3261786999646574,"[(84.0, 1.3261786999646574)]",,84.0,,,,,,,,sub_1003,2025-01-19_10h52.46.167,Reversal,2023.1.3,60.02872970324444,3,
,,,,,,,,,,,,,,,,,,,,,,,,,,,,,,,,,,,,,,,,,,,,,,,,,,,,,,,,81,,,,,,,,,,100,45,55,349.12334889988415,1,,,,,,,
