trial_index,trial_image1_file,trial_image2_file,image_file,learning_outer_loop.thisRepN,learning_outer_loop.thisTrialN,learning_outer_loop.thisN,learning_outer_loop.thisIndex,learning_inner_loop.thisRepN,learning_inner_loop.thisTrialN,learning_inner_loop.thisN,learning_inner_loop.thisIndex,learning_estimation_outer_loop.thisRepN,learning_estimation_outer_loop.thisTrialN,learning_estimation_outer_loop.thisN,learning_estimation_outer_loop.thisIndex,learning_estimation_inner_loop.thisRepN,learning_estimation_inner_loop.thisTrialN,learning_estimation_inner_loop.thisN,learning_estimation_inner_loop.thisIndex,reversal_outer_loop.thisRepN,reversal_outer_loop.thisTrialN,reversal_outer_loop.thisN,reversal_outer_loop.thisIndex,reversal_inner_loop.thisRepN,reversal_inner_loop.thisTrialN,reversal_inner_loop.thisN,reversal_inner_loop.thisIndex,reversal_estimation_outer_loop.thisRepN,reversal_estimation_outer_loop.thisTrialN,reversal_estimation_outer_loop.thisN,reversal_estimation_outer_loop.thisIndex,reversal_estimation_inner_loop.thisRepN,reversal_estimation_inner_loop.thisTrialN,reversal_estimation_inner_loop.thisN,reversal_estimation_inner_loop.thisIndex,skipped,total_trial_counter,trial_num,left_right_flip,left_image_file,right_image_file,clicked_stimulus_side,side,clicked_stimulus,version,high_prob_image_file,low_prob_image_file,choice_a,choice_b,pair_type,correct,trial_feedback_random,reward,trial_type,overall_time_after_trial,score,estimation_rating.started,estimation_exp1.png,estimation_rating.response,estimation_rating.rt,estimation_rating.history,estimation_exp2.png,estimation_exp3.png,estimation_exp4.png,total_learning_time,total_correct,learning_correct,reversal_correct,total_reversal_time,extra_block,participant,date,expName,psychopyVersion,frameRate,ver,
0,exp1.png,exp2.png,,0,0,0,0,0,0,0,0,,,,,,,,,,,,,,,,,,,,,,,,,True,,,,,,,,,,,,,,,,,,,,,,,,,,,,,,,,,,,sub_324,2023-08-13_10h47.42.842,Reversal,2023.1.3,60.04141656910351,4,
1,exp3.png,exp4.png,,0,0,0,0,0,1,1,1,,,,,,,,,,,,,,,,,,,,,,,,,False,0,1,False,exp3.png,exp4.png,trial_left_image,1,exp3.png,4,exp4.png,exp3.png,0,4,reversed,incorrect,0.7832906188678987,0,valid_lose,3.3477145999986533,0,,,,,,,,,,,,,,,sub_324,2023-08-13_10h47.42.842,Reversal,2023.1.3,60.04141656910351,4,
2,exp1.png,exp2.png,,0,0,0,0,0,2,2,2,,,,,,,,,,,,,,,,,,,,,,,,,False,1,2,False,exp1.png,exp2.png,trial_right_image,-1,exp2.png,4,exp2.png,exp1.png,1,1,non-reversed,correct,0.11056425018669547,0,invalid_lose,8.395688099999461,0,,,,,,,,,,,,,,,sub_324,2023-08-13_10h47.42.842,Reversal,2023.1.3,60.04141656910351,4,
3,exp3.png,exp4.png,,0,0,0,0,0,3,3,3,,,,,,,,,,,,,,,,,,,,,,,,,False,2,3,False,exp3.png,exp4.png,trial_left_image,1,exp3.png,4,exp4.png,exp3.png,0,4,reversed,incorrect,0.28084405944864244,0,valid_lose,13.877086999998937,0,,,,,,,,,,,,,,,sub_324,2023-08-13_10h47.42.842,Reversal,2023.1.3,60.04141656910351,4,
4,exp1.png,exp2.png,,0,0,0,0,0,4,4,4,,,,,,,,,,,,,,,,,,,,,,,,,False,3,4,True,exp2.png,exp1.png,trial_left_image,1,exp2.png,4,exp2.png,exp1.png,1,1,non-reversed,correct,0.9990230563895267,1,valid_win,20.24160859999938,1,,,,,,,,,,,,,,,sub_324,2023-08-13_10h47.42.842,Reversal,2023.1.3,60.04141656910351,4,
5,exp3.png,exp4.png,,0,0,0,0,0,5,5,5,,,,,,,,,,,,,,,,,,,,,,,,,False,4,5,True,exp4.png,exp3.png,trial_right_image,-1,exp3.png,4,exp4.png,exp3.png,0,4,reversed,incorrect,0.8611736080098435,0,valid_lose,26.206029099999796,1,,,,,,,,,,,,,,,sub_324,2023-08-13_10h47.42.842,Reversal,2023.1.3,60.04141656910351,4,
6,exp1.png,exp2.png,,0,0,0,0,0,6,6,6,,,,,,,,,,,,,,,,,,,,,,,,,False,5,6,True,exp2.png,exp1.png,trial_right_image,-1,exp1.png,4,exp2.png,exp1.png,0,2,non-reversed,incorrect,0.31614337931006753,0,valid_lose,32.95436779999909,1,,,,,,,,,,,,,,,sub_324,2023-08-13_10h47.42.842,Reversal,2023.1.3,60.04141656910351,4,
7,exp3.png,exp4.png,,0,0,0,0,0,7,7,7,,,,,,,,,,,,,,,,,,,,,,,,,False,6,7,True,exp4.png,exp3.png,trial_left_image,1,exp4.png,4,exp4.png,exp3.png,1,3,reversed,correct,0.5810355821607422,1,valid_win,40.26808179999898,2,,,,,,,,,,,,,,,sub_324,2023-08-13_10h47.42.842,Reversal,2023.1.3,60.04141656910351,4,
8,exp1.png,exp2.png,,0,0,0,0,0,8,8,8,,,,,,,,,,,,,,,,,,,,,,,,,False,7,8,False,exp1.png,exp2.png,trial_left_image,1,exp1.png,4,exp2.png,exp1.png,0,2,non-reversed,incorrect,0.6180169128433373,0,valid_lose,46.532700799998565,2,,,,,,,,,,,,,,,sub_324,2023-08-13_10h47.42.842,Reversal,2023.1.3,60.04141656910351,4,
9,exp3.png,exp4.png,,0,0,0,0,0,9,9,9,,,,,,,,,,,,,,,,,,,,,,,,,False,8,9,False,exp3.png,exp4.png,trial_right_image,-1,exp4.png,4,exp4.png,exp3.png,1,3,reversed,correct,0.17744881851659533,0,invalid_lose,51.06492309999885,2,,,,,,,,,,,,,,,sub_324,2023-08-13_10h47.42.842,Reversal,2023.1.3,60.04141656910351,4,
10,exp1.png,exp2.png,,0,0,0,0,0,10,10,10,,,,,,,,,,,,,,,,,,,,,,,,,False,9,10,False,exp1.png,exp2.png,trial_right_image,-1,exp2.png,4,exp2.png,exp1.png,1,1,non-reversed,correct,0.4611102614385727,1,valid_win,56.11381749999964,3,,,,,,,,,,,,,,,sub_324,2023-08-13_10h47.42.842,Reversal,2023.1.3,60.04141656910351,4,
11,exp3.png,exp4.png,,0,0,0,0,0,11,11,11,,,,,,,,,,,,,,,,,,,,,,,,,False,10,11,True,exp4.png,exp3.png,trial_left_image,1,exp4.png,4,exp4.png,exp3.png,1,3,reversed,correct,0.30556786198583163,1,valid_win,61.56100559999868,4,,,,,,,,,,,,,,,sub_324,2023-08-13_10h47.42.842,Reversal,2023.1.3,60.04141656910351,4,
12,exp1.png,exp2.png,,0,0,0,0,0,12,12,12,,,,,,,,,,,,,,,,,,,,,,,,,False,11,12,True,exp2.png,exp1.png,trial_right_image,-1,exp1.png,4,exp2.png,exp1.png,0,2,non-reversed,incorrect,0.8483833293830478,0,valid_lose,68.57516959999884,4,,,,,,,,,,,,,,,sub_324,2023-08-13_10h47.42.842,Reversal,2023.1.3,60.04141656910351,4,
13,exp3.png,exp4.png,,0,0,0,0,0,13,13,13,,,,,,,,,,,,,,,,,,,,,,,,,False,12,13,False,exp3.png,exp4.png,trial_left_image,1,exp3.png,4,exp4.png,exp3.png,0,4,reversed,incorrect,0.35711753143130853,0,valid_lose,73.84047060000012,4,,,,,,,,,,,,,,,sub_324,2023-08-13_10h47.42.842,Reversal,2023.1.3,60.04141656910351,4,
14,exp1.png,exp2.png,,0,0,0,0,0,14,14,14,,,,,,,,,,,,,,,,,,,,,,,,,False,13,14,True,exp2.png,exp1.png,trial_right_image,-1,exp1.png,4,exp2.png,exp1.png,0,2,non-reversed,incorrect,0.7291600854537315,0,valid_lose,78.62170890000016,4,,,,,,,,,,,,,,,sub_324,2023-08-13_10h47.42.842,Reversal,2023.1.3,60.04141656910351,4,
15,exp3.png,exp4.png,,0,0,0,0,0,15,15,15,,,,,,,,,,,,,,,,,,,,,,,,,False,14,15,False,exp3.png,exp4.png,trial_right_image,-1,exp4.png,4,exp4.png,exp3.png,1,3,reversed,correct,0.46938232219638143,1,valid_win,83.88695639999969,5,,,,,,,,,,,,,,,sub_324,2023-08-13_10h47.42.842,Reversal,2023.1.3,60.04141656910351,4,
16,exp1.png,exp2.png,,0,0,0,0,0,16,16,16,,,,,,,,,,,,,,,,,,,,,,,,,False,15,16,False,exp1.png,exp2.png,trial_right_image,-1,exp2.png,4,exp2.png,exp1.png,1,1,non-reversed,correct,0.7471159115122554,1,valid_win,89.36825429999953,6,,,,,,,,,,,,,,,sub_324,2023-08-13_10h47.42.842,Reversal,2023.1.3,60.04141656910351,4,
17,exp3.png,exp4.png,,0,0,0,0,0,17,17,17,,,,,,,,,,,,,,,,,,,,,,,,,False,16,17,True,exp4.png,exp3.png,trial_left_image,1,exp4.png,4,exp4.png,exp3.png,1,3,reversed,correct,0.3825129331745809,1,valid_win,93.9834340999987,7,,,,,,,,,,,,,,,sub_324,2023-08-13_10h47.42.842,Reversal,2023.1.3,60.04141656910351,4,
18,exp1.png,exp2.png,,0,0,0,0,0,18,18,18,,,,,,,,,,,,,,,,,,,,,,,,,False,17,18,True,exp2.png,exp1.png,trial_left_image,1,exp2.png,4,exp2.png,exp1.png,1,1,non-reversed,correct,0.945886975134147,1,valid_win,98.63210999999865,8,,,,,,,,,,,,,,,sub_324,2023-08-13_10h47.42.842,Reversal,2023.1.3,60.04141656910351,4,
19,exp3.png,exp4.png,,0,0,0,0,0,19,19,19,,,,,,,,,,,,,,,,,,,,,,,,,False,18,19,False,exp3.png,exp4.png,trial_right_image,-1,exp4.png,4,exp4.png,exp3.png,1,3,reversed,correct,0.8000093280167819,1,valid_win,103.21386600000005,9,,,,,,,,,,,,,,,sub_324,2023-08-13_10h47.42.842,Reversal,2023.1.3,60.04141656910351,4,
20,exp1.png,exp2.png,,0,0,0,0,0,20,20,20,,,,,,,,,,,,,,,,,,,,,,,,,False,19,20,True,exp2.png,exp1.png,trial_left_image,1,exp2.png,4,exp2.png,exp1.png,1,1,non-reversed,correct,0.5311277415564392,1,valid_win,107.99534559999847,10,,,,,,,,,,,,,,,sub_324,2023-08-13_10h47.42.842,Reversal,2023.1.3,60.04141656910351,4,
,,,exp1.png,0,0,0,0,,,,,0,0,0,0,0,0,0,0,,,,,,,,,,,,,,,,,,,,,,,,,,,,,,,,,,,,,,228.76399479999964,25.0,25.0,15.142520900000818,"[(20.0, 9.143227300000945), (25.0, 15.142520900000818)]",,,,,,,,,,sub_324,2023-08-13_10h47.42.842,Reversal,2023.1.3,60.04141656910351,4,
,,,exp2.png,0,0,0,0,,,,,0,0,0,0,0,1,1,1,,,,,,,,,,,,,,,,,,,,,,,,,,,,,,,,,,,,,,245.47509340000033,,80.0,3.6944378999996843,"[(80.0, 3.6944378999996843)]",80.0,,,,,,,,,sub_324,2023-08-13_10h47.42.842,Reversal,2023.1.3,60.04141656910351,4,
,,,exp3.png,0,0,0,0,,,,,0,0,0,0,0,2,2,2,,,,,,,,,,,,,,,,,,,,,,,,,,,,,,,,,,,,,,250.26756170000044,,27.0,5.544431500000428,"[(27.0, 5.544431500000428)]",,27.0,,,,,,,,sub_324,2023-08-13_10h47.42.842,Reversal,2023.1.3,60.04141656910351,4,
,,,exp4.png,0,0,0,0,,,,,0,0,0,0,0,3,3,3,,,,,,,,,,,,,,,,,,,,,,,,,,,,,,,,,,,,,,256.91898800000126,,73.0,3.2270449999996345,"[(73.0, 3.2270449999996345)]",,,73.0,,,,,,,sub_324,2023-08-13_10h47.42.842,Reversal,2023.1.3,60.04141656910351,4,
0,exp1.png,exp2.png,,1,0,1,0,0,0,0,0,,,,,,,,,,,,,,,,,,,,,,,,,True,,,,,,,,,,,,,,,,,,,,,,,,,,,,,,,,,,,sub_324,2023-08-13_10h47.42.842,Reversal,2023.1.3,60.04141656910351,4,
1,exp3.png,exp4.png,,1,0,1,0,0,1,1,1,,,,,,,,,,,,,,,,,,,,,,,,,False,20,21,False,exp3.png,exp4.png,trial_right_image,-1,exp4.png,4,exp4.png,exp3.png,1,3,reversed,correct,0.7909480322196507,1,valid_win,148.14892119999968,11,,,,,,,,,,,,,,,sub_324,2023-08-13_10h47.42.842,Reversal,2023.1.3,60.04141656910351,4,
2,exp1.png,exp2.png,,1,0,1,0,0,2,2,2,,,,,,,,,,,,,,,,,,,,,,,,,False,21,22,False,exp1.png,exp2.png,trial_right_image,-1,exp2.png,4,exp2.png,exp1.png,1,1,non-reversed,correct,0.7797772259410672,1,valid_win,153.7636481999998,12,,,,,,,,,,,,,,,sub_324,2023-08-13_10h47.42.842,Reversal,2023.1.3,60.04141656910351,4,
3,exp3.png,exp4.png,,1,0,1,0,0,3,3,3,,,,,,,,,,,,,,,,,,,,,,,,,False,22,23,True,exp4.png,exp3.png,trial_left_image,1,exp4.png,4,exp4.png,exp3.png,1,3,reversed,correct,0.2931597299799795,1,valid_win,158.52897029999986,13,,,,,,,,,,,,,,,sub_324,2023-08-13_10h47.42.842,Reversal,2023.1.3,60.04141656910351,4,
4,exp1.png,exp2.png,,1,0,1,0,0,4,4,4,,,,,,,,,,,,,,,,,,,,,,,,,False,23,24,True,exp2.png,exp1.png,trial_left_image,1,exp2.png,4,exp2.png,exp1.png,1,1,non-reversed,correct,0.4118766312741683,1,valid_win,163.1931499000002,14,,,,,,,,,,,,,,,sub_324,2023-08-13_10h47.42.842,Reversal,2023.1.3,60.04141656910351,4,
5,exp3.png,exp4.png,,1,0,1,0,0,5,5,5,,,,,,,,,,,,,,,,,,,,,,,,,False,24,25,True,exp4.png,exp3.png,trial_left_image,1,exp4.png,4,exp4.png,exp3.png,1,3,reversed,correct,0.6463941465651988,1,valid_win,167.891809499999,15,,,,,,,,,,,,,,,sub_324,2023-08-13_10h47.42.842,Reversal,2023.1.3,60.04141656910351,4,
6,exp1.png,exp2.png,,1,0,1,0,0,6,6,6,,,,,,,,,,,,,,,,,,,,,,,,,False,25,26,True,exp2.png,exp1.png,trial_left_image,1,exp2.png,4,exp2.png,exp1.png,1,1,non-reversed,correct,0.13232335480127577,0,invalid_lose,172.65654379999978,15,,,,,,,,,,,,,,,sub_324,2023-08-13_10h47.42.842,Reversal,2023.1.3,60.04141656910351,4,
7,exp3.png,exp4.png,,1,0,1,0,0,7,7,7,,,,,,,,,,,,,,,,,,,,,,,,,False,26,27,False,exp3.png,exp4.png,trial_left_image,1,exp3.png,4,exp4.png,exp3.png,0,4,reversed,incorrect,0.3302077023049763,0,valid_lose,177.92190049999954,15,,,,,,,,,,,,,,,sub_324,2023-08-13_10h47.42.842,Reversal,2023.1.3,60.04141656910351,4,
8,exp1.png,exp2.png,,1,0,1,0,0,8,8,8,,,,,,,,,,,,,,,,,,,,,,,,,False,27,28,False,exp1.png,exp2.png,trial_right_image,-1,exp2.png,4,exp2.png,exp1.png,1,1,non-reversed,correct,0.3123349188325484,1,valid_win,182.33692109999902,16,,,,,,,,,,,,,,,sub_324,2023-08-13_10h47.42.842,Reversal,2023.1.3,60.04141656910351,4,
9,exp3.png,exp4.png,,1,0,1,0,0,9,9,9,,,,,,,,,,,,,,,,,,,,,,,,,False,28,29,True,exp4.png,exp3.png,trial_left_image,1,exp4.png,4,exp4.png,exp3.png,1,3,reversed,correct,0.6429229652659568,1,valid_win,187.16825280000012,17,,,,,,,,,,,,,,,sub_324,2023-08-13_10h47.42.842,Reversal,2023.1.3,60.04141656910351,4,
10,exp1.png,exp2.png,,1,0,1,0,0,10,10,10,,,,,,,,,,,,,,,,,,,,,,,,,False,29,30,True,exp2.png,exp1.png,trial_right_image,-1,exp1.png,4,exp2.png,exp1.png,0,2,non-reversed,incorrect,0.594244530376786,0,valid_lose,192.53333070000008,17,,,,,,,,,,,,,,,sub_324,2023-08-13_10h47.42.842,Reversal,2023.1.3,60.04141656910351,4,
11,exp3.png,exp4.png,,1,0,1,0,0,11,11,11,,,,,,,,,,,,,,,,,,,,,,,,,False,30,31,False,exp3.png,exp4.png,trial_right_image,-1,exp4.png,4,exp4.png,exp3.png,1,3,reversed,correct,0.4977631231503573,1,valid_win,197.01557109999885,18,,,,,,,,,,,,,,,sub_324,2023-08-13_10h47.42.842,Reversal,2023.1.3,60.04141656910351,4,
12,exp1.png,exp2.png,,1,0,1,0,0,12,12,12,,,,,,,,,,,,,,,,,,,,,,,,,False,31,32,True,exp2.png,exp1.png,trial_left_image,1,exp2.png,4,exp2.png,exp1.png,1,1,non-reversed,correct,0.6819551637413963,1,valid_win,201.94714000000022,19,,,,,,,,,,,,,,,sub_324,2023-08-13_10h47.42.842,Reversal,2023.1.3,60.04141656910351,4,
13,exp3.png,exp4.png,,1,0,1,0,0,13,13,13,,,,,,,,,,,,,,,,,,,,,,,,,False,32,33,True,exp4.png,exp3.png,trial_right_image,-1,exp3.png,4,exp4.png,exp3.png,0,4,reversed,incorrect,0.7431864265925817,0,valid_lose,210.24437579999903,19,,,,,,,,,,,,,,,sub_324,2023-08-13_10h47.42.842,Reversal,2023.1.3,60.04141656910351,4,
14,exp1.png,exp2.png,,1,0,1,0,0,14,14,14,,,,,,,,,,,,,,,,,,,,,,,,,False,33,34,True,exp2.png,exp1.png,trial_left_image,1,exp2.png,4,exp2.png,exp1.png,1,1,non-reversed,correct,0.5849157643857751,1,valid_win,214.74276139999893,20,,,,,,,,,,,,,,,sub_324,2023-08-13_10h47.42.842,Reversal,2023.1.3,60.04141656910351,4,
15,exp3.png,exp4.png,,1,0,1,0,0,15,15,15,,,,,,,,,,,,,,,,,,,,,,,,,False,34,35,False,exp3.png,exp4.png,trial_right_image,-1,exp4.png,4,exp4.png,exp3.png,1,3,reversed,correct,0.4750980101985326,1,valid_win,220.07453189999978,21,,,,,,,,,,,,,,,sub_324,2023-08-13_10h47.42.842,Reversal,2023.1.3,60.04141656910351,4,
16,exp1.png,exp2.png,,1,0,1,0,0,16,16,16,,,,,,,,,,,,,,,,,,,,,,,,,False,35,36,False,exp1.png,exp2.png,trial_right_image,-1,exp2.png,4,exp2.png,exp1.png,1,1,non-reversed,correct,0.934442534083355,1,valid_win,224.53906439999992,22,,,,,,,,,,,,,,,sub_324,2023-08-13_10h47.42.842,Reversal,2023.1.3,60.04141656910351,4,
17,exp3.png,exp4.png,,1,0,1,0,0,17,17,17,,,,,,,,,,,,,,,,,,,,,,,,,False,36,37,True,exp4.png,exp3.png,trial_right_image,-1,exp3.png,4,exp4.png,exp3.png,0,4,reversed,incorrect,0.41447758406851687,0,valid_lose,231.45395469999858,22,,,,,,,,,,,,,,,sub_324,2023-08-13_10h47.42.842,Reversal,2023.1.3,60.04141656910351,4,
18,exp1.png,exp2.png,,1,0,1,0,0,18,18,18,,,,,,,,,,,,,,,,,,,,,,,,,False,37,38,False,exp1.png,exp2.png,trial_right_image,-1,exp2.png,4,exp2.png,exp1.png,1,1,non-reversed,correct,0.45079268416175744,1,valid_win,235.56913559999884,23,,,,,,,,,,,,,,,sub_324,2023-08-13_10h47.42.842,Reversal,2023.1.3,60.04141656910351,4,
19,exp3.png,exp4.png,,1,0,1,0,0,19,19,19,,,,,,,,,,,,,,,,,,,,,,,,,False,38,39,False,exp3.png,exp4.png,trial_right_image,-1,exp4.png,4,exp4.png,exp3.png,1,3,reversed,correct,0.1593935062240175,0,invalid_lose,239.7680165999991,23,,,,,,,,,,,,,,,sub_324,2023-08-13_10h47.42.842,Reversal,2023.1.3,60.04141656910351,4,
20,exp1.png,exp2.png,,1,0,1,0,0,20,20,20,,,,,,,,,,,,,,,,,,,,,,,,,False,39,40,False,exp1.png,exp2.png,trial_right_image,-1,exp2.png,4,exp2.png,exp1.png,1,1,non-reversed,correct,0.552700895630472,1,valid_win,244.79935659999865,24,,,,,,,,,,,,,,,sub_324,2023-08-13_10h47.42.842,Reversal,2023.1.3,60.04141656910351,4,
,,,exp1.png,1,0,1,0,,,,,0,0,0,0,0,0,0,0,,,,,,,,,,,,,,,,,,,,,,,,,,,,,,,,,,,,,,365.5655304000011,15.0,15.0,4.572363699999187,"[(15.0, 4.572363699999187)]",,,,,,,,,,sub_324,2023-08-13_10h47.42.842,Reversal,2023.1.3,60.04141656910351,4,
,,,exp2.png,1,0,1,0,,,,,0,0,0,0,0,1,1,1,,,,,,,,,,,,,,,,,,,,,,,,,,,,,,,,,,,,,,371.6456046000003,,90.0,2.125919599999179,"[(90.0, 2.125919599999179)]",90.0,,,,,,,,,sub_324,2023-08-13_10h47.42.842,Reversal,2023.1.3,60.04141656910351,4,
,,,exp3.png,1,0,1,0,,,,,0,0,0,0,0,2,2,2,,,,,,,,,,,,,,,,,,,,,,,,,,,,,,,,,,,,,,374.82418900000084,,15.0,5.460893999999826,"[(15.0, 5.460893999999826)]",,15.0,,,,,,,,sub_324,2023-08-13_10h47.42.842,Reversal,2023.1.3,60.04141656910351,4,
,,,exp4.png,1,0,1,0,,,,,0,0,0,0,0,3,3,3,,,,,,,,,,,,,,,,,,,,,,,,,,,,,,,,,,,,,,381.4585311999999,,81.0,2.243842500000028,"[(81.0, 2.243842500000028)]",,,81.0,,,,,,,sub_324,2023-08-13_10h47.42.842,Reversal,2023.1.3,60.04141656910351,4,
0,exp1.png,exp2.png,,2,0,2,0,0,0,0,0,,,,,,,,,,,,,,,,,,,,,,,,,True,,,,,,,,,,,,,,,,,,,,,,,,,,,,,,,,,,,sub_324,2023-08-13_10h47.42.842,Reversal,2023.1.3,60.04141656910351,4,
1,exp3.png,exp4.png,,2,0,2,0,0,1,1,1,,,,,,,,,,,,,,,,,,,,,,,,,False,40,41,True,exp4.png,exp3.png,trial_left_image,1,exp4.png,4,exp4.png,exp3.png,1,3,reversed,correct,0.6797568801107723,1,valid_win,269.57443219999914,25,,,,,,,,,,,,,,,sub_324,2023-08-13_10h47.42.842,Reversal,2023.1.3,60.04141656910351,4,
2,exp1.png,exp2.png,,2,0,2,0,0,2,2,2,,,,,,,,,,,,,,,,,,,,,,,,,False,41,42,True,exp2.png,exp1.png,trial_left_image,1,exp2.png,4,exp2.png,exp1.png,1,1,non-reversed,correct,0.08028844437775551,0,invalid_lose,274.17284279999876,25,,,,,,,,,,,,,,,sub_324,2023-08-13_10h47.42.842,Reversal,2023.1.3,60.04141656910351,4,
3,exp3.png,exp4.png,,2,0,2,0,0,3,3,3,,,,,,,,,,,,,,,,,,,,,,,,,False,42,43,False,exp3.png,exp4.png,trial_right_image,-1,exp4.png,4,exp4.png,exp3.png,1,3,reversed,correct,0.8975751696089357,1,valid_win,278.9045901999998,26,,,,,,,,,,,,,,,sub_324,2023-08-13_10h47.42.842,Reversal,2023.1.3,60.04141656910351,4,
4,exp1.png,exp2.png,,2,0,2,0,0,4,4,4,,,,,,,,,,,,,,,,,,,,,,,,,False,43,44,True,exp2.png,exp1.png,trial_left_image,1,exp2.png,4,exp2.png,exp1.png,1,1,non-reversed,correct,0.3338234410124228,1,valid_win,283.50282699999843,27,,,,,,,,,,,,,,,sub_324,2023-08-13_10h47.42.842,Reversal,2023.1.3,60.04141656910351,4,
5,exp3.png,exp4.png,,2,0,2,0,0,5,5,5,,,,,,,,,,,,,,,,,,,,,,,,,False,44,45,False,exp3.png,exp4.png,trial_right_image,-1,exp4.png,4,exp4.png,exp3.png,1,3,reversed,correct,0.03724119769993295,0,invalid_lose,287.9848645000002,27,,,,,,,,,,,,,,,sub_324,2023-08-13_10h47.42.842,Reversal,2023.1.3,60.04141656910351,4,
6,exp1.png,exp2.png,,2,0,2,0,0,6,6,6,,,,,,,,,,,,,,,,,,,,,,,,,False,45,46,True,exp2.png,exp1.png,trial_left_image,1,exp2.png,4,exp2.png,exp1.png,1,1,non-reversed,correct,0.37159405203759277,1,valid_win,292.68292949999886,28,,,,,,,,,,,,,,,sub_324,2023-08-13_10h47.42.842,Reversal,2023.1.3,60.04141656910351,4,
7,exp3.png,exp4.png,,2,0,2,0,0,7,7,7,,,,,,,,,,,,,,,,,,,,,,,,,False,46,47,False,exp3.png,exp4.png,trial_right_image,-1,exp4.png,4,exp4.png,exp3.png,1,3,reversed,correct,0.27590067821040465,1,valid_win,297.26503559999946,29,,,,,,,,,,,,,,,sub_324,2023-08-13_10h47.42.842,Reversal,2023.1.3,60.04141656910351,4,
8,exp1.png,exp2.png,,2,0,2,0,0,8,8,8,,,,,,,,,,,,,,,,,,,,,,,,,False,47,48,False,exp1.png,exp2.png,trial_left_image,1,exp1.png,4,exp2.png,exp1.png,0,2,non-reversed,incorrect,0.4599389918984198,0,valid_lose,302.11332089999996,29,,,,,,,,,,,,,,,sub_324,2023-08-13_10h47.42.842,Reversal,2023.1.3,60.04141656910351,4,
9,exp3.png,exp4.png,,2,0,2,0,0,9,9,9,,,,,,,,,,,,,,,,,,,,,,,,,False,48,49,True,exp4.png,exp3.png,trial_left_image,1,exp4.png,4,exp4.png,exp3.png,1,3,reversed,correct,0.10562823210591787,0,invalid_lose,306.96181009999964,29,,,,,,,,,,,,,,,sub_324,2023-08-13_10h47.42.842,Reversal,2023.1.3,60.04141656910351,4,
10,exp1.png,exp2.png,,2,0,2,0,0,10,10,10,,,,,,,,,,,,,,,,,,,,,,,,,False,49,50,True,exp2.png,exp1.png,trial_left_image,1,exp2.png,4,exp2.png,exp1.png,1,1,non-reversed,correct,0.4157902197425727,1,valid_win,312.34315590000006,30,,,,,,,,,,,,,,,sub_324,2023-08-13_10h47.42.842,Reversal,2023.1.3,60.04141656910351,4,
11,exp3.png,exp4.png,,2,0,2,0,0,11,11,11,,,,,,,,,,,,,,,,,,,,,,,,,False,50,51,False,exp3.png,exp4.png,trial_left_image,1,exp3.png,4,exp4.png,exp3.png,0,4,reversed,incorrect,0.3652102113791442,0,valid_lose,317.8249001999993,30,,,,,,,,,,,,,,,sub_324,2023-08-13_10h47.42.842,Reversal,2023.1.3,60.04141656910351,4,
12,exp1.png,exp2.png,,2,0,2,0,0,12,12,12,,,,,,,,,,,,,,,,,,,,,,,,,False,51,52,True,exp2.png,exp1.png,trial_left_image,1,exp2.png,4,exp2.png,exp1.png,1,1,non-reversed,correct,0.3761478362892158,1,valid_win,322.28956299999845,31,,,,,,,,,,,,,,,sub_324,2023-08-13_10h47.42.842,Reversal,2023.1.3,60.04141656910351,4,
13,exp3.png,exp4.png,,2,0,2,0,0,13,13,13,,,,,,,,,,,,,,,,,,,,,,,,,False,52,53,True,exp4.png,exp3.png,trial_left_image,1,exp4.png,4,exp4.png,exp3.png,1,3,reversed,correct,0.7856679041897767,1,valid_win,327.1213627999987,32,,,,,,,,,,,,,,,sub_324,2023-08-13_10h47.42.842,Reversal,2023.1.3,60.04141656910351,4,
14,exp1.png,exp2.png,,2,0,2,0,0,14,14,14,,,,,,,,,,,,,,,,,,,,,,,,,False,53,54,True,exp2.png,exp1.png,trial_left_image,1,exp2.png,4,exp2.png,exp1.png,1,1,non-reversed,correct,0.18162216243468587,0,invalid_lose,332.1194832000001,32,,,,,,,,,,,,,,,sub_324,2023-08-13_10h47.42.842,Reversal,2023.1.3,60.04141656910351,4,
15,exp3.png,exp4.png,,2,0,2,0,0,15,15,15,,,,,,,,,,,,,,,,,,,,,,,,,False,54,55,False,exp3.png,exp4.png,trial_right_image,-1,exp4.png,4,exp4.png,exp3.png,1,3,reversed,correct,0.25884054469011875,1,valid_win,336.6514723,33,,,,,,,,,,,,,,,sub_324,2023-08-13_10h47.42.842,Reversal,2023.1.3,60.04141656910351,4,
16,exp1.png,exp2.png,,2,0,2,0,0,16,16,16,,,,,,,,,,,,,,,,,,,,,,,,,False,55,56,False,exp1.png,exp2.png,trial_right_image,-1,exp2.png,4,exp2.png,exp1.png,1,1,non-reversed,correct,0.3057233281619762,1,valid_win,341.76630589999877,34,,,,,,,,,,,,,,,sub_324,2023-08-13_10h47.42.842,Reversal,2023.1.3,60.04141656910351,4,
17,exp3.png,exp4.png,,2,0,2,0,0,17,17,17,,,,,,,,,,,,,,,,,,,,,,,,,False,56,57,True,exp4.png,exp3.png,trial_left_image,1,exp4.png,4,exp4.png,exp3.png,1,3,reversed,correct,0.8070115951724346,1,valid_win,347.5980460999999,35,,,,,,,,,,,,,,,sub_324,2023-08-13_10h47.42.842,Reversal,2023.1.3,60.04141656910351,4,
18,exp1.png,exp2.png,,2,0,2,0,0,18,18,18,,,,,,,,,,,,,,,,,,,,,,,,,False,57,58,False,exp1.png,exp2.png,trial_right_image,-1,exp2.png,4,exp2.png,exp1.png,1,1,non-reversed,correct,0.2799600717670734,1,valid_win,353.84602970000014,36,,,,,,,,,,,,,,,sub_324,2023-08-13_10h47.42.842,Reversal,2023.1.3,60.04141656910351,4,
19,exp3.png,exp4.png,,2,0,2,0,0,19,19,19,,,,,,,,,,,,,,,,,,,,,,,,,False,58,59,False,exp3.png,exp4.png,trial_right_image,-1,exp4.png,4,exp4.png,exp3.png,1,3,reversed,correct,0.8234131326128783,1,valid_win,359.0442621000002,37,,,,,,,,,,,,,,,sub_324,2023-08-13_10h47.42.842,Reversal,2023.1.3,60.04141656910351,4,
20,exp1.png,exp2.png,,2,0,2,0,0,20,20,20,,,,,,,,,,,,,,,,,,,,,,,,,False,59,60,False,exp1.png,exp2.png,trial_right_image,-1,exp2.png,4,exp2.png,exp1.png,1,1,non-reversed,correct,0.0435499410459006,0,invalid_lose,363.9924186999997,37,,,,,,,,,,,,,,,sub_324,2023-08-13_10h47.42.842,Reversal,2023.1.3,60.04141656910351,4,
,,,exp1.png,2,0,2,0,,,,,0,0,0,0,0,0,0,0,,,,,,,,,,,,,,,,,,,,,,,,,,,,,,,,,,,,,,484.76953070000127,23.0,23.0,3.564644000000044,"[(23.0, 3.564644000000044)]",,,,,,,,,,sub_324,2023-08-13_10h47.42.842,Reversal,2023.1.3,60.04141656910351,4,
,,,exp2.png,2,0,2,0,,,,,0,0,0,0,0,1,1,1,,,,,,,,,,,,,,,,,,,,,,,,,,,,,,,,,,,,,,489.5558705000003,,75.0,1.6445019000002503,"[(75.0, 1.6445019000002503)]",75.0,,,,,,,,,sub_324,2023-08-13_10h47.42.842,Reversal,2023.1.3,60.04141656910351,4,
,,,exp3.png,2,0,2,0,,,,,0,0,0,0,0,2,2,2,,,,,,,,,,,,,,,,,,,,,,,,,,,,,,,,,,,,,,492.3223642000012,,19.0,2.6892943999991985,"[(19.0, 2.6892943999991985)]",,19.0,,,,,,,,sub_324,2023-08-13_10h47.42.842,Reversal,2023.1.3,60.04141656910351,4,
,,,exp4.png,2,0,2,0,,,,,0,0,0,0,0,3,3,3,,,,,,,,,,,,,,,,,,,,,,,,,,,,,,,,,,,,,,496.2006988000012,,80.0,1.811066899999787,"[(80.0, 1.811066899999787)]",,,80.0,,,,,,,sub_324,2023-08-13_10h47.42.842,Reversal,2023.1.3,60.04141656910351,4,
0,exp1.png,exp2.png,,,,,,,,,,,,,,,,,,0,0,0,0,0,0,0,0,,,,,,,,,True,,,,,,,,,,,,,,,,,,,,,,,,,,,,,,,,,,,sub_324,2023-08-13_10h47.42.842,Reversal,2023.1.3,60.04141656910351,4,
1,exp3.png,exp4.png,,,,,,,,,,,,,,,,,,0,0,0,0,0,1,1,1,,,,,,,,,False,0,61,False,exp3.png,exp4.png,trial_right_image,-1,exp4.png,4,exp3.png,exp4.png,1,3,reversed,incorrect,0.7263105877570277,0,valid_lose,384.7186462999998,37,,,,,,,,,382.19558439999855,,,,,,sub_324,2023-08-13_10h47.42.842,Reversal,2023.1.3,60.04141656910351,4,
2,exp1.png,exp2.png,,,,,,,,,,,,,,,,,,0,0,0,0,0,2,2,2,,,,,,,,,False,1,62,False,exp1.png,exp2.png,trial_right_image,-1,exp2.png,4,exp2.png,exp1.png,1,1,non-reversed,correct,0.3823306698466711,1,valid_win,389.61704370000007,38,,,,,,,,,,,,,,,sub_324,2023-08-13_10h47.42.842,Reversal,2023.1.3,60.04141656910351,4,
3,exp3.png,exp4.png,,,,,,,,,,,,,,,,,,0,0,0,0,0,3,3,3,,,,,,,,,False,2,63,False,exp3.png,exp4.png,trial_right_image,-1,exp4.png,4,exp3.png,exp4.png,1,3,reversed,incorrect,0.3310118578046982,0,valid_lose,394.63211319999937,38,,,,,,,,,,,,,,,sub_324,2023-08-13_10h47.42.842,Reversal,2023.1.3,60.04141656910351,4,
4,exp1.png,exp2.png,,,,,,,,,,,,,,,,,,0,0,0,0,0,4,4,4,,,,,,,,,False,3,64,True,exp2.png,exp1.png,trial_left_image,1,exp2.png,4,exp2.png,exp1.png,1,1,non-reversed,correct,0.39510369562983305,1,valid_win,399.54738149999866,39,,,,,,,,,,,,,,,sub_324,2023-08-13_10h47.42.842,Reversal,2023.1.3,60.04141656910351,4,
5,exp3.png,exp4.png,,,,,,,,,,,,,,,,,,0,0,0,0,0,5,5,5,,,,,,,,,False,4,65,True,exp4.png,exp3.png,trial_left_image,1,exp4.png,4,exp3.png,exp4.png,1,3,reversed,incorrect,0.5054444935723064,0,valid_lose,404.6456225000002,39,,,,,,,,,,,,,,,sub_324,2023-08-13_10h47.42.842,Reversal,2023.1.3,60.04141656910351,4,
6,exp1.png,exp2.png,,,,,,,,,,,,,,,,,,0,0,0,0,0,6,6,6,,,,,,,,,False,5,66,True,exp2.png,exp1.png,trial_left_image,1,exp2.png,4,exp2.png,exp1.png,1,1,non-reversed,correct,0.7084515751868256,1,valid_win,409.42741339999884,40,,,,,,,,,,,,,,,sub_324,2023-08-13_10h47.42.842,Reversal,2023.1.3,60.04141656910351,4,
7,exp3.png,exp4.png,,,,,,,,,,,,,,,,,,0,0,0,0,0,7,7,7,,,,,,,,,False,6,67,True,exp4.png,exp3.png,trial_right_image,-1,exp3.png,4,exp3.png,exp4.png,0,4,reversed,correct,0.6200466622493661,1,valid_win,416.0912164000001,41,,,,,,,,,,,,,,,sub_324,2023-08-13_10h47.42.842,Reversal,2023.1.3,60.04141656910351,4,
8,exp1.png,exp2.png,,,,,,,,,,,,,,,,,,0,0,0,0,0,8,8,8,,,,,,,,,False,7,68,False,exp1.png,exp2.png,trial_right_image,-1,exp2.png,4,exp2.png,exp1.png,1,1,non-reversed,correct,0.16820459752219452,0,invalid_lose,420.8898898999996,41,,,,,,,,,,,,,,,sub_324,2023-08-13_10h47.42.842,Reversal,2023.1.3,60.04141656910351,4,
9,exp3.png,exp4.png,,,,,,,,,,,,,,,,,,0,0,0,0,0,9,9,9,,,,,,,,,False,8,69,False,exp3.png,exp4.png,trial_left_image,1,exp3.png,4,exp3.png,exp4.png,0,4,reversed,correct,0.5277992077554804,1,valid_win,426.82141760000013,42,,,,,,,,,,,,,,,sub_324,2023-08-13_10h47.42.842,Reversal,2023.1.3,60.04141656910351,4,
10,exp1.png,exp2.png,,,,,,,,,,,,,,,,,,0,0,0,0,0,10,10,10,,,,,,,,,False,9,70,True,exp2.png,exp1.png,trial_left_image,1,exp2.png,4,exp2.png,exp1.png,1,1,non-reversed,correct,0.1935216264746561,0,invalid_lose,431.6362627999988,42,,,,,,,,,,,,,,,sub_324,2023-08-13_10h47.42.842,Reversal,2023.1.3,60.04141656910351,4,
11,exp3.png,exp4.png,,,,,,,,,,,,,,,,,,0,0,0,0,0,11,11,11,,,,,,,,,False,10,71,False,exp3.png,exp4.png,trial_left_image,1,exp3.png,4,exp3.png,exp4.png,0,4,reversed,correct,0.030512548303027964,0,invalid_lose,436.8516684999995,42,,,,,,,,,,,,,,,sub_324,2023-08-13_10h47.42.842,Reversal,2023.1.3,60.04141656910351,4,
12,exp1.png,exp2.png,,,,,,,,,,,,,,,,,,0,0,0,0,0,12,12,12,,,,,,,,,False,11,72,False,exp1.png,exp2.png,trial_left_image,1,exp1.png,4,exp2.png,exp1.png,0,2,non-reversed,incorrect,0.8242567839917528,0,valid_lose,441.6326272999995,42,,,,,,,,,,,,,,,sub_324,2023-08-13_10h47.42.842,Reversal,2023.1.3,60.04141656910351,4,
13,exp3.png,exp4.png,,,,,,,,,,,,,,,,,,0,0,0,0,0,13,13,13,,,,,,,,,False,12,73,False,exp3.png,exp4.png,trial_right_image,-1,exp4.png,4,exp3.png,exp4.png,1,3,reversed,incorrect,0.08322603622507663,1,invalid_win,446.9480371999998,43,,,,,,,,,,,,,,,sub_324,2023-08-13_10h47.42.842,Reversal,2023.1.3,60.04141656910351,4,
14,exp1.png,exp2.png,,,,,,,,,,,,,,,,,,0,0,0,0,0,14,14,14,,,,,,,,,False,13,74,True,exp2.png,exp1.png,trial_right_image,-1,exp1.png,4,exp2.png,exp1.png,0,2,non-reversed,incorrect,0.8775026673379666,0,valid_lose,454.6449458999996,43,,,,,,,,,,,,,,,sub_324,2023-08-13_10h47.42.842,Reversal,2023.1.3,60.04141656910351,4,
15,exp3.png,exp4.png,,,,,,,,,,,,,,,,,,0,0,0,0,0,15,15,15,,,,,,,,,False,14,75,True,exp4.png,exp3.png,trial_left_image,1,exp4.png,4,exp3.png,exp4.png,1,3,reversed,incorrect,0.7228499346806634,0,valid_lose,460.31004909999865,43,,,,,,,,,,,,,,,sub_324,2023-08-13_10h47.42.842,Reversal,2023.1.3,60.04141656910351,4,
16,exp1.png,exp2.png,,,,,,,,,,,,,,,,,,0,0,0,0,0,16,16,16,,,,,,,,,False,15,76,True,exp2.png,exp1.png,trial_left_image,1,exp2.png,4,exp2.png,exp1.png,1,1,non-reversed,correct,0.3971213630301893,1,valid_win,465.4750411999994,44,,,,,,,,,,,,,,,sub_324,2023-08-13_10h47.42.842,Reversal,2023.1.3,60.04141656910351,4,
17,exp3.png,exp4.png,,,,,,,,,,,,,,,,,,0,0,0,0,0,17,17,17,,,,,,,,,False,16,77,False,exp3.png,exp4.png,trial_left_image,1,exp3.png,4,exp3.png,exp4.png,0,4,reversed,correct,0.4811438956303091,1,valid_win,470.2063210999986,45,,,,,,,,,,,,,,,sub_324,2023-08-13_10h47.42.842,Reversal,2023.1.3,60.04141656910351,4,
18,exp1.png,exp2.png,,,,,,,,,,,,,,,,,,0,0,0,0,0,18,18,18,,,,,,,,,False,17,78,True,exp2.png,exp1.png,trial_left_image,1,exp2.png,4,exp2.png,exp1.png,1,1,non-reversed,correct,0.9390186533095399,1,valid_win,475.5218445999999,46,,,,,,,,,,,,,,,sub_324,2023-08-13_10h47.42.842,Reversal,2023.1.3,60.04141656910351,4,
19,exp3.png,exp4.png,,,,,,,,,,,,,,,,,,0,0,0,0,0,19,19,19,,,,,,,,,False,18,79,True,exp4.png,exp3.png,trial_right_image,-1,exp3.png,4,exp3.png,exp4.png,0,4,reversed,correct,0.4103121438777312,1,valid_win,480.9868497999996,47,,,,,,,,,,,,,,,sub_324,2023-08-13_10h47.42.842,Reversal,2023.1.3,60.04141656910351,4,
20,exp1.png,exp2.png,,,,,,,,,,,,,,,,,,0,0,0,0,0,20,20,20,,,,,,,,,False,19,80,False,exp1.png,exp2.png,trial_right_image,-1,exp2.png,4,exp2.png,exp1.png,1,1,non-reversed,correct,0.15805869809322048,0,invalid_lose,487.83409519999987,47,,,,,,,,,,,,,,,sub_324,2023-08-13_10h47.42.842,Reversal,2023.1.3,60.04141656910351,4,
,,,exp1.png,,,,,,,,,,,,,,,,,0,0,0,0,,,,,0,0,0,0,0,0,0,0,,,,,,,,,,,,,,,,,,,,,,608.6035693000013,60.0,60.0,7.053617300000042,"[(60.0, 7.053617300000042)]",,,,,,,,,,sub_324,2023-08-13_10h47.42.842,Reversal,2023.1.3,60.04141656910351,4,
,,,exp2.png,,,,,,,,,,,,,,,,,0,0,0,0,,,,,0,0,0,0,0,1,1,1,,,,,,,,,,,,,,,,,,,,,,617.9926991000011,,69.0,3.0120506000002933,"[(69.0, 3.0120506000002933)]",69.0,,,,,,,,,sub_324,2023-08-13_10h47.42.842,Reversal,2023.1.3,60.04141656910351,4,
,,,exp3.png,,,,,,,,,,,,,,,,,0,0,0,0,,,,,0,0,0,0,0,2,2,2,,,,,,,,,,,,,,,,,,,,,,622.6418586,,59.0,8.459980699999505,"[(59.0, 8.459980699999505)]",,59.0,,,,,,,,sub_324,2023-08-13_10h47.42.842,Reversal,2023.1.3,60.04141656910351,4,
,,,exp4.png,,,,,,,,,,,,,,,,,0,0,0,0,,,,,0,0,0,0,0,3,3,3,,,,,,,,,,,,,,,,,,,,,,632.3577504000004,,39.0,3.3115725000006933,"[(39.0, 3.3115725000006933)]",,,39.0,,,,,,,sub_324,2023-08-13_10h47.42.842,Reversal,2023.1.3,60.04141656910351,4,
0,exp1.png,exp2.png,,,,,,,,,,,,,,,,,,1,0,1,0,0,0,0,0,,,,,,,,,True,,,,,,,,,,,,,,,,,,,,,,,,,,,,,,,,,,,sub_324,2023-08-13_10h47.42.842,Reversal,2023.1.3,60.04141656910351,4,
1,exp3.png,exp4.png,,,,,,,,,,,,,,,,,,1,0,1,0,0,1,1,1,,,,,,,,,False,20,81,True,exp4.png,exp3.png,trial_left_image,1,exp4.png,4,exp3.png,exp4.png,1,3,reversed,incorrect,0.5269379373044982,0,valid_lose,523.1051071000002,47,,,,,,,,,,,,,,,sub_324,2023-08-13_10h47.42.842,Reversal,2023.1.3,60.04141656910351,4,
2,exp1.png,exp2.png,,,,,,,,,,,,,,,,,,1,0,1,0,0,2,2,2,,,,,,,,,False,21,82,True,exp2.png,exp1.png,trial_left_image,1,exp2.png,4,exp2.png,exp1.png,1,1,non-reversed,correct,0.26769012946224224,1,valid_win,527.9209142999989,48,,,,,,,,,,,,,,,sub_324,2023-08-13_10h47.42.842,Reversal,2023.1.3,60.04141656910351,4,
3,exp3.png,exp4.png,,,,,,,,,,,,,,,,,,1,0,1,0,0,3,3,3,,,,,,,,,False,22,83,False,exp3.png,exp4.png,trial_right_image,-1,exp4.png,4,exp3.png,exp4.png,1,3,reversed,incorrect,0.6883555167647768,0,valid_lose,533.7854685000002,48,,,,,,,,,,,,,,,sub_324,2023-08-13_10h47.42.842,Reversal,2023.1.3,60.04141656910351,4,
4,exp1.png,exp2.png,,,,,,,,,,,,,,,,,,1,0,1,0,0,4,4,4,,,,,,,,,False,23,84,True,exp2.png,exp1.png,trial_left_image,1,exp2.png,4,exp2.png,exp1.png,1,1,non-reversed,correct,0.22753334516584478,0,invalid_lose,539.1999693999987,48,,,,,,,,,,,,,,,sub_324,2023-08-13_10h47.42.842,Reversal,2023.1.3,60.04141656910351,4,
5,exp3.png,exp4.png,,,,,,,,,,,,,,,,,,1,0,1,0,0,5,5,5,,,,,,,,,False,24,85,False,exp3.png,exp4.png,trial_left_image,1,exp3.png,4,exp3.png,exp4.png,0,4,reversed,correct,0.02866633776590033,0,invalid_lose,544.7148038999985,48,,,,,,,,,,,,,,,sub_324,2023-08-13_10h47.42.842,Reversal,2023.1.3,60.04141656910351,4,
6,exp1.png,exp2.png,,,,,,,,,,,,,,,,,,1,0,1,0,0,6,6,6,,,,,,,,,False,25,86,False,exp1.png,exp2.png,trial_left_image,1,exp1.png,4,exp2.png,exp1.png,0,2,non-reversed,incorrect,0.7718144106469856,0,valid_lose,550.6296626999992,48,,,,,,,,,,,,,,,sub_324,2023-08-13_10h47.42.842,Reversal,2023.1.3,60.04141656910351,4,
7,exp3.png,exp4.png,,,,,,,,,,,,,,,,,,1,0,1,0,0,7,7,7,,,,,,,,,False,26,87,True,exp4.png,exp3.png,trial_left_image,1,exp4.png,4,exp3.png,exp4.png,1,3,reversed,incorrect,0.9652100507533747,0,valid_lose,555.6611147999993,48,,,,,,,,,,,,,,,sub_324,2023-08-13_10h47.42.842,Reversal,2023.1.3,60.04141656910351,4,
8,exp1.png,exp2.png,,,,,,,,,,,,,,,,,,1,0,1,0,0,8,8,8,,,,,,,,,False,27,88,False,exp1.png,exp2.png,trial_left_image,1,exp1.png,4,exp2.png,exp1.png,0,2,non-reversed,incorrect,0.2043051641561956,1,invalid_win,560.5599124,49,,,,,,,,,,,,,,,sub_324,2023-08-13_10h47.42.842,Reversal,2023.1.3,60.04141656910351,4,
9,exp3.png,exp4.png,,,,,,,,,,,,,,,,,,1,0,1,0,0,9,9,9,,,,,,,,,False,28,89,True,exp4.png,exp3.png,trial_right_image,-1,exp3.png,4,exp3.png,exp4.png,0,4,reversed,correct,0.7147456776990897,1,valid_win,565.7741222999994,50,,,,,,,,,,,,,,,sub_324,2023-08-13_10h47.42.842,Reversal,2023.1.3,60.04141656910351,4,
10,exp1.png,exp2.png,,,,,,,,,,,,,,,,,,1,0,1,0,0,10,10,10,,,,,,,,,False,29,90,False,exp1.png,exp2.png,trial_left_image,1,exp1.png,4,exp2.png,exp1.png,0,2,non-reversed,incorrect,0.7679577964204338,0,valid_lose,571.4219887999989,50,,,,,,,,,,,,,,,sub_324,2023-08-13_10h47.42.842,Reversal,2023.1.3,60.04141656910351,4,
11,exp3.png,exp4.png,,,,,,,,,,,,,,,,,,1,0,1,0,0,11,11,11,,,,,,,,,False,30,91,False,exp3.png,exp4.png,trial_right_image,-1,exp4.png,4,exp3.png,exp4.png,1,3,reversed,incorrect,0.07913377996794291,1,invalid_win,576.2876465999998,51,,,,,,,,,,,,,,,sub_324,2023-08-13_10h47.42.842,Reversal,2023.1.3,60.04141656910351,4,
12,exp1.png,exp2.png,,,,,,,,,,,,,,,,,,1,0,1,0,0,12,12,12,,,,,,,,,False,31,92,False,exp1.png,exp2.png,trial_right_image,-1,exp2.png,4,exp2.png,exp1.png,1,1,non-reversed,correct,0.8165342435865635,1,valid_win,581.1353906999993,52,,,,,,,,,,,,,,,sub_324,2023-08-13_10h47.42.842,Reversal,2023.1.3,60.04141656910351,4,
13,exp3.png,exp4.png,,,,,,,,,,,,,,,,,,1,0,1,0,0,13,13,13,,,,,,,,,False,32,93,False,exp3.png,exp4.png,trial_right_image,-1,exp4.png,4,exp3.png,exp4.png,1,3,reversed,incorrect,0.6527065073450917,0,valid_lose,587.0172344000002,52,,,,,,,,,,,,,,,sub_324,2023-08-13_10h47.42.842,Reversal,2023.1.3,60.04141656910351,4,
14,exp1.png,exp2.png,,,,,,,,,,,,,,,,,,1,0,1,0,0,14,14,14,,,,,,,,,False,33,94,True,exp2.png,exp1.png,trial_right_image,-1,exp1.png,4,exp2.png,exp1.png,0,2,non-reversed,incorrect,0.8577068787470193,0,valid_lose,592.6316845000001,52,,,,,,,,,,,,,,,sub_324,2023-08-13_10h47.42.842,Reversal,2023.1.3,60.04141656910351,4,
15,exp3.png,exp4.png,,,,,,,,,,,,,,,,,,1,0,1,0,0,15,15,15,,,,,,,,,False,34,95,True,exp4.png,exp3.png,trial_left_image,1,exp4.png,4,exp3.png,exp4.png,1,3,reversed,incorrect,0.625256387251773,0,valid_lose,600.0628413999984,52,,,,,,,,,,,,,,,sub_324,2023-08-13_10h47.42.842,Reversal,2023.1.3,60.04141656910351,4,
16,exp1.png,exp2.png,,,,,,,,,,,,,,,,,,1,0,1,0,0,16,16,16,,,,,,,,,False,35,96,True,exp2.png,exp1.png,trial_left_image,1,exp2.png,4,exp2.png,exp1.png,1,1,non-reversed,correct,0.8289522513815897,1,valid_win,605.1274417999994,53,,,,,,,,,,,,,,,sub_324,2023-08-13_10h47.42.842,Reversal,2023.1.3,60.04141656910351,4,
17,exp3.png,exp4.png,,,,,,,,,,,,,,,,,,1,0,1,0,0,17,17,17,,,,,,,,,False,36,97,False,exp3.png,exp4.png,trial_right_image,-1,exp4.png,4,exp3.png,exp4.png,1,3,reversed,incorrect,0.014384640643157365,1,invalid_win,612.8922709999988,54,,,,,,,,,,,,,,,sub_324,2023-08-13_10h47.42.842,Reversal,2023.1.3,60.04141656910351,4,
18,exp1.png,exp2.png,,,,,,,,,,,,,,,,,,1,0,1,0,0,18,18,18,,,,,,,,,False,37,98,False,exp1.png,exp2.png,trial_right_image,-1,exp2.png,4,exp2.png,exp1.png,1,1,non-reversed,correct,0.07348363928619595,0,invalid_lose,618.7236030999993,54,,,,,,,,,,,,,,,sub_324,2023-08-13_10h47.42.842,Reversal,2023.1.3,60.04141656910351,4,
19,exp3.png,exp4.png,,,,,,,,,,,,,,,,,,1,0,1,0,0,19,19,19,,,,,,,,,False,38,99,True,exp4.png,exp3.png,trial_left_image,1,exp4.png,4,exp3.png,exp4.png,1,3,reversed,incorrect,0.51451089232997,0,valid_lose,625.1382353999998,54,,,,,,,,,,,,,,,sub_324,2023-08-13_10h47.42.842,Reversal,2023.1.3,60.04141656910351,4,
20,exp1.png,exp2.png,,,,,,,,,,,,,,,,,,1,0,1,0,0,20,20,20,,,,,,,,,False,39,100,True,exp2.png,exp1.png,trial_right_image,-1,exp1.png,4,exp2.png,exp1.png,0,2,non-reversed,incorrect,0.701652992782274,0,valid_lose,629.8693760999995,54,,,,,,,,,,,,,,,sub_324,2023-08-13_10h47.42.842,Reversal,2023.1.3,60.04141656910351,4,
,,,exp1.png,,,,,,,,,,,,,,,,,1,0,1,0,,,,,0,0,0,0,0,0,0,0,,,,,,,,,,,,,,,,,,,,,,750.6495828000006,41.0,41.0,5.9286719000010635,"[(41.0, 5.9286719000010635)]",,,,,,,,,,sub_324,2023-08-13_10h47.42.842,Reversal,2023.1.3,60.04141656910351,4,
,,,exp2.png,,,,,,,,,,,,,,,,,1,0,1,0,,,,,0,0,0,0,0,1,1,1,,,,,,,,,,,,,,,,,,,,,,757.7314407000013,,58.0,5.976926400000593,"[(58.0, 5.976926400000593)]",58.0,,,,,,,,,sub_324,2023-08-13_10h47.42.842,Reversal,2023.1.3,60.04141656910351,4,
,,,exp3.png,,,,,,,,,,,,,,,,,1,0,1,0,,,,,0,0,0,0,0,2,2,2,,,,,,,,,,,,,,,,,,,,,,764.7141224999996,,58.0,3.809992799999236,"[(58.0, 3.809992799999236)]",,58.0,,,,,,,,sub_324,2023-08-13_10h47.42.842,Reversal,2023.1.3,60.04141656910351,4,
,,,exp4.png,,,,,,,,,,,,,,,,,1,0,1,0,,,,,0,0,0,0,0,3,3,3,,,,,,,,,,,,,,,,,,,,,,769.4441755999997,,40.0,1.2440298000001349,"[(40.0, 1.2440298000001349)]",,,40.0,,,,,,,sub_324,2023-08-13_10h47.42.842,Reversal,2023.1.3,60.04141656910351,4,
0,exp1.png,exp2.png,,,,,,,,,,,,,,,,,,2,0,2,0,0,0,0,0,,,,,,,,,True,,,,,,,,,,,,,,,,,,,,,,,,,,,,,,,,,,,sub_324,2023-08-13_10h47.42.842,Reversal,2023.1.3,60.04141656910351,4,
1,exp3.png,exp4.png,,,,,,,,,,,,,,,,,,2,0,2,0,0,1,1,1,,,,,,,,,False,40,101,False,exp3.png,exp4.png,trial_right_image,-1,exp4.png,4,exp3.png,exp4.png,1,3,reversed,incorrect,0.18712074557646385,1,invalid_win,657.4432997999993,55,,,,,,,,,,,,,,,sub_324,2023-08-13_10h47.42.842,Reversal,2023.1.3,60.04141656910351,4,
2,exp1.png,exp2.png,,,,,,,,,,,,,,,,,,2,0,2,0,0,2,2,2,,,,,,,,,False,41,102,True,exp2.png,exp1.png,trial_right_image,-1,exp1.png,4,exp2.png,exp1.png,0,2,non-reversed,incorrect,0.5144929029401898,0,valid_lose,662.6584397999995,55,,,,,,,,,,,,,,,sub_324,2023-08-13_10h47.42.842,Reversal,2023.1.3,60.04141656910351,4,
3,exp3.png,exp4.png,,,,,,,,,,,,,,,,,,2,0,2,0,0,3,3,3,,,,,,,,,False,42,103,True,exp4.png,exp3.png,trial_right_image,-1,exp3.png,4,exp3.png,exp4.png,0,4,reversed,correct,0.13792141348107267,0,invalid_lose,666.9238639999985,55,,,,,,,,,,,,,,,sub_324,2023-08-13_10h47.42.842,Reversal,2023.1.3,60.04141656910351,4,
4,exp1.png,exp2.png,,,,,,,,,,,,,,,,,,2,0,2,0,0,4,4,4,,,,,,,,,False,43,104,False,exp1.png,exp2.png,trial_right_image,-1,exp2.png,4,exp2.png,exp1.png,1,1,non-reversed,correct,0.10514894933643659,0,invalid_lose,671.4056028999985,55,,,,,,,,,,,,,,,sub_324,2023-08-13_10h47.42.842,Reversal,2023.1.3,60.04141656910351,4,
5,exp3.png,exp4.png,,,,,,,,,,,,,,,,,,2,0,2,0,0,5,5,5,,,,,,,,,False,44,105,False,exp3.png,exp4.png,trial_right_image,-1,exp4.png,4,exp3.png,exp4.png,1,3,reversed,incorrect,0.5712138530665868,0,valid_lose,675.8376105999996,55,,,,,,,,,,,,,,,sub_324,2023-08-13_10h47.42.842,Reversal,2023.1.3,60.04141656910351,4,
6,exp1.png,exp2.png,,,,,,,,,,,,,,,,,,2,0,2,0,0,6,6,6,,,,,,,,,False,45,106,True,exp2.png,exp1.png,trial_right_image,-1,exp1.png,4,exp2.png,exp1.png,0,2,non-reversed,incorrect,0.0002283722198800353,1,invalid_win,680.6855699999996,56,,,,,,,,,,,,,,,sub_324,2023-08-13_10h47.42.842,Reversal,2023.1.3,60.04141656910351,4,
7,exp3.png,exp4.png,,,,,,,,,,,,,,,,,,2,0,2,0,0,7,7,7,,,,,,,,,False,46,107,False,exp3.png,exp4.png,trial_right_image,-1,exp4.png,4,exp3.png,exp4.png,1,3,reversed,incorrect,0.6966257432643623,0,valid_lose,692.6822983999991,56,,,,,,,,,,,,,,,sub_324,2023-08-13_10h47.42.842,Reversal,2023.1.3,60.04141656910351,4,
8,exp1.png,exp2.png,,,,,,,,,,,,,,,,,,2,0,2,0,0,8,8,8,,,,,,,,,False,47,108,False,exp1.png,exp2.png,trial_left_image,1,exp1.png,4,exp2.png,exp1.png,0,2,non-reversed,incorrect,0.3259179256327477,0,valid_lose,697.3135046999996,56,,,,,,,,,,,,,,,sub_324,2023-08-13_10h47.42.842,Reversal,2023.1.3,60.04141656910351,4,
9,exp3.png,exp4.png,,,,,,,,,,,,,,,,,,2,0,2,0,0,9,9,9,,,,,,,,,False,48,109,True,exp4.png,exp3.png,trial_right_image,-1,exp3.png,4,exp3.png,exp4.png,0,4,reversed,correct,0.6035321132112494,1,valid_win,702.4949068999995,57,,,,,,,,,,,,,,,sub_324,2023-08-13_10h47.42.842,Reversal,2023.1.3,60.04141656910351,4,
10,exp1.png,exp2.png,,,,,,,,,,,,,,,,,,2,0,2,0,0,10,10,10,,,,,,,,,False,49,110,True,exp2.png,exp1.png,trial_right_image,-1,exp1.png,4,exp2.png,exp1.png,0,2,non-reversed,incorrect,0.7351287004501152,0,valid_lose,707.3929518999994,57,,,,,,,,,,,,,,,sub_324,2023-08-13_10h47.42.842,Reversal,2023.1.3,60.04141656910351,4,
11,exp3.png,exp4.png,,,,,,,,,,,,,,,,,,2,0,2,0,0,11,11,11,,,,,,,,,False,50,111,True,exp4.png,exp3.png,trial_right_image,-1,exp3.png,4,exp3.png,exp4.png,0,4,reversed,correct,0.4988340072141406,1,valid_win,711.8749748999999,58,,,,,,,,,,,,,,,sub_324,2023-08-13_10h47.42.842,Reversal,2023.1.3,60.04141656910351,4,
12,exp1.png,exp2.png,,,,,,,,,,,,,,,,,,2,0,2,0,0,12,12,12,,,,,,,,,False,51,112,False,exp1.png,exp2.png,trial_left_image,1,exp1.png,4,exp2.png,exp1.png,0,2,non-reversed,incorrect,0.8140300490704787,0,valid_lose,716.2568878999991,58,,,,,,,,,,,,,,,sub_324,2023-08-13_10h47.42.842,Reversal,2023.1.3,60.04141656910351,4,
13,exp3.png,exp4.png,,,,,,,,,,,,,,,,,,2,0,2,0,0,13,13,13,,,,,,,,,False,52,113,True,exp4.png,exp3.png,trial_right_image,-1,exp3.png,4,exp3.png,exp4.png,0,4,reversed,correct,0.777311150819643,1,valid_win,720.9223265,59,,,,,,,,,,,,,,,sub_324,2023-08-13_10h47.42.842,Reversal,2023.1.3,60.04141656910351,4,
14,exp1.png,exp2.png,,,,,,,,,,,,,,,,,,2,0,2,0,0,14,14,14,,,,,,,,,False,53,114,False,exp1.png,exp2.png,trial_right_image,-1,exp2.png,4,exp2.png,exp1.png,1,1,non-reversed,correct,0.9807251541472795,1,valid_win,725.2535969,60,,,,,,,,,,,,,,,sub_324,2023-08-13_10h47.42.842,Reversal,2023.1.3,60.04141656910351,4,
15,exp3.png,exp4.png,,,,,,,,,,,,,,,,,,2,0,2,0,0,15,15,15,,,,,,,,,False,54,115,True,exp4.png,exp3.png,trial_right_image,-1,exp3.png,4,exp3.png,exp4.png,0,4,reversed,correct,0.8272905023061639,1,valid_win,731.0683400999987,61,,,,,,,,,,,,,,,sub_324,2023-08-13_10h47.42.842,Reversal,2023.1.3,60.04141656910351,4,
16,exp1.png,exp2.png,,,,,,,,,,,,,,,,,,2,0,2,0,0,16,16,16,,,,,,,,,False,55,116,True,exp2.png,exp1.png,trial_left_image,1,exp2.png,4,exp2.png,exp1.png,1,1,non-reversed,correct,0.05875076464014184,0,invalid_lose,738.1330398999999,61,,,,,,,,,,,,,,,sub_324,2023-08-13_10h47.42.842,Reversal,2023.1.3,60.04141656910351,4,
17,exp3.png,exp4.png,,,,,,,,,,,,,,,,,,2,0,2,0,0,17,17,17,,,,,,,,,False,56,117,False,exp3.png,exp4.png,trial_left_image,1,exp3.png,4,exp3.png,exp4.png,0,4,reversed,correct,0.0160148304842761,0,invalid_lose,744.5643763999997,61,,,,,,,,,,,,,,,sub_324,2023-08-13_10h47.42.842,Reversal,2023.1.3,60.04141656910351,4,
18,exp1.png,exp2.png,,,,,,,,,,,,,,,,,,2,0,2,0,0,18,18,18,,,,,,,,,False,57,118,False,exp1.png,exp2.png,trial_left_image,1,exp1.png,4,exp2.png,exp1.png,0,2,non-reversed,incorrect,0.8115368500877079,0,valid_lose,751.5451486000002,61,,,,,,,,,,,,,,,sub_324,2023-08-13_10h47.42.842,Reversal,2023.1.3,60.04141656910351,4,
19,exp3.png,exp4.png,,,,,,,,,,,,,,,,,,2,0,2,0,0,19,19,19,,,,,,,,,False,58,119,True,exp4.png,exp3.png,trial_left_image,1,exp4.png,4,exp3.png,exp4.png,1,3,reversed,incorrect,0.2489465798681616,1,invalid_win,756.9102373999995,62,,,,,,,,,,,,,,,sub_324,2023-08-13_10h47.42.842,Reversal,2023.1.3,60.04141656910351,4,
20,exp1.png,exp2.png,,,,,,,,,,,,,,,,,,2,0,2,0,0,20,20,20,,,,,,,,,False,59,120,False,exp1.png,exp2.png,trial_left_image,1,exp1.png,4,exp2.png,exp1.png,0,2,non-reversed,incorrect,0.5687191136164207,0,valid_lose,761.5087926999986,62,,,,,,,,,,,,,,,sub_324,2023-08-13_10h47.42.842,Reversal,2023.1.3,60.04141656910351,4,
,,,exp1.png,,,,,,,,,,,,,,,,,2,0,2,0,,,,,0,0,0,0,0,0,0,0,,,,,,,,,,,,,,,,,,,,,,882.2908258000007,,None,None,[],,,,,,,,,,sub_324,2023-08-13_10h47.42.842,Reversal,2023.1.3,60.04141656910351,4,
,,,exp2.png,,,,,,,,,,,,,,,,,2,0,2,0,,,,,0,0,0,0,0,1,1,1,,,,,,,,,,,,,,,,,,,,,,891.4531045000003,,None,None,[],,,,,,,,,,sub_324,2023-08-13_10h47.42.842,Reversal,2023.1.3,60.04141656910351,4,
,,,exp3.png,,,,,,,,,,,,,,,,,2,0,2,0,,,,,0,0,0,0,0,2,2,2,,,,,,,,,,,,,,,,,,,,,,894.3683903000001,,None,None,[],,,,,,,,,,sub_324,2023-08-13_10h47.42.842,Reversal,2023.1.3,60.04141656910351,4,
,,,exp4.png,,,,,,,,,,,,,,,,,2,0,2,0,,,,,0,0,0,0,0,3,3,3,,,,,,,,,,,,,,,,,,,,,,896.7672285999997,,None,None,[],,,,,,,,,,sub_324,2023-08-13_10h47.42.842,Reversal,2023.1.3,60.04141656910351,4,
,,,,,,,,,,,,,,,,,,,,,,,,,,,,,,,,,,,,,,,,,,,,,,,,,,,,,,,,62,,,,,,,,,,75,46,29,397.42436520000047,0,,,,,,,
