trial_index,trial_image1_file,trial_image2_file,image_file,learning_outer_loop.thisRepN,learning_outer_loop.thisTrialN,learning_outer_loop.thisN,learning_outer_loop.thisIndex,learning_inner_loop.thisRepN,learning_inner_loop.thisTrialN,learning_inner_loop.thisN,learning_inner_loop.thisIndex,learning_estimation_outer_loop.thisRepN,learning_estimation_outer_loop.thisTrialN,learning_estimation_outer_loop.thisN,learning_estimation_outer_loop.thisIndex,learning_estimation_inner_loop.thisRepN,learning_estimation_inner_loop.thisTrialN,learning_estimation_inner_loop.thisN,learning_estimation_inner_loop.thisIndex,reversal_outer_loop.thisRepN,reversal_outer_loop.thisTrialN,reversal_outer_loop.thisN,reversal_outer_loop.thisIndex,reversal_inner_loop.thisRepN,reversal_inner_loop.thisTrialN,reversal_inner_loop.thisN,reversal_inner_loop.thisIndex,reversal_estimation_outer_loop.thisRepN,reversal_estimation_outer_loop.thisTrialN,reversal_estimation_outer_loop.thisN,reversal_estimation_outer_loop.thisIndex,reversal_estimation_inner_loop.thisRepN,reversal_estimation_inner_loop.thisTrialN,reversal_estimation_inner_loop.thisN,reversal_estimation_inner_loop.thisIndex,skipped,total_trial_counter,trial_num,left_right_flip,left_image_file,right_image_file,clicked_stimulus_side,side,clicked_stimulus,version,high_prob_image_file,low_prob_image_file,choice_a,choice_b,pair_type,correct,trial_feedback_random,reward,trial_type,overall_time_after_trial,score,estimation_exp1.png,estimation_rating.response,estimation_rating.rt,estimation_rating.history,estimation_rating.started,estimation_rating.stopped,estimation_exp2.png,estimation_exp3.png,estimation_exp4.png,total_learning_time,total_correct,learning_correct,reversal_correct,total_reversal_time,extra_block,end_experiment.keys,end_experiment.rt,participant,date,expName,psychopyVersion,frameRate,ver,
0,exp1.png,exp2.png,,0,0,0,0,0,0,0,0,,,,,,,,,,,,,,,,,,,,,,,,,True,,,,,,,,,,,,,,,,,,,,,,,,,,,,,,,,,,,,,,sub_154,2023-09-05_15h51.55.258,Reversal,2022.1.2,60.04069558350436,2,
1,exp3.png,exp4.png,,0,0,0,0,0,1,1,1,,,,,,,,,,,,,,,,,,,,,,,,,False,0,1,False,exp3.png,exp4.png,trial_right_image,-1,exp4.png,2,exp3.png,exp4.png,0,4,reversed,incorrect,0.464983744694346,0,valid_lose,6.949724900000547,0,,,,,,,,,,,,,,,,,,sub_154,2023-09-05_15h51.55.258,Reversal,2022.1.2,60.04069558350436,2,
2,exp1.png,exp2.png,,0,0,0,0,0,2,2,2,,,,,,,,,,,,,,,,,,,,,,,,,False,1,2,True,exp2.png,exp1.png,trial_left_image,1,exp2.png,2,exp1.png,exp2.png,0,2,non-reversed,incorrect,0.4826067992603317,0,valid_lose,13.89996659999997,0,,,,,,,,,,,,,,,,,,sub_154,2023-09-05_15h51.55.258,Reversal,2022.1.2,60.04069558350436,2,
3,exp3.png,exp4.png,,0,0,0,0,0,3,3,3,,,,,,,,,,,,,,,,,,,,,,,,,False,2,3,True,exp4.png,exp3.png,trial_right_image,-1,exp3.png,2,exp3.png,exp4.png,1,3,reversed,correct,0.28985044262771,1,valid_win,20.300052000000505,1,,,,,,,,,,,,,,,,,,sub_154,2023-09-05_15h51.55.258,Reversal,2022.1.2,60.04069558350436,2,
4,exp1.png,exp2.png,,0,0,0,0,0,4,4,4,,,,,,,,,,,,,,,,,,,,,,,,,False,3,4,False,exp1.png,exp2.png,trial_left_image,1,exp1.png,2,exp1.png,exp2.png,1,1,non-reversed,correct,0.44725389589277775,1,valid_win,27.416653600000245,2,,,,,,,,,,,,,,,,,,sub_154,2023-09-05_15h51.55.258,Reversal,2022.1.2,60.04069558350436,2,
5,exp3.png,exp4.png,,0,0,0,0,0,5,5,5,,,,,,,,,,,,,,,,,,,,,,,,,False,4,5,True,exp4.png,exp3.png,trial_right_image,-1,exp3.png,2,exp3.png,exp4.png,1,3,reversed,correct,0.4499707937727907,1,valid_win,32.09977340000023,3,,,,,,,,,,,,,,,,,,sub_154,2023-09-05_15h51.55.258,Reversal,2022.1.2,60.04069558350436,2,
6,exp1.png,exp2.png,,0,0,0,0,0,6,6,6,,,,,,,,,,,,,,,,,,,,,,,,,False,5,6,True,exp2.png,exp1.png,trial_right_image,-1,exp1.png,2,exp1.png,exp2.png,1,1,non-reversed,correct,0.9595289452128458,1,valid_win,37.08223360000011,4,,,,,,,,,,,,,,,,,,sub_154,2023-09-05_15h51.55.258,Reversal,2022.1.2,60.04069558350436,2,
7,exp3.png,exp4.png,,0,0,0,0,0,7,7,7,,,,,,,,,,,,,,,,,,,,,,,,,False,6,7,False,exp3.png,exp4.png,trial_left_image,1,exp3.png,2,exp3.png,exp4.png,1,3,reversed,correct,0.0032858544168297144,0,invalid_lose,41.783058700000765,4,,,,,,,,,,,,,,,,,,sub_154,2023-09-05_15h51.55.258,Reversal,2022.1.2,60.04069558350436,2,
8,exp1.png,exp2.png,,0,0,0,0,0,8,8,8,,,,,,,,,,,,,,,,,,,,,,,,,False,7,8,True,exp2.png,exp1.png,trial_right_image,-1,exp1.png,2,exp1.png,exp2.png,1,1,non-reversed,correct,0.257838223065208,1,valid_win,47.54985510000006,5,,,,,,,,,,,,,,,,,,sub_154,2023-09-05_15h51.55.258,Reversal,2022.1.2,60.04069558350436,2,
9,exp3.png,exp4.png,,0,0,0,0,0,9,9,9,,,,,,,,,,,,,,,,,,,,,,,,,False,8,9,True,exp4.png,exp3.png,trial_left_image,1,exp4.png,2,exp3.png,exp4.png,0,4,reversed,incorrect,0.06232123191145633,1,invalid_win,53.61619260000043,6,,,,,,,,,,,,,,,,,,sub_154,2023-09-05_15h51.55.258,Reversal,2022.1.2,60.04069558350436,2,
10,exp1.png,exp2.png,,0,0,0,0,0,10,10,10,,,,,,,,,,,,,,,,,,,,,,,,,False,9,10,False,exp1.png,exp2.png,trial_left_image,1,exp1.png,2,exp1.png,exp2.png,1,1,non-reversed,correct,0.021864488804528404,0,invalid_lose,59.68201360000057,6,,,,,,,,,,,,,,,,,,sub_154,2023-09-05_15h51.55.258,Reversal,2022.1.2,60.04069558350436,2,
11,exp3.png,exp4.png,,0,0,0,0,0,11,11,11,,,,,,,,,,,,,,,,,,,,,,,,,False,10,11,False,exp3.png,exp4.png,trial_right_image,-1,exp4.png,2,exp3.png,exp4.png,0,4,reversed,incorrect,0.37907613128272943,0,valid_lose,65.04907300000013,6,,,,,,,,,,,,,,,,,,sub_154,2023-09-05_15h51.55.258,Reversal,2022.1.2,60.04069558350436,2,
12,exp1.png,exp2.png,,0,0,0,0,0,12,12,12,,,,,,,,,,,,,,,,,,,,,,,,,False,11,12,False,exp1.png,exp2.png,trial_right_image,-1,exp2.png,2,exp1.png,exp2.png,0,2,non-reversed,incorrect,0.7145254523212752,0,valid_lose,72.0992283000005,6,,,,,,,,,,,,,,,,,,sub_154,2023-09-05_15h51.55.258,Reversal,2022.1.2,60.04069558350436,2,
13,exp3.png,exp4.png,,0,0,0,0,0,13,13,13,,,,,,,,,,,,,,,,,,,,,,,,,False,12,13,True,exp4.png,exp3.png,trial_left_image,1,exp4.png,2,exp3.png,exp4.png,0,4,reversed,incorrect,0.4589703199109183,0,valid_lose,78.03185720000056,6,,,,,,,,,,,,,,,,,,sub_154,2023-09-05_15h51.55.258,Reversal,2022.1.2,60.04069558350436,2,
14,exp1.png,exp2.png,,0,0,0,0,0,14,14,14,,,,,,,,,,,,,,,,,,,,,,,,,False,13,14,True,exp2.png,exp1.png,trial_right_image,-1,exp1.png,2,exp1.png,exp2.png,1,1,non-reversed,correct,0.8082046219171787,1,valid_win,82.59858970000005,7,,,,,,,,,,,,,,,,,,sub_154,2023-09-05_15h51.55.258,Reversal,2022.1.2,60.04069558350436,2,
15,exp3.png,exp4.png,,0,0,0,0,0,15,15,15,,,,,,,,,,,,,,,,,,,,,,,,,False,14,15,False,exp3.png,exp4.png,trial_left_image,1,exp3.png,2,exp3.png,exp4.png,1,3,reversed,correct,0.9563347566971789,1,valid_win,88.03247910000027,8,,,,,,,,,,,,,,,,,,sub_154,2023-09-05_15h51.55.258,Reversal,2022.1.2,60.04069558350436,2,
16,exp1.png,exp2.png,,0,0,0,0,0,16,16,16,,,,,,,,,,,,,,,,,,,,,,,,,False,15,16,False,exp1.png,exp2.png,trial_left_image,1,exp1.png,2,exp1.png,exp2.png,1,1,non-reversed,correct,0.19433458452153218,0,invalid_lose,92.53220500000043,8,,,,,,,,,,,,,,,,,,sub_154,2023-09-05_15h51.55.258,Reversal,2022.1.2,60.04069558350436,2,
17,exp3.png,exp4.png,,0,0,0,0,0,17,17,17,,,,,,,,,,,,,,,,,,,,,,,,,False,16,17,False,exp3.png,exp4.png,trial_left_image,1,exp3.png,2,exp3.png,exp4.png,1,3,reversed,correct,0.06357679629694468,0,invalid_lose,97.68199450000066,8,,,,,,,,,,,,,,,,,,sub_154,2023-09-05_15h51.55.258,Reversal,2022.1.2,60.04069558350436,2,
18,exp1.png,exp2.png,,0,0,0,0,0,18,18,18,,,,,,,,,,,,,,,,,,,,,,,,,False,17,18,True,exp2.png,exp1.png,trial_right_image,-1,exp1.png,2,exp1.png,exp2.png,1,1,non-reversed,correct,0.7635736280383704,1,valid_win,102.39883540000028,9,,,,,,,,,,,,,,,,,,sub_154,2023-09-05_15h51.55.258,Reversal,2022.1.2,60.04069558350436,2,
19,exp3.png,exp4.png,,0,0,0,0,0,19,19,19,,,,,,,,,,,,,,,,,,,,,,,,,False,18,19,False,exp3.png,exp4.png,trial_left_image,1,exp3.png,2,exp3.png,exp4.png,1,3,reversed,correct,0.06715065159055578,0,invalid_lose,107.49885310000082,9,,,,,,,,,,,,,,,,,,sub_154,2023-09-05_15h51.55.258,Reversal,2022.1.2,60.04069558350436,2,
20,exp1.png,exp2.png,,0,0,0,0,0,20,20,20,,,,,,,,,,,,,,,,,,,,,,,,,False,19,20,True,exp2.png,exp1.png,trial_left_image,1,exp2.png,2,exp1.png,exp2.png,0,2,non-reversed,incorrect,0.05069988542256898,1,invalid_win,112.36444730000039,10,,,,,,,,,,,,,,,,,,sub_154,2023-09-05_15h51.55.258,Reversal,2022.1.2,60.04069558350436,2,
,,,exp1.png,0,0,0,0,,,,,0,0,0,0,0,0,0,0,,,,,,,,,,,,,,,,,,,,,,,,,,,,,,,,,,,,,,76.0,76.0,17.19205570000031,"[(76.0, 17.19205570000031)]",179.11236699999972,None,,,,,,,,,,,,sub_154,2023-09-05_15h51.55.258,Reversal,2022.1.2,60.04069558350436,2,
,,,exp2.png,0,0,0,0,,,,,0,0,0,0,0,1,1,1,,,,,,,,,,,,,,,,,,,,,,,,,,,,,,,,,,,,,,,24.0,6.986900599999899,"[(24.0, 6.986900599999899)]",197.4036476000001,None,24.0,,,,,,,,,,,sub_154,2023-09-05_15h51.55.258,Reversal,2022.1.2,60.04069558350436,2,
,,,exp3.png,0,0,0,0,,,,,0,0,0,0,0,2,2,2,,,,,,,,,,,,,,,,,,,,,,,,,,,,,,,,,,,,,,,74.0,5.73413520000031,"[(74.0, 5.73413520000031)]",205.50024500000018,None,,74.0,,,,,,,,,,sub_154,2023-09-05_15h51.55.258,Reversal,2022.1.2,60.04069558350436,2,
,,,exp4.png,0,0,0,0,,,,,0,0,0,0,0,3,3,3,,,,,,,,,,,,,,,,,,,,,,,,,,,,,,,,,,,,,,,26.0,1.698674100000062,"[(26.0, 1.698674100000062)]",212.45150430000012,None,,,26.0,,,,,,,,,sub_154,2023-09-05_15h51.55.258,Reversal,2022.1.2,60.04069558350436,2,
0,exp1.png,exp2.png,,1,0,1,0,0,0,0,0,,,,,,,,,,,,,,,,,,,,,,,,,True,,,,,,,,,,,,,,,,,,,,,,,,,,,,,,,,,,,,,,sub_154,2023-09-05_15h51.55.258,Reversal,2022.1.2,60.04069558350436,2,
1,exp3.png,exp4.png,,1,0,1,0,0,1,1,1,,,,,,,,,,,,,,,,,,,,,,,,,False,20,21,False,exp3.png,exp4.png,trial_left_image,1,exp3.png,2,exp3.png,exp4.png,1,3,reversed,correct,0.7410587935953117,1,valid_win,156.48157100000026,11,,,,,,,,,,,,,,,,,,sub_154,2023-09-05_15h51.55.258,Reversal,2022.1.2,60.04069558350436,2,
2,exp1.png,exp2.png,,1,0,1,0,0,2,2,2,,,,,,,,,,,,,,,,,,,,,,,,,False,21,22,True,exp2.png,exp1.png,trial_right_image,-1,exp1.png,2,exp1.png,exp2.png,1,1,non-reversed,correct,0.37275454468506164,1,valid_win,161.48030460000064,12,,,,,,,,,,,,,,,,,,sub_154,2023-09-05_15h51.55.258,Reversal,2022.1.2,60.04069558350436,2,
3,exp3.png,exp4.png,,1,0,1,0,0,3,3,3,,,,,,,,,,,,,,,,,,,,,,,,,False,22,23,True,exp4.png,exp3.png,trial_right_image,-1,exp3.png,2,exp3.png,exp4.png,1,3,reversed,correct,0.7470068663049726,1,valid_win,165.93034760000046,13,,,,,,,,,,,,,,,,,,sub_154,2023-09-05_15h51.55.258,Reversal,2022.1.2,60.04069558350436,2,
4,exp1.png,exp2.png,,1,0,1,0,0,4,4,4,,,,,,,,,,,,,,,,,,,,,,,,,False,23,24,True,exp2.png,exp1.png,trial_right_image,-1,exp1.png,2,exp1.png,exp2.png,1,1,non-reversed,correct,0.24703010047197782,0,invalid_lose,170.76439850000042,13,,,,,,,,,,,,,,,,,,sub_154,2023-09-05_15h51.55.258,Reversal,2022.1.2,60.04069558350436,2,
5,exp3.png,exp4.png,,1,0,1,0,0,5,5,5,,,,,,,,,,,,,,,,,,,,,,,,,False,24,25,False,exp3.png,exp4.png,trial_right_image,-1,exp4.png,2,exp3.png,exp4.png,0,4,reversed,incorrect,0.4354898527436084,0,valid_lose,176.73025990000042,13,,,,,,,,,,,,,,,,,,sub_154,2023-09-05_15h51.55.258,Reversal,2022.1.2,60.04069558350436,2,
6,exp1.png,exp2.png,,1,0,1,0,0,6,6,6,,,,,,,,,,,,,,,,,,,,,,,,,False,25,26,False,exp1.png,exp2.png,trial_right_image,-1,exp2.png,2,exp1.png,exp2.png,0,2,non-reversed,incorrect,0.6152531897903221,0,valid_lose,181.13090310000007,13,,,,,,,,,,,,,,,,,,sub_154,2023-09-05_15h51.55.258,Reversal,2022.1.2,60.04069558350436,2,
7,exp3.png,exp4.png,,1,0,1,0,0,7,7,7,,,,,,,,,,,,,,,,,,,,,,,,,False,26,27,True,exp4.png,exp3.png,trial_right_image,-1,exp3.png,2,exp3.png,exp4.png,1,3,reversed,correct,0.22233166552600625,0,invalid_lose,185.84680540000045,13,,,,,,,,,,,,,,,,,,sub_154,2023-09-05_15h51.55.258,Reversal,2022.1.2,60.04069558350436,2,
8,exp1.png,exp2.png,,1,0,1,0,0,8,8,8,,,,,,,,,,,,,,,,,,,,,,,,,False,27,28,False,exp1.png,exp2.png,trial_left_image,1,exp1.png,2,exp1.png,exp2.png,1,1,non-reversed,correct,0.9535631898039344,1,valid_win,190.99689780000062,14,,,,,,,,,,,,,,,,,,sub_154,2023-09-05_15h51.55.258,Reversal,2022.1.2,60.04069558350436,2,
9,exp3.png,exp4.png,,1,0,1,0,0,9,9,9,,,,,,,,,,,,,,,,,,,,,,,,,False,28,29,True,exp4.png,exp3.png,trial_right_image,-1,exp3.png,2,exp3.png,exp4.png,1,3,reversed,correct,0.27848223872058797,1,valid_win,196.44724190000034,15,,,,,,,,,,,,,,,,,,sub_154,2023-09-05_15h51.55.258,Reversal,2022.1.2,60.04069558350436,2,
10,exp1.png,exp2.png,,1,0,1,0,0,10,10,10,,,,,,,,,,,,,,,,,,,,,,,,,False,29,30,False,exp1.png,exp2.png,trial_right_image,-1,exp2.png,2,exp1.png,exp2.png,0,2,non-reversed,incorrect,0.022021350993911115,1,invalid_win,201.96365960000003,16,,,,,,,,,,,,,,,,,,sub_154,2023-09-05_15h51.55.258,Reversal,2022.1.2,60.04069558350436,2,
11,exp3.png,exp4.png,,1,0,1,0,0,11,11,11,,,,,,,,,,,,,,,,,,,,,,,,,False,30,31,True,exp4.png,exp3.png,trial_right_image,-1,exp3.png,2,exp3.png,exp4.png,1,3,reversed,correct,0.8745480413330273,1,valid_win,206.58006960000057,17,,,,,,,,,,,,,,,,,,sub_154,2023-09-05_15h51.55.258,Reversal,2022.1.2,60.04069558350436,2,
12,exp1.png,exp2.png,,1,0,1,0,0,12,12,12,,,,,,,,,,,,,,,,,,,,,,,,,False,31,32,False,exp1.png,exp2.png,trial_left_image,1,exp1.png,2,exp1.png,exp2.png,1,1,non-reversed,correct,0.8522236877945091,1,valid_win,211.67961490000016,18,,,,,,,,,,,,,,,,,,sub_154,2023-09-05_15h51.55.258,Reversal,2022.1.2,60.04069558350436,2,
13,exp3.png,exp4.png,,1,0,1,0,0,13,13,13,,,,,,,,,,,,,,,,,,,,,,,,,False,32,33,False,exp3.png,exp4.png,trial_right_image,-1,exp4.png,2,exp3.png,exp4.png,0,4,reversed,incorrect,0.2013636894164912,1,invalid_win,217.74647490000007,19,,,,,,,,,,,,,,,,,,sub_154,2023-09-05_15h51.55.258,Reversal,2022.1.2,60.04069558350436,2,
14,exp1.png,exp2.png,,1,0,1,0,0,14,14,14,,,,,,,,,,,,,,,,,,,,,,,,,False,33,34,True,exp2.png,exp1.png,trial_right_image,-1,exp1.png,2,exp1.png,exp2.png,1,1,non-reversed,correct,0.9069565568420143,1,valid_win,222.41276900000048,20,,,,,,,,,,,,,,,,,,sub_154,2023-09-05_15h51.55.258,Reversal,2022.1.2,60.04069558350436,2,
15,exp3.png,exp4.png,,1,0,1,0,0,15,15,15,,,,,,,,,,,,,,,,,,,,,,,,,False,34,35,False,exp3.png,exp4.png,trial_left_image,1,exp3.png,2,exp3.png,exp4.png,1,3,reversed,correct,0.7795780932103378,1,valid_win,227.64592640000046,21,,,,,,,,,,,,,,,,,,sub_154,2023-09-05_15h51.55.258,Reversal,2022.1.2,60.04069558350436,2,
16,exp1.png,exp2.png,,1,0,1,0,0,16,16,16,,,,,,,,,,,,,,,,,,,,,,,,,False,35,36,False,exp1.png,exp2.png,trial_left_image,1,exp1.png,2,exp1.png,exp2.png,1,1,non-reversed,correct,0.3233704138336506,1,valid_win,232.94643760000054,22,,,,,,,,,,,,,,,,,,sub_154,2023-09-05_15h51.55.258,Reversal,2022.1.2,60.04069558350436,2,
17,exp3.png,exp4.png,,1,0,1,0,0,17,17,17,,,,,,,,,,,,,,,,,,,,,,,,,False,36,37,True,exp4.png,exp3.png,trial_left_image,1,exp4.png,2,exp3.png,exp4.png,0,4,reversed,incorrect,0.5285275652002628,0,valid_lose,237.2794053000007,22,,,,,,,,,,,,,,,,,,sub_154,2023-09-05_15h51.55.258,Reversal,2022.1.2,60.04069558350436,2,
18,exp1.png,exp2.png,,1,0,1,0,0,18,18,18,,,,,,,,,,,,,,,,,,,,,,,,,False,37,38,False,exp1.png,exp2.png,trial_right_image,-1,exp2.png,2,exp1.png,exp2.png,0,2,non-reversed,incorrect,0.1376696975820163,1,invalid_win,244.09564080000018,23,,,,,,,,,,,,,,,,,,sub_154,2023-09-05_15h51.55.258,Reversal,2022.1.2,60.04069558350436,2,
19,exp3.png,exp4.png,,1,0,1,0,0,19,19,19,,,,,,,,,,,,,,,,,,,,,,,,,False,38,39,True,exp4.png,exp3.png,trial_right_image,-1,exp3.png,2,exp3.png,exp4.png,1,3,reversed,correct,0.50180511231336,1,valid_win,248.72978220000005,24,,,,,,,,,,,,,,,,,,sub_154,2023-09-05_15h51.55.258,Reversal,2022.1.2,60.04069558350436,2,
20,exp1.png,exp2.png,,1,0,1,0,0,20,20,20,,,,,,,,,,,,,,,,,,,,,,,,,False,39,40,True,exp2.png,exp1.png,trial_right_image,-1,exp1.png,2,exp1.png,exp2.png,1,1,non-reversed,correct,0.5816220995700886,1,valid_win,253.17895280000084,25,,,,,,,,,,,,,,,,,,sub_154,2023-09-05_15h51.55.258,Reversal,2022.1.2,60.04069558350436,2,
,,,exp1.png,1,0,1,0,,,,,0,0,0,0,0,0,0,0,,,,,,,,,,,,,,,,,,,,,,,,,,,,,,,,,,,,,,74.0,74.0,6.25933410000016,"[(74.0, 6.25933410000016)]",319.92142090000016,None,,,,,,,,,,,,sub_154,2023-09-05_15h51.55.258,Reversal,2022.1.2,60.04069558350436,2,
,,,exp2.png,1,0,1,0,,,,,0,0,0,0,0,1,1,1,,,,,,,,,,,,,,,,,,,,,,,,,,,,,,,,,,,,,,,21.0,2.76480409999931,"[(21.0, 2.76480409999931)]",327.29813229999945,None,21.0,,,,,,,,,,,sub_154,2023-09-05_15h51.55.258,Reversal,2022.1.2,60.04069558350436,2,
,,,exp3.png,1,0,1,0,,,,,0,0,0,0,0,2,2,2,,,,,,,,,,,,,,,,,,,,,,,,,,,,,,,,,,,,,,,35.0,2.6510063000005175,"[(35.0, 2.6510063000005175)]",331.3831094999996,None,,35.0,,,,,,,,,,sub_154,2023-09-05_15h51.55.258,Reversal,2022.1.2,60.04069558350436,2,
,,,exp4.png,1,0,1,0,,,,,0,0,0,0,0,3,3,3,,,,,,,,,,,,,,,,,,,,,,,,,,,,,,,,,,,,,,,65.0,3.3661489999994956,"[(65.0, 3.3661489999994956)]",334.99620179999965,None,,,65.0,,,,,,,,,sub_154,2023-09-05_15h51.55.258,Reversal,2022.1.2,60.04069558350436,2,
0,exp1.png,exp2.png,,2,0,2,0,0,0,0,0,,,,,,,,,,,,,,,,,,,,,,,,,True,,,,,,,,,,,,,,,,,,,,,,,,,,,,,,,,,,,,,,sub_154,2023-09-05_15h51.55.258,Reversal,2022.1.2,60.04069558350436,2,
1,exp3.png,exp4.png,,2,0,2,0,0,1,1,1,,,,,,,,,,,,,,,,,,,,,,,,,False,40,41,True,exp4.png,exp3.png,trial_right_image,-1,exp3.png,2,exp3.png,exp4.png,1,3,reversed,correct,0.20163731555142594,0,invalid_lose,280.76162770000064,25,,,,,,,,,,,,,,,,,,sub_154,2023-09-05_15h51.55.258,Reversal,2022.1.2,60.04069558350436,2,
2,exp1.png,exp2.png,,2,0,2,0,0,2,2,2,,,,,,,,,,,,,,,,,,,,,,,,,False,41,42,True,exp2.png,exp1.png,trial_right_image,-1,exp1.png,2,exp1.png,exp2.png,1,1,non-reversed,correct,0.9577770582680739,1,valid_win,285.3954639000003,26,,,,,,,,,,,,,,,,,,sub_154,2023-09-05_15h51.55.258,Reversal,2022.1.2,60.04069558350436,2,
3,exp3.png,exp4.png,,2,0,2,0,0,3,3,3,,,,,,,,,,,,,,,,,,,,,,,,,False,42,43,True,exp4.png,exp3.png,trial_right_image,-1,exp3.png,2,exp3.png,exp4.png,1,3,reversed,correct,0.1962095359324032,0,invalid_lose,290.0792639000001,26,,,,,,,,,,,,,,,,,,sub_154,2023-09-05_15h51.55.258,Reversal,2022.1.2,60.04069558350436,2,
4,exp1.png,exp2.png,,2,0,2,0,0,4,4,4,,,,,,,,,,,,,,,,,,,,,,,,,False,43,44,False,exp1.png,exp2.png,trial_left_image,1,exp1.png,2,exp1.png,exp2.png,1,1,non-reversed,correct,0.293634540751585,1,valid_win,295.0618830000003,27,,,,,,,,,,,,,,,,,,sub_154,2023-09-05_15h51.55.258,Reversal,2022.1.2,60.04069558350436,2,
5,exp3.png,exp4.png,,2,0,2,0,0,5,5,5,,,,,,,,,,,,,,,,,,,,,,,,,False,44,45,False,exp3.png,exp4.png,trial_left_image,1,exp3.png,2,exp3.png,exp4.png,1,3,reversed,correct,0.8005290321798484,1,valid_win,299.4790277000002,28,,,,,,,,,,,,,,,,,,sub_154,2023-09-05_15h51.55.258,Reversal,2022.1.2,60.04069558350436,2,
6,exp1.png,exp2.png,,2,0,2,0,0,6,6,6,,,,,,,,,,,,,,,,,,,,,,,,,False,45,46,True,exp2.png,exp1.png,trial_left_image,1,exp2.png,2,exp1.png,exp2.png,0,2,non-reversed,incorrect,0.9449391008727709,0,valid_lose,304.62830680000025,28,,,,,,,,,,,,,,,,,,sub_154,2023-09-05_15h51.55.258,Reversal,2022.1.2,60.04069558350436,2,
7,exp3.png,exp4.png,,2,0,2,0,0,7,7,7,,,,,,,,,,,,,,,,,,,,,,,,,False,46,47,False,exp3.png,exp4.png,trial_left_image,1,exp3.png,2,exp3.png,exp4.png,1,3,reversed,correct,0.09834468708440358,0,invalid_lose,309.3122520000006,28,,,,,,,,,,,,,,,,,,sub_154,2023-09-05_15h51.55.258,Reversal,2022.1.2,60.04069558350436,2,
8,exp1.png,exp2.png,,2,0,2,0,0,8,8,8,,,,,,,,,,,,,,,,,,,,,,,,,False,47,48,False,exp1.png,exp2.png,trial_left_image,1,exp1.png,2,exp1.png,exp2.png,1,1,non-reversed,correct,0.7289444990850235,1,valid_win,313.5119822000006,29,,,,,,,,,,,,,,,,,,sub_154,2023-09-05_15h51.55.258,Reversal,2022.1.2,60.04069558350436,2,
9,exp3.png,exp4.png,,2,0,2,0,0,9,9,9,,,,,,,,,,,,,,,,,,,,,,,,,False,48,49,True,exp4.png,exp3.png,trial_left_image,1,exp4.png,2,exp3.png,exp4.png,0,4,reversed,incorrect,0.6256736928928394,0,valid_lose,318.66162350000013,29,,,,,,,,,,,,,,,,,,sub_154,2023-09-05_15h51.55.258,Reversal,2022.1.2,60.04069558350436,2,
10,exp1.png,exp2.png,,2,0,2,0,0,10,10,10,,,,,,,,,,,,,,,,,,,,,,,,,False,49,50,False,exp1.png,exp2.png,trial_left_image,1,exp1.png,2,exp1.png,exp2.png,1,1,non-reversed,correct,0.5364413155764559,1,valid_win,323.6955011,30,,,,,,,,,,,,,,,,,,sub_154,2023-09-05_15h51.55.258,Reversal,2022.1.2,60.04069558350436,2,
11,exp3.png,exp4.png,,2,0,2,0,0,11,11,11,,,,,,,,,,,,,,,,,,,,,,,,,False,50,51,True,exp4.png,exp3.png,trial_right_image,-1,exp3.png,2,exp3.png,exp4.png,1,3,reversed,correct,0.8865184511138998,1,valid_win,328.2111007000003,31,,,,,,,,,,,,,,,,,,sub_154,2023-09-05_15h51.55.258,Reversal,2022.1.2,60.04069558350436,2,
12,exp1.png,exp2.png,,2,0,2,0,0,12,12,12,,,,,,,,,,,,,,,,,,,,,,,,,False,51,52,False,exp1.png,exp2.png,trial_right_image,-1,exp2.png,2,exp1.png,exp2.png,0,2,non-reversed,incorrect,0.5826794690623117,0,valid_lose,332.9279755000007,31,,,,,,,,,,,,,,,,,,sub_154,2023-09-05_15h51.55.258,Reversal,2022.1.2,60.04069558350436,2,
13,exp3.png,exp4.png,,2,0,2,0,0,13,13,13,,,,,,,,,,,,,,,,,,,,,,,,,False,52,53,False,exp3.png,exp4.png,trial_left_image,1,exp3.png,2,exp3.png,exp4.png,1,3,reversed,correct,0.18354574830509818,0,invalid_lose,337.4446349,31,,,,,,,,,,,,,,,,,,sub_154,2023-09-05_15h51.55.258,Reversal,2022.1.2,60.04069558350436,2,
14,exp1.png,exp2.png,,2,0,2,0,0,14,14,14,,,,,,,,,,,,,,,,,,,,,,,,,False,53,54,False,exp1.png,exp2.png,trial_left_image,1,exp1.png,2,exp1.png,exp2.png,1,1,non-reversed,correct,0.5213706447706112,1,valid_win,342.7613465000004,32,,,,,,,,,,,,,,,,,,sub_154,2023-09-05_15h51.55.258,Reversal,2022.1.2,60.04069558350436,2,
15,exp3.png,exp4.png,,2,0,2,0,0,15,15,15,,,,,,,,,,,,,,,,,,,,,,,,,False,54,55,True,exp4.png,exp3.png,trial_right_image,-1,exp3.png,2,exp3.png,exp4.png,1,3,reversed,correct,0.049076521549848984,0,invalid_lose,347.2781837000002,32,,,,,,,,,,,,,,,,,,sub_154,2023-09-05_15h51.55.258,Reversal,2022.1.2,60.04069558350436,2,
16,exp1.png,exp2.png,,2,0,2,0,0,16,16,16,,,,,,,,,,,,,,,,,,,,,,,,,False,55,56,False,exp1.png,exp2.png,trial_right_image,-1,exp2.png,2,exp1.png,exp2.png,0,2,non-reversed,incorrect,0.6642821060046826,0,valid_lose,351.81103690000054,32,,,,,,,,,,,,,,,,,,sub_154,2023-09-05_15h51.55.258,Reversal,2022.1.2,60.04069558350436,2,
17,exp3.png,exp4.png,,2,0,2,0,0,17,17,17,,,,,,,,,,,,,,,,,,,,,,,,,False,56,57,False,exp3.png,exp4.png,trial_left_image,1,exp3.png,2,exp3.png,exp4.png,1,3,reversed,correct,0.3871254771896572,1,valid_win,356.6275899000002,33,,,,,,,,,,,,,,,,,,sub_154,2023-09-05_15h51.55.258,Reversal,2022.1.2,60.04069558350436,2,
18,exp1.png,exp2.png,,2,0,2,0,0,18,18,18,,,,,,,,,,,,,,,,,,,,,,,,,False,57,58,True,exp2.png,exp1.png,trial_right_image,-1,exp1.png,2,exp1.png,exp2.png,1,1,non-reversed,correct,0.290404664061369,1,valid_win,361.8947213000001,34,,,,,,,,,,,,,,,,,,sub_154,2023-09-05_15h51.55.258,Reversal,2022.1.2,60.04069558350436,2,
19,exp3.png,exp4.png,,2,0,2,0,0,19,19,19,,,,,,,,,,,,,,,,,,,,,,,,,False,58,59,True,exp4.png,exp3.png,trial_right_image,-1,exp3.png,2,exp3.png,exp4.png,1,3,reversed,correct,0.7382131506555654,1,valid_win,366.54405700000007,35,,,,,,,,,,,,,,,,,,sub_154,2023-09-05_15h51.55.258,Reversal,2022.1.2,60.04069558350436,2,
20,exp1.png,exp2.png,,2,0,2,0,0,20,20,20,,,,,,,,,,,,,,,,,,,,,,,,,False,59,60,True,exp2.png,exp1.png,trial_right_image,-1,exp1.png,2,exp1.png,exp2.png,1,1,non-reversed,correct,0.13404257398802033,0,invalid_lose,371.3267947000004,35,,,,,,,,,,,,,,,,,,sub_154,2023-09-05_15h51.55.258,Reversal,2022.1.2,60.04069558350436,2,
,,,exp1.png,2,0,2,0,,,,,0,0,0,0,0,0,0,0,,,,,,,,,,,,,,,,,,,,,,,,,,,,,,,,,,,,,,79.0,79.0,3.812796100000014,"[(79.0, 3.812796100000014)]",438.0837926999993,None,,,,,,,,,,,,sub_154,2023-09-05_15h51.55.258,Reversal,2022.1.2,60.04069558350436,2,
,,,exp2.png,2,0,2,0,,,,,0,0,0,0,0,1,1,1,,,,,,,,,,,,,,,,,,,,,,,,,,,,,,,,,,,,,,,19.0,2.178348399999777,"[(19.0, 2.178348399999777)]",443.99952289999965,None,19.0,,,,,,,,,,,sub_154,2023-09-05_15h51.55.258,Reversal,2022.1.2,60.04069558350436,2,
,,,exp3.png,2,0,2,0,,,,,0,0,0,0,0,2,2,2,,,,,,,,,,,,,,,,,,,,,,,,,,,,,,,,,,,,,,,68.0,2.6858352999997805,"[(68.0, 2.6858352999997805)]",447.51007759999993,None,,68.0,,,,,,,,,,sub_154,2023-09-05_15h51.55.258,Reversal,2022.1.2,60.04069558350436,2,
,,,exp4.png,2,0,2,0,,,,,0,0,0,0,0,3,3,3,,,,,,,,,,,,,,,,,,,,,,,,,,,,,,,,,,,,,,,33.0,1.6670553000003565,"[(33.0, 1.6670553000003565)]",451.3442307999994,None,,,33.0,,,,,,,,,sub_154,2023-09-05_15h51.55.258,Reversal,2022.1.2,60.04069558350436,2,
0,exp1.png,exp2.png,,,,,,,,,,,,,,,,,,0,0,0,0,0,0,0,0,,,,,,,,,True,,,,,,,,,,,,,,,,,,,,,,,,,,,,,,,,,,,,,,sub_154,2023-09-05_15h51.55.258,Reversal,2022.1.2,60.04069558350436,2,
1,exp3.png,exp4.png,,,,,,,,,,,,,,,,,,0,0,0,0,0,1,1,1,,,,,,,,,False,0,61,False,exp3.png,exp4.png,trial_right_image,-1,exp4.png,2,exp4.png,exp3.png,0,4,reversed,correct,0.8251390255213777,1,valid_win,392.86011150000013,36,,,,,,,,,,389.7911197000003,,,,,,,,sub_154,2023-09-05_15h51.55.258,Reversal,2022.1.2,60.04069558350436,2,
2,exp1.png,exp2.png,,,,,,,,,,,,,,,,,,0,0,0,0,0,2,2,2,,,,,,,,,False,1,62,True,exp2.png,exp1.png,trial_right_image,-1,exp1.png,2,exp1.png,exp2.png,1,1,non-reversed,correct,0.6083721479218328,1,valid_win,397.55997430000025,37,,,,,,,,,,,,,,,,,,sub_154,2023-09-05_15h51.55.258,Reversal,2022.1.2,60.04069558350436,2,
3,exp3.png,exp4.png,,,,,,,,,,,,,,,,,,0,0,0,0,0,3,3,3,,,,,,,,,False,2,63,True,exp4.png,exp3.png,trial_left_image,1,exp4.png,2,exp4.png,exp3.png,0,4,reversed,correct,0.803429181378706,1,valid_win,401.9439065000006,38,,,,,,,,,,,,,,,,,,sub_154,2023-09-05_15h51.55.258,Reversal,2022.1.2,60.04069558350436,2,
4,exp1.png,exp2.png,,,,,,,,,,,,,,,,,,0,0,0,0,0,4,4,4,,,,,,,,,False,3,64,True,exp2.png,exp1.png,trial_right_image,-1,exp1.png,2,exp1.png,exp2.png,1,1,non-reversed,correct,0.1318843560809142,0,invalid_lose,406.59427510000023,38,,,,,,,,,,,,,,,,,,sub_154,2023-09-05_15h51.55.258,Reversal,2022.1.2,60.04069558350436,2,
5,exp3.png,exp4.png,,,,,,,,,,,,,,,,,,0,0,0,0,0,5,5,5,,,,,,,,,False,4,65,True,exp4.png,exp3.png,trial_right_image,-1,exp3.png,2,exp4.png,exp3.png,1,3,reversed,incorrect,0.43161911438913547,0,valid_lose,410.9261604000003,38,,,,,,,,,,,,,,,,,,sub_154,2023-09-05_15h51.55.258,Reversal,2022.1.2,60.04069558350436,2,
6,exp1.png,exp2.png,,,,,,,,,,,,,,,,,,0,0,0,0,0,6,6,6,,,,,,,,,False,5,66,True,exp2.png,exp1.png,trial_right_image,-1,exp1.png,2,exp1.png,exp2.png,1,1,non-reversed,correct,0.8864314631201569,1,valid_win,416.35962240000026,39,,,,,,,,,,,,,,,,,,sub_154,2023-09-05_15h51.55.258,Reversal,2022.1.2,60.04069558350436,2,
7,exp3.png,exp4.png,,,,,,,,,,,,,,,,,,0,0,0,0,0,7,7,7,,,,,,,,,False,6,67,False,exp3.png,exp4.png,trial_left_image,1,exp3.png,2,exp4.png,exp3.png,1,3,reversed,incorrect,0.47225678492617473,0,valid_lose,422.8093712,39,,,,,,,,,,,,,,,,,,sub_154,2023-09-05_15h51.55.258,Reversal,2022.1.2,60.04069558350436,2,
8,exp1.png,exp2.png,,,,,,,,,,,,,,,,,,0,0,0,0,0,8,8,8,,,,,,,,,False,7,68,True,exp2.png,exp1.png,trial_left_image,1,exp2.png,2,exp1.png,exp2.png,0,2,non-reversed,incorrect,0.7936323226792215,0,valid_lose,427.84262670000044,39,,,,,,,,,,,,,,,,,,sub_154,2023-09-05_15h51.55.258,Reversal,2022.1.2,60.04069558350436,2,
9,exp3.png,exp4.png,,,,,,,,,,,,,,,,,,0,0,0,0,0,9,9,9,,,,,,,,,False,8,69,False,exp3.png,exp4.png,trial_left_image,1,exp3.png,2,exp4.png,exp3.png,1,3,reversed,incorrect,0.7855883336321564,0,valid_lose,433.5431976,39,,,,,,,,,,,,,,,,,,sub_154,2023-09-05_15h51.55.258,Reversal,2022.1.2,60.04069558350436,2,
10,exp1.png,exp2.png,,,,,,,,,,,,,,,,,,0,0,0,0,0,10,10,10,,,,,,,,,False,9,70,True,exp2.png,exp1.png,trial_right_image,-1,exp1.png,2,exp1.png,exp2.png,1,1,non-reversed,correct,0.9045509775665229,1,valid_win,437.84352730000046,40,,,,,,,,,,,,,,,,,,sub_154,2023-09-05_15h51.55.258,Reversal,2022.1.2,60.04069558350436,2,
11,exp3.png,exp4.png,,,,,,,,,,,,,,,,,,0,0,0,0,0,11,11,11,,,,,,,,,False,10,71,False,exp3.png,exp4.png,trial_left_image,1,exp3.png,2,exp4.png,exp3.png,1,3,reversed,incorrect,0.5479973886620247,0,valid_lose,443.8428579000001,40,,,,,,,,,,,,,,,,,,sub_154,2023-09-05_15h51.55.258,Reversal,2022.1.2,60.04069558350436,2,
12,exp1.png,exp2.png,,,,,,,,,,,,,,,,,,0,0,0,0,0,12,12,12,,,,,,,,,False,11,72,False,exp1.png,exp2.png,trial_left_image,1,exp1.png,2,exp1.png,exp2.png,1,1,non-reversed,correct,0.2604590472244743,1,valid_win,450.5092958000005,41,,,,,,,,,,,,,,,,,,sub_154,2023-09-05_15h51.55.258,Reversal,2022.1.2,60.04069558350436,2,
13,exp3.png,exp4.png,,,,,,,,,,,,,,,,,,0,0,0,0,0,13,13,13,,,,,,,,,False,12,73,True,exp4.png,exp3.png,trial_left_image,1,exp4.png,2,exp4.png,exp3.png,0,4,reversed,correct,0.5952113648239825,1,valid_win,454.8096138000001,42,,,,,,,,,,,,,,,,,,sub_154,2023-09-05_15h51.55.258,Reversal,2022.1.2,60.04069558350436,2,
14,exp1.png,exp2.png,,,,,,,,,,,,,,,,,,0,0,0,0,0,14,14,14,,,,,,,,,False,13,74,False,exp1.png,exp2.png,trial_left_image,1,exp1.png,2,exp1.png,exp2.png,1,1,non-reversed,correct,0.29126967660596703,1,valid_win,460.3925299000002,43,,,,,,,,,,,,,,,,,,sub_154,2023-09-05_15h51.55.258,Reversal,2022.1.2,60.04069558350436,2,
15,exp3.png,exp4.png,,,,,,,,,,,,,,,,,,0,0,0,0,0,15,15,15,,,,,,,,,False,14,75,True,exp4.png,exp3.png,trial_right_image,-1,exp3.png,2,exp4.png,exp3.png,1,3,reversed,incorrect,0.09572416492841895,1,invalid_win,466.2587998000008,44,,,,,,,,,,,,,,,,,,sub_154,2023-09-05_15h51.55.258,Reversal,2022.1.2,60.04069558350436,2,
16,exp1.png,exp2.png,,,,,,,,,,,,,,,,,,0,0,0,0,0,16,16,16,,,,,,,,,False,15,76,False,exp1.png,exp2.png,trial_right_image,-1,exp2.png,2,exp1.png,exp2.png,0,2,non-reversed,incorrect,0.15126404626982193,1,invalid_win,470.5428430000002,45,,,,,,,,,,,,,,,,,,sub_154,2023-09-05_15h51.55.258,Reversal,2022.1.2,60.04069558350436,2,
17,exp3.png,exp4.png,,,,,,,,,,,,,,,,,,0,0,0,0,0,17,17,17,,,,,,,,,False,16,77,False,exp3.png,exp4.png,trial_left_image,1,exp3.png,2,exp4.png,exp3.png,1,3,reversed,incorrect,0.21752454724663584,1,invalid_win,474.8592602000008,46,,,,,,,,,,,,,,,,,,sub_154,2023-09-05_15h51.55.258,Reversal,2022.1.2,60.04069558350436,2,
18,exp1.png,exp2.png,,,,,,,,,,,,,,,,,,0,0,0,0,0,18,18,18,,,,,,,,,False,17,78,True,exp2.png,exp1.png,trial_right_image,-1,exp1.png,2,exp1.png,exp2.png,1,1,non-reversed,correct,0.7740707020527686,1,valid_win,479.0760661000004,47,,,,,,,,,,,,,,,,,,sub_154,2023-09-05_15h51.55.258,Reversal,2022.1.2,60.04069558350436,2,
19,exp3.png,exp4.png,,,,,,,,,,,,,,,,,,0,0,0,0,0,19,19,19,,,,,,,,,False,18,79,False,exp3.png,exp4.png,trial_right_image,-1,exp4.png,2,exp4.png,exp3.png,0,4,reversed,correct,0.7781971277170847,1,valid_win,483.2925455000004,48,,,,,,,,,,,,,,,,,,sub_154,2023-09-05_15h51.55.258,Reversal,2022.1.2,60.04069558350436,2,
20,exp1.png,exp2.png,,,,,,,,,,,,,,,,,,0,0,0,0,0,20,20,20,,,,,,,,,False,19,80,False,exp1.png,exp2.png,trial_right_image,-1,exp2.png,2,exp1.png,exp2.png,0,2,non-reversed,incorrect,0.6457577227556149,0,valid_lose,488.6253652000005,48,,,,,,,,,,,,,,,,,,sub_154,2023-09-05_15h51.55.258,Reversal,2022.1.2,60.04069558350436,2,
,,,exp1.png,,,,,,,,,,,,,,,,,0,0,0,0,,,,,0,0,0,0,0,0,0,0,,,,,,,,,,,,,,,,,,,,,,80.0,80.0,5.781424400000105,"[(80.0, 5.781424400000105)]",555.3811882,None,,,,,,,,,,,,sub_154,2023-09-05_15h51.55.258,Reversal,2022.1.2,60.04069558350436,2,
,,,exp2.png,,,,,,,,,,,,,,,,,0,0,0,0,,,,,0,0,0,0,0,1,1,1,,,,,,,,,,,,,,,,,,,,,,,24.0,2.3003724999998667,"[(24.0, 2.3003724999998667)]",562.3595068999994,None,24.0,,,,,,,,,,,sub_154,2023-09-05_15h51.55.258,Reversal,2022.1.2,60.04069558350436,2,
,,,exp3.png,,,,,,,,,,,,,,,,,0,0,0,0,,,,,0,0,0,0,0,2,2,2,,,,,,,,,,,,,,,,,,,,,,,50.0,None,[],565.7910152999993,None,,,,,,,,,,,,sub_154,2023-09-05_15h51.55.258,Reversal,2022.1.2,60.04069558350436,2,
,,,exp4.png,,,,,,,,,,,,,,,,,0,0,0,0,,,,,0,0,0,0,0,3,3,3,,,,,,,,,,,,,,,,,,,,,,,50.0,None,[],567.0759628999995,None,,,,,,,,,,,,sub_154,2023-09-05_15h51.55.258,Reversal,2022.1.2,60.04069558350436,2,
0,exp1.png,exp2.png,,,,,,,,,,,,,,,,,,1,0,1,0,0,0,0,0,,,,,,,,,True,,,,,,,,,,,,,,,,,,,,,,,,,,,,,,,,,,,,,,sub_154,2023-09-05_15h51.55.258,Reversal,2022.1.2,60.04069558350436,2,
1,exp3.png,exp4.png,,,,,,,,,,,,,,,,,,1,0,1,0,0,1,1,1,,,,,,,,,False,20,81,True,exp4.png,exp3.png,trial_right_image,-1,exp3.png,2,exp4.png,exp3.png,1,3,reversed,incorrect,0.9265764151888901,0,valid_lose,507.2754308000003,48,,,,,,,,,,,,,,,,,,sub_154,2023-09-05_15h51.55.258,Reversal,2022.1.2,60.04069558350436,2,
2,exp1.png,exp2.png,,,,,,,,,,,,,,,,,,1,0,1,0,0,2,2,2,,,,,,,,,False,21,82,True,exp2.png,exp1.png,trial_right_image,-1,exp1.png,2,exp1.png,exp2.png,1,1,non-reversed,correct,0.9877416681396394,1,valid_win,512.8084239,49,,,,,,,,,,,,,,,,,,sub_154,2023-09-05_15h51.55.258,Reversal,2022.1.2,60.04069558350436,2,
3,exp3.png,exp4.png,,,,,,,,,,,,,,,,,,1,0,1,0,0,3,3,3,,,,,,,,,False,22,83,False,exp3.png,exp4.png,trial_right_image,-1,exp4.png,2,exp4.png,exp3.png,0,4,reversed,correct,0.9060310260891411,1,valid_win,518.4255208000004,50,,,,,,,,,,,,,,,,,,sub_154,2023-09-05_15h51.55.258,Reversal,2022.1.2,60.04069558350436,2,
4,exp1.png,exp2.png,,,,,,,,,,,,,,,,,,1,0,1,0,0,4,4,4,,,,,,,,,False,23,84,True,exp2.png,exp1.png,trial_right_image,-1,exp1.png,2,exp1.png,exp2.png,1,1,non-reversed,correct,0.6385528986578227,1,valid_win,522.8924509000008,51,,,,,,,,,,,,,,,,,,sub_154,2023-09-05_15h51.55.258,Reversal,2022.1.2,60.04069558350436,2,
5,exp3.png,exp4.png,,,,,,,,,,,,,,,,,,1,0,1,0,0,5,5,5,,,,,,,,,False,24,85,True,exp4.png,exp3.png,trial_right_image,-1,exp3.png,2,exp4.png,exp3.png,1,3,reversed,incorrect,0.4280156032734138,0,valid_lose,528.5578572000004,51,,,,,,,,,,,,,,,,,,sub_154,2023-09-05_15h51.55.258,Reversal,2022.1.2,60.04069558350436,2,
6,exp1.png,exp2.png,,,,,,,,,,,,,,,,,,1,0,1,0,0,6,6,6,,,,,,,,,False,25,86,False,exp1.png,exp2.png,trial_left_image,1,exp1.png,2,exp1.png,exp2.png,1,1,non-reversed,correct,0.931178496656899,1,valid_win,533.7582635000008,52,,,,,,,,,,,,,,,,,,sub_154,2023-09-05_15h51.55.258,Reversal,2022.1.2,60.04069558350436,2,
7,exp3.png,exp4.png,,,,,,,,,,,,,,,,,,1,0,1,0,0,7,7,7,,,,,,,,,False,26,87,False,exp3.png,exp4.png,trial_right_image,-1,exp4.png,2,exp4.png,exp3.png,0,4,reversed,correct,0.444820940772919,1,valid_win,538.2078198000008,53,,,,,,,,,,,,,,,,,,sub_154,2023-09-05_15h51.55.258,Reversal,2022.1.2,60.04069558350436,2,
8,exp1.png,exp2.png,,,,,,,,,,,,,,,,,,1,0,1,0,0,8,8,8,,,,,,,,,False,27,88,False,exp1.png,exp2.png,trial_right_image,-1,exp2.png,2,exp1.png,exp2.png,0,2,non-reversed,incorrect,0.8362934251105746,0,valid_lose,542.4749231000005,53,,,,,,,,,,,,,,,,,,sub_154,2023-09-05_15h51.55.258,Reversal,2022.1.2,60.04069558350436,2,
9,exp3.png,exp4.png,,,,,,,,,,,,,,,,,,1,0,1,0,0,9,9,9,,,,,,,,,False,28,89,True,exp4.png,exp3.png,trial_left_image,1,exp4.png,2,exp4.png,exp3.png,0,4,reversed,correct,0.1555700108056015,0,invalid_lose,548.5746428000002,53,,,,,,,,,,,,,,,,,,sub_154,2023-09-05_15h51.55.258,Reversal,2022.1.2,60.04069558350436,2,
10,exp1.png,exp2.png,,,,,,,,,,,,,,,,,,1,0,1,0,0,10,10,10,,,,,,,,,False,29,90,False,exp1.png,exp2.png,trial_right_image,-1,exp2.png,2,exp1.png,exp2.png,0,2,non-reversed,incorrect,0.4340096125758781,0,valid_lose,553.8580337000003,53,,,,,,,,,,,,,,,,,,sub_154,2023-09-05_15h51.55.258,Reversal,2022.1.2,60.04069558350436,2,
11,exp3.png,exp4.png,,,,,,,,,,,,,,,,,,1,0,1,0,0,11,11,11,,,,,,,,,False,30,91,False,exp3.png,exp4.png,trial_left_image,1,exp3.png,2,exp4.png,exp3.png,1,3,reversed,incorrect,0.8107648544158718,0,valid_lose,558.7911159000005,53,,,,,,,,,,,,,,,,,,sub_154,2023-09-05_15h51.55.258,Reversal,2022.1.2,60.04069558350436,2,
12,exp1.png,exp2.png,,,,,,,,,,,,,,,,,,1,0,1,0,0,12,12,12,,,,,,,,,False,31,92,True,exp2.png,exp1.png,trial_right_image,-1,exp1.png,2,exp1.png,exp2.png,1,1,non-reversed,correct,0.2021939792752292,0,invalid_lose,562.9578216,53,,,,,,,,,,,,,,,,,,sub_154,2023-09-05_15h51.55.258,Reversal,2022.1.2,60.04069558350436,2,
13,exp3.png,exp4.png,,,,,,,,,,,,,,,,,,1,0,1,0,0,13,13,13,,,,,,,,,False,32,93,False,exp3.png,exp4.png,trial_right_image,-1,exp4.png,2,exp4.png,exp3.png,0,4,reversed,correct,0.5102489967166387,1,valid_win,568.8746952000001,54,,,,,,,,,,,,,,,,,,sub_154,2023-09-05_15h51.55.258,Reversal,2022.1.2,60.04069558350436,2,
14,exp1.png,exp2.png,,,,,,,,,,,,,,,,,,1,0,1,0,0,14,14,14,,,,,,,,,False,33,94,False,exp1.png,exp2.png,trial_left_image,1,exp1.png,2,exp1.png,exp2.png,1,1,non-reversed,correct,0.7775234612264859,1,valid_win,573.4241908000004,55,,,,,,,,,,,,,,,,,,sub_154,2023-09-05_15h51.55.258,Reversal,2022.1.2,60.04069558350436,2,
15,exp3.png,exp4.png,,,,,,,,,,,,,,,,,,1,0,1,0,0,15,15,15,,,,,,,,,False,34,95,False,exp3.png,exp4.png,trial_left_image,1,exp3.png,2,exp4.png,exp3.png,1,3,reversed,incorrect,0.28935445620110656,0,valid_lose,577.6412517000008,55,,,,,,,,,,,,,,,,,,sub_154,2023-09-05_15h51.55.258,Reversal,2022.1.2,60.04069558350436,2,
16,exp1.png,exp2.png,,,,,,,,,,,,,,,,,,1,0,1,0,0,16,16,16,,,,,,,,,False,35,96,True,exp2.png,exp1.png,trial_right_image,-1,exp1.png,2,exp1.png,exp2.png,1,1,non-reversed,correct,0.041494649513383774,0,invalid_lose,582.0243096000004,55,,,,,,,,,,,,,,,,,,sub_154,2023-09-05_15h51.55.258,Reversal,2022.1.2,60.04069558350436,2,
17,exp3.png,exp4.png,,,,,,,,,,,,,,,,,,1,0,1,0,0,17,17,17,,,,,,,,,False,36,97,True,exp4.png,exp3.png,trial_left_image,1,exp4.png,2,exp4.png,exp3.png,0,4,reversed,correct,0.12560512761333142,0,invalid_lose,587.9074425000008,55,,,,,,,,,,,,,,,,,,sub_154,2023-09-05_15h51.55.258,Reversal,2022.1.2,60.04069558350436,2,
18,exp1.png,exp2.png,,,,,,,,,,,,,,,,,,1,0,1,0,0,18,18,18,,,,,,,,,False,37,98,True,exp2.png,exp1.png,trial_right_image,-1,exp1.png,2,exp1.png,exp2.png,1,1,non-reversed,correct,0.3858194148301535,1,valid_win,592.0738913000005,56,,,,,,,,,,,,,,,,,,sub_154,2023-09-05_15h51.55.258,Reversal,2022.1.2,60.04069558350436,2,
19,exp3.png,exp4.png,,,,,,,,,,,,,,,,,,1,0,1,0,0,19,19,19,,,,,,,,,False,38,99,False,exp3.png,exp4.png,trial_right_image,-1,exp4.png,2,exp4.png,exp3.png,0,4,reversed,correct,0.07195715433343586,0,invalid_lose,596.5567652,56,,,,,,,,,,,,,,,,,,sub_154,2023-09-05_15h51.55.258,Reversal,2022.1.2,60.04069558350436,2,
20,exp1.png,exp2.png,,,,,,,,,,,,,,,,,,1,0,1,0,0,20,20,20,,,,,,,,,False,39,100,True,exp2.png,exp1.png,trial_left_image,1,exp2.png,2,exp1.png,exp2.png,0,2,non-reversed,incorrect,0.5517988083884922,0,valid_lose,601.0077175000006,56,,,,,,,,,,,,,,,,,,sub_154,2023-09-05_15h51.55.258,Reversal,2022.1.2,60.04069558350436,2,
,,,exp1.png,,,,,,,,,,,,,,,,,1,0,1,0,,,,,0,0,0,0,0,0,0,0,,,,,,,,,,,,,,,,,,,,,,66.0,66.0,3.1450022000008175,"[(66.0, 3.1450022000008175)]",667.7632648999997,None,,,,,,,,,,,,sub_154,2023-09-05_15h51.55.258,Reversal,2022.1.2,60.04069558350436,2,
,,,exp2.png,,,,,,,,,,,,,,,,,1,0,1,0,,,,,0,0,0,0,0,1,1,1,,,,,,,,,,,,,,,,,,,,,,,32.0,1.8479450999993787,"[(32.0, 1.8479450999993787)]",672.0592784999999,None,32.0,,,,,,,,,,,sub_154,2023-09-05_15h51.55.258,Reversal,2022.1.2,60.04069558350436,2,
,,,exp3.png,,,,,,,,,,,,,,,,,1,0,1,0,,,,,0,0,0,0,0,2,2,2,,,,,,,,,,,,,,,,,,,,,,,34.0,2.218308900000011,"[(34.0, 2.218308900000011)]",674.9728872999995,None,,34.0,,,,,,,,,,sub_154,2023-09-05_15h51.55.258,Reversal,2022.1.2,60.04069558350436,2,
,,,exp4.png,,,,,,,,,,,,,,,,,1,0,1,0,,,,,0,0,0,0,0,3,3,3,,,,,,,,,,,,,,,,,,,,,,,68.0,1.299549799999113,"[(68.0, 1.299549799999113)]",678.1773377,None,,,68.0,,,,,,,,,sub_154,2023-09-05_15h51.55.258,Reversal,2022.1.2,60.04069558350436,2,
0,exp1.png,exp2.png,,,,,,,,,,,,,,,,,,2,0,2,0,0,0,0,0,,,,,,,,,True,,,,,,,,,,,,,,,,,,,,,,,,,,,,,,,,,,,,,,sub_154,2023-09-05_15h51.55.258,Reversal,2022.1.2,60.04069558350436,2,
1,exp3.png,exp4.png,,,,,,,,,,,,,,,,,,2,0,2,0,0,1,1,1,,,,,,,,,False,40,101,False,exp3.png,exp4.png,trial_right_image,-1,exp4.png,2,exp4.png,exp3.png,0,4,reversed,correct,0.3928146383751735,1,valid_win,618.1735200000003,57,,,,,,,,,,,,,,,,,,sub_154,2023-09-05_15h51.55.258,Reversal,2022.1.2,60.04069558350436,2,
2,exp1.png,exp2.png,,,,,,,,,,,,,,,,,,2,0,2,0,0,2,2,2,,,,,,,,,False,41,102,False,exp1.png,exp2.png,trial_right_image,-1,exp2.png,2,exp1.png,exp2.png,0,2,non-reversed,incorrect,0.2905501190254858,0,valid_lose,622.4230527,57,,,,,,,,,,,,,,,,,,sub_154,2023-09-05_15h51.55.258,Reversal,2022.1.2,60.04069558350436,2,
3,exp3.png,exp4.png,,,,,,,,,,,,,,,,,,2,0,2,0,0,3,3,3,,,,,,,,,False,42,103,True,exp4.png,exp3.png,trial_left_image,1,exp4.png,2,exp4.png,exp3.png,0,4,reversed,correct,0.48300764144264374,1,valid_win,626.8735251000007,58,,,,,,,,,,,,,,,,,,sub_154,2023-09-05_15h51.55.258,Reversal,2022.1.2,60.04069558350436,2,
4,exp1.png,exp2.png,,,,,,,,,,,,,,,,,,2,0,2,0,0,4,4,4,,,,,,,,,False,43,104,True,exp2.png,exp1.png,trial_right_image,-1,exp1.png,2,exp1.png,exp2.png,1,1,non-reversed,correct,0.9500761254265868,1,valid_win,631.8565069000006,59,,,,,,,,,,,,,,,,,,sub_154,2023-09-05_15h51.55.258,Reversal,2022.1.2,60.04069558350436,2,
5,exp3.png,exp4.png,,,,,,,,,,,,,,,,,,2,0,2,0,0,5,5,5,,,,,,,,,False,44,105,False,exp3.png,exp4.png,trial_right_image,-1,exp4.png,2,exp4.png,exp3.png,0,4,reversed,correct,0.5842351818463348,1,valid_win,636.2728873000005,60,,,,,,,,,,,,,,,,,,sub_154,2023-09-05_15h51.55.258,Reversal,2022.1.2,60.04069558350436,2,
6,exp1.png,exp2.png,,,,,,,,,,,,,,,,,,2,0,2,0,0,6,6,6,,,,,,,,,False,45,106,True,exp2.png,exp1.png,trial_right_image,-1,exp1.png,2,exp1.png,exp2.png,1,1,non-reversed,correct,0.5814107945628174,1,valid_win,640.4727040000007,61,,,,,,,,,,,,,,,,,,sub_154,2023-09-05_15h51.55.258,Reversal,2022.1.2,60.04069558350436,2,
7,exp3.png,exp4.png,,,,,,,,,,,,,,,,,,2,0,2,0,0,7,7,7,,,,,,,,,False,46,107,False,exp3.png,exp4.png,trial_left_image,1,exp3.png,2,exp4.png,exp3.png,1,3,reversed,incorrect,0.5398552163016466,0,valid_lose,645.7067522000007,61,,,,,,,,,,,,,,,,,,sub_154,2023-09-05_15h51.55.258,Reversal,2022.1.2,60.04069558350436,2,
8,exp1.png,exp2.png,,,,,,,,,,,,,,,,,,2,0,2,0,0,8,8,8,,,,,,,,,False,47,108,False,exp1.png,exp2.png,trial_left_image,1,exp1.png,2,exp1.png,exp2.png,1,1,non-reversed,correct,0.4585939718648874,1,valid_win,651.6226589000007,62,,,,,,,,,,,,,,,,,,sub_154,2023-09-05_15h51.55.258,Reversal,2022.1.2,60.04069558350436,2,
9,exp3.png,exp4.png,,,,,,,,,,,,,,,,,,2,0,2,0,0,9,9,9,,,,,,,,,False,48,109,False,exp3.png,exp4.png,trial_right_image,-1,exp4.png,2,exp4.png,exp3.png,0,4,reversed,correct,0.039005427814760574,0,invalid_lose,655.8727618000003,62,,,,,,,,,,,,,,,,,,sub_154,2023-09-05_15h51.55.258,Reversal,2022.1.2,60.04069558350436,2,
10,exp1.png,exp2.png,,,,,,,,,,,,,,,,,,2,0,2,0,0,10,10,10,,,,,,,,,False,49,110,False,exp1.png,exp2.png,trial_right_image,-1,exp2.png,2,exp1.png,exp2.png,0,2,non-reversed,incorrect,0.5296700592330337,0,valid_lose,660.7398192,62,,,,,,,,,,,,,,,,,,sub_154,2023-09-05_15h51.55.258,Reversal,2022.1.2,60.04069558350436,2,
11,exp3.png,exp4.png,,,,,,,,,,,,,,,,,,2,0,2,0,0,11,11,11,,,,,,,,,False,50,111,False,exp3.png,exp4.png,trial_right_image,-1,exp4.png,2,exp4.png,exp3.png,0,4,reversed,correct,0.33012576055569454,1,valid_win,664.7887854,63,,,,,,,,,,,,,,,,,,sub_154,2023-09-05_15h51.55.258,Reversal,2022.1.2,60.04069558350436,2,
12,exp1.png,exp2.png,,,,,,,,,,,,,,,,,,2,0,2,0,0,12,12,12,,,,,,,,,False,51,112,True,exp2.png,exp1.png,trial_left_image,1,exp2.png,2,exp1.png,exp2.png,0,2,non-reversed,incorrect,0.3164640815076878,0,valid_lose,669.0391578000008,63,,,,,,,,,,,,,,,,,,sub_154,2023-09-05_15h51.55.258,Reversal,2022.1.2,60.04069558350436,2,
13,exp3.png,exp4.png,,,,,,,,,,,,,,,,,,2,0,2,0,0,13,13,13,,,,,,,,,False,52,113,True,exp4.png,exp3.png,trial_right_image,-1,exp3.png,2,exp4.png,exp3.png,1,3,reversed,incorrect,0.37824571527772866,0,valid_lose,673.0060869000008,63,,,,,,,,,,,,,,,,,,sub_154,2023-09-05_15h51.55.258,Reversal,2022.1.2,60.04069558350436,2,
14,exp1.png,exp2.png,,,,,,,,,,,,,,,,,,2,0,2,0,0,14,14,14,,,,,,,,,False,53,114,True,exp2.png,exp1.png,trial_right_image,-1,exp1.png,2,exp1.png,exp2.png,1,1,non-reversed,correct,0.6864709023587021,1,valid_win,677.0561241000005,64,,,,,,,,,,,,,,,,,,sub_154,2023-09-05_15h51.55.258,Reversal,2022.1.2,60.04069558350436,2,
15,exp3.png,exp4.png,,,,,,,,,,,,,,,,,,2,0,2,0,0,15,15,15,,,,,,,,,False,54,115,True,exp4.png,exp3.png,trial_left_image,1,exp4.png,2,exp4.png,exp3.png,0,4,reversed,correct,0.19309553557836123,0,invalid_lose,681.4550727000005,64,,,,,,,,,,,,,,,,,,sub_154,2023-09-05_15h51.55.258,Reversal,2022.1.2,60.04069558350436,2,
16,exp1.png,exp2.png,,,,,,,,,,,,,,,,,,2,0,2,0,0,16,16,16,,,,,,,,,False,55,116,False,exp1.png,exp2.png,trial_right_image,-1,exp2.png,2,exp1.png,exp2.png,0,2,non-reversed,incorrect,0.4837756335070392,0,valid_lose,685.4891921000008,64,,,,,,,,,,,,,,,,,,sub_154,2023-09-05_15h51.55.258,Reversal,2022.1.2,60.04069558350436,2,
17,exp3.png,exp4.png,,,,,,,,,,,,,,,,,,2,0,2,0,0,17,17,17,,,,,,,,,False,56,117,True,exp4.png,exp3.png,trial_left_image,1,exp4.png,2,exp4.png,exp3.png,0,4,reversed,correct,0.4161479497754388,1,valid_win,689.4720081000005,65,,,,,,,,,,,,,,,,,,sub_154,2023-09-05_15h51.55.258,Reversal,2022.1.2,60.04069558350436,2,
18,exp1.png,exp2.png,,,,,,,,,,,,,,,,,,2,0,2,0,0,18,18,18,,,,,,,,,False,57,118,False,exp1.png,exp2.png,trial_left_image,1,exp1.png,2,exp1.png,exp2.png,1,1,non-reversed,correct,0.8714987581360205,1,valid_win,693.9390015000008,66,,,,,,,,,,,,,,,,,,sub_154,2023-09-05_15h51.55.258,Reversal,2022.1.2,60.04069558350436,2,
19,exp3.png,exp4.png,,,,,,,,,,,,,,,,,,2,0,2,0,0,19,19,19,,,,,,,,,False,58,119,True,exp4.png,exp3.png,trial_left_image,1,exp4.png,2,exp4.png,exp3.png,0,4,reversed,correct,0.4441831189761206,1,valid_win,698.2384537000007,67,,,,,,,,,,,,,,,,,,sub_154,2023-09-05_15h51.55.258,Reversal,2022.1.2,60.04069558350436,2,
20,exp1.png,exp2.png,,,,,,,,,,,,,,,,,,2,0,2,0,0,20,20,20,,,,,,,,,False,59,120,True,exp2.png,exp1.png,trial_right_image,-1,exp1.png,2,exp1.png,exp2.png,1,1,non-reversed,correct,0.29514222799012146,1,valid_win,702.2387937000003,68,,,,,,,,,,,,,,,,,,sub_154,2023-09-05_15h51.55.258,Reversal,2022.1.2,60.04069558350436,2,
,,,exp1.png,,,,,,,,,,,,,,,,,2,0,2,0,,,,,0,0,0,0,0,0,0,0,,,,,,,,,,,,,,,,,,,,,,71.0,71.0,3.4984991999999693,"[(71.0, 3.4984991999999693)]",768.9952247000001,None,,,,,,,,,,,,sub_154,2023-09-05_15h51.55.258,Reversal,2022.1.2,60.04069558350436,2,
,,,exp2.png,,,,,,,,,,,,,,,,,2,0,2,0,,,,,0,0,0,0,0,1,1,1,,,,,,,,,,,,,,,,,,,,,,,19.0,1.6311365000001388,"[(19.0, 1.6311365000001388)]",773.5080146,None,19.0,,,,,,,,,,,sub_154,2023-09-05_15h51.55.258,Reversal,2022.1.2,60.04069558350436,2,
,,,exp3.png,,,,,,,,,,,,,,,,,2,0,2,0,,,,,0,0,0,0,0,2,2,2,,,,,,,,,,,,,,,,,,,,,,,50.0,None,[],776.2084950999997,None,,,,,,,,,,,,sub_154,2023-09-05_15h51.55.258,Reversal,2022.1.2,60.04069558350436,2,
,,,exp4.png,,,,,,,,,,,,,,,,,2,0,2,0,,,,,0,0,0,0,0,3,3,3,,,,,,,,,,,,,,,,,,,,,,,50.0,None,[],777.4737224999999,None,,,,,,,,,,,,sub_154,2023-09-05_15h51.55.258,Reversal,2022.1.2,60.04069558350436,2,
,,,,,,,,,,,,,,,,,,,,,,,,,,,,,,,,,,,,,,,,,,,,,,,,,,,,,,,,68,,,,,,,,,,,81,43,38,325.49848569999995,0,space,42.82109060000039,sub_154,2023-09-05_15h51.55.258,Reversal,2022.1.2,60.04069558350436,2,
