trial_index,trial_image1_file,trial_image2_file,image_file,learning_outer_loop.thisRepN,learning_outer_loop.thisTrialN,learning_outer_loop.thisN,learning_outer_loop.thisIndex,learning_inner_loop.thisRepN,learning_inner_loop.thisTrialN,learning_inner_loop.thisN,learning_inner_loop.thisIndex,learning_estimation_outer_loop.thisRepN,learning_estimation_outer_loop.thisTrialN,learning_estimation_outer_loop.thisN,learning_estimation_outer_loop.thisIndex,learning_estimation_inner_loop.thisRepN,learning_estimation_inner_loop.thisTrialN,learning_estimation_inner_loop.thisN,learning_estimation_inner_loop.thisIndex,reversal_outer_loop.thisRepN,reversal_outer_loop.thisTrialN,reversal_outer_loop.thisN,reversal_outer_loop.thisIndex,reversal_inner_loop.thisRepN,reversal_inner_loop.thisTrialN,reversal_inner_loop.thisN,reversal_inner_loop.thisIndex,reversal_estimation_outer_loop.thisRepN,reversal_estimation_outer_loop.thisTrialN,reversal_estimation_outer_loop.thisN,reversal_estimation_outer_loop.thisIndex,reversal_estimation_inner_loop.thisRepN,reversal_estimation_inner_loop.thisTrialN,reversal_estimation_inner_loop.thisN,reversal_estimation_inner_loop.thisIndex,skipped,total_trial_counter,trial_num,left_right_flip,left_image_file,right_image_file,clicked_stimulus_side,side,clicked_stimulus,version,high_prob_image_file,low_prob_image_file,choice_a,choice_b,pair_type,correct,trial_feedback_random,reward,trial_type,overall_time_after_trial,score,estimation_exp1.png,estimation_rating.response,estimation_rating.rt,estimation_rating.history,estimation_rating.started,estimation_rating.stopped,estimation_exp2.png,estimation_exp4.png,estimation_exp3.png,total_learning_time,total_correct,learning_correct,reversal_correct,total_reversal_time,extra_block,participant,date,expName,psychopyVersion,frameRate,ver,
0,exp1.png,exp2.png,,0,0,0,0,0,0,0,0,,,,,,,,,,,,,,,,,,,,,,,,,False,0,1,False,exp1.png,exp2.png,trial_right_image,-1,exp2.png,4,exp2.png,exp1.png,1,1,non-reversed,correct,0.9503620326710068,1,valid_win,4.834040300000197,1,,,,,,,,,,,,,,,,sub_072,2022-09-28_13h02.23.781,Reversal,2022.1.2,59.97210097869242,4,
1,exp3.png,exp4.png,,0,0,0,0,0,1,1,1,,,,,,,,,,,,,,,,,,,,,,,,,False,1,2,False,exp3.png,exp4.png,trial_right_image,-1,exp4.png,4,exp4.png,exp3.png,1,3,reversed,correct,0.93672532351867,1,valid_win,18.417165400000158,2,,,,,,,,,,,,,,,,sub_072,2022-09-28_13h02.23.781,Reversal,2022.1.2,59.97210097869242,4,
2,exp1.png,exp2.png,,0,0,0,0,0,2,2,2,,,,,,,,,,,,,,,,,,,,,,,,,False,2,3,True,exp2.png,exp1.png,trial_left_image,1,exp2.png,4,exp2.png,exp1.png,1,1,non-reversed,correct,0.25628934942405845,1,valid_win,23.617271600000095,3,,,,,,,,,,,,,,,,sub_072,2022-09-28_13h02.23.781,Reversal,2022.1.2,59.97210097869242,4,
3,exp3.png,exp4.png,,0,0,0,0,0,3,3,3,,,,,,,,,,,,,,,,,,,,,,,,,False,3,4,True,exp4.png,exp3.png,trial_left_image,1,exp4.png,4,exp4.png,exp3.png,1,3,reversed,correct,0.6528756881761464,1,valid_win,29.417059000000336,4,,,,,,,,,,,,,,,,sub_072,2022-09-28_13h02.23.781,Reversal,2022.1.2,59.97210097869242,4,
4,exp1.png,exp2.png,,0,0,0,0,0,4,4,4,,,,,,,,,,,,,,,,,,,,,,,,,False,4,5,False,exp1.png,exp2.png,trial_right_image,-1,exp2.png,4,exp2.png,exp1.png,1,1,non-reversed,correct,0.35349973511310284,1,valid_win,35.066488700000264,5,,,,,,,,,,,,,,,,sub_072,2022-09-28_13h02.23.781,Reversal,2022.1.2,59.97210097869242,4,
5,exp3.png,exp4.png,,0,0,0,0,0,5,5,5,,,,,,,,,,,,,,,,,,,,,,,,,False,5,6,True,exp4.png,exp3.png,trial_left_image,1,exp4.png,4,exp4.png,exp3.png,1,3,reversed,correct,0.23965370160529964,0,invalid_lose,40.500011500000255,5,,,,,,,,,,,,,,,,sub_072,2022-09-28_13h02.23.781,Reversal,2022.1.2,59.97210097869242,4,
6,exp1.png,exp2.png,,0,0,0,0,0,6,6,6,,,,,,,,,,,,,,,,,,,,,,,,,False,6,7,True,exp2.png,exp1.png,trial_right_image,-1,exp1.png,4,exp2.png,exp1.png,0,2,non-reversed,incorrect,0.25641869254879157,0,valid_lose,50.816409699999895,5,,,,,,,,,,,,,,,,sub_072,2022-09-28_13h02.23.781,Reversal,2022.1.2,59.97210097869242,4,
7,exp3.png,exp4.png,,0,0,0,0,0,7,7,7,,,,,,,,,,,,,,,,,,,,,,,,,False,7,8,False,exp3.png,exp4.png,trial_right_image,-1,exp4.png,4,exp4.png,exp3.png,1,3,reversed,correct,0.5592162509788924,1,valid_win,56.19993979999981,6,,,,,,,,,,,,,,,,sub_072,2022-09-28_13h02.23.781,Reversal,2022.1.2,59.97210097869242,4,
8,exp1.png,exp2.png,,0,0,0,0,0,8,8,8,,,,,,,,,,,,,,,,,,,,,,,,,False,8,9,False,exp1.png,exp2.png,trial_right_image,-1,exp2.png,4,exp2.png,exp1.png,1,1,non-reversed,correct,0.15158882894267922,0,invalid_lose,63.549687200000335,6,,,,,,,,,,,,,,,,sub_072,2022-09-28_13h02.23.781,Reversal,2022.1.2,59.97210097869242,4,
9,exp3.png,exp4.png,,0,0,0,0,0,9,9,9,,,,,,,,,,,,,,,,,,,,,,,,,False,9,10,True,exp4.png,exp3.png,trial_left_image,1,exp4.png,4,exp4.png,exp3.png,1,3,reversed,correct,0.15318168211274485,0,invalid_lose,72.79985740000029,6,,,,,,,,,,,,,,,,sub_072,2022-09-28_13h02.23.781,Reversal,2022.1.2,59.97210097869242,4,
10,exp1.png,exp2.png,,0,0,0,0,0,10,10,10,,,,,,,,,,,,,,,,,,,,,,,,,False,10,11,False,exp1.png,exp2.png,trial_left_image,1,exp1.png,4,exp2.png,exp1.png,0,2,non-reversed,incorrect,0.5943803962876032,0,valid_lose,79.08258070000011,6,,,,,,,,,,,,,,,,sub_072,2022-09-28_13h02.23.781,Reversal,2022.1.2,59.97210097869242,4,
11,exp3.png,exp4.png,,0,0,0,0,0,11,11,11,,,,,,,,,,,,,,,,,,,,,,,,,False,11,12,True,exp4.png,exp3.png,trial_left_image,1,exp4.png,4,exp4.png,exp3.png,1,3,reversed,correct,0.9167030530190403,1,valid_win,86.6991321000005,7,,,,,,,,,,,,,,,,sub_072,2022-09-28_13h02.23.781,Reversal,2022.1.2,59.97210097869242,4,
12,exp1.png,exp2.png,,0,0,0,0,0,12,12,12,,,,,,,,,,,,,,,,,,,,,,,,,False,12,13,True,exp2.png,exp1.png,trial_left_image,1,exp2.png,4,exp2.png,exp1.png,1,1,non-reversed,correct,0.1200147029359595,0,invalid_lose,95.2654566000001,7,,,,,,,,,,,,,,,,sub_072,2022-09-28_13h02.23.781,Reversal,2022.1.2,59.97210097869242,4,
13,exp3.png,exp4.png,,0,0,0,0,0,13,13,13,,,,,,,,,,,,,,,,,,,,,,,,,False,13,14,False,exp3.png,exp4.png,trial_right_image,-1,exp4.png,4,exp4.png,exp3.png,1,3,reversed,correct,0.7583515698910008,1,valid_win,100.94913309999993,8,,,,,,,,,,,,,,,,sub_072,2022-09-28_13h02.23.781,Reversal,2022.1.2,59.97210097869242,4,
14,exp1.png,exp2.png,,0,0,0,0,0,14,14,14,,,,,,,,,,,,,,,,,,,,,,,,,False,14,15,False,exp1.png,exp2.png,trial_right_image,-1,exp2.png,4,exp2.png,exp1.png,1,1,non-reversed,correct,0.19094070464653878,0,invalid_lose,107.99867790000008,8,,,,,,,,,,,,,,,,sub_072,2022-09-28_13h02.23.781,Reversal,2022.1.2,59.97210097869242,4,
15,exp3.png,exp4.png,,0,0,0,0,0,15,15,15,,,,,,,,,,,,,,,,,,,,,,,,,False,15,16,False,exp3.png,exp4.png,trial_left_image,1,exp3.png,4,exp4.png,exp3.png,0,4,reversed,incorrect,0.8682648476695036,0,valid_lose,119.04856960000052,8,,,,,,,,,,,,,,,,sub_072,2022-09-28_13h02.23.781,Reversal,2022.1.2,59.97210097869242,4,
16,exp1.png,exp2.png,,0,0,0,0,0,16,16,16,,,,,,,,,,,,,,,,,,,,,,,,,False,16,17,False,exp1.png,exp2.png,trial_right_image,-1,exp2.png,4,exp2.png,exp1.png,1,1,non-reversed,correct,0.0291241970551952,0,invalid_lose,128.66505150000012,8,,,,,,,,,,,,,,,,sub_072,2022-09-28_13h02.23.781,Reversal,2022.1.2,59.97210097869242,4,
17,exp3.png,exp4.png,,0,0,0,0,0,17,17,17,,,,,,,,,,,,,,,,,,,,,,,,,False,17,18,True,exp4.png,exp3.png,trial_left_image,1,exp4.png,4,exp4.png,exp3.png,1,3,reversed,correct,0.17378014225271943,0,invalid_lose,134.94803409999986,8,,,,,,,,,,,,,,,,sub_072,2022-09-28_13h02.23.781,Reversal,2022.1.2,59.97210097869242,4,
18,exp1.png,exp2.png,,0,0,0,0,0,18,18,18,,,,,,,,,,,,,,,,,,,,,,,,,False,18,19,True,exp2.png,exp1.png,trial_right_image,-1,exp1.png,4,exp2.png,exp1.png,0,2,non-reversed,incorrect,0.7976057521402494,0,valid_lose,151.16466839999975,8,,,,,,,,,,,,,,,,sub_072,2022-09-28_13h02.23.781,Reversal,2022.1.2,59.97210097869242,4,
19,exp3.png,exp4.png,,0,0,0,0,0,19,19,19,,,,,,,,,,,,,,,,,,,,,,,,,False,19,20,True,exp4.png,exp3.png,trial_right_image,-1,exp3.png,4,exp4.png,exp3.png,0,4,reversed,incorrect,0.4618692736304275,0,valid_lose,156.77981830000044,8,,,,,,,,,,,,,,,,sub_072,2022-09-28_13h02.23.781,Reversal,2022.1.2,59.97210097869242,4,
20,exp1.png,exp2.png,,0,0,0,0,0,20,20,20,,,,,,,,,,,,,,,,,,,,,,,,,True,,,,,,,,,,,,,,,,,,,,,,,,,,,,,,,,,,,,sub_072,2022-09-28_13h02.23.781,Reversal,2022.1.2,59.97210097869242,4,
,,,exp1.png,0,0,0,0,,,,,0,0,0,0,0,0,0,0,,,,,,,,,,,,,,,,,,,,,,,,,,,,,,,,,,,,,,22.0,22.0,9.897069399999964,"[(38.0, 8.29727880000064), (22.0, 9.897069399999964)]",230.68429780000042,None,,,,,,,,,,sub_072,2022-09-28_13h02.23.781,Reversal,2022.1.2,59.97210097869242,4,
,,,exp2.png,0,0,0,0,,,,,0,0,0,0,0,1,1,1,,,,,,,,,,,,,,,,,,,,,,,,,,,,,,,,,,,,,,,82.0,5.050875699999779,"[(82.0, 5.050875699999779)]",241.85180889999992,None,82.0,,,,,,,,,sub_072,2022-09-28_13h02.23.781,Reversal,2022.1.2,59.97210097869242,4,
,,,exp3.png,0,0,0,0,,,,,0,0,0,0,0,2,2,2,,,,,,,,,,,,,,,,,,,,,,,,,,,,,,,,,,,,,,,50.0,None,[],247.97161930000038,None,,,,,,,,,,sub_072,2022-09-28_13h02.23.781,Reversal,2022.1.2,59.97210097869242,4,
,,,exp4.png,0,0,0,0,,,,,0,0,0,0,0,3,3,3,,,,,,,,,,,,,,,,,,,,,,,,,,,,,,,,,,,,,,,87.0,3.6515541999997367,"[(87.0, 3.6515541999997367)]",251.03355680000004,None,,87.0,,,,,,,,sub_072,2022-09-28_13h02.23.781,Reversal,2022.1.2,59.97210097869242,4,
0,exp1.png,exp2.png,,1,0,1,0,0,0,0,0,,,,,,,,,,,,,,,,,,,,,,,,,False,20,21,True,exp2.png,exp1.png,trial_left_image,1,exp2.png,4,exp2.png,exp1.png,1,1,non-reversed,correct,0.4493047332259431,1,valid_win,189.44607319999977,9,,,,,,,,,,,,,,,,sub_072,2022-09-28_13h02.23.781,Reversal,2022.1.2,59.97210097869242,4,
1,exp3.png,exp4.png,,1,0,1,0,0,1,1,1,,,,,,,,,,,,,,,,,,,,,,,,,False,21,22,True,exp4.png,exp3.png,trial_right_image,-1,exp3.png,4,exp4.png,exp3.png,0,4,reversed,incorrect,0.16736729778383785,1,invalid_win,197.0959868,10,,,,,,,,,,,,,,,,sub_072,2022-09-28_13h02.23.781,Reversal,2022.1.2,59.97210097869242,4,
2,exp1.png,exp2.png,,1,0,1,0,0,2,2,2,,,,,,,,,,,,,,,,,,,,,,,,,False,22,23,False,exp1.png,exp2.png,trial_left_image,1,exp1.png,4,exp2.png,exp1.png,0,2,non-reversed,incorrect,0.28056091797894045,0,valid_lose,204.37911410000015,10,,,,,,,,,,,,,,,,sub_072,2022-09-28_13h02.23.781,Reversal,2022.1.2,59.97210097869242,4,
3,exp3.png,exp4.png,,1,0,1,0,0,3,3,3,,,,,,,,,,,,,,,,,,,,,,,,,False,23,24,False,exp3.png,exp4.png,trial_left_image,1,exp3.png,4,exp4.png,exp3.png,0,4,reversed,incorrect,0.8429827917995102,0,valid_lose,209.72907320000013,10,,,,,,,,,,,,,,,,sub_072,2022-09-28_13h02.23.781,Reversal,2022.1.2,59.97210097869242,4,
4,exp1.png,exp2.png,,1,0,1,0,0,4,4,4,,,,,,,,,,,,,,,,,,,,,,,,,False,24,25,False,exp1.png,exp2.png,trial_right_image,-1,exp2.png,4,exp2.png,exp1.png,1,1,non-reversed,correct,0.551096567535328,1,valid_win,219.16207570000006,11,,,,,,,,,,,,,,,,sub_072,2022-09-28_13h02.23.781,Reversal,2022.1.2,59.97210097869242,4,
5,exp3.png,exp4.png,,1,0,1,0,0,5,5,5,,,,,,,,,,,,,,,,,,,,,,,,,False,25,26,True,exp4.png,exp3.png,trial_left_image,1,exp4.png,4,exp4.png,exp3.png,1,3,reversed,correct,0.11765922465996703,0,invalid_lose,230.46335129999989,11,,,,,,,,,,,,,,,,sub_072,2022-09-28_13h02.23.781,Reversal,2022.1.2,59.97210097869242,4,
6,exp1.png,exp2.png,,1,0,1,0,0,6,6,6,,,,,,,,,,,,,,,,,,,,,,,,,False,26,27,True,exp2.png,exp1.png,trial_right_image,-1,exp1.png,4,exp2.png,exp1.png,0,2,non-reversed,incorrect,0.7135005333604416,0,valid_lose,243.49627859999964,11,,,,,,,,,,,,,,,,sub_072,2022-09-28_13h02.23.781,Reversal,2022.1.2,59.97210097869242,4,
7,exp3.png,exp4.png,,1,0,1,0,0,7,7,7,,,,,,,,,,,,,,,,,,,,,,,,,False,27,28,False,exp3.png,exp4.png,trial_left_image,1,exp3.png,4,exp4.png,exp3.png,0,4,reversed,incorrect,0.5325060017832437,0,valid_lose,249.71263369999997,11,,,,,,,,,,,,,,,,sub_072,2022-09-28_13h02.23.781,Reversal,2022.1.2,59.97210097869242,4,
8,exp1.png,exp2.png,,1,0,1,0,0,8,8,8,,,,,,,,,,,,,,,,,,,,,,,,,False,28,29,False,exp1.png,exp2.png,trial_left_image,1,exp1.png,4,exp2.png,exp1.png,0,2,non-reversed,incorrect,0.5773851631118769,0,valid_lose,262.9958292000001,11,,,,,,,,,,,,,,,,sub_072,2022-09-28_13h02.23.781,Reversal,2022.1.2,59.97210097869242,4,
9,exp3.png,exp4.png,,1,0,1,0,0,9,9,9,,,,,,,,,,,,,,,,,,,,,,,,,False,29,30,False,exp3.png,exp4.png,trial_left_image,1,exp3.png,4,exp4.png,exp3.png,0,4,reversed,incorrect,0.30994855985812875,0,valid_lose,276.66217289999986,11,,,,,,,,,,,,,,,,sub_072,2022-09-28_13h02.23.781,Reversal,2022.1.2,59.97210097869242,4,
10,exp1.png,exp2.png,,1,0,1,0,0,10,10,10,,,,,,,,,,,,,,,,,,,,,,,,,False,30,31,False,exp1.png,exp2.png,trial_left_image,1,exp1.png,4,exp2.png,exp1.png,0,2,non-reversed,incorrect,0.8334081640118575,0,valid_lose,282.3953098000002,11,,,,,,,,,,,,,,,,sub_072,2022-09-28_13h02.23.781,Reversal,2022.1.2,59.97210097869242,4,
11,exp3.png,exp4.png,,1,0,1,0,0,11,11,11,,,,,,,,,,,,,,,,,,,,,,,,,False,31,32,False,exp3.png,exp4.png,trial_right_image,-1,exp4.png,4,exp4.png,exp3.png,1,3,reversed,correct,0.6881672960286705,1,valid_win,289.4373021000001,12,,,,,,,,,,,,,,,,sub_072,2022-09-28_13h02.23.781,Reversal,2022.1.2,59.97210097869242,4,
12,exp1.png,exp2.png,,1,0,1,0,0,12,12,12,,,,,,,,,,,,,,,,,,,,,,,,,False,32,33,True,exp2.png,exp1.png,trial_right_image,-1,exp1.png,4,exp2.png,exp1.png,0,2,non-reversed,incorrect,0.8509145292440365,0,valid_lose,295.02837660000023,12,,,,,,,,,,,,,,,,sub_072,2022-09-28_13h02.23.781,Reversal,2022.1.2,59.97210097869242,4,
13,exp3.png,exp4.png,,1,0,1,0,0,13,13,13,,,,,,,,,,,,,,,,,,,,,,,,,False,33,34,True,exp4.png,exp3.png,trial_left_image,1,exp4.png,4,exp4.png,exp3.png,1,3,reversed,correct,0.14401823399744185,0,invalid_lose,302.37837409999975,12,,,,,,,,,,,,,,,,sub_072,2022-09-28_13h02.23.781,Reversal,2022.1.2,59.97210097869242,4,
14,exp1.png,exp2.png,,1,0,1,0,0,14,14,14,,,,,,,,,,,,,,,,,,,,,,,,,False,34,35,False,exp1.png,exp2.png,trial_left_image,1,exp1.png,4,exp2.png,exp1.png,0,2,non-reversed,incorrect,0.5163997389410362,0,valid_lose,315.7445617000003,12,,,,,,,,,,,,,,,,sub_072,2022-09-28_13h02.23.781,Reversal,2022.1.2,59.97210097869242,4,
15,exp3.png,exp4.png,,1,0,1,0,0,15,15,15,,,,,,,,,,,,,,,,,,,,,,,,,False,35,36,True,exp4.png,exp3.png,trial_left_image,1,exp4.png,4,exp4.png,exp3.png,1,3,reversed,correct,0.9919074523342611,1,valid_win,324.4447554999997,13,,,,,,,,,,,,,,,,sub_072,2022-09-28_13h02.23.781,Reversal,2022.1.2,59.97210097869242,4,
16,exp1.png,exp2.png,,1,0,1,0,0,16,16,16,,,,,,,,,,,,,,,,,,,,,,,,,False,36,37,True,exp2.png,exp1.png,trial_right_image,-1,exp1.png,4,exp2.png,exp1.png,0,2,non-reversed,incorrect,0.724297084260681,0,valid_lose,335.3277513000003,13,,,,,,,,,,,,,,,,sub_072,2022-09-28_13h02.23.781,Reversal,2022.1.2,59.97210097869242,4,
17,exp3.png,exp4.png,,1,0,1,0,0,17,17,17,,,,,,,,,,,,,,,,,,,,,,,,,False,37,38,True,exp4.png,exp3.png,trial_right_image,-1,exp3.png,4,exp4.png,exp3.png,0,4,reversed,incorrect,0.7633649855206771,0,valid_lose,342.0277808999999,13,,,,,,,,,,,,,,,,sub_072,2022-09-28_13h02.23.781,Reversal,2022.1.2,59.97210097869242,4,
18,exp1.png,exp2.png,,1,0,1,0,0,18,18,18,,,,,,,,,,,,,,,,,,,,,,,,,False,38,39,False,exp1.png,exp2.png,trial_left_image,1,exp1.png,4,exp2.png,exp1.png,0,2,non-reversed,incorrect,0.17246455039024622,1,invalid_win,351.96082540000043,14,,,,,,,,,,,,,,,,sub_072,2022-09-28_13h02.23.781,Reversal,2022.1.2,59.97210097869242,4,
19,exp3.png,exp4.png,,1,0,1,0,0,19,19,19,,,,,,,,,,,,,,,,,,,,,,,,,False,39,40,True,exp4.png,exp3.png,trial_right_image,-1,exp3.png,4,exp4.png,exp3.png,0,4,reversed,incorrect,0.9350955686236697,0,valid_lose,358.3273331999999,14,,,,,,,,,,,,,,,,sub_072,2022-09-28_13h02.23.781,Reversal,2022.1.2,59.97210097869242,4,
20,exp1.png,exp2.png,,1,0,1,0,0,20,20,20,,,,,,,,,,,,,,,,,,,,,,,,,True,,,,,,,,,,,,,,,,,,,,,,,,,,,,,,,,,,,,sub_072,2022-09-28_13h02.23.781,Reversal,2022.1.2,59.97210097869242,4,
,,,exp1.png,1,0,1,0,,,,,0,0,0,0,0,0,0,0,,,,,,,,,,,,,,,,,,,,,,,,,,,,,,,,,,,,,,,50.0,None,[],432.2964802000006,None,,,,,,,,,,sub_072,2022-09-28_13h02.23.781,Reversal,2022.1.2,59.97210097869242,4,
,,,exp2.png,1,0,1,0,,,,,0,0,0,0,0,1,1,1,,,,,,,,,,,,,,,,,,,,,,,,,,,,,,,,,,,,,,,88.0,3.1744495000002644,"[(88.0, 3.1744495000002644)]",440.68004100000053,None,88.0,,,,,,,,,sub_072,2022-09-28_13h02.23.781,Reversal,2022.1.2,59.97210097869242,4,
,,,exp3.png,1,0,1,0,,,,,0,0,0,0,0,2,2,2,,,,,,,,,,,,,,,,,,,,,,,,,,,,,,,,,,,,,,,86.0,4.28455810000014,"[(86.0, 4.28455810000014)]",444.8139409000005,None,,,86.0,,,,,,,sub_072,2022-09-28_13h02.23.781,Reversal,2022.1.2,59.97210097869242,4,
,,,exp4.png,1,0,1,0,,,,,0,0,0,0,0,3,3,3,,,,,,,,,,,,,,,,,,,,,,,,,,,,,,,,,,,,,,,14.0,2.6022349000004397,"[(14.0, 2.6022349000004397)]",450.1201670999999,None,,14.0,,,,,,,,sub_072,2022-09-28_13h02.23.781,Reversal,2022.1.2,59.97210097869242,4,
0,exp1.png,exp2.png,,2,0,2,0,0,0,0,0,,,,,,,,,,,,,,,,,,,,,,,,,False,40,41,True,exp2.png,exp1.png,trial_left_image,1,exp2.png,4,exp2.png,exp1.png,1,1,non-reversed,correct,0.19908486402068415,0,invalid_lose,387.7258007999999,14,,,,,,,,,,,,,,,,sub_072,2022-09-28_13h02.23.781,Reversal,2022.1.2,59.97210097869242,4,
1,exp3.png,exp4.png,,2,0,2,0,0,1,1,1,,,,,,,,,,,,,,,,,,,,,,,,,False,41,42,True,exp4.png,exp3.png,trial_right_image,-1,exp3.png,4,exp4.png,exp3.png,0,4,reversed,incorrect,0.27072148308569777,0,valid_lose,394.1421656000002,14,,,,,,,,,,,,,,,,sub_072,2022-09-28_13h02.23.781,Reversal,2022.1.2,59.97210097869242,4,
2,exp1.png,exp2.png,,2,0,2,0,0,2,2,2,,,,,,,,,,,,,,,,,,,,,,,,,False,42,43,False,exp1.png,exp2.png,trial_left_image,1,exp1.png,4,exp2.png,exp1.png,0,2,non-reversed,incorrect,0.8198861732798122,0,valid_lose,402.1419372999999,14,,,,,,,,,,,,,,,,sub_072,2022-09-28_13h02.23.781,Reversal,2022.1.2,59.97210097869242,4,
3,exp3.png,exp4.png,,2,0,2,0,0,3,3,3,,,,,,,,,,,,,,,,,,,,,,,,,False,43,44,True,exp4.png,exp3.png,trial_left_image,1,exp4.png,4,exp4.png,exp3.png,1,3,reversed,correct,0.23184164559772324,0,invalid_lose,408.22528820000025,14,,,,,,,,,,,,,,,,sub_072,2022-09-28_13h02.23.781,Reversal,2022.1.2,59.97210097869242,4,
4,exp1.png,exp2.png,,2,0,2,0,0,4,4,4,,,,,,,,,,,,,,,,,,,,,,,,,False,44,45,False,exp1.png,exp2.png,trial_left_image,1,exp1.png,4,exp2.png,exp1.png,0,2,non-reversed,incorrect,0.887601023629448,0,valid_lose,412.84194970000044,14,,,,,,,,,,,,,,,,sub_072,2022-09-28_13h02.23.781,Reversal,2022.1.2,59.97210097869242,4,
5,exp3.png,exp4.png,,2,0,2,0,0,5,5,5,,,,,,,,,,,,,,,,,,,,,,,,,False,45,46,False,exp3.png,exp4.png,trial_right_image,-1,exp4.png,4,exp4.png,exp3.png,1,3,reversed,correct,0.10967615999849045,0,invalid_lose,417.70831030000045,14,,,,,,,,,,,,,,,,sub_072,2022-09-28_13h02.23.781,Reversal,2022.1.2,59.97210097869242,4,
6,exp1.png,exp2.png,,2,0,2,0,0,6,6,6,,,,,,,,,,,,,,,,,,,,,,,,,False,46,47,False,exp1.png,exp2.png,trial_left_image,1,exp1.png,4,exp2.png,exp1.png,0,2,non-reversed,incorrect,0.5869102343483803,0,valid_lose,426.9413733000001,14,,,,,,,,,,,,,,,,sub_072,2022-09-28_13h02.23.781,Reversal,2022.1.2,59.97210097869242,4,
7,exp3.png,exp4.png,,2,0,2,0,0,7,7,7,,,,,,,,,,,,,,,,,,,,,,,,,False,47,48,False,exp3.png,exp4.png,trial_left_image,1,exp3.png,4,exp4.png,exp3.png,0,4,reversed,incorrect,0.8378884656295225,0,valid_lose,431.4914246999997,14,,,,,,,,,,,,,,,,sub_072,2022-09-28_13h02.23.781,Reversal,2022.1.2,59.97210097869242,4,
8,exp1.png,exp2.png,,2,0,2,0,0,8,8,8,,,,,,,,,,,,,,,,,,,,,,,,,False,48,49,False,exp1.png,exp2.png,trial_right_image,-1,exp2.png,4,exp2.png,exp1.png,1,1,non-reversed,correct,0.272540217233722,1,valid_win,443.17458650000026,15,,,,,,,,,,,,,,,,sub_072,2022-09-28_13h02.23.781,Reversal,2022.1.2,59.97210097869242,4,
9,exp3.png,exp4.png,,2,0,2,0,0,9,9,9,,,,,,,,,,,,,,,,,,,,,,,,,False,49,50,True,exp4.png,exp3.png,trial_left_image,1,exp4.png,4,exp4.png,exp3.png,1,3,reversed,correct,0.7427263410335496,1,valid_win,450.14138300000013,16,,,,,,,,,,,,,,,,sub_072,2022-09-28_13h02.23.781,Reversal,2022.1.2,59.97210097869242,4,
10,exp1.png,exp2.png,,2,0,2,0,0,10,10,10,,,,,,,,,,,,,,,,,,,,,,,,,False,50,51,True,exp2.png,exp1.png,trial_right_image,-1,exp1.png,4,exp2.png,exp1.png,0,2,non-reversed,incorrect,0.9609013812681502,0,valid_lose,454.49097840000013,16,,,,,,,,,,,,,,,,sub_072,2022-09-28_13h02.23.781,Reversal,2022.1.2,59.97210097869242,4,
11,exp3.png,exp4.png,,2,0,2,0,0,11,11,11,,,,,,,,,,,,,,,,,,,,,,,,,False,51,52,True,exp4.png,exp3.png,trial_left_image,1,exp4.png,4,exp4.png,exp3.png,1,3,reversed,correct,0.8035441804851703,1,valid_win,460.4240270999999,17,,,,,,,,,,,,,,,,sub_072,2022-09-28_13h02.23.781,Reversal,2022.1.2,59.97210097869242,4,
12,exp1.png,exp2.png,,2,0,2,0,0,12,12,12,,,,,,,,,,,,,,,,,,,,,,,,,False,52,53,False,exp1.png,exp2.png,trial_left_image,1,exp1.png,4,exp2.png,exp1.png,0,2,non-reversed,incorrect,0.30193227478671336,0,valid_lose,466.22400259999995,17,,,,,,,,,,,,,,,,sub_072,2022-09-28_13h02.23.781,Reversal,2022.1.2,59.97210097869242,4,
13,exp3.png,exp4.png,,2,0,2,0,0,13,13,13,,,,,,,,,,,,,,,,,,,,,,,,,False,53,54,True,exp4.png,exp3.png,trial_left_image,1,exp4.png,4,exp4.png,exp3.png,1,3,reversed,correct,0.10112931172447892,0,invalid_lose,471.35719419999987,17,,,,,,,,,,,,,,,,sub_072,2022-09-28_13h02.23.781,Reversal,2022.1.2,59.97210097869242,4,
14,exp1.png,exp2.png,,2,0,2,0,0,14,14,14,,,,,,,,,,,,,,,,,,,,,,,,,False,54,55,True,exp2.png,exp1.png,trial_right_image,-1,exp1.png,4,exp2.png,exp1.png,0,2,non-reversed,incorrect,0.3685020552833521,0,valid_lose,480.0585778000004,17,,,,,,,,,,,,,,,,sub_072,2022-09-28_13h02.23.781,Reversal,2022.1.2,59.97210097869242,4,
15,exp3.png,exp4.png,,2,0,2,0,0,15,15,15,,,,,,,,,,,,,,,,,,,,,,,,,False,55,56,False,exp3.png,exp4.png,trial_left_image,1,exp3.png,4,exp4.png,exp3.png,0,4,reversed,incorrect,0.45581166298255116,0,valid_lose,487.6749491999999,17,,,,,,,,,,,,,,,,sub_072,2022-09-28_13h02.23.781,Reversal,2022.1.2,59.97210097869242,4,
16,exp1.png,exp2.png,,2,0,2,0,0,16,16,16,,,,,,,,,,,,,,,,,,,,,,,,,False,56,57,True,exp2.png,exp1.png,trial_left_image,1,exp2.png,4,exp2.png,exp1.png,1,1,non-reversed,correct,0.36139971671152116,1,valid_win,492.50699580000037,18,,,,,,,,,,,,,,,,sub_072,2022-09-28_13h02.23.781,Reversal,2022.1.2,59.97210097869242,4,
17,exp3.png,exp4.png,,2,0,2,0,0,17,17,17,,,,,,,,,,,,,,,,,,,,,,,,,False,57,58,False,exp3.png,exp4.png,trial_left_image,1,exp3.png,4,exp4.png,exp3.png,0,4,reversed,incorrect,0.849740951612697,0,valid_lose,498.7914314999998,18,,,,,,,,,,,,,,,,sub_072,2022-09-28_13h02.23.781,Reversal,2022.1.2,59.97210097869242,4,
18,exp1.png,exp2.png,,2,0,2,0,0,18,18,18,,,,,,,,,,,,,,,,,,,,,,,,,False,58,59,False,exp1.png,exp2.png,trial_right_image,-1,exp2.png,4,exp2.png,exp1.png,1,1,non-reversed,correct,0.8061194817021037,1,valid_win,509.42481769999995,19,,,,,,,,,,,,,,,,sub_072,2022-09-28_13h02.23.781,Reversal,2022.1.2,59.97210097869242,4,
19,exp3.png,exp4.png,,2,0,2,0,0,19,19,19,,,,,,,,,,,,,,,,,,,,,,,,,False,59,60,True,exp4.png,exp3.png,trial_right_image,-1,exp3.png,4,exp4.png,exp3.png,0,4,reversed,incorrect,0.7165607951522258,0,valid_lose,521.6242087,19,,,,,,,,,,,,,,,,sub_072,2022-09-28_13h02.23.781,Reversal,2022.1.2,59.97210097869242,4,
20,exp1.png,exp2.png,,2,0,2,0,0,20,20,20,,,,,,,,,,,,,,,,,,,,,,,,,True,,,,,,,,,,,,,,,,,,,,,,,,,,,,,,,,,,,,sub_072,2022-09-28_13h02.23.781,Reversal,2022.1.2,59.97210097869242,4,
,,,exp1.png,2,0,2,0,,,,,0,0,0,0,0,0,0,0,,,,,,,,,,,,,,,,,,,,,,,,,,,,,,,,,,,,,,82.0,82.0,4.867283500000667,"[(82.0, 4.867283500000667)]",595.6087842000006,None,,,,,,,,,,sub_072,2022-09-28_13h02.23.781,Reversal,2022.1.2,59.97210097869242,4,
,,,exp2.png,2,0,2,0,,,,,0,0,0,0,0,1,1,1,,,,,,,,,,,,,,,,,,,,,,,,,,,,,,,,,,,,,,,81.0,3.2029468000000634,"[(81.0, 3.2029468000000634)]",601.7151567000001,None,81.0,,,,,,,,,sub_072,2022-09-28_13h02.23.781,Reversal,2022.1.2,59.97210097869242,4,
,,,exp3.png,2,0,2,0,,,,,0,0,0,0,0,2,2,2,,,,,,,,,,,,,,,,,,,,,,,,,,,,,,,,,,,,,,,80.0,2.1517040999997334,"[(80.0, 2.1517040999997334)]",605.8440541,None,,,80.0,,,,,,,sub_072,2022-09-28_13h02.23.781,Reversal,2022.1.2,59.97210097869242,4,
,,,exp4.png,2,0,2,0,,,,,0,0,0,0,0,3,3,3,,,,,,,,,,,,,,,,,,,,,,,,,,,,,,,,,,,,,,,19.0,2.468399899999895,"[(19.0, 2.468399899999895)]",608.9267379000003,None,,19.0,,,,,,,,sub_072,2022-09-28_13h02.23.781,Reversal,2022.1.2,59.97210097869242,4,
0,exp1.png,exp2.png,,3,0,3,0,0,0,0,0,,,,,,,,,,,,,,,,,,,,,,,,,False,60,61,True,exp2.png,exp1.png,trial_right_image,-1,exp1.png,4,exp2.png,exp1.png,0,2,non-reversed,incorrect,0.44602105642006995,0,valid_lose,544.7227247999999,19,,,,,,,,,,,,,,,,sub_072,2022-09-28_13h02.23.781,Reversal,2022.1.2,59.97210097869242,4,
1,exp3.png,exp4.png,,3,0,3,0,0,1,1,1,,,,,,,,,,,,,,,,,,,,,,,,,False,61,62,True,exp4.png,exp3.png,trial_left_image,1,exp4.png,4,exp4.png,exp3.png,1,3,reversed,correct,0.0612355403856939,0,invalid_lose,552.3223410999999,19,,,,,,,,,,,,,,,,sub_072,2022-09-28_13h02.23.781,Reversal,2022.1.2,59.97210097869242,4,
2,exp1.png,exp2.png,,3,0,3,0,0,2,2,2,,,,,,,,,,,,,,,,,,,,,,,,,False,62,63,True,exp2.png,exp1.png,trial_right_image,-1,exp1.png,4,exp2.png,exp1.png,0,2,non-reversed,incorrect,0.30497303373797346,0,valid_lose,561.6234739000001,19,,,,,,,,,,,,,,,,sub_072,2022-09-28_13h02.23.781,Reversal,2022.1.2,59.97210097869242,4,
3,exp3.png,exp4.png,,3,0,3,0,0,3,3,3,,,,,,,,,,,,,,,,,,,,,,,,,False,63,64,True,exp4.png,exp3.png,trial_right_image,-1,exp3.png,4,exp4.png,exp3.png,0,4,reversed,incorrect,0.20404197213295783,1,invalid_win,566.7734917999996,20,,,,,,,,,,,,,,,,sub_072,2022-09-28_13h02.23.781,Reversal,2022.1.2,59.97210097869242,4,
4,exp1.png,exp2.png,,3,0,3,0,0,4,4,4,,,,,,,,,,,,,,,,,,,,,,,,,False,64,65,True,exp2.png,exp1.png,trial_left_image,1,exp2.png,4,exp2.png,exp1.png,1,1,non-reversed,correct,0.9998125382380716,1,valid_win,572.9055117999997,21,,,,,,,,,,,,,,,,sub_072,2022-09-28_13h02.23.781,Reversal,2022.1.2,59.97210097869242,4,
5,exp3.png,exp4.png,,3,0,3,0,0,5,5,5,,,,,,,,,,,,,,,,,,,,,,,,,False,65,66,True,exp4.png,exp3.png,trial_right_image,-1,exp3.png,4,exp4.png,exp3.png,0,4,reversed,incorrect,0.5765754047854686,0,valid_lose,588.5896235999999,21,,,,,,,,,,,,,,,,sub_072,2022-09-28_13h02.23.781,Reversal,2022.1.2,59.97210097869242,4,
6,exp1.png,exp2.png,,3,0,3,0,0,6,6,6,,,,,,,,,,,,,,,,,,,,,,,,,False,66,67,True,exp2.png,exp1.png,trial_right_image,-1,exp1.png,4,exp2.png,exp1.png,0,2,non-reversed,incorrect,0.7597577770131719,0,valid_lose,594.8715103000004,21,,,,,,,,,,,,,,,,sub_072,2022-09-28_13h02.23.781,Reversal,2022.1.2,59.97210097869242,4,
7,exp3.png,exp4.png,,3,0,3,0,0,7,7,7,,,,,,,,,,,,,,,,,,,,,,,,,False,67,68,False,exp3.png,exp4.png,trial_right_image,-1,exp4.png,4,exp4.png,exp3.png,1,3,reversed,correct,0.17772720577875456,0,invalid_lose,601.9548219999997,21,,,,,,,,,,,,,,,,sub_072,2022-09-28_13h02.23.781,Reversal,2022.1.2,59.97210097869242,4,
8,exp1.png,exp2.png,,3,0,3,0,0,8,8,8,,,,,,,,,,,,,,,,,,,,,,,,,False,68,69,False,exp1.png,exp2.png,trial_left_image,1,exp1.png,4,exp2.png,exp1.png,0,2,non-reversed,incorrect,0.28944995651200445,0,valid_lose,607.0551303000002,21,,,,,,,,,,,,,,,,sub_072,2022-09-28_13h02.23.781,Reversal,2022.1.2,59.97210097869242,4,
9,exp3.png,exp4.png,,3,0,3,0,0,9,9,9,,,,,,,,,,,,,,,,,,,,,,,,,False,69,70,False,exp3.png,exp4.png,trial_right_image,-1,exp4.png,4,exp4.png,exp3.png,1,3,reversed,correct,0.7840535092747115,1,valid_win,613.6546666000004,22,,,,,,,,,,,,,,,,sub_072,2022-09-28_13h02.23.781,Reversal,2022.1.2,59.97210097869242,4,
10,exp1.png,exp2.png,,3,0,3,0,0,10,10,10,,,,,,,,,,,,,,,,,,,,,,,,,False,70,71,True,exp2.png,exp1.png,trial_left_image,1,exp2.png,4,exp2.png,exp1.png,1,1,non-reversed,correct,0.4687093298525059,1,valid_win,624.2546161,23,,,,,,,,,,,,,,,,sub_072,2022-09-28_13h02.23.781,Reversal,2022.1.2,59.97210097869242,4,
11,exp3.png,exp4.png,,3,0,3,0,0,11,11,11,,,,,,,,,,,,,,,,,,,,,,,,,False,71,72,True,exp4.png,exp3.png,trial_right_image,-1,exp3.png,4,exp4.png,exp3.png,0,4,reversed,incorrect,0.5644216506220294,0,valid_lose,635.6552172000002,23,,,,,,,,,,,,,,,,sub_072,2022-09-28_13h02.23.781,Reversal,2022.1.2,59.97210097869242,4,
12,exp1.png,exp2.png,,3,0,3,0,0,12,12,12,,,,,,,,,,,,,,,,,,,,,,,,,False,72,73,False,exp1.png,exp2.png,trial_left_image,1,exp1.png,4,exp2.png,exp1.png,0,2,non-reversed,incorrect,0.38834677396091644,0,valid_lose,647.7370812999998,23,,,,,,,,,,,,,,,,sub_072,2022-09-28_13h02.23.781,Reversal,2022.1.2,59.97210097869242,4,
13,exp3.png,exp4.png,,3,0,3,0,0,13,13,13,,,,,,,,,,,,,,,,,,,,,,,,,False,73,74,True,exp4.png,exp3.png,trial_left_image,1,exp4.png,4,exp4.png,exp3.png,1,3,reversed,correct,0.36232667309413114,1,valid_win,656.1397208999997,24,,,,,,,,,,,,,,,,sub_072,2022-09-28_13h02.23.781,Reversal,2022.1.2,59.97210097869242,4,
14,exp1.png,exp2.png,,3,0,3,0,0,14,14,14,,,,,,,,,,,,,,,,,,,,,,,,,False,74,75,False,exp1.png,exp2.png,trial_right_image,-1,exp2.png,4,exp2.png,exp1.png,1,1,non-reversed,correct,0.6329370027809872,1,valid_win,664.7535997000004,25,,,,,,,,,,,,,,,,sub_072,2022-09-28_13h02.23.781,Reversal,2022.1.2,59.97210097869242,4,
15,exp3.png,exp4.png,,3,0,3,0,0,15,15,15,,,,,,,,,,,,,,,,,,,,,,,,,False,75,76,False,exp3.png,exp4.png,trial_left_image,1,exp3.png,4,exp4.png,exp3.png,0,4,reversed,incorrect,0.27147674248800835,0,valid_lose,669.8365925999997,25,,,,,,,,,,,,,,,,sub_072,2022-09-28_13h02.23.781,Reversal,2022.1.2,59.97210097869242,4,
16,exp1.png,exp2.png,,3,0,3,0,0,16,16,16,,,,,,,,,,,,,,,,,,,,,,,,,False,76,77,False,exp1.png,exp2.png,trial_right_image,-1,exp2.png,4,exp2.png,exp1.png,1,1,non-reversed,correct,0.08733682889597028,0,invalid_lose,675.6198985999999,25,,,,,,,,,,,,,,,,sub_072,2022-09-28_13h02.23.781,Reversal,2022.1.2,59.97210097869242,4,
17,exp3.png,exp4.png,,3,0,3,0,0,17,17,17,,,,,,,,,,,,,,,,,,,,,,,,,False,77,78,False,exp3.png,exp4.png,trial_right_image,-1,exp4.png,4,exp4.png,exp3.png,1,3,reversed,correct,0.24405853768089514,0,invalid_lose,682.9529749000003,25,,,,,,,,,,,,,,,,sub_072,2022-09-28_13h02.23.781,Reversal,2022.1.2,59.97210097869242,4,
18,exp1.png,exp2.png,,3,0,3,0,0,18,18,18,,,,,,,,,,,,,,,,,,,,,,,,,False,78,79,False,exp1.png,exp2.png,trial_left_image,1,exp1.png,4,exp2.png,exp1.png,0,2,non-reversed,incorrect,0.11551759592186839,1,invalid_win,688.8030994000001,26,,,,,,,,,,,,,,,,sub_072,2022-09-28_13h02.23.781,Reversal,2022.1.2,59.97210097869242,4,
19,exp3.png,exp4.png,,3,0,3,0,0,19,19,19,,,,,,,,,,,,,,,,,,,,,,,,,False,79,80,False,exp3.png,exp4.png,trial_right_image,-1,exp4.png,4,exp4.png,exp3.png,1,3,reversed,correct,0.8607041316039186,1,valid_win,700.4029720999997,27,,,,,,,,,,,,,,,,sub_072,2022-09-28_13h02.23.781,Reversal,2022.1.2,59.97210097869242,4,
20,exp1.png,exp2.png,,3,0,3,0,0,20,20,20,,,,,,,,,,,,,,,,,,,,,,,,,True,,,,,,,,,,,,,,,,,,,,,,,,,,,,,,,,,,,,sub_072,2022-09-28_13h02.23.781,Reversal,2022.1.2,59.97210097869242,4,
,,,exp1.png,3,0,3,0,,,,,0,0,0,0,0,0,0,0,,,,,,,,,,,,,,,,,,,,,,,,,,,,,,,,,,,,,,85.0,85.0,3.251730199999656,"[(85.0, 3.251730199999656)]",774.3327409000003,None,,,,,,,,,,sub_072,2022-09-28_13h02.23.781,Reversal,2022.1.2,59.97210097869242,4,
,,,exp2.png,3,0,3,0,,,,,0,0,0,0,0,1,1,1,,,,,,,,,,,,,,,,,,,,,,,,,,,,,,,,,,,,,,,22.0,2.819675799999459,"[(22.0, 2.819675799999459)]",778.5921412000007,None,22.0,,,,,,,,,sub_072,2022-09-28_13h02.23.781,Reversal,2022.1.2,59.97210097869242,4,
,,,exp3.png,3,0,3,0,,,,,0,0,0,0,0,2,2,2,,,,,,,,,,,,,,,,,,,,,,,,,,,,,,,,,,,,,,,84.0,2.334535599999981,"[(84.0, 2.334535599999981)]",782.5594971,None,,,84.0,,,,,,,sub_072,2022-09-28_13h02.23.781,Reversal,2022.1.2,59.97210097869242,4,
,,,exp4.png,3,0,3,0,,,,,0,0,0,0,0,3,3,3,,,,,,,,,,,,,,,,,,,,,,,,,,,,,,,,,,,,,,,19.0,1.801385400000072,"[(19.0, 1.801385400000072)]",785.9414290000004,None,,19.0,,,,,,,,sub_072,2022-09-28_13h02.23.781,Reversal,2022.1.2,59.97210097869242,4,
0,exp1.png,exp2.png,,,,,,,,,,,,,,,,,,0,0,0,0,0,0,0,0,,,,,,,,,False,0,81,True,exp2.png,exp1.png,trial_right_image,-1,exp1.png,4,exp2.png,exp1.png,0,2,non-reversed,incorrect,0.5380603780471384,0,valid_lose,720.8358958999997,27,,,,,,,,,,717.4604095000004,,,,,,sub_072,2022-09-28_13h02.23.781,Reversal,2022.1.2,59.97210097869242,4,
1,exp3.png,exp4.png,,,,,,,,,,,,,,,,,,0,0,0,0,0,1,1,1,,,,,,,,,False,1,82,True,exp4.png,exp3.png,trial_left_image,1,exp4.png,4,exp3.png,exp4.png,1,3,reversed,incorrect,0.8239496584411707,0,valid_lose,726.2526905000004,27,,,,,,,,,,,,,,,,sub_072,2022-09-28_13h02.23.781,Reversal,2022.1.2,59.97210097869242,4,
2,exp1.png,exp2.png,,,,,,,,,,,,,,,,,,0,0,0,0,0,2,2,2,,,,,,,,,False,2,83,False,exp1.png,exp2.png,trial_left_image,1,exp1.png,4,exp2.png,exp1.png,0,2,non-reversed,incorrect,0.27763342059683893,0,valid_lose,734.7688123999997,27,,,,,,,,,,,,,,,,sub_072,2022-09-28_13h02.23.781,Reversal,2022.1.2,59.97210097869242,4,
3,exp3.png,exp4.png,,,,,,,,,,,,,,,,,,0,0,0,0,0,3,3,3,,,,,,,,,False,3,84,False,exp3.png,exp4.png,trial_left_image,1,exp3.png,4,exp3.png,exp4.png,0,4,reversed,correct,0.5367168798077733,1,valid_win,740.8021472,28,,,,,,,,,,,,,,,,sub_072,2022-09-28_13h02.23.781,Reversal,2022.1.2,59.97210097869242,4,
4,exp1.png,exp2.png,,,,,,,,,,,,,,,,,,0,0,0,0,0,4,4,4,,,,,,,,,False,4,85,True,exp2.png,exp1.png,trial_right_image,-1,exp1.png,4,exp2.png,exp1.png,0,2,non-reversed,incorrect,0.6145288126603964,0,valid_lose,763.0030543000003,28,,,,,,,,,,,,,,,,sub_072,2022-09-28_13h02.23.781,Reversal,2022.1.2,59.97210097869242,4,
5,exp3.png,exp4.png,,,,,,,,,,,,,,,,,,0,0,0,0,0,5,5,5,,,,,,,,,False,5,86,False,exp3.png,exp4.png,trial_right_image,-1,exp4.png,4,exp3.png,exp4.png,1,3,reversed,incorrect,0.8791841744202774,0,valid_lose,772.0181482999997,28,,,,,,,,,,,,,,,,sub_072,2022-09-28_13h02.23.781,Reversal,2022.1.2,59.97210097869242,4,
6,exp1.png,exp2.png,,,,,,,,,,,,,,,,,,0,0,0,0,0,6,6,6,,,,,,,,,False,6,87,True,exp2.png,exp1.png,trial_left_image,1,exp2.png,4,exp2.png,exp1.png,1,1,non-reversed,correct,0.34777171701463117,1,valid_win,777.4681759000005,29,,,,,,,,,,,,,,,,sub_072,2022-09-28_13h02.23.781,Reversal,2022.1.2,59.97210097869242,4,
7,exp3.png,exp4.png,,,,,,,,,,,,,,,,,,0,0,0,0,0,7,7,7,,,,,,,,,False,7,88,False,exp3.png,exp4.png,trial_left_image,1,exp3.png,4,exp3.png,exp4.png,0,4,reversed,correct,0.0363795033799188,0,invalid_lose,783.7679244999999,29,,,,,,,,,,,,,,,,sub_072,2022-09-28_13h02.23.781,Reversal,2022.1.2,59.97210097869242,4,
8,exp1.png,exp2.png,,,,,,,,,,,,,,,,,,0,0,0,0,0,8,8,8,,,,,,,,,False,8,89,False,exp1.png,exp2.png,trial_right_image,-1,exp2.png,4,exp2.png,exp1.png,1,1,non-reversed,correct,0.8545227058484983,1,valid_win,789.6514182000001,30,,,,,,,,,,,,,,,,sub_072,2022-09-28_13h02.23.781,Reversal,2022.1.2,59.97210097869242,4,
9,exp3.png,exp4.png,,,,,,,,,,,,,,,,,,0,0,0,0,0,9,9,9,,,,,,,,,False,9,90,False,exp3.png,exp4.png,trial_right_image,-1,exp4.png,4,exp3.png,exp4.png,1,3,reversed,incorrect,0.5871514121355726,0,valid_lose,794.4514036999999,30,,,,,,,,,,,,,,,,sub_072,2022-09-28_13h02.23.781,Reversal,2022.1.2,59.97210097869242,4,
10,exp1.png,exp2.png,,,,,,,,,,,,,,,,,,0,0,0,0,0,10,10,10,,,,,,,,,False,10,91,True,exp2.png,exp1.png,trial_left_image,1,exp2.png,4,exp2.png,exp1.png,1,1,non-reversed,correct,0.00015612548709853513,0,invalid_lose,800.8011039000003,30,,,,,,,,,,,,,,,,sub_072,2022-09-28_13h02.23.781,Reversal,2022.1.2,59.97210097869242,4,
11,exp3.png,exp4.png,,,,,,,,,,,,,,,,,,0,0,0,0,0,11,11,11,,,,,,,,,False,11,92,True,exp4.png,exp3.png,trial_left_image,1,exp4.png,4,exp3.png,exp4.png,1,3,reversed,incorrect,0.895848866116251,0,valid_lose,807.0342517999998,30,,,,,,,,,,,,,,,,sub_072,2022-09-28_13h02.23.781,Reversal,2022.1.2,59.97210097869242,4,
12,exp1.png,exp2.png,,,,,,,,,,,,,,,,,,0,0,0,0,0,12,12,12,,,,,,,,,False,12,93,True,exp2.png,exp1.png,trial_right_image,-1,exp1.png,4,exp2.png,exp1.png,0,2,non-reversed,incorrect,0.8163035706814352,0,valid_lose,813.7510478000004,30,,,,,,,,,,,,,,,,sub_072,2022-09-28_13h02.23.781,Reversal,2022.1.2,59.97210097869242,4,
13,exp3.png,exp4.png,,,,,,,,,,,,,,,,,,0,0,0,0,0,13,13,13,,,,,,,,,False,13,94,False,exp3.png,exp4.png,trial_right_image,-1,exp4.png,4,exp3.png,exp4.png,1,3,reversed,incorrect,0.7239854330757987,0,valid_lose,820.6850351000003,30,,,,,,,,,,,,,,,,sub_072,2022-09-28_13h02.23.781,Reversal,2022.1.2,59.97210097869242,4,
14,exp1.png,exp2.png,,,,,,,,,,,,,,,,,,0,0,0,0,0,14,14,14,,,,,,,,,False,14,95,True,exp2.png,exp1.png,trial_right_image,-1,exp1.png,4,exp2.png,exp1.png,0,2,non-reversed,incorrect,0.6635979709978254,0,valid_lose,826.8851444000002,30,,,,,,,,,,,,,,,,sub_072,2022-09-28_13h02.23.781,Reversal,2022.1.2,59.97210097869242,4,
15,exp3.png,exp4.png,,,,,,,,,,,,,,,,,,0,0,0,0,0,15,15,15,,,,,,,,,False,15,96,False,exp3.png,exp4.png,trial_left_image,1,exp3.png,4,exp3.png,exp4.png,0,4,reversed,correct,0.4424152210090071,1,valid_win,834.8348365000002,31,,,,,,,,,,,,,,,,sub_072,2022-09-28_13h02.23.781,Reversal,2022.1.2,59.97210097869242,4,
16,exp1.png,exp2.png,,,,,,,,,,,,,,,,,,0,0,0,0,0,16,16,16,,,,,,,,,False,16,97,False,exp1.png,exp2.png,trial_right_image,-1,exp2.png,4,exp2.png,exp1.png,1,1,non-reversed,correct,0.5369053202714302,1,valid_win,840.7669994999997,32,,,,,,,,,,,,,,,,sub_072,2022-09-28_13h02.23.781,Reversal,2022.1.2,59.97210097869242,4,
17,exp3.png,exp4.png,,,,,,,,,,,,,,,,,,0,0,0,0,0,17,17,17,,,,,,,,,False,17,98,True,exp4.png,exp3.png,trial_left_image,1,exp4.png,4,exp3.png,exp4.png,1,3,reversed,incorrect,0.528655890683794,0,valid_lose,845.8168394000004,32,,,,,,,,,,,,,,,,sub_072,2022-09-28_13h02.23.781,Reversal,2022.1.2,59.97210097869242,4,
18,exp1.png,exp2.png,,,,,,,,,,,,,,,,,,0,0,0,0,0,18,18,18,,,,,,,,,False,18,99,True,exp2.png,exp1.png,trial_left_image,1,exp2.png,4,exp2.png,exp1.png,1,1,non-reversed,correct,0.6759879929236612,1,valid_win,851.3667559000005,33,,,,,,,,,,,,,,,,sub_072,2022-09-28_13h02.23.781,Reversal,2022.1.2,59.97210097869242,4,
19,exp3.png,exp4.png,,,,,,,,,,,,,,,,,,0,0,0,0,0,19,19,19,,,,,,,,,False,19,100,False,exp3.png,exp4.png,trial_right_image,-1,exp4.png,4,exp3.png,exp4.png,1,3,reversed,incorrect,0.946732252846044,0,valid_lose,856.0666793,33,,,,,,,,,,,,,,,,sub_072,2022-09-28_13h02.23.781,Reversal,2022.1.2,59.97210097869242,4,
20,exp1.png,exp2.png,,,,,,,,,,,,,,,,,,0,0,0,0,0,20,20,20,,,,,,,,,True,,,,,,,,,,,,,,,,,,,,,,,,,,,,,,,,,,,,sub_072,2022-09-28_13h02.23.781,Reversal,2022.1.2,59.97210097869242,4,
,,,exp1.png,,,,,,,,,,,,,,,,,0,0,0,0,,,,,0,0,0,0,0,0,0,0,,,,,,,,,,,,,,,,,,,,,,,50.0,None,[],929.9849100000001,None,,,,,,,,,,sub_072,2022-09-28_13h02.23.781,Reversal,2022.1.2,59.97210097869242,4,
,,,exp2.png,,,,,,,,,,,,,,,,,0,0,0,0,,,,,0,0,0,0,0,1,1,1,,,,,,,,,,,,,,,,,,,,,,,50.0,None,[],936.9872951000007,None,,,,,,,,,,sub_072,2022-09-28_13h02.23.781,Reversal,2022.1.2,59.97210097869242,4,
,,,exp3.png,,,,,,,,,,,,,,,,,0,0,0,0,,,,,0,0,0,0,0,2,2,2,,,,,,,,,,,,,,,,,,,,,,,50.0,None,[],938.6208568000002,None,,,,,,,,,,sub_072,2022-09-28_13h02.23.781,Reversal,2022.1.2,59.97210097869242,4,
,,,exp4.png,,,,,,,,,,,,,,,,,0,0,0,0,,,,,0,0,0,0,0,3,3,3,,,,,,,,,,,,,,,,,,,,,,,50.0,None,[],940.2399254000002,None,,,,,,,,,,sub_072,2022-09-28_13h02.23.781,Reversal,2022.1.2,59.97210097869242,4,
0,exp1.png,exp2.png,,,,,,,,,,,,,,,,,,1,0,1,0,0,0,0,0,,,,,,,,,False,20,101,True,exp2.png,exp1.png,trial_left_image,1,exp2.png,4,exp2.png,exp1.png,1,1,non-reversed,correct,0.14601577543222433,0,invalid_lose,876.5495576000003,33,,,,,,,,,,,,,,,,sub_072,2022-09-28_13h02.23.781,Reversal,2022.1.2,59.97210097869242,4,
1,exp3.png,exp4.png,,,,,,,,,,,,,,,,,,1,0,1,0,0,1,1,1,,,,,,,,,False,21,102,False,exp3.png,exp4.png,trial_left_image,1,exp3.png,4,exp3.png,exp4.png,0,4,reversed,correct,0.03921818944332034,0,invalid_lose,882.2343305000004,33,,,,,,,,,,,,,,,,sub_072,2022-09-28_13h02.23.781,Reversal,2022.1.2,59.97210097869242,4,
2,exp1.png,exp2.png,,,,,,,,,,,,,,,,,,1,0,1,0,0,2,2,2,,,,,,,,,False,22,103,True,exp2.png,exp1.png,trial_right_image,-1,exp1.png,4,exp2.png,exp1.png,0,2,non-reversed,incorrect,0.6292192342707041,0,valid_lose,887.7173837,33,,,,,,,,,,,,,,,,sub_072,2022-09-28_13h02.23.781,Reversal,2022.1.2,59.97210097869242,4,
3,exp3.png,exp4.png,,,,,,,,,,,,,,,,,,1,0,1,0,0,3,3,3,,,,,,,,,False,23,104,False,exp3.png,exp4.png,trial_right_image,-1,exp4.png,4,exp3.png,exp4.png,1,3,reversed,incorrect,0.4063373344580645,0,valid_lose,893.2174479000005,33,,,,,,,,,,,,,,,,sub_072,2022-09-28_13h02.23.781,Reversal,2022.1.2,59.97210097869242,4,
4,exp1.png,exp2.png,,,,,,,,,,,,,,,,,,1,0,1,0,0,4,4,4,,,,,,,,,False,24,105,True,exp2.png,exp1.png,trial_left_image,1,exp2.png,4,exp2.png,exp1.png,1,1,non-reversed,correct,0.7299557278168224,1,valid_win,900.9671501000003,34,,,,,,,,,,,,,,,,sub_072,2022-09-28_13h02.23.781,Reversal,2022.1.2,59.97210097869242,4,
5,exp3.png,exp4.png,,,,,,,,,,,,,,,,,,1,0,1,0,0,5,5,5,,,,,,,,,False,25,106,False,exp3.png,exp4.png,trial_right_image,-1,exp4.png,4,exp3.png,exp4.png,1,3,reversed,incorrect,0.4581038885868748,0,valid_lose,908.3169502999999,34,,,,,,,,,,,,,,,,sub_072,2022-09-28_13h02.23.781,Reversal,2022.1.2,59.97210097869242,4,
6,exp1.png,exp2.png,,,,,,,,,,,,,,,,,,1,0,1,0,0,6,6,6,,,,,,,,,False,26,107,True,exp2.png,exp1.png,trial_left_image,1,exp2.png,4,exp2.png,exp1.png,1,1,non-reversed,correct,0.5628827806129918,1,valid_win,918.1998565000004,35,,,,,,,,,,,,,,,,sub_072,2022-09-28_13h02.23.781,Reversal,2022.1.2,59.97210097869242,4,
7,exp3.png,exp4.png,,,,,,,,,,,,,,,,,,1,0,1,0,0,7,7,7,,,,,,,,,False,27,108,False,exp3.png,exp4.png,trial_left_image,1,exp3.png,4,exp3.png,exp4.png,0,4,reversed,correct,0.3655877158209955,1,valid_win,927.6320111000005,36,,,,,,,,,,,,,,,,sub_072,2022-09-28_13h02.23.781,Reversal,2022.1.2,59.97210097869242,4,
8,exp1.png,exp2.png,,,,,,,,,,,,,,,,,,1,0,1,0,0,8,8,8,,,,,,,,,False,28,109,True,exp2.png,exp1.png,trial_right_image,-1,exp1.png,4,exp2.png,exp1.png,0,2,non-reversed,incorrect,0.9992872103596488,0,valid_lose,933.8493589,36,,,,,,,,,,,,,,,,sub_072,2022-09-28_13h02.23.781,Reversal,2022.1.2,59.97210097869242,4,
9,exp3.png,exp4.png,,,,,,,,,,,,,,,,,,1,0,1,0,0,9,9,9,,,,,,,,,False,29,110,True,exp4.png,exp3.png,trial_left_image,1,exp4.png,4,exp3.png,exp4.png,1,3,reversed,incorrect,0.9964009615419246,0,valid_lose,939.3495099000002,36,,,,,,,,,,,,,,,,sub_072,2022-09-28_13h02.23.781,Reversal,2022.1.2,59.97210097869242,4,
10,exp1.png,exp2.png,,,,,,,,,,,,,,,,,,1,0,1,0,0,10,10,10,,,,,,,,,False,30,111,True,exp2.png,exp1.png,trial_right_image,-1,exp1.png,4,exp2.png,exp1.png,0,2,non-reversed,incorrect,0.013349767392519918,1,invalid_win,948.4983675000003,37,,,,,,,,,,,,,,,,sub_072,2022-09-28_13h02.23.781,Reversal,2022.1.2,59.97210097869242,4,
11,exp3.png,exp4.png,,,,,,,,,,,,,,,,,,1,0,1,0,0,11,11,11,,,,,,,,,False,31,112,False,exp3.png,exp4.png,trial_right_image,-1,exp4.png,4,exp3.png,exp4.png,1,3,reversed,incorrect,0.5399593645597957,0,valid_lose,956.9813426000001,37,,,,,,,,,,,,,,,,sub_072,2022-09-28_13h02.23.781,Reversal,2022.1.2,59.97210097869242,4,
12,exp1.png,exp2.png,,,,,,,,,,,,,,,,,,1,0,1,0,0,12,12,12,,,,,,,,,False,32,113,False,exp1.png,exp2.png,trial_right_image,-1,exp2.png,4,exp2.png,exp1.png,1,1,non-reversed,correct,0.941202931199885,1,valid_win,962.5980003000004,38,,,,,,,,,,,,,,,,sub_072,2022-09-28_13h02.23.781,Reversal,2022.1.2,59.97210097869242,4,
13,exp3.png,exp4.png,,,,,,,,,,,,,,,,,,1,0,1,0,0,13,13,13,,,,,,,,,False,33,114,False,exp3.png,exp4.png,trial_right_image,-1,exp4.png,4,exp3.png,exp4.png,1,3,reversed,incorrect,0.2181954199354288,1,invalid_win,969.8811742999997,39,,,,,,,,,,,,,,,,sub_072,2022-09-28_13h02.23.781,Reversal,2022.1.2,59.97210097869242,4,
14,exp1.png,exp2.png,,,,,,,,,,,,,,,,,,1,0,1,0,0,14,14,14,,,,,,,,,False,34,115,False,exp1.png,exp2.png,trial_right_image,-1,exp2.png,4,exp2.png,exp1.png,1,1,non-reversed,correct,0.43979871463853704,1,valid_win,974.6311548000003,40,,,,,,,,,,,,,,,,sub_072,2022-09-28_13h02.23.781,Reversal,2022.1.2,59.97210097869242,4,
15,exp3.png,exp4.png,,,,,,,,,,,,,,,,,,1,0,1,0,0,15,15,15,,,,,,,,,False,35,116,True,exp4.png,exp3.png,trial_left_image,1,exp4.png,4,exp3.png,exp4.png,1,3,reversed,incorrect,0.4143594169426924,0,valid_lose,979.2976765000003,40,,,,,,,,,,,,,,,,sub_072,2022-09-28_13h02.23.781,Reversal,2022.1.2,59.97210097869242,4,
16,exp1.png,exp2.png,,,,,,,,,,,,,,,,,,1,0,1,0,0,16,16,16,,,,,,,,,False,36,117,True,exp2.png,exp1.png,trial_left_image,1,exp2.png,4,exp2.png,exp1.png,1,1,non-reversed,correct,0.7078424007044897,1,valid_win,985.6472475,41,,,,,,,,,,,,,,,,sub_072,2022-09-28_13h02.23.781,Reversal,2022.1.2,59.97210097869242,4,
17,exp3.png,exp4.png,,,,,,,,,,,,,,,,,,1,0,1,0,0,17,17,17,,,,,,,,,False,37,118,True,exp4.png,exp3.png,trial_left_image,1,exp4.png,4,exp3.png,exp4.png,1,3,reversed,incorrect,0.5490015394945355,0,valid_lose,992.8810136000002,41,,,,,,,,,,,,,,,,sub_072,2022-09-28_13h02.23.781,Reversal,2022.1.2,59.97210097869242,4,
18,exp1.png,exp2.png,,,,,,,,,,,,,,,,,,1,0,1,0,0,18,18,18,,,,,,,,,False,38,119,False,exp1.png,exp2.png,trial_right_image,-1,exp2.png,4,exp2.png,exp1.png,1,1,non-reversed,correct,0.8603380345428242,1,valid_win,997.9306555000003,42,,,,,,,,,,,,,,,,sub_072,2022-09-28_13h02.23.781,Reversal,2022.1.2,59.97210097869242,4,
19,exp3.png,exp4.png,,,,,,,,,,,,,,,,,,1,0,1,0,0,19,19,19,,,,,,,,,False,39,120,False,exp3.png,exp4.png,trial_right_image,-1,exp4.png,4,exp3.png,exp4.png,1,3,reversed,incorrect,0.10225161644888647,1,invalid_win,1004.3970460999999,43,,,,,,,,,,,,,,,,sub_072,2022-09-28_13h02.23.781,Reversal,2022.1.2,59.97210097869242,4,
20,exp1.png,exp2.png,,,,,,,,,,,,,,,,,,1,0,1,0,0,20,20,20,,,,,,,,,True,,,,,,,,,,,,,,,,,,,,,,,,,,,,,,,,,,,,sub_072,2022-09-28_13h02.23.781,Reversal,2022.1.2,59.97210097869242,4,
,,,exp1.png,,,,,,,,,,,,,,,,,1,0,1,0,,,,,0,0,0,0,0,0,0,0,,,,,,,,,,,,,,,,,,,,,,,50.0,None,[],1078.2971586000003,None,,,,,,,,,,sub_072,2022-09-28_13h02.23.781,Reversal,2022.1.2,59.97210097869242,4,
,,,exp2.png,,,,,,,,,,,,,,,,,1,0,1,0,,,,,0,0,0,0,0,1,1,1,,,,,,,,,,,,,,,,,,,,,,,90.0,1.7144851000002745,"[(90.0, 1.7144851000002745)]",1081.7214330000006,None,90.0,,,,,,,,,sub_072,2022-09-28_13h02.23.781,Reversal,2022.1.2,59.97210097869242,4,
,,,exp3.png,,,,,,,,,,,,,,,,,1,0,1,0,,,,,0,0,0,0,0,2,2,2,,,,,,,,,,,,,,,,,,,,,,,50.0,None,[],1084.5845695000007,None,,,,,,,,,,sub_072,2022-09-28_13h02.23.781,Reversal,2022.1.2,59.97210097869242,4,
,,,exp4.png,,,,,,,,,,,,,,,,,1,0,1,0,,,,,0,0,0,0,0,3,3,3,,,,,,,,,,,,,,,,,,,,,,,88.0,1.6514308000005258,"[(88.0, 1.6514308000005258)]",1086.9347413000005,None,,88.0,,,,,,,,sub_072,2022-09-28_13h02.23.781,Reversal,2022.1.2,59.97210097869242,4,
0,exp1.png,exp2.png,,,,,,,,,,,,,,,,,,2,0,2,0,0,0,0,0,,,,,,,,,False,40,121,False,exp1.png,exp2.png,trial_right_image,-1,exp2.png,4,exp2.png,exp1.png,1,1,non-reversed,correct,0.8340813473099521,1,valid_win,1021.4466712000003,44,,,,,,,,,,,,,,,,sub_072,2022-09-28_13h02.23.781,Reversal,2022.1.2,59.97210097869242,4,
1,exp3.png,exp4.png,,,,,,,,,,,,,,,,,,2,0,2,0,0,1,1,1,,,,,,,,,False,41,122,True,exp4.png,exp3.png,trial_right_image,-1,exp3.png,4,exp3.png,exp4.png,0,4,reversed,correct,0.48424161351824957,1,valid_win,1029.1131932999997,45,,,,,,,,,,,,,,,,sub_072,2022-09-28_13h02.23.781,Reversal,2022.1.2,59.97210097869242,4,
2,exp1.png,exp2.png,,,,,,,,,,,,,,,,,,2,0,2,0,0,2,2,2,,,,,,,,,False,42,123,True,exp2.png,exp1.png,trial_left_image,1,exp2.png,4,exp2.png,exp1.png,1,1,non-reversed,correct,0.8555511295709547,1,valid_win,1035.3136833999997,46,,,,,,,,,,,,,,,,sub_072,2022-09-28_13h02.23.781,Reversal,2022.1.2,59.97210097869242,4,
3,exp3.png,exp4.png,,,,,,,,,,,,,,,,,,2,0,2,0,0,3,3,3,,,,,,,,,False,43,124,False,exp3.png,exp4.png,trial_right_image,-1,exp4.png,4,exp3.png,exp4.png,1,3,reversed,incorrect,0.49781759859207375,0,valid_lose,1044.2133696,46,,,,,,,,,,,,,,,,sub_072,2022-09-28_13h02.23.781,Reversal,2022.1.2,59.97210097869242,4,
4,exp1.png,exp2.png,,,,,,,,,,,,,,,,,,2,0,2,0,0,4,4,4,,,,,,,,,False,44,125,True,exp2.png,exp1.png,trial_left_image,1,exp2.png,4,exp2.png,exp1.png,1,1,non-reversed,correct,0.6685428755940216,1,valid_win,1051.6796449000003,47,,,,,,,,,,,,,,,,sub_072,2022-09-28_13h02.23.781,Reversal,2022.1.2,59.97210097869242,4,
5,exp3.png,exp4.png,,,,,,,,,,,,,,,,,,2,0,2,0,0,5,5,5,,,,,,,,,False,45,126,True,exp4.png,exp3.png,trial_right_image,-1,exp3.png,4,exp3.png,exp4.png,0,4,reversed,correct,0.6197025644638621,1,valid_win,1058.3308451000003,48,,,,,,,,,,,,,,,,sub_072,2022-09-28_13h02.23.781,Reversal,2022.1.2,59.97210097869242,4,
6,exp1.png,exp2.png,,,,,,,,,,,,,,,,,,2,0,2,0,0,6,6,6,,,,,,,,,False,46,127,True,exp2.png,exp1.png,trial_left_image,1,exp2.png,4,exp2.png,exp1.png,1,1,non-reversed,correct,0.24937708895428423,0,invalid_lose,1063.9625598000002,48,,,,,,,,,,,,,,,,sub_072,2022-09-28_13h02.23.781,Reversal,2022.1.2,59.97210097869242,4,
7,exp3.png,exp4.png,,,,,,,,,,,,,,,,,,2,0,2,0,0,7,7,7,,,,,,,,,False,47,128,True,exp4.png,exp3.png,trial_left_image,1,exp4.png,4,exp3.png,exp4.png,1,3,reversed,incorrect,0.3063367865255714,0,valid_lose,1072.2971933,48,,,,,,,,,,,,,,,,sub_072,2022-09-28_13h02.23.781,Reversal,2022.1.2,59.97210097869242,4,
8,exp1.png,exp2.png,,,,,,,,,,,,,,,,,,2,0,2,0,0,8,8,8,,,,,,,,,False,48,129,False,exp1.png,exp2.png,trial_right_image,-1,exp2.png,4,exp2.png,exp1.png,1,1,non-reversed,correct,0.45260535215217457,1,valid_win,1077.4302617000003,49,,,,,,,,,,,,,,,,sub_072,2022-09-28_13h02.23.781,Reversal,2022.1.2,59.97210097869242,4,
9,exp3.png,exp4.png,,,,,,,,,,,,,,,,,,2,0,2,0,0,9,9,9,,,,,,,,,False,49,130,False,exp3.png,exp4.png,trial_right_image,-1,exp4.png,4,exp3.png,exp4.png,1,3,reversed,incorrect,0.37562594357491186,0,valid_lose,1082.4790319000003,49,,,,,,,,,,,,,,,,sub_072,2022-09-28_13h02.23.781,Reversal,2022.1.2,59.97210097869242,4,
10,exp1.png,exp2.png,,,,,,,,,,,,,,,,,,2,0,2,0,0,10,10,10,,,,,,,,,False,50,131,True,exp2.png,exp1.png,trial_left_image,1,exp2.png,4,exp2.png,exp1.png,1,1,non-reversed,correct,0.7880435570558444,1,valid_win,1088.595633,50,,,,,,,,,,,,,,,,sub_072,2022-09-28_13h02.23.781,Reversal,2022.1.2,59.97210097869242,4,
11,exp3.png,exp4.png,,,,,,,,,,,,,,,,,,2,0,2,0,0,11,11,11,,,,,,,,,False,51,132,False,exp3.png,exp4.png,trial_right_image,-1,exp4.png,4,exp3.png,exp4.png,1,3,reversed,incorrect,0.11159396415867973,1,invalid_win,1094.3788445999999,51,,,,,,,,,,,,,,,,sub_072,2022-09-28_13h02.23.781,Reversal,2022.1.2,59.97210097869242,4,
12,exp1.png,exp2.png,,,,,,,,,,,,,,,,,,2,0,2,0,0,12,12,12,,,,,,,,,False,52,133,True,exp2.png,exp1.png,trial_right_image,-1,exp1.png,4,exp2.png,exp1.png,0,2,non-reversed,incorrect,0.5326428839181275,0,valid_lose,1103.9620608000005,51,,,,,,,,,,,,,,,,sub_072,2022-09-28_13h02.23.781,Reversal,2022.1.2,59.97210097869242,4,
13,exp3.png,exp4.png,,,,,,,,,,,,,,,,,,2,0,2,0,0,13,13,13,,,,,,,,,False,53,134,True,exp4.png,exp3.png,trial_right_image,-1,exp3.png,4,exp3.png,exp4.png,0,4,reversed,correct,0.043612424043880105,0,invalid_lose,1109.9452775999998,51,,,,,,,,,,,,,,,,sub_072,2022-09-28_13h02.23.781,Reversal,2022.1.2,59.97210097869242,4,
14,exp1.png,exp2.png,,,,,,,,,,,,,,,,,,2,0,2,0,0,14,14,14,,,,,,,,,False,54,135,False,exp1.png,exp2.png,trial_right_image,-1,exp2.png,4,exp2.png,exp1.png,1,1,non-reversed,correct,0.7840744801793809,1,valid_win,1114.6950441999998,52,,,,,,,,,,,,,,,,sub_072,2022-09-28_13h02.23.781,Reversal,2022.1.2,59.97210097869242,4,
15,exp3.png,exp4.png,,,,,,,,,,,,,,,,,,2,0,2,0,0,15,15,15,,,,,,,,,False,55,136,False,exp3.png,exp4.png,trial_right_image,-1,exp4.png,4,exp3.png,exp4.png,1,3,reversed,incorrect,0.5401163660666425,0,valid_lose,1120.7952188,52,,,,,,,,,,,,,,,,sub_072,2022-09-28_13h02.23.781,Reversal,2022.1.2,59.97210097869242,4,
16,exp1.png,exp2.png,,,,,,,,,,,,,,,,,,2,0,2,0,0,16,16,16,,,,,,,,,False,56,137,False,exp1.png,exp2.png,trial_right_image,-1,exp2.png,4,exp2.png,exp1.png,1,1,non-reversed,correct,0.7717976294554922,1,valid_win,1125.7781387000005,53,,,,,,,,,,,,,,,,sub_072,2022-09-28_13h02.23.781,Reversal,2022.1.2,59.97210097869242,4,
17,exp3.png,exp4.png,,,,,,,,,,,,,,,,,,2,0,2,0,0,17,17,17,,,,,,,,,False,57,138,True,exp4.png,exp3.png,trial_right_image,-1,exp3.png,4,exp3.png,exp4.png,0,4,reversed,correct,0.28661774802475826,1,valid_win,1130.8615050999997,54,,,,,,,,,,,,,,,,sub_072,2022-09-28_13h02.23.781,Reversal,2022.1.2,59.97210097869242,4,
18,exp1.png,exp2.png,,,,,,,,,,,,,,,,,,2,0,2,0,0,18,18,18,,,,,,,,,False,58,139,False,exp1.png,exp2.png,trial_right_image,-1,exp2.png,4,exp2.png,exp1.png,1,1,non-reversed,correct,0.25682510288515936,1,valid_win,1135.7446529999997,55,,,,,,,,,,,,,,,,sub_072,2022-09-28_13h02.23.781,Reversal,2022.1.2,59.97210097869242,4,
19,exp3.png,exp4.png,,,,,,,,,,,,,,,,,,2,0,2,0,0,19,19,19,,,,,,,,,False,59,140,False,exp3.png,exp4.png,trial_right_image,-1,exp4.png,4,exp3.png,exp4.png,1,3,reversed,incorrect,0.753243872150235,0,valid_lose,1144.4788872,55,,,,,,,,,,,,,,,,sub_072,2022-09-28_13h02.23.781,Reversal,2022.1.2,59.97210097869242,4,
20,exp1.png,exp2.png,,,,,,,,,,,,,,,,,,2,0,2,0,0,20,20,20,,,,,,,,,True,,,,,,,,,,,,,,,,,,,,,,,,,,,,,,,,,,,,sub_072,2022-09-28_13h02.23.781,Reversal,2022.1.2,59.97210097869242,4,
,,,exp1.png,,,,,,,,,,,,,,,,,2,0,2,0,,,,,0,0,0,0,0,0,0,0,,,,,,,,,,,,,,,,,,,,,,,50.0,None,[],1218.4546371000006,None,,,,,,,,,,sub_072,2022-09-28_13h02.23.781,Reversal,2022.1.2,59.97210097869242,4,
,,,exp2.png,,,,,,,,,,,,,,,,,2,0,2,0,,,,,0,0,0,0,0,1,1,1,,,,,,,,,,,,,,,,,,,,,,,95.0,1.951462499999252,"[(95.0, 1.951462499999252)]",1222.1665899,None,95.0,,,,,,,,,sub_072,2022-09-28_13h02.23.781,Reversal,2022.1.2,59.97210097869242,4,
,,,exp3.png,,,,,,,,,,,,,,,,,2,0,2,0,,,,,0,0,0,0,0,2,2,2,,,,,,,,,,,,,,,,,,,,,,,50.0,None,[],1225.1997241,None,,,,,,,,,,sub_072,2022-09-28_13h02.23.781,Reversal,2022.1.2,59.97210097869242,4,
,,,exp4.png,,,,,,,,,,,,,,,,,2,0,2,0,,,,,0,0,0,0,0,3,3,3,,,,,,,,,,,,,,,,,,,,,,,89.0,3.784440700000232,"[(89.0, 3.784440700000232)]",1227.3331228000006,None,,89.0,,,,,,,,sub_072,2022-09-28_13h02.23.781,Reversal,2022.1.2,59.97210097869242,4,
,,,,,,,,,,,,,,,,,,,,,,,,,,,,,,,,,,,,,,,,,,,,,,,,,,,,,,,,55,,,,,,,,,,,70,40,30,443.35162259999925,1,,,,,,,
