trial_index,trial_image1_file,trial_image2_file,image_file,learning_outer_loop.thisRepN,learning_outer_loop.thisTrialN,learning_outer_loop.thisN,learning_outer_loop.thisIndex,learning_inner_loop.thisRepN,learning_inner_loop.thisTrialN,learning_inner_loop.thisN,learning_inner_loop.thisIndex,learning_estimation_outer_loop.thisRepN,learning_estimation_outer_loop.thisTrialN,learning_estimation_outer_loop.thisN,learning_estimation_outer_loop.thisIndex,learning_estimation_inner_loop.thisRepN,learning_estimation_inner_loop.thisTrialN,learning_estimation_inner_loop.thisN,learning_estimation_inner_loop.thisIndex,reversal_outer_loop.thisRepN,reversal_outer_loop.thisTrialN,reversal_outer_loop.thisN,reversal_outer_loop.thisIndex,reversal_inner_loop.thisRepN,reversal_inner_loop.thisTrialN,reversal_inner_loop.thisN,reversal_inner_loop.thisIndex,reversal_estimation_outer_loop.thisRepN,reversal_estimation_outer_loop.thisTrialN,reversal_estimation_outer_loop.thisN,reversal_estimation_outer_loop.thisIndex,reversal_estimation_inner_loop.thisRepN,reversal_estimation_inner_loop.thisTrialN,reversal_estimation_inner_loop.thisN,reversal_estimation_inner_loop.thisIndex,skipped,total_trial_counter,trial_num,left_right_flip,left_image_file,right_image_file,clicked_stimulus_side,side,clicked_stimulus,version,high_prob_image_file,low_prob_image_file,choice_a,choice_b,pair_type,correct,trial_feedback_random,reward,trial_type,overall_time_after_trial,score,estimation_exp1.png,estimation_rating.response,estimation_rating.rt,estimation_rating.history,estimation_rating.started,estimation_rating.stopped,estimation_exp2.png,estimation_exp3.png,estimation_exp4.png,total_learning_time,total_correct,learning_correct,reversal_correct,total_reversal_time,extra_block,participant,date,expName,psychopyVersion,frameRate,ver,
0,exp1.png,exp2.png,,0,0,0,0,0,0,0,0,,,,,,,,,,,,,,,,,,,,,,,,,True,,,,,,,,,,,,,,,,,,,,,,,,,,,,,,,,,,,,sub_015,2022-06-09_13h23.46.030,Reversal,2022.1.2,59.97958294942368,3,
1,exp3.png,exp4.png,,0,0,0,0,0,1,1,1,,,,,,,,,,,,,,,,,,,,,,,,,False,0,1,True,exp4.png,exp3.png,trial_right_image,-1,exp3.png,3,exp4.png,exp3.png,0,2,non-reversed,incorrect,0.39236215916206496,0,valid_lose,14.466534999999567,0,,,,,,,,,,,,,,,,sub_015,2022-06-09_13h23.46.030,Reversal,2022.1.2,59.97958294942368,3,
2,exp1.png,exp2.png,,0,0,0,0,0,2,2,2,,,,,,,,,,,,,,,,,,,,,,,,,False,1,2,False,exp1.png,exp2.png,trial_right_image,-1,exp2.png,3,exp2.png,exp1.png,1,3,reversed,correct,0.4911066825331294,1,valid_win,31.749162899999646,1,,,,,,,,,,,,,,,,sub_015,2022-06-09_13h23.46.030,Reversal,2022.1.2,59.97958294942368,3,
3,exp3.png,exp4.png,,0,0,0,0,0,3,3,3,,,,,,,,,,,,,,,,,,,,,,,,,False,2,3,True,exp4.png,exp3.png,trial_right_image,-1,exp3.png,3,exp4.png,exp3.png,0,2,non-reversed,incorrect,0.9845582810850133,0,valid_lose,49.53273629999967,1,,,,,,,,,,,,,,,,sub_015,2022-06-09_13h23.46.030,Reversal,2022.1.2,59.97958294942368,3,
4,exp1.png,exp2.png,,0,0,0,0,0,4,4,4,,,,,,,,,,,,,,,,,,,,,,,,,False,3,4,True,exp2.png,exp1.png,trial_left_image,1,exp2.png,3,exp2.png,exp1.png,1,3,reversed,correct,0.7262720261849599,1,valid_win,59.498723799999425,2,,,,,,,,,,,,,,,,sub_015,2022-06-09_13h23.46.030,Reversal,2022.1.2,59.97958294942368,3,
5,exp3.png,exp4.png,,0,0,0,0,0,5,5,5,,,,,,,,,,,,,,,,,,,,,,,,,False,4,5,False,exp3.png,exp4.png,trial_right_image,-1,exp4.png,3,exp4.png,exp3.png,1,1,non-reversed,correct,0.5898562914534121,1,valid_win,71.94864509999934,3,,,,,,,,,,,,,,,,sub_015,2022-06-09_13h23.46.030,Reversal,2022.1.2,59.97958294942368,3,
6,exp1.png,exp2.png,,0,0,0,0,0,6,6,6,,,,,,,,,,,,,,,,,,,,,,,,,False,5,6,True,exp2.png,exp1.png,trial_right_image,-1,exp1.png,3,exp2.png,exp1.png,0,4,reversed,incorrect,0.01489824765150749,1,invalid_win,85.165753700001,4,,,,,,,,,,,,,,,,sub_015,2022-06-09_13h23.46.030,Reversal,2022.1.2,59.97958294942368,3,
7,exp3.png,exp4.png,,0,0,0,0,0,7,7,7,,,,,,,,,,,,,,,,,,,,,,,,,False,6,7,False,exp3.png,exp4.png,trial_right_image,-1,exp4.png,3,exp4.png,exp3.png,1,1,non-reversed,correct,0.24483743838398864,0,invalid_lose,93.64872670000113,4,,,,,,,,,,,,,,,,sub_015,2022-06-09_13h23.46.030,Reversal,2022.1.2,59.97958294942368,3,
8,exp1.png,exp2.png,,0,0,0,0,0,8,8,8,,,,,,,,,,,,,,,,,,,,,,,,,False,7,8,True,exp2.png,exp1.png,trial_left_image,1,exp2.png,3,exp2.png,exp1.png,1,3,reversed,correct,0.9183335923499278,1,valid_win,109.86513770000056,5,,,,,,,,,,,,,,,,sub_015,2022-06-09_13h23.46.030,Reversal,2022.1.2,59.97958294942368,3,
9,exp3.png,exp4.png,,0,0,0,0,0,9,9,9,,,,,,,,,,,,,,,,,,,,,,,,,False,8,9,False,exp3.png,exp4.png,trial_left_image,1,exp3.png,3,exp4.png,exp3.png,0,2,non-reversed,incorrect,0.0012342998967344032,1,invalid_win,120.96468110000023,6,,,,,,,,,,,,,,,,sub_015,2022-06-09_13h23.46.030,Reversal,2022.1.2,59.97958294942368,3,
10,exp1.png,exp2.png,,0,0,0,0,0,10,10,10,,,,,,,,,,,,,,,,,,,,,,,,,False,9,10,True,exp2.png,exp1.png,trial_right_image,-1,exp1.png,3,exp2.png,exp1.png,0,4,reversed,incorrect,0.9205353772535294,0,valid_lose,131.89755440000044,6,,,,,,,,,,,,,,,,sub_015,2022-06-09_13h23.46.030,Reversal,2022.1.2,59.97958294942368,3,
11,exp3.png,exp4.png,,0,0,0,0,0,11,11,11,,,,,,,,,,,,,,,,,,,,,,,,,False,10,11,False,exp3.png,exp4.png,trial_right_image,-1,exp4.png,3,exp4.png,exp3.png,1,1,non-reversed,correct,0.003262075638156503,0,invalid_lose,140.5475409999999,6,,,,,,,,,,,,,,,,sub_015,2022-06-09_13h23.46.030,Reversal,2022.1.2,59.97958294942368,3,
12,exp1.png,exp2.png,,0,0,0,0,0,12,12,12,,,,,,,,,,,,,,,,,,,,,,,,,False,11,12,False,exp1.png,exp2.png,trial_left_image,1,exp1.png,3,exp2.png,exp1.png,0,4,reversed,incorrect,0.6429485850292268,0,valid_lose,148.81344470000113,6,,,,,,,,,,,,,,,,sub_015,2022-06-09_13h23.46.030,Reversal,2022.1.2,59.97958294942368,3,
13,exp3.png,exp4.png,,0,0,0,0,0,13,13,13,,,,,,,,,,,,,,,,,,,,,,,,,False,12,13,False,exp3.png,exp4.png,trial_right_image,-1,exp4.png,3,exp4.png,exp3.png,1,1,non-reversed,correct,0.4226202190151156,1,valid_win,164.2470699000005,7,,,,,,,,,,,,,,,,sub_015,2022-06-09_13h23.46.030,Reversal,2022.1.2,59.97958294942368,3,
14,exp1.png,exp2.png,,0,0,0,0,0,14,14,14,,,,,,,,,,,,,,,,,,,,,,,,,False,13,14,False,exp1.png,exp2.png,trial_right_image,-1,exp2.png,3,exp2.png,exp1.png,1,3,reversed,correct,0.8678366028515117,1,valid_win,241.36205770000015,8,,,,,,,,,,,,,,,,sub_015,2022-06-09_13h23.46.030,Reversal,2022.1.2,59.97958294942368,3,
15,exp3.png,exp4.png,,0,0,0,0,0,15,15,15,,,,,,,,,,,,,,,,,,,,,,,,,False,14,15,True,exp4.png,exp3.png,trial_left_image,1,exp4.png,3,exp4.png,exp3.png,1,1,non-reversed,correct,0.790881716788282,1,valid_win,247.87897950000115,9,,,,,,,,,,,,,,,,sub_015,2022-06-09_13h23.46.030,Reversal,2022.1.2,59.97958294942368,3,
16,exp1.png,exp2.png,,0,0,0,0,0,16,16,16,,,,,,,,,,,,,,,,,,,,,,,,,False,15,16,False,exp1.png,exp2.png,trial_right_image,-1,exp2.png,3,exp2.png,exp1.png,1,3,reversed,correct,0.59418482624071,1,valid_win,266.86121040000035,10,,,,,,,,,,,,,,,,sub_015,2022-06-09_13h23.46.030,Reversal,2022.1.2,59.97958294942368,3,
17,exp3.png,exp4.png,,0,0,0,0,0,17,17,17,,,,,,,,,,,,,,,,,,,,,,,,,False,16,17,True,exp4.png,exp3.png,trial_left_image,1,exp4.png,3,exp4.png,exp3.png,1,1,non-reversed,correct,0.597781996607612,1,valid_win,271.9117930000011,11,,,,,,,,,,,,,,,,sub_015,2022-06-09_13h23.46.030,Reversal,2022.1.2,59.97958294942368,3,
18,exp1.png,exp2.png,,0,0,0,0,0,18,18,18,,,,,,,,,,,,,,,,,,,,,,,,,False,17,18,False,exp1.png,exp2.png,trial_right_image,-1,exp2.png,3,exp2.png,exp1.png,1,3,reversed,correct,0.6135453893194698,1,valid_win,290.69416889999957,12,,,,,,,,,,,,,,,,sub_015,2022-06-09_13h23.46.030,Reversal,2022.1.2,59.97958294942368,3,
19,exp3.png,exp4.png,,0,0,0,0,0,19,19,19,,,,,,,,,,,,,,,,,,,,,,,,,False,18,19,True,exp4.png,exp3.png,trial_left_image,1,exp4.png,3,exp4.png,exp3.png,1,1,non-reversed,correct,0.9287643545730069,1,valid_win,299.29414739999993,13,,,,,,,,,,,,,,,,sub_015,2022-06-09_13h23.46.030,Reversal,2022.1.2,59.97958294942368,3,
20,exp1.png,exp2.png,,0,0,0,0,0,20,20,20,,,,,,,,,,,,,,,,,,,,,,,,,False,19,20,True,exp2.png,exp1.png,trial_left_image,1,exp2.png,3,exp2.png,exp1.png,1,3,reversed,correct,0.14559586699469607,0,invalid_lose,304.82762990000083,13,,,,,,,,,,,,,,,,sub_015,2022-06-09_13h23.46.030,Reversal,2022.1.2,59.97958294942368,3,
,,,exp1.png,0,0,0,0,,,,,0,0,0,0,0,0,0,0,,,,,,,,,,,,,,,,,,,,,,,,,,,,,,,,,,,,,,100.0,100.0,11.200498700000026,"[(84.0, 9.716996500001187), (100.0, 11.200498700000026)]",329.12796440000056,None,,,,,,,,,,sub_015,2022-06-09_13h23.46.030,Reversal,2022.1.2,59.97958294942368,3,
,,,exp2.png,0,0,0,0,,,,,0,0,0,0,0,1,1,1,,,,,,,,,,,,,,,,,,,,,,,,,,,,,,,,,,,,,,,100.0,8.247952199999418,"[(49.0, 6.514778599999772), (100.0, 8.247952199999418)]",341.4817469999998,None,100.0,,,,,,,,,sub_015,2022-06-09_13h23.46.030,Reversal,2022.1.2,59.97958294942368,3,
,,,exp3.png,0,0,0,0,,,,,0,0,0,0,0,2,2,2,,,,,,,,,,,,,,,,,,,,,,,,,,,,,,,,,,,,,,,2.0,4.0005927000001975,"[(2.0, 4.0005927000001975)]",350.7735038999999,None,,2.0,,,,,,,,sub_015,2022-06-09_13h23.46.030,Reversal,2022.1.2,59.97958294942368,3,
,,,exp4.png,0,0,0,0,,,,,0,0,0,0,0,3,3,3,,,,,,,,,,,,,,,,,,,,,,,,,,,,,,,,,,,,,,,78.0,7.369918599999437,"[(78.0, 7.369918599999437)]",355.9063537999991,None,,,78.0,,,,,,,sub_015,2022-06-09_13h23.46.030,Reversal,2022.1.2,59.97958294942368,3,
0,exp1.png,exp2.png,,1,0,1,0,0,0,0,0,,,,,,,,,,,,,,,,,,,,,,,,,True,,,,,,,,,,,,,,,,,,,,,,,,,,,,,,,,,,,,sub_015,2022-06-09_13h23.46.030,Reversal,2022.1.2,59.97958294942368,3,
1,exp3.png,exp4.png,,1,0,1,0,0,1,1,1,,,,,,,,,,,,,,,,,,,,,,,,,False,20,21,False,exp3.png,exp4.png,trial_right_image,-1,exp4.png,3,exp4.png,exp3.png,1,1,non-reversed,correct,0.4551398586791384,1,valid_win,349.86041490000025,14,,,,,,,,,,,,,,,,sub_015,2022-06-09_13h23.46.030,Reversal,2022.1.2,59.97958294942368,3,
2,exp1.png,exp2.png,,1,0,1,0,0,2,2,2,,,,,,,,,,,,,,,,,,,,,,,,,False,21,22,False,exp1.png,exp2.png,trial_left_image,1,exp1.png,3,exp2.png,exp1.png,0,4,reversed,incorrect,0.9521256510253079,0,valid_lose,377.0591201999996,14,,,,,,,,,,,,,,,,sub_015,2022-06-09_13h23.46.030,Reversal,2022.1.2,59.97958294942368,3,
3,exp3.png,exp4.png,,1,0,1,0,0,3,3,3,,,,,,,,,,,,,,,,,,,,,,,,,False,22,23,True,exp4.png,exp3.png,trial_left_image,1,exp4.png,3,exp4.png,exp3.png,1,1,non-reversed,correct,0.46829342066207535,1,valid_win,388.65953179999997,15,,,,,,,,,,,,,,,,sub_015,2022-06-09_13h23.46.030,Reversal,2022.1.2,59.97958294942368,3,
4,exp1.png,exp2.png,,1,0,1,0,0,4,4,4,,,,,,,,,,,,,,,,,,,,,,,,,False,23,24,False,exp1.png,exp2.png,trial_right_image,-1,exp2.png,3,exp2.png,exp1.png,1,3,reversed,correct,0.21984764698745363,0,invalid_lose,396.15914300000077,15,,,,,,,,,,,,,,,,sub_015,2022-06-09_13h23.46.030,Reversal,2022.1.2,59.97958294942368,3,
5,exp3.png,exp4.png,,1,0,1,0,0,5,5,5,,,,,,,,,,,,,,,,,,,,,,,,,False,24,25,False,exp3.png,exp4.png,trial_right_image,-1,exp4.png,3,exp4.png,exp3.png,1,1,non-reversed,correct,0.502282167278732,1,valid_win,414.9254369999999,16,,,,,,,,,,,,,,,,sub_015,2022-06-09_13h23.46.030,Reversal,2022.1.2,59.97958294942368,3,
6,exp1.png,exp2.png,,1,0,1,0,0,6,6,6,,,,,,,,,,,,,,,,,,,,,,,,,False,25,26,False,exp1.png,exp2.png,trial_right_image,-1,exp2.png,3,exp2.png,exp1.png,1,3,reversed,correct,0.7051552457581719,1,valid_win,421.67561510000087,17,,,,,,,,,,,,,,,,sub_015,2022-06-09_13h23.46.030,Reversal,2022.1.2,59.97958294942368,3,
7,exp3.png,exp4.png,,1,0,1,0,0,7,7,7,,,,,,,,,,,,,,,,,,,,,,,,,False,26,27,True,exp4.png,exp3.png,trial_left_image,1,exp4.png,3,exp4.png,exp3.png,1,1,non-reversed,correct,0.7635408565748283,1,valid_win,432.54178890000003,18,,,,,,,,,,,,,,,,sub_015,2022-06-09_13h23.46.030,Reversal,2022.1.2,59.97958294942368,3,
8,exp1.png,exp2.png,,1,0,1,0,0,8,8,8,,,,,,,,,,,,,,,,,,,,,,,,,False,27,28,False,exp1.png,exp2.png,trial_right_image,-1,exp2.png,3,exp2.png,exp1.png,1,3,reversed,correct,0.8976491780213263,1,valid_win,440.67515769999955,19,,,,,,,,,,,,,,,,sub_015,2022-06-09_13h23.46.030,Reversal,2022.1.2,59.97958294942368,3,
9,exp3.png,exp4.png,,1,0,1,0,0,9,9,9,,,,,,,,,,,,,,,,,,,,,,,,,False,28,29,True,exp4.png,exp3.png,trial_left_image,1,exp4.png,3,exp4.png,exp3.png,1,1,non-reversed,correct,0.1439488521752612,0,invalid_lose,453.1915638999999,19,,,,,,,,,,,,,,,,sub_015,2022-06-09_13h23.46.030,Reversal,2022.1.2,59.97958294942368,3,
10,exp1.png,exp2.png,,1,0,1,0,0,10,10,10,,,,,,,,,,,,,,,,,,,,,,,,,False,29,30,True,exp2.png,exp1.png,trial_left_image,1,exp2.png,3,exp2.png,exp1.png,1,3,reversed,correct,0.615534914292662,1,valid_win,466.72472089999974,20,,,,,,,,,,,,,,,,sub_015,2022-06-09_13h23.46.030,Reversal,2022.1.2,59.97958294942368,3,
11,exp3.png,exp4.png,,1,0,1,0,0,11,11,11,,,,,,,,,,,,,,,,,,,,,,,,,False,30,31,False,exp3.png,exp4.png,trial_right_image,-1,exp4.png,3,exp4.png,exp3.png,1,1,non-reversed,correct,0.7884280188111435,1,valid_win,478.20730039999944,21,,,,,,,,,,,,,,,,sub_015,2022-06-09_13h23.46.030,Reversal,2022.1.2,59.97958294942368,3,
12,exp1.png,exp2.png,,1,0,1,0,0,12,12,12,,,,,,,,,,,,,,,,,,,,,,,,,False,31,32,False,exp1.png,exp2.png,trial_right_image,-1,exp2.png,3,exp2.png,exp1.png,1,3,reversed,correct,0.7616282357163084,1,valid_win,488.8239145999996,22,,,,,,,,,,,,,,,,sub_015,2022-06-09_13h23.46.030,Reversal,2022.1.2,59.97958294942368,3,
13,exp3.png,exp4.png,,1,0,1,0,0,13,13,13,,,,,,,,,,,,,,,,,,,,,,,,,False,32,33,False,exp3.png,exp4.png,trial_right_image,-1,exp4.png,3,exp4.png,exp3.png,1,1,non-reversed,correct,0.09759887998994421,0,invalid_lose,496.5907213999999,22,,,,,,,,,,,,,,,,sub_015,2022-06-09_13h23.46.030,Reversal,2022.1.2,59.97958294942368,3,
14,exp1.png,exp2.png,,1,0,1,0,0,14,14,14,,,,,,,,,,,,,,,,,,,,,,,,,False,33,34,True,exp2.png,exp1.png,trial_left_image,1,exp2.png,3,exp2.png,exp1.png,1,3,reversed,correct,0.4536515398039417,1,valid_win,544.3060525000001,23,,,,,,,,,,,,,,,,sub_015,2022-06-09_13h23.46.030,Reversal,2022.1.2,59.97958294942368,3,
15,exp3.png,exp4.png,,1,0,1,0,0,15,15,15,,,,,,,,,,,,,,,,,,,,,,,,,False,34,35,False,exp3.png,exp4.png,trial_left_image,1,exp3.png,3,exp4.png,exp3.png,0,2,non-reversed,incorrect,0.9437406393013982,0,valid_lose,553.3891313000004,23,,,,,,,,,,,,,,,,sub_015,2022-06-09_13h23.46.030,Reversal,2022.1.2,59.97958294942368,3,
16,exp1.png,exp2.png,,1,0,1,0,0,16,16,16,,,,,,,,,,,,,,,,,,,,,,,,,False,35,36,True,exp2.png,exp1.png,trial_left_image,1,exp2.png,3,exp2.png,exp1.png,1,3,reversed,correct,0.4617093976584683,1,valid_win,560.6055775000004,24,,,,,,,,,,,,,,,,sub_015,2022-06-09_13h23.46.030,Reversal,2022.1.2,59.97958294942368,3,
17,exp3.png,exp4.png,,1,0,1,0,0,17,17,17,,,,,,,,,,,,,,,,,,,,,,,,,False,36,37,True,exp4.png,exp3.png,trial_left_image,1,exp4.png,3,exp4.png,exp3.png,1,1,non-reversed,correct,0.9765525860445107,1,valid_win,582.7554175000005,25,,,,,,,,,,,,,,,,sub_015,2022-06-09_13h23.46.030,Reversal,2022.1.2,59.97958294942368,3,
18,exp1.png,exp2.png,,1,0,1,0,0,18,18,18,,,,,,,,,,,,,,,,,,,,,,,,,False,37,38,True,exp2.png,exp1.png,trial_left_image,1,exp2.png,3,exp2.png,exp1.png,1,3,reversed,correct,0.5022293479276043,1,valid_win,588.9223376999998,26,,,,,,,,,,,,,,,,sub_015,2022-06-09_13h23.46.030,Reversal,2022.1.2,59.97958294942368,3,
19,exp3.png,exp4.png,,1,0,1,0,0,19,19,19,,,,,,,,,,,,,,,,,,,,,,,,,False,38,39,True,exp4.png,exp3.png,trial_left_image,1,exp4.png,3,exp4.png,exp3.png,1,1,non-reversed,correct,0.2572876095298884,1,valid_win,601.5551783999999,27,,,,,,,,,,,,,,,,sub_015,2022-06-09_13h23.46.030,Reversal,2022.1.2,59.97958294942368,3,
20,exp1.png,exp2.png,,1,0,1,0,0,20,20,20,,,,,,,,,,,,,,,,,,,,,,,,,False,39,40,True,exp2.png,exp1.png,trial_left_image,1,exp2.png,3,exp2.png,exp1.png,1,3,reversed,correct,0.5417336200241474,1,valid_win,608.3386107999995,28,,,,,,,,,,,,,,,,sub_015,2022-06-09_13h23.46.030,Reversal,2022.1.2,59.97958294942368,3,
,,,exp1.png,1,0,1,0,,,,,0,0,0,0,0,0,0,0,,,,,,,,,,,,,,,,,,,,,,,,,,,,,,,,,,,,,,100.0,100.0,3.4320564000008744,"[(100.0, 3.4320564000008744)]",632.6385183999992,None,,,,,,,,,,sub_015,2022-06-09_13h23.46.030,Reversal,2022.1.2,59.97958294942368,3,
,,,exp2.png,1,0,1,0,,,,,0,0,0,0,0,1,1,1,,,,,,,,,,,,,,,,,,,,,,,,,,,,,,,,,,,,,,,100.0,5.835037200000443,"[(100.0, 5.835037200000443)]",637.2486740000004,None,100.0,,,,,,,,,sub_015,2022-06-09_13h23.46.030,Reversal,2022.1.2,59.97958294942368,3,
,,,exp3.png,1,0,1,0,,,,,0,0,0,0,0,2,2,2,,,,,,,,,,,,,,,,,,,,,,,,,,,,,,,,,,,,,,,5.0,2.916997900001661,"[(5.0, 2.916997900001661)]",644.3015427999999,None,,5.0,,,,,,,,sub_015,2022-06-09_13h23.46.030,Reversal,2022.1.2,59.97958294942368,3,
,,,exp4.png,1,0,1,0,,,,,0,0,0,0,0,3,3,3,,,,,,,,,,,,,,,,,,,,,,,,,,,,,,,,,,,,,,,100.0,15.386662300001262,"[(100.0, 15.386662300001262)]",648.348947299999,None,,,100.0,,,,,,,sub_015,2022-06-09_13h23.46.030,Reversal,2022.1.2,59.97958294942368,3,
0,exp1.png,exp2.png,,2,0,2,0,0,0,0,0,,,,,,,,,,,,,,,,,,,,,,,,,True,,,,,,,,,,,,,,,,,,,,,,,,,,,,,,,,,,,,sub_015,2022-06-09_13h23.46.030,Reversal,2022.1.2,59.97958294942368,3,
1,exp3.png,exp4.png,,2,0,2,0,0,1,1,1,,,,,,,,,,,,,,,,,,,,,,,,,False,40,41,False,exp3.png,exp4.png,trial_right_image,-1,exp4.png,3,exp4.png,exp3.png,1,1,non-reversed,correct,0.3155011299738203,1,valid_win,650.054329300001,29,,,,,,,,,,,,,,,,sub_015,2022-06-09_13h23.46.030,Reversal,2022.1.2,59.97958294942368,3,
2,exp1.png,exp2.png,,2,0,2,0,0,2,2,2,,,,,,,,,,,,,,,,,,,,,,,,,False,41,42,True,exp2.png,exp1.png,trial_left_image,1,exp2.png,3,exp2.png,exp1.png,1,3,reversed,correct,0.16268941567335915,0,invalid_lose,656.0876105999996,29,,,,,,,,,,,,,,,,sub_015,2022-06-09_13h23.46.030,Reversal,2022.1.2,59.97958294942368,3,
3,exp3.png,exp4.png,,2,0,2,0,0,3,3,3,,,,,,,,,,,,,,,,,,,,,,,,,False,42,43,True,exp4.png,exp3.png,trial_left_image,1,exp4.png,3,exp4.png,exp3.png,1,1,non-reversed,correct,0.3776963127099736,1,valid_win,664.3036623000007,30,,,,,,,,,,,,,,,,sub_015,2022-06-09_13h23.46.030,Reversal,2022.1.2,59.97958294942368,3,
4,exp1.png,exp2.png,,2,0,2,0,0,4,4,4,,,,,,,,,,,,,,,,,,,,,,,,,False,43,44,True,exp2.png,exp1.png,trial_left_image,1,exp2.png,3,exp2.png,exp1.png,1,3,reversed,correct,0.5617797749562086,1,valid_win,674.9200526000004,31,,,,,,,,,,,,,,,,sub_015,2022-06-09_13h23.46.030,Reversal,2022.1.2,59.97958294942368,3,
5,exp3.png,exp4.png,,2,0,2,0,0,5,5,5,,,,,,,,,,,,,,,,,,,,,,,,,False,44,45,False,exp3.png,exp4.png,trial_right_image,-1,exp4.png,3,exp4.png,exp3.png,1,1,non-reversed,correct,0.05245560249204251,0,invalid_lose,680.7531273999994,31,,,,,,,,,,,,,,,,sub_015,2022-06-09_13h23.46.030,Reversal,2022.1.2,59.97958294942368,3,
6,exp1.png,exp2.png,,2,0,2,0,0,6,6,6,,,,,,,,,,,,,,,,,,,,,,,,,False,45,46,True,exp2.png,exp1.png,trial_left_image,1,exp2.png,3,exp2.png,exp1.png,1,3,reversed,correct,0.7100021189441506,1,valid_win,693.0199246000011,32,,,,,,,,,,,,,,,,sub_015,2022-06-09_13h23.46.030,Reversal,2022.1.2,59.97958294942368,3,
7,exp3.png,exp4.png,,2,0,2,0,0,7,7,7,,,,,,,,,,,,,,,,,,,,,,,,,False,46,47,True,exp4.png,exp3.png,trial_left_image,1,exp4.png,3,exp4.png,exp3.png,1,1,non-reversed,correct,0.8888269267041042,1,valid_win,710.6696259,33,,,,,,,,,,,,,,,,sub_015,2022-06-09_13h23.46.030,Reversal,2022.1.2,59.97958294942368,3,
8,exp1.png,exp2.png,,2,0,2,0,0,8,8,8,,,,,,,,,,,,,,,,,,,,,,,,,False,47,48,False,exp1.png,exp2.png,trial_right_image,-1,exp2.png,3,exp2.png,exp1.png,1,3,reversed,correct,0.9037130727698895,1,valid_win,727.2025042000005,34,,,,,,,,,,,,,,,,sub_015,2022-06-09_13h23.46.030,Reversal,2022.1.2,59.97958294942368,3,
9,exp3.png,exp4.png,,2,0,2,0,0,9,9,9,,,,,,,,,,,,,,,,,,,,,,,,,False,48,49,True,exp4.png,exp3.png,trial_left_image,1,exp4.png,3,exp4.png,exp3.png,1,1,non-reversed,correct,0.23537510460655753,0,invalid_lose,733.4190763999995,34,,,,,,,,,,,,,,,,sub_015,2022-06-09_13h23.46.030,Reversal,2022.1.2,59.97958294942368,3,
10,exp1.png,exp2.png,,2,0,2,0,0,10,10,10,,,,,,,,,,,,,,,,,,,,,,,,,False,49,50,True,exp2.png,exp1.png,trial_left_image,1,exp2.png,3,exp2.png,exp1.png,1,3,reversed,correct,0.317496959582367,1,valid_win,743.6860056000005,35,,,,,,,,,,,,,,,,sub_015,2022-06-09_13h23.46.030,Reversal,2022.1.2,59.97958294942368,3,
11,exp3.png,exp4.png,,2,0,2,0,0,11,11,11,,,,,,,,,,,,,,,,,,,,,,,,,False,50,51,True,exp4.png,exp3.png,trial_left_image,1,exp4.png,3,exp4.png,exp3.png,1,1,non-reversed,correct,0.5594802896580526,1,valid_win,752.8686240000006,36,,,,,,,,,,,,,,,,sub_015,2022-06-09_13h23.46.030,Reversal,2022.1.2,59.97958294942368,3,
12,exp1.png,exp2.png,,2,0,2,0,0,12,12,12,,,,,,,,,,,,,,,,,,,,,,,,,False,51,52,True,exp2.png,exp1.png,trial_left_image,1,exp2.png,3,exp2.png,exp1.png,1,3,reversed,correct,0.5816376185006109,1,valid_win,758.4523415000003,37,,,,,,,,,,,,,,,,sub_015,2022-06-09_13h23.46.030,Reversal,2022.1.2,59.97958294942368,3,
13,exp3.png,exp4.png,,2,0,2,0,0,13,13,13,,,,,,,,,,,,,,,,,,,,,,,,,False,52,53,False,exp3.png,exp4.png,trial_right_image,-1,exp4.png,3,exp4.png,exp3.png,1,1,non-reversed,correct,0.6775655839733608,1,valid_win,765.7185193999994,38,,,,,,,,,,,,,,,,sub_015,2022-06-09_13h23.46.030,Reversal,2022.1.2,59.97958294942368,3,
14,exp1.png,exp2.png,,2,0,2,0,0,14,14,14,,,,,,,,,,,,,,,,,,,,,,,,,False,53,54,False,exp1.png,exp2.png,trial_right_image,-1,exp2.png,3,exp2.png,exp1.png,1,3,reversed,correct,0.33953466632331053,1,valid_win,772.1853991000007,39,,,,,,,,,,,,,,,,sub_015,2022-06-09_13h23.46.030,Reversal,2022.1.2,59.97958294942368,3,
15,exp3.png,exp4.png,,2,0,2,0,0,15,15,15,,,,,,,,,,,,,,,,,,,,,,,,,False,54,55,False,exp3.png,exp4.png,trial_right_image,-1,exp4.png,3,exp4.png,exp3.png,1,1,non-reversed,correct,0.17082450075587485,0,invalid_lose,779.6505959999995,39,,,,,,,,,,,,,,,,sub_015,2022-06-09_13h23.46.030,Reversal,2022.1.2,59.97958294942368,3,
16,exp1.png,exp2.png,,2,0,2,0,0,16,16,16,,,,,,,,,,,,,,,,,,,,,,,,,False,55,56,False,exp1.png,exp2.png,trial_right_image,-1,exp2.png,3,exp2.png,exp1.png,1,3,reversed,correct,0.39969948645170383,1,valid_win,786.3015047000008,40,,,,,,,,,,,,,,,,sub_015,2022-06-09_13h23.46.030,Reversal,2022.1.2,59.97958294942368,3,
17,exp3.png,exp4.png,,2,0,2,0,0,17,17,17,,,,,,,,,,,,,,,,,,,,,,,,,False,56,57,False,exp3.png,exp4.png,trial_right_image,-1,exp4.png,3,exp4.png,exp3.png,1,1,non-reversed,correct,0.8141804162625622,1,valid_win,804.9179370000002,41,,,,,,,,,,,,,,,,sub_015,2022-06-09_13h23.46.030,Reversal,2022.1.2,59.97958294942368,3,
18,exp1.png,exp2.png,,2,0,2,0,0,18,18,18,,,,,,,,,,,,,,,,,,,,,,,,,False,57,58,False,exp1.png,exp2.png,trial_right_image,-1,exp2.png,3,exp2.png,exp1.png,1,3,reversed,correct,0.609321098542579,1,valid_win,810.7335803000005,42,,,,,,,,,,,,,,,,sub_015,2022-06-09_13h23.46.030,Reversal,2022.1.2,59.97958294942368,3,
19,exp3.png,exp4.png,,2,0,2,0,0,19,19,19,,,,,,,,,,,,,,,,,,,,,,,,,False,58,59,True,exp4.png,exp3.png,trial_left_image,1,exp4.png,3,exp4.png,exp3.png,1,1,non-reversed,correct,0.9801997002608474,1,valid_win,817.2174993999997,43,,,,,,,,,,,,,,,,sub_015,2022-06-09_13h23.46.030,Reversal,2022.1.2,59.97958294942368,3,
20,exp1.png,exp2.png,,2,0,2,0,0,20,20,20,,,,,,,,,,,,,,,,,,,,,,,,,False,59,60,False,exp1.png,exp2.png,trial_right_image,-1,exp2.png,3,exp2.png,exp1.png,1,3,reversed,correct,0.08118084527553848,0,invalid_lose,828.7010484000002,43,,,,,,,,,,,,,,,,sub_015,2022-06-09_13h23.46.030,Reversal,2022.1.2,59.97958294942368,3,
,,,exp1.png,2,0,2,0,,,,,0,0,0,0,0,0,0,0,,,,,,,,,,,,,,,,,,,,,,,,,,,,,,,,,,,,,,75.0,75.0,5.243783300000359,"[(75.0, 5.243783300000359)]",853.0059008999997,None,,,,,,,,,,sub_015,2022-06-09_13h23.46.030,Reversal,2022.1.2,59.97958294942368,3,
,,,exp2.png,2,0,2,0,,,,,0,0,0,0,0,1,1,1,,,,,,,,,,,,,,,,,,,,,,,,,,,,,,,,,,,,,,,1.0,6.866037899999355,"[(100.0, 4.9345634000001155), (1.0, 6.866037899999355)]",859.2630274999992,None,1.0,,,,,,,,,sub_015,2022-06-09_13h23.46.030,Reversal,2022.1.2,59.97958294942368,3,
,,,exp3.png,2,0,2,0,,,,,0,0,0,0,0,2,2,2,,,,,,,,,,,,,,,,,,,,,,,,,,,,,,,,,,,,,,,1.0,7.566489299999375,"[(1.0, 4.800616299999092), (1.0, 7.566489299999375)]",867.3158798999993,None,,1.0,,,,,,,,sub_015,2022-06-09_13h23.46.030,Reversal,2022.1.2,59.97958294942368,3,
,,,exp4.png,2,0,2,0,,,,,0,0,0,0,0,3,3,3,,,,,,,,,,,,,,,,,,,,,,,,,,,,,,,,,,,,,,,100.0,9.833829400000468,"[(100.0, 9.833829400000468)]",876.0308573999991,None,,,100.0,,,,,,,sub_015,2022-06-09_13h23.46.030,Reversal,2022.1.2,59.97958294942368,3,
0,exp1.png,exp2.png,,,,,,,,,,,,,,,,,,0,0,0,0,0,0,0,0,,,,,,,,,True,,,,,,,,,,,,,,,,,,,,,,,,,,,,,,,,,,,,sub_015,2022-06-09_13h23.46.030,Reversal,2022.1.2,59.97958294942368,3,
1,exp3.png,exp4.png,,,,,,,,,,,,,,,,,,0,0,0,0,0,1,1,1,,,,,,,,,False,0,61,False,exp3.png,exp4.png,trial_right_image,-1,exp4.png,3,exp4.png,exp3.png,1,1,non-reversed,correct,0.8311222095772429,1,valid_win,868.9166248000001,44,,,,,,,,,,865.2067984000005,,,,,,sub_015,2022-06-09_13h23.46.030,Reversal,2022.1.2,59.97958294942368,3,
2,exp1.png,exp2.png,,,,,,,,,,,,,,,,,,0,0,0,0,0,2,2,2,,,,,,,,,False,1,62,True,exp2.png,exp1.png,trial_left_image,1,exp2.png,3,exp1.png,exp2.png,1,3,reversed,incorrect,0.7212725881371412,0,valid_lose,877.0498277999995,44,,,,,,,,,,,,,,,,sub_015,2022-06-09_13h23.46.030,Reversal,2022.1.2,59.97958294942368,3,
3,exp3.png,exp4.png,,,,,,,,,,,,,,,,,,0,0,0,0,0,3,3,3,,,,,,,,,False,2,63,False,exp3.png,exp4.png,trial_right_image,-1,exp4.png,3,exp4.png,exp3.png,1,1,non-reversed,correct,0.5438172680880807,1,valid_win,888.5664548000004,45,,,,,,,,,,,,,,,,sub_015,2022-06-09_13h23.46.030,Reversal,2022.1.2,59.97958294942368,3,
4,exp1.png,exp2.png,,,,,,,,,,,,,,,,,,0,0,0,0,0,4,4,4,,,,,,,,,False,3,64,False,exp1.png,exp2.png,trial_right_image,-1,exp2.png,3,exp1.png,exp2.png,1,3,reversed,incorrect,0.08923636409653157,1,invalid_win,903.6156733999997,46,,,,,,,,,,,,,,,,sub_015,2022-06-09_13h23.46.030,Reversal,2022.1.2,59.97958294942368,3,
5,exp3.png,exp4.png,,,,,,,,,,,,,,,,,,0,0,0,0,0,5,5,5,,,,,,,,,False,4,65,False,exp3.png,exp4.png,trial_left_image,1,exp3.png,3,exp4.png,exp3.png,0,2,non-reversed,incorrect,0.1824692002384829,1,invalid_win,928.9489472999994,47,,,,,,,,,,,,,,,,sub_015,2022-06-09_13h23.46.030,Reversal,2022.1.2,59.97958294942368,3,
6,exp1.png,exp2.png,,,,,,,,,,,,,,,,,,0,0,0,0,0,6,6,6,,,,,,,,,False,5,66,False,exp1.png,exp2.png,trial_right_image,-1,exp2.png,3,exp1.png,exp2.png,1,3,reversed,incorrect,0.7423321406497712,0,valid_lose,939.9985410000008,47,,,,,,,,,,,,,,,,sub_015,2022-06-09_13h23.46.030,Reversal,2022.1.2,59.97958294942368,3,
7,exp3.png,exp4.png,,,,,,,,,,,,,,,,,,0,0,0,0,0,7,7,7,,,,,,,,,False,6,67,False,exp3.png,exp4.png,trial_right_image,-1,exp4.png,3,exp4.png,exp3.png,1,1,non-reversed,correct,0.956605925975753,1,valid_win,947.0988161000005,48,,,,,,,,,,,,,,,,sub_015,2022-06-09_13h23.46.030,Reversal,2022.1.2,59.97958294942368,3,
8,exp1.png,exp2.png,,,,,,,,,,,,,,,,,,0,0,0,0,0,8,8,8,,,,,,,,,False,7,68,True,exp2.png,exp1.png,trial_left_image,1,exp2.png,3,exp1.png,exp2.png,1,3,reversed,incorrect,0.49150904350647817,0,valid_lose,956.0645466000005,48,,,,,,,,,,,,,,,,sub_015,2022-06-09_13h23.46.030,Reversal,2022.1.2,59.97958294942368,3,
9,exp3.png,exp4.png,,,,,,,,,,,,,,,,,,0,0,0,0,0,9,9,9,,,,,,,,,False,8,69,True,exp4.png,exp3.png,trial_left_image,1,exp4.png,3,exp4.png,exp3.png,1,1,non-reversed,correct,0.8392550335353836,1,valid_win,978.930642700001,49,,,,,,,,,,,,,,,,sub_015,2022-06-09_13h23.46.030,Reversal,2022.1.2,59.97958294942368,3,
10,exp1.png,exp2.png,,,,,,,,,,,,,,,,,,0,0,0,0,0,10,10,10,,,,,,,,,False,9,70,True,exp2.png,exp1.png,trial_right_image,-1,exp1.png,3,exp1.png,exp2.png,0,4,reversed,correct,0.9248169537379413,1,valid_win,994.0648352999997,50,,,,,,,,,,,,,,,,sub_015,2022-06-09_13h23.46.030,Reversal,2022.1.2,59.97958294942368,3,
11,exp3.png,exp4.png,,,,,,,,,,,,,,,,,,0,0,0,0,0,11,11,11,,,,,,,,,False,10,71,False,exp3.png,exp4.png,trial_left_image,1,exp3.png,3,exp4.png,exp3.png,0,2,non-reversed,incorrect,0.5388872153654948,0,valid_lose,1017.1804542999998,50,,,,,,,,,,,,,,,,sub_015,2022-06-09_13h23.46.030,Reversal,2022.1.2,59.97958294942368,3,
12,exp1.png,exp2.png,,,,,,,,,,,,,,,,,,0,0,0,0,0,12,12,12,,,,,,,,,False,11,72,False,exp1.png,exp2.png,trial_right_image,-1,exp2.png,3,exp1.png,exp2.png,1,3,reversed,incorrect,0.8619493226888832,0,valid_lose,1024.4634738000004,50,,,,,,,,,,,,,,,,sub_015,2022-06-09_13h23.46.030,Reversal,2022.1.2,59.97958294942368,3,
13,exp3.png,exp4.png,,,,,,,,,,,,,,,,,,0,0,0,0,0,13,13,13,,,,,,,,,False,12,73,True,exp4.png,exp3.png,trial_left_image,1,exp4.png,3,exp4.png,exp3.png,1,1,non-reversed,correct,0.6290529950022729,1,valid_win,1032.2138510999994,51,,,,,,,,,,,,,,,,sub_015,2022-06-09_13h23.46.030,Reversal,2022.1.2,59.97958294942368,3,
14,exp1.png,exp2.png,,,,,,,,,,,,,,,,,,0,0,0,0,0,14,14,14,,,,,,,,,False,13,74,True,exp2.png,exp1.png,trial_right_image,-1,exp1.png,3,exp1.png,exp2.png,0,4,reversed,correct,0.7761044005295293,1,valid_win,1045.1133157000004,52,,,,,,,,,,,,,,,,sub_015,2022-06-09_13h23.46.030,Reversal,2022.1.2,59.97958294942368,3,
15,exp3.png,exp4.png,,,,,,,,,,,,,,,,,,0,0,0,0,0,15,15,15,,,,,,,,,False,14,75,True,exp4.png,exp3.png,trial_left_image,1,exp4.png,3,exp4.png,exp3.png,1,1,non-reversed,correct,0.6606989311059351,1,valid_win,1050.5301560000007,53,,,,,,,,,,,,,,,,sub_015,2022-06-09_13h23.46.030,Reversal,2022.1.2,59.97958294942368,3,
16,exp1.png,exp2.png,,,,,,,,,,,,,,,,,,0,0,0,0,0,16,16,16,,,,,,,,,False,15,76,False,exp1.png,exp2.png,trial_right_image,-1,exp2.png,3,exp1.png,exp2.png,1,3,reversed,incorrect,0.2190424043786231,1,invalid_win,1076.9790596000003,54,,,,,,,,,,,,,,,,sub_015,2022-06-09_13h23.46.030,Reversal,2022.1.2,59.97958294942368,3,
17,exp3.png,exp4.png,,,,,,,,,,,,,,,,,,0,0,0,0,0,17,17,17,,,,,,,,,False,16,77,False,exp3.png,exp4.png,trial_left_image,1,exp3.png,3,exp4.png,exp3.png,0,2,non-reversed,incorrect,0.9590512789303115,0,valid_lose,1090.1959898999994,54,,,,,,,,,,,,,,,,sub_015,2022-06-09_13h23.46.030,Reversal,2022.1.2,59.97958294942368,3,
18,exp1.png,exp2.png,,,,,,,,,,,,,,,,,,0,0,0,0,0,18,18,18,,,,,,,,,False,17,78,True,exp2.png,exp1.png,trial_right_image,-1,exp1.png,3,exp1.png,exp2.png,0,4,reversed,correct,0.2854987717756129,1,valid_win,1096.4617885000007,55,,,,,,,,,,,,,,,,sub_015,2022-06-09_13h23.46.030,Reversal,2022.1.2,59.97958294942368,3,
19,exp3.png,exp4.png,,,,,,,,,,,,,,,,,,0,0,0,0,0,19,19,19,,,,,,,,,False,18,79,True,exp4.png,exp3.png,trial_left_image,1,exp4.png,3,exp4.png,exp3.png,1,1,non-reversed,correct,0.735720881451911,1,valid_win,1102.4951313000001,56,,,,,,,,,,,,,,,,sub_015,2022-06-09_13h23.46.030,Reversal,2022.1.2,59.97958294942368,3,
20,exp1.png,exp2.png,,,,,,,,,,,,,,,,,,0,0,0,0,0,20,20,20,,,,,,,,,False,19,80,True,exp2.png,exp1.png,trial_right_image,-1,exp1.png,3,exp1.png,exp2.png,0,4,reversed,correct,0.2615790185374163,1,valid_win,1108.0283567000006,57,,,,,,,,,,,,,,,,sub_015,2022-06-09_13h23.46.030,Reversal,2022.1.2,59.97958294942368,3,
,,,exp1.png,,,,,,,,,,,,,,,,,0,0,0,0,,,,,0,0,0,0,0,0,0,0,,,,,,,,,,,,,,,,,,,,,,100.0,100.0,6.778097099999286,"[(100.0, 6.778097099999286)]",1132.3305125000006,None,,,,,,,,,,sub_015,2022-06-09_13h23.46.030,Reversal,2022.1.2,59.97958294942368,3,
,,,exp2.png,,,,,,,,,,,,,,,,,0,0,0,0,,,,,0,0,0,0,0,1,1,1,,,,,,,,,,,,,,,,,,,,,,,100.0,10.21918689999984,"[(100.0, 10.21918689999984)]",1140.5559496000005,None,100.0,,,,,,,,,sub_015,2022-06-09_13h23.46.030,Reversal,2022.1.2,59.97958294942368,3,
,,,exp3.png,,,,,,,,,,,,,,,,,0,0,0,0,,,,,0,0,0,0,0,2,2,2,,,,,,,,,,,,,,,,,,,,,,,1.0,5.351550900000802,"[(1.0, 5.351550900000802)]",1151.8615038000007,None,,1.0,,,,,,,,sub_015,2022-06-09_13h23.46.030,Reversal,2022.1.2,59.97958294942368,3,
,,,exp4.png,,,,,,,,,,,,,,,,,0,0,0,0,,,,,0,0,0,0,0,3,3,3,,,,,,,,,,,,,,,,,,,,,,,100.0,2.1669025999999576,"[(100.0, 2.1669025999999576)]",1158.4091912000004,None,,,100.0,,,,,,,sub_015,2022-06-09_13h23.46.030,Reversal,2022.1.2,59.97958294942368,3,
0,exp1.png,exp2.png,,,,,,,,,,,,,,,,,,1,0,1,0,0,0,0,0,,,,,,,,,True,,,,,,,,,,,,,,,,,,,,,,,,,,,,,,,,,,,,sub_015,2022-06-09_13h23.46.030,Reversal,2022.1.2,59.97958294942368,3,
1,exp3.png,exp4.png,,,,,,,,,,,,,,,,,,1,0,1,0,0,1,1,1,,,,,,,,,False,20,81,True,exp4.png,exp3.png,trial_left_image,1,exp4.png,3,exp4.png,exp3.png,1,1,non-reversed,correct,0.31691465423778065,1,valid_win,1146.6944638999994,58,,,,,,,,,,,,,,,,sub_015,2022-06-09_13h23.46.030,Reversal,2022.1.2,59.97958294942368,3,
2,exp1.png,exp2.png,,,,,,,,,,,,,,,,,,1,0,1,0,0,2,2,2,,,,,,,,,False,21,82,False,exp1.png,exp2.png,trial_right_image,-1,exp2.png,3,exp1.png,exp2.png,1,3,reversed,incorrect,0.8486733508170278,0,valid_lose,1156.2275957000002,58,,,,,,,,,,,,,,,,sub_015,2022-06-09_13h23.46.030,Reversal,2022.1.2,59.97958294942368,3,
3,exp3.png,exp4.png,,,,,,,,,,,,,,,,,,1,0,1,0,0,3,3,3,,,,,,,,,False,22,83,True,exp4.png,exp3.png,trial_left_image,1,exp4.png,3,exp4.png,exp3.png,1,1,non-reversed,correct,0.6034696218405772,1,valid_win,1161.7946561000008,59,,,,,,,,,,,,,,,,sub_015,2022-06-09_13h23.46.030,Reversal,2022.1.2,59.97958294942368,3,
4,exp1.png,exp2.png,,,,,,,,,,,,,,,,,,1,0,1,0,0,4,4,4,,,,,,,,,False,23,84,True,exp2.png,exp1.png,trial_right_image,-1,exp1.png,3,exp1.png,exp2.png,0,4,reversed,correct,0.60427499430152,1,valid_win,1167.177219000001,60,,,,,,,,,,,,,,,,sub_015,2022-06-09_13h23.46.030,Reversal,2022.1.2,59.97958294942368,3,
5,exp3.png,exp4.png,,,,,,,,,,,,,,,,,,1,0,1,0,0,5,5,5,,,,,,,,,False,24,85,True,exp4.png,exp3.png,trial_left_image,1,exp4.png,3,exp4.png,exp3.png,1,1,non-reversed,correct,0.30428100465405383,1,valid_win,1172.9102741000006,61,,,,,,,,,,,,,,,,sub_015,2022-06-09_13h23.46.030,Reversal,2022.1.2,59.97958294942368,3,
6,exp1.png,exp2.png,,,,,,,,,,,,,,,,,,1,0,1,0,0,6,6,6,,,,,,,,,False,25,86,True,exp2.png,exp1.png,trial_right_image,-1,exp1.png,3,exp1.png,exp2.png,0,4,reversed,correct,0.7276474312491286,1,valid_win,1184.8936049000004,62,,,,,,,,,,,,,,,,sub_015,2022-06-09_13h23.46.030,Reversal,2022.1.2,59.97958294942368,3,
7,exp3.png,exp4.png,,,,,,,,,,,,,,,,,,1,0,1,0,0,7,7,7,,,,,,,,,False,26,87,False,exp3.png,exp4.png,trial_right_image,-1,exp4.png,3,exp4.png,exp3.png,1,1,non-reversed,correct,0.050753167429054225,0,invalid_lose,1193.1603169999998,62,,,,,,,,,,,,,,,,sub_015,2022-06-09_13h23.46.030,Reversal,2022.1.2,59.97958294942368,3,
8,exp1.png,exp2.png,,,,,,,,,,,,,,,,,,1,0,1,0,0,8,8,8,,,,,,,,,False,27,88,False,exp1.png,exp2.png,trial_right_image,-1,exp2.png,3,exp1.png,exp2.png,1,3,reversed,incorrect,0.2100589946963658,1,invalid_win,1206.926907000001,63,,,,,,,,,,,,,,,,sub_015,2022-06-09_13h23.46.030,Reversal,2022.1.2,59.97958294942368,3,
9,exp3.png,exp4.png,,,,,,,,,,,,,,,,,,1,0,1,0,0,9,9,9,,,,,,,,,False,28,89,False,exp3.png,exp4.png,trial_left_image,1,exp3.png,3,exp4.png,exp3.png,0,2,non-reversed,incorrect,0.37197155378311886,0,valid_lose,1214.7432740000004,63,,,,,,,,,,,,,,,,sub_015,2022-06-09_13h23.46.030,Reversal,2022.1.2,59.97958294942368,3,
10,exp1.png,exp2.png,,,,,,,,,,,,,,,,,,1,0,1,0,0,10,10,10,,,,,,,,,False,29,90,False,exp1.png,exp2.png,trial_right_image,-1,exp2.png,3,exp1.png,exp2.png,1,3,reversed,incorrect,0.01110697903744895,1,invalid_win,1232.1597344000002,64,,,,,,,,,,,,,,,,sub_015,2022-06-09_13h23.46.030,Reversal,2022.1.2,59.97958294942368,3,
11,exp3.png,exp4.png,,,,,,,,,,,,,,,,,,1,0,1,0,0,11,11,11,,,,,,,,,False,30,91,False,exp3.png,exp4.png,trial_right_image,-1,exp4.png,3,exp4.png,exp3.png,1,1,non-reversed,correct,0.9689187452088107,1,valid_win,1247.7264116000006,65,,,,,,,,,,,,,,,,sub_015,2022-06-09_13h23.46.030,Reversal,2022.1.2,59.97958294942368,3,
12,exp1.png,exp2.png,,,,,,,,,,,,,,,,,,1,0,1,0,0,12,12,12,,,,,,,,,False,31,92,False,exp1.png,exp2.png,trial_left_image,1,exp1.png,3,exp1.png,exp2.png,0,4,reversed,correct,0.9702872104155814,1,valid_win,1253.7093583999995,66,,,,,,,,,,,,,,,,sub_015,2022-06-09_13h23.46.030,Reversal,2022.1.2,59.97958294942368,3,
13,exp3.png,exp4.png,,,,,,,,,,,,,,,,,,1,0,1,0,0,13,13,13,,,,,,,,,False,32,93,False,exp3.png,exp4.png,trial_right_image,-1,exp4.png,3,exp4.png,exp3.png,1,1,non-reversed,correct,0.016964744043385993,0,invalid_lose,1259.3088143999994,66,,,,,,,,,,,,,,,,sub_015,2022-06-09_13h23.46.030,Reversal,2022.1.2,59.97958294942368,3,
14,exp1.png,exp2.png,,,,,,,,,,,,,,,,,,1,0,1,0,0,14,14,14,,,,,,,,,False,33,94,True,exp2.png,exp1.png,trial_right_image,-1,exp1.png,3,exp1.png,exp2.png,0,4,reversed,correct,0.5371657543591859,1,valid_win,1267.9754217000009,67,,,,,,,,,,,,,,,,sub_015,2022-06-09_13h23.46.030,Reversal,2022.1.2,59.97958294942368,3,
15,exp3.png,exp4.png,,,,,,,,,,,,,,,,,,1,0,1,0,0,15,15,15,,,,,,,,,False,34,95,False,exp3.png,exp4.png,trial_left_image,1,exp3.png,3,exp4.png,exp3.png,0,2,non-reversed,incorrect,0.12845647703245888,1,invalid_win,1274.0583771000001,68,,,,,,,,,,,,,,,,sub_015,2022-06-09_13h23.46.030,Reversal,2022.1.2,59.97958294942368,3,
16,exp1.png,exp2.png,,,,,,,,,,,,,,,,,,1,0,1,0,0,16,16,16,,,,,,,,,False,35,96,True,exp2.png,exp1.png,trial_right_image,-1,exp1.png,3,exp1.png,exp2.png,0,4,reversed,correct,0.5616347579388145,1,valid_win,1283.1751330999996,69,,,,,,,,,,,,,,,,sub_015,2022-06-09_13h23.46.030,Reversal,2022.1.2,59.97958294942368,3,
17,exp3.png,exp4.png,,,,,,,,,,,,,,,,,,1,0,1,0,0,17,17,17,,,,,,,,,False,36,97,True,exp4.png,exp3.png,trial_left_image,1,exp4.png,3,exp4.png,exp3.png,1,1,non-reversed,correct,0.8697231053735118,1,valid_win,1293.8421524000005,70,,,,,,,,,,,,,,,,sub_015,2022-06-09_13h23.46.030,Reversal,2022.1.2,59.97958294942368,3,
18,exp1.png,exp2.png,,,,,,,,,,,,,,,,,,1,0,1,0,0,18,18,18,,,,,,,,,False,37,98,False,exp1.png,exp2.png,trial_right_image,-1,exp2.png,3,exp1.png,exp2.png,1,3,reversed,incorrect,0.8161932733195734,0,valid_lose,1301.9584897999994,70,,,,,,,,,,,,,,,,sub_015,2022-06-09_13h23.46.030,Reversal,2022.1.2,59.97958294942368,3,
19,exp3.png,exp4.png,,,,,,,,,,,,,,,,,,1,0,1,0,0,19,19,19,,,,,,,,,False,38,99,True,exp4.png,exp3.png,trial_left_image,1,exp4.png,3,exp4.png,exp3.png,1,1,non-reversed,correct,0.9883303430979897,1,valid_win,1307.1412951000002,71,,,,,,,,,,,,,,,,sub_015,2022-06-09_13h23.46.030,Reversal,2022.1.2,59.97958294942368,3,
20,exp1.png,exp2.png,,,,,,,,,,,,,,,,,,1,0,1,0,0,20,20,20,,,,,,,,,False,39,100,True,exp2.png,exp1.png,trial_right_image,-1,exp1.png,3,exp1.png,exp2.png,0,4,reversed,correct,0.5466138511465058,1,valid_win,1312.6082989000006,72,,,,,,,,,,,,,,,,sub_015,2022-06-09_13h23.46.030,Reversal,2022.1.2,59.97958294942368,3,
,,,exp1.png,,,,,,,,,,,,,,,,,1,0,1,0,,,,,0,0,0,0,0,0,0,0,,,,,,,,,,,,,,,,,,,,,,100.0,100.0,2.6453366999994614,"[(100.0, 2.6453366999994614)]",1336.9105129,None,,,,,,,,,,sub_015,2022-06-09_13h23.46.030,Reversal,2022.1.2,59.97958294942368,3,
,,,exp2.png,,,,,,,,,,,,,,,,,1,0,1,0,,,,,0,0,0,0,0,1,1,1,,,,,,,,,,,,,,,,,,,,,,,4.0,2.969160799999372,"[(4.0, 2.969160799999372)]",1341.1683852999995,None,4.0,,,,,,,,,sub_015,2022-06-09_13h23.46.030,Reversal,2022.1.2,59.97958294942368,3,
,,,exp3.png,,,,,,,,,,,,,,,,,1,0,1,0,,,,,0,0,0,0,0,2,2,2,,,,,,,,,,,,,,,,,,,,,,,1.0,3.917718099999547,"[(1.0, 3.917718099999547)]",1347.2201499999992,None,,1.0,,,,,,,,sub_015,2022-06-09_13h23.46.030,Reversal,2022.1.2,59.97958294942368,3,
,,,exp4.png,,,,,,,,,,,,,,,,,1,0,1,0,,,,,0,0,0,0,0,3,3,3,,,,,,,,,,,,,,,,,,,,,,,100.0,2.536470900000495,"[(100.0, 2.536470900000495)]",1352.4021931000007,None,,,100.0,,,,,,,sub_015,2022-06-09_13h23.46.030,Reversal,2022.1.2,59.97958294942368,3,
0,exp1.png,exp2.png,,,,,,,,,,,,,,,,,,2,0,2,0,0,0,0,0,,,,,,,,,True,,,,,,,,,,,,,,,,,,,,,,,,,,,,,,,,,,,,sub_015,2022-06-09_13h23.46.030,Reversal,2022.1.2,59.97958294942368,3,
1,exp3.png,exp4.png,,,,,,,,,,,,,,,,,,2,0,2,0,0,1,1,1,,,,,,,,,False,40,101,False,exp3.png,exp4.png,trial_right_image,-1,exp4.png,3,exp4.png,exp3.png,1,1,non-reversed,correct,0.8671239556038087,1,valid_win,1338.0411679999997,73,,,,,,,,,,,,,,,,sub_015,2022-06-09_13h23.46.030,Reversal,2022.1.2,59.97958294942368,3,
2,exp1.png,exp2.png,,,,,,,,,,,,,,,,,,2,0,2,0,0,2,2,2,,,,,,,,,False,41,102,False,exp1.png,exp2.png,trial_right_image,-1,exp2.png,3,exp1.png,exp2.png,1,3,reversed,incorrect,0.35824440175512584,0,valid_lose,1349.1908576000005,73,,,,,,,,,,,,,,,,sub_015,2022-06-09_13h23.46.030,Reversal,2022.1.2,59.97958294942368,3,
3,exp3.png,exp4.png,,,,,,,,,,,,,,,,,,2,0,2,0,0,3,3,3,,,,,,,,,False,42,103,False,exp3.png,exp4.png,trial_right_image,-1,exp4.png,3,exp4.png,exp3.png,1,1,non-reversed,correct,0.686453916277062,1,valid_win,1355.8570990999997,74,,,,,,,,,,,,,,,,sub_015,2022-06-09_13h23.46.030,Reversal,2022.1.2,59.97958294942368,3,
4,exp1.png,exp2.png,,,,,,,,,,,,,,,,,,2,0,2,0,0,4,4,4,,,,,,,,,False,43,104,True,exp2.png,exp1.png,trial_right_image,-1,exp1.png,3,exp1.png,exp2.png,0,4,reversed,correct,0.6197677021572814,1,valid_win,1369.4566761999995,75,,,,,,,,,,,,,,,,sub_015,2022-06-09_13h23.46.030,Reversal,2022.1.2,59.97958294942368,3,
5,exp3.png,exp4.png,,,,,,,,,,,,,,,,,,2,0,2,0,0,5,5,5,,,,,,,,,False,44,105,True,exp4.png,exp3.png,trial_left_image,1,exp4.png,3,exp4.png,exp3.png,1,1,non-reversed,correct,0.16109013211929757,0,invalid_lose,1378.6571525,75,,,,,,,,,,,,,,,,sub_015,2022-06-09_13h23.46.030,Reversal,2022.1.2,59.97958294942368,3,
6,exp1.png,exp2.png,,,,,,,,,,,,,,,,,,2,0,2,0,0,6,6,6,,,,,,,,,False,45,106,True,exp2.png,exp1.png,trial_right_image,-1,exp1.png,3,exp1.png,exp2.png,0,4,reversed,correct,0.1368958885697258,0,invalid_lose,1392.3398894000002,75,,,,,,,,,,,,,,,,sub_015,2022-06-09_13h23.46.030,Reversal,2022.1.2,59.97958294942368,3,
7,exp3.png,exp4.png,,,,,,,,,,,,,,,,,,2,0,2,0,0,7,7,7,,,,,,,,,False,46,107,True,exp4.png,exp3.png,trial_right_image,-1,exp3.png,3,exp4.png,exp3.png,0,2,non-reversed,incorrect,0.19600104713018618,1,invalid_win,1406.423319200001,76,,,,,,,,,,,,,,,,sub_015,2022-06-09_13h23.46.030,Reversal,2022.1.2,59.97958294942368,3,
8,exp1.png,exp2.png,,,,,,,,,,,,,,,,,,2,0,2,0,0,8,8,8,,,,,,,,,False,47,108,True,exp2.png,exp1.png,trial_right_image,-1,exp1.png,3,exp1.png,exp2.png,0,4,reversed,correct,0.4733637846533766,1,valid_win,1414.2062817999995,77,,,,,,,,,,,,,,,,sub_015,2022-06-09_13h23.46.030,Reversal,2022.1.2,59.97958294942368,3,
9,exp3.png,exp4.png,,,,,,,,,,,,,,,,,,2,0,2,0,0,9,9,9,,,,,,,,,False,48,109,True,exp4.png,exp3.png,trial_right_image,-1,exp3.png,3,exp4.png,exp3.png,0,2,non-reversed,incorrect,0.24509504296273033,1,invalid_win,1425.2554089000005,78,,,,,,,,,,,,,,,,sub_015,2022-06-09_13h23.46.030,Reversal,2022.1.2,59.97958294942368,3,
10,exp1.png,exp2.png,,,,,,,,,,,,,,,,,,2,0,2,0,0,10,10,10,,,,,,,,,False,49,110,False,exp1.png,exp2.png,trial_right_image,-1,exp2.png,3,exp1.png,exp2.png,1,3,reversed,incorrect,0.8997754784018203,0,valid_lose,1436.2226886000008,78,,,,,,,,,,,,,,,,sub_015,2022-06-09_13h23.46.030,Reversal,2022.1.2,59.97958294942368,3,
11,exp3.png,exp4.png,,,,,,,,,,,,,,,,,,2,0,2,0,0,11,11,11,,,,,,,,,False,50,111,True,exp4.png,exp3.png,trial_right_image,-1,exp3.png,3,exp4.png,exp3.png,0,2,non-reversed,incorrect,0.7294267425955278,0,valid_lose,1442.3058134000003,78,,,,,,,,,,,,,,,,sub_015,2022-06-09_13h23.46.030,Reversal,2022.1.2,59.97958294942368,3,
12,exp1.png,exp2.png,,,,,,,,,,,,,,,,,,2,0,2,0,0,12,12,12,,,,,,,,,False,51,112,False,exp1.png,exp2.png,trial_left_image,1,exp1.png,3,exp1.png,exp2.png,0,4,reversed,correct,0.09617648091153541,0,invalid_lose,1451.8051557,78,,,,,,,,,,,,,,,,sub_015,2022-06-09_13h23.46.030,Reversal,2022.1.2,59.97958294942368,3,
13,exp3.png,exp4.png,,,,,,,,,,,,,,,,,,2,0,2,0,0,13,13,13,,,,,,,,,False,52,113,False,exp3.png,exp4.png,trial_right_image,-1,exp4.png,3,exp4.png,exp3.png,1,1,non-reversed,correct,0.8660714877931962,1,valid_win,1457.4052411000011,79,,,,,,,,,,,,,,,,sub_015,2022-06-09_13h23.46.030,Reversal,2022.1.2,59.97958294942368,3,
14,exp1.png,exp2.png,,,,,,,,,,,,,,,,,,2,0,2,0,0,14,14,14,,,,,,,,,False,53,114,True,exp2.png,exp1.png,trial_right_image,-1,exp1.png,3,exp1.png,exp2.png,0,4,reversed,correct,0.5476793957513689,1,valid_win,1462.738566600001,80,,,,,,,,,,,,,,,,sub_015,2022-06-09_13h23.46.030,Reversal,2022.1.2,59.97958294942368,3,
15,exp3.png,exp4.png,,,,,,,,,,,,,,,,,,2,0,2,0,0,15,15,15,,,,,,,,,False,54,115,False,exp3.png,exp4.png,trial_right_image,-1,exp4.png,3,exp4.png,exp3.png,1,1,non-reversed,correct,0.8515142577682414,1,valid_win,1471.1215040000006,81,,,,,,,,,,,,,,,,sub_015,2022-06-09_13h23.46.030,Reversal,2022.1.2,59.97958294942368,3,
16,exp1.png,exp2.png,,,,,,,,,,,,,,,,,,2,0,2,0,0,16,16,16,,,,,,,,,False,55,116,True,exp2.png,exp1.png,trial_right_image,-1,exp1.png,3,exp1.png,exp2.png,0,4,reversed,correct,0.021198578175440574,0,invalid_lose,1476.5040941999996,81,,,,,,,,,,,,,,,,sub_015,2022-06-09_13h23.46.030,Reversal,2022.1.2,59.97958294942368,3,
17,exp3.png,exp4.png,,,,,,,,,,,,,,,,,,2,0,2,0,0,17,17,17,,,,,,,,,False,56,117,True,exp4.png,exp3.png,trial_right_image,-1,exp3.png,3,exp4.png,exp3.png,0,2,non-reversed,incorrect,0.8823110016287661,0,valid_lose,1498.0042004999996,81,,,,,,,,,,,,,,,,sub_015,2022-06-09_13h23.46.030,Reversal,2022.1.2,59.97958294942368,3,
18,exp1.png,exp2.png,,,,,,,,,,,,,,,,,,2,0,2,0,0,18,18,18,,,,,,,,,False,57,118,False,exp1.png,exp2.png,trial_left_image,1,exp1.png,3,exp1.png,exp2.png,0,4,reversed,correct,0.225652472651521,0,invalid_lose,1513.1209111000007,81,,,,,,,,,,,,,,,,sub_015,2022-06-09_13h23.46.030,Reversal,2022.1.2,59.97958294942368,3,
19,exp3.png,exp4.png,,,,,,,,,,,,,,,,,,2,0,2,0,0,19,19,19,,,,,,,,,False,58,119,False,exp3.png,exp4.png,trial_right_image,-1,exp4.png,3,exp4.png,exp3.png,1,1,non-reversed,correct,0.030992928641129125,0,invalid_lose,1518.554259800001,81,,,,,,,,,,,,,,,,sub_015,2022-06-09_13h23.46.030,Reversal,2022.1.2,59.97958294942368,3,
20,exp1.png,exp2.png,,,,,,,,,,,,,,,,,,2,0,2,0,0,20,20,20,,,,,,,,,False,59,120,False,exp1.png,exp2.png,trial_right_image,-1,exp2.png,3,exp1.png,exp2.png,1,3,reversed,incorrect,0.894956682667188,0,valid_lose,1526.337339900001,81,,,,,,,,,,,,,,,,sub_015,2022-06-09_13h23.46.030,Reversal,2022.1.2,59.97958294942368,3,
,,,exp1.png,,,,,,,,,,,,,,,,,2,0,2,0,,,,,0,0,0,0,0,0,0,0,,,,,,,,,,,,,,,,,,,,,,1.0,1.0,4.37944570000036,"[(1.0, 4.37944570000036)]",1550.6390938000004,None,,,,,,,,,,sub_015,2022-06-09_13h23.46.030,Reversal,2022.1.2,59.97958294942368,3,
,,,exp2.png,,,,,,,,,,,,,,,,,2,0,2,0,,,,,0,0,0,0,0,1,1,1,,,,,,,,,,,,,,,,,,,,,,,100.0,1.7647098999987065,"[(100.0, 1.7647098999987065)]",1556.4838328000005,None,100.0,,,,,,,,,sub_015,2022-06-09_13h23.46.030,Reversal,2022.1.2,59.97958294942368,3,
,,,exp3.png,,,,,,,,,,,,,,,,,2,0,2,0,,,,,0,0,0,0,0,2,2,2,,,,,,,,,,,,,,,,,,,,,,,100.0,6.15274060000047,"[(100.0, 6.15274060000047)]",1559.2980786000007,None,,100.0,,,,,,,,sub_015,2022-06-09_13h23.46.030,Reversal,2022.1.2,59.97958294942368,3,
,,,exp4.png,,,,,,,,,,,,,,,,,2,0,2,0,,,,,0,0,0,0,0,3,3,3,,,,,,,,,,,,,,,,,,,,,,,100.0,3.0008292000002257,"[(100.0, 3.0008292000002257)]",1566.5841230999995,None,,,100.0,,,,,,,sub_015,2022-06-09_13h23.46.030,Reversal,2022.1.2,59.97958294942368,3,
,,,,,,,,,,,,,,,,,,,,,,,,,,,,,,,,,,,,,,,,,,,,,,,,,,,,,,,,81,,,,,,,,,,,90,52,38,683.5990208000003,0,,,,,,,
