trial_index,trial_image1_file,trial_image2_file,image_file,learning_outer_loop.thisRepN,learning_outer_loop.thisTrialN,learning_outer_loop.thisN,learning_outer_loop.thisIndex,learning_inner_loop.thisRepN,learning_inner_loop.thisTrialN,learning_inner_loop.thisN,learning_inner_loop.thisIndex,learning_estimation_outer_loop.thisRepN,learning_estimation_outer_loop.thisTrialN,learning_estimation_outer_loop.thisN,learning_estimation_outer_loop.thisIndex,learning_estimation_inner_loop.thisRepN,learning_estimation_inner_loop.thisTrialN,learning_estimation_inner_loop.thisN,learning_estimation_inner_loop.thisIndex,reversal_outer_loop.thisRepN,reversal_outer_loop.thisTrialN,reversal_outer_loop.thisN,reversal_outer_loop.thisIndex,reversal_inner_loop.thisRepN,reversal_inner_loop.thisTrialN,reversal_inner_loop.thisN,reversal_inner_loop.thisIndex,reversal_estimation_outer_loop.thisRepN,reversal_estimation_outer_loop.thisTrialN,reversal_estimation_outer_loop.thisN,reversal_estimation_outer_loop.thisIndex,reversal_estimation_inner_loop.thisRepN,reversal_estimation_inner_loop.thisTrialN,reversal_estimation_inner_loop.thisN,reversal_estimation_inner_loop.thisIndex,skipped,total_trial_counter,trial_num,left_right_flip,left_image_file,right_image_file,clicked_stimulus_side,side,clicked_stimulus,version,high_prob_image_file,low_prob_image_file,choice_a,choice_b,pair_type,correct,trial_feedback_random,reward,trial_type,overall_time_after_trial,score,estimation_rating.started,estimation_exp1.png,estimation_rating.response,estimation_rating.rt,estimation_rating.history,estimation_exp2.png,estimation_exp3.png,estimation_exp4.png,total_learning_time,total_correct,learning_correct,reversal_correct,total_reversal_time,extra_block,participant,date,expName,psychopyVersion,frameRate,ver,
0,exp1.png,exp2.png,,0,0,0,0,0,0,0,0,,,,,,,,,,,,,,,,,,,,,,,,,True,,,,,,,,,,,,,,,,,,,,,,,,,,,,,,,,,,,sub_840,2025-03-03_11h12.50.793,Reversal,2023.1.3,60.135183893105086,4,
1,exp3.png,exp4.png,,0,0,0,0,0,1,1,1,,,,,,,,,,,,,,,,,,,,,,,,,False,0,1,True,exp4.png,exp3.png,trial_left_image,1,exp4.png,4,exp4.png,exp3.png,1,3,reversed,correct,0.2066105258040104,0,invalid_lose,9.832487799999399,0,,,,,,,,,,,,,,,sub_840,2025-03-03_11h12.50.793,Reversal,2023.1.3,60.135183893105086,4,
2,exp1.png,exp2.png,,0,0,0,0,0,2,2,2,,,,,,,,,,,,,,,,,,,,,,,,,False,1,2,False,exp1.png,exp2.png,trial_right_image,-1,exp2.png,4,exp2.png,exp1.png,1,1,non-reversed,correct,0.1615021632584197,0,invalid_lose,16.558045400000083,0,,,,,,,,,,,,,,,sub_840,2025-03-03_11h12.50.793,Reversal,2023.1.3,60.135183893105086,4,
3,exp3.png,exp4.png,,0,0,0,0,0,3,3,3,,,,,,,,,,,,,,,,,,,,,,,,,False,2,3,False,exp3.png,exp4.png,trial_left_image,1,exp3.png,4,exp4.png,exp3.png,0,4,reversed,incorrect,0.6116772509616061,0,valid_lose,22.29575079999995,0,,,,,,,,,,,,,,,sub_840,2025-03-03_11h12.50.793,Reversal,2023.1.3,60.135183893105086,4,
4,exp1.png,exp2.png,,0,0,0,0,0,4,4,4,,,,,,,,,,,,,,,,,,,,,,,,,False,3,4,True,exp2.png,exp1.png,trial_left_image,1,exp2.png,4,exp2.png,exp1.png,1,1,non-reversed,correct,0.22876509590455096,0,invalid_lose,30.023463399999855,0,,,,,,,,,,,,,,,sub_840,2025-03-03_11h12.50.793,Reversal,2023.1.3,60.135183893105086,4,
5,exp3.png,exp4.png,,0,0,0,0,0,5,5,5,,,,,,,,,,,,,,,,,,,,,,,,,False,4,5,False,exp3.png,exp4.png,trial_right_image,-1,exp4.png,4,exp4.png,exp3.png,1,3,reversed,correct,0.5382150073333078,1,valid_win,36.86847099999977,1,,,,,,,,,,,,,,,sub_840,2025-03-03_11h12.50.793,Reversal,2023.1.3,60.135183893105086,4,
6,exp1.png,exp2.png,,0,0,0,0,0,6,6,6,,,,,,,,,,,,,,,,,,,,,,,,,False,5,6,False,exp1.png,exp2.png,trial_right_image,-1,exp2.png,4,exp2.png,exp1.png,1,1,non-reversed,correct,0.5196503770163153,1,valid_win,42.702015899999424,2,,,,,,,,,,,,,,,sub_840,2025-03-03_11h12.50.793,Reversal,2023.1.3,60.135183893105086,4,
7,exp3.png,exp4.png,,0,0,0,0,0,7,7,7,,,,,,,,,,,,,,,,,,,,,,,,,False,6,7,True,exp4.png,exp3.png,trial_right_image,-1,exp3.png,4,exp4.png,exp3.png,0,4,reversed,incorrect,0.23680452750169523,1,invalid_win,48.33659709999938,3,,,,,,,,,,,,,,,sub_840,2025-03-03_11h12.50.793,Reversal,2023.1.3,60.135183893105086,4,
8,exp1.png,exp2.png,,0,0,0,0,0,8,8,8,,,,,,,,,,,,,,,,,,,,,,,,,False,7,8,False,exp1.png,exp2.png,trial_right_image,-1,exp2.png,4,exp2.png,exp1.png,1,1,non-reversed,correct,0.9316826106798773,1,valid_win,54.280189600000085,4,,,,,,,,,,,,,,,sub_840,2025-03-03_11h12.50.793,Reversal,2023.1.3,60.135183893105086,4,
9,exp3.png,exp4.png,,0,0,0,0,0,9,9,9,,,,,,,,,,,,,,,,,,,,,,,,,False,8,9,True,exp4.png,exp3.png,trial_right_image,-1,exp3.png,4,exp4.png,exp3.png,0,4,reversed,incorrect,0.05389202727222342,1,invalid_win,59.35031489999983,5,,,,,,,,,,,,,,,sub_840,2025-03-03_11h12.50.793,Reversal,2023.1.3,60.135183893105086,4,
10,exp1.png,exp2.png,,0,0,0,0,0,10,10,10,,,,,,,,,,,,,,,,,,,,,,,,,False,9,10,False,exp1.png,exp2.png,trial_right_image,-1,exp2.png,4,exp2.png,exp1.png,1,1,non-reversed,correct,0.3302637762399223,1,valid_win,64.89293039999939,6,,,,,,,,,,,,,,,sub_840,2025-03-03_11h12.50.793,Reversal,2023.1.3,60.135183893105086,4,
11,exp3.png,exp4.png,,0,0,0,0,0,11,11,11,,,,,,,,,,,,,,,,,,,,,,,,,False,10,11,True,exp4.png,exp3.png,trial_right_image,-1,exp3.png,4,exp4.png,exp3.png,0,4,reversed,incorrect,0.5844504736260147,0,valid_lose,69.14445119999982,6,,,,,,,,,,,,,,,sub_840,2025-03-03_11h12.50.793,Reversal,2023.1.3,60.135183893105086,4,
12,exp1.png,exp2.png,,0,0,0,0,0,12,12,12,,,,,,,,,,,,,,,,,,,,,,,,,False,11,12,False,exp1.png,exp2.png,trial_left_image,1,exp1.png,4,exp2.png,exp1.png,0,2,non-reversed,incorrect,0.09511094187801372,1,invalid_win,73.38594860000012,7,,,,,,,,,,,,,,,sub_840,2025-03-03_11h12.50.793,Reversal,2023.1.3,60.135183893105086,4,
13,exp3.png,exp4.png,,0,0,0,0,0,13,13,13,,,,,,,,,,,,,,,,,,,,,,,,,False,12,13,True,exp4.png,exp3.png,trial_left_image,1,exp4.png,4,exp4.png,exp3.png,1,3,reversed,correct,0.2376581073810753,0,invalid_lose,77.48868729999958,7,,,,,,,,,,,,,,,sub_840,2025-03-03_11h12.50.793,Reversal,2023.1.3,60.135183893105086,4,
14,exp1.png,exp2.png,,0,0,0,0,0,14,14,14,,,,,,,,,,,,,,,,,,,,,,,,,False,13,14,True,exp2.png,exp1.png,trial_right_image,-1,exp1.png,4,exp2.png,exp1.png,0,2,non-reversed,incorrect,0.844701446247292,0,valid_lose,82.65449110000009,7,,,,,,,,,,,,,,,sub_840,2025-03-03_11h12.50.793,Reversal,2023.1.3,60.135183893105086,4,
15,exp3.png,exp4.png,,0,0,0,0,0,15,15,15,,,,,,,,,,,,,,,,,,,,,,,,,False,14,15,False,exp3.png,exp4.png,trial_right_image,-1,exp4.png,4,exp4.png,exp3.png,1,3,reversed,correct,0.510386454202463,1,valid_win,86.67376349999995,8,,,,,,,,,,,,,,,sub_840,2025-03-03_11h12.50.793,Reversal,2023.1.3,60.135183893105086,4,
16,exp1.png,exp2.png,,0,0,0,0,0,16,16,16,,,,,,,,,,,,,,,,,,,,,,,,,False,15,16,True,exp2.png,exp1.png,trial_right_image,-1,exp1.png,4,exp2.png,exp1.png,0,2,non-reversed,incorrect,0.3926168629392901,0,valid_lose,91.16684209999949,8,,,,,,,,,,,,,,,sub_840,2025-03-03_11h12.50.793,Reversal,2023.1.3,60.135183893105086,4,
17,exp3.png,exp4.png,,0,0,0,0,0,17,17,17,,,,,,,,,,,,,,,,,,,,,,,,,False,16,17,True,exp4.png,exp3.png,trial_right_image,-1,exp3.png,4,exp4.png,exp3.png,0,4,reversed,incorrect,0.4570699203376172,0,valid_lose,98.38123589999941,8,,,,,,,,,,,,,,,sub_840,2025-03-03_11h12.50.793,Reversal,2023.1.3,60.135183893105086,4,
18,exp1.png,exp2.png,,0,0,0,0,0,18,18,18,,,,,,,,,,,,,,,,,,,,,,,,,False,17,18,True,exp2.png,exp1.png,trial_left_image,1,exp2.png,4,exp2.png,exp1.png,1,1,non-reversed,correct,0.6510586781709046,1,valid_win,102.53055330000007,9,,,,,,,,,,,,,,,sub_840,2025-03-03_11h12.50.793,Reversal,2023.1.3,60.135183893105086,4,
19,exp3.png,exp4.png,,0,0,0,0,0,19,19,19,,,,,,,,,,,,,,,,,,,,,,,,,False,18,19,False,exp3.png,exp4.png,trial_left_image,1,exp3.png,4,exp4.png,exp3.png,0,4,reversed,incorrect,0.5423519472877905,0,valid_lose,106.54720319999979,9,,,,,,,,,,,,,,,sub_840,2025-03-03_11h12.50.793,Reversal,2023.1.3,60.135183893105086,4,
20,exp1.png,exp2.png,,0,0,0,0,0,20,20,20,,,,,,,,,,,,,,,,,,,,,,,,,False,19,20,False,exp1.png,exp2.png,trial_left_image,1,exp1.png,4,exp2.png,exp1.png,0,2,non-reversed,incorrect,0.651535051788657,0,valid_lose,111.85184449999997,9,,,,,,,,,,,,,,,sub_840,2025-03-03_11h12.50.793,Reversal,2023.1.3,60.135183893105086,4,
,,,exp1.png,0,0,0,0,,,,,0,0,0,0,0,0,0,0,,,,,,,,,,,,,,,,,,,,,,,,,,,,,,,,,,,,,,202.54715380000016,77.0,77.0,14.429761999999755,"[(77.0, 14.429761999999755)]",,,,,,,,,,sub_840,2025-03-03_11h12.50.793,Reversal,2023.1.3,60.135183893105086,4,
,,,exp2.png,0,0,0,0,,,,,0,0,0,0,0,1,1,1,,,,,,,,,,,,,,,,,,,,,,,,,,,,,,,,,,,,,,218.07612380000046,,100.0,8.932441400000243,"[(100.0, 8.932441400000243)]",100.0,,,,,,,,,sub_840,2025-03-03_11h12.50.793,Reversal,2023.1.3,60.135183893105086,4,
,,,exp3.png,0,0,0,0,,,,,0,0,0,0,0,2,2,2,,,,,,,,,,,,,,,,,,,,,,,,,,,,,,,,,,,,,,228.66982850000022,,15.0,11.474477800000386,"[(15.0, 11.474477800000386)]",,15.0,,,,,,,,sub_840,2025-03-03_11h12.50.793,Reversal,2023.1.3,60.135183893105086,4,
,,,exp4.png,0,0,0,0,,,,,0,0,0,0,0,3,3,3,,,,,,,,,,,,,,,,,,,,,,,,,,,,,,,,,,,,,,241.40599020000082,,88.0,2.361137400000189,"[(88.0, 2.361137400000189)]",,,88.0,,,,,,,sub_840,2025-03-03_11h12.50.793,Reversal,2023.1.3,60.135183893105086,4,
0,exp1.png,exp2.png,,1,0,1,0,0,0,0,0,,,,,,,,,,,,,,,,,,,,,,,,,True,,,,,,,,,,,,,,,,,,,,,,,,,,,,,,,,,,,sub_840,2025-03-03_11h12.50.793,Reversal,2023.1.3,60.135183893105086,4,
1,exp3.png,exp4.png,,1,0,1,0,0,1,1,1,,,,,,,,,,,,,,,,,,,,,,,,,False,20,21,False,exp3.png,exp4.png,trial_right_image,-1,exp4.png,4,exp4.png,exp3.png,1,3,reversed,correct,0.5982970422521885,1,valid_win,159.31053129999964,10,,,,,,,,,,,,,,,sub_840,2025-03-03_11h12.50.793,Reversal,2023.1.3,60.135183893105086,4,
2,exp1.png,exp2.png,,1,0,1,0,0,2,2,2,,,,,,,,,,,,,,,,,,,,,,,,,False,21,22,True,exp2.png,exp1.png,trial_right_image,-1,exp1.png,4,exp2.png,exp1.png,0,2,non-reversed,incorrect,0.709328368468925,0,valid_lose,163.35914739999953,10,,,,,,,,,,,,,,,sub_840,2025-03-03_11h12.50.793,Reversal,2023.1.3,60.135183893105086,4,
3,exp3.png,exp4.png,,1,0,1,0,0,3,3,3,,,,,,,,,,,,,,,,,,,,,,,,,False,22,23,False,exp3.png,exp4.png,trial_right_image,-1,exp4.png,4,exp4.png,exp3.png,1,3,reversed,correct,0.5524208768410744,1,valid_win,167.42410680000012,11,,,,,,,,,,,,,,,sub_840,2025-03-03_11h12.50.793,Reversal,2023.1.3,60.135183893105086,4,
4,exp1.png,exp2.png,,1,0,1,0,0,4,4,4,,,,,,,,,,,,,,,,,,,,,,,,,False,23,24,True,exp2.png,exp1.png,trial_left_image,1,exp2.png,4,exp2.png,exp1.png,1,1,non-reversed,correct,0.4878662397819329,1,valid_win,171.5566291999994,12,,,,,,,,,,,,,,,sub_840,2025-03-03_11h12.50.793,Reversal,2023.1.3,60.135183893105086,4,
5,exp3.png,exp4.png,,1,0,1,0,0,5,5,5,,,,,,,,,,,,,,,,,,,,,,,,,False,24,25,True,exp4.png,exp3.png,trial_right_image,-1,exp3.png,4,exp4.png,exp3.png,0,4,reversed,incorrect,0.989984803932256,0,valid_lose,175.55549679999967,12,,,,,,,,,,,,,,,sub_840,2025-03-03_11h12.50.793,Reversal,2023.1.3,60.135183893105086,4,
6,exp1.png,exp2.png,,1,0,1,0,0,6,6,6,,,,,,,,,,,,,,,,,,,,,,,,,False,25,26,True,exp2.png,exp1.png,trial_left_image,1,exp2.png,4,exp2.png,exp1.png,1,1,non-reversed,correct,0.19936603656183904,0,invalid_lose,179.71999589999996,12,,,,,,,,,,,,,,,sub_840,2025-03-03_11h12.50.793,Reversal,2023.1.3,60.135183893105086,4,
7,exp3.png,exp4.png,,1,0,1,0,0,7,7,7,,,,,,,,,,,,,,,,,,,,,,,,,False,26,27,False,exp3.png,exp4.png,trial_right_image,-1,exp4.png,4,exp4.png,exp3.png,1,3,reversed,correct,0.8339336028917853,1,valid_win,183.8200410999998,13,,,,,,,,,,,,,,,sub_840,2025-03-03_11h12.50.793,Reversal,2023.1.3,60.135183893105086,4,
8,exp1.png,exp2.png,,1,0,1,0,0,8,8,8,,,,,,,,,,,,,,,,,,,,,,,,,False,27,28,True,exp2.png,exp1.png,trial_right_image,-1,exp1.png,4,exp2.png,exp1.png,0,2,non-reversed,incorrect,0.5062234521296692,0,valid_lose,187.78443489999972,13,,,,,,,,,,,,,,,sub_840,2025-03-03_11h12.50.793,Reversal,2023.1.3,60.135183893105086,4,
9,exp3.png,exp4.png,,1,0,1,0,0,9,9,9,,,,,,,,,,,,,,,,,,,,,,,,,False,28,29,False,exp3.png,exp4.png,trial_left_image,1,exp3.png,4,exp4.png,exp3.png,0,4,reversed,incorrect,0.9108648212794276,0,valid_lose,192.01638420000018,13,,,,,,,,,,,,,,,sub_840,2025-03-03_11h12.50.793,Reversal,2023.1.3,60.135183893105086,4,
10,exp1.png,exp2.png,,1,0,1,0,0,10,10,10,,,,,,,,,,,,,,,,,,,,,,,,,False,29,30,False,exp1.png,exp2.png,trial_right_image,-1,exp2.png,4,exp2.png,exp1.png,1,1,non-reversed,correct,0.05988095881904676,0,invalid_lose,195.9162667999999,13,,,,,,,,,,,,,,,sub_840,2025-03-03_11h12.50.793,Reversal,2023.1.3,60.135183893105086,4,
11,exp3.png,exp4.png,,1,0,1,0,0,11,11,11,,,,,,,,,,,,,,,,,,,,,,,,,False,30,31,False,exp3.png,exp4.png,trial_right_image,-1,exp4.png,4,exp4.png,exp3.png,1,3,reversed,correct,0.025555114702582427,0,invalid_lose,200.76323859999957,13,,,,,,,,,,,,,,,sub_840,2025-03-03_11h12.50.793,Reversal,2023.1.3,60.135183893105086,4,
12,exp1.png,exp2.png,,1,0,1,0,0,12,12,12,,,,,,,,,,,,,,,,,,,,,,,,,False,31,32,False,exp1.png,exp2.png,trial_left_image,1,exp1.png,4,exp2.png,exp1.png,0,2,non-reversed,incorrect,0.8239586210947837,0,valid_lose,204.86241879999943,13,,,,,,,,,,,,,,,sub_840,2025-03-03_11h12.50.793,Reversal,2023.1.3,60.135183893105086,4,
13,exp3.png,exp4.png,,1,0,1,0,0,13,13,13,,,,,,,,,,,,,,,,,,,,,,,,,False,32,33,True,exp4.png,exp3.png,trial_right_image,-1,exp3.png,4,exp4.png,exp3.png,0,4,reversed,incorrect,0.5929834492650371,0,valid_lose,208.84369809999953,13,,,,,,,,,,,,,,,sub_840,2025-03-03_11h12.50.793,Reversal,2023.1.3,60.135183893105086,4,
14,exp1.png,exp2.png,,1,0,1,0,0,14,14,14,,,,,,,,,,,,,,,,,,,,,,,,,False,33,34,False,exp1.png,exp2.png,trial_right_image,-1,exp2.png,4,exp2.png,exp1.png,1,1,non-reversed,correct,0.7320503837229013,1,valid_win,214.12504959999933,14,,,,,,,,,,,,,,,sub_840,2025-03-03_11h12.50.793,Reversal,2023.1.3,60.135183893105086,4,
15,exp3.png,exp4.png,,1,0,1,0,0,15,15,15,,,,,,,,,,,,,,,,,,,,,,,,,False,34,35,False,exp3.png,exp4.png,trial_left_image,1,exp3.png,4,exp4.png,exp3.png,0,4,reversed,incorrect,0.09821063871568303,1,invalid_win,218.44143649999933,15,,,,,,,,,,,,,,,sub_840,2025-03-03_11h12.50.793,Reversal,2023.1.3,60.135183893105086,4,
16,exp1.png,exp2.png,,1,0,1,0,0,16,16,16,,,,,,,,,,,,,,,,,,,,,,,,,False,35,36,True,exp2.png,exp1.png,trial_right_image,-1,exp1.png,4,exp2.png,exp1.png,0,2,non-reversed,incorrect,0.0013116669095730726,1,invalid_win,222.35570860000007,16,,,,,,,,,,,,,,,sub_840,2025-03-03_11h12.50.793,Reversal,2023.1.3,60.135183893105086,4,
17,exp3.png,exp4.png,,1,0,1,0,0,17,17,17,,,,,,,,,,,,,,,,,,,,,,,,,False,36,37,False,exp3.png,exp4.png,trial_left_image,1,exp3.png,4,exp4.png,exp3.png,0,4,reversed,incorrect,0.018235597934650127,1,invalid_win,226.57136629999968,17,,,,,,,,,,,,,,,sub_840,2025-03-03_11h12.50.793,Reversal,2023.1.3,60.135183893105086,4,
18,exp1.png,exp2.png,,1,0,1,0,0,18,18,18,,,,,,,,,,,,,,,,,,,,,,,,,False,37,38,True,exp2.png,exp1.png,trial_right_image,-1,exp1.png,4,exp2.png,exp1.png,0,2,non-reversed,incorrect,0.054054394798507155,1,invalid_win,230.6354554999998,18,,,,,,,,,,,,,,,sub_840,2025-03-03_11h12.50.793,Reversal,2023.1.3,60.135183893105086,4,
19,exp3.png,exp4.png,,1,0,1,0,0,19,19,19,,,,,,,,,,,,,,,,,,,,,,,,,False,38,39,True,exp4.png,exp3.png,trial_left_image,1,exp4.png,4,exp4.png,exp3.png,1,3,reversed,correct,0.26153093273811767,1,valid_win,234.60170629999993,19,,,,,,,,,,,,,,,sub_840,2025-03-03_11h12.50.793,Reversal,2023.1.3,60.135183893105086,4,
20,exp1.png,exp2.png,,1,0,1,0,0,20,20,20,,,,,,,,,,,,,,,,,,,,,,,,,False,39,40,True,exp2.png,exp1.png,trial_right_image,-1,exp1.png,4,exp2.png,exp1.png,0,2,non-reversed,incorrect,8.720472795320511e-05,1,invalid_win,238.58320009999989,20,,,,,,,,,,,,,,,sub_840,2025-03-03_11h12.50.793,Reversal,2023.1.3,60.135183893105086,4,
,,,exp1.png,1,0,1,0,,,,,0,0,0,0,0,0,0,0,,,,,,,,,,,,,,,,,,,,,,,,,,,,,,,,,,,,,,329.2222257000003,100.0,100.0,7.45746969999982,"[(100.0, 7.45746969999982)]",,,,,,,,,,sub_840,2025-03-03_11h12.50.793,Reversal,2023.1.3,60.135183893105086,4,
,,,exp2.png,1,0,1,0,,,,,0,0,0,0,0,1,1,1,,,,,,,,,,,,,,,,,,,,,,,,,,,,,,,,,,,,,,337.1923931000001,,None,None,[],,,,,,,,,,sub_840,2025-03-03_11h12.50.793,Reversal,2023.1.3,60.135183893105086,4,
,,,exp3.png,1,0,1,0,,,,,0,0,0,0,0,2,2,2,,,,,,,,,,,,,,,,,,,,,,,,,,,,,,,,,,,,,,337.70000210000035,,12.0,3.5474082000000635,"[(12.0, 3.5474082000000635)]",,12.0,,,,,,,,sub_840,2025-03-03_11h12.50.793,Reversal,2023.1.3,60.135183893105086,4,
,,,exp4.png,1,0,1,0,,,,,0,0,0,0,0,3,3,3,,,,,,,,,,,,,,,,,,,,,,,,,,,,,,,,,,,,,,342.55338590000065,,96.0,2.702308000000812,"[(96.0, 2.702308000000812)]",,,96.0,,,,,,,sub_840,2025-03-03_11h12.50.793,Reversal,2023.1.3,60.135183893105086,4,
0,exp1.png,exp2.png,,2,0,2,0,0,0,0,0,,,,,,,,,,,,,,,,,,,,,,,,,True,,,,,,,,,,,,,,,,,,,,,,,,,,,,,,,,,,,sub_840,2025-03-03_11h12.50.793,Reversal,2023.1.3,60.135183893105086,4,
1,exp3.png,exp4.png,,2,0,2,0,0,1,1,1,,,,,,,,,,,,,,,,,,,,,,,,,False,40,41,False,exp3.png,exp4.png,trial_right_image,-1,exp4.png,4,exp4.png,exp3.png,1,3,reversed,correct,0.06564299060425616,0,invalid_lose,263.47513359999994,20,,,,,,,,,,,,,,,sub_840,2025-03-03_11h12.50.793,Reversal,2023.1.3,60.135183893105086,4,
2,exp1.png,exp2.png,,2,0,2,0,0,2,2,2,,,,,,,,,,,,,,,,,,,,,,,,,False,41,42,True,exp2.png,exp1.png,trial_right_image,-1,exp1.png,4,exp2.png,exp1.png,0,2,non-reversed,incorrect,0.5755870477745711,0,valid_lose,268.2065126999996,20,,,,,,,,,,,,,,,sub_840,2025-03-03_11h12.50.793,Reversal,2023.1.3,60.135183893105086,4,
3,exp3.png,exp4.png,,2,0,2,0,0,3,3,3,,,,,,,,,,,,,,,,,,,,,,,,,False,42,43,True,exp4.png,exp3.png,trial_left_image,1,exp4.png,4,exp4.png,exp3.png,1,3,reversed,correct,0.10484238312528571,0,invalid_lose,272.43861259999994,20,,,,,,,,,,,,,,,sub_840,2025-03-03_11h12.50.793,Reversal,2023.1.3,60.135183893105086,4,
4,exp1.png,exp2.png,,2,0,2,0,0,4,4,4,,,,,,,,,,,,,,,,,,,,,,,,,False,43,44,True,exp2.png,exp1.png,trial_right_image,-1,exp1.png,4,exp2.png,exp1.png,0,2,non-reversed,incorrect,0.9876368431212313,0,valid_lose,277.9385040999996,20,,,,,,,,,,,,,,,sub_840,2025-03-03_11h12.50.793,Reversal,2023.1.3,60.135183893105086,4,
5,exp3.png,exp4.png,,2,0,2,0,0,5,5,5,,,,,,,,,,,,,,,,,,,,,,,,,False,44,45,False,exp3.png,exp4.png,trial_right_image,-1,exp4.png,4,exp4.png,exp3.png,1,3,reversed,correct,0.9391283498373981,1,valid_win,281.81940440000017,21,,,,,,,,,,,,,,,sub_840,2025-03-03_11h12.50.793,Reversal,2023.1.3,60.135183893105086,4,
6,exp1.png,exp2.png,,2,0,2,0,0,6,6,6,,,,,,,,,,,,,,,,,,,,,,,,,False,45,46,True,exp2.png,exp1.png,trial_right_image,-1,exp1.png,4,exp2.png,exp1.png,0,2,non-reversed,incorrect,0.7571424378222378,0,valid_lose,285.9190431999996,21,,,,,,,,,,,,,,,sub_840,2025-03-03_11h12.50.793,Reversal,2023.1.3,60.135183893105086,4,
7,exp3.png,exp4.png,,2,0,2,0,0,7,7,7,,,,,,,,,,,,,,,,,,,,,,,,,False,46,47,False,exp3.png,exp4.png,trial_right_image,-1,exp4.png,4,exp4.png,exp3.png,1,3,reversed,correct,0.10009034544804896,0,invalid_lose,289.96663589999935,21,,,,,,,,,,,,,,,sub_840,2025-03-03_11h12.50.793,Reversal,2023.1.3,60.135183893105086,4,
8,exp1.png,exp2.png,,2,0,2,0,0,8,8,8,,,,,,,,,,,,,,,,,,,,,,,,,False,47,48,True,exp2.png,exp1.png,trial_right_image,-1,exp1.png,4,exp2.png,exp1.png,0,2,non-reversed,incorrect,0.18435313741049264,1,invalid_win,295.31489239999974,22,,,,,,,,,,,,,,,sub_840,2025-03-03_11h12.50.793,Reversal,2023.1.3,60.135183893105086,4,
9,exp3.png,exp4.png,,2,0,2,0,0,9,9,9,,,,,,,,,,,,,,,,,,,,,,,,,False,48,49,True,exp4.png,exp3.png,trial_left_image,1,exp4.png,4,exp4.png,exp3.png,1,3,reversed,correct,0.08837199525880834,0,invalid_lose,299.56285469999966,22,,,,,,,,,,,,,,,sub_840,2025-03-03_11h12.50.793,Reversal,2023.1.3,60.135183893105086,4,
10,exp1.png,exp2.png,,2,0,2,0,0,10,10,10,,,,,,,,,,,,,,,,,,,,,,,,,False,49,50,False,exp1.png,exp2.png,trial_right_image,-1,exp2.png,4,exp2.png,exp1.png,1,1,non-reversed,correct,0.8159146982119663,1,valid_win,303.8279705999994,23,,,,,,,,,,,,,,,sub_840,2025-03-03_11h12.50.793,Reversal,2023.1.3,60.135183893105086,4,
11,exp3.png,exp4.png,,2,0,2,0,0,11,11,11,,,,,,,,,,,,,,,,,,,,,,,,,False,50,51,True,exp4.png,exp3.png,trial_left_image,1,exp4.png,4,exp4.png,exp3.png,1,3,reversed,correct,0.9662474304563112,1,valid_win,308.0607280999993,24,,,,,,,,,,,,,,,sub_840,2025-03-03_11h12.50.793,Reversal,2023.1.3,60.135183893105086,4,
12,exp1.png,exp2.png,,2,0,2,0,0,12,12,12,,,,,,,,,,,,,,,,,,,,,,,,,False,51,52,False,exp1.png,exp2.png,trial_right_image,-1,exp2.png,4,exp2.png,exp1.png,1,1,non-reversed,correct,0.12703590257642383,0,invalid_lose,312.47578389999944,24,,,,,,,,,,,,,,,sub_840,2025-03-03_11h12.50.793,Reversal,2023.1.3,60.135183893105086,4,
13,exp3.png,exp4.png,,2,0,2,0,0,13,13,13,,,,,,,,,,,,,,,,,,,,,,,,,False,52,53,True,exp4.png,exp3.png,trial_left_image,1,exp4.png,4,exp4.png,exp3.png,1,3,reversed,correct,0.1676559199484532,0,invalid_lose,317.27347539999937,24,,,,,,,,,,,,,,,sub_840,2025-03-03_11h12.50.793,Reversal,2023.1.3,60.135183893105086,4,
14,exp1.png,exp2.png,,2,0,2,0,0,14,14,14,,,,,,,,,,,,,,,,,,,,,,,,,False,53,54,False,exp1.png,exp2.png,trial_left_image,1,exp1.png,4,exp2.png,exp1.png,0,2,non-reversed,incorrect,0.3707480508413493,0,valid_lose,321.42265150000003,24,,,,,,,,,,,,,,,sub_840,2025-03-03_11h12.50.793,Reversal,2023.1.3,60.135183893105086,4,
15,exp3.png,exp4.png,,2,0,2,0,0,15,15,15,,,,,,,,,,,,,,,,,,,,,,,,,False,54,55,False,exp3.png,exp4.png,trial_left_image,1,exp3.png,4,exp4.png,exp3.png,0,4,reversed,incorrect,0.4834394069568769,0,valid_lose,325.2725448000001,24,,,,,,,,,,,,,,,sub_840,2025-03-03_11h12.50.793,Reversal,2023.1.3,60.135183893105086,4,
16,exp1.png,exp2.png,,2,0,2,0,0,16,16,16,,,,,,,,,,,,,,,,,,,,,,,,,False,55,56,False,exp1.png,exp2.png,trial_right_image,-1,exp2.png,4,exp2.png,exp1.png,1,1,non-reversed,correct,0.3122073298154949,1,valid_win,329.50286659999983,25,,,,,,,,,,,,,,,sub_840,2025-03-03_11h12.50.793,Reversal,2023.1.3,60.135183893105086,4,
17,exp3.png,exp4.png,,2,0,2,0,0,17,17,17,,,,,,,,,,,,,,,,,,,,,,,,,False,56,57,True,exp4.png,exp3.png,trial_right_image,-1,exp3.png,4,exp4.png,exp3.png,0,4,reversed,incorrect,0.6268547625004494,0,valid_lose,333.43513079999957,25,,,,,,,,,,,,,,,sub_840,2025-03-03_11h12.50.793,Reversal,2023.1.3,60.135183893105086,4,
18,exp1.png,exp2.png,,2,0,2,0,0,18,18,18,,,,,,,,,,,,,,,,,,,,,,,,,False,57,58,False,exp1.png,exp2.png,trial_right_image,-1,exp2.png,4,exp2.png,exp1.png,1,1,non-reversed,correct,0.18959399905377805,0,invalid_lose,337.3173092999996,25,,,,,,,,,,,,,,,sub_840,2025-03-03_11h12.50.793,Reversal,2023.1.3,60.135183893105086,4,
19,exp3.png,exp4.png,,2,0,2,0,0,19,19,19,,,,,,,,,,,,,,,,,,,,,,,,,False,58,59,True,exp4.png,exp3.png,trial_right_image,-1,exp3.png,4,exp4.png,exp3.png,0,4,reversed,incorrect,0.007501152403388334,1,invalid_win,343.94883819999995,26,,,,,,,,,,,,,,,sub_840,2025-03-03_11h12.50.793,Reversal,2023.1.3,60.135183893105086,4,
20,exp1.png,exp2.png,,2,0,2,0,0,20,20,20,,,,,,,,,,,,,,,,,,,,,,,,,False,59,60,False,exp1.png,exp2.png,trial_left_image,1,exp1.png,4,exp2.png,exp1.png,0,2,non-reversed,incorrect,0.23501737792849497,1,invalid_win,348.86419769999975,27,,,,,,,,,,,,,,,sub_840,2025-03-03_11h12.50.793,Reversal,2023.1.3,60.135183893105086,4,
,,,exp1.png,2,0,2,0,,,,,0,0,0,0,0,0,0,0,,,,,,,,,,,,,,,,,,,,,,,,,,,,,,,,,,,,,,439.48742440000024,100.0,100.0,2.554880800000319,"[(100.0, 2.554880800000319)]",,,,,,,,,,sub_840,2025-03-03_11h12.50.793,Reversal,2023.1.3,60.135183893105086,4,
,,,exp2.png,2,0,2,0,,,,,0,0,0,0,0,1,1,1,,,,,,,,,,,,,,,,,,,,,,,,,,,,,,,,,,,,,,443.1235564000008,,2.0,2.23065619999943,"[(2.0, 2.23065619999943)]",2.0,,,,,,,,,sub_840,2025-03-03_11h12.50.793,Reversal,2023.1.3,60.135183893105086,4,
,,,exp3.png,2,0,2,0,,,,,0,0,0,0,0,2,2,2,,,,,,,,,,,,,,,,,,,,,,,,,,,,,,,,,,,,,,446.5222113,,None,None,[],,,,,,,,,,sub_840,2025-03-03_11h12.50.793,Reversal,2023.1.3,60.135183893105086,4,
,,,exp4.png,2,0,2,0,,,,,0,0,0,0,0,3,3,3,,,,,,,,,,,,,,,,,,,,,,,,,,,,,,,,,,,,,,450.66275190000033,,73.0,7.87018100000023,"[(73.0, 7.87018100000023)]",,,73.0,,,,,,,sub_840,2025-03-03_11h12.50.793,Reversal,2023.1.3,60.135183893105086,4,
0,exp1.png,exp2.png,,3,0,3,0,0,0,0,0,,,,,,,,,,,,,,,,,,,,,,,,,True,,,,,,,,,,,,,,,,,,,,,,,,,,,,,,,,,,,sub_840,2025-03-03_11h12.50.793,Reversal,2023.1.3,60.135183893105086,4,
1,exp3.png,exp4.png,,3,0,3,0,0,1,1,1,,,,,,,,,,,,,,,,,,,,,,,,,False,60,61,False,exp3.png,exp4.png,trial_right_image,-1,exp4.png,4,exp4.png,exp3.png,1,3,reversed,correct,0.8271699437747402,1,valid_win,375.22052470000017,28,,,,,,,,,,,,,,,sub_840,2025-03-03_11h12.50.793,Reversal,2023.1.3,60.135183893105086,4,
2,exp1.png,exp2.png,,3,0,3,0,0,2,2,2,,,,,,,,,,,,,,,,,,,,,,,,,False,61,62,True,exp2.png,exp1.png,trial_right_image,-1,exp1.png,4,exp2.png,exp1.png,0,2,non-reversed,incorrect,0.7813009571804527,0,valid_lose,383.8174978999996,28,,,,,,,,,,,,,,,sub_840,2025-03-03_11h12.50.793,Reversal,2023.1.3,60.135183893105086,4,
3,exp3.png,exp4.png,,3,0,3,0,0,3,3,3,,,,,,,,,,,,,,,,,,,,,,,,,False,62,63,True,exp4.png,exp3.png,trial_right_image,-1,exp3.png,4,exp4.png,exp3.png,0,4,reversed,incorrect,0.31244239171712296,0,valid_lose,389.86552010000014,28,,,,,,,,,,,,,,,sub_840,2025-03-03_11h12.50.793,Reversal,2023.1.3,60.135183893105086,4,
4,exp1.png,exp2.png,,3,0,3,0,0,4,4,4,,,,,,,,,,,,,,,,,,,,,,,,,False,63,64,False,exp1.png,exp2.png,trial_left_image,1,exp1.png,4,exp2.png,exp1.png,0,2,non-reversed,incorrect,0.9245652461125003,0,valid_lose,395.1469783000002,28,,,,,,,,,,,,,,,sub_840,2025-03-03_11h12.50.793,Reversal,2023.1.3,60.135183893105086,4,
5,exp3.png,exp4.png,,3,0,3,0,0,5,5,5,,,,,,,,,,,,,,,,,,,,,,,,,False,64,65,False,exp3.png,exp4.png,trial_right_image,-1,exp4.png,4,exp4.png,exp3.png,1,3,reversed,correct,0.5789636429176126,1,valid_win,399.4619348999995,29,,,,,,,,,,,,,,,sub_840,2025-03-03_11h12.50.793,Reversal,2023.1.3,60.135183893105086,4,
6,exp1.png,exp2.png,,3,0,3,0,0,6,6,6,,,,,,,,,,,,,,,,,,,,,,,,,False,65,66,True,exp2.png,exp1.png,trial_left_image,1,exp2.png,4,exp2.png,exp1.png,1,1,non-reversed,correct,0.12151286815265205,0,invalid_lose,403.9114141,29,,,,,,,,,,,,,,,sub_840,2025-03-03_11h12.50.793,Reversal,2023.1.3,60.135183893105086,4,
7,exp3.png,exp4.png,,3,0,3,0,0,7,7,7,,,,,,,,,,,,,,,,,,,,,,,,,False,66,67,True,exp4.png,exp3.png,trial_left_image,1,exp4.png,4,exp4.png,exp3.png,1,3,reversed,correct,0.017271894572215785,0,invalid_lose,409.15914089999933,29,,,,,,,,,,,,,,,sub_840,2025-03-03_11h12.50.793,Reversal,2023.1.3,60.135183893105086,4,
8,exp1.png,exp2.png,,3,0,3,0,0,8,8,8,,,,,,,,,,,,,,,,,,,,,,,,,False,67,68,True,exp2.png,exp1.png,trial_right_image,-1,exp1.png,4,exp2.png,exp1.png,0,2,non-reversed,incorrect,0.06178784522086467,1,invalid_win,413.4080694999993,30,,,,,,,,,,,,,,,sub_840,2025-03-03_11h12.50.793,Reversal,2023.1.3,60.135183893105086,4,
9,exp3.png,exp4.png,,3,0,3,0,0,9,9,9,,,,,,,,,,,,,,,,,,,,,,,,,False,68,69,True,exp4.png,exp3.png,trial_right_image,-1,exp3.png,4,exp4.png,exp3.png,0,4,reversed,incorrect,0.8700503693104586,0,valid_lose,419.7054460999998,30,,,,,,,,,,,,,,,sub_840,2025-03-03_11h12.50.793,Reversal,2023.1.3,60.135183893105086,4,
10,exp1.png,exp2.png,,3,0,3,0,0,10,10,10,,,,,,,,,,,,,,,,,,,,,,,,,False,69,70,True,exp2.png,exp1.png,trial_left_image,1,exp2.png,4,exp2.png,exp1.png,1,1,non-reversed,correct,0.7189817241148141,1,valid_win,425.7378510999997,31,,,,,,,,,,,,,,,sub_840,2025-03-03_11h12.50.793,Reversal,2023.1.3,60.135183893105086,4,
11,exp3.png,exp4.png,,3,0,3,0,0,11,11,11,,,,,,,,,,,,,,,,,,,,,,,,,False,70,71,False,exp3.png,exp4.png,trial_left_image,1,exp3.png,4,exp4.png,exp3.png,0,4,reversed,incorrect,0.6975480058646216,0,valid_lose,431.81837730000007,31,,,,,,,,,,,,,,,sub_840,2025-03-03_11h12.50.793,Reversal,2023.1.3,60.135183893105086,4,
12,exp1.png,exp2.png,,3,0,3,0,0,12,12,12,,,,,,,,,,,,,,,,,,,,,,,,,False,71,72,True,exp2.png,exp1.png,trial_right_image,-1,exp1.png,4,exp2.png,exp1.png,0,2,non-reversed,incorrect,0.4037013667597915,0,valid_lose,435.9509975000001,31,,,,,,,,,,,,,,,sub_840,2025-03-03_11h12.50.793,Reversal,2023.1.3,60.135183893105086,4,
13,exp3.png,exp4.png,,3,0,3,0,0,13,13,13,,,,,,,,,,,,,,,,,,,,,,,,,False,72,73,False,exp3.png,exp4.png,trial_left_image,1,exp3.png,4,exp4.png,exp3.png,0,4,reversed,incorrect,0.37265441185477866,0,valid_lose,443.16396559999976,31,,,,,,,,,,,,,,,sub_840,2025-03-03_11h12.50.793,Reversal,2023.1.3,60.135183893105086,4,
14,exp1.png,exp2.png,,3,0,3,0,0,14,14,14,,,,,,,,,,,,,,,,,,,,,,,,,False,73,74,True,exp2.png,exp1.png,trial_left_image,1,exp2.png,4,exp2.png,exp1.png,1,1,non-reversed,correct,0.7943922570275989,1,valid_win,449.39717070000006,32,,,,,,,,,,,,,,,sub_840,2025-03-03_11h12.50.793,Reversal,2023.1.3,60.135183893105086,4,
15,exp3.png,exp4.png,,3,0,3,0,0,15,15,15,,,,,,,,,,,,,,,,,,,,,,,,,False,74,75,False,exp3.png,exp4.png,trial_right_image,-1,exp4.png,4,exp4.png,exp3.png,1,3,reversed,correct,0.21084745902531543,0,invalid_lose,457.80999599999996,32,,,,,,,,,,,,,,,sub_840,2025-03-03_11h12.50.793,Reversal,2023.1.3,60.135183893105086,4,
16,exp1.png,exp2.png,,3,0,3,0,0,16,16,16,,,,,,,,,,,,,,,,,,,,,,,,,False,75,76,False,exp1.png,exp2.png,trial_left_image,1,exp1.png,4,exp2.png,exp1.png,0,2,non-reversed,incorrect,0.6886956390232865,0,valid_lose,463.62450589999935,32,,,,,,,,,,,,,,,sub_840,2025-03-03_11h12.50.793,Reversal,2023.1.3,60.135183893105086,4,
17,exp3.png,exp4.png,,3,0,3,0,0,17,17,17,,,,,,,,,,,,,,,,,,,,,,,,,False,76,77,False,exp3.png,exp4.png,trial_right_image,-1,exp4.png,4,exp4.png,exp3.png,1,3,reversed,correct,0.4679503346064603,1,valid_win,468.0727858999999,33,,,,,,,,,,,,,,,sub_840,2025-03-03_11h12.50.793,Reversal,2023.1.3,60.135183893105086,4,
18,exp1.png,exp2.png,,3,0,3,0,0,18,18,18,,,,,,,,,,,,,,,,,,,,,,,,,False,77,78,True,exp2.png,exp1.png,trial_right_image,-1,exp1.png,4,exp2.png,exp1.png,0,2,non-reversed,incorrect,0.832967794880038,0,valid_lose,472.47134169999936,33,,,,,,,,,,,,,,,sub_840,2025-03-03_11h12.50.793,Reversal,2023.1.3,60.135183893105086,4,
19,exp3.png,exp4.png,,3,0,3,0,0,19,19,19,,,,,,,,,,,,,,,,,,,,,,,,,False,78,79,False,exp3.png,exp4.png,trial_right_image,-1,exp4.png,4,exp4.png,exp3.png,1,3,reversed,correct,0.7603089985568661,1,valid_win,479.7190166999999,34,,,,,,,,,,,,,,,sub_840,2025-03-03_11h12.50.793,Reversal,2023.1.3,60.135183893105086,4,
20,exp1.png,exp2.png,,3,0,3,0,0,20,20,20,,,,,,,,,,,,,,,,,,,,,,,,,False,79,80,False,exp1.png,exp2.png,trial_left_image,1,exp1.png,4,exp2.png,exp1.png,0,2,non-reversed,incorrect,0.10366998552223883,1,invalid_win,487.1829452000002,35,,,,,,,,,,,,,,,sub_840,2025-03-03_11h12.50.793,Reversal,2023.1.3,60.135183893105086,4,
,,,exp1.png,3,0,3,0,,,,,0,0,0,0,0,0,0,0,,,,,,,,,,,,,,,,,,,,,,,,,,,,,,,,,,,,,,577.8084472,,None,None,[],,,,,,,,,,sub_840,2025-03-03_11h12.50.793,Reversal,2023.1.3,60.135183893105086,4,
,,,exp2.png,3,0,3,0,,,,,0,0,0,0,0,1,1,1,,,,,,,,,,,,,,,,,,,,,,,,,,,,,,,,,,,,,,581.6950067000007,,None,None,[],,,,,,,,,,sub_840,2025-03-03_11h12.50.793,Reversal,2023.1.3,60.135183893105086,4,
,,,exp3.png,3,0,3,0,,,,,0,0,0,0,0,2,2,2,,,,,,,,,,,,,,,,,,,,,,,,,,,,,,,,,,,,,,583.2278291000002,,None,None,[],,,,,,,,,,sub_840,2025-03-03_11h12.50.793,Reversal,2023.1.3,60.135183893105086,4,
,,,exp4.png,3,0,3,0,,,,,0,0,0,0,0,3,3,3,,,,,,,,,,,,,,,,,,,,,,,,,,,,,,,,,,,,,,584.5585635000007,,None,None,[],,,,,,,,,,sub_840,2025-03-03_11h12.50.793,Reversal,2023.1.3,60.135183893105086,4,
0,exp1.png,exp2.png,,,,,,,,,,,,,,,,,,0,0,0,0,0,0,0,0,,,,,,,,,True,,,,,,,,,,,,,,,,,,,,,,,,,,,,,,,,,,,sub_840,2025-03-03_11h12.50.793,Reversal,2023.1.3,60.135183893105086,4,
1,exp3.png,exp4.png,,,,,,,,,,,,,,,,,,0,0,0,0,0,1,1,1,,,,,,,,,False,0,81,True,exp4.png,exp3.png,trial_left_image,1,exp4.png,4,exp3.png,exp4.png,1,3,reversed,incorrect,0.12419136260527208,1,invalid_win,502.1961431999998,36,,,,,,,,,497.7298517999998,,,,,,sub_840,2025-03-03_11h12.50.793,Reversal,2023.1.3,60.135183893105086,4,
2,exp1.png,exp2.png,,,,,,,,,,,,,,,,,,0,0,0,0,0,2,2,2,,,,,,,,,False,1,82,False,exp1.png,exp2.png,trial_right_image,-1,exp2.png,4,exp2.png,exp1.png,1,1,non-reversed,correct,0.11022669180027977,0,invalid_lose,510.0422904999996,36,,,,,,,,,,,,,,,sub_840,2025-03-03_11h12.50.793,Reversal,2023.1.3,60.135183893105086,4,
3,exp3.png,exp4.png,,,,,,,,,,,,,,,,,,0,0,0,0,0,3,3,3,,,,,,,,,False,2,83,True,exp4.png,exp3.png,trial_left_image,1,exp4.png,4,exp3.png,exp4.png,1,3,reversed,incorrect,0.396314458966591,0,valid_lose,517.1561875999996,36,,,,,,,,,,,,,,,sub_840,2025-03-03_11h12.50.793,Reversal,2023.1.3,60.135183893105086,4,
4,exp1.png,exp2.png,,,,,,,,,,,,,,,,,,0,0,0,0,0,4,4,4,,,,,,,,,False,3,84,True,exp2.png,exp1.png,trial_right_image,-1,exp1.png,4,exp2.png,exp1.png,0,2,non-reversed,incorrect,0.8945989423400331,0,valid_lose,521.3709717000002,36,,,,,,,,,,,,,,,sub_840,2025-03-03_11h12.50.793,Reversal,2023.1.3,60.135183893105086,4,
5,exp3.png,exp4.png,,,,,,,,,,,,,,,,,,0,0,0,0,0,5,5,5,,,,,,,,,False,4,85,True,exp4.png,exp3.png,trial_right_image,-1,exp3.png,4,exp3.png,exp4.png,0,4,reversed,correct,0.23537688376028887,0,invalid_lose,527.0861434999997,36,,,,,,,,,,,,,,,sub_840,2025-03-03_11h12.50.793,Reversal,2023.1.3,60.135183893105086,4,
6,exp1.png,exp2.png,,,,,,,,,,,,,,,,,,0,0,0,0,0,6,6,6,,,,,,,,,False,5,86,False,exp1.png,exp2.png,trial_left_image,1,exp1.png,4,exp2.png,exp1.png,0,2,non-reversed,incorrect,0.3967165194091088,0,valid_lose,531.4350946999994,36,,,,,,,,,,,,,,,sub_840,2025-03-03_11h12.50.793,Reversal,2023.1.3,60.135183893105086,4,
7,exp3.png,exp4.png,,,,,,,,,,,,,,,,,,0,0,0,0,0,7,7,7,,,,,,,,,False,6,87,False,exp3.png,exp4.png,trial_left_image,1,exp3.png,4,exp3.png,exp4.png,0,4,reversed,correct,0.6529070185470456,1,valid_win,538.0161959999996,37,,,,,,,,,,,,,,,sub_840,2025-03-03_11h12.50.793,Reversal,2023.1.3,60.135183893105086,4,
8,exp1.png,exp2.png,,,,,,,,,,,,,,,,,,0,0,0,0,0,8,8,8,,,,,,,,,False,7,88,False,exp1.png,exp2.png,trial_right_image,-1,exp2.png,4,exp2.png,exp1.png,1,1,non-reversed,correct,0.9484075453317733,1,valid_win,544.7968839999994,38,,,,,,,,,,,,,,,sub_840,2025-03-03_11h12.50.793,Reversal,2023.1.3,60.135183893105086,4,
9,exp3.png,exp4.png,,,,,,,,,,,,,,,,,,0,0,0,0,0,9,9,9,,,,,,,,,False,8,89,False,exp3.png,exp4.png,trial_left_image,1,exp3.png,4,exp3.png,exp4.png,0,4,reversed,correct,0.7779579411236539,1,valid_win,552.2275264999998,39,,,,,,,,,,,,,,,sub_840,2025-03-03_11h12.50.793,Reversal,2023.1.3,60.135183893105086,4,
10,exp1.png,exp2.png,,,,,,,,,,,,,,,,,,0,0,0,0,0,10,10,10,,,,,,,,,False,9,90,True,exp2.png,exp1.png,trial_left_image,1,exp2.png,4,exp2.png,exp1.png,1,1,non-reversed,correct,0.5390059807664608,1,valid_win,559.1590955000001,40,,,,,,,,,,,,,,,sub_840,2025-03-03_11h12.50.793,Reversal,2023.1.3,60.135183893105086,4,
11,exp3.png,exp4.png,,,,,,,,,,,,,,,,,,0,0,0,0,0,11,11,11,,,,,,,,,False,10,91,True,exp4.png,exp3.png,trial_left_image,1,exp4.png,4,exp3.png,exp4.png,1,3,reversed,incorrect,0.7017976470230527,0,valid_lose,564.9744129000001,40,,,,,,,,,,,,,,,sub_840,2025-03-03_11h12.50.793,Reversal,2023.1.3,60.135183893105086,4,
12,exp1.png,exp2.png,,,,,,,,,,,,,,,,,,0,0,0,0,0,12,12,12,,,,,,,,,False,11,92,False,exp1.png,exp2.png,trial_right_image,-1,exp2.png,4,exp2.png,exp1.png,1,1,non-reversed,correct,0.4488885758584096,1,valid_win,570.0553534000001,41,,,,,,,,,,,,,,,sub_840,2025-03-03_11h12.50.793,Reversal,2023.1.3,60.135183893105086,4,
13,exp3.png,exp4.png,,,,,,,,,,,,,,,,,,0,0,0,0,0,13,13,13,,,,,,,,,False,12,93,True,exp4.png,exp3.png,trial_left_image,1,exp4.png,4,exp3.png,exp4.png,1,3,reversed,incorrect,0.8575401648611248,0,valid_lose,576.6527871999997,41,,,,,,,,,,,,,,,sub_840,2025-03-03_11h12.50.793,Reversal,2023.1.3,60.135183893105086,4,
14,exp1.png,exp2.png,,,,,,,,,,,,,,,,,,0,0,0,0,0,14,14,14,,,,,,,,,False,13,94,False,exp1.png,exp2.png,trial_left_image,1,exp1.png,4,exp2.png,exp1.png,0,2,non-reversed,incorrect,0.7703476382402161,0,valid_lose,582.0346448,41,,,,,,,,,,,,,,,sub_840,2025-03-03_11h12.50.793,Reversal,2023.1.3,60.135183893105086,4,
15,exp3.png,exp4.png,,,,,,,,,,,,,,,,,,0,0,0,0,0,15,15,15,,,,,,,,,False,14,95,True,exp4.png,exp3.png,trial_right_image,-1,exp3.png,4,exp3.png,exp4.png,0,4,reversed,correct,0.7714709888605725,1,valid_win,586.5169145,42,,,,,,,,,,,,,,,sub_840,2025-03-03_11h12.50.793,Reversal,2023.1.3,60.135183893105086,4,
16,exp1.png,exp2.png,,,,,,,,,,,,,,,,,,0,0,0,0,0,16,16,16,,,,,,,,,False,15,96,True,exp2.png,exp1.png,trial_left_image,1,exp2.png,4,exp2.png,exp1.png,1,1,non-reversed,correct,0.11774738504279736,0,invalid_lose,595.5808515999997,42,,,,,,,,,,,,,,,sub_840,2025-03-03_11h12.50.793,Reversal,2023.1.3,60.135183893105086,4,
17,exp3.png,exp4.png,,,,,,,,,,,,,,,,,,0,0,0,0,0,17,17,17,,,,,,,,,False,16,97,False,exp3.png,exp4.png,trial_right_image,-1,exp4.png,4,exp3.png,exp4.png,1,3,reversed,incorrect,0.6383387100315397,0,valid_lose,599.9782864999997,42,,,,,,,,,,,,,,,sub_840,2025-03-03_11h12.50.793,Reversal,2023.1.3,60.135183893105086,4,
18,exp1.png,exp2.png,,,,,,,,,,,,,,,,,,0,0,0,0,0,18,18,18,,,,,,,,,False,17,98,True,exp2.png,exp1.png,trial_right_image,-1,exp1.png,4,exp2.png,exp1.png,0,2,non-reversed,incorrect,0.2568720504351646,0,valid_lose,606.9102004999995,42,,,,,,,,,,,,,,,sub_840,2025-03-03_11h12.50.793,Reversal,2023.1.3,60.135183893105086,4,
19,exp3.png,exp4.png,,,,,,,,,,,,,,,,,,0,0,0,0,0,19,19,19,,,,,,,,,False,18,99,False,exp3.png,exp4.png,trial_left_image,1,exp3.png,4,exp3.png,exp4.png,0,4,reversed,correct,0.685604075372671,1,valid_win,611.9234193000002,43,,,,,,,,,,,,,,,sub_840,2025-03-03_11h12.50.793,Reversal,2023.1.3,60.135183893105086,4,
20,exp1.png,exp2.png,,,,,,,,,,,,,,,,,,0,0,0,0,0,20,20,20,,,,,,,,,False,19,100,False,exp1.png,exp2.png,trial_left_image,1,exp1.png,4,exp2.png,exp1.png,0,2,non-reversed,incorrect,0.44145421299279297,0,valid_lose,617.7224279000002,43,,,,,,,,,,,,,,,sub_840,2025-03-03_11h12.50.793,Reversal,2023.1.3,60.135183893105086,4,
,,,exp1.png,,,,,,,,,,,,,,,,,0,0,0,0,,,,,0,0,0,0,0,0,0,0,,,,,,,,,,,,,,,,,,,,,,708.3476923000007,,None,None,[],,,,,,,,,,sub_840,2025-03-03_11h12.50.793,Reversal,2023.1.3,60.135183893105086,4,
,,,exp2.png,,,,,,,,,,,,,,,,,0,0,0,0,,,,,0,0,0,0,0,1,1,1,,,,,,,,,,,,,,,,,,,,,,710.7128686000005,,None,None,[],,,,,,,,,,sub_840,2025-03-03_11h12.50.793,Reversal,2023.1.3,60.135183893105086,4,
,,,exp3.png,,,,,,,,,,,,,,,,,0,0,0,0,,,,,0,0,0,0,0,2,2,2,,,,,,,,,,,,,,,,,,,,,,711.7528246000002,,None,None,[],,,,,,,,,,sub_840,2025-03-03_11h12.50.793,Reversal,2023.1.3,60.135183893105086,4,
,,,exp4.png,,,,,,,,,,,,,,,,,0,0,0,0,,,,,0,0,0,0,0,3,3,3,,,,,,,,,,,,,,,,,,,,,,712.8087119000002,,None,None,[],,,,,,,,,,sub_840,2025-03-03_11h12.50.793,Reversal,2023.1.3,60.135183893105086,4,
0,exp1.png,exp2.png,,,,,,,,,,,,,,,,,,1,0,1,0,0,0,0,0,,,,,,,,,True,,,,,,,,,,,,,,,,,,,,,,,,,,,,,,,,,,,sub_840,2025-03-03_11h12.50.793,Reversal,2023.1.3,60.135183893105086,4,
1,exp3.png,exp4.png,,,,,,,,,,,,,,,,,,1,0,1,0,0,1,1,1,,,,,,,,,False,20,101,True,exp4.png,exp3.png,trial_left_image,1,exp4.png,4,exp3.png,exp4.png,1,3,reversed,incorrect,0.9175015894502091,0,valid_lose,629.6200724999999,43,,,,,,,,,,,,,,,sub_840,2025-03-03_11h12.50.793,Reversal,2023.1.3,60.135183893105086,4,
2,exp1.png,exp2.png,,,,,,,,,,,,,,,,,,1,0,1,0,0,2,2,2,,,,,,,,,False,21,102,False,exp1.png,exp2.png,trial_right_image,-1,exp2.png,4,exp2.png,exp1.png,1,1,non-reversed,correct,0.7000361546680325,1,valid_win,634.4506793999999,44,,,,,,,,,,,,,,,sub_840,2025-03-03_11h12.50.793,Reversal,2023.1.3,60.135183893105086,4,
3,exp3.png,exp4.png,,,,,,,,,,,,,,,,,,1,0,1,0,0,3,3,3,,,,,,,,,False,22,103,True,exp4.png,exp3.png,trial_left_image,1,exp4.png,4,exp3.png,exp4.png,1,3,reversed,incorrect,0.7656548710818014,0,valid_lose,640.2478794999997,44,,,,,,,,,,,,,,,sub_840,2025-03-03_11h12.50.793,Reversal,2023.1.3,60.135183893105086,4,
4,exp1.png,exp2.png,,,,,,,,,,,,,,,,,,1,0,1,0,0,4,4,4,,,,,,,,,False,23,104,True,exp2.png,exp1.png,trial_right_image,-1,exp1.png,4,exp2.png,exp1.png,0,2,non-reversed,incorrect,0.8704751851608962,0,valid_lose,644.9806178999997,44,,,,,,,,,,,,,,,sub_840,2025-03-03_11h12.50.793,Reversal,2023.1.3,60.135183893105086,4,
5,exp3.png,exp4.png,,,,,,,,,,,,,,,,,,1,0,1,0,0,5,5,5,,,,,,,,,False,24,105,False,exp3.png,exp4.png,trial_right_image,-1,exp4.png,4,exp3.png,exp4.png,1,3,reversed,incorrect,0.9662288470659649,0,valid_lose,650.3773089999995,44,,,,,,,,,,,,,,,sub_840,2025-03-03_11h12.50.793,Reversal,2023.1.3,60.135183893105086,4,
6,exp1.png,exp2.png,,,,,,,,,,,,,,,,,,1,0,1,0,0,6,6,6,,,,,,,,,False,25,106,False,exp1.png,exp2.png,trial_left_image,1,exp1.png,4,exp2.png,exp1.png,0,2,non-reversed,incorrect,0.538635045598961,0,valid_lose,655.5104646999998,44,,,,,,,,,,,,,,,sub_840,2025-03-03_11h12.50.793,Reversal,2023.1.3,60.135183893105086,4,
7,exp3.png,exp4.png,,,,,,,,,,,,,,,,,,1,0,1,0,0,7,7,7,,,,,,,,,False,26,107,False,exp3.png,exp4.png,trial_right_image,-1,exp4.png,4,exp3.png,exp4.png,1,3,reversed,incorrect,0.5191141820207271,0,valid_lose,661.4576711999998,44,,,,,,,,,,,,,,,sub_840,2025-03-03_11h12.50.793,Reversal,2023.1.3,60.135183893105086,4,
8,exp1.png,exp2.png,,,,,,,,,,,,,,,,,,1,0,1,0,0,8,8,8,,,,,,,,,False,27,108,True,exp2.png,exp1.png,trial_right_image,-1,exp1.png,4,exp2.png,exp1.png,0,2,non-reversed,incorrect,0.1226028601350283,1,invalid_win,666.8896949999998,45,,,,,,,,,,,,,,,sub_840,2025-03-03_11h12.50.793,Reversal,2023.1.3,60.135183893105086,4,
9,exp3.png,exp4.png,,,,,,,,,,,,,,,,,,1,0,1,0,0,9,9,9,,,,,,,,,False,28,109,False,exp3.png,exp4.png,trial_left_image,1,exp3.png,4,exp3.png,exp4.png,0,4,reversed,correct,0.48684917969521435,1,valid_win,673.6367008999996,46,,,,,,,,,,,,,,,sub_840,2025-03-03_11h12.50.793,Reversal,2023.1.3,60.135183893105086,4,
10,exp1.png,exp2.png,,,,,,,,,,,,,,,,,,1,0,1,0,0,10,10,10,,,,,,,,,False,29,110,True,exp2.png,exp1.png,trial_right_image,-1,exp1.png,4,exp2.png,exp1.png,0,2,non-reversed,incorrect,0.7774994650589042,0,valid_lose,684.7495095999993,46,,,,,,,,,,,,,,,sub_840,2025-03-03_11h12.50.793,Reversal,2023.1.3,60.135183893105086,4,
11,exp3.png,exp4.png,,,,,,,,,,,,,,,,,,1,0,1,0,0,11,11,11,,,,,,,,,False,30,111,False,exp3.png,exp4.png,trial_left_image,1,exp3.png,4,exp3.png,exp4.png,0,4,reversed,correct,0.03616454579494166,0,invalid_lose,689.2314299999998,46,,,,,,,,,,,,,,,sub_840,2025-03-03_11h12.50.793,Reversal,2023.1.3,60.135183893105086,4,
12,exp1.png,exp2.png,,,,,,,,,,,,,,,,,,1,0,1,0,0,12,12,12,,,,,,,,,False,31,112,True,exp2.png,exp1.png,trial_right_image,-1,exp1.png,4,exp2.png,exp1.png,0,2,non-reversed,incorrect,0.027447052047938847,1,invalid_win,693.2135480999996,47,,,,,,,,,,,,,,,sub_840,2025-03-03_11h12.50.793,Reversal,2023.1.3,60.135183893105086,4,
13,exp3.png,exp4.png,,,,,,,,,,,,,,,,,,1,0,1,0,0,13,13,13,,,,,,,,,False,32,113,True,exp4.png,exp3.png,trial_right_image,-1,exp3.png,4,exp3.png,exp4.png,0,4,reversed,correct,0.3906929503702208,1,valid_win,698.0950586999998,48,,,,,,,,,,,,,,,sub_840,2025-03-03_11h12.50.793,Reversal,2023.1.3,60.135183893105086,4,
14,exp1.png,exp2.png,,,,,,,,,,,,,,,,,,1,0,1,0,0,14,14,14,,,,,,,,,False,33,114,False,exp1.png,exp2.png,trial_right_image,-1,exp2.png,4,exp2.png,exp1.png,1,1,non-reversed,correct,0.13643206468354985,0,invalid_lose,702.2265040000002,48,,,,,,,,,,,,,,,sub_840,2025-03-03_11h12.50.793,Reversal,2023.1.3,60.135183893105086,4,
15,exp3.png,exp4.png,,,,,,,,,,,,,,,,,,1,0,1,0,0,15,15,15,,,,,,,,,False,34,115,True,exp4.png,exp3.png,trial_right_image,-1,exp3.png,4,exp3.png,exp4.png,0,4,reversed,correct,0.21061892245614267,0,invalid_lose,708.0079904999993,48,,,,,,,,,,,,,,,sub_840,2025-03-03_11h12.50.793,Reversal,2023.1.3,60.135183893105086,4,
16,exp1.png,exp2.png,,,,,,,,,,,,,,,,,,1,0,1,0,0,16,16,16,,,,,,,,,False,35,116,True,exp2.png,exp1.png,trial_left_image,1,exp2.png,4,exp2.png,exp1.png,1,1,non-reversed,correct,0.2897039575381186,1,valid_win,712.2567521999999,49,,,,,,,,,,,,,,,sub_840,2025-03-03_11h12.50.793,Reversal,2023.1.3,60.135183893105086,4,
17,exp3.png,exp4.png,,,,,,,,,,,,,,,,,,1,0,1,0,0,17,17,17,,,,,,,,,False,36,117,False,exp3.png,exp4.png,trial_right_image,-1,exp4.png,4,exp3.png,exp4.png,1,3,reversed,incorrect,0.6772123652788747,0,valid_lose,717.5551928999994,49,,,,,,,,,,,,,,,sub_840,2025-03-03_11h12.50.793,Reversal,2023.1.3,60.135183893105086,4,
18,exp1.png,exp2.png,,,,,,,,,,,,,,,,,,1,0,1,0,0,18,18,18,,,,,,,,,False,37,118,False,exp1.png,exp2.png,trial_left_image,1,exp1.png,4,exp2.png,exp1.png,0,2,non-reversed,incorrect,0.28028162820653113,0,valid_lose,721.7538850999999,49,,,,,,,,,,,,,,,sub_840,2025-03-03_11h12.50.793,Reversal,2023.1.3,60.135183893105086,4,
19,exp3.png,exp4.png,,,,,,,,,,,,,,,,,,1,0,1,0,0,19,19,19,,,,,,,,,False,38,119,False,exp3.png,exp4.png,trial_left_image,1,exp3.png,4,exp3.png,exp4.png,0,4,reversed,correct,0.9584235143106584,1,valid_win,727.1852985999994,50,,,,,,,,,,,,,,,sub_840,2025-03-03_11h12.50.793,Reversal,2023.1.3,60.135183893105086,4,
20,exp1.png,exp2.png,,,,,,,,,,,,,,,,,,1,0,1,0,0,20,20,20,,,,,,,,,False,39,120,True,exp2.png,exp1.png,trial_right_image,-1,exp1.png,4,exp2.png,exp1.png,0,2,non-reversed,incorrect,0.2867177026918799,0,valid_lose,731.3683031999999,50,,,,,,,,,,,,,,,sub_840,2025-03-03_11h12.50.793,Reversal,2023.1.3,60.135183893105086,4,
,,,exp1.png,,,,,,,,,,,,,,,,,1,0,1,0,,,,,0,0,0,0,0,0,0,0,,,,,,,,,,,,,,,,,,,,,,821.9938557000005,,None,None,[],,,,,,,,,,sub_840,2025-03-03_11h12.50.793,Reversal,2023.1.3,60.135183893105086,4,
,,,exp2.png,,,,,,,,,,,,,,,,,1,0,1,0,,,,,0,0,0,0,0,1,1,1,,,,,,,,,,,,,,,,,,,,,,824.4082826000003,,None,None,[],,,,,,,,,,sub_840,2025-03-03_11h12.50.793,Reversal,2023.1.3,60.135183893105086,4,
,,,exp3.png,,,,,,,,,,,,,,,,,1,0,1,0,,,,,0,0,0,0,0,2,2,2,,,,,,,,,,,,,,,,,,,,,,825.3579886000007,,None,None,[],,,,,,,,,,sub_840,2025-03-03_11h12.50.793,Reversal,2023.1.3,60.135183893105086,4,
,,,exp4.png,,,,,,,,,,,,,,,,,1,0,1,0,,,,,0,0,0,0,0,3,3,3,,,,,,,,,,,,,,,,,,,,,,826.3739848000005,,None,None,[],,,,,,,,,,sub_840,2025-03-03_11h12.50.793,Reversal,2023.1.3,60.135183893105086,4,
0,exp1.png,exp2.png,,,,,,,,,,,,,,,,,,2,0,2,0,0,0,0,0,,,,,,,,,True,,,,,,,,,,,,,,,,,,,,,,,,,,,,,,,,,,,sub_840,2025-03-03_11h12.50.793,Reversal,2023.1.3,60.135183893105086,4,
1,exp3.png,exp4.png,,,,,,,,,,,,,,,,,,2,0,2,0,0,1,1,1,,,,,,,,,False,40,121,False,exp3.png,exp4.png,trial_left_image,1,exp3.png,4,exp3.png,exp4.png,0,4,reversed,correct,0.7967487501666509,1,valid_win,750.2453949999999,51,,,,,,,,,,,,,,,sub_840,2025-03-03_11h12.50.793,Reversal,2023.1.3,60.135183893105086,4,
2,exp1.png,exp2.png,,,,,,,,,,,,,,,,,,2,0,2,0,0,2,2,2,,,,,,,,,False,41,122,False,exp1.png,exp2.png,trial_right_image,-1,exp2.png,4,exp2.png,exp1.png,1,1,non-reversed,correct,0.3879359378005338,1,valid_win,757.3581619999995,52,,,,,,,,,,,,,,,sub_840,2025-03-03_11h12.50.793,Reversal,2023.1.3,60.135183893105086,4,
3,exp3.png,exp4.png,,,,,,,,,,,,,,,,,,2,0,2,0,0,3,3,3,,,,,,,,,False,42,123,False,exp3.png,exp4.png,trial_right_image,-1,exp4.png,4,exp3.png,exp4.png,1,3,reversed,incorrect,0.11813334160570788,1,invalid_win,761.9898469999998,53,,,,,,,,,,,,,,,sub_840,2025-03-03_11h12.50.793,Reversal,2023.1.3,60.135183893105086,4,
4,exp1.png,exp2.png,,,,,,,,,,,,,,,,,,2,0,2,0,0,4,4,4,,,,,,,,,False,43,124,True,exp2.png,exp1.png,trial_left_image,1,exp2.png,4,exp2.png,exp1.png,1,1,non-reversed,correct,0.7585191043408142,1,valid_win,766.0886910999998,54,,,,,,,,,,,,,,,sub_840,2025-03-03_11h12.50.793,Reversal,2023.1.3,60.135183893105086,4,
5,exp3.png,exp4.png,,,,,,,,,,,,,,,,,,2,0,2,0,0,5,5,5,,,,,,,,,False,44,125,False,exp3.png,exp4.png,trial_left_image,1,exp3.png,4,exp3.png,exp4.png,0,4,reversed,correct,0.2715457448902312,1,valid_win,771.5870587999998,55,,,,,,,,,,,,,,,sub_840,2025-03-03_11h12.50.793,Reversal,2023.1.3,60.135183893105086,4,
6,exp1.png,exp2.png,,,,,,,,,,,,,,,,,,2,0,2,0,0,6,6,6,,,,,,,,,False,45,126,True,exp2.png,exp1.png,trial_right_image,-1,exp1.png,4,exp2.png,exp1.png,0,2,non-reversed,incorrect,0.060444177394335274,1,invalid_win,776.4186511999997,56,,,,,,,,,,,,,,,sub_840,2025-03-03_11h12.50.793,Reversal,2023.1.3,60.135183893105086,4,
7,exp3.png,exp4.png,,,,,,,,,,,,,,,,,,2,0,2,0,0,7,7,7,,,,,,,,,False,46,127,False,exp3.png,exp4.png,trial_right_image,-1,exp4.png,4,exp3.png,exp4.png,1,3,reversed,incorrect,0.3445761723502583,0,valid_lose,780.6009807,56,,,,,,,,,,,,,,,sub_840,2025-03-03_11h12.50.793,Reversal,2023.1.3,60.135183893105086,4,
8,exp1.png,exp2.png,,,,,,,,,,,,,,,,,,2,0,2,0,0,8,8,8,,,,,,,,,False,47,128,True,exp2.png,exp1.png,trial_left_image,1,exp2.png,4,exp2.png,exp1.png,1,1,non-reversed,correct,0.09478575291926572,0,invalid_lose,784.7654487999998,56,,,,,,,,,,,,,,,sub_840,2025-03-03_11h12.50.793,Reversal,2023.1.3,60.135183893105086,4,
9,exp3.png,exp4.png,,,,,,,,,,,,,,,,,,2,0,2,0,0,9,9,9,,,,,,,,,False,48,129,False,exp3.png,exp4.png,trial_right_image,-1,exp4.png,4,exp3.png,exp4.png,1,3,reversed,incorrect,0.571963254455495,0,valid_lose,789.0142661999998,56,,,,,,,,,,,,,,,sub_840,2025-03-03_11h12.50.793,Reversal,2023.1.3,60.135183893105086,4,
10,exp1.png,exp2.png,,,,,,,,,,,,,,,,,,2,0,2,0,0,10,10,10,,,,,,,,,False,49,130,True,exp2.png,exp1.png,trial_right_image,-1,exp1.png,4,exp2.png,exp1.png,0,2,non-reversed,incorrect,0.3507981435819181,0,valid_lose,793.7959632000002,56,,,,,,,,,,,,,,,sub_840,2025-03-03_11h12.50.793,Reversal,2023.1.3,60.135183893105086,4,
11,exp3.png,exp4.png,,,,,,,,,,,,,,,,,,2,0,2,0,0,11,11,11,,,,,,,,,False,50,131,True,exp4.png,exp3.png,trial_left_image,1,exp4.png,4,exp3.png,exp4.png,1,3,reversed,incorrect,0.22275518245328962,1,invalid_win,798.5615932000001,57,,,,,,,,,,,,,,,sub_840,2025-03-03_11h12.50.793,Reversal,2023.1.3,60.135183893105086,4,
12,exp1.png,exp2.png,,,,,,,,,,,,,,,,,,2,0,2,0,0,12,12,12,,,,,,,,,False,51,132,True,exp2.png,exp1.png,trial_left_image,1,exp2.png,4,exp2.png,exp1.png,1,1,non-reversed,correct,0.2654889595779769,1,valid_win,802.8930276000001,58,,,,,,,,,,,,,,,sub_840,2025-03-03_11h12.50.793,Reversal,2023.1.3,60.135183893105086,4,
13,exp3.png,exp4.png,,,,,,,,,,,,,,,,,,2,0,2,0,0,13,13,13,,,,,,,,,False,52,133,False,exp3.png,exp4.png,trial_left_image,1,exp3.png,4,exp3.png,exp4.png,0,4,reversed,correct,0.07943224779853664,0,invalid_lose,807.1911535999998,58,,,,,,,,,,,,,,,sub_840,2025-03-03_11h12.50.793,Reversal,2023.1.3,60.135183893105086,4,
14,exp1.png,exp2.png,,,,,,,,,,,,,,,,,,2,0,2,0,0,14,14,14,,,,,,,,,False,53,134,False,exp1.png,exp2.png,trial_right_image,-1,exp2.png,4,exp2.png,exp1.png,1,1,non-reversed,correct,0.9980944383219732,1,valid_win,811.1403021999995,59,,,,,,,,,,,,,,,sub_840,2025-03-03_11h12.50.793,Reversal,2023.1.3,60.135183893105086,4,
15,exp3.png,exp4.png,,,,,,,,,,,,,,,,,,2,0,2,0,0,15,15,15,,,,,,,,,False,54,135,True,exp4.png,exp3.png,trial_right_image,-1,exp3.png,4,exp3.png,exp4.png,0,4,reversed,correct,0.534650217082706,1,valid_win,815.0055311999995,60,,,,,,,,,,,,,,,sub_840,2025-03-03_11h12.50.793,Reversal,2023.1.3,60.135183893105086,4,
16,exp1.png,exp2.png,,,,,,,,,,,,,,,,,,2,0,2,0,0,16,16,16,,,,,,,,,False,55,136,True,exp2.png,exp1.png,trial_right_image,-1,exp1.png,4,exp2.png,exp1.png,0,2,non-reversed,incorrect,0.33763318758171923,0,valid_lose,819.2202413999994,60,,,,,,,,,,,,,,,sub_840,2025-03-03_11h12.50.793,Reversal,2023.1.3,60.135183893105086,4,
17,exp3.png,exp4.png,,,,,,,,,,,,,,,,,,2,0,2,0,0,17,17,17,,,,,,,,,False,56,137,False,exp3.png,exp4.png,trial_left_image,1,exp3.png,4,exp3.png,exp4.png,0,4,reversed,correct,0.33735827188312806,1,valid_win,823.2193496,61,,,,,,,,,,,,,,,sub_840,2025-03-03_11h12.50.793,Reversal,2023.1.3,60.135183893105086,4,
18,exp1.png,exp2.png,,,,,,,,,,,,,,,,,,2,0,2,0,0,18,18,18,,,,,,,,,False,57,138,False,exp1.png,exp2.png,trial_left_image,1,exp1.png,4,exp2.png,exp1.png,0,2,non-reversed,incorrect,0.21888780127333418,1,invalid_win,827.1849763,62,,,,,,,,,,,,,,,sub_840,2025-03-03_11h12.50.793,Reversal,2023.1.3,60.135183893105086,4,
19,exp3.png,exp4.png,,,,,,,,,,,,,,,,,,2,0,2,0,0,19,19,19,,,,,,,,,False,58,139,True,exp4.png,exp3.png,trial_right_image,-1,exp3.png,4,exp3.png,exp4.png,0,4,reversed,correct,0.6266516727907485,1,valid_win,831.6832121999996,63,,,,,,,,,,,,,,,sub_840,2025-03-03_11h12.50.793,Reversal,2023.1.3,60.135183893105086,4,
20,exp1.png,exp2.png,,,,,,,,,,,,,,,,,,2,0,2,0,0,20,20,20,,,,,,,,,False,59,140,True,exp2.png,exp1.png,trial_right_image,-1,exp1.png,4,exp2.png,exp1.png,0,2,non-reversed,incorrect,0.9292896366674153,0,valid_lose,836.5481486999997,63,,,,,,,,,,,,,,,sub_840,2025-03-03_11h12.50.793,Reversal,2023.1.3,60.135183893105086,4,
,,,exp1.png,,,,,,,,,,,,,,,,,2,0,2,0,,,,,0,0,0,0,0,0,0,0,,,,,,,,,,,,,,,,,,,,,,927.1752242000002,,None,None,[],,,,,,,,,,sub_840,2025-03-03_11h12.50.793,Reversal,2023.1.3,60.135183893105086,4,
,,,exp2.png,,,,,,,,,,,,,,,,,2,0,2,0,,,,,0,0,0,0,0,1,1,1,,,,,,,,,,,,,,,,,,,,,,929.0122621,,None,None,[],,,,,,,,,,sub_840,2025-03-03_11h12.50.793,Reversal,2023.1.3,60.135183893105086,4,
,,,exp3.png,,,,,,,,,,,,,,,,,2,0,2,0,,,,,0,0,0,0,0,2,2,2,,,,,,,,,,,,,,,,,,,,,,929.9858845000008,,None,None,[],,,,,,,,,,sub_840,2025-03-03_11h12.50.793,Reversal,2023.1.3,60.135183893105086,4,
,,,exp4.png,,,,,,,,,,,,,,,,,2,0,2,0,,,,,0,0,0,0,0,3,3,3,,,,,,,,,,,,,,,,,,,,,,930.9992948000008,,None,None,[],,,,,,,,,,sub_840,2025-03-03_11h12.50.793,Reversal,2023.1.3,60.135183893105086,4,
,,,,,,,,,,,,,,,,,,,,,,,,,,,,,,,,,,,,,,,,,,,,,,,,,,,,,,,,63,,,,,,,,,,68,39,29,346.10362950000035,1,,,,,,,
