trial_index,trial_image1_file,trial_image2_file,image_file,learning_outer_loop.thisRepN,learning_outer_loop.thisTrialN,learning_outer_loop.thisN,learning_outer_loop.thisIndex,learning_inner_loop.thisRepN,learning_inner_loop.thisTrialN,learning_inner_loop.thisN,learning_inner_loop.thisIndex,learning_estimation_outer_loop.thisRepN,learning_estimation_outer_loop.thisTrialN,learning_estimation_outer_loop.thisN,learning_estimation_outer_loop.thisIndex,learning_estimation_inner_loop.thisRepN,learning_estimation_inner_loop.thisTrialN,learning_estimation_inner_loop.thisN,learning_estimation_inner_loop.thisIndex,reversal_outer_loop.thisRepN,reversal_outer_loop.thisTrialN,reversal_outer_loop.thisN,reversal_outer_loop.thisIndex,reversal_inner_loop.thisRepN,reversal_inner_loop.thisTrialN,reversal_inner_loop.thisN,reversal_inner_loop.thisIndex,reversal_estimation_outer_loop.thisRepN,reversal_estimation_outer_loop.thisTrialN,reversal_estimation_outer_loop.thisN,reversal_estimation_outer_loop.thisIndex,reversal_estimation_inner_loop.thisRepN,reversal_estimation_inner_loop.thisTrialN,reversal_estimation_inner_loop.thisN,reversal_estimation_inner_loop.thisIndex,skipped,total_trial_counter,trial_num,left_right_flip,left_image_file,right_image_file,clicked_stimulus_side,side,clicked_stimulus,version,high_prob_image_file,low_prob_image_file,choice_a,choice_b,pair_type,correct,trial_feedback_random,reward,trial_type,overall_time_after_trial,score,estimation_rating.response,estimation_rating.rt,estimation_rating.history,estimation_rating.started,estimation_rating.stopped,estimation_exp2.png,estimation_exp4.png,estimation_exp1.png,estimation_exp3.png,total_learning_time,total_correct,learning_correct,reversal_correct,total_reversal_time,extra_block,participant,date,expName,psychopyVersion,frameRate,ver,
0,exp1.png,exp2.png,,0,0,0,0,0,0,0,0,,,,,,,,,,,,,,,,,,,,,,,,,True,,,,,,,,,,,,,,,,,,,,,,,,,,,,,,,,,,,,sub_115,2022-09-18_12h56.59.192,Reversal,2022.1.1,60.113205188041405,3,
1,exp3.png,exp4.png,,0,0,0,0,0,1,1,1,,,,,,,,,,,,,,,,,,,,,,,,,False,0,1,True,exp4.png,exp3.png,trial_left_image,1,exp4.png,3,exp4.png,exp3.png,1,1,non-reversed,correct,0.23989803692859846,0,invalid_lose,4.913553899999897,0,,,,,,,,,,,,,,,,sub_115,2022-09-18_12h56.59.192,Reversal,2022.1.1,60.113205188041405,3,
2,exp1.png,exp2.png,,0,0,0,0,0,2,2,2,,,,,,,,,,,,,,,,,,,,,,,,,False,1,2,True,exp2.png,exp1.png,trial_right_image,-1,exp1.png,3,exp2.png,exp1.png,0,4,reversed,incorrect,0.8993122667409116,0,valid_lose,12.713511099999778,0,,,,,,,,,,,,,,,,sub_115,2022-09-18_12h56.59.192,Reversal,2022.1.1,60.113205188041405,3,
3,exp3.png,exp4.png,,0,0,0,0,0,3,3,3,,,,,,,,,,,,,,,,,,,,,,,,,False,2,3,True,exp4.png,exp3.png,trial_right_image,-1,exp3.png,3,exp4.png,exp3.png,0,2,non-reversed,incorrect,0.45638171960382135,0,valid_lose,19.828640499999892,0,,,,,,,,,,,,,,,,sub_115,2022-09-18_12h56.59.192,Reversal,2022.1.1,60.113205188041405,3,
4,exp1.png,exp2.png,,0,0,0,0,0,4,4,4,,,,,,,,,,,,,,,,,,,,,,,,,False,3,4,False,exp1.png,exp2.png,trial_right_image,-1,exp2.png,3,exp2.png,exp1.png,1,3,reversed,correct,0.3180675363247367,1,valid_win,28.44399429999976,1,,,,,,,,,,,,,,,,sub_115,2022-09-18_12h56.59.192,Reversal,2022.1.1,60.113205188041405,3,
5,exp3.png,exp4.png,,0,0,0,0,0,5,5,5,,,,,,,,,,,,,,,,,,,,,,,,,False,4,5,True,exp4.png,exp3.png,trial_right_image,-1,exp3.png,3,exp4.png,exp3.png,0,2,non-reversed,incorrect,0.07217342942029625,1,invalid_win,34.09268280000015,2,,,,,,,,,,,,,,,,sub_115,2022-09-18_12h56.59.192,Reversal,2022.1.1,60.113205188041405,3,
6,exp1.png,exp2.png,,0,0,0,0,0,6,6,6,,,,,,,,,,,,,,,,,,,,,,,,,False,5,6,False,exp1.png,exp2.png,trial_left_image,1,exp1.png,3,exp2.png,exp1.png,0,4,reversed,incorrect,0.7136094263307674,0,valid_lose,41.243517100000645,2,,,,,,,,,,,,,,,,sub_115,2022-09-18_12h56.59.192,Reversal,2022.1.1,60.113205188041405,3,
7,exp3.png,exp4.png,,0,0,0,0,0,7,7,7,,,,,,,,,,,,,,,,,,,,,,,,,False,6,7,True,exp4.png,exp3.png,trial_right_image,-1,exp3.png,3,exp4.png,exp3.png,0,2,non-reversed,incorrect,0.35962975424811705,0,valid_lose,46.058067400000255,2,,,,,,,,,,,,,,,,sub_115,2022-09-18_12h56.59.192,Reversal,2022.1.1,60.113205188041405,3,
8,exp1.png,exp2.png,,0,0,0,0,0,8,8,8,,,,,,,,,,,,,,,,,,,,,,,,,False,7,8,False,exp1.png,exp2.png,trial_right_image,-1,exp2.png,3,exp2.png,exp1.png,1,3,reversed,correct,0.35089024209491637,1,valid_win,51.05731670000023,3,,,,,,,,,,,,,,,,sub_115,2022-09-18_12h56.59.192,Reversal,2022.1.1,60.113205188041405,3,
9,exp3.png,exp4.png,,0,0,0,0,0,9,9,9,,,,,,,,,,,,,,,,,,,,,,,,,False,8,9,False,exp3.png,exp4.png,trial_right_image,-1,exp4.png,3,exp4.png,exp3.png,1,1,non-reversed,correct,0.69292111459909,1,valid_win,57.24053309999999,4,,,,,,,,,,,,,,,,sub_115,2022-09-18_12h56.59.192,Reversal,2022.1.1,60.113205188041405,3,
10,exp1.png,exp2.png,,0,0,0,0,0,10,10,10,,,,,,,,,,,,,,,,,,,,,,,,,False,9,10,True,exp2.png,exp1.png,trial_right_image,-1,exp1.png,3,exp2.png,exp1.png,0,4,reversed,incorrect,0.8568914231612309,0,valid_lose,62.57294989999991,4,,,,,,,,,,,,,,,,sub_115,2022-09-18_12h56.59.192,Reversal,2022.1.1,60.113205188041405,3,
11,exp3.png,exp4.png,,0,0,0,0,0,11,11,11,,,,,,,,,,,,,,,,,,,,,,,,,False,10,11,False,exp3.png,exp4.png,trial_left_image,1,exp3.png,3,exp4.png,exp3.png,0,2,non-reversed,incorrect,0.03772712664569111,1,invalid_win,67.07221550000031,5,,,,,,,,,,,,,,,,sub_115,2022-09-18_12h56.59.192,Reversal,2022.1.1,60.113205188041405,3,
12,exp1.png,exp2.png,,0,0,0,0,0,12,12,12,,,,,,,,,,,,,,,,,,,,,,,,,False,11,12,True,exp2.png,exp1.png,trial_left_image,1,exp2.png,3,exp2.png,exp1.png,1,3,reversed,correct,0.5870957727928007,1,valid_win,71.78725639999993,6,,,,,,,,,,,,,,,,sub_115,2022-09-18_12h56.59.192,Reversal,2022.1.1,60.113205188041405,3,
13,exp3.png,exp4.png,,0,0,0,0,0,13,13,13,,,,,,,,,,,,,,,,,,,,,,,,,False,12,13,False,exp3.png,exp4.png,trial_right_image,-1,exp4.png,3,exp4.png,exp3.png,1,1,non-reversed,correct,0.21162638598138916,0,invalid_lose,76.38958770000045,6,,,,,,,,,,,,,,,,sub_115,2022-09-18_12h56.59.192,Reversal,2022.1.1,60.113205188041405,3,
14,exp1.png,exp2.png,,0,0,0,0,0,14,14,14,,,,,,,,,,,,,,,,,,,,,,,,,False,13,14,True,exp2.png,exp1.png,trial_right_image,-1,exp1.png,3,exp2.png,exp1.png,0,4,reversed,incorrect,0.22883565042175547,1,invalid_win,80.46992030000001,7,,,,,,,,,,,,,,,,sub_115,2022-09-18_12h56.59.192,Reversal,2022.1.1,60.113205188041405,3,
15,exp3.png,exp4.png,,0,0,0,0,0,15,15,15,,,,,,,,,,,,,,,,,,,,,,,,,False,14,15,False,exp3.png,exp4.png,trial_right_image,-1,exp4.png,3,exp4.png,exp3.png,1,1,non-reversed,correct,0.23450453139018212,0,invalid_lose,84.83826800000043,7,,,,,,,,,,,,,,,,sub_115,2022-09-18_12h56.59.192,Reversal,2022.1.1,60.113205188041405,3,
16,exp1.png,exp2.png,,0,0,0,0,0,16,16,16,,,,,,,,,,,,,,,,,,,,,,,,,False,15,16,False,exp1.png,exp2.png,trial_left_image,1,exp1.png,3,exp2.png,exp1.png,0,4,reversed,incorrect,0.5034060378131247,0,valid_lose,89.36892760000046,7,,,,,,,,,,,,,,,,sub_115,2022-09-18_12h56.59.192,Reversal,2022.1.1,60.113205188041405,3,
17,exp3.png,exp4.png,,0,0,0,0,0,17,17,17,,,,,,,,,,,,,,,,,,,,,,,,,False,16,17,True,exp4.png,exp3.png,trial_right_image,-1,exp3.png,3,exp4.png,exp3.png,0,2,non-reversed,incorrect,0.9370867895679257,0,valid_lose,93.91941790000055,7,,,,,,,,,,,,,,,,sub_115,2022-09-18_12h56.59.192,Reversal,2022.1.1,60.113205188041405,3,
18,exp1.png,exp2.png,,0,0,0,0,0,18,18,18,,,,,,,,,,,,,,,,,,,,,,,,,False,17,18,False,exp1.png,exp2.png,trial_left_image,1,exp1.png,3,exp2.png,exp1.png,0,4,reversed,incorrect,0.7241220235300247,0,valid_lose,98.06830380000065,7,,,,,,,,,,,,,,,,sub_115,2022-09-18_12h56.59.192,Reversal,2022.1.1,60.113205188041405,3,
19,exp3.png,exp4.png,,0,0,0,0,0,19,19,19,,,,,,,,,,,,,,,,,,,,,,,,,False,18,19,False,exp3.png,exp4.png,trial_right_image,-1,exp4.png,3,exp4.png,exp3.png,1,1,non-reversed,correct,0.8513590211073495,1,valid_win,105.46708639999997,8,,,,,,,,,,,,,,,,sub_115,2022-09-18_12h56.59.192,Reversal,2022.1.1,60.113205188041405,3,
20,exp1.png,exp2.png,,0,0,0,0,0,20,20,20,,,,,,,,,,,,,,,,,,,,,,,,,False,19,20,True,exp2.png,exp1.png,trial_right_image,-1,exp1.png,3,exp2.png,exp1.png,0,4,reversed,incorrect,0.5567412190214465,0,valid_lose,109.93283520000023,8,,,,,,,,,,,,,,,,sub_115,2022-09-18_12h56.59.192,Reversal,2022.1.1,60.113205188041405,3,
,,,exp1.png,0,0,0,0,,,,,0,0,0,0,0,0,0,0,,,,,,,,,,,,,,,,,,,,,,,,,,,,,,,,,,,,,,50.0,None,[],269.94789110000056,None,,,,,,,,,,,sub_115,2022-09-18_12h56.59.192,Reversal,2022.1.1,60.113205188041405,3,
,,,exp2.png,0,0,0,0,,,,,0,0,0,0,0,1,1,1,,,,,,,,,,,,,,,,,,,,,,,,,,,,,,,,,,,,,,47.0,3.94625139999971,"[(47.0, 3.94625139999971)]",280.97760500000004,None,47.0,,,,,,,,,,sub_115,2022-09-18_12h56.59.192,Reversal,2022.1.1,60.113205188041405,3,
,,,exp3.png,0,0,0,0,,,,,0,0,0,0,0,2,2,2,,,,,,,,,,,,,,,,,,,,,,,,,,,,,,,,,,,,,,50.0,None,[],285.9608624000002,None,,,,,,,,,,,sub_115,2022-09-18_12h56.59.192,Reversal,2022.1.1,60.113205188041405,3,
,,,exp4.png,0,0,0,0,,,,,0,0,0,0,0,3,3,3,,,,,,,,,,,,,,,,,,,,,,,,,,,,,,,,,,,,,,69.0,3.009931000000506,"[(69.0, 3.009931000000506)]",289.3440076000006,None,,69.0,,,,,,,,,sub_115,2022-09-18_12h56.59.192,Reversal,2022.1.1,60.113205188041405,3,
0,exp1.png,exp2.png,,1,0,1,0,0,0,0,0,,,,,,,,,,,,,,,,,,,,,,,,,True,,,,,,,,,,,,,,,,,,,,,,,,,,,,,,,,,,,,sub_115,2022-09-18_12h56.59.192,Reversal,2022.1.1,60.113205188041405,3,
1,exp3.png,exp4.png,,1,0,1,0,0,1,1,1,,,,,,,,,,,,,,,,,,,,,,,,,False,20,21,False,exp3.png,exp4.png,trial_right_image,-1,exp4.png,3,exp4.png,exp3.png,1,1,non-reversed,correct,0.5401424675554232,1,valid_win,139.53031700000065,9,,,,,,,,,,,,,,,,sub_115,2022-09-18_12h56.59.192,Reversal,2022.1.1,60.113205188041405,3,
2,exp1.png,exp2.png,,1,0,1,0,0,2,2,2,,,,,,,,,,,,,,,,,,,,,,,,,False,21,22,False,exp1.png,exp2.png,trial_right_image,-1,exp2.png,3,exp2.png,exp1.png,1,3,reversed,correct,0.2847152080237191,1,valid_win,144.2119818000001,10,,,,,,,,,,,,,,,,sub_115,2022-09-18_12h56.59.192,Reversal,2022.1.1,60.113205188041405,3,
3,exp3.png,exp4.png,,1,0,1,0,0,3,3,3,,,,,,,,,,,,,,,,,,,,,,,,,False,22,23,True,exp4.png,exp3.png,trial_left_image,1,exp4.png,3,exp4.png,exp3.png,1,1,non-reversed,correct,0.6960022598292125,1,valid_win,148.72851679999985,11,,,,,,,,,,,,,,,,sub_115,2022-09-18_12h56.59.192,Reversal,2022.1.1,60.113205188041405,3,
4,exp1.png,exp2.png,,1,0,1,0,0,4,4,4,,,,,,,,,,,,,,,,,,,,,,,,,False,23,24,False,exp1.png,exp2.png,trial_left_image,1,exp1.png,3,exp2.png,exp1.png,0,4,reversed,incorrect,0.21502516733781518,1,invalid_win,153.1779335000001,12,,,,,,,,,,,,,,,,sub_115,2022-09-18_12h56.59.192,Reversal,2022.1.1,60.113205188041405,3,
5,exp3.png,exp4.png,,1,0,1,0,0,5,5,5,,,,,,,,,,,,,,,,,,,,,,,,,False,24,25,True,exp4.png,exp3.png,trial_right_image,-1,exp3.png,3,exp4.png,exp3.png,0,2,non-reversed,incorrect,0.3004909727908254,0,valid_lose,157.6443380999999,12,,,,,,,,,,,,,,,,sub_115,2022-09-18_12h56.59.192,Reversal,2022.1.1,60.113205188041405,3,
6,exp1.png,exp2.png,,1,0,1,0,0,6,6,6,,,,,,,,,,,,,,,,,,,,,,,,,False,25,26,True,exp2.png,exp1.png,trial_left_image,1,exp2.png,3,exp2.png,exp1.png,1,3,reversed,correct,0.8754804870668306,1,valid_win,162.25935459999982,13,,,,,,,,,,,,,,,,sub_115,2022-09-18_12h56.59.192,Reversal,2022.1.1,60.113205188041405,3,
7,exp3.png,exp4.png,,1,0,1,0,0,7,7,7,,,,,,,,,,,,,,,,,,,,,,,,,False,26,27,False,exp3.png,exp4.png,trial_left_image,1,exp3.png,3,exp4.png,exp3.png,0,2,non-reversed,incorrect,0.05520984705941945,1,invalid_win,166.37636770000063,14,,,,,,,,,,,,,,,,sub_115,2022-09-18_12h56.59.192,Reversal,2022.1.1,60.113205188041405,3,
8,exp1.png,exp2.png,,1,0,1,0,0,8,8,8,,,,,,,,,,,,,,,,,,,,,,,,,False,27,28,True,exp2.png,exp1.png,trial_right_image,-1,exp1.png,3,exp2.png,exp1.png,0,4,reversed,incorrect,0.5077587731223282,0,valid_lose,172.5082867000001,14,,,,,,,,,,,,,,,,sub_115,2022-09-18_12h56.59.192,Reversal,2022.1.1,60.113205188041405,3,
9,exp3.png,exp4.png,,1,0,1,0,0,9,9,9,,,,,,,,,,,,,,,,,,,,,,,,,False,28,29,True,exp4.png,exp3.png,trial_left_image,1,exp4.png,3,exp4.png,exp3.png,1,1,non-reversed,correct,0.58180926958732,1,valid_win,177.40724099999989,15,,,,,,,,,,,,,,,,sub_115,2022-09-18_12h56.59.192,Reversal,2022.1.1,60.113205188041405,3,
10,exp1.png,exp2.png,,1,0,1,0,0,10,10,10,,,,,,,,,,,,,,,,,,,,,,,,,False,29,30,True,exp2.png,exp1.png,trial_right_image,-1,exp1.png,3,exp2.png,exp1.png,0,4,reversed,incorrect,0.24544298881607973,1,invalid_win,181.52530269999988,16,,,,,,,,,,,,,,,,sub_115,2022-09-18_12h56.59.192,Reversal,2022.1.1,60.113205188041405,3,
11,exp3.png,exp4.png,,1,0,1,0,0,11,11,11,,,,,,,,,,,,,,,,,,,,,,,,,False,30,31,False,exp3.png,exp4.png,trial_right_image,-1,exp4.png,3,exp4.png,exp3.png,1,1,non-reversed,correct,0.4823466816568902,1,valid_win,186.0895774999999,17,,,,,,,,,,,,,,,,sub_115,2022-09-18_12h56.59.192,Reversal,2022.1.1,60.113205188041405,3,
12,exp1.png,exp2.png,,1,0,1,0,0,12,12,12,,,,,,,,,,,,,,,,,,,,,,,,,False,31,32,True,exp2.png,exp1.png,trial_left_image,1,exp2.png,3,exp2.png,exp1.png,1,3,reversed,correct,0.801866433111477,1,valid_win,190.72245470000053,18,,,,,,,,,,,,,,,,sub_115,2022-09-18_12h56.59.192,Reversal,2022.1.1,60.113205188041405,3,
13,exp3.png,exp4.png,,1,0,1,0,0,13,13,13,,,,,,,,,,,,,,,,,,,,,,,,,False,32,33,True,exp4.png,exp3.png,trial_left_image,1,exp4.png,3,exp4.png,exp3.png,1,1,non-reversed,correct,0.20891845373013784,0,invalid_lose,195.27178960000037,18,,,,,,,,,,,,,,,,sub_115,2022-09-18_12h56.59.192,Reversal,2022.1.1,60.113205188041405,3,
14,exp1.png,exp2.png,,1,0,1,0,0,14,14,14,,,,,,,,,,,,,,,,,,,,,,,,,False,33,34,False,exp1.png,exp2.png,trial_right_image,-1,exp2.png,3,exp2.png,exp1.png,1,3,reversed,correct,0.8333562121559455,1,valid_win,199.32093690000056,19,,,,,,,,,,,,,,,,sub_115,2022-09-18_12h56.59.192,Reversal,2022.1.1,60.113205188041405,3,
15,exp3.png,exp4.png,,1,0,1,0,0,15,15,15,,,,,,,,,,,,,,,,,,,,,,,,,False,34,35,False,exp3.png,exp4.png,trial_right_image,-1,exp4.png,3,exp4.png,exp3.png,1,1,non-reversed,correct,0.3946626044501651,1,valid_win,203.95511859999988,20,,,,,,,,,,,,,,,,sub_115,2022-09-18_12h56.59.192,Reversal,2022.1.1,60.113205188041405,3,
16,exp1.png,exp2.png,,1,0,1,0,0,16,16,16,,,,,,,,,,,,,,,,,,,,,,,,,False,35,36,True,exp2.png,exp1.png,trial_left_image,1,exp2.png,3,exp2.png,exp1.png,1,3,reversed,correct,0.9447682572025103,1,valid_win,208.53673960000015,21,,,,,,,,,,,,,,,,sub_115,2022-09-18_12h56.59.192,Reversal,2022.1.1,60.113205188041405,3,
17,exp3.png,exp4.png,,1,0,1,0,0,17,17,17,,,,,,,,,,,,,,,,,,,,,,,,,False,36,37,False,exp3.png,exp4.png,trial_left_image,1,exp3.png,3,exp4.png,exp3.png,0,2,non-reversed,incorrect,0.1794012974605126,1,invalid_win,213.31959199999983,22,,,,,,,,,,,,,,,,sub_115,2022-09-18_12h56.59.192,Reversal,2022.1.1,60.113205188041405,3,
18,exp1.png,exp2.png,,1,0,1,0,0,18,18,18,,,,,,,,,,,,,,,,,,,,,,,,,False,37,38,False,exp1.png,exp2.png,trial_right_image,-1,exp2.png,3,exp2.png,exp1.png,1,3,reversed,correct,0.9851262524766818,1,valid_win,218.65355180000006,23,,,,,,,,,,,,,,,,sub_115,2022-09-18_12h56.59.192,Reversal,2022.1.1,60.113205188041405,3,
19,exp3.png,exp4.png,,1,0,1,0,0,19,19,19,,,,,,,,,,,,,,,,,,,,,,,,,False,38,39,False,exp3.png,exp4.png,trial_right_image,-1,exp4.png,3,exp4.png,exp3.png,1,1,non-reversed,correct,0.9868987729132922,1,valid_win,223.3524154000006,24,,,,,,,,,,,,,,,,sub_115,2022-09-18_12h56.59.192,Reversal,2022.1.1,60.113205188041405,3,
20,exp1.png,exp2.png,,1,0,1,0,0,20,20,20,,,,,,,,,,,,,,,,,,,,,,,,,False,39,40,True,exp2.png,exp1.png,trial_left_image,1,exp2.png,3,exp2.png,exp1.png,1,3,reversed,correct,0.13540336528184083,0,invalid_lose,228.0680057999998,24,,,,,,,,,,,,,,,,sub_115,2022-09-18_12h56.59.192,Reversal,2022.1.1,60.113205188041405,3,
,,,exp1.png,1,0,1,0,,,,,0,0,0,0,0,0,0,0,,,,,,,,,,,,,,,,,,,,,,,,,,,,,,,,,,,,,,51.0,7.085999500000071,"[(51.0, 7.085999500000071)]",388.1067294000004,None,,,51.0,,,,,,,,sub_115,2022-09-18_12h56.59.192,Reversal,2022.1.1,60.113205188041405,3,
,,,exp2.png,1,0,1,0,,,,,0,0,0,0,0,1,1,1,,,,,,,,,,,,,,,,,,,,,,,,,,,,,,,,,,,,,,51.0,5.819482300000345,"[(51.0, 5.819482300000345)]",396.13691610000024,None,51.0,,,,,,,,,,sub_115,2022-09-18_12h56.59.192,Reversal,2022.1.1,60.113205188041405,3,
,,,exp3.png,1,0,1,0,,,,,0,0,0,0,0,2,2,2,,,,,,,,,,,,,,,,,,,,,,,,,,,,,,,,,,,,,,48.0,2.388199699999859,"[(48.0, 2.388199699999859)]",403.0512484000001,None,,,,48.0,,,,,,,sub_115,2022-09-18_12h56.59.192,Reversal,2022.1.1,60.113205188041405,3,
,,,exp4.png,1,0,1,0,,,,,0,0,0,0,0,3,3,3,,,,,,,,,,,,,,,,,,,,,,,,,,,,,,,,,,,,,,54.0,2.4648692999999184,"[(54.0, 2.4648692999999184)]",406.30718700000034,None,,54.0,,,,,,,,,sub_115,2022-09-18_12h56.59.192,Reversal,2022.1.1,60.113205188041405,3,
0,exp1.png,exp2.png,,2,0,2,0,0,0,0,0,,,,,,,,,,,,,,,,,,,,,,,,,True,,,,,,,,,,,,,,,,,,,,,,,,,,,,,,,,,,,,sub_115,2022-09-18_12h56.59.192,Reversal,2022.1.1,60.113205188041405,3,
1,exp3.png,exp4.png,,2,0,2,0,0,1,1,1,,,,,,,,,,,,,,,,,,,,,,,,,False,40,41,False,exp3.png,exp4.png,trial_right_image,-1,exp4.png,3,exp4.png,exp3.png,1,1,non-reversed,correct,0.6128469382999123,1,valid_win,255.13001820000045,25,,,,,,,,,,,,,,,,sub_115,2022-09-18_12h56.59.192,Reversal,2022.1.1,60.113205188041405,3,
2,exp1.png,exp2.png,,2,0,2,0,0,2,2,2,,,,,,,,,,,,,,,,,,,,,,,,,False,41,42,False,exp1.png,exp2.png,trial_left_image,1,exp1.png,3,exp2.png,exp1.png,0,4,reversed,incorrect,0.2228865864630707,1,invalid_win,261.31541130000005,26,,,,,,,,,,,,,,,,sub_115,2022-09-18_12h56.59.192,Reversal,2022.1.1,60.113205188041405,3,
3,exp3.png,exp4.png,,2,0,2,0,0,3,3,3,,,,,,,,,,,,,,,,,,,,,,,,,False,42,43,True,exp4.png,exp3.png,trial_right_image,-1,exp3.png,3,exp4.png,exp3.png,0,2,non-reversed,incorrect,0.9462368918897739,0,valid_lose,267.64636040000005,26,,,,,,,,,,,,,,,,sub_115,2022-09-18_12h56.59.192,Reversal,2022.1.1,60.113205188041405,3,
4,exp1.png,exp2.png,,2,0,2,0,0,4,4,4,,,,,,,,,,,,,,,,,,,,,,,,,False,43,44,False,exp1.png,exp2.png,trial_left_image,1,exp1.png,3,exp2.png,exp1.png,0,4,reversed,incorrect,0.3936149818797945,0,valid_lose,272.76184850000027,26,,,,,,,,,,,,,,,,sub_115,2022-09-18_12h56.59.192,Reversal,2022.1.1,60.113205188041405,3,
5,exp3.png,exp4.png,,2,0,2,0,0,5,5,5,,,,,,,,,,,,,,,,,,,,,,,,,False,44,45,True,exp4.png,exp3.png,trial_left_image,1,exp4.png,3,exp4.png,exp3.png,1,1,non-reversed,correct,0.25857214082763724,1,valid_win,277.3116522,27,,,,,,,,,,,,,,,,sub_115,2022-09-18_12h56.59.192,Reversal,2022.1.1,60.113205188041405,3,
6,exp1.png,exp2.png,,2,0,2,0,0,6,6,6,,,,,,,,,,,,,,,,,,,,,,,,,False,45,46,False,exp1.png,exp2.png,trial_right_image,-1,exp2.png,3,exp2.png,exp1.png,1,3,reversed,correct,0.695143103004233,1,valid_win,285.91122350000023,28,,,,,,,,,,,,,,,,sub_115,2022-09-18_12h56.59.192,Reversal,2022.1.1,60.113205188041405,3,
7,exp3.png,exp4.png,,2,0,2,0,0,7,7,7,,,,,,,,,,,,,,,,,,,,,,,,,False,46,47,False,exp3.png,exp4.png,trial_left_image,1,exp3.png,3,exp4.png,exp3.png,0,2,non-reversed,incorrect,0.5550637345100714,0,valid_lose,290.71047050000016,28,,,,,,,,,,,,,,,,sub_115,2022-09-18_12h56.59.192,Reversal,2022.1.1,60.113205188041405,3,
8,exp1.png,exp2.png,,2,0,2,0,0,8,8,8,,,,,,,,,,,,,,,,,,,,,,,,,False,47,48,True,exp2.png,exp1.png,trial_right_image,-1,exp1.png,3,exp2.png,exp1.png,0,4,reversed,incorrect,0.8560490462490334,0,valid_lose,296.3929342000001,28,,,,,,,,,,,,,,,,sub_115,2022-09-18_12h56.59.192,Reversal,2022.1.1,60.113205188041405,3,
9,exp3.png,exp4.png,,2,0,2,0,0,9,9,9,,,,,,,,,,,,,,,,,,,,,,,,,False,48,49,True,exp4.png,exp3.png,trial_right_image,-1,exp3.png,3,exp4.png,exp3.png,0,2,non-reversed,incorrect,0.3367517261264056,0,valid_lose,302.3911407000005,28,,,,,,,,,,,,,,,,sub_115,2022-09-18_12h56.59.192,Reversal,2022.1.1,60.113205188041405,3,
10,exp1.png,exp2.png,,2,0,2,0,0,10,10,10,,,,,,,,,,,,,,,,,,,,,,,,,False,49,50,True,exp2.png,exp1.png,trial_left_image,1,exp2.png,3,exp2.png,exp1.png,1,3,reversed,correct,0.396772577377674,1,valid_win,308.04306590000033,29,,,,,,,,,,,,,,,,sub_115,2022-09-18_12h56.59.192,Reversal,2022.1.1,60.113205188041405,3,
11,exp3.png,exp4.png,,2,0,2,0,0,11,11,11,,,,,,,,,,,,,,,,,,,,,,,,,False,50,51,False,exp3.png,exp4.png,trial_left_image,1,exp3.png,3,exp4.png,exp3.png,0,2,non-reversed,incorrect,0.749516073001222,0,valid_lose,312.54082610000023,29,,,,,,,,,,,,,,,,sub_115,2022-09-18_12h56.59.192,Reversal,2022.1.1,60.113205188041405,3,
12,exp1.png,exp2.png,,2,0,2,0,0,12,12,12,,,,,,,,,,,,,,,,,,,,,,,,,False,51,52,True,exp2.png,exp1.png,trial_left_image,1,exp2.png,3,exp2.png,exp1.png,1,3,reversed,correct,0.8010404270072703,1,valid_win,317.9063225,30,,,,,,,,,,,,,,,,sub_115,2022-09-18_12h56.59.192,Reversal,2022.1.1,60.113205188041405,3,
13,exp3.png,exp4.png,,2,0,2,0,0,13,13,13,,,,,,,,,,,,,,,,,,,,,,,,,False,52,53,True,exp4.png,exp3.png,trial_right_image,-1,exp3.png,3,exp4.png,exp3.png,0,2,non-reversed,incorrect,0.6123185173444387,0,valid_lose,322.4741390999998,30,,,,,,,,,,,,,,,,sub_115,2022-09-18_12h56.59.192,Reversal,2022.1.1,60.113205188041405,3,
14,exp1.png,exp2.png,,2,0,2,0,0,14,14,14,,,,,,,,,,,,,,,,,,,,,,,,,False,53,54,False,exp1.png,exp2.png,trial_right_image,-1,exp2.png,3,exp2.png,exp1.png,1,3,reversed,correct,0.7656002771443935,1,valid_win,327.9551996,31,,,,,,,,,,,,,,,,sub_115,2022-09-18_12h56.59.192,Reversal,2022.1.1,60.113205188041405,3,
15,exp3.png,exp4.png,,2,0,2,0,0,15,15,15,,,,,,,,,,,,,,,,,,,,,,,,,False,54,55,True,exp4.png,exp3.png,trial_left_image,1,exp4.png,3,exp4.png,exp3.png,1,1,non-reversed,correct,0.5043008807540829,1,valid_win,333.5205276000006,32,,,,,,,,,,,,,,,,sub_115,2022-09-18_12h56.59.192,Reversal,2022.1.1,60.113205188041405,3,
16,exp1.png,exp2.png,,2,0,2,0,0,16,16,16,,,,,,,,,,,,,,,,,,,,,,,,,False,55,56,False,exp1.png,exp2.png,trial_right_image,-1,exp2.png,3,exp2.png,exp1.png,1,3,reversed,correct,0.20964060748651536,0,invalid_lose,339.5028673000006,32,,,,,,,,,,,,,,,,sub_115,2022-09-18_12h56.59.192,Reversal,2022.1.1,60.113205188041405,3,
17,exp3.png,exp4.png,,2,0,2,0,0,17,17,17,,,,,,,,,,,,,,,,,,,,,,,,,False,56,57,True,exp4.png,exp3.png,trial_left_image,1,exp4.png,3,exp4.png,exp3.png,1,1,non-reversed,correct,0.45027979728807643,1,valid_win,344.7379798000002,33,,,,,,,,,,,,,,,,sub_115,2022-09-18_12h56.59.192,Reversal,2022.1.1,60.113205188041405,3,
18,exp1.png,exp2.png,,2,0,2,0,0,18,18,18,,,,,,,,,,,,,,,,,,,,,,,,,False,57,58,True,exp2.png,exp1.png,trial_left_image,1,exp2.png,3,exp2.png,exp1.png,1,3,reversed,correct,0.32369756986294784,1,valid_win,356.1026259999999,34,,,,,,,,,,,,,,,,sub_115,2022-09-18_12h56.59.192,Reversal,2022.1.1,60.113205188041405,3,
19,exp3.png,exp4.png,,2,0,2,0,0,19,19,19,,,,,,,,,,,,,,,,,,,,,,,,,False,58,59,False,exp3.png,exp4.png,trial_left_image,1,exp3.png,3,exp4.png,exp3.png,0,2,non-reversed,incorrect,0.958108834600587,0,valid_lose,361.53567340000063,34,,,,,,,,,,,,,,,,sub_115,2022-09-18_12h56.59.192,Reversal,2022.1.1,60.113205188041405,3,
20,exp1.png,exp2.png,,2,0,2,0,0,20,20,20,,,,,,,,,,,,,,,,,,,,,,,,,False,59,60,False,exp1.png,exp2.png,trial_right_image,-1,exp2.png,3,exp2.png,exp1.png,1,3,reversed,correct,0.961061625430643,1,valid_win,369.0344945000006,35,,,,,,,,,,,,,,,,sub_115,2022-09-18_12h56.59.192,Reversal,2022.1.1,60.113205188041405,3,
,,,exp1.png,2,0,2,0,,,,,0,0,0,0,0,0,0,0,,,,,,,,,,,,,,,,,,,,,,,,,,,,,,,,,,,,,,48.0,3.9238642000000254,"[(48.0, 3.9238642000000254)]",529.0670372000004,None,,,48.0,,,,,,,,sub_115,2022-09-18_12h56.59.192,Reversal,2022.1.1,60.113205188041405,3,
,,,exp2.png,2,0,2,0,,,,,0,0,0,0,0,1,1,1,,,,,,,,,,,,,,,,,,,,,,,,,,,,,,,,,,,,,,52.0,2.709538899999643,"[(52.0, 2.709538899999643)]",533.8313954000005,None,52.0,,,,,,,,,,sub_115,2022-09-18_12h56.59.192,Reversal,2022.1.1,60.113205188041405,3,
,,,exp3.png,2,0,2,0,,,,,0,0,0,0,0,2,2,2,,,,,,,,,,,,,,,,,,,,,,,,,,,,,,,,,,,,,,49.0,2.4890458999998373,"[(49.0, 2.4890458999998373)]",537.3491480000002,None,,,,49.0,,,,,,,sub_115,2022-09-18_12h56.59.192,Reversal,2022.1.1,60.113205188041405,3,
,,,exp4.png,2,0,2,0,,,,,0,0,0,0,0,3,3,3,,,,,,,,,,,,,,,,,,,,,,,,,,,,,,,,,,,,,,52.0,2.686729600000035,"[(52.0, 2.686729600000035)]",540.6522644000006,None,,52.0,,,,,,,,,sub_115,2022-09-18_12h56.59.192,Reversal,2022.1.1,60.113205188041405,3,
0,exp1.png,exp2.png,,3,0,3,0,0,0,0,0,,,,,,,,,,,,,,,,,,,,,,,,,True,,,,,,,,,,,,,,,,,,,,,,,,,,,,,,,,,,,,sub_115,2022-09-18_12h56.59.192,Reversal,2022.1.1,60.113205188041405,3,
1,exp3.png,exp4.png,,3,0,3,0,0,1,1,1,,,,,,,,,,,,,,,,,,,,,,,,,False,60,61,True,exp4.png,exp3.png,trial_left_image,1,exp4.png,3,exp4.png,exp3.png,1,1,non-reversed,correct,0.31542223877367237,1,valid_win,391.2966707000005,36,,,,,,,,,,,,,,,,sub_115,2022-09-18_12h56.59.192,Reversal,2022.1.1,60.113205188041405,3,
2,exp1.png,exp2.png,,3,0,3,0,0,2,2,2,,,,,,,,,,,,,,,,,,,,,,,,,False,61,62,True,exp2.png,exp1.png,trial_right_image,-1,exp1.png,3,exp2.png,exp1.png,0,4,reversed,incorrect,0.2801477899912269,0,valid_lose,401.2795861000004,36,,,,,,,,,,,,,,,,sub_115,2022-09-18_12h56.59.192,Reversal,2022.1.1,60.113205188041405,3,
3,exp3.png,exp4.png,,3,0,3,0,0,3,3,3,,,,,,,,,,,,,,,,,,,,,,,,,False,62,63,False,exp3.png,exp4.png,trial_right_image,-1,exp4.png,3,exp4.png,exp3.png,1,1,non-reversed,correct,0.18025195817659112,0,invalid_lose,405.41218370000024,36,,,,,,,,,,,,,,,,sub_115,2022-09-18_12h56.59.192,Reversal,2022.1.1,60.113205188041405,3,
4,exp1.png,exp2.png,,3,0,3,0,0,4,4,4,,,,,,,,,,,,,,,,,,,,,,,,,False,63,64,False,exp1.png,exp2.png,trial_left_image,1,exp1.png,3,exp2.png,exp1.png,0,4,reversed,incorrect,0.5064088938983742,0,valid_lose,409.96010320000005,36,,,,,,,,,,,,,,,,sub_115,2022-09-18_12h56.59.192,Reversal,2022.1.1,60.113205188041405,3,
5,exp3.png,exp4.png,,3,0,3,0,0,5,5,5,,,,,,,,,,,,,,,,,,,,,,,,,False,64,65,False,exp3.png,exp4.png,trial_left_image,1,exp3.png,3,exp4.png,exp3.png,0,2,non-reversed,incorrect,0.515263472485345,0,valid_lose,414.54483880000043,36,,,,,,,,,,,,,,,,sub_115,2022-09-18_12h56.59.192,Reversal,2022.1.1,60.113205188041405,3,
6,exp1.png,exp2.png,,3,0,3,0,0,6,6,6,,,,,,,,,,,,,,,,,,,,,,,,,False,65,66,True,exp2.png,exp1.png,trial_right_image,-1,exp1.png,3,exp2.png,exp1.png,0,4,reversed,incorrect,0.9554680532521742,0,valid_lose,419.22711119999985,36,,,,,,,,,,,,,,,,sub_115,2022-09-18_12h56.59.192,Reversal,2022.1.1,60.113205188041405,3,
7,exp3.png,exp4.png,,3,0,3,0,0,7,7,7,,,,,,,,,,,,,,,,,,,,,,,,,False,66,67,False,exp3.png,exp4.png,trial_right_image,-1,exp4.png,3,exp4.png,exp3.png,1,1,non-reversed,correct,0.7188713293944125,1,valid_win,423.3268312,37,,,,,,,,,,,,,,,,sub_115,2022-09-18_12h56.59.192,Reversal,2022.1.1,60.113205188041405,3,
8,exp1.png,exp2.png,,3,0,3,0,0,8,8,8,,,,,,,,,,,,,,,,,,,,,,,,,False,67,68,False,exp1.png,exp2.png,trial_right_image,-1,exp2.png,3,exp2.png,exp1.png,1,3,reversed,correct,0.13461652560865656,0,invalid_lose,427.8921381,37,,,,,,,,,,,,,,,,sub_115,2022-09-18_12h56.59.192,Reversal,2022.1.1,60.113205188041405,3,
9,exp3.png,exp4.png,,3,0,3,0,0,9,9,9,,,,,,,,,,,,,,,,,,,,,,,,,False,68,69,True,exp4.png,exp3.png,trial_right_image,-1,exp3.png,3,exp4.png,exp3.png,0,2,non-reversed,incorrect,0.5982388610002679,0,valid_lose,432.40869590000057,37,,,,,,,,,,,,,,,,sub_115,2022-09-18_12h56.59.192,Reversal,2022.1.1,60.113205188041405,3,
10,exp1.png,exp2.png,,3,0,3,0,0,10,10,10,,,,,,,,,,,,,,,,,,,,,,,,,False,69,70,False,exp1.png,exp2.png,trial_left_image,1,exp1.png,3,exp2.png,exp1.png,0,4,reversed,incorrect,0.48365077971311765,0,valid_lose,438.6407635000005,37,,,,,,,,,,,,,,,,sub_115,2022-09-18_12h56.59.192,Reversal,2022.1.1,60.113205188041405,3,
11,exp3.png,exp4.png,,3,0,3,0,0,11,11,11,,,,,,,,,,,,,,,,,,,,,,,,,False,70,71,False,exp3.png,exp4.png,trial_right_image,-1,exp4.png,3,exp4.png,exp3.png,1,1,non-reversed,correct,0.9807727754228217,1,valid_win,443.27440360000037,38,,,,,,,,,,,,,,,,sub_115,2022-09-18_12h56.59.192,Reversal,2022.1.1,60.113205188041405,3,
12,exp1.png,exp2.png,,3,0,3,0,0,12,12,12,,,,,,,,,,,,,,,,,,,,,,,,,False,71,72,True,exp2.png,exp1.png,trial_left_image,1,exp2.png,3,exp2.png,exp1.png,1,3,reversed,correct,0.20023768422891475,0,invalid_lose,449.9055677000006,38,,,,,,,,,,,,,,,,sub_115,2022-09-18_12h56.59.192,Reversal,2022.1.1,60.113205188041405,3,
13,exp3.png,exp4.png,,3,0,3,0,0,13,13,13,,,,,,,,,,,,,,,,,,,,,,,,,False,72,73,True,exp4.png,exp3.png,trial_right_image,-1,exp3.png,3,exp4.png,exp3.png,0,2,non-reversed,incorrect,0.5629865444667854,0,valid_lose,454.4409179000004,38,,,,,,,,,,,,,,,,sub_115,2022-09-18_12h56.59.192,Reversal,2022.1.1,60.113205188041405,3,
14,exp1.png,exp2.png,,3,0,3,0,0,14,14,14,,,,,,,,,,,,,,,,,,,,,,,,,False,73,74,True,exp2.png,exp1.png,trial_left_image,1,exp2.png,3,exp2.png,exp1.png,1,3,reversed,correct,0.8111566212448453,1,valid_win,459.2876737000006,39,,,,,,,,,,,,,,,,sub_115,2022-09-18_12h56.59.192,Reversal,2022.1.1,60.113205188041405,3,
15,exp3.png,exp4.png,,3,0,3,0,0,15,15,15,,,,,,,,,,,,,,,,,,,,,,,,,False,74,75,True,exp4.png,exp3.png,trial_left_image,1,exp4.png,3,exp4.png,exp3.png,1,1,non-reversed,correct,0.7529940532453655,1,valid_win,463.9041999000001,40,,,,,,,,,,,,,,,,sub_115,2022-09-18_12h56.59.192,Reversal,2022.1.1,60.113205188041405,3,
16,exp1.png,exp2.png,,3,0,3,0,0,16,16,16,,,,,,,,,,,,,,,,,,,,,,,,,False,75,76,False,exp1.png,exp2.png,trial_left_image,1,exp1.png,3,exp2.png,exp1.png,0,4,reversed,incorrect,0.2530102843198708,0,valid_lose,468.4056963000003,40,,,,,,,,,,,,,,,,sub_115,2022-09-18_12h56.59.192,Reversal,2022.1.1,60.113205188041405,3,
17,exp3.png,exp4.png,,3,0,3,0,0,17,17,17,,,,,,,,,,,,,,,,,,,,,,,,,False,76,77,False,exp3.png,exp4.png,trial_right_image,-1,exp4.png,3,exp4.png,exp3.png,1,1,non-reversed,correct,0.2202806394726835,0,invalid_lose,480.4689862000005,40,,,,,,,,,,,,,,,,sub_115,2022-09-18_12h56.59.192,Reversal,2022.1.1,60.113205188041405,3,
18,exp1.png,exp2.png,,3,0,3,0,0,18,18,18,,,,,,,,,,,,,,,,,,,,,,,,,False,77,78,False,exp1.png,exp2.png,trial_right_image,-1,exp2.png,3,exp2.png,exp1.png,1,3,reversed,correct,0.9273927082930631,1,valid_win,485.71734130000004,41,,,,,,,,,,,,,,,,sub_115,2022-09-18_12h56.59.192,Reversal,2022.1.1,60.113205188041405,3,
19,exp3.png,exp4.png,,3,0,3,0,0,19,19,19,,,,,,,,,,,,,,,,,,,,,,,,,False,78,79,True,exp4.png,exp3.png,trial_left_image,1,exp4.png,3,exp4.png,exp3.png,1,1,non-reversed,correct,0.23588769291439193,0,invalid_lose,490.86740850000024,41,,,,,,,,,,,,,,,,sub_115,2022-09-18_12h56.59.192,Reversal,2022.1.1,60.113205188041405,3,
20,exp1.png,exp2.png,,3,0,3,0,0,20,20,20,,,,,,,,,,,,,,,,,,,,,,,,,False,79,80,True,exp2.png,exp1.png,trial_right_image,-1,exp1.png,3,exp2.png,exp1.png,0,4,reversed,incorrect,0.5957612307382649,0,valid_lose,495.5019368000003,41,,,,,,,,,,,,,,,,sub_115,2022-09-18_12h56.59.192,Reversal,2022.1.1,60.113205188041405,3,
,,,exp1.png,3,0,3,0,,,,,0,0,0,0,0,0,0,0,,,,,,,,,,,,,,,,,,,,,,,,,,,,,,,,,,,,,,26.0,2.2096384000005855,"[(26.0, 2.2096384000005855)]",655.5330848000003,None,,,26.0,,,,,,,,sub_115,2022-09-18_12h56.59.192,Reversal,2022.1.1,60.113205188041405,3,
,,,exp2.png,3,0,3,0,,,,,0,0,0,0,0,1,1,1,,,,,,,,,,,,,,,,,,,,,,,,,,,,,,,,,,,,,,32.0,1.9842179999996006,"[(32.0, 1.9842179999996006)]",658.7723750000005,None,32.0,,,,,,,,,,sub_115,2022-09-18_12h56.59.192,Reversal,2022.1.1,60.113205188041405,3,
,,,exp3.png,3,0,3,0,,,,,0,0,0,0,0,2,2,2,,,,,,,,,,,,,,,,,,,,,,,,,,,,,,,,,,,,,,28.0,2.538690100000167,"[(28.0, 2.538690100000167)]",661.7328999000001,None,,,,28.0,,,,,,,sub_115,2022-09-18_12h56.59.192,Reversal,2022.1.1,60.113205188041405,3,
,,,exp4.png,3,0,3,0,,,,,0,0,0,0,0,3,3,3,,,,,,,,,,,,,,,,,,,,,,,,,,,,,,,,,,,,,,28.0,2.1883515999998053,"[(28.0, 2.1883515999998053)]",665.2672651000003,None,,28.0,,,,,,,,,sub_115,2022-09-18_12h56.59.192,Reversal,2022.1.1,60.113205188041405,3,
0,exp1.png,exp2.png,,,,,,,,,,,,,,,,,,0,0,0,0,0,0,0,0,,,,,,,,,True,,,,,,,,,,,,,,,,,,,,,,,,,,,,,,,,,,,,sub_115,2022-09-18_12h56.59.192,Reversal,2022.1.1,60.113205188041405,3,
1,exp3.png,exp4.png,,,,,,,,,,,,,,,,,,0,0,0,0,0,1,1,1,,,,,,,,,False,0,81,False,exp3.png,exp4.png,trial_right_image,-1,exp4.png,3,exp4.png,exp3.png,1,1,non-reversed,correct,0.0582906928316993,0,invalid_lose,514.4970097000005,41,,,,,,,,,,511.0021981,,,,,,sub_115,2022-09-18_12h56.59.192,Reversal,2022.1.1,60.113205188041405,3,
2,exp1.png,exp2.png,,,,,,,,,,,,,,,,,,0,0,0,0,0,2,2,2,,,,,,,,,False,1,82,True,exp2.png,exp1.png,trial_left_image,1,exp2.png,3,exp1.png,exp2.png,1,3,reversed,incorrect,0.2888764107792773,0,valid_lose,519.3311886000001,41,,,,,,,,,,,,,,,,sub_115,2022-09-18_12h56.59.192,Reversal,2022.1.1,60.113205188041405,3,
3,exp3.png,exp4.png,,,,,,,,,,,,,,,,,,0,0,0,0,0,3,3,3,,,,,,,,,False,2,83,False,exp3.png,exp4.png,trial_left_image,1,exp3.png,3,exp4.png,exp3.png,0,2,non-reversed,incorrect,0.5505325121465872,0,valid_lose,523.4303587000004,41,,,,,,,,,,,,,,,,sub_115,2022-09-18_12h56.59.192,Reversal,2022.1.1,60.113205188041405,3,
4,exp1.png,exp2.png,,,,,,,,,,,,,,,,,,0,0,0,0,0,4,4,4,,,,,,,,,False,3,84,False,exp1.png,exp2.png,trial_right_image,-1,exp2.png,3,exp1.png,exp2.png,1,3,reversed,incorrect,0.2484275637623521,1,invalid_win,527.3799840000001,42,,,,,,,,,,,,,,,,sub_115,2022-09-18_12h56.59.192,Reversal,2022.1.1,60.113205188041405,3,
5,exp3.png,exp4.png,,,,,,,,,,,,,,,,,,0,0,0,0,0,5,5,5,,,,,,,,,False,4,85,False,exp3.png,exp4.png,trial_right_image,-1,exp4.png,3,exp4.png,exp3.png,1,1,non-reversed,correct,0.9290242845097846,1,valid_win,532.3959326000004,43,,,,,,,,,,,,,,,,sub_115,2022-09-18_12h56.59.192,Reversal,2022.1.1,60.113205188041405,3,
6,exp1.png,exp2.png,,,,,,,,,,,,,,,,,,0,0,0,0,0,6,6,6,,,,,,,,,False,5,86,False,exp1.png,exp2.png,trial_left_image,1,exp1.png,3,exp1.png,exp2.png,0,4,reversed,correct,0.17465043697651506,0,invalid_lose,537.0123467000003,43,,,,,,,,,,,,,,,,sub_115,2022-09-18_12h56.59.192,Reversal,2022.1.1,60.113205188041405,3,
7,exp3.png,exp4.png,,,,,,,,,,,,,,,,,,0,0,0,0,0,7,7,7,,,,,,,,,False,6,87,True,exp4.png,exp3.png,trial_left_image,1,exp4.png,3,exp4.png,exp3.png,1,1,non-reversed,correct,0.8255753822746426,1,valid_win,541.2942902000004,44,,,,,,,,,,,,,,,,sub_115,2022-09-18_12h56.59.192,Reversal,2022.1.1,60.113205188041405,3,
8,exp1.png,exp2.png,,,,,,,,,,,,,,,,,,0,0,0,0,0,8,8,8,,,,,,,,,False,7,88,False,exp1.png,exp2.png,trial_left_image,1,exp1.png,3,exp1.png,exp2.png,0,4,reversed,correct,0.3634589997127826,1,valid_win,545.8446878000004,45,,,,,,,,,,,,,,,,sub_115,2022-09-18_12h56.59.192,Reversal,2022.1.1,60.113205188041405,3,
9,exp3.png,exp4.png,,,,,,,,,,,,,,,,,,0,0,0,0,0,9,9,9,,,,,,,,,False,8,89,False,exp3.png,exp4.png,trial_right_image,-1,exp4.png,3,exp4.png,exp3.png,1,1,non-reversed,correct,0.9351115114219681,1,valid_win,552.1089556000006,46,,,,,,,,,,,,,,,,sub_115,2022-09-18_12h56.59.192,Reversal,2022.1.1,60.113205188041405,3,
10,exp1.png,exp2.png,,,,,,,,,,,,,,,,,,0,0,0,0,0,10,10,10,,,,,,,,,False,9,90,False,exp1.png,exp2.png,trial_right_image,-1,exp2.png,3,exp1.png,exp2.png,1,3,reversed,incorrect,0.8690654246821923,0,valid_lose,556.5926774999998,46,,,,,,,,,,,,,,,,sub_115,2022-09-18_12h56.59.192,Reversal,2022.1.1,60.113205188041405,3,
11,exp3.png,exp4.png,,,,,,,,,,,,,,,,,,0,0,0,0,0,11,11,11,,,,,,,,,False,10,91,True,exp4.png,exp3.png,trial_right_image,-1,exp3.png,3,exp4.png,exp3.png,0,2,non-reversed,incorrect,0.049267040795752726,1,invalid_win,561.0079426000002,47,,,,,,,,,,,,,,,,sub_115,2022-09-18_12h56.59.192,Reversal,2022.1.1,60.113205188041405,3,
12,exp1.png,exp2.png,,,,,,,,,,,,,,,,,,0,0,0,0,0,12,12,12,,,,,,,,,False,11,92,True,exp2.png,exp1.png,trial_left_image,1,exp2.png,3,exp1.png,exp2.png,1,3,reversed,incorrect,0.6917569594592804,0,valid_lose,565.9759283000003,47,,,,,,,,,,,,,,,,sub_115,2022-09-18_12h56.59.192,Reversal,2022.1.1,60.113205188041405,3,
13,exp3.png,exp4.png,,,,,,,,,,,,,,,,,,0,0,0,0,0,13,13,13,,,,,,,,,False,12,93,False,exp3.png,exp4.png,trial_right_image,-1,exp4.png,3,exp4.png,exp3.png,1,1,non-reversed,correct,0.36362519149482053,1,valid_win,570.8900525999998,48,,,,,,,,,,,,,,,,sub_115,2022-09-18_12h56.59.192,Reversal,2022.1.1,60.113205188041405,3,
14,exp1.png,exp2.png,,,,,,,,,,,,,,,,,,0,0,0,0,0,14,14,14,,,,,,,,,False,13,94,False,exp1.png,exp2.png,trial_right_image,-1,exp2.png,3,exp1.png,exp2.png,1,3,reversed,incorrect,0.669211914940511,0,valid_lose,576.6723894000006,48,,,,,,,,,,,,,,,,sub_115,2022-09-18_12h56.59.192,Reversal,2022.1.1,60.113205188041405,3,
15,exp3.png,exp4.png,,,,,,,,,,,,,,,,,,0,0,0,0,0,15,15,15,,,,,,,,,False,14,95,True,exp4.png,exp3.png,trial_left_image,1,exp4.png,3,exp4.png,exp3.png,1,1,non-reversed,correct,0.12905126301957126,0,invalid_lose,581.7069068999999,48,,,,,,,,,,,,,,,,sub_115,2022-09-18_12h56.59.192,Reversal,2022.1.1,60.113205188041405,3,
16,exp1.png,exp2.png,,,,,,,,,,,,,,,,,,0,0,0,0,0,16,16,16,,,,,,,,,False,15,96,True,exp2.png,exp1.png,trial_right_image,-1,exp1.png,3,exp1.png,exp2.png,0,4,reversed,correct,0.7261484982478675,1,valid_win,586.2214590000003,49,,,,,,,,,,,,,,,,sub_115,2022-09-18_12h56.59.192,Reversal,2022.1.1,60.113205188041405,3,
17,exp3.png,exp4.png,,,,,,,,,,,,,,,,,,0,0,0,0,0,17,17,17,,,,,,,,,False,16,97,True,exp4.png,exp3.png,trial_right_image,-1,exp3.png,3,exp4.png,exp3.png,0,2,non-reversed,incorrect,0.4118982977288087,0,valid_lose,590.4720465999999,49,,,,,,,,,,,,,,,,sub_115,2022-09-18_12h56.59.192,Reversal,2022.1.1,60.113205188041405,3,
18,exp1.png,exp2.png,,,,,,,,,,,,,,,,,,0,0,0,0,0,18,18,18,,,,,,,,,False,17,98,True,exp2.png,exp1.png,trial_right_image,-1,exp1.png,3,exp1.png,exp2.png,0,4,reversed,correct,0.9833966929528948,1,valid_win,595.7220515999998,50,,,,,,,,,,,,,,,,sub_115,2022-09-18_12h56.59.192,Reversal,2022.1.1,60.113205188041405,3,
19,exp3.png,exp4.png,,,,,,,,,,,,,,,,,,0,0,0,0,0,19,19,19,,,,,,,,,False,18,99,True,exp4.png,exp3.png,trial_left_image,1,exp4.png,3,exp4.png,exp3.png,1,1,non-reversed,correct,0.7098393106592307,1,valid_win,600.0710773999999,51,,,,,,,,,,,,,,,,sub_115,2022-09-18_12h56.59.192,Reversal,2022.1.1,60.113205188041405,3,
20,exp1.png,exp2.png,,,,,,,,,,,,,,,,,,0,0,0,0,0,20,20,20,,,,,,,,,False,19,100,True,exp2.png,exp1.png,trial_left_image,1,exp2.png,3,exp1.png,exp2.png,1,3,reversed,incorrect,0.5716365308106491,0,valid_lose,605.8870653000004,51,,,,,,,,,,,,,,,,sub_115,2022-09-18_12h56.59.192,Reversal,2022.1.1,60.113205188041405,3,
,,,exp1.png,,,,,,,,,,,,,,,,,0,0,0,0,,,,,0,0,0,0,0,0,0,0,,,,,,,,,,,,,,,,,,,,,,46.0,2.2067165999997087,"[(46.0, 2.2067165999997087)]",765.9218375,None,,,46.0,,,,,,,,sub_115,2022-09-18_12h56.59.192,Reversal,2022.1.1,60.113205188041405,3,
,,,exp2.png,,,,,,,,,,,,,,,,,0,0,0,0,,,,,0,0,0,0,0,1,1,1,,,,,,,,,,,,,,,,,,,,,,47.0,2.6760659999999916,"[(47.0, 2.6760659999999916)]",769.2005589,None,47.0,,,,,,,,,,sub_115,2022-09-18_12h56.59.192,Reversal,2022.1.1,60.113205188041405,3,
,,,exp3.png,,,,,,,,,,,,,,,,,0,0,0,0,,,,,0,0,0,0,0,2,2,2,,,,,,,,,,,,,,,,,,,,,,47.0,1.7356798999999228,"[(47.0, 1.7356798999999228)]",772.7225096000002,None,,,,47.0,,,,,,,sub_115,2022-09-18_12h56.59.192,Reversal,2022.1.1,60.113205188041405,3,
,,,exp4.png,,,,,,,,,,,,,,,,,0,0,0,0,,,,,0,0,0,0,0,3,3,3,,,,,,,,,,,,,,,,,,,,,,48.0,3.2899006999996345,"[(48.0, 3.2899006999996345)]",775.2673564000006,None,,48.0,,,,,,,,,sub_115,2022-09-18_12h56.59.192,Reversal,2022.1.1,60.113205188041405,3,
0,exp1.png,exp2.png,,,,,,,,,,,,,,,,,,1,0,1,0,0,0,0,0,,,,,,,,,True,,,,,,,,,,,,,,,,,,,,,,,,,,,,,,,,,,,,sub_115,2022-09-18_12h56.59.192,Reversal,2022.1.1,60.113205188041405,3,
1,exp3.png,exp4.png,,,,,,,,,,,,,,,,,,1,0,1,0,0,1,1,1,,,,,,,,,False,20,101,True,exp4.png,exp3.png,trial_right_image,-1,exp3.png,3,exp4.png,exp3.png,0,2,non-reversed,incorrect,0.21443888253517662,1,invalid_win,624.3501686999998,52,,,,,,,,,,,,,,,,sub_115,2022-09-18_12h56.59.192,Reversal,2022.1.1,60.113205188041405,3,
2,exp1.png,exp2.png,,,,,,,,,,,,,,,,,,1,0,1,0,0,2,2,2,,,,,,,,,False,21,102,False,exp1.png,exp2.png,trial_right_image,-1,exp2.png,3,exp1.png,exp2.png,1,3,reversed,incorrect,0.8602918654982495,0,valid_lose,629.3167647999999,52,,,,,,,,,,,,,,,,sub_115,2022-09-18_12h56.59.192,Reversal,2022.1.1,60.113205188041405,3,
3,exp3.png,exp4.png,,,,,,,,,,,,,,,,,,1,0,1,0,0,3,3,3,,,,,,,,,False,22,103,True,exp4.png,exp3.png,trial_left_image,1,exp4.png,3,exp4.png,exp3.png,1,1,non-reversed,correct,0.4989389499848994,1,valid_win,633.5154430000002,53,,,,,,,,,,,,,,,,sub_115,2022-09-18_12h56.59.192,Reversal,2022.1.1,60.113205188041405,3,
4,exp1.png,exp2.png,,,,,,,,,,,,,,,,,,1,0,1,0,0,4,4,4,,,,,,,,,False,23,104,False,exp1.png,exp2.png,trial_left_image,1,exp1.png,3,exp1.png,exp2.png,0,4,reversed,correct,0.39562898362321486,1,valid_win,638.2324126000003,54,,,,,,,,,,,,,,,,sub_115,2022-09-18_12h56.59.192,Reversal,2022.1.1,60.113205188041405,3,
5,exp3.png,exp4.png,,,,,,,,,,,,,,,,,,1,0,1,0,0,5,5,5,,,,,,,,,False,24,105,False,exp3.png,exp4.png,trial_right_image,-1,exp4.png,3,exp4.png,exp3.png,1,1,non-reversed,correct,0.25548808971901027,1,valid_win,643.7132976000003,55,,,,,,,,,,,,,,,,sub_115,2022-09-18_12h56.59.192,Reversal,2022.1.1,60.113205188041405,3,
6,exp1.png,exp2.png,,,,,,,,,,,,,,,,,,1,0,1,0,0,6,6,6,,,,,,,,,False,25,106,True,exp2.png,exp1.png,trial_right_image,-1,exp1.png,3,exp1.png,exp2.png,0,4,reversed,correct,0.28269603516983965,1,valid_win,648.2476760999998,56,,,,,,,,,,,,,,,,sub_115,2022-09-18_12h56.59.192,Reversal,2022.1.1,60.113205188041405,3,
7,exp3.png,exp4.png,,,,,,,,,,,,,,,,,,1,0,1,0,0,7,7,7,,,,,,,,,False,26,107,True,exp4.png,exp3.png,trial_left_image,1,exp4.png,3,exp4.png,exp3.png,1,1,non-reversed,correct,0.36582483063576976,1,valid_win,652.8144911999998,57,,,,,,,,,,,,,,,,sub_115,2022-09-18_12h56.59.192,Reversal,2022.1.1,60.113205188041405,3,
8,exp1.png,exp2.png,,,,,,,,,,,,,,,,,,1,0,1,0,0,8,8,8,,,,,,,,,False,27,108,True,exp2.png,exp1.png,trial_left_image,1,exp2.png,3,exp1.png,exp2.png,1,3,reversed,incorrect,0.8640585902658832,0,valid_lose,657.0115982000007,57,,,,,,,,,,,,,,,,sub_115,2022-09-18_12h56.59.192,Reversal,2022.1.1,60.113205188041405,3,
9,exp3.png,exp4.png,,,,,,,,,,,,,,,,,,1,0,1,0,0,9,9,9,,,,,,,,,False,28,109,True,exp4.png,exp3.png,trial_right_image,-1,exp3.png,3,exp4.png,exp3.png,0,2,non-reversed,incorrect,0.34060251829503607,0,valid_lose,662.9791200999998,57,,,,,,,,,,,,,,,,sub_115,2022-09-18_12h56.59.192,Reversal,2022.1.1,60.113205188041405,3,
10,exp1.png,exp2.png,,,,,,,,,,,,,,,,,,1,0,1,0,0,10,10,10,,,,,,,,,False,29,110,False,exp1.png,exp2.png,trial_right_image,-1,exp2.png,3,exp1.png,exp2.png,1,3,reversed,incorrect,0.5308556517568023,0,valid_lose,667.1283221000003,57,,,,,,,,,,,,,,,,sub_115,2022-09-18_12h56.59.192,Reversal,2022.1.1,60.113205188041405,3,
11,exp3.png,exp4.png,,,,,,,,,,,,,,,,,,1,0,1,0,0,11,11,11,,,,,,,,,False,30,111,True,exp4.png,exp3.png,trial_left_image,1,exp4.png,3,exp4.png,exp3.png,1,1,non-reversed,correct,0.7119285028750086,1,valid_win,671.6294048999998,58,,,,,,,,,,,,,,,,sub_115,2022-09-18_12h56.59.192,Reversal,2022.1.1,60.113205188041405,3,
12,exp1.png,exp2.png,,,,,,,,,,,,,,,,,,1,0,1,0,0,12,12,12,,,,,,,,,False,31,112,False,exp1.png,exp2.png,trial_left_image,1,exp1.png,3,exp1.png,exp2.png,0,4,reversed,correct,0.290654189864063,1,valid_win,675.9100638999998,59,,,,,,,,,,,,,,,,sub_115,2022-09-18_12h56.59.192,Reversal,2022.1.1,60.113205188041405,3,
13,exp3.png,exp4.png,,,,,,,,,,,,,,,,,,1,0,1,0,0,13,13,13,,,,,,,,,False,32,113,False,exp3.png,exp4.png,trial_right_image,-1,exp4.png,3,exp4.png,exp3.png,1,1,non-reversed,correct,0.036224272782791056,0,invalid_lose,680.7424270000001,59,,,,,,,,,,,,,,,,sub_115,2022-09-18_12h56.59.192,Reversal,2022.1.1,60.113205188041405,3,
14,exp1.png,exp2.png,,,,,,,,,,,,,,,,,,1,0,1,0,0,14,14,14,,,,,,,,,False,33,114,False,exp1.png,exp2.png,trial_right_image,-1,exp2.png,3,exp1.png,exp2.png,1,3,reversed,incorrect,0.1384995783447872,1,invalid_win,684.7266995999998,60,,,,,,,,,,,,,,,,sub_115,2022-09-18_12h56.59.192,Reversal,2022.1.1,60.113205188041405,3,
15,exp3.png,exp4.png,,,,,,,,,,,,,,,,,,1,0,1,0,0,15,15,15,,,,,,,,,False,34,115,False,exp3.png,exp4.png,trial_left_image,1,exp3.png,3,exp4.png,exp3.png,0,2,non-reversed,incorrect,0.2924909607878018,0,valid_lose,689.2429639000002,60,,,,,,,,,,,,,,,,sub_115,2022-09-18_12h56.59.192,Reversal,2022.1.1,60.113205188041405,3,
16,exp1.png,exp2.png,,,,,,,,,,,,,,,,,,1,0,1,0,0,16,16,16,,,,,,,,,False,35,116,False,exp1.png,exp2.png,trial_right_image,-1,exp2.png,3,exp1.png,exp2.png,1,3,reversed,incorrect,0.06967144189210894,1,invalid_win,693.5590671999998,61,,,,,,,,,,,,,,,,sub_115,2022-09-18_12h56.59.192,Reversal,2022.1.1,60.113205188041405,3,
17,exp3.png,exp4.png,,,,,,,,,,,,,,,,,,1,0,1,0,0,17,17,17,,,,,,,,,False,36,117,True,exp4.png,exp3.png,trial_right_image,-1,exp3.png,3,exp4.png,exp3.png,0,2,non-reversed,incorrect,0.26656624737942725,0,valid_lose,698.0068625000004,61,,,,,,,,,,,,,,,,sub_115,2022-09-18_12h56.59.192,Reversal,2022.1.1,60.113205188041405,3,
18,exp1.png,exp2.png,,,,,,,,,,,,,,,,,,1,0,1,0,0,18,18,18,,,,,,,,,False,37,118,True,exp2.png,exp1.png,trial_right_image,-1,exp1.png,3,exp1.png,exp2.png,0,4,reversed,correct,0.6493432610172059,1,valid_win,702.6075171000002,62,,,,,,,,,,,,,,,,sub_115,2022-09-18_12h56.59.192,Reversal,2022.1.1,60.113205188041405,3,
19,exp3.png,exp4.png,,,,,,,,,,,,,,,,,,1,0,1,0,0,19,19,19,,,,,,,,,False,38,119,True,exp4.png,exp3.png,trial_left_image,1,exp4.png,3,exp4.png,exp3.png,1,1,non-reversed,correct,0.6375689717071212,1,valid_win,706.9892115000002,63,,,,,,,,,,,,,,,,sub_115,2022-09-18_12h56.59.192,Reversal,2022.1.1,60.113205188041405,3,
20,exp1.png,exp2.png,,,,,,,,,,,,,,,,,,1,0,1,0,0,20,20,20,,,,,,,,,False,39,120,False,exp1.png,exp2.png,trial_left_image,1,exp1.png,3,exp1.png,exp2.png,0,4,reversed,correct,0.7631529311206067,1,valid_win,712.5392536999998,64,,,,,,,,,,,,,,,,sub_115,2022-09-18_12h56.59.192,Reversal,2022.1.1,60.113205188041405,3,
,,,exp1.png,,,,,,,,,,,,,,,,,1,0,1,0,,,,,0,0,0,0,0,0,0,0,,,,,,,,,,,,,,,,,,,,,,46.0,2.7792411999998876,"[(46.0, 2.7792411999998876)]",872.5675629000007,None,,,46.0,,,,,,,,sub_115,2022-09-18_12h56.59.192,Reversal,2022.1.1,60.113205188041405,3,
,,,exp2.png,,,,,,,,,,,,,,,,,1,0,1,0,,,,,0,0,0,0,0,1,1,1,,,,,,,,,,,,,,,,,,,,,,46.0,1.0711277000000337,"[(46.0, 1.0711277000000337)]",876.2732963000008,None,46.0,,,,,,,,,,sub_115,2022-09-18_12h56.59.192,Reversal,2022.1.1,60.113205188041405,3,
,,,exp3.png,,,,,,,,,,,,,,,,,1,0,1,0,,,,,0,0,0,0,0,2,2,2,,,,,,,,,,,,,,,,,,,,,,46.0,0.8544208000002982,"[(46.0, 0.8544208000002982)]",878.1906514000002,None,,,,46.0,,,,,,,sub_115,2022-09-18_12h56.59.192,Reversal,2022.1.1,60.113205188041405,3,
,,,exp4.png,,,,,,,,,,,,,,,,,1,0,1,0,,,,,0,0,0,0,0,3,3,3,,,,,,,,,,,,,,,,,,,,,,50.0,None,[],881.1870551000002,None,,,,,,,,,,,sub_115,2022-09-18_12h56.59.192,Reversal,2022.1.1,60.113205188041405,3,
0,exp1.png,exp2.png,,,,,,,,,,,,,,,,,,2,0,2,0,0,0,0,0,,,,,,,,,True,,,,,,,,,,,,,,,,,,,,,,,,,,,,,,,,,,,,sub_115,2022-09-18_12h56.59.192,Reversal,2022.1.1,60.113205188041405,3,
1,exp3.png,exp4.png,,,,,,,,,,,,,,,,,,2,0,2,0,0,1,1,1,,,,,,,,,False,40,121,False,exp3.png,exp4.png,trial_left_image,1,exp3.png,3,exp4.png,exp3.png,0,2,non-reversed,incorrect,0.26589704454698837,0,valid_lose,728.5883009999998,64,,,,,,,,,,,,,,,,sub_115,2022-09-18_12h56.59.192,Reversal,2022.1.1,60.113205188041405,3,
2,exp1.png,exp2.png,,,,,,,,,,,,,,,,,,2,0,2,0,0,2,2,2,,,,,,,,,False,41,122,True,exp2.png,exp1.png,trial_left_image,1,exp2.png,3,exp1.png,exp2.png,1,3,reversed,incorrect,0.13012398332256625,1,invalid_win,732.8370706000005,65,,,,,,,,,,,,,,,,sub_115,2022-09-18_12h56.59.192,Reversal,2022.1.1,60.113205188041405,3,
3,exp3.png,exp4.png,,,,,,,,,,,,,,,,,,2,0,2,0,0,3,3,3,,,,,,,,,False,42,123,True,exp4.png,exp3.png,trial_right_image,-1,exp3.png,3,exp4.png,exp3.png,0,2,non-reversed,incorrect,0.021483024284062457,1,invalid_win,738.0515122000006,66,,,,,,,,,,,,,,,,sub_115,2022-09-18_12h56.59.192,Reversal,2022.1.1,60.113205188041405,3,
4,exp1.png,exp2.png,,,,,,,,,,,,,,,,,,2,0,2,0,0,4,4,4,,,,,,,,,False,43,124,True,exp2.png,exp1.png,trial_right_image,-1,exp1.png,3,exp1.png,exp2.png,0,4,reversed,correct,0.8863398875977848,1,valid_win,743.1352823000007,67,,,,,,,,,,,,,,,,sub_115,2022-09-18_12h56.59.192,Reversal,2022.1.1,60.113205188041405,3,
5,exp3.png,exp4.png,,,,,,,,,,,,,,,,,,2,0,2,0,0,5,5,5,,,,,,,,,False,44,125,True,exp4.png,exp3.png,trial_left_image,1,exp4.png,3,exp4.png,exp3.png,1,1,non-reversed,correct,0.7610452808418172,1,valid_win,747.6173410000001,68,,,,,,,,,,,,,,,,sub_115,2022-09-18_12h56.59.192,Reversal,2022.1.1,60.113205188041405,3,
6,exp1.png,exp2.png,,,,,,,,,,,,,,,,,,2,0,2,0,0,6,6,6,,,,,,,,,False,45,126,True,exp2.png,exp1.png,trial_right_image,-1,exp1.png,3,exp1.png,exp2.png,0,4,reversed,correct,0.8384051260930337,1,valid_win,755.0168417000004,69,,,,,,,,,,,,,,,,sub_115,2022-09-18_12h56.59.192,Reversal,2022.1.1,60.113205188041405,3,
7,exp3.png,exp4.png,,,,,,,,,,,,,,,,,,2,0,2,0,0,7,7,7,,,,,,,,,False,46,127,True,exp4.png,exp3.png,trial_left_image,1,exp4.png,3,exp4.png,exp3.png,1,1,non-reversed,correct,0.6441543991367252,1,valid_win,760.4663441000002,70,,,,,,,,,,,,,,,,sub_115,2022-09-18_12h56.59.192,Reversal,2022.1.1,60.113205188041405,3,
8,exp1.png,exp2.png,,,,,,,,,,,,,,,,,,2,0,2,0,0,8,8,8,,,,,,,,,False,47,128,False,exp1.png,exp2.png,trial_left_image,1,exp1.png,3,exp1.png,exp2.png,0,4,reversed,correct,0.4078167949862709,1,valid_win,764.9983495000006,71,,,,,,,,,,,,,,,,sub_115,2022-09-18_12h56.59.192,Reversal,2022.1.1,60.113205188041405,3,
9,exp3.png,exp4.png,,,,,,,,,,,,,,,,,,2,0,2,0,0,9,9,9,,,,,,,,,False,48,129,False,exp3.png,exp4.png,trial_right_image,-1,exp4.png,3,exp4.png,exp3.png,1,1,non-reversed,correct,0.4165814575464145,1,valid_win,769.9151960999998,72,,,,,,,,,,,,,,,,sub_115,2022-09-18_12h56.59.192,Reversal,2022.1.1,60.113205188041405,3,
10,exp1.png,exp2.png,,,,,,,,,,,,,,,,,,2,0,2,0,0,10,10,10,,,,,,,,,False,49,130,False,exp1.png,exp2.png,trial_right_image,-1,exp2.png,3,exp1.png,exp2.png,1,3,reversed,incorrect,0.9046625280739484,0,valid_lose,774.3309918000004,72,,,,,,,,,,,,,,,,sub_115,2022-09-18_12h56.59.192,Reversal,2022.1.1,60.113205188041405,3,
11,exp3.png,exp4.png,,,,,,,,,,,,,,,,,,2,0,2,0,0,11,11,11,,,,,,,,,False,50,131,False,exp3.png,exp4.png,trial_right_image,-1,exp4.png,3,exp4.png,exp3.png,1,1,non-reversed,correct,0.8304284665266898,1,valid_win,778.3632186000004,73,,,,,,,,,,,,,,,,sub_115,2022-09-18_12h56.59.192,Reversal,2022.1.1,60.113205188041405,3,
12,exp1.png,exp2.png,,,,,,,,,,,,,,,,,,2,0,2,0,0,12,12,12,,,,,,,,,False,51,132,True,exp2.png,exp1.png,trial_left_image,1,exp2.png,3,exp1.png,exp2.png,1,3,reversed,incorrect,0.31077069755565523,0,valid_lose,783.2289092000001,73,,,,,,,,,,,,,,,,sub_115,2022-09-18_12h56.59.192,Reversal,2022.1.1,60.113205188041405,3,
13,exp3.png,exp4.png,,,,,,,,,,,,,,,,,,2,0,2,0,0,13,13,13,,,,,,,,,False,52,133,False,exp3.png,exp4.png,trial_right_image,-1,exp4.png,3,exp4.png,exp3.png,1,1,non-reversed,correct,0.5417803858817436,1,valid_win,787.6633271999999,74,,,,,,,,,,,,,,,,sub_115,2022-09-18_12h56.59.192,Reversal,2022.1.1,60.113205188041405,3,
14,exp1.png,exp2.png,,,,,,,,,,,,,,,,,,2,0,2,0,0,14,14,14,,,,,,,,,False,53,134,False,exp1.png,exp2.png,trial_left_image,1,exp1.png,3,exp1.png,exp2.png,0,4,reversed,correct,0.14328102798500875,0,invalid_lose,792.0116638999998,74,,,,,,,,,,,,,,,,sub_115,2022-09-18_12h56.59.192,Reversal,2022.1.1,60.113205188041405,3,
15,exp3.png,exp4.png,,,,,,,,,,,,,,,,,,2,0,2,0,0,15,15,15,,,,,,,,,False,54,135,False,exp3.png,exp4.png,trial_left_image,1,exp3.png,3,exp4.png,exp3.png,0,2,non-reversed,incorrect,0.04027661483142453,1,invalid_win,796.1950955000002,75,,,,,,,,,,,,,,,,sub_115,2022-09-18_12h56.59.192,Reversal,2022.1.1,60.113205188041405,3,
16,exp1.png,exp2.png,,,,,,,,,,,,,,,,,,2,0,2,0,0,16,16,16,,,,,,,,,False,55,136,True,exp2.png,exp1.png,trial_left_image,1,exp2.png,3,exp1.png,exp2.png,1,3,reversed,incorrect,0.15109939989368548,1,invalid_win,801.0107818000006,76,,,,,,,,,,,,,,,,sub_115,2022-09-18_12h56.59.192,Reversal,2022.1.1,60.113205188041405,3,
17,exp3.png,exp4.png,,,,,,,,,,,,,,,,,,2,0,2,0,0,17,17,17,,,,,,,,,False,56,137,False,exp3.png,exp4.png,trial_right_image,-1,exp4.png,3,exp4.png,exp3.png,1,1,non-reversed,correct,0.8008413665569951,1,valid_win,806.2268492000003,77,,,,,,,,,,,,,,,,sub_115,2022-09-18_12h56.59.192,Reversal,2022.1.1,60.113205188041405,3,
18,exp1.png,exp2.png,,,,,,,,,,,,,,,,,,2,0,2,0,0,18,18,18,,,,,,,,,False,57,138,False,exp1.png,exp2.png,trial_left_image,1,exp1.png,3,exp1.png,exp2.png,0,4,reversed,correct,0.24934003568698282,0,invalid_lose,811.1606861,77,,,,,,,,,,,,,,,,sub_115,2022-09-18_12h56.59.192,Reversal,2022.1.1,60.113205188041405,3,
19,exp3.png,exp4.png,,,,,,,,,,,,,,,,,,2,0,2,0,0,19,19,19,,,,,,,,,False,58,139,True,exp4.png,exp3.png,trial_left_image,1,exp4.png,3,exp4.png,exp3.png,1,1,non-reversed,correct,0.16691514751474057,0,invalid_lose,815.5083834000006,77,,,,,,,,,,,,,,,,sub_115,2022-09-18_12h56.59.192,Reversal,2022.1.1,60.113205188041405,3,
20,exp1.png,exp2.png,,,,,,,,,,,,,,,,,,2,0,2,0,0,20,20,20,,,,,,,,,False,59,140,True,exp2.png,exp1.png,trial_left_image,1,exp2.png,3,exp1.png,exp2.png,1,3,reversed,incorrect,0.14286531726482632,1,invalid_win,819.4580397999998,78,,,,,,,,,,,,,,,,sub_115,2022-09-18_12h56.59.192,Reversal,2022.1.1,60.113205188041405,3,
,,,exp1.png,,,,,,,,,,,,,,,,,2,0,2,0,,,,,0,0,0,0,0,0,0,0,,,,,,,,,,,,,,,,,,,,,,47.0,5.219814799999767,"[(46.0, 2.8871085000000676), (47.0, 5.219814799999767)]",979.4971321000003,None,,,47.0,,,,,,,,sub_115,2022-09-18_12h56.59.192,Reversal,2022.1.1,60.113205188041405,3,
,,,exp2.png,,,,,,,,,,,,,,,,,2,0,2,0,,,,,0,0,0,0,0,1,1,1,,,,,,,,,,,,,,,,,,,,,,47.0,1.5216698999993241,"[(47.0, 1.5216698999993241)]",985.6597231000005,None,47.0,,,,,,,,,,sub_115,2022-09-18_12h56.59.192,Reversal,2022.1.1,60.113205188041405,3,
,,,exp3.png,,,,,,,,,,,,,,,,,2,0,2,0,,,,,0,0,0,0,0,2,2,2,,,,,,,,,,,,,,,,,,,,,,48.0,1.3142164999999295,"[(48.0, 1.3142164999999295)]",988.3670732,None,,,,48.0,,,,,,,sub_115,2022-09-18_12h56.59.192,Reversal,2022.1.1,60.113205188041405,3,
,,,exp4.png,,,,,,,,,,,,,,,,,2,0,2,0,,,,,0,0,0,0,0,3,3,3,,,,,,,,,,,,,,,,,,,,,,49.0,2.203500000000531,"[(49.0, 2.203500000000531)]",990.5946158000006,None,,49.0,,,,,,,,,sub_115,2022-09-18_12h56.59.192,Reversal,2022.1.1,60.113205188041405,3,
,,,,,,,,,,,,,,,,,,,,,,,,,,,,,,,,,,,,,,,,,,,,,,,,,,,,,,,,78,,,,,,,,,,,78,44,34,325.1048214000002,1,,,,,,,
