trial_index,trial_image1_file,trial_image2_file,image_file,learning_outer_loop.thisRepN,learning_outer_loop.thisTrialN,learning_outer_loop.thisN,learning_outer_loop.thisIndex,learning_inner_loop.thisRepN,learning_inner_loop.thisTrialN,learning_inner_loop.thisN,learning_inner_loop.thisIndex,learning_estimation_outer_loop.thisRepN,learning_estimation_outer_loop.thisTrialN,learning_estimation_outer_loop.thisN,learning_estimation_outer_loop.thisIndex,learning_estimation_inner_loop.thisRepN,learning_estimation_inner_loop.thisTrialN,learning_estimation_inner_loop.thisN,learning_estimation_inner_loop.thisIndex,reversal_outer_loop.thisRepN,reversal_outer_loop.thisTrialN,reversal_outer_loop.thisN,reversal_outer_loop.thisIndex,reversal_inner_loop.thisRepN,reversal_inner_loop.thisTrialN,reversal_inner_loop.thisN,reversal_inner_loop.thisIndex,reversal_estimation_outer_loop.thisRepN,reversal_estimation_outer_loop.thisTrialN,reversal_estimation_outer_loop.thisN,reversal_estimation_outer_loop.thisIndex,reversal_estimation_inner_loop.thisRepN,reversal_estimation_inner_loop.thisTrialN,reversal_estimation_inner_loop.thisN,reversal_estimation_inner_loop.thisIndex,skipped,total_trial_counter,trial_num,left_right_flip,left_image_file,right_image_file,clicked_stimulus_side,side,clicked_stimulus,version,high_prob_image_file,low_prob_image_file,choice_a,choice_b,pair_type,correct,trial_feedback_random,reward,trial_type,overall_time_after_trial,score,estimation_rating.started,estimation_exp1.png,estimation_rating.response,estimation_rating.rt,estimation_rating.history,total_learning_time,total_correct,learning_correct,reversal_correct,total_reversal_time,extra_block,participant,date,expName,psychopyVersion,frameRate,ver,
0,exp1.png,exp2.png,,0,0,0,0,0,0,0,0,,,,,,,,,,,,,,,,,,,,,,,,,True,,,,,,,,,,,,,,,,,,,,,,,,,,,,,,,,sub_661,2024-07-08_11h42.24.699,Reversal,2023.1.3,59.97487052946842,1,
1,exp3.png,exp4.png,,0,0,0,0,0,1,1,1,,,,,,,,,,,,,,,,,,,,,,,,,False,0,1,True,exp4.png,exp3.png,trial_left_image,1,exp4.png,1,exp3.png,exp4.png,0,2,non-reversed,incorrect,0.9564892351107918,0,valid_lose,10.396044900000561,0,,,,,,,,,,,,sub_661,2024-07-08_11h42.24.699,Reversal,2023.1.3,59.97487052946842,1,
2,exp1.png,exp2.png,,0,0,0,0,0,2,2,2,,,,,,,,,,,,,,,,,,,,,,,,,False,1,2,True,exp2.png,exp1.png,trial_right_image,-1,exp1.png,1,exp1.png,exp2.png,1,3,reversed,correct,0.6307962783633344,1,valid_win,21.54212759999973,1,,,,,,,,,,,,sub_661,2024-07-08_11h42.24.699,Reversal,2023.1.3,59.97487052946842,1,
3,exp3.png,exp4.png,,0,0,0,0,0,3,3,3,,,,,,,,,,,,,,,,,,,,,,,,,False,2,3,True,exp4.png,exp3.png,trial_right_image,-1,exp3.png,1,exp3.png,exp4.png,1,1,non-reversed,correct,0.007395021390900203,0,invalid_lose,31.521581699998933,1,,,,,,,,,,,,sub_661,2024-07-08_11h42.24.699,Reversal,2023.1.3,59.97487052946842,1,
4,exp1.png,exp2.png,,0,0,0,0,0,4,4,4,,,,,,,,,,,,,,,,,,,,,,,,,False,3,4,False,exp1.png,exp2.png,trial_left_image,1,exp1.png,1,exp1.png,exp2.png,1,3,reversed,correct,0.01516192225250168,0,invalid_lose,59.295370300000286,1,,,,,,,,,,,,sub_661,2024-07-08_11h42.24.699,Reversal,2023.1.3,59.97487052946842,1,
5,exp3.png,exp4.png,,0,0,0,0,0,5,5,5,,,,,,,,,,,,,,,,,,,,,,,,,False,4,5,False,exp3.png,exp4.png,trial_left_image,1,exp3.png,1,exp3.png,exp4.png,1,1,non-reversed,correct,0.02726214098341917,0,invalid_lose,73.24028150000049,1,,,,,,,,,,,,sub_661,2024-07-08_11h42.24.699,Reversal,2023.1.3,59.97487052946842,1,
6,exp1.png,exp2.png,,0,0,0,0,0,6,6,6,,,,,,,,,,,,,,,,,,,,,,,,,False,5,6,False,exp1.png,exp2.png,trial_right_image,-1,exp2.png,1,exp1.png,exp2.png,0,4,reversed,incorrect,0.34565231300235,0,valid_lose,80.80448529999921,1,,,,,,,,,,,,sub_661,2024-07-08_11h42.24.699,Reversal,2023.1.3,59.97487052946842,1,
7,exp3.png,exp4.png,,0,0,0,0,0,7,7,7,,,,,,,,,,,,,,,,,,,,,,,,,False,6,7,False,exp3.png,exp4.png,trial_left_image,1,exp3.png,1,exp3.png,exp4.png,1,1,non-reversed,correct,0.38522937311786054,1,valid_win,106.56228700000065,2,,,,,,,,,,,,sub_661,2024-07-08_11h42.24.699,Reversal,2023.1.3,59.97487052946842,1,
8,exp1.png,exp2.png,,0,0,0,0,0,8,8,8,,,,,,,,,,,,,,,,,,,,,,,,,False,7,8,False,exp1.png,exp2.png,trial_right_image,-1,exp2.png,1,exp1.png,exp2.png,0,4,reversed,incorrect,0.634276696788599,0,valid_lose,114.05975349999972,2,,,,,,,,,,,,sub_661,2024-07-08_11h42.24.699,Reversal,2023.1.3,59.97487052946842,1,
9,exp3.png,exp4.png,,0,0,0,0,0,9,9,9,,,,,,,,,,,,,,,,,,,,,,,,,False,8,9,True,exp4.png,exp3.png,trial_left_image,1,exp4.png,1,exp3.png,exp4.png,0,2,non-reversed,incorrect,0.474879136564889,0,valid_lose,119.49215220000042,2,,,,,,,,,,,,sub_661,2024-07-08_11h42.24.699,Reversal,2023.1.3,59.97487052946842,1,
10,exp1.png,exp2.png,,0,0,0,0,0,10,10,10,,,,,,,,,,,,,,,,,,,,,,,,,False,9,10,True,exp2.png,exp1.png,trial_right_image,-1,exp1.png,1,exp1.png,exp2.png,1,3,reversed,correct,0.7594330997385584,1,valid_win,143.36680290000004,3,,,,,,,,,,,,sub_661,2024-07-08_11h42.24.699,Reversal,2023.1.3,59.97487052946842,1,
11,exp3.png,exp4.png,,0,0,0,0,0,11,11,11,,,,,,,,,,,,,,,,,,,,,,,,,False,10,11,False,exp3.png,exp4.png,trial_right_image,-1,exp4.png,1,exp3.png,exp4.png,0,2,non-reversed,incorrect,0.07359666817652843,1,invalid_win,153.56366829999934,4,,,,,,,,,,,,sub_661,2024-07-08_11h42.24.699,Reversal,2023.1.3,59.97487052946842,1,
12,exp1.png,exp2.png,,0,0,0,0,0,12,12,12,,,,,,,,,,,,,,,,,,,,,,,,,False,11,12,False,exp1.png,exp2.png,trial_left_image,1,exp1.png,1,exp1.png,exp2.png,1,3,reversed,correct,0.7203644848744309,1,valid_win,161.0439494000002,5,,,,,,,,,,,,sub_661,2024-07-08_11h42.24.699,Reversal,2023.1.3,59.97487052946842,1,
13,exp3.png,exp4.png,,0,0,0,0,0,13,13,13,,,,,,,,,,,,,,,,,,,,,,,,,False,12,13,True,exp4.png,exp3.png,trial_left_image,1,exp4.png,1,exp3.png,exp4.png,0,2,non-reversed,incorrect,0.7758221323457821,0,valid_lose,167.32563590000063,5,,,,,,,,,,,,sub_661,2024-07-08_11h42.24.699,Reversal,2023.1.3,59.97487052946842,1,
14,exp1.png,exp2.png,,0,0,0,0,0,14,14,14,,,,,,,,,,,,,,,,,,,,,,,,,False,13,14,False,exp1.png,exp2.png,trial_left_image,1,exp1.png,1,exp1.png,exp2.png,1,3,reversed,correct,0.6384305993937586,1,valid_win,174.3727944000002,6,,,,,,,,,,,,sub_661,2024-07-08_11h42.24.699,Reversal,2023.1.3,59.97487052946842,1,
15,exp3.png,exp4.png,,0,0,0,0,0,15,15,15,,,,,,,,,,,,,,,,,,,,,,,,,False,14,15,True,exp4.png,exp3.png,trial_left_image,1,exp4.png,1,exp3.png,exp4.png,0,2,non-reversed,incorrect,0.15127515580786643,1,invalid_win,186.68531520000033,7,,,,,,,,,,,,sub_661,2024-07-08_11h42.24.699,Reversal,2023.1.3,59.97487052946842,1,
16,exp1.png,exp2.png,,0,0,0,0,0,16,16,16,,,,,,,,,,,,,,,,,,,,,,,,,False,15,16,True,exp2.png,exp1.png,trial_right_image,-1,exp1.png,1,exp1.png,exp2.png,1,3,reversed,correct,0.056327627630554766,0,invalid_lose,192.63340640000024,7,,,,,,,,,,,,sub_661,2024-07-08_11h42.24.699,Reversal,2023.1.3,59.97487052946842,1,
17,exp3.png,exp4.png,,0,0,0,0,0,17,17,17,,,,,,,,,,,,,,,,,,,,,,,,,False,16,17,False,exp3.png,exp4.png,trial_left_image,1,exp3.png,1,exp3.png,exp4.png,1,1,non-reversed,correct,0.8664530644295997,1,valid_win,201.0808376999994,8,,,,,,,,,,,,sub_661,2024-07-08_11h42.24.699,Reversal,2023.1.3,59.97487052946842,1,
18,exp1.png,exp2.png,,0,0,0,0,0,18,18,18,,,,,,,,,,,,,,,,,,,,,,,,,False,17,18,True,exp2.png,exp1.png,trial_right_image,-1,exp1.png,1,exp1.png,exp2.png,1,3,reversed,correct,0.9431961933118408,1,valid_win,206.47833739999987,9,,,,,,,,,,,,sub_661,2024-07-08_11h42.24.699,Reversal,2023.1.3,59.97487052946842,1,
19,exp3.png,exp4.png,,0,0,0,0,0,19,19,19,,,,,,,,,,,,,,,,,,,,,,,,,False,18,19,False,exp3.png,exp4.png,trial_right_image,-1,exp4.png,1,exp3.png,exp4.png,0,2,non-reversed,incorrect,0.12147000835406707,1,invalid_win,211.71046209999986,10,,,,,,,,,,,,sub_661,2024-07-08_11h42.24.699,Reversal,2023.1.3,59.97487052946842,1,
20,exp1.png,exp2.png,,0,0,0,0,0,20,20,20,,,,,,,,,,,,,,,,,,,,,,,,,False,19,20,True,exp2.png,exp1.png,trial_left_image,1,exp2.png,1,exp1.png,exp2.png,0,4,reversed,incorrect,0.6343801043115984,0,valid_lose,217.8086433999997,10,,,,,,,,,,,,sub_661,2024-07-08_11h42.24.699,Reversal,2023.1.3,59.97487052946842,1,
,,,exp1.png,0,0,0,0,,,,,0,0,0,0,0,0,0,0,,,,,,,,,,,,,,,,,,,,,,,,,,,,,,,,,,,,,,297.19794229999934,100.0,100.0,16.88435610000124,"[(100.0, 16.88435610000124)]",,,,,,,sub_661,2024-07-08_11h42.24.699,Reversal,2023.1.3,59.97487052946842,1,
,,,exp2.png,0,0,0,0,,,,,0,0,0,0,0,1,1,1,,,,,,,,,,,,,,,,,,,,,,,,,,,,,,,,,,,,,,316.3287971999998,,None,None,[],,,,,,,sub_661,2024-07-08_11h42.24.699,Reversal,2023.1.3,59.97487052946842,1,
,,,exp3.png,0,0,0,0,,,,,0,0,0,0,0,2,2,2,,,,,,,,,,,,,,,,,,,,,,,,,,,,,,,,,,,,,,329.2543772000008,,None,None,[],,,,,,,sub_661,2024-07-08_11h42.24.699,Reversal,2023.1.3,59.97487052946842,1,
,,,exp4.png,0,0,0,0,,,,,0,0,0,0,0,3,3,3,,,,,,,,,,,,,,,,,,,,,,,,,,,,,,,,,,,,,,332.10208109999985,,None,None,[],,,,,,,sub_661,2024-07-08_11h42.24.699,Reversal,2023.1.3,59.97487052946842,1,
0,exp1.png,exp2.png,,1,0,1,0,0,0,0,0,,,,,,,,,,,,,,,,,,,,,,,,,True,,,,,,,,,,,,,,,,,,,,,,,,,,,,,,,,sub_661,2024-07-08_11h42.24.699,Reversal,2023.1.3,59.97487052946842,1,
1,exp3.png,exp4.png,,1,0,1,0,0,1,1,1,,,,,,,,,,,,,,,,,,,,,,,,,False,20,21,True,exp4.png,exp3.png,trial_right_image,-1,exp3.png,1,exp3.png,exp4.png,1,1,non-reversed,correct,0.24416048451562244,0,invalid_lose,260.8102524999995,10,,,,,,,,,,,,sub_661,2024-07-08_11h42.24.699,Reversal,2023.1.3,59.97487052946842,1,
2,exp1.png,exp2.png,,1,0,1,0,0,2,2,2,,,,,,,,,,,,,,,,,,,,,,,,,False,21,22,True,exp2.png,exp1.png,trial_right_image,-1,exp1.png,1,exp1.png,exp2.png,1,3,reversed,correct,0.7329273206963007,1,valid_win,265.84213180000006,11,,,,,,,,,,,,sub_661,2024-07-08_11h42.24.699,Reversal,2023.1.3,59.97487052946842,1,
3,exp3.png,exp4.png,,1,0,1,0,0,3,3,3,,,,,,,,,,,,,,,,,,,,,,,,,False,22,23,False,exp3.png,exp4.png,trial_left_image,1,exp3.png,1,exp3.png,exp4.png,1,1,non-reversed,correct,0.30123077111745145,1,valid_win,270.65711349999947,12,,,,,,,,,,,,sub_661,2024-07-08_11h42.24.699,Reversal,2023.1.3,59.97487052946842,1,
4,exp1.png,exp2.png,,1,0,1,0,0,4,4,4,,,,,,,,,,,,,,,,,,,,,,,,,False,23,24,True,exp2.png,exp1.png,trial_right_image,-1,exp1.png,1,exp1.png,exp2.png,1,3,reversed,correct,0.4821644174014478,1,valid_win,275.13848510000025,13,,,,,,,,,,,,sub_661,2024-07-08_11h42.24.699,Reversal,2023.1.3,59.97487052946842,1,
5,exp3.png,exp4.png,,1,0,1,0,0,5,5,5,,,,,,,,,,,,,,,,,,,,,,,,,False,24,25,False,exp3.png,exp4.png,trial_left_image,1,exp3.png,1,exp3.png,exp4.png,1,1,non-reversed,correct,0.9968924064316205,1,valid_win,279.2538678000001,14,,,,,,,,,,,,sub_661,2024-07-08_11h42.24.699,Reversal,2023.1.3,59.97487052946842,1,
6,exp1.png,exp2.png,,1,0,1,0,0,6,6,6,,,,,,,,,,,,,,,,,,,,,,,,,False,25,26,True,exp2.png,exp1.png,trial_right_image,-1,exp1.png,1,exp1.png,exp2.png,1,3,reversed,correct,0.24784049801214558,0,invalid_lose,283.26904920000015,14,,,,,,,,,,,,sub_661,2024-07-08_11h42.24.699,Reversal,2023.1.3,59.97487052946842,1,
7,exp3.png,exp4.png,,1,0,1,0,0,7,7,7,,,,,,,,,,,,,,,,,,,,,,,,,False,26,27,False,exp3.png,exp4.png,trial_left_image,1,exp3.png,1,exp3.png,exp4.png,1,1,non-reversed,correct,0.7201545958456145,1,valid_win,287.76764170000024,15,,,,,,,,,,,,sub_661,2024-07-08_11h42.24.699,Reversal,2023.1.3,59.97487052946842,1,
8,exp1.png,exp2.png,,1,0,1,0,0,8,8,8,,,,,,,,,,,,,,,,,,,,,,,,,False,27,28,True,exp2.png,exp1.png,trial_right_image,-1,exp1.png,1,exp1.png,exp2.png,1,3,reversed,correct,0.6553435563300642,1,valid_win,291.8993623000006,16,,,,,,,,,,,,sub_661,2024-07-08_11h42.24.699,Reversal,2023.1.3,59.97487052946842,1,
9,exp3.png,exp4.png,,1,0,1,0,0,9,9,9,,,,,,,,,,,,,,,,,,,,,,,,,False,28,29,False,exp3.png,exp4.png,trial_left_image,1,exp3.png,1,exp3.png,exp4.png,1,1,non-reversed,correct,0.4547335947403488,1,valid_win,296.0314636999992,17,,,,,,,,,,,,sub_661,2024-07-08_11h42.24.699,Reversal,2023.1.3,59.97487052946842,1,
10,exp1.png,exp2.png,,1,0,1,0,0,10,10,10,,,,,,,,,,,,,,,,,,,,,,,,,False,29,30,True,exp2.png,exp1.png,trial_right_image,-1,exp1.png,1,exp1.png,exp2.png,1,3,reversed,correct,0.436696600157224,1,valid_win,300.04681659999915,18,,,,,,,,,,,,sub_661,2024-07-08_11h42.24.699,Reversal,2023.1.3,59.97487052946842,1,
11,exp3.png,exp4.png,,1,0,1,0,0,11,11,11,,,,,,,,,,,,,,,,,,,,,,,,,False,30,31,False,exp3.png,exp4.png,trial_left_image,1,exp3.png,1,exp3.png,exp4.png,1,1,non-reversed,correct,0.8041640935300692,1,valid_win,304.1451004999999,19,,,,,,,,,,,,sub_661,2024-07-08_11h42.24.699,Reversal,2023.1.3,59.97487052946842,1,
12,exp1.png,exp2.png,,1,0,1,0,0,12,12,12,,,,,,,,,,,,,,,,,,,,,,,,,False,31,32,False,exp1.png,exp2.png,trial_right_image,-1,exp2.png,1,exp1.png,exp2.png,0,4,reversed,incorrect,0.8730129013948547,0,valid_lose,308.2939434,19,,,,,,,,,,,,sub_661,2024-07-08_11h42.24.699,Reversal,2023.1.3,59.97487052946842,1,
13,exp3.png,exp4.png,,1,0,1,0,0,13,13,13,,,,,,,,,,,,,,,,,,,,,,,,,False,32,33,True,exp4.png,exp3.png,trial_left_image,1,exp4.png,1,exp3.png,exp4.png,0,2,non-reversed,incorrect,0.5620683755475554,0,valid_lose,312.42574869999953,19,,,,,,,,,,,,sub_661,2024-07-08_11h42.24.699,Reversal,2023.1.3,59.97487052946842,1,
14,exp1.png,exp2.png,,1,0,1,0,0,14,14,14,,,,,,,,,,,,,,,,,,,,,,,,,False,33,34,True,exp2.png,exp1.png,trial_right_image,-1,exp1.png,1,exp1.png,exp2.png,1,3,reversed,correct,0.10439934892722325,0,invalid_lose,316.3916640999996,19,,,,,,,,,,,,sub_661,2024-07-08_11h42.24.699,Reversal,2023.1.3,59.97487052946842,1,
15,exp3.png,exp4.png,,1,0,1,0,0,15,15,15,,,,,,,,,,,,,,,,,,,,,,,,,False,34,35,True,exp4.png,exp3.png,trial_left_image,1,exp4.png,1,exp3.png,exp4.png,0,2,non-reversed,incorrect,0.2562082639037818,0,valid_lose,320.423158399999,19,,,,,,,,,,,,sub_661,2024-07-08_11h42.24.699,Reversal,2023.1.3,59.97487052946842,1,
16,exp1.png,exp2.png,,1,0,1,0,0,16,16,16,,,,,,,,,,,,,,,,,,,,,,,,,False,35,36,False,exp1.png,exp2.png,trial_right_image,-1,exp2.png,1,exp1.png,exp2.png,0,4,reversed,incorrect,0.6963494092341821,0,valid_lose,324.50513859999955,19,,,,,,,,,,,,sub_661,2024-07-08_11h42.24.699,Reversal,2023.1.3,59.97487052946842,1,
17,exp3.png,exp4.png,,1,0,1,0,0,17,17,17,,,,,,,,,,,,,,,,,,,,,,,,,False,36,37,False,exp3.png,exp4.png,trial_left_image,1,exp3.png,1,exp3.png,exp4.png,1,1,non-reversed,correct,0.47472719794209284,1,valid_win,328.5204412000003,20,,,,,,,,,,,,sub_661,2024-07-08_11h42.24.699,Reversal,2023.1.3,59.97487052946842,1,
18,exp1.png,exp2.png,,1,0,1,0,0,18,18,18,,,,,,,,,,,,,,,,,,,,,,,,,False,37,38,False,exp1.png,exp2.png,trial_right_image,-1,exp2.png,1,exp1.png,exp2.png,0,4,reversed,incorrect,0.6017851177973825,0,valid_lose,332.569281099999,20,,,,,,,,,,,,sub_661,2024-07-08_11h42.24.699,Reversal,2023.1.3,59.97487052946842,1,
19,exp3.png,exp4.png,,1,0,1,0,0,19,19,19,,,,,,,,,,,,,,,,,,,,,,,,,False,38,39,True,exp4.png,exp3.png,trial_left_image,1,exp4.png,1,exp3.png,exp4.png,0,2,non-reversed,incorrect,0.7021615107881422,0,valid_lose,336.4514244000002,20,,,,,,,,,,,,sub_661,2024-07-08_11h42.24.699,Reversal,2023.1.3,59.97487052946842,1,
20,exp1.png,exp2.png,,1,0,1,0,0,20,20,20,,,,,,,,,,,,,,,,,,,,,,,,,False,39,40,False,exp1.png,exp2.png,trial_left_image,1,exp1.png,1,exp1.png,exp2.png,1,3,reversed,correct,0.15321863873581454,0,invalid_lose,340.41674839999905,20,,,,,,,,,,,,sub_661,2024-07-08_11h42.24.699,Reversal,2023.1.3,59.97487052946842,1,
,,,exp1.png,1,0,1,0,,,,,0,0,0,0,0,0,0,0,,,,,,,,,,,,,,,,,,,,,,,,,,,,,,,,,,,,,,419.74299430000065,,None,None,[],,,,,,,sub_661,2024-07-08_11h42.24.699,Reversal,2023.1.3,59.97487052946842,1,
,,,exp2.png,1,0,1,0,,,,,0,0,0,0,0,1,1,1,,,,,,,,,,,,,,,,,,,,,,,,,,,,,,,,,,,,,,425.0368412000007,,None,None,[],,,,,,,sub_661,2024-07-08_11h42.24.699,Reversal,2023.1.3,59.97487052946842,1,
,,,exp3.png,1,0,1,0,,,,,0,0,0,0,0,2,2,2,,,,,,,,,,,,,,,,,,,,,,,,,,,,,,,,,,,,,,426.4022502000007,,None,None,[],,,,,,,sub_661,2024-07-08_11h42.24.699,Reversal,2023.1.3,59.97487052946842,1,
,,,exp4.png,1,0,1,0,,,,,0,0,0,0,0,3,3,3,,,,,,,,,,,,,,,,,,,,,,,,,,,,,,,,,,,,,,428.0035552999998,,None,None,[],,,,,,,sub_661,2024-07-08_11h42.24.699,Reversal,2023.1.3,59.97487052946842,1,
0,exp1.png,exp2.png,,2,0,2,0,0,0,0,0,,,,,,,,,,,,,,,,,,,,,,,,,True,,,,,,,,,,,,,,,,,,,,,,,,,,,,,,,,sub_661,2024-07-08_11h42.24.699,Reversal,2023.1.3,59.97487052946842,1,
1,exp3.png,exp4.png,,2,0,2,0,0,1,1,1,,,,,,,,,,,,,,,,,,,,,,,,,False,40,41,False,exp3.png,exp4.png,trial_right_image,-1,exp4.png,1,exp3.png,exp4.png,0,2,non-reversed,incorrect,0.6213538643423383,0,valid_lose,356.06094660000053,20,,,,,,,,,,,,sub_661,2024-07-08_11h42.24.699,Reversal,2023.1.3,59.97487052946842,1,
2,exp1.png,exp2.png,,2,0,2,0,0,2,2,2,,,,,,,,,,,,,,,,,,,,,,,,,False,41,42,False,exp1.png,exp2.png,trial_right_image,-1,exp2.png,1,exp1.png,exp2.png,0,4,reversed,incorrect,0.8431843454348152,0,valid_lose,360.3450434000006,20,,,,,,,,,,,,sub_661,2024-07-08_11h42.24.699,Reversal,2023.1.3,59.97487052946842,1,
3,exp3.png,exp4.png,,2,0,2,0,0,3,3,3,,,,,,,,,,,,,,,,,,,,,,,,,False,42,43,True,exp4.png,exp3.png,trial_right_image,-1,exp3.png,1,exp3.png,exp4.png,1,1,non-reversed,correct,0.6357680169504151,1,valid_win,364.6254208999999,21,,,,,,,,,,,,sub_661,2024-07-08_11h42.24.699,Reversal,2023.1.3,59.97487052946842,1,
4,exp1.png,exp2.png,,2,0,2,0,0,4,4,4,,,,,,,,,,,,,,,,,,,,,,,,,False,43,44,False,exp1.png,exp2.png,trial_right_image,-1,exp2.png,1,exp1.png,exp2.png,0,4,reversed,incorrect,0.6410055328663966,0,valid_lose,368.6404841000003,21,,,,,,,,,,,,sub_661,2024-07-08_11h42.24.699,Reversal,2023.1.3,59.97487052946842,1,
5,exp3.png,exp4.png,,2,0,2,0,0,5,5,5,,,,,,,,,,,,,,,,,,,,,,,,,False,44,45,True,exp4.png,exp3.png,trial_right_image,-1,exp3.png,1,exp3.png,exp4.png,1,1,non-reversed,correct,0.2259121925858435,0,invalid_lose,372.62241320000066,21,,,,,,,,,,,,sub_661,2024-07-08_11h42.24.699,Reversal,2023.1.3,59.97487052946842,1,
6,exp1.png,exp2.png,,2,0,2,0,0,6,6,6,,,,,,,,,,,,,,,,,,,,,,,,,False,45,46,True,exp2.png,exp1.png,trial_right_image,-1,exp1.png,1,exp1.png,exp2.png,1,3,reversed,correct,0.21051979078959404,0,invalid_lose,376.5546539999996,21,,,,,,,,,,,,sub_661,2024-07-08_11h42.24.699,Reversal,2023.1.3,59.97487052946842,1,
7,exp3.png,exp4.png,,2,0,2,0,0,7,7,7,,,,,,,,,,,,,,,,,,,,,,,,,False,46,47,True,exp4.png,exp3.png,trial_right_image,-1,exp3.png,1,exp3.png,exp4.png,1,1,non-reversed,correct,0.26647666173431694,1,valid_win,380.5696599999992,22,,,,,,,,,,,,sub_661,2024-07-08_11h42.24.699,Reversal,2023.1.3,59.97487052946842,1,
8,exp1.png,exp2.png,,2,0,2,0,0,8,8,8,,,,,,,,,,,,,,,,,,,,,,,,,False,47,48,False,exp1.png,exp2.png,trial_right_image,-1,exp2.png,1,exp1.png,exp2.png,0,4,reversed,incorrect,0.5325720678700718,0,valid_lose,385.4012368999993,22,,,,,,,,,,,,sub_661,2024-07-08_11h42.24.699,Reversal,2023.1.3,59.97487052946842,1,
9,exp3.png,exp4.png,,2,0,2,0,0,9,9,9,,,,,,,,,,,,,,,,,,,,,,,,,False,48,49,False,exp3.png,exp4.png,trial_left_image,1,exp3.png,1,exp3.png,exp4.png,1,1,non-reversed,correct,0.9730119341950371,1,valid_win,392.28265069999907,23,,,,,,,,,,,,sub_661,2024-07-08_11h42.24.699,Reversal,2023.1.3,59.97487052946842,1,
10,exp1.png,exp2.png,,2,0,2,0,0,10,10,10,,,,,,,,,,,,,,,,,,,,,,,,,False,49,50,False,exp1.png,exp2.png,trial_left_image,1,exp1.png,1,exp1.png,exp2.png,1,3,reversed,correct,0.13274824765877813,0,invalid_lose,399.5302771000006,23,,,,,,,,,,,,sub_661,2024-07-08_11h42.24.699,Reversal,2023.1.3,59.97487052946842,1,
11,exp3.png,exp4.png,,2,0,2,0,0,11,11,11,,,,,,,,,,,,,,,,,,,,,,,,,False,50,51,False,exp3.png,exp4.png,trial_right_image,-1,exp4.png,1,exp3.png,exp4.png,0,2,non-reversed,incorrect,0.7982957544156417,0,valid_lose,403.5784681999994,23,,,,,,,,,,,,sub_661,2024-07-08_11h42.24.699,Reversal,2023.1.3,59.97487052946842,1,
12,exp1.png,exp2.png,,2,0,2,0,0,12,12,12,,,,,,,,,,,,,,,,,,,,,,,,,False,51,52,True,exp2.png,exp1.png,trial_left_image,1,exp2.png,1,exp1.png,exp2.png,0,4,reversed,incorrect,0.40732217481252553,0,valid_lose,407.7100905999996,23,,,,,,,,,,,,sub_661,2024-07-08_11h42.24.699,Reversal,2023.1.3,59.97487052946842,1,
13,exp3.png,exp4.png,,2,0,2,0,0,13,13,13,,,,,,,,,,,,,,,,,,,,,,,,,False,52,53,True,exp4.png,exp3.png,trial_left_image,1,exp4.png,1,exp3.png,exp4.png,0,2,non-reversed,incorrect,0.899028657262991,0,valid_lose,411.79209400000036,23,,,,,,,,,,,,sub_661,2024-07-08_11h42.24.699,Reversal,2023.1.3,59.97487052946842,1,
14,exp1.png,exp2.png,,2,0,2,0,0,14,14,14,,,,,,,,,,,,,,,,,,,,,,,,,False,53,54,True,exp2.png,exp1.png,trial_left_image,1,exp2.png,1,exp1.png,exp2.png,0,4,reversed,incorrect,0.9847193808060611,0,valid_lose,415.7412155000002,23,,,,,,,,,,,,sub_661,2024-07-08_11h42.24.699,Reversal,2023.1.3,59.97487052946842,1,
15,exp3.png,exp4.png,,2,0,2,0,0,15,15,15,,,,,,,,,,,,,,,,,,,,,,,,,False,54,55,True,exp4.png,exp3.png,trial_left_image,1,exp4.png,1,exp3.png,exp4.png,0,2,non-reversed,incorrect,0.8754076862383847,0,valid_lose,419.7062919,23,,,,,,,,,,,,sub_661,2024-07-08_11h42.24.699,Reversal,2023.1.3,59.97487052946842,1,
16,exp1.png,exp2.png,,2,0,2,0,0,16,16,16,,,,,,,,,,,,,,,,,,,,,,,,,False,55,56,True,exp2.png,exp1.png,trial_left_image,1,exp2.png,1,exp1.png,exp2.png,0,4,reversed,incorrect,0.20590321568449188,1,invalid_win,423.6714443000001,24,,,,,,,,,,,,sub_661,2024-07-08_11h42.24.699,Reversal,2023.1.3,59.97487052946842,1,
17,exp3.png,exp4.png,,2,0,2,0,0,17,17,17,,,,,,,,,,,,,,,,,,,,,,,,,False,56,57,False,exp3.png,exp4.png,trial_left_image,1,exp3.png,1,exp3.png,exp4.png,1,1,non-reversed,correct,0.5360179618894436,1,valid_win,427.7868617999993,25,,,,,,,,,,,,sub_661,2024-07-08_11h42.24.699,Reversal,2023.1.3,59.97487052946842,1,
18,exp1.png,exp2.png,,2,0,2,0,0,18,18,18,,,,,,,,,,,,,,,,,,,,,,,,,False,57,58,True,exp2.png,exp1.png,trial_left_image,1,exp2.png,1,exp1.png,exp2.png,0,4,reversed,incorrect,0.7477606536819543,0,valid_lose,431.768818999999,25,,,,,,,,,,,,sub_661,2024-07-08_11h42.24.699,Reversal,2023.1.3,59.97487052946842,1,
19,exp3.png,exp4.png,,2,0,2,0,0,19,19,19,,,,,,,,,,,,,,,,,,,,,,,,,False,58,59,False,exp3.png,exp4.png,trial_right_image,-1,exp4.png,1,exp3.png,exp4.png,0,2,non-reversed,incorrect,0.41541479836993633,0,valid_lose,435.7174622000002,25,,,,,,,,,,,,sub_661,2024-07-08_11h42.24.699,Reversal,2023.1.3,59.97487052946842,1,
20,exp1.png,exp2.png,,2,0,2,0,0,20,20,20,,,,,,,,,,,,,,,,,,,,,,,,,False,59,60,False,exp1.png,exp2.png,trial_left_image,1,exp1.png,1,exp1.png,exp2.png,1,3,reversed,correct,0.3595112055444071,1,valid_win,439.6328126999997,26,,,,,,,,,,,,sub_661,2024-07-08_11h42.24.699,Reversal,2023.1.3,59.97487052946842,1,
,,,exp1.png,2,0,2,0,,,,,0,0,0,0,0,0,0,0,,,,,,,,,,,,,,,,,,,,,,,,,,,,,,,,,,,,,,518.9705458000008,,None,None,[],,,,,,,sub_661,2024-07-08_11h42.24.699,Reversal,2023.1.3,59.97487052946842,1,
,,,exp2.png,2,0,2,0,,,,,0,0,0,0,0,1,1,1,,,,,,,,,,,,,,,,,,,,,,,,,,,,,,,,,,,,,,524.7526493000005,,None,None,[],,,,,,,sub_661,2024-07-08_11h42.24.699,Reversal,2023.1.3,59.97487052946842,1,
,,,exp3.png,2,0,2,0,,,,,0,0,0,0,0,2,2,2,,,,,,,,,,,,,,,,,,,,,,,,,,,,,,,,,,,,,,527.4028921999998,,None,None,[],,,,,,,sub_661,2024-07-08_11h42.24.699,Reversal,2023.1.3,59.97487052946842,1,
,,,exp4.png,2,0,2,0,,,,,0,0,0,0,0,3,3,3,,,,,,,,,,,,,,,,,,,,,,,,,,,,,,,,,,,,,,530.0022594000002,,None,None,[],,,,,,,sub_661,2024-07-08_11h42.24.699,Reversal,2023.1.3,59.97487052946842,1,
0,exp1.png,exp2.png,,3,0,3,0,0,0,0,0,,,,,,,,,,,,,,,,,,,,,,,,,True,,,,,,,,,,,,,,,,,,,,,,,,,,,,,,,,sub_661,2024-07-08_11h42.24.699,Reversal,2023.1.3,59.97487052946842,1,
1,exp3.png,exp4.png,,3,0,3,0,0,1,1,1,,,,,,,,,,,,,,,,,,,,,,,,,False,60,61,False,exp3.png,exp4.png,trial_right_image,-1,exp4.png,1,exp3.png,exp4.png,0,2,non-reversed,incorrect,0.9177693837453724,0,valid_lose,458.3431363999989,26,,,,,,,,,,,,sub_661,2024-07-08_11h42.24.699,Reversal,2023.1.3,59.97487052946842,1,
2,exp1.png,exp2.png,,3,0,3,0,0,2,2,2,,,,,,,,,,,,,,,,,,,,,,,,,False,61,62,True,exp2.png,exp1.png,trial_left_image,1,exp2.png,1,exp1.png,exp2.png,0,4,reversed,incorrect,0.5586415295000355,0,valid_lose,462.7244792999991,26,,,,,,,,,,,,sub_661,2024-07-08_11h42.24.699,Reversal,2023.1.3,59.97487052946842,1,
3,exp3.png,exp4.png,,3,0,3,0,0,3,3,3,,,,,,,,,,,,,,,,,,,,,,,,,False,62,63,False,exp3.png,exp4.png,trial_right_image,-1,exp4.png,1,exp3.png,exp4.png,0,2,non-reversed,incorrect,0.33997118776590285,0,valid_lose,467.9400105000004,26,,,,,,,,,,,,sub_661,2024-07-08_11h42.24.699,Reversal,2023.1.3,59.97487052946842,1,
4,exp1.png,exp2.png,,3,0,3,0,0,4,4,4,,,,,,,,,,,,,,,,,,,,,,,,,False,63,64,True,exp2.png,exp1.png,trial_left_image,1,exp2.png,1,exp1.png,exp2.png,0,4,reversed,incorrect,0.9166082810613093,0,valid_lose,471.988057999999,26,,,,,,,,,,,,sub_661,2024-07-08_11h42.24.699,Reversal,2023.1.3,59.97487052946842,1,
5,exp3.png,exp4.png,,3,0,3,0,0,5,5,5,,,,,,,,,,,,,,,,,,,,,,,,,False,64,65,False,exp3.png,exp4.png,trial_left_image,1,exp3.png,1,exp3.png,exp4.png,1,1,non-reversed,correct,0.37352572568748654,1,valid_win,475.9037425000006,27,,,,,,,,,,,,sub_661,2024-07-08_11h42.24.699,Reversal,2023.1.3,59.97487052946842,1,
6,exp1.png,exp2.png,,3,0,3,0,0,6,6,6,,,,,,,,,,,,,,,,,,,,,,,,,False,65,66,True,exp2.png,exp1.png,trial_right_image,-1,exp1.png,1,exp1.png,exp2.png,1,3,reversed,correct,0.9526530866282451,1,valid_win,479.71903460000067,28,,,,,,,,,,,,sub_661,2024-07-08_11h42.24.699,Reversal,2023.1.3,59.97487052946842,1,
7,exp3.png,exp4.png,,3,0,3,0,0,7,7,7,,,,,,,,,,,,,,,,,,,,,,,,,False,66,67,False,exp3.png,exp4.png,trial_left_image,1,exp3.png,1,exp3.png,exp4.png,1,1,non-reversed,correct,0.011021809308883523,0,invalid_lose,483.7176436999998,28,,,,,,,,,,,,sub_661,2024-07-08_11h42.24.699,Reversal,2023.1.3,59.97487052946842,1,
8,exp1.png,exp2.png,,3,0,3,0,0,8,8,8,,,,,,,,,,,,,,,,,,,,,,,,,False,67,68,True,exp2.png,exp1.png,trial_right_image,-1,exp1.png,1,exp1.png,exp2.png,1,3,reversed,correct,0.6331833467454951,1,valid_win,487.5830009000001,29,,,,,,,,,,,,sub_661,2024-07-08_11h42.24.699,Reversal,2023.1.3,59.97487052946842,1,
9,exp3.png,exp4.png,,3,0,3,0,0,9,9,9,,,,,,,,,,,,,,,,,,,,,,,,,False,68,69,False,exp3.png,exp4.png,trial_left_image,1,exp3.png,1,exp3.png,exp4.png,1,1,non-reversed,correct,0.7042905972889476,1,valid_win,491.60122450000017,30,,,,,,,,,,,,sub_661,2024-07-08_11h42.24.699,Reversal,2023.1.3,59.97487052946842,1,
10,exp1.png,exp2.png,,3,0,3,0,0,10,10,10,,,,,,,,,,,,,,,,,,,,,,,,,False,69,70,True,exp2.png,exp1.png,trial_right_image,-1,exp1.png,1,exp1.png,exp2.png,1,3,reversed,correct,0.6791684526980679,1,valid_win,497.6297938000007,31,,,,,,,,,,,,sub_661,2024-07-08_11h42.24.699,Reversal,2023.1.3,59.97487052946842,1,
11,exp3.png,exp4.png,,3,0,3,0,0,11,11,11,,,,,,,,,,,,,,,,,,,,,,,,,False,70,71,False,exp3.png,exp4.png,trial_left_image,1,exp3.png,1,exp3.png,exp4.png,1,1,non-reversed,correct,0.9003790468189133,1,valid_win,502.4446580999993,32,,,,,,,,,,,,sub_661,2024-07-08_11h42.24.699,Reversal,2023.1.3,59.97487052946842,1,
12,exp1.png,exp2.png,,3,0,3,0,0,12,12,12,,,,,,,,,,,,,,,,,,,,,,,,,False,71,72,False,exp1.png,exp2.png,trial_right_image,-1,exp2.png,1,exp1.png,exp2.png,0,4,reversed,incorrect,0.8297259136373094,0,valid_lose,506.72900949999894,32,,,,,,,,,,,,sub_661,2024-07-08_11h42.24.699,Reversal,2023.1.3,59.97487052946842,1,
13,exp3.png,exp4.png,,3,0,3,0,0,13,13,13,,,,,,,,,,,,,,,,,,,,,,,,,False,72,73,False,exp3.png,exp4.png,trial_left_image,1,exp3.png,1,exp3.png,exp4.png,1,1,non-reversed,correct,0.02023593220790232,0,invalid_lose,510.6087807999993,32,,,,,,,,,,,,sub_661,2024-07-08_11h42.24.699,Reversal,2023.1.3,59.97487052946842,1,
14,exp1.png,exp2.png,,3,0,3,0,0,14,14,14,,,,,,,,,,,,,,,,,,,,,,,,,False,73,74,False,exp1.png,exp2.png,trial_right_image,-1,exp2.png,1,exp1.png,exp2.png,0,4,reversed,incorrect,0.9784255875775985,0,valid_lose,514.5076310999993,32,,,,,,,,,,,,sub_661,2024-07-08_11h42.24.699,Reversal,2023.1.3,59.97487052946842,1,
15,exp3.png,exp4.png,,3,0,3,0,0,15,15,15,,,,,,,,,,,,,,,,,,,,,,,,,False,74,75,True,exp4.png,exp3.png,trial_left_image,1,exp4.png,1,exp3.png,exp4.png,0,2,non-reversed,incorrect,0.688802022478885,0,valid_lose,518.7395954999993,32,,,,,,,,,,,,sub_661,2024-07-08_11h42.24.699,Reversal,2023.1.3,59.97487052946842,1,
16,exp1.png,exp2.png,,3,0,3,0,0,16,16,16,,,,,,,,,,,,,,,,,,,,,,,,,False,75,76,True,exp2.png,exp1.png,trial_right_image,-1,exp1.png,1,exp1.png,exp2.png,1,3,reversed,correct,0.031907383883086005,0,invalid_lose,522.671418599999,32,,,,,,,,,,,,sub_661,2024-07-08_11h42.24.699,Reversal,2023.1.3,59.97487052946842,1,
17,exp3.png,exp4.png,,3,0,3,0,0,17,17,17,,,,,,,,,,,,,,,,,,,,,,,,,False,76,77,True,exp4.png,exp3.png,trial_right_image,-1,exp3.png,1,exp3.png,exp4.png,1,1,non-reversed,correct,0.9654972791133964,1,valid_win,526.4866693999993,33,,,,,,,,,,,,sub_661,2024-07-08_11h42.24.699,Reversal,2023.1.3,59.97487052946842,1,
18,exp1.png,exp2.png,,3,0,3,0,0,18,18,18,,,,,,,,,,,,,,,,,,,,,,,,,False,77,78,False,exp1.png,exp2.png,trial_right_image,-1,exp2.png,1,exp1.png,exp2.png,0,4,reversed,incorrect,0.016899708678900893,1,invalid_win,530.4187803000004,34,,,,,,,,,,,,sub_661,2024-07-08_11h42.24.699,Reversal,2023.1.3,59.97487052946842,1,
19,exp3.png,exp4.png,,3,0,3,0,0,19,19,19,,,,,,,,,,,,,,,,,,,,,,,,,False,78,79,True,exp4.png,exp3.png,trial_right_image,-1,exp3.png,1,exp3.png,exp4.png,1,1,non-reversed,correct,0.6604981998071698,1,valid_win,534.4504577999996,35,,,,,,,,,,,,sub_661,2024-07-08_11h42.24.699,Reversal,2023.1.3,59.97487052946842,1,
20,exp1.png,exp2.png,,3,0,3,0,0,20,20,20,,,,,,,,,,,,,,,,,,,,,,,,,False,79,80,True,exp2.png,exp1.png,trial_right_image,-1,exp1.png,1,exp1.png,exp2.png,1,3,reversed,correct,0.20117353642573255,0,invalid_lose,538.3324539000005,35,,,,,,,,,,,,sub_661,2024-07-08_11h42.24.699,Reversal,2023.1.3,59.97487052946842,1,
,,,exp1.png,3,0,3,0,,,,,0,0,0,0,0,0,0,0,,,,,,,,,,,,,,,,,,,,,,,,,,,,,,,,,,,,,,617.6625206000008,,None,None,[],,,,,,,sub_661,2024-07-08_11h42.24.699,Reversal,2023.1.3,59.97487052946842,1,
,,,exp2.png,3,0,3,0,,,,,0,0,0,0,0,1,1,1,,,,,,,,,,,,,,,,,,,,,,,,,,,,,,,,,,,,,,619.9375371999995,,None,None,[],,,,,,,sub_661,2024-07-08_11h42.24.699,Reversal,2023.1.3,59.97487052946842,1,
,,,exp3.png,3,0,3,0,,,,,0,0,0,0,0,2,2,2,,,,,,,,,,,,,,,,,,,,,,,,,,,,,,,,,,,,,,621.5537442999994,,None,None,[],,,,,,,sub_661,2024-07-08_11h42.24.699,Reversal,2023.1.3,59.97487052946842,1,
,,,exp4.png,3,0,3,0,,,,,0,0,0,0,0,3,3,3,,,,,,,,,,,,,,,,,,,,,,,,,,,,,,,,,,,,,,623.3855234000002,,None,None,[],,,,,,,sub_661,2024-07-08_11h42.24.699,Reversal,2023.1.3,59.97487052946842,1,
0,exp1.png,exp2.png,,,,,,,,,,,,,,,,,,0,0,0,0,0,0,0,0,,,,,,,,,True,,,,,,,,,,,,,,,,,,,,,,,,,,,,,,,,sub_661,2024-07-08_11h42.24.699,Reversal,2023.1.3,59.97487052946842,1,
1,exp3.png,exp4.png,,,,,,,,,,,,,,,,,,0,0,0,0,0,1,1,1,,,,,,,,,False,0,81,True,exp4.png,exp3.png,trial_left_image,1,exp4.png,1,exp3.png,exp4.png,0,2,non-reversed,incorrect,0.288328917712689,0,valid_lose,551.0948262999991,35,,,,,,548.0507347000002,,,,,,sub_661,2024-07-08_11h42.24.699,Reversal,2023.1.3,59.97487052946842,1,
2,exp1.png,exp2.png,,,,,,,,,,,,,,,,,,0,0,0,0,0,2,2,2,,,,,,,,,False,1,82,True,exp2.png,exp1.png,trial_left_image,1,exp2.png,1,exp2.png,exp1.png,0,4,reversed,correct,0.5949189384399242,1,valid_win,557.1600576000001,36,,,,,,,,,,,,sub_661,2024-07-08_11h42.24.699,Reversal,2023.1.3,59.97487052946842,1,
3,exp3.png,exp4.png,,,,,,,,,,,,,,,,,,0,0,0,0,0,3,3,3,,,,,,,,,False,2,83,False,exp3.png,exp4.png,trial_right_image,-1,exp4.png,1,exp3.png,exp4.png,0,2,non-reversed,incorrect,0.1750509291954927,1,invalid_win,563.0742353000005,37,,,,,,,,,,,,sub_661,2024-07-08_11h42.24.699,Reversal,2023.1.3,59.97487052946842,1,
4,exp1.png,exp2.png,,,,,,,,,,,,,,,,,,0,0,0,0,0,4,4,4,,,,,,,,,False,3,84,True,exp2.png,exp1.png,trial_left_image,1,exp2.png,1,exp2.png,exp1.png,0,4,reversed,correct,0.9370113414802917,1,valid_win,569.5884559999995,38,,,,,,,,,,,,sub_661,2024-07-08_11h42.24.699,Reversal,2023.1.3,59.97487052946842,1,
5,exp3.png,exp4.png,,,,,,,,,,,,,,,,,,0,0,0,0,0,5,5,5,,,,,,,,,False,4,85,True,exp4.png,exp3.png,trial_right_image,-1,exp3.png,1,exp3.png,exp4.png,1,1,non-reversed,correct,0.5499174400909955,1,valid_win,574.3540604999998,39,,,,,,,,,,,,sub_661,2024-07-08_11h42.24.699,Reversal,2023.1.3,59.97487052946842,1,
6,exp1.png,exp2.png,,,,,,,,,,,,,,,,,,0,0,0,0,0,6,6,6,,,,,,,,,False,5,86,False,exp1.png,exp2.png,trial_left_image,1,exp1.png,1,exp2.png,exp1.png,1,3,reversed,incorrect,0.007478985863486609,1,invalid_win,579.1522177000006,40,,,,,,,,,,,,sub_661,2024-07-08_11h42.24.699,Reversal,2023.1.3,59.97487052946842,1,
7,exp3.png,exp4.png,,,,,,,,,,,,,,,,,,0,0,0,0,0,7,7,7,,,,,,,,,False,6,87,False,exp3.png,exp4.png,trial_right_image,-1,exp4.png,1,exp3.png,exp4.png,0,2,non-reversed,incorrect,0.9152661644761736,0,valid_lose,583.8001236,40,,,,,,,,,,,,sub_661,2024-07-08_11h42.24.699,Reversal,2023.1.3,59.97487052946842,1,
8,exp1.png,exp2.png,,,,,,,,,,,,,,,,,,0,0,0,0,0,8,8,8,,,,,,,,,False,7,88,True,exp2.png,exp1.png,trial_left_image,1,exp2.png,1,exp2.png,exp1.png,0,4,reversed,correct,0.3618882179206996,1,valid_win,592.1808521000003,41,,,,,,,,,,,,sub_661,2024-07-08_11h42.24.699,Reversal,2023.1.3,59.97487052946842,1,
9,exp3.png,exp4.png,,,,,,,,,,,,,,,,,,0,0,0,0,0,9,9,9,,,,,,,,,False,8,89,True,exp4.png,exp3.png,trial_right_image,-1,exp3.png,1,exp3.png,exp4.png,1,1,non-reversed,correct,0.22294781093133687,0,invalid_lose,597.7787511000006,41,,,,,,,,,,,,sub_661,2024-07-08_11h42.24.699,Reversal,2023.1.3,59.97487052946842,1,
10,exp1.png,exp2.png,,,,,,,,,,,,,,,,,,0,0,0,0,0,10,10,10,,,,,,,,,False,9,90,False,exp1.png,exp2.png,trial_left_image,1,exp1.png,1,exp2.png,exp1.png,1,3,reversed,incorrect,0.781939200676652,0,valid_lose,602.6617664000005,41,,,,,,,,,,,,sub_661,2024-07-08_11h42.24.699,Reversal,2023.1.3,59.97487052946842,1,
11,exp3.png,exp4.png,,,,,,,,,,,,,,,,,,0,0,0,0,0,11,11,11,,,,,,,,,False,10,91,True,exp4.png,exp3.png,trial_right_image,-1,exp3.png,1,exp3.png,exp4.png,1,1,non-reversed,correct,0.8009954008947324,1,valid_win,614.8737409999994,42,,,,,,,,,,,,sub_661,2024-07-08_11h42.24.699,Reversal,2023.1.3,59.97487052946842,1,
12,exp1.png,exp2.png,,,,,,,,,,,,,,,,,,0,0,0,0,0,12,12,12,,,,,,,,,False,11,92,False,exp1.png,exp2.png,trial_left_image,1,exp1.png,1,exp2.png,exp1.png,1,3,reversed,incorrect,0.703822521463728,0,valid_lose,620.6045044999992,42,,,,,,,,,,,,sub_661,2024-07-08_11h42.24.699,Reversal,2023.1.3,59.97487052946842,1,
13,exp3.png,exp4.png,,,,,,,,,,,,,,,,,,0,0,0,0,0,13,13,13,,,,,,,,,False,12,93,True,exp4.png,exp3.png,trial_right_image,-1,exp3.png,1,exp3.png,exp4.png,1,1,non-reversed,correct,0.29415034767847137,1,valid_win,624.9864983000007,43,,,,,,,,,,,,sub_661,2024-07-08_11h42.24.699,Reversal,2023.1.3,59.97487052946842,1,
14,exp1.png,exp2.png,,,,,,,,,,,,,,,,,,0,0,0,0,0,14,14,14,,,,,,,,,False,13,94,False,exp1.png,exp2.png,trial_left_image,1,exp1.png,1,exp2.png,exp1.png,1,3,reversed,incorrect,0.06478314772870297,1,invalid_win,629.9682443000002,44,,,,,,,,,,,,sub_661,2024-07-08_11h42.24.699,Reversal,2023.1.3,59.97487052946842,1,
15,exp3.png,exp4.png,,,,,,,,,,,,,,,,,,0,0,0,0,0,15,15,15,,,,,,,,,False,14,95,True,exp4.png,exp3.png,trial_right_image,-1,exp3.png,1,exp3.png,exp4.png,1,1,non-reversed,correct,0.14764182066956166,0,invalid_lose,634.6999610000003,44,,,,,,,,,,,,sub_661,2024-07-08_11h42.24.699,Reversal,2023.1.3,59.97487052946842,1,
16,exp1.png,exp2.png,,,,,,,,,,,,,,,,,,0,0,0,0,0,16,16,16,,,,,,,,,False,15,96,False,exp1.png,exp2.png,trial_left_image,1,exp1.png,1,exp2.png,exp1.png,1,3,reversed,incorrect,0.46703995481759386,0,valid_lose,639.4651943999997,44,,,,,,,,,,,,sub_661,2024-07-08_11h42.24.699,Reversal,2023.1.3,59.97487052946842,1,
17,exp3.png,exp4.png,,,,,,,,,,,,,,,,,,0,0,0,0,0,17,17,17,,,,,,,,,False,16,97,False,exp3.png,exp4.png,trial_left_image,1,exp3.png,1,exp3.png,exp4.png,1,1,non-reversed,correct,0.4567300362336585,1,valid_win,645.5626811999991,45,,,,,,,,,,,,sub_661,2024-07-08_11h42.24.699,Reversal,2023.1.3,59.97487052946842,1,
18,exp1.png,exp2.png,,,,,,,,,,,,,,,,,,0,0,0,0,0,18,18,18,,,,,,,,,False,17,98,False,exp1.png,exp2.png,trial_right_image,-1,exp2.png,1,exp2.png,exp1.png,0,4,reversed,correct,0.1841639626703382,0,invalid_lose,650.1944156999998,45,,,,,,,,,,,,sub_661,2024-07-08_11h42.24.699,Reversal,2023.1.3,59.97487052946842,1,
19,exp3.png,exp4.png,,,,,,,,,,,,,,,,,,0,0,0,0,0,19,19,19,,,,,,,,,False,18,99,True,exp4.png,exp3.png,trial_left_image,1,exp4.png,1,exp3.png,exp4.png,0,2,non-reversed,incorrect,0.9894690417151094,0,valid_lose,655.3095854999992,45,,,,,,,,,,,,sub_661,2024-07-08_11h42.24.699,Reversal,2023.1.3,59.97487052946842,1,
20,exp1.png,exp2.png,,,,,,,,,,,,,,,,,,0,0,0,0,0,20,20,20,,,,,,,,,False,19,100,False,exp1.png,exp2.png,trial_right_image,-1,exp2.png,1,exp2.png,exp1.png,0,4,reversed,correct,0.9303728533552196,1,valid_win,662.0069597999991,46,,,,,,,,,,,,sub_661,2024-07-08_11h42.24.699,Reversal,2023.1.3,59.97487052946842,1,
,,,exp1.png,,,,,,,,,,,,,,,,,0,0,0,0,,,,,0,0,0,0,0,0,0,0,,,,,,,,,,,,,,,,,,,,,,741.3353595000008,,None,None,[],,,,,,,sub_661,2024-07-08_11h42.24.699,Reversal,2023.1.3,59.97487052946842,1,
,,,exp2.png,,,,,,,,,,,,,,,,,0,0,0,0,,,,,0,0,0,0,0,1,1,1,,,,,,,,,,,,,,,,,,,,,,743.5808268000001,,None,None,[],,,,,,,sub_661,2024-07-08_11h42.24.699,Reversal,2023.1.3,59.97487052946842,1,
,,,exp3.png,,,,,,,,,,,,,,,,,0,0,0,0,,,,,0,0,0,0,0,2,2,2,,,,,,,,,,,,,,,,,,,,,,744.5961760999999,,None,None,[],,,,,,,sub_661,2024-07-08_11h42.24.699,Reversal,2023.1.3,59.97487052946842,1,
,,,exp4.png,,,,,,,,,,,,,,,,,0,0,0,0,,,,,0,0,0,0,0,3,3,3,,,,,,,,,,,,,,,,,,,,,,745.6139731999992,,None,None,[],,,,,,,sub_661,2024-07-08_11h42.24.699,Reversal,2023.1.3,59.97487052946842,1,
0,exp1.png,exp2.png,,,,,,,,,,,,,,,,,,1,0,1,0,0,0,0,0,,,,,,,,,True,,,,,,,,,,,,,,,,,,,,,,,,,,,,,,,,sub_661,2024-07-08_11h42.24.699,Reversal,2023.1.3,59.97487052946842,1,
1,exp3.png,exp4.png,,,,,,,,,,,,,,,,,,1,0,1,0,0,1,1,1,,,,,,,,,False,20,101,True,exp4.png,exp3.png,trial_left_image,1,exp4.png,1,exp3.png,exp4.png,0,2,non-reversed,incorrect,0.9707625781925506,0,valid_lose,673.1201094999997,46,,,,,,,,,,,,sub_661,2024-07-08_11h42.24.699,Reversal,2023.1.3,59.97487052946842,1,
2,exp1.png,exp2.png,,,,,,,,,,,,,,,,,,1,0,1,0,0,2,2,2,,,,,,,,,False,21,102,False,exp1.png,exp2.png,trial_left_image,1,exp1.png,1,exp2.png,exp1.png,1,3,reversed,incorrect,0.7564905660301676,0,valid_lose,677.1855954000002,46,,,,,,,,,,,,sub_661,2024-07-08_11h42.24.699,Reversal,2023.1.3,59.97487052946842,1,
3,exp3.png,exp4.png,,,,,,,,,,,,,,,,,,1,0,1,0,0,3,3,3,,,,,,,,,False,22,103,True,exp4.png,exp3.png,trial_left_image,1,exp4.png,1,exp3.png,exp4.png,0,2,non-reversed,incorrect,0.20714985114055684,1,invalid_win,682.0836185999997,47,,,,,,,,,,,,sub_661,2024-07-08_11h42.24.699,Reversal,2023.1.3,59.97487052946842,1,
4,exp1.png,exp2.png,,,,,,,,,,,,,,,,,,1,0,1,0,0,4,4,4,,,,,,,,,False,23,104,True,exp2.png,exp1.png,trial_right_image,-1,exp1.png,1,exp2.png,exp1.png,1,3,reversed,incorrect,0.44282901265212216,0,valid_lose,687.6151504999998,47,,,,,,,,,,,,sub_661,2024-07-08_11h42.24.699,Reversal,2023.1.3,59.97487052946842,1,
5,exp3.png,exp4.png,,,,,,,,,,,,,,,,,,1,0,1,0,0,5,5,5,,,,,,,,,False,24,105,False,exp3.png,exp4.png,trial_right_image,-1,exp4.png,1,exp3.png,exp4.png,0,2,non-reversed,incorrect,0.4571936187120006,0,valid_lose,692.9464688999997,47,,,,,,,,,,,,sub_661,2024-07-08_11h42.24.699,Reversal,2023.1.3,59.97487052946842,1,
6,exp1.png,exp2.png,,,,,,,,,,,,,,,,,,1,0,1,0,0,6,6,6,,,,,,,,,False,25,106,True,exp2.png,exp1.png,trial_left_image,1,exp2.png,1,exp2.png,exp1.png,0,4,reversed,correct,0.8936973963348408,1,valid_win,702.6688579999991,48,,,,,,,,,,,,sub_661,2024-07-08_11h42.24.699,Reversal,2023.1.3,59.97487052946842,1,
7,exp3.png,exp4.png,,,,,,,,,,,,,,,,,,1,0,1,0,0,7,7,7,,,,,,,,,False,26,107,True,exp4.png,exp3.png,trial_right_image,-1,exp3.png,1,exp3.png,exp4.png,1,1,non-reversed,correct,0.569733450209999,1,valid_win,709.2246613999996,49,,,,,,,,,,,,sub_661,2024-07-08_11h42.24.699,Reversal,2023.1.3,59.97487052946842,1,
8,exp1.png,exp2.png,,,,,,,,,,,,,,,,,,1,0,1,0,0,8,8,8,,,,,,,,,False,27,108,True,exp2.png,exp1.png,trial_left_image,1,exp2.png,1,exp2.png,exp1.png,0,4,reversed,correct,0.21978926268633203,0,invalid_lose,714.6229172000003,49,,,,,,,,,,,,sub_661,2024-07-08_11h42.24.699,Reversal,2023.1.3,59.97487052946842,1,
9,exp3.png,exp4.png,,,,,,,,,,,,,,,,,,1,0,1,0,0,9,9,9,,,,,,,,,False,28,109,False,exp3.png,exp4.png,trial_right_image,-1,exp4.png,1,exp3.png,exp4.png,0,2,non-reversed,incorrect,0.014134339557180686,1,invalid_win,719.2044475000002,50,,,,,,,,,,,,sub_661,2024-07-08_11h42.24.699,Reversal,2023.1.3,59.97487052946842,1,
10,exp1.png,exp2.png,,,,,,,,,,,,,,,,,,1,0,1,0,0,10,10,10,,,,,,,,,False,29,110,True,exp2.png,exp1.png,trial_right_image,-1,exp1.png,1,exp2.png,exp1.png,1,3,reversed,incorrect,0.4268652398176076,0,valid_lose,724.0368966000005,50,,,,,,,,,,,,sub_661,2024-07-08_11h42.24.699,Reversal,2023.1.3,59.97487052946842,1,
11,exp3.png,exp4.png,,,,,,,,,,,,,,,,,,1,0,1,0,0,11,11,11,,,,,,,,,False,30,111,True,exp4.png,exp3.png,trial_left_image,1,exp4.png,1,exp3.png,exp4.png,0,2,non-reversed,incorrect,0.6391138766445517,0,valid_lose,731.4507572000002,50,,,,,,,,,,,,sub_661,2024-07-08_11h42.24.699,Reversal,2023.1.3,59.97487052946842,1,
12,exp1.png,exp2.png,,,,,,,,,,,,,,,,,,1,0,1,0,0,12,12,12,,,,,,,,,False,31,112,True,exp2.png,exp1.png,trial_right_image,-1,exp1.png,1,exp2.png,exp1.png,1,3,reversed,incorrect,0.3053733817099358,0,valid_lose,735.4153757000004,50,,,,,,,,,,,,sub_661,2024-07-08_11h42.24.699,Reversal,2023.1.3,59.97487052946842,1,
13,exp3.png,exp4.png,,,,,,,,,,,,,,,,,,1,0,1,0,0,13,13,13,,,,,,,,,False,32,113,False,exp3.png,exp4.png,trial_left_image,1,exp3.png,1,exp3.png,exp4.png,1,1,non-reversed,correct,0.5621505304250014,1,valid_win,739.6810537999991,51,,,,,,,,,,,,sub_661,2024-07-08_11h42.24.699,Reversal,2023.1.3,59.97487052946842,1,
14,exp1.png,exp2.png,,,,,,,,,,,,,,,,,,1,0,1,0,0,14,14,14,,,,,,,,,False,33,114,False,exp1.png,exp2.png,trial_right_image,-1,exp2.png,1,exp2.png,exp1.png,0,4,reversed,correct,0.06832982159514867,0,invalid_lose,743.8292636999995,51,,,,,,,,,,,,sub_661,2024-07-08_11h42.24.699,Reversal,2023.1.3,59.97487052946842,1,
15,exp3.png,exp4.png,,,,,,,,,,,,,,,,,,1,0,1,0,0,15,15,15,,,,,,,,,False,34,115,True,exp4.png,exp3.png,trial_right_image,-1,exp3.png,1,exp3.png,exp4.png,1,1,non-reversed,correct,0.3988560132423904,1,valid_win,747.9945324,52,,,,,,,,,,,,sub_661,2024-07-08_11h42.24.699,Reversal,2023.1.3,59.97487052946842,1,
16,exp1.png,exp2.png,,,,,,,,,,,,,,,,,,1,0,1,0,0,16,16,16,,,,,,,,,False,35,116,False,exp1.png,exp2.png,trial_right_image,-1,exp2.png,1,exp2.png,exp1.png,0,4,reversed,correct,0.8294819953270068,1,valid_win,752.0767741999989,53,,,,,,,,,,,,sub_661,2024-07-08_11h42.24.699,Reversal,2023.1.3,59.97487052946842,1,
17,exp3.png,exp4.png,,,,,,,,,,,,,,,,,,1,0,1,0,0,17,17,17,,,,,,,,,False,36,117,False,exp3.png,exp4.png,trial_right_image,-1,exp4.png,1,exp3.png,exp4.png,0,2,non-reversed,incorrect,0.17462555130133284,1,invalid_win,756.1755295999992,54,,,,,,,,,,,,sub_661,2024-07-08_11h42.24.699,Reversal,2023.1.3,59.97487052946842,1,
18,exp1.png,exp2.png,,,,,,,,,,,,,,,,,,1,0,1,0,0,18,18,18,,,,,,,,,False,37,118,False,exp1.png,exp2.png,trial_right_image,-1,exp2.png,1,exp2.png,exp1.png,0,4,reversed,correct,0.2132686659491161,0,invalid_lose,760.2402263000004,54,,,,,,,,,,,,sub_661,2024-07-08_11h42.24.699,Reversal,2023.1.3,59.97487052946842,1,
19,exp3.png,exp4.png,,,,,,,,,,,,,,,,,,1,0,1,0,0,19,19,19,,,,,,,,,False,38,119,False,exp3.png,exp4.png,trial_right_image,-1,exp4.png,1,exp3.png,exp4.png,0,2,non-reversed,incorrect,0.00031723582429354913,1,invalid_win,764.3059917999999,55,,,,,,,,,,,,sub_661,2024-07-08_11h42.24.699,Reversal,2023.1.3,59.97487052946842,1,
20,exp1.png,exp2.png,,,,,,,,,,,,,,,,,,1,0,1,0,0,20,20,20,,,,,,,,,False,39,120,False,exp1.png,exp2.png,trial_right_image,-1,exp2.png,1,exp2.png,exp1.png,0,4,reversed,correct,0.25748777567559566,1,valid_win,768.0876898999995,56,,,,,,,,,,,,sub_661,2024-07-08_11h42.24.699,Reversal,2023.1.3,59.97487052946842,1,
,,,exp1.png,,,,,,,,,,,,,,,,,1,0,1,0,,,,,0,0,0,0,0,0,0,0,,,,,,,,,,,,,,,,,,,,,,847.4212339000005,,None,None,[],,,,,,,sub_661,2024-07-08_11h42.24.699,Reversal,2023.1.3,59.97487052946842,1,
,,,exp2.png,,,,,,,,,,,,,,,,,1,0,1,0,,,,,0,0,0,0,0,1,1,1,,,,,,,,,,,,,,,,,,,,,,849.4438773000002,,None,None,[],,,,,,,sub_661,2024-07-08_11h42.24.699,Reversal,2023.1.3,59.97487052946842,1,
,,,exp3.png,,,,,,,,,,,,,,,,,1,0,1,0,,,,,0,0,0,0,0,2,2,2,,,,,,,,,,,,,,,,,,,,,,854.2107259999993,,None,None,[],,,,,,,sub_661,2024-07-08_11h42.24.699,Reversal,2023.1.3,59.97487052946842,1,
,,,exp4.png,,,,,,,,,,,,,,,,,1,0,1,0,,,,,0,0,0,0,0,3,3,3,,,,,,,,,,,,,,,,,,,,,,855.9757731999998,,None,None,[],,,,,,,sub_661,2024-07-08_11h42.24.699,Reversal,2023.1.3,59.97487052946842,1,
0,exp1.png,exp2.png,,,,,,,,,,,,,,,,,,2,0,2,0,0,0,0,0,,,,,,,,,True,,,,,,,,,,,,,,,,,,,,,,,,,,,,,,,,sub_661,2024-07-08_11h42.24.699,Reversal,2023.1.3,59.97487052946842,1,
1,exp3.png,exp4.png,,,,,,,,,,,,,,,,,,2,0,2,0,0,1,1,1,,,,,,,,,False,40,121,False,exp3.png,exp4.png,trial_right_image,-1,exp4.png,1,exp3.png,exp4.png,0,2,non-reversed,incorrect,0.7529828037639682,0,valid_lose,783.0658932000006,56,,,,,,,,,,,,sub_661,2024-07-08_11h42.24.699,Reversal,2023.1.3,59.97487052946842,1,
2,exp1.png,exp2.png,,,,,,,,,,,,,,,,,,2,0,2,0,0,2,2,2,,,,,,,,,False,41,122,False,exp1.png,exp2.png,trial_right_image,-1,exp2.png,1,exp2.png,exp1.png,0,4,reversed,correct,0.6606085499881642,1,valid_win,786.8817032000006,57,,,,,,,,,,,,sub_661,2024-07-08_11h42.24.699,Reversal,2023.1.3,59.97487052946842,1,
3,exp3.png,exp4.png,,,,,,,,,,,,,,,,,,2,0,2,0,0,3,3,3,,,,,,,,,False,42,123,True,exp4.png,exp3.png,trial_right_image,-1,exp3.png,1,exp3.png,exp4.png,1,1,non-reversed,correct,0.26077934751021237,1,valid_win,790.8470708000004,58,,,,,,,,,,,,sub_661,2024-07-08_11h42.24.699,Reversal,2023.1.3,59.97487052946842,1,
4,exp1.png,exp2.png,,,,,,,,,,,,,,,,,,2,0,2,0,0,4,4,4,,,,,,,,,False,43,124,True,exp2.png,exp1.png,trial_right_image,-1,exp1.png,1,exp2.png,exp1.png,1,3,reversed,incorrect,0.1606761404396756,1,invalid_win,794.6791020000001,59,,,,,,,,,,,,sub_661,2024-07-08_11h42.24.699,Reversal,2023.1.3,59.97487052946842,1,
5,exp3.png,exp4.png,,,,,,,,,,,,,,,,,,2,0,2,0,0,5,5,5,,,,,,,,,False,44,125,True,exp4.png,exp3.png,trial_right_image,-1,exp3.png,1,exp3.png,exp4.png,1,1,non-reversed,correct,0.7190257317652373,1,valid_win,798.5941175999997,60,,,,,,,,,,,,sub_661,2024-07-08_11h42.24.699,Reversal,2023.1.3,59.97487052946842,1,
6,exp1.png,exp2.png,,,,,,,,,,,,,,,,,,2,0,2,0,0,6,6,6,,,,,,,,,False,45,126,False,exp1.png,exp2.png,trial_right_image,-1,exp2.png,1,exp2.png,exp1.png,0,4,reversed,correct,0.03527346839552714,0,invalid_lose,803.1591568999993,60,,,,,,,,,,,,sub_661,2024-07-08_11h42.24.699,Reversal,2023.1.3,59.97487052946842,1,
7,exp3.png,exp4.png,,,,,,,,,,,,,,,,,,2,0,2,0,0,7,7,7,,,,,,,,,False,46,127,False,exp3.png,exp4.png,trial_right_image,-1,exp4.png,1,exp3.png,exp4.png,0,2,non-reversed,incorrect,0.4584359324869932,0,valid_lose,807.2078748999993,60,,,,,,,,,,,,sub_661,2024-07-08_11h42.24.699,Reversal,2023.1.3,59.97487052946842,1,
8,exp1.png,exp2.png,,,,,,,,,,,,,,,,,,2,0,2,0,0,8,8,8,,,,,,,,,False,47,128,True,exp2.png,exp1.png,trial_right_image,-1,exp1.png,1,exp2.png,exp1.png,1,3,reversed,incorrect,0.977123047573474,0,valid_lose,811.0398036000006,60,,,,,,,,,,,,sub_661,2024-07-08_11h42.24.699,Reversal,2023.1.3,59.97487052946842,1,
9,exp3.png,exp4.png,,,,,,,,,,,,,,,,,,2,0,2,0,0,9,9,9,,,,,,,,,False,48,129,False,exp3.png,exp4.png,trial_right_image,-1,exp4.png,1,exp3.png,exp4.png,0,2,non-reversed,incorrect,0.8665379446403789,0,valid_lose,814.8561439999994,60,,,,,,,,,,,,sub_661,2024-07-08_11h42.24.699,Reversal,2023.1.3,59.97487052946842,1,
10,exp1.png,exp2.png,,,,,,,,,,,,,,,,,,2,0,2,0,0,10,10,10,,,,,,,,,False,49,130,True,exp2.png,exp1.png,trial_right_image,-1,exp1.png,1,exp2.png,exp1.png,1,3,reversed,incorrect,0.16604090194150312,1,invalid_win,818.7206366999999,61,,,,,,,,,,,,sub_661,2024-07-08_11h42.24.699,Reversal,2023.1.3,59.97487052946842,1,
11,exp3.png,exp4.png,,,,,,,,,,,,,,,,,,2,0,2,0,0,11,11,11,,,,,,,,,False,50,131,False,exp3.png,exp4.png,trial_right_image,-1,exp4.png,1,exp3.png,exp4.png,0,2,non-reversed,incorrect,0.25799666342661787,0,valid_lose,822.5533171000006,61,,,,,,,,,,,,sub_661,2024-07-08_11h42.24.699,Reversal,2023.1.3,59.97487052946842,1,
12,exp1.png,exp2.png,,,,,,,,,,,,,,,,,,2,0,2,0,0,12,12,12,,,,,,,,,False,51,132,True,exp2.png,exp1.png,trial_right_image,-1,exp1.png,1,exp2.png,exp1.png,1,3,reversed,incorrect,0.8434190697966858,0,valid_lose,826.0346210999996,61,,,,,,,,,,,,sub_661,2024-07-08_11h42.24.699,Reversal,2023.1.3,59.97487052946842,1,
13,exp3.png,exp4.png,,,,,,,,,,,,,,,,,,2,0,2,0,0,13,13,13,,,,,,,,,False,52,133,False,exp3.png,exp4.png,trial_right_image,-1,exp4.png,1,exp3.png,exp4.png,0,2,non-reversed,incorrect,0.8386584820305909,0,valid_lose,829.8832652000001,61,,,,,,,,,,,,sub_661,2024-07-08_11h42.24.699,Reversal,2023.1.3,59.97487052946842,1,
14,exp1.png,exp2.png,,,,,,,,,,,,,,,,,,2,0,2,0,0,14,14,14,,,,,,,,,False,53,134,False,exp1.png,exp2.png,trial_right_image,-1,exp2.png,1,exp2.png,exp1.png,0,4,reversed,correct,0.08251004637428194,0,invalid_lose,833.7652847999998,61,,,,,,,,,,,,sub_661,2024-07-08_11h42.24.699,Reversal,2023.1.3,59.97487052946842,1,
15,exp3.png,exp4.png,,,,,,,,,,,,,,,,,,2,0,2,0,0,15,15,15,,,,,,,,,False,54,135,True,exp4.png,exp3.png,trial_right_image,-1,exp3.png,1,exp3.png,exp4.png,1,1,non-reversed,correct,0.9119843498710518,1,valid_win,837.5640440999996,62,,,,,,,,,,,,sub_661,2024-07-08_11h42.24.699,Reversal,2023.1.3,59.97487052946842,1,
16,exp1.png,exp2.png,,,,,,,,,,,,,,,,,,2,0,2,0,0,16,16,16,,,,,,,,,False,55,136,False,exp1.png,exp2.png,trial_right_image,-1,exp2.png,1,exp2.png,exp1.png,0,4,reversed,correct,0.85334381556272,1,valid_win,841.3962505,63,,,,,,,,,,,,sub_661,2024-07-08_11h42.24.699,Reversal,2023.1.3,59.97487052946842,1,
17,exp3.png,exp4.png,,,,,,,,,,,,,,,,,,2,0,2,0,0,17,17,17,,,,,,,,,False,56,137,True,exp4.png,exp3.png,trial_right_image,-1,exp3.png,1,exp3.png,exp4.png,1,1,non-reversed,correct,0.7005198789969572,1,valid_win,845.2114576999993,64,,,,,,,,,,,,sub_661,2024-07-08_11h42.24.699,Reversal,2023.1.3,59.97487052946842,1,
18,exp1.png,exp2.png,,,,,,,,,,,,,,,,,,2,0,2,0,0,18,18,18,,,,,,,,,False,57,138,False,exp1.png,exp2.png,trial_right_image,-1,exp2.png,1,exp2.png,exp1.png,0,4,reversed,correct,0.5264052752653593,1,valid_win,849.0599875999997,65,,,,,,,,,,,,sub_661,2024-07-08_11h42.24.699,Reversal,2023.1.3,59.97487052946842,1,
19,exp3.png,exp4.png,,,,,,,,,,,,,,,,,,2,0,2,0,0,19,19,19,,,,,,,,,False,58,139,True,exp4.png,exp3.png,trial_right_image,-1,exp3.png,1,exp3.png,exp4.png,1,1,non-reversed,correct,0.005474661127849667,0,invalid_lose,853.0761557999995,65,,,,,,,,,,,,sub_661,2024-07-08_11h42.24.699,Reversal,2023.1.3,59.97487052946842,1,
20,exp1.png,exp2.png,,,,,,,,,,,,,,,,,,2,0,2,0,0,20,20,20,,,,,,,,,False,59,140,True,exp2.png,exp1.png,trial_right_image,-1,exp1.png,1,exp2.png,exp1.png,1,3,reversed,incorrect,0.9065839193475341,0,valid_lose,856.9075553000002,65,,,,,,,,,,,,sub_661,2024-07-08_11h42.24.699,Reversal,2023.1.3,59.97487052946842,1,
,,,exp1.png,,,,,,,,,,,,,,,,,2,0,2,0,,,,,0,0,0,0,0,0,0,0,,,,,,,,,,,,,,,,,,,,,,936.2411186000008,,None,None,[],,,,,,,sub_661,2024-07-08_11h42.24.699,Reversal,2023.1.3,59.97487052946842,1,
,,,exp2.png,,,,,,,,,,,,,,,,,2,0,2,0,,,,,0,0,0,0,0,1,1,1,,,,,,,,,,,,,,,,,,,,,,969.6083361000001,,None,None,[],,,,,,,sub_661,2024-07-08_11h42.24.699,Reversal,2023.1.3,59.97487052946842,1,
,,,exp3.png,,,,,,,,,,,,,,,,,2,0,2,0,,,,,0,0,0,0,0,2,2,2,,,,,,,,,,,,,,,,,,,,,,970.8009579999998,,None,None,[],,,,,,,sub_661,2024-07-08_11h42.24.699,Reversal,2023.1.3,59.97487052946842,1,
,,,exp4.png,,,,,,,,,,,,,,,,,2,0,2,0,,,,,0,0,0,0,0,3,3,3,,,,,,,,,,,,,,,,,,,,,,971.7182783999997,,None,None,[],,,,,,,sub_661,2024-07-08_11h42.24.699,Reversal,2023.1.3,59.97487052946842,1,
,,,,,,,,,,,,,,,,,,,,,,,,,,,,,,,,,,,,,,,,,,,,,,,,,,,,,,,,65,,,,,,,75,45,30,347.76143930000035,1,,,,,,,
