trial_index,trial_image1_file,trial_image2_file,image_file,learning_outer_loop.thisRepN,learning_outer_loop.thisTrialN,learning_outer_loop.thisN,learning_outer_loop.thisIndex,learning_inner_loop.thisRepN,learning_inner_loop.thisTrialN,learning_inner_loop.thisN,learning_inner_loop.thisIndex,learning_estimation_outer_loop.thisRepN,learning_estimation_outer_loop.thisTrialN,learning_estimation_outer_loop.thisN,learning_estimation_outer_loop.thisIndex,learning_estimation_inner_loop.thisRepN,learning_estimation_inner_loop.thisTrialN,learning_estimation_inner_loop.thisN,learning_estimation_inner_loop.thisIndex,reversal_outer_loop.thisRepN,reversal_outer_loop.thisTrialN,reversal_outer_loop.thisN,reversal_outer_loop.thisIndex,reversal_inner_loop.thisRepN,reversal_inner_loop.thisTrialN,reversal_inner_loop.thisN,reversal_inner_loop.thisIndex,reversal_estimation_outer_loop.thisRepN,reversal_estimation_outer_loop.thisTrialN,reversal_estimation_outer_loop.thisN,reversal_estimation_outer_loop.thisIndex,reversal_estimation_inner_loop.thisRepN,reversal_estimation_inner_loop.thisTrialN,reversal_estimation_inner_loop.thisN,reversal_estimation_inner_loop.thisIndex,skipped,total_trial_counter,trial_num,left_right_flip,left_image_file,right_image_file,clicked_stimulus_side,side,clicked_stimulus,version,high_prob_image_file,low_prob_image_file,choice_a,choice_b,pair_type,correct,trial_feedback_random,reward,trial_type,overall_time_after_trial,score,estimation_rating.started,estimation_exp1.png,estimation_rating.response,estimation_rating.rt,estimation_rating.history,estimation_exp2.png,estimation_exp4.png,estimation_exp3.png,total_learning_time,total_correct,learning_correct,reversal_correct,total_reversal_time,extra_block,participant,date,expName,psychopyVersion,frameRate,ver,
0,exp1.png,exp2.png,,0,0,0,0,0,0,0,0,,,,,,,,,,,,,,,,,,,,,,,,,True,,,,,,,,,,,,,,,,,,,,,,,,,,,,,,,,,,,sub_986,2024-07-22_11h10.21.463,Reversal,2023.1.3,59.929223587074674,2,
1,exp3.png,exp4.png,,0,0,0,0,0,1,1,1,,,,,,,,,,,,,,,,,,,,,,,,,False,0,1,False,exp3.png,exp4.png,trial_right_image,-1,exp4.png,2,exp3.png,exp4.png,0,4,reversed,incorrect,0.8673431899764951,0,valid_lose,9.945226900000307,0,,,,,,,,,,,,,,,sub_986,2024-07-22_11h10.21.463,Reversal,2023.1.3,59.929223587074674,2,
2,exp1.png,exp2.png,,0,0,0,0,0,2,2,2,,,,,,,,,,,,,,,,,,,,,,,,,False,1,2,False,exp1.png,exp2.png,trial_left_image,1,exp1.png,2,exp1.png,exp2.png,1,1,non-reversed,correct,0.7284885921618429,1,valid_win,16.02660199999991,1,,,,,,,,,,,,,,,sub_986,2024-07-22_11h10.21.463,Reversal,2023.1.3,59.929223587074674,2,
3,exp3.png,exp4.png,,0,0,0,0,0,3,3,3,,,,,,,,,,,,,,,,,,,,,,,,,False,2,3,True,exp4.png,exp3.png,trial_left_image,1,exp4.png,2,exp3.png,exp4.png,0,4,reversed,incorrect,0.21480188657182886,1,invalid_win,22.70777410000028,2,,,,,,,,,,,,,,,sub_986,2024-07-22_11h10.21.463,Reversal,2023.1.3,59.929223587074674,2,
4,exp1.png,exp2.png,,0,0,0,0,0,4,4,4,,,,,,,,,,,,,,,,,,,,,,,,,False,3,4,False,exp1.png,exp2.png,trial_left_image,1,exp1.png,2,exp1.png,exp2.png,1,1,non-reversed,correct,0.18260890042730538,0,invalid_lose,28.07260640000004,2,,,,,,,,,,,,,,,sub_986,2024-07-22_11h10.21.463,Reversal,2023.1.3,59.929223587074674,2,
5,exp3.png,exp4.png,,0,0,0,0,0,5,5,5,,,,,,,,,,,,,,,,,,,,,,,,,False,4,5,True,exp4.png,exp3.png,trial_right_image,-1,exp3.png,2,exp3.png,exp4.png,1,3,reversed,correct,0.32353947046856557,1,valid_win,32.770787200000086,3,,,,,,,,,,,,,,,sub_986,2024-07-22_11h10.21.463,Reversal,2023.1.3,59.929223587074674,2,
6,exp1.png,exp2.png,,0,0,0,0,0,6,6,6,,,,,,,,,,,,,,,,,,,,,,,,,False,5,6,True,exp2.png,exp1.png,trial_right_image,-1,exp1.png,2,exp1.png,exp2.png,1,1,non-reversed,correct,0.8761423101995148,1,valid_win,37.4360185000005,4,,,,,,,,,,,,,,,sub_986,2024-07-22_11h10.21.463,Reversal,2023.1.3,59.929223587074674,2,
7,exp3.png,exp4.png,,0,0,0,0,0,7,7,7,,,,,,,,,,,,,,,,,,,,,,,,,False,6,7,False,exp3.png,exp4.png,trial_left_image,1,exp3.png,2,exp3.png,exp4.png,1,3,reversed,correct,0.8939552821636451,1,valid_win,42.217910200000006,5,,,,,,,,,,,,,,,sub_986,2024-07-22_11h10.21.463,Reversal,2023.1.3,59.929223587074674,2,
8,exp1.png,exp2.png,,0,0,0,0,0,8,8,8,,,,,,,,,,,,,,,,,,,,,,,,,False,7,8,True,exp2.png,exp1.png,trial_right_image,-1,exp1.png,2,exp1.png,exp2.png,1,1,non-reversed,correct,0.3318860876444718,1,valid_win,46.81637790000059,6,,,,,,,,,,,,,,,sub_986,2024-07-22_11h10.21.463,Reversal,2023.1.3,59.929223587074674,2,
9,exp3.png,exp4.png,,0,0,0,0,0,9,9,9,,,,,,,,,,,,,,,,,,,,,,,,,False,8,9,False,exp3.png,exp4.png,trial_right_image,-1,exp4.png,2,exp3.png,exp4.png,0,4,reversed,incorrect,0.29077352721348193,0,valid_lose,51.364808500000436,6,,,,,,,,,,,,,,,sub_986,2024-07-22_11h10.21.463,Reversal,2023.1.3,59.929223587074674,2,
10,exp1.png,exp2.png,,0,0,0,0,0,10,10,10,,,,,,,,,,,,,,,,,,,,,,,,,False,9,10,True,exp2.png,exp1.png,trial_left_image,1,exp2.png,2,exp1.png,exp2.png,0,2,non-reversed,incorrect,0.9832271956651735,0,valid_lose,55.81319390000044,6,,,,,,,,,,,,,,,sub_986,2024-07-22_11h10.21.463,Reversal,2023.1.3,59.929223587074674,2,
11,exp3.png,exp4.png,,0,0,0,0,0,11,11,11,,,,,,,,,,,,,,,,,,,,,,,,,False,10,11,False,exp3.png,exp4.png,trial_left_image,1,exp3.png,2,exp3.png,exp4.png,1,3,reversed,correct,0.03825180471604839,0,invalid_lose,60.12832049999997,6,,,,,,,,,,,,,,,sub_986,2024-07-22_11h10.21.463,Reversal,2023.1.3,59.929223587074674,2,
12,exp1.png,exp2.png,,0,0,0,0,0,12,12,12,,,,,,,,,,,,,,,,,,,,,,,,,False,11,12,True,exp2.png,exp1.png,trial_left_image,1,exp2.png,2,exp1.png,exp2.png,0,2,non-reversed,incorrect,0.6161583563761169,0,valid_lose,64.57699520000006,6,,,,,,,,,,,,,,,sub_986,2024-07-22_11h10.21.463,Reversal,2023.1.3,59.929223587074674,2,
13,exp3.png,exp4.png,,0,0,0,0,0,13,13,13,,,,,,,,,,,,,,,,,,,,,,,,,False,12,13,True,exp4.png,exp3.png,trial_right_image,-1,exp3.png,2,exp3.png,exp4.png,1,3,reversed,correct,0.02203909257792802,0,invalid_lose,74.27351540000018,6,,,,,,,,,,,,,,,sub_986,2024-07-22_11h10.21.463,Reversal,2023.1.3,59.929223587074674,2,
14,exp1.png,exp2.png,,0,0,0,0,0,14,14,14,,,,,,,,,,,,,,,,,,,,,,,,,False,13,14,True,exp2.png,exp1.png,trial_left_image,1,exp2.png,2,exp1.png,exp2.png,0,2,non-reversed,incorrect,0.08801427472903278,1,invalid_win,80.0058351000007,7,,,,,,,,,,,,,,,sub_986,2024-07-22_11h10.21.463,Reversal,2023.1.3,59.929223587074674,2,
15,exp3.png,exp4.png,,0,0,0,0,0,15,15,15,,,,,,,,,,,,,,,,,,,,,,,,,False,14,15,False,exp3.png,exp4.png,trial_right_image,-1,exp4.png,2,exp3.png,exp4.png,0,4,reversed,incorrect,0.375501089375603,0,valid_lose,84.4704743000002,7,,,,,,,,,,,,,,,sub_986,2024-07-22_11h10.21.463,Reversal,2023.1.3,59.929223587074674,2,
16,exp1.png,exp2.png,,0,0,0,0,0,16,16,16,,,,,,,,,,,,,,,,,,,,,,,,,False,15,16,False,exp1.png,exp2.png,trial_left_image,1,exp1.png,2,exp1.png,exp2.png,1,1,non-reversed,correct,0.31926833207516425,1,valid_win,89.01840690000063,8,,,,,,,,,,,,,,,sub_986,2024-07-22_11h10.21.463,Reversal,2023.1.3,59.929223587074674,2,
17,exp3.png,exp4.png,,0,0,0,0,0,17,17,17,,,,,,,,,,,,,,,,,,,,,,,,,False,16,17,False,exp3.png,exp4.png,trial_left_image,1,exp3.png,2,exp3.png,exp4.png,1,3,reversed,correct,0.9401732239271106,1,valid_win,94.38362190000043,9,,,,,,,,,,,,,,,sub_986,2024-07-22_11h10.21.463,Reversal,2023.1.3,59.929223587074674,2,
18,exp1.png,exp2.png,,0,0,0,0,0,18,18,18,,,,,,,,,,,,,,,,,,,,,,,,,False,17,18,True,exp2.png,exp1.png,trial_right_image,-1,exp1.png,2,exp1.png,exp2.png,1,1,non-reversed,correct,0.5734812087385183,1,valid_win,99.5650354999998,10,,,,,,,,,,,,,,,sub_986,2024-07-22_11h10.21.463,Reversal,2023.1.3,59.929223587074674,2,
19,exp3.png,exp4.png,,0,0,0,0,0,19,19,19,,,,,,,,,,,,,,,,,,,,,,,,,False,18,19,True,exp4.png,exp3.png,trial_right_image,-1,exp3.png,2,exp3.png,exp4.png,1,3,reversed,correct,0.4367865448671794,1,valid_win,104.28014940000048,11,,,,,,,,,,,,,,,sub_986,2024-07-22_11h10.21.463,Reversal,2023.1.3,59.929223587074674,2,
20,exp1.png,exp2.png,,0,0,0,0,0,20,20,20,,,,,,,,,,,,,,,,,,,,,,,,,False,19,20,False,exp1.png,exp2.png,trial_left_image,1,exp1.png,2,exp1.png,exp2.png,1,1,non-reversed,correct,0.6566463138357187,1,valid_win,108.79525240000021,12,,,,,,,,,,,,,,,sub_986,2024-07-22_11h10.21.463,Reversal,2023.1.3,59.929223587074674,2,
,,,exp1.png,0,0,0,0,,,,,0,0,0,0,0,0,0,0,,,,,,,,,,,,,,,,,,,,,,,,,,,,,,,,,,,,,,215.00735170000007,100.0,100.0,5.632084300000315,"[(100.0, 5.632084300000315)]",,,,,,,,,,sub_986,2024-07-22_11h10.21.463,Reversal,2023.1.3,59.929223587074674,2,
,,,exp2.png,0,0,0,0,,,,,0,0,0,0,0,1,1,1,,,,,,,,,,,,,,,,,,,,,,,,,,,,,,,,,,,,,,222.17145720000008,,1.0,2.5422874999994747,"[(1.0, 2.5422874999994747)]",1.0,,,,,,,,,sub_986,2024-07-22_11h10.21.463,Reversal,2023.1.3,59.929223587074674,2,
,,,exp3.png,0,0,0,0,,,,,0,0,0,0,0,2,2,2,,,,,,,,,,,,,,,,,,,,,,,,,,,,,,,,,,,,,,226.00048500000048,,None,None,[],,,,,,,,,,sub_986,2024-07-22_11h10.21.463,Reversal,2023.1.3,59.929223587074674,2,
,,,exp4.png,0,0,0,0,,,,,0,0,0,0,0,3,3,3,,,,,,,,,,,,,,,,,,,,,,,,,,,,,,,,,,,,,,237.26506309999968,,1.0,2.245451900000262,"[(1.0, 2.245451900000262)]",,1.0,,,,,,,,sub_986,2024-07-22_11h10.21.463,Reversal,2023.1.3,59.929223587074674,2,
0,exp1.png,exp2.png,,1,0,1,0,0,0,0,0,,,,,,,,,,,,,,,,,,,,,,,,,True,,,,,,,,,,,,,,,,,,,,,,,,,,,,,,,,,,,sub_986,2024-07-22_11h10.21.463,Reversal,2023.1.3,59.929223587074674,2,
1,exp3.png,exp4.png,,1,0,1,0,0,1,1,1,,,,,,,,,,,,,,,,,,,,,,,,,False,20,21,True,exp4.png,exp3.png,trial_right_image,-1,exp3.png,2,exp3.png,exp4.png,1,3,reversed,correct,0.035062521536283975,0,invalid_lose,140.31892230000085,12,,,,,,,,,,,,,,,sub_986,2024-07-22_11h10.21.463,Reversal,2023.1.3,59.929223587074674,2,
2,exp1.png,exp2.png,,1,0,1,0,0,2,2,2,,,,,,,,,,,,,,,,,,,,,,,,,False,21,22,False,exp1.png,exp2.png,trial_left_image,1,exp1.png,2,exp1.png,exp2.png,1,1,non-reversed,correct,0.9296304192366891,1,valid_win,144.8663615000005,13,,,,,,,,,,,,,,,sub_986,2024-07-22_11h10.21.463,Reversal,2023.1.3,59.929223587074674,2,
3,exp3.png,exp4.png,,1,0,1,0,0,3,3,3,,,,,,,,,,,,,,,,,,,,,,,,,False,22,23,False,exp3.png,exp4.png,trial_left_image,1,exp3.png,2,exp3.png,exp4.png,1,3,reversed,correct,0.6751659966661214,1,valid_win,150.03256809999948,14,,,,,,,,,,,,,,,sub_986,2024-07-22_11h10.21.463,Reversal,2023.1.3,59.929223587074674,2,
4,exp1.png,exp2.png,,1,0,1,0,0,4,4,4,,,,,,,,,,,,,,,,,,,,,,,,,False,23,24,True,exp2.png,exp1.png,trial_right_image,-1,exp1.png,2,exp1.png,exp2.png,1,1,non-reversed,correct,0.21830847159979372,0,invalid_lose,154.54686279999987,14,,,,,,,,,,,,,,,sub_986,2024-07-22_11h10.21.463,Reversal,2023.1.3,59.929223587074674,2,
5,exp3.png,exp4.png,,1,0,1,0,0,5,5,5,,,,,,,,,,,,,,,,,,,,,,,,,False,24,25,True,exp4.png,exp3.png,trial_left_image,1,exp4.png,2,exp3.png,exp4.png,0,4,reversed,incorrect,0.9078478196349881,0,valid_lose,159.84441960000004,14,,,,,,,,,,,,,,,sub_986,2024-07-22_11h10.21.463,Reversal,2023.1.3,59.929223587074674,2,
6,exp1.png,exp2.png,,1,0,1,0,0,6,6,6,,,,,,,,,,,,,,,,,,,,,,,,,False,25,26,True,exp2.png,exp1.png,trial_right_image,-1,exp1.png,2,exp1.png,exp2.png,1,1,non-reversed,correct,0.10553088722267401,0,invalid_lose,164.62615560000086,14,,,,,,,,,,,,,,,sub_986,2024-07-22_11h10.21.463,Reversal,2023.1.3,59.929223587074674,2,
7,exp3.png,exp4.png,,1,0,1,0,0,7,7,7,,,,,,,,,,,,,,,,,,,,,,,,,False,26,27,True,exp4.png,exp3.png,trial_left_image,1,exp4.png,2,exp3.png,exp4.png,0,4,reversed,incorrect,0.27081509601571896,0,valid_lose,171.374145400001,14,,,,,,,,,,,,,,,sub_986,2024-07-22_11h10.21.463,Reversal,2023.1.3,59.929223587074674,2,
8,exp1.png,exp2.png,,1,0,1,0,0,8,8,8,,,,,,,,,,,,,,,,,,,,,,,,,False,27,28,False,exp1.png,exp2.png,trial_right_image,-1,exp2.png,2,exp1.png,exp2.png,0,2,non-reversed,incorrect,0.1926191885555424,1,invalid_win,176.22298600000067,15,,,,,,,,,,,,,,,sub_986,2024-07-22_11h10.21.463,Reversal,2023.1.3,59.929223587074674,2,
9,exp3.png,exp4.png,,1,0,1,0,0,9,9,9,,,,,,,,,,,,,,,,,,,,,,,,,False,28,29,False,exp3.png,exp4.png,trial_right_image,-1,exp4.png,2,exp3.png,exp4.png,0,4,reversed,incorrect,0.7094983017869367,0,valid_lose,180.97119569999995,15,,,,,,,,,,,,,,,sub_986,2024-07-22_11h10.21.463,Reversal,2023.1.3,59.929223587074674,2,
10,exp1.png,exp2.png,,1,0,1,0,0,10,10,10,,,,,,,,,,,,,,,,,,,,,,,,,False,29,30,True,exp2.png,exp1.png,trial_right_image,-1,exp1.png,2,exp1.png,exp2.png,1,1,non-reversed,correct,0.9377369113748034,1,valid_win,189.63416340000003,16,,,,,,,,,,,,,,,sub_986,2024-07-22_11h10.21.463,Reversal,2023.1.3,59.929223587074674,2,
11,exp3.png,exp4.png,,1,0,1,0,0,11,11,11,,,,,,,,,,,,,,,,,,,,,,,,,False,30,31,False,exp3.png,exp4.png,trial_left_image,1,exp3.png,2,exp3.png,exp4.png,1,3,reversed,correct,0.5605497539437176,1,valid_win,194.86609060000046,17,,,,,,,,,,,,,,,sub_986,2024-07-22_11h10.21.463,Reversal,2023.1.3,59.929223587074674,2,
12,exp1.png,exp2.png,,1,0,1,0,0,12,12,12,,,,,,,,,,,,,,,,,,,,,,,,,False,31,32,True,exp2.png,exp1.png,trial_right_image,-1,exp1.png,2,exp1.png,exp2.png,1,1,non-reversed,correct,0.05375644572954097,0,invalid_lose,200.41494310000053,17,,,,,,,,,,,,,,,sub_986,2024-07-22_11h10.21.463,Reversal,2023.1.3,59.929223587074674,2,
13,exp3.png,exp4.png,,1,0,1,0,0,13,13,13,,,,,,,,,,,,,,,,,,,,,,,,,False,32,33,False,exp3.png,exp4.png,trial_right_image,-1,exp4.png,2,exp3.png,exp4.png,0,4,reversed,incorrect,0.3457037715499903,0,valid_lose,205.26336249999986,17,,,,,,,,,,,,,,,sub_986,2024-07-22_11h10.21.463,Reversal,2023.1.3,59.929223587074674,2,
14,exp1.png,exp2.png,,1,0,1,0,0,14,14,14,,,,,,,,,,,,,,,,,,,,,,,,,False,33,34,False,exp1.png,exp2.png,trial_left_image,1,exp1.png,2,exp1.png,exp2.png,1,1,non-reversed,correct,0.6059924832940332,1,valid_win,210.27747219999947,18,,,,,,,,,,,,,,,sub_986,2024-07-22_11h10.21.463,Reversal,2023.1.3,59.929223587074674,2,
15,exp3.png,exp4.png,,1,0,1,0,0,15,15,15,,,,,,,,,,,,,,,,,,,,,,,,,False,34,35,False,exp3.png,exp4.png,trial_left_image,1,exp3.png,2,exp3.png,exp4.png,1,3,reversed,correct,0.5265955403393168,1,valid_win,215.6090705000006,19,,,,,,,,,,,,,,,sub_986,2024-07-22_11h10.21.463,Reversal,2023.1.3,59.929223587074674,2,
16,exp1.png,exp2.png,,1,0,1,0,0,16,16,16,,,,,,,,,,,,,,,,,,,,,,,,,False,35,36,True,exp2.png,exp1.png,trial_left_image,1,exp2.png,2,exp1.png,exp2.png,0,2,non-reversed,incorrect,0.26488454570434483,0,valid_lose,221.6738103000007,19,,,,,,,,,,,,,,,sub_986,2024-07-22_11h10.21.463,Reversal,2023.1.3,59.929223587074674,2,
17,exp3.png,exp4.png,,1,0,1,0,0,17,17,17,,,,,,,,,,,,,,,,,,,,,,,,,False,36,37,True,exp4.png,exp3.png,trial_right_image,-1,exp3.png,2,exp3.png,exp4.png,1,3,reversed,correct,0.12416987308248773,0,invalid_lose,227.9385239000003,19,,,,,,,,,,,,,,,sub_986,2024-07-22_11h10.21.463,Reversal,2023.1.3,59.929223587074674,2,
18,exp1.png,exp2.png,,1,0,1,0,0,18,18,18,,,,,,,,,,,,,,,,,,,,,,,,,False,37,38,True,exp2.png,exp1.png,trial_right_image,-1,exp1.png,2,exp1.png,exp2.png,1,1,non-reversed,correct,0.20329109960933345,0,invalid_lose,233.18719229999988,19,,,,,,,,,,,,,,,sub_986,2024-07-22_11h10.21.463,Reversal,2023.1.3,59.929223587074674,2,
19,exp3.png,exp4.png,,1,0,1,0,0,19,19,19,,,,,,,,,,,,,,,,,,,,,,,,,False,38,39,False,exp3.png,exp4.png,trial_left_image,1,exp3.png,2,exp3.png,exp4.png,1,3,reversed,correct,0.2188255278972051,0,invalid_lose,237.56859410000106,19,,,,,,,,,,,,,,,sub_986,2024-07-22_11h10.21.463,Reversal,2023.1.3,59.929223587074674,2,
20,exp1.png,exp2.png,,1,0,1,0,0,20,20,20,,,,,,,,,,,,,,,,,,,,,,,,,False,39,40,False,exp1.png,exp2.png,trial_right_image,-1,exp2.png,2,exp1.png,exp2.png,0,2,non-reversed,incorrect,0.13945087146019564,1,invalid_win,242.44960250000076,20,,,,,,,,,,,,,,,sub_986,2024-07-22_11h10.21.463,Reversal,2023.1.3,59.929223587074674,2,
,,,exp1.png,1,0,1,0,,,,,0,0,0,0,0,0,0,0,,,,,,,,,,,,,,,,,,,,,,,,,,,,,,,,,,,,,,348.6645356000008,,None,None,[],,,,,,,,,,sub_986,2024-07-22_11h10.21.463,Reversal,2023.1.3,59.929223587074674,2,
,,,exp2.png,1,0,1,0,,,,,0,0,0,0,0,1,1,1,,,,,,,,,,,,,,,,,,,,,,,,,,,,,,,,,,,,,,351.1239939999996,,None,None,[],,,,,,,,,,sub_986,2024-07-22_11h10.21.463,Reversal,2023.1.3,59.929223587074674,2,
,,,exp3.png,1,0,1,0,,,,,0,0,0,0,0,2,2,2,,,,,,,,,,,,,,,,,,,,,,,,,,,,,,,,,,,,,,352.1592560000008,,None,None,[],,,,,,,,,,sub_986,2024-07-22_11h10.21.463,Reversal,2023.1.3,59.929223587074674,2,
,,,exp4.png,1,0,1,0,,,,,0,0,0,0,0,3,3,3,,,,,,,,,,,,,,,,,,,,,,,,,,,,,,,,,,,,,,353.1579825000008,,None,None,[],,,,,,,,,,sub_986,2024-07-22_11h10.21.463,Reversal,2023.1.3,59.929223587074674,2,
0,exp1.png,exp2.png,,2,0,2,0,0,0,0,0,,,,,,,,,,,,,,,,,,,,,,,,,True,,,,,,,,,,,,,,,,,,,,,,,,,,,,,,,,,,,sub_986,2024-07-22_11h10.21.463,Reversal,2023.1.3,59.929223587074674,2,
1,exp3.png,exp4.png,,2,0,2,0,0,1,1,1,,,,,,,,,,,,,,,,,,,,,,,,,False,40,41,False,exp3.png,exp4.png,trial_left_image,1,exp3.png,2,exp3.png,exp4.png,1,3,reversed,correct,0.03132214170951508,0,invalid_lose,255.86212879999948,20,,,,,,,,,,,,,,,sub_986,2024-07-22_11h10.21.463,Reversal,2023.1.3,59.929223587074674,2,
2,exp1.png,exp2.png,,2,0,2,0,0,2,2,2,,,,,,,,,,,,,,,,,,,,,,,,,False,41,42,False,exp1.png,exp2.png,trial_left_image,1,exp1.png,2,exp1.png,exp2.png,1,1,non-reversed,correct,0.026078937216732045,0,invalid_lose,262.1768240000001,20,,,,,,,,,,,,,,,sub_986,2024-07-22_11h10.21.463,Reversal,2023.1.3,59.929223587074674,2,
3,exp3.png,exp4.png,,2,0,2,0,0,3,3,3,,,,,,,,,,,,,,,,,,,,,,,,,False,42,43,True,exp4.png,exp3.png,trial_left_image,1,exp4.png,2,exp3.png,exp4.png,0,4,reversed,incorrect,0.7049760666203717,0,valid_lose,266.9250594999994,20,,,,,,,,,,,,,,,sub_986,2024-07-22_11h10.21.463,Reversal,2023.1.3,59.929223587074674,2,
4,exp1.png,exp2.png,,2,0,2,0,0,4,4,4,,,,,,,,,,,,,,,,,,,,,,,,,False,43,44,False,exp1.png,exp2.png,trial_right_image,-1,exp2.png,2,exp1.png,exp2.png,0,2,non-reversed,incorrect,0.652336016184228,0,valid_lose,271.99006270000064,20,,,,,,,,,,,,,,,sub_986,2024-07-22_11h10.21.463,Reversal,2023.1.3,59.929223587074674,2,
5,exp3.png,exp4.png,,2,0,2,0,0,5,5,5,,,,,,,,,,,,,,,,,,,,,,,,,False,44,45,False,exp3.png,exp4.png,trial_left_image,1,exp3.png,2,exp3.png,exp4.png,1,3,reversed,correct,0.13106334104822903,0,invalid_lose,277.9712539000011,20,,,,,,,,,,,,,,,sub_986,2024-07-22_11h10.21.463,Reversal,2023.1.3,59.929223587074674,2,
6,exp1.png,exp2.png,,2,0,2,0,0,6,6,6,,,,,,,,,,,,,,,,,,,,,,,,,False,45,46,True,exp2.png,exp1.png,trial_right_image,-1,exp1.png,2,exp1.png,exp2.png,1,1,non-reversed,correct,0.38846386161693036,1,valid_win,283.31964230000085,21,,,,,,,,,,,,,,,sub_986,2024-07-22_11h10.21.463,Reversal,2023.1.3,59.929223587074674,2,
7,exp3.png,exp4.png,,2,0,2,0,0,7,7,7,,,,,,,,,,,,,,,,,,,,,,,,,False,46,47,False,exp3.png,exp4.png,trial_right_image,-1,exp4.png,2,exp3.png,exp4.png,0,4,reversed,incorrect,0.34899367912542556,0,valid_lose,289.2848723999996,21,,,,,,,,,,,,,,,sub_986,2024-07-22_11h10.21.463,Reversal,2023.1.3,59.929223587074674,2,
8,exp1.png,exp2.png,,2,0,2,0,0,8,8,8,,,,,,,,,,,,,,,,,,,,,,,,,False,47,48,True,exp2.png,exp1.png,trial_left_image,1,exp2.png,2,exp1.png,exp2.png,0,2,non-reversed,incorrect,0.9440168854032299,0,valid_lose,295.7487323999994,21,,,,,,,,,,,,,,,sub_986,2024-07-22_11h10.21.463,Reversal,2023.1.3,59.929223587074674,2,
9,exp3.png,exp4.png,,2,0,2,0,0,9,9,9,,,,,,,,,,,,,,,,,,,,,,,,,False,48,49,False,exp3.png,exp4.png,trial_right_image,-1,exp4.png,2,exp3.png,exp4.png,0,4,reversed,incorrect,0.04579299856072383,1,invalid_win,303.4294298999994,22,,,,,,,,,,,,,,,sub_986,2024-07-22_11h10.21.463,Reversal,2023.1.3,59.929223587074674,2,
10,exp1.png,exp2.png,,2,0,2,0,0,10,10,10,,,,,,,,,,,,,,,,,,,,,,,,,False,49,50,False,exp1.png,exp2.png,trial_right_image,-1,exp2.png,2,exp1.png,exp2.png,0,2,non-reversed,incorrect,0.884893044204304,0,valid_lose,310.3271569999997,22,,,,,,,,,,,,,,,sub_986,2024-07-22_11h10.21.463,Reversal,2023.1.3,59.929223587074674,2,
11,exp3.png,exp4.png,,2,0,2,0,0,11,11,11,,,,,,,,,,,,,,,,,,,,,,,,,False,50,51,True,exp4.png,exp3.png,trial_left_image,1,exp4.png,2,exp3.png,exp4.png,0,4,reversed,incorrect,0.7348561528573444,0,valid_lose,321.6732253000009,22,,,,,,,,,,,,,,,sub_986,2024-07-22_11h10.21.463,Reversal,2023.1.3,59.929223587074674,2,
12,exp1.png,exp2.png,,2,0,2,0,0,12,12,12,,,,,,,,,,,,,,,,,,,,,,,,,False,51,52,False,exp1.png,exp2.png,trial_left_image,1,exp1.png,2,exp1.png,exp2.png,1,1,non-reversed,correct,0.08393164355894,0,invalid_lose,328.1380981000002,22,,,,,,,,,,,,,,,sub_986,2024-07-22_11h10.21.463,Reversal,2023.1.3,59.929223587074674,2,
13,exp3.png,exp4.png,,2,0,2,0,0,13,13,13,,,,,,,,,,,,,,,,,,,,,,,,,False,52,53,True,exp4.png,exp3.png,trial_right_image,-1,exp3.png,2,exp3.png,exp4.png,1,3,reversed,correct,0.7122043443457877,1,valid_win,333.68611260000034,23,,,,,,,,,,,,,,,sub_986,2024-07-22_11h10.21.463,Reversal,2023.1.3,59.929223587074674,2,
14,exp1.png,exp2.png,,2,0,2,0,0,14,14,14,,,,,,,,,,,,,,,,,,,,,,,,,False,53,54,True,exp2.png,exp1.png,trial_right_image,-1,exp1.png,2,exp1.png,exp2.png,1,1,non-reversed,correct,0.7488355544672489,1,valid_win,339.3349539999999,24,,,,,,,,,,,,,,,sub_986,2024-07-22_11h10.21.463,Reversal,2023.1.3,59.929223587074674,2,
15,exp3.png,exp4.png,,2,0,2,0,0,15,15,15,,,,,,,,,,,,,,,,,,,,,,,,,False,54,55,False,exp3.png,exp4.png,trial_left_image,1,exp3.png,2,exp3.png,exp4.png,1,3,reversed,correct,0.0579945477490188,0,invalid_lose,344.2840615999994,24,,,,,,,,,,,,,,,sub_986,2024-07-22_11h10.21.463,Reversal,2023.1.3,59.929223587074674,2,
16,exp1.png,exp2.png,,2,0,2,0,0,16,16,16,,,,,,,,,,,,,,,,,,,,,,,,,False,55,56,True,exp2.png,exp1.png,trial_right_image,-1,exp1.png,2,exp1.png,exp2.png,1,1,non-reversed,correct,0.21577254227507614,0,invalid_lose,351.2631679999995,24,,,,,,,,,,,,,,,sub_986,2024-07-22_11h10.21.463,Reversal,2023.1.3,59.929223587074674,2,
17,exp3.png,exp4.png,,2,0,2,0,0,17,17,17,,,,,,,,,,,,,,,,,,,,,,,,,False,56,57,True,exp4.png,exp3.png,trial_left_image,1,exp4.png,2,exp3.png,exp4.png,0,4,reversed,incorrect,0.8893539556947327,0,valid_lose,360.72803980000026,24,,,,,,,,,,,,,,,sub_986,2024-07-22_11h10.21.463,Reversal,2023.1.3,59.929223587074674,2,
18,exp1.png,exp2.png,,2,0,2,0,0,18,18,18,,,,,,,,,,,,,,,,,,,,,,,,,False,57,58,False,exp1.png,exp2.png,trial_right_image,-1,exp2.png,2,exp1.png,exp2.png,0,2,non-reversed,incorrect,0.5918410721734688,0,valid_lose,368.22490130000006,24,,,,,,,,,,,,,,,sub_986,2024-07-22_11h10.21.463,Reversal,2023.1.3,59.929223587074674,2,
19,exp3.png,exp4.png,,2,0,2,0,0,19,19,19,,,,,,,,,,,,,,,,,,,,,,,,,False,58,59,True,exp4.png,exp3.png,trial_left_image,1,exp4.png,2,exp3.png,exp4.png,0,4,reversed,incorrect,0.8038154968816129,0,valid_lose,373.50650099999984,24,,,,,,,,,,,,,,,sub_986,2024-07-22_11h10.21.463,Reversal,2023.1.3,59.929223587074674,2,
20,exp1.png,exp2.png,,2,0,2,0,0,20,20,20,,,,,,,,,,,,,,,,,,,,,,,,,False,59,60,True,exp2.png,exp1.png,trial_right_image,-1,exp1.png,2,exp1.png,exp2.png,1,1,non-reversed,correct,0.8842025481599722,1,valid_win,378.3888829000007,25,,,,,,,,,,,,,,,sub_986,2024-07-22_11h10.21.463,Reversal,2023.1.3,59.929223587074674,2,
,,,exp1.png,2,0,2,0,,,,,0,0,0,0,0,0,0,0,,,,,,,,,,,,,,,,,,,,,,,,,,,,,,,,,,,,,,484.6087566999995,,None,None,[],,,,,,,,,,sub_986,2024-07-22_11h10.21.463,Reversal,2023.1.3,59.929223587074674,2,
,,,exp2.png,2,0,2,0,,,,,0,0,0,0,0,1,1,1,,,,,,,,,,,,,,,,,,,,,,,,,,,,,,,,,,,,,,486.8134289999998,,None,None,[],,,,,,,,,,sub_986,2024-07-22_11h10.21.463,Reversal,2023.1.3,59.929223587074674,2,
,,,exp3.png,2,0,2,0,,,,,0,0,0,0,0,2,2,2,,,,,,,,,,,,,,,,,,,,,,,,,,,,,,,,,,,,,,487.7632219999996,,None,None,[],,,,,,,,,,sub_986,2024-07-22_11h10.21.463,Reversal,2023.1.3,59.929223587074674,2,
,,,exp4.png,2,0,2,0,,,,,0,0,0,0,0,3,3,3,,,,,,,,,,,,,,,,,,,,,,,,,,,,,,,,,,,,,,488.98251900000105,,None,None,[],,,,,,,,,,sub_986,2024-07-22_11h10.21.463,Reversal,2023.1.3,59.929223587074674,2,
0,exp1.png,exp2.png,,3,0,3,0,0,0,0,0,,,,,,,,,,,,,,,,,,,,,,,,,True,,,,,,,,,,,,,,,,,,,,,,,,,,,,,,,,,,,sub_986,2024-07-22_11h10.21.463,Reversal,2023.1.3,59.929223587074674,2,
1,exp3.png,exp4.png,,3,0,3,0,0,1,1,1,,,,,,,,,,,,,,,,,,,,,,,,,False,60,61,True,exp4.png,exp3.png,trial_left_image,1,exp4.png,2,exp3.png,exp4.png,0,4,reversed,incorrect,0.1927468103665727,1,invalid_win,392.23328109999966,26,,,,,,,,,,,,,,,sub_986,2024-07-22_11h10.21.463,Reversal,2023.1.3,59.929223587074674,2,
2,exp1.png,exp2.png,,3,0,3,0,0,2,2,2,,,,,,,,,,,,,,,,,,,,,,,,,False,61,62,True,exp2.png,exp1.png,trial_right_image,-1,exp1.png,2,exp1.png,exp2.png,1,1,non-reversed,correct,0.9682261221400102,1,valid_win,399.5309321000004,27,,,,,,,,,,,,,,,sub_986,2024-07-22_11h10.21.463,Reversal,2023.1.3,59.929223587074674,2,
3,exp3.png,exp4.png,,3,0,3,0,0,3,3,3,,,,,,,,,,,,,,,,,,,,,,,,,False,62,63,False,exp3.png,exp4.png,trial_left_image,1,exp3.png,2,exp3.png,exp4.png,1,3,reversed,correct,0.6963151202420149,1,valid_win,407.4943296000001,28,,,,,,,,,,,,,,,sub_986,2024-07-22_11h10.21.463,Reversal,2023.1.3,59.929223587074674,2,
4,exp1.png,exp2.png,,3,0,3,0,0,4,4,4,,,,,,,,,,,,,,,,,,,,,,,,,False,63,64,True,exp2.png,exp1.png,trial_right_image,-1,exp1.png,2,exp1.png,exp2.png,1,1,non-reversed,correct,0.35598980933558644,1,valid_win,412.8437061000004,29,,,,,,,,,,,,,,,sub_986,2024-07-22_11h10.21.463,Reversal,2023.1.3,59.929223587074674,2,
5,exp3.png,exp4.png,,3,0,3,0,0,5,5,5,,,,,,,,,,,,,,,,,,,,,,,,,False,64,65,True,exp4.png,exp3.png,trial_left_image,1,exp4.png,2,exp3.png,exp4.png,0,4,reversed,incorrect,0.6085414654732048,0,valid_lose,418.7404232000008,29,,,,,,,,,,,,,,,sub_986,2024-07-22_11h10.21.463,Reversal,2023.1.3,59.929223587074674,2,
6,exp1.png,exp2.png,,3,0,3,0,0,6,6,6,,,,,,,,,,,,,,,,,,,,,,,,,False,65,66,True,exp2.png,exp1.png,trial_right_image,-1,exp1.png,2,exp1.png,exp2.png,1,1,non-reversed,correct,0.28771225369869635,1,valid_win,424.23864800000047,30,,,,,,,,,,,,,,,sub_986,2024-07-22_11h10.21.463,Reversal,2023.1.3,59.929223587074674,2,
7,exp3.png,exp4.png,,3,0,3,0,0,7,7,7,,,,,,,,,,,,,,,,,,,,,,,,,False,66,67,True,exp4.png,exp3.png,trial_right_image,-1,exp3.png,2,exp3.png,exp4.png,1,3,reversed,correct,0.659001193912511,1,valid_win,429.9034431,31,,,,,,,,,,,,,,,sub_986,2024-07-22_11h10.21.463,Reversal,2023.1.3,59.929223587074674,2,
8,exp1.png,exp2.png,,3,0,3,0,0,8,8,8,,,,,,,,,,,,,,,,,,,,,,,,,False,67,68,True,exp2.png,exp1.png,trial_right_image,-1,exp1.png,2,exp1.png,exp2.png,1,1,non-reversed,correct,0.262520966177602,1,valid_win,436.9185259999995,32,,,,,,,,,,,,,,,sub_986,2024-07-22_11h10.21.463,Reversal,2023.1.3,59.929223587074674,2,
9,exp3.png,exp4.png,,3,0,3,0,0,9,9,9,,,,,,,,,,,,,,,,,,,,,,,,,False,68,69,False,exp3.png,exp4.png,trial_right_image,-1,exp4.png,2,exp3.png,exp4.png,0,4,reversed,incorrect,0.015685948808400796,1,invalid_win,444.5987320000004,33,,,,,,,,,,,,,,,sub_986,2024-07-22_11h10.21.463,Reversal,2023.1.3,59.929223587074674,2,
10,exp1.png,exp2.png,,3,0,3,0,0,10,10,10,,,,,,,,,,,,,,,,,,,,,,,,,False,69,70,False,exp1.png,exp2.png,trial_left_image,1,exp1.png,2,exp1.png,exp2.png,1,1,non-reversed,correct,0.09186453908792902,0,invalid_lose,450.6130936999998,33,,,,,,,,,,,,,,,sub_986,2024-07-22_11h10.21.463,Reversal,2023.1.3,59.929223587074674,2,
11,exp3.png,exp4.png,,3,0,3,0,0,11,11,11,,,,,,,,,,,,,,,,,,,,,,,,,False,70,71,False,exp3.png,exp4.png,trial_right_image,-1,exp4.png,2,exp3.png,exp4.png,0,4,reversed,incorrect,0.6834990601036753,0,valid_lose,455.01219859999946,33,,,,,,,,,,,,,,,sub_986,2024-07-22_11h10.21.463,Reversal,2023.1.3,59.929223587074674,2,
12,exp1.png,exp2.png,,3,0,3,0,0,12,12,12,,,,,,,,,,,,,,,,,,,,,,,,,False,71,72,False,exp1.png,exp2.png,trial_left_image,1,exp1.png,2,exp1.png,exp2.png,1,1,non-reversed,correct,0.6818809227643895,1,valid_win,460.0100917,34,,,,,,,,,,,,,,,sub_986,2024-07-22_11h10.21.463,Reversal,2023.1.3,59.929223587074674,2,
13,exp3.png,exp4.png,,3,0,3,0,0,13,13,13,,,,,,,,,,,,,,,,,,,,,,,,,False,72,73,True,exp4.png,exp3.png,trial_left_image,1,exp4.png,2,exp3.png,exp4.png,0,4,reversed,incorrect,0.16422965985888793,1,invalid_win,466.57423480000034,35,,,,,,,,,,,,,,,sub_986,2024-07-22_11h10.21.463,Reversal,2023.1.3,59.929223587074674,2,
14,exp1.png,exp2.png,,3,0,3,0,0,14,14,14,,,,,,,,,,,,,,,,,,,,,,,,,False,73,74,False,exp1.png,exp2.png,trial_left_image,1,exp1.png,2,exp1.png,exp2.png,1,1,non-reversed,correct,0.8476518157588494,1,valid_win,472.63888829999996,36,,,,,,,,,,,,,,,sub_986,2024-07-22_11h10.21.463,Reversal,2023.1.3,59.929223587074674,2,
15,exp3.png,exp4.png,,3,0,3,0,0,15,15,15,,,,,,,,,,,,,,,,,,,,,,,,,False,74,75,False,exp3.png,exp4.png,trial_right_image,-1,exp4.png,2,exp3.png,exp4.png,0,4,reversed,incorrect,0.7634845440496557,0,valid_lose,477.97047740000016,36,,,,,,,,,,,,,,,sub_986,2024-07-22_11h10.21.463,Reversal,2023.1.3,59.929223587074674,2,
16,exp1.png,exp2.png,,3,0,3,0,0,16,16,16,,,,,,,,,,,,,,,,,,,,,,,,,False,75,76,True,exp2.png,exp1.png,trial_right_image,-1,exp1.png,2,exp1.png,exp2.png,1,1,non-reversed,correct,0.39043395028852,1,valid_win,482.56907169999977,37,,,,,,,,,,,,,,,sub_986,2024-07-22_11h10.21.463,Reversal,2023.1.3,59.929223587074674,2,
17,exp3.png,exp4.png,,3,0,3,0,0,17,17,17,,,,,,,,,,,,,,,,,,,,,,,,,False,76,77,False,exp3.png,exp4.png,trial_right_image,-1,exp4.png,2,exp3.png,exp4.png,0,4,reversed,incorrect,0.8674329275077673,0,valid_lose,488.9507475999999,37,,,,,,,,,,,,,,,sub_986,2024-07-22_11h10.21.463,Reversal,2023.1.3,59.929223587074674,2,
18,exp1.png,exp2.png,,3,0,3,0,0,18,18,18,,,,,,,,,,,,,,,,,,,,,,,,,False,77,78,False,exp1.png,exp2.png,trial_left_image,1,exp1.png,2,exp1.png,exp2.png,1,1,non-reversed,correct,0.8787914291328064,1,valid_win,493.7822698,38,,,,,,,,,,,,,,,sub_986,2024-07-22_11h10.21.463,Reversal,2023.1.3,59.929223587074674,2,
19,exp3.png,exp4.png,,3,0,3,0,0,19,19,19,,,,,,,,,,,,,,,,,,,,,,,,,False,78,79,True,exp4.png,exp3.png,trial_right_image,-1,exp3.png,2,exp3.png,exp4.png,1,3,reversed,correct,0.9674571128680863,1,valid_win,499.06324400000085,39,,,,,,,,,,,,,,,sub_986,2024-07-22_11h10.21.463,Reversal,2023.1.3,59.929223587074674,2,
20,exp1.png,exp2.png,,3,0,3,0,0,20,20,20,,,,,,,,,,,,,,,,,,,,,,,,,False,79,80,False,exp1.png,exp2.png,trial_left_image,1,exp1.png,2,exp1.png,exp2.png,1,1,non-reversed,correct,0.707392307669327,1,valid_win,504.11164219999955,40,,,,,,,,,,,,,,,sub_986,2024-07-22_11h10.21.463,Reversal,2023.1.3,59.929223587074674,2,
,,,exp1.png,3,0,3,0,,,,,0,0,0,0,0,0,0,0,,,,,,,,,,,,,,,,,,,,,,,,,,,,,,,,,,,,,,610.3303302000004,100.0,100.0,4.970533100000466,"[(100.0, 4.970533100000466)]",,,,,,,,,,sub_986,2024-07-22_11h10.21.463,Reversal,2023.1.3,59.929223587074674,2,
,,,exp2.png,3,0,3,0,,,,,0,0,0,0,0,1,1,1,,,,,,,,,,,,,,,,,,,,,,,,,,,,,,,,,,,,,,616.5706150000005,,None,None,[],,,,,,,,,,sub_986,2024-07-22_11h10.21.463,Reversal,2023.1.3,59.929223587074674,2,
,,,exp3.png,3,0,3,0,,,,,0,0,0,0,0,2,2,2,,,,,,,,,,,,,,,,,,,,,,,,,,,,,,,,,,,,,,620.8021724999999,,100.0,3.744179200000872,"[(100.0, 3.744179200000872)]",,,100.0,,,,,,,sub_986,2024-07-22_11h10.21.463,Reversal,2023.1.3,59.929223587074674,2,
,,,exp4.png,3,0,3,0,,,,,0,0,0,0,0,3,3,3,,,,,,,,,,,,,,,,,,,,,,,,,,,,,,,,,,,,,,625.6332381000011,,None,None,[],,,,,,,,,,sub_986,2024-07-22_11h10.21.463,Reversal,2023.1.3,59.929223587074674,2,
0,exp1.png,exp2.png,,,,,,,,,,,,,,,,,,0,0,0,0,0,0,0,0,,,,,,,,,True,,,,,,,,,,,,,,,,,,,,,,,,,,,,,,,,,,,sub_986,2024-07-22_11h10.21.463,Reversal,2023.1.3,59.929223587074674,2,
1,exp3.png,exp4.png,,,,,,,,,,,,,,,,,,0,0,0,0,0,1,1,1,,,,,,,,,False,0,81,True,exp4.png,exp3.png,trial_left_image,1,exp4.png,2,exp4.png,exp3.png,0,4,reversed,correct,0.17299646630539,0,invalid_lose,528.9700114999996,40,,,,,,,,,524.3850648999996,,,,,,sub_986,2024-07-22_11h10.21.463,Reversal,2023.1.3,59.929223587074674,2,
2,exp1.png,exp2.png,,,,,,,,,,,,,,,,,,0,0,0,0,0,2,2,2,,,,,,,,,False,1,82,True,exp2.png,exp1.png,trial_right_image,-1,exp1.png,2,exp1.png,exp2.png,1,1,non-reversed,correct,0.4565470581496558,1,valid_win,534.2522471000011,41,,,,,,,,,,,,,,,sub_986,2024-07-22_11h10.21.463,Reversal,2023.1.3,59.929223587074674,2,
3,exp3.png,exp4.png,,,,,,,,,,,,,,,,,,0,0,0,0,0,3,3,3,,,,,,,,,False,2,83,True,exp4.png,exp3.png,trial_right_image,-1,exp3.png,2,exp4.png,exp3.png,1,3,reversed,incorrect,0.5797854803576111,0,valid_lose,540.8992360000011,41,,,,,,,,,,,,,,,sub_986,2024-07-22_11h10.21.463,Reversal,2023.1.3,59.929223587074674,2,
4,exp1.png,exp2.png,,,,,,,,,,,,,,,,,,0,0,0,0,0,4,4,4,,,,,,,,,False,3,84,False,exp1.png,exp2.png,trial_left_image,1,exp1.png,2,exp1.png,exp2.png,1,1,non-reversed,correct,0.9764954388310636,1,valid_win,545.8811418000005,42,,,,,,,,,,,,,,,sub_986,2024-07-22_11h10.21.463,Reversal,2023.1.3,59.929223587074674,2,
5,exp3.png,exp4.png,,,,,,,,,,,,,,,,,,0,0,0,0,0,5,5,5,,,,,,,,,False,4,85,True,exp4.png,exp3.png,trial_left_image,1,exp4.png,2,exp4.png,exp3.png,0,4,reversed,correct,0.6074776221908031,1,valid_win,552.5625070999995,43,,,,,,,,,,,,,,,sub_986,2024-07-22_11h10.21.463,Reversal,2023.1.3,59.929223587074674,2,
6,exp1.png,exp2.png,,,,,,,,,,,,,,,,,,0,0,0,0,0,6,6,6,,,,,,,,,False,5,86,False,exp1.png,exp2.png,trial_left_image,1,exp1.png,2,exp1.png,exp2.png,1,1,non-reversed,correct,0.14426569449719162,0,invalid_lose,556.9971858999997,43,,,,,,,,,,,,,,,sub_986,2024-07-22_11h10.21.463,Reversal,2023.1.3,59.929223587074674,2,
7,exp3.png,exp4.png,,,,,,,,,,,,,,,,,,0,0,0,0,0,7,7,7,,,,,,,,,False,6,87,False,exp3.png,exp4.png,trial_right_image,-1,exp4.png,2,exp4.png,exp3.png,0,4,reversed,correct,0.4442014739700513,1,valid_win,563.1251396000007,44,,,,,,,,,,,,,,,sub_986,2024-07-22_11h10.21.463,Reversal,2023.1.3,59.929223587074674,2,
8,exp1.png,exp2.png,,,,,,,,,,,,,,,,,,0,0,0,0,0,8,8,8,,,,,,,,,False,7,88,False,exp1.png,exp2.png,trial_left_image,1,exp1.png,2,exp1.png,exp2.png,1,1,non-reversed,correct,0.5479228815816031,1,valid_win,567.9233727999999,45,,,,,,,,,,,,,,,sub_986,2024-07-22_11h10.21.463,Reversal,2023.1.3,59.929223587074674,2,
9,exp3.png,exp4.png,,,,,,,,,,,,,,,,,,0,0,0,0,0,9,9,9,,,,,,,,,False,8,89,False,exp3.png,exp4.png,trial_right_image,-1,exp4.png,2,exp4.png,exp3.png,0,4,reversed,correct,0.8997658338288151,1,valid_win,573.2224134999997,46,,,,,,,,,,,,,,,sub_986,2024-07-22_11h10.21.463,Reversal,2023.1.3,59.929223587074674,2,
10,exp1.png,exp2.png,,,,,,,,,,,,,,,,,,0,0,0,0,0,10,10,10,,,,,,,,,False,9,90,True,exp2.png,exp1.png,trial_right_image,-1,exp1.png,2,exp1.png,exp2.png,1,1,non-reversed,correct,0.12369448787363757,0,invalid_lose,578.2534250000008,46,,,,,,,,,,,,,,,sub_986,2024-07-22_11h10.21.463,Reversal,2023.1.3,59.929223587074674,2,
11,exp3.png,exp4.png,,,,,,,,,,,,,,,,,,0,0,0,0,0,11,11,11,,,,,,,,,False,10,91,False,exp3.png,exp4.png,trial_right_image,-1,exp4.png,2,exp4.png,exp3.png,0,4,reversed,correct,0.708880593115763,1,valid_win,584.0683788999995,47,,,,,,,,,,,,,,,sub_986,2024-07-22_11h10.21.463,Reversal,2023.1.3,59.929223587074674,2,
12,exp1.png,exp2.png,,,,,,,,,,,,,,,,,,0,0,0,0,0,12,12,12,,,,,,,,,False,11,92,True,exp2.png,exp1.png,trial_left_image,1,exp2.png,2,exp1.png,exp2.png,0,2,non-reversed,incorrect,0.33200013249716853,0,valid_lose,591.7489396000001,47,,,,,,,,,,,,,,,sub_986,2024-07-22_11h10.21.463,Reversal,2023.1.3,59.929223587074674,2,
13,exp3.png,exp4.png,,,,,,,,,,,,,,,,,,0,0,0,0,0,13,13,13,,,,,,,,,False,12,93,False,exp3.png,exp4.png,trial_right_image,-1,exp4.png,2,exp4.png,exp3.png,0,4,reversed,correct,0.9270376273488724,1,valid_win,597.4302418999996,48,,,,,,,,,,,,,,,sub_986,2024-07-22_11h10.21.463,Reversal,2023.1.3,59.929223587074674,2,
14,exp1.png,exp2.png,,,,,,,,,,,,,,,,,,0,0,0,0,0,14,14,14,,,,,,,,,False,13,94,True,exp2.png,exp1.png,trial_right_image,-1,exp1.png,2,exp1.png,exp2.png,1,1,non-reversed,correct,0.23463542912426938,0,invalid_lose,602.7951762000012,48,,,,,,,,,,,,,,,sub_986,2024-07-22_11h10.21.463,Reversal,2023.1.3,59.929223587074674,2,
15,exp3.png,exp4.png,,,,,,,,,,,,,,,,,,0,0,0,0,0,15,15,15,,,,,,,,,False,14,95,True,exp4.png,exp3.png,trial_left_image,1,exp4.png,2,exp4.png,exp3.png,0,4,reversed,correct,0.6945219738139152,1,valid_win,609.059515500001,49,,,,,,,,,,,,,,,sub_986,2024-07-22_11h10.21.463,Reversal,2023.1.3,59.929223587074674,2,
16,exp1.png,exp2.png,,,,,,,,,,,,,,,,,,0,0,0,0,0,16,16,16,,,,,,,,,False,15,96,False,exp1.png,exp2.png,trial_left_image,1,exp1.png,2,exp1.png,exp2.png,1,1,non-reversed,correct,0.728178930179163,1,valid_win,615.9237491000004,50,,,,,,,,,,,,,,,sub_986,2024-07-22_11h10.21.463,Reversal,2023.1.3,59.929223587074674,2,
17,exp3.png,exp4.png,,,,,,,,,,,,,,,,,,0,0,0,0,0,17,17,17,,,,,,,,,False,16,97,True,exp4.png,exp3.png,trial_left_image,1,exp4.png,2,exp4.png,exp3.png,0,4,reversed,correct,0.7665400346651731,1,valid_win,621.5892588999995,51,,,,,,,,,,,,,,,sub_986,2024-07-22_11h10.21.463,Reversal,2023.1.3,59.929223587074674,2,
18,exp1.png,exp2.png,,,,,,,,,,,,,,,,,,0,0,0,0,0,18,18,18,,,,,,,,,False,17,98,False,exp1.png,exp2.png,trial_left_image,1,exp1.png,2,exp1.png,exp2.png,1,1,non-reversed,correct,0.101103270034964,0,invalid_lose,627.2370145999994,51,,,,,,,,,,,,,,,sub_986,2024-07-22_11h10.21.463,Reversal,2023.1.3,59.929223587074674,2,
19,exp3.png,exp4.png,,,,,,,,,,,,,,,,,,0,0,0,0,0,19,19,19,,,,,,,,,False,18,99,True,exp4.png,exp3.png,trial_left_image,1,exp4.png,2,exp4.png,exp3.png,0,4,reversed,correct,0.5061896080252999,1,valid_win,632.7847932000004,52,,,,,,,,,,,,,,,sub_986,2024-07-22_11h10.21.463,Reversal,2023.1.3,59.929223587074674,2,
20,exp1.png,exp2.png,,,,,,,,,,,,,,,,,,0,0,0,0,0,20,20,20,,,,,,,,,False,19,100,False,exp1.png,exp2.png,trial_right_image,-1,exp2.png,2,exp1.png,exp2.png,0,2,non-reversed,incorrect,0.4783950376628059,0,valid_lose,639.0494627999997,52,,,,,,,,,,,,,,,sub_986,2024-07-22_11h10.21.463,Reversal,2023.1.3,59.929223587074674,2,
,,,exp1.png,,,,,,,,,,,,,,,,,0,0,0,0,,,,,0,0,0,0,0,0,0,0,,,,,,,,,,,,,,,,,,,,,,745.2862243,,None,None,[],,,,,,,,,,sub_986,2024-07-22_11h10.21.463,Reversal,2023.1.3,59.929223587074674,2,
,,,exp2.png,,,,,,,,,,,,,,,,,0,0,0,0,,,,,0,0,0,0,0,1,1,1,,,,,,,,,,,,,,,,,,,,,,749.3501329999999,,50.0,5.743902899999739,"[(50.0, 5.743902899999739)]",50.0,,,,,,,,,sub_986,2024-07-22_11h10.21.463,Reversal,2023.1.3,59.929223587074674,2,
,,,exp3.png,,,,,,,,,,,,,,,,,0,0,0,0,,,,,0,0,0,0,0,2,2,2,,,,,,,,,,,,,,,,,,,,,,756.2385790999997,,50.0,2.3607976000002964,"[(50.0, 2.3607976000002964)]",,,50.0,,,,,,,sub_986,2024-07-22_11h10.21.463,Reversal,2023.1.3,59.929223587074674,2,
,,,exp4.png,,,,,,,,,,,,,,,,,0,0,0,0,,,,,0,0,0,0,0,3,3,3,,,,,,,,,,,,,,,,,,,,,,759.6051201999999,,100.0,2.260884100000112,"[(100.0, 2.260884100000112)]",,100.0,,,,,,,,sub_986,2024-07-22_11h10.21.463,Reversal,2023.1.3,59.929223587074674,2,
0,exp1.png,exp2.png,,,,,,,,,,,,,,,,,,1,0,1,0,0,0,0,0,,,,,,,,,True,,,,,,,,,,,,,,,,,,,,,,,,,,,,,,,,,,,sub_986,2024-07-22_11h10.21.463,Reversal,2023.1.3,59.929223587074674,2,
1,exp3.png,exp4.png,,,,,,,,,,,,,,,,,,1,0,1,0,0,1,1,1,,,,,,,,,False,20,101,True,exp4.png,exp3.png,trial_left_image,1,exp4.png,2,exp4.png,exp3.png,0,4,reversed,correct,0.20781979982912835,0,invalid_lose,663.1078404,52,,,,,,,,,,,,,,,sub_986,2024-07-22_11h10.21.463,Reversal,2023.1.3,59.929223587074674,2,
2,exp1.png,exp2.png,,,,,,,,,,,,,,,,,,1,0,1,0,0,2,2,2,,,,,,,,,False,21,102,False,exp1.png,exp2.png,trial_left_image,1,exp1.png,2,exp1.png,exp2.png,1,1,non-reversed,correct,0.2626337101612244,1,valid_win,668.4225717999998,53,,,,,,,,,,,,,,,sub_986,2024-07-22_11h10.21.463,Reversal,2023.1.3,59.929223587074674,2,
3,exp3.png,exp4.png,,,,,,,,,,,,,,,,,,1,0,1,0,0,3,3,3,,,,,,,,,False,22,103,True,exp4.png,exp3.png,trial_left_image,1,exp4.png,2,exp4.png,exp3.png,0,4,reversed,correct,0.9713864418711096,1,valid_win,673.7879783999997,54,,,,,,,,,,,,,,,sub_986,2024-07-22_11h10.21.463,Reversal,2023.1.3,59.929223587074674,2,
4,exp1.png,exp2.png,,,,,,,,,,,,,,,,,,1,0,1,0,0,4,4,4,,,,,,,,,False,23,104,True,exp2.png,exp1.png,trial_right_image,-1,exp1.png,2,exp1.png,exp2.png,1,1,non-reversed,correct,0.6039923643319751,1,valid_win,678.4692099000004,55,,,,,,,,,,,,,,,sub_986,2024-07-22_11h10.21.463,Reversal,2023.1.3,59.929223587074674,2,
5,exp3.png,exp4.png,,,,,,,,,,,,,,,,,,1,0,1,0,0,5,5,5,,,,,,,,,False,24,105,True,exp4.png,exp3.png,trial_left_image,1,exp4.png,2,exp4.png,exp3.png,0,4,reversed,correct,0.072612865032473,0,invalid_lose,683.2343550999994,55,,,,,,,,,,,,,,,sub_986,2024-07-22_11h10.21.463,Reversal,2023.1.3,59.929223587074674,2,
6,exp1.png,exp2.png,,,,,,,,,,,,,,,,,,1,0,1,0,0,6,6,6,,,,,,,,,False,25,106,False,exp1.png,exp2.png,trial_left_image,1,exp1.png,2,exp1.png,exp2.png,1,1,non-reversed,correct,0.6781841979659698,1,valid_win,687.849812800001,56,,,,,,,,,,,,,,,sub_986,2024-07-22_11h10.21.463,Reversal,2023.1.3,59.929223587074674,2,
7,exp3.png,exp4.png,,,,,,,,,,,,,,,,,,1,0,1,0,0,7,7,7,,,,,,,,,False,26,107,True,exp4.png,exp3.png,trial_left_image,1,exp4.png,2,exp4.png,exp3.png,0,4,reversed,correct,0.7242951901108162,1,valid_win,693.0810142000009,57,,,,,,,,,,,,,,,sub_986,2024-07-22_11h10.21.463,Reversal,2023.1.3,59.929223587074674,2,
8,exp1.png,exp2.png,,,,,,,,,,,,,,,,,,1,0,1,0,0,8,8,8,,,,,,,,,False,27,108,True,exp2.png,exp1.png,trial_right_image,-1,exp1.png,2,exp1.png,exp2.png,1,1,non-reversed,correct,0.5233079715534082,1,valid_win,697.5300165000008,58,,,,,,,,,,,,,,,sub_986,2024-07-22_11h10.21.463,Reversal,2023.1.3,59.929223587074674,2,
9,exp3.png,exp4.png,,,,,,,,,,,,,,,,,,1,0,1,0,0,9,9,9,,,,,,,,,False,28,109,True,exp4.png,exp3.png,trial_left_image,1,exp4.png,2,exp4.png,exp3.png,0,4,reversed,correct,0.32295481474060517,1,valid_win,702.4117602000006,59,,,,,,,,,,,,,,,sub_986,2024-07-22_11h10.21.463,Reversal,2023.1.3,59.929223587074674,2,
10,exp1.png,exp2.png,,,,,,,,,,,,,,,,,,1,0,1,0,0,10,10,10,,,,,,,,,False,29,110,False,exp1.png,exp2.png,trial_left_image,1,exp1.png,2,exp1.png,exp2.png,1,1,non-reversed,correct,0.4817405733953798,1,valid_win,707.4263530000007,60,,,,,,,,,,,,,,,sub_986,2024-07-22_11h10.21.463,Reversal,2023.1.3,59.929223587074674,2,
11,exp3.png,exp4.png,,,,,,,,,,,,,,,,,,1,0,1,0,0,11,11,11,,,,,,,,,False,30,111,False,exp3.png,exp4.png,trial_right_image,-1,exp4.png,2,exp4.png,exp3.png,0,4,reversed,correct,0.43047595188772303,1,valid_win,712.5415991000009,61,,,,,,,,,,,,,,,sub_986,2024-07-22_11h10.21.463,Reversal,2023.1.3,59.929223587074674,2,
12,exp1.png,exp2.png,,,,,,,,,,,,,,,,,,1,0,1,0,0,12,12,12,,,,,,,,,False,31,112,False,exp1.png,exp2.png,trial_left_image,1,exp1.png,2,exp1.png,exp2.png,1,1,non-reversed,correct,0.24581078017153735,0,invalid_lose,717.1227706000009,61,,,,,,,,,,,,,,,sub_986,2024-07-22_11h10.21.463,Reversal,2023.1.3,59.929223587074674,2,
13,exp3.png,exp4.png,,,,,,,,,,,,,,,,,,1,0,1,0,0,13,13,13,,,,,,,,,False,32,113,False,exp3.png,exp4.png,trial_right_image,-1,exp4.png,2,exp4.png,exp3.png,0,4,reversed,correct,0.5604210438147613,1,valid_win,722.1222398999998,62,,,,,,,,,,,,,,,sub_986,2024-07-22_11h10.21.463,Reversal,2023.1.3,59.929223587074674,2,
14,exp1.png,exp2.png,,,,,,,,,,,,,,,,,,1,0,1,0,0,14,14,14,,,,,,,,,False,33,114,True,exp2.png,exp1.png,trial_right_image,-1,exp1.png,2,exp1.png,exp2.png,1,1,non-reversed,correct,0.55990382435922,1,valid_win,727.1862633000001,63,,,,,,,,,,,,,,,sub_986,2024-07-22_11h10.21.463,Reversal,2023.1.3,59.929223587074674,2,
15,exp3.png,exp4.png,,,,,,,,,,,,,,,,,,1,0,1,0,0,15,15,15,,,,,,,,,False,34,115,True,exp4.png,exp3.png,trial_left_image,1,exp4.png,2,exp4.png,exp3.png,0,4,reversed,correct,0.18812432693646164,0,invalid_lose,732.6012324000003,63,,,,,,,,,,,,,,,sub_986,2024-07-22_11h10.21.463,Reversal,2023.1.3,59.929223587074674,2,
16,exp1.png,exp2.png,,,,,,,,,,,,,,,,,,1,0,1,0,0,16,16,16,,,,,,,,,False,35,116,False,exp1.png,exp2.png,trial_left_image,1,exp1.png,2,exp1.png,exp2.png,1,1,non-reversed,correct,0.4232559758897836,1,valid_win,737.0329400999999,64,,,,,,,,,,,,,,,sub_986,2024-07-22_11h10.21.463,Reversal,2023.1.3,59.929223587074674,2,
17,exp3.png,exp4.png,,,,,,,,,,,,,,,,,,1,0,1,0,0,17,17,17,,,,,,,,,False,36,117,False,exp3.png,exp4.png,trial_right_image,-1,exp4.png,2,exp4.png,exp3.png,0,4,reversed,correct,0.10978106070715654,0,invalid_lose,741.3149976000004,64,,,,,,,,,,,,,,,sub_986,2024-07-22_11h10.21.463,Reversal,2023.1.3,59.929223587074674,2,
18,exp1.png,exp2.png,,,,,,,,,,,,,,,,,,1,0,1,0,0,18,18,18,,,,,,,,,False,37,118,False,exp1.png,exp2.png,trial_left_image,1,exp1.png,2,exp1.png,exp2.png,1,1,non-reversed,correct,0.23844693587193921,0,invalid_lose,745.8803045000004,64,,,,,,,,,,,,,,,sub_986,2024-07-22_11h10.21.463,Reversal,2023.1.3,59.929223587074674,2,
19,exp3.png,exp4.png,,,,,,,,,,,,,,,,,,1,0,1,0,0,19,19,19,,,,,,,,,False,38,119,False,exp3.png,exp4.png,trial_right_image,-1,exp4.png,2,exp4.png,exp3.png,0,4,reversed,correct,0.50348392584608,1,valid_win,752.4946820000005,65,,,,,,,,,,,,,,,sub_986,2024-07-22_11h10.21.463,Reversal,2023.1.3,59.929223587074674,2,
20,exp1.png,exp2.png,,,,,,,,,,,,,,,,,,1,0,1,0,0,20,20,20,,,,,,,,,False,39,120,True,exp2.png,exp1.png,trial_right_image,-1,exp1.png,2,exp1.png,exp2.png,1,1,non-reversed,correct,0.9951209880001914,1,valid_win,757.1927003000001,66,,,,,,,,,,,,,,,sub_986,2024-07-22_11h10.21.463,Reversal,2023.1.3,59.929223587074674,2,
,,,exp1.png,,,,,,,,,,,,,,,,,1,0,1,0,,,,,0,0,0,0,0,0,0,0,,,,,,,,,,,,,,,,,,,,,,863.4132795000005,84.0,84.0,7.218087600000217,"[(84.0, 7.218087600000217)]",,,,,,,,,,sub_986,2024-07-22_11h10.21.463,Reversal,2023.1.3,59.929223587074674,2,
,,,exp2.png,,,,,,,,,,,,,,,,,1,0,1,0,,,,,0,0,0,0,0,1,1,1,,,,,,,,,,,,,,,,,,,,,,872.4169691999996,,13.0,2.6764474000010523,"[(13.0, 2.6764474000010523)]",13.0,,,,,,,,,sub_986,2024-07-22_11h10.21.463,Reversal,2023.1.3,59.929223587074674,2,
,,,exp3.png,,,,,,,,,,,,,,,,,1,0,1,0,,,,,0,0,0,0,0,2,2,2,,,,,,,,,,,,,,,,,,,,,,876.9836556000009,,13.0,2.8443490999998176,"[(13.0, 2.8443490999998176)]",,,13.0,,,,,,,sub_986,2024-07-22_11h10.21.463,Reversal,2023.1.3,59.929223587074674,2,
,,,exp4.png,,,,,,,,,,,,,,,,,1,0,1,0,,,,,0,0,0,0,0,3,3,3,,,,,,,,,,,,,,,,,,,,,,881.0859075999997,,90.0,2.0566969999999856,"[(90.0, 2.0566969999999856)]",,90.0,,,,,,,,sub_986,2024-07-22_11h10.21.463,Reversal,2023.1.3,59.929223587074674,2,
0,exp1.png,exp2.png,,,,,,,,,,,,,,,,,,2,0,2,0,0,0,0,0,,,,,,,,,True,,,,,,,,,,,,,,,,,,,,,,,,,,,,,,,,,,,sub_986,2024-07-22_11h10.21.463,Reversal,2023.1.3,59.929223587074674,2,
1,exp3.png,exp4.png,,,,,,,,,,,,,,,,,,2,0,2,0,0,1,1,1,,,,,,,,,False,40,121,True,exp4.png,exp3.png,trial_right_image,-1,exp3.png,2,exp4.png,exp3.png,1,3,reversed,incorrect,0.46816705390626534,0,valid_lose,785.0677125000002,66,,,,,,,,,,,,,,,sub_986,2024-07-22_11h10.21.463,Reversal,2023.1.3,59.929223587074674,2,
2,exp1.png,exp2.png,,,,,,,,,,,,,,,,,,2,0,2,0,0,2,2,2,,,,,,,,,False,41,122,True,exp2.png,exp1.png,trial_left_image,1,exp2.png,2,exp1.png,exp2.png,0,2,non-reversed,incorrect,0.3575286839699403,0,valid_lose,790.181846200001,66,,,,,,,,,,,,,,,sub_986,2024-07-22_11h10.21.463,Reversal,2023.1.3,59.929223587074674,2,
3,exp3.png,exp4.png,,,,,,,,,,,,,,,,,,2,0,2,0,0,3,3,3,,,,,,,,,False,42,123,True,exp4.png,exp3.png,trial_left_image,1,exp4.png,2,exp4.png,exp3.png,0,4,reversed,correct,0.3286532898130483,1,valid_win,796.0131701999999,67,,,,,,,,,,,,,,,sub_986,2024-07-22_11h10.21.463,Reversal,2023.1.3,59.929223587074674,2,
4,exp1.png,exp2.png,,,,,,,,,,,,,,,,,,2,0,2,0,0,4,4,4,,,,,,,,,False,43,124,True,exp2.png,exp1.png,trial_right_image,-1,exp1.png,2,exp1.png,exp2.png,1,1,non-reversed,correct,0.20328289745295103,0,invalid_lose,801.4277514000005,67,,,,,,,,,,,,,,,sub_986,2024-07-22_11h10.21.463,Reversal,2023.1.3,59.929223587074674,2,
5,exp3.png,exp4.png,,,,,,,,,,,,,,,,,,2,0,2,0,0,5,5,5,,,,,,,,,False,44,125,False,exp3.png,exp4.png,trial_right_image,-1,exp4.png,2,exp4.png,exp3.png,0,4,reversed,correct,0.20550866286656533,0,invalid_lose,806.3121819000007,67,,,,,,,,,,,,,,,sub_986,2024-07-22_11h10.21.463,Reversal,2023.1.3,59.929223587074674,2,
6,exp1.png,exp2.png,,,,,,,,,,,,,,,,,,2,0,2,0,0,6,6,6,,,,,,,,,False,45,126,False,exp1.png,exp2.png,trial_left_image,1,exp1.png,2,exp1.png,exp2.png,1,1,non-reversed,correct,0.3876695359938418,1,valid_win,810.8912433000005,68,,,,,,,,,,,,,,,sub_986,2024-07-22_11h10.21.463,Reversal,2023.1.3,59.929223587074674,2,
7,exp3.png,exp4.png,,,,,,,,,,,,,,,,,,2,0,2,0,0,7,7,7,,,,,,,,,False,46,127,False,exp3.png,exp4.png,trial_right_image,-1,exp4.png,2,exp4.png,exp3.png,0,4,reversed,correct,0.6448074602155605,1,valid_win,817.0225134000011,69,,,,,,,,,,,,,,,sub_986,2024-07-22_11h10.21.463,Reversal,2023.1.3,59.929223587074674,2,
8,exp1.png,exp2.png,,,,,,,,,,,,,,,,,,2,0,2,0,0,8,8,8,,,,,,,,,False,47,128,True,exp2.png,exp1.png,trial_right_image,-1,exp1.png,2,exp1.png,exp2.png,1,1,non-reversed,correct,0.1632422858642446,0,invalid_lose,822.2043845000007,69,,,,,,,,,,,,,,,sub_986,2024-07-22_11h10.21.463,Reversal,2023.1.3,59.929223587074674,2,
9,exp3.png,exp4.png,,,,,,,,,,,,,,,,,,2,0,2,0,0,9,9,9,,,,,,,,,False,48,129,False,exp3.png,exp4.png,trial_right_image,-1,exp4.png,2,exp4.png,exp3.png,0,4,reversed,correct,0.360558593038492,1,valid_win,827.3866479000008,70,,,,,,,,,,,,,,,sub_986,2024-07-22_11h10.21.463,Reversal,2023.1.3,59.929223587074674,2,
10,exp1.png,exp2.png,,,,,,,,,,,,,,,,,,2,0,2,0,0,10,10,10,,,,,,,,,False,49,130,False,exp1.png,exp2.png,trial_left_image,1,exp1.png,2,exp1.png,exp2.png,1,1,non-reversed,correct,0.7353994152597753,1,valid_win,833.5176282000011,71,,,,,,,,,,,,,,,sub_986,2024-07-22_11h10.21.463,Reversal,2023.1.3,59.929223587074674,2,
11,exp3.png,exp4.png,,,,,,,,,,,,,,,,,,2,0,2,0,0,11,11,11,,,,,,,,,False,50,131,True,exp4.png,exp3.png,trial_left_image,1,exp4.png,2,exp4.png,exp3.png,0,4,reversed,correct,0.8595209918740039,1,valid_win,838.6658304000011,72,,,,,,,,,,,,,,,sub_986,2024-07-22_11h10.21.463,Reversal,2023.1.3,59.929223587074674,2,
12,exp1.png,exp2.png,,,,,,,,,,,,,,,,,,2,0,2,0,0,12,12,12,,,,,,,,,False,51,132,True,exp2.png,exp1.png,trial_right_image,-1,exp1.png,2,exp1.png,exp2.png,1,1,non-reversed,correct,0.6416928452070219,1,valid_win,844.7799875000001,73,,,,,,,,,,,,,,,sub_986,2024-07-22_11h10.21.463,Reversal,2023.1.3,59.929223587074674,2,
13,exp3.png,exp4.png,,,,,,,,,,,,,,,,,,2,0,2,0,0,13,13,13,,,,,,,,,False,52,133,False,exp3.png,exp4.png,trial_right_image,-1,exp4.png,2,exp4.png,exp3.png,0,4,reversed,correct,0.018870461444717046,0,invalid_lose,850.1619995000001,73,,,,,,,,,,,,,,,sub_986,2024-07-22_11h10.21.463,Reversal,2023.1.3,59.929223587074674,2,
14,exp1.png,exp2.png,,,,,,,,,,,,,,,,,,2,0,2,0,0,14,14,14,,,,,,,,,False,53,134,True,exp2.png,exp1.png,trial_right_image,-1,exp1.png,2,exp1.png,exp2.png,1,1,non-reversed,correct,0.5762810094493036,1,valid_win,856.1766528999997,74,,,,,,,,,,,,,,,sub_986,2024-07-22_11h10.21.463,Reversal,2023.1.3,59.929223587074674,2,
15,exp3.png,exp4.png,,,,,,,,,,,,,,,,,,2,0,2,0,0,15,15,15,,,,,,,,,False,54,135,True,exp4.png,exp3.png,trial_left_image,1,exp4.png,2,exp4.png,exp3.png,0,4,reversed,correct,0.5931517969291676,1,valid_win,861.3417757000007,75,,,,,,,,,,,,,,,sub_986,2024-07-22_11h10.21.463,Reversal,2023.1.3,59.929223587074674,2,
16,exp1.png,exp2.png,,,,,,,,,,,,,,,,,,2,0,2,0,0,16,16,16,,,,,,,,,False,55,136,False,exp1.png,exp2.png,trial_left_image,1,exp1.png,2,exp1.png,exp2.png,1,1,non-reversed,correct,0.11573316499541664,0,invalid_lose,866.1393714000005,75,,,,,,,,,,,,,,,sub_986,2024-07-22_11h10.21.463,Reversal,2023.1.3,59.929223587074674,2,
17,exp3.png,exp4.png,,,,,,,,,,,,,,,,,,2,0,2,0,0,17,17,17,,,,,,,,,False,56,137,False,exp3.png,exp4.png,trial_right_image,-1,exp4.png,2,exp4.png,exp3.png,0,4,reversed,correct,0.7830980565081894,1,valid_win,871.5216282000001,76,,,,,,,,,,,,,,,sub_986,2024-07-22_11h10.21.463,Reversal,2023.1.3,59.929223587074674,2,
18,exp1.png,exp2.png,,,,,,,,,,,,,,,,,,2,0,2,0,0,18,18,18,,,,,,,,,False,57,138,False,exp1.png,exp2.png,trial_left_image,1,exp1.png,2,exp1.png,exp2.png,1,1,non-reversed,correct,0.8571424481693828,1,valid_win,876.9688941999993,77,,,,,,,,,,,,,,,sub_986,2024-07-22_11h10.21.463,Reversal,2023.1.3,59.929223587074674,2,
19,exp3.png,exp4.png,,,,,,,,,,,,,,,,,,2,0,2,0,0,19,19,19,,,,,,,,,False,58,139,False,exp3.png,exp4.png,trial_right_image,-1,exp4.png,2,exp4.png,exp3.png,0,4,reversed,correct,0.8063742942585728,1,valid_win,886.5991030000005,78,,,,,,,,,,,,,,,sub_986,2024-07-22_11h10.21.463,Reversal,2023.1.3,59.929223587074674,2,
20,exp1.png,exp2.png,,,,,,,,,,,,,,,,,,2,0,2,0,0,20,20,20,,,,,,,,,False,59,140,True,exp2.png,exp1.png,trial_right_image,-1,exp1.png,2,exp1.png,exp2.png,1,1,non-reversed,correct,0.8421666743760245,1,valid_win,891.3642553999998,79,,,,,,,,,,,,,,,sub_986,2024-07-22_11h10.21.463,Reversal,2023.1.3,59.929223587074674,2,
,,,exp1.png,,,,,,,,,,,,,,,,,2,0,2,0,,,,,0,0,0,0,0,0,0,0,,,,,,,,,,,,,,,,,,,,,,997.5914592999998,50.0,50.0,12.944250900000043,"[(50.0, 12.944250900000043)]",,,,,,,,,,sub_986,2024-07-22_11h10.21.463,Reversal,2023.1.3,59.929223587074674,2,
,,,exp2.png,,,,,,,,,,,,,,,,,2,0,2,0,,,,,0,0,0,0,0,1,1,1,,,,,,,,,,,,,,,,,,,,,,1011.6049318000005,,None,None,[],,,,,,,,,,sub_986,2024-07-22_11h10.21.463,Reversal,2023.1.3,59.929223587074674,2,
,,,exp3.png,,,,,,,,,,,,,,,,,2,0,2,0,,,,,0,0,0,0,0,2,2,2,,,,,,,,,,,,,,,,,,,,,,1012.5747403000005,,None,None,[],,,,,,,,,,sub_986,2024-07-22_11h10.21.463,Reversal,2023.1.3,59.929223587074674,2,
,,,exp4.png,,,,,,,,,,,,,,,,,2,0,2,0,,,,,0,0,0,0,0,3,3,3,,,,,,,,,,,,,,,,,,,,,,1013.5025297000011,,None,None,[],,,,,,,,,,sub_986,2024-07-22_11h10.21.463,Reversal,2023.1.3,59.929223587074674,2,
,,,,,,,,,,,,,,,,,,,,,,,,,,,,,,,,,,,,,,,,,,,,,,,,,,,,,,,,79,,,,,,,,,,104,49,55,386.25712829999975,1,,,,,,,
