trial_index,trial_image1_file,trial_image2_file,image_file,learning_outer_loop.thisRepN,learning_outer_loop.thisTrialN,learning_outer_loop.thisN,learning_outer_loop.thisIndex,learning_inner_loop.thisRepN,learning_inner_loop.thisTrialN,learning_inner_loop.thisN,learning_inner_loop.thisIndex,learning_estimation_outer_loop.thisRepN,learning_estimation_outer_loop.thisTrialN,learning_estimation_outer_loop.thisN,learning_estimation_outer_loop.thisIndex,learning_estimation_inner_loop.thisRepN,learning_estimation_inner_loop.thisTrialN,learning_estimation_inner_loop.thisN,learning_estimation_inner_loop.thisIndex,reversal_outer_loop.thisRepN,reversal_outer_loop.thisTrialN,reversal_outer_loop.thisN,reversal_outer_loop.thisIndex,reversal_inner_loop.thisRepN,reversal_inner_loop.thisTrialN,reversal_inner_loop.thisN,reversal_inner_loop.thisIndex,reversal_estimation_outer_loop.thisRepN,reversal_estimation_outer_loop.thisTrialN,reversal_estimation_outer_loop.thisN,reversal_estimation_outer_loop.thisIndex,reversal_estimation_inner_loop.thisRepN,reversal_estimation_inner_loop.thisTrialN,reversal_estimation_inner_loop.thisN,reversal_estimation_inner_loop.thisIndex,thisRow.t,notes,instructions1.started,instructions1.stopped,instructions2.started,instructions2.stopped,instructions3.started,instructions3.stopped,intstructions4.started,intstructions4.stopped,instructions5.started,instructions5.stopped,mindware_trigger_learning.started,mindware_trigger_learning.stopped,trial.started,skipped,total_trial_counter,trial_num,left_right_flip,left_image_file,right_image_file,clicked_stimulus_side,trial.stopped,side,clicked_stimulus,version,high_prob_image_file,low_prob_image_file,choice_a,choice_b,pair_type,correct,trial_feedback_random,reward,trial_type,overall_time_after_trial,feedback_preparation.started,feedback_preparation.stopped,score,feedback.started,feedback.stopped,estimation.started,estimation_rating.started,estimation.stopped,estimation_rating.response,estimation_rating.rt,estimation_rating.history,estimation_exp3.png,estimation_exp4.png,estimation_exp1.png,estimation_exp2.png,mindware_trigger_reversal.started,mindware_trigger_reversal.stopped,total_learning_time,thank_you.started,total_correct,learning_correct,reversal_correct,total_reversal_time,extra_block,thank_you.stopped,end_experiment.keys,end_experiment.rt,end_experiment.duration,participant,date,expName,psychopyVersion,frameRate,ver,expStart,
0,exp1.png,exp2.png,,0,0,0,0,0,0,0,0,,,,,,,,,,,,,,,,,,,,,,,,,44.36422240000684,,0.012175999989267439,33.58511230000295,33.58516379998764,37.717400799971074,37.71743109996896,37.98365579999518,37.983686099993065,40.19952209998155,40.19955189997563,44.184013599995524,44.204731500009075,44.20555219997186,44.20558800001163,False,0,1,False,exp1.png,exp2.png,trial_left_image,53.930580399988685,1,exp1.png,3,exp2.png,exp1.png,0,4,reversed,incorrect,0.08113088646508848,1,invalid_win,9.747009699989576,53.93108830001438,54.545373199973255,1,54.54541530000279,56.34318029996939,,,,,,,,,,,,,,,,,,,,,,,,sub_571,2024-01-29_09h53.18.273,Reversal,2023.2.1,59.92229277198131,3,2024-01-29 09h53.31.969076 +0200,
1,exp3.png,exp4.png,,0,0,0,0,0,1,1,1,,,,,,,,,,,,,,,,,,,,,,,,,56.52799699996831,,,,,,,,,,,,56.3440716000041,56.34507109998958,56.345121199963614,False,1,2,False,exp3.png,exp4.png,trial_left_image,59.91403519996675,1,exp3.png,3,exp4.png,exp3.png,0,2,non-reversed,incorrect,0.7861991635742607,0,valid_lose,15.730636399996001,59.914730299962685,60.52806579996832,1,60.52810789999785,62.32547679997515,,,,,,,,,,,,,,,,,,,,,,,,sub_571,2024-01-29_09h53.18.273,Reversal,2023.2.1,59.92229277198131,3,2024-01-29 09h53.31.969076 +0200,
2,exp1.png,exp2.png,,0,0,0,0,0,2,2,2,,,,,,,,,,,,,,,,,,,,,,,,,62.46323160000611,,,,,,,,,,,,62.3260719999671,62.32681419997243,62.32684930000687,False,2,3,True,exp2.png,exp1.png,trial_left_image,66.8962743000011,1,exp2.png,3,exp2.png,exp1.png,1,3,reversed,correct,0.334937430290728,1,valid_win,22.71288679999998,66.89698019996285,67.50995109998621,2,67.50996990001295,69.3085437999689,,,,,,,,,,,,,,,,,,,,,,,,sub_571,2024-01-29_09h53.18.273,Reversal,2023.2.1,59.92229277198131,3,2024-01-29 09h53.31.969076 +0200,
3,exp3.png,exp4.png,,0,0,0,0,0,3,3,3,,,,,,,,,,,,,,,,,,,,,,,,,69.45647789997747,,,,,,,,,,,,69.30952109995997,69.3106619999744,69.3107197000063,False,3,4,False,exp3.png,exp4.png,trial_right_image,72.46068799996283,-1,exp4.png,3,exp4.png,exp3.png,1,1,non-reversed,correct,0.6577438735021671,1,valid_win,28.27688089996809,72.46094759996049,73.07647669996368,3,73.0765244999784,74.87446119997185,,,,,,,,,,,,,,,,,,,,,,,,sub_571,2024-01-29_09h53.18.273,Reversal,2023.2.1,59.92229277198131,3,2024-01-29 09h53.31.969076 +0200,
4,exp1.png,exp2.png,,0,0,0,0,0,4,4,4,,,,,,,,,,,,,,,,,,,,,,,,,75.02913460001582,,,,,,,,,,,,74.87547689996427,74.8767044999986,74.87676479999209,False,4,5,True,exp2.png,exp1.png,trial_left_image,78.94394829997327,1,exp2.png,3,exp2.png,exp1.png,1,3,reversed,correct,0.9467134799723727,1,valid_win,34.760277699970175,78.94435399997747,79.55830919998698,4,79.5583256999962,81.3563452999806,,,,,,,,,,,,,,,,,,,,,,,,sub_571,2024-01-29_09h53.18.273,Reversal,2023.2.1,59.92229277198131,3,2024-01-29 09h53.31.969076 +0200,
5,exp3.png,exp4.png,,0,0,0,0,0,5,5,5,,,,,,,,,,,,,,,,,,,,,,,,,81.49640279996675,,,,,,,,,,,,81.3569911000086,81.35774949996267,81.35778799996478,False,5,6,False,exp3.png,exp4.png,trial_right_image,84.009588899964,-1,exp4.png,3,exp4.png,exp3.png,1,1,non-reversed,correct,0.9739953633311919,1,valid_win,39.82585029996699,84.00992280000355,84.62444390001474,5,84.62446690001525,86.42227529996308,,,,,,,,,,,,,,,,,,,,,,,,sub_571,2024-01-29_09h53.18.273,Reversal,2023.2.1,59.92229277198131,3,2024-01-29 09h53.31.969076 +0200,
6,exp1.png,exp2.png,,0,0,0,0,0,6,6,6,,,,,,,,,,,,,,,,,,,,,,,,,86.56905940000433,,,,,,,,,,,,86.42278409999562,86.42346510000061,86.42349469999317,False,6,7,False,exp1.png,exp2.png,trial_right_image,88.99294119997649,-1,exp2.png,3,exp2.png,exp1.png,1,3,reversed,correct,0.569834504483422,1,valid_win,44.809336000005715,88.9934161999845,89.60709239996504,6,89.6071140000131,91.4055028000148,,,,,,,,,,,,,,,,,,,,,,,,sub_571,2024-01-29_09h53.18.273,Reversal,2023.2.1,59.92229277198131,3,2024-01-29 09h53.31.969076 +0200,
7,exp3.png,exp4.png,,0,0,0,0,0,7,7,7,,,,,,,,,,,,,,,,,,,,,,,,,91.54927479999606,,,,,,,,,,,,91.406495800009,91.40778169996338,91.40784100000747,False,7,8,False,exp3.png,exp4.png,trial_right_image,94.77596830000402,-1,exp4.png,3,exp4.png,exp3.png,1,1,non-reversed,correct,0.08854043396072886,0,invalid_lose,50.59232509997673,94.7764024999924,95.39075839996804,6,95.39079209999181,97.18777560000308,,,,,,,,,,,,,,,,,,,,,,,,sub_571,2024-01-29_09h53.18.273,Reversal,2023.2.1,59.92229277198131,3,2024-01-29 09h53.31.969076 +0200,
8,exp1.png,exp2.png,,0,0,0,0,0,8,8,8,,,,,,,,,,,,,,,,,,,,,,,,,97.33498549996875,,,,,,,,,,,,97.18827179999789,97.18888309999602,97.18891329999315,False,8,9,True,exp2.png,exp1.png,trial_left_image,100.74118690000614,1,exp2.png,3,exp2.png,exp1.png,1,3,reversed,correct,0.4413632702964513,1,valid_win,56.557583299989346,100.74166399997193,101.3563725000131,7,101.35640759998932,103.15410169999814,,,,,,,,,,,,,,,,,,,,,,,,sub_571,2024-01-29_09h53.18.273,Reversal,2023.2.1,59.92229277198131,3,2024-01-29 09h53.31.969076 +0200,
9,exp3.png,exp4.png,,0,0,0,0,0,9,9,9,,,,,,,,,,,,,,,,,,,,,,,,,103.29891589999897,,,,,,,,,,,,103.15512299997499,103.15631809999468,103.1563785999897,False,9,10,False,exp3.png,exp4.png,trial_left_image,105.85697739996249,1,exp3.png,3,exp4.png,exp3.png,0,2,non-reversed,incorrect,0.9398351821807684,0,valid_lose,61.673266700003296,105.85733819997404,106.47193850000622,7,106.4719696000102,108.26958670001477,,,,,,,,,,,,,,,,,,,,,,,,sub_571,2024-01-29_09h53.18.273,Reversal,2023.2.1,59.92229277198131,3,2024-01-29 09h53.31.969076 +0200,
10,exp1.png,exp2.png,,0,0,0,0,0,10,10,10,,,,,,,,,,,,,,,,,,,,,,,,,108.4159229999641,,,,,,,,,,,,108.27023349999217,108.27099469996756,108.27103239996359,False,10,11,False,exp1.png,exp2.png,trial_right_image,110.92266410001321,-1,exp2.png,3,exp2.png,exp1.png,1,3,reversed,correct,0.27441363936445895,1,valid_win,66.7389510999783,110.92302539997036,111.53808019997086,8,111.53813790000277,113.33554299996467,,,,,,,,,,,,,,,,,,,,,,,,sub_571,2024-01-29_09h53.18.273,Reversal,2023.2.1,59.92229277198131,3,2024-01-29 09h53.31.969076 +0200,
11,exp3.png,exp4.png,,0,0,0,0,0,11,11,11,,,,,,,,,,,,,,,,,,,,,,,,,113.47537770000054,,,,,,,,,,,,113.33618859999115,113.33694979996653,113.33698719996028,False,11,12,True,exp4.png,exp3.png,trial_right_image,116.73866949998774,-1,exp3.png,3,exp4.png,exp3.png,0,2,non-reversed,incorrect,0.6557902728120093,0,valid_lose,72.55485869996483,116.73892629996408,117.35390859999461,8,117.35393589996966,119.15201640001033,,,,,,,,,,,,,,,,,,,,,,,,sub_571,2024-01-29_09h53.18.273,Reversal,2023.2.1,59.92229277198131,3,2024-01-29 09h53.31.969076 +0200,
12,exp1.png,exp2.png,,0,0,0,0,0,12,12,12,,,,,,,,,,,,,,,,,,,,,,,,,119.3066439999966,,,,,,,,,,,,119.15299629996298,119.1541312999907,119.15418979997048,False,12,13,True,exp2.png,exp1.png,trial_left_image,121.00540159997763,1,exp2.png,3,exp2.png,exp1.png,1,3,reversed,correct,0.45383162484174955,1,valid_win,76.82178120000754,121.00585979997413,121.62000019999687,9,121.62003509997157,123.41778129996965,,,,,,,,,,,,,,,,,,,,,,,,sub_571,2024-01-29_09h53.18.273,Reversal,2023.2.1,59.92229277198131,3,2024-01-29 09h53.31.969076 +0200,
13,exp3.png,exp4.png,,0,0,0,0,0,13,13,13,,,,,,,,,,,,,,,,,,,,,,,,,123.56057289999444,,,,,,,,,,,,123.41857019998133,123.41948909999337,123.41953469999135,False,13,14,False,exp3.png,exp4.png,trial_right_image,125.30584149999777,-1,exp4.png,3,exp4.png,exp3.png,1,1,non-reversed,correct,0.5557276461867173,1,valid_win,81.12232969998149,125.30641570000444,125.91947829996934,10,125.91950019996148,127.7173313999665,,,,,,,,,,,,,,,,,,,,,,,,sub_571,2024-01-29_09h53.18.273,Reversal,2023.2.1,59.92229277198131,3,2024-01-29 09h53.31.969076 +0200,
14,exp1.png,exp2.png,,0,0,0,0,0,14,14,14,,,,,,,,,,,,,,,,,,,,,,,,,127.87653909996152,,,,,,,,,,,,127.71812500001397,127.7190671999706,127.7191134999739,False,14,15,True,exp2.png,exp1.png,trial_left_image,129.6376330999774,1,exp2.png,3,exp2.png,exp1.png,1,3,reversed,correct,0.7615578775169043,1,valid_win,85.45395459997235,129.6380309999804,130.25221199996304,11,130.25224439997692,132.05002510000486,,,,,,,,,,,,,,,,,,,,,,,,sub_571,2024-01-29_09h53.18.273,Reversal,2023.2.1,59.92229277198131,3,2024-01-29 09h53.31.969076 +0200,
15,exp3.png,exp4.png,,0,0,0,0,0,15,15,15,,,,,,,,,,,,,,,,,,,,,,,,,132.1943706999882,,,,,,,,,,,,132.0507923999685,132.05172059999313,132.05176679999568,False,15,16,True,exp4.png,exp3.png,trial_left_image,133.7204122999683,1,exp4.png,3,exp4.png,exp3.png,1,1,non-reversed,correct,0.570148576294441,1,valid_win,89.53678409999702,133.72086239996133,134.33596709999256,12,134.3360021999688,136.1327222000109,,,,,,,,,,,,,,,,,,,,,,,,sub_571,2024-01-29_09h53.18.273,Reversal,2023.2.1,59.92229277198131,3,2024-01-29 09h53.31.969076 +0200,
16,exp1.png,exp2.png,,0,0,0,0,0,16,16,16,,,,,,,,,,,,,,,,,,,,,,,,,136.280270999996,,,,,,,,,,,,136.1333746999735,136.13415100000566,136.13418900000397,False,16,17,True,exp2.png,exp1.png,trial_left_image,137.92059629998403,1,exp2.png,3,exp2.png,exp1.png,1,3,reversed,correct,0.20713692433571862,0,invalid_lose,93.73724609997589,137.92133679997642,138.53499229997396,12,138.5350208999589,140.33264149999013,,,,,,,,,,,,,,,,,,,,,,,,sub_571,2024-01-29_09h53.18.273,Reversal,2023.2.1,59.92229277198131,3,2024-01-29 09h53.31.969076 +0200,
17,exp3.png,exp4.png,,0,0,0,0,0,17,17,17,,,,,,,,,,,,,,,,,,,,,,,,,140.47702649998246,,,,,,,,,,,,140.33362330001546,140.334779399971,140.33483700000215,False,17,18,True,exp4.png,exp3.png,trial_right_image,142.22089910000795,-1,exp3.png,3,exp4.png,exp3.png,0,2,non-reversed,incorrect,0.12012361682245509,1,invalid_win,98.03759339998942,142.2216908999835,142.83344939997187,13,142.83347329997923,144.63198269996792,,,,,,,,,,,,,,,,,,,,,,,,sub_571,2024-01-29_09h53.18.273,Reversal,2023.2.1,59.92229277198131,3,2024-01-29 09h53.31.969076 +0200,
18,exp1.png,exp2.png,,0,0,0,0,0,18,18,18,,,,,,,,,,,,,,,,,,,,,,,,,144.7908666000003,,,,,,,,,,,,144.6329847999732,144.6341635999852,144.63422119995812,False,18,19,False,exp1.png,exp2.png,trial_right_image,146.8008782999823,-1,exp2.png,3,exp2.png,exp1.png,1,3,reversed,correct,0.8360774288216508,1,valid_win,102.61703399999533,146.8010986999725,147.41715180000756,14,147.4171975000063,149.21452229999704,,,,,,,,,,,,,,,,,,,,,,,,sub_571,2024-01-29_09h53.18.273,Reversal,2023.2.1,59.92229277198131,3,2024-01-29 09h53.31.969076 +0200,
19,exp3.png,exp4.png,,0,0,0,0,0,19,19,19,,,,,,,,,,,,,,,,,,,,,,,,,149.35608639998827,,,,,,,,,,,,149.21525690000271,149.21613439999055,149.2161741000018,False,19,20,True,exp4.png,exp3.png,trial_right_image,152.23502299998654,-1,exp3.png,3,exp4.png,exp3.png,0,2,non-reversed,incorrect,0.6376907095945381,0,valid_lose,108.0514352999744,152.23551540001063,152.84927189996233,14,152.8493112999713,154.6469663999742,,,,,,,,,,,,,,,,,,,,,,,,sub_571,2024-01-29_09h53.18.273,Reversal,2023.2.1,59.92229277198131,3,2024-01-29 09h53.31.969076 +0200,
20,exp1.png,exp2.png,,0,0,0,0,0,20,20,20,,,,,,,,,,,,,,,,,,,,,,,,,154.8412537999684,,,,,,,,,,,,154.64763299998594,154.64841019996675,154.64844789996278,True,,,,,,,154.74349660001462,,,,,,,,,,,,,,154.7435136999702,154.75648569996702,,154.75650239997776,154.77454349998152,,,,,,,,,,,,,,,,,,,,,,,,sub_571,2024-01-29_09h53.18.273,Reversal,2023.2.1,59.92229277198131,3,2024-01-29 09h53.31.969076 +0200,
,,,exp1.png,0,0,0,0,,,,,0,0,0,0,0,0,0,0,,,,,,,,,,,,,,,,,154.8412537999684,,,,,,,,,,,,,,,,,,,,,,,,,,,,,,,,,,,,,,,,,154.78176079998957,154.8412537999684,168.61840859998483,None,None,[],,,,,,,,,,,,,,,,,,sub_571,2024-01-29_09h53.18.273,Reversal,2023.2.1,59.92229277198131,3,2024-01-29 09h53.31.969076 +0200,
,,,exp2.png,0,0,0,0,,,,,0,0,0,0,0,1,1,1,,,,,,,,,,,,,,,,,168.6865514999954,,,,,,,,,,,,,,,,,,,,,,,,,,,,,,,,,,,,,,,,,168.6215824999963,168.6865514999954,169.0998165999772,None,None,[],,,,,,,,,,,,,,,,,,sub_571,2024-01-29_09h53.18.273,Reversal,2023.2.1,59.92229277198131,3,2024-01-29 09h53.31.969076 +0200,
,,,exp3.png,0,0,0,0,,,,,0,0,0,0,0,2,2,2,,,,,,,,,,,,,,,,,169.16148979996797,,,,,,,,,,,,,,,,,,,,,,,,,,,,,,,,,,,,,,,,,169.1003413000144,169.16148979996797,183.14736669999547,18.0,13.120598800014704,"[(48.0, 6.387947200040799), (18.0, 13.120598800014704)]",18.0,,,,,,,,,,,,,,,,,sub_571,2024-01-29_09h53.18.273,Reversal,2023.2.1,59.92229277198131,3,2024-01-29 09h53.31.969076 +0200,
,,,exp4.png,0,0,0,0,,,,,0,0,0,0,0,3,3,3,,,,,,,,,,,,,,,,,183.2087041999912,,,,,,,,,,,,,,,,,,,,,,,,,,,,,,,,,,,,,,,,,183.1478194000083,183.2087041999912,190.88052229996538,82.0,6.675636300002225,"[(82.0, 6.675636300002225)]",,82.0,,,,,,,,,,,,,,,,sub_571,2024-01-29_09h53.18.273,Reversal,2023.2.1,59.92229277198131,3,2024-01-29 09h53.31.969076 +0200,
0,exp1.png,exp2.png,,1,0,1,0,0,0,0,0,,,,,,,,,,,,,,,,,,,,,,,,,191.00648440001532,,,,,,,,,,,,190.88896829995792,190.88984640000854,190.88986689999,False,20,21,False,exp1.png,exp2.png,trial_right_image,193.98054600000614,-1,exp2.png,3,exp2.png,exp1.png,1,3,reversed,correct,0.33600319267559753,1,valid_win,149.7972640999942,193.98136269999668,194.5940014999942,15,194.59404669998912,196.39139800000703,,,,,,,,,,,,,,,,,,,,,,,,sub_571,2024-01-29_09h53.18.273,Reversal,2023.2.1,59.92229277198131,3,2024-01-29 09h53.31.969076 +0200,
1,exp3.png,exp4.png,,1,0,1,0,0,1,1,1,,,,,,,,,,,,,,,,,,,,,,,,,196.51850959996227,,,,,,,,,,,,196.3918378999806,196.39243080001324,196.39245629997458,False,21,22,True,exp4.png,exp3.png,trial_left_image,199.16270589997293,1,exp4.png,3,exp4.png,exp3.png,1,1,non-reversed,correct,0.8542281100270415,1,valid_win,154.97930649999762,199.16342619998613,199.7762252999819,16,199.7762503999984,201.57402770000044,,,,,,,,,,,,,,,,,,,,,,,,sub_571,2024-01-29_09h53.18.273,Reversal,2023.2.1,59.92229277198131,3,2024-01-29 09h53.31.969076 +0200,
2,exp1.png,exp2.png,,1,0,1,0,0,2,2,2,,,,,,,,,,,,,,,,,,,,,,,,,201.71689019998303,,,,,,,,,,,,201.57446370000253,201.57506549998652,201.57509110000683,False,22,23,False,exp1.png,exp2.png,trial_right_image,203.47914599999785,-1,exp2.png,3,exp2.png,exp1.png,1,3,reversed,correct,0.20248670457393692,0,invalid_lose,159.29561949998606,203.47970490000444,204.09244229999604,16,204.09245669998927,205.89055239997106,,,,,,,,,,,,,,,,,,,,,,,,sub_571,2024-01-29_09h53.18.273,Reversal,2023.2.1,59.92229277198131,3,2024-01-29 09h53.31.969076 +0200,
3,exp3.png,exp4.png,,1,0,1,0,0,3,3,3,,,,,,,,,,,,,,,,,,,,,,,,,206.02884449996054,,,,,,,,,,,,205.89119629998459,205.89197120000608,205.89200940000592,False,23,24,False,exp3.png,exp4.png,trial_right_image,207.76121229998535,-1,exp4.png,3,exp4.png,exp3.png,1,1,non-reversed,correct,0.5728815394913358,1,valid_win,163.57752699998673,207.76160289999098,208.37591609999072,17,208.37595539999893,210.17309080000268,,,,,,,,,,,,,,,,,,,,,,,,sub_571,2024-01-29_09h53.18.273,Reversal,2023.2.1,59.92229277198131,3,2024-01-29 09h53.31.969076 +0200,
4,exp1.png,exp2.png,,1,0,1,0,0,4,4,4,,,,,,,,,,,,,,,,,,,,,,,,,210.3110153999878,,,,,,,,,,,,210.1736635999987,210.17431779997423,210.17435109999496,False,24,25,True,exp2.png,exp1.png,trial_right_image,211.94416239997372,-1,exp1.png,3,exp2.png,exp1.png,0,4,reversed,incorrect,0.6860093494851905,0,valid_lose,167.7606938999961,211.94478510000044,212.558950799983,17,212.55899469996803,214.35624920000555,,,,,,,,,,,,,,,,,,,,,,,,sub_571,2024-01-29_09h53.18.273,Reversal,2023.2.1,59.92229277198131,3,2024-01-29 09h53.31.969076 +0200,
5,exp3.png,exp4.png,,1,0,1,0,0,5,5,5,,,,,,,,,,,,,,,,,,,,,,,,,214.5107901999727,,,,,,,,,,,,214.3570766999619,214.3580743999919,214.35813070001313,False,25,26,True,exp4.png,exp3.png,trial_left_image,217.02616030001082,1,exp4.png,3,exp4.png,exp3.png,1,1,non-reversed,correct,0.05064081438678536,0,invalid_lose,172.84247129998403,217.02654629998142,217.64078499999596,17,217.64080649998505,219.43980399996508,,,,,,,,,,,,,,,,,,,,,,,,sub_571,2024-01-29_09h53.18.273,Reversal,2023.2.1,59.92229277198131,3,2024-01-29 09h53.31.969076 +0200,
6,exp1.png,exp2.png,,1,0,1,0,0,6,6,6,,,,,,,,,,,,,,,,,,,,,,,,,219.57921860000351,,,,,,,,,,,,219.44083460001275,219.44194819999393,219.44200669997372,False,26,27,True,exp2.png,exp1.png,trial_left_image,221.17536900000414,1,exp2.png,3,exp2.png,exp1.png,1,3,reversed,correct,0.48160510754778996,1,valid_win,176.9917049999931,221.17578160000267,221.79050579998875,18,221.79054429999087,223.58886099996744,,,,,,,,,,,,,,,,,,,,,,,,sub_571,2024-01-29_09h53.18.273,Reversal,2023.2.1,59.92229277198131,3,2024-01-29 09h53.31.969076 +0200,
7,exp3.png,exp4.png,,1,0,1,0,0,7,7,7,,,,,,,,,,,,,,,,,,,,,,,,,223.73579639999662,,,,,,,,,,,,223.5898443000042,223.5909898999962,223.59104999998817,False,27,28,False,exp3.png,exp4.png,trial_right_image,225.47503009997308,-1,exp4.png,3,exp4.png,exp3.png,1,1,non-reversed,correct,0.14899665213614832,0,invalid_lose,181.29134920000797,225.47542579995934,226.08973339997465,18,226.08977779996349,227.88835480000125,,,,,,,,,,,,,,,,,,,,,,,,sub_571,2024-01-29_09h53.18.273,Reversal,2023.2.1,59.92229277198131,3,2024-01-29 09h53.31.969076 +0200,
8,exp1.png,exp2.png,,1,0,1,0,0,8,8,8,,,,,,,,,,,,,,,,,,,,,,,,,228.03361439995933,,,,,,,,,,,,227.88932219997514,227.89046359999338,227.89052129996708,False,28,29,True,exp2.png,exp1.png,trial_left_image,229.39197429997148,1,exp2.png,3,exp2.png,exp1.png,1,3,reversed,correct,0.5474030467399527,1,valid_win,185.2085160999559,229.3926050000009,230.00613100000191,19,230.006162900012,231.80383829999482,,,,,,,,,,,,,,,,,,,,,,,,sub_571,2024-01-29_09h53.18.273,Reversal,2023.2.1,59.92229277198131,3,2024-01-29 09h53.31.969076 +0200,
9,exp3.png,exp4.png,,1,0,1,0,0,9,9,9,,,,,,,,,,,,,,,,,,,,,,,,,231.92857799999183,,,,,,,,,,,,231.80434099998092,231.8049513999722,231.80497950001154,False,29,30,True,exp4.png,exp3.png,trial_left_image,233.45844059996307,1,exp4.png,3,exp4.png,exp3.png,1,1,non-reversed,correct,0.7079698046495945,1,valid_win,189.27491390000796,233.45899770001415,234.07233329996234,20,234.07236879999982,235.86992849997478,,,,,,,,,,,,,,,,,,,,,,,,sub_571,2024-01-29_09h53.18.273,Reversal,2023.2.1,59.92229277198131,3,2024-01-29 09h53.31.969076 +0200,
10,exp1.png,exp2.png,,1,0,1,0,0,10,10,10,,,,,,,,,,,,,,,,,,,,,,,,,236.0068605999695,,,,,,,,,,,,235.87077119998867,235.8716998999589,235.87174530001357,False,30,31,False,exp1.png,exp2.png,trial_right_image,237.75787839997793,-1,exp2.png,3,exp2.png,exp1.png,1,3,reversed,correct,0.055668615117887565,0,invalid_lose,193.57436480000615,237.75844909995794,238.37145579996286,20,238.3714839000022,240.16930319997482,,,,,,,,,,,,,,,,,,,,,,,,sub_571,2024-01-29_09h53.18.273,Reversal,2023.2.1,59.92229277198131,3,2024-01-29 09h53.31.969076 +0200,
11,exp3.png,exp4.png,,1,0,1,0,0,11,11,11,,,,,,,,,,,,,,,,,,,,,,,,,240.29786950000562,,,,,,,,,,,,240.16985219996423,240.17042049998417,240.17045350000262,False,31,32,True,exp4.png,exp3.png,trial_left_image,241.88955849997,1,exp4.png,3,exp4.png,exp3.png,1,1,non-reversed,correct,0.19507976089377999,0,invalid_lose,197.70586329995422,241.88993830000982,242.50425699999323,20,242.50429529999383,244.3022106999997,,,,,,,,,,,,,,,,,,,,,,,,sub_571,2024-01-29_09h53.18.273,Reversal,2023.2.1,59.92229277198131,3,2024-01-29 09h53.31.969076 +0200,
12,exp1.png,exp2.png,,1,0,1,0,0,12,12,12,,,,,,,,,,,,,,,,,,,,,,,,,244.43700059998082,,,,,,,,,,,,244.30300339998212,244.30383689998416,244.30387539998628,False,32,33,True,exp2.png,exp1.png,trial_left_image,245.85609750001458,1,exp2.png,3,exp2.png,exp1.png,1,3,reversed,correct,0.9635433139925517,1,valid_win,201.67250149999745,245.85658219998004,246.4703830999788,21,246.47040990000824,248.2686515999958,,,,,,,,,,,,,,,,,,,,,,,,sub_571,2024-01-29_09h53.18.273,Reversal,2023.2.1,59.92229277198131,3,2024-01-29 09h53.31.969076 +0200,
13,exp3.png,exp4.png,,1,0,1,0,0,13,13,13,,,,,,,,,,,,,,,,,,,,,,,,,248.40081419999478,,,,,,,,,,,,248.26932959997794,248.27013429999352,248.2701723999926,False,33,34,False,exp3.png,exp4.png,trial_left_image,249.58851550001418,1,exp3.png,3,exp4.png,exp3.png,0,2,non-reversed,incorrect,0.5352181596162228,0,valid_lose,205.40484709996963,249.58892439998453,250.20332949998556,21,250.20335600001272,252.0008858999936,,,,,,,,,,,,,,,,,,,,,,,,sub_571,2024-01-29_09h53.18.273,Reversal,2023.2.1,59.92229277198131,3,2024-01-29 09h53.31.969076 +0200,
14,exp1.png,exp2.png,,1,0,1,0,0,14,14,14,,,,,,,,,,,,,,,,,,,,,,,,,252.1266825000057,,,,,,,,,,,,252.0013839000021,252.00198930001352,252.0020208999631,False,34,35,True,exp2.png,exp1.png,trial_left_image,253.47110510000493,1,exp2.png,3,exp2.png,exp1.png,1,3,reversed,correct,0.06711917665574207,0,invalid_lose,209.28735779999988,253.47142969997367,254.0858285999857,21,254.0858528999961,255.88430929998867,,,,,,,,,,,,,,,,,,,,,,,,sub_571,2024-01-29_09h53.18.273,Reversal,2023.2.1,59.92229277198131,3,2024-01-29 09h53.31.969076 +0200,
15,exp3.png,exp4.png,,1,0,1,0,0,15,15,15,,,,,,,,,,,,,,,,,,,,,,,,,256.0139944999828,,,,,,,,,,,,255.88496289995965,255.88577429996803,255.88581259996863,False,35,36,False,exp3.png,exp4.png,trial_right_image,257.4705273999716,-1,exp4.png,3,exp4.png,exp3.png,1,1,non-reversed,correct,0.21663424958929034,0,invalid_lose,213.28687169996556,257.47094829997513,258.08594540000195,21,258.0859936999623,259.8835193999694,,,,,,,,,,,,,,,,,,,,,,,,sub_571,2024-01-29_09h53.18.273,Reversal,2023.2.1,59.92229277198131,3,2024-01-29 09h53.31.969076 +0200,
16,exp1.png,exp2.png,,1,0,1,0,0,16,16,16,,,,,,,,,,,,,,,,,,,,,,,,,260.0109292999841,,,,,,,,,,,,259.8840643999865,259.88470519997645,259.8847357999766,False,36,37,False,exp1.png,exp2.png,trial_right_image,261.68692569999257,-1,exp2.png,3,exp2.png,exp1.png,1,3,reversed,correct,0.23381723158476642,0,invalid_lose,217.5032402999932,261.6873151999898,262.30191119998926,21,262.30194559996016,264.10036270000273,,,,,,,,,,,,,,,,,,,,,,,,sub_571,2024-01-29_09h53.18.273,Reversal,2023.2.1,59.92229277198131,3,2024-01-29 09h53.31.969076 +0200,
17,exp3.png,exp4.png,,1,0,1,0,0,17,17,17,,,,,,,,,,,,,,,,,,,,,,,,,264.24138379999204,,,,,,,,,,,,264.1012920999783,264.1023218999617,264.10237320000306,False,37,38,False,exp3.png,exp4.png,trial_right_image,265.9201266999589,-1,exp4.png,3,exp4.png,exp3.png,1,1,non-reversed,correct,0.5635396459839105,1,valid_win,221.73656759998994,265.9206504999893,266.5343375999946,22,266.53436049999436,268.33262150001246,,,,,,,,,,,,,,,,,,,,,,,,sub_571,2024-01-29_09h53.18.273,Reversal,2023.2.1,59.92229277198131,3,2024-01-29 09h53.31.969076 +0200,
18,exp1.png,exp2.png,,1,0,1,0,0,18,18,18,,,,,,,,,,,,,,,,,,,,,,,,,268.4796434000018,,,,,,,,,,,,268.3332834999892,268.33416069997475,268.3342193000135,False,38,39,False,exp1.png,exp2.png,trial_right_image,270.2370406999835,-1,exp2.png,3,exp2.png,exp1.png,1,3,reversed,correct,0.7765247404569613,1,valid_win,226.0536104000057,270.23770030000014,270.85063020000234,23,270.8506630999618,272.6490325999912,,,,,,,,,,,,,,,,,,,,,,,,sub_571,2024-01-29_09h53.18.273,Reversal,2023.2.1,59.92229277198131,3,2024-01-29 09h53.31.969076 +0200,
19,exp3.png,exp4.png,,1,0,1,0,0,19,19,19,,,,,,,,,,,,,,,,,,,,,,,,,272.7927686999901,,,,,,,,,,,,272.6498881999869,272.6509533000062,272.65100289997645,False,39,40,True,exp4.png,exp3.png,trial_left_image,274.36837719997857,1,exp4.png,3,exp4.png,exp3.png,1,1,non-reversed,correct,0.3426434525078398,1,valid_win,230.18462249997538,274.3686938000028,274.9839958999655,24,274.9840448999894,276.78170880000107,,,,,,,,,,,,,,,,,,,,,,,,sub_571,2024-01-29_09h53.18.273,Reversal,2023.2.1,59.92229277198131,3,2024-01-29 09h53.31.969076 +0200,
20,exp1.png,exp2.png,,1,0,1,0,0,20,20,20,,,,,,,,,,,,,,,,,,,,,,,,,276.97294669999974,,,,,,,,,,,,276.782432899985,276.7832798999734,276.7833210999961,True,,,,,,,276.8688230999978,,,,,,,,,,,,,,276.8688389000017,276.88156269997125,,276.8815820000018,276.89891389996046,,,,,,,,,,,,,,,,,,,,,,,,sub_571,2024-01-29_09h53.18.273,Reversal,2023.2.1,59.92229277198131,3,2024-01-29 09h53.31.969076 +0200,
,,,exp1.png,1,0,1,0,,,,,0,0,0,0,0,0,0,0,,,,,,,,,,,,,,,,,276.97294669999974,,,,,,,,,,,,,,,,,,,,,,,,,,,,,,,,,,,,,,,,,276.90818279999075,276.97294669999974,281.602558100014,64.0,3.835191100020893,"[(64.0, 3.835191100020893)]",,,64.0,,,,,,,,,,,,,,,sub_571,2024-01-29_09h53.18.273,Reversal,2023.2.1,59.92229277198131,3,2024-01-29 09h53.31.969076 +0200,
,,,exp2.png,1,0,1,0,,,,,0,0,0,0,0,1,1,1,,,,,,,,,,,,,,,,,281.66579559998354,,,,,,,,,,,,,,,,,,,,,,,,,,,,,,,,,,,,,,,,,281.6032533000107,281.66579559998354,284.4526509999996,64.0,1.905406799982302,"[(64.0, 1.905406799982302)]",,,,64.0,,,,,,,,,,,,,,sub_571,2024-01-29_09h53.18.273,Reversal,2023.2.1,59.92229277198131,3,2024-01-29 09h53.31.969076 +0200,
,,,exp3.png,1,0,1,0,,,,,0,0,0,0,0,2,2,2,,,,,,,,,,,,,,,,,284.5190179999918,,,,,,,,,,,,,,,,,,,,,,,,,,,,,,,,,,,,,,,,,284.45328789995983,284.5190179999918,286.8521878999891,32.0,1.5507228000205941,"[(32.0, 1.5507228000205941)]",32.0,,,,,,,,,,,,,,,,,sub_571,2024-01-29_09h53.18.273,Reversal,2023.2.1,59.92229277198131,3,2024-01-29 09h53.31.969076 +0200,
,,,exp4.png,1,0,1,0,,,,,0,0,0,0,0,3,3,3,,,,,,,,,,,,,,,,,286.9169462000136,,,,,,,,,,,,,,,,,,,,,,,,,,,,,,,,,,,,,,,,,286.8527753999806,286.9169462000136,289.4172569999937,64.0,1.3189778999658301,"[(64.0, 1.3189778999658301)]",,64.0,,,,,,,,,,,,,,,,sub_571,2024-01-29_09h53.18.273,Reversal,2023.2.1,59.92229277198131,3,2024-01-29 09h53.31.969076 +0200,
0,exp1.png,exp2.png,,2,0,2,0,0,0,0,0,,,,,,,,,,,,,,,,,,,,,,,,,289.5336072999635,,,,,,,,,,,,289.4241569999722,289.4248461999814,289.42486699996516,False,40,41,False,exp1.png,exp2.png,trial_right_image,292.4160184999928,-1,exp2.png,3,exp2.png,exp1.png,1,3,reversed,correct,0.8788066646734595,1,valid_win,248.23228669998934,292.41635979997227,293.0311684999615,25,293.03120039997157,294.82912169996416,,,,,,,,,,,,,,,,,,,,,,,,sub_571,2024-01-29_09h53.18.273,Reversal,2023.2.1,59.92229277198131,3,2024-01-29 09h53.31.969076 +0200,
1,exp3.png,exp4.png,,2,0,2,0,0,1,1,1,,,,,,,,,,,,,,,,,,,,,,,,,294.97385169996414,,,,,,,,,,,,294.82990099996096,294.83084429998416,294.83089199999813,False,41,42,False,exp3.png,exp4.png,trial_right_image,297.43219879997196,-1,exp4.png,3,exp4.png,exp3.png,1,1,non-reversed,correct,0.6166287376125585,1,valid_win,253.24848030001158,297.43255329999374,298.04716069996357,26,298.04719439998735,299.8453287999728,,,,,,,,,,,,,,,,,,,,,,,,sub_571,2024-01-29_09h53.18.273,Reversal,2023.2.1,59.92229277198131,3,2024-01-29 09h53.31.969076 +0200,
2,exp1.png,exp2.png,,2,0,2,0,0,2,2,2,,,,,,,,,,,,,,,,,,,,,,,,,299.9943239999702,,,,,,,,,,,,299.84620699996594,299.8472921999637,299.8473459999659,False,42,43,True,exp2.png,exp1.png,trial_left_image,301.28243299998576,1,exp2.png,3,exp2.png,exp1.png,1,3,reversed,correct,0.9092627677550577,1,valid_win,257.09861359995557,301.28268060000846,301.8968674999778,27,301.8969062999822,303.69463189999806,,,,,,,,,,,,,,,,,,,,,,,,sub_571,2024-01-29_09h53.18.273,Reversal,2023.2.1,59.92229277198131,3,2024-01-29 09h53.31.969076 +0200,
3,exp3.png,exp4.png,,2,0,2,0,0,3,3,3,,,,,,,,,,,,,,,,,,,,,,,,,303.8372076000087,,,,,,,,,,,,303.69541429996025,303.6963196999859,303.69636489998084,False,43,44,True,exp4.png,exp3.png,trial_left_image,306.1662282999605,1,exp4.png,3,exp4.png,exp3.png,1,1,non-reversed,correct,0.13275080844167342,0,invalid_lose,261.9828644999652,306.16695829998935,306.7793103000149,27,306.77934639999876,308.57715829997323,,,,,,,,,,,,,,,,,,,,,,,,sub_571,2024-01-29_09h53.18.273,Reversal,2023.2.1,59.92229277198131,3,2024-01-29 09h53.31.969076 +0200,
4,exp1.png,exp2.png,,2,0,2,0,0,4,4,4,,,,,,,,,,,,,,,,,,,,,,,,,308.7234805999906,,,,,,,,,,,,308.5778740000096,308.5787275999901,308.57876989996294,False,44,45,False,exp1.png,exp2.png,trial_right_image,311.03041209996445,-1,exp2.png,3,exp2.png,exp1.png,1,3,reversed,correct,0.03797423701803093,0,invalid_lose,266.84667140000965,311.0307428999804,311.64522740000393,27,311.645242700004,313.4437575999764,,,,,,,,,,,,,,,,,,,,,,,,sub_571,2024-01-29_09h53.18.273,Reversal,2023.2.1,59.92229277198131,3,2024-01-29 09h53.31.969076 +0200,
5,exp3.png,exp4.png,,2,0,2,0,0,5,5,5,,,,,,,,,,,,,,,,,,,,,,,,,313.60113389999606,,,,,,,,,,,,313.44474080001237,313.445995499962,313.4460764999967,False,45,46,True,exp4.png,exp3.png,trial_left_image,315.59785219997866,1,exp4.png,3,exp4.png,exp3.png,1,1,non-reversed,correct,0.47509128207299567,1,valid_win,271.4142515999847,315.5983327999711,316.2114453999675,28,316.2114893000107,318.01000710000517,,,,,,,,,,,,,,,,,,,,,,,,sub_571,2024-01-29_09h53.18.273,Reversal,2023.2.1,59.92229277198131,3,2024-01-29 09h53.31.969076 +0200,
6,exp1.png,exp2.png,,2,0,2,0,0,6,6,6,,,,,,,,,,,,,,,,,,,,,,,,,318.1549670000095,,,,,,,,,,,,318.0109027000144,318.0119271000149,318.01197709998814,False,46,47,False,exp1.png,exp2.png,trial_right_image,320.5127606999595,-1,exp2.png,3,exp2.png,exp1.png,1,3,reversed,correct,0.14589345926090624,0,invalid_lose,276.3290897999541,320.5131662999629,321.12736559996847,28,321.12738739995984,322.92605279997224,,,,,,,,,,,,,,,,,,,,,,,,sub_571,2024-01-29_09h53.18.273,Reversal,2023.2.1,59.92229277198131,3,2024-01-29 09h53.31.969076 +0200,
7,exp3.png,exp4.png,,2,0,2,0,0,7,7,7,,,,,,,,,,,,,,,,,,,,,,,,,323.06597870000405,,,,,,,,,,,,322.92718389997026,322.9283562999917,322.92841499997303,False,47,48,True,exp4.png,exp3.png,trial_left_image,325.1296681999811,1,exp4.png,3,exp4.png,exp3.png,1,1,non-reversed,correct,0.7957540244749579,1,valid_win,280.94607149995863,325.1301523000002,325.74380489997566,29,325.74382329999935,327.54198029998224,,,,,,,,,,,,,,,,,,,,,,,,sub_571,2024-01-29_09h53.18.273,Reversal,2023.2.1,59.92229277198131,3,2024-01-29 09h53.31.969076 +0200,
8,exp1.png,exp2.png,,2,0,2,0,0,8,8,8,,,,,,,,,,,,,,,,,,,,,,,,,327.6886735999724,,,,,,,,,,,,327.54299599997466,327.5443215999985,327.5444111999823,False,48,49,False,exp1.png,exp2.png,trial_right_image,330.3614193999674,-1,exp2.png,3,exp2.png,exp1.png,1,3,reversed,correct,0.4126258519532252,1,valid_win,286.17765609995695,330.3617273999844,330.9765287999762,30,330.97657870000694,332.77440449997084,,,,,,,,,,,,,,,,,,,,,,,,sub_571,2024-01-29_09h53.18.273,Reversal,2023.2.1,59.92229277198131,3,2024-01-29 09h53.31.969076 +0200,
9,exp3.png,exp4.png,,2,0,2,0,0,9,9,9,,,,,,,,,,,,,,,,,,,,,,,,,332.9207544999663,,,,,,,,,,,,332.7753924999852,332.7765340000042,332.77659249998396,False,49,50,True,exp4.png,exp3.png,trial_left_image,334.9104495999636,1,exp4.png,3,exp4.png,exp3.png,1,1,non-reversed,correct,0.31267110042325097,1,valid_win,290.7267169000115,334.91078919998836,335.5256032999605,31,335.52563599997666,337.3237148000044,,,,,,,,,,,,,,,,,,,,,,,,sub_571,2024-01-29_09h53.18.273,Reversal,2023.2.1,59.92229277198131,3,2024-01-29 09h53.31.969076 +0200,
10,exp1.png,exp2.png,,2,0,2,0,0,10,10,10,,,,,,,,,,,,,,,,,,,,,,,,,337.4661724999896,,,,,,,,,,,,337.3242779999855,337.3249645999749,337.32499839999946,False,50,51,True,exp2.png,exp1.png,trial_left_image,340.5768457999802,1,exp2.png,3,exp2.png,exp1.png,1,3,reversed,correct,0.7322294803174899,1,valid_win,296.3931751999771,340.577252099989,341.1917720999918,32,341.19180430000415,342.9901414999622,,,,,,,,,,,,,,,,,,,,,,,,sub_571,2024-01-29_09h53.18.273,Reversal,2023.2.1,59.92229277198131,3,2024-01-29 09h53.31.969076 +0200,
11,exp3.png,exp4.png,,2,0,2,0,0,11,11,11,,,,,,,,,,,,,,,,,,,,,,,,,343.14061449997826,,,,,,,,,,,,342.99114519997966,342.99241870001424,342.9924786000047,False,51,52,True,exp4.png,exp3.png,trial_left_image,344.8925961999921,1,exp4.png,3,exp4.png,exp3.png,1,1,non-reversed,correct,0.42521610404554255,1,valid_win,300.70887559995754,344.89294900000095,345.50783439999213,33,345.5078608999611,347.30579469999066,,,,,,,,,,,,,,,,,,,,,,,,sub_571,2024-01-29_09h53.18.273,Reversal,2023.2.1,59.92229277198131,3,2024-01-29 09h53.31.969076 +0200,
12,exp1.png,exp2.png,,2,0,2,0,0,12,12,12,,,,,,,,,,,,,,,,,,,,,,,,,347.451175299997,,,,,,,,,,,,347.3065904999967,347.30765420000535,347.3076992999995,False,52,53,False,exp1.png,exp2.png,trial_left_image,350.2424917999888,1,exp1.png,3,exp2.png,exp1.png,0,4,reversed,incorrect,0.12941390323976698,1,invalid_win,306.05893589998595,350.2430190999876,350.85701869998593,34,350.85704759997316,352.65454379998846,,,,,,,,,,,,,,,,,,,,,,,,sub_571,2024-01-29_09h53.18.273,Reversal,2023.2.1,59.92229277198131,3,2024-01-29 09h53.31.969076 +0200,
13,exp3.png,exp4.png,,2,0,2,0,0,13,13,13,,,,,,,,,,,,,,,,,,,,,,,,,352.77935079997405,,,,,,,,,,,,352.65494099998614,352.65548610000405,352.65550809999695,False,53,54,False,exp3.png,exp4.png,trial_right_image,354.6913285999908,-1,exp4.png,3,exp4.png,exp3.png,1,1,non-reversed,correct,0.6825361634001972,1,valid_win,310.50765829999,354.6917340999935,355.3063437999808,35,355.3063686999958,357.10480579995783,,,,,,,,,,,,,,,,,,,,,,,,sub_571,2024-01-29_09h53.18.273,Reversal,2023.2.1,59.92229277198131,3,2024-01-29 09h53.31.969076 +0200,
14,exp1.png,exp2.png,,2,0,2,0,0,14,14,14,,,,,,,,,,,,,,,,,,,,,,,,,357.24929219996557,,,,,,,,,,,,357.1058159999666,357.10699689999456,357.10705459996825,False,54,55,True,exp2.png,exp1.png,trial_left_image,359.20773949997965,1,exp2.png,3,exp2.png,exp1.png,1,3,reversed,correct,0.8742519745089051,1,valid_win,315.0239806000027,359.2080516999704,359.8225886999862,36,359.8226083999616,361.6206039999961,,,,,,,,,,,,,,,,,,,,,,,,sub_571,2024-01-29_09h53.18.273,Reversal,2023.2.1,59.92229277198131,3,2024-01-29 09h53.31.969076 +0200,
15,exp3.png,exp4.png,,2,0,2,0,0,15,15,15,,,,,,,,,,,,,,,,,,,,,,,,,361.7648612000048,,,,,,,,,,,,361.6213805999723,361.6222473999951,361.6222953000106,False,55,56,False,exp3.png,exp4.png,trial_right_image,363.8901551999734,-1,exp4.png,3,exp4.png,exp3.png,1,1,non-reversed,correct,0.2171122200994542,0,invalid_lose,319.70643969997764,363.8905131999636,364.5058161999914,36,364.50585019995924,366.3028512999881,,,,,,,,,,,,,,,,,,,,,,,,sub_571,2024-01-29_09h53.18.273,Reversal,2023.2.1,59.92229277198131,3,2024-01-29 09h53.31.969076 +0200,
16,exp1.png,exp2.png,,2,0,2,0,0,16,16,16,,,,,,,,,,,,,,,,,,,,,,,,,366.4370702999877,,,,,,,,,,,,366.30325319996336,366.3037510999711,366.3037725999602,False,56,57,False,exp1.png,exp2.png,trial_right_image,368.37370489997556,-1,exp2.png,3,exp2.png,exp1.png,1,3,reversed,correct,0.8337826146096532,1,valid_win,324.19013319996884,368.37421099998755,368.98818689998006,37,368.98821589996805,370.78586840000935,,,,,,,,,,,,,,,,,,,,,,,,sub_571,2024-01-29_09h53.18.273,Reversal,2023.2.1,59.92229277198131,3,2024-01-29 09h53.31.969076 +0200,
17,exp3.png,exp4.png,,2,0,2,0,0,17,17,17,,,,,,,,,,,,,,,,,,,,,,,,,370.933363499993,,,,,,,,,,,,370.78662209998583,370.787504900014,370.7875463999808,False,57,58,True,exp4.png,exp3.png,trial_left_image,373.43948120001005,1,exp4.png,3,exp4.png,exp3.png,1,1,non-reversed,correct,0.512880337440179,1,valid_win,329.25584529998014,373.4399240000057,374.05387289996725,38,374.05389949999517,375.8517675999901,,,,,,,,,,,,,,,,,,,,,,,,sub_571,2024-01-29_09h53.18.273,Reversal,2023.2.1,59.92229277198131,3,2024-01-29 09h53.31.969076 +0200,
18,exp1.png,exp2.png,,2,0,2,0,0,18,18,18,,,,,,,,,,,,,,,,,,,,,,,,,375.9848445999669,,,,,,,,,,,,375.8521984000108,375.8527274999651,375.85275089996867,False,58,59,True,exp2.png,exp1.png,trial_left_image,379.40488589997403,1,exp2.png,3,exp2.png,exp1.png,1,3,reversed,correct,0.9273987385806943,1,valid_win,335.2211485999869,379.4052210999653,380.0195396000054,39,380.019561299996,381.8175917000044,,,,,,,,,,,,,,,,,,,,,,,,sub_571,2024-01-29_09h53.18.273,Reversal,2023.2.1,59.92229277198131,3,2024-01-29 09h53.31.969076 +0200,
19,exp3.png,exp4.png,,2,0,2,0,0,19,19,19,,,,,,,,,,,,,,,,,,,,,,,,,381.960291699972,,,,,,,,,,,,381.81822680000914,381.81910879997304,381.8191476999782,False,59,60,False,exp3.png,exp4.png,trial_right_image,386.70433749997756,-1,exp4.png,3,exp4.png,exp3.png,1,1,non-reversed,correct,0.6815891399087718,1,valid_win,342.52067359996727,386.70474939997075,387.3190147000132,40,387.3190431999974,389.11715399997775,,,,,,,,,,,,,,,,,,,,,,,,sub_571,2024-01-29_09h53.18.273,Reversal,2023.2.1,59.92229277198131,3,2024-01-29 09h53.31.969076 +0200,
20,exp1.png,exp2.png,,2,0,2,0,0,20,20,20,,,,,,,,,,,,,,,,,,,,,,,,,389.31935459998203,,,,,,,,,,,,389.11813039996196,389.1192632999737,389.1193210000056,True,,,,,,,389.20605549996253,,,,,,,,,,,,,,389.2060723999748,389.2273691999726,,389.2273862999864,389.24454819998937,,,,,,,,,,,,,,,,,,,,,,,,sub_571,2024-01-29_09h53.18.273,Reversal,2023.2.1,59.92229277198131,3,2024-01-29 09h53.31.969076 +0200,
,,,exp1.png,2,0,2,0,,,,,0,0,0,0,0,0,0,0,,,,,,,,,,,,,,,,,389.31935459998203,,,,,,,,,,,,,,,,,,,,,,,,,,,,,,,,,,,,,,,,,389.24976179999067,389.31935459998203,394.92203859996516,36.0,4.759856500022579,"[(36.0, 4.759856500022579)]",,,36.0,,,,,,,,,,,,,,,sub_571,2024-01-29_09h53.18.273,Reversal,2023.2.1,59.92229277198131,3,2024-01-29 09h53.31.969076 +0200,
,,,exp2.png,2,0,2,0,,,,,0,0,0,0,0,1,1,1,,,,,,,,,,,,,,,,,394.9856884999899,,,,,,,,,,,,,,,,,,,,,,,,,,,,,,,,,,,,,,,,,394.9229802999762,394.9856884999899,398.70431289996486,99.0,2.7520086000440642,"[(99.0, 2.7520086000440642)]",,,,99.0,,,,,,,,,,,,,,sub_571,2024-01-29_09h53.18.273,Reversal,2023.2.1,59.92229277198131,3,2024-01-29 09h53.31.969076 +0200,
,,,exp3.png,2,0,2,0,,,,,0,0,0,0,0,2,2,2,,,,,,,,,,,,,,,,,398.76656640000874,,,,,,,,,,,,,,,,,,,,,,,,,,,,,,,,,,,,,,,,,398.70487409998896,398.76656640000874,402.63662890001433,12.0,3.0390828999807127,"[(12.0, 3.0390828999807127)]",12.0,,,,,,,,,,,,,,,,,sub_571,2024-01-29_09h53.18.273,Reversal,2023.2.1,59.92229277198131,3,2024-01-29 09h53.31.969076 +0200,
,,,exp4.png,2,0,2,0,,,,,0,0,0,0,0,3,3,3,,,,,,,,,,,,,,,,,402.6975938999676,,,,,,,,,,,,,,,,,,,,,,,,,,,,,,,,,,,,,,,,,402.63718459999654,402.6975938999676,405.9525723999832,84.0,2.3057263999944553,"[(84.0, 2.3057263999944553)]",,84.0,,,,,,,,,,,,,,,,sub_571,2024-01-29_09h53.18.273,Reversal,2023.2.1,59.92229277198131,3,2024-01-29 09h53.31.969076 +0200,
0,exp1.png,exp2.png,,,,,,,,,,,,,,,,,,0,0,0,0,0,0,0,0,,,,,,,,,406.07647959998576,,,,,,,,,,,,,,405.9620231000008,False,0,61,False,exp1.png,exp2.png,trial_right_image,408.9682921000058,-1,exp2.png,3,exp1.png,exp2.png,1,3,reversed,incorrect,0.9471783897110234,0,valid_lose,364.7846589999972,408.96874159999425,409.5830083999899,40,409.58305279997876,411.3805627999827,,,,,,,,,,,405.961289400002,405.96199969999725,361.839265699964,,,,,,,,,,,sub_571,2024-01-29_09h53.18.273,Reversal,2023.2.1,59.92229277198131,3,2024-01-29 09h53.31.969076 +0200,
1,exp3.png,exp4.png,,,,,,,,,,,,,,,,,,0,0,0,0,0,1,1,1,,,,,,,,,411.52909959998215,,,,,,,,,,,,,,411.3820267000119,False,1,62,True,exp4.png,exp3.png,trial_left_image,413.2171457000077,1,exp4.png,3,exp4.png,exp3.png,1,1,non-reversed,correct,0.10702887175865095,0,invalid_lose,369.0334253999754,413.217498300015,413.832375900005,40,413.8324137000018,415.6305307999719,,,,,,,,,,,411.38120830000844,411.3819868999999,,,,,,,,,,,,sub_571,2024-01-29_09h53.18.273,Reversal,2023.2.1,59.92229277198131,3,2024-01-29 09h53.31.969076 +0200,
2,exp1.png,exp2.png,,,,,,,,,,,,,,,,,,0,0,0,0,0,2,2,2,,,,,,,,,415.7753458999796,,,,,,,,,,,,,,415.63292489998275,False,2,63,True,exp2.png,exp1.png,trial_left_image,417.6359078999958,1,exp2.png,3,exp1.png,exp2.png,1,3,reversed,incorrect,0.5087104629285333,0,valid_lose,373.45275960001163,417.6368935999926,418.24840919999406,40,418.24843089998467,420.0466308000032,,,,,,,,,,,415.63159509998513,415.6328641999862,,,,,,,,,,,,sub_571,2024-01-29_09h53.18.273,Reversal,2023.2.1,59.92229277198131,3,2024-01-29 09h53.31.969076 +0200,
3,exp3.png,exp4.png,,,,,,,,,,,,,,,,,,0,0,0,0,0,3,3,3,,,,,,,,,420.1971152999904,,,,,,,,,,,,,,420.0569619999733,False,3,64,False,exp3.png,exp4.png,trial_right_image,422.549317899975,-1,exp4.png,3,exp4.png,exp3.png,1,1,non-reversed,correct,0.4680256857223265,1,valid_win,378.36556199996267,422.5496326999855,423.164289599983,41,423.16430479998235,424.9625770999701,,,,,,,,,,,420.04759829997784,420.0569018999813,,,,,,,,,,,,sub_571,2024-01-29_09h53.18.273,Reversal,2023.2.1,59.92229277198131,3,2024-01-29 09h53.31.969076 +0200,
4,exp1.png,exp2.png,,,,,,,,,,,,,,,,,,0,0,0,0,0,4,4,4,,,,,,,,,425.1181651999941,,,,,,,,,,,,,,424.9647484999732,False,4,65,False,exp1.png,exp2.png,trial_right_image,427.09883979998995,-1,exp2.png,3,exp1.png,exp2.png,1,3,reversed,incorrect,0.8239459533550211,0,valid_lose,382.9151043999591,427.09917609998956,427.71402660000604,41,427.7140739999595,429.51204219996,,,,,,,,,,,424.96355849999236,424.96468289999757,,,,,,,,,,,,sub_571,2024-01-29_09h53.18.273,Reversal,2023.2.1,59.92229277198131,3,2024-01-29 09h53.31.969076 +0200,
5,exp3.png,exp4.png,,,,,,,,,,,,,,,,,,0,0,0,0,0,5,5,5,,,,,,,,,429.6609884999925,,,,,,,,,,,,,,429.5142027999973,False,5,66,False,exp3.png,exp4.png,trial_right_image,431.5317107999581,-1,exp4.png,3,exp4.png,exp3.png,1,1,non-reversed,correct,0.31797262224929035,1,valid_win,387.34799759997986,431.5320700999582,432.14636569999857,42,432.1463937999797,433.9443336999975,,,,,,,,,,,429.51292840001406,429.5141458999715,,,,,,,,,,,,sub_571,2024-01-29_09h53.18.273,Reversal,2023.2.1,59.92229277198131,3,2024-01-29 09h53.31.969076 +0200,
6,exp1.png,exp2.png,,,,,,,,,,,,,,,,,,0,0,0,0,0,6,6,6,,,,,,,,,434.08700979995774,,,,,,,,,,,,,,433.9457846999867,False,6,67,False,exp1.png,exp2.png,trial_right_image,436.14774350001244,-1,exp2.png,3,exp1.png,exp2.png,1,3,reversed,incorrect,0.6975834761411654,0,valid_lose,391.9640259000007,436.1480993999867,436.76271159999305,42,436.7627378999605,438.56015869998373,,,,,,,,,,,433.9449306000024,433.94574809999904,,,,,,,,,,,,sub_571,2024-01-29_09h53.18.273,Reversal,2023.2.1,59.92229277198131,3,2024-01-29 09h53.31.969076 +0200,
7,exp3.png,exp4.png,,,,,,,,,,,,,,,,,,0,0,0,0,0,7,7,7,,,,,,,,,438.68793839996215,,,,,,,,,,,,,,438.56107170000905,False,7,68,True,exp4.png,exp3.png,trial_left_image,440.51500600000145,1,exp4.png,3,exp4.png,exp3.png,1,1,non-reversed,correct,0.33479655168539413,1,valid_win,396.33148809999693,440.515573200013,441.1291048999992,43,441.12913329998264,442.92742530000396,,,,,,,,,,,438.5605546999723,438.5610483000055,,,,,,,,,,,,sub_571,2024-01-29_09h53.18.273,Reversal,2023.2.1,59.92229277198131,3,2024-01-29 09h53.31.969076 +0200,
8,exp1.png,exp2.png,,,,,,,,,,,,,,,,,,0,0,0,0,0,8,8,8,,,,,,,,,443.0748209999874,,,,,,,,,,,,,,442.92909699998563,False,8,69,False,exp1.png,exp2.png,trial_right_image,445.2465616000118,-1,exp2.png,3,exp1.png,exp2.png,1,3,reversed,incorrect,0.39009355031719584,0,valid_lose,401.06287029996747,445.24694579996867,445.86145889997715,43,445.8614960999694,447.660194600001,,,,,,,,,,,442.92824679997284,442.92905689997133,,,,,,,,,,,,sub_571,2024-01-29_09h53.18.273,Reversal,2023.2.1,59.92229277198131,3,2024-01-29 09h53.31.969076 +0200,
9,exp3.png,exp4.png,,,,,,,,,,,,,,,,,,0,0,0,0,0,9,9,9,,,,,,,,,447.8019407999818,,,,,,,,,,,,,,447.6623736000038,False,9,70,True,exp4.png,exp3.png,trial_left_image,449.46325999998953,1,exp4.png,3,exp4.png,exp3.png,1,1,non-reversed,correct,0.4936412375344249,1,valid_win,405.2798058000044,449.46389539999655,450.0782962999656,44,450.07833489996847,451.87581230001524,,,,,,,,,,,447.66108160000294,447.66231599997263,,,,,,,,,,,,sub_571,2024-01-29_09h53.18.273,Reversal,2023.2.1,59.92229277198131,3,2024-01-29 09h53.31.969076 +0200,
10,exp1.png,exp2.png,,,,,,,,,,,,,,,,,,0,0,0,0,0,10,10,10,,,,,,,,,452.0230240999954,,,,,,,,,,,,,,451.8784028000082,False,10,71,True,exp2.png,exp1.png,trial_left_image,453.8456182999653,1,exp2.png,3,exp1.png,exp2.png,1,3,reversed,incorrect,0.2697122384029462,0,valid_lose,409.66191829997115,453.84599349997006,454.46032069996,44,454.46036789997015,456.2585806999705,,,,,,,,,,,451.8770219999715,451.8782293999684,,,,,,,,,,,,sub_571,2024-01-29_09h53.18.273,Reversal,2023.2.1,59.92229277198131,3,2024-01-29 09h53.31.969076 +0200,
11,exp3.png,exp4.png,,,,,,,,,,,,,,,,,,0,0,0,0,0,11,11,11,,,,,,,,,456.4123813000042,,,,,,,,,,,,,,456.26073079998605,False,11,72,False,exp3.png,exp4.png,trial_right_image,458.2957407999784,-1,exp4.png,3,exp4.png,exp3.png,1,1,non-reversed,correct,0.05990667752139445,0,invalid_lose,414.11223400000017,458.2963158999919,458.90985130000627,44,458.9098804999958,460.7076614999678,,,,,,,,,,,456.25954299996374,456.26066999998875,,,,,,,,,,,,sub_571,2024-01-29_09h53.18.273,Reversal,2023.2.1,59.92229277198131,3,2024-01-29 09h53.31.969076 +0200,
12,exp1.png,exp2.png,,,,,,,,,,,,,,,,,,0,0,0,0,0,12,12,12,,,,,,,,,460.854057599965,,,,,,,,,,,,,,460.7093722000136,False,12,73,True,exp2.png,exp1.png,trial_left_image,462.977451499959,1,exp2.png,3,exp1.png,exp2.png,1,3,reversed,incorrect,0.10422222470603582,1,invalid_win,418.793704599957,462.977776499989,463.5923286000034,45,463.59235170000466,465.39089599996805,,,,,,,,,,,460.70839639997575,460.70932699996047,,,,,,,,,,,,sub_571,2024-01-29_09h53.18.273,Reversal,2023.2.1,59.92229277198131,3,2024-01-29 09h53.31.969076 +0200,
13,exp3.png,exp4.png,,,,,,,,,,,,,,,,,,0,0,0,0,0,13,13,13,,,,,,,,,465.54068899998674,,,,,,,,,,,,,,465.3931990999845,False,13,74,False,exp3.png,exp4.png,trial_right_image,467.4777072999859,-1,exp4.png,3,exp4.png,exp3.png,1,1,non-reversed,correct,0.32371857697529316,1,valid_win,423.29420299996855,467.4782884999877,468.092058899987,46,468.0920860999613,469.8897311000037,,,,,,,,,,,465.3919792000088,465.3931358999689,,,,,,,,,,,,sub_571,2024-01-29_09h53.18.273,Reversal,2023.2.1,59.92229277198131,3,2024-01-29 09h53.31.969076 +0200,
14,exp1.png,exp2.png,,,,,,,,,,,,,,,,,,0,0,0,0,0,14,14,14,,,,,,,,,470.0269263999653,,,,,,,,,,,,,,469.89050709997537,False,14,75,True,exp2.png,exp1.png,trial_left_image,472.29814179998357,1,exp2.png,3,exp1.png,exp2.png,1,3,reversed,incorrect,0.7853783624589857,0,valid_lose,428.1142796999775,472.29834290000144,472.9077590999659,46,472.90778279997176,474.7060855999589,,,,,,,,,,,469.8900668999995,469.8904899999616,,,,,,,,,,,,sub_571,2024-01-29_09h53.18.273,Reversal,2023.2.1,59.92229277198131,3,2024-01-29 09h53.31.969076 +0200,
15,exp3.png,exp4.png,,,,,,,,,,,,,,,,,,0,0,0,0,0,15,15,15,,,,,,,,,474.84765299997525,,,,,,,,,,,,,,474.70744969998486,False,15,76,True,exp4.png,exp3.png,trial_left_image,476.67558519996237,1,exp4.png,3,exp4.png,exp3.png,1,1,non-reversed,correct,0.1725342077388542,0,invalid_lose,432.49186289997306,476.67593629995827,477.29065410001203,46,477.2906709999661,479.08892119996017,,,,,,,,,,,474.7066780999885,474.7074125999934,,,,,,,,,,,,sub_571,2024-01-29_09h53.18.273,Reversal,2023.2.1,59.92229277198131,3,2024-01-29 09h53.31.969076 +0200,
16,exp1.png,exp2.png,,,,,,,,,,,,,,,,,,0,0,0,0,0,16,16,16,,,,,,,,,479.2295987000107,,,,,,,,,,,,,,479.09115200000815,False,16,77,False,exp1.png,exp2.png,trial_left_image,481.892501299968,1,exp1.png,3,exp1.png,exp2.png,0,4,reversed,correct,0.08646000121119224,0,invalid_lose,437.7090581000084,481.89314689999446,482.50700199999847,46,482.50702379998984,484.304518799996,,,,,,,,,,,479.08993289998034,479.09109170001466,,,,,,,,,,,,sub_571,2024-01-29_09h53.18.273,Reversal,2023.2.1,59.92229277198131,3,2024-01-29 09h53.31.969076 +0200,
17,exp3.png,exp4.png,,,,,,,,,,,,,,,,,,0,0,0,0,0,17,17,17,,,,,,,,,484.4300740999752,,,,,,,,,,,,,,484.305489499995,False,17,78,False,exp3.png,exp4.png,trial_right_image,486.2266864000121,-1,exp4.png,3,exp4.png,exp3.png,1,1,non-reversed,correct,0.7585282984109758,1,valid_win,442.04330259998096,486.22739489999367,486.8399539999664,47,486.84000329999253,488.63722500001313,,,,,,,,,,,484.3049335000105,484.3054659999907,,,,,,,,,,,,sub_571,2024-01-29_09h53.18.273,Reversal,2023.2.1,59.92229277198131,3,2024-01-29 09h53.31.969076 +0200,
18,exp1.png,exp2.png,,,,,,,,,,,,,,,,,,0,0,0,0,0,18,18,18,,,,,,,,,488.779283699987,,,,,,,,,,,,,,488.6389020999777,False,18,79,True,exp2.png,exp1.png,trial_left_image,490.77378119999776,1,exp2.png,3,exp1.png,exp2.png,1,3,reversed,incorrect,0.21624864171305835,1,invalid_win,446.58996879996266,490.77403659996344,491.3886891999864,48,491.388702599972,493.18715259997407,,,,,,,,,,,488.6380351000116,488.638858899998,,,,,,,,,,,,sub_571,2024-01-29_09h53.18.273,Reversal,2023.2.1,59.92229277198131,3,2024-01-29 09h53.31.969076 +0200,
19,exp3.png,exp4.png,,,,,,,,,,,,,,,,,,0,0,0,0,0,19,19,19,,,,,,,,,493.3352591000148,,,,,,,,,,,,,,493.1893187999958,False,19,80,True,exp4.png,exp3.png,trial_left_image,495.25676789996214,1,exp4.png,3,exp4.png,exp3.png,1,1,non-reversed,correct,0.9061508525763458,1,valid_win,451.07304609997664,495.25711919995956,495.87272849999135,49,495.87278129998595,497.6690820999793,,,,,,,,,,,493.18812619999517,493.18925840000156,,,,,,,,,,,,sub_571,2024-01-29_09h53.18.273,Reversal,2023.2.1,59.92229277198131,3,2024-01-29 09h53.31.969076 +0200,
20,exp1.png,exp2.png,,,,,,,,,,,,,,,,,,0,0,0,0,0,20,20,20,,,,,,,,,497.8504662999767,,,,,,,,,,,,,,497.66978150000796,True,,,,,,,497.7474387999973,,,,,,,,,,,,,,497.7474560000119,497.7623137999908,,497.7623295999947,497.77902009995887,,,,,,,,,,,497.6693660999881,497.6697658000048,,,,,,,,,,,,sub_571,2024-01-29_09h53.18.273,Reversal,2023.2.1,59.92229277198131,3,2024-01-29 09h53.31.969076 +0200,
,,,exp1.png,,,,,,,,,,,,,,,,,0,0,0,0,,,,,0,0,0,0,0,0,0,0,497.8504662999767,,,,,,,,,,,,,,,,,,,,,,,,,,,,,,,,,,,,,,,,,497.78416599996854,497.8504662999767,502.30637629999546,33.0,3.713983300025575,"[(33.0, 3.713983300025575)]",,,33.0,,,,,,,,,,,,,,,sub_571,2024-01-29_09h53.18.273,Reversal,2023.2.1,59.92229277198131,3,2024-01-29 09h53.31.969076 +0200,
,,,exp2.png,,,,,,,,,,,,,,,,,0,0,0,0,,,,,0,0,0,0,0,1,1,1,502.3682771999738,,,,,,,,,,,,,,,,,,,,,,,,,,,,,,,,,,,,,,,,,502.3069802999962,502.3682771999738,504.41587289999006,85.0,1.7059667999856174,"[(85.0, 1.7059667999856174)]",,,,85.0,,,,,,,,,,,,,,sub_571,2024-01-29_09h53.18.273,Reversal,2023.2.1,59.92229277198131,3,2024-01-29 09h53.31.969076 +0200,
,,,exp3.png,,,,,,,,,,,,,,,,,0,0,0,0,,,,,0,0,0,0,0,2,2,2,504.4770786999725,,,,,,,,,,,,,,,,,,,,,,,,,,,,,,,,,,,,,,,,,504.4163904999732,504.4770786999725,504.8893497000099,None,None,[],,,,,,,,,,,,,,,,,,sub_571,2024-01-29_09h53.18.273,Reversal,2023.2.1,59.92229277198131,3,2024-01-29 09h53.31.969076 +0200,
,,,exp4.png,,,,,,,,,,,,,,,,,0,0,0,0,,,,,0,0,0,0,0,3,3,3,504.94987959996797,,,,,,,,,,,,,,,,,,,,,,,,,,,,,,,,,,,,,,,,,504.8898080000072,504.94987959996797,507.98934839997673,78.0,2.091412399953697,"[(78.0, 2.091412399953697)]",,78.0,,,,,,,,,,,,,,,,sub_571,2024-01-29_09h53.18.273,Reversal,2023.2.1,59.92229277198131,3,2024-01-29 09h53.31.969076 +0200,
0,exp1.png,exp2.png,,,,,,,,,,,,,,,,,,1,0,1,0,0,0,0,0,,,,,,,,,508.1169796999893,,,,,,,,,,,,,,507.99804420000874,False,20,81,True,exp2.png,exp1.png,trial_left_image,510.3884158000001,1,exp2.png,3,exp1.png,exp2.png,1,3,reversed,incorrect,0.746844703251133,0,valid_lose,466.20474469999317,510.38882079999894,511.0031334999949,49,511.00315919995774,512.8013253000099,,,,,,,,,,,507.9973999999929,507.9980268999934,,,,,,,,,,,,sub_571,2024-01-29_09h53.18.273,Reversal,2023.2.1,59.92229277198131,3,2024-01-29 09h53.31.969076 +0200,
1,exp3.png,exp4.png,,,,,,,,,,,,,,,,,,1,0,1,0,0,1,1,1,,,,,,,,,512.939128500002,,,,,,,,,,,,,,512.8033321999828,False,21,82,False,exp3.png,exp4.png,trial_right_image,515.0546852999832,-1,exp4.png,3,exp4.png,exp3.png,1,1,non-reversed,correct,0.5649107025227657,1,valid_win,470.8711420999607,515.0552242000122,515.6689365999773,50,515.6689595999778,517.4669304999989,,,,,,,,,,,512.8022619999829,512.8032700999756,,,,,,,,,,,,sub_571,2024-01-29_09h53.18.273,Reversal,2023.2.1,59.92229277198131,3,2024-01-29 09h53.31.969076 +0200,
2,exp1.png,exp2.png,,,,,,,,,,,,,,,,,,1,0,1,0,0,2,2,2,,,,,,,,,517.6061293999664,,,,,,,,,,,,,,517.4683091999614,False,22,83,True,exp2.png,exp1.png,trial_right_image,520.0373509000055,-1,exp1.png,3,exp1.png,exp2.png,0,4,reversed,correct,0.5047180562269389,1,valid_win,475.85379279998597,520.0378755999845,520.6516500000143,51,520.6516690999852,522.4505017999909,,,,,,,,,,,517.4675386999734,517.468272899976,,,,,,,,,,,,sub_571,2024-01-29_09h53.18.273,Reversal,2023.2.1,59.92229277198131,3,2024-01-29 09h53.31.969076 +0200,
3,exp3.png,exp4.png,,,,,,,,,,,,,,,,,,1,0,1,0,0,3,3,3,,,,,,,,,522.6050032000057,,,,,,,,,,,,,,522.4524887999869,False,23,84,True,exp4.png,exp3.png,trial_left_image,524.4031327000121,1,exp4.png,3,exp4.png,exp3.png,1,1,non-reversed,correct,0.8023510169881813,1,valid_win,480.2194388000062,524.4035128999967,525.0179633999942,52,525.0179925999837,526.8161031999625,,,,,,,,,,,522.4513736999943,522.45243569999,,,,,,,,,,,,sub_571,2024-01-29_09h53.18.273,Reversal,2023.2.1,59.92229277198131,3,2024-01-29 09h53.31.969076 +0200,
4,exp1.png,exp2.png,,,,,,,,,,,,,,,,,,1,0,1,0,0,4,4,4,,,,,,,,,526.9642609999864,,,,,,,,,,,,,,526.8182888000156,False,24,85,True,exp2.png,exp1.png,trial_right_image,529.2359848999768,-1,exp1.png,3,exp1.png,exp2.png,0,4,reversed,correct,0.37976362584228196,1,valid_win,485.05247239995515,529.2365576999728,529.8505304999999,53,529.8505580999772,531.6483509999816,,,,,,,,,,,526.8170817999635,526.8182283999631,,,,,,,,,,,,sub_571,2024-01-29_09h53.18.273,Reversal,2023.2.1,59.92229277198131,3,2024-01-29 09h53.31.969076 +0200,
5,exp3.png,exp4.png,,,,,,,,,,,,,,,,,,1,0,1,0,0,5,5,5,,,,,,,,,531.7998475999921,,,,,,,,,,,,,,531.6498317999649,False,25,86,True,exp4.png,exp3.png,trial_left_image,533.5861337999813,1,exp4.png,3,exp4.png,exp3.png,1,1,non-reversed,correct,0.33051702069436995,1,valid_win,489.40248769999016,533.5865660000127,534.2004738000105,54,534.2005176999955,535.9983493000036,,,,,,,,,,,531.6490004999796,531.649791600008,,,,,,,,,,,,sub_571,2024-01-29_09h53.18.273,Reversal,2023.2.1,59.92229277198131,3,2024-01-29 09h53.31.969076 +0200,
6,exp1.png,exp2.png,,,,,,,,,,,,,,,,,,1,0,1,0,0,6,6,6,,,,,,,,,536.1409296999918,,,,,,,,,,,,,,536.00060629996,False,26,87,False,exp1.png,exp2.png,trial_left_image,538.9011234999634,1,exp1.png,3,exp1.png,exp2.png,0,4,reversed,correct,0.31860927834640584,1,valid_win,494.7173748000059,538.9014461999759,539.5161135999952,55,539.516150099982,541.3138876999728,,,,,,,,,,,535.9993325999822,536.0004964999971,,,,,,,,,,,,sub_571,2024-01-29_09h53.18.273,Reversal,2023.2.1,59.92229277198131,3,2024-01-29 09h53.31.969076 +0200,
7,exp3.png,exp4.png,,,,,,,,,,,,,,,,,,1,0,1,0,0,7,7,7,,,,,,,,,541.4646152000059,,,,,,,,,,,,,,541.3156309999758,False,27,88,False,exp3.png,exp4.png,trial_right_image,543.3844231999828,-1,exp4.png,3,exp4.png,exp3.png,1,1,non-reversed,correct,0.8240061147867157,1,valid_win,499.2008413999574,543.3849237000104,543.9989360999898,56,543.9989683000022,545.7965293999878,,,,,,,,,,,541.3146877000108,541.3155833999626,,,,,,,,,,,,sub_571,2024-01-29_09h53.18.273,Reversal,2023.2.1,59.92229277198131,3,2024-01-29 09h53.31.969076 +0200,
8,exp1.png,exp2.png,,,,,,,,,,,,,,,,,,1,0,1,0,0,8,8,8,,,,,,,,,545.9355080999667,,,,,,,,,,,,,,545.7978849000065,False,28,89,False,exp1.png,exp2.png,trial_left_image,547.6335578999715,1,exp1.png,3,exp1.png,exp2.png,0,4,reversed,correct,0.09521536101359185,0,invalid_lose,503.4498879999737,547.6339645999833,548.2484413000057,56,548.2484729000134,550.0460149999708,,,,,,,,,,,545.7971171999816,545.7978483999614,,,,,,,,,,,,sub_571,2024-01-29_09h53.18.273,Reversal,2023.2.1,59.92229277198131,3,2024-01-29 09h53.31.969076 +0200,
9,exp3.png,exp4.png,,,,,,,,,,,,,,,,,,1,0,1,0,0,9,9,9,,,,,,,,,550.2006181000033,,,,,,,,,,,,,,550.0473845999804,False,29,90,True,exp4.png,exp3.png,trial_left_image,551.8671228999738,1,exp4.png,3,exp4.png,exp3.png,1,1,non-reversed,correct,0.3309862492010802,1,valid_win,507.6835057999706,551.8675866000121,552.480856899987,57,552.480880499992,554.2787749000126,,,,,,,,,,,550.0466169000138,550.0473485999973,,,,,,,,,,,,sub_571,2024-01-29_09h53.18.273,Reversal,2023.2.1,59.92229277198131,3,2024-01-29 09h53.31.969076 +0200,
10,exp1.png,exp2.png,,,,,,,,,,,,,,,,,,1,0,1,0,0,10,10,10,,,,,,,,,554.4186997999786,,,,,,,,,,,,,,554.280128799961,False,30,91,False,exp1.png,exp2.png,trial_left_image,556.9670053999871,1,exp1.png,3,exp1.png,exp2.png,0,4,reversed,correct,0.0017049449366077774,0,invalid_lose,512.7835419999901,556.9676305999747,557.580727899971,57,557.5807460999931,559.378925499972,,,,,,,,,,,554.2793808999704,554.2800915999687,,,,,,,,,,,,sub_571,2024-01-29_09h53.18.273,Reversal,2023.2.1,59.92229277198131,3,2024-01-29 09h53.31.969076 +0200,
11,exp3.png,exp4.png,,,,,,,,,,,,,,,,,,1,0,1,0,0,11,11,11,,,,,,,,,559.5370852999622,,,,,,,,,,,,,,559.3806908999686,False,31,92,False,exp3.png,exp4.png,trial_right_image,561.2323382999748,-1,exp4.png,3,exp4.png,exp3.png,1,1,non-reversed,correct,0.8610176273404945,1,valid_win,517.0487318999949,561.232812399976,561.8462329999893,58,561.8462605999666,563.64487129997,,,,,,,,,,,559.379735799972,559.3806434000144,,,,,,,,,,,,sub_571,2024-01-29_09h53.18.273,Reversal,2023.2.1,59.92229277198131,3,2024-01-29 09h53.31.969076 +0200,
12,exp1.png,exp2.png,,,,,,,,,,,,,,,,,,1,0,1,0,0,12,12,12,,,,,,,,,563.7829630000051,,,,,,,,,,,,,,563.6465234999778,False,32,93,True,exp2.png,exp1.png,trial_left_image,566.1641220999882,1,exp2.png,3,exp1.png,exp2.png,1,3,reversed,incorrect,0.2803544266921425,0,valid_lose,521.9803549000062,566.1644256999716,566.778777599975,58,566.7787923999713,568.5774804999819,,,,,,,,,,,563.6456659999676,563.6464830999612,,,,,,,,,,,,sub_571,2024-01-29_09h53.18.273,Reversal,2023.2.1,59.92229277198131,3,2024-01-29 09h53.31.969076 +0200,
13,exp3.png,exp4.png,,,,,,,,,,,,,,,,,,1,0,1,0,0,13,13,13,,,,,,,,,568.7241404000088,,,,,,,,,,,,,,568.5790794999921,False,33,94,False,exp3.png,exp4.png,trial_right_image,570.497975700011,-1,exp4.png,3,exp4.png,exp3.png,1,1,non-reversed,correct,0.4200492736588767,1,valid_win,526.3144088999834,570.498495900014,571.112401099992,59,571.1124339000089,572.9100903999642,,,,,,,,,,,568.578150199959,568.5790378999664,,,,,,,,,,,,sub_571,2024-01-29_09h53.18.273,Reversal,2023.2.1,59.92229277198131,3,2024-01-29 09h53.31.969076 +0200,
14,exp1.png,exp2.png,,,,,,,,,,,,,,,,,,1,0,1,0,0,14,14,14,,,,,,,,,573.0558024999918,,,,,,,,,,,,,,572.9116180000128,False,34,95,False,exp1.png,exp2.png,trial_left_image,575.5631775999791,1,exp1.png,3,exp1.png,exp2.png,0,4,reversed,correct,0.19423687742829343,0,invalid_lose,531.3794893999584,575.5635646000155,576.1777998000034,59,576.1778243999579,577.9762102999957,,,,,,,,,,,572.9107562999707,572.9115771999932,,,,,,,,,,,,sub_571,2024-01-29_09h53.18.273,Reversal,2023.2.1,59.92229277198131,3,2024-01-29 09h53.31.969076 +0200,
15,exp3.png,exp4.png,,,,,,,,,,,,,,,,,,1,0,1,0,0,15,15,15,,,,,,,,,578.1202504999819,,,,,,,,,,,,,,577.978205899999,False,35,96,False,exp3.png,exp4.png,trial_right_image,579.9964351999806,-1,exp4.png,3,exp4.png,exp3.png,1,1,non-reversed,correct,0.5456188621685208,1,valid_win,535.8128696999629,579.9969521999592,580.6108446000144,60,580.6108701999765,582.4091509999707,,,,,,,,,,,577.9771061000065,577.9781521999976,,,,,,,,,,,,sub_571,2024-01-29_09h53.18.273,Reversal,2023.2.1,59.92229277198131,3,2024-01-29 09h53.31.969076 +0200,
16,exp1.png,exp2.png,,,,,,,,,,,,,,,,,,1,0,1,0,0,16,16,16,,,,,,,,,582.5543870999827,,,,,,,,,,,,,,582.4113997999812,False,36,97,False,exp1.png,exp2.png,trial_right_image,584.6455979999737,-1,exp2.png,3,exp1.png,exp2.png,1,3,reversed,incorrect,0.8191390775785021,0,valid_lose,540.4619283999782,584.6460066,585.2605898999609,60,585.2606398999924,587.0578710999689,,,,,,,,,,,582.4100966000115,582.4113141999696,,,,,,,,,,,,sub_571,2024-01-29_09h53.18.273,Reversal,2023.2.1,59.92229277198131,3,2024-01-29 09h53.31.969076 +0200,
17,exp3.png,exp4.png,,,,,,,,,,,,,,,,,,1,0,1,0,0,17,17,17,,,,,,,,,587.1989197999937,,,,,,,,,,,,,,587.0593764999649,False,37,98,True,exp4.png,exp3.png,trial_left_image,588.7284610999632,1,exp4.png,3,exp4.png,exp3.png,1,1,non-reversed,correct,0.34077344200530824,1,valid_win,544.5448393999832,588.7289190000156,589.3435526000103,61,589.3435884999926,591.1408546000021,,,,,,,,,,,587.0584574000095,587.0593288000091,,,,,,,,,,,,sub_571,2024-01-29_09h53.18.273,Reversal,2023.2.1,59.92229277198131,3,2024-01-29 09h53.31.969076 +0200,
18,exp1.png,exp2.png,,,,,,,,,,,,,,,,,,1,0,1,0,0,18,18,18,,,,,,,,,591.2777802000055,,,,,,,,,,,,,,591.1426378999604,False,38,99,True,exp2.png,exp1.png,trial_left_image,593.6445415999624,1,exp2.png,3,exp1.png,exp2.png,1,3,reversed,incorrect,0.9363708797762739,0,valid_lose,549.4608820999856,593.6449595000013,594.259247799986,61,594.2592768999748,596.0571855999879,,,,,,,,,,,591.1416845999775,591.142597500002,,,,,,,,,,,,sub_571,2024-01-29_09h53.18.273,Reversal,2023.2.1,59.92229277198131,3,2024-01-29 09h53.31.969076 +0200,
19,exp3.png,exp4.png,,,,,,,,,,,,,,,,,,1,0,1,0,0,19,19,19,,,,,,,,,596.2018818999641,,,,,,,,,,,,,,596.0585214999737,False,39,100,True,exp4.png,exp3.png,trial_left_image,597.7945008999668,1,exp4.png,3,exp4.png,exp3.png,1,1,non-reversed,correct,0.9859530985641767,1,valid_win,553.6108961999998,597.7949766999809,598.4086312999716,62,598.4086580000003,600.2067339000059,,,,,,,,,,,596.0577743999893,596.0584850999876,,,,,,,,,,,,sub_571,2024-01-29_09h53.18.273,Reversal,2023.2.1,59.92229277198131,3,2024-01-29 09h53.31.969076 +0200,
20,exp1.png,exp2.png,,,,,,,,,,,,,,,,,,1,0,1,0,0,20,20,20,,,,,,,,,600.4117128999787,,,,,,,,,,,,,,600.2089450999629,True,,,,,,,600.29827629996,,,,,,,,,,,,,,600.2982927999692,600.3122543999925,,600.3122714000056,600.3364674999611,,,,,,,,,,,600.2077386999736,600.208884099964,,,,,,,,,,,,sub_571,2024-01-29_09h53.18.273,Reversal,2023.2.1,59.92229277198131,3,2024-01-29 09h53.31.969076 +0200,
,,,exp1.png,,,,,,,,,,,,,,,,,1,0,1,0,,,,,0,0,0,0,0,0,0,0,600.4117128999787,,,,,,,,,,,,,,,,,,,,,,,,,,,,,,,,,,,,,,,,,600.3459524000064,600.4117128999787,605.0939017999917,27.0,3.8395276999799535,"[(27.0, 3.8395276999799535)]",,,27.0,,,,,,,,,,,,,,,sub_571,2024-01-29_09h53.18.273,Reversal,2023.2.1,59.92229277198131,3,2024-01-29 09h53.31.969076 +0200,
,,,exp2.png,,,,,,,,,,,,,,,,,1,0,1,0,,,,,0,0,0,0,0,1,1,1,605.1550274000037,,,,,,,,,,,,,,,,,,,,,,,,,,,,,,,,,,,,,,,,,605.0946013999637,605.1550274000037,607.7278883999679,77.0,1.6557534000021406,"[(77.0, 1.6557534000021406)]",,,,77.0,,,,,,,,,,,,,,sub_571,2024-01-29_09h53.18.273,Reversal,2023.2.1,59.92229277198131,3,2024-01-29 09h53.31.969076 +0200,
,,,exp3.png,,,,,,,,,,,,,,,,,1,0,1,0,,,,,0,0,0,0,0,2,2,2,607.7934193999972,,,,,,,,,,,,,,,,,,,,,,,,,,,,,,,,,,,,,,,,,607.7285240999772,607.7934193999972,611.7615120999981,15.0,3.0522398999892175,"[(15.0, 3.0522398999892175)]",15.0,,,,,,,,,,,,,,,,,sub_571,2024-01-29_09h53.18.273,Reversal,2023.2.1,59.92229277198131,3,2024-01-29 09h53.31.969076 +0200,
,,,exp4.png,,,,,,,,,,,,,,,,,1,0,1,0,,,,,0,0,0,0,0,3,3,3,611.8269893999677,,,,,,,,,,,,,,,,,,,,,,,,,,,,,,,,,,,,,,,,,611.7624671999947,611.8269893999677,614.576767099963,79.0,1.7664486999856308,"[(79.0, 1.7664486999856308)]",,79.0,,,,,,,,,,,,,,,,sub_571,2024-01-29_09h53.18.273,Reversal,2023.2.1,59.92229277198131,3,2024-01-29 09h53.31.969076 +0200,
0,exp1.png,exp2.png,,,,,,,,,,,,,,,,,,2,0,2,0,0,0,0,0,,,,,,,,,614.7111847999622,,,,,,,,,,,,,,614.586137300008,False,40,101,False,exp1.png,exp2.png,trial_left_image,618.2743488000124,1,exp1.png,3,exp1.png,exp2.png,0,4,reversed,correct,0.6022294920579442,1,valid_win,574.0906516999821,618.2747272999841,618.8897609999985,63,618.8898060999927,620.686864999996,,,,,,,,,,,614.5852895000135,614.5861162999645,,,,,,,,,,,,sub_571,2024-01-29_09h53.18.273,Reversal,2023.2.1,59.92229277198131,3,2024-01-29 09h53.31.969076 +0200,
1,exp3.png,exp4.png,,,,,,,,,,,,,,,,,,2,0,2,0,0,1,1,1,,,,,,,,,620.8249333999702,,,,,,,,,,,,,,620.6882188000018,False,41,102,True,exp4.png,exp3.png,trial_left_image,622.5913196000038,1,exp4.png,3,exp4.png,exp3.png,1,1,non-reversed,correct,0.18929432287165282,0,invalid_lose,578.4079391999985,622.5920323999599,623.2052029999904,63,623.2052219999605,625.0033445999725,,,,,,,,,,,620.6874214999843,620.6881847999757,,,,,,,,,,,,sub_571,2024-01-29_09h53.18.273,Reversal,2023.2.1,59.92229277198131,3,2024-01-29 09h53.31.969076 +0200,
2,exp1.png,exp2.png,,,,,,,,,,,,,,,,,,2,0,2,0,0,2,2,2,,,,,,,,,625.145490099967,,,,,,,,,,,,,,625.0054696999723,False,42,103,False,exp1.png,exp2.png,trial_left_image,627.7905528999981,1,exp1.png,3,exp1.png,exp2.png,0,4,reversed,correct,0.3425666241563817,1,valid_win,583.6070409999811,627.791127000004,628.4048173999763,64,628.404839899973,630.2027272999985,,,,,,,,,,,625.0043133000145,625.0054091999773,,,,,,,,,,,,sub_571,2024-01-29_09h53.18.273,Reversal,2023.2.1,59.92229277198131,3,2024-01-29 09h53.31.969076 +0200,
3,exp3.png,exp4.png,,,,,,,,,,,,,,,,,,2,0,2,0,0,3,3,3,,,,,,,,,630.3467608999927,,,,,,,,,,,,,,630.2046416999656,False,43,104,True,exp4.png,exp3.png,trial_right_image,632.5565895999898,-1,exp3.png,3,exp4.png,exp3.png,0,2,non-reversed,incorrect,0.562815218961811,0,valid_lose,588.3730173999793,632.5571002999786,633.1707220000098,64,633.170741799986,634.9688839999726,,,,,,,,,,,630.2035784999607,630.2045882999664,,,,,,,,,,,,sub_571,2024-01-29_09h53.18.273,Reversal,2023.2.1,59.92229277198131,3,2024-01-29 09h53.31.969076 +0200,
4,exp1.png,exp2.png,,,,,,,,,,,,,,,,,,2,0,2,0,0,4,4,4,,,,,,,,,635.1183032999979,,,,,,,,,,,,,,634.9711401999812,False,44,105,False,exp1.png,exp2.png,trial_left_image,636.7057338999584,1,exp1.png,3,exp1.png,exp2.png,0,4,reversed,correct,0.8465301537983283,1,valid_win,592.5221108999685,636.7061899999972,637.3201029999764,65,637.3201327999705,639.1187733999686,,,,,,,,,,,634.9699401999824,634.9710770999664,,,,,,,,,,,,sub_571,2024-01-29_09h53.18.273,Reversal,2023.2.1,59.92229277198131,3,2024-01-29 09h53.31.969076 +0200,
5,exp3.png,exp4.png,,,,,,,,,,,,,,,,,,2,0,2,0,0,5,5,5,,,,,,,,,639.2583737999666,,,,,,,,,,,,,,639.1212380999932,False,45,106,False,exp3.png,exp4.png,trial_right_image,641.0555228000158,-1,exp4.png,3,exp4.png,exp3.png,1,1,non-reversed,correct,0.8041277759781988,1,valid_win,596.8720602999674,641.0561501999618,641.6696676000138,66,641.6696931999759,643.4676075999741,,,,,,,,,,,639.1199038999621,639.1211736999685,,,,,,,,,,,,sub_571,2024-01-29_09h53.18.273,Reversal,2023.2.1,59.92229277198131,3,2024-01-29 09h53.31.969076 +0200,
6,exp1.png,exp2.png,,,,,,,,,,,,,,,,,,2,0,2,0,0,6,6,6,,,,,,,,,643.6174867000082,,,,,,,,,,,,,,643.4695608000038,False,46,107,False,exp1.png,exp2.png,trial_left_image,645.37145039998,1,exp1.png,3,exp1.png,exp2.png,0,4,reversed,correct,0.2556079407367533,1,valid_win,601.1879609999596,645.3720464999788,645.9860258999979,67,645.9860686999746,647.7835068000131,,,,,,,,,,,643.4683753999998,643.4694888999802,,,,,,,,,,,,sub_571,2024-01-29_09h53.18.273,Reversal,2023.2.1,59.92229277198131,3,2024-01-29 09h53.31.969076 +0200,
7,exp3.png,exp4.png,,,,,,,,,,,,,,,,,,2,0,2,0,0,7,7,7,,,,,,,,,647.9238180000102,,,,,,,,,,,,,,647.7848121999996,False,47,108,True,exp4.png,exp3.png,trial_left_image,650.4535628999583,1,exp4.png,3,exp4.png,exp3.png,1,1,non-reversed,correct,0.11863874356504145,0,invalid_lose,606.2698345999816,650.4539066000143,651.0682265000069,67,651.0682490000036,652.866200599994,,,,,,,,,,,647.7841045999667,647.7847755000112,,,,,,,,,,,,sub_571,2024-01-29_09h53.18.273,Reversal,2023.2.1,59.92229277198131,3,2024-01-29 09h53.31.969076 +0200,
8,exp1.png,exp2.png,,,,,,,,,,,,,,,,,,2,0,2,0,0,8,8,8,,,,,,,,,653.0152011999744,,,,,,,,,,,,,,652.868098100007,False,48,109,True,exp2.png,exp1.png,trial_right_image,655.186309200013,-1,exp1.png,3,exp1.png,exp2.png,0,4,reversed,correct,0.6452798624834064,1,valid_win,611.0026537000085,655.1867305999622,655.801027700014,68,655.8010498000076,657.5983220000053,,,,,,,,,,,652.8670080999727,652.8680473999702,,,,,,,,,,,,sub_571,2024-01-29_09h53.18.273,Reversal,2023.2.1,59.92229277198131,3,2024-01-29 09h53.31.969076 +0200,
9,exp3.png,exp4.png,,,,,,,,,,,,,,,,,,2,0,2,0,0,9,9,9,,,,,,,,,657.7389021000126,,,,,,,,,,,,,,657.598965400015,False,49,110,True,exp4.png,exp3.png,trial_left_image,659.8517035999685,1,exp4.png,3,exp4.png,exp3.png,1,1,non-reversed,correct,0.6150356152774472,1,valid_win,615.6678332999581,659.851897799992,660.466852099984,69,660.4668674999848,662.2645761999884,,,,,,,,,,,657.5986300999648,657.5989523999742,,,,,,,,,,,,sub_571,2024-01-29_09h53.18.273,Reversal,2023.2.1,59.92229277198131,3,2024-01-29 09h53.31.969076 +0200,
10,exp1.png,exp2.png,,,,,,,,,,,,,,,,,,2,0,2,0,0,10,10,10,,,,,,,,,662.4322595999693,,,,,,,,,,,,,,662.2653253999888,False,50,111,True,exp2.png,exp1.png,trial_right_image,665.6015182000119,-1,exp1.png,3,exp1.png,exp2.png,0,4,reversed,correct,0.7252337767104808,1,valid_win,621.417882299982,665.601960800006,666.2163469999796,70,666.2163647999987,668.014462799998,,,,,,,,,,,662.2648733999813,662.2653094999841,,,,,,,,,,,,sub_571,2024-01-29_09h53.18.273,Reversal,2023.2.1,59.92229277198131,3,2024-01-29 09h53.31.969076 +0200,
11,exp3.png,exp4.png,,,,,,,,,,,,,,,,,,2,0,2,0,0,11,11,11,,,,,,,,,668.1608797999797,,,,,,,,,,,,,,668.0164149999619,False,51,112,True,exp4.png,exp3.png,trial_left_image,670.0843412000104,1,exp4.png,3,exp4.png,exp3.png,1,1,non-reversed,correct,0.054463637314042246,0,invalid_lose,625.900633000012,670.084706499998,670.6993488000007,70,670.6993845999823,672.496738399961,,,,,,,,,,,668.0153672999586,668.0163621999673,,,,,,,,,,,,sub_571,2024-01-29_09h53.18.273,Reversal,2023.2.1,59.92229277198131,3,2024-01-29 09h53.31.969076 +0200,
12,exp1.png,exp2.png,,,,,,,,,,,,,,,,,,2,0,2,0,0,12,12,12,,,,,,,,,672.6308922999888,,,,,,,,,,,,,,672.4977636999683,False,52,113,False,exp1.png,exp2.png,trial_left_image,675.4174123000121,1,exp1.png,3,exp1.png,exp2.png,0,4,reversed,correct,0.8796633067416956,1,valid_win,631.2338966999669,675.4179813999799,676.032183400006,71,676.032216099964,677.8298011000152,,,,,,,,,,,672.4971801000065,672.4977359999903,,,,,,,,,,,,sub_571,2024-01-29_09h53.18.273,Reversal,2023.2.1,59.92229277198131,3,2024-01-29 09h53.31.969076 +0200,
13,exp3.png,exp4.png,,,,,,,,,,,,,,,,,,2,0,2,0,0,13,13,13,,,,,,,,,677.9720433999901,,,,,,,,,,,,,,677.8312406999758,False,53,114,False,exp3.png,exp4.png,trial_right_image,679.9996069999761,-1,exp4.png,3,exp4.png,exp3.png,1,1,non-reversed,correct,0.2843530916363529,1,valid_win,635.815890799975,679.9999636000139,680.6143931999686,72,680.6144167999737,682.4127894999692,,,,,,,,,,,677.8304127000156,677.8312035999843,,,,,,,,,,,,sub_571,2024-01-29_09h53.18.273,Reversal,2023.2.1,59.92229277198131,3,2024-01-29 09h53.31.969076 +0200,
14,exp1.png,exp2.png,,,,,,,,,,,,,,,,,,2,0,2,0,0,14,14,14,,,,,,,,,682.561166999978,,,,,,,,,,,,,,682.415104100015,False,54,115,False,exp1.png,exp2.png,trial_left_image,684.3992681999807,1,exp1.png,3,exp1.png,exp2.png,0,4,reversed,correct,0.6392611306293032,1,valid_win,640.2156433999771,684.3997223000042,685.0143722000066,73,685.0143991999794,686.8123363999766,,,,,,,,,,,682.4137485999963,682.4150425000116,,,,,,,,,,,,sub_571,2024-01-29_09h53.18.273,Reversal,2023.2.1,59.92229277198131,3,2024-01-29 09h53.31.969076 +0200,
15,exp3.png,exp4.png,,,,,,,,,,,,,,,,,,2,0,2,0,0,15,15,15,,,,,,,,,686.9646255999687,,,,,,,,,,,,,,686.8144933999865,False,55,116,False,exp3.png,exp4.png,trial_right_image,688.916572099959,-1,exp4.png,3,exp4.png,exp3.png,1,1,non-reversed,correct,0.8839384825070243,1,valid_win,644.7336813999573,688.9178071999922,689.5296822999953,74,689.5296966999886,691.3279134999611,,,,,,,,,,,686.8132964000106,686.8144321999862,,,,,,,,,,,,sub_571,2024-01-29_09h53.18.273,Reversal,2023.2.1,59.92229277198131,3,2024-01-29 09h53.31.969076 +0200,
16,exp1.png,exp2.png,,,,,,,,,,,,,,,,,,2,0,2,0,0,16,16,16,,,,,,,,,691.47552919999,,,,,,,,,,,,,,691.3295721999602,False,56,117,True,exp2.png,exp1.png,trial_left_image,693.8312063000049,1,exp2.png,3,exp1.png,exp2.png,1,3,reversed,incorrect,0.44919903254863014,0,valid_lose,649.6475397999748,693.8316162999836,694.4458797000116,74,694.445894000004,696.2440988000017,,,,,,,,,,,691.3286020999658,691.3295314999996,,,,,,,,,,,,sub_571,2024-01-29_09h53.18.273,Reversal,2023.2.1,59.92229277198131,3,2024-01-29 09h53.31.969076 +0200,
17,exp3.png,exp4.png,,,,,,,,,,,,,,,,,,2,0,2,0,0,17,17,17,,,,,,,,,696.4013965000049,,,,,,,,,,,,,,696.2460420000134,False,57,118,True,exp4.png,exp3.png,trial_left_image,698.1644298000028,1,exp4.png,3,exp4.png,exp3.png,1,1,non-reversed,correct,0.6259053440711924,1,valid_win,653.9809249999817,698.1650204999605,698.7798471999704,75,698.7798960999935,700.5769690999878,,,,,,,,,,,696.24496370001,696.2459891999606,,,,,,,,,,,,sub_571,2024-01-29_09h53.18.273,Reversal,2023.2.1,59.92229277198131,3,2024-01-29 09h53.31.969076 +0200,
18,exp1.png,exp2.png,,,,,,,,,,,,,,,,,,2,0,2,0,0,18,18,18,,,,,,,,,700.7255036999704,,,,,,,,,,,,,,700.5790588000091,False,58,119,True,exp2.png,exp1.png,trial_right_image,703.3314703999786,-1,exp1.png,3,exp1.png,exp2.png,0,4,reversed,correct,0.7516273163923354,1,valid_win,659.1480622999952,703.3321553000133,703.9454146999633,76,703.9454436000087,705.7430063000065,,,,,,,,,,,700.5778543999768,700.5789738000021,,,,,,,,,,,,sub_571,2024-01-29_09h53.18.273,Reversal,2023.2.1,59.92229277198131,3,2024-01-29 09h53.31.969076 +0200,
19,exp3.png,exp4.png,,,,,,,,,,,,,,,,,,2,0,2,0,0,19,19,19,,,,,,,,,705.8801030999748,,,,,,,,,,,,,,705.7449687999906,False,59,120,False,exp3.png,exp4.png,trial_right_image,708.3791008999688,-1,exp4.png,3,exp4.png,exp3.png,1,1,non-reversed,correct,0.34007401407553906,1,valid_win,664.1954096999834,708.3794848999823,708.9947539999848,77,708.994782899972,710.7923881000024,,,,,,,,,,,705.7438704000087,705.7449147999869,,,,,,,,,,,,sub_571,2024-01-29_09h53.18.273,Reversal,2023.2.1,59.92229277198131,3,2024-01-29 09h53.31.969076 +0200,
20,exp1.png,exp2.png,,,,,,,,,,,,,,,,,,2,0,2,0,0,20,20,20,,,,,,,,,710.9922504000133,,,,,,,,,,,,,,710.7944241999649,True,,,,,,,710.8817994999699,,,,,,,,,,,,,,710.88181479997,710.8967829999747,,710.8967991999816,710.9188830999774,,,,,,,,,,,710.7933154999628,710.7943872999749,,,,,,,,,,,,sub_571,2024-01-29_09h53.18.273,Reversal,2023.2.1,59.92229277198131,3,2024-01-29 09h53.31.969076 +0200,
,,,exp1.png,,,,,,,,,,,,,,,,,2,0,2,0,,,,,0,0,0,0,0,0,0,0,710.9922504000133,,,,,,,,,,,,,,,,,,,,,,,,,,,,,,,,,,,,,,,,,710.9252044999739,710.9922504000133,720.2962791000027,48.0,8.312833299976774,"[(48.0, 8.312833299976774)]",,,48.0,,,,,,,,,,,,,,,sub_571,2024-01-29_09h53.18.273,Reversal,2023.2.1,59.92229277198131,3,2024-01-29 09h53.31.969076 +0200,
,,,exp2.png,,,,,,,,,,,,,,,,,2,0,2,0,,,,,0,0,0,0,0,1,1,1,720.359528800007,,,,,,,,,,,,,,,,,,,,,,,,,,,,,,,,,,,,,,,,,720.2969922999619,720.359528800007,721.6798550999956,None,None,[],,,,,,,,,,,,,,,,,,sub_571,2024-01-29_09h53.18.273,Reversal,2023.2.1,59.92229277198131,3,2024-01-29 09h53.31.969076 +0200,
,,,exp3.png,,,,,,,,,,,,,,,,,2,0,2,0,,,,,0,0,0,0,0,2,2,2,721.7447220999748,,,,,,,,,,,,,,,,,,,,,,,,,,,,,,,,,,,,,,,,,721.6804936999688,721.7447220999748,724.7276183000067,20.0,2.135702700004913,"[(20.0, 2.135702700004913)]",20.0,,,,,,,,,,,,,,,,,sub_571,2024-01-29_09h53.18.273,Reversal,2023.2.1,59.92229277198131,3,2024-01-29 09h53.31.969076 +0200,
,,,exp4.png,,,,,,,,,,,,,,,,,2,0,2,0,,,,,0,0,0,0,0,3,3,3,724.7900267000077,,,,,,,,,,,,,,,,,,,,,,,,,,,,,,,,,,,,,,,,,724.7280523999943,724.7900267000077,729.1447158000083,None,None,[],,,,,,,,,,,,,,,,,,sub_571,2024-01-29_09h53.18.273,Reversal,2023.2.1,59.92229277198131,3,2024-01-29 09h53.31.969076 +0200,
,,,,,,,,,,,,,,,,,,,,,,,,,,,,,,,,,,,,,,,,,,,,,,,,,,,,,,,,,,,,,,,,,,,,,,,,,,77,,,,,,,,,,,,,,,,729.1450923999655,96,51,45,323.12179070001,0,774.0237606999581,space,44.80688300001202,None,sub_571,2024-01-29_09h53.18.273,Reversal,2023.2.1,59.92229277198131,3,2024-01-29 09h53.31.969076 +0200,
