trial_index,trial_image1_file,trial_image2_file,image_file,learning_outer_loop.thisRepN,learning_outer_loop.thisTrialN,learning_outer_loop.thisN,learning_outer_loop.thisIndex,learning_inner_loop.thisRepN,learning_inner_loop.thisTrialN,learning_inner_loop.thisN,learning_inner_loop.thisIndex,learning_estimation_outer_loop.thisRepN,learning_estimation_outer_loop.thisTrialN,learning_estimation_outer_loop.thisN,learning_estimation_outer_loop.thisIndex,learning_estimation_inner_loop.thisRepN,learning_estimation_inner_loop.thisTrialN,learning_estimation_inner_loop.thisN,learning_estimation_inner_loop.thisIndex,reversal_outer_loop.thisRepN,reversal_outer_loop.thisTrialN,reversal_outer_loop.thisN,reversal_outer_loop.thisIndex,reversal_inner_loop.thisRepN,reversal_inner_loop.thisTrialN,reversal_inner_loop.thisN,reversal_inner_loop.thisIndex,reversal_estimation_outer_loop.thisRepN,reversal_estimation_outer_loop.thisTrialN,reversal_estimation_outer_loop.thisN,reversal_estimation_outer_loop.thisIndex,reversal_estimation_inner_loop.thisRepN,reversal_estimation_inner_loop.thisTrialN,reversal_estimation_inner_loop.thisN,reversal_estimation_inner_loop.thisIndex,skipped,total_trial_counter,trial_num,left_right_flip,left_image_file,right_image_file,clicked_stimulus_side,side,clicked_stimulus,version,high_prob_image_file,low_prob_image_file,choice_a,choice_b,pair_type,correct,trial_feedback_random,reward,trial_type,overall_time_after_trial,score,estimation_rating.started,estimation_exp1.png,estimation_rating.response,estimation_rating.rt,estimation_rating.history,estimation_exp3.png,estimation_exp4.png,total_learning_time,estimation_exp2.png,total_correct,learning_correct,reversal_correct,total_reversal_time,extra_block,participant,date,expName,psychopyVersion,frameRate,ver,
0,exp1.png,exp2.png,,0,0,0,0,0,0,0,0,,,,,,,,,,,,,,,,,,,,,,,,,True,,,,,,,,,,,,,,,,,,,,,,,,,,,,,,,,,,,sub_961,2025-03-24_14h41.31.860,Reversal,2023.1.3,60.00211207645714,1,
1,exp3.png,exp4.png,,0,0,0,0,0,1,1,1,,,,,,,,,,,,,,,,,,,,,,,,,False,0,1,False,exp3.png,exp4.png,trial_right_image,-1,exp4.png,1,exp3.png,exp4.png,0,2,non-reversed,incorrect,0.7280779844714502,0,valid_lose,5.730812499998137,0,,,,,,,,,,,,,,,sub_961,2025-03-24_14h41.31.860,Reversal,2023.1.3,60.00211207645714,1,
2,exp1.png,exp2.png,,0,0,0,0,0,2,2,2,,,,,,,,,,,,,,,,,,,,,,,,,False,1,2,False,exp1.png,exp2.png,trial_right_image,-1,exp2.png,1,exp1.png,exp2.png,0,4,reversed,incorrect,0.46095910899181647,0,valid_lose,13.061025800008792,0,,,,,,,,,,,,,,,sub_961,2025-03-24_14h41.31.860,Reversal,2023.1.3,60.00211207645714,1,
3,exp3.png,exp4.png,,0,0,0,0,0,3,3,3,,,,,,,,,,,,,,,,,,,,,,,,,False,2,3,False,exp3.png,exp4.png,trial_left_image,1,exp3.png,1,exp3.png,exp4.png,1,1,non-reversed,correct,0.49396258429344486,1,valid_win,19.875147800004925,1,,,,,,,,,,,,,,,sub_961,2025-03-24_14h41.31.860,Reversal,2023.1.3,60.00211207645714,1,
4,exp1.png,exp2.png,,0,0,0,0,0,4,4,4,,,,,,,,,,,,,,,,,,,,,,,,,False,3,4,True,exp2.png,exp1.png,trial_right_image,-1,exp1.png,1,exp1.png,exp2.png,1,3,reversed,correct,0.07403491838712606,0,invalid_lose,24.30905250000069,1,,,,,,,,,,,,,,,sub_961,2025-03-24_14h41.31.860,Reversal,2023.1.3,60.00211207645714,1,
5,exp3.png,exp4.png,,0,0,0,0,0,5,5,5,,,,,,,,,,,,,,,,,,,,,,,,,False,4,5,True,exp4.png,exp3.png,trial_right_image,-1,exp3.png,1,exp3.png,exp4.png,1,1,non-reversed,correct,0.19544799351030584,0,invalid_lose,29.538683200007654,1,,,,,,,,,,,,,,,sub_961,2025-03-24_14h41.31.860,Reversal,2023.1.3,60.00211207645714,1,
6,exp1.png,exp2.png,,0,0,0,0,0,6,6,6,,,,,,,,,,,,,,,,,,,,,,,,,False,5,6,True,exp2.png,exp1.png,trial_right_image,-1,exp1.png,1,exp1.png,exp2.png,1,3,reversed,correct,0.6242166270515489,1,valid_win,34.00365510000847,2,,,,,,,,,,,,,,,sub_961,2025-03-24_14h41.31.860,Reversal,2023.1.3,60.00211207645714,1,
7,exp3.png,exp4.png,,0,0,0,0,0,7,7,7,,,,,,,,,,,,,,,,,,,,,,,,,False,6,7,False,exp3.png,exp4.png,trial_left_image,1,exp3.png,1,exp3.png,exp4.png,1,1,non-reversed,correct,0.7214682391601741,1,valid_win,39.43604200000118,3,,,,,,,,,,,,,,,sub_961,2025-03-24_14h41.31.860,Reversal,2023.1.3,60.00211207645714,1,
8,exp1.png,exp2.png,,0,0,0,0,0,8,8,8,,,,,,,,,,,,,,,,,,,,,,,,,False,7,8,True,exp2.png,exp1.png,trial_left_image,1,exp2.png,1,exp1.png,exp2.png,0,4,reversed,incorrect,0.764159143304819,0,valid_lose,44.11699970001064,3,,,,,,,,,,,,,,,sub_961,2025-03-24_14h41.31.860,Reversal,2023.1.3,60.00211207645714,1,
9,exp3.png,exp4.png,,0,0,0,0,0,9,9,9,,,,,,,,,,,,,,,,,,,,,,,,,False,8,9,False,exp3.png,exp4.png,trial_left_image,1,exp3.png,1,exp3.png,exp4.png,1,1,non-reversed,correct,0.8436808980521278,1,valid_win,48.798921100009466,4,,,,,,,,,,,,,,,sub_961,2025-03-24_14h41.31.860,Reversal,2023.1.3,60.00211207645714,1,
10,exp1.png,exp2.png,,0,0,0,0,0,10,10,10,,,,,,,,,,,,,,,,,,,,,,,,,False,9,10,True,exp2.png,exp1.png,trial_right_image,-1,exp1.png,1,exp1.png,exp2.png,1,3,reversed,correct,0.970667166160535,1,valid_win,53.36435580000398,5,,,,,,,,,,,,,,,sub_961,2025-03-24_14h41.31.860,Reversal,2023.1.3,60.00211207645714,1,
11,exp3.png,exp4.png,,0,0,0,0,0,11,11,11,,,,,,,,,,,,,,,,,,,,,,,,,False,10,11,False,exp3.png,exp4.png,trial_left_image,1,exp3.png,1,exp3.png,exp4.png,1,1,non-reversed,correct,0.2281720333055095,0,invalid_lose,58.02908710000338,5,,,,,,,,,,,,,,,sub_961,2025-03-24_14h41.31.860,Reversal,2023.1.3,60.00211207645714,1,
12,exp1.png,exp2.png,,0,0,0,0,0,12,12,12,,,,,,,,,,,,,,,,,,,,,,,,,False,11,12,False,exp1.png,exp2.png,trial_left_image,1,exp1.png,1,exp1.png,exp2.png,1,3,reversed,correct,0.8198164896040544,1,valid_win,62.34468619999825,6,,,,,,,,,,,,,,,sub_961,2025-03-24_14h41.31.860,Reversal,2023.1.3,60.00211207645714,1,
13,exp3.png,exp4.png,,0,0,0,0,0,13,13,13,,,,,,,,,,,,,,,,,,,,,,,,,False,12,13,True,exp4.png,exp3.png,trial_right_image,-1,exp3.png,1,exp3.png,exp4.png,1,1,non-reversed,correct,0.7562664446056825,1,valid_win,66.91006989999732,7,,,,,,,,,,,,,,,sub_961,2025-03-24_14h41.31.860,Reversal,2023.1.3,60.00211207645714,1,
14,exp1.png,exp2.png,,0,0,0,0,0,14,14,14,,,,,,,,,,,,,,,,,,,,,,,,,False,13,14,False,exp1.png,exp2.png,trial_right_image,-1,exp2.png,1,exp1.png,exp2.png,0,4,reversed,incorrect,0.7611683806638975,0,valid_lose,72.21019460000389,7,,,,,,,,,,,,,,,sub_961,2025-03-24_14h41.31.860,Reversal,2023.1.3,60.00211207645714,1,
15,exp3.png,exp4.png,,0,0,0,0,0,15,15,15,,,,,,,,,,,,,,,,,,,,,,,,,False,14,15,True,exp4.png,exp3.png,trial_right_image,-1,exp3.png,1,exp3.png,exp4.png,1,1,non-reversed,correct,0.7255195076573601,1,valid_win,76.17287760000909,8,,,,,,,,,,,,,,,sub_961,2025-03-24_14h41.31.860,Reversal,2023.1.3,60.00211207645714,1,
16,exp1.png,exp2.png,,0,0,0,0,0,16,16,16,,,,,,,,,,,,,,,,,,,,,,,,,False,15,16,True,exp2.png,exp1.png,trial_right_image,-1,exp1.png,1,exp1.png,exp2.png,1,3,reversed,correct,0.5435994971572599,1,valid_win,80.08852810000826,9,,,,,,,,,,,,,,,sub_961,2025-03-24_14h41.31.860,Reversal,2023.1.3,60.00211207645714,1,
17,exp3.png,exp4.png,,0,0,0,0,0,17,17,17,,,,,,,,,,,,,,,,,,,,,,,,,False,16,17,False,exp3.png,exp4.png,trial_right_image,-1,exp4.png,1,exp3.png,exp4.png,0,2,non-reversed,incorrect,0.32356978957273563,0,valid_lose,84.61975900000834,9,,,,,,,,,,,,,,,sub_961,2025-03-24_14h41.31.860,Reversal,2023.1.3,60.00211207645714,1,
18,exp1.png,exp2.png,,0,0,0,0,0,18,18,18,,,,,,,,,,,,,,,,,,,,,,,,,False,17,18,True,exp2.png,exp1.png,trial_right_image,-1,exp1.png,1,exp1.png,exp2.png,1,3,reversed,correct,0.8755730656711054,1,valid_win,88.50186899999972,10,,,,,,,,,,,,,,,sub_961,2025-03-24_14h41.31.860,Reversal,2023.1.3,60.00211207645714,1,
19,exp3.png,exp4.png,,0,0,0,0,0,19,19,19,,,,,,,,,,,,,,,,,,,,,,,,,False,18,19,False,exp3.png,exp4.png,trial_right_image,-1,exp4.png,1,exp3.png,exp4.png,0,2,non-reversed,incorrect,0.4859313474355512,0,valid_lose,92.35136850000708,10,,,,,,,,,,,,,,,sub_961,2025-03-24_14h41.31.860,Reversal,2023.1.3,60.00211207645714,1,
20,exp1.png,exp2.png,,0,0,0,0,0,20,20,20,,,,,,,,,,,,,,,,,,,,,,,,,False,19,20,True,exp2.png,exp1.png,trial_right_image,-1,exp1.png,1,exp1.png,exp2.png,1,3,reversed,correct,0.8486377046905627,1,valid_win,96.24938540000585,11,,,,,,,,,,,,,,,sub_961,2025-03-24_14h41.31.860,Reversal,2023.1.3,60.00211207645714,1,
,,,exp1.png,0,0,0,0,,,,,0,0,0,0,0,0,0,0,,,,,,,,,,,,,,,,,,,,,,,,,,,,,,,,,,,,,,164.17945229999896,50.0,50.0,7.591420400000061,"[(50.0, 7.591420400000061)]",,,,,,,,,,sub_961,2025-03-24_14h41.31.860,Reversal,2023.1.3,60.00211207645714,1,
,,,exp2.png,0,0,0,0,,,,,0,0,0,0,0,1,1,1,,,,,,,,,,,,,,,,,,,,,,,,,,,,,,,,,,,,,,173.61703579999448,,None,None,[],,,,,,,,,,sub_961,2025-03-24_14h41.31.860,Reversal,2023.1.3,60.00211207645714,1,
,,,exp3.png,0,0,0,0,,,,,0,0,0,0,0,2,2,2,,,,,,,,,,,,,,,,,,,,,,,,,,,,,,,,,,,,,,175.996496199994,,53.0,3.294779200004996,"[(53.0, 3.294779200004996)]",53.0,,,,,,,,,sub_961,2025-03-24_14h41.31.860,Reversal,2023.1.3,60.00211207645714,1,
,,,exp4.png,0,0,0,0,,,,,0,0,0,0,0,3,3,3,,,,,,,,,,,,,,,,,,,,,,,,,,,,,,,,,,,,,,180.26195169999846,,None,None,[],,,,,,,,,,sub_961,2025-03-24_14h41.31.860,Reversal,2023.1.3,60.00211207645714,1,
0,exp1.png,exp2.png,,1,0,1,0,0,0,0,0,,,,,,,,,,,,,,,,,,,,,,,,,True,,,,,,,,,,,,,,,,,,,,,,,,,,,,,,,,,,,sub_961,2025-03-24_14h41.31.860,Reversal,2023.1.3,60.00211207645714,1,
1,exp3.png,exp4.png,,1,0,1,0,0,1,1,1,,,,,,,,,,,,,,,,,,,,,,,,,False,20,21,False,exp3.png,exp4.png,trial_right_image,-1,exp4.png,1,exp3.png,exp4.png,0,2,non-reversed,incorrect,0.649020116975623,0,valid_lose,120.92423479999707,11,,,,,,,,,,,,,,,sub_961,2025-03-24_14h41.31.860,Reversal,2023.1.3,60.00211207645714,1,
2,exp1.png,exp2.png,,1,0,1,0,0,2,2,2,,,,,,,,,,,,,,,,,,,,,,,,,False,21,22,False,exp1.png,exp2.png,trial_left_image,1,exp1.png,1,exp1.png,exp2.png,1,3,reversed,correct,0.2662281991393457,1,valid_win,125.106176900008,12,,,,,,,,,,,,,,,sub_961,2025-03-24_14h41.31.860,Reversal,2023.1.3,60.00211207645714,1,
3,exp3.png,exp4.png,,1,0,1,0,0,3,3,3,,,,,,,,,,,,,,,,,,,,,,,,,False,22,23,False,exp3.png,exp4.png,trial_right_image,-1,exp4.png,1,exp3.png,exp4.png,0,2,non-reversed,incorrect,0.22827029832122137,1,invalid_win,129.17202930001076,13,,,,,,,,,,,,,,,sub_961,2025-03-24_14h41.31.860,Reversal,2023.1.3,60.00211207645714,1,
4,exp1.png,exp2.png,,1,0,1,0,0,4,4,4,,,,,,,,,,,,,,,,,,,,,,,,,False,23,24,True,exp2.png,exp1.png,trial_right_image,-1,exp1.png,1,exp1.png,exp2.png,1,3,reversed,correct,0.2798164639176224,1,valid_win,133.2532532000041,14,,,,,,,,,,,,,,,sub_961,2025-03-24_14h41.31.860,Reversal,2023.1.3,60.00211207645714,1,
5,exp3.png,exp4.png,,1,0,1,0,0,5,5,5,,,,,,,,,,,,,,,,,,,,,,,,,False,24,25,False,exp3.png,exp4.png,trial_left_image,1,exp3.png,1,exp3.png,exp4.png,1,1,non-reversed,correct,0.2429642116044246,0,invalid_lose,137.33558850000554,14,,,,,,,,,,,,,,,sub_961,2025-03-24_14h41.31.860,Reversal,2023.1.3,60.00211207645714,1,
6,exp1.png,exp2.png,,1,0,1,0,0,6,6,6,,,,,,,,,,,,,,,,,,,,,,,,,False,25,26,False,exp1.png,exp2.png,trial_right_image,-1,exp2.png,1,exp1.png,exp2.png,0,4,reversed,incorrect,0.5288680521778861,0,valid_lose,141.9681191999989,14,,,,,,,,,,,,,,,sub_961,2025-03-24_14h41.31.860,Reversal,2023.1.3,60.00211207645714,1,
7,exp3.png,exp4.png,,1,0,1,0,0,7,7,7,,,,,,,,,,,,,,,,,,,,,,,,,False,26,27,False,exp3.png,exp4.png,trial_left_image,1,exp3.png,1,exp3.png,exp4.png,1,1,non-reversed,correct,0.9847817576968398,1,valid_win,147.21525100000144,15,,,,,,,,,,,,,,,sub_961,2025-03-24_14h41.31.860,Reversal,2023.1.3,60.00211207645714,1,
8,exp1.png,exp2.png,,1,0,1,0,0,8,8,8,,,,,,,,,,,,,,,,,,,,,,,,,False,27,28,True,exp2.png,exp1.png,trial_right_image,-1,exp1.png,1,exp1.png,exp2.png,1,3,reversed,correct,0.8509927203479819,1,valid_win,151.49857599999814,16,,,,,,,,,,,,,,,sub_961,2025-03-24_14h41.31.860,Reversal,2023.1.3,60.00211207645714,1,
9,exp3.png,exp4.png,,1,0,1,0,0,9,9,9,,,,,,,,,,,,,,,,,,,,,,,,,False,28,29,False,exp3.png,exp4.png,trial_right_image,-1,exp4.png,1,exp3.png,exp4.png,0,2,non-reversed,incorrect,0.1600577801107842,1,invalid_win,155.89607070000784,17,,,,,,,,,,,,,,,sub_961,2025-03-24_14h41.31.860,Reversal,2023.1.3,60.00211207645714,1,
10,exp1.png,exp2.png,,1,0,1,0,0,10,10,10,,,,,,,,,,,,,,,,,,,,,,,,,False,29,30,True,exp2.png,exp1.png,trial_right_image,-1,exp1.png,1,exp1.png,exp2.png,1,3,reversed,correct,0.5377148625010737,1,valid_win,160.16111970000202,18,,,,,,,,,,,,,,,sub_961,2025-03-24_14h41.31.860,Reversal,2023.1.3,60.00211207645714,1,
11,exp3.png,exp4.png,,1,0,1,0,0,11,11,11,,,,,,,,,,,,,,,,,,,,,,,,,False,30,31,True,exp4.png,exp3.png,trial_right_image,-1,exp3.png,1,exp3.png,exp4.png,1,1,non-reversed,correct,0.5032903629765336,1,valid_win,165.2257884999999,19,,,,,,,,,,,,,,,sub_961,2025-03-24_14h41.31.860,Reversal,2023.1.3,60.00211207645714,1,
12,exp1.png,exp2.png,,1,0,1,0,0,12,12,12,,,,,,,,,,,,,,,,,,,,,,,,,False,31,32,True,exp2.png,exp1.png,trial_right_image,-1,exp1.png,1,exp1.png,exp2.png,1,3,reversed,correct,0.5990770990703026,1,valid_win,169.45779559999937,20,,,,,,,,,,,,,,,sub_961,2025-03-24_14h41.31.860,Reversal,2023.1.3,60.00211207645714,1,
13,exp3.png,exp4.png,,1,0,1,0,0,13,13,13,,,,,,,,,,,,,,,,,,,,,,,,,False,32,33,True,exp4.png,exp3.png,trial_right_image,-1,exp3.png,1,exp3.png,exp4.png,1,1,non-reversed,correct,0.6224524233780574,1,valid_win,173.53998539999884,21,,,,,,,,,,,,,,,sub_961,2025-03-24_14h41.31.860,Reversal,2023.1.3,60.00211207645714,1,
14,exp1.png,exp2.png,,1,0,1,0,0,14,14,14,,,,,,,,,,,,,,,,,,,,,,,,,False,33,34,True,exp2.png,exp1.png,trial_right_image,-1,exp1.png,1,exp1.png,exp2.png,1,3,reversed,correct,0.4787884112842977,1,valid_win,177.57177310000407,22,,,,,,,,,,,,,,,sub_961,2025-03-24_14h41.31.860,Reversal,2023.1.3,60.00211207645714,1,
15,exp3.png,exp4.png,,1,0,1,0,0,15,15,15,,,,,,,,,,,,,,,,,,,,,,,,,False,34,35,True,exp4.png,exp3.png,trial_right_image,-1,exp3.png,1,exp3.png,exp4.png,1,1,non-reversed,correct,0.5992204663009727,1,valid_win,181.55366990000766,23,,,,,,,,,,,,,,,sub_961,2025-03-24_14h41.31.860,Reversal,2023.1.3,60.00211207645714,1,
16,exp1.png,exp2.png,,1,0,1,0,0,16,16,16,,,,,,,,,,,,,,,,,,,,,,,,,False,35,36,False,exp1.png,exp2.png,trial_right_image,-1,exp2.png,1,exp1.png,exp2.png,0,4,reversed,incorrect,0.2861258678714962,0,valid_lose,185.5689485000039,23,,,,,,,,,,,,,,,sub_961,2025-03-24_14h41.31.860,Reversal,2023.1.3,60.00211207645714,1,
17,exp3.png,exp4.png,,1,0,1,0,0,17,17,17,,,,,,,,,,,,,,,,,,,,,,,,,False,36,37,False,exp3.png,exp4.png,trial_right_image,-1,exp4.png,1,exp3.png,exp4.png,0,2,non-reversed,incorrect,0.9679780128247676,0,valid_lose,190.3672579999984,23,,,,,,,,,,,,,,,sub_961,2025-03-24_14h41.31.860,Reversal,2023.1.3,60.00211207645714,1,
18,exp1.png,exp2.png,,1,0,1,0,0,18,18,18,,,,,,,,,,,,,,,,,,,,,,,,,False,37,38,False,exp1.png,exp2.png,trial_left_image,1,exp1.png,1,exp1.png,exp2.png,1,3,reversed,correct,0.9671854825456538,1,valid_win,194.3328174000053,24,,,,,,,,,,,,,,,sub_961,2025-03-24_14h41.31.860,Reversal,2023.1.3,60.00211207645714,1,
19,exp3.png,exp4.png,,1,0,1,0,0,19,19,19,,,,,,,,,,,,,,,,,,,,,,,,,False,38,39,True,exp4.png,exp3.png,trial_right_image,-1,exp3.png,1,exp3.png,exp4.png,1,1,non-reversed,correct,0.298024212290827,1,valid_win,198.79775840000366,25,,,,,,,,,,,,,,,sub_961,2025-03-24_14h41.31.860,Reversal,2023.1.3,60.00211207645714,1,
20,exp1.png,exp2.png,,1,0,1,0,0,20,20,20,,,,,,,,,,,,,,,,,,,,,,,,,False,39,40,True,exp2.png,exp1.png,trial_right_image,-1,exp1.png,1,exp1.png,exp2.png,1,3,reversed,correct,0.3456310870017737,1,valid_win,202.6801925000036,26,,,,,,,,,,,,,,,sub_961,2025-03-24_14h41.31.860,Reversal,2023.1.3,60.00211207645714,1,
,,,exp1.png,1,0,1,0,,,,,0,0,0,0,0,0,0,0,,,,,,,,,,,,,,,,,,,,,,,,,,,,,,,,,,,,,,270.60973060000106,,None,None,[],,,,,,,,,,sub_961,2025-03-24_14h41.31.860,Reversal,2023.1.3,60.00211207645714,1,
,,,exp2.png,1,0,1,0,,,,,0,0,0,0,0,1,1,1,,,,,,,,,,,,,,,,,,,,,,,,,,,,,,,,,,,,,,274.6386930000008,,None,None,[],,,,,,,,,,sub_961,2025-03-24_14h41.31.860,Reversal,2023.1.3,60.00211207645714,1,
,,,exp3.png,1,0,1,0,,,,,0,0,0,0,0,2,2,2,,,,,,,,,,,,,,,,,,,,,,,,,,,,,,,,,,,,,,275.9790492000029,,None,None,[],,,,,,,,,,sub_961,2025-03-24_14h41.31.860,Reversal,2023.1.3,60.00211207645714,1,
,,,exp4.png,1,0,1,0,,,,,0,0,0,0,0,3,3,3,,,,,,,,,,,,,,,,,,,,,,,,,,,,,,,,,,,,,,277.8612040000007,,None,None,[],,,,,,,,,,sub_961,2025-03-24_14h41.31.860,Reversal,2023.1.3,60.00211207645714,1,
0,exp1.png,exp2.png,,2,0,2,0,0,0,0,0,,,,,,,,,,,,,,,,,,,,,,,,,True,,,,,,,,,,,,,,,,,,,,,,,,,,,,,,,,,,,sub_961,2025-03-24_14h41.31.860,Reversal,2023.1.3,60.00211207645714,1,
1,exp3.png,exp4.png,,2,0,2,0,0,1,1,1,,,,,,,,,,,,,,,,,,,,,,,,,False,40,41,True,exp4.png,exp3.png,trial_right_image,-1,exp3.png,1,exp3.png,exp4.png,1,1,non-reversed,correct,0.19114838172504,0,invalid_lose,215.3088343999989,26,,,,,,,,,,,,,,,sub_961,2025-03-24_14h41.31.860,Reversal,2023.1.3,60.00211207645714,1,
2,exp1.png,exp2.png,,2,0,2,0,0,2,2,2,,,,,,,,,,,,,,,,,,,,,,,,,False,41,42,True,exp2.png,exp1.png,trial_right_image,-1,exp1.png,1,exp1.png,exp2.png,1,3,reversed,correct,0.9776142328192836,1,valid_win,219.40849850000814,27,,,,,,,,,,,,,,,sub_961,2025-03-24_14h41.31.860,Reversal,2023.1.3,60.00211207645714,1,
3,exp3.png,exp4.png,,2,0,2,0,0,3,3,3,,,,,,,,,,,,,,,,,,,,,,,,,False,42,43,False,exp3.png,exp4.png,trial_right_image,-1,exp4.png,1,exp3.png,exp4.png,0,2,non-reversed,incorrect,0.41385221224974644,0,valid_lose,223.20625790000486,27,,,,,,,,,,,,,,,sub_961,2025-03-24_14h41.31.860,Reversal,2023.1.3,60.00211207645714,1,
4,exp1.png,exp2.png,,2,0,2,0,0,4,4,4,,,,,,,,,,,,,,,,,,,,,,,,,False,43,44,False,exp1.png,exp2.png,trial_right_image,-1,exp2.png,1,exp1.png,exp2.png,0,4,reversed,incorrect,0.5313217989626678,0,valid_lose,227.1051512999984,27,,,,,,,,,,,,,,,sub_961,2025-03-24_14h41.31.860,Reversal,2023.1.3,60.00211207645714,1,
5,exp3.png,exp4.png,,2,0,2,0,0,5,5,5,,,,,,,,,,,,,,,,,,,,,,,,,False,44,45,False,exp3.png,exp4.png,trial_right_image,-1,exp4.png,1,exp3.png,exp4.png,0,2,non-reversed,incorrect,0.24280330731830246,1,invalid_win,231.07118150001043,28,,,,,,,,,,,,,,,sub_961,2025-03-24_14h41.31.860,Reversal,2023.1.3,60.00211207645714,1,
6,exp1.png,exp2.png,,2,0,2,0,0,6,6,6,,,,,,,,,,,,,,,,,,,,,,,,,False,45,46,True,exp2.png,exp1.png,trial_right_image,-1,exp1.png,1,exp1.png,exp2.png,1,3,reversed,correct,0.28860497052073675,1,valid_win,234.88617830000294,29,,,,,,,,,,,,,,,sub_961,2025-03-24_14h41.31.860,Reversal,2023.1.3,60.00211207645714,1,
7,exp3.png,exp4.png,,2,0,2,0,0,7,7,7,,,,,,,,,,,,,,,,,,,,,,,,,False,46,47,False,exp3.png,exp4.png,trial_right_image,-1,exp4.png,1,exp3.png,exp4.png,0,2,non-reversed,incorrect,0.3119638360487038,0,valid_lose,239.91713690001052,29,,,,,,,,,,,,,,,sub_961,2025-03-24_14h41.31.860,Reversal,2023.1.3,60.00211207645714,1,
8,exp1.png,exp2.png,,2,0,2,0,0,8,8,8,,,,,,,,,,,,,,,,,,,,,,,,,False,47,48,True,exp2.png,exp1.png,trial_right_image,-1,exp1.png,1,exp1.png,exp2.png,1,3,reversed,correct,0.535778563221622,1,valid_win,243.8824820000009,30,,,,,,,,,,,,,,,sub_961,2025-03-24_14h41.31.860,Reversal,2023.1.3,60.00211207645714,1,
9,exp3.png,exp4.png,,2,0,2,0,0,9,9,9,,,,,,,,,,,,,,,,,,,,,,,,,False,48,49,True,exp4.png,exp3.png,trial_right_image,-1,exp3.png,1,exp3.png,exp4.png,1,1,non-reversed,correct,0.5876181131496665,1,valid_win,247.84814610000467,31,,,,,,,,,,,,,,,sub_961,2025-03-24_14h41.31.860,Reversal,2023.1.3,60.00211207645714,1,
10,exp1.png,exp2.png,,2,0,2,0,0,10,10,10,,,,,,,,,,,,,,,,,,,,,,,,,False,49,50,False,exp1.png,exp2.png,trial_right_image,-1,exp2.png,1,exp1.png,exp2.png,0,4,reversed,incorrect,0.3716172438173889,0,valid_lose,251.74671690000105,31,,,,,,,,,,,,,,,sub_961,2025-03-24_14h41.31.860,Reversal,2023.1.3,60.00211207645714,1,
11,exp3.png,exp4.png,,2,0,2,0,0,11,11,11,,,,,,,,,,,,,,,,,,,,,,,,,False,50,51,False,exp3.png,exp4.png,trial_left_image,1,exp3.png,1,exp3.png,exp4.png,1,1,non-reversed,correct,0.47583090545965157,1,valid_win,256.0619526000082,32,,,,,,,,,,,,,,,sub_961,2025-03-24_14h41.31.860,Reversal,2023.1.3,60.00211207645714,1,
12,exp1.png,exp2.png,,2,0,2,0,0,12,12,12,,,,,,,,,,,,,,,,,,,,,,,,,False,51,52,True,exp2.png,exp1.png,trial_left_image,1,exp2.png,1,exp1.png,exp2.png,0,4,reversed,incorrect,0.20896682885976314,1,invalid_win,259.81063859999995,33,,,,,,,,,,,,,,,sub_961,2025-03-24_14h41.31.860,Reversal,2023.1.3,60.00211207645714,1,
13,exp3.png,exp4.png,,2,0,2,0,0,13,13,13,,,,,,,,,,,,,,,,,,,,,,,,,False,52,53,False,exp3.png,exp4.png,trial_left_image,1,exp3.png,1,exp3.png,exp4.png,1,1,non-reversed,correct,0.8321445797869008,1,valid_win,263.87582650000695,34,,,,,,,,,,,,,,,sub_961,2025-03-24_14h41.31.860,Reversal,2023.1.3,60.00211207645714,1,
14,exp1.png,exp2.png,,2,0,2,0,0,14,14,14,,,,,,,,,,,,,,,,,,,,,,,,,False,53,54,True,exp2.png,exp1.png,trial_left_image,1,exp2.png,1,exp1.png,exp2.png,0,4,reversed,incorrect,0.9887312737281212,0,valid_lose,266.8409602000029,34,,,,,,,,,,,,,,,sub_961,2025-03-24_14h41.31.860,Reversal,2023.1.3,60.00211207645714,1,
15,exp3.png,exp4.png,,2,0,2,0,0,15,15,15,,,,,,,,,,,,,,,,,,,,,,,,,False,54,55,False,exp3.png,exp4.png,trial_left_image,1,exp3.png,1,exp3.png,exp4.png,1,1,non-reversed,correct,0.30344964392149043,1,valid_win,269.840666700009,35,,,,,,,,,,,,,,,sub_961,2025-03-24_14h41.31.860,Reversal,2023.1.3,60.00211207645714,1,
16,exp1.png,exp2.png,,2,0,2,0,0,16,16,16,,,,,,,,,,,,,,,,,,,,,,,,,False,55,56,True,exp2.png,exp1.png,trial_left_image,1,exp2.png,1,exp1.png,exp2.png,0,4,reversed,incorrect,0.018893359070900062,1,invalid_win,273.6558672999963,36,,,,,,,,,,,,,,,sub_961,2025-03-24_14h41.31.860,Reversal,2023.1.3,60.00211207645714,1,
17,exp3.png,exp4.png,,2,0,2,0,0,17,17,17,,,,,,,,,,,,,,,,,,,,,,,,,False,56,57,False,exp3.png,exp4.png,trial_left_image,1,exp3.png,1,exp3.png,exp4.png,1,1,non-reversed,correct,0.4797351233494781,1,valid_win,277.4052093000064,37,,,,,,,,,,,,,,,sub_961,2025-03-24_14h41.31.860,Reversal,2023.1.3,60.00211207645714,1,
18,exp1.png,exp2.png,,2,0,2,0,0,18,18,18,,,,,,,,,,,,,,,,,,,,,,,,,False,57,58,True,exp2.png,exp1.png,trial_left_image,1,exp2.png,1,exp1.png,exp2.png,0,4,reversed,incorrect,0.9427960985604603,0,valid_lose,280.52319780000835,37,,,,,,,,,,,,,,,sub_961,2025-03-24_14h41.31.860,Reversal,2023.1.3,60.00211207645714,1,
19,exp3.png,exp4.png,,2,0,2,0,0,19,19,19,,,,,,,,,,,,,,,,,,,,,,,,,False,58,59,True,exp4.png,exp3.png,trial_left_image,1,exp4.png,1,exp3.png,exp4.png,0,2,non-reversed,incorrect,0.8188680550021635,0,valid_lose,283.7741127000045,37,,,,,,,,,,,,,,,sub_961,2025-03-24_14h41.31.860,Reversal,2023.1.3,60.00211207645714,1,
20,exp1.png,exp2.png,,2,0,2,0,0,20,20,20,,,,,,,,,,,,,,,,,,,,,,,,,False,59,60,False,exp1.png,exp2.png,trial_left_image,1,exp1.png,1,exp1.png,exp2.png,1,3,reversed,correct,0.8107646566447507,1,valid_win,287.5343073999975,38,,,,,,,,,,,,,,,sub_961,2025-03-24_14h41.31.860,Reversal,2023.1.3,60.00211207645714,1,
,,,exp1.png,2,0,2,0,,,,,0,0,0,0,0,0,0,0,,,,,,,,,,,,,,,,,,,,,,,,,,,,,,,,,,,,,,355.4637881999952,,None,None,[],,,,,,,,,,sub_961,2025-03-24_14h41.31.860,Reversal,2023.1.3,60.00211207645714,1,
,,,exp2.png,2,0,2,0,,,,,0,0,0,0,0,1,1,1,,,,,,,,,,,,,,,,,,,,,,,,,,,,,,,,,,,,,,357.28497799999604,,None,None,[],,,,,,,,,,sub_961,2025-03-24_14h41.31.860,Reversal,2023.1.3,60.00211207645714,1,
,,,exp3.png,2,0,2,0,,,,,0,0,0,0,0,2,2,2,,,,,,,,,,,,,,,,,,,,,,,,,,,,,,,,,,,,,,358.2184114999982,,None,None,[],,,,,,,,,,sub_961,2025-03-24_14h41.31.860,Reversal,2023.1.3,60.00211207645714,1,
,,,exp4.png,2,0,2,0,,,,,0,0,0,0,0,3,3,3,,,,,,,,,,,,,,,,,,,,,,,,,,,,,,,,,,,,,,359.068185600001,,None,None,[],,,,,,,,,,sub_961,2025-03-24_14h41.31.860,Reversal,2023.1.3,60.00211207645714,1,
0,exp1.png,exp2.png,,3,0,3,0,0,0,0,0,,,,,,,,,,,,,,,,,,,,,,,,,True,,,,,,,,,,,,,,,,,,,,,,,,,,,,,,,,,,,sub_961,2025-03-24_14h41.31.860,Reversal,2023.1.3,60.00211207645714,1,
1,exp3.png,exp4.png,,3,0,3,0,0,1,1,1,,,,,,,,,,,,,,,,,,,,,,,,,False,60,61,False,exp3.png,exp4.png,trial_left_image,1,exp3.png,1,exp3.png,exp4.png,1,1,non-reversed,correct,0.8226589609793916,1,valid_win,296.2645824000065,39,,,,,,,,,,,,,,,sub_961,2025-03-24_14h41.31.860,Reversal,2023.1.3,60.00211207645714,1,
2,exp1.png,exp2.png,,3,0,3,0,0,2,2,2,,,,,,,,,,,,,,,,,,,,,,,,,False,61,62,False,exp1.png,exp2.png,trial_left_image,1,exp1.png,1,exp1.png,exp2.png,1,3,reversed,correct,0.11827836261167624,0,invalid_lose,300.04668149999634,39,,,,,,,,,,,,,,,sub_961,2025-03-24_14h41.31.860,Reversal,2023.1.3,60.00211207645714,1,
3,exp3.png,exp4.png,,3,0,3,0,0,3,3,3,,,,,,,,,,,,,,,,,,,,,,,,,False,62,63,False,exp3.png,exp4.png,trial_left_image,1,exp3.png,1,exp3.png,exp4.png,1,1,non-reversed,correct,0.4779772736643838,1,valid_win,303.11331850000715,40,,,,,,,,,,,,,,,sub_961,2025-03-24_14h41.31.860,Reversal,2023.1.3,60.00211207645714,1,
4,exp1.png,exp2.png,,3,0,3,0,0,4,4,4,,,,,,,,,,,,,,,,,,,,,,,,,False,63,64,True,exp2.png,exp1.png,trial_left_image,1,exp2.png,1,exp1.png,exp2.png,0,4,reversed,incorrect,0.6909346597978081,0,valid_lose,306.9942010000086,40,,,,,,,,,,,,,,,sub_961,2025-03-24_14h41.31.860,Reversal,2023.1.3,60.00211207645714,1,
5,exp3.png,exp4.png,,3,0,3,0,0,5,5,5,,,,,,,,,,,,,,,,,,,,,,,,,False,64,65,True,exp4.png,exp3.png,trial_left_image,1,exp4.png,1,exp3.png,exp4.png,0,2,non-reversed,incorrect,0.9307417754428359,0,valid_lose,313.30881760000193,40,,,,,,,,,,,,,,,sub_961,2025-03-24_14h41.31.860,Reversal,2023.1.3,60.00211207645714,1,
6,exp1.png,exp2.png,,3,0,3,0,0,6,6,6,,,,,,,,,,,,,,,,,,,,,,,,,False,65,66,True,exp2.png,exp1.png,trial_left_image,1,exp2.png,1,exp1.png,exp2.png,0,4,reversed,incorrect,0.5501342133370449,0,valid_lose,316.34185720000823,40,,,,,,,,,,,,,,,sub_961,2025-03-24_14h41.31.860,Reversal,2023.1.3,60.00211207645714,1,
7,exp3.png,exp4.png,,3,0,3,0,0,7,7,7,,,,,,,,,,,,,,,,,,,,,,,,,False,66,67,True,exp4.png,exp3.png,trial_left_image,1,exp4.png,1,exp3.png,exp4.png,0,2,non-reversed,incorrect,0.7460658061974226,0,valid_lose,320.57324120000703,40,,,,,,,,,,,,,,,sub_961,2025-03-24_14h41.31.860,Reversal,2023.1.3,60.00211207645714,1,
8,exp1.png,exp2.png,,3,0,3,0,0,8,8,8,,,,,,,,,,,,,,,,,,,,,,,,,False,67,68,False,exp1.png,exp2.png,trial_left_image,1,exp1.png,1,exp1.png,exp2.png,1,3,reversed,correct,0.08205875664049855,0,invalid_lose,325.20611690000806,40,,,,,,,,,,,,,,,sub_961,2025-03-24_14h41.31.860,Reversal,2023.1.3,60.00211207645714,1,
9,exp3.png,exp4.png,,3,0,3,0,0,9,9,9,,,,,,,,,,,,,,,,,,,,,,,,,False,68,69,True,exp4.png,exp3.png,trial_left_image,1,exp4.png,1,exp3.png,exp4.png,0,2,non-reversed,incorrect,0.32339482439418854,0,valid_lose,328.97035220000544,40,,,,,,,,,,,,,,,sub_961,2025-03-24_14h41.31.860,Reversal,2023.1.3,60.00211207645714,1,
10,exp1.png,exp2.png,,3,0,3,0,0,10,10,10,,,,,,,,,,,,,,,,,,,,,,,,,False,69,70,False,exp1.png,exp2.png,trial_right_image,-1,exp2.png,1,exp1.png,exp2.png,0,4,reversed,incorrect,0.30176977762057344,0,valid_lose,332.78551650000736,40,,,,,,,,,,,,,,,sub_961,2025-03-24_14h41.31.860,Reversal,2023.1.3,60.00211207645714,1,
11,exp3.png,exp4.png,,3,0,3,0,0,11,11,11,,,,,,,,,,,,,,,,,,,,,,,,,False,70,71,False,exp3.png,exp4.png,trial_left_image,1,exp3.png,1,exp3.png,exp4.png,1,1,non-reversed,correct,0.29618160030991536,1,valid_win,337.21840240000165,41,,,,,,,,,,,,,,,sub_961,2025-03-24_14h41.31.860,Reversal,2023.1.3,60.00211207645714,1,
12,exp1.png,exp2.png,,3,0,3,0,0,12,12,12,,,,,,,,,,,,,,,,,,,,,,,,,False,71,72,False,exp1.png,exp2.png,trial_left_image,1,exp1.png,1,exp1.png,exp2.png,1,3,reversed,correct,0.9394270114316559,1,valid_win,341.0331326000014,42,,,,,,,,,,,,,,,sub_961,2025-03-24_14h41.31.860,Reversal,2023.1.3,60.00211207645714,1,
13,exp3.png,exp4.png,,3,0,3,0,0,13,13,13,,,,,,,,,,,,,,,,,,,,,,,,,False,72,73,True,exp4.png,exp3.png,trial_left_image,1,exp4.png,1,exp3.png,exp4.png,0,2,non-reversed,incorrect,0.5932141257201957,0,valid_lose,344.0323569000029,42,,,,,,,,,,,,,,,sub_961,2025-03-24_14h41.31.860,Reversal,2023.1.3,60.00211207645714,1,
14,exp1.png,exp2.png,,3,0,3,0,0,14,14,14,,,,,,,,,,,,,,,,,,,,,,,,,False,73,74,False,exp1.png,exp2.png,trial_left_image,1,exp1.png,1,exp1.png,exp2.png,1,3,reversed,correct,0.9662687847544958,1,valid_win,347.16420780000044,43,,,,,,,,,,,,,,,sub_961,2025-03-24_14h41.31.860,Reversal,2023.1.3,60.00211207645714,1,
15,exp3.png,exp4.png,,3,0,3,0,0,15,15,15,,,,,,,,,,,,,,,,,,,,,,,,,False,74,75,False,exp3.png,exp4.png,trial_left_image,1,exp3.png,1,exp3.png,exp4.png,1,1,non-reversed,correct,0.9182226861120788,1,valid_win,351.0295655000082,44,,,,,,,,,,,,,,,sub_961,2025-03-24_14h41.31.860,Reversal,2023.1.3,60.00211207645714,1,
16,exp1.png,exp2.png,,3,0,3,0,0,16,16,16,,,,,,,,,,,,,,,,,,,,,,,,,False,75,76,False,exp1.png,exp2.png,trial_left_image,1,exp1.png,1,exp1.png,exp2.png,1,3,reversed,correct,0.9847862939669876,1,valid_win,354.8293577000004,45,,,,,,,,,,,,,,,sub_961,2025-03-24_14h41.31.860,Reversal,2023.1.3,60.00211207645714,1,
17,exp3.png,exp4.png,,3,0,3,0,0,17,17,17,,,,,,,,,,,,,,,,,,,,,,,,,False,76,77,True,exp4.png,exp3.png,trial_left_image,1,exp4.png,1,exp3.png,exp4.png,0,2,non-reversed,incorrect,0.1691051959346601,1,invalid_win,358.6775325000053,46,,,,,,,,,,,,,,,sub_961,2025-03-24_14h41.31.860,Reversal,2023.1.3,60.00211207645714,1,
18,exp1.png,exp2.png,,3,0,3,0,0,18,18,18,,,,,,,,,,,,,,,,,,,,,,,,,False,77,78,True,exp2.png,exp1.png,trial_right_image,-1,exp1.png,1,exp1.png,exp2.png,1,3,reversed,correct,0.8542105669634574,1,valid_win,362.5111035000009,47,,,,,,,,,,,,,,,sub_961,2025-03-24_14h41.31.860,Reversal,2023.1.3,60.00211207645714,1,
19,exp3.png,exp4.png,,3,0,3,0,0,19,19,19,,,,,,,,,,,,,,,,,,,,,,,,,False,78,79,True,exp4.png,exp3.png,trial_left_image,1,exp4.png,1,exp3.png,exp4.png,0,2,non-reversed,incorrect,0.022671486830166288,1,invalid_win,367.3904767000058,48,,,,,,,,,,,,,,,sub_961,2025-03-24_14h41.31.860,Reversal,2023.1.3,60.00211207645714,1,
20,exp1.png,exp2.png,,3,0,3,0,0,20,20,20,,,,,,,,,,,,,,,,,,,,,,,,,False,79,80,True,exp2.png,exp1.png,trial_right_image,-1,exp1.png,1,exp1.png,exp2.png,1,3,reversed,correct,0.054587514820989,0,invalid_lose,371.5078959000093,48,,,,,,,,,,,,,,,sub_961,2025-03-24_14h41.31.860,Reversal,2023.1.3,60.00211207645714,1,
,,,exp1.png,3,0,3,0,,,,,0,0,0,0,0,0,0,0,,,,,,,,,,,,,,,,,,,,,,,,,,,,,,,,,,,,,,439.43851520000317,,None,None,[],,,,,,,,,,sub_961,2025-03-24_14h41.31.860,Reversal,2023.1.3,60.00211207645714,1,
,,,exp2.png,3,0,3,0,,,,,0,0,0,0,0,1,1,1,,,,,,,,,,,,,,,,,,,,,,,,,,,,,,,,,,,,,,441.1898390999995,,None,None,[],,,,,,,,,,sub_961,2025-03-24_14h41.31.860,Reversal,2023.1.3,60.00211207645714,1,
,,,exp3.png,3,0,3,0,,,,,0,0,0,0,0,2,2,2,,,,,,,,,,,,,,,,,,,,,,,,,,,,,,,,,,,,,,442.1227652999951,,49.0,2.3130157999985386,"[(49.0, 2.3130157999985386)]",49.0,,,,,,,,,sub_961,2025-03-24_14h41.31.860,Reversal,2023.1.3,60.00211207645714,1,
,,,exp4.png,3,0,3,0,,,,,0,0,0,0,0,3,3,3,,,,,,,,,,,,,,,,,,,,,,,,,,,,,,,,,,,,,,445.2554906000005,,44.0,0.8880437000043457,"[(44.0, 0.8880437000043457)]",,44.0,,,,,,,,sub_961,2025-03-24_14h41.31.860,Reversal,2023.1.3,60.00211207645714,1,
0,exp1.png,exp2.png,,,,,,,,,,,,,,,,,,0,0,0,0,0,0,0,0,,,,,,,,,True,,,,,,,,,,,,,,,,,,,,,,,,,,,,,,,,,,,sub_961,2025-03-24_14h41.31.860,Reversal,2023.1.3,60.00211207645714,1,
1,exp3.png,exp4.png,,,,,,,,,,,,,,,,,,0,0,0,0,0,1,1,1,,,,,,,,,False,0,81,False,exp3.png,exp4.png,trial_left_image,1,exp3.png,1,exp3.png,exp4.png,1,1,non-reversed,correct,0.16589927879759714,0,invalid_lose,383.68548759999976,48,,,,,,,,381.63223950000247,,,,,,,sub_961,2025-03-24_14h41.31.860,Reversal,2023.1.3,60.00211207645714,1,
2,exp1.png,exp2.png,,,,,,,,,,,,,,,,,,0,0,0,0,0,2,2,2,,,,,,,,,False,1,82,False,exp1.png,exp2.png,trial_right_image,-1,exp2.png,1,exp2.png,exp1.png,0,4,reversed,correct,0.4945704608452536,1,valid_win,387.93404120000196,49,,,,,,,,,,,,,,,sub_961,2025-03-24_14h41.31.860,Reversal,2023.1.3,60.00211207645714,1,
3,exp3.png,exp4.png,,,,,,,,,,,,,,,,,,0,0,0,0,0,3,3,3,,,,,,,,,False,2,83,True,exp4.png,exp3.png,trial_right_image,-1,exp3.png,1,exp3.png,exp4.png,1,1,non-reversed,correct,0.11625613378971811,0,invalid_lose,392.18213270000706,49,,,,,,,,,,,,,,,sub_961,2025-03-24_14h41.31.860,Reversal,2023.1.3,60.00211207645714,1,
4,exp1.png,exp2.png,,,,,,,,,,,,,,,,,,0,0,0,0,0,4,4,4,,,,,,,,,False,3,84,False,exp1.png,exp2.png,trial_right_image,-1,exp2.png,1,exp2.png,exp1.png,0,4,reversed,correct,0.5002867431254024,1,valid_win,396.06460420000076,50,,,,,,,,,,,,,,,sub_961,2025-03-24_14h41.31.860,Reversal,2023.1.3,60.00211207645714,1,
5,exp3.png,exp4.png,,,,,,,,,,,,,,,,,,0,0,0,0,0,5,5,5,,,,,,,,,False,4,85,False,exp3.png,exp4.png,trial_right_image,-1,exp4.png,1,exp3.png,exp4.png,0,2,non-reversed,incorrect,0.43305928010984107,0,valid_lose,399.9968504999997,50,,,,,,,,,,,,,,,sub_961,2025-03-24_14h41.31.860,Reversal,2023.1.3,60.00211207645714,1,
6,exp1.png,exp2.png,,,,,,,,,,,,,,,,,,0,0,0,0,0,6,6,6,,,,,,,,,False,5,86,False,exp1.png,exp2.png,trial_right_image,-1,exp2.png,1,exp2.png,exp1.png,0,4,reversed,correct,0.15575451157030784,0,invalid_lose,403.89462849999836,50,,,,,,,,,,,,,,,sub_961,2025-03-24_14h41.31.860,Reversal,2023.1.3,60.00211207645714,1,
7,exp3.png,exp4.png,,,,,,,,,,,,,,,,,,0,0,0,0,0,7,7,7,,,,,,,,,False,6,87,False,exp3.png,exp4.png,trial_right_image,-1,exp4.png,1,exp3.png,exp4.png,0,2,non-reversed,incorrect,0.6658312759782461,0,valid_lose,407.8602615999989,50,,,,,,,,,,,,,,,sub_961,2025-03-24_14h41.31.860,Reversal,2023.1.3,60.00211207645714,1,
8,exp1.png,exp2.png,,,,,,,,,,,,,,,,,,0,0,0,0,0,8,8,8,,,,,,,,,False,7,88,True,exp2.png,exp1.png,trial_left_image,1,exp2.png,1,exp2.png,exp1.png,0,4,reversed,correct,0.48128910044607065,1,valid_win,411.9917504000041,51,,,,,,,,,,,,,,,sub_961,2025-03-24_14h41.31.860,Reversal,2023.1.3,60.00211207645714,1,
9,exp3.png,exp4.png,,,,,,,,,,,,,,,,,,0,0,0,0,0,9,9,9,,,,,,,,,False,8,89,True,exp4.png,exp3.png,trial_right_image,-1,exp3.png,1,exp3.png,exp4.png,1,1,non-reversed,correct,0.3335488042878767,1,valid_win,416.19048869999824,52,,,,,,,,,,,,,,,sub_961,2025-03-24_14h41.31.860,Reversal,2023.1.3,60.00211207645714,1,
10,exp1.png,exp2.png,,,,,,,,,,,,,,,,,,0,0,0,0,0,10,10,10,,,,,,,,,False,9,90,False,exp1.png,exp2.png,trial_right_image,-1,exp2.png,1,exp2.png,exp1.png,0,4,reversed,correct,0.9531809720790221,1,valid_win,420.2912544999999,53,,,,,,,,,,,,,,,sub_961,2025-03-24_14h41.31.860,Reversal,2023.1.3,60.00211207645714,1,
11,exp3.png,exp4.png,,,,,,,,,,,,,,,,,,0,0,0,0,0,11,11,11,,,,,,,,,False,10,91,True,exp4.png,exp3.png,trial_right_image,-1,exp3.png,1,exp3.png,exp4.png,1,1,non-reversed,correct,0.3781153204078549,1,valid_win,424.1551749000064,54,,,,,,,,,,,,,,,sub_961,2025-03-24_14h41.31.860,Reversal,2023.1.3,60.00211207645714,1,
12,exp1.png,exp2.png,,,,,,,,,,,,,,,,,,0,0,0,0,0,12,12,12,,,,,,,,,False,11,92,True,exp2.png,exp1.png,trial_right_image,-1,exp1.png,1,exp2.png,exp1.png,1,3,reversed,incorrect,0.6222909088495014,0,valid_lose,427.9367464000097,54,,,,,,,,,,,,,,,sub_961,2025-03-24_14h41.31.860,Reversal,2023.1.3,60.00211207645714,1,
13,exp3.png,exp4.png,,,,,,,,,,,,,,,,,,0,0,0,0,0,13,13,13,,,,,,,,,False,12,93,False,exp3.png,exp4.png,trial_right_image,-1,exp4.png,1,exp3.png,exp4.png,0,2,non-reversed,incorrect,0.5998895563019683,0,valid_lose,433.03501069999766,54,,,,,,,,,,,,,,,sub_961,2025-03-24_14h41.31.860,Reversal,2023.1.3,60.00211207645714,1,
14,exp1.png,exp2.png,,,,,,,,,,,,,,,,,,0,0,0,0,0,14,14,14,,,,,,,,,False,13,94,True,exp2.png,exp1.png,trial_right_image,-1,exp1.png,1,exp2.png,exp1.png,1,3,reversed,incorrect,0.006324911099016672,1,invalid_win,436.9667627000017,55,,,,,,,,,,,,,,,sub_961,2025-03-24_14h41.31.860,Reversal,2023.1.3,60.00211207645714,1,
15,exp3.png,exp4.png,,,,,,,,,,,,,,,,,,0,0,0,0,0,15,15,15,,,,,,,,,False,14,95,False,exp3.png,exp4.png,trial_right_image,-1,exp4.png,1,exp3.png,exp4.png,0,2,non-reversed,incorrect,0.717214243273151,0,valid_lose,440.8656789000088,55,,,,,,,,,,,,,,,sub_961,2025-03-24_14h41.31.860,Reversal,2023.1.3,60.00211207645714,1,
16,exp1.png,exp2.png,,,,,,,,,,,,,,,,,,0,0,0,0,0,16,16,16,,,,,,,,,False,15,96,True,exp2.png,exp1.png,trial_right_image,-1,exp1.png,1,exp2.png,exp1.png,1,3,reversed,incorrect,0.9722677333997152,0,valid_lose,445.18086089999997,55,,,,,,,,,,,,,,,sub_961,2025-03-24_14h41.31.860,Reversal,2023.1.3,60.00211207645714,1,
17,exp3.png,exp4.png,,,,,,,,,,,,,,,,,,0,0,0,0,0,17,17,17,,,,,,,,,False,16,97,True,exp4.png,exp3.png,trial_right_image,-1,exp3.png,1,exp3.png,exp4.png,1,1,non-reversed,correct,0.698100956060789,1,valid_win,450.09595689999696,56,,,,,,,,,,,,,,,sub_961,2025-03-24_14h41.31.860,Reversal,2023.1.3,60.00211207645714,1,
18,exp1.png,exp2.png,,,,,,,,,,,,,,,,,,0,0,0,0,0,18,18,18,,,,,,,,,False,17,98,False,exp1.png,exp2.png,trial_right_image,-1,exp2.png,1,exp2.png,exp1.png,0,4,reversed,correct,0.7198085779095873,1,valid_win,454.01138190001075,57,,,,,,,,,,,,,,,sub_961,2025-03-24_14h41.31.860,Reversal,2023.1.3,60.00211207645714,1,
19,exp3.png,exp4.png,,,,,,,,,,,,,,,,,,0,0,0,0,0,19,19,19,,,,,,,,,False,18,99,True,exp4.png,exp3.png,trial_right_image,-1,exp3.png,1,exp3.png,exp4.png,1,1,non-reversed,correct,0.1696817074136444,0,invalid_lose,458.9428706000035,57,,,,,,,,,,,,,,,sub_961,2025-03-24_14h41.31.860,Reversal,2023.1.3,60.00211207645714,1,
20,exp1.png,exp2.png,,,,,,,,,,,,,,,,,,0,0,0,0,0,20,20,20,,,,,,,,,False,19,100,True,exp2.png,exp1.png,trial_right_image,-1,exp1.png,1,exp2.png,exp1.png,1,3,reversed,incorrect,0.91257706620313,0,valid_lose,462.8083329000074,57,,,,,,,,,,,,,,,sub_961,2025-03-24_14h41.31.860,Reversal,2023.1.3,60.00211207645714,1,
,,,exp1.png,,,,,,,,,,,,,,,,,0,0,0,0,,,,,0,0,0,0,0,0,0,0,,,,,,,,,,,,,,,,,,,,,,530.7318376999901,55.0,55.0,1.291193099998054,"[(55.0, 1.291193099998054)]",,,,,,,,,,sub_961,2025-03-24_14h41.31.860,Reversal,2023.1.3,60.00211207645714,1,
,,,exp2.png,,,,,,,,,,,,,,,,,0,0,0,0,,,,,0,0,0,0,0,1,1,1,,,,,,,,,,,,,,,,,,,,,,533.0567979999905,,63.0,1.4627325000037672,"[(58.0, 0.9955572000035318), (63.0, 1.4627325000037672)]",,,,63.0,,,,,,sub_961,2025-03-24_14h41.31.860,Reversal,2023.1.3,60.00211207645714,1,
,,,exp3.png,,,,,,,,,,,,,,,,,0,0,0,0,,,,,0,0,0,0,0,2,2,2,,,,,,,,,,,,,,,,,,,,,,535.9074713000009,,39.0,0.9284578999941004,"[(39.0, 0.9284578999941004)]",39.0,,,,,,,,,sub_961,2025-03-24_14h41.31.860,Reversal,2023.1.3,60.00211207645714,1,
,,,exp4.png,,,,,,,,,,,,,,,,,0,0,0,0,,,,,0,0,0,0,0,3,3,3,,,,,,,,,,,,,,,,,,,,,,537.7231257999956,,31.0,0.8778733000071952,"[(31.0, 0.8778733000071952)]",,31.0,,,,,,,,sub_961,2025-03-24_14h41.31.860,Reversal,2023.1.3,60.00211207645714,1,
0,exp1.png,exp2.png,,,,,,,,,,,,,,,,,,1,0,1,0,0,0,0,0,,,,,,,,,True,,,,,,,,,,,,,,,,,,,,,,,,,,,,,,,,,,,sub_961,2025-03-24_14h41.31.860,Reversal,2023.1.3,60.00211207645714,1,
1,exp3.png,exp4.png,,,,,,,,,,,,,,,,,,1,0,1,0,0,1,1,1,,,,,,,,,False,20,101,False,exp3.png,exp4.png,trial_right_image,-1,exp4.png,1,exp3.png,exp4.png,0,2,non-reversed,incorrect,0.8011186633644659,0,valid_lose,476.3533968999982,57,,,,,,,,,,,,,,,sub_961,2025-03-24_14h41.31.860,Reversal,2023.1.3,60.00211207645714,1,
2,exp1.png,exp2.png,,,,,,,,,,,,,,,,,,1,0,1,0,0,2,2,2,,,,,,,,,False,21,102,False,exp1.png,exp2.png,trial_right_image,-1,exp2.png,1,exp2.png,exp1.png,0,4,reversed,correct,0.06654106129932202,0,invalid_lose,480.2219407000084,57,,,,,,,,,,,,,,,sub_961,2025-03-24_14h41.31.860,Reversal,2023.1.3,60.00211207645714,1,
3,exp3.png,exp4.png,,,,,,,,,,,,,,,,,,1,0,1,0,0,3,3,3,,,,,,,,,False,22,103,True,exp4.png,exp3.png,trial_right_image,-1,exp3.png,1,exp3.png,exp4.png,1,1,non-reversed,correct,0.06838181645892316,0,invalid_lose,484.084105300004,57,,,,,,,,,,,,,,,sub_961,2025-03-24_14h41.31.860,Reversal,2023.1.3,60.00211207645714,1,
4,exp1.png,exp2.png,,,,,,,,,,,,,,,,,,1,0,1,0,0,4,4,4,,,,,,,,,False,23,104,True,exp2.png,exp1.png,trial_left_image,1,exp2.png,1,exp2.png,exp1.png,0,4,reversed,correct,0.7775816911047738,1,valid_win,493.7336165000015,58,,,,,,,,,,,,,,,sub_961,2025-03-24_14h41.31.860,Reversal,2023.1.3,60.00211207645714,1,
5,exp3.png,exp4.png,,,,,,,,,,,,,,,,,,1,0,1,0,0,5,5,5,,,,,,,,,False,24,105,False,exp3.png,exp4.png,trial_left_image,1,exp3.png,1,exp3.png,exp4.png,1,1,non-reversed,correct,0.5455755295262735,1,valid_win,497.7344740999979,59,,,,,,,,,,,,,,,sub_961,2025-03-24_14h41.31.860,Reversal,2023.1.3,60.00211207645714,1,
6,exp1.png,exp2.png,,,,,,,,,,,,,,,,,,1,0,1,0,0,6,6,6,,,,,,,,,False,25,106,False,exp1.png,exp2.png,trial_left_image,1,exp1.png,1,exp2.png,exp1.png,1,3,reversed,incorrect,0.5883629693504263,0,valid_lose,501.5151714000094,59,,,,,,,,,,,,,,,sub_961,2025-03-24_14h41.31.860,Reversal,2023.1.3,60.00211207645714,1,
7,exp3.png,exp4.png,,,,,,,,,,,,,,,,,,1,0,1,0,0,7,7,7,,,,,,,,,False,26,107,True,exp4.png,exp3.png,trial_right_image,-1,exp3.png,1,exp3.png,exp4.png,1,1,non-reversed,correct,0.6450648306605551,1,valid_win,504.746948400003,60,,,,,,,,,,,,,,,sub_961,2025-03-24_14h41.31.860,Reversal,2023.1.3,60.00211207645714,1,
8,exp1.png,exp2.png,,,,,,,,,,,,,,,,,,1,0,1,0,0,8,8,8,,,,,,,,,False,27,108,False,exp1.png,exp2.png,trial_left_image,1,exp1.png,1,exp2.png,exp1.png,1,3,reversed,incorrect,0.19398408689597324,1,invalid_win,507.7287435000035,61,,,,,,,,,,,,,,,sub_961,2025-03-24_14h41.31.860,Reversal,2023.1.3,60.00211207645714,1,
9,exp3.png,exp4.png,,,,,,,,,,,,,,,,,,1,0,1,0,0,9,9,9,,,,,,,,,False,28,109,True,exp4.png,exp3.png,trial_right_image,-1,exp3.png,1,exp3.png,exp4.png,1,1,non-reversed,correct,0.661473295905691,1,valid_win,510.6778434000007,62,,,,,,,,,,,,,,,sub_961,2025-03-24_14h41.31.860,Reversal,2023.1.3,60.00211207645714,1,
10,exp1.png,exp2.png,,,,,,,,,,,,,,,,,,1,0,1,0,0,10,10,10,,,,,,,,,False,29,110,True,exp2.png,exp1.png,trial_left_image,1,exp2.png,1,exp2.png,exp1.png,0,4,reversed,correct,0.5314063716524748,1,valid_win,513.6441739000002,63,,,,,,,,,,,,,,,sub_961,2025-03-24_14h41.31.860,Reversal,2023.1.3,60.00211207645714,1,
11,exp3.png,exp4.png,,,,,,,,,,,,,,,,,,1,0,1,0,0,11,11,11,,,,,,,,,False,30,111,False,exp3.png,exp4.png,trial_right_image,-1,exp4.png,1,exp3.png,exp4.png,0,2,non-reversed,incorrect,0.39043700992658303,0,valid_lose,516.6450467000104,63,,,,,,,,,,,,,,,sub_961,2025-03-24_14h41.31.860,Reversal,2023.1.3,60.00211207645714,1,
12,exp1.png,exp2.png,,,,,,,,,,,,,,,,,,1,0,1,0,0,12,12,12,,,,,,,,,False,31,112,False,exp1.png,exp2.png,trial_left_image,1,exp1.png,1,exp2.png,exp1.png,1,3,reversed,incorrect,0.13447544247042242,1,invalid_win,519.6085348000051,64,,,,,,,,,,,,,,,sub_961,2025-03-24_14h41.31.860,Reversal,2023.1.3,60.00211207645714,1,
13,exp3.png,exp4.png,,,,,,,,,,,,,,,,,,1,0,1,0,0,13,13,13,,,,,,,,,False,32,113,True,exp4.png,exp3.png,trial_right_image,-1,exp3.png,1,exp3.png,exp4.png,1,1,non-reversed,correct,0.04198239158061967,0,invalid_lose,523.9397271000053,64,,,,,,,,,,,,,,,sub_961,2025-03-24_14h41.31.860,Reversal,2023.1.3,60.00211207645714,1,
14,exp1.png,exp2.png,,,,,,,,,,,,,,,,,,1,0,1,0,0,14,14,14,,,,,,,,,False,33,114,True,exp2.png,exp1.png,trial_right_image,-1,exp1.png,1,exp2.png,exp1.png,1,3,reversed,incorrect,0.2764053467901392,0,valid_lose,527.351508599997,64,,,,,,,,,,,,,,,sub_961,2025-03-24_14h41.31.860,Reversal,2023.1.3,60.00211207645714,1,
15,exp3.png,exp4.png,,,,,,,,,,,,,,,,,,1,0,1,0,0,15,15,15,,,,,,,,,False,34,115,True,exp4.png,exp3.png,trial_left_image,1,exp4.png,1,exp3.png,exp4.png,0,2,non-reversed,incorrect,0.007851803310293781,1,invalid_win,530.299317500001,65,,,,,,,,,,,,,,,sub_961,2025-03-24_14h41.31.860,Reversal,2023.1.3,60.00211207645714,1,
16,exp1.png,exp2.png,,,,,,,,,,,,,,,,,,1,0,1,0,0,16,16,16,,,,,,,,,False,35,116,False,exp1.png,exp2.png,trial_right_image,-1,exp2.png,1,exp2.png,exp1.png,0,4,reversed,correct,0.12750736473627733,0,invalid_lose,533.2968679000041,65,,,,,,,,,,,,,,,sub_961,2025-03-24_14h41.31.860,Reversal,2023.1.3,60.00211207645714,1,
17,exp3.png,exp4.png,,,,,,,,,,,,,,,,,,1,0,1,0,0,17,17,17,,,,,,,,,False,36,117,False,exp3.png,exp4.png,trial_left_image,1,exp3.png,1,exp3.png,exp4.png,1,1,non-reversed,correct,0.8311006123196166,1,valid_win,536.3027448000066,66,,,,,,,,,,,,,,,sub_961,2025-03-24_14h41.31.860,Reversal,2023.1.3,60.00211207645714,1,
18,exp1.png,exp2.png,,,,,,,,,,,,,,,,,,1,0,1,0,0,18,18,18,,,,,,,,,False,37,118,False,exp1.png,exp2.png,trial_right_image,-1,exp2.png,1,exp2.png,exp1.png,0,4,reversed,correct,0.24322750588870679,0,invalid_lose,539.4777861000039,66,,,,,,,,,,,,,,,sub_961,2025-03-24_14h41.31.860,Reversal,2023.1.3,60.00211207645714,1,
19,exp3.png,exp4.png,,,,,,,,,,,,,,,,,,1,0,1,0,0,19,19,19,,,,,,,,,False,38,119,True,exp4.png,exp3.png,trial_left_image,1,exp4.png,1,exp3.png,exp4.png,0,2,non-reversed,incorrect,0.8487633445646869,0,valid_lose,542.5602423000091,66,,,,,,,,,,,,,,,sub_961,2025-03-24_14h41.31.860,Reversal,2023.1.3,60.00211207645714,1,
20,exp1.png,exp2.png,,,,,,,,,,,,,,,,,,1,0,1,0,0,20,20,20,,,,,,,,,False,39,120,True,exp2.png,exp1.png,trial_right_image,-1,exp1.png,1,exp2.png,exp1.png,1,3,reversed,incorrect,0.23030669955143368,1,invalid_win,546.2924105999991,67,,,,,,,,,,,,,,,sub_961,2025-03-24_14h41.31.860,Reversal,2023.1.3,60.00211207645714,1,
,,,exp1.png,,,,,,,,,,,,,,,,,1,0,1,0,,,,,0,0,0,0,0,0,0,0,,,,,,,,,,,,,,,,,,,,,,614.2134588000044,,None,None,[],,,,,,,,,,sub_961,2025-03-24_14h41.31.860,Reversal,2023.1.3,60.00211207645714,1,
,,,exp2.png,,,,,,,,,,,,,,,,,1,0,1,0,,,,,0,0,0,0,0,1,1,1,,,,,,,,,,,,,,,,,,,,,,617.2092640999908,,None,None,[],,,,,,,,,,sub_961,2025-03-24_14h41.31.860,Reversal,2023.1.3,60.00211207645714,1,
,,,exp3.png,,,,,,,,,,,,,,,,,1,0,1,0,,,,,0,0,0,0,0,2,2,2,,,,,,,,,,,,,,,,,,,,,,618.2085441999952,,50.0,2.684992099995725,"[(50.0, 2.684992099995725)]",50.0,,,,,,,,,sub_961,2025-03-24_14h41.31.860,Reversal,2023.1.3,60.00211207645714,1,
,,,exp4.png,,,,,,,,,,,,,,,,,1,0,1,0,,,,,0,0,0,0,0,3,3,3,,,,,,,,,,,,,,,,,,,,,,621.7765440999938,,None,None,[],,,,,,,,,,sub_961,2025-03-24_14h41.31.860,Reversal,2023.1.3,60.00211207645714,1,
0,exp1.png,exp2.png,,,,,,,,,,,,,,,,,,2,0,2,0,0,0,0,0,,,,,,,,,True,,,,,,,,,,,,,,,,,,,,,,,,,,,,,,,,,,,sub_961,2025-03-24_14h41.31.860,Reversal,2023.1.3,60.00211207645714,1,
1,exp3.png,exp4.png,,,,,,,,,,,,,,,,,,2,0,2,0,0,1,1,1,,,,,,,,,False,40,121,True,exp4.png,exp3.png,trial_right_image,-1,exp3.png,1,exp3.png,exp4.png,1,1,non-reversed,correct,0.017956195532203623,0,invalid_lose,558.7743552000029,67,,,,,,,,,,,,,,,sub_961,2025-03-24_14h41.31.860,Reversal,2023.1.3,60.00211207645714,1,
2,exp1.png,exp2.png,,,,,,,,,,,,,,,,,,2,0,2,0,0,2,2,2,,,,,,,,,False,41,122,True,exp2.png,exp1.png,trial_right_image,-1,exp1.png,1,exp2.png,exp1.png,1,3,reversed,incorrect,0.5261193237904124,0,valid_lose,561.821618300004,67,,,,,,,,,,,,,,,sub_961,2025-03-24_14h41.31.860,Reversal,2023.1.3,60.00211207645714,1,
3,exp3.png,exp4.png,,,,,,,,,,,,,,,,,,2,0,2,0,0,3,3,3,,,,,,,,,False,42,123,True,exp4.png,exp3.png,trial_right_image,-1,exp3.png,1,exp3.png,exp4.png,1,1,non-reversed,correct,0.2668909567112946,1,valid_win,564.8933341000084,68,,,,,,,,,,,,,,,sub_961,2025-03-24_14h41.31.860,Reversal,2023.1.3,60.00211207645714,1,
4,exp1.png,exp2.png,,,,,,,,,,,,,,,,,,2,0,2,0,0,4,4,4,,,,,,,,,False,43,124,False,exp1.png,exp2.png,trial_right_image,-1,exp2.png,1,exp2.png,exp1.png,0,4,reversed,correct,0.5391764457228319,1,valid_win,568.4227231999976,69,,,,,,,,,,,,,,,sub_961,2025-03-24_14h41.31.860,Reversal,2023.1.3,60.00211207645714,1,
5,exp3.png,exp4.png,,,,,,,,,,,,,,,,,,2,0,2,0,0,5,5,5,,,,,,,,,False,44,125,False,exp3.png,exp4.png,trial_right_image,-1,exp4.png,1,exp3.png,exp4.png,0,2,non-reversed,incorrect,0.48651839812770437,0,valid_lose,572.0869329999987,69,,,,,,,,,,,,,,,sub_961,2025-03-24_14h41.31.860,Reversal,2023.1.3,60.00211207645714,1,
6,exp1.png,exp2.png,,,,,,,,,,,,,,,,,,2,0,2,0,0,6,6,6,,,,,,,,,False,45,126,True,exp2.png,exp1.png,trial_right_image,-1,exp1.png,1,exp2.png,exp1.png,1,3,reversed,incorrect,0.2935367529828037,0,valid_lose,575.0328919000021,69,,,,,,,,,,,,,,,sub_961,2025-03-24_14h41.31.860,Reversal,2023.1.3,60.00211207645714,1,
7,exp3.png,exp4.png,,,,,,,,,,,,,,,,,,2,0,2,0,0,7,7,7,,,,,,,,,False,46,127,False,exp3.png,exp4.png,trial_right_image,-1,exp4.png,1,exp3.png,exp4.png,0,2,non-reversed,incorrect,0.22593606123345833,1,invalid_win,577.9983727000072,70,,,,,,,,,,,,,,,sub_961,2025-03-24_14h41.31.860,Reversal,2023.1.3,60.00211207645714,1,
8,exp1.png,exp2.png,,,,,,,,,,,,,,,,,,2,0,2,0,0,8,8,8,,,,,,,,,False,47,128,False,exp1.png,exp2.png,trial_right_image,-1,exp2.png,1,exp2.png,exp1.png,0,4,reversed,correct,0.28694291405637906,1,valid_win,582.0811185000057,71,,,,,,,,,,,,,,,sub_961,2025-03-24_14h41.31.860,Reversal,2023.1.3,60.00211207645714,1,
9,exp3.png,exp4.png,,,,,,,,,,,,,,,,,,2,0,2,0,0,9,9,9,,,,,,,,,False,48,129,True,exp4.png,exp3.png,trial_right_image,-1,exp3.png,1,exp3.png,exp4.png,1,1,non-reversed,correct,0.12314797739091499,0,invalid_lose,585.19613940001,71,,,,,,,,,,,,,,,sub_961,2025-03-24_14h41.31.860,Reversal,2023.1.3,60.00211207645714,1,
10,exp1.png,exp2.png,,,,,,,,,,,,,,,,,,2,0,2,0,0,10,10,10,,,,,,,,,False,49,130,False,exp1.png,exp2.png,trial_right_image,-1,exp2.png,1,exp2.png,exp1.png,0,4,reversed,correct,0.3799980509287122,1,valid_win,588.1977469999983,72,,,,,,,,,,,,,,,sub_961,2025-03-24_14h41.31.860,Reversal,2023.1.3,60.00211207645714,1,
11,exp3.png,exp4.png,,,,,,,,,,,,,,,,,,2,0,2,0,0,11,11,11,,,,,,,,,False,50,131,False,exp3.png,exp4.png,trial_right_image,-1,exp4.png,1,exp3.png,exp4.png,0,2,non-reversed,incorrect,0.07377281904068222,1,invalid_win,592.4592744999973,73,,,,,,,,,,,,,,,sub_961,2025-03-24_14h41.31.860,Reversal,2023.1.3,60.00211207645714,1,
12,exp1.png,exp2.png,,,,,,,,,,,,,,,,,,2,0,2,0,0,12,12,12,,,,,,,,,False,51,132,True,exp2.png,exp1.png,trial_right_image,-1,exp1.png,1,exp2.png,exp1.png,1,3,reversed,incorrect,0.9390111480855666,0,valid_lose,596.5448013999994,73,,,,,,,,,,,,,,,sub_961,2025-03-24_14h41.31.860,Reversal,2023.1.3,60.00211207645714,1,
13,exp3.png,exp4.png,,,,,,,,,,,,,,,,,,2,0,2,0,0,13,13,13,,,,,,,,,False,52,133,False,exp3.png,exp4.png,trial_right_image,-1,exp4.png,1,exp3.png,exp4.png,0,2,non-reversed,incorrect,0.5047941192822021,0,valid_lose,599.5576373000076,73,,,,,,,,,,,,,,,sub_961,2025-03-24_14h41.31.860,Reversal,2023.1.3,60.00211207645714,1,
14,exp1.png,exp2.png,,,,,,,,,,,,,,,,,,2,0,2,0,0,14,14,14,,,,,,,,,False,53,134,True,exp2.png,exp1.png,trial_right_image,-1,exp1.png,1,exp2.png,exp1.png,1,3,reversed,incorrect,0.4976538166229426,0,valid_lose,603.3440511000081,73,,,,,,,,,,,,,,,sub_961,2025-03-24_14h41.31.860,Reversal,2023.1.3,60.00211207645714,1,
15,exp3.png,exp4.png,,,,,,,,,,,,,,,,,,2,0,2,0,0,15,15,15,,,,,,,,,False,54,135,False,exp3.png,exp4.png,trial_right_image,-1,exp4.png,1,exp3.png,exp4.png,0,2,non-reversed,incorrect,0.5977816426104733,0,valid_lose,608.5259510000033,73,,,,,,,,,,,,,,,sub_961,2025-03-24_14h41.31.860,Reversal,2023.1.3,60.00211207645714,1,
16,exp1.png,exp2.png,,,,,,,,,,,,,,,,,,2,0,2,0,0,16,16,16,,,,,,,,,False,55,136,True,exp2.png,exp1.png,trial_right_image,-1,exp1.png,1,exp2.png,exp1.png,1,3,reversed,incorrect,0.1353364840172011,1,invalid_win,613.1863498000021,74,,,,,,,,,,,,,,,sub_961,2025-03-24_14h41.31.860,Reversal,2023.1.3,60.00211207645714,1,
17,exp3.png,exp4.png,,,,,,,,,,,,,,,,,,2,0,2,0,0,17,17,17,,,,,,,,,False,56,137,True,exp4.png,exp3.png,trial_right_image,-1,exp3.png,1,exp3.png,exp4.png,1,1,non-reversed,correct,0.8301083430809969,1,valid_win,616.1693155000103,75,,,,,,,,,,,,,,,sub_961,2025-03-24_14h41.31.860,Reversal,2023.1.3,60.00211207645714,1,
18,exp1.png,exp2.png,,,,,,,,,,,,,,,,,,2,0,2,0,0,18,18,18,,,,,,,,,False,57,138,False,exp1.png,exp2.png,trial_left_image,1,exp1.png,1,exp2.png,exp1.png,1,3,reversed,incorrect,0.18601137111587152,1,invalid_win,619.5342431000026,76,,,,,,,,,,,,,,,sub_961,2025-03-24_14h41.31.860,Reversal,2023.1.3,60.00211207645714,1,
19,exp3.png,exp4.png,,,,,,,,,,,,,,,,,,2,0,2,0,0,19,19,19,,,,,,,,,False,58,139,True,exp4.png,exp3.png,trial_right_image,-1,exp3.png,1,exp3.png,exp4.png,1,1,non-reversed,correct,0.6764822905531825,1,valid_win,622.4837336000055,77,,,,,,,,,,,,,,,sub_961,2025-03-24_14h41.31.860,Reversal,2023.1.3,60.00211207645714,1,
20,exp1.png,exp2.png,,,,,,,,,,,,,,,,,,2,0,2,0,0,20,20,20,,,,,,,,,False,59,140,False,exp1.png,exp2.png,trial_right_image,-1,exp2.png,1,exp2.png,exp1.png,0,4,reversed,correct,0.4211990182954889,1,valid_win,625.4161506000091,78,,,,,,,,,,,,,,,sub_961,2025-03-24_14h41.31.860,Reversal,2023.1.3,60.00211207645714,1,
,,,exp1.png,,,,,,,,,,,,,,,,,2,0,2,0,,,,,0,0,0,0,0,0,0,0,,,,,,,,,,,,,,,,,,,,,,693.3472048999975,61.0,61.0,1.732926700002281,"[(61.0, 1.732926700002281)]",,,,,,,,,,sub_961,2025-03-24_14h41.31.860,Reversal,2023.1.3,60.00211207645714,1,
,,,exp2.png,,,,,,,,,,,,,,,,,2,0,2,0,,,,,0,0,0,0,0,1,1,1,,,,,,,,,,,,,,,,,,,,,,696.0983352999901,,56.0,0.5925808000029065,"[(56.0, 0.5925808000029065)]",,,,56.0,,,,,,sub_961,2025-03-24_14h41.31.860,Reversal,2023.1.3,60.00211207645714,1,
,,,exp3.png,,,,,,,,,,,,,,,,,2,0,2,0,,,,,0,0,0,0,0,2,2,2,,,,,,,,,,,,,,,,,,,,,,697.6845781000011,,60.0,1.3113206999987597,"[(60.0, 1.3113206999987597)]",60.0,,,,,,,,,sub_961,2025-03-24_14h41.31.860,Reversal,2023.1.3,60.00211207645714,1,
,,,exp4.png,,,,,,,,,,,,,,,,,2,0,2,0,,,,,0,0,0,0,0,3,3,3,,,,,,,,,,,,,,,,,,,,,,699.9331679000024,,62.0,0.6941965999867534,"[(62.0, 0.6941965999867534)]",,62.0,,,,,,,,sub_961,2025-03-24_14h41.31.860,Reversal,2023.1.3,60.00211207645714,1,
,,,,,,,,,,,,,,,,,,,,,,,,,,,,,,,,,,,,,,,,,,,,,,,,,,,,,,,,78,,,,,,,,,,81,49,32,254.48095209999883,1,,,,,,,
