trial_index,trial_image1_file,trial_image2_file,image_file,learning_outer_loop.thisRepN,learning_outer_loop.thisTrialN,learning_outer_loop.thisN,learning_outer_loop.thisIndex,learning_inner_loop.thisRepN,learning_inner_loop.thisTrialN,learning_inner_loop.thisN,learning_inner_loop.thisIndex,learning_estimation_outer_loop.thisRepN,learning_estimation_outer_loop.thisTrialN,learning_estimation_outer_loop.thisN,learning_estimation_outer_loop.thisIndex,learning_estimation_inner_loop.thisRepN,learning_estimation_inner_loop.thisTrialN,learning_estimation_inner_loop.thisN,learning_estimation_inner_loop.thisIndex,reversal_outer_loop.thisRepN,reversal_outer_loop.thisTrialN,reversal_outer_loop.thisN,reversal_outer_loop.thisIndex,reversal_inner_loop.thisRepN,reversal_inner_loop.thisTrialN,reversal_inner_loop.thisN,reversal_inner_loop.thisIndex,reversal_estimation_outer_loop.thisRepN,reversal_estimation_outer_loop.thisTrialN,reversal_estimation_outer_loop.thisN,reversal_estimation_outer_loop.thisIndex,reversal_estimation_inner_loop.thisRepN,reversal_estimation_inner_loop.thisTrialN,reversal_estimation_inner_loop.thisN,reversal_estimation_inner_loop.thisIndex,skipped,total_trial_counter,trial_num,left_right_flip,left_image_file,right_image_file,clicked_stimulus_side,side,clicked_stimulus,version,high_prob_image_file,low_prob_image_file,choice_a,choice_b,pair_type,correct,trial_feedback_random,reward,trial_type,overall_time_after_trial,score,estimation_rating.started,estimation_exp1.png,estimation_rating.response,estimation_rating.rt,estimation_rating.history,estimation_exp4.png,estimation_exp3.png,estimation_exp2.png,total_learning_time,total_correct,learning_correct,reversal_correct,total_reversal_time,extra_block,participant,date,expName,psychopyVersion,frameRate,ver,
0,exp1.png,exp2.png,,0,0,0,0,0,0,0,0,,,,,,,,,,,,,,,,,,,,,,,,,False,0,1,True,exp2.png,exp1.png,trial_left_image,1,exp2.png,3,exp2.png,exp1.png,1,3,reversed,correct,0.015116341247542464,0,invalid_lose,7.895384499999636,0,,,,,,,,,,,,,,,sub_871,2025-03-10_13h58.05.475,Reversal,2023.1.3,60.02512651777543,3,
1,exp3.png,exp4.png,,0,0,0,0,0,1,1,1,,,,,,,,,,,,,,,,,,,,,,,,,False,1,2,False,exp3.png,exp4.png,trial_left_image,1,exp3.png,3,exp4.png,exp3.png,0,2,non-reversed,incorrect,0.23070326711333444,1,invalid_win,16.62576590000026,1,,,,,,,,,,,,,,,sub_871,2025-03-10_13h58.05.475,Reversal,2023.1.3,60.02512651777543,3,
2,exp1.png,exp2.png,,0,0,0,0,0,2,2,2,,,,,,,,,,,,,,,,,,,,,,,,,False,2,3,True,exp2.png,exp1.png,trial_left_image,1,exp2.png,3,exp2.png,exp1.png,1,3,reversed,correct,0.6064405190517089,1,valid_win,25.639282199999798,2,,,,,,,,,,,,,,,sub_871,2025-03-10_13h58.05.475,Reversal,2023.1.3,60.02512651777543,3,
3,exp3.png,exp4.png,,0,0,0,0,0,3,3,3,,,,,,,,,,,,,,,,,,,,,,,,,False,3,4,True,exp4.png,exp3.png,trial_right_image,-1,exp3.png,3,exp4.png,exp3.png,0,2,non-reversed,incorrect,0.03605437677983814,1,invalid_win,31.620592700000998,3,,,,,,,,,,,,,,,sub_871,2025-03-10_13h58.05.475,Reversal,2023.1.3,60.02512651777543,3,
4,exp1.png,exp2.png,,0,0,0,0,0,4,4,4,,,,,,,,,,,,,,,,,,,,,,,,,False,4,5,False,exp1.png,exp2.png,trial_right_image,-1,exp2.png,3,exp2.png,exp1.png,1,3,reversed,correct,0.7797854221444983,1,valid_win,37.6520414000006,4,,,,,,,,,,,,,,,sub_871,2025-03-10_13h58.05.475,Reversal,2023.1.3,60.02512651777543,3,
5,exp3.png,exp4.png,,0,0,0,0,0,5,5,5,,,,,,,,,,,,,,,,,,,,,,,,,False,5,6,False,exp3.png,exp4.png,trial_right_image,-1,exp4.png,3,exp4.png,exp3.png,1,1,non-reversed,correct,0.8313950613159174,1,valid_win,43.24994280000101,5,,,,,,,,,,,,,,,sub_871,2025-03-10_13h58.05.475,Reversal,2023.1.3,60.02512651777543,3,
6,exp1.png,exp2.png,,0,0,0,0,0,6,6,6,,,,,,,,,,,,,,,,,,,,,,,,,False,6,7,False,exp1.png,exp2.png,trial_right_image,-1,exp2.png,3,exp2.png,exp1.png,1,3,reversed,correct,0.5762948470727274,1,valid_win,49.09808669999984,6,,,,,,,,,,,,,,,sub_871,2025-03-10_13h58.05.475,Reversal,2023.1.3,60.02512651777543,3,
7,exp3.png,exp4.png,,0,0,0,0,0,7,7,7,,,,,,,,,,,,,,,,,,,,,,,,,False,7,8,True,exp4.png,exp3.png,trial_left_image,1,exp4.png,3,exp4.png,exp3.png,1,1,non-reversed,correct,0.18263370209717078,0,invalid_lose,54.196466299999884,6,,,,,,,,,,,,,,,sub_871,2025-03-10_13h58.05.475,Reversal,2023.1.3,60.02512651777543,3,
8,exp1.png,exp2.png,,0,0,0,0,0,8,8,8,,,,,,,,,,,,,,,,,,,,,,,,,False,8,9,False,exp1.png,exp2.png,trial_left_image,1,exp1.png,3,exp2.png,exp1.png,0,4,reversed,incorrect,0.9279206455317488,0,valid_lose,59.727677299999414,6,,,,,,,,,,,,,,,sub_871,2025-03-10_13h58.05.475,Reversal,2023.1.3,60.02512651777543,3,
9,exp3.png,exp4.png,,0,0,0,0,0,9,9,9,,,,,,,,,,,,,,,,,,,,,,,,,False,9,10,False,exp3.png,exp4.png,trial_right_image,-1,exp4.png,3,exp4.png,exp3.png,1,1,non-reversed,correct,0.34317563494622483,1,valid_win,64.24259680000068,7,,,,,,,,,,,,,,,sub_871,2025-03-10_13h58.05.475,Reversal,2023.1.3,60.02512651777543,3,
10,exp1.png,exp2.png,,0,0,0,0,0,10,10,10,,,,,,,,,,,,,,,,,,,,,,,,,False,10,11,True,exp2.png,exp1.png,trial_right_image,-1,exp1.png,3,exp2.png,exp1.png,0,4,reversed,incorrect,0.06748856691756067,1,invalid_win,69.40750979999939,8,,,,,,,,,,,,,,,sub_871,2025-03-10_13h58.05.475,Reversal,2023.1.3,60.02512651777543,3,
11,exp3.png,exp4.png,,0,0,0,0,0,11,11,11,,,,,,,,,,,,,,,,,,,,,,,,,False,11,12,False,exp3.png,exp4.png,trial_right_image,-1,exp4.png,3,exp4.png,exp3.png,1,1,non-reversed,correct,0.6081462401071994,1,valid_win,74.33940910000092,9,,,,,,,,,,,,,,,sub_871,2025-03-10_13h58.05.475,Reversal,2023.1.3,60.02512651777543,3,
12,exp1.png,exp2.png,,0,0,0,0,0,12,12,12,,,,,,,,,,,,,,,,,,,,,,,,,False,12,13,True,exp2.png,exp1.png,trial_right_image,-1,exp1.png,3,exp2.png,exp1.png,0,4,reversed,incorrect,0.7354917276982937,0,valid_lose,79.47067140000036,9,,,,,,,,,,,,,,,sub_871,2025-03-10_13h58.05.475,Reversal,2023.1.3,60.02512651777543,3,
13,exp3.png,exp4.png,,0,0,0,0,0,13,13,13,,,,,,,,,,,,,,,,,,,,,,,,,False,13,14,False,exp3.png,exp4.png,trial_right_image,-1,exp4.png,3,exp4.png,exp3.png,1,1,non-reversed,correct,0.7514013994098689,1,valid_win,84.60267419999946,10,,,,,,,,,,,,,,,sub_871,2025-03-10_13h58.05.475,Reversal,2023.1.3,60.02512651777543,3,
14,exp1.png,exp2.png,,0,0,0,0,0,14,14,14,,,,,,,,,,,,,,,,,,,,,,,,,False,14,15,True,exp2.png,exp1.png,trial_right_image,-1,exp1.png,3,exp2.png,exp1.png,0,4,reversed,incorrect,0.738236243500583,0,valid_lose,89.7670994,10,,,,,,,,,,,,,,,sub_871,2025-03-10_13h58.05.475,Reversal,2023.1.3,60.02512651777543,3,
15,exp3.png,exp4.png,,0,0,0,0,0,15,15,15,,,,,,,,,,,,,,,,,,,,,,,,,False,15,16,True,exp4.png,exp3.png,trial_right_image,-1,exp3.png,3,exp4.png,exp3.png,0,2,non-reversed,incorrect,0.5628483090104962,0,valid_lose,94.33250670000052,10,,,,,,,,,,,,,,,sub_871,2025-03-10_13h58.05.475,Reversal,2023.1.3,60.02512651777543,3,
16,exp1.png,exp2.png,,0,0,0,0,0,16,16,16,,,,,,,,,,,,,,,,,,,,,,,,,False,16,17,True,exp2.png,exp1.png,trial_left_image,1,exp2.png,3,exp2.png,exp1.png,1,3,reversed,correct,0.2077659848972565,0,invalid_lose,98.5480107000003,10,,,,,,,,,,,,,,,sub_871,2025-03-10_13h58.05.475,Reversal,2023.1.3,60.02512651777543,3,
17,exp3.png,exp4.png,,0,0,0,0,0,17,17,17,,,,,,,,,,,,,,,,,,,,,,,,,False,17,18,False,exp3.png,exp4.png,trial_right_image,-1,exp4.png,3,exp4.png,exp3.png,1,1,non-reversed,correct,0.26657673491496703,1,valid_win,103.86262859999988,11,,,,,,,,,,,,,,,sub_871,2025-03-10_13h58.05.475,Reversal,2023.1.3,60.02512651777543,3,
18,exp1.png,exp2.png,,0,0,0,0,0,18,18,18,,,,,,,,,,,,,,,,,,,,,,,,,False,18,19,True,exp2.png,exp1.png,trial_right_image,-1,exp1.png,3,exp2.png,exp1.png,0,4,reversed,incorrect,0.01218499930231387,1,invalid_win,108.77762260000054,12,,,,,,,,,,,,,,,sub_871,2025-03-10_13h58.05.475,Reversal,2023.1.3,60.02512651777543,3,
19,exp3.png,exp4.png,,0,0,0,0,0,19,19,19,,,,,,,,,,,,,,,,,,,,,,,,,False,19,20,False,exp3.png,exp4.png,trial_right_image,-1,exp4.png,3,exp4.png,exp3.png,1,1,non-reversed,correct,0.7827143532818904,1,valid_win,113.6926196000004,13,,,,,,,,,,,,,,,sub_871,2025-03-10_13h58.05.475,Reversal,2023.1.3,60.02512651777543,3,
20,exp1.png,exp2.png,,0,0,0,0,0,20,20,20,,,,,,,,,,,,,,,,,,,,,,,,,True,,,,,,,,,,,,,,,,,,,,,,,,,,,,,,,,,,,sub_871,2025-03-10_13h58.05.475,Reversal,2023.1.3,60.02512651777543,3,
,,,exp1.png,0,0,0,0,,,,,0,0,0,0,0,0,0,0,,,,,,,,,,,,,,,,,,,,,,,,,,,,,,,,,,,,,,258.6223860000009,50.0,50.0,18.70338619999893,"[(50.0, 18.70338619999893)]",,,,,,,,,,sub_871,2025-03-10_13h58.05.475,Reversal,2023.1.3,60.02512651777543,3,
,,,exp2.png,0,0,0,0,,,,,0,0,0,0,0,1,1,1,,,,,,,,,,,,,,,,,,,,,,,,,,,,,,,,,,,,,,281.236087700001,,None,None,[],,,,,,,,,,sub_871,2025-03-10_13h58.05.475,Reversal,2023.1.3,60.02512651777543,3,
,,,exp3.png,0,0,0,0,,,,,0,0,0,0,0,2,2,2,,,,,,,,,,,,,,,,,,,,,,,,,,,,,,,,,,,,,,284.96533570000065,,None,None,[],,,,,,,,,,sub_871,2025-03-10_13h58.05.475,Reversal,2023.1.3,60.02512651777543,3,
,,,exp4.png,0,0,0,0,,,,,0,0,0,0,0,3,3,3,,,,,,,,,,,,,,,,,,,,,,,,,,,,,,,,,,,,,,291.94795970000087,,84.0,4.193483699998978,"[(84.0, 4.193483699998978)]",84.0,,,,,,,,,sub_871,2025-03-10_13h58.05.475,Reversal,2023.1.3,60.02512651777543,3,
0,exp1.png,exp2.png,,1,0,1,0,0,0,0,0,,,,,,,,,,,,,,,,,,,,,,,,,False,20,21,False,exp1.png,exp2.png,trial_right_image,-1,exp2.png,3,exp2.png,exp1.png,1,3,reversed,correct,0.7621748147711017,1,valid_win,161.77639180000006,14,,,,,,,,,,,,,,,sub_871,2025-03-10_13h58.05.475,Reversal,2023.1.3,60.02512651777543,3,
1,exp3.png,exp4.png,,1,0,1,0,0,1,1,1,,,,,,,,,,,,,,,,,,,,,,,,,False,21,22,True,exp4.png,exp3.png,trial_right_image,-1,exp3.png,3,exp4.png,exp3.png,0,2,non-reversed,incorrect,0.9271647420074498,0,valid_lose,167.6076524,14,,,,,,,,,,,,,,,sub_871,2025-03-10_13h58.05.475,Reversal,2023.1.3,60.02512651777543,3,
2,exp1.png,exp2.png,,1,0,1,0,0,2,2,2,,,,,,,,,,,,,,,,,,,,,,,,,False,22,23,False,exp1.png,exp2.png,trial_right_image,-1,exp2.png,3,exp2.png,exp1.png,1,3,reversed,correct,0.13455095575333598,0,invalid_lose,171.68999900000017,14,,,,,,,,,,,,,,,sub_871,2025-03-10_13h58.05.475,Reversal,2023.1.3,60.02512651777543,3,
3,exp3.png,exp4.png,,1,0,1,0,0,3,3,3,,,,,,,,,,,,,,,,,,,,,,,,,False,23,24,False,exp3.png,exp4.png,trial_right_image,-1,exp4.png,3,exp4.png,exp3.png,1,1,non-reversed,correct,0.4383740919194459,1,valid_win,176.92145859999982,15,,,,,,,,,,,,,,,sub_871,2025-03-10_13h58.05.475,Reversal,2023.1.3,60.02512651777543,3,
4,exp1.png,exp2.png,,1,0,1,0,0,4,4,4,,,,,,,,,,,,,,,,,,,,,,,,,False,24,25,True,exp2.png,exp1.png,trial_right_image,-1,exp1.png,3,exp2.png,exp1.png,0,4,reversed,incorrect,0.07268950888841308,1,invalid_win,183.08592019999924,16,,,,,,,,,,,,,,,sub_871,2025-03-10_13h58.05.475,Reversal,2023.1.3,60.02512651777543,3,
5,exp3.png,exp4.png,,1,0,1,0,0,5,5,5,,,,,,,,,,,,,,,,,,,,,,,,,False,25,26,False,exp3.png,exp4.png,trial_left_image,1,exp3.png,3,exp4.png,exp3.png,0,2,non-reversed,incorrect,0.37562790077443775,0,valid_lose,187.46755479999956,16,,,,,,,,,,,,,,,sub_871,2025-03-10_13h58.05.475,Reversal,2023.1.3,60.02512651777543,3,
6,exp1.png,exp2.png,,1,0,1,0,0,6,6,6,,,,,,,,,,,,,,,,,,,,,,,,,False,26,27,True,exp2.png,exp1.png,trial_right_image,-1,exp1.png,3,exp2.png,exp1.png,0,4,reversed,incorrect,0.24847267111511573,1,invalid_win,191.5997239999997,17,,,,,,,,,,,,,,,sub_871,2025-03-10_13h58.05.475,Reversal,2023.1.3,60.02512651777543,3,
7,exp3.png,exp4.png,,1,0,1,0,0,7,7,7,,,,,,,,,,,,,,,,,,,,,,,,,False,27,28,False,exp3.png,exp4.png,trial_right_image,-1,exp4.png,3,exp4.png,exp3.png,1,1,non-reversed,correct,0.864784050389785,1,valid_win,197.58106150000094,18,,,,,,,,,,,,,,,sub_871,2025-03-10_13h58.05.475,Reversal,2023.1.3,60.02512651777543,3,
8,exp1.png,exp2.png,,1,0,1,0,0,8,8,8,,,,,,,,,,,,,,,,,,,,,,,,,False,28,29,True,exp2.png,exp1.png,trial_right_image,-1,exp1.png,3,exp2.png,exp1.png,0,4,reversed,incorrect,0.2566285287804516,0,valid_lose,202.1459004999997,18,,,,,,,,,,,,,,,sub_871,2025-03-10_13h58.05.475,Reversal,2023.1.3,60.02512651777543,3,
9,exp3.png,exp4.png,,1,0,1,0,0,9,9,9,,,,,,,,,,,,,,,,,,,,,,,,,False,29,30,True,exp4.png,exp3.png,trial_right_image,-1,exp3.png,3,exp4.png,exp3.png,0,2,non-reversed,incorrect,0.6974698513927811,0,valid_lose,206.21116129999973,18,,,,,,,,,,,,,,,sub_871,2025-03-10_13h58.05.475,Reversal,2023.1.3,60.02512651777543,3,
10,exp1.png,exp2.png,,1,0,1,0,0,10,10,10,,,,,,,,,,,,,,,,,,,,,,,,,False,30,31,False,exp1.png,exp2.png,trial_right_image,-1,exp2.png,3,exp2.png,exp1.png,1,3,reversed,correct,0.18877439279356778,0,invalid_lose,210.7932897999999,18,,,,,,,,,,,,,,,sub_871,2025-03-10_13h58.05.475,Reversal,2023.1.3,60.02512651777543,3,
11,exp3.png,exp4.png,,1,0,1,0,0,11,11,11,,,,,,,,,,,,,,,,,,,,,,,,,False,31,32,False,exp3.png,exp4.png,trial_right_image,-1,exp4.png,3,exp4.png,exp3.png,1,1,non-reversed,correct,0.09954747271398179,0,invalid_lose,216.07455760000084,18,,,,,,,,,,,,,,,sub_871,2025-03-10_13h58.05.475,Reversal,2023.1.3,60.02512651777543,3,
12,exp1.png,exp2.png,,1,0,1,0,0,12,12,12,,,,,,,,,,,,,,,,,,,,,,,,,False,32,33,False,exp1.png,exp2.png,trial_right_image,-1,exp2.png,3,exp2.png,exp1.png,1,3,reversed,correct,0.8085314801959272,1,valid_win,221.489112700001,19,,,,,,,,,,,,,,,sub_871,2025-03-10_13h58.05.475,Reversal,2023.1.3,60.02512651777543,3,
13,exp3.png,exp4.png,,1,0,1,0,0,13,13,13,,,,,,,,,,,,,,,,,,,,,,,,,False,33,34,True,exp4.png,exp3.png,trial_right_image,-1,exp3.png,3,exp4.png,exp3.png,0,2,non-reversed,incorrect,0.901799135214283,0,valid_lose,226.47116450000067,19,,,,,,,,,,,,,,,sub_871,2025-03-10_13h58.05.475,Reversal,2023.1.3,60.02512651777543,3,
14,exp1.png,exp2.png,,1,0,1,0,0,14,14,14,,,,,,,,,,,,,,,,,,,,,,,,,False,34,35,True,exp2.png,exp1.png,trial_left_image,1,exp2.png,3,exp2.png,exp1.png,1,3,reversed,correct,0.9173710671717724,1,valid_win,231.53583009999966,20,,,,,,,,,,,,,,,sub_871,2025-03-10_13h58.05.475,Reversal,2023.1.3,60.02512651777543,3,
15,exp3.png,exp4.png,,1,0,1,0,0,15,15,15,,,,,,,,,,,,,,,,,,,,,,,,,False,35,36,True,exp4.png,exp3.png,trial_left_image,1,exp4.png,3,exp4.png,exp3.png,1,1,non-reversed,correct,0.6286680334185107,1,valid_win,235.81787839999924,21,,,,,,,,,,,,,,,sub_871,2025-03-10_13h58.05.475,Reversal,2023.1.3,60.02512651777543,3,
16,exp1.png,exp2.png,,1,0,1,0,0,16,16,16,,,,,,,,,,,,,,,,,,,,,,,,,False,36,37,True,exp2.png,exp1.png,trial_left_image,1,exp2.png,3,exp2.png,exp1.png,1,3,reversed,correct,0.10456827786878387,0,invalid_lose,239.96618370000033,21,,,,,,,,,,,,,,,sub_871,2025-03-10_13h58.05.475,Reversal,2023.1.3,60.02512651777543,3,
17,exp3.png,exp4.png,,1,0,1,0,0,17,17,17,,,,,,,,,,,,,,,,,,,,,,,,,False,37,38,True,exp4.png,exp3.png,trial_right_image,-1,exp3.png,3,exp4.png,exp3.png,0,2,non-reversed,incorrect,0.7738451111935588,0,valid_lose,245.4815526000002,21,,,,,,,,,,,,,,,sub_871,2025-03-10_13h58.05.475,Reversal,2023.1.3,60.02512651777543,3,
18,exp1.png,exp2.png,,1,0,1,0,0,18,18,18,,,,,,,,,,,,,,,,,,,,,,,,,False,38,39,False,exp1.png,exp2.png,trial_right_image,-1,exp2.png,3,exp2.png,exp1.png,1,3,reversed,correct,0.7705081486022058,1,valid_win,250.16293190000033,22,,,,,,,,,,,,,,,sub_871,2025-03-10_13h58.05.475,Reversal,2023.1.3,60.02512651777543,3,
19,exp3.png,exp4.png,,1,0,1,0,0,19,19,19,,,,,,,,,,,,,,,,,,,,,,,,,False,39,40,False,exp3.png,exp4.png,trial_right_image,-1,exp4.png,3,exp4.png,exp3.png,1,1,non-reversed,correct,0.9322390807555092,1,valid_win,254.59495360000074,23,,,,,,,,,,,,,,,sub_871,2025-03-10_13h58.05.475,Reversal,2023.1.3,60.02512651777543,3,
20,exp1.png,exp2.png,,1,0,1,0,0,20,20,20,,,,,,,,,,,,,,,,,,,,,,,,,True,,,,,,,,,,,,,,,,,,,,,,,,,,,,,,,,,,,sub_871,2025-03-10_13h58.05.475,Reversal,2023.1.3,60.02512651777543,3,
,,,exp1.png,1,0,1,0,,,,,0,0,0,0,0,0,0,0,,,,,,,,,,,,,,,,,,,,,,,,,,,,,,,,,,,,,,399.4756587000011,100.0,100.0,5.399765999998635,"[(100.0, 5.399765999998635)]",,,,,,,,,,sub_871,2025-03-10_13h58.05.475,Reversal,2023.1.3,60.02512651777543,3,
,,,exp2.png,1,0,1,0,,,,,0,0,0,0,0,1,1,1,,,,,,,,,,,,,,,,,,,,,,,,,,,,,,,,,,,,,,406.5232883000008,,None,None,[],,,,,,,,,,sub_871,2025-03-10_13h58.05.475,Reversal,2023.1.3,60.02512651777543,3,
,,,exp3.png,1,0,1,0,,,,,0,0,0,0,0,2,2,2,,,,,,,,,,,,,,,,,,,,,,,,,,,,,,,,,,,,,,410.45721700000104,,76.0,5.707630299999437,"[(76.0, 5.707630299999437)]",,76.0,,,,,,,,sub_871,2025-03-10_13h58.05.475,Reversal,2023.1.3,60.02512651777543,3,
,,,exp4.png,1,0,1,0,,,,,0,0,0,0,0,3,3,3,,,,,,,,,,,,,,,,,,,,,,,,,,,,,,,,,,,,,,417.42157229999975,,20.0,4.160697299999811,"[(20.0, 4.160697299999811)]",20.0,,,,,,,,,sub_871,2025-03-10_13h58.05.475,Reversal,2023.1.3,60.02512651777543,3,
0,exp1.png,exp2.png,,2,0,2,0,0,0,0,0,,,,,,,,,,,,,,,,,,,,,,,,,False,40,41,True,exp2.png,exp1.png,trial_right_image,-1,exp1.png,3,exp2.png,exp1.png,0,4,reversed,incorrect,0.2535777550631404,0,valid_lose,285.2347102999993,23,,,,,,,,,,,,,,,sub_871,2025-03-10_13h58.05.475,Reversal,2023.1.3,60.02512651777543,3,
1,exp3.png,exp4.png,,2,0,2,0,0,1,1,1,,,,,,,,,,,,,,,,,,,,,,,,,False,41,42,False,exp3.png,exp4.png,trial_left_image,1,exp3.png,3,exp4.png,exp3.png,0,2,non-reversed,incorrect,0.18568391485991165,1,invalid_win,290.19926320000013,24,,,,,,,,,,,,,,,sub_871,2025-03-10_13h58.05.475,Reversal,2023.1.3,60.02512651777543,3,
2,exp1.png,exp2.png,,2,0,2,0,0,2,2,2,,,,,,,,,,,,,,,,,,,,,,,,,False,42,43,False,exp1.png,exp2.png,trial_left_image,1,exp1.png,3,exp2.png,exp1.png,0,4,reversed,incorrect,0.29246087935908094,0,valid_lose,294.7641401000001,24,,,,,,,,,,,,,,,sub_871,2025-03-10_13h58.05.475,Reversal,2023.1.3,60.02512651777543,3,
3,exp3.png,exp4.png,,2,0,2,0,0,3,3,3,,,,,,,,,,,,,,,,,,,,,,,,,False,43,44,True,exp4.png,exp3.png,trial_left_image,1,exp4.png,3,exp4.png,exp3.png,1,1,non-reversed,correct,0.0020451878834238935,0,invalid_lose,300.3628783000004,24,,,,,,,,,,,,,,,sub_871,2025-03-10_13h58.05.475,Reversal,2023.1.3,60.02512651777543,3,
4,exp1.png,exp2.png,,2,0,2,0,0,4,4,4,,,,,,,,,,,,,,,,,,,,,,,,,False,44,45,True,exp2.png,exp1.png,trial_right_image,-1,exp1.png,3,exp2.png,exp1.png,0,4,reversed,incorrect,0.3740309890463932,0,valid_lose,304.56170910000037,24,,,,,,,,,,,,,,,sub_871,2025-03-10_13h58.05.475,Reversal,2023.1.3,60.02512651777543,3,
5,exp3.png,exp4.png,,2,0,2,0,0,5,5,5,,,,,,,,,,,,,,,,,,,,,,,,,False,45,46,True,exp4.png,exp3.png,trial_right_image,-1,exp3.png,3,exp4.png,exp3.png,0,2,non-reversed,incorrect,0.39956367580402363,0,valid_lose,308.69297000000006,24,,,,,,,,,,,,,,,sub_871,2025-03-10_13h58.05.475,Reversal,2023.1.3,60.02512651777543,3,
6,exp1.png,exp2.png,,2,0,2,0,0,6,6,6,,,,,,,,,,,,,,,,,,,,,,,,,False,46,47,False,exp1.png,exp2.png,trial_right_image,-1,exp2.png,3,exp2.png,exp1.png,1,3,reversed,correct,0.4575054813217403,1,valid_win,313.0417474999995,25,,,,,,,,,,,,,,,sub_871,2025-03-10_13h58.05.475,Reversal,2023.1.3,60.02512651777543,3,
7,exp3.png,exp4.png,,2,0,2,0,0,7,7,7,,,,,,,,,,,,,,,,,,,,,,,,,False,47,48,True,exp4.png,exp3.png,trial_left_image,1,exp4.png,3,exp4.png,exp3.png,1,1,non-reversed,correct,0.8866684818851694,1,valid_win,317.22387770000023,26,,,,,,,,,,,,,,,sub_871,2025-03-10_13h58.05.475,Reversal,2023.1.3,60.02512651777543,3,
8,exp1.png,exp2.png,,2,0,2,0,0,8,8,8,,,,,,,,,,,,,,,,,,,,,,,,,False,48,49,False,exp1.png,exp2.png,trial_right_image,-1,exp2.png,3,exp2.png,exp1.png,1,3,reversed,correct,0.3538751681550738,1,valid_win,321.27220020000095,27,,,,,,,,,,,,,,,sub_871,2025-03-10_13h58.05.475,Reversal,2023.1.3,60.02512651777543,3,
9,exp3.png,exp4.png,,2,0,2,0,0,9,9,9,,,,,,,,,,,,,,,,,,,,,,,,,False,49,50,True,exp4.png,exp3.png,trial_left_image,1,exp4.png,3,exp4.png,exp3.png,1,1,non-reversed,correct,0.006725345444907993,0,invalid_lose,325.3037781000003,27,,,,,,,,,,,,,,,sub_871,2025-03-10_13h58.05.475,Reversal,2023.1.3,60.02512651777543,3,
10,exp1.png,exp2.png,,2,0,2,0,0,10,10,10,,,,,,,,,,,,,,,,,,,,,,,,,False,50,51,False,exp1.png,exp2.png,trial_right_image,-1,exp2.png,3,exp2.png,exp1.png,1,3,reversed,correct,0.7667244631600848,1,valid_win,329.73594559999947,28,,,,,,,,,,,,,,,sub_871,2025-03-10_13h58.05.475,Reversal,2023.1.3,60.02512651777543,3,
11,exp3.png,exp4.png,,2,0,2,0,0,11,11,11,,,,,,,,,,,,,,,,,,,,,,,,,False,51,52,True,exp4.png,exp3.png,trial_left_image,1,exp4.png,3,exp4.png,exp3.png,1,1,non-reversed,correct,0.2139707034127517,0,invalid_lose,335.4509882000002,28,,,,,,,,,,,,,,,sub_871,2025-03-10_13h58.05.475,Reversal,2023.1.3,60.02512651777543,3,
12,exp1.png,exp2.png,,2,0,2,0,0,12,12,12,,,,,,,,,,,,,,,,,,,,,,,,,False,52,53,True,exp2.png,exp1.png,trial_right_image,-1,exp1.png,3,exp2.png,exp1.png,0,4,reversed,incorrect,0.21621338168751136,1,invalid_win,339.4490831000003,29,,,,,,,,,,,,,,,sub_871,2025-03-10_13h58.05.475,Reversal,2023.1.3,60.02512651777543,3,
13,exp3.png,exp4.png,,2,0,2,0,0,13,13,13,,,,,,,,,,,,,,,,,,,,,,,,,False,53,54,True,exp4.png,exp3.png,trial_right_image,-1,exp3.png,3,exp4.png,exp3.png,0,2,non-reversed,incorrect,0.8491926185891262,0,valid_lose,343.5147347000002,29,,,,,,,,,,,,,,,sub_871,2025-03-10_13h58.05.475,Reversal,2023.1.3,60.02512651777543,3,
14,exp1.png,exp2.png,,2,0,2,0,0,14,14,14,,,,,,,,,,,,,,,,,,,,,,,,,False,54,55,False,exp1.png,exp2.png,trial_right_image,-1,exp2.png,3,exp2.png,exp1.png,1,3,reversed,correct,0.7468784616558439,1,valid_win,350.17881619999935,30,,,,,,,,,,,,,,,sub_871,2025-03-10_13h58.05.475,Reversal,2023.1.3,60.02512651777543,3,
15,exp3.png,exp4.png,,2,0,2,0,0,15,15,15,,,,,,,,,,,,,,,,,,,,,,,,,False,55,56,False,exp3.png,exp4.png,trial_left_image,1,exp3.png,3,exp4.png,exp3.png,0,2,non-reversed,incorrect,0.7844876852489266,0,valid_lose,354.144201000001,30,,,,,,,,,,,,,,,sub_871,2025-03-10_13h58.05.475,Reversal,2023.1.3,60.02512651777543,3,
16,exp1.png,exp2.png,,2,0,2,0,0,16,16,16,,,,,,,,,,,,,,,,,,,,,,,,,False,56,57,False,exp1.png,exp2.png,trial_left_image,1,exp1.png,3,exp2.png,exp1.png,0,4,reversed,incorrect,0.40752775827852095,0,valid_lose,358.12642760000017,30,,,,,,,,,,,,,,,sub_871,2025-03-10_13h58.05.475,Reversal,2023.1.3,60.02512651777543,3,
17,exp3.png,exp4.png,,2,0,2,0,0,17,17,17,,,,,,,,,,,,,,,,,,,,,,,,,False,57,58,True,exp4.png,exp3.png,trial_right_image,-1,exp3.png,3,exp4.png,exp3.png,0,2,non-reversed,incorrect,0.8211968905890507,0,valid_lose,362.0747778999994,30,,,,,,,,,,,,,,,sub_871,2025-03-10_13h58.05.475,Reversal,2023.1.3,60.02512651777543,3,
18,exp1.png,exp2.png,,2,0,2,0,0,18,18,18,,,,,,,,,,,,,,,,,,,,,,,,,False,58,59,False,exp1.png,exp2.png,trial_right_image,-1,exp2.png,3,exp2.png,exp1.png,1,3,reversed,correct,0.4108138151838704,1,valid_win,366.0404622999995,31,,,,,,,,,,,,,,,sub_871,2025-03-10_13h58.05.475,Reversal,2023.1.3,60.02512651777543,3,
19,exp3.png,exp4.png,,2,0,2,0,0,19,19,19,,,,,,,,,,,,,,,,,,,,,,,,,False,59,60,False,exp3.png,exp4.png,trial_right_image,-1,exp4.png,3,exp4.png,exp3.png,1,1,non-reversed,correct,0.09592871533553105,0,invalid_lose,370.13906809999935,31,,,,,,,,,,,,,,,sub_871,2025-03-10_13h58.05.475,Reversal,2023.1.3,60.02512651777543,3,
20,exp1.png,exp2.png,,2,0,2,0,0,20,20,20,,,,,,,,,,,,,,,,,,,,,,,,,True,,,,,,,,,,,,,,,,,,,,,,,,,,,,,,,,,,,sub_871,2025-03-10_13h58.05.475,Reversal,2023.1.3,60.02512651777543,3,
,,,exp1.png,2,0,2,0,,,,,0,0,0,0,0,0,0,0,,,,,,,,,,,,,,,,,,,,,,,,,,,,,,,,,,,,,,515.0144046999994,84.0,84.0,4.785866199999873,"[(84.0, 4.785866199999873)]",,,,,,,,,,sub_871,2025-03-10_13h58.05.475,Reversal,2023.1.3,60.02512651777543,3,
,,,exp2.png,2,0,2,0,,,,,0,0,0,0,0,1,1,1,,,,,,,,,,,,,,,,,,,,,,,,,,,,,,,,,,,,,,520.9666987,,77.0,4.978387799999837,"[(77.0, 4.978387799999837)]",,,77.0,,,,,,,sub_871,2025-03-10_13h58.05.475,Reversal,2023.1.3,60.02512651777543,3,
,,,exp3.png,2,0,2,0,,,,,0,0,0,0,0,2,2,2,,,,,,,,,,,,,,,,,,,,,,,,,,,,,,,,,,,,,,527.0982158999996,,80.0,4.161162600001262,"[(80.0, 4.161162600001262)]",,80.0,,,,,,,,sub_871,2025-03-10_13h58.05.475,Reversal,2023.1.3,60.02512651777543,3,
,,,exp4.png,2,0,2,0,,,,,0,0,0,0,0,3,3,3,,,,,,,,,,,,,,,,,,,,,,,,,,,,,,,,,,,,,,532.262945800001,,20.0,2.1615277000000788,"[(20.0, 2.1615277000000788)]",20.0,,,,,,,,,sub_871,2025-03-10_13h58.05.475,Reversal,2023.1.3,60.02512651777543,3,
0,exp1.png,exp2.png,,3,0,3,0,0,0,0,0,,,,,,,,,,,,,,,,,,,,,,,,,False,60,61,False,exp1.png,exp2.png,trial_right_image,-1,exp2.png,3,exp2.png,exp1.png,1,3,reversed,correct,0.623673681173475,1,valid_win,396.9801238,32,,,,,,,,,,,,,,,sub_871,2025-03-10_13h58.05.475,Reversal,2023.1.3,60.02512651777543,3,
1,exp3.png,exp4.png,,3,0,3,0,0,1,1,1,,,,,,,,,,,,,,,,,,,,,,,,,False,61,62,False,exp3.png,exp4.png,trial_right_image,-1,exp4.png,3,exp4.png,exp3.png,1,1,non-reversed,correct,0.6163528165135507,1,valid_win,402.12816290000046,33,,,,,,,,,,,,,,,sub_871,2025-03-10_13h58.05.475,Reversal,2023.1.3,60.02512651777543,3,
2,exp1.png,exp2.png,,3,0,3,0,0,2,2,2,,,,,,,,,,,,,,,,,,,,,,,,,False,62,63,True,exp2.png,exp1.png,trial_left_image,1,exp2.png,3,exp2.png,exp1.png,1,3,reversed,correct,0.7198377393463191,1,valid_win,407.092783600001,34,,,,,,,,,,,,,,,sub_871,2025-03-10_13h58.05.475,Reversal,2023.1.3,60.02512651777543,3,
3,exp3.png,exp4.png,,3,0,3,0,0,3,3,3,,,,,,,,,,,,,,,,,,,,,,,,,False,63,64,True,exp4.png,exp3.png,trial_right_image,-1,exp3.png,3,exp4.png,exp3.png,0,2,non-reversed,incorrect,0.8901341311879116,0,valid_lose,411.72474689999945,34,,,,,,,,,,,,,,,sub_871,2025-03-10_13h58.05.475,Reversal,2023.1.3,60.02512651777543,3,
4,exp1.png,exp2.png,,3,0,3,0,0,4,4,4,,,,,,,,,,,,,,,,,,,,,,,,,False,64,65,False,exp1.png,exp2.png,trial_right_image,-1,exp2.png,3,exp2.png,exp1.png,1,3,reversed,correct,0.04927454490678129,0,invalid_lose,415.7567691999993,34,,,,,,,,,,,,,,,sub_871,2025-03-10_13h58.05.475,Reversal,2023.1.3,60.02512651777543,3,
5,exp3.png,exp4.png,,3,0,3,0,0,5,5,5,,,,,,,,,,,,,,,,,,,,,,,,,False,65,66,False,exp3.png,exp4.png,trial_right_image,-1,exp4.png,3,exp4.png,exp3.png,1,1,non-reversed,correct,0.017537392672245078,0,invalid_lose,419.8554034000008,34,,,,,,,,,,,,,,,sub_871,2025-03-10_13h58.05.475,Reversal,2023.1.3,60.02512651777543,3,
6,exp1.png,exp2.png,,3,0,3,0,0,6,6,6,,,,,,,,,,,,,,,,,,,,,,,,,False,66,67,False,exp1.png,exp2.png,trial_right_image,-1,exp2.png,3,exp2.png,exp1.png,1,3,reversed,correct,0.6097692054633985,1,valid_win,425.50323220000064,35,,,,,,,,,,,,,,,sub_871,2025-03-10_13h58.05.475,Reversal,2023.1.3,60.02512651777543,3,
7,exp3.png,exp4.png,,3,0,3,0,0,7,7,7,,,,,,,,,,,,,,,,,,,,,,,,,False,67,68,True,exp4.png,exp3.png,trial_right_image,-1,exp3.png,3,exp4.png,exp3.png,0,2,non-reversed,incorrect,0.528751417165186,0,valid_lose,432.30069449999974,35,,,,,,,,,,,,,,,sub_871,2025-03-10_13h58.05.475,Reversal,2023.1.3,60.02512651777543,3,
8,exp1.png,exp2.png,,3,0,3,0,0,8,8,8,,,,,,,,,,,,,,,,,,,,,,,,,False,68,69,True,exp2.png,exp1.png,trial_right_image,-1,exp1.png,3,exp2.png,exp1.png,0,4,reversed,incorrect,0.48148522683028716,0,valid_lose,437.0989757999996,35,,,,,,,,,,,,,,,sub_871,2025-03-10_13h58.05.475,Reversal,2023.1.3,60.02512651777543,3,
9,exp3.png,exp4.png,,3,0,3,0,0,9,9,9,,,,,,,,,,,,,,,,,,,,,,,,,False,69,70,True,exp4.png,exp3.png,trial_right_image,-1,exp3.png,3,exp4.png,exp3.png,0,2,non-reversed,incorrect,0.484448720858923,0,valid_lose,441.71464000000014,35,,,,,,,,,,,,,,,sub_871,2025-03-10_13h58.05.475,Reversal,2023.1.3,60.02512651777543,3,
10,exp1.png,exp2.png,,3,0,3,0,0,10,10,10,,,,,,,,,,,,,,,,,,,,,,,,,False,70,71,False,exp1.png,exp2.png,trial_right_image,-1,exp2.png,3,exp2.png,exp1.png,1,3,reversed,correct,0.4025340932073067,1,valid_win,445.81281149999995,36,,,,,,,,,,,,,,,sub_871,2025-03-10_13h58.05.475,Reversal,2023.1.3,60.02512651777543,3,
11,exp3.png,exp4.png,,3,0,3,0,0,11,11,11,,,,,,,,,,,,,,,,,,,,,,,,,False,71,72,False,exp3.png,exp4.png,trial_right_image,-1,exp4.png,3,exp4.png,exp3.png,1,1,non-reversed,correct,0.29817054150998257,1,valid_win,452.19413630000054,37,,,,,,,,,,,,,,,sub_871,2025-03-10_13h58.05.475,Reversal,2023.1.3,60.02512651777543,3,
12,exp1.png,exp2.png,,3,0,3,0,0,12,12,12,,,,,,,,,,,,,,,,,,,,,,,,,False,72,73,True,exp2.png,exp1.png,trial_left_image,1,exp2.png,3,exp2.png,exp1.png,1,3,reversed,correct,0.6311528317085282,1,valid_win,456.1930702000009,38,,,,,,,,,,,,,,,sub_871,2025-03-10_13h58.05.475,Reversal,2023.1.3,60.02512651777543,3,
13,exp3.png,exp4.png,,3,0,3,0,0,13,13,13,,,,,,,,,,,,,,,,,,,,,,,,,False,73,74,False,exp3.png,exp4.png,trial_right_image,-1,exp4.png,3,exp4.png,exp3.png,1,1,non-reversed,correct,0.8798511141636424,1,valid_win,460.3248055999993,39,,,,,,,,,,,,,,,sub_871,2025-03-10_13h58.05.475,Reversal,2023.1.3,60.02512651777543,3,
14,exp1.png,exp2.png,,3,0,3,0,0,14,14,14,,,,,,,,,,,,,,,,,,,,,,,,,False,74,75,False,exp1.png,exp2.png,trial_left_image,1,exp1.png,3,exp2.png,exp1.png,0,4,reversed,incorrect,0.9742139730148106,0,valid_lose,464.7897720000001,39,,,,,,,,,,,,,,,sub_871,2025-03-10_13h58.05.475,Reversal,2023.1.3,60.02512651777543,3,
15,exp3.png,exp4.png,,3,0,3,0,0,15,15,15,,,,,,,,,,,,,,,,,,,,,,,,,False,75,76,True,exp4.png,exp3.png,trial_right_image,-1,exp3.png,3,exp4.png,exp3.png,0,2,non-reversed,incorrect,0.5485945577554353,0,valid_lose,468.82200489999923,39,,,,,,,,,,,,,,,sub_871,2025-03-10_13h58.05.475,Reversal,2023.1.3,60.02512651777543,3,
16,exp1.png,exp2.png,,3,0,3,0,0,16,16,16,,,,,,,,,,,,,,,,,,,,,,,,,False,76,77,True,exp2.png,exp1.png,trial_right_image,-1,exp1.png,3,exp2.png,exp1.png,0,4,reversed,incorrect,0.5639495083860312,0,valid_lose,472.3038128999997,39,,,,,,,,,,,,,,,sub_871,2025-03-10_13h58.05.475,Reversal,2023.1.3,60.02512651777543,3,
17,exp3.png,exp4.png,,3,0,3,0,0,17,17,17,,,,,,,,,,,,,,,,,,,,,,,,,False,77,78,True,exp4.png,exp3.png,trial_right_image,-1,exp3.png,3,exp4.png,exp3.png,0,2,non-reversed,incorrect,0.6849990243165732,0,valid_lose,475.7194786,39,,,,,,,,,,,,,,,sub_871,2025-03-10_13h58.05.475,Reversal,2023.1.3,60.02512651777543,3,
18,exp1.png,exp2.png,,3,0,3,0,0,18,18,18,,,,,,,,,,,,,,,,,,,,,,,,,False,78,79,True,exp2.png,exp1.png,trial_right_image,-1,exp1.png,3,exp2.png,exp1.png,0,4,reversed,incorrect,0.587157471433262,0,valid_lose,480.5010435999993,39,,,,,,,,,,,,,,,sub_871,2025-03-10_13h58.05.475,Reversal,2023.1.3,60.02512651777543,3,
19,exp3.png,exp4.png,,3,0,3,0,0,19,19,19,,,,,,,,,,,,,,,,,,,,,,,,,False,79,80,False,exp3.png,exp4.png,trial_right_image,-1,exp4.png,3,exp4.png,exp3.png,1,1,non-reversed,correct,0.8337491336856211,1,valid_win,484.683247500001,40,,,,,,,,,,,,,,,sub_871,2025-03-10_13h58.05.475,Reversal,2023.1.3,60.02512651777543,3,
20,exp1.png,exp2.png,,3,0,3,0,0,20,20,20,,,,,,,,,,,,,,,,,,,,,,,,,True,,,,,,,,,,,,,,,,,,,,,,,,,,,,,,,,,,,sub_871,2025-03-10_13h58.05.475,Reversal,2023.1.3,60.02512651777543,3,
,,,exp1.png,3,0,3,0,,,,,0,0,0,0,0,0,0,0,,,,,,,,,,,,,,,,,,,,,,,,,,,,,,,,,,,,,,629.5705627000007,90.0,90.0,4.240733599999658,"[(90.0, 4.240733599999658)]",,,,,,,,,,sub_871,2025-03-10_13h58.05.475,Reversal,2023.1.3,60.02512651777543,3,
,,,exp2.png,3,0,3,0,,,,,0,0,0,0,0,1,1,1,,,,,,,,,,,,,,,,,,,,,,,,,,,,,,,,,,,,,,635.1625414999999,,26.0,2.0437288000011904,"[(26.0, 2.0437288000011904)]",,,26.0,,,,,,,sub_871,2025-03-10_13h58.05.475,Reversal,2023.1.3,60.02512651777543,3,
,,,exp3.png,3,0,3,0,,,,,0,0,0,0,0,2,2,2,,,,,,,,,,,,,,,,,,,,,,,,,,,,,,,,,,,,,,638.5103536999995,,29.0,1.7122361999990972,"[(29.0, 1.7122361999990972)]",,29.0,,,,,,,,sub_871,2025-03-10_13h58.05.475,Reversal,2023.1.3,60.02512651777543,3,
,,,exp4.png,3,0,3,0,,,,,0,0,0,0,0,3,3,3,,,,,,,,,,,,,,,,,,,,,,,,,,,,,,,,,,,,,,641.4767092000002,,81.0,2.611619499999506,"[(81.0, 2.611619499999506)]",81.0,,,,,,,,,sub_871,2025-03-10_13h58.05.475,Reversal,2023.1.3,60.02512651777543,3,
0,exp1.png,exp2.png,,,,,,,,,,,,,,,,,,0,0,0,0,0,0,0,0,,,,,,,,,False,0,81,True,exp2.png,exp1.png,trial_right_image,-1,exp1.png,3,exp1.png,exp2.png,0,4,reversed,correct,0.967421658669649,1,valid_win,505.30930269999953,41,,,,,,,,,502.8177144000001,,,,,,sub_871,2025-03-10_13h58.05.475,Reversal,2023.1.3,60.02512651777543,3,
1,exp3.png,exp4.png,,,,,,,,,,,,,,,,,,0,0,0,0,0,1,1,1,,,,,,,,,False,1,82,True,exp4.png,exp3.png,trial_left_image,1,exp4.png,3,exp4.png,exp3.png,1,1,non-reversed,correct,0.1486800246729283,0,invalid_lose,509.22496200000023,41,,,,,,,,,,,,,,,sub_871,2025-03-10_13h58.05.475,Reversal,2023.1.3,60.02512651777543,3,
2,exp1.png,exp2.png,,,,,,,,,,,,,,,,,,0,0,0,0,0,2,2,2,,,,,,,,,False,2,83,False,exp1.png,exp2.png,trial_left_image,1,exp1.png,3,exp1.png,exp2.png,0,4,reversed,correct,0.7031710620310112,1,valid_win,514.2232062000003,42,,,,,,,,,,,,,,,sub_871,2025-03-10_13h58.05.475,Reversal,2023.1.3,60.02512651777543,3,
3,exp3.png,exp4.png,,,,,,,,,,,,,,,,,,0,0,0,0,0,3,3,3,,,,,,,,,False,3,84,True,exp4.png,exp3.png,trial_left_image,1,exp4.png,3,exp4.png,exp3.png,1,1,non-reversed,correct,0.718347206116684,1,valid_win,518.7878216000008,43,,,,,,,,,,,,,,,sub_871,2025-03-10_13h58.05.475,Reversal,2023.1.3,60.02512651777543,3,
4,exp1.png,exp2.png,,,,,,,,,,,,,,,,,,0,0,0,0,0,4,4,4,,,,,,,,,False,4,85,False,exp1.png,exp2.png,trial_left_image,1,exp1.png,3,exp1.png,exp2.png,0,4,reversed,correct,0.04230864386031086,0,invalid_lose,523.0372752999992,43,,,,,,,,,,,,,,,sub_871,2025-03-10_13h58.05.475,Reversal,2023.1.3,60.02512651777543,3,
5,exp3.png,exp4.png,,,,,,,,,,,,,,,,,,0,0,0,0,0,5,5,5,,,,,,,,,False,5,86,False,exp3.png,exp4.png,trial_right_image,-1,exp4.png,3,exp4.png,exp3.png,1,1,non-reversed,correct,0.9938566812372023,1,valid_win,527.1355815000006,44,,,,,,,,,,,,,,,sub_871,2025-03-10_13h58.05.475,Reversal,2023.1.3,60.02512651777543,3,
6,exp1.png,exp2.png,,,,,,,,,,,,,,,,,,0,0,0,0,0,6,6,6,,,,,,,,,False,6,87,False,exp1.png,exp2.png,trial_left_image,1,exp1.png,3,exp1.png,exp2.png,0,4,reversed,correct,0.23044726557572914,0,invalid_lose,531.0173496000007,44,,,,,,,,,,,,,,,sub_871,2025-03-10_13h58.05.475,Reversal,2023.1.3,60.02512651777543,3,
7,exp3.png,exp4.png,,,,,,,,,,,,,,,,,,0,0,0,0,0,7,7,7,,,,,,,,,False,7,88,False,exp3.png,exp4.png,trial_right_image,-1,exp4.png,3,exp4.png,exp3.png,1,1,non-reversed,correct,0.41737602248315264,1,valid_win,534.9156874,45,,,,,,,,,,,,,,,sub_871,2025-03-10_13h58.05.475,Reversal,2023.1.3,60.02512651777543,3,
8,exp1.png,exp2.png,,,,,,,,,,,,,,,,,,0,0,0,0,0,8,8,8,,,,,,,,,False,8,89,False,exp1.png,exp2.png,trial_right_image,-1,exp2.png,3,exp1.png,exp2.png,1,3,reversed,incorrect,0.423228184431644,0,valid_lose,539.6978254000005,45,,,,,,,,,,,,,,,sub_871,2025-03-10_13h58.05.475,Reversal,2023.1.3,60.02512651777543,3,
9,exp3.png,exp4.png,,,,,,,,,,,,,,,,,,0,0,0,0,0,9,9,9,,,,,,,,,False,9,90,False,exp3.png,exp4.png,trial_left_image,1,exp3.png,3,exp4.png,exp3.png,0,2,non-reversed,incorrect,0.7528643991186356,0,valid_lose,545.1291010999994,45,,,,,,,,,,,,,,,sub_871,2025-03-10_13h58.05.475,Reversal,2023.1.3,60.02512651777543,3,
10,exp1.png,exp2.png,,,,,,,,,,,,,,,,,,0,0,0,0,0,10,10,10,,,,,,,,,False,10,91,True,exp2.png,exp1.png,trial_right_image,-1,exp1.png,3,exp1.png,exp2.png,0,4,reversed,correct,0.18480283677935394,0,invalid_lose,549.1948214999993,45,,,,,,,,,,,,,,,sub_871,2025-03-10_13h58.05.475,Reversal,2023.1.3,60.02512651777543,3,
11,exp3.png,exp4.png,,,,,,,,,,,,,,,,,,0,0,0,0,0,11,11,11,,,,,,,,,False,11,92,True,exp4.png,exp3.png,trial_left_image,1,exp4.png,3,exp4.png,exp3.png,1,1,non-reversed,correct,0.6552395145287626,1,valid_win,562.3732719,46,,,,,,,,,,,,,,,sub_871,2025-03-10_13h58.05.475,Reversal,2023.1.3,60.02512651777543,3,
12,exp1.png,exp2.png,,,,,,,,,,,,,,,,,,0,0,0,0,0,12,12,12,,,,,,,,,False,12,93,False,exp1.png,exp2.png,trial_right_image,-1,exp2.png,3,exp1.png,exp2.png,1,3,reversed,incorrect,0.5402617398000601,0,valid_lose,568.4881459000007,46,,,,,,,,,,,,,,,sub_871,2025-03-10_13h58.05.475,Reversal,2023.1.3,60.02512651777543,3,
13,exp3.png,exp4.png,,,,,,,,,,,,,,,,,,0,0,0,0,0,13,13,13,,,,,,,,,False,13,94,True,exp4.png,exp3.png,trial_left_image,1,exp4.png,3,exp4.png,exp3.png,1,1,non-reversed,correct,0.8600828851339362,1,valid_win,575.8022271000009,47,,,,,,,,,,,,,,,sub_871,2025-03-10_13h58.05.475,Reversal,2023.1.3,60.02512651777543,3,
14,exp1.png,exp2.png,,,,,,,,,,,,,,,,,,0,0,0,0,0,14,14,14,,,,,,,,,False,14,95,False,exp1.png,exp2.png,trial_left_image,1,exp1.png,3,exp1.png,exp2.png,0,4,reversed,correct,0.12438479896711563,0,invalid_lose,581.3336466000001,47,,,,,,,,,,,,,,,sub_871,2025-03-10_13h58.05.475,Reversal,2023.1.3,60.02512651777543,3,
15,exp3.png,exp4.png,,,,,,,,,,,,,,,,,,0,0,0,0,0,15,15,15,,,,,,,,,False,15,96,False,exp3.png,exp4.png,trial_right_image,-1,exp4.png,3,exp4.png,exp3.png,1,1,non-reversed,correct,0.777535358838759,1,valid_win,585.6651755000003,48,,,,,,,,,,,,,,,sub_871,2025-03-10_13h58.05.475,Reversal,2023.1.3,60.02512651777543,3,
16,exp1.png,exp2.png,,,,,,,,,,,,,,,,,,0,0,0,0,0,16,16,16,,,,,,,,,False,16,97,True,exp2.png,exp1.png,trial_left_image,1,exp2.png,3,exp1.png,exp2.png,1,3,reversed,incorrect,0.5660482928953755,0,valid_lose,590.6470838999994,48,,,,,,,,,,,,,,,sub_871,2025-03-10_13h58.05.475,Reversal,2023.1.3,60.02512651777543,3,
17,exp3.png,exp4.png,,,,,,,,,,,,,,,,,,0,0,0,0,0,17,17,17,,,,,,,,,False,17,98,True,exp4.png,exp3.png,trial_left_image,1,exp4.png,3,exp4.png,exp3.png,1,1,non-reversed,correct,0.7333359780419619,1,valid_win,596.5617098000002,49,,,,,,,,,,,,,,,sub_871,2025-03-10_13h58.05.475,Reversal,2023.1.3,60.02512651777543,3,
18,exp1.png,exp2.png,,,,,,,,,,,,,,,,,,0,0,0,0,0,18,18,18,,,,,,,,,False,18,99,True,exp2.png,exp1.png,trial_right_image,-1,exp1.png,3,exp1.png,exp2.png,0,4,reversed,correct,0.3826216175402397,1,valid_win,601.9429240000009,50,,,,,,,,,,,,,,,sub_871,2025-03-10_13h58.05.475,Reversal,2023.1.3,60.02512651777543,3,
19,exp3.png,exp4.png,,,,,,,,,,,,,,,,,,0,0,0,0,0,19,19,19,,,,,,,,,False,19,100,True,exp4.png,exp3.png,trial_right_image,-1,exp3.png,3,exp4.png,exp3.png,0,2,non-reversed,incorrect,0.6211790845913182,0,valid_lose,606.7081767,50,,,,,,,,,,,,,,,sub_871,2025-03-10_13h58.05.475,Reversal,2023.1.3,60.02512651777543,3,
20,exp1.png,exp2.png,,,,,,,,,,,,,,,,,,0,0,0,0,0,20,20,20,,,,,,,,,True,,,,,,,,,,,,,,,,,,,,,,,,,,,,,,,,,,,sub_871,2025-03-10_13h58.05.475,Reversal,2023.1.3,60.02512651777543,3,
,,,exp1.png,,,,,,,,,,,,,,,,,0,0,0,0,,,,,0,0,0,0,0,0,0,0,,,,,,,,,,,,,,,,,,,,,,751.5939651000008,100.0,100.0,3.6926192000009905,"[(82.0, 2.6921511000000464), (100.0, 3.6926192000009905)]",,,,,,,,,,sub_871,2025-03-10_13h58.05.475,Reversal,2023.1.3,60.02512651777543,3,
,,,exp2.png,,,,,,,,,,,,,,,,,0,0,0,0,,,,,0,0,0,0,0,1,1,1,,,,,,,,,,,,,,,,,,,,,,756.6041650000006,,19.0,2.9275215000016033,"[(19.0, 2.9275215000016033)]",,,19.0,,,,,,,sub_871,2025-03-10_13h58.05.475,Reversal,2023.1.3,60.02512651777543,3,
,,,exp3.png,,,,,,,,,,,,,,,,,0,0,0,0,,,,,0,0,0,0,0,2,2,2,,,,,,,,,,,,,,,,,,,,,,760.6855563000008,,29.0,1.996152899999288,"[(29.0, 1.996152899999288)]",,29.0,,,,,,,,sub_871,2025-03-10_13h58.05.475,Reversal,2023.1.3,60.02512651777543,3,
,,,exp4.png,,,,,,,,,,,,,,,,,0,0,0,0,,,,,0,0,0,0,0,3,3,3,,,,,,,,,,,,,,,,,,,,,,763.7191409000006,,19.0,1.3762148999994679,"[(19.0, 1.3762148999994679)]",19.0,,,,,,,,,sub_871,2025-03-10_13h58.05.475,Reversal,2023.1.3,60.02512651777543,3,
0,exp1.png,exp2.png,,,,,,,,,,,,,,,,,,1,0,1,0,0,0,0,0,,,,,,,,,False,20,101,True,exp2.png,exp1.png,trial_right_image,-1,exp1.png,3,exp1.png,exp2.png,0,4,reversed,correct,0.0066581509119805204,0,invalid_lose,626.7678371000002,50,,,,,,,,,,,,,,,sub_871,2025-03-10_13h58.05.475,Reversal,2023.1.3,60.02512651777543,3,
1,exp3.png,exp4.png,,,,,,,,,,,,,,,,,,1,0,1,0,0,1,1,1,,,,,,,,,False,21,102,True,exp4.png,exp3.png,trial_right_image,-1,exp3.png,3,exp4.png,exp3.png,0,2,non-reversed,incorrect,0.6961475468569602,0,valid_lose,630.7004403999999,50,,,,,,,,,,,,,,,sub_871,2025-03-10_13h58.05.475,Reversal,2023.1.3,60.02512651777543,3,
2,exp1.png,exp2.png,,,,,,,,,,,,,,,,,,1,0,1,0,0,2,2,2,,,,,,,,,False,22,103,False,exp1.png,exp2.png,trial_right_image,-1,exp2.png,3,exp1.png,exp2.png,1,3,reversed,incorrect,0.2366039386277049,1,invalid_win,634.6485001000001,51,,,,,,,,,,,,,,,sub_871,2025-03-10_13h58.05.475,Reversal,2023.1.3,60.02512651777543,3,
3,exp3.png,exp4.png,,,,,,,,,,,,,,,,,,1,0,1,0,0,3,3,3,,,,,,,,,False,23,104,True,exp4.png,exp3.png,trial_left_image,1,exp4.png,3,exp4.png,exp3.png,1,1,non-reversed,correct,0.11564522068247785,0,invalid_lose,639.3143194999993,51,,,,,,,,,,,,,,,sub_871,2025-03-10_13h58.05.475,Reversal,2023.1.3,60.02512651777543,3,
4,exp1.png,exp2.png,,,,,,,,,,,,,,,,,,1,0,1,0,0,4,4,4,,,,,,,,,False,24,105,True,exp2.png,exp1.png,trial_right_image,-1,exp1.png,3,exp1.png,exp2.png,0,4,reversed,correct,0.9676143334289359,1,valid_win,643.2125288000007,52,,,,,,,,,,,,,,,sub_871,2025-03-10_13h58.05.475,Reversal,2023.1.3,60.02512651777543,3,
5,exp3.png,exp4.png,,,,,,,,,,,,,,,,,,1,0,1,0,0,5,5,5,,,,,,,,,False,25,106,True,exp4.png,exp3.png,trial_right_image,-1,exp3.png,3,exp4.png,exp3.png,0,2,non-reversed,incorrect,0.2462708392208418,1,invalid_win,647.3113653,53,,,,,,,,,,,,,,,sub_871,2025-03-10_13h58.05.475,Reversal,2023.1.3,60.02512651777543,3,
6,exp1.png,exp2.png,,,,,,,,,,,,,,,,,,1,0,1,0,0,6,6,6,,,,,,,,,False,26,107,True,exp2.png,exp1.png,trial_right_image,-1,exp1.png,3,exp1.png,exp2.png,0,4,reversed,correct,0.4668796301353255,1,valid_win,650.6095578999993,54,,,,,,,,,,,,,,,sub_871,2025-03-10_13h58.05.475,Reversal,2023.1.3,60.02512651777543,3,
7,exp3.png,exp4.png,,,,,,,,,,,,,,,,,,1,0,1,0,0,7,7,7,,,,,,,,,False,27,108,False,exp3.png,exp4.png,trial_left_image,1,exp3.png,3,exp4.png,exp3.png,0,2,non-reversed,incorrect,0.8936067514985095,0,valid_lose,654.6585880000002,54,,,,,,,,,,,,,,,sub_871,2025-03-10_13h58.05.475,Reversal,2023.1.3,60.02512651777543,3,
8,exp1.png,exp2.png,,,,,,,,,,,,,,,,,,1,0,1,0,0,8,8,8,,,,,,,,,False,28,109,True,exp2.png,exp1.png,trial_right_image,-1,exp1.png,3,exp1.png,exp2.png,0,4,reversed,correct,0.6033055765073209,1,valid_win,658.5410164000004,55,,,,,,,,,,,,,,,sub_871,2025-03-10_13h58.05.475,Reversal,2023.1.3,60.02512651777543,3,
9,exp3.png,exp4.png,,,,,,,,,,,,,,,,,,1,0,1,0,0,9,9,9,,,,,,,,,False,29,110,True,exp4.png,exp3.png,trial_right_image,-1,exp3.png,3,exp4.png,exp3.png,0,2,non-reversed,incorrect,0.15970376931354158,1,invalid_win,662.4893544999995,56,,,,,,,,,,,,,,,sub_871,2025-03-10_13h58.05.475,Reversal,2023.1.3,60.02512651777543,3,
10,exp1.png,exp2.png,,,,,,,,,,,,,,,,,,1,0,1,0,0,10,10,10,,,,,,,,,False,30,111,False,exp1.png,exp2.png,trial_right_image,-1,exp2.png,3,exp1.png,exp2.png,1,3,reversed,incorrect,0.10963296582178073,1,invalid_win,666.4045929999993,57,,,,,,,,,,,,,,,sub_871,2025-03-10_13h58.05.475,Reversal,2023.1.3,60.02512651777543,3,
11,exp3.png,exp4.png,,,,,,,,,,,,,,,,,,1,0,1,0,0,11,11,11,,,,,,,,,False,31,112,False,exp3.png,exp4.png,trial_right_image,-1,exp4.png,3,exp4.png,exp3.png,1,1,non-reversed,correct,0.8949028735900557,1,valid_win,670.9692909000005,58,,,,,,,,,,,,,,,sub_871,2025-03-10_13h58.05.475,Reversal,2023.1.3,60.02512651777543,3,
12,exp1.png,exp2.png,,,,,,,,,,,,,,,,,,1,0,1,0,0,12,12,12,,,,,,,,,False,32,113,False,exp1.png,exp2.png,trial_right_image,-1,exp2.png,3,exp1.png,exp2.png,1,3,reversed,incorrect,0.23619946512906986,1,invalid_win,675.0185354000005,59,,,,,,,,,,,,,,,sub_871,2025-03-10_13h58.05.475,Reversal,2023.1.3,60.02512651777543,3,
13,exp3.png,exp4.png,,,,,,,,,,,,,,,,,,1,0,1,0,0,13,13,13,,,,,,,,,False,33,114,False,exp3.png,exp4.png,trial_right_image,-1,exp4.png,3,exp4.png,exp3.png,1,1,non-reversed,correct,0.11384473064093059,0,invalid_lose,679.0673999999999,59,,,,,,,,,,,,,,,sub_871,2025-03-10_13h58.05.475,Reversal,2023.1.3,60.02512651777543,3,
14,exp1.png,exp2.png,,,,,,,,,,,,,,,,,,1,0,1,0,0,14,14,14,,,,,,,,,False,34,115,False,exp1.png,exp2.png,trial_right_image,-1,exp2.png,3,exp1.png,exp2.png,1,3,reversed,incorrect,0.9104216508088248,0,valid_lose,682.9995290000006,59,,,,,,,,,,,,,,,sub_871,2025-03-10_13h58.05.475,Reversal,2023.1.3,60.02512651777543,3,
15,exp3.png,exp4.png,,,,,,,,,,,,,,,,,,1,0,1,0,0,15,15,15,,,,,,,,,False,35,116,True,exp4.png,exp3.png,trial_left_image,1,exp4.png,3,exp4.png,exp3.png,1,1,non-reversed,correct,0.8012860869597179,1,valid_win,686.8644894999998,60,,,,,,,,,,,,,,,sub_871,2025-03-10_13h58.05.475,Reversal,2023.1.3,60.02512651777543,3,
16,exp1.png,exp2.png,,,,,,,,,,,,,,,,,,1,0,1,0,0,16,16,16,,,,,,,,,False,36,117,False,exp1.png,exp2.png,trial_left_image,1,exp1.png,3,exp1.png,exp2.png,0,4,reversed,correct,0.039630812774339774,0,invalid_lose,690.7463420999993,60,,,,,,,,,,,,,,,sub_871,2025-03-10_13h58.05.475,Reversal,2023.1.3,60.02512651777543,3,
17,exp3.png,exp4.png,,,,,,,,,,,,,,,,,,1,0,1,0,0,17,17,17,,,,,,,,,False,37,118,False,exp3.png,exp4.png,trial_right_image,-1,exp4.png,3,exp4.png,exp3.png,1,1,non-reversed,correct,0.41639346907474206,1,valid_win,694.5946688999993,61,,,,,,,,,,,,,,,sub_871,2025-03-10_13h58.05.475,Reversal,2023.1.3,60.02512651777543,3,
18,exp1.png,exp2.png,,,,,,,,,,,,,,,,,,1,0,1,0,0,18,18,18,,,,,,,,,False,38,119,True,exp2.png,exp1.png,trial_right_image,-1,exp1.png,3,exp1.png,exp2.png,0,4,reversed,correct,0.49286670945947975,1,valid_win,698.6269198999998,62,,,,,,,,,,,,,,,sub_871,2025-03-10_13h58.05.475,Reversal,2023.1.3,60.02512651777543,3,
19,exp3.png,exp4.png,,,,,,,,,,,,,,,,,,1,0,1,0,0,19,19,19,,,,,,,,,False,39,120,False,exp3.png,exp4.png,trial_right_image,-1,exp4.png,3,exp4.png,exp3.png,1,1,non-reversed,correct,0.4395173077528085,1,valid_win,703.0588836999996,63,,,,,,,,,,,,,,,sub_871,2025-03-10_13h58.05.475,Reversal,2023.1.3,60.02512651777543,3,
20,exp1.png,exp2.png,,,,,,,,,,,,,,,,,,1,0,1,0,0,20,20,20,,,,,,,,,True,,,,,,,,,,,,,,,,,,,,,,,,,,,,,,,,,,,sub_871,2025-03-10_13h58.05.475,Reversal,2023.1.3,60.02512651777543,3,
,,,exp1.png,,,,,,,,,,,,,,,,,1,0,1,0,,,,,0,0,0,0,0,0,0,0,,,,,,,,,,,,,,,,,,,,,,847.9364306999996,94.0,94.0,4.967223599998761,"[(94.0, 4.967223599998761)]",,,,,,,,,,sub_871,2025-03-10_13h58.05.475,Reversal,2023.1.3,60.02512651777543,3,
,,,exp2.png,,,,,,,,,,,,,,,,,1,0,1,0,,,,,0,0,0,0,0,1,1,1,,,,,,,,,,,,,,,,,,,,,,854.5208456,,80.0,4.393984099999216,"[(80.0, 4.393984099999216)]",,,80.0,,,,,,,sub_871,2025-03-10_13h58.05.475,Reversal,2023.1.3,60.02512651777543,3,
,,,exp3.png,,,,,,,,,,,,,,,,,1,0,1,0,,,,,0,0,0,0,0,2,2,2,,,,,,,,,,,,,,,,,,,,,,860.2354293999997,,17.0,3.4776311999994505,"[(17.0, 3.4776311999994505)]",,17.0,,,,,,,,sub_871,2025-03-10_13h58.05.475,Reversal,2023.1.3,60.02512651777543,3,
,,,exp4.png,,,,,,,,,,,,,,,,,1,0,1,0,,,,,0,0,0,0,0,3,3,3,,,,,,,,,,,,,,,,,,,,,,864.800699200001,,None,None,[],,,,,,,,,,sub_871,2025-03-10_13h58.05.475,Reversal,2023.1.3,60.02512651777543,3,
0,exp1.png,exp2.png,,,,,,,,,,,,,,,,,,2,0,2,0,0,0,0,0,,,,,,,,,False,40,121,False,exp1.png,exp2.png,trial_right_image,-1,exp2.png,3,exp1.png,exp2.png,1,3,reversed,incorrect,0.4990246983904222,0,valid_lose,728.4505343000001,63,,,,,,,,,,,,,,,sub_871,2025-03-10_13h58.05.475,Reversal,2023.1.3,60.02512651777543,3,
1,exp3.png,exp4.png,,,,,,,,,,,,,,,,,,2,0,2,0,0,1,1,1,,,,,,,,,False,41,122,True,exp4.png,exp3.png,trial_left_image,1,exp4.png,3,exp4.png,exp3.png,1,1,non-reversed,correct,0.6337710331733797,1,valid_win,732.3986433999999,64,,,,,,,,,,,,,,,sub_871,2025-03-10_13h58.05.475,Reversal,2023.1.3,60.02512651777543,3,
2,exp1.png,exp2.png,,,,,,,,,,,,,,,,,,2,0,2,0,0,2,2,2,,,,,,,,,False,42,123,False,exp1.png,exp2.png,trial_right_image,-1,exp2.png,3,exp1.png,exp2.png,1,3,reversed,incorrect,0.4396977745132421,0,valid_lose,736.7640807000007,64,,,,,,,,,,,,,,,sub_871,2025-03-10_13h58.05.475,Reversal,2023.1.3,60.02512651777543,3,
3,exp3.png,exp4.png,,,,,,,,,,,,,,,,,,2,0,2,0,0,3,3,3,,,,,,,,,False,43,124,True,exp4.png,exp3.png,trial_right_image,-1,exp3.png,3,exp4.png,exp3.png,0,2,non-reversed,incorrect,0.7918195289329468,0,valid_lose,740.8124690999994,64,,,,,,,,,,,,,,,sub_871,2025-03-10_13h58.05.475,Reversal,2023.1.3,60.02512651777543,3,
4,exp1.png,exp2.png,,,,,,,,,,,,,,,,,,2,0,2,0,0,4,4,4,,,,,,,,,False,44,125,False,exp1.png,exp2.png,trial_left_image,1,exp1.png,3,exp1.png,exp2.png,0,4,reversed,correct,0.983305523152503,1,valid_win,744.6613815000001,65,,,,,,,,,,,,,,,sub_871,2025-03-10_13h58.05.475,Reversal,2023.1.3,60.02512651777543,3,
5,exp3.png,exp4.png,,,,,,,,,,,,,,,,,,2,0,2,0,0,5,5,5,,,,,,,,,False,45,126,True,exp4.png,exp3.png,trial_right_image,-1,exp3.png,3,exp4.png,exp3.png,0,2,non-reversed,incorrect,0.8380888167381649,0,valid_lose,749.0432036000002,65,,,,,,,,,,,,,,,sub_871,2025-03-10_13h58.05.475,Reversal,2023.1.3,60.02512651777543,3,
6,exp1.png,exp2.png,,,,,,,,,,,,,,,,,,2,0,2,0,0,6,6,6,,,,,,,,,False,46,127,False,exp1.png,exp2.png,trial_left_image,1,exp1.png,3,exp1.png,exp2.png,0,4,reversed,correct,0.09446822802878585,0,invalid_lose,752.3919394999994,65,,,,,,,,,,,,,,,sub_871,2025-03-10_13h58.05.475,Reversal,2023.1.3,60.02512651777543,3,
7,exp3.png,exp4.png,,,,,,,,,,,,,,,,,,2,0,2,0,0,7,7,7,,,,,,,,,False,47,128,False,exp3.png,exp4.png,trial_right_image,-1,exp4.png,3,exp4.png,exp3.png,1,1,non-reversed,correct,0.2647300757659452,1,valid_win,755.5582477000007,66,,,,,,,,,,,,,,,sub_871,2025-03-10_13h58.05.475,Reversal,2023.1.3,60.02512651777543,3,
8,exp1.png,exp2.png,,,,,,,,,,,,,,,,,,2,0,2,0,0,8,8,8,,,,,,,,,False,48,129,True,exp2.png,exp1.png,trial_right_image,-1,exp1.png,3,exp1.png,exp2.png,0,4,reversed,correct,0.45263455656376617,1,valid_win,759.4898137,67,,,,,,,,,,,,,,,sub_871,2025-03-10_13h58.05.475,Reversal,2023.1.3,60.02512651777543,3,
9,exp3.png,exp4.png,,,,,,,,,,,,,,,,,,2,0,2,0,0,9,9,9,,,,,,,,,False,49,130,False,exp3.png,exp4.png,trial_right_image,-1,exp4.png,3,exp4.png,exp3.png,1,1,non-reversed,correct,0.5138134362414001,1,valid_win,763.0046321000009,68,,,,,,,,,,,,,,,sub_871,2025-03-10_13h58.05.475,Reversal,2023.1.3,60.02512651777543,3,
10,exp1.png,exp2.png,,,,,,,,,,,,,,,,,,2,0,2,0,0,10,10,10,,,,,,,,,False,50,131,True,exp2.png,exp1.png,trial_right_image,-1,exp1.png,3,exp1.png,exp2.png,0,4,reversed,correct,0.24081378750896465,0,invalid_lose,770.5026395000004,68,,,,,,,,,,,,,,,sub_871,2025-03-10_13h58.05.475,Reversal,2023.1.3,60.02512651777543,3,
11,exp3.png,exp4.png,,,,,,,,,,,,,,,,,,2,0,2,0,0,11,11,11,,,,,,,,,False,51,132,False,exp3.png,exp4.png,trial_left_image,1,exp3.png,3,exp4.png,exp3.png,0,2,non-reversed,incorrect,0.04758658209119837,1,invalid_win,774.5678738999995,69,,,,,,,,,,,,,,,sub_871,2025-03-10_13h58.05.475,Reversal,2023.1.3,60.02512651777543,3,
12,exp1.png,exp2.png,,,,,,,,,,,,,,,,,,2,0,2,0,0,12,12,12,,,,,,,,,False,52,133,False,exp1.png,exp2.png,trial_right_image,-1,exp2.png,3,exp1.png,exp2.png,1,3,reversed,incorrect,0.20032384971022876,1,invalid_win,778.5326428999997,70,,,,,,,,,,,,,,,sub_871,2025-03-10_13h58.05.475,Reversal,2023.1.3,60.02512651777543,3,
13,exp3.png,exp4.png,,,,,,,,,,,,,,,,,,2,0,2,0,0,13,13,13,,,,,,,,,False,53,134,True,exp4.png,exp3.png,trial_left_image,1,exp4.png,3,exp4.png,exp3.png,1,1,non-reversed,correct,0.8053254215537275,1,valid_win,783.0816513000009,71,,,,,,,,,,,,,,,sub_871,2025-03-10_13h58.05.475,Reversal,2023.1.3,60.02512651777543,3,
14,exp1.png,exp2.png,,,,,,,,,,,,,,,,,,2,0,2,0,0,14,14,14,,,,,,,,,False,54,135,False,exp1.png,exp2.png,trial_right_image,-1,exp2.png,3,exp1.png,exp2.png,1,3,reversed,incorrect,0.09830907351034912,1,invalid_win,787.0134340999994,72,,,,,,,,,,,,,,,sub_871,2025-03-10_13h58.05.475,Reversal,2023.1.3,60.02512651777543,3,
15,exp3.png,exp4.png,,,,,,,,,,,,,,,,,,2,0,2,0,0,15,15,15,,,,,,,,,False,55,136,True,exp4.png,exp3.png,trial_left_image,1,exp4.png,3,exp4.png,exp3.png,1,1,non-reversed,correct,0.8774891193770813,1,valid_win,790.9620224999999,73,,,,,,,,,,,,,,,sub_871,2025-03-10_13h58.05.475,Reversal,2023.1.3,60.02512651777543,3,
16,exp1.png,exp2.png,,,,,,,,,,,,,,,,,,2,0,2,0,0,16,16,16,,,,,,,,,False,56,137,True,exp2.png,exp1.png,trial_right_image,-1,exp1.png,3,exp1.png,exp2.png,0,4,reversed,correct,0.7092414946183959,1,valid_win,794.3774646000002,74,,,,,,,,,,,,,,,sub_871,2025-03-10_13h58.05.475,Reversal,2023.1.3,60.02512651777543,3,
17,exp3.png,exp4.png,,,,,,,,,,,,,,,,,,2,0,2,0,0,17,17,17,,,,,,,,,False,57,138,True,exp4.png,exp3.png,trial_left_image,1,exp4.png,3,exp4.png,exp3.png,1,1,non-reversed,correct,0.16456604989357293,0,invalid_lose,797.7430189999995,74,,,,,,,,,,,,,,,sub_871,2025-03-10_13h58.05.475,Reversal,2023.1.3,60.02512651777543,3,
18,exp1.png,exp2.png,,,,,,,,,,,,,,,,,,2,0,2,0,0,18,18,18,,,,,,,,,False,58,139,False,exp1.png,exp2.png,trial_right_image,-1,exp2.png,3,exp1.png,exp2.png,1,3,reversed,incorrect,0.97474137539847,0,valid_lose,801.725788400001,74,,,,,,,,,,,,,,,sub_871,2025-03-10_13h58.05.475,Reversal,2023.1.3,60.02512651777543,3,
19,exp3.png,exp4.png,,,,,,,,,,,,,,,,,,2,0,2,0,0,19,19,19,,,,,,,,,False,59,140,True,exp4.png,exp3.png,trial_right_image,-1,exp3.png,3,exp4.png,exp3.png,0,2,non-reversed,incorrect,0.29757232711052883,0,valid_lose,805.2071904999993,74,,,,,,,,,,,,,,,sub_871,2025-03-10_13h58.05.475,Reversal,2023.1.3,60.02512651777543,3,
20,exp1.png,exp2.png,,,,,,,,,,,,,,,,,,2,0,2,0,0,20,20,20,,,,,,,,,True,,,,,,,,,,,,,,,,,,,,,,,,,,,,,,,,,,,sub_871,2025-03-10_13h58.05.475,Reversal,2023.1.3,60.02512651777543,3,
,,,exp1.png,,,,,,,,,,,,,,,,,2,0,2,0,,,,,0,0,0,0,0,0,0,0,,,,,,,,,,,,,,,,,,,,,,950.0923968999996,91.0,91.0,2.9602353000009316,"[(91.0, 2.9602353000009316)]",,,,,,,,,,sub_871,2025-03-10_13h58.05.475,Reversal,2023.1.3,60.02512651777543,3,
,,,exp2.png,,,,,,,,,,,,,,,,,2,0,2,0,,,,,0,0,0,0,0,1,1,1,,,,,,,,,,,,,,,,,,,,,,954.335712600001,,None,None,[],,,,,,,,,,sub_871,2025-03-10_13h58.05.475,Reversal,2023.1.3,60.02512651777543,3,
,,,exp3.png,,,,,,,,,,,,,,,,,2,0,2,0,,,,,0,0,0,0,0,2,2,2,,,,,,,,,,,,,,,,,,,,,,957.9186847000001,,None,None,[],,,,,,,,,,sub_871,2025-03-10_13h58.05.475,Reversal,2023.1.3,60.02512651777543,3,
,,,exp4.png,,,,,,,,,,,,,,,,,2,0,2,0,,,,,0,0,0,0,0,3,3,3,,,,,,,,,,,,,,,,,,,,,,960.3849769000008,,None,None,[],,,,,,,,,,sub_871,2025-03-10_13h58.05.475,Reversal,2023.1.3,60.02512651777543,3,
,,,,,,,,,,,,,,,,,,,,,,,,,,,,,,,,,,,,,,,,,,,,,,,,,,,,,,,,74,,,,,,,,,,83,45,38,317.18531040000016,1,,,,,,,
