trial_index,trial_image1_file,trial_image2_file,image_file,learning_outer_loop.thisRepN,learning_outer_loop.thisTrialN,learning_outer_loop.thisN,learning_outer_loop.thisIndex,learning_inner_loop.thisRepN,learning_inner_loop.thisTrialN,learning_inner_loop.thisN,learning_inner_loop.thisIndex,learning_estimation_outer_loop.thisRepN,learning_estimation_outer_loop.thisTrialN,learning_estimation_outer_loop.thisN,learning_estimation_outer_loop.thisIndex,learning_estimation_inner_loop.thisRepN,learning_estimation_inner_loop.thisTrialN,learning_estimation_inner_loop.thisN,learning_estimation_inner_loop.thisIndex,reversal_outer_loop.thisRepN,reversal_outer_loop.thisTrialN,reversal_outer_loop.thisN,reversal_outer_loop.thisIndex,reversal_inner_loop.thisRepN,reversal_inner_loop.thisTrialN,reversal_inner_loop.thisN,reversal_inner_loop.thisIndex,reversal_estimation_outer_loop.thisRepN,reversal_estimation_outer_loop.thisTrialN,reversal_estimation_outer_loop.thisN,reversal_estimation_outer_loop.thisIndex,reversal_estimation_inner_loop.thisRepN,reversal_estimation_inner_loop.thisTrialN,reversal_estimation_inner_loop.thisN,reversal_estimation_inner_loop.thisIndex,skipped,total_trial_counter,trial_num,left_right_flip,left_image_file,right_image_file,clicked_stimulus_side,side,clicked_stimulus,version,high_prob_image_file,low_prob_image_file,choice_a,choice_b,pair_type,correct,trial_feedback_random,reward,trial_type,overall_time_after_trial,score,estimation_exp1.png,estimation_rating.response,estimation_rating.rt,estimation_rating.history,estimation_rating.started,estimation_rating.stopped,estimation_exp3.png,estimation_exp4.png,estimation_exp2.png,total_learning_time,total_correct,learning_correct,reversal_correct,total_reversal_time,extra_block,participant,date,expName,psychopyVersion,frameRate,ver,
0,exp1.png,exp2.png,,0,0,0,0,0,0,0,0,,,,,,,,,,,,,,,,,,,,,,,,,False,0,1,False,exp1.png,exp2.png,trial_left_image,1,exp1.png,2,exp1.png,exp2.png,1,1,non-reversed,correct,0.06536997208866557,0,invalid_lose,13.132735300001514,0,,,,,,,,,,,,,,,,sub_882,2025-03-06_14h18.47.163,Reversal,2022.1.2,60.06280166553059,2,
1,exp3.png,exp4.png,,0,0,0,0,0,1,1,1,,,,,,,,,,,,,,,,,,,,,,,,,False,1,2,True,exp4.png,exp3.png,trial_right_image,-1,exp3.png,2,exp3.png,exp4.png,1,3,reversed,correct,0.10217753321938039,0,invalid_lose,32.88292400000137,0,,,,,,,,,,,,,,,,sub_882,2025-03-06_14h18.47.163,Reversal,2022.1.2,60.06280166553059,2,
2,exp1.png,exp2.png,,0,0,0,0,0,2,2,2,,,,,,,,,,,,,,,,,,,,,,,,,False,2,3,True,exp2.png,exp1.png,trial_left_image,1,exp2.png,2,exp1.png,exp2.png,0,2,non-reversed,incorrect,0.37865302551519875,0,valid_lose,38.71604719999959,0,,,,,,,,,,,,,,,,sub_882,2025-03-06_14h18.47.163,Reversal,2022.1.2,60.06280166553059,2,
3,exp3.png,exp4.png,,0,0,0,0,0,3,3,3,,,,,,,,,,,,,,,,,,,,,,,,,False,3,4,True,exp4.png,exp3.png,trial_left_image,1,exp4.png,2,exp3.png,exp4.png,0,4,reversed,incorrect,0.24364858977331327,1,invalid_win,44.1985480000003,1,,,,,,,,,,,,,,,,sub_882,2025-03-06_14h18.47.163,Reversal,2022.1.2,60.06280166553059,2,
4,exp1.png,exp2.png,,0,0,0,0,0,4,4,4,,,,,,,,,,,,,,,,,,,,,,,,,False,4,5,False,exp1.png,exp2.png,trial_right_image,-1,exp2.png,2,exp1.png,exp2.png,0,2,non-reversed,incorrect,0.8510987879200713,0,valid_lose,49.34849469999972,1,,,,,,,,,,,,,,,,sub_882,2025-03-06_14h18.47.163,Reversal,2022.1.2,60.06280166553059,2,
5,exp3.png,exp4.png,,0,0,0,0,0,5,5,5,,,,,,,,,,,,,,,,,,,,,,,,,False,5,6,False,exp3.png,exp4.png,trial_right_image,-1,exp4.png,2,exp3.png,exp4.png,0,4,reversed,incorrect,0.5343203967510031,0,valid_lose,53.898923800003104,1,,,,,,,,,,,,,,,,sub_882,2025-03-06_14h18.47.163,Reversal,2022.1.2,60.06280166553059,2,
6,exp1.png,exp2.png,,0,0,0,0,0,6,6,6,,,,,,,,,,,,,,,,,,,,,,,,,False,6,7,False,exp1.png,exp2.png,trial_left_image,1,exp1.png,2,exp1.png,exp2.png,1,1,non-reversed,correct,0.570263894001312,1,valid_win,59.031829900002776,2,,,,,,,,,,,,,,,,sub_882,2025-03-06_14h18.47.163,Reversal,2022.1.2,60.06280166553059,2,
7,exp3.png,exp4.png,,0,0,0,0,0,7,7,7,,,,,,,,,,,,,,,,,,,,,,,,,False,7,8,True,exp4.png,exp3.png,trial_left_image,1,exp4.png,2,exp3.png,exp4.png,0,4,reversed,incorrect,0.20497595747823305,1,invalid_win,63.91494180000154,3,,,,,,,,,,,,,,,,sub_882,2025-03-06_14h18.47.163,Reversal,2022.1.2,60.06280166553059,2,
8,exp1.png,exp2.png,,0,0,0,0,0,8,8,8,,,,,,,,,,,,,,,,,,,,,,,,,False,8,9,True,exp2.png,exp1.png,trial_left_image,1,exp2.png,2,exp1.png,exp2.png,0,2,non-reversed,incorrect,0.9854024935989183,0,valid_lose,68.58103560000018,3,,,,,,,,,,,,,,,,sub_882,2025-03-06_14h18.47.163,Reversal,2022.1.2,60.06280166553059,2,
9,exp3.png,exp4.png,,0,0,0,0,0,9,9,9,,,,,,,,,,,,,,,,,,,,,,,,,False,9,10,True,exp4.png,exp3.png,trial_left_image,1,exp4.png,2,exp3.png,exp4.png,0,4,reversed,incorrect,0.7918401265884574,0,valid_lose,73.53106310000294,3,,,,,,,,,,,,,,,,sub_882,2025-03-06_14h18.47.163,Reversal,2022.1.2,60.06280166553059,2,
10,exp1.png,exp2.png,,0,0,0,0,0,10,10,10,,,,,,,,,,,,,,,,,,,,,,,,,False,10,11,False,exp1.png,exp2.png,trial_right_image,-1,exp2.png,2,exp1.png,exp2.png,0,2,non-reversed,incorrect,0.3945033838175176,0,valid_lose,79.21496260000276,3,,,,,,,,,,,,,,,,sub_882,2025-03-06_14h18.47.163,Reversal,2022.1.2,60.06280166553059,2,
11,exp3.png,exp4.png,,0,0,0,0,0,11,11,11,,,,,,,,,,,,,,,,,,,,,,,,,False,11,12,False,exp3.png,exp4.png,trial_left_image,1,exp3.png,2,exp3.png,exp4.png,1,3,reversed,correct,0.7721349525435274,1,valid_win,83.64777170000161,4,,,,,,,,,,,,,,,,sub_882,2025-03-06_14h18.47.163,Reversal,2022.1.2,60.06280166553059,2,
12,exp1.png,exp2.png,,0,0,0,0,0,12,12,12,,,,,,,,,,,,,,,,,,,,,,,,,False,12,13,True,exp2.png,exp1.png,trial_left_image,1,exp2.png,2,exp1.png,exp2.png,0,2,non-reversed,incorrect,0.4517673947985529,0,valid_lose,88.06437600000208,4,,,,,,,,,,,,,,,,sub_882,2025-03-06_14h18.47.163,Reversal,2022.1.2,60.06280166553059,2,
13,exp3.png,exp4.png,,0,0,0,0,0,13,13,13,,,,,,,,,,,,,,,,,,,,,,,,,False,13,14,True,exp4.png,exp3.png,trial_left_image,1,exp4.png,2,exp3.png,exp4.png,0,4,reversed,incorrect,0.4908490168806443,0,valid_lose,92.86465870000029,4,,,,,,,,,,,,,,,,sub_882,2025-03-06_14h18.47.163,Reversal,2022.1.2,60.06280166553059,2,
14,exp1.png,exp2.png,,0,0,0,0,0,14,14,14,,,,,,,,,,,,,,,,,,,,,,,,,False,14,15,True,exp2.png,exp1.png,trial_left_image,1,exp2.png,2,exp1.png,exp2.png,0,2,non-reversed,incorrect,0.7375511895962239,0,valid_lose,97.43068730000232,4,,,,,,,,,,,,,,,,sub_882,2025-03-06_14h18.47.163,Reversal,2022.1.2,60.06280166553059,2,
15,exp3.png,exp4.png,,0,0,0,0,0,15,15,15,,,,,,,,,,,,,,,,,,,,,,,,,False,15,16,True,exp4.png,exp3.png,trial_left_image,1,exp4.png,2,exp3.png,exp4.png,0,4,reversed,incorrect,0.5844098896608162,0,valid_lose,101.9806931000021,4,,,,,,,,,,,,,,,,sub_882,2025-03-06_14h18.47.163,Reversal,2022.1.2,60.06280166553059,2,
16,exp1.png,exp2.png,,0,0,0,0,0,16,16,16,,,,,,,,,,,,,,,,,,,,,,,,,False,16,17,False,exp1.png,exp2.png,trial_right_image,-1,exp2.png,2,exp1.png,exp2.png,0,2,non-reversed,incorrect,0.9094501793525411,0,valid_lose,106.34740580000289,4,,,,,,,,,,,,,,,,sub_882,2025-03-06_14h18.47.163,Reversal,2022.1.2,60.06280166553059,2,
17,exp3.png,exp4.png,,0,0,0,0,0,17,17,17,,,,,,,,,,,,,,,,,,,,,,,,,False,17,18,False,exp3.png,exp4.png,trial_right_image,-1,exp4.png,2,exp3.png,exp4.png,0,4,reversed,incorrect,0.7489968515444084,0,valid_lose,110.78116130000126,4,,,,,,,,,,,,,,,,sub_882,2025-03-06_14h18.47.163,Reversal,2022.1.2,60.06280166553059,2,
18,exp1.png,exp2.png,,0,0,0,0,0,18,18,18,,,,,,,,,,,,,,,,,,,,,,,,,False,18,19,False,exp1.png,exp2.png,trial_left_image,1,exp1.png,2,exp1.png,exp2.png,1,1,non-reversed,correct,0.04442124071410958,0,invalid_lose,115.01370950000273,4,,,,,,,,,,,,,,,,sub_882,2025-03-06_14h18.47.163,Reversal,2022.1.2,60.06280166553059,2,
19,exp3.png,exp4.png,,0,0,0,0,0,19,19,19,,,,,,,,,,,,,,,,,,,,,,,,,False,19,20,False,exp3.png,exp4.png,trial_right_image,-1,exp4.png,2,exp3.png,exp4.png,0,4,reversed,incorrect,0.17615227687505142,1,invalid_win,119.49711659999957,5,,,,,,,,,,,,,,,,sub_882,2025-03-06_14h18.47.163,Reversal,2022.1.2,60.06280166553059,2,
20,exp1.png,exp2.png,,0,0,0,0,0,20,20,20,,,,,,,,,,,,,,,,,,,,,,,,,True,,,,,,,,,,,,,,,,,,,,,,,,,,,,,,,,,,,,sub_882,2025-03-06_14h18.47.163,Reversal,2022.1.2,60.06280166553059,2,
,,,exp1.png,0,0,0,0,,,,,0,0,0,0,0,0,0,0,,,,,,,,,,,,,,,,,,,,,,,,,,,,,,,,,,,,,,97.0,97.0,8.167714100000012,"[(97.0, 8.167714100000012)]",197.34081569999762,None,,,,,,,,,,sub_882,2025-03-06_14h18.47.163,Reversal,2022.1.2,60.06280166553059,2,
,,,exp2.png,0,0,0,0,,,,,0,0,0,0,0,1,1,1,,,,,,,,,,,,,,,,,,,,,,,,,,,,,,,,,,,,,,,50.0,None,[],206.2931185999987,None,,,,,,,,,,sub_882,2025-03-06_14h18.47.163,Reversal,2022.1.2,60.06280166553059,2,
,,,exp3.png,0,0,0,0,,,,,0,0,0,0,0,2,2,2,,,,,,,,,,,,,,,,,,,,,,,,,,,,,,,,,,,,,,,8.0,4.835471499998675,"[(8.0, 4.835471499998675)]",206.7359097999979,None,8.0,,,,,,,,,sub_882,2025-03-06_14h18.47.163,Reversal,2022.1.2,60.06280166553059,2,
,,,exp4.png,0,0,0,0,,,,,0,0,0,0,0,3,3,3,,,,,,,,,,,,,,,,,,,,,,,,,,,,,,,,,,,,,,,76.0,4.4170519999970566,"[(76.0, 4.4170519999970566)]",212.83800559999872,None,,76.0,,,,,,,,sub_882,2025-03-06_14h18.47.163,Reversal,2022.1.2,60.06280166553059,2,
0,exp1.png,exp2.png,,1,0,1,0,0,0,0,0,,,,,,,,,,,,,,,,,,,,,,,,,False,20,21,True,exp2.png,exp1.png,trial_left_image,1,exp2.png,2,exp1.png,exp2.png,0,2,non-reversed,incorrect,0.4651061269309954,0,valid_lose,146.03039960000024,5,,,,,,,,,,,,,,,,sub_882,2025-03-06_14h18.47.163,Reversal,2022.1.2,60.06280166553059,2,
1,exp3.png,exp4.png,,1,0,1,0,0,1,1,1,,,,,,,,,,,,,,,,,,,,,,,,,False,21,22,False,exp3.png,exp4.png,trial_left_image,1,exp3.png,2,exp3.png,exp4.png,1,3,reversed,correct,0.8854093369187276,1,valid_win,150.3962926000022,6,,,,,,,,,,,,,,,,sub_882,2025-03-06_14h18.47.163,Reversal,2022.1.2,60.06280166553059,2,
2,exp1.png,exp2.png,,1,0,1,0,0,2,2,2,,,,,,,,,,,,,,,,,,,,,,,,,False,22,23,False,exp1.png,exp2.png,trial_left_image,1,exp1.png,2,exp1.png,exp2.png,1,1,non-reversed,correct,0.8407402360852706,1,valid_win,154.76324400000158,7,,,,,,,,,,,,,,,,sub_882,2025-03-06_14h18.47.163,Reversal,2022.1.2,60.06280166553059,2,
3,exp3.png,exp4.png,,1,0,1,0,0,3,3,3,,,,,,,,,,,,,,,,,,,,,,,,,False,23,24,False,exp3.png,exp4.png,trial_right_image,-1,exp4.png,2,exp3.png,exp4.png,0,4,reversed,incorrect,0.36076457769990966,0,valid_lose,159.14696639999966,7,,,,,,,,,,,,,,,,sub_882,2025-03-06_14h18.47.163,Reversal,2022.1.2,60.06280166553059,2,
4,exp1.png,exp2.png,,1,0,1,0,0,4,4,4,,,,,,,,,,,,,,,,,,,,,,,,,False,24,25,True,exp2.png,exp1.png,trial_right_image,-1,exp1.png,2,exp1.png,exp2.png,1,1,non-reversed,correct,0.7837067382673857,1,valid_win,163.4800991000011,8,,,,,,,,,,,,,,,,sub_882,2025-03-06_14h18.47.163,Reversal,2022.1.2,60.06280166553059,2,
5,exp3.png,exp4.png,,1,0,1,0,0,5,5,5,,,,,,,,,,,,,,,,,,,,,,,,,False,25,26,True,exp4.png,exp3.png,trial_right_image,-1,exp3.png,2,exp3.png,exp4.png,1,3,reversed,correct,0.35031713609930637,1,valid_win,167.84623140000258,9,,,,,,,,,,,,,,,,sub_882,2025-03-06_14h18.47.163,Reversal,2022.1.2,60.06280166553059,2,
6,exp1.png,exp2.png,,1,0,1,0,0,6,6,6,,,,,,,,,,,,,,,,,,,,,,,,,False,26,27,True,exp2.png,exp1.png,trial_left_image,1,exp2.png,2,exp1.png,exp2.png,0,2,non-reversed,incorrect,0.7321653737504353,0,valid_lose,172.29663710000023,9,,,,,,,,,,,,,,,,sub_882,2025-03-06_14h18.47.163,Reversal,2022.1.2,60.06280166553059,2,
7,exp3.png,exp4.png,,1,0,1,0,0,7,7,7,,,,,,,,,,,,,,,,,,,,,,,,,False,27,28,False,exp3.png,exp4.png,trial_right_image,-1,exp4.png,2,exp3.png,exp4.png,0,4,reversed,incorrect,0.4887679079814079,0,valid_lose,176.8799620000027,9,,,,,,,,,,,,,,,,sub_882,2025-03-06_14h18.47.163,Reversal,2022.1.2,60.06280166553059,2,
8,exp1.png,exp2.png,,1,0,1,0,0,8,8,8,,,,,,,,,,,,,,,,,,,,,,,,,False,28,29,True,exp2.png,exp1.png,trial_left_image,1,exp2.png,2,exp1.png,exp2.png,0,2,non-reversed,incorrect,0.05062940590163012,1,invalid_win,181.04621000000043,10,,,,,,,,,,,,,,,,sub_882,2025-03-06_14h18.47.163,Reversal,2022.1.2,60.06280166553059,2,
9,exp3.png,exp4.png,,1,0,1,0,0,9,9,9,,,,,,,,,,,,,,,,,,,,,,,,,False,29,30,True,exp4.png,exp3.png,trial_right_image,-1,exp3.png,2,exp3.png,exp4.png,1,3,reversed,correct,0.6418589852458272,1,valid_win,185.5961797000018,11,,,,,,,,,,,,,,,,sub_882,2025-03-06_14h18.47.163,Reversal,2022.1.2,60.06280166553059,2,
10,exp1.png,exp2.png,,1,0,1,0,0,10,10,10,,,,,,,,,,,,,,,,,,,,,,,,,False,30,31,False,exp1.png,exp2.png,trial_left_image,1,exp1.png,2,exp1.png,exp2.png,1,1,non-reversed,correct,0.7679039298509162,1,valid_win,189.92917690000104,12,,,,,,,,,,,,,,,,sub_882,2025-03-06_14h18.47.163,Reversal,2022.1.2,60.06280166553059,2,
11,exp3.png,exp4.png,,1,0,1,0,0,11,11,11,,,,,,,,,,,,,,,,,,,,,,,,,False,31,32,False,exp3.png,exp4.png,trial_right_image,-1,exp4.png,2,exp3.png,exp4.png,0,4,reversed,incorrect,0.34750137052047514,0,valid_lose,194.1295551000003,12,,,,,,,,,,,,,,,,sub_882,2025-03-06_14h18.47.163,Reversal,2022.1.2,60.06280166553059,2,
12,exp1.png,exp2.png,,1,0,1,0,0,12,12,12,,,,,,,,,,,,,,,,,,,,,,,,,False,32,33,True,exp2.png,exp1.png,trial_right_image,-1,exp1.png,2,exp1.png,exp2.png,1,1,non-reversed,correct,0.036773434342930345,0,invalid_lose,198.5122255000024,12,,,,,,,,,,,,,,,,sub_882,2025-03-06_14h18.47.163,Reversal,2022.1.2,60.06280166553059,2,
13,exp3.png,exp4.png,,1,0,1,0,0,13,13,13,,,,,,,,,,,,,,,,,,,,,,,,,False,33,34,False,exp3.png,exp4.png,trial_left_image,1,exp3.png,2,exp3.png,exp4.png,1,3,reversed,correct,0.12757350725051386,0,invalid_lose,202.87909209999998,12,,,,,,,,,,,,,,,,sub_882,2025-03-06_14h18.47.163,Reversal,2022.1.2,60.06280166553059,2,
14,exp1.png,exp2.png,,1,0,1,0,0,14,14,14,,,,,,,,,,,,,,,,,,,,,,,,,False,34,35,False,exp1.png,exp2.png,trial_right_image,-1,exp2.png,2,exp1.png,exp2.png,0,2,non-reversed,incorrect,0.2751858887863301,0,valid_lose,206.9956087999999,12,,,,,,,,,,,,,,,,sub_882,2025-03-06_14h18.47.163,Reversal,2022.1.2,60.06280166553059,2,
15,exp3.png,exp4.png,,1,0,1,0,0,15,15,15,,,,,,,,,,,,,,,,,,,,,,,,,False,35,36,False,exp3.png,exp4.png,trial_left_image,1,exp3.png,2,exp3.png,exp4.png,1,3,reversed,correct,0.796815492964943,1,valid_win,211.39606670000285,13,,,,,,,,,,,,,,,,sub_882,2025-03-06_14h18.47.163,Reversal,2022.1.2,60.06280166553059,2,
16,exp1.png,exp2.png,,1,0,1,0,0,16,16,16,,,,,,,,,,,,,,,,,,,,,,,,,False,36,37,False,exp1.png,exp2.png,trial_left_image,1,exp1.png,2,exp1.png,exp2.png,1,1,non-reversed,correct,0.45324143025861663,1,valid_win,215.7460424000019,14,,,,,,,,,,,,,,,,sub_882,2025-03-06_14h18.47.163,Reversal,2022.1.2,60.06280166553059,2,
17,exp3.png,exp4.png,,1,0,1,0,0,17,17,17,,,,,,,,,,,,,,,,,,,,,,,,,False,37,38,True,exp4.png,exp3.png,trial_right_image,-1,exp3.png,2,exp3.png,exp4.png,1,3,reversed,correct,0.18926521417430575,0,invalid_lose,220.14540320000015,14,,,,,,,,,,,,,,,,sub_882,2025-03-06_14h18.47.163,Reversal,2022.1.2,60.06280166553059,2,
18,exp1.png,exp2.png,,1,0,1,0,0,18,18,18,,,,,,,,,,,,,,,,,,,,,,,,,False,38,39,True,exp2.png,exp1.png,trial_left_image,1,exp2.png,2,exp1.png,exp2.png,0,2,non-reversed,incorrect,0.11471006232224279,1,invalid_win,224.37877630000003,15,,,,,,,,,,,,,,,,sub_882,2025-03-06_14h18.47.163,Reversal,2022.1.2,60.06280166553059,2,
19,exp3.png,exp4.png,,1,0,1,0,0,19,19,19,,,,,,,,,,,,,,,,,,,,,,,,,False,39,40,True,exp4.png,exp3.png,trial_left_image,1,exp4.png,2,exp3.png,exp4.png,0,4,reversed,incorrect,0.1742108515711116,1,invalid_win,228.79540840000118,16,,,,,,,,,,,,,,,,sub_882,2025-03-06_14h18.47.163,Reversal,2022.1.2,60.06280166553059,2,
20,exp1.png,exp2.png,,1,0,1,0,0,20,20,20,,,,,,,,,,,,,,,,,,,,,,,,,True,,,,,,,,,,,,,,,,,,,,,,,,,,,,,,,,,,,,sub_882,2025-03-06_14h18.47.163,Reversal,2022.1.2,60.06280166553059,2,
,,,exp1.png,1,0,1,0,,,,,0,0,0,0,0,0,0,0,,,,,,,,,,,,,,,,,,,,,,,,,,,,,,,,,,,,,,90.0,90.0,2.543604399998003,"[(90.0, 2.543604399998003)]",306.6434251999999,None,,,,,,,,,,sub_882,2025-03-06_14h18.47.163,Reversal,2022.1.2,60.06280166553059,2,
,,,exp2.png,1,0,1,0,,,,,0,0,0,0,0,1,1,1,,,,,,,,,,,,,,,,,,,,,,,,,,,,,,,,,,,,,,,74.0,2.231718399998499,"[(74.0, 2.231718399998499)]",310.1868610999991,None,,,74.0,,,,,,,sub_882,2025-03-06_14h18.47.163,Reversal,2022.1.2,60.06280166553059,2,
,,,exp3.png,1,0,1,0,,,,,0,0,0,0,0,2,2,2,,,,,,,,,,,,,,,,,,,,,,,,,,,,,,,,,,,,,,,23.0,1.3000422999975854,"[(23.0, 1.3000422999975854)]",313.31842809999944,None,23.0,,,,,,,,,sub_882,2025-03-06_14h18.47.163,Reversal,2022.1.2,60.06280166553059,2,
,,,exp4.png,1,0,1,0,,,,,0,0,0,0,0,3,3,3,,,,,,,,,,,,,,,,,,,,,,,,,,,,,,,,,,,,,,,82.0,1.3487177999995765,"[(82.0, 1.3487177999995765)]",315.6702966999983,None,,82.0,,,,,,,,sub_882,2025-03-06_14h18.47.163,Reversal,2022.1.2,60.06280166553059,2,
0,exp1.png,exp2.png,,2,0,2,0,0,0,0,0,,,,,,,,,,,,,,,,,,,,,,,,,False,40,41,True,exp2.png,exp1.png,trial_left_image,1,exp2.png,2,exp1.png,exp2.png,0,2,non-reversed,incorrect,0.5646902633686274,0,valid_lose,245.69476280000163,16,,,,,,,,,,,,,,,,sub_882,2025-03-06_14h18.47.163,Reversal,2022.1.2,60.06280166553059,2,
1,exp3.png,exp4.png,,2,0,2,0,0,1,1,1,,,,,,,,,,,,,,,,,,,,,,,,,False,41,42,False,exp3.png,exp4.png,trial_left_image,1,exp3.png,2,exp3.png,exp4.png,1,3,reversed,correct,0.9602394797322975,1,valid_win,249.97851770000125,17,,,,,,,,,,,,,,,,sub_882,2025-03-06_14h18.47.163,Reversal,2022.1.2,60.06280166553059,2,
2,exp1.png,exp2.png,,2,0,2,0,0,2,2,2,,,,,,,,,,,,,,,,,,,,,,,,,False,42,43,False,exp1.png,exp2.png,trial_right_image,-1,exp2.png,2,exp1.png,exp2.png,0,2,non-reversed,incorrect,0.7755917940074373,0,valid_lose,254.52880850000292,17,,,,,,,,,,,,,,,,sub_882,2025-03-06_14h18.47.163,Reversal,2022.1.2,60.06280166553059,2,
3,exp3.png,exp4.png,,2,0,2,0,0,3,3,3,,,,,,,,,,,,,,,,,,,,,,,,,False,43,44,True,exp4.png,exp3.png,trial_left_image,1,exp4.png,2,exp3.png,exp4.png,0,4,reversed,incorrect,0.6683382583381259,0,valid_lose,258.86157280000043,17,,,,,,,,,,,,,,,,sub_882,2025-03-06_14h18.47.163,Reversal,2022.1.2,60.06280166553059,2,
4,exp1.png,exp2.png,,2,0,2,0,0,4,4,4,,,,,,,,,,,,,,,,,,,,,,,,,False,44,45,False,exp1.png,exp2.png,trial_right_image,-1,exp2.png,2,exp1.png,exp2.png,0,2,non-reversed,incorrect,0.9504151080866916,0,valid_lose,263.04463229999965,17,,,,,,,,,,,,,,,,sub_882,2025-03-06_14h18.47.163,Reversal,2022.1.2,60.06280166553059,2,
5,exp3.png,exp4.png,,2,0,2,0,0,5,5,5,,,,,,,,,,,,,,,,,,,,,,,,,False,45,46,True,exp4.png,exp3.png,trial_right_image,-1,exp3.png,2,exp3.png,exp4.png,1,3,reversed,correct,0.38321466637000323,1,valid_win,267.3784040000028,18,,,,,,,,,,,,,,,,sub_882,2025-03-06_14h18.47.163,Reversal,2022.1.2,60.06280166553059,2,
6,exp1.png,exp2.png,,2,0,2,0,0,6,6,6,,,,,,,,,,,,,,,,,,,,,,,,,False,46,47,False,exp1.png,exp2.png,trial_right_image,-1,exp2.png,2,exp1.png,exp2.png,0,2,non-reversed,incorrect,0.3898352152647514,0,valid_lose,271.94491950000156,18,,,,,,,,,,,,,,,,sub_882,2025-03-06_14h18.47.163,Reversal,2022.1.2,60.06280166553059,2,
7,exp3.png,exp4.png,,2,0,2,0,0,7,7,7,,,,,,,,,,,,,,,,,,,,,,,,,False,47,48,False,exp3.png,exp4.png,trial_right_image,-1,exp4.png,2,exp3.png,exp4.png,0,4,reversed,incorrect,0.3168703789212648,0,valid_lose,276.27769270000135,18,,,,,,,,,,,,,,,,sub_882,2025-03-06_14h18.47.163,Reversal,2022.1.2,60.06280166553059,2,
8,exp1.png,exp2.png,,2,0,2,0,0,8,8,8,,,,,,,,,,,,,,,,,,,,,,,,,False,48,49,True,exp2.png,exp1.png,trial_right_image,-1,exp1.png,2,exp1.png,exp2.png,1,1,non-reversed,correct,0.5069282844066384,1,valid_win,280.47796759999983,19,,,,,,,,,,,,,,,,sub_882,2025-03-06_14h18.47.163,Reversal,2022.1.2,60.06280166553059,2,
9,exp3.png,exp4.png,,2,0,2,0,0,9,9,9,,,,,,,,,,,,,,,,,,,,,,,,,False,49,50,True,exp4.png,exp3.png,trial_left_image,1,exp4.png,2,exp3.png,exp4.png,0,4,reversed,incorrect,0.7600476910750275,0,valid_lose,284.99430080000093,19,,,,,,,,,,,,,,,,sub_882,2025-03-06_14h18.47.163,Reversal,2022.1.2,60.06280166553059,2,
10,exp1.png,exp2.png,,2,0,2,0,0,10,10,10,,,,,,,,,,,,,,,,,,,,,,,,,False,50,51,True,exp2.png,exp1.png,trial_right_image,-1,exp1.png,2,exp1.png,exp2.png,1,1,non-reversed,correct,0.562473183833578,1,valid_win,289.2443606000015,20,,,,,,,,,,,,,,,,sub_882,2025-03-06_14h18.47.163,Reversal,2022.1.2,60.06280166553059,2,
11,exp3.png,exp4.png,,2,0,2,0,0,11,11,11,,,,,,,,,,,,,,,,,,,,,,,,,False,51,52,False,exp3.png,exp4.png,trial_right_image,-1,exp4.png,2,exp3.png,exp4.png,0,4,reversed,incorrect,0.7950206808265375,0,valid_lose,294.0944933999999,20,,,,,,,,,,,,,,,,sub_882,2025-03-06_14h18.47.163,Reversal,2022.1.2,60.06280166553059,2,
12,exp1.png,exp2.png,,2,0,2,0,0,12,12,12,,,,,,,,,,,,,,,,,,,,,,,,,False,52,53,False,exp1.png,exp2.png,trial_right_image,-1,exp2.png,2,exp1.png,exp2.png,0,2,non-reversed,incorrect,0.5479411638876468,0,valid_lose,298.3111100000024,20,,,,,,,,,,,,,,,,sub_882,2025-03-06_14h18.47.163,Reversal,2022.1.2,60.06280166553059,2,
13,exp3.png,exp4.png,,2,0,2,0,0,13,13,13,,,,,,,,,,,,,,,,,,,,,,,,,False,53,54,False,exp3.png,exp4.png,trial_right_image,-1,exp4.png,2,exp3.png,exp4.png,0,4,reversed,incorrect,0.5316483468895704,0,valid_lose,302.7275112000025,20,,,,,,,,,,,,,,,,sub_882,2025-03-06_14h18.47.163,Reversal,2022.1.2,60.06280166553059,2,
14,exp1.png,exp2.png,,2,0,2,0,0,14,14,14,,,,,,,,,,,,,,,,,,,,,,,,,False,54,55,False,exp1.png,exp2.png,trial_right_image,-1,exp2.png,2,exp1.png,exp2.png,0,2,non-reversed,incorrect,0.5052393241342014,0,valid_lose,307.12675239999953,20,,,,,,,,,,,,,,,,sub_882,2025-03-06_14h18.47.163,Reversal,2022.1.2,60.06280166553059,2,
15,exp3.png,exp4.png,,2,0,2,0,0,15,15,15,,,,,,,,,,,,,,,,,,,,,,,,,False,55,56,True,exp4.png,exp3.png,trial_right_image,-1,exp3.png,2,exp3.png,exp4.png,1,3,reversed,correct,0.11388997400435397,0,invalid_lose,311.4937666000005,20,,,,,,,,,,,,,,,,sub_882,2025-03-06_14h18.47.163,Reversal,2022.1.2,60.06280166553059,2,
16,exp1.png,exp2.png,,2,0,2,0,0,16,16,16,,,,,,,,,,,,,,,,,,,,,,,,,False,56,57,True,exp2.png,exp1.png,trial_left_image,1,exp2.png,2,exp1.png,exp2.png,0,2,non-reversed,incorrect,0.7606118310690463,0,valid_lose,315.9604199000023,20,,,,,,,,,,,,,,,,sub_882,2025-03-06_14h18.47.163,Reversal,2022.1.2,60.06280166553059,2,
17,exp3.png,exp4.png,,2,0,2,0,0,17,17,17,,,,,,,,,,,,,,,,,,,,,,,,,False,57,58,True,exp4.png,exp3.png,trial_left_image,1,exp4.png,2,exp3.png,exp4.png,0,4,reversed,incorrect,0.49847165807957117,0,valid_lose,321.64411950000067,20,,,,,,,,,,,,,,,,sub_882,2025-03-06_14h18.47.163,Reversal,2022.1.2,60.06280166553059,2,
18,exp1.png,exp2.png,,2,0,2,0,0,18,18,18,,,,,,,,,,,,,,,,,,,,,,,,,False,58,59,True,exp2.png,exp1.png,trial_right_image,-1,exp1.png,2,exp1.png,exp2.png,1,1,non-reversed,correct,0.1726444210186472,0,invalid_lose,325.6434932000011,20,,,,,,,,,,,,,,,,sub_882,2025-03-06_14h18.47.163,Reversal,2022.1.2,60.06280166553059,2,
19,exp3.png,exp4.png,,2,0,2,0,0,19,19,19,,,,,,,,,,,,,,,,,,,,,,,,,False,59,60,False,exp3.png,exp4.png,trial_right_image,-1,exp4.png,2,exp3.png,exp4.png,0,4,reversed,incorrect,0.2678143313119531,0,valid_lose,330.0770964000003,20,,,,,,,,,,,,,,,,sub_882,2025-03-06_14h18.47.163,Reversal,2022.1.2,60.06280166553059,2,
20,exp1.png,exp2.png,,2,0,2,0,0,20,20,20,,,,,,,,,,,,,,,,,,,,,,,,,True,,,,,,,,,,,,,,,,,,,,,,,,,,,,,,,,,,,,sub_882,2025-03-06_14h18.47.163,Reversal,2022.1.2,60.06280166553059,2,
,,,exp1.png,2,0,2,0,,,,,0,0,0,0,0,0,0,0,,,,,,,,,,,,,,,,,,,,,,,,,,,,,,,,,,,,,,80.0,80.0,1.9681409999975585,"[(80.0, 1.9681409999975585)]",407.9261372000001,None,,,,,,,,,,sub_882,2025-03-06_14h18.47.163,Reversal,2022.1.2,60.06280166553059,2,
,,,exp2.png,2,0,2,0,,,,,0,0,0,0,0,1,1,1,,,,,,,,,,,,,,,,,,,,,,,,,,,,,,,,,,,,,,,25.0,1.73391840000113,"[(25.0, 1.73391840000113)]",410.93317430000025,None,,,25.0,,,,,,,sub_882,2025-03-06_14h18.47.163,Reversal,2022.1.2,60.06280166553059,2,
,,,exp3.png,2,0,2,0,,,,,0,0,0,0,0,2,2,2,,,,,,,,,,,,,,,,,,,,,,,,,,,,,,,,,,,,,,,85.0,1.2058676000015112,"[(85.0, 1.2058676000015112)]",413.87272870000015,None,85.0,,,,,,,,,sub_882,2025-03-06_14h18.47.163,Reversal,2022.1.2,60.06280166553059,2,
,,,exp4.png,2,0,2,0,,,,,0,0,0,0,0,3,3,3,,,,,,,,,,,,,,,,,,,,,,,,,,,,,,,,,,,,,,,50.0,None,[],415.6747697999999,None,,,,,,,,,,sub_882,2025-03-06_14h18.47.163,Reversal,2022.1.2,60.06280166553059,2,
0,exp1.png,exp2.png,,3,0,3,0,0,0,0,0,,,,,,,,,,,,,,,,,,,,,,,,,False,60,61,True,exp2.png,exp1.png,trial_left_image,1,exp2.png,2,exp1.png,exp2.png,0,2,non-reversed,incorrect,0.008443995392891424,1,invalid_win,343.0431677000015,21,,,,,,,,,,,,,,,,sub_882,2025-03-06_14h18.47.163,Reversal,2022.1.2,60.06280166553059,2,
1,exp3.png,exp4.png,,3,0,3,0,0,1,1,1,,,,,,,,,,,,,,,,,,,,,,,,,False,61,62,True,exp4.png,exp3.png,trial_left_image,1,exp4.png,2,exp3.png,exp4.png,0,4,reversed,incorrect,0.6734134386372245,0,valid_lose,347.77701810000144,21,,,,,,,,,,,,,,,,sub_882,2025-03-06_14h18.47.163,Reversal,2022.1.2,60.06280166553059,2,
2,exp1.png,exp2.png,,3,0,3,0,0,2,2,2,,,,,,,,,,,,,,,,,,,,,,,,,False,62,63,False,exp1.png,exp2.png,trial_right_image,-1,exp2.png,2,exp1.png,exp2.png,0,2,non-reversed,incorrect,0.9489060727012537,0,valid_lose,352.1608745000012,21,,,,,,,,,,,,,,,,sub_882,2025-03-06_14h18.47.163,Reversal,2022.1.2,60.06280166553059,2,
3,exp3.png,exp4.png,,3,0,3,0,0,3,3,3,,,,,,,,,,,,,,,,,,,,,,,,,False,63,64,True,exp4.png,exp3.png,trial_left_image,1,exp4.png,2,exp3.png,exp4.png,0,4,reversed,incorrect,0.39302024029101323,0,valid_lose,356.6935071000007,21,,,,,,,,,,,,,,,,sub_882,2025-03-06_14h18.47.163,Reversal,2022.1.2,60.06280166553059,2,
4,exp1.png,exp2.png,,3,0,3,0,0,4,4,4,,,,,,,,,,,,,,,,,,,,,,,,,False,64,65,False,exp1.png,exp2.png,trial_right_image,-1,exp2.png,2,exp1.png,exp2.png,0,2,non-reversed,incorrect,0.8367349054285727,0,valid_lose,361.2594143000024,21,,,,,,,,,,,,,,,,sub_882,2025-03-06_14h18.47.163,Reversal,2022.1.2,60.06280166553059,2,
5,exp3.png,exp4.png,,3,0,3,0,0,5,5,5,,,,,,,,,,,,,,,,,,,,,,,,,False,65,66,False,exp3.png,exp4.png,trial_right_image,-1,exp4.png,2,exp3.png,exp4.png,0,4,reversed,incorrect,0.5594044242946637,0,valid_lose,365.62680770000225,21,,,,,,,,,,,,,,,,sub_882,2025-03-06_14h18.47.163,Reversal,2022.1.2,60.06280166553059,2,
6,exp1.png,exp2.png,,3,0,3,0,0,6,6,6,,,,,,,,,,,,,,,,,,,,,,,,,False,66,67,True,exp2.png,exp1.png,trial_left_image,1,exp2.png,2,exp1.png,exp2.png,0,2,non-reversed,incorrect,0.5801365851620921,0,valid_lose,369.9599683000015,21,,,,,,,,,,,,,,,,sub_882,2025-03-06_14h18.47.163,Reversal,2022.1.2,60.06280166553059,2,
7,exp3.png,exp4.png,,3,0,3,0,0,7,7,7,,,,,,,,,,,,,,,,,,,,,,,,,False,67,68,False,exp3.png,exp4.png,trial_right_image,-1,exp4.png,2,exp3.png,exp4.png,0,4,reversed,incorrect,0.5137294753603248,0,valid_lose,374.3093152000001,21,,,,,,,,,,,,,,,,sub_882,2025-03-06_14h18.47.163,Reversal,2022.1.2,60.06280166553059,2,
8,exp1.png,exp2.png,,3,0,3,0,0,8,8,8,,,,,,,,,,,,,,,,,,,,,,,,,False,68,69,True,exp2.png,exp1.png,trial_left_image,1,exp2.png,2,exp1.png,exp2.png,0,2,non-reversed,incorrect,0.043136915429349054,1,invalid_win,378.7097734000017,22,,,,,,,,,,,,,,,,sub_882,2025-03-06_14h18.47.163,Reversal,2022.1.2,60.06280166553059,2,
9,exp3.png,exp4.png,,3,0,3,0,0,9,9,9,,,,,,,,,,,,,,,,,,,,,,,,,False,69,70,False,exp3.png,exp4.png,trial_right_image,-1,exp4.png,2,exp3.png,exp4.png,0,4,reversed,incorrect,0.5534696174342373,0,valid_lose,383.10902740000165,22,,,,,,,,,,,,,,,,sub_882,2025-03-06_14h18.47.163,Reversal,2022.1.2,60.06280166553059,2,
10,exp1.png,exp2.png,,3,0,3,0,0,10,10,10,,,,,,,,,,,,,,,,,,,,,,,,,False,70,71,False,exp1.png,exp2.png,trial_left_image,1,exp1.png,2,exp1.png,exp2.png,1,1,non-reversed,correct,0.1817505939588815,0,invalid_lose,387.29244520000066,22,,,,,,,,,,,,,,,,sub_882,2025-03-06_14h18.47.163,Reversal,2022.1.2,60.06280166553059,2,
11,exp3.png,exp4.png,,3,0,3,0,0,11,11,11,,,,,,,,,,,,,,,,,,,,,,,,,False,71,72,False,exp3.png,exp4.png,trial_right_image,-1,exp4.png,2,exp3.png,exp4.png,0,4,reversed,incorrect,0.22077628259219761,1,invalid_win,391.49253220000173,23,,,,,,,,,,,,,,,,sub_882,2025-03-06_14h18.47.163,Reversal,2022.1.2,60.06280166553059,2,
12,exp1.png,exp2.png,,3,0,3,0,0,12,12,12,,,,,,,,,,,,,,,,,,,,,,,,,False,72,73,True,exp2.png,exp1.png,trial_right_image,-1,exp1.png,2,exp1.png,exp2.png,1,1,non-reversed,correct,0.6913740380235378,1,valid_win,395.7595502000004,24,,,,,,,,,,,,,,,,sub_882,2025-03-06_14h18.47.163,Reversal,2022.1.2,60.06280166553059,2,
13,exp3.png,exp4.png,,3,0,3,0,0,13,13,13,,,,,,,,,,,,,,,,,,,,,,,,,False,73,74,False,exp3.png,exp4.png,trial_left_image,1,exp3.png,2,exp3.png,exp4.png,1,3,reversed,correct,0.4182066648885293,1,valid_win,400.19243389999974,25,,,,,,,,,,,,,,,,sub_882,2025-03-06_14h18.47.163,Reversal,2022.1.2,60.06280166553059,2,
14,exp1.png,exp2.png,,3,0,3,0,0,14,14,14,,,,,,,,,,,,,,,,,,,,,,,,,False,74,75,True,exp2.png,exp1.png,trial_left_image,1,exp2.png,2,exp1.png,exp2.png,0,2,non-reversed,incorrect,0.5316169229115187,0,valid_lose,404.4593762000004,25,,,,,,,,,,,,,,,,sub_882,2025-03-06_14h18.47.163,Reversal,2022.1.2,60.06280166553059,2,
15,exp3.png,exp4.png,,3,0,3,0,0,15,15,15,,,,,,,,,,,,,,,,,,,,,,,,,False,75,76,True,exp4.png,exp3.png,trial_right_image,-1,exp3.png,2,exp3.png,exp4.png,1,3,reversed,correct,0.24947881876794276,0,invalid_lose,408.725696700003,25,,,,,,,,,,,,,,,,sub_882,2025-03-06_14h18.47.163,Reversal,2022.1.2,60.06280166553059,2,
16,exp1.png,exp2.png,,3,0,3,0,0,16,16,16,,,,,,,,,,,,,,,,,,,,,,,,,False,76,77,False,exp1.png,exp2.png,trial_left_image,1,exp1.png,2,exp1.png,exp2.png,1,1,non-reversed,correct,0.2899761863432744,1,valid_win,412.80819619999966,26,,,,,,,,,,,,,,,,sub_882,2025-03-06_14h18.47.163,Reversal,2022.1.2,60.06280166553059,2,
17,exp3.png,exp4.png,,3,0,3,0,0,17,17,17,,,,,,,,,,,,,,,,,,,,,,,,,False,77,78,True,exp4.png,exp3.png,trial_left_image,1,exp4.png,2,exp3.png,exp4.png,0,4,reversed,incorrect,0.6585694668527158,0,valid_lose,417.87495560000025,26,,,,,,,,,,,,,,,,sub_882,2025-03-06_14h18.47.163,Reversal,2022.1.2,60.06280166553059,2,
18,exp1.png,exp2.png,,3,0,3,0,0,18,18,18,,,,,,,,,,,,,,,,,,,,,,,,,False,78,79,True,exp2.png,exp1.png,trial_right_image,-1,exp1.png,2,exp1.png,exp2.png,1,1,non-reversed,correct,0.11956079237415973,0,invalid_lose,422.1249138000021,26,,,,,,,,,,,,,,,,sub_882,2025-03-06_14h18.47.163,Reversal,2022.1.2,60.06280166553059,2,
19,exp3.png,exp4.png,,3,0,3,0,0,19,19,19,,,,,,,,,,,,,,,,,,,,,,,,,False,79,80,False,exp3.png,exp4.png,trial_left_image,1,exp3.png,2,exp3.png,exp4.png,1,3,reversed,correct,0.7235524008539427,1,valid_win,426.525269400001,27,,,,,,,,,,,,,,,,sub_882,2025-03-06_14h18.47.163,Reversal,2022.1.2,60.06280166553059,2,
20,exp1.png,exp2.png,,3,0,3,0,0,20,20,20,,,,,,,,,,,,,,,,,,,,,,,,,True,,,,,,,,,,,,,,,,,,,,,,,,,,,,,,,,,,,,sub_882,2025-03-06_14h18.47.163,Reversal,2022.1.2,60.06280166553059,2,
,,,exp1.png,3,0,3,0,,,,,0,0,0,0,0,0,0,0,,,,,,,,,,,,,,,,,,,,,,,,,,,,,,,,,,,,,,78.0,78.0,4.435082100000727,"[(78.0, 4.435082100000727)]",504.38188289999744,None,,,,,,,,,,sub_882,2025-03-06_14h18.47.163,Reversal,2022.1.2,60.06280166553059,2,
,,,exp2.png,3,0,3,0,,,,,0,0,0,0,0,1,1,1,,,,,,,,,,,,,,,,,,,,,,,,,,,,,,,,,,,,,,,22.0,1.918008100001316,"[(22.0, 1.918008100001316)]",509.79983309999807,None,,,22.0,,,,,,,sub_882,2025-03-06_14h18.47.163,Reversal,2022.1.2,60.06280166553059,2,
,,,exp3.png,3,0,3,0,,,,,0,0,0,0,0,2,2,2,,,,,,,,,,,,,,,,,,,,,,,,,,,,,,,,,,,,,,,80.0,1.4808220000013534,"[(80.0, 1.4808220000013534)]",512.8679895999994,None,80.0,,,,,,,,,sub_882,2025-03-06_14h18.47.163,Reversal,2022.1.2,60.06280166553059,2,
,,,exp4.png,3,0,3,0,,,,,0,0,0,0,0,3,3,3,,,,,,,,,,,,,,,,,,,,,,,,,,,,,,,,,,,,,,,26.0,1.4831400999973994,"[(26.0, 1.4831400999973994)]",515.4150714999996,None,,26.0,,,,,,,,sub_882,2025-03-06_14h18.47.163,Reversal,2022.1.2,60.06280166553059,2,
0,exp1.png,exp2.png,,,,,,,,,,,,,,,,,,0,0,0,0,0,0,0,0,,,,,,,,,False,0,81,True,exp2.png,exp1.png,trial_right_image,-1,exp1.png,2,exp1.png,exp2.png,1,1,non-reversed,correct,0.2683914253537615,1,valid_win,445.40857550000146,28,,,,,,,,,,442.74704290000227,,,,,,sub_882,2025-03-06_14h18.47.163,Reversal,2022.1.2,60.06280166553059,2,
1,exp3.png,exp4.png,,,,,,,,,,,,,,,,,,0,0,0,0,0,1,1,1,,,,,,,,,False,1,82,True,exp4.png,exp3.png,trial_right_image,-1,exp3.png,2,exp4.png,exp3.png,1,3,reversed,incorrect,0.32217826002748906,0,valid_lose,449.7748876000005,28,,,,,,,,,,,,,,,,sub_882,2025-03-06_14h18.47.163,Reversal,2022.1.2,60.06280166553059,2,
2,exp1.png,exp2.png,,,,,,,,,,,,,,,,,,0,0,0,0,0,2,2,2,,,,,,,,,False,2,83,False,exp1.png,exp2.png,trial_left_image,1,exp1.png,2,exp1.png,exp2.png,1,1,non-reversed,correct,0.31270682685882945,1,valid_win,454.1084152000003,29,,,,,,,,,,,,,,,,sub_882,2025-03-06_14h18.47.163,Reversal,2022.1.2,60.06280166553059,2,
3,exp3.png,exp4.png,,,,,,,,,,,,,,,,,,0,0,0,0,0,3,3,3,,,,,,,,,False,3,84,False,exp3.png,exp4.png,trial_left_image,1,exp3.png,2,exp4.png,exp3.png,1,3,reversed,incorrect,0.6974949014144056,0,valid_lose,458.64153590000205,29,,,,,,,,,,,,,,,,sub_882,2025-03-06_14h18.47.163,Reversal,2022.1.2,60.06280166553059,2,
4,exp1.png,exp2.png,,,,,,,,,,,,,,,,,,0,0,0,0,0,4,4,4,,,,,,,,,False,4,85,True,exp2.png,exp1.png,trial_right_image,-1,exp1.png,2,exp1.png,exp2.png,1,1,non-reversed,correct,0.439625683406483,1,valid_win,462.8745928000026,30,,,,,,,,,,,,,,,,sub_882,2025-03-06_14h18.47.163,Reversal,2022.1.2,60.06280166553059,2,
5,exp3.png,exp4.png,,,,,,,,,,,,,,,,,,0,0,0,0,0,5,5,5,,,,,,,,,False,5,86,False,exp3.png,exp4.png,trial_right_image,-1,exp4.png,2,exp4.png,exp3.png,0,4,reversed,correct,0.5475456731258163,1,valid_win,467.20738300000085,31,,,,,,,,,,,,,,,,sub_882,2025-03-06_14h18.47.163,Reversal,2022.1.2,60.06280166553059,2,
6,exp1.png,exp2.png,,,,,,,,,,,,,,,,,,0,0,0,0,0,6,6,6,,,,,,,,,False,6,87,True,exp2.png,exp1.png,trial_right_image,-1,exp1.png,2,exp1.png,exp2.png,1,1,non-reversed,correct,0.7062735298571596,1,valid_win,471.2744523000001,32,,,,,,,,,,,,,,,,sub_882,2025-03-06_14h18.47.163,Reversal,2022.1.2,60.06280166553059,2,
7,exp3.png,exp4.png,,,,,,,,,,,,,,,,,,0,0,0,0,0,7,7,7,,,,,,,,,False,7,88,True,exp4.png,exp3.png,trial_right_image,-1,exp3.png,2,exp4.png,exp3.png,1,3,reversed,incorrect,0.4587523569002384,0,valid_lose,475.62435650000043,32,,,,,,,,,,,,,,,,sub_882,2025-03-06_14h18.47.163,Reversal,2022.1.2,60.06280166553059,2,
8,exp1.png,exp2.png,,,,,,,,,,,,,,,,,,0,0,0,0,0,8,8,8,,,,,,,,,False,8,89,True,exp2.png,exp1.png,trial_right_image,-1,exp1.png,2,exp1.png,exp2.png,1,1,non-reversed,correct,0.7073399535149858,1,valid_win,479.7744507000025,33,,,,,,,,,,,,,,,,sub_882,2025-03-06_14h18.47.163,Reversal,2022.1.2,60.06280166553059,2,
9,exp3.png,exp4.png,,,,,,,,,,,,,,,,,,0,0,0,0,0,9,9,9,,,,,,,,,False,9,90,True,exp4.png,exp3.png,trial_right_image,-1,exp3.png,2,exp4.png,exp3.png,1,3,reversed,incorrect,0.19452187075981353,1,invalid_win,484.1907308000009,34,,,,,,,,,,,,,,,,sub_882,2025-03-06_14h18.47.163,Reversal,2022.1.2,60.06280166553059,2,
10,exp1.png,exp2.png,,,,,,,,,,,,,,,,,,0,0,0,0,0,10,10,10,,,,,,,,,False,10,91,False,exp1.png,exp2.png,trial_left_image,1,exp1.png,2,exp1.png,exp2.png,1,1,non-reversed,correct,0.081849571396308,0,invalid_lose,488.5076559000008,34,,,,,,,,,,,,,,,,sub_882,2025-03-06_14h18.47.163,Reversal,2022.1.2,60.06280166553059,2,
11,exp3.png,exp4.png,,,,,,,,,,,,,,,,,,0,0,0,0,0,11,11,11,,,,,,,,,False,11,92,False,exp3.png,exp4.png,trial_right_image,-1,exp4.png,2,exp4.png,exp3.png,0,4,reversed,correct,0.4936192224370023,1,valid_win,492.74064630000066,35,,,,,,,,,,,,,,,,sub_882,2025-03-06_14h18.47.163,Reversal,2022.1.2,60.06280166553059,2,
12,exp1.png,exp2.png,,,,,,,,,,,,,,,,,,0,0,0,0,0,12,12,12,,,,,,,,,False,12,93,True,exp2.png,exp1.png,trial_right_image,-1,exp1.png,2,exp1.png,exp2.png,1,1,non-reversed,correct,0.4420577499505919,1,valid_win,497.02386079999997,36,,,,,,,,,,,,,,,,sub_882,2025-03-06_14h18.47.163,Reversal,2022.1.2,60.06280166553059,2,
13,exp3.png,exp4.png,,,,,,,,,,,,,,,,,,0,0,0,0,0,13,13,13,,,,,,,,,False,13,94,False,exp3.png,exp4.png,trial_right_image,-1,exp4.png,2,exp4.png,exp3.png,0,4,reversed,correct,0.30277743642638955,1,valid_win,501.23961810000037,37,,,,,,,,,,,,,,,,sub_882,2025-03-06_14h18.47.163,Reversal,2022.1.2,60.06280166553059,2,
14,exp1.png,exp2.png,,,,,,,,,,,,,,,,,,0,0,0,0,0,14,14,14,,,,,,,,,False,14,95,True,exp2.png,exp1.png,trial_right_image,-1,exp1.png,2,exp1.png,exp2.png,1,1,non-reversed,correct,0.6619233962828663,1,valid_win,505.5735547000004,38,,,,,,,,,,,,,,,,sub_882,2025-03-06_14h18.47.163,Reversal,2022.1.2,60.06280166553059,2,
15,exp3.png,exp4.png,,,,,,,,,,,,,,,,,,0,0,0,0,0,15,15,15,,,,,,,,,False,15,96,False,exp3.png,exp4.png,trial_right_image,-1,exp4.png,2,exp4.png,exp3.png,0,4,reversed,correct,0.5623927459665268,1,valid_win,510.2241840000024,39,,,,,,,,,,,,,,,,sub_882,2025-03-06_14h18.47.163,Reversal,2022.1.2,60.06280166553059,2,
16,exp1.png,exp2.png,,,,,,,,,,,,,,,,,,0,0,0,0,0,16,16,16,,,,,,,,,False,16,97,False,exp1.png,exp2.png,trial_right_image,-1,exp2.png,2,exp1.png,exp2.png,0,2,non-reversed,incorrect,0.6266104193406865,0,valid_lose,514.5072228999998,39,,,,,,,,,,,,,,,,sub_882,2025-03-06_14h18.47.163,Reversal,2022.1.2,60.06280166553059,2,
17,exp3.png,exp4.png,,,,,,,,,,,,,,,,,,0,0,0,0,0,17,17,17,,,,,,,,,False,17,98,False,exp3.png,exp4.png,trial_left_image,1,exp3.png,2,exp4.png,exp3.png,1,3,reversed,incorrect,0.48619896222311587,0,valid_lose,518.9065157000005,39,,,,,,,,,,,,,,,,sub_882,2025-03-06_14h18.47.163,Reversal,2022.1.2,60.06280166553059,2,
18,exp1.png,exp2.png,,,,,,,,,,,,,,,,,,0,0,0,0,0,18,18,18,,,,,,,,,False,18,99,False,exp1.png,exp2.png,trial_right_image,-1,exp2.png,2,exp1.png,exp2.png,0,2,non-reversed,incorrect,0.05049406883566587,1,invalid_win,522.8405239000022,40,,,,,,,,,,,,,,,,sub_882,2025-03-06_14h18.47.163,Reversal,2022.1.2,60.06280166553059,2,
19,exp3.png,exp4.png,,,,,,,,,,,,,,,,,,0,0,0,0,0,19,19,19,,,,,,,,,False,19,100,True,exp4.png,exp3.png,trial_right_image,-1,exp3.png,2,exp4.png,exp3.png,1,3,reversed,incorrect,0.5114718263230607,0,valid_lose,526.8400562000024,40,,,,,,,,,,,,,,,,sub_882,2025-03-06_14h18.47.163,Reversal,2022.1.2,60.06280166553059,2,
20,exp1.png,exp2.png,,,,,,,,,,,,,,,,,,0,0,0,0,0,20,20,20,,,,,,,,,True,,,,,,,,,,,,,,,,,,,,,,,,,,,,,,,,,,,,sub_882,2025-03-06_14h18.47.163,Reversal,2022.1.2,60.06280166553059,2,
,,,exp1.png,,,,,,,,,,,,,,,,,0,0,0,0,,,,,0,0,0,0,0,0,0,0,,,,,,,,,,,,,,,,,,,,,,79.0,79.0,2.0895055000000866,"[(79.0, 2.0895055000000866)]",604.6928363000006,None,,,,,,,,,,sub_882,2025-03-06_14h18.47.163,Reversal,2022.1.2,60.06280166553059,2,
,,,exp2.png,,,,,,,,,,,,,,,,,0,0,0,0,,,,,0,0,0,0,0,1,1,1,,,,,,,,,,,,,,,,,,,,,,,26.0,1.9678008000009868,"[(26.0, 1.9678008000009868)]",607.7132267999987,None,,,26.0,,,,,,,sub_882,2025-03-06_14h18.47.163,Reversal,2022.1.2,60.06280166553059,2,
,,,exp3.png,,,,,,,,,,,,,,,,,0,0,0,0,,,,,0,0,0,0,0,2,2,2,,,,,,,,,,,,,,,,,,,,,,,79.0,2.3647357000008924,"[(79.0, 2.3647357000008924)]",610.7472696000004,None,79.0,,,,,,,,,sub_882,2025-03-06_14h18.47.163,Reversal,2022.1.2,60.06280166553059,2,
,,,exp4.png,,,,,,,,,,,,,,,,,0,0,0,0,,,,,0,0,0,0,0,3,3,3,,,,,,,,,,,,,,,,,,,,,,,22.0,2.1832857000008516,"[(22.0, 2.1832857000008516)]",614.2469662000003,None,,22.0,,,,,,,,sub_882,2025-03-06_14h18.47.163,Reversal,2022.1.2,60.06280166553059,2,
0,exp1.png,exp2.png,,,,,,,,,,,,,,,,,,1,0,1,0,0,0,0,0,,,,,,,,,False,20,101,False,exp1.png,exp2.png,trial_left_image,1,exp1.png,2,exp1.png,exp2.png,1,1,non-reversed,correct,0.40156562823440123,1,valid_win,543.6723553000011,41,,,,,,,,,,,,,,,,sub_882,2025-03-06_14h18.47.163,Reversal,2022.1.2,60.06280166553059,2,
1,exp3.png,exp4.png,,,,,,,,,,,,,,,,,,1,0,1,0,0,1,1,1,,,,,,,,,False,21,102,True,exp4.png,exp3.png,trial_left_image,1,exp4.png,2,exp4.png,exp3.png,0,4,reversed,correct,0.6090519561738592,1,valid_win,548.222373800003,42,,,,,,,,,,,,,,,,sub_882,2025-03-06_14h18.47.163,Reversal,2022.1.2,60.06280166553059,2,
2,exp1.png,exp2.png,,,,,,,,,,,,,,,,,,1,0,1,0,0,2,2,2,,,,,,,,,False,22,103,False,exp1.png,exp2.png,trial_left_image,1,exp1.png,2,exp1.png,exp2.png,1,1,non-reversed,correct,0.5039364958107027,1,valid_win,552.2732897000024,43,,,,,,,,,,,,,,,,sub_882,2025-03-06_14h18.47.163,Reversal,2022.1.2,60.06280166553059,2,
3,exp3.png,exp4.png,,,,,,,,,,,,,,,,,,1,0,1,0,0,3,3,3,,,,,,,,,False,23,104,False,exp3.png,exp4.png,trial_left_image,1,exp3.png,2,exp4.png,exp3.png,1,3,reversed,incorrect,0.7969657226522269,0,valid_lose,556.4560492000019,43,,,,,,,,,,,,,,,,sub_882,2025-03-06_14h18.47.163,Reversal,2022.1.2,60.06280166553059,2,
4,exp1.png,exp2.png,,,,,,,,,,,,,,,,,,1,0,1,0,0,4,4,4,,,,,,,,,False,24,105,False,exp1.png,exp2.png,trial_right_image,-1,exp2.png,2,exp1.png,exp2.png,0,2,non-reversed,incorrect,0.6192202230095293,0,valid_lose,560.8226520000026,43,,,,,,,,,,,,,,,,sub_882,2025-03-06_14h18.47.163,Reversal,2022.1.2,60.06280166553059,2,
5,exp3.png,exp4.png,,,,,,,,,,,,,,,,,,1,0,1,0,0,5,5,5,,,,,,,,,False,25,106,True,exp4.png,exp3.png,trial_left_image,1,exp4.png,2,exp4.png,exp3.png,0,4,reversed,correct,0.5336857340183235,1,valid_win,564.9396502000018,44,,,,,,,,,,,,,,,,sub_882,2025-03-06_14h18.47.163,Reversal,2022.1.2,60.06280166553059,2,
6,exp1.png,exp2.png,,,,,,,,,,,,,,,,,,1,0,1,0,0,6,6,6,,,,,,,,,False,26,107,True,exp2.png,exp1.png,trial_left_image,1,exp2.png,2,exp1.png,exp2.png,0,2,non-reversed,incorrect,0.9274390736541086,0,valid_lose,569.055406800002,44,,,,,,,,,,,,,,,,sub_882,2025-03-06_14h18.47.163,Reversal,2022.1.2,60.06280166553059,2,
7,exp3.png,exp4.png,,,,,,,,,,,,,,,,,,1,0,1,0,0,7,7,7,,,,,,,,,False,27,108,True,exp4.png,exp3.png,trial_right_image,-1,exp3.png,2,exp4.png,exp3.png,1,3,reversed,incorrect,0.34821667152484037,0,valid_lose,573.3391263000012,44,,,,,,,,,,,,,,,,sub_882,2025-03-06_14h18.47.163,Reversal,2022.1.2,60.06280166553059,2,
8,exp1.png,exp2.png,,,,,,,,,,,,,,,,,,1,0,1,0,0,8,8,8,,,,,,,,,False,28,109,True,exp2.png,exp1.png,trial_left_image,1,exp2.png,2,exp1.png,exp2.png,0,2,non-reversed,incorrect,0.9642467364175323,0,valid_lose,577.7224655999999,44,,,,,,,,,,,,,,,,sub_882,2025-03-06_14h18.47.163,Reversal,2022.1.2,60.06280166553059,2,
9,exp3.png,exp4.png,,,,,,,,,,,,,,,,,,1,0,1,0,0,9,9,9,,,,,,,,,False,29,110,False,exp3.png,exp4.png,trial_right_image,-1,exp4.png,2,exp4.png,exp3.png,0,4,reversed,correct,0.01598375432066934,0,invalid_lose,581.7389947000011,44,,,,,,,,,,,,,,,,sub_882,2025-03-06_14h18.47.163,Reversal,2022.1.2,60.06280166553059,2,
10,exp1.png,exp2.png,,,,,,,,,,,,,,,,,,1,0,1,0,0,10,10,10,,,,,,,,,False,30,111,True,exp2.png,exp1.png,trial_right_image,-1,exp1.png,2,exp1.png,exp2.png,1,1,non-reversed,correct,0.7444531954372859,1,valid_win,585.688852000003,45,,,,,,,,,,,,,,,,sub_882,2025-03-06_14h18.47.163,Reversal,2022.1.2,60.06280166553059,2,
11,exp3.png,exp4.png,,,,,,,,,,,,,,,,,,1,0,1,0,0,11,11,11,,,,,,,,,False,31,112,False,exp3.png,exp4.png,trial_right_image,-1,exp4.png,2,exp4.png,exp3.png,0,4,reversed,correct,0.501216710907333,1,valid_win,589.7217278000026,46,,,,,,,,,,,,,,,,sub_882,2025-03-06_14h18.47.163,Reversal,2022.1.2,60.06280166553059,2,
12,exp1.png,exp2.png,,,,,,,,,,,,,,,,,,1,0,1,0,0,12,12,12,,,,,,,,,False,32,113,False,exp1.png,exp2.png,trial_right_image,-1,exp2.png,2,exp1.png,exp2.png,0,2,non-reversed,incorrect,0.15921437367685354,1,invalid_win,593.6887984000023,47,,,,,,,,,,,,,,,,sub_882,2025-03-06_14h18.47.163,Reversal,2022.1.2,60.06280166553059,2,
13,exp3.png,exp4.png,,,,,,,,,,,,,,,,,,1,0,1,0,0,13,13,13,,,,,,,,,False,33,114,True,exp4.png,exp3.png,trial_right_image,-1,exp3.png,2,exp4.png,exp3.png,1,3,reversed,incorrect,0.04568629057744844,1,invalid_win,597.7222604000017,48,,,,,,,,,,,,,,,,sub_882,2025-03-06_14h18.47.163,Reversal,2022.1.2,60.06280166553059,2,
14,exp1.png,exp2.png,,,,,,,,,,,,,,,,,,1,0,1,0,0,14,14,14,,,,,,,,,False,34,115,True,exp2.png,exp1.png,trial_right_image,-1,exp1.png,2,exp1.png,exp2.png,1,1,non-reversed,correct,0.9545371613650079,1,valid_win,601.7388310000024,49,,,,,,,,,,,,,,,,sub_882,2025-03-06_14h18.47.163,Reversal,2022.1.2,60.06280166553059,2,
15,exp3.png,exp4.png,,,,,,,,,,,,,,,,,,1,0,1,0,0,15,15,15,,,,,,,,,False,35,116,False,exp3.png,exp4.png,trial_right_image,-1,exp4.png,2,exp4.png,exp3.png,0,4,reversed,correct,0.22663933200895747,0,invalid_lose,605.8051949000001,49,,,,,,,,,,,,,,,,sub_882,2025-03-06_14h18.47.163,Reversal,2022.1.2,60.06280166553059,2,
16,exp1.png,exp2.png,,,,,,,,,,,,,,,,,,1,0,1,0,0,16,16,16,,,,,,,,,False,36,117,False,exp1.png,exp2.png,trial_right_image,-1,exp2.png,2,exp1.png,exp2.png,0,2,non-reversed,incorrect,0.807246175785542,0,valid_lose,609.7888254999998,49,,,,,,,,,,,,,,,,sub_882,2025-03-06_14h18.47.163,Reversal,2022.1.2,60.06280166553059,2,
17,exp3.png,exp4.png,,,,,,,,,,,,,,,,,,1,0,1,0,0,17,17,17,,,,,,,,,False,37,118,True,exp4.png,exp3.png,trial_left_image,1,exp4.png,2,exp4.png,exp3.png,0,4,reversed,correct,0.5960734010118733,1,valid_win,613.9885594000007,50,,,,,,,,,,,,,,,,sub_882,2025-03-06_14h18.47.163,Reversal,2022.1.2,60.06280166553059,2,
18,exp1.png,exp2.png,,,,,,,,,,,,,,,,,,1,0,1,0,0,18,18,18,,,,,,,,,False,38,119,False,exp1.png,exp2.png,trial_left_image,1,exp1.png,2,exp1.png,exp2.png,1,1,non-reversed,correct,0.8770321096225167,1,valid_win,618.0551040999999,51,,,,,,,,,,,,,,,,sub_882,2025-03-06_14h18.47.163,Reversal,2022.1.2,60.06280166553059,2,
19,exp3.png,exp4.png,,,,,,,,,,,,,,,,,,1,0,1,0,0,19,19,19,,,,,,,,,False,39,120,True,exp4.png,exp3.png,trial_left_image,1,exp4.png,2,exp4.png,exp3.png,0,4,reversed,correct,0.9308004668715216,1,valid_win,622.1386622999999,52,,,,,,,,,,,,,,,,sub_882,2025-03-06_14h18.47.163,Reversal,2022.1.2,60.06280166553059,2,
20,exp1.png,exp2.png,,,,,,,,,,,,,,,,,,1,0,1,0,0,20,20,20,,,,,,,,,True,,,,,,,,,,,,,,,,,,,,,,,,,,,,,,,,,,,,sub_882,2025-03-06_14h18.47.163,Reversal,2022.1.2,60.06280166553059,2,
,,,exp1.png,,,,,,,,,,,,,,,,,1,0,1,0,,,,,0,0,0,0,0,0,0,0,,,,,,,,,,,,,,,,,,,,,,82.0,82.0,2.0313070000011066,"[(82.0, 2.0313070000011066)]",699.9660688999975,None,,,,,,,,,,sub_882,2025-03-06_14h18.47.163,Reversal,2022.1.2,60.06280166553059,2,
,,,exp2.png,,,,,,,,,,,,,,,,,1,0,1,0,,,,,0,0,0,0,0,1,1,1,,,,,,,,,,,,,,,,,,,,,,,80.0,1.3684232999985397,"[(80.0, 1.3684232999985397)]",703.0620630999983,None,,,80.0,,,,,,,sub_882,2025-03-06_14h18.47.163,Reversal,2022.1.2,60.06280166553059,2,
,,,exp3.png,,,,,,,,,,,,,,,,,1,0,1,0,,,,,0,0,0,0,0,2,2,2,,,,,,,,,,,,,,,,,,,,,,,86.0,3.9661072000017157,"[(16.0, 1.8495155000018713), (86.0, 3.9661072000017157)]",705.4463040999981,None,86.0,,,,,,,,,sub_882,2025-03-06_14h18.47.163,Reversal,2022.1.2,60.06280166553059,2,
,,,exp4.png,,,,,,,,,,,,,,,,,1,0,1,0,,,,,0,0,0,0,0,3,3,3,,,,,,,,,,,,,,,,,,,,,,,13.0,2.166415199997573,"[(13.0, 2.166415199997573)]",710.4123543999995,None,,13.0,,,,,,,,sub_882,2025-03-06_14h18.47.163,Reversal,2022.1.2,60.06280166553059,2,
0,exp1.png,exp2.png,,,,,,,,,,,,,,,,,,2,0,2,0,0,0,0,0,,,,,,,,,False,40,121,True,exp2.png,exp1.png,trial_left_image,1,exp2.png,2,exp1.png,exp2.png,0,2,non-reversed,incorrect,0.1782571576823877,1,invalid_win,640.1049865000023,53,,,,,,,,,,,,,,,,sub_882,2025-03-06_14h18.47.163,Reversal,2022.1.2,60.06280166553059,2,
1,exp3.png,exp4.png,,,,,,,,,,,,,,,,,,2,0,2,0,0,1,1,1,,,,,,,,,False,41,122,False,exp3.png,exp4.png,trial_left_image,1,exp3.png,2,exp4.png,exp3.png,1,3,reversed,incorrect,0.19084520153310713,1,invalid_win,644.2046442999999,54,,,,,,,,,,,,,,,,sub_882,2025-03-06_14h18.47.163,Reversal,2022.1.2,60.06280166553059,2,
2,exp1.png,exp2.png,,,,,,,,,,,,,,,,,,2,0,2,0,0,2,2,2,,,,,,,,,False,42,123,True,exp2.png,exp1.png,trial_right_image,-1,exp1.png,2,exp1.png,exp2.png,1,1,non-reversed,correct,0.1912796905084656,0,invalid_lose,648.2543164000017,54,,,,,,,,,,,,,,,,sub_882,2025-03-06_14h18.47.163,Reversal,2022.1.2,60.06280166553059,2,
3,exp3.png,exp4.png,,,,,,,,,,,,,,,,,,2,0,2,0,0,3,3,3,,,,,,,,,False,43,124,True,exp4.png,exp3.png,trial_left_image,1,exp4.png,2,exp4.png,exp3.png,0,4,reversed,correct,0.5501530747212691,1,valid_win,652.2543017000025,55,,,,,,,,,,,,,,,,sub_882,2025-03-06_14h18.47.163,Reversal,2022.1.2,60.06280166553059,2,
4,exp1.png,exp2.png,,,,,,,,,,,,,,,,,,2,0,2,0,0,4,4,4,,,,,,,,,False,44,125,True,exp2.png,exp1.png,trial_left_image,1,exp2.png,2,exp1.png,exp2.png,0,2,non-reversed,incorrect,0.5561779453449184,0,valid_lose,656.4872690000011,55,,,,,,,,,,,,,,,,sub_882,2025-03-06_14h18.47.163,Reversal,2022.1.2,60.06280166553059,2,
5,exp3.png,exp4.png,,,,,,,,,,,,,,,,,,2,0,2,0,0,5,5,5,,,,,,,,,False,45,126,True,exp4.png,exp3.png,trial_right_image,-1,exp3.png,2,exp4.png,exp3.png,1,3,reversed,incorrect,0.5978492831480853,0,valid_lose,660.6214633000018,55,,,,,,,,,,,,,,,,sub_882,2025-03-06_14h18.47.163,Reversal,2022.1.2,60.06280166553059,2,
6,exp1.png,exp2.png,,,,,,,,,,,,,,,,,,2,0,2,0,0,6,6,6,,,,,,,,,False,46,127,False,exp1.png,exp2.png,trial_left_image,1,exp1.png,2,exp1.png,exp2.png,1,1,non-reversed,correct,0.3259972665906009,1,valid_win,664.7708036000004,56,,,,,,,,,,,,,,,,sub_882,2025-03-06_14h18.47.163,Reversal,2022.1.2,60.06280166553059,2,
7,exp3.png,exp4.png,,,,,,,,,,,,,,,,,,2,0,2,0,0,7,7,7,,,,,,,,,False,47,128,False,exp3.png,exp4.png,trial_left_image,1,exp3.png,2,exp4.png,exp3.png,1,3,reversed,incorrect,0.10373601487168094,1,invalid_win,668.7879329000025,57,,,,,,,,,,,,,,,,sub_882,2025-03-06_14h18.47.163,Reversal,2022.1.2,60.06280166553059,2,
8,exp1.png,exp2.png,,,,,,,,,,,,,,,,,,2,0,2,0,0,8,8,8,,,,,,,,,False,48,129,False,exp1.png,exp2.png,trial_left_image,1,exp1.png,2,exp1.png,exp2.png,1,1,non-reversed,correct,0.9699709418634986,1,valid_win,672.7708027000008,58,,,,,,,,,,,,,,,,sub_882,2025-03-06_14h18.47.163,Reversal,2022.1.2,60.06280166553059,2,
9,exp3.png,exp4.png,,,,,,,,,,,,,,,,,,2,0,2,0,0,9,9,9,,,,,,,,,False,49,130,True,exp4.png,exp3.png,trial_left_image,1,exp4.png,2,exp4.png,exp3.png,0,4,reversed,correct,0.17270844318368006,0,invalid_lose,677.9542615000028,58,,,,,,,,,,,,,,,,sub_882,2025-03-06_14h18.47.163,Reversal,2022.1.2,60.06280166553059,2,
10,exp1.png,exp2.png,,,,,,,,,,,,,,,,,,2,0,2,0,0,10,10,10,,,,,,,,,False,50,131,False,exp1.png,exp2.png,trial_right_image,-1,exp2.png,2,exp1.png,exp2.png,0,2,non-reversed,incorrect,0.27492142004942177,0,valid_lose,682.270721500001,58,,,,,,,,,,,,,,,,sub_882,2025-03-06_14h18.47.163,Reversal,2022.1.2,60.06280166553059,2,
11,exp3.png,exp4.png,,,,,,,,,,,,,,,,,,2,0,2,0,0,11,11,11,,,,,,,,,False,51,132,True,exp4.png,exp3.png,trial_left_image,1,exp4.png,2,exp4.png,exp3.png,0,4,reversed,correct,0.04482968345183036,0,invalid_lose,686.437328400003,58,,,,,,,,,,,,,,,,sub_882,2025-03-06_14h18.47.163,Reversal,2022.1.2,60.06280166553059,2,
12,exp1.png,exp2.png,,,,,,,,,,,,,,,,,,2,0,2,0,0,12,12,12,,,,,,,,,False,52,133,False,exp1.png,exp2.png,trial_right_image,-1,exp2.png,2,exp1.png,exp2.png,0,2,non-reversed,incorrect,0.06530159624174114,1,invalid_win,690.5040269000019,59,,,,,,,,,,,,,,,,sub_882,2025-03-06_14h18.47.163,Reversal,2022.1.2,60.06280166553059,2,
13,exp3.png,exp4.png,,,,,,,,,,,,,,,,,,2,0,2,0,0,13,13,13,,,,,,,,,False,53,134,False,exp3.png,exp4.png,trial_right_image,-1,exp4.png,2,exp4.png,exp3.png,0,4,reversed,correct,0.21351396489499797,0,invalid_lose,695.0204859000005,59,,,,,,,,,,,,,,,,sub_882,2025-03-06_14h18.47.163,Reversal,2022.1.2,60.06280166553059,2,
14,exp1.png,exp2.png,,,,,,,,,,,,,,,,,,2,0,2,0,0,14,14,14,,,,,,,,,False,54,135,True,exp2.png,exp1.png,trial_left_image,1,exp2.png,2,exp1.png,exp2.png,0,2,non-reversed,incorrect,0.7780536531694113,0,valid_lose,699.0034051000002,59,,,,,,,,,,,,,,,,sub_882,2025-03-06_14h18.47.163,Reversal,2022.1.2,60.06280166553059,2,
15,exp3.png,exp4.png,,,,,,,,,,,,,,,,,,2,0,2,0,0,15,15,15,,,,,,,,,False,55,136,False,exp3.png,exp4.png,trial_right_image,-1,exp4.png,2,exp4.png,exp3.png,0,4,reversed,correct,0.8466142679738434,1,valid_win,703.0870519000018,60,,,,,,,,,,,,,,,,sub_882,2025-03-06_14h18.47.163,Reversal,2022.1.2,60.06280166553059,2,
16,exp1.png,exp2.png,,,,,,,,,,,,,,,,,,2,0,2,0,0,16,16,16,,,,,,,,,False,56,137,True,exp2.png,exp1.png,trial_right_image,-1,exp1.png,2,exp1.png,exp2.png,1,1,non-reversed,correct,0.4471185953596185,1,valid_win,707.1535460000014,61,,,,,,,,,,,,,,,,sub_882,2025-03-06_14h18.47.163,Reversal,2022.1.2,60.06280166553059,2,
17,exp3.png,exp4.png,,,,,,,,,,,,,,,,,,2,0,2,0,0,17,17,17,,,,,,,,,False,57,138,False,exp3.png,exp4.png,trial_right_image,-1,exp4.png,2,exp4.png,exp3.png,0,4,reversed,correct,0.23820102734488813,0,invalid_lose,711.1197004000023,61,,,,,,,,,,,,,,,,sub_882,2025-03-06_14h18.47.163,Reversal,2022.1.2,60.06280166553059,2,
18,exp1.png,exp2.png,,,,,,,,,,,,,,,,,,2,0,2,0,0,18,18,18,,,,,,,,,False,58,139,False,exp1.png,exp2.png,trial_right_image,-1,exp2.png,2,exp1.png,exp2.png,0,2,non-reversed,incorrect,0.6623928226844787,0,valid_lose,715.0364279000023,61,,,,,,,,,,,,,,,,sub_882,2025-03-06_14h18.47.163,Reversal,2022.1.2,60.06280166553059,2,
19,exp3.png,exp4.png,,,,,,,,,,,,,,,,,,2,0,2,0,0,19,19,19,,,,,,,,,False,59,140,True,exp4.png,exp3.png,trial_right_image,-1,exp3.png,2,exp4.png,exp3.png,1,3,reversed,incorrect,0.2902310800532689,0,valid_lose,718.9527613999999,61,,,,,,,,,,,,,,,,sub_882,2025-03-06_14h18.47.163,Reversal,2022.1.2,60.06280166553059,2,
20,exp1.png,exp2.png,,,,,,,,,,,,,,,,,,2,0,2,0,0,20,20,20,,,,,,,,,True,,,,,,,,,,,,,,,,,,,,,,,,,,,,,,,,,,,,sub_882,2025-03-06_14h18.47.163,Reversal,2022.1.2,60.06280166553059,2,
,,,exp1.png,,,,,,,,,,,,,,,,,2,0,2,0,,,,,0,0,0,0,0,0,0,0,,,,,,,,,,,,,,,,,,,,,,84.0,84.0,2.1578813000014634,"[(84.0, 2.1578813000014634)]",796.8079327999985,None,,,,,,,,,,sub_882,2025-03-06_14h18.47.163,Reversal,2022.1.2,60.06280166553059,2,
,,,exp2.png,,,,,,,,,,,,,,,,,2,0,2,0,,,,,0,0,0,0,0,1,1,1,,,,,,,,,,,,,,,,,,,,,,,85.0,1.4840401000001293,"[(85.0, 1.4840401000001293)]",799.9428848999996,None,,,85.0,,,,,,,sub_882,2025-03-06_14h18.47.163,Reversal,2022.1.2,60.06280166553059,2,
,,,exp3.png,,,,,,,,,,,,,,,,,2,0,2,0,,,,,0,0,0,0,0,2,2,2,,,,,,,,,,,,,,,,,,,,,,,84.0,1.9988502000014705,"[(84.0, 1.9988502000014705)]",802.4120124000001,None,84.0,,,,,,,,,sub_882,2025-03-06_14h18.47.163,Reversal,2022.1.2,60.06280166553059,2,
,,,exp4.png,,,,,,,,,,,,,,,,,2,0,2,0,,,,,0,0,0,0,0,3,3,3,,,,,,,,,,,,,,,,,,,,,,,87.0,1.3328956000004837,"[(87.0, 1.3328956000004837)]",805.3442419999992,None,,87.0,,,,,,,,sub_882,2025-03-06_14h18.47.163,Reversal,2022.1.2,60.06280166553059,2,
,,,,,,,,,,,,,,,,,,,,,,,,,,,,,,,,,,,,,,,,,,,,,,,,,,,,,,,,61,,,,,,,,,,,63,29,34,289.540309,1,,,,,,,
