trial_index,trial_image1_file,trial_image2_file,image_file,learning_outer_loop.thisRepN,learning_outer_loop.thisTrialN,learning_outer_loop.thisN,learning_outer_loop.thisIndex,learning_inner_loop.thisRepN,learning_inner_loop.thisTrialN,learning_inner_loop.thisN,learning_inner_loop.thisIndex,learning_estimation_outer_loop.thisRepN,learning_estimation_outer_loop.thisTrialN,learning_estimation_outer_loop.thisN,learning_estimation_outer_loop.thisIndex,learning_estimation_inner_loop.thisRepN,learning_estimation_inner_loop.thisTrialN,learning_estimation_inner_loop.thisN,learning_estimation_inner_loop.thisIndex,reversal_outer_loop.thisRepN,reversal_outer_loop.thisTrialN,reversal_outer_loop.thisN,reversal_outer_loop.thisIndex,reversal_inner_loop.thisRepN,reversal_inner_loop.thisTrialN,reversal_inner_loop.thisN,reversal_inner_loop.thisIndex,reversal_estimation_outer_loop.thisRepN,reversal_estimation_outer_loop.thisTrialN,reversal_estimation_outer_loop.thisN,reversal_estimation_outer_loop.thisIndex,reversal_estimation_inner_loop.thisRepN,reversal_estimation_inner_loop.thisTrialN,reversal_estimation_inner_loop.thisN,reversal_estimation_inner_loop.thisIndex,skipped,total_trial_counter,trial_num,left_right_flip,left_image_file,right_image_file,clicked_stimulus_side,side,clicked_stimulus,version,high_prob_image_file,low_prob_image_file,choice_a,choice_b,pair_type,correct,trial_feedback_random,reward,trial_type,overall_time_after_trial,score,estimation_rating.started,estimation_exp1.png,estimation_rating.response,estimation_rating.rt,estimation_rating.history,estimation_exp2.png,estimation_exp3.png,estimation_exp4.png,total_learning_time,total_correct,learning_correct,reversal_correct,total_reversal_time,extra_block,participant,date,expName,psychopyVersion,frameRate,ver,
0,exp1.png,exp2.png,,0,0,0,0,0,0,0,0,,,,,,,,,,,,,,,,,,,,,,,,,False,0,1,True,exp2.png,exp1.png,trial_left_image,1,exp2.png,4,exp2.png,exp1.png,1,1,non-reversed,correct,0.8873895339344738,1,valid_win,3.1975151999995433,1,,,,,,,,,,,,,,,sub_572,2024-01-12_11h34.55.267,Reversal,2023.1.3,60.02455004097984,4,
1,exp3.png,exp4.png,,0,0,0,0,0,1,1,1,,,,,,,,,,,,,,,,,,,,,,,,,False,1,2,False,exp3.png,exp4.png,trial_right_image,-1,exp4.png,4,exp4.png,exp3.png,1,3,reversed,correct,0.5171679580361882,1,valid_win,11.82774629999949,2,,,,,,,,,,,,,,,sub_572,2024-01-12_11h34.55.267,Reversal,2023.1.3,60.02455004097984,4,
2,exp1.png,exp2.png,,0,0,0,0,0,2,2,2,,,,,,,,,,,,,,,,,,,,,,,,,False,2,3,True,exp2.png,exp1.png,trial_left_image,1,exp2.png,4,exp2.png,exp1.png,1,1,non-reversed,correct,0.8827661000223005,1,valid_win,16.642914699999892,3,,,,,,,,,,,,,,,sub_572,2024-01-12_11h34.55.267,Reversal,2023.1.3,60.02455004097984,4,
3,exp3.png,exp4.png,,0,0,0,0,0,3,3,3,,,,,,,,,,,,,,,,,,,,,,,,,False,3,4,True,exp4.png,exp3.png,trial_left_image,1,exp4.png,4,exp4.png,exp3.png,1,3,reversed,correct,0.7249564939735879,1,valid_win,21.25789590000022,4,,,,,,,,,,,,,,,sub_572,2024-01-12_11h34.55.267,Reversal,2023.1.3,60.02455004097984,4,
4,exp1.png,exp2.png,,0,0,0,0,0,4,4,4,,,,,,,,,,,,,,,,,,,,,,,,,False,4,5,False,exp1.png,exp2.png,trial_right_image,-1,exp2.png,4,exp2.png,exp1.png,1,1,non-reversed,correct,0.3757612981012912,1,valid_win,26.206119800000124,5,,,,,,,,,,,,,,,sub_572,2024-01-12_11h34.55.267,Reversal,2023.1.3,60.02455004097984,4,
5,exp3.png,exp4.png,,0,0,0,0,0,5,5,5,,,,,,,,,,,,,,,,,,,,,,,,,False,5,6,True,exp4.png,exp3.png,trial_left_image,1,exp4.png,4,exp4.png,exp3.png,1,3,reversed,correct,0.24549408834100983,0,invalid_lose,30.654725999999755,5,,,,,,,,,,,,,,,sub_572,2024-01-12_11h34.55.267,Reversal,2023.1.3,60.02455004097984,4,
6,exp1.png,exp2.png,,0,0,0,0,0,6,6,6,,,,,,,,,,,,,,,,,,,,,,,,,False,6,7,False,exp1.png,exp2.png,trial_right_image,-1,exp2.png,4,exp2.png,exp1.png,1,1,non-reversed,correct,0.17105577483814116,0,invalid_lose,35.33675419999963,5,,,,,,,,,,,,,,,sub_572,2024-01-12_11h34.55.267,Reversal,2023.1.3,60.02455004097984,4,
7,exp3.png,exp4.png,,0,0,0,0,0,7,7,7,,,,,,,,,,,,,,,,,,,,,,,,,False,7,8,False,exp3.png,exp4.png,trial_right_image,-1,exp4.png,4,exp4.png,exp3.png,1,3,reversed,correct,0.28664057773997464,1,valid_win,39.70239769999989,6,,,,,,,,,,,,,,,sub_572,2024-01-12_11h34.55.267,Reversal,2023.1.3,60.02455004097984,4,
8,exp1.png,exp2.png,,0,0,0,0,0,8,8,8,,,,,,,,,,,,,,,,,,,,,,,,,False,8,9,False,exp1.png,exp2.png,trial_right_image,-1,exp2.png,4,exp2.png,exp1.png,1,1,non-reversed,correct,0.7553241457272111,1,valid_win,44.96953399999984,7,,,,,,,,,,,,,,,sub_572,2024-01-12_11h34.55.267,Reversal,2023.1.3,60.02455004097984,4,
9,exp3.png,exp4.png,,0,0,0,0,0,9,9,9,,,,,,,,,,,,,,,,,,,,,,,,,False,9,10,False,exp3.png,exp4.png,trial_right_image,-1,exp4.png,4,exp4.png,exp3.png,1,3,reversed,correct,0.6415663521074919,1,valid_win,49.23160519999965,8,,,,,,,,,,,,,,,sub_572,2024-01-12_11h34.55.267,Reversal,2023.1.3,60.02455004097984,4,
10,exp1.png,exp2.png,,0,0,0,0,0,10,10,10,,,,,,,,,,,,,,,,,,,,,,,,,False,10,11,True,exp2.png,exp1.png,trial_left_image,1,exp2.png,4,exp2.png,exp1.png,1,1,non-reversed,correct,0.04702859092029266,0,invalid_lose,54.4656802999998,8,,,,,,,,,,,,,,,sub_572,2024-01-12_11h34.55.267,Reversal,2023.1.3,60.02455004097984,4,
11,exp3.png,exp4.png,,0,0,0,0,0,11,11,11,,,,,,,,,,,,,,,,,,,,,,,,,False,11,12,True,exp4.png,exp3.png,trial_left_image,1,exp4.png,4,exp4.png,exp3.png,1,3,reversed,correct,0.591274852550441,1,valid_win,59.528186699999424,9,,,,,,,,,,,,,,,sub_572,2024-01-12_11h34.55.267,Reversal,2023.1.3,60.02455004097984,4,
12,exp1.png,exp2.png,,0,0,0,0,0,12,12,12,,,,,,,,,,,,,,,,,,,,,,,,,False,12,13,False,exp1.png,exp2.png,trial_right_image,-1,exp2.png,4,exp2.png,exp1.png,1,1,non-reversed,correct,0.6547602953993866,1,valid_win,64.02672259999963,10,,,,,,,,,,,,,,,sub_572,2024-01-12_11h34.55.267,Reversal,2023.1.3,60.02455004097984,4,
13,exp3.png,exp4.png,,0,0,0,0,0,13,13,13,,,,,,,,,,,,,,,,,,,,,,,,,False,13,14,False,exp3.png,exp4.png,trial_right_image,-1,exp4.png,4,exp4.png,exp3.png,1,3,reversed,correct,0.4366560723110958,1,valid_win,68.79187290000027,11,,,,,,,,,,,,,,,sub_572,2024-01-12_11h34.55.267,Reversal,2023.1.3,60.02455004097984,4,
14,exp1.png,exp2.png,,0,0,0,0,0,14,14,14,,,,,,,,,,,,,,,,,,,,,,,,,False,14,15,True,exp2.png,exp1.png,trial_left_image,1,exp2.png,4,exp2.png,exp1.png,1,1,non-reversed,correct,0.9001875323414439,1,valid_win,73.87332509999942,12,,,,,,,,,,,,,,,sub_572,2024-01-12_11h34.55.267,Reversal,2023.1.3,60.02455004097984,4,
15,exp3.png,exp4.png,,0,0,0,0,0,15,15,15,,,,,,,,,,,,,,,,,,,,,,,,,False,15,16,True,exp4.png,exp3.png,trial_left_image,1,exp4.png,4,exp4.png,exp3.png,1,3,reversed,correct,0.8316381887768786,1,valid_win,78.30526120000013,13,,,,,,,,,,,,,,,sub_572,2024-01-12_11h34.55.267,Reversal,2023.1.3,60.02455004097984,4,
16,exp1.png,exp2.png,,0,0,0,0,0,16,16,16,,,,,,,,,,,,,,,,,,,,,,,,,False,16,17,True,exp2.png,exp1.png,trial_left_image,1,exp2.png,4,exp2.png,exp1.png,1,1,non-reversed,correct,0.752261503651999,1,valid_win,82.70473779999975,14,,,,,,,,,,,,,,,sub_572,2024-01-12_11h34.55.267,Reversal,2023.1.3,60.02455004097984,4,
17,exp3.png,exp4.png,,0,0,0,0,0,17,17,17,,,,,,,,,,,,,,,,,,,,,,,,,False,17,18,True,exp4.png,exp3.png,trial_left_image,1,exp4.png,4,exp4.png,exp3.png,1,3,reversed,correct,0.17538260220376956,0,invalid_lose,87.05273940000006,14,,,,,,,,,,,,,,,sub_572,2024-01-12_11h34.55.267,Reversal,2023.1.3,60.02455004097984,4,
18,exp1.png,exp2.png,,0,0,0,0,0,18,18,18,,,,,,,,,,,,,,,,,,,,,,,,,False,18,19,False,exp1.png,exp2.png,trial_right_image,-1,exp2.png,4,exp2.png,exp1.png,1,1,non-reversed,correct,0.5519208162636031,1,valid_win,91.23505169999953,15,,,,,,,,,,,,,,,sub_572,2024-01-12_11h34.55.267,Reversal,2023.1.3,60.02455004097984,4,
19,exp3.png,exp4.png,,0,0,0,0,0,19,19,19,,,,,,,,,,,,,,,,,,,,,,,,,False,19,20,False,exp3.png,exp4.png,trial_right_image,-1,exp4.png,4,exp4.png,exp3.png,1,3,reversed,correct,0.20526414877721,0,invalid_lose,95.44935179999993,15,,,,,,,,,,,,,,,sub_572,2024-01-12_11h34.55.267,Reversal,2023.1.3,60.02455004097984,4,
20,exp1.png,exp2.png,,0,0,0,0,0,20,20,20,,,,,,,,,,,,,,,,,,,,,,,,,True,,,,,,,,,,,,,,,,,,,,,,,,,,,,,,,,,,,sub_572,2024-01-12_11h34.55.267,Reversal,2023.1.3,60.02455004097984,4,
,,,exp1.png,0,0,0,0,,,,,0,0,0,0,0,0,0,0,,,,,,,,,,,,,,,,,,,,,,,,,,,,,,,,,,,,,,170.44633299999987,21.0,21.0,5.425920000000588,"[(21.0, 5.425920000000588)]",,,,,,,,,,sub_572,2024-01-12_11h34.55.267,Reversal,2023.1.3,60.02455004097984,4,
,,,exp2.png,0,0,0,0,,,,,0,0,0,0,0,1,1,1,,,,,,,,,,,,,,,,,,,,,,,,,,,,,,,,,,,,,,176.80041950000032,,85.0,2.2281104000003324,"[(85.0, 2.2281104000003324)]",85.0,,,,,,,,,sub_572,2024-01-12_11h34.55.267,Reversal,2023.1.3,60.02455004097984,4,
,,,exp3.png,0,0,0,0,,,,,0,0,0,0,0,2,2,2,,,,,,,,,,,,,,,,,,,,,,,,,,,,,,,,,,,,,,179.90016339999966,,27.0,7.6591065000002345,"[(27.0, 7.6591065000002345)]",,27.0,,,,,,,,sub_572,2024-01-12_11h34.55.267,Reversal,2023.1.3,60.02455004097984,4,
,,,exp4.png,0,0,0,0,,,,,0,0,0,0,0,3,3,3,,,,,,,,,,,,,,,,,,,,,,,,,,,,,,,,,,,,,,188.49985199999992,,68.0,1.4765440999999555,"[(68.0, 1.4765440999999555)]",,,68.0,,,,,,,sub_572,2024-01-12_11h34.55.267,Reversal,2023.1.3,60.02455004097984,4,
0,exp1.png,exp2.png,,1,0,1,0,0,0,0,0,,,,,,,,,,,,,,,,,,,,,,,,,False,20,21,True,exp2.png,exp1.png,trial_left_image,1,exp2.png,4,exp2.png,exp1.png,1,1,non-reversed,correct,0.637918766806197,1,valid_win,121.22395979999965,16,,,,,,,,,,,,,,,sub_572,2024-01-12_11h34.55.267,Reversal,2023.1.3,60.02455004097984,4,
1,exp3.png,exp4.png,,1,0,1,0,0,1,1,1,,,,,,,,,,,,,,,,,,,,,,,,,False,21,22,False,exp3.png,exp4.png,trial_right_image,-1,exp4.png,4,exp4.png,exp3.png,1,3,reversed,correct,0.8208518318682262,1,valid_win,126.28885470000023,17,,,,,,,,,,,,,,,sub_572,2024-01-12_11h34.55.267,Reversal,2023.1.3,60.02455004097984,4,
2,exp1.png,exp2.png,,1,0,1,0,0,2,2,2,,,,,,,,,,,,,,,,,,,,,,,,,False,22,23,False,exp1.png,exp2.png,trial_right_image,-1,exp2.png,4,exp2.png,exp1.png,1,1,non-reversed,correct,0.2690895505989662,1,valid_win,131.28747659999954,18,,,,,,,,,,,,,,,sub_572,2024-01-12_11h34.55.267,Reversal,2023.1.3,60.02455004097984,4,
3,exp3.png,exp4.png,,1,0,1,0,0,3,3,3,,,,,,,,,,,,,,,,,,,,,,,,,False,23,24,True,exp4.png,exp3.png,trial_left_image,1,exp4.png,4,exp4.png,exp3.png,1,3,reversed,correct,0.5264534812296925,1,valid_win,136.28551929999958,19,,,,,,,,,,,,,,,sub_572,2024-01-12_11h34.55.267,Reversal,2023.1.3,60.02455004097984,4,
4,exp1.png,exp2.png,,1,0,1,0,0,4,4,4,,,,,,,,,,,,,,,,,,,,,,,,,False,24,25,True,exp2.png,exp1.png,trial_left_image,1,exp2.png,4,exp2.png,exp1.png,1,1,non-reversed,correct,0.2625015006848098,1,valid_win,140.73527509999985,20,,,,,,,,,,,,,,,sub_572,2024-01-12_11h34.55.267,Reversal,2023.1.3,60.02455004097984,4,
5,exp3.png,exp4.png,,1,0,1,0,0,5,5,5,,,,,,,,,,,,,,,,,,,,,,,,,False,25,26,True,exp4.png,exp3.png,trial_left_image,1,exp4.png,4,exp4.png,exp3.png,1,3,reversed,correct,0.08538837218801854,0,invalid_lose,146.23289149999982,20,,,,,,,,,,,,,,,sub_572,2024-01-12_11h34.55.267,Reversal,2023.1.3,60.02455004097984,4,
6,exp1.png,exp2.png,,1,0,1,0,0,6,6,6,,,,,,,,,,,,,,,,,,,,,,,,,False,26,27,False,exp1.png,exp2.png,trial_right_image,-1,exp2.png,4,exp2.png,exp1.png,1,1,non-reversed,correct,0.43538545759131364,1,valid_win,150.8801357000002,21,,,,,,,,,,,,,,,sub_572,2024-01-12_11h34.55.267,Reversal,2023.1.3,60.02455004097984,4,
7,exp3.png,exp4.png,,1,0,1,0,0,7,7,7,,,,,,,,,,,,,,,,,,,,,,,,,False,27,28,False,exp3.png,exp4.png,trial_right_image,-1,exp4.png,4,exp4.png,exp3.png,1,3,reversed,correct,0.475512154548122,1,valid_win,155.31252539999969,22,,,,,,,,,,,,,,,sub_572,2024-01-12_11h34.55.267,Reversal,2023.1.3,60.02455004097984,4,
8,exp1.png,exp2.png,,1,0,1,0,0,8,8,8,,,,,,,,,,,,,,,,,,,,,,,,,False,28,29,False,exp1.png,exp2.png,trial_right_image,-1,exp2.png,4,exp2.png,exp1.png,1,1,non-reversed,correct,0.06501239535757353,0,invalid_lose,160.06103749999966,22,,,,,,,,,,,,,,,sub_572,2024-01-12_11h34.55.267,Reversal,2023.1.3,60.02455004097984,4,
9,exp3.png,exp4.png,,1,0,1,0,0,9,9,9,,,,,,,,,,,,,,,,,,,,,,,,,False,29,30,False,exp3.png,exp4.png,trial_right_image,-1,exp4.png,4,exp4.png,exp3.png,1,3,reversed,correct,0.9275949269235297,1,valid_win,165.34270519999973,23,,,,,,,,,,,,,,,sub_572,2024-01-12_11h34.55.267,Reversal,2023.1.3,60.02455004097984,4,
10,exp1.png,exp2.png,,1,0,1,0,0,10,10,10,,,,,,,,,,,,,,,,,,,,,,,,,False,30,31,True,exp2.png,exp1.png,trial_right_image,-1,exp1.png,4,exp2.png,exp1.png,0,2,non-reversed,incorrect,0.017499715522669823,1,invalid_win,174.2057580999999,24,,,,,,,,,,,,,,,sub_572,2024-01-12_11h34.55.267,Reversal,2023.1.3,60.02455004097984,4,
11,exp3.png,exp4.png,,1,0,1,0,0,11,11,11,,,,,,,,,,,,,,,,,,,,,,,,,False,31,32,False,exp3.png,exp4.png,trial_right_image,-1,exp4.png,4,exp4.png,exp3.png,1,3,reversed,correct,0.9222935132333442,1,valid_win,180.70372769999994,25,,,,,,,,,,,,,,,sub_572,2024-01-12_11h34.55.267,Reversal,2023.1.3,60.02455004097984,4,
12,exp1.png,exp2.png,,1,0,1,0,0,12,12,12,,,,,,,,,,,,,,,,,,,,,,,,,False,32,33,True,exp2.png,exp1.png,trial_right_image,-1,exp1.png,4,exp2.png,exp1.png,0,2,non-reversed,incorrect,0.20711003804409744,1,invalid_win,185.11901940000007,26,,,,,,,,,,,,,,,sub_572,2024-01-12_11h34.55.267,Reversal,2023.1.3,60.02455004097984,4,
13,exp3.png,exp4.png,,1,0,1,0,0,13,13,13,,,,,,,,,,,,,,,,,,,,,,,,,False,33,34,False,exp3.png,exp4.png,trial_right_image,-1,exp4.png,4,exp4.png,exp3.png,1,3,reversed,correct,0.3738412572570333,1,valid_win,189.15254790000017,27,,,,,,,,,,,,,,,sub_572,2024-01-12_11h34.55.267,Reversal,2023.1.3,60.02455004097984,4,
14,exp1.png,exp2.png,,1,0,1,0,0,14,14,14,,,,,,,,,,,,,,,,,,,,,,,,,False,34,35,False,exp1.png,exp2.png,trial_right_image,-1,exp2.png,4,exp2.png,exp1.png,1,1,non-reversed,correct,0.6465238947540082,1,valid_win,194.13265450000017,28,,,,,,,,,,,,,,,sub_572,2024-01-12_11h34.55.267,Reversal,2023.1.3,60.02455004097984,4,
15,exp3.png,exp4.png,,1,0,1,0,0,15,15,15,,,,,,,,,,,,,,,,,,,,,,,,,False,35,36,True,exp4.png,exp3.png,trial_right_image,-1,exp3.png,4,exp4.png,exp3.png,0,4,reversed,incorrect,0.5177815273200663,0,valid_lose,199.34800429999996,28,,,,,,,,,,,,,,,sub_572,2024-01-12_11h34.55.267,Reversal,2023.1.3,60.02455004097984,4,
16,exp1.png,exp2.png,,1,0,1,0,0,16,16,16,,,,,,,,,,,,,,,,,,,,,,,,,False,36,37,False,exp1.png,exp2.png,trial_right_image,-1,exp2.png,4,exp2.png,exp1.png,1,1,non-reversed,correct,0.2001356141227012,0,invalid_lose,203.64720099999977,28,,,,,,,,,,,,,,,sub_572,2024-01-12_11h34.55.267,Reversal,2023.1.3,60.02455004097984,4,
17,exp3.png,exp4.png,,1,0,1,0,0,17,17,17,,,,,,,,,,,,,,,,,,,,,,,,,False,37,38,True,exp4.png,exp3.png,trial_right_image,-1,exp3.png,4,exp4.png,exp3.png,0,4,reversed,incorrect,0.39057882514039166,0,valid_lose,209.1615068000001,28,,,,,,,,,,,,,,,sub_572,2024-01-12_11h34.55.267,Reversal,2023.1.3,60.02455004097984,4,
18,exp1.png,exp2.png,,1,0,1,0,0,18,18,18,,,,,,,,,,,,,,,,,,,,,,,,,False,38,39,True,exp2.png,exp1.png,trial_left_image,1,exp2.png,4,exp2.png,exp1.png,1,1,non-reversed,correct,0.856723015503388,1,valid_win,214.85881939999945,29,,,,,,,,,,,,,,,sub_572,2024-01-12_11h34.55.267,Reversal,2023.1.3,60.02455004097984,4,
19,exp3.png,exp4.png,,1,0,1,0,0,19,19,19,,,,,,,,,,,,,,,,,,,,,,,,,False,39,40,True,exp4.png,exp3.png,trial_left_image,1,exp4.png,4,exp4.png,exp3.png,1,3,reversed,correct,0.05571128538444792,0,invalid_lose,219.04101809999975,29,,,,,,,,,,,,,,,sub_572,2024-01-12_11h34.55.267,Reversal,2023.1.3,60.02455004097984,4,
20,exp1.png,exp2.png,,1,0,1,0,0,20,20,20,,,,,,,,,,,,,,,,,,,,,,,,,True,,,,,,,,,,,,,,,,,,,,,,,,,,,,,,,,,,,sub_572,2024-01-12_11h34.55.267,Reversal,2023.1.3,60.02455004097984,4,
,,,exp1.png,1,0,1,0,,,,,0,0,0,0,0,0,0,0,,,,,,,,,,,,,,,,,,,,,,,,,,,,,,,,,,,,,,294.04589790000045,20.0,20.0,3.8965024999997695,"[(20.0, 3.8965024999997695)]",,,,,,,,,,sub_572,2024-01-12_11h34.55.267,Reversal,2023.1.3,60.02455004097984,4,
,,,exp2.png,1,0,1,0,,,,,0,0,0,0,0,1,1,1,,,,,,,,,,,,,,,,,,,,,,,,,,,,,,,,,,,,,,298.85904240000036,,79.0,2.211022600000433,"[(76.0, 1.411097900000641), (79.0, 2.211022600000433)]",79.0,,,,,,,,,sub_572,2024-01-12_11h34.55.267,Reversal,2023.1.3,60.02455004097984,4,
,,,exp3.png,1,0,1,0,,,,,0,0,0,0,0,2,2,2,,,,,,,,,,,,,,,,,,,,,,,,,,,,,,,,,,,,,,303.0105432999999,,24.0,4.625357099999746,"[(24.0, 4.625357099999746)]",,24.0,,,,,,,,sub_572,2024-01-12_11h34.55.267,Reversal,2023.1.3,60.02455004097984,4,
,,,exp4.png,1,0,1,0,,,,,0,0,0,0,0,3,3,3,,,,,,,,,,,,,,,,,,,,,,,,,,,,,,,,,,,,,,308.5886784000004,,75.0,1.27705750000041,"[(75.0, 1.27705750000041)]",,,75.0,,,,,,,sub_572,2024-01-12_11h34.55.267,Reversal,2023.1.3,60.02455004097984,4,
0,exp1.png,exp2.png,,2,0,2,0,0,0,0,0,,,,,,,,,,,,,,,,,,,,,,,,,False,40,41,True,exp2.png,exp1.png,trial_left_image,1,exp2.png,4,exp2.png,exp1.png,1,1,non-reversed,correct,0.29977976965341924,1,valid_win,240.60095420000016,30,,,,,,,,,,,,,,,sub_572,2024-01-12_11h34.55.267,Reversal,2023.1.3,60.02455004097984,4,
1,exp3.png,exp4.png,,2,0,2,0,0,1,1,1,,,,,,,,,,,,,,,,,,,,,,,,,False,41,42,False,exp3.png,exp4.png,trial_right_image,-1,exp4.png,4,exp4.png,exp3.png,1,3,reversed,correct,0.5125140712431119,1,valid_win,246.4145736999999,31,,,,,,,,,,,,,,,sub_572,2024-01-12_11h34.55.267,Reversal,2023.1.3,60.02455004097984,4,
2,exp1.png,exp2.png,,2,0,2,0,0,2,2,2,,,,,,,,,,,,,,,,,,,,,,,,,False,42,43,True,exp2.png,exp1.png,trial_left_image,1,exp2.png,4,exp2.png,exp1.png,1,1,non-reversed,correct,0.26068587774061247,1,valid_win,251.09668069999952,32,,,,,,,,,,,,,,,sub_572,2024-01-12_11h34.55.267,Reversal,2023.1.3,60.02455004097984,4,
3,exp3.png,exp4.png,,2,0,2,0,0,3,3,3,,,,,,,,,,,,,,,,,,,,,,,,,False,43,44,True,exp4.png,exp3.png,trial_left_image,1,exp4.png,4,exp4.png,exp3.png,1,3,reversed,correct,0.9598205484748266,1,valid_win,255.59517309999956,33,,,,,,,,,,,,,,,sub_572,2024-01-12_11h34.55.267,Reversal,2023.1.3,60.02455004097984,4,
4,exp1.png,exp2.png,,2,0,2,0,0,4,4,4,,,,,,,,,,,,,,,,,,,,,,,,,False,44,45,False,exp1.png,exp2.png,trial_right_image,-1,exp2.png,4,exp2.png,exp1.png,1,1,non-reversed,correct,0.7803707676608482,1,valid_win,260.49309489999996,34,,,,,,,,,,,,,,,sub_572,2024-01-12_11h34.55.267,Reversal,2023.1.3,60.02455004097984,4,
5,exp3.png,exp4.png,,2,0,2,0,0,5,5,5,,,,,,,,,,,,,,,,,,,,,,,,,False,45,46,True,exp4.png,exp3.png,trial_left_image,1,exp4.png,4,exp4.png,exp3.png,1,3,reversed,correct,0.19284821243892614,0,invalid_lose,265.0583270999996,34,,,,,,,,,,,,,,,sub_572,2024-01-12_11h34.55.267,Reversal,2023.1.3,60.02455004097984,4,
6,exp1.png,exp2.png,,2,0,2,0,0,6,6,6,,,,,,,,,,,,,,,,,,,,,,,,,False,46,47,False,exp1.png,exp2.png,trial_right_image,-1,exp2.png,4,exp2.png,exp1.png,1,1,non-reversed,correct,0.7536352674309804,1,valid_win,269.1901789000003,35,,,,,,,,,,,,,,,sub_572,2024-01-12_11h34.55.267,Reversal,2023.1.3,60.02455004097984,4,
7,exp3.png,exp4.png,,2,0,2,0,0,7,7,7,,,,,,,,,,,,,,,,,,,,,,,,,False,47,48,True,exp4.png,exp3.png,trial_left_image,1,exp4.png,4,exp4.png,exp3.png,1,3,reversed,correct,0.9228385949124256,1,valid_win,275.92118049999954,36,,,,,,,,,,,,,,,sub_572,2024-01-12_11h34.55.267,Reversal,2023.1.3,60.02455004097984,4,
8,exp1.png,exp2.png,,2,0,2,0,0,8,8,8,,,,,,,,,,,,,,,,,,,,,,,,,False,48,49,True,exp2.png,exp1.png,trial_left_image,1,exp2.png,4,exp2.png,exp1.png,1,1,non-reversed,correct,0.7528747461023734,1,valid_win,280.33681999999953,37,,,,,,,,,,,,,,,sub_572,2024-01-12_11h34.55.267,Reversal,2023.1.3,60.02455004097984,4,
9,exp3.png,exp4.png,,2,0,2,0,0,9,9,9,,,,,,,,,,,,,,,,,,,,,,,,,False,49,50,False,exp3.png,exp4.png,trial_right_image,-1,exp4.png,4,exp4.png,exp3.png,1,3,reversed,correct,0.7858145937981936,1,valid_win,284.58492959999967,38,,,,,,,,,,,,,,,sub_572,2024-01-12_11h34.55.267,Reversal,2023.1.3,60.02455004097984,4,
10,exp1.png,exp2.png,,2,0,2,0,0,10,10,10,,,,,,,,,,,,,,,,,,,,,,,,,False,50,51,True,exp2.png,exp1.png,trial_left_image,1,exp2.png,4,exp2.png,exp1.png,1,1,non-reversed,correct,0.8405315670016454,1,valid_win,288.6866933000001,39,,,,,,,,,,,,,,,sub_572,2024-01-12_11h34.55.267,Reversal,2023.1.3,60.02455004097984,4,
11,exp3.png,exp4.png,,2,0,2,0,0,11,11,11,,,,,,,,,,,,,,,,,,,,,,,,,False,51,52,False,exp3.png,exp4.png,trial_right_image,-1,exp4.png,4,exp4.png,exp3.png,1,3,reversed,correct,0.9524666077348597,1,valid_win,293.4160460000003,40,,,,,,,,,,,,,,,sub_572,2024-01-12_11h34.55.267,Reversal,2023.1.3,60.02455004097984,4,
12,exp1.png,exp2.png,,2,0,2,0,0,12,12,12,,,,,,,,,,,,,,,,,,,,,,,,,False,52,53,True,exp2.png,exp1.png,trial_left_image,1,exp2.png,4,exp2.png,exp1.png,1,1,non-reversed,correct,0.2682705978103269,1,valid_win,297.6313376999997,41,,,,,,,,,,,,,,,sub_572,2024-01-12_11h34.55.267,Reversal,2023.1.3,60.02455004097984,4,
13,exp3.png,exp4.png,,2,0,2,0,0,13,13,13,,,,,,,,,,,,,,,,,,,,,,,,,False,53,54,False,exp3.png,exp4.png,trial_right_image,-1,exp4.png,4,exp4.png,exp3.png,1,3,reversed,correct,0.84706127628606,1,valid_win,302.3456325999996,42,,,,,,,,,,,,,,,sub_572,2024-01-12_11h34.55.267,Reversal,2023.1.3,60.02455004097984,4,
14,exp1.png,exp2.png,,2,0,2,0,0,14,14,14,,,,,,,,,,,,,,,,,,,,,,,,,False,54,55,False,exp1.png,exp2.png,trial_right_image,-1,exp2.png,4,exp2.png,exp1.png,1,1,non-reversed,correct,0.620451162516086,1,valid_win,306.46182429999953,43,,,,,,,,,,,,,,,sub_572,2024-01-12_11h34.55.267,Reversal,2023.1.3,60.02455004097984,4,
15,exp3.png,exp4.png,,2,0,2,0,0,15,15,15,,,,,,,,,,,,,,,,,,,,,,,,,False,55,56,True,exp4.png,exp3.png,trial_left_image,1,exp4.png,4,exp4.png,exp3.png,1,3,reversed,correct,0.8557402294272526,1,valid_win,310.4593103999996,44,,,,,,,,,,,,,,,sub_572,2024-01-12_11h34.55.267,Reversal,2023.1.3,60.02455004097984,4,
16,exp1.png,exp2.png,,2,0,2,0,0,16,16,16,,,,,,,,,,,,,,,,,,,,,,,,,False,56,57,False,exp1.png,exp2.png,trial_right_image,-1,exp2.png,4,exp2.png,exp1.png,1,1,non-reversed,correct,0.9702777281048677,1,valid_win,314.70802989999993,45,,,,,,,,,,,,,,,sub_572,2024-01-12_11h34.55.267,Reversal,2023.1.3,60.02455004097984,4,
17,exp3.png,exp4.png,,2,0,2,0,0,17,17,17,,,,,,,,,,,,,,,,,,,,,,,,,False,57,58,True,exp4.png,exp3.png,trial_left_image,1,exp4.png,4,exp4.png,exp3.png,1,3,reversed,correct,0.005167143511171757,0,invalid_lose,319.5730070999998,45,,,,,,,,,,,,,,,sub_572,2024-01-12_11h34.55.267,Reversal,2023.1.3,60.02455004097984,4,
18,exp1.png,exp2.png,,2,0,2,0,0,18,18,18,,,,,,,,,,,,,,,,,,,,,,,,,False,58,59,False,exp1.png,exp2.png,trial_right_image,-1,exp2.png,4,exp2.png,exp1.png,1,1,non-reversed,correct,0.5542747574452117,1,valid_win,323.68886610000027,46,,,,,,,,,,,,,,,sub_572,2024-01-12_11h34.55.267,Reversal,2023.1.3,60.02455004097984,4,
19,exp3.png,exp4.png,,2,0,2,0,0,19,19,19,,,,,,,,,,,,,,,,,,,,,,,,,False,59,60,False,exp3.png,exp4.png,trial_right_image,-1,exp4.png,4,exp4.png,exp3.png,1,3,reversed,correct,0.8188543683873394,1,valid_win,328.03911100000005,47,,,,,,,,,,,,,,,sub_572,2024-01-12_11h34.55.267,Reversal,2023.1.3,60.02455004097984,4,
20,exp1.png,exp2.png,,2,0,2,0,0,20,20,20,,,,,,,,,,,,,,,,,,,,,,,,,True,,,,,,,,,,,,,,,,,,,,,,,,,,,,,,,,,,,sub_572,2024-01-12_11h34.55.267,Reversal,2023.1.3,60.02455004097984,4,
,,,exp1.png,2,0,2,0,,,,,0,0,0,0,0,0,0,0,,,,,,,,,,,,,,,,,,,,,,,,,,,,,,,,,,,,,,403.02741369999967,17.0,17.0,3.159276000000318,"[(17.0, 3.159276000000318)]",,,,,,,,,,sub_572,2024-01-12_11h34.55.267,Reversal,2023.1.3,60.02455004097984,4,
,,,exp2.png,2,0,2,0,,,,,0,0,0,0,0,1,1,1,,,,,,,,,,,,,,,,,,,,,,,,,,,,,,,,,,,,,,407.04796760000045,,84.0,1.5611279999993712,"[(84.0, 1.5611279999993712)]",84.0,,,,,,,,,sub_572,2024-01-12_11h34.55.267,Reversal,2023.1.3,60.02455004097984,4,
,,,exp3.png,2,0,2,0,,,,,0,0,0,0,0,2,2,2,,,,,,,,,,,,,,,,,,,,,,,,,,,,,,,,,,,,,,409.48856350000005,,22.0,1.4098849000001792,"[(22.0, 1.4098849000001792)]",,22.0,,,,,,,,sub_572,2024-01-12_11h34.55.267,Reversal,2023.1.3,60.02455004097984,4,
,,,exp4.png,2,0,2,0,,,,,0,0,0,0,0,3,3,3,,,,,,,,,,,,,,,,,,,,,,,,,,,,,,,,,,,,,,411.8380913000001,,78.0,2.4111003999996683,"[(74.0, 0.9436938999997437), (78.0, 2.4111003999996683)]",,,78.0,,,,,,,sub_572,2024-01-12_11h34.55.267,Reversal,2023.1.3,60.02455004097984,4,
0,exp1.png,exp2.png,,,,,,,,,,,,,,,,,,0,0,0,0,0,0,0,0,,,,,,,,,False,0,61,True,exp2.png,exp1.png,trial_left_image,1,exp2.png,4,exp2.png,exp1.png,1,1,non-reversed,correct,0.9451589885859877,1,valid_win,345.3814537999997,48,,,,,,,,,342.62660460000006,,,,,,sub_572,2024-01-12_11h34.55.267,Reversal,2023.1.3,60.02455004097984,4,
1,exp3.png,exp4.png,,,,,,,,,,,,,,,,,,0,0,0,0,0,1,1,1,,,,,,,,,False,1,62,False,exp3.png,exp4.png,trial_left_image,1,exp3.png,4,exp3.png,exp4.png,0,4,reversed,correct,0.6974790250759768,1,valid_win,351.4631118999996,49,,,,,,,,,,,,,,,sub_572,2024-01-12_11h34.55.267,Reversal,2023.1.3,60.02455004097984,4,
2,exp1.png,exp2.png,,,,,,,,,,,,,,,,,,0,0,0,0,0,2,2,2,,,,,,,,,False,2,63,False,exp1.png,exp2.png,trial_right_image,-1,exp2.png,4,exp2.png,exp1.png,1,1,non-reversed,correct,0.9342344236655067,1,valid_win,357.16033009999956,50,,,,,,,,,,,,,,,sub_572,2024-01-12_11h34.55.267,Reversal,2023.1.3,60.02455004097984,4,
3,exp3.png,exp4.png,,,,,,,,,,,,,,,,,,0,0,0,0,0,3,3,3,,,,,,,,,False,3,64,False,exp3.png,exp4.png,trial_right_image,-1,exp4.png,4,exp3.png,exp4.png,1,3,reversed,incorrect,0.1463144225484877,1,invalid_win,361.9110588000003,51,,,,,,,,,,,,,,,sub_572,2024-01-12_11h34.55.267,Reversal,2023.1.3,60.02455004097984,4,
4,exp1.png,exp2.png,,,,,,,,,,,,,,,,,,0,0,0,0,0,4,4,4,,,,,,,,,False,4,65,True,exp2.png,exp1.png,trial_left_image,1,exp2.png,4,exp2.png,exp1.png,1,1,non-reversed,correct,0.17601002225115936,0,invalid_lose,366.6239757000003,51,,,,,,,,,,,,,,,sub_572,2024-01-12_11h34.55.267,Reversal,2023.1.3,60.02455004097984,4,
5,exp3.png,exp4.png,,,,,,,,,,,,,,,,,,0,0,0,0,0,5,5,5,,,,,,,,,False,5,66,False,exp3.png,exp4.png,trial_right_image,-1,exp4.png,4,exp3.png,exp4.png,1,3,reversed,incorrect,0.76053719607899,0,valid_lose,370.63910380000016,51,,,,,,,,,,,,,,,sub_572,2024-01-12_11h34.55.267,Reversal,2023.1.3,60.02455004097984,4,
6,exp1.png,exp2.png,,,,,,,,,,,,,,,,,,0,0,0,0,0,6,6,6,,,,,,,,,False,6,67,False,exp1.png,exp2.png,trial_right_image,-1,exp2.png,4,exp2.png,exp1.png,1,1,non-reversed,correct,0.33122521967931373,1,valid_win,374.5216584,52,,,,,,,,,,,,,,,sub_572,2024-01-12_11h34.55.267,Reversal,2023.1.3,60.02455004097984,4,
7,exp3.png,exp4.png,,,,,,,,,,,,,,,,,,0,0,0,0,0,7,7,7,,,,,,,,,False,7,68,True,exp4.png,exp3.png,trial_left_image,1,exp4.png,4,exp3.png,exp4.png,1,3,reversed,incorrect,0.2283190582785637,1,invalid_win,395.1827186999999,53,,,,,,,,,,,,,,,sub_572,2024-01-12_11h34.55.267,Reversal,2023.1.3,60.02455004097984,4,
8,exp1.png,exp2.png,,,,,,,,,,,,,,,,,,0,0,0,0,0,8,8,8,,,,,,,,,False,8,69,False,exp1.png,exp2.png,trial_right_image,-1,exp2.png,4,exp2.png,exp1.png,1,1,non-reversed,correct,0.7011386510320946,1,valid_win,399.1629229,54,,,,,,,,,,,,,,,sub_572,2024-01-12_11h34.55.267,Reversal,2023.1.3,60.02455004097984,4,
9,exp3.png,exp4.png,,,,,,,,,,,,,,,,,,0,0,0,0,0,9,9,9,,,,,,,,,False,9,70,False,exp3.png,exp4.png,trial_right_image,-1,exp4.png,4,exp3.png,exp4.png,1,3,reversed,incorrect,0.060643763958740604,1,invalid_win,403.91116989999955,55,,,,,,,,,,,,,,,sub_572,2024-01-12_11h34.55.267,Reversal,2023.1.3,60.02455004097984,4,
10,exp1.png,exp2.png,,,,,,,,,,,,,,,,,,0,0,0,0,0,10,10,10,,,,,,,,,False,10,71,False,exp1.png,exp2.png,trial_right_image,-1,exp2.png,4,exp2.png,exp1.png,1,1,non-reversed,correct,0.15977369074971648,0,invalid_lose,407.82701689999976,55,,,,,,,,,,,,,,,sub_572,2024-01-12_11h34.55.267,Reversal,2023.1.3,60.02455004097984,4,
11,exp3.png,exp4.png,,,,,,,,,,,,,,,,,,0,0,0,0,0,11,11,11,,,,,,,,,False,11,72,False,exp3.png,exp4.png,trial_right_image,-1,exp4.png,4,exp3.png,exp4.png,1,3,reversed,incorrect,0.5620960776964009,0,valid_lose,411.8603581999996,55,,,,,,,,,,,,,,,sub_572,2024-01-12_11h34.55.267,Reversal,2023.1.3,60.02455004097984,4,
12,exp1.png,exp2.png,,,,,,,,,,,,,,,,,,0,0,0,0,0,12,12,12,,,,,,,,,False,12,73,True,exp2.png,exp1.png,trial_left_image,1,exp2.png,4,exp2.png,exp1.png,1,1,non-reversed,correct,0.7972719278568374,1,valid_win,418.80621210000027,56,,,,,,,,,,,,,,,sub_572,2024-01-12_11h34.55.267,Reversal,2023.1.3,60.02455004097984,4,
13,exp3.png,exp4.png,,,,,,,,,,,,,,,,,,0,0,0,0,0,13,13,13,,,,,,,,,False,13,74,False,exp3.png,exp4.png,trial_right_image,-1,exp4.png,4,exp3.png,exp4.png,1,3,reversed,incorrect,0.9491774678949957,0,valid_lose,423.05664199999956,56,,,,,,,,,,,,,,,sub_572,2024-01-12_11h34.55.267,Reversal,2023.1.3,60.02455004097984,4,
14,exp1.png,exp2.png,,,,,,,,,,,,,,,,,,0,0,0,0,0,14,14,14,,,,,,,,,False,14,75,True,exp2.png,exp1.png,trial_left_image,1,exp2.png,4,exp2.png,exp1.png,1,1,non-reversed,correct,0.39254438321840135,1,valid_win,427.8365103999995,57,,,,,,,,,,,,,,,sub_572,2024-01-12_11h34.55.267,Reversal,2023.1.3,60.02455004097984,4,
15,exp3.png,exp4.png,,,,,,,,,,,,,,,,,,0,0,0,0,0,15,15,15,,,,,,,,,False,15,76,True,exp4.png,exp3.png,trial_left_image,1,exp4.png,4,exp3.png,exp4.png,1,3,reversed,incorrect,0.6905699446327581,0,valid_lose,431.8682576000001,57,,,,,,,,,,,,,,,sub_572,2024-01-12_11h34.55.267,Reversal,2023.1.3,60.02455004097984,4,
16,exp1.png,exp2.png,,,,,,,,,,,,,,,,,,0,0,0,0,0,16,16,16,,,,,,,,,False,16,77,True,exp2.png,exp1.png,trial_left_image,1,exp2.png,4,exp2.png,exp1.png,1,1,non-reversed,correct,0.2534366694243282,1,valid_win,441.68240220000007,58,,,,,,,,,,,,,,,sub_572,2024-01-12_11h34.55.267,Reversal,2023.1.3,60.02455004097984,4,
17,exp3.png,exp4.png,,,,,,,,,,,,,,,,,,0,0,0,0,0,17,17,17,,,,,,,,,False,17,78,True,exp4.png,exp3.png,trial_left_image,1,exp4.png,4,exp3.png,exp4.png,1,3,reversed,incorrect,0.6476748743596671,0,valid_lose,446.79642160000003,58,,,,,,,,,,,,,,,sub_572,2024-01-12_11h34.55.267,Reversal,2023.1.3,60.02455004097984,4,
18,exp1.png,exp2.png,,,,,,,,,,,,,,,,,,0,0,0,0,0,18,18,18,,,,,,,,,False,18,79,True,exp2.png,exp1.png,trial_left_image,1,exp2.png,4,exp2.png,exp1.png,1,1,non-reversed,correct,0.45502042287743494,1,valid_win,451.1454606999996,59,,,,,,,,,,,,,,,sub_572,2024-01-12_11h34.55.267,Reversal,2023.1.3,60.02455004097984,4,
19,exp3.png,exp4.png,,,,,,,,,,,,,,,,,,0,0,0,0,0,19,19,19,,,,,,,,,False,19,80,True,exp4.png,exp3.png,trial_left_image,1,exp4.png,4,exp3.png,exp4.png,1,3,reversed,incorrect,0.08761549331705298,1,invalid_win,455.2100786000001,60,,,,,,,,,,,,,,,sub_572,2024-01-12_11h34.55.267,Reversal,2023.1.3,60.02455004097984,4,
20,exp1.png,exp2.png,,,,,,,,,,,,,,,,,,0,0,0,0,0,20,20,20,,,,,,,,,True,,,,,,,,,,,,,,,,,,,,,,,,,,,,,,,,,,,sub_572,2024-01-12_11h34.55.267,Reversal,2023.1.3,60.02455004097984,4,
,,,exp1.png,,,,,,,,,,,,,,,,,0,0,0,0,,,,,0,0,0,0,0,0,0,0,,,,,,,,,,,,,,,,,,,,,,530.2021624999998,16.0,16.0,3.0934469000003446,"[(16.0, 3.0934469000003446)]",,,,,,,,,,sub_572,2024-01-12_11h34.55.267,Reversal,2023.1.3,60.02455004097984,4,
,,,exp2.png,,,,,,,,,,,,,,,,,0,0,0,0,,,,,0,0,0,0,0,1,1,1,,,,,,,,,,,,,,,,,,,,,,534.2383504,,86.0,0.8107049000000188,"[(86.0, 0.8107049000000188)]",86.0,,,,,,,,,sub_572,2024-01-12_11h34.55.267,Reversal,2023.1.3,60.02455004097984,4,
,,,exp3.png,,,,,,,,,,,,,,,,,0,0,0,0,,,,,0,0,0,0,0,2,2,2,,,,,,,,,,,,,,,,,,,,,,535.8280402999999,,9.0,1.4938093999999182,"[(9.0, 1.4938093999999182)]",,9.0,,,,,,,,sub_572,2024-01-12_11h34.55.267,Reversal,2023.1.3,60.02455004097984,4,
,,,exp4.png,,,,,,,,,,,,,,,,,0,0,0,0,,,,,0,0,0,0,0,3,3,3,,,,,,,,,,,,,,,,,,,,,,538.2441227999998,,100.0,1.294141700000182,"[(100.0, 1.294141700000182)]",,,100.0,,,,,,,sub_572,2024-01-12_11h34.55.267,Reversal,2023.1.3,60.02455004097984,4,
0,exp1.png,exp2.png,,,,,,,,,,,,,,,,,,1,0,1,0,0,0,0,0,,,,,,,,,False,20,81,True,exp2.png,exp1.png,trial_left_image,1,exp2.png,4,exp2.png,exp1.png,1,1,non-reversed,correct,0.2601163988036528,1,valid_win,469.62266829999953,61,,,,,,,,,,,,,,,sub_572,2024-01-12_11h34.55.267,Reversal,2023.1.3,60.02455004097984,4,
1,exp3.png,exp4.png,,,,,,,,,,,,,,,,,,1,0,1,0,0,1,1,1,,,,,,,,,False,21,82,False,exp3.png,exp4.png,trial_right_image,-1,exp4.png,4,exp3.png,exp4.png,1,3,reversed,incorrect,0.38987317688220824,0,valid_lose,473.72109809999984,61,,,,,,,,,,,,,,,sub_572,2024-01-12_11h34.55.267,Reversal,2023.1.3,60.02455004097984,4,
2,exp1.png,exp2.png,,,,,,,,,,,,,,,,,,1,0,1,0,0,2,2,2,,,,,,,,,False,22,83,True,exp2.png,exp1.png,trial_left_image,1,exp2.png,4,exp2.png,exp1.png,1,1,non-reversed,correct,0.06024282037511963,0,invalid_lose,477.90238450000015,61,,,,,,,,,,,,,,,sub_572,2024-01-12_11h34.55.267,Reversal,2023.1.3,60.02455004097984,4,
3,exp3.png,exp4.png,,,,,,,,,,,,,,,,,,1,0,1,0,0,3,3,3,,,,,,,,,False,23,84,True,exp4.png,exp3.png,trial_left_image,1,exp4.png,4,exp3.png,exp4.png,1,3,reversed,incorrect,0.9459552486656454,0,valid_lose,482.48430199999984,61,,,,,,,,,,,,,,,sub_572,2024-01-12_11h34.55.267,Reversal,2023.1.3,60.02455004097984,4,
4,exp1.png,exp2.png,,,,,,,,,,,,,,,,,,1,0,1,0,0,4,4,4,,,,,,,,,False,24,85,False,exp1.png,exp2.png,trial_right_image,-1,exp2.png,4,exp2.png,exp1.png,1,1,non-reversed,correct,0.6668081007588204,1,valid_win,486.59964560000026,62,,,,,,,,,,,,,,,sub_572,2024-01-12_11h34.55.267,Reversal,2023.1.3,60.02455004097984,4,
5,exp3.png,exp4.png,,,,,,,,,,,,,,,,,,1,0,1,0,0,5,5,5,,,,,,,,,False,25,86,False,exp3.png,exp4.png,trial_right_image,-1,exp4.png,4,exp3.png,exp4.png,1,3,reversed,incorrect,0.31166839883520114,0,valid_lose,490.9144140999997,62,,,,,,,,,,,,,,,sub_572,2024-01-12_11h34.55.267,Reversal,2023.1.3,60.02455004097984,4,
6,exp1.png,exp2.png,,,,,,,,,,,,,,,,,,1,0,1,0,0,6,6,6,,,,,,,,,False,26,87,True,exp2.png,exp1.png,trial_left_image,1,exp2.png,4,exp2.png,exp1.png,1,1,non-reversed,correct,0.057201693531791165,0,invalid_lose,495.8298556,62,,,,,,,,,,,,,,,sub_572,2024-01-12_11h34.55.267,Reversal,2023.1.3,60.02455004097984,4,
7,exp3.png,exp4.png,,,,,,,,,,,,,,,,,,1,0,1,0,0,7,7,7,,,,,,,,,False,27,88,True,exp4.png,exp3.png,trial_left_image,1,exp4.png,4,exp3.png,exp4.png,1,3,reversed,incorrect,0.31276083831809853,0,valid_lose,499.7951901999995,62,,,,,,,,,,,,,,,sub_572,2024-01-12_11h34.55.267,Reversal,2023.1.3,60.02455004097984,4,
8,exp1.png,exp2.png,,,,,,,,,,,,,,,,,,1,0,1,0,0,8,8,8,,,,,,,,,False,28,89,False,exp1.png,exp2.png,trial_right_image,-1,exp2.png,4,exp2.png,exp1.png,1,1,non-reversed,correct,0.9344998806667163,1,valid_win,503.9275932999999,63,,,,,,,,,,,,,,,sub_572,2024-01-12_11h34.55.267,Reversal,2023.1.3,60.02455004097984,4,
9,exp3.png,exp4.png,,,,,,,,,,,,,,,,,,1,0,1,0,0,9,9,9,,,,,,,,,False,29,90,False,exp3.png,exp4.png,trial_right_image,-1,exp4.png,4,exp3.png,exp4.png,1,3,reversed,incorrect,0.07059120501664295,1,invalid_win,507.95901950000007,64,,,,,,,,,,,,,,,sub_572,2024-01-12_11h34.55.267,Reversal,2023.1.3,60.02455004097984,4,
10,exp1.png,exp2.png,,,,,,,,,,,,,,,,,,1,0,1,0,0,10,10,10,,,,,,,,,False,30,91,False,exp1.png,exp2.png,trial_right_image,-1,exp2.png,4,exp2.png,exp1.png,1,1,non-reversed,correct,0.06912607350896882,0,invalid_lose,511.8412618000002,64,,,,,,,,,,,,,,,sub_572,2024-01-12_11h34.55.267,Reversal,2023.1.3,60.02455004097984,4,
11,exp3.png,exp4.png,,,,,,,,,,,,,,,,,,1,0,1,0,0,11,11,11,,,,,,,,,False,31,92,False,exp3.png,exp4.png,trial_right_image,-1,exp4.png,4,exp3.png,exp4.png,1,3,reversed,incorrect,0.3872042266918373,0,valid_lose,515.4575439,64,,,,,,,,,,,,,,,sub_572,2024-01-12_11h34.55.267,Reversal,2023.1.3,60.02455004097984,4,
12,exp1.png,exp2.png,,,,,,,,,,,,,,,,,,1,0,1,0,0,12,12,12,,,,,,,,,False,32,93,False,exp1.png,exp2.png,trial_right_image,-1,exp2.png,4,exp2.png,exp1.png,1,1,non-reversed,correct,0.49140621445303,1,valid_win,519.4387553999995,65,,,,,,,,,,,,,,,sub_572,2024-01-12_11h34.55.267,Reversal,2023.1.3,60.02455004097984,4,
13,exp3.png,exp4.png,,,,,,,,,,,,,,,,,,1,0,1,0,0,13,13,13,,,,,,,,,False,33,94,True,exp4.png,exp3.png,trial_left_image,1,exp4.png,4,exp3.png,exp4.png,1,3,reversed,incorrect,0.61706251274431,0,valid_lose,524.5367859999997,65,,,,,,,,,,,,,,,sub_572,2024-01-12_11h34.55.267,Reversal,2023.1.3,60.02455004097984,4,
14,exp1.png,exp2.png,,,,,,,,,,,,,,,,,,1,0,1,0,0,14,14,14,,,,,,,,,False,34,95,False,exp1.png,exp2.png,trial_right_image,-1,exp2.png,4,exp2.png,exp1.png,1,1,non-reversed,correct,0.8409563131092415,1,valid_win,528.5520601999997,66,,,,,,,,,,,,,,,sub_572,2024-01-12_11h34.55.267,Reversal,2023.1.3,60.02455004097984,4,
15,exp3.png,exp4.png,,,,,,,,,,,,,,,,,,1,0,1,0,0,15,15,15,,,,,,,,,False,35,96,False,exp3.png,exp4.png,trial_right_image,-1,exp4.png,4,exp3.png,exp4.png,1,3,reversed,incorrect,0.36404152887058283,0,valid_lose,532.6172133,66,,,,,,,,,,,,,,,sub_572,2024-01-12_11h34.55.267,Reversal,2023.1.3,60.02455004097984,4,
16,exp1.png,exp2.png,,,,,,,,,,,,,,,,,,1,0,1,0,0,16,16,16,,,,,,,,,False,36,97,True,exp2.png,exp1.png,trial_left_image,1,exp2.png,4,exp2.png,exp1.png,1,1,non-reversed,correct,0.5383774176006328,1,valid_win,536.7490556000002,67,,,,,,,,,,,,,,,sub_572,2024-01-12_11h34.55.267,Reversal,2023.1.3,60.02455004097984,4,
17,exp3.png,exp4.png,,,,,,,,,,,,,,,,,,1,0,1,0,0,17,17,17,,,,,,,,,False,37,98,True,exp4.png,exp3.png,trial_left_image,1,exp4.png,4,exp3.png,exp4.png,1,3,reversed,incorrect,0.03696034698777462,1,invalid_win,542.5476111999997,68,,,,,,,,,,,,,,,sub_572,2024-01-12_11h34.55.267,Reversal,2023.1.3,60.02455004097984,4,
18,exp1.png,exp2.png,,,,,,,,,,,,,,,,,,1,0,1,0,0,18,18,18,,,,,,,,,False,38,99,True,exp2.png,exp1.png,trial_left_image,1,exp2.png,4,exp2.png,exp1.png,1,1,non-reversed,correct,0.4363914948177936,1,valid_win,546.4626874999994,69,,,,,,,,,,,,,,,sub_572,2024-01-12_11h34.55.267,Reversal,2023.1.3,60.02455004097984,4,
19,exp3.png,exp4.png,,,,,,,,,,,,,,,,,,1,0,1,0,0,19,19,19,,,,,,,,,False,39,100,True,exp4.png,exp3.png,trial_left_image,1,exp4.png,4,exp3.png,exp4.png,1,3,reversed,incorrect,0.15595846801095148,1,invalid_win,561.8572966000002,70,,,,,,,,,,,,,,,sub_572,2024-01-12_11h34.55.267,Reversal,2023.1.3,60.02455004097984,4,
20,exp1.png,exp2.png,,,,,,,,,,,,,,,,,,1,0,1,0,0,20,20,20,,,,,,,,,True,,,,,,,,,,,,,,,,,,,,,,,,,,,,,,,,,,,sub_572,2024-01-12_11h34.55.267,Reversal,2023.1.3,60.02455004097984,4,
,,,exp1.png,,,,,,,,,,,,,,,,,1,0,1,0,,,,,0,0,0,0,0,0,0,0,,,,,,,,,,,,,,,,,,,,,,636.8675464999997,16.0,16.0,2.240867999999864,"[(16.0, 2.240867999999864)]",,,,,,,,,,sub_572,2024-01-12_11h34.55.267,Reversal,2023.1.3,60.02455004097984,4,
,,,exp2.png,,,,,,,,,,,,,,,,,1,0,1,0,,,,,0,0,0,0,0,1,1,1,,,,,,,,,,,,,,,,,,,,,,639.9248980000002,,82.0,1.0456610999999612,"[(82.0, 1.0456610999999612)]",82.0,,,,,,,,,sub_572,2024-01-12_11h34.55.267,Reversal,2023.1.3,60.02455004097984,4,
,,,exp3.png,,,,,,,,,,,,,,,,,1,0,1,0,,,,,0,0,0,0,0,2,2,2,,,,,,,,,,,,,,,,,,,,,,641.7757614000002,,17.0,1.2793510000001334,"[(17.0, 1.2793510000001334)]",,17.0,,,,,,,,sub_572,2024-01-12_11h34.55.267,Reversal,2023.1.3,60.02455004097984,4,
,,,exp4.png,,,,,,,,,,,,,,,,,1,0,1,0,,,,,0,0,0,0,0,3,3,3,,,,,,,,,,,,,,,,,,,,,,643.8911292000003,,82.0,0.8768469000006007,"[(82.0, 0.8768469000006007)]",,,82.0,,,,,,,sub_572,2024-01-12_11h34.55.267,Reversal,2023.1.3,60.02455004097984,4,
0,exp1.png,exp2.png,,,,,,,,,,,,,,,,,,2,0,2,0,0,0,0,0,,,,,,,,,False,40,101,True,exp2.png,exp1.png,trial_left_image,1,exp2.png,4,exp2.png,exp1.png,1,1,non-reversed,correct,0.8572861442413112,1,valid_win,574.9028282999998,71,,,,,,,,,,,,,,,sub_572,2024-01-12_11h34.55.267,Reversal,2023.1.3,60.02455004097984,4,
1,exp3.png,exp4.png,,,,,,,,,,,,,,,,,,2,0,2,0,0,1,1,1,,,,,,,,,False,41,102,True,exp4.png,exp3.png,trial_left_image,1,exp4.png,4,exp3.png,exp4.png,1,3,reversed,incorrect,0.7951076901331607,0,valid_lose,578.7519530999998,71,,,,,,,,,,,,,,,sub_572,2024-01-12_11h34.55.267,Reversal,2023.1.3,60.02455004097984,4,
2,exp1.png,exp2.png,,,,,,,,,,,,,,,,,,2,0,2,0,0,2,2,2,,,,,,,,,False,42,103,False,exp1.png,exp2.png,trial_right_image,-1,exp2.png,4,exp2.png,exp1.png,1,1,non-reversed,correct,0.24703400296467792,0,invalid_lose,582.8336469999995,71,,,,,,,,,,,,,,,sub_572,2024-01-12_11h34.55.267,Reversal,2023.1.3,60.02455004097984,4,
3,exp3.png,exp4.png,,,,,,,,,,,,,,,,,,2,0,2,0,0,3,3,3,,,,,,,,,False,43,104,True,exp4.png,exp3.png,trial_left_image,1,exp4.png,4,exp3.png,exp4.png,1,3,reversed,incorrect,0.805382143684316,0,valid_lose,587.0656735000002,71,,,,,,,,,,,,,,,sub_572,2024-01-12_11h34.55.267,Reversal,2023.1.3,60.02455004097984,4,
4,exp1.png,exp2.png,,,,,,,,,,,,,,,,,,2,0,2,0,0,4,4,4,,,,,,,,,False,44,105,False,exp1.png,exp2.png,trial_right_image,-1,exp2.png,4,exp2.png,exp1.png,1,1,non-reversed,correct,0.1923672644637463,0,invalid_lose,591.5809008999995,71,,,,,,,,,,,,,,,sub_572,2024-01-12_11h34.55.267,Reversal,2023.1.3,60.02455004097984,4,
5,exp3.png,exp4.png,,,,,,,,,,,,,,,,,,2,0,2,0,0,5,5,5,,,,,,,,,False,45,106,True,exp4.png,exp3.png,trial_left_image,1,exp4.png,4,exp3.png,exp4.png,1,3,reversed,incorrect,0.4766339145257772,0,valid_lose,596.6289293,71,,,,,,,,,,,,,,,sub_572,2024-01-12_11h34.55.267,Reversal,2023.1.3,60.02455004097984,4,
6,exp1.png,exp2.png,,,,,,,,,,,,,,,,,,2,0,2,0,0,6,6,6,,,,,,,,,False,46,107,False,exp1.png,exp2.png,trial_right_image,-1,exp2.png,4,exp2.png,exp1.png,1,1,non-reversed,correct,0.7517106602852112,1,valid_win,601.0606513000002,72,,,,,,,,,,,,,,,sub_572,2024-01-12_11h34.55.267,Reversal,2023.1.3,60.02455004097984,4,
7,exp3.png,exp4.png,,,,,,,,,,,,,,,,,,2,0,2,0,0,7,7,7,,,,,,,,,False,47,108,True,exp4.png,exp3.png,trial_left_image,1,exp4.png,4,exp3.png,exp4.png,1,3,reversed,incorrect,0.4148074388663081,0,valid_lose,605.3424310999999,72,,,,,,,,,,,,,,,sub_572,2024-01-12_11h34.55.267,Reversal,2023.1.3,60.02455004097984,4,
8,exp1.png,exp2.png,,,,,,,,,,,,,,,,,,2,0,2,0,0,8,8,8,,,,,,,,,False,48,109,True,exp2.png,exp1.png,trial_left_image,1,exp2.png,4,exp2.png,exp1.png,1,1,non-reversed,correct,0.0022119808254283946,0,invalid_lose,609.6078539,72,,,,,,,,,,,,,,,sub_572,2024-01-12_11h34.55.267,Reversal,2023.1.3,60.02455004097984,4,
9,exp3.png,exp4.png,,,,,,,,,,,,,,,,,,2,0,2,0,0,9,9,9,,,,,,,,,False,49,110,False,exp3.png,exp4.png,trial_right_image,-1,exp4.png,4,exp3.png,exp4.png,1,3,reversed,incorrect,0.592752806551251,0,valid_lose,613.9561235000001,72,,,,,,,,,,,,,,,sub_572,2024-01-12_11h34.55.267,Reversal,2023.1.3,60.02455004097984,4,
10,exp1.png,exp2.png,,,,,,,,,,,,,,,,,,2,0,2,0,0,10,10,10,,,,,,,,,False,50,111,False,exp1.png,exp2.png,trial_right_image,-1,exp2.png,4,exp2.png,exp1.png,1,1,non-reversed,correct,0.4365672554088257,1,valid_win,617.9212480999995,73,,,,,,,,,,,,,,,sub_572,2024-01-12_11h34.55.267,Reversal,2023.1.3,60.02455004097984,4,
11,exp3.png,exp4.png,,,,,,,,,,,,,,,,,,2,0,2,0,0,11,11,11,,,,,,,,,False,51,112,False,exp3.png,exp4.png,trial_right_image,-1,exp4.png,4,exp3.png,exp4.png,1,3,reversed,incorrect,0.1379603662684833,1,invalid_win,621.9535465999998,74,,,,,,,,,,,,,,,sub_572,2024-01-12_11h34.55.267,Reversal,2023.1.3,60.02455004097984,4,
12,exp1.png,exp2.png,,,,,,,,,,,,,,,,,,2,0,2,0,0,12,12,12,,,,,,,,,False,52,113,True,exp2.png,exp1.png,trial_left_image,1,exp2.png,4,exp2.png,exp1.png,1,1,non-reversed,correct,0.9132939033039761,1,valid_win,626.6025763999996,75,,,,,,,,,,,,,,,sub_572,2024-01-12_11h34.55.267,Reversal,2023.1.3,60.02455004097984,4,
13,exp3.png,exp4.png,,,,,,,,,,,,,,,,,,2,0,2,0,0,13,13,13,,,,,,,,,False,53,114,True,exp4.png,exp3.png,trial_left_image,1,exp4.png,4,exp3.png,exp4.png,1,3,reversed,incorrect,0.9536157878610174,0,valid_lose,631.4673093000001,75,,,,,,,,,,,,,,,sub_572,2024-01-12_11h34.55.267,Reversal,2023.1.3,60.02455004097984,4,
14,exp1.png,exp2.png,,,,,,,,,,,,,,,,,,2,0,2,0,0,14,14,14,,,,,,,,,False,54,115,False,exp1.png,exp2.png,trial_right_image,-1,exp2.png,4,exp2.png,exp1.png,1,1,non-reversed,correct,0.6237872659334319,1,valid_win,635.7988825000002,76,,,,,,,,,,,,,,,sub_572,2024-01-12_11h34.55.267,Reversal,2023.1.3,60.02455004097984,4,
15,exp3.png,exp4.png,,,,,,,,,,,,,,,,,,2,0,2,0,0,15,15,15,,,,,,,,,False,55,116,False,exp3.png,exp4.png,trial_right_image,-1,exp4.png,4,exp3.png,exp4.png,1,3,reversed,incorrect,0.5521025183451704,0,valid_lose,639.8478770000002,76,,,,,,,,,,,,,,,sub_572,2024-01-12_11h34.55.267,Reversal,2023.1.3,60.02455004097984,4,
16,exp1.png,exp2.png,,,,,,,,,,,,,,,,,,2,0,2,0,0,16,16,16,,,,,,,,,False,56,117,False,exp1.png,exp2.png,trial_right_image,-1,exp2.png,4,exp2.png,exp1.png,1,1,non-reversed,correct,0.18665169783536384,0,invalid_lose,643.9127452000002,76,,,,,,,,,,,,,,,sub_572,2024-01-12_11h34.55.267,Reversal,2023.1.3,60.02455004097984,4,
17,exp3.png,exp4.png,,,,,,,,,,,,,,,,,,2,0,2,0,0,17,17,17,,,,,,,,,False,57,118,False,exp3.png,exp4.png,trial_right_image,-1,exp4.png,4,exp3.png,exp4.png,1,3,reversed,incorrect,0.03851254592193165,1,invalid_win,657.5751125999996,77,,,,,,,,,,,,,,,sub_572,2024-01-12_11h34.55.267,Reversal,2023.1.3,60.02455004097984,4,
18,exp1.png,exp2.png,,,,,,,,,,,,,,,,,,2,0,2,0,0,18,18,18,,,,,,,,,False,58,119,True,exp2.png,exp1.png,trial_left_image,1,exp2.png,4,exp2.png,exp1.png,1,1,non-reversed,correct,0.027207697064082437,0,invalid_lose,672.0370118999999,77,,,,,,,,,,,,,,,sub_572,2024-01-12_11h34.55.267,Reversal,2023.1.3,60.02455004097984,4,
19,exp3.png,exp4.png,,,,,,,,,,,,,,,,,,2,0,2,0,0,19,19,19,,,,,,,,,False,59,120,True,exp4.png,exp3.png,trial_left_image,1,exp4.png,4,exp3.png,exp4.png,1,3,reversed,incorrect,0.8839019910384937,0,valid_lose,676.0685688000003,77,,,,,,,,,,,,,,,sub_572,2024-01-12_11h34.55.267,Reversal,2023.1.3,60.02455004097984,4,
20,exp1.png,exp2.png,,,,,,,,,,,,,,,,,,2,0,2,0,0,20,20,20,,,,,,,,,True,,,,,,,,,,,,,,,,,,,,,,,,,,,,,,,,,,,sub_572,2024-01-12_11h34.55.267,Reversal,2023.1.3,60.02455004097984,4,
,,,exp1.png,,,,,,,,,,,,,,,,,2,0,2,0,,,,,0,0,0,0,0,0,0,0,,,,,,,,,,,,,,,,,,,,,,751.0619040000001,13.0,13.0,1.3566596000000573,"[(13.0, 1.3566596000000573)]",,,,,,,,,,sub_572,2024-01-12_11h34.55.267,Reversal,2023.1.3,60.02455004097984,4,
,,,exp2.png,,,,,,,,,,,,,,,,,2,0,2,0,,,,,0,0,0,0,0,1,1,1,,,,,,,,,,,,,,,,,,,,,,753.7367599999998,,83.0,0.8783489999996164,"[(83.0, 0.8783489999996164)]",83.0,,,,,,,,,sub_572,2024-01-12_11h34.55.267,Reversal,2023.1.3,60.02455004097984,4,
,,,exp3.png,,,,,,,,,,,,,,,,,2,0,2,0,,,,,0,0,0,0,0,2,2,2,,,,,,,,,,,,,,,,,,,,,,755.3873890000004,,24.0,0.7606433999999354,"[(24.0, 0.7606433999999354)]",,24.0,,,,,,,,sub_572,2024-01-12_11h34.55.267,Reversal,2023.1.3,60.02455004097984,4,
,,,exp4.png,,,,,,,,,,,,,,,,,2,0,2,0,,,,,0,0,0,0,0,3,3,3,,,,,,,,,,,,,,,,,,,,,,757.1019524000003,,83.0,0.578104400000484,"[(83.0, 0.578104400000484)]",,,83.0,,,,,,,sub_572,2024-01-12_11h34.55.267,Reversal,2023.1.3,60.02455004097984,4,
,,,,,,,,,,,,,,,,,,,,,,,,,,,,,,,,,,,,,,,,,,,,,,,,,,,,,,,,77,,,,,,,,,,87,56,31,343.3236606999999,0,,,,,,,
