trial_index,trial_image1_file,trial_image2_file,image_file,learning_outer_loop.thisRepN,learning_outer_loop.thisTrialN,learning_outer_loop.thisN,learning_outer_loop.thisIndex,learning_inner_loop.thisRepN,learning_inner_loop.thisTrialN,learning_inner_loop.thisN,learning_inner_loop.thisIndex,learning_estimation_outer_loop.thisRepN,learning_estimation_outer_loop.thisTrialN,learning_estimation_outer_loop.thisN,learning_estimation_outer_loop.thisIndex,learning_estimation_inner_loop.thisRepN,learning_estimation_inner_loop.thisTrialN,learning_estimation_inner_loop.thisN,learning_estimation_inner_loop.thisIndex,reversal_outer_loop.thisRepN,reversal_outer_loop.thisTrialN,reversal_outer_loop.thisN,reversal_outer_loop.thisIndex,reversal_inner_loop.thisRepN,reversal_inner_loop.thisTrialN,reversal_inner_loop.thisN,reversal_inner_loop.thisIndex,reversal_estimation_outer_loop.thisRepN,reversal_estimation_outer_loop.thisTrialN,reversal_estimation_outer_loop.thisN,reversal_estimation_outer_loop.thisIndex,reversal_estimation_inner_loop.thisRepN,reversal_estimation_inner_loop.thisTrialN,reversal_estimation_inner_loop.thisN,reversal_estimation_inner_loop.thisIndex,skipped,total_trial_counter,trial_num,left_right_flip,left_image_file,right_image_file,clicked_stimulus_side,side,clicked_stimulus,version,high_prob_image_file,low_prob_image_file,choice_a,choice_b,pair_type,correct,trial_feedback_random,reward,trial_type,overall_time_after_trial,score,estimation_exp1.png,estimation_rating.response,estimation_rating.rt,estimation_rating.history,estimation_rating.started,estimation_rating.stopped,estimation_exp2.png,estimation_exp3.png,estimation_exp4.png,total_learning_time,total_correct,learning_correct,reversal_correct,total_reversal_time,extra_block,participant,date,expName,psychopyVersion,frameRate,ver,
0,exp1.png,exp2.png,,0,0,0,0,0,0,0,0,,,,,,,,,,,,,,,,,,,,,,,,,False,0,1,True,exp2.png,exp1.png,trial_right_image,-1,exp1.png,1,exp1.png,exp2.png,1,3,reversed,correct,0.9246554170471276,1,valid_win,4.183429099999557,1,,,,,,,,,,,,,,,,sub_489,2024-08-22_13h28.17.326,Reversal,2022.1.2,60.01363509768511,1,
1,exp3.png,exp4.png,,0,0,0,0,0,1,1,1,,,,,,,,,,,,,,,,,,,,,,,,,False,1,2,False,exp3.png,exp4.png,trial_left_image,1,exp3.png,1,exp3.png,exp4.png,1,1,non-reversed,correct,0.6866667596300703,1,valid_win,11.46589479999966,2,,,,,,,,,,,,,,,,sub_489,2024-08-22_13h28.17.326,Reversal,2022.1.2,60.01363509768511,1,
2,exp1.png,exp2.png,,0,0,0,0,0,2,2,2,,,,,,,,,,,,,,,,,,,,,,,,,False,2,3,True,exp2.png,exp1.png,trial_right_image,-1,exp1.png,1,exp1.png,exp2.png,1,3,reversed,correct,0.8993076363434307,1,valid_win,16.44920920000004,3,,,,,,,,,,,,,,,,sub_489,2024-08-22_13h28.17.326,Reversal,2022.1.2,60.01363509768511,1,
3,exp3.png,exp4.png,,0,0,0,0,0,3,3,3,,,,,,,,,,,,,,,,,,,,,,,,,False,3,4,False,exp3.png,exp4.png,trial_left_image,1,exp3.png,1,exp3.png,exp4.png,1,1,non-reversed,correct,0.11732831818629441,0,invalid_lose,22.79928959999961,3,,,,,,,,,,,,,,,,sub_489,2024-08-22_13h28.17.326,Reversal,2022.1.2,60.01363509768511,1,
4,exp1.png,exp2.png,,0,0,0,0,0,4,4,4,,,,,,,,,,,,,,,,,,,,,,,,,False,4,5,False,exp1.png,exp2.png,trial_right_image,-1,exp2.png,1,exp1.png,exp2.png,0,4,reversed,incorrect,0.2620356088835245,0,valid_lose,27.516266800000267,3,,,,,,,,,,,,,,,,sub_489,2024-08-22_13h28.17.326,Reversal,2022.1.2,60.01363509768511,1,
5,exp3.png,exp4.png,,0,0,0,0,0,5,5,5,,,,,,,,,,,,,,,,,,,,,,,,,False,5,6,False,exp3.png,exp4.png,trial_left_image,1,exp3.png,1,exp3.png,exp4.png,1,1,non-reversed,correct,0.5566070177413195,1,valid_win,40.8307192000002,4,,,,,,,,,,,,,,,,sub_489,2024-08-22_13h28.17.326,Reversal,2022.1.2,60.01363509768511,1,
6,exp1.png,exp2.png,,0,0,0,0,0,6,6,6,,,,,,,,,,,,,,,,,,,,,,,,,False,6,7,True,exp2.png,exp1.png,trial_right_image,-1,exp1.png,1,exp1.png,exp2.png,1,3,reversed,correct,0.835463757228311,1,valid_win,51.982141800000136,5,,,,,,,,,,,,,,,,sub_489,2024-08-22_13h28.17.326,Reversal,2022.1.2,60.01363509768511,1,
7,exp3.png,exp4.png,,0,0,0,0,0,7,7,7,,,,,,,,,,,,,,,,,,,,,,,,,False,7,8,False,exp3.png,exp4.png,trial_right_image,-1,exp4.png,1,exp3.png,exp4.png,0,2,non-reversed,incorrect,0.181553843184586,1,invalid_win,59.365388399999574,6,,,,,,,,,,,,,,,,sub_489,2024-08-22_13h28.17.326,Reversal,2022.1.2,60.01363509768511,1,
8,exp1.png,exp2.png,,0,0,0,0,0,8,8,8,,,,,,,,,,,,,,,,,,,,,,,,,False,8,9,False,exp1.png,exp2.png,trial_left_image,1,exp1.png,1,exp1.png,exp2.png,1,3,reversed,correct,0.5595788992900086,1,valid_win,64.83165219999955,7,,,,,,,,,,,,,,,,sub_489,2024-08-22_13h28.17.326,Reversal,2022.1.2,60.01363509768511,1,
9,exp3.png,exp4.png,,0,0,0,0,0,9,9,9,,,,,,,,,,,,,,,,,,,,,,,,,False,9,10,True,exp4.png,exp3.png,trial_left_image,1,exp4.png,1,exp3.png,exp4.png,0,2,non-reversed,incorrect,0.6198624430037767,0,valid_lose,71.03163519999998,7,,,,,,,,,,,,,,,,sub_489,2024-08-22_13h28.17.326,Reversal,2022.1.2,60.01363509768511,1,
10,exp1.png,exp2.png,,0,0,0,0,0,10,10,10,,,,,,,,,,,,,,,,,,,,,,,,,False,10,11,False,exp1.png,exp2.png,trial_left_image,1,exp1.png,1,exp1.png,exp2.png,1,3,reversed,correct,0.692652249638314,1,valid_win,77.04847770000015,8,,,,,,,,,,,,,,,,sub_489,2024-08-22_13h28.17.326,Reversal,2022.1.2,60.01363509768511,1,
11,exp3.png,exp4.png,,0,0,0,0,0,11,11,11,,,,,,,,,,,,,,,,,,,,,,,,,False,11,12,True,exp4.png,exp3.png,trial_right_image,-1,exp3.png,1,exp3.png,exp4.png,1,1,non-reversed,correct,0.16665805931976607,0,invalid_lose,83.29814410000017,8,,,,,,,,,,,,,,,,sub_489,2024-08-22_13h28.17.326,Reversal,2022.1.2,60.01363509768511,1,
12,exp1.png,exp2.png,,0,0,0,0,0,12,12,12,,,,,,,,,,,,,,,,,,,,,,,,,False,12,13,True,exp2.png,exp1.png,trial_right_image,-1,exp1.png,1,exp1.png,exp2.png,1,3,reversed,correct,0.2261318107391227,0,invalid_lose,88.96487539999998,8,,,,,,,,,,,,,,,,sub_489,2024-08-22_13h28.17.326,Reversal,2022.1.2,60.01363509768511,1,
13,exp3.png,exp4.png,,0,0,0,0,0,13,13,13,,,,,,,,,,,,,,,,,,,,,,,,,False,13,14,True,exp4.png,exp3.png,trial_right_image,-1,exp3.png,1,exp3.png,exp4.png,1,1,non-reversed,correct,0.16972132577319188,0,invalid_lose,99.08152179999979,8,,,,,,,,,,,,,,,,sub_489,2024-08-22_13h28.17.326,Reversal,2022.1.2,60.01363509768511,1,
14,exp1.png,exp2.png,,0,0,0,0,0,14,14,14,,,,,,,,,,,,,,,,,,,,,,,,,False,14,15,False,exp1.png,exp2.png,trial_left_image,1,exp1.png,1,exp1.png,exp2.png,1,3,reversed,correct,0.17665770966924776,0,invalid_lose,106.11502019999989,8,,,,,,,,,,,,,,,,sub_489,2024-08-22_13h28.17.326,Reversal,2022.1.2,60.01363509768511,1,
15,exp3.png,exp4.png,,0,0,0,0,0,15,15,15,,,,,,,,,,,,,,,,,,,,,,,,,False,15,16,False,exp3.png,exp4.png,trial_left_image,1,exp3.png,1,exp3.png,exp4.png,1,1,non-reversed,correct,0.25874060258406684,1,valid_win,113.03104929999972,9,,,,,,,,,,,,,,,,sub_489,2024-08-22_13h28.17.326,Reversal,2022.1.2,60.01363509768511,1,
16,exp1.png,exp2.png,,0,0,0,0,0,16,16,16,,,,,,,,,,,,,,,,,,,,,,,,,False,16,17,True,exp2.png,exp1.png,trial_right_image,-1,exp1.png,1,exp1.png,exp2.png,1,3,reversed,correct,0.47449234902685955,1,valid_win,121.19748479999998,10,,,,,,,,,,,,,,,,sub_489,2024-08-22_13h28.17.326,Reversal,2022.1.2,60.01363509768511,1,
17,exp3.png,exp4.png,,0,0,0,0,0,17,17,17,,,,,,,,,,,,,,,,,,,,,,,,,False,17,18,True,exp4.png,exp3.png,trial_right_image,-1,exp3.png,1,exp3.png,exp4.png,1,1,non-reversed,correct,0.8328144434338899,1,valid_win,126.3460954000002,11,,,,,,,,,,,,,,,,sub_489,2024-08-22_13h28.17.326,Reversal,2022.1.2,60.01363509768511,1,
18,exp1.png,exp2.png,,0,0,0,0,0,18,18,18,,,,,,,,,,,,,,,,,,,,,,,,,False,18,19,False,exp1.png,exp2.png,trial_left_image,1,exp1.png,1,exp1.png,exp2.png,1,3,reversed,correct,0.0008081374326669444,0,invalid_lose,133.04632370000036,11,,,,,,,,,,,,,,,,sub_489,2024-08-22_13h28.17.326,Reversal,2022.1.2,60.01363509768511,1,
19,exp3.png,exp4.png,,0,0,0,0,0,19,19,19,,,,,,,,,,,,,,,,,,,,,,,,,False,19,20,True,exp4.png,exp3.png,trial_left_image,1,exp4.png,1,exp3.png,exp4.png,0,2,non-reversed,incorrect,0.6723311363935673,0,valid_lose,138.8623717999999,11,,,,,,,,,,,,,,,,sub_489,2024-08-22_13h28.17.326,Reversal,2022.1.2,60.01363509768511,1,
20,exp1.png,exp2.png,,0,0,0,0,0,20,20,20,,,,,,,,,,,,,,,,,,,,,,,,,True,,,,,,,,,,,,,,,,,,,,,,,,,,,,,,,,,,,,sub_489,2024-08-22_13h28.17.326,Reversal,2022.1.2,60.01363509768511,1,
,,,exp1.png,0,0,0,0,,,,,0,0,0,0,0,0,0,0,,,,,,,,,,,,,,,,,,,,,,,,,,,,,,,,,,,,,,100.0,100.0,6.668368099999498,"[(100.0, 6.668368099999498)]",223.3195284000003,None,,,,,,,,,,sub_489,2024-08-22_13h28.17.326,Reversal,2022.1.2,60.01363509768511,1,
,,,exp2.png,0,0,0,0,,,,,0,0,0,0,0,1,1,1,,,,,,,,,,,,,,,,,,,,,,,,,,,,,,,,,,,,,,,1.0,3.550150600000052,"[(1.0, 3.550150600000052)]",231.17598870000074,None,1.0,,,,,,,,,sub_489,2024-08-22_13h28.17.326,Reversal,2022.1.2,60.01363509768511,1,
,,,exp3.png,0,0,0,0,,,,,0,0,0,0,0,2,2,2,,,,,,,,,,,,,,,,,,,,,,,,,,,,,,,,,,,,,,,25.0,2.151580200000353,"[(25.0, 2.151580200000353)]",235.95998500000042,None,,25.0,,,,,,,,sub_489,2024-08-22_13h28.17.326,Reversal,2022.1.2,60.01363509768511,1,
,,,exp4.png,0,0,0,0,,,,,0,0,0,0,0,3,3,3,,,,,,,,,,,,,,,,,,,,,,,,,,,,,,,,,,,,,,,28.0,2.067819600000803,"[(28.0, 2.067819600000803)]",239.08895140000004,None,,,28.0,,,,,,,sub_489,2024-08-22_13h28.17.326,Reversal,2022.1.2,60.01363509768511,1,
0,exp1.png,exp2.png,,1,0,1,0,0,0,0,0,,,,,,,,,,,,,,,,,,,,,,,,,False,20,21,True,exp2.png,exp1.png,trial_right_image,-1,exp1.png,1,exp1.png,exp2.png,1,3,reversed,correct,0.8047163534540461,1,valid_win,168.5954486999999,12,,,,,,,,,,,,,,,,sub_489,2024-08-22_13h28.17.326,Reversal,2022.1.2,60.01363509768511,1,
1,exp3.png,exp4.png,,1,0,1,0,0,1,1,1,,,,,,,,,,,,,,,,,,,,,,,,,False,21,22,True,exp4.png,exp3.png,trial_right_image,-1,exp3.png,1,exp3.png,exp4.png,1,1,non-reversed,correct,0.34919353107046336,1,valid_win,173.91193490000023,13,,,,,,,,,,,,,,,,sub_489,2024-08-22_13h28.17.326,Reversal,2022.1.2,60.01363509768511,1,
2,exp1.png,exp2.png,,1,0,1,0,0,2,2,2,,,,,,,,,,,,,,,,,,,,,,,,,False,22,23,False,exp1.png,exp2.png,trial_right_image,-1,exp2.png,1,exp1.png,exp2.png,0,4,reversed,incorrect,0.6198186658454551,0,valid_lose,178.64516339999955,13,,,,,,,,,,,,,,,,sub_489,2024-08-22_13h28.17.326,Reversal,2022.1.2,60.01363509768511,1,
3,exp3.png,exp4.png,,1,0,1,0,0,3,3,3,,,,,,,,,,,,,,,,,,,,,,,,,False,23,24,False,exp3.png,exp4.png,trial_right_image,-1,exp4.png,1,exp3.png,exp4.png,0,2,non-reversed,incorrect,0.36159726455220664,0,valid_lose,186.69522909999978,13,,,,,,,,,,,,,,,,sub_489,2024-08-22_13h28.17.326,Reversal,2022.1.2,60.01363509768511,1,
4,exp1.png,exp2.png,,1,0,1,0,0,4,4,4,,,,,,,,,,,,,,,,,,,,,,,,,False,24,25,False,exp1.png,exp2.png,trial_left_image,1,exp1.png,1,exp1.png,exp2.png,1,3,reversed,correct,0.9930255618678254,1,valid_win,191.16172219999953,14,,,,,,,,,,,,,,,,sub_489,2024-08-22_13h28.17.326,Reversal,2022.1.2,60.01363509768511,1,
5,exp3.png,exp4.png,,1,0,1,0,0,5,5,5,,,,,,,,,,,,,,,,,,,,,,,,,False,25,26,True,exp4.png,exp3.png,trial_right_image,-1,exp3.png,1,exp3.png,exp4.png,1,1,non-reversed,correct,0.07607374743373418,0,invalid_lose,196.02827340000022,14,,,,,,,,,,,,,,,,sub_489,2024-08-22_13h28.17.326,Reversal,2022.1.2,60.01363509768511,1,
6,exp1.png,exp2.png,,1,0,1,0,0,6,6,6,,,,,,,,,,,,,,,,,,,,,,,,,False,26,27,True,exp2.png,exp1.png,trial_right_image,-1,exp1.png,1,exp1.png,exp2.png,1,3,reversed,correct,0.39399695698858594,1,valid_win,202.3115232,15,,,,,,,,,,,,,,,,sub_489,2024-08-22_13h28.17.326,Reversal,2022.1.2,60.01363509768511,1,
7,exp3.png,exp4.png,,1,0,1,0,0,7,7,7,,,,,,,,,,,,,,,,,,,,,,,,,False,27,28,False,exp3.png,exp4.png,trial_right_image,-1,exp4.png,1,exp3.png,exp4.png,0,2,non-reversed,incorrect,0.7195841730155723,0,valid_lose,207.16159549999975,15,,,,,,,,,,,,,,,,sub_489,2024-08-22_13h28.17.326,Reversal,2022.1.2,60.01363509768511,1,
8,exp1.png,exp2.png,,1,0,1,0,0,8,8,8,,,,,,,,,,,,,,,,,,,,,,,,,False,28,29,True,exp2.png,exp1.png,trial_right_image,-1,exp1.png,1,exp1.png,exp2.png,1,3,reversed,correct,0.056932878947459464,0,invalid_lose,212.76140299999952,15,,,,,,,,,,,,,,,,sub_489,2024-08-22_13h28.17.326,Reversal,2022.1.2,60.01363509768511,1,
9,exp3.png,exp4.png,,1,0,1,0,0,9,9,9,,,,,,,,,,,,,,,,,,,,,,,,,False,29,30,False,exp3.png,exp4.png,trial_left_image,1,exp3.png,1,exp3.png,exp4.png,1,1,non-reversed,correct,0.11718437757977762,0,invalid_lose,218.56114079999952,15,,,,,,,,,,,,,,,,sub_489,2024-08-22_13h28.17.326,Reversal,2022.1.2,60.01363509768511,1,
10,exp1.png,exp2.png,,1,0,1,0,0,10,10,10,,,,,,,,,,,,,,,,,,,,,,,,,False,30,31,False,exp1.png,exp2.png,trial_left_image,1,exp1.png,1,exp1.png,exp2.png,1,3,reversed,correct,0.863758074988376,1,valid_win,224.16112710000016,16,,,,,,,,,,,,,,,,sub_489,2024-08-22_13h28.17.326,Reversal,2022.1.2,60.01363509768511,1,
11,exp3.png,exp4.png,,1,0,1,0,0,11,11,11,,,,,,,,,,,,,,,,,,,,,,,,,False,31,32,False,exp3.png,exp4.png,trial_right_image,-1,exp4.png,1,exp3.png,exp4.png,0,2,non-reversed,incorrect,0.3259185433923938,0,valid_lose,229.8452116999997,16,,,,,,,,,,,,,,,,sub_489,2024-08-22_13h28.17.326,Reversal,2022.1.2,60.01363509768511,1,
12,exp1.png,exp2.png,,1,0,1,0,0,12,12,12,,,,,,,,,,,,,,,,,,,,,,,,,False,32,33,False,exp1.png,exp2.png,trial_left_image,1,exp1.png,1,exp1.png,exp2.png,1,3,reversed,correct,0.09044783518471022,0,invalid_lose,234.1292969999995,16,,,,,,,,,,,,,,,,sub_489,2024-08-22_13h28.17.326,Reversal,2022.1.2,60.01363509768511,1,
13,exp3.png,exp4.png,,1,0,1,0,0,13,13,13,,,,,,,,,,,,,,,,,,,,,,,,,False,33,34,True,exp4.png,exp3.png,trial_left_image,1,exp4.png,1,exp3.png,exp4.png,0,2,non-reversed,incorrect,0.6698004449768645,0,valid_lose,239.3460613999996,16,,,,,,,,,,,,,,,,sub_489,2024-08-22_13h28.17.326,Reversal,2022.1.2,60.01363509768511,1,
14,exp1.png,exp2.png,,1,0,1,0,0,14,14,14,,,,,,,,,,,,,,,,,,,,,,,,,False,34,35,True,exp2.png,exp1.png,trial_right_image,-1,exp1.png,1,exp1.png,exp2.png,1,3,reversed,correct,0.22145129065548397,0,invalid_lose,243.86263140000028,16,,,,,,,,,,,,,,,,sub_489,2024-08-22_13h28.17.326,Reversal,2022.1.2,60.01363509768511,1,
15,exp3.png,exp4.png,,1,0,1,0,0,15,15,15,,,,,,,,,,,,,,,,,,,,,,,,,False,35,36,True,exp4.png,exp3.png,trial_right_image,-1,exp3.png,1,exp3.png,exp4.png,1,1,non-reversed,correct,0.11510590383278352,0,invalid_lose,248.36272660000031,16,,,,,,,,,,,,,,,,sub_489,2024-08-22_13h28.17.326,Reversal,2022.1.2,60.01363509768511,1,
16,exp1.png,exp2.png,,1,0,1,0,0,16,16,16,,,,,,,,,,,,,,,,,,,,,,,,,False,36,37,True,exp2.png,exp1.png,trial_left_image,1,exp2.png,1,exp1.png,exp2.png,0,4,reversed,incorrect,0.5007196329618068,0,valid_lose,253.14577110000027,16,,,,,,,,,,,,,,,,sub_489,2024-08-22_13h28.17.326,Reversal,2022.1.2,60.01363509768511,1,
17,exp3.png,exp4.png,,1,0,1,0,0,17,17,17,,,,,,,,,,,,,,,,,,,,,,,,,False,37,38,True,exp4.png,exp3.png,trial_right_image,-1,exp3.png,1,exp3.png,exp4.png,1,1,non-reversed,correct,0.014132844071984563,0,invalid_lose,257.5951079999995,16,,,,,,,,,,,,,,,,sub_489,2024-08-22_13h28.17.326,Reversal,2022.1.2,60.01363509768511,1,
18,exp1.png,exp2.png,,1,0,1,0,0,18,18,18,,,,,,,,,,,,,,,,,,,,,,,,,False,38,39,False,exp1.png,exp2.png,trial_left_image,1,exp1.png,1,exp1.png,exp2.png,1,3,reversed,correct,0.1662962227860243,0,invalid_lose,261.9783443999995,16,,,,,,,,,,,,,,,,sub_489,2024-08-22_13h28.17.326,Reversal,2022.1.2,60.01363509768511,1,
19,exp3.png,exp4.png,,1,0,1,0,0,19,19,19,,,,,,,,,,,,,,,,,,,,,,,,,False,39,40,False,exp3.png,exp4.png,trial_right_image,-1,exp4.png,1,exp3.png,exp4.png,0,2,non-reversed,incorrect,0.37719895371181533,0,valid_lose,266.2453266000002,16,,,,,,,,,,,,,,,,sub_489,2024-08-22_13h28.17.326,Reversal,2022.1.2,60.01363509768511,1,
20,exp1.png,exp2.png,,1,0,1,0,0,20,20,20,,,,,,,,,,,,,,,,,,,,,,,,,True,,,,,,,,,,,,,,,,,,,,,,,,,,,,,,,,,,,,sub_489,2024-08-22_13h28.17.326,Reversal,2022.1.2,60.01363509768511,1,
,,,exp1.png,1,0,1,0,,,,,0,0,0,0,0,0,0,0,,,,,,,,,,,,,,,,,,,,,,,,,,,,,,,,,,,,,,66.0,66.0,3.7435107999999673,"[(66.0, 3.7435107999999673)]",350.8088703000003,None,,,,,,,,,,sub_489,2024-08-22_13h28.17.326,Reversal,2022.1.2,60.01363509768511,1,
,,,exp2.png,1,0,1,0,,,,,0,0,0,0,0,1,1,1,,,,,,,,,,,,,,,,,,,,,,,,,,,,,,,,,,,,,,,35.0,1.1172623000002204,"[(35.0, 1.1172623000002204)]",355.4047586000006,None,35.0,,,,,,,,,sub_489,2024-08-22_13h28.17.326,Reversal,2022.1.2,60.01363509768511,1,
,,,exp3.png,1,0,1,0,,,,,0,0,0,0,0,2,2,2,,,,,,,,,,,,,,,,,,,,,,,,,,,,,,,,,,,,,,,58.0,1.0327668999998423,"[(58.0, 1.0327668999998423)]",357.3554182000007,None,,58.0,,,,,,,,sub_489,2024-08-22_13h28.17.326,Reversal,2022.1.2,60.01363509768511,1,
,,,exp4.png,1,0,1,0,,,,,0,0,0,0,0,3,3,3,,,,,,,,,,,,,,,,,,,,,,,,,,,,,,,,,,,,,,,40.0,0.9191339999997581,"[(40.0, 0.9191339999997581)]",359.27216840000074,None,,,40.0,,,,,,,sub_489,2024-08-22_13h28.17.326,Reversal,2022.1.2,60.01363509768511,1,
0,exp1.png,exp2.png,,2,0,2,0,0,0,0,0,,,,,,,,,,,,,,,,,,,,,,,,,False,40,41,False,exp1.png,exp2.png,trial_left_image,1,exp1.png,1,exp1.png,exp2.png,1,3,reversed,correct,0.14635134347234735,0,invalid_lose,281.4103379999997,16,,,,,,,,,,,,,,,,sub_489,2024-08-22_13h28.17.326,Reversal,2022.1.2,60.01363509768511,1,
1,exp3.png,exp4.png,,2,0,2,0,0,1,1,1,,,,,,,,,,,,,,,,,,,,,,,,,False,41,42,True,exp4.png,exp3.png,trial_right_image,-1,exp3.png,1,exp3.png,exp4.png,1,1,non-reversed,correct,0.19660697635689384,0,invalid_lose,286.10994029999983,16,,,,,,,,,,,,,,,,sub_489,2024-08-22_13h28.17.326,Reversal,2022.1.2,60.01363509768511,1,
2,exp1.png,exp2.png,,2,0,2,0,0,2,2,2,,,,,,,,,,,,,,,,,,,,,,,,,False,42,43,True,exp2.png,exp1.png,trial_right_image,-1,exp1.png,1,exp1.png,exp2.png,1,3,reversed,correct,0.9532891041262691,1,valid_win,291.7934140999996,17,,,,,,,,,,,,,,,,sub_489,2024-08-22_13h28.17.326,Reversal,2022.1.2,60.01363509768511,1,
3,exp3.png,exp4.png,,2,0,2,0,0,3,3,3,,,,,,,,,,,,,,,,,,,,,,,,,False,43,44,False,exp3.png,exp4.png,trial_left_image,1,exp3.png,1,exp3.png,exp4.png,1,1,non-reversed,correct,0.6665161077738568,1,valid_win,296.35975640000015,18,,,,,,,,,,,,,,,,sub_489,2024-08-22_13h28.17.326,Reversal,2022.1.2,60.01363509768511,1,
4,exp1.png,exp2.png,,2,0,2,0,0,4,4,4,,,,,,,,,,,,,,,,,,,,,,,,,False,44,45,False,exp1.png,exp2.png,trial_right_image,-1,exp2.png,1,exp1.png,exp2.png,0,4,reversed,incorrect,0.3239873607424768,0,valid_lose,301.55979109999953,18,,,,,,,,,,,,,,,,sub_489,2024-08-22_13h28.17.326,Reversal,2022.1.2,60.01363509768511,1,
5,exp3.png,exp4.png,,2,0,2,0,0,5,5,5,,,,,,,,,,,,,,,,,,,,,,,,,False,45,46,True,exp4.png,exp3.png,trial_right_image,-1,exp3.png,1,exp3.png,exp4.png,1,1,non-reversed,correct,0.1939406482079321,0,invalid_lose,305.9928812999997,18,,,,,,,,,,,,,,,,sub_489,2024-08-22_13h28.17.326,Reversal,2022.1.2,60.01363509768511,1,
6,exp1.png,exp2.png,,2,0,2,0,0,6,6,6,,,,,,,,,,,,,,,,,,,,,,,,,False,46,47,False,exp1.png,exp2.png,trial_left_image,1,exp1.png,1,exp1.png,exp2.png,1,3,reversed,correct,0.8270969676811242,1,valid_win,310.4096141,19,,,,,,,,,,,,,,,,sub_489,2024-08-22_13h28.17.326,Reversal,2022.1.2,60.01363509768511,1,
7,exp3.png,exp4.png,,2,0,2,0,0,7,7,7,,,,,,,,,,,,,,,,,,,,,,,,,False,47,48,False,exp3.png,exp4.png,trial_left_image,1,exp3.png,1,exp3.png,exp4.png,1,1,non-reversed,correct,0.18511404393340536,0,invalid_lose,314.8261311999995,19,,,,,,,,,,,,,,,,sub_489,2024-08-22_13h28.17.326,Reversal,2022.1.2,60.01363509768511,1,
8,exp1.png,exp2.png,,2,0,2,0,0,8,8,8,,,,,,,,,,,,,,,,,,,,,,,,,False,48,49,False,exp1.png,exp2.png,trial_left_image,1,exp1.png,1,exp1.png,exp2.png,1,3,reversed,correct,0.18150065406265636,0,invalid_lose,318.99299020000035,19,,,,,,,,,,,,,,,,sub_489,2024-08-22_13h28.17.326,Reversal,2022.1.2,60.01363509768511,1,
9,exp3.png,exp4.png,,2,0,2,0,0,9,9,9,,,,,,,,,,,,,,,,,,,,,,,,,False,49,50,True,exp4.png,exp3.png,trial_right_image,-1,exp3.png,1,exp3.png,exp4.png,1,1,non-reversed,correct,0.17475097597324485,0,invalid_lose,323.12602760000027,19,,,,,,,,,,,,,,,,sub_489,2024-08-22_13h28.17.326,Reversal,2022.1.2,60.01363509768511,1,
10,exp1.png,exp2.png,,2,0,2,0,0,10,10,10,,,,,,,,,,,,,,,,,,,,,,,,,False,50,51,True,exp2.png,exp1.png,trial_right_image,-1,exp1.png,1,exp1.png,exp2.png,1,3,reversed,correct,0.7450281309405218,1,valid_win,327.2263376000001,20,,,,,,,,,,,,,,,,sub_489,2024-08-22_13h28.17.326,Reversal,2022.1.2,60.01363509768511,1,
11,exp3.png,exp4.png,,2,0,2,0,0,11,11,11,,,,,,,,,,,,,,,,,,,,,,,,,False,51,52,True,exp4.png,exp3.png,trial_right_image,-1,exp3.png,1,exp3.png,exp4.png,1,1,non-reversed,correct,0.3403748677911649,1,valid_win,331.7431137000003,21,,,,,,,,,,,,,,,,sub_489,2024-08-22_13h28.17.326,Reversal,2022.1.2,60.01363509768511,1,
12,exp1.png,exp2.png,,2,0,2,0,0,12,12,12,,,,,,,,,,,,,,,,,,,,,,,,,False,52,53,False,exp1.png,exp2.png,trial_right_image,-1,exp2.png,1,exp1.png,exp2.png,0,4,reversed,incorrect,0.8779741587302682,0,valid_lose,336.27598149999994,21,,,,,,,,,,,,,,,,sub_489,2024-08-22_13h28.17.326,Reversal,2022.1.2,60.01363509768511,1,
13,exp3.png,exp4.png,,2,0,2,0,0,13,13,13,,,,,,,,,,,,,,,,,,,,,,,,,False,53,54,True,exp4.png,exp3.png,trial_right_image,-1,exp3.png,1,exp3.png,exp4.png,1,1,non-reversed,correct,0.3303567868338181,1,valid_win,340.47605959999964,22,,,,,,,,,,,,,,,,sub_489,2024-08-22_13h28.17.326,Reversal,2022.1.2,60.01363509768511,1,
14,exp1.png,exp2.png,,2,0,2,0,0,14,14,14,,,,,,,,,,,,,,,,,,,,,,,,,False,54,55,True,exp2.png,exp1.png,trial_right_image,-1,exp1.png,1,exp1.png,exp2.png,1,3,reversed,correct,0.2730182921553653,1,valid_win,344.91012409999985,23,,,,,,,,,,,,,,,,sub_489,2024-08-22_13h28.17.326,Reversal,2022.1.2,60.01363509768511,1,
15,exp3.png,exp4.png,,2,0,2,0,0,15,15,15,,,,,,,,,,,,,,,,,,,,,,,,,False,55,56,False,exp3.png,exp4.png,trial_left_image,1,exp3.png,1,exp3.png,exp4.png,1,1,non-reversed,correct,0.8524659816438249,1,valid_win,350.17598799999996,24,,,,,,,,,,,,,,,,sub_489,2024-08-22_13h28.17.326,Reversal,2022.1.2,60.01363509768511,1,
16,exp1.png,exp2.png,,2,0,2,0,0,16,16,16,,,,,,,,,,,,,,,,,,,,,,,,,False,56,57,False,exp1.png,exp2.png,trial_right_image,-1,exp2.png,1,exp1.png,exp2.png,0,4,reversed,incorrect,0.23062534642303434,1,invalid_win,356.9924125999996,25,,,,,,,,,,,,,,,,sub_489,2024-08-22_13h28.17.326,Reversal,2022.1.2,60.01363509768511,1,
17,exp3.png,exp4.png,,2,0,2,0,0,17,17,17,,,,,,,,,,,,,,,,,,,,,,,,,False,57,58,True,exp4.png,exp3.png,trial_right_image,-1,exp3.png,1,exp3.png,exp4.png,1,1,non-reversed,correct,0.8835498214219413,1,valid_win,361.7422977999995,26,,,,,,,,,,,,,,,,sub_489,2024-08-22_13h28.17.326,Reversal,2022.1.2,60.01363509768511,1,
18,exp1.png,exp2.png,,2,0,2,0,0,18,18,18,,,,,,,,,,,,,,,,,,,,,,,,,False,58,59,False,exp1.png,exp2.png,trial_left_image,1,exp1.png,1,exp1.png,exp2.png,1,3,reversed,correct,0.745431925381239,1,valid_win,365.9936308999995,27,,,,,,,,,,,,,,,,sub_489,2024-08-22_13h28.17.326,Reversal,2022.1.2,60.01363509768511,1,
19,exp3.png,exp4.png,,2,0,2,0,0,19,19,19,,,,,,,,,,,,,,,,,,,,,,,,,False,59,60,True,exp4.png,exp3.png,trial_right_image,-1,exp3.png,1,exp3.png,exp4.png,1,1,non-reversed,correct,0.20616880637657387,0,invalid_lose,370.20862549999947,27,,,,,,,,,,,,,,,,sub_489,2024-08-22_13h28.17.326,Reversal,2022.1.2,60.01363509768511,1,
20,exp1.png,exp2.png,,2,0,2,0,0,20,20,20,,,,,,,,,,,,,,,,,,,,,,,,,True,,,,,,,,,,,,,,,,,,,,,,,,,,,,,,,,,,,,sub_489,2024-08-22_13h28.17.326,Reversal,2022.1.2,60.01363509768511,1,
,,,exp1.png,2,0,2,0,,,,,0,0,0,0,0,0,0,0,,,,,,,,,,,,,,,,,,,,,,,,,,,,,,,,,,,,,,57.0,57.0,2.2833559999999125,"[(57.0, 2.2833559999999125)]",454.67409940000016,None,,,,,,,,,,sub_489,2024-08-22_13h28.17.326,Reversal,2022.1.2,60.01363509768511,1,
,,,exp2.png,2,0,2,0,,,,,0,0,0,0,0,1,1,1,,,,,,,,,,,,,,,,,,,,,,,,,,,,,,,,,,,,,,,43.0,1.8520634000005884,"[(43.0, 1.8520634000005884)]",458.22014650000074,None,43.0,,,,,,,,,sub_489,2024-08-22_13h28.17.326,Reversal,2022.1.2,60.01363509768511,1,
,,,exp3.png,2,0,2,0,,,,,0,0,0,0,0,2,2,2,,,,,,,,,,,,,,,,,,,,,,,,,,,,,,,,,,,,,,,53.0,0.8494593999994322,"[(53.0, 0.8494593999994322)]",461.0036619000002,None,,53.0,,,,,,,,sub_489,2024-08-22_13h28.17.326,Reversal,2022.1.2,60.01363509768511,1,
,,,exp4.png,2,0,2,0,,,,,0,0,0,0,0,3,3,3,,,,,,,,,,,,,,,,,,,,,,,,,,,,,,,,,,,,,,,45.0,0.8854578000000402,"[(45.0, 0.8854578000000402)]",462.8846330000006,None,,,45.0,,,,,,,sub_489,2024-08-22_13h28.17.326,Reversal,2022.1.2,60.01363509768511,1,
0,exp1.png,exp2.png,,,,,,,,,,,,,,,,,,0,0,0,0,0,0,0,0,,,,,,,,,False,0,61,False,exp1.png,exp2.png,trial_left_image,1,exp1.png,1,exp2.png,exp1.png,1,3,reversed,incorrect,0.7080233948581485,0,valid_lose,387.3588036000001,27,,,,,,,,,,382.6859267,,,,,,sub_489,2024-08-22_13h28.17.326,Reversal,2022.1.2,60.01363509768511,1,
1,exp3.png,exp4.png,,,,,,,,,,,,,,,,,,0,0,0,0,0,1,1,1,,,,,,,,,False,1,62,True,exp4.png,exp3.png,trial_right_image,-1,exp3.png,1,exp3.png,exp4.png,1,1,non-reversed,correct,0.5696022384948358,1,valid_win,392.35939959999996,28,,,,,,,,,,,,,,,,sub_489,2024-08-22_13h28.17.326,Reversal,2022.1.2,60.01363509768511,1,
2,exp1.png,exp2.png,,,,,,,,,,,,,,,,,,0,0,0,0,0,2,2,2,,,,,,,,,False,2,63,True,exp2.png,exp1.png,trial_right_image,-1,exp1.png,1,exp2.png,exp1.png,1,3,reversed,incorrect,0.05743668698667759,1,invalid_win,402.67481059999955,29,,,,,,,,,,,,,,,,sub_489,2024-08-22_13h28.17.326,Reversal,2022.1.2,60.01363509768511,1,
3,exp3.png,exp4.png,,,,,,,,,,,,,,,,,,0,0,0,0,0,3,3,3,,,,,,,,,False,3,64,True,exp4.png,exp3.png,trial_right_image,-1,exp3.png,1,exp3.png,exp4.png,1,1,non-reversed,correct,0.44878908985630417,1,valid_win,407.15970579999976,30,,,,,,,,,,,,,,,,sub_489,2024-08-22_13h28.17.326,Reversal,2022.1.2,60.01363509768511,1,
4,exp1.png,exp2.png,,,,,,,,,,,,,,,,,,0,0,0,0,0,4,4,4,,,,,,,,,False,4,65,False,exp1.png,exp2.png,trial_left_image,1,exp1.png,1,exp2.png,exp1.png,1,3,reversed,incorrect,0.7462048723350914,0,valid_lose,411.5058466999999,30,,,,,,,,,,,,,,,,sub_489,2024-08-22_13h28.17.326,Reversal,2022.1.2,60.01363509768511,1,
5,exp3.png,exp4.png,,,,,,,,,,,,,,,,,,0,0,0,0,0,5,5,5,,,,,,,,,False,5,66,False,exp3.png,exp4.png,trial_right_image,-1,exp4.png,1,exp3.png,exp4.png,0,2,non-reversed,incorrect,0.5739094616494352,0,valid_lose,416.21038529999987,30,,,,,,,,,,,,,,,,sub_489,2024-08-22_13h28.17.326,Reversal,2022.1.2,60.01363509768511,1,
6,exp1.png,exp2.png,,,,,,,,,,,,,,,,,,0,0,0,0,0,6,6,6,,,,,,,,,False,6,67,False,exp1.png,exp2.png,trial_left_image,1,exp1.png,1,exp2.png,exp1.png,1,3,reversed,incorrect,0.9955075472686211,0,valid_lose,420.5274161999996,30,,,,,,,,,,,,,,,,sub_489,2024-08-22_13h28.17.326,Reversal,2022.1.2,60.01363509768511,1,
7,exp3.png,exp4.png,,,,,,,,,,,,,,,,,,0,0,0,0,0,7,7,7,,,,,,,,,False,7,68,False,exp3.png,exp4.png,trial_right_image,-1,exp4.png,1,exp3.png,exp4.png,0,2,non-reversed,incorrect,0.9615438817670978,0,valid_lose,425.0586309999999,30,,,,,,,,,,,,,,,,sub_489,2024-08-22_13h28.17.326,Reversal,2022.1.2,60.01363509768511,1,
8,exp1.png,exp2.png,,,,,,,,,,,,,,,,,,0,0,0,0,0,8,8,8,,,,,,,,,False,8,69,True,exp2.png,exp1.png,trial_right_image,-1,exp1.png,1,exp2.png,exp1.png,1,3,reversed,incorrect,0.7828046591753913,0,valid_lose,429.34126659999947,30,,,,,,,,,,,,,,,,sub_489,2024-08-22_13h28.17.326,Reversal,2022.1.2,60.01363509768511,1,
9,exp3.png,exp4.png,,,,,,,,,,,,,,,,,,0,0,0,0,0,9,9,9,,,,,,,,,False,9,70,False,exp3.png,exp4.png,trial_right_image,-1,exp4.png,1,exp3.png,exp4.png,0,2,non-reversed,incorrect,0.7558680229904781,0,valid_lose,434.2075837000002,30,,,,,,,,,,,,,,,,sub_489,2024-08-22_13h28.17.326,Reversal,2022.1.2,60.01363509768511,1,
10,exp1.png,exp2.png,,,,,,,,,,,,,,,,,,0,0,0,0,0,10,10,10,,,,,,,,,False,10,71,True,exp2.png,exp1.png,trial_right_image,-1,exp1.png,1,exp2.png,exp1.png,1,3,reversed,incorrect,0.09310281455798297,1,invalid_win,438.67434109999976,31,,,,,,,,,,,,,,,,sub_489,2024-08-22_13h28.17.326,Reversal,2022.1.2,60.01363509768511,1,
11,exp3.png,exp4.png,,,,,,,,,,,,,,,,,,0,0,0,0,0,11,11,11,,,,,,,,,False,11,72,False,exp3.png,exp4.png,trial_left_image,1,exp3.png,1,exp3.png,exp4.png,1,1,non-reversed,correct,0.482957241832487,1,valid_win,444.0409098,32,,,,,,,,,,,,,,,,sub_489,2024-08-22_13h28.17.326,Reversal,2022.1.2,60.01363509768511,1,
12,exp1.png,exp2.png,,,,,,,,,,,,,,,,,,0,0,0,0,0,12,12,12,,,,,,,,,False,12,73,True,exp2.png,exp1.png,trial_left_image,1,exp2.png,1,exp2.png,exp1.png,0,4,reversed,correct,0.8760300564301698,1,valid_win,449.890977,33,,,,,,,,,,,,,,,,sub_489,2024-08-22_13h28.17.326,Reversal,2022.1.2,60.01363509768511,1,
13,exp3.png,exp4.png,,,,,,,,,,,,,,,,,,0,0,0,0,0,13,13,13,,,,,,,,,False,13,74,True,exp4.png,exp3.png,trial_right_image,-1,exp3.png,1,exp3.png,exp4.png,1,1,non-reversed,correct,0.39119603967094374,1,valid_win,454.4905170000002,34,,,,,,,,,,,,,,,,sub_489,2024-08-22_13h28.17.326,Reversal,2022.1.2,60.01363509768511,1,
14,exp1.png,exp2.png,,,,,,,,,,,,,,,,,,0,0,0,0,0,14,14,14,,,,,,,,,False,14,75,True,exp2.png,exp1.png,trial_right_image,-1,exp1.png,1,exp2.png,exp1.png,1,3,reversed,incorrect,0.6046963209625595,0,valid_lose,459.1242721999997,34,,,,,,,,,,,,,,,,sub_489,2024-08-22_13h28.17.326,Reversal,2022.1.2,60.01363509768511,1,
15,exp3.png,exp4.png,,,,,,,,,,,,,,,,,,0,0,0,0,0,15,15,15,,,,,,,,,False,15,76,False,exp3.png,exp4.png,trial_left_image,1,exp3.png,1,exp3.png,exp4.png,1,1,non-reversed,correct,0.5239183271244217,1,valid_win,464.1239284000003,35,,,,,,,,,,,,,,,,sub_489,2024-08-22_13h28.17.326,Reversal,2022.1.2,60.01363509768511,1,
16,exp1.png,exp2.png,,,,,,,,,,,,,,,,,,0,0,0,0,0,16,16,16,,,,,,,,,False,16,77,True,exp2.png,exp1.png,trial_right_image,-1,exp1.png,1,exp2.png,exp1.png,1,3,reversed,incorrect,0.8317340131929302,0,valid_lose,468.85719059999974,35,,,,,,,,,,,,,,,,sub_489,2024-08-22_13h28.17.326,Reversal,2022.1.2,60.01363509768511,1,
17,exp3.png,exp4.png,,,,,,,,,,,,,,,,,,0,0,0,0,0,17,17,17,,,,,,,,,False,17,78,False,exp3.png,exp4.png,trial_left_image,1,exp3.png,1,exp3.png,exp4.png,1,1,non-reversed,correct,0.5564546955092136,1,valid_win,473.20709950000037,36,,,,,,,,,,,,,,,,sub_489,2024-08-22_13h28.17.326,Reversal,2022.1.2,60.01363509768511,1,
18,exp1.png,exp2.png,,,,,,,,,,,,,,,,,,0,0,0,0,0,18,18,18,,,,,,,,,False,18,79,False,exp1.png,exp2.png,trial_left_image,1,exp1.png,1,exp2.png,exp1.png,1,3,reversed,incorrect,0.5582852633002758,0,valid_lose,477.59022170000026,36,,,,,,,,,,,,,,,,sub_489,2024-08-22_13h28.17.326,Reversal,2022.1.2,60.01363509768511,1,
19,exp3.png,exp4.png,,,,,,,,,,,,,,,,,,0,0,0,0,0,19,19,19,,,,,,,,,False,19,80,True,exp4.png,exp3.png,trial_right_image,-1,exp3.png,1,exp3.png,exp4.png,1,1,non-reversed,correct,0.9921208415689265,1,valid_win,481.62363149999965,37,,,,,,,,,,,,,,,,sub_489,2024-08-22_13h28.17.326,Reversal,2022.1.2,60.01363509768511,1,
20,exp1.png,exp2.png,,,,,,,,,,,,,,,,,,0,0,0,0,0,20,20,20,,,,,,,,,True,,,,,,,,,,,,,,,,,,,,,,,,,,,,,,,,,,,,sub_489,2024-08-22_13h28.17.326,Reversal,2022.1.2,60.01363509768511,1,
,,,exp1.png,,,,,,,,,,,,,,,,,0,0,0,0,,,,,0,0,0,0,0,0,0,0,,,,,,,,,,,,,,,,,,,,,,,50.0,None,[],566.0944602,None,,,,,,,,,,sub_489,2024-08-22_13h28.17.326,Reversal,2022.1.2,60.01363509768511,1,
,,,exp2.png,,,,,,,,,,,,,,,,,0,0,0,0,,,,,0,0,0,0,0,1,1,1,,,,,,,,,,,,,,,,,,,,,,,50.0,None,[],568.3517877000004,None,,,,,,,,,,sub_489,2024-08-22_13h28.17.326,Reversal,2022.1.2,60.01363509768511,1,
,,,exp3.png,,,,,,,,,,,,,,,,,0,0,0,0,,,,,0,0,0,0,0,2,2,2,,,,,,,,,,,,,,,,,,,,,,,50.0,None,[],569.5847477000007,None,,,,,,,,,,sub_489,2024-08-22_13h28.17.326,Reversal,2022.1.2,60.01363509768511,1,
,,,exp4.png,,,,,,,,,,,,,,,,,0,0,0,0,,,,,0,0,0,0,0,3,3,3,,,,,,,,,,,,,,,,,,,,,,,50.0,None,[],570.4841188,None,,,,,,,,,,sub_489,2024-08-22_13h28.17.326,Reversal,2022.1.2,60.01363509768511,1,
0,exp1.png,exp2.png,,,,,,,,,,,,,,,,,,1,0,1,0,0,0,0,0,,,,,,,,,False,20,81,True,exp2.png,exp1.png,trial_right_image,-1,exp1.png,1,exp2.png,exp1.png,1,3,reversed,incorrect,0.5975000869525996,0,valid_lose,491.1567538999998,37,,,,,,,,,,,,,,,,sub_489,2024-08-22_13h28.17.326,Reversal,2022.1.2,60.01363509768511,1,
1,exp3.png,exp4.png,,,,,,,,,,,,,,,,,,1,0,1,0,0,1,1,1,,,,,,,,,False,21,82,True,exp4.png,exp3.png,trial_right_image,-1,exp3.png,1,exp3.png,exp4.png,1,1,non-reversed,correct,0.08378227994397514,0,invalid_lose,496.7068263000001,37,,,,,,,,,,,,,,,,sub_489,2024-08-22_13h28.17.326,Reversal,2022.1.2,60.01363509768511,1,
2,exp1.png,exp2.png,,,,,,,,,,,,,,,,,,1,0,1,0,0,2,2,2,,,,,,,,,False,22,83,True,exp2.png,exp1.png,trial_left_image,1,exp2.png,1,exp2.png,exp1.png,0,4,reversed,correct,0.6056226249324781,1,valid_win,500.67324480000025,38,,,,,,,,,,,,,,,,sub_489,2024-08-22_13h28.17.326,Reversal,2022.1.2,60.01363509768511,1,
3,exp3.png,exp4.png,,,,,,,,,,,,,,,,,,1,0,1,0,0,3,3,3,,,,,,,,,False,23,84,True,exp4.png,exp3.png,trial_right_image,-1,exp3.png,1,exp3.png,exp4.png,1,1,non-reversed,correct,0.28670931716849024,1,valid_win,504.8230107999998,39,,,,,,,,,,,,,,,,sub_489,2024-08-22_13h28.17.326,Reversal,2022.1.2,60.01363509768511,1,
4,exp1.png,exp2.png,,,,,,,,,,,,,,,,,,1,0,1,0,0,4,4,4,,,,,,,,,False,24,85,True,exp2.png,exp1.png,trial_right_image,-1,exp1.png,1,exp2.png,exp1.png,1,3,reversed,incorrect,0.04731693945486348,1,invalid_win,508.95634470000005,40,,,,,,,,,,,,,,,,sub_489,2024-08-22_13h28.17.326,Reversal,2022.1.2,60.01363509768511,1,
5,exp3.png,exp4.png,,,,,,,,,,,,,,,,,,1,0,1,0,0,5,5,5,,,,,,,,,False,25,86,True,exp4.png,exp3.png,trial_right_image,-1,exp3.png,1,exp3.png,exp4.png,1,1,non-reversed,correct,0.5335259707689378,1,valid_win,513.2229938,41,,,,,,,,,,,,,,,,sub_489,2024-08-22_13h28.17.326,Reversal,2022.1.2,60.01363509768511,1,
6,exp1.png,exp2.png,,,,,,,,,,,,,,,,,,1,0,1,0,0,6,6,6,,,,,,,,,False,26,87,False,exp1.png,exp2.png,trial_left_image,1,exp1.png,1,exp2.png,exp1.png,1,3,reversed,incorrect,0.8407442824311929,0,valid_lose,517.4062348999996,41,,,,,,,,,,,,,,,,sub_489,2024-08-22_13h28.17.326,Reversal,2022.1.2,60.01363509768511,1,
7,exp3.png,exp4.png,,,,,,,,,,,,,,,,,,1,0,1,0,0,7,7,7,,,,,,,,,False,27,88,True,exp4.png,exp3.png,trial_right_image,-1,exp3.png,1,exp3.png,exp4.png,1,1,non-reversed,correct,0.15231273969545434,0,invalid_lose,521.5562964999999,41,,,,,,,,,,,,,,,,sub_489,2024-08-22_13h28.17.326,Reversal,2022.1.2,60.01363509768511,1,
8,exp1.png,exp2.png,,,,,,,,,,,,,,,,,,1,0,1,0,0,8,8,8,,,,,,,,,False,28,89,False,exp1.png,exp2.png,trial_left_image,1,exp1.png,1,exp2.png,exp1.png,1,3,reversed,incorrect,0.8336647011038615,0,valid_lose,525.9563333999995,41,,,,,,,,,,,,,,,,sub_489,2024-08-22_13h28.17.326,Reversal,2022.1.2,60.01363509768511,1,
9,exp3.png,exp4.png,,,,,,,,,,,,,,,,,,1,0,1,0,0,9,9,9,,,,,,,,,False,29,90,False,exp3.png,exp4.png,trial_right_image,-1,exp4.png,1,exp3.png,exp4.png,0,2,non-reversed,incorrect,0.033284299022571906,1,invalid_win,529.9227996999998,42,,,,,,,,,,,,,,,,sub_489,2024-08-22_13h28.17.326,Reversal,2022.1.2,60.01363509768511,1,
10,exp1.png,exp2.png,,,,,,,,,,,,,,,,,,1,0,1,0,0,10,10,10,,,,,,,,,False,30,91,True,exp2.png,exp1.png,trial_right_image,-1,exp1.png,1,exp2.png,exp1.png,1,3,reversed,incorrect,0.48359452119357493,0,valid_lose,534.2741546999996,42,,,,,,,,,,,,,,,,sub_489,2024-08-22_13h28.17.326,Reversal,2022.1.2,60.01363509768511,1,
11,exp3.png,exp4.png,,,,,,,,,,,,,,,,,,1,0,1,0,0,11,11,11,,,,,,,,,False,31,92,False,exp3.png,exp4.png,trial_left_image,1,exp3.png,1,exp3.png,exp4.png,1,1,non-reversed,correct,0.8479469992646632,1,valid_win,539.2061883999995,43,,,,,,,,,,,,,,,,sub_489,2024-08-22_13h28.17.326,Reversal,2022.1.2,60.01363509768511,1,
12,exp1.png,exp2.png,,,,,,,,,,,,,,,,,,1,0,1,0,0,12,12,12,,,,,,,,,False,32,93,False,exp1.png,exp2.png,trial_left_image,1,exp1.png,1,exp2.png,exp1.png,1,3,reversed,incorrect,0.30166815750293485,0,valid_lose,543.5058755,43,,,,,,,,,,,,,,,,sub_489,2024-08-22_13h28.17.326,Reversal,2022.1.2,60.01363509768511,1,
13,exp3.png,exp4.png,,,,,,,,,,,,,,,,,,1,0,1,0,0,13,13,13,,,,,,,,,False,33,94,True,exp4.png,exp3.png,trial_right_image,-1,exp3.png,1,exp3.png,exp4.png,1,1,non-reversed,correct,0.7171210435537535,1,valid_win,547.6392765999999,44,,,,,,,,,,,,,,,,sub_489,2024-08-22_13h28.17.326,Reversal,2022.1.2,60.01363509768511,1,
14,exp1.png,exp2.png,,,,,,,,,,,,,,,,,,1,0,1,0,0,14,14,14,,,,,,,,,False,34,95,False,exp1.png,exp2.png,trial_right_image,-1,exp2.png,1,exp2.png,exp1.png,0,4,reversed,correct,0.835117381030526,1,valid_win,551.5060258000003,45,,,,,,,,,,,,,,,,sub_489,2024-08-22_13h28.17.326,Reversal,2022.1.2,60.01363509768511,1,
15,exp3.png,exp4.png,,,,,,,,,,,,,,,,,,1,0,1,0,0,15,15,15,,,,,,,,,False,35,96,False,exp3.png,exp4.png,trial_left_image,1,exp3.png,1,exp3.png,exp4.png,1,1,non-reversed,correct,0.6776883401107265,1,valid_win,555.6220751000001,46,,,,,,,,,,,,,,,,sub_489,2024-08-22_13h28.17.326,Reversal,2022.1.2,60.01363509768511,1,
16,exp1.png,exp2.png,,,,,,,,,,,,,,,,,,1,0,1,0,0,16,16,16,,,,,,,,,False,36,97,False,exp1.png,exp2.png,trial_right_image,-1,exp2.png,1,exp2.png,exp1.png,0,4,reversed,correct,0.24102147242238592,0,invalid_lose,559.5555447999996,46,,,,,,,,,,,,,,,,sub_489,2024-08-22_13h28.17.326,Reversal,2022.1.2,60.01363509768511,1,
17,exp3.png,exp4.png,,,,,,,,,,,,,,,,,,1,0,1,0,0,17,17,17,,,,,,,,,False,37,98,False,exp3.png,exp4.png,trial_left_image,1,exp3.png,1,exp3.png,exp4.png,1,1,non-reversed,correct,0.15189700548471108,0,invalid_lose,563.5721538999996,46,,,,,,,,,,,,,,,,sub_489,2024-08-22_13h28.17.326,Reversal,2022.1.2,60.01363509768511,1,
18,exp1.png,exp2.png,,,,,,,,,,,,,,,,,,1,0,1,0,0,18,18,18,,,,,,,,,False,38,99,True,exp2.png,exp1.png,trial_right_image,-1,exp1.png,1,exp2.png,exp1.png,1,3,reversed,incorrect,0.8445636348310743,0,valid_lose,567.7555968999995,46,,,,,,,,,,,,,,,,sub_489,2024-08-22_13h28.17.326,Reversal,2022.1.2,60.01363509768511,1,
19,exp3.png,exp4.png,,,,,,,,,,,,,,,,,,1,0,1,0,0,19,19,19,,,,,,,,,False,39,100,False,exp3.png,exp4.png,trial_left_image,1,exp3.png,1,exp3.png,exp4.png,1,1,non-reversed,correct,0.08374550460078434,0,invalid_lose,572.0220232000001,46,,,,,,,,,,,,,,,,sub_489,2024-08-22_13h28.17.326,Reversal,2022.1.2,60.01363509768511,1,
20,exp1.png,exp2.png,,,,,,,,,,,,,,,,,,1,0,1,0,0,20,20,20,,,,,,,,,True,,,,,,,,,,,,,,,,,,,,,,,,,,,,,,,,,,,,sub_489,2024-08-22_13h28.17.326,Reversal,2022.1.2,60.01363509768511,1,
,,,exp1.png,,,,,,,,,,,,,,,,,1,0,1,0,,,,,0,0,0,0,0,0,0,0,,,,,,,,,,,,,,,,,,,,,,,50.0,None,[],656.4894392000006,None,,,,,,,,,,sub_489,2024-08-22_13h28.17.326,Reversal,2022.1.2,60.01363509768511,1,
,,,exp2.png,,,,,,,,,,,,,,,,,1,0,1,0,,,,,0,0,0,0,0,1,1,1,,,,,,,,,,,,,,,,,,,,,,,50.0,None,[],693.0186764999999,None,,,,,,,,,,sub_489,2024-08-22_13h28.17.326,Reversal,2022.1.2,60.01363509768511,1,
,,,exp3.png,,,,,,,,,,,,,,,,,1,0,1,0,,,,,0,0,0,0,0,2,2,2,,,,,,,,,,,,,,,,,,,,,,,50.0,None,[],693.4653422000001,None,,,,,,,,,,sub_489,2024-08-22_13h28.17.326,Reversal,2022.1.2,60.01363509768511,1,
,,,exp4.png,,,,,,,,,,,,,,,,,1,0,1,0,,,,,0,0,0,0,0,3,3,3,,,,,,,,,,,,,,,,,,,,,,,50.0,None,[],693.8684791000005,None,,,,,,,,,,sub_489,2024-08-22_13h28.17.326,Reversal,2022.1.2,60.01363509768511,1,
0,exp1.png,exp2.png,,,,,,,,,,,,,,,,,,2,0,2,0,0,0,0,0,,,,,,,,,False,40,101,False,exp1.png,exp2.png,trial_left_image,1,exp1.png,1,exp2.png,exp1.png,1,3,reversed,incorrect,0.6757858647974971,0,valid_lose,615.4213774,46,,,,,,,,,,,,,,,,sub_489,2024-08-22_13h28.17.326,Reversal,2022.1.2,60.01363509768511,1,
1,exp3.png,exp4.png,,,,,,,,,,,,,,,,,,2,0,2,0,0,1,1,1,,,,,,,,,False,41,102,True,exp4.png,exp3.png,trial_right_image,-1,exp3.png,1,exp3.png,exp4.png,1,1,non-reversed,correct,0.8902363438719473,1,valid_win,619.5046445999997,47,,,,,,,,,,,,,,,,sub_489,2024-08-22_13h28.17.326,Reversal,2022.1.2,60.01363509768511,1,
2,exp1.png,exp2.png,,,,,,,,,,,,,,,,,,2,0,2,0,0,2,2,2,,,,,,,,,False,42,103,False,exp1.png,exp2.png,trial_left_image,1,exp1.png,1,exp2.png,exp1.png,1,3,reversed,incorrect,0.5270298050605275,0,valid_lose,623.5047685,47,,,,,,,,,,,,,,,,sub_489,2024-08-22_13h28.17.326,Reversal,2022.1.2,60.01363509768511,1,
3,exp3.png,exp4.png,,,,,,,,,,,,,,,,,,2,0,2,0,0,3,3,3,,,,,,,,,False,43,104,False,exp3.png,exp4.png,trial_left_image,1,exp3.png,1,exp3.png,exp4.png,1,1,non-reversed,correct,0.6755063725363326,1,valid_win,627.7211238999998,48,,,,,,,,,,,,,,,,sub_489,2024-08-22_13h28.17.326,Reversal,2022.1.2,60.01363509768511,1,
4,exp1.png,exp2.png,,,,,,,,,,,,,,,,,,2,0,2,0,0,4,4,4,,,,,,,,,False,44,105,False,exp1.png,exp2.png,trial_right_image,-1,exp2.png,1,exp2.png,exp1.png,0,4,reversed,correct,0.4339937530133593,1,valid_win,631.6381094999997,49,,,,,,,,,,,,,,,,sub_489,2024-08-22_13h28.17.326,Reversal,2022.1.2,60.01363509768511,1,
5,exp3.png,exp4.png,,,,,,,,,,,,,,,,,,2,0,2,0,0,5,5,5,,,,,,,,,False,45,106,False,exp3.png,exp4.png,trial_left_image,1,exp3.png,1,exp3.png,exp4.png,1,1,non-reversed,correct,0.5314304311108011,1,valid_win,635.5213516000003,50,,,,,,,,,,,,,,,,sub_489,2024-08-22_13h28.17.326,Reversal,2022.1.2,60.01363509768511,1,
6,exp1.png,exp2.png,,,,,,,,,,,,,,,,,,2,0,2,0,0,6,6,6,,,,,,,,,False,46,107,True,exp2.png,exp1.png,trial_right_image,-1,exp1.png,1,exp2.png,exp1.png,1,3,reversed,incorrect,0.5214882607641135,0,valid_lose,639.3878953000003,50,,,,,,,,,,,,,,,,sub_489,2024-08-22_13h28.17.326,Reversal,2022.1.2,60.01363509768511,1,
7,exp3.png,exp4.png,,,,,,,,,,,,,,,,,,2,0,2,0,0,7,7,7,,,,,,,,,False,47,108,True,exp4.png,exp3.png,trial_left_image,1,exp4.png,1,exp3.png,exp4.png,0,2,non-reversed,incorrect,0.17865234149620635,1,invalid_win,643.2876586000002,51,,,,,,,,,,,,,,,,sub_489,2024-08-22_13h28.17.326,Reversal,2022.1.2,60.01363509768511,1,
8,exp1.png,exp2.png,,,,,,,,,,,,,,,,,,2,0,2,0,0,8,8,8,,,,,,,,,False,48,109,False,exp1.png,exp2.png,trial_right_image,-1,exp2.png,1,exp2.png,exp1.png,0,4,reversed,correct,0.09070514798892026,0,invalid_lose,647.1707416999998,51,,,,,,,,,,,,,,,,sub_489,2024-08-22_13h28.17.326,Reversal,2022.1.2,60.01363509768511,1,
9,exp3.png,exp4.png,,,,,,,,,,,,,,,,,,2,0,2,0,0,9,9,9,,,,,,,,,False,49,110,True,exp4.png,exp3.png,trial_left_image,1,exp4.png,1,exp3.png,exp4.png,0,2,non-reversed,incorrect,0.32662616899786945,0,valid_lose,651.0374826999996,51,,,,,,,,,,,,,,,,sub_489,2024-08-22_13h28.17.326,Reversal,2022.1.2,60.01363509768511,1,
10,exp1.png,exp2.png,,,,,,,,,,,,,,,,,,2,0,2,0,0,10,10,10,,,,,,,,,False,50,111,True,exp2.png,exp1.png,trial_right_image,-1,exp1.png,1,exp2.png,exp1.png,1,3,reversed,incorrect,0.1550268059668447,1,invalid_win,655.1542760000002,52,,,,,,,,,,,,,,,,sub_489,2024-08-22_13h28.17.326,Reversal,2022.1.2,60.01363509768511,1,
11,exp3.png,exp4.png,,,,,,,,,,,,,,,,,,2,0,2,0,0,11,11,11,,,,,,,,,False,51,112,True,exp4.png,exp3.png,trial_right_image,-1,exp3.png,1,exp3.png,exp4.png,1,1,non-reversed,correct,0.13946551886263447,0,invalid_lose,659.0710612000003,52,,,,,,,,,,,,,,,,sub_489,2024-08-22_13h28.17.326,Reversal,2022.1.2,60.01363509768511,1,
12,exp1.png,exp2.png,,,,,,,,,,,,,,,,,,2,0,2,0,0,12,12,12,,,,,,,,,False,52,113,True,exp2.png,exp1.png,trial_right_image,-1,exp1.png,1,exp2.png,exp1.png,1,3,reversed,incorrect,0.8513840674797408,0,valid_lose,662.9707516999997,52,,,,,,,,,,,,,,,,sub_489,2024-08-22_13h28.17.326,Reversal,2022.1.2,60.01363509768511,1,
13,exp3.png,exp4.png,,,,,,,,,,,,,,,,,,2,0,2,0,0,13,13,13,,,,,,,,,False,53,114,False,exp3.png,exp4.png,trial_right_image,-1,exp4.png,1,exp3.png,exp4.png,0,2,non-reversed,incorrect,0.6708790484500091,0,valid_lose,666.8874419000003,52,,,,,,,,,,,,,,,,sub_489,2024-08-22_13h28.17.326,Reversal,2022.1.2,60.01363509768511,1,
14,exp1.png,exp2.png,,,,,,,,,,,,,,,,,,2,0,2,0,0,14,14,14,,,,,,,,,False,54,115,False,exp1.png,exp2.png,trial_left_image,1,exp1.png,1,exp2.png,exp1.png,1,3,reversed,incorrect,0.8488811195766227,0,valid_lose,671.2704584000003,52,,,,,,,,,,,,,,,,sub_489,2024-08-22_13h28.17.326,Reversal,2022.1.2,60.01363509768511,1,
15,exp3.png,exp4.png,,,,,,,,,,,,,,,,,,2,0,2,0,0,15,15,15,,,,,,,,,False,55,116,False,exp3.png,exp4.png,trial_left_image,1,exp3.png,1,exp3.png,exp4.png,1,1,non-reversed,correct,0.017132653360285355,0,invalid_lose,675.2704082,52,,,,,,,,,,,,,,,,sub_489,2024-08-22_13h28.17.326,Reversal,2022.1.2,60.01363509768511,1,
16,exp1.png,exp2.png,,,,,,,,,,,,,,,,,,2,0,2,0,0,16,16,16,,,,,,,,,False,56,117,False,exp1.png,exp2.png,trial_left_image,1,exp1.png,1,exp2.png,exp1.png,1,3,reversed,incorrect,0.8225109182539235,0,valid_lose,679.2037369,52,,,,,,,,,,,,,,,,sub_489,2024-08-22_13h28.17.326,Reversal,2022.1.2,60.01363509768511,1,
17,exp3.png,exp4.png,,,,,,,,,,,,,,,,,,2,0,2,0,0,17,17,17,,,,,,,,,False,57,118,True,exp4.png,exp3.png,trial_left_image,1,exp4.png,1,exp3.png,exp4.png,0,2,non-reversed,incorrect,0.617393178834371,0,valid_lose,683.1035357000001,52,,,,,,,,,,,,,,,,sub_489,2024-08-22_13h28.17.326,Reversal,2022.1.2,60.01363509768511,1,
18,exp1.png,exp2.png,,,,,,,,,,,,,,,,,,2,0,2,0,0,18,18,18,,,,,,,,,False,58,119,True,exp2.png,exp1.png,trial_right_image,-1,exp1.png,1,exp2.png,exp1.png,1,3,reversed,incorrect,0.4145981838197281,0,valid_lose,687.0038723999996,52,,,,,,,,,,,,,,,,sub_489,2024-08-22_13h28.17.326,Reversal,2022.1.2,60.01363509768511,1,
19,exp3.png,exp4.png,,,,,,,,,,,,,,,,,,2,0,2,0,0,19,19,19,,,,,,,,,False,59,120,True,exp4.png,exp3.png,trial_right_image,-1,exp3.png,1,exp3.png,exp4.png,1,1,non-reversed,correct,0.5524652297136207,1,valid_win,690.8369160000002,53,,,,,,,,,,,,,,,,sub_489,2024-08-22_13h28.17.326,Reversal,2022.1.2,60.01363509768511,1,
20,exp1.png,exp2.png,,,,,,,,,,,,,,,,,,2,0,2,0,0,20,20,20,,,,,,,,,True,,,,,,,,,,,,,,,,,,,,,,,,,,,,,,,,,,,,sub_489,2024-08-22_13h28.17.326,Reversal,2022.1.2,60.01363509768511,1,
,,,exp1.png,,,,,,,,,,,,,,,,,2,0,2,0,,,,,0,0,0,0,0,0,0,0,,,,,,,,,,,,,,,,,,,,,,,50.0,None,[],775.3195039000002,None,,,,,,,,,,sub_489,2024-08-22_13h28.17.326,Reversal,2022.1.2,60.01363509768511,1,
,,,exp2.png,,,,,,,,,,,,,,,,,2,0,2,0,,,,,0,0,0,0,0,1,1,1,,,,,,,,,,,,,,,,,,,,,,,50.0,None,[],777.2159027000007,None,,,,,,,,,,sub_489,2024-08-22_13h28.17.326,Reversal,2022.1.2,60.01363509768511,1,
,,,exp3.png,,,,,,,,,,,,,,,,,2,0,2,0,,,,,0,0,0,0,0,2,2,2,,,,,,,,,,,,,,,,,,,,,,,50.0,None,[],777.7852910000001,None,,,,,,,,,,sub_489,2024-08-22_13h28.17.326,Reversal,2022.1.2,60.01363509768511,1,
,,,exp4.png,,,,,,,,,,,,,,,,,2,0,2,0,,,,,0,0,0,0,0,3,3,3,,,,,,,,,,,,,,,,,,,,,,,50.0,None,[],778.2983801,None,,,,,,,,,,sub_489,2024-08-22_13h28.17.326,Reversal,2022.1.2,60.01363509768511,1,
,,,,,,,,,,,,,,,,,,,,,,,,,,,,,,,,,,,,,,,,,,,,,,,,,,,,,,,,53,,,,,,,,,,,74,46,28,314.3021283999997,0,,,,,,,
