trial_index,trial_image1_file,trial_image2_file,image_file,learning_outer_loop.thisRepN,learning_outer_loop.thisTrialN,learning_outer_loop.thisN,learning_outer_loop.thisIndex,learning_inner_loop.thisRepN,learning_inner_loop.thisTrialN,learning_inner_loop.thisN,learning_inner_loop.thisIndex,learning_estimation_outer_loop.thisRepN,learning_estimation_outer_loop.thisTrialN,learning_estimation_outer_loop.thisN,learning_estimation_outer_loop.thisIndex,learning_estimation_inner_loop.thisRepN,learning_estimation_inner_loop.thisTrialN,learning_estimation_inner_loop.thisN,learning_estimation_inner_loop.thisIndex,reversal_outer_loop.thisRepN,reversal_outer_loop.thisTrialN,reversal_outer_loop.thisN,reversal_outer_loop.thisIndex,reversal_inner_loop.thisRepN,reversal_inner_loop.thisTrialN,reversal_inner_loop.thisN,reversal_inner_loop.thisIndex,reversal_estimation_outer_loop.thisRepN,reversal_estimation_outer_loop.thisTrialN,reversal_estimation_outer_loop.thisN,reversal_estimation_outer_loop.thisIndex,reversal_estimation_inner_loop.thisRepN,reversal_estimation_inner_loop.thisTrialN,reversal_estimation_inner_loop.thisN,reversal_estimation_inner_loop.thisIndex,thisRow.t,notes,instructions1.started,instructions1.stopped,instructions2.started,instructions2.stopped,instructions3.started,instructions3.stopped,intstructions4.started,intstructions4.stopped,instructions5.started,instructions5.stopped,mindware_trigger_learning.started,mindware_trigger_learning.stopped,trial.started,skipped,total_trial_counter,trial_num,left_right_flip,left_image_file,right_image_file,clicked_stimulus_side,trial.stopped,side,clicked_stimulus,version,high_prob_image_file,low_prob_image_file,choice_a,choice_b,pair_type,correct,trial_feedback_random,reward,trial_type,overall_time_after_trial,feedback_preparation.started,feedback_preparation.stopped,score,feedback.started,feedback.stopped,estimation.started,estimation_rating.started,estimation.stopped,estimation_exp1.png,estimation_rating.response,estimation_rating.rt,estimation_rating.history,estimation_exp4.png,estimation_exp2.png,estimation_exp3.png,mindware_trigger_reversal.started,mindware_trigger_reversal.stopped,total_learning_time,thank_you.started,total_correct,learning_correct,reversal_correct,total_reversal_time,extra_block,participant,date,expName,psychopyVersion,frameRate,ver,expStart,
0,exp1.png,exp2.png,,0,0,0,0,0,0,0,0,,,,,,,,,,,,,,,,,,,,,,,,,89.32076119999692,,0.012252400003490038,41.716235300002154,41.71626119999564,47.61544329999015,47.61546819999057,69.7624203000014,69.76244049999514,76.19470729999011,76.19473969998944,89.14411280000058,89.16453399999591,89.1652510999993,89.16527029999997,False,0,1,False,exp1.png,exp2.png,trial_right_image,96.69053069999791,-1,exp2.png,4,exp2.png,exp1.png,1,1,non-reversed,correct,0.29264619710243867,1,valid_win,7.546750699999393,96.6909125999955,97.30627600000298,1,97.30631069999072,99.10398129999521,,,,,,,,,,,,,,,,,,,,sub_576,2024-01-30_15h02.23.759,Reversal,2023.2.1,59.93647931873378,4,2024-01-30 15h02.34.452083 +0200,
1,exp3.png,exp4.png,,0,0,0,0,0,1,1,1,,,,,,,,,,,,,,,,,,,,,,,,,99.26133480000135,,,,,,,,,,,,99.10461149999173,99.10543100000359,99.10546720000275,False,1,2,False,exp3.png,exp4.png,trial_right_image,103.85645019999356,-1,exp4.png,4,exp4.png,exp3.png,1,3,reversed,correct,0.27179544750499307,1,valid_win,14.712569499999518,103.85672640000121,104.47162889999163,2,104.47165340000356,106.26902419999533,,,,,,,,,,,,,,,,,,,,sub_576,2024-01-30_15h02.23.759,Reversal,2023.2.1,59.93647931873378,4,2024-01-30 15h02.34.452083 +0200,
2,exp1.png,exp2.png,,0,0,0,0,0,2,2,2,,,,,,,,,,,,,,,,,,,,,,,,,106.39704369999527,,,,,,,,,,,,106.26933239999926,106.26973949999956,106.2697565999988,False,2,3,False,exp1.png,exp2.png,trial_left_image,128.5367128999933,1,exp1.png,4,exp2.png,exp1.png,0,2,non-reversed,incorrect,0.8031073998868073,0,valid_lose,39.392856499995105,128.53701410000212,129.15169919999607,2,129.15171510000073,130.94982319998962,,,,,,,,,,,,,,,,,,,,sub_576,2024-01-30_15h02.23.759,Reversal,2023.2.1,59.93647931873378,4,2024-01-30 15h02.34.452083 +0200,
3,exp3.png,exp4.png,,0,0,0,0,0,3,3,3,,,,,,,,,,,,,,,,,,,,,,,,,131.08343359999708,,,,,,,,,,,,130.95043189999706,130.95120199999656,130.9512376999919,False,3,4,True,exp4.png,exp3.png,trial_left_image,133.83633910000208,1,exp4.png,4,exp4.png,exp3.png,1,3,reversed,correct,0.5373907962209588,1,valid_win,44.69258529999934,133.83675029998994,134.45086810000066,3,134.4508855000022,136.24887460000173,,,,,,,,,,,,,,,,,,,,sub_576,2024-01-30_15h02.23.759,Reversal,2023.2.1,59.93647931873378,4,2024-01-30 15h02.34.452083 +0200,
4,exp1.png,exp2.png,,0,0,0,0,0,4,4,4,,,,,,,,,,,,,,,,,,,,,,,,,136.3744824000023,,,,,,,,,,,,136.24917680000362,136.24957580000046,136.2495923999959,False,4,5,True,exp2.png,exp1.png,trial_left_image,138.9848670999927,1,exp2.png,4,exp2.png,exp1.png,1,1,non-reversed,correct,0.21945419284416123,0,invalid_lose,49.841006399990874,138.98521149999578,139.60052919998998,3,139.60064599999168,141.39822119999735,,,,,,,,,,,,,,,,,,,,sub_576,2024-01-30_15h02.23.759,Reversal,2023.2.1,59.93647931873378,4,2024-01-30 15h02.34.452083 +0200,
5,exp3.png,exp4.png,,0,0,0,0,0,5,5,5,,,,,,,,,,,,,,,,,,,,,,,,,141.51874379999936,,,,,,,,,,,,141.39847929999814,141.39883249999548,141.3988462999987,False,5,6,True,exp4.png,exp3.png,trial_left_image,145.9012609999918,1,exp4.png,4,exp4.png,exp3.png,1,3,reversed,correct,0.24349815322441726,0,invalid_lose,56.757407500001136,145.9015655999974,146.51607289999083,3,146.51609930000268,148.31395630000043,,,,,,,,,,,,,,,,,,,,sub_576,2024-01-30_15h02.23.759,Reversal,2023.2.1,59.93647931873378,4,2024-01-30 15h02.34.452083 +0200,
6,exp1.png,exp2.png,,0,0,0,0,0,6,6,6,,,,,,,,,,,,,,,,,,,,,,,,,148.44992810000258,,,,,,,,,,,,148.31452179999906,148.3152093999961,148.3152437999961,False,6,7,False,exp1.png,exp2.png,trial_right_image,150.18431689999125,-1,exp2.png,4,exp2.png,exp1.png,1,1,non-reversed,correct,0.5822683964002926,1,valid_win,61.04058509999595,150.1847498999996,150.79898890000186,4,150.7990417999972,152.59707560000243,,,,,,,,,,,,,,,,,,,,sub_576,2024-01-30_15h02.23.759,Reversal,2023.2.1,59.93647931873378,4,2024-01-30 15h02.34.452083 +0200,
7,exp3.png,exp4.png,,0,0,0,0,0,7,7,7,,,,,,,,,,,,,,,,,,,,,,,,,152.73049909999827,,,,,,,,,,,,152.59763669999666,152.5984371999948,152.59846999999718,False,7,8,False,exp3.png,exp4.png,trial_right_image,154.49960049999936,-1,exp4.png,4,exp4.png,exp3.png,1,3,reversed,correct,0.9069234067056449,1,valid_win,65.35574369999813,154.49990049999906,155.1150437000033,5,155.11506289998943,156.91282779999892,,,,,,,,,,,,,,,,,,,,sub_576,2024-01-30_15h02.23.759,Reversal,2023.2.1,59.93647931873378,4,2024-01-30 15h02.34.452083 +0200,
8,exp1.png,exp2.png,,0,0,0,0,0,8,8,8,,,,,,,,,,,,,,,,,,,,,,,,,157.05035599999246,,,,,,,,,,,,156.9133562999923,156.91390679999313,156.91393549999339,False,8,9,True,exp2.png,exp1.png,trial_right_image,160.46604829998978,-1,exp1.png,4,exp2.png,exp1.png,0,2,non-reversed,incorrect,0.19803207682447865,1,invalid_win,71.3223808999901,160.4665537999972,161.08165949999238,6,161.08171030000085,162.87893579999218,,,,,,,,,,,,,,,,,,,,sub_576,2024-01-30_15h02.23.759,Reversal,2023.2.1,59.93647931873378,4,2024-01-30 15h02.34.452083 +0200,
9,exp3.png,exp4.png,,0,0,0,0,0,9,9,9,,,,,,,,,,,,,,,,,,,,,,,,,163.01261859999795,,,,,,,,,,,,162.8799769999896,162.88077249999333,162.88081439999223,False,9,10,False,exp3.png,exp4.png,trial_right_image,164.98275139999168,-1,exp4.png,4,exp4.png,exp3.png,1,3,reversed,correct,0.7066721163079909,1,valid_win,75.83928109999397,164.9834608999954,165.59706780000124,7,165.59709119999025,167.39480899999035,,,,,,,,,,,,,,,,,,,,sub_576,2024-01-30_15h02.23.759,Reversal,2023.2.1,59.93647931873378,4,2024-01-30 15h02.34.452083 +0200,
10,exp1.png,exp2.png,,0,0,0,0,0,10,10,10,,,,,,,,,,,,,,,,,,,,,,,,,167.52089929999784,,,,,,,,,,,,167.39513049999368,167.39551659999415,167.395531999995,False,10,11,True,exp2.png,exp1.png,trial_right_image,169.53144469999825,-1,exp1.png,4,exp2.png,exp1.png,0,2,non-reversed,incorrect,0.21889446063940265,1,invalid_win,80.38752489999752,169.53168279999227,170.14659930000198,8,170.14663930000097,171.9446689000033,,,,,,,,,,,,,,,,,,,,sub_576,2024-01-30_15h02.23.759,Reversal,2023.2.1,59.93647931873378,4,2024-01-30 15h02.34.452083 +0200,
11,exp3.png,exp4.png,,0,0,0,0,0,11,11,11,,,,,,,,,,,,,,,,,,,,,,,,,172.08441389999643,,,,,,,,,,,,171.94566919999488,171.94679950000136,171.94686260000162,False,11,12,False,exp3.png,exp4.png,trial_right_image,174.6308607999963,-1,exp4.png,4,exp4.png,exp3.png,1,3,reversed,correct,0.2859323099292792,1,valid_win,85.48705019999761,174.6312093000015,175.24583449999045,9,175.2458570000017,177.04376760000014,,,,,,,,,,,,,,,,,,,,sub_576,2024-01-30_15h02.23.759,Reversal,2023.2.1,59.93647931873378,4,2024-01-30 15h02.34.452083 +0200,
12,exp1.png,exp2.png,,0,0,0,0,0,12,12,12,,,,,,,,,,,,,,,,,,,,,,,,,177.1838037999987,,,,,,,,,,,,177.0444831999921,177.0453215000016,177.0453611999983,False,12,13,False,exp1.png,exp2.png,trial_left_image,179.39663550000114,1,exp1.png,4,exp2.png,exp1.png,0,2,non-reversed,incorrect,0.3815049500640294,0,valid_lose,90.2527354999911,179.3968942999927,180.01198640000075,9,180.01202049999847,181.8096086000005,,,,,,,,,,,,,,,,,,,,sub_576,2024-01-30_15h02.23.759,Reversal,2023.2.1,59.93647931873378,4,2024-01-30 15h02.34.452083 +0200,
13,exp3.png,exp4.png,,0,0,0,0,0,13,13,13,,,,,,,,,,,,,,,,,,,,,,,,,181.93405979999807,,,,,,,,,,,,181.8098914000002,181.81026539999584,181.81027989998984,False,13,14,False,exp3.png,exp4.png,trial_right_image,183.51278769999044,-1,exp4.png,4,exp4.png,exp3.png,1,3,reversed,correct,0.5787135432423058,1,valid_win,94.36885519999487,183.5130080999952,184.1279097999941,10,184.1279261000018,185.9263595999946,,,,,,,,,,,,,,,,,,,,sub_576,2024-01-30_15h02.23.759,Reversal,2023.2.1,59.93647931873378,4,2024-01-30 15h02.34.452083 +0200,
14,exp1.png,exp2.png,,0,0,0,0,0,14,14,14,,,,,,,,,,,,,,,,,,,,,,,,,186.0638087999978,,,,,,,,,,,,185.9273447000014,185.92849549998937,185.92855489999056,False,14,15,True,exp2.png,exp1.png,trial_right_image,187.59584449999966,-1,exp1.png,4,exp2.png,exp1.png,0,2,non-reversed,incorrect,0.5215675373090853,0,valid_lose,98.45201649999944,187.5961784999963,188.2107296000031,10,188.2107457999955,190.00911559999804,,,,,,,,,,,,,,,,,,,,sub_576,2024-01-30_15h02.23.759,Reversal,2023.2.1,59.93647931873378,4,2024-01-30 15h02.34.452083 +0200,
15,exp3.png,exp4.png,,0,0,0,0,0,15,15,15,,,,,,,,,,,,,,,,,,,,,,,,,190.16348629999266,,,,,,,,,,,,190.01001549999637,190.01109759999963,190.0111518999911,False,15,16,True,exp4.png,exp3.png,trial_right_image,191.74538290000055,-1,exp3.png,4,exp4.png,exp3.png,0,4,reversed,incorrect,0.9549067829033435,0,valid_lose,102.60163599999214,191.74579819999053,192.360374099997,10,192.3603892999963,194.1584320999973,,,,,,,,,,,,,,,,,,,,sub_576,2024-01-30_15h02.23.759,Reversal,2023.2.1,59.93647931873378,4,2024-01-30 15h02.34.452083 +0200,
16,exp1.png,exp2.png,,0,0,0,0,0,16,16,16,,,,,,,,,,,,,,,,,,,,,,,,,194.29557509999722,,,,,,,,,,,,194.15922269999282,194.1601789999986,194.16022859999794,False,16,17,False,exp1.png,exp2.png,trial_left_image,196.0111229999893,1,exp1.png,4,exp2.png,exp1.png,0,2,non-reversed,incorrect,0.48479295466943595,0,valid_lose,106.86721359999501,196.0113674000022,196.6264716000005,10,196.62649409999722,198.42429779999657,,,,,,,,,,,,,,,,,,,,sub_576,2024-01-30_15h02.23.759,Reversal,2023.2.1,59.93647931873378,4,2024-01-30 15h02.34.452083 +0200,
17,exp3.png,exp4.png,,0,0,0,0,0,17,17,17,,,,,,,,,,,,,,,,,,,,,,,,,198.5467617999966,,,,,,,,,,,,198.4246676999901,198.4251399999921,198.4251610999927,False,17,18,True,exp4.png,exp3.png,trial_right_image,200.32724649999,-1,exp3.png,4,exp4.png,exp3.png,0,4,reversed,incorrect,0.865769487987184,0,valid_lose,111.18330439999409,200.3274570999929,200.94305419999,10,200.94310069999483,202.74030669999775,,,,,,,,,,,,,,,,,,,,sub_576,2024-01-30_15h02.23.759,Reversal,2023.2.1,59.93647931873378,4,2024-01-30 15h02.34.452083 +0200,
18,exp1.png,exp2.png,,0,0,0,0,0,18,18,18,,,,,,,,,,,,,,,,,,,,,,,,,202.86874819999503,,,,,,,,,,,,202.74064999999246,202.74109949999547,202.7411329000024,False,18,19,True,exp2.png,exp1.png,trial_right_image,206.27655660000164,-1,exp1.png,4,exp2.png,exp1.png,0,2,non-reversed,incorrect,0.14479623300665212,1,invalid_win,117.13259829999879,206.27675039999303,206.89184869999008,11,206.89187619999575,208.6903128999984,,,,,,,,,,,,,,,,,,,,sub_576,2024-01-30_15h02.23.759,Reversal,2023.2.1,59.93647931873378,4,2024-01-30 15h02.34.452083 +0200,
19,exp3.png,exp4.png,,0,0,0,0,0,19,19,19,,,,,,,,,,,,,,,,,,,,,,,,,208.8322019999905,,,,,,,,,,,,208.69124230000307,208.69238769999356,208.69256149999273,False,19,20,True,exp4.png,exp3.png,trial_right_image,210.77667629999632,-1,exp3.png,4,exp4.png,exp3.png,0,4,reversed,incorrect,0.0639742266559471,1,invalid_win,121.63304199998674,210.77721459999157,211.3912152999983,12,211.39123670000117,213.18946359999245,,,,,,,,,,,,,,,,,,,,sub_576,2024-01-30_15h02.23.759,Reversal,2023.2.1,59.93647931873378,4,2024-01-30 15h02.34.452083 +0200,
20,exp1.png,exp2.png,,0,0,0,0,0,20,20,20,,,,,,,,,,,,,,,,,,,,,,,,,213.38841980000143,,,,,,,,,,,,213.19036529998994,213.19132230000105,213.1913848999975,True,,,,,,,213.28276950000145,,,,,,,,,,,,,,213.28278470000078,213.29810790000192,,213.2981230000005,213.3220794999943,,,,,,,,,,,,,,,,,,,,sub_576,2024-01-30_15h02.23.759,Reversal,2023.2.1,59.93647931873378,4,2024-01-30 15h02.34.452083 +0200,
,,,exp1.png,0,0,0,0,,,,,0,0,0,0,0,0,0,0,,,,,,,,,,,,,,,,,213.38841980000143,,,,,,,,,,,,,,,,,,,,,,,,,,,,,,,,,,,,,,,,,213.32955929999298,213.38841980000143,234.40743039999506,95.0,95.0,19.069871300001978,"[(95.0, 19.069871300001978)]",,,,,,,,,,,,,sub_576,2024-01-30_15h02.23.759,Reversal,2023.2.1,59.93647931873378,4,2024-01-30 15h02.34.452083 +0200,
,,,exp2.png,0,0,0,0,,,,,0,0,0,0,0,1,1,1,,,,,,,,,,,,,,,,,234.46465120000357,,,,,,,,,,,,,,,,,,,,,,,,,,,,,,,,,,,,,,,,,234.40961029999016,234.46465120000357,237.37410639999143,,None,None,[],,,,,,,,,,,,,sub_576,2024-01-30_15h02.23.759,Reversal,2023.2.1,59.93647931873378,4,2024-01-30 15h02.34.452083 +0200,
,,,exp3.png,0,0,0,0,,,,,0,0,0,0,0,2,2,2,,,,,,,,,,,,,,,,,237.4359301999939,,,,,,,,,,,,,,,,,,,,,,,,,,,,,,,,,,,,,,,,,237.3746009000024,237.4359301999939,243.04171239999414,,None,None,[],,,,,,,,,,,,,sub_576,2024-01-30_15h02.23.759,Reversal,2023.2.1,59.93647931873378,4,2024-01-30 15h02.34.452083 +0200,
,,,exp4.png,0,0,0,0,,,,,0,0,0,0,0,3,3,3,,,,,,,,,,,,,,,,,243.1065579999995,,,,,,,,,,,,,,,,,,,,,,,,,,,,,,,,,,,,,,,,,243.04233779999777,243.1065579999995,248.82195030000003,,86.0,4.516195600008359,"[(86.0, 4.516195600008359)]",86.0,,,,,,,,,,,,sub_576,2024-01-30_15h02.23.759,Reversal,2023.2.1,59.93647931873378,4,2024-01-30 15h02.34.452083 +0200,
0,exp1.png,exp2.png,,1,0,1,0,0,0,0,0,,,,,,,,,,,,,,,,,,,,,,,,,248.9378546999942,,,,,,,,,,,,248.82832129999588,248.82890710000356,248.82892089999223,False,20,21,True,exp2.png,exp1.png,trial_right_image,252.40422240000044,-1,exp1.png,4,exp2.png,exp1.png,0,2,non-reversed,incorrect,0.989121091470321,0,valid_lose,163.26030559999344,252.40446419999353,253.01903519999178,12,253.01905360000092,254.8170059999975,,,,,,,,,,,,,,,,,,,,sub_576,2024-01-30_15h02.23.759,Reversal,2023.2.1,59.93647931873378,4,2024-01-30 15h02.34.452083 +0200,
1,exp3.png,exp4.png,,1,0,1,0,0,1,1,1,,,,,,,,,,,,,,,,,,,,,,,,,254.94122259999858,,,,,,,,,,,,254.8174147999962,254.8179500999977,254.81797350000124,False,21,22,True,exp4.png,exp3.png,trial_right_image,258.02037649998965,-1,exp3.png,4,exp4.png,exp3.png,0,4,reversed,incorrect,0.8940703461390098,0,valid_lose,168.87650779999967,258.0206652999914,258.63538510000217,12,258.6354113999987,260.4336256999959,,,,,,,,,,,,,,,,,,,,sub_576,2024-01-30_15h02.23.759,Reversal,2023.2.1,59.93647931873378,4,2024-01-30 15h02.34.452083 +0200,
2,exp1.png,exp2.png,,1,0,1,0,0,2,2,2,,,,,,,,,,,,,,,,,,,,,,,,,260.57812409999315,,,,,,,,,,,,260.43465870000364,260.43593659999897,260.436005800002,False,22,23,False,exp1.png,exp2.png,trial_left_image,262.3535760999948,1,exp1.png,4,exp2.png,exp1.png,0,2,non-reversed,incorrect,0.34517691188515565,0,valid_lose,173.2100000999926,262.35417069999676,262.9684632999997,12,262.9684976999997,264.7660193999909,,,,,,,,,,,,,,,,,,,,sub_576,2024-01-30_15h02.23.759,Reversal,2023.2.1,59.93647931873378,4,2024-01-30 15h02.34.452083 +0200,
3,exp3.png,exp4.png,,1,0,1,0,0,3,3,3,,,,,,,,,,,,,,,,,,,,,,,,,264.91157450000173,,,,,,,,,,,,264.7666109999991,264.76745780000056,264.7674934999959,False,23,24,False,exp3.png,exp4.png,trial_left_image,267.26888340000005,1,exp3.png,4,exp4.png,exp3.png,0,4,reversed,incorrect,0.4781683783290468,0,valid_lose,178.1249886000005,267.2691449999984,267.8841967999906,12,267.88422189999255,269.6818362999911,,,,,,,,,,,,,,,,,,,,sub_576,2024-01-30_15h02.23.759,Reversal,2023.2.1,59.93647931873378,4,2024-01-30 15h02.34.452083 +0200,
4,exp1.png,exp2.png,,1,0,1,0,0,4,4,4,,,,,,,,,,,,,,,,,,,,,,,,,269.8121794000035,,,,,,,,,,,,269.68234729999676,269.68294060000335,269.6829668999999,False,24,25,True,exp2.png,exp1.png,trial_right_image,271.36822979999124,-1,exp1.png,4,exp2.png,exp1.png,0,2,non-reversed,incorrect,0.842704456373855,0,valid_lose,182.22437759999593,271.3685397999943,271.9839465999976,12,271.98398160000215,273.78123680000135,,,,,,,,,,,,,,,,,,,,sub_576,2024-01-30_15h02.23.759,Reversal,2023.2.1,59.93647931873378,4,2024-01-30 15h02.34.452083 +0200,
5,exp3.png,exp4.png,,1,0,1,0,0,5,5,5,,,,,,,,,,,,,,,,,,,,,,,,,273.9082469999994,,,,,,,,,,,,273.78177059999143,273.7823844999948,273.78241319999506,False,25,26,False,exp3.png,exp4.png,trial_right_image,275.4175947999902,-1,exp4.png,4,exp4.png,exp3.png,1,3,reversed,correct,0.49539833371756736,1,valid_win,186.2736850999936,275.41784039999766,276.0330243999924,13,276.03305420000106,277.8305035999947,,,,,,,,,,,,,,,,,,,,sub_576,2024-01-30_15h02.23.759,Reversal,2023.2.1,59.93647931873378,4,2024-01-30 15h02.34.452083 +0200,
6,exp1.png,exp2.png,,1,0,1,0,0,6,6,6,,,,,,,,,,,,,,,,,,,,,,,,,277.9497804999992,,,,,,,,,,,,277.8308091999934,277.83116869999503,277.8311878999957,False,26,27,False,exp1.png,exp2.png,trial_right_image,279.58399479999207,-1,exp2.png,4,exp2.png,exp1.png,1,1,non-reversed,correct,0.7512127343451869,1,valid_win,190.44026859999576,279.584434599994,280.19924229999015,14,280.19927749999624,281.9969926999911,,,,,,,,,,,,,,,,,,,,sub_576,2024-01-30_15h02.23.759,Reversal,2023.2.1,59.93647931873378,4,2024-01-30 15h02.34.452083 +0200,
7,exp3.png,exp4.png,,1,0,1,0,0,7,7,7,,,,,,,,,,,,,,,,,,,,,,,,,282.12447070000053,,,,,,,,,,,,281.99735489999875,281.9978029999911,281.9978221999918,False,27,28,True,exp4.png,exp3.png,trial_right_image,283.7336745999928,-1,exp3.png,4,exp4.png,exp3.png,0,4,reversed,incorrect,0.21738277747912738,1,invalid_win,194.58991949999472,283.7340827000007,284.3487805999903,15,284.34880729998986,286.14631549999467,,,,,,,,,,,,,,,,,,,,sub_576,2024-01-30_15h02.23.759,Reversal,2023.2.1,59.93647931873378,4,2024-01-30 15h02.34.452083 +0200,
8,exp1.png,exp2.png,,1,0,1,0,0,8,8,8,,,,,,,,,,,,,,,,,,,,,,,,,286.2723888999899,,,,,,,,,,,,286.14672959999007,286.1472495999915,286.147280899997,False,28,29,False,exp1.png,exp2.png,trial_right_image,287.8495796999923,-1,exp2.png,4,exp2.png,exp1.png,1,1,non-reversed,correct,0.17183081585498972,0,invalid_lose,198.70574379999016,287.8499049999955,288.464493099993,15,288.4645076000015,290.26277180000034,,,,,,,,,,,,,,,,,,,,sub_576,2024-01-30_15h02.23.759,Reversal,2023.2.1,59.93647931873378,4,2024-01-30 15h02.34.452083 +0200,
9,exp3.png,exp4.png,,1,0,1,0,0,9,9,9,,,,,,,,,,,,,,,,,,,,,,,,,290.3811129999958,,,,,,,,,,,,290.2630694999971,290.2635178999917,290.26353529999324,False,29,30,False,exp3.png,exp4.png,trial_left_image,293.21561199999996,1,exp3.png,4,exp4.png,exp3.png,0,4,reversed,incorrect,0.7481731725970076,0,valid_lose,204.07175199998892,293.2159094999952,293.83089420000033,15,293.8309328000032,295.6284929999965,,,,,,,,,,,,,,,,,,,,sub_576,2024-01-30_15h02.23.759,Reversal,2023.2.1,59.93647931873378,4,2024-01-30 15h02.34.452083 +0200,
10,exp1.png,exp2.png,,1,0,1,0,0,10,10,10,,,,,,,,,,,,,,,,,,,,,,,,,295.76687349998974,,,,,,,,,,,,295.6291096999921,295.62980729999254,295.6298412000033,False,30,31,False,exp1.png,exp2.png,trial_right_image,297.38180059999286,-1,exp2.png,4,exp2.png,exp1.png,1,1,non-reversed,correct,0.25227701222157795,1,valid_win,208.23799129998952,297.38215219999256,297.99701500000083,16,297.99706270000024,299.7945846999937,,,,,,,,,,,,,,,,,,,,sub_576,2024-01-30_15h02.23.759,Reversal,2023.2.1,59.93647931873378,4,2024-01-30 15h02.34.452083 +0200,
11,exp3.png,exp4.png,,1,0,1,0,0,11,11,11,,,,,,,,,,,,,,,,,,,,,,,,,299.9136673999892,,,,,,,,,,,,299.79500359999656,299.79553360000136,299.79555729999265,False,31,32,False,exp3.png,exp4.png,trial_right_image,301.4475185999909,-1,exp4.png,4,exp4.png,exp3.png,1,3,reversed,correct,0.5063383098618399,1,valid_win,212.3035707999952,301.447723099991,302.0632964999968,17,302.0633394999895,303.8607090000005,,,,,,,,,,,,,,,,,,,,sub_576,2024-01-30_15h02.23.759,Reversal,2023.2.1,59.93647931873378,4,2024-01-30 15h02.34.452083 +0200,
12,exp1.png,exp2.png,,1,0,1,0,0,12,12,12,,,,,,,,,,,,,,,,,,,,,,,,,303.98688549999497,,,,,,,,,,,,303.8611066000012,303.8616115999903,303.86163439998927,False,32,33,True,exp2.png,exp1.png,trial_right_image,305.59766869999294,-1,exp1.png,4,exp2.png,exp1.png,0,2,non-reversed,incorrect,0.9778283587377237,0,valid_lose,216.4538337999984,305.5979932999908,306.2125027000002,17,306.21253399999114,308.0103925000003,,,,,,,,,,,,,,,,,,,,sub_576,2024-01-30_15h02.23.759,Reversal,2023.2.1,59.93647931873378,4,2024-01-30 15h02.34.452083 +0200,
13,exp3.png,exp4.png,,1,0,1,0,0,13,13,13,,,,,,,,,,,,,,,,,,,,,,,,,308.1376117000036,,,,,,,,,,,,308.01108509999176,308.01195089999237,308.0119910999929,False,33,34,True,exp4.png,exp3.png,trial_right_image,309.6141112999903,-1,exp3.png,4,exp4.png,exp3.png,0,4,reversed,incorrect,0.01350754573922952,1,invalid_win,220.47052649999387,309.61469839999336,310.22856999999203,18,310.228603399999,312.02654029999394,,,,,,,,,,,,,,,,,,,,sub_576,2024-01-30_15h02.23.759,Reversal,2023.2.1,59.93647931873378,4,2024-01-30 15h02.34.452083 +0200,
14,exp1.png,exp2.png,,1,0,1,0,0,14,14,14,,,,,,,,,,,,,,,,,,,,,,,,,312.17070099999546,,,,,,,,,,,,312.02715719999105,312.0279063999915,312.0279421000014,False,34,35,True,exp2.png,exp1.png,trial_right_image,313.78007660000003,-1,exp1.png,4,exp2.png,exp1.png,0,2,non-reversed,incorrect,0.18255475659436282,1,invalid_win,224.63626579999982,313.7804268000036,314.39467379999405,19,314.39470099999744,316.1926087000029,,,,,,,,,,,,,,,,,,,,sub_576,2024-01-30_15h02.23.759,Reversal,2023.2.1,59.93647931873378,4,2024-01-30 15h02.34.452083 +0200,
15,exp3.png,exp4.png,,1,0,1,0,0,15,15,15,,,,,,,,,,,,,,,,,,,,,,,,,316.3164945000026,,,,,,,,,,,,316.1930116000003,316.19351359999564,316.1935373000015,False,35,36,True,exp4.png,exp3.png,trial_right_image,317.9457488999906,-1,exp3.png,4,exp4.png,exp3.png,0,4,reversed,incorrect,0.6478547072955253,0,valid_lose,228.80185039999196,317.94600670000364,318.56051009999646,19,318.5605280000018,320.35887589999766,,,,,,,,,,,,,,,,,,,,sub_576,2024-01-30_15h02.23.759,Reversal,2023.2.1,59.93647931873378,4,2024-01-30 15h02.34.452083 +0200,
16,exp1.png,exp2.png,,1,0,1,0,0,16,16,16,,,,,,,,,,,,,,,,,,,,,,,,,320.5072063999978,,,,,,,,,,,,320.35950999999477,320.3602352000016,320.36026899999706,False,36,37,False,exp1.png,exp2.png,trial_left_image,322.39504819999274,1,exp1.png,4,exp2.png,exp1.png,0,2,non-reversed,incorrect,0.25218410773165967,0,valid_lose,233.25108969998837,322.3952409999911,323.01007740000205,19,323.0100948999898,324.8085924999905,,,,,,,,,,,,,,,,,,,,sub_576,2024-01-30_15h02.23.759,Reversal,2023.2.1,59.93647931873378,4,2024-01-30 15h02.34.452083 +0200,
17,exp3.png,exp4.png,,1,0,1,0,0,17,17,17,,,,,,,,,,,,,,,,,,,,,,,,,324.9463462999993,,,,,,,,,,,,324.8096092999913,324.8107586999977,324.8108188999904,False,37,38,True,exp4.png,exp3.png,trial_left_image,326.5616719999962,1,exp4.png,4,exp4.png,exp3.png,1,3,reversed,correct,0.8514002951986768,1,valid_win,237.4178261999914,326.56198459998996,327.17649959999835,20,327.1766052000021,328.9744642000005,,,,,,,,,,,,,,,,,,,,sub_576,2024-01-30_15h02.23.759,Reversal,2023.2.1,59.93647931873378,4,2024-01-30 15h02.34.452083 +0200,
18,exp1.png,exp2.png,,1,0,1,0,0,18,18,18,,,,,,,,,,,,,,,,,,,,,,,,,329.11690599999565,,,,,,,,,,,,328.9750101999962,328.9758424000029,328.97587880000356,False,38,39,True,exp2.png,exp1.png,trial_left_image,331.06057989998953,1,exp2.png,4,exp2.png,exp1.png,1,1,non-reversed,correct,0.3568182872511092,1,valid_win,241.9167344999878,331.060891000001,331.67561819999537,21,331.675633699997,333.4739946999907,,,,,,,,,,,,,,,,,,,,sub_576,2024-01-30_15h02.23.759,Reversal,2023.2.1,59.93647931873378,4,2024-01-30 15h02.34.452083 +0200,
19,exp3.png,exp4.png,,1,0,1,0,0,19,19,19,,,,,,,,,,,,,,,,,,,,,,,,,333.60780479999084,,,,,,,,,,,,333.47470890000113,333.47559960000217,333.4756415000011,False,39,40,False,exp3.png,exp4.png,trial_left_image,335.44402149999223,1,exp3.png,4,exp4.png,exp3.png,0,4,reversed,incorrect,0.9343030149421813,0,valid_lose,246.3003224999993,335.4444891000021,336.05866189999506,21,336.05867939999735,337.8563787000021,,,,,,,,,,,,,,,,,,,,sub_576,2024-01-30_15h02.23.759,Reversal,2023.2.1,59.93647931873378,4,2024-01-30 15h02.34.452083 +0200,
20,exp1.png,exp2.png,,1,0,1,0,0,20,20,20,,,,,,,,,,,,,,,,,,,,,,,,,338.0482430999982,,,,,,,,,,,,337.85684890000266,337.8574820999929,337.8575095999986,True,,,,,,,337.94354909998947,,,,,,,,,,,,,,337.94357829999353,337.9624452999997,,337.96246039999824,337.9793915999908,,,,,,,,,,,,,,,,,,,,sub_576,2024-01-30_15h02.23.759,Reversal,2023.2.1,59.93647931873378,4,2024-01-30 15h02.34.452083 +0200,
,,,exp1.png,1,0,1,0,,,,,0,0,0,0,0,0,0,0,,,,,,,,,,,,,,,,,338.0482430999982,,,,,,,,,,,,,,,,,,,,,,,,,,,,,,,,,,,,,,,,,337.98414400000183,338.0482430999982,344.2433636999922,93.0,93.0,4.6350686000077985,"[(93.0, 4.6350686000077985)]",,,,,,,,,,,,,sub_576,2024-01-30_15h02.23.759,Reversal,2023.2.1,59.93647931873378,4,2024-01-30 15h02.34.452083 +0200,
,,,exp2.png,1,0,1,0,,,,,0,0,0,0,0,1,1,1,,,,,,,,,,,,,,,,,344.3000146999984,,,,,,,,,,,,,,,,,,,,,,,,,,,,,,,,,,,,,,,,,344.2438758999924,344.3000146999984,350.4933660999959,,97.0,5.027237599992077,"[(97.0, 5.027237599992077)]",,97.0,,,,,,,,,,,sub_576,2024-01-30_15h02.23.759,Reversal,2023.2.1,59.93647931873378,4,2024-01-30 15h02.34.452083 +0200,
,,,exp3.png,1,0,1,0,,,,,0,0,0,0,0,2,2,2,,,,,,,,,,,,,,,,,350.5560138000001,,,,,,,,,,,,,,,,,,,,,,,,,,,,,,,,,,,,,,,,,350.4939578999911,350.5560138000001,355.47594930000196,,96.0,3.6044898999971338,"[(96.0, 3.6044898999971338)]",,,96.0,,,,,,,,,,sub_576,2024-01-30_15h02.23.759,Reversal,2023.2.1,59.93647931873378,4,2024-01-30 15h02.34.452083 +0200,
,,,exp4.png,1,0,1,0,,,,,0,0,0,0,0,3,3,3,,,,,,,,,,,,,,,,,355.536652099996,,,,,,,,,,,,,,,,,,,,,,,,,,,,,,,,,,,,,,,,,355.476490999994,355.536652099996,358.7758921999921,,94.0,2.0708831999945687,"[(94.0, 2.0708831999945687)]",94.0,,,,,,,,,,,,sub_576,2024-01-30_15h02.23.759,Reversal,2023.2.1,59.93647931873378,4,2024-01-30 15h02.34.452083 +0200,
0,exp1.png,exp2.png,,2,0,2,0,0,0,0,0,,,,,,,,,,,,,,,,,,,,,,,,,358.8906735999917,,,,,,,,,,,,358.7853968999989,358.7862361000007,358.7862546999968,False,40,41,False,exp1.png,exp2.png,trial_right_image,361.2901623999933,-1,exp2.png,4,exp2.png,exp1.png,1,1,non-reversed,correct,0.37388405008719117,1,valid_win,272.1462732999935,361.29042809999373,361.90519979999226,22,361.90521869999066,363.7034987999941,,,,,,,,,,,,,,,,,,,,sub_576,2024-01-30_15h02.23.759,Reversal,2023.2.1,59.93647931873378,4,2024-01-30 15h02.34.452083 +0200,
1,exp3.png,exp4.png,,2,0,2,0,0,1,1,1,,,,,,,,,,,,,,,,,,,,,,,,,363.83303290000185,,,,,,,,,,,,363.7043352000037,363.70538639998995,363.70543299999554,False,41,42,False,exp3.png,exp4.png,trial_right_image,365.4061359999905,-1,exp4.png,4,exp4.png,exp3.png,1,3,reversed,correct,0.06915787271852047,0,invalid_lose,276.2621887999994,365.406341599999,366.0214804999996,22,366.021507700003,367.81968299999426,,,,,,,,,,,,,,,,,,,,sub_576,2024-01-30_15h02.23.759,Reversal,2023.2.1,59.93647931873378,4,2024-01-30 15h02.34.452083 +0200,
2,exp1.png,exp2.png,,2,0,2,0,0,2,2,2,,,,,,,,,,,,,,,,,,,,,,,,,367.95275529999344,,,,,,,,,,,,367.8207202999911,367.8220119999896,367.82207789999666,False,42,43,True,exp2.png,exp1.png,trial_right_image,369.9392128000036,-1,exp1.png,4,exp2.png,exp1.png,0,2,non-reversed,incorrect,0.307748067446299,0,valid_lose,280.79538669998874,369.9395463999972,370.55418869999994,22,370.55420949999825,372.351972199991,,,,,,,,,,,,,,,,,,,,sub_576,2024-01-30_15h02.23.759,Reversal,2023.2.1,59.93647931873378,4,2024-01-30 15h02.34.452083 +0200,
3,exp3.png,exp4.png,,2,0,2,0,0,3,3,3,,,,,,,,,,,,,,,,,,,,,,,,,372.4832785000035,,,,,,,,,,,,372.3524868999957,372.3530977999908,372.35312649999105,False,43,44,False,exp3.png,exp4.png,trial_right_image,373.9722877000022,-1,exp4.png,4,exp4.png,exp3.png,1,3,reversed,correct,0.1871384815522904,0,invalid_lose,284.8286354000011,373.97280489999685,374.5870922999893,22,374.5871563999972,376.38491449999856,,,,,,,,,,,,,,,,,,,,sub_576,2024-01-30_15h02.23.759,Reversal,2023.2.1,59.93647931873378,4,2024-01-30 15h02.34.452083 +0200,
4,exp1.png,exp2.png,,2,0,2,0,0,4,4,4,,,,,,,,,,,,,,,,,,,,,,,,,376.506163500002,,,,,,,,,,,,376.3853878999944,376.3859516999946,376.3859773000004,False,44,45,True,exp2.png,exp1.png,trial_left_image,379.32193169998936,1,exp2.png,4,exp2.png,exp1.png,1,1,non-reversed,correct,0.8429542248872862,1,valid_win,290.17819239999517,379.32235409998975,379.9366141999926,23,379.9366477000003,381.73474479999277,,,,,,,,,,,,,,,,,,,,sub_576,2024-01-30_15h02.23.759,Reversal,2023.2.1,59.93647931873378,4,2024-01-30 15h02.34.452083 +0200,
5,exp3.png,exp4.png,,2,0,2,0,0,5,5,5,,,,,,,,,,,,,,,,,,,,,,,,,381.88660469999013,,,,,,,,,,,,381.73537809999834,381.7361894999922,381.73622839999734,False,45,46,True,exp4.png,exp3.png,trial_left_image,383.78823179999017,1,exp4.png,4,exp4.png,exp3.png,1,3,reversed,correct,0.7838920733353363,1,valid_win,294.6448325999954,383.78902379999636,384.40253959999245,24,384.4025832999905,386.20000709999294,,,,,,,,,,,,,,,,,,,,sub_576,2024-01-30_15h02.23.759,Reversal,2023.2.1,59.93647931873378,4,2024-01-30 15h02.34.452083 +0200,
6,exp1.png,exp2.png,,2,0,2,0,0,6,6,6,,,,,,,,,,,,,,,,,,,,,,,,,386.31922039999336,,,,,,,,,,,,386.20028569998976,386.2006737999909,386.20068809999793,False,46,47,False,exp1.png,exp2.png,trial_left_image,388.0202605999948,1,exp1.png,4,exp2.png,exp1.png,0,2,non-reversed,incorrect,0.18646006883990962,1,invalid_win,298.8764509999892,388.02061120000144,388.6350992999942,25,388.6351186999964,390.433008699998,,,,,,,,,,,,,,,,,,,,sub_576,2024-01-30_15h02.23.759,Reversal,2023.2.1,59.93647931873378,4,2024-01-30 15h02.34.452083 +0200,
7,exp3.png,exp4.png,,2,0,2,0,0,7,7,7,,,,,,,,,,,,,,,,,,,,,,,,,390.56796049998957,,,,,,,,,,,,390.4333714999957,390.43392699999094,390.43394829999306,False,47,48,True,exp4.png,exp3.png,trial_left_image,393.25307279999834,1,exp4.png,4,exp4.png,exp3.png,1,3,reversed,correct,0.01305787325861274,0,invalid_lose,304.10946669999976,393.25363809999544,393.8677555999893,25,393.86777519999305,395.66605569999956,,,,,,,,,,,,,,,,,,,,sub_576,2024-01-30_15h02.23.759,Reversal,2023.2.1,59.93647931873378,4,2024-01-30 15h02.34.452083 +0200,
8,exp1.png,exp2.png,,2,0,2,0,0,8,8,8,,,,,,,,,,,,,,,,,,,,,,,,,395.8068587000016,,,,,,,,,,,,395.6669385999994,395.6679249000008,395.6680045999965,False,48,49,False,exp1.png,exp2.png,trial_right_image,397.302239800003,-1,exp2.png,4,exp2.png,exp1.png,1,1,non-reversed,correct,0.1716438608744666,0,invalid_lose,308.15843169999425,397.30259130000195,397.917383299995,25,397.9174013000011,399.715242899998,,,,,,,,,,,,,,,,,,,,sub_576,2024-01-30_15h02.23.759,Reversal,2023.2.1,59.93647931873378,4,2024-01-30 15h02.34.452083 +0200,
9,exp3.png,exp4.png,,2,0,2,0,0,9,9,9,,,,,,,,,,,,,,,,,,,,,,,,,399.8418246999936,,,,,,,,,,,,399.71555269999953,399.71595759999764,399.71597259999544,False,49,50,True,exp4.png,exp3.png,trial_right_image,401.35223209999094,-1,exp3.png,4,exp4.png,exp3.png,0,4,reversed,incorrect,0.3846453636145609,0,valid_lose,312.2084879999893,401.35265249999065,401.9668055999937,25,401.96682339999825,403.7646337999904,,,,,,,,,,,,,,,,,,,,sub_576,2024-01-30_15h02.23.759,Reversal,2023.2.1,59.93647931873378,4,2024-01-30 15h02.34.452083 +0200,
10,exp1.png,exp2.png,,2,0,2,0,0,10,10,10,,,,,,,,,,,,,,,,,,,,,,,,,403.876783300002,,,,,,,,,,,,403.7649197999999,403.76531439999235,403.76532989999396,False,50,51,True,exp2.png,exp1.png,trial_right_image,405.8845777999959,-1,exp1.png,4,exp2.png,exp1.png,0,2,non-reversed,incorrect,0.7268092785008183,0,valid_lose,316.74069939999026,405.88485799999034,406.49987329999567,25,406.4999034999928,408.2972305000003,,,,,,,,,,,,,,,,,,,,sub_576,2024-01-30_15h02.23.759,Reversal,2023.2.1,59.93647931873378,4,2024-01-30 15h02.34.452083 +0200,
11,exp3.png,exp4.png,,2,0,2,0,0,11,11,11,,,,,,,,,,,,,,,,,,,,,,,,,408.4304109999939,,,,,,,,,,,,408.2975163999945,408.29789190000156,408.29790689999936,False,51,52,False,exp3.png,exp4.png,trial_right_image,410.81771459999436,-1,exp4.png,4,exp4.png,exp3.png,1,3,reversed,correct,0.9310582695696143,1,valid_win,321.674110699998,410.81828120000137,411.43232929999067,26,411.4323493999982,413.2299597999954,,,,,,,,,,,,,,,,,,,,sub_576,2024-01-30_15h02.23.759,Reversal,2023.2.1,59.93647931873378,4,2024-01-30 15h02.34.452083 +0200,
12,exp1.png,exp2.png,,2,0,2,0,0,12,12,12,,,,,,,,,,,,,,,,,,,,,,,,,413.3533769999922,,,,,,,,,,,,413.23024079999595,413.2305898999912,413.23060460000124,False,52,53,True,exp2.png,exp1.png,trial_right_image,415.01652119999926,-1,exp1.png,4,exp2.png,exp1.png,0,2,non-reversed,incorrect,0.9834872885445323,0,valid_lose,325.8727255999984,415.01688509999076,415.6319760999904,26,415.6319962999987,417.42943849999574,,,,,,,,,,,,,,,,,,,,sub_576,2024-01-30_15h02.23.759,Reversal,2023.2.1,59.93647931873378,4,2024-01-30 15h02.34.452083 +0200,
13,exp3.png,exp4.png,,2,0,2,0,0,13,13,13,,,,,,,,,,,,,,,,,,,,,,,,,417.5572414999915,,,,,,,,,,,,417.4297300000035,417.4301192999992,417.43013439999777,False,53,54,False,exp3.png,exp4.png,trial_left_image,419.2826112999901,1,exp3.png,4,exp4.png,exp3.png,0,4,reversed,incorrect,0.3593009985585436,0,valid_lose,330.13879859998997,419.2829567000008,419.89821980000124,26,419.89824009999575,421.6959305999917,,,,,,,,,,,,,,,,,,,,sub_576,2024-01-30_15h02.23.759,Reversal,2023.2.1,59.93647931873378,4,2024-01-30 15h02.34.452083 +0200,
14,exp1.png,exp2.png,,2,0,2,0,0,14,14,14,,,,,,,,,,,,,,,,,,,,,,,,,421.83071270000073,,,,,,,,,,,,421.6965518999932,421.6973134,421.6973494999984,False,54,55,True,exp2.png,exp1.png,trial_left_image,423.6494776999898,1,exp2.png,4,exp2.png,exp1.png,1,1,non-reversed,correct,0.8755258132906494,1,valid_win,334.5056723999878,423.64983309998934,424.2640967999905,27,424.26414620000287,426.0617542999971,,,,,,,,,,,,,,,,,,,,sub_576,2024-01-30_15h02.23.759,Reversal,2023.2.1,59.93647931873378,4,2024-01-30 15h02.34.452083 +0200,
15,exp3.png,exp4.png,,2,0,2,0,0,15,15,15,,,,,,,,,,,,,,,,,,,,,,,,,426.1971521999949,,,,,,,,,,,,426.0621583000029,426.0626529000001,426.0626743999892,False,55,56,True,exp4.png,exp3.png,trial_left_image,427.9820680999983,1,exp4.png,4,exp4.png,exp3.png,1,3,reversed,correct,0.41712557198061706,1,valid_win,338.8383138999925,427.9824779999908,428.59696129999065,28,428.5969858000026,430.39447559999826,,,,,,,,,,,,,,,,,,,,sub_576,2024-01-30_15h02.23.759,Reversal,2023.2.1,59.93647931873378,4,2024-01-30 15h02.34.452083 +0200,
16,exp1.png,exp2.png,,2,0,2,0,0,16,16,16,,,,,,,,,,,,,,,,,,,,,,,,,430.52273409999907,,,,,,,,,,,,430.39496510000026,430.3955595000007,430.3955846000026,False,56,57,False,exp1.png,exp2.png,trial_left_image,432.2481701999932,1,exp1.png,4,exp2.png,exp1.png,0,2,non-reversed,incorrect,0.3351578916806641,0,valid_lose,343.1045567999972,432.2487370000017,432.8625084999949,28,432.8625238999957,434.6605600999901,,,,,,,,,,,,,,,,,,,,sub_576,2024-01-30_15h02.23.759,Reversal,2023.2.1,59.93647931873378,4,2024-01-30 15h02.34.452083 +0200,
17,exp3.png,exp4.png,,2,0,2,0,0,17,17,17,,,,,,,,,,,,,,,,,,,,,,,,,434.7878165000002,,,,,,,,,,,,434.66095150000183,434.6615576999902,434.661580400003,False,57,58,False,exp3.png,exp4.png,trial_left_image,436.5490945999918,1,exp3.png,4,exp4.png,exp3.png,0,4,reversed,incorrect,0.2428843767386627,1,invalid_win,347.4057321,436.5499240999925,437.16283609998936,29,437.1628674999956,438.9599962999928,,,,,,,,,,,,,,,,,,,,sub_576,2024-01-30_15h02.23.759,Reversal,2023.2.1,59.93647931873378,4,2024-01-30 15h02.34.452083 +0200,
18,exp1.png,exp2.png,,2,0,2,0,0,18,18,18,,,,,,,,,,,,,,,,,,,,,,,,,439.0903885000007,,,,,,,,,,,,438.9603999999963,438.9609560999961,438.9609799000027,False,58,59,True,exp2.png,exp1.png,trial_left_image,440.7804343000025,1,exp2.png,4,exp2.png,exp1.png,1,1,non-reversed,correct,0.1517995564218918,0,invalid_lose,351.636878099991,440.7810516000027,441.3951281999907,29,441.3951439999946,443.19277149999107,,,,,,,,,,,,,,,,,,,,sub_576,2024-01-30_15h02.23.759,Reversal,2023.2.1,59.93647931873378,4,2024-01-30 15h02.34.452083 +0200,
19,exp3.png,exp4.png,,2,0,2,0,0,19,19,19,,,,,,,,,,,,,,,,,,,,,,,,,443.32276199999615,,,,,,,,,,,,443.19312319999153,443.193583699991,443.1936080000014,False,59,60,False,exp3.png,exp4.png,trial_right_image,444.92969439999433,-1,exp4.png,4,exp4.png,exp3.png,1,3,reversed,correct,0.3078630537176379,1,valid_win,355.7857539999968,444.9299047999957,445.54453569999896,30,445.54455099999905,447.34213949998957,,,,,,,,,,,,,,,,,,,,sub_576,2024-01-30_15h02.23.759,Reversal,2023.2.1,59.93647931873378,4,2024-01-30 15h02.34.452083 +0200,
20,exp1.png,exp2.png,,2,0,2,0,0,20,20,20,,,,,,,,,,,,,,,,,,,,,,,,,447.542443600003,,,,,,,,,,,,447.3424091999914,447.3428028999915,447.34282130000065,True,,,,,,,447.41890809999313,,,,,,,,,,,,,,447.41892359999474,447.4374179000006,,447.43743469999754,447.46453759999713,,,,,,,,,,,,,,,,,,,,sub_576,2024-01-30_15h02.23.759,Reversal,2023.2.1,59.93647931873378,4,2024-01-30 15h02.34.452083 +0200,
,,,exp1.png,2,0,2,0,,,,,0,0,0,0,0,0,0,0,,,,,,,,,,,,,,,,,447.542443600003,,,,,,,,,,,,,,,,,,,,,,,,,,,,,,,,,,,,,,,,,447.47499499999685,447.542443600003,453.8131102999905,97.0,97.0,5.030025000000023,"[(77.0, 3.8624990999960573), (97.0, 5.030025000000023)]",,,,,,,,,,,,,sub_576,2024-01-30_15h02.23.759,Reversal,2023.2.1,59.93647931873378,4,2024-01-30 15h02.34.452083 +0200,
,,,exp2.png,2,0,2,0,,,,,0,0,0,0,0,1,1,1,,,,,,,,,,,,,,,,,453.8729488999961,,,,,,,,,,,,,,,,,,,,,,,,,,,,,,,,,,,,,,,,,453.8137904999894,453.8729488999961,455.9466870000033,,None,None,[],,,,,,,,,,,,,sub_576,2024-01-30_15h02.23.759,Reversal,2023.2.1,59.93647931873378,4,2024-01-30 15h02.34.452083 +0200,
,,,exp3.png,2,0,2,0,,,,,0,0,0,0,0,2,2,2,,,,,,,,,,,,,,,,,456.0053823999915,,,,,,,,,,,,,,,,,,,,,,,,,,,,,,,,,,,,,,,,,455.94723109999904,456.0053823999915,460.57871180000075,,96.0,3.455521799987764,"[(96.0, 3.455521799987764)]",,,96.0,,,,,,,,,,sub_576,2024-01-30_15h02.23.759,Reversal,2023.2.1,59.93647931873378,4,2024-01-30 15h02.34.452083 +0200,
,,,exp4.png,2,0,2,0,,,,,0,0,0,0,0,3,3,3,,,,,,,,,,,,,,,,,460.6392399000033,,,,,,,,,,,,,,,,,,,,,,,,,,,,,,,,,,,,,,,,,460.5791787999915,460.6392399000033,463.6109005999897,,96.0,1.8891356000094675,"[(96.0, 1.8891356000094675)]",96.0,,,,,,,,,,,,sub_576,2024-01-30_15h02.23.759,Reversal,2023.2.1,59.93647931873378,4,2024-01-30 15h02.34.452083 +0200,
0,exp1.png,exp2.png,,3,0,3,0,0,0,0,0,,,,,,,,,,,,,,,,,,,,,,,,,463.7509063999896,,,,,,,,,,,,463.6175424999965,463.6182436999952,463.6182664999942,False,60,61,False,exp1.png,exp2.png,trial_left_image,466.4599345000024,1,exp1.png,4,exp2.png,exp1.png,0,2,non-reversed,incorrect,0.12427562260261327,1,invalid_win,377.31612259999383,466.46027869998943,467.07534149999265,31,467.0753585999919,468.87307590000273,,,,,,,,,,,,,,,,,,,,sub_576,2024-01-30_15h02.23.759,Reversal,2023.2.1,59.93647931873378,4,2024-01-30 15h02.34.452083 +0200,
1,exp3.png,exp4.png,,3,0,3,0,0,1,1,1,,,,,,,,,,,,,,,,,,,,,,,,,468.99922199999855,,,,,,,,,,,,468.87355129999924,468.8741363000008,468.8741638999927,False,61,62,True,exp4.png,exp3.png,trial_left_image,470.7593080999941,1,exp4.png,4,exp4.png,exp3.png,1,3,reversed,correct,0.2810374646037932,1,valid_win,381.6154267999955,470.7595815999957,471.3746359999932,32,471.374653699997,473.1723951000022,,,,,,,,,,,,,,,,,,,,sub_576,2024-01-30_15h02.23.759,Reversal,2023.2.1,59.93647931873378,4,2024-01-30 15h02.34.452083 +0200,
2,exp1.png,exp2.png,,3,0,3,0,0,2,2,2,,,,,,,,,,,,,,,,,,,,,,,,,473.30758379999315,,,,,,,,,,,,473.1730733000004,473.17383430000336,473.173873199994,False,62,63,True,exp2.png,exp1.png,trial_left_image,475.0259395999892,1,exp2.png,4,exp2.png,exp1.png,1,1,non-reversed,correct,0.3756412659249021,1,valid_win,385.88218589998723,475.02635040000314,475.6408337999892,33,475.64089680000325,477.4384381999989,,,,,,,,,,,,,,,,,,,,sub_576,2024-01-30_15h02.23.759,Reversal,2023.2.1,59.93647931873378,4,2024-01-30 15h02.34.452083 +0200,
3,exp3.png,exp4.png,,3,0,3,0,0,3,3,3,,,,,,,,,,,,,,,,,,,,,,,,,477.5612867000018,,,,,,,,,,,,477.43873500000336,477.4391304000019,477.4391467999958,False,63,64,False,exp3.png,exp4.png,trial_right_image,480.5918352000008,-1,exp4.png,4,exp4.png,exp3.png,1,3,reversed,correct,0.9426172593786938,1,valid_win,391.44801419999567,480.59217360000184,481.2066271999938,34,481.2066435000015,483.0051475999935,,,,,,,,,,,,,,,,,,,,sub_576,2024-01-30_15h02.23.759,Reversal,2023.2.1,59.93647931873378,4,2024-01-30 15h02.34.452083 +0200,
4,exp1.png,exp2.png,,3,0,3,0,0,4,4,4,,,,,,,,,,,,,,,,,,,,,,,,,483.14308009999513,,,,,,,,,,,,483.00613090000115,483.0072668999928,483.007326299994,False,64,65,False,exp1.png,exp2.png,trial_right_image,485.3741405999899,-1,exp2.png,4,exp2.png,exp1.png,1,1,non-reversed,correct,0.3592355990285876,1,valid_win,396.230338399997,485.37449750000087,485.9896213000029,35,485.98965150000004,487.7870385999995,,,,,,,,,,,,,,,,,,,,sub_576,2024-01-30_15h02.23.759,Reversal,2023.2.1,59.93647931873378,4,2024-01-30 15h02.34.452083 +0200,
5,exp3.png,exp4.png,,3,0,3,0,0,5,5,5,,,,,,,,,,,,,,,,,,,,,,,,,487.92702879999706,,,,,,,,,,,,487.78741379998974,487.7879191999964,487.7879411000031,False,65,66,False,exp3.png,exp4.png,trial_right_image,489.5743913999904,-1,exp4.png,4,exp4.png,exp3.png,1,3,reversed,correct,0.3017038186431925,1,valid_win,400.43071749999945,489.5748900000035,490.18907279999985,36,490.18910199998936,491.987115099997,,,,,,,,,,,,,,,,,,,,sub_576,2024-01-30_15h02.23.759,Reversal,2023.2.1,59.93647931873378,4,2024-01-30 15h02.34.452083 +0200,
6,exp1.png,exp2.png,,3,0,3,0,0,6,6,6,,,,,,,,,,,,,,,,,,,,,,,,,492.12755609999294,,,,,,,,,,,,491.9877664999949,491.9885989000031,491.98863690000144,False,66,67,True,exp2.png,exp1.png,trial_left_image,494.2897709999961,1,exp2.png,4,exp2.png,exp1.png,1,1,non-reversed,correct,0.530673909501879,1,valid_win,405.1458358999953,494.28998950000096,494.90522970000166,37,494.9052575999958,496.70247419999214,,,,,,,,,,,,,,,,,,,,sub_576,2024-01-30_15h02.23.759,Reversal,2023.2.1,59.93647931873378,4,2024-01-30 15h02.34.452083 +0200,
7,exp3.png,exp4.png,,3,0,3,0,0,7,7,7,,,,,,,,,,,,,,,,,,,,,,,,,496.8328815999994,,,,,,,,,,,,496.7028059000004,496.70326369999384,496.70328410000366,False,67,68,True,exp4.png,exp3.png,trial_left_image,498.6231642999919,1,exp4.png,4,exp4.png,exp3.png,1,3,reversed,correct,0.06731248706039905,0,invalid_lose,409.4794808000006,498.623648599998,499.238050400003,37,499.23807969999325,501.0360195999965,,,,,,,,,,,,,,,,,,,,sub_576,2024-01-30_15h02.23.759,Reversal,2023.2.1,59.93647931873378,4,2024-01-30 15h02.34.452083 +0200,
8,exp1.png,exp2.png,,3,0,3,0,0,8,8,8,,,,,,,,,,,,,,,,,,,,,,,,,501.17027699999744,,,,,,,,,,,,501.03675929999736,501.03759729999,501.0376410000026,False,68,69,True,exp2.png,exp1.png,trial_left_image,503.2053631000017,1,exp2.png,4,exp2.png,exp1.png,1,1,non-reversed,correct,0.6692443746840284,1,valid_win,414.0614942999964,503.2056544999941,503.8203322999907,38,503.8203519999952,505.6183672999905,,,,,,,,,,,,,,,,,,,,sub_576,2024-01-30_15h02.23.759,Reversal,2023.2.1,59.93647931873378,4,2024-01-30 15h02.34.452083 +0200,
9,exp3.png,exp4.png,,3,0,3,0,0,9,9,9,,,,,,,,,,,,,,,,,,,,,,,,,505.74952450000274,,,,,,,,,,,,505.61867739999434,505.6190874000022,505.61910440000065,False,69,70,False,exp3.png,exp4.png,trial_right_image,508.1877597999992,-1,exp4.png,4,exp4.png,exp3.png,1,3,reversed,correct,0.7326534388093283,1,valid_win,419.04387869998754,508.1880336999893,508.8041598999989,39,508.8041916999937,510.6011138000031,,,,,,,,,,,,,,,,,,,,sub_576,2024-01-30_15h02.23.759,Reversal,2023.2.1,59.93647931873378,4,2024-01-30 15h02.34.452083 +0200,
10,exp1.png,exp2.png,,3,0,3,0,0,10,10,10,,,,,,,,,,,,,,,,,,,,,,,,,510.73585159999493,,,,,,,,,,,,510.6018119999935,510.60255250000046,510.6025881999958,False,70,71,False,exp1.png,exp2.png,trial_right_image,513.4539886999992,-1,exp2.png,4,exp2.png,exp1.png,1,1,non-reversed,correct,0.6781919928136232,1,valid_win,424.31012479998753,513.454281600003,514.0689216000028,40,514.0689370000036,515.8670967999933,,,,,,,,,,,,,,,,,,,,sub_576,2024-01-30_15h02.23.759,Reversal,2023.2.1,59.93647931873378,4,2024-01-30 15h02.34.452083 +0200,
11,exp3.png,exp4.png,,3,0,3,0,0,11,11,11,,,,,,,,,,,,,,,,,,,,,,,,,515.9963531999965,,,,,,,,,,,,515.8676349000016,515.8682422999991,515.8682716999901,False,71,72,False,exp3.png,exp4.png,trial_right_image,517.7866207999905,-1,exp4.png,4,exp4.png,exp3.png,1,3,reversed,correct,0.6404448491449062,1,valid_win,428.6428210000013,517.7869808999967,518.4017622999963,41,518.4017826999916,520.20005639999,,,,,,,,,,,,,,,,,,,,sub_576,2024-01-30_15h02.23.759,Reversal,2023.2.1,59.93647931873378,4,2024-01-30 15h02.34.452083 +0200,
12,exp1.png,exp2.png,,3,0,3,0,0,12,12,12,,,,,,,,,,,,,,,,,,,,,,,,,520.3357850000029,,,,,,,,,,,,520.2008317,520.2017190999904,520.2017836000014,False,72,73,False,exp1.png,exp2.png,trial_right_image,522.1034566000017,-1,exp2.png,4,exp2.png,exp1.png,1,1,non-reversed,correct,0.18824786713244845,0,invalid_lose,432.9597078999941,522.1038726999977,522.7180343999935,41,522.7180769999977,524.5160077000037,,,,,,,,,,,,,,,,,,,,sub_576,2024-01-30_15h02.23.759,Reversal,2023.2.1,59.93647931873378,4,2024-01-30 15h02.34.452083 +0200,
13,exp3.png,exp4.png,,3,0,3,0,0,13,13,13,,,,,,,,,,,,,,,,,,,,,,,,,524.6536278999993,,,,,,,,,,,,524.5165059999999,524.5171305999975,524.5171589999954,False,73,74,True,exp4.png,exp3.png,trial_left_image,526.7528048999957,1,exp4.png,4,exp4.png,exp3.png,1,3,reversed,correct,0.4389217602508608,1,valid_win,437.6090528999921,526.7532178999973,527.3675502999977,42,527.3675904999982,529.165345100002,,,,,,,,,,,,,,,,,,,,sub_576,2024-01-30_15h02.23.759,Reversal,2023.2.1,59.93647931873378,4,2024-01-30 15h02.34.452083 +0200,
14,exp1.png,exp2.png,,3,0,3,0,0,14,14,14,,,,,,,,,,,,,,,,,,,,,,,,,529.2941834999947,,,,,,,,,,,,529.1658084999945,529.1663839999965,529.166410699996,False,74,75,True,exp2.png,exp1.png,trial_left_image,531.1019786999968,1,exp2.png,4,exp2.png,exp1.png,1,1,non-reversed,correct,0.07077348062523936,0,invalid_lose,441.9582863999967,531.1024517999904,531.7169979000028,42,531.7170527999988,533.515135099995,,,,,,,,,,,,,,,,,,,,sub_576,2024-01-30_15h02.23.759,Reversal,2023.2.1,59.93647931873378,4,2024-01-30 15h02.34.452083 +0200,
15,exp3.png,exp4.png,,3,0,3,0,0,15,15,15,,,,,,,,,,,,,,,,,,,,,,,,,533.6572771999927,,,,,,,,,,,,533.515960299992,533.5169529999985,533.5170001999941,False,75,76,True,exp4.png,exp3.png,trial_left_image,535.5347357999999,1,exp4.png,4,exp4.png,exp3.png,1,3,reversed,correct,0.12900425292062767,0,invalid_lose,446.39102169999387,535.5351865999983,536.1494470000034,42,536.1494624999905,537.9473225999973,,,,,,,,,,,,,,,,,,,,sub_576,2024-01-30_15h02.23.759,Reversal,2023.2.1,59.93647931873378,4,2024-01-30 15h02.34.452083 +0200,
16,exp1.png,exp2.png,,3,0,3,0,0,16,16,16,,,,,,,,,,,,,,,,,,,,,,,,,538.070272500001,,,,,,,,,,,,537.9476504999911,537.9480932000006,537.9481109999906,False,76,77,False,exp1.png,exp2.png,trial_right_image,539.9349884999974,-1,exp2.png,4,exp2.png,exp1.png,1,1,non-reversed,correct,0.5387087509385838,1,valid_win,450.79139319999376,539.9355670999939,540.5493216999894,43,540.5493474999967,542.3468139999895,,,,,,,,,,,,,,,,,,,,sub_576,2024-01-30_15h02.23.759,Reversal,2023.2.1,59.93647931873378,4,2024-01-30 15h02.34.452083 +0200,
17,exp3.png,exp4.png,,3,0,3,0,0,17,17,17,,,,,,,,,,,,,,,,,,,,,,,,,542.4760059999971,,,,,,,,,,,,542.3472275999957,542.3477015999961,542.3477188999968,False,77,78,False,exp3.png,exp4.png,trial_right_image,544.3998013999953,-1,exp4.png,4,exp4.png,exp3.png,1,3,reversed,correct,0.8224602879051911,1,valid_win,455.25585959998716,544.4000124000013,545.0155834000034,44,545.0155996999965,546.8132707999903,,,,,,,,,,,,,,,,,,,,sub_576,2024-01-30_15h02.23.759,Reversal,2023.2.1,59.93647931873378,4,2024-01-30 15h02.34.452083 +0200,
18,exp1.png,exp2.png,,3,0,3,0,0,18,18,18,,,,,,,,,,,,,,,,,,,,,,,,,546.9524117999972,,,,,,,,,,,,546.814075000002,546.8152319999936,546.8152737999917,False,78,79,True,exp2.png,exp1.png,trial_left_image,549.0831814999983,1,exp2.png,4,exp2.png,exp1.png,1,1,non-reversed,correct,0.17491351450351078,0,invalid_lose,459.9395727999945,549.083749700003,549.6981365999964,44,549.6981685999926,551.4956254999997,,,,,,,,,,,,,,,,,,,,sub_576,2024-01-30_15h02.23.759,Reversal,2023.2.1,59.93647931873378,4,2024-01-30 15h02.34.452083 +0200,
19,exp3.png,exp4.png,,3,0,3,0,0,19,19,19,,,,,,,,,,,,,,,,,,,,,,,,,551.6332184999919,,,,,,,,,,,,551.4962480999966,551.4968932999909,551.4969239999918,False,79,80,True,exp4.png,exp3.png,trial_left_image,553.6488718000037,1,exp4.png,4,exp4.png,exp3.png,1,3,reversed,correct,0.2319876603420591,0,invalid_lose,464.50506219999806,553.6492215999897,554.2637286999961,44,554.2637454999931,556.0617790999968,,,,,,,,,,,,,,,,,,,,sub_576,2024-01-30_15h02.23.759,Reversal,2023.2.1,59.93647931873378,4,2024-01-30 15h02.34.452083 +0200,
20,exp1.png,exp2.png,,3,0,3,0,0,20,20,20,,,,,,,,,,,,,,,,,,,,,,,,,556.2331693000015,,,,,,,,,,,,556.062142099996,556.0625914999982,556.062606499996,True,,,,,,,556.1283200000034,,,,,,,,,,,,,,556.128334699999,556.1419517000031,,556.1419677999947,556.1583470999904,,,,,,,,,,,,,,,,,,,,sub_576,2024-01-30_15h02.23.759,Reversal,2023.2.1,59.93647931873378,4,2024-01-30 15h02.34.452083 +0200,
,,,exp1.png,3,0,3,0,,,,,0,0,0,0,0,0,0,0,,,,,,,,,,,,,,,,,556.2331693000015,,,,,,,,,,,,,,,,,,,,,,,,,,,,,,,,,,,,,,,,,556.1653320999903,556.2331693000015,559.4656732000003,99.0,99.0,2.0763429000071483,"[(99.0, 2.0763429000071483)]",,,,,,,,,,,,,sub_576,2024-01-30_15h02.23.759,Reversal,2023.2.1,59.93647931873378,4,2024-01-30 15h02.34.452083 +0200,
,,,exp2.png,3,0,3,0,,,,,0,0,0,0,0,1,1,1,,,,,,,,,,,,,,,,,559.5269550999947,,,,,,,,,,,,,,,,,,,,,,,,,,,,,,,,,,,,,,,,,559.4662493999931,559.5269550999947,561.4491593999992,,None,None,[],,,,,,,,,,,,,sub_576,2024-01-30_15h02.23.759,Reversal,2023.2.1,59.93647931873378,4,2024-01-30 15h02.34.452083 +0200,
,,,exp3.png,3,0,3,0,,,,,0,0,0,0,0,2,2,2,,,,,,,,,,,,,,,,,561.5094017999945,,,,,,,,,,,,,,,,,,,,,,,,,,,,,,,,,,,,,,,,,561.4496340999904,561.5094017999945,563.7157050999958,,98.0,1.0731152999942424,"[(98.0, 1.0731152999942424)]",,,98.0,,,,,,,,,,sub_576,2024-01-30_15h02.23.759,Reversal,2023.2.1,59.93647931873378,4,2024-01-30 15h02.34.452083 +0200,
,,,exp4.png,3,0,3,0,,,,,0,0,0,0,0,3,3,3,,,,,,,,,,,,,,,,,563.7785380999994,,,,,,,,,,,,,,,,,,,,,,,,,,,,,,,,,,,,,,,,,563.7162065000011,563.7785380999994,566.3814468999917,,98.0,1.573025100005907,"[(98.0, 1.573025100005907)]",98.0,,,,,,,,,,,,sub_576,2024-01-30_15h02.23.759,Reversal,2023.2.1,59.93647931873378,4,2024-01-30 15h02.34.452083 +0200,
0,exp1.png,exp2.png,,,,,,,,,,,,,,,,,,0,0,0,0,0,0,0,0,,,,,,,,,566.4980060999951,,,,,,,,,,,,,,566.3894070999959,False,0,81,True,exp2.png,exp1.png,trial_right_image,568.7982885999954,-1,exp1.png,4,exp2.png,exp1.png,0,2,non-reversed,incorrect,0.8177489869055267,0,valid_lose,479.6547799999971,568.7989701999904,569.4119702000025,44,569.4119849999988,571.209758500001,,,,,,,,,,,566.388713399996,566.389388800002,477.30053969999426,,,,,,,sub_576,2024-01-30_15h02.23.759,Reversal,2023.2.1,59.93647931873378,4,2024-01-30 15h02.34.452083 +0200,
1,exp3.png,exp4.png,,,,,,,,,,,,,,,,,,0,0,0,0,0,1,1,1,,,,,,,,,571.3498166999925,,,,,,,,,,,,,,571.2105039000016,False,1,82,True,exp4.png,exp3.png,trial_left_image,573.2303061999992,1,exp4.png,4,exp3.png,exp4.png,1,3,reversed,incorrect,0.5357955605884765,0,valid_lose,484.08642659999896,573.2305809999962,573.8449953999952,44,573.8450449999946,575.6428369999921,,,,,,,,,,,571.2100714999979,571.2104865000001,,,,,,,,sub_576,2024-01-30_15h02.23.759,Reversal,2023.2.1,59.93647931873378,4,2024-01-30 15h02.34.452083 +0200,
2,exp1.png,exp2.png,,,,,,,,,,,,,,,,,,0,0,0,0,0,2,2,2,,,,,,,,,575.7771630999923,,,,,,,,,,,,,,575.6448967999895,False,2,83,False,exp1.png,exp2.png,trial_right_image,577.6623315000033,-1,exp2.png,4,exp2.png,exp1.png,1,1,non-reversed,correct,0.47769778516748196,1,valid_win,488.5184961999912,577.6626539999997,578.2776780999993,45,578.2777212999936,580.075377599991,,,,,,,,,,,575.6437893999973,575.644842099995,,,,,,,,sub_576,2024-01-30_15h02.23.759,Reversal,2023.2.1,59.93647931873378,4,2024-01-30 15h02.34.452083 +0200,
3,exp3.png,exp4.png,,,,,,,,,,,,,,,,,,0,0,0,0,0,3,3,3,,,,,,,,,580.2180590999924,,,,,,,,,,,,,,580.0766992999997,False,3,84,False,exp3.png,exp4.png,trial_right_image,581.8789437999949,-1,exp4.png,4,exp3.png,exp4.png,1,3,reversed,incorrect,0.454269920179162,0,valid_lose,492.7352866000001,581.8794540999952,582.4936159999925,45,582.4936317999964,584.2916043000005,,,,,,,,,,,580.0761761000031,580.0766754999931,,,,,,,,sub_576,2024-01-30_15h02.23.759,Reversal,2023.2.1,59.93647931873378,4,2024-01-30 15h02.34.452083 +0200,
4,exp1.png,exp2.png,,,,,,,,,,,,,,,,,,0,0,0,0,0,4,4,4,,,,,,,,,584.4155606999993,,,,,,,,,,,,,,584.2923882000032,False,4,85,False,exp1.png,exp2.png,trial_right_image,586.144984899991,-1,exp2.png,4,exp2.png,exp1.png,1,1,non-reversed,correct,0.7055800092237479,1,valid_win,497.0012609999976,586.1454234999983,586.7600852999894,46,586.7601279999944,588.5578697000019,,,,,,,,,,,584.2919259999908,584.292368800001,,,,,,,,sub_576,2024-01-30_15h02.23.759,Reversal,2023.2.1,59.93647931873378,4,2024-01-30 15h02.34.452083 +0200,
5,exp3.png,exp4.png,,,,,,,,,,,,,,,,,,0,0,0,0,0,5,5,5,,,,,,,,,588.7031647999975,,,,,,,,,,,,,,588.5594714999897,False,5,86,True,exp4.png,exp3.png,trial_left_image,590.9942242999969,1,exp4.png,4,exp3.png,exp4.png,1,3,reversed,incorrect,0.23268419208763025,1,invalid_win,501.85051809999277,590.9946828999964,591.6092457999912,47,591.6092672999948,593.4072704999999,,,,,,,,,,,588.5585259999934,588.5594310000015,,,,,,,,sub_576,2024-01-30_15h02.23.759,Reversal,2023.2.1,59.93647931873378,4,2024-01-30 15h02.34.452083 +0200,
6,exp1.png,exp2.png,,,,,,,,,,,,,,,,,,0,0,0,0,0,6,6,6,,,,,,,,,593.5450521000021,,,,,,,,,,,,,,593.4087282999972,False,6,87,True,exp2.png,exp1.png,trial_left_image,595.4433934999979,1,exp2.png,4,exp2.png,exp1.png,1,1,non-reversed,correct,0.6832311841030205,1,valid_win,506.2994744999887,595.4436278999929,596.0586454000004,48,596.0586642999988,597.8564018999896,,,,,,,,,,,593.407805099996,593.4086954999948,,,,,,,,sub_576,2024-01-30_15h02.23.759,Reversal,2023.2.1,59.93647931873378,4,2024-01-30 15h02.34.452083 +0200,
7,exp3.png,exp4.png,,,,,,,,,,,,,,,,,,0,0,0,0,0,7,7,7,,,,,,,,,597.9988999999914,,,,,,,,,,,,,,597.857628999991,False,7,88,False,exp3.png,exp4.png,trial_right_image,600.7429978,-1,exp4.png,4,exp3.png,exp4.png,1,3,reversed,incorrect,0.5912936224337451,0,valid_lose,511.59915660000115,600.7433155999897,601.3579344000027,48,601.3579492999997,603.1557371999952,,,,,,,,,,,597.8568806999974,597.8575996,,,,,,,,sub_576,2024-01-30_15h02.23.759,Reversal,2023.2.1,59.93647931873378,4,2024-01-30 15h02.34.452083 +0200,
8,exp1.png,exp2.png,,,,,,,,,,,,,,,,,,0,0,0,0,0,8,8,8,,,,,,,,,603.2823372999992,,,,,,,,,,,,,,603.1566816999984,False,8,89,True,exp2.png,exp1.png,trial_left_image,605.0253856999916,1,exp2.png,4,exp2.png,exp1.png,1,1,non-reversed,correct,0.4506905704096297,1,valid_win,515.8814089999942,605.0255589000008,605.6408731999982,49,605.6409153999994,607.4383585999894,,,,,,,,,,,603.1561248999933,603.15664809999,,,,,,,,sub_576,2024-01-30_15h02.23.759,Reversal,2023.2.1,59.93647931873378,4,2024-01-30 15h02.34.452083 +0200,
9,exp3.png,exp4.png,,,,,,,,,,,,,,,,,,0,0,0,0,0,9,9,9,,,,,,,,,607.569341800001,,,,,,,,,,,,,,607.4391560999939,False,9,90,False,exp3.png,exp4.png,trial_right_image,610.042094199991,-1,exp4.png,4,exp3.png,exp4.png,1,3,reversed,incorrect,0.3720961777191777,0,valid_lose,520.8982738999912,610.0424344999919,610.6567394000012,49,610.6567588999897,612.4546808000014,,,,,,,,,,,607.4386897999939,607.4391359000001,,,,,,,,sub_576,2024-01-30_15h02.23.759,Reversal,2023.2.1,59.93647931873378,4,2024-01-30 15h02.34.452083 +0200,
10,exp1.png,exp2.png,,,,,,,,,,,,,,,,,,0,0,0,0,0,10,10,10,,,,,,,,,612.5982002999954,,,,,,,,,,,,,,612.4559669000009,False,10,91,True,exp2.png,exp1.png,trial_left_image,614.8915809000027,1,exp2.png,4,exp2.png,exp1.png,1,1,non-reversed,correct,0.48969658309582953,1,valid_win,525.7478601999901,614.8920262000029,615.5060662000033,50,615.5060806999973,617.3039331000036,,,,,,,,,,,612.4552315000037,612.4559308000025,,,,,,,,sub_576,2024-01-30_15h02.23.759,Reversal,2023.2.1,59.93647931873378,4,2024-01-30 15h02.34.452083 +0200,
11,exp3.png,exp4.png,,,,,,,,,,,,,,,,,,0,0,0,0,0,11,11,11,,,,,,,,,617.4294032000034,,,,,,,,,,,,,,617.3047627999913,False,11,92,True,exp4.png,exp3.png,trial_left_image,619.3422029999929,1,exp4.png,4,exp3.png,exp4.png,1,3,reversed,incorrect,0.7030396188112227,0,valid_lose,530.1990737999877,619.3432715999952,619.9566667000036,50,619.9567354000028,621.7534938000026,,,,,,,,,,,617.3042932999961,617.3047434999899,,,,,,,,sub_576,2024-01-30_15h02.23.759,Reversal,2023.2.1,59.93647931873378,4,2024-01-30 15h02.34.452083 +0200,
12,exp1.png,exp2.png,,,,,,,,,,,,,,,,,,0,0,0,0,0,12,12,12,,,,,,,,,621.8935638999974,,,,,,,,,,,,,,621.7550506999978,False,12,93,True,exp2.png,exp1.png,trial_left_image,623.956649899992,1,exp2.png,4,exp2.png,exp1.png,1,1,non-reversed,correct,0.41820178821527676,1,valid_win,534.8129110000009,623.9570747999969,624.5716287999967,51,624.5716453999921,626.3695137999894,,,,,,,,,,,621.75417439999,621.7549943999911,,,,,,,,sub_576,2024-01-30_15h02.23.759,Reversal,2023.2.1,59.93647931873378,4,2024-01-30 15h02.34.452083 +0200,
13,exp3.png,exp4.png,,,,,,,,,,,,,,,,,,0,0,0,0,0,13,13,13,,,,,,,,,626.4926957999996,,,,,,,,,,,,,,626.3703413999901,False,13,94,False,exp3.png,exp4.png,trial_right_image,629.0721617999952,-1,exp4.png,4,exp3.png,exp4.png,1,3,reversed,incorrect,0.7609417466779266,0,valid_lose,539.9282173999964,629.0723698999936,629.6874695000006,51,629.6874897999951,631.4853189999994,,,,,,,,,,,626.3698473999975,626.3703213999979,,,,,,,,sub_576,2024-01-30_15h02.23.759,Reversal,2023.2.1,59.93647931873378,4,2024-01-30 15h02.34.452083 +0200,
14,exp1.png,exp2.png,,,,,,,,,,,,,,,,,,0,0,0,0,0,14,14,14,,,,,,,,,631.6085693999921,,,,,,,,,,,,,,631.4861090999912,False,14,95,True,exp2.png,exp1.png,trial_left_image,633.688777599993,1,exp2.png,4,exp2.png,exp1.png,1,1,non-reversed,correct,0.16906240288946084,0,invalid_lose,544.5449217999994,633.6890796999942,634.3040646000009,51,634.3040834999993,636.1019155999966,,,,,,,,,,,631.4856468999933,631.486089500002,,,,,,,,sub_576,2024-01-30_15h02.23.759,Reversal,2023.2.1,59.93647931873378,4,2024-01-30 15h02.34.452083 +0200,
15,exp3.png,exp4.png,,,,,,,,,,,,,,,,,,0,0,0,0,0,15,15,15,,,,,,,,,636.2346318999917,,,,,,,,,,,,,,636.1034176999965,False,15,96,True,exp4.png,exp3.png,trial_left_image,637.954567599998,1,exp4.png,4,exp3.png,exp4.png,1,3,reversed,incorrect,0.8790482387914377,0,valid_lose,548.8107065999939,637.954862899991,638.5696778999991,51,638.5696936000022,640.3677994000027,,,,,,,,,,,636.1025842999952,636.1033791999944,,,,,,,,sub_576,2024-01-30_15h02.23.759,Reversal,2023.2.1,59.93647931873378,4,2024-01-30 15h02.34.452083 +0200,
16,exp1.png,exp2.png,,,,,,,,,,,,,,,,,,0,0,0,0,0,16,16,16,,,,,,,,,640.5111006999941,,,,,,,,,,,,,,640.3690854000015,False,16,97,False,exp1.png,exp2.png,trial_left_image,642.6216284999973,1,exp1.png,4,exp2.png,exp1.png,0,2,non-reversed,incorrect,0.320456665939567,0,valid_lose,553.4778863999964,642.6220509999985,643.2363396000001,51,643.2363774999976,645.0339471999905,,,,,,,,,,,640.3683691999904,640.3690505999984,,,,,,,,sub_576,2024-01-30_15h02.23.759,Reversal,2023.2.1,59.93647931873378,4,2024-01-30 15h02.34.452083 +0200,
17,exp3.png,exp4.png,,,,,,,,,,,,,,,,,,0,0,0,0,0,17,17,17,,,,,,,,,645.1663400999969,,,,,,,,,,,,,,645.0353879999893,False,17,98,False,exp3.png,exp4.png,trial_right_image,647.336675899991,-1,exp4.png,4,exp3.png,exp4.png,1,3,reversed,incorrect,0.6922179092968777,0,valid_lose,558.192830999993,647.3369886,647.952139999994,51,647.9521788999991,649.7497741999978,,,,,,,,,,,645.0345417999924,645.0353505999956,,,,,,,,sub_576,2024-01-30_15h02.23.759,Reversal,2023.2.1,59.93647931873378,4,2024-01-30 15h02.34.452083 +0200,
18,exp1.png,exp2.png,,,,,,,,,,,,,,,,,,0,0,0,0,0,18,18,18,,,,,,,,,649.8753643999953,,,,,,,,,,,,,,649.7505785999965,False,18,99,False,exp1.png,exp2.png,trial_right_image,651.5528281000006,-1,exp2.png,4,exp2.png,exp1.png,1,1,non-reversed,correct,0.711535771907745,1,valid_win,562.4089655999996,651.5531220999983,652.1684423999977,52,652.1684707999957,653.9659868000017,,,,,,,,,,,649.7501313999965,649.7505596999981,,,,,,,,sub_576,2024-01-30_15h02.23.759,Reversal,2023.2.1,59.93647931873378,4,2024-01-30 15h02.34.452083 +0200,
19,exp3.png,exp4.png,,,,,,,,,,,,,,,,,,0,0,0,0,0,19,19,19,,,,,,,,,654.1003054999892,,,,,,,,,,,,,,653.9671971999924,False,19,100,False,exp3.png,exp4.png,trial_right_image,655.686295499996,-1,exp4.png,4,exp3.png,exp4.png,1,3,reversed,incorrect,0.3742548355771701,0,valid_lose,566.542561899987,655.6867239999992,656.300974999991,52,656.3009992000007,658.0986431999918,,,,,,,,,,,653.9665012999903,653.9671645999915,,,,,,,,sub_576,2024-01-30_15h02.23.759,Reversal,2023.2.1,59.93647931873378,4,2024-01-30 15h02.34.452083 +0200,
20,exp1.png,exp2.png,,,,,,,,,,,,,,,,,,0,0,0,0,0,20,20,20,,,,,,,,,658.288327000002,,,,,,,,,,,,,,658.0993595999898,True,,,,,,,658.1676880000014,,,,,,,,,,,,,,658.1677037999907,658.1826293999911,,658.1826463000034,658.2133918000036,,,,,,,,,,,658.0989326999988,658.0993426999921,,,,,,,,sub_576,2024-01-30_15h02.23.759,Reversal,2023.2.1,59.93647931873378,4,2024-01-30 15h02.34.452083 +0200,
,,,exp1.png,,,,,,,,,,,,,,,,,0,0,0,0,,,,,0,0,0,0,0,0,0,0,658.288327000002,,,,,,,,,,,,,,,,,,,,,,,,,,,,,,,,,,,,,,,,,658.2225916000025,658.288327000002,661.3859086000011,100.0,100.0,2.023074800003087,"[(100.0, 2.023074800003087)]",,,,,,,,,,,,,sub_576,2024-01-30_15h02.23.759,Reversal,2023.2.1,59.93647931873378,4,2024-01-30 15h02.34.452083 +0200,
,,,exp2.png,,,,,,,,,,,,,,,,,0,0,0,0,,,,,0,0,0,0,0,1,1,1,661.443998799994,,,,,,,,,,,,,,,,,,,,,,,,,,,,,,,,,,,,,,,,,661.3865055999922,661.443998799994,665.5028287000023,,100.0,3.0245050999947125,"[(100.0, 3.0245050999947125)]",,100.0,,,,,,,,,,,sub_576,2024-01-30_15h02.23.759,Reversal,2023.2.1,59.93647931873378,4,2024-01-30 15h02.34.452083 +0200,
,,,exp3.png,,,,,,,,,,,,,,,,,0,0,0,0,,,,,0,0,0,0,0,2,2,2,665.5665217999922,,,,,,,,,,,,,,,,,,,,,,,,,,,,,,,,,,,,,,,,,665.5033837999945,665.5665217999922,668.7353007999918,,100.0,2.086149299997487,"[(100.0, 2.086149299997487)]",,,100.0,,,,,,,,,,sub_576,2024-01-30_15h02.23.759,Reversal,2023.2.1,59.93647931873378,4,2024-01-30 15h02.34.452083 +0200,
,,,exp4.png,,,,,,,,,,,,,,,,,0,0,0,0,,,,,0,0,0,0,0,3,3,3,668.7938333999919,,,,,,,,,,,,,,,,,,,,,,,,,,,,,,,,,,,,,,,,,668.7358077999961,668.7938333999919,671.836191800001,,96.0,2.009867899992969,"[(96.0, 2.009867899992969)]",96.0,,,,,,,,,,,,sub_576,2024-01-30_15h02.23.759,Reversal,2023.2.1,59.93647931873378,4,2024-01-30 15h02.34.452083 +0200,
0,exp1.png,exp2.png,,,,,,,,,,,,,,,,,,1,0,1,0,0,0,0,0,,,,,,,,,671.9597836999892,,,,,,,,,,,,,,671.8468859999994,False,20,101,False,exp1.png,exp2.png,trial_right_image,673.7677086999902,-1,exp2.png,4,exp2.png,exp1.png,1,1,non-reversed,correct,0.5959617566102192,1,valid_win,584.6242319000012,673.7684099999897,674.3818597999925,53,674.381876799991,676.1796853999986,,,,,,,,,,,671.8459666999988,671.8468559999892,,,,,,,,sub_576,2024-01-30_15h02.23.759,Reversal,2023.2.1,59.93647931873378,4,2024-01-30 15h02.34.452083 +0200,
1,exp3.png,exp4.png,,,,,,,,,,,,,,,,,,1,0,1,0,0,1,1,1,,,,,,,,,676.3127699000033,,,,,,,,,,,,,,676.180664200001,False,21,102,False,exp3.png,exp4.png,trial_right_image,678.6001708999975,-1,exp4.png,4,exp3.png,exp4.png,1,3,reversed,incorrect,0.48906793806109783,0,valid_lose,589.4562331999914,678.6003956999921,679.2149096999929,53,679.2149323999911,681.0124827999971,,,,,,,,,,,676.1801074999967,676.1806391999999,,,,,,,,sub_576,2024-01-30_15h02.23.759,Reversal,2023.2.1,59.93647931873378,4,2024-01-30 15h02.34.452083 +0200,
2,exp1.png,exp2.png,,,,,,,,,,,,,,,,,,1,0,1,0,0,2,2,2,,,,,,,,,681.138592000003,,,,,,,,,,,,,,681.0134257000027,False,22,103,False,exp1.png,exp2.png,trial_right_image,682.9992113999906,-1,exp2.png,4,exp2.png,exp1.png,1,1,non-reversed,correct,0.2998867166633048,1,valid_win,593.8554153000005,682.9995771999966,683.6143583999947,54,683.6143728000025,685.4120762999955,,,,,,,,,,,681.0128529999929,681.0134036999953,,,,,,,,sub_576,2024-01-30_15h02.23.759,Reversal,2023.2.1,59.93647931873378,4,2024-01-30 15h02.34.452083 +0200,
3,exp3.png,exp4.png,,,,,,,,,,,,,,,,,,1,0,1,0,0,3,3,3,,,,,,,,,685.5433667999896,,,,,,,,,,,,,,685.4133612000005,False,23,104,True,exp4.png,exp3.png,trial_left_image,688.0816201999987,1,exp4.png,4,exp3.png,exp4.png,1,3,reversed,incorrect,0.29118393990800495,0,valid_lose,598.9376749999938,688.0818268000003,688.6968569000019,54,688.6968758000003,690.4950966000033,,,,,,,,,,,685.4128866999963,685.4133400999999,,,,,,,,sub_576,2024-01-30_15h02.23.759,Reversal,2023.2.1,59.93647931873378,4,2024-01-30 15h02.34.452083 +0200,
4,exp1.png,exp2.png,,,,,,,,,,,,,,,,,,1,0,1,0,0,4,4,4,,,,,,,,,690.6363791999902,,,,,,,,,,,,,,690.4966394999938,False,24,105,True,exp2.png,exp1.png,trial_left_image,692.3811170999979,1,exp2.png,4,exp2.png,exp1.png,1,1,non-reversed,correct,0.7301370859480562,1,valid_win,603.237227199992,692.3813825999969,692.9963411999925,55,692.996372499998,694.7943746999954,,,,,,,,,,,690.4957089999953,690.4966018999985,,,,,,,,sub_576,2024-01-30_15h02.23.759,Reversal,2023.2.1,59.93647931873378,4,2024-01-30 15h02.34.452083 +0200,
5,exp3.png,exp4.png,,,,,,,,,,,,,,,,,,1,0,1,0,0,5,5,5,,,,,,,,,694.941842699991,,,,,,,,,,,,,,694.7963842000026,False,25,106,False,exp3.png,exp4.png,trial_right_image,697.1312278999976,-1,exp4.png,4,exp3.png,exp4.png,1,3,reversed,incorrect,0.08917076476894814,1,invalid_win,607.9877293999889,697.1319183000014,697.7467497999896,56,697.7468051000033,699.5434480999975,,,,,,,,,,,694.7952380999923,694.7963274999929,,,,,,,,sub_576,2024-01-30_15h02.23.759,Reversal,2023.2.1,59.93647931873378,4,2024-01-30 15h02.34.452083 +0200,
6,exp1.png,exp2.png,,,,,,,,,,,,,,,,,,1,0,1,0,0,6,6,6,,,,,,,,,699.662728299998,,,,,,,,,,,,,,699.5441935999988,False,26,107,True,exp2.png,exp1.png,trial_right_image,702.4299411999964,-1,exp1.png,4,exp2.png,exp1.png,0,2,non-reversed,incorrect,0.7639768750422187,0,valid_lose,613.2860235999979,702.4301810999896,703.044862099996,56,703.044888599994,704.8431023000012,,,,,,,,,,,699.5437677000009,699.5441766000004,,,,,,,,sub_576,2024-01-30_15h02.23.759,Reversal,2023.2.1,59.93647931873378,4,2024-01-30 15h02.34.452083 +0200,
7,exp3.png,exp4.png,,,,,,,,,,,,,,,,,,1,0,1,0,0,7,7,7,,,,,,,,,704.9928963999992,,,,,,,,,,,,,,704.8448255999974,False,27,108,True,exp4.png,exp3.png,trial_right_image,706.8458297000034,-1,exp3.png,4,exp3.png,exp4.png,0,4,reversed,correct,0.554875883628481,1,valid_win,617.7020707999909,706.8462939000019,707.4610579,57,707.4610826999997,709.2588733000011,,,,,,,,,,,704.8439316000004,704.8447785000026,,,,,,,,sub_576,2024-01-30_15h02.23.759,Reversal,2023.2.1,59.93647931873378,4,2024-01-30 15h02.34.452083 +0200,
8,exp1.png,exp2.png,,,,,,,,,,,,,,,,,,1,0,1,0,0,8,8,8,,,,,,,,,709.3956305000029,,,,,,,,,,,,,,709.2603513999929,False,28,109,False,exp1.png,exp2.png,trial_right_image,711.078731200003,-1,exp2.png,4,exp2.png,exp1.png,1,1,non-reversed,correct,0.020184852045253443,0,invalid_lose,621.9349177999975,711.0790789000021,711.693677999996,57,711.6937065999955,713.4919363999943,,,,,,,,,,,709.2595411999937,709.2603062999988,,,,,,,,sub_576,2024-01-30_15h02.23.759,Reversal,2023.2.1,59.93647931873378,4,2024-01-30 15h02.34.452083 +0200,
9,exp3.png,exp4.png,,,,,,,,,,,,,,,,,,1,0,1,0,0,9,9,9,,,,,,,,,713.6357775999932,,,,,,,,,,,,,,713.4933376999979,False,29,110,True,exp4.png,exp3.png,trial_left_image,715.528484800001,1,exp4.png,4,exp3.png,exp4.png,1,3,reversed,incorrect,0.1562732141214388,1,invalid_win,626.3846720000001,715.5288321999979,716.1435098999937,58,716.1435405999946,717.9409920000035,,,,,,,,,,,713.4925625999895,713.4933000000019,,,,,,,,sub_576,2024-01-30_15h02.23.759,Reversal,2023.2.1,59.93647931873378,4,2024-01-30 15h02.34.452083 +0200,
10,exp1.png,exp2.png,,,,,,,,,,,,,,,,,,1,0,1,0,0,10,10,10,,,,,,,,,718.0632384999917,,,,,,,,,,,,,,717.941623199993,False,30,111,True,exp2.png,exp1.png,trial_left_image,719.810954799992,1,exp2.png,4,exp2.png,exp1.png,1,1,non-reversed,correct,0.19072965008321174,0,invalid_lose,630.6670668999868,719.8112225999939,720.4261791000026,58,720.4262162999948,722.2237206999998,,,,,,,,,,,717.9412512999988,717.9416083999968,,,,,,,,sub_576,2024-01-30_15h02.23.759,Reversal,2023.2.1,59.93647931873378,4,2024-01-30 15h02.34.452083 +0200,
11,exp3.png,exp4.png,,,,,,,,,,,,,,,,,,1,0,1,0,0,11,11,11,,,,,,,,,722.3562489000033,,,,,,,,,,,,,,722.2245514999959,False,31,112,True,exp4.png,exp3.png,trial_left_image,724.1100692999898,1,exp4.png,4,exp3.png,exp4.png,1,3,reversed,incorrect,0.8619554173134186,0,valid_lose,634.9662221999897,724.1103787000029,724.7255562999926,58,724.7255728000018,726.5233270000026,,,,,,,,,,,722.224075399994,722.2245308999991,,,,,,,,sub_576,2024-01-30_15h02.23.759,Reversal,2023.2.1,59.93647931873378,4,2024-01-30 15h02.34.452083 +0200,
12,exp1.png,exp2.png,,,,,,,,,,,,,,,,,,1,0,1,0,0,12,12,12,,,,,,,,,726.6575704999996,,,,,,,,,,,,,,726.5244770999998,False,32,113,False,exp1.png,exp2.png,trial_right_image,728.960485699994,-1,exp2.png,4,exp2.png,exp1.png,1,1,non-reversed,correct,0.27472812572569183,1,valid_win,639.8167297999898,728.9608942999912,729.5750001999986,59,729.5750145999918,731.3730601999996,,,,,,,,,,,726.523818799993,726.5244468000019,,,,,,,,sub_576,2024-01-30_15h02.23.759,Reversal,2023.2.1,59.93647931873378,4,2024-01-30 15h02.34.452083 +0200,
13,exp3.png,exp4.png,,,,,,,,,,,,,,,,,,1,0,1,0,0,13,13,13,,,,,,,,,731.5084618999972,,,,,,,,,,,,,,731.374994999991,False,33,114,False,exp3.png,exp4.png,trial_right_image,733.1090441999986,-1,exp4.png,4,exp3.png,exp4.png,1,3,reversed,incorrect,0.5460440545652887,0,valid_lose,643.9650945999892,733.1092463999958,733.7247449999995,59,733.7247586000012,735.5222055999911,,,,,,,,,,,731.3738780999993,731.3749457999947,,,,,,,,sub_576,2024-01-30_15h02.23.759,Reversal,2023.2.1,59.93647931873378,4,2024-01-30 15h02.34.452083 +0200,
14,exp1.png,exp2.png,,,,,,,,,,,,,,,,,,1,0,1,0,0,14,14,14,,,,,,,,,735.6417949000024,,,,,,,,,,,,,,735.522879199998,False,34,115,True,exp2.png,exp1.png,trial_left_image,737.7420034999959,1,exp2.png,4,exp2.png,exp1.png,1,1,non-reversed,correct,0.32398485242758734,1,valid_win,648.598176200001,737.7423348000011,738.3569470999937,60,738.3569660999929,740.1553048999922,,,,,,,,,,,735.522476099999,735.5228636999964,,,,,,,,sub_576,2024-01-30_15h02.23.759,Reversal,2023.2.1,59.93647931873378,4,2024-01-30 15h02.34.452083 +0200,
15,exp3.png,exp4.png,,,,,,,,,,,,,,,,,,1,0,1,0,0,15,15,15,,,,,,,,,740.3023471999913,,,,,,,,,,,,,,740.1570034999895,False,35,116,False,exp3.png,exp4.png,trial_left_image,742.7911682999984,1,exp3.png,4,exp3.png,exp4.png,0,4,reversed,correct,0.4557761523967192,1,valid_win,653.6473108999926,742.791467899995,743.4064882999955,61,743.4065093999961,745.2042058999941,,,,,,,,,,,740.1561168999906,740.1569531999994,,,,,,,,sub_576,2024-01-30_15h02.23.759,Reversal,2023.2.1,59.93647931873378,4,2024-01-30 15h02.34.452083 +0200,
16,exp1.png,exp2.png,,,,,,,,,,,,,,,,,,1,0,1,0,0,16,16,16,,,,,,,,,745.3342813999916,,,,,,,,,,,,,,745.2053069999965,False,36,117,True,exp2.png,exp1.png,trial_left_image,747.1076188000006,1,exp2.png,4,exp2.png,exp1.png,1,1,non-reversed,correct,0.5709890313243029,1,valid_win,657.9637532999914,747.1079101999931,747.7222621999972,62,747.7222772999958,749.5204855999909,,,,,,,,,,,745.2046814999921,745.2052774999902,,,,,,,,sub_576,2024-01-30_15h02.23.759,Reversal,2023.2.1,59.93647931873378,4,2024-01-30 15h02.34.452083 +0200,
17,exp3.png,exp4.png,,,,,,,,,,,,,,,,,,1,0,1,0,0,17,17,17,,,,,,,,,749.6468722999998,,,,,,,,,,,,,,749.5214491999941,False,37,118,False,exp3.png,exp4.png,trial_left_image,751.7069448999973,1,exp3.png,4,exp3.png,exp4.png,0,4,reversed,correct,0.821287867962782,1,valid_win,662.5630650999956,751.7072209000034,752.3219151999947,63,752.3219307999971,754.120514299997,,,,,,,,,,,749.5208920000005,749.5214241999929,,,,,,,,sub_576,2024-01-30_15h02.23.759,Reversal,2023.2.1,59.93647931873378,4,2024-01-30 15h02.34.452083 +0200,
18,exp1.png,exp2.png,,,,,,,,,,,,,,,,,,1,0,1,0,0,18,18,18,,,,,,,,,754.2602899999911,,,,,,,,,,,,,,754.1221166000032,False,38,119,True,exp2.png,exp1.png,trial_left_image,755.99068789999,1,exp2.png,4,exp2.png,exp1.png,1,1,non-reversed,correct,0.6049357129899964,1,valid_win,666.8468910999945,755.9910530999914,756.6046505999984,64,756.604674000002,758.4024217999977,,,,,,,,,,,754.1212211999955,754.1220719999983,,,,,,,,sub_576,2024-01-30_15h02.23.759,Reversal,2023.2.1,59.93647931873378,4,2024-01-30 15h02.34.452083 +0200,
19,exp3.png,exp4.png,,,,,,,,,,,,,,,,,,1,0,1,0,0,19,19,19,,,,,,,,,758.5226287999976,,,,,,,,,,,,,,758.403201699999,False,39,120,False,exp3.png,exp4.png,trial_left_image,760.2390497000015,1,exp3.png,4,exp3.png,exp4.png,0,4,reversed,correct,0.2789704109962403,1,valid_win,671.0951257999986,760.2392793999898,760.8539970999991,65,760.8540154999937,762.652105000001,,,,,,,,,,,758.4027487999992,758.4031823999976,,,,,,,,sub_576,2024-01-30_15h02.23.759,Reversal,2023.2.1,59.93647931873378,4,2024-01-30 15h02.34.452083 +0200,
20,exp1.png,exp2.png,,,,,,,,,,,,,,,,,,1,0,1,0,0,20,20,20,,,,,,,,,762.8573219999962,,,,,,,,,,,,,,762.6540392000024,True,,,,,,,762.7473770999932,,,,,,,,,,,,,,762.7473948999977,762.7616738999932,,762.7616910999932,762.779071099998,,,,,,,,,,,762.6530556999933,762.6539989000012,,,,,,,,sub_576,2024-01-30_15h02.23.759,Reversal,2023.2.1,59.93647931873378,4,2024-01-30 15h02.34.452083 +0200,
,,,exp1.png,,,,,,,,,,,,,,,,,1,0,1,0,,,,,0,0,0,0,0,0,0,0,762.8573219999962,,,,,,,,,,,,,,,,,,,,,,,,,,,,,,,,,,,,,,,,,762.7907966999919,762.8573219999962,765.9237595000013,100.0,100.0,1.9576420999947004,"[(100.0, 1.9576420999947004)]",,,,,,,,,,,,,sub_576,2024-01-30_15h02.23.759,Reversal,2023.2.1,59.93647931873378,4,2024-01-30 15h02.34.452083 +0200,
,,,exp2.png,,,,,,,,,,,,,,,,,1,0,1,0,,,,,0,0,0,0,0,1,1,1,765.9859188999981,,,,,,,,,,,,,,,,,,,,,,,,,,,,,,,,,,,,,,,,,765.9245189999929,765.9859188999981,768.3558861999918,,100.0,1.369731300001149,"[(100.0, 1.369731300001149)]",,100.0,,,,,,,,,,,sub_576,2024-01-30_15h02.23.759,Reversal,2023.2.1,59.93647931873378,4,2024-01-30 15h02.34.452083 +0200,
,,,exp3.png,,,,,,,,,,,,,,,,,1,0,1,0,,,,,0,0,0,0,0,2,2,2,768.4118920999899,,,,,,,,,,,,,,,,,,,,,,,,,,,,,,,,,,,,,,,,,768.3563313999912,768.4118920999899,770.6561232999957,,97.0,1.1916299000004074,"[(97.0, 1.1916299000004074)]",,,97.0,,,,,,,,,,sub_576,2024-01-30_15h02.23.759,Reversal,2023.2.1,59.93647931873378,4,2024-01-30 15h02.34.452083 +0200,
,,,exp4.png,,,,,,,,,,,,,,,,,1,0,1,0,,,,,0,0,0,0,0,3,3,3,770.7173462999926,,,,,,,,,,,,,,,,,,,,,,,,,,,,,,,,,,,,,,,,,770.6566802000016,770.7173462999926,772.9049258000014,,95.0,1.1555040999955963,"[(95.0, 1.1555040999955963)]",95.0,,,,,,,,,,,,sub_576,2024-01-30_15h02.23.759,Reversal,2023.2.1,59.93647931873378,4,2024-01-30 15h02.34.452083 +0200,
0,exp1.png,exp2.png,,,,,,,,,,,,,,,,,,2,0,2,0,0,0,0,0,,,,,,,,,773.0238621000026,,,,,,,,,,,,,,772.9125379999896,False,40,121,True,exp2.png,exp1.png,trial_left_image,775.1556001999998,1,exp2.png,4,exp2.png,exp1.png,1,1,non-reversed,correct,0.9970939186877847,1,valid_win,686.0126291999914,775.1568373999908,775.7690720999963,66,775.7690959000029,777.5671741999977,,,,,,,,,,,772.9119371999986,772.912522300001,,,,,,,,sub_576,2024-01-30_15h02.23.759,Reversal,2023.2.1,59.93647931873378,4,2024-01-30 15h02.34.452083 +0200,
1,exp3.png,exp4.png,,,,,,,,,,,,,,,,,,2,0,2,0,0,1,1,1,,,,,,,,,777.7034790000034,,,,,,,,,,,,,,777.5691579999984,False,41,122,True,exp4.png,exp3.png,trial_left_image,779.4366574000014,1,exp4.png,4,exp3.png,exp4.png,1,3,reversed,incorrect,0.6497419326067596,0,valid_lose,690.2928302999935,779.4369914999988,780.0522992999904,66,780.0523369000002,781.8496650000016,,,,,,,,,,,777.5680376999953,777.5691036999924,,,,,,,,sub_576,2024-01-30_15h02.23.759,Reversal,2023.2.1,59.93647931873378,4,2024-01-30 15h02.34.452083 +0200,
2,exp1.png,exp2.png,,,,,,,,,,,,,,,,,,2,0,2,0,0,2,2,2,,,,,,,,,781.9899787000031,,,,,,,,,,,,,,781.8510320999922,False,42,123,False,exp1.png,exp2.png,trial_right_image,783.7692879999959,-1,exp2.png,4,exp2.png,exp1.png,1,1,non-reversed,correct,0.8114159569087835,1,valid_win,694.6254420999903,783.7695998999989,784.385875299995,67,784.3859307999955,786.1826253999898,,,,,,,,,,,781.8503165000002,781.8509991000028,,,,,,,,sub_576,2024-01-30_15h02.23.759,Reversal,2023.2.1,59.93647931873378,4,2024-01-30 15h02.34.452083 +0200,
3,exp3.png,exp4.png,,,,,,,,,,,,,,,,,,2,0,2,0,0,3,3,3,,,,,,,,,786.3001672999962,,,,,,,,,,,,,,786.1832209999993,False,43,124,True,exp4.png,exp3.png,trial_right_image,787.7355903999996,-1,exp3.png,4,exp3.png,exp4.png,0,4,reversed,correct,0.9146384304501922,1,valid_win,698.5917364999914,787.7359058000002,788.350609999994,68,788.3506295999978,790.1486476999999,,,,,,,,,,,786.1828777999908,786.1832075999992,,,,,,,,sub_576,2024-01-30_15h02.23.759,Reversal,2023.2.1,59.93647931873378,4,2024-01-30 15h02.34.452083 +0200,
4,exp1.png,exp2.png,,,,,,,,,,,,,,,,,,2,0,2,0,0,4,4,4,,,,,,,,,790.2891228999943,,,,,,,,,,,,,,790.1500146000035,False,44,125,True,exp2.png,exp1.png,trial_right_image,792.1183346999896,-1,exp1.png,4,exp2.png,exp1.png,0,2,non-reversed,incorrect,0.2889674239645488,0,valid_lose,702.9745384999987,792.1187018999917,792.7333260000014,68,792.7333406999969,794.5314293999982,,,,,,,,,,,790.149290699992,790.149975399996,,,,,,,,sub_576,2024-01-30_15h02.23.759,Reversal,2023.2.1,59.93647931873378,4,2024-01-30 15h02.34.452083 +0200,
5,exp3.png,exp4.png,,,,,,,,,,,,,,,,,,2,0,2,0,0,5,5,5,,,,,,,,,794.6598444999981,,,,,,,,,,,,,,794.5323621999996,False,45,126,True,exp4.png,exp3.png,trial_left_image,796.4508492000023,1,exp4.png,4,exp3.png,exp4.png,1,3,reversed,incorrect,0.6171979733320524,0,valid_lose,707.3069913999934,796.4511475000036,797.0661928999907,68,797.0662062999909,798.8644510000013,,,,,,,,,,,794.5318310000002,794.5323377000022,,,,,,,,sub_576,2024-01-30_15h02.23.759,Reversal,2023.2.1,59.93647931873378,4,2024-01-30 15h02.34.452083 +0200,
6,exp1.png,exp2.png,,,,,,,,,,,,,,,,,,2,0,2,0,0,6,6,6,,,,,,,,,799.0082381999964,,,,,,,,,,,,,,798.8661098000011,False,46,127,False,exp1.png,exp2.png,trial_right_image,800.7174861999956,-1,exp2.png,4,exp2.png,exp1.png,1,1,non-reversed,correct,0.35572000176330065,1,valid_win,711.5735841999995,800.7177389999997,801.3324641999934,69,801.3324902000022,803.1300856000016,,,,,,,,,,,798.8651496999955,798.8660654999985,,,,,,,,sub_576,2024-01-30_15h02.23.759,Reversal,2023.2.1,59.93647931873378,4,2024-01-30 15h02.34.452083 +0200,
7,exp3.png,exp4.png,,,,,,,,,,,,,,,,,,2,0,2,0,0,7,7,7,,,,,,,,,803.2719531999901,,,,,,,,,,,,,,803.1310814000026,False,47,128,True,exp4.png,exp3.png,trial_right_image,804.9166916999966,-1,exp3.png,4,exp3.png,exp4.png,0,4,reversed,correct,0.59648610740712,1,valid_win,715.7728384999937,804.9170015999989,805.531605199998,70,805.5316201999958,807.3297509999975,,,,,,,,,,,803.130522099993,803.1310571999929,,,,,,,,sub_576,2024-01-30_15h02.23.759,Reversal,2023.2.1,59.93647931873378,4,2024-01-30 15h02.34.452083 +0200,
8,exp1.png,exp2.png,,,,,,,,,,,,,,,,,,2,0,2,0,0,8,8,8,,,,,,,,,807.4636583999963,,,,,,,,,,,,,,807.3307821999915,False,48,129,False,exp1.png,exp2.png,trial_right_image,809.0162028999912,-1,exp2.png,4,exp2.png,exp1.png,1,1,non-reversed,correct,0.7720215392083012,1,valid_win,719.8723449999961,809.0165028999909,809.6316382999939,71,809.6316702999902,811.4289984999923,,,,,,,,,,,807.3301962999976,807.3307554999919,,,,,,,,sub_576,2024-01-30_15h02.23.759,Reversal,2023.2.1,59.93647931873378,4,2024-01-30 15h02.34.452083 +0200,
9,exp3.png,exp4.png,,,,,,,,,,,,,,,,,,2,0,2,0,0,9,9,9,,,,,,,,,811.5462310000003,,,,,,,,,,,,,,811.4297347999964,False,49,130,False,exp3.png,exp4.png,trial_right_image,813.1832815999951,-1,exp4.png,4,exp3.png,exp4.png,1,3,reversed,incorrect,0.6579098752927194,0,valid_lose,724.0394875999918,813.1836524999962,813.7975029999943,71,813.7975313999923,815.5952509999915,,,,,,,,,,,811.4293046999956,811.4297173999948,,,,,,,,sub_576,2024-01-30_15h02.23.759,Reversal,2023.2.1,59.93647931873378,4,2024-01-30 15h02.34.452083 +0200,
10,exp1.png,exp2.png,,,,,,,,,,,,,,,,,,2,0,2,0,0,10,10,10,,,,,,,,,815.7332549999992,,,,,,,,,,,,,,815.5965958000015,False,50,131,True,exp2.png,exp1.png,trial_right_image,817.3313525999984,-1,exp1.png,4,exp2.png,exp1.png,0,2,non-reversed,incorrect,0.9988306698313187,0,valid_lose,728.187439699992,817.331594000003,817.9470394999953,71,817.9470872999955,819.7450276000018,,,,,,,,,,,815.5958589999937,815.5965609999985,,,,,,,,sub_576,2024-01-30_15h02.23.759,Reversal,2023.2.1,59.93647931873378,4,2024-01-30 15h02.34.452083 +0200,
11,exp3.png,exp4.png,,,,,,,,,,,,,,,,,,2,0,2,0,0,11,11,11,,,,,,,,,819.8765371999907,,,,,,,,,,,,,,819.746541799992,False,51,132,True,exp4.png,exp3.png,trial_left_image,821.5644783000025,1,exp4.png,4,exp3.png,exp4.png,1,3,reversed,incorrect,0.7376251280330204,0,valid_lose,732.4206527999922,821.5648108000023,822.1796235999936,71,822.179639199996,823.9778907,,,,,,,,,,,819.7456757999898,819.7465004999976,,,,,,,,sub_576,2024-01-30_15h02.23.759,Reversal,2023.2.1,59.93647931873378,4,2024-01-30 15h02.34.452083 +0200,
12,exp1.png,exp2.png,,,,,,,,,,,,,,,,,,2,0,2,0,0,12,12,12,,,,,,,,,824.1179823999992,,,,,,,,,,,,,,823.9797562000022,False,52,133,False,exp1.png,exp2.png,trial_right_image,825.680632299991,-1,exp2.png,4,exp2.png,exp1.png,1,1,non-reversed,correct,0.10117433554144806,0,invalid_lose,736.5369634999952,825.6811267000012,826.2960785000032,71,826.2960993000015,828.0937040999997,,,,,,,,,,,823.9786847999931,823.9796707999922,,,,,,,,sub_576,2024-01-30_15h02.23.759,Reversal,2023.2.1,59.93647931873378,4,2024-01-30 15h02.34.452083 +0200,
13,exp3.png,exp4.png,,,,,,,,,,,,,,,,,,2,0,2,0,0,13,13,13,,,,,,,,,828.2094149999903,,,,,,,,,,,,,,828.0943765999982,False,53,134,True,exp4.png,exp3.png,trial_right_image,830.347090700001,-1,exp3.png,4,exp3.png,exp4.png,0,4,reversed,correct,0.8811676592615343,1,valid_win,741.2032546999981,830.3474112999975,830.9620887999918,72,830.9621189000027,832.7601087999938,,,,,,,,,,,828.0939794000005,828.0943602999905,,,,,,,,sub_576,2024-01-30_15h02.23.759,Reversal,2023.2.1,59.93647931873378,4,2024-01-30 15h02.34.452083 +0200,
14,exp1.png,exp2.png,,,,,,,,,,,,,,,,,,2,0,2,0,0,14,14,14,,,,,,,,,832.9084736999939,,,,,,,,,,,,,,832.7614827999932,False,54,135,False,exp1.png,exp2.png,trial_right_image,834.3960485999996,-1,exp2.png,4,exp2.png,exp1.png,1,1,non-reversed,correct,0.537529458534386,1,valid_win,745.2522596999916,834.3964182999916,835.0113927999919,73,835.0114270999911,836.8097440999991,,,,,,,,,,,832.7607186999958,832.7614455000003,,,,,,,,sub_576,2024-01-30_15h02.23.759,Reversal,2023.2.1,59.93647931873378,4,2024-01-30 15h02.34.452083 +0200,
15,exp3.png,exp4.png,,,,,,,,,,,,,,,,,,2,0,2,0,0,15,15,15,,,,,,,,,836.9422345999919,,,,,,,,,,,,,,836.8117475000035,False,55,136,False,exp3.png,exp4.png,trial_right_image,838.4317990999989,-1,exp4.png,4,exp3.png,exp4.png,1,3,reversed,incorrect,0.5376767114333404,0,valid_lose,749.2886681999953,838.4328644999914,839.044238699993,73,839.0442539999931,840.8422768000019,,,,,,,,,,,836.8106489999918,836.8116927999945,,,,,,,,sub_576,2024-01-30_15h02.23.759,Reversal,2023.2.1,59.93647931873378,4,2024-01-30 15h02.34.452083 +0200,
16,exp1.png,exp2.png,,,,,,,,,,,,,,,,,,2,0,2,0,0,16,16,16,,,,,,,,,840.9733274000027,,,,,,,,,,,,,,840.8439040999947,False,56,137,False,exp1.png,exp2.png,trial_left_image,843.4619474999927,1,exp1.png,4,exp2.png,exp1.png,0,2,non-reversed,incorrect,0.6221480346143744,0,valid_lose,754.3181192999909,843.4622782999941,844.0768067000026,73,844.0768221000035,845.8750037999998,,,,,,,,,,,840.8429370999947,840.8438634999911,,,,,,,,sub_576,2024-01-30_15h02.23.759,Reversal,2023.2.1,59.93647931873378,4,2024-01-30 15h02.34.452083 +0200,
17,exp3.png,exp4.png,,,,,,,,,,,,,,,,,,2,0,2,0,0,17,17,17,,,,,,,,,846.0070502000017,,,,,,,,,,,,,,845.8765094999981,False,57,138,True,exp4.png,exp3.png,trial_left_image,847.6946782000014,1,exp4.png,4,exp3.png,exp4.png,1,3,reversed,incorrect,0.7877215889096432,0,valid_lose,758.5508666999958,847.6950260000012,848.3097108999937,73,848.3097276999906,850.1076069999981,,,,,,,,,,,845.8756832999934,845.8764578999981,,,,,,,,sub_576,2024-01-30_15h02.23.759,Reversal,2023.2.1,59.93647931873378,4,2024-01-30 15h02.34.452083 +0200,
18,exp1.png,exp2.png,,,,,,,,,,,,,,,,,,2,0,2,0,0,18,18,18,,,,,,,,,850.2440822999924,,,,,,,,,,,,,,850.1086580999981,False,58,139,False,exp1.png,exp2.png,trial_left_image,851.944195899996,1,exp1.png,4,exp2.png,exp1.png,0,2,non-reversed,incorrect,0.3546349590679242,0,valid_lose,762.8003731999925,851.9445325999986,852.5592146999988,73,852.5592346999911,854.3568637999997,,,,,,,,,,,850.1080667999922,850.1086308999948,,,,,,,,sub_576,2024-01-30_15h02.23.759,Reversal,2023.2.1,59.93647931873378,4,2024-01-30 15h02.34.452083 +0200,
19,exp3.png,exp4.png,,,,,,,,,,,,,,,,,,2,0,2,0,0,19,19,19,,,,,,,,,854.4856304999994,,,,,,,,,,,,,,854.3576737999974,False,59,140,False,exp3.png,exp4.png,trial_right_image,856.1271347000002,-1,exp4.png,4,exp3.png,exp4.png,1,3,reversed,incorrect,0.6032031761896995,0,valid_lose,766.9833616999967,856.1275237999944,856.7420928999927,73,856.7421400000021,858.539669299993,,,,,,,,,,,854.3572239999921,854.3576554000028,,,,,,,,sub_576,2024-01-30_15h02.23.759,Reversal,2023.2.1,59.93647931873378,4,2024-01-30 15h02.34.452083 +0200,
20,exp1.png,exp2.png,,,,,,,,,,,,,,,,,,2,0,2,0,0,20,20,20,,,,,,,,,858.7324892000033,,,,,,,,,,,,,,858.5405136999907,True,,,,,,,858.6121018999984,,,,,,,,,,,,,,858.6121171999985,858.6253482000029,,858.6253635999892,858.6486397999979,,,,,,,,,,,858.540003999995,858.5404953999969,,,,,,,,sub_576,2024-01-30_15h02.23.759,Reversal,2023.2.1,59.93647931873378,4,2024-01-30 15h02.34.452083 +0200,
,,,exp1.png,,,,,,,,,,,,,,,,,2,0,2,0,,,,,0,0,0,0,0,0,0,0,858.7324892000033,,,,,,,,,,,,,,,,,,,,,,,,,,,,,,,,,,,,,,,,,858.653690399995,858.7324892000033,861.7787441999972,96.0,96.0,1.6296051999961492,"[(96.0, 1.6296051999961492)]",,,,,,,,,,,,,sub_576,2024-01-30_15h02.23.759,Reversal,2023.2.1,59.93647931873378,4,2024-01-30 15h02.34.452083 +0200,
,,,exp2.png,,,,,,,,,,,,,,,,,2,0,2,0,,,,,0,0,0,0,0,1,1,1,861.8415477999952,,,,,,,,,,,,,,,,,,,,,,,,,,,,,,,,,,,,,,,,,861.7795906999963,861.8415477999952,864.560075699992,,97.0,1.686725599996862,"[(97.0, 1.686725599996862)]",,97.0,,,,,,,,,,,sub_576,2024-01-30_15h02.23.759,Reversal,2023.2.1,59.93647931873378,4,2024-01-30 15h02.34.452083 +0200,
,,,exp3.png,,,,,,,,,,,,,,,,,2,0,2,0,,,,,0,0,0,0,0,2,2,2,864.6208691999927,,,,,,,,,,,,,,,,,,,,,,,,,,,,,,,,,,,,,,,,,864.5605569999898,864.6208691999927,867.2266793000017,,92.0,1.5062828999944031,"[(92.0, 1.5062828999944031)]",,,92.0,,,,,,,,,,sub_576,2024-01-30_15h02.23.759,Reversal,2023.2.1,59.93647931873378,4,2024-01-30 15h02.34.452083 +0200,
,,,exp4.png,,,,,,,,,,,,,,,,,2,0,2,0,,,,,0,0,0,0,0,3,3,3,867.284705500002,,,,,,,,,,,,,,,,,,,,,,,,,,,,,,,,,,,,,,,,,867.2271517999907,867.284705500002,869.7273317999934,,91.0,1.3423813999979757,"[(91.0, 1.3423813999979757)]",91.0,,,,,,,,,,,,sub_576,2024-01-30_15h02.23.759,Reversal,2023.2.1,59.93647931873378,4,2024-01-30 15h02.34.452083 +0200,
,,,,,,,,,,,,,,,,,,,,,,,,,,,,,,,,,,,,,,,,,,,,,,,,,,,,,,,,,,,,,,,,,,,,,,,,,,73,,,,,,,,,,,,,,,,869.7278220000007,78,48,30,303.2831620999932,1,,,,,,,,
