trial_index,trial_image1_file,trial_image2_file,image_file,learning_outer_loop.thisRepN,learning_outer_loop.thisTrialN,learning_outer_loop.thisN,learning_outer_loop.thisIndex,learning_inner_loop.thisRepN,learning_inner_loop.thisTrialN,learning_inner_loop.thisN,learning_inner_loop.thisIndex,learning_estimation_outer_loop.thisRepN,learning_estimation_outer_loop.thisTrialN,learning_estimation_outer_loop.thisN,learning_estimation_outer_loop.thisIndex,learning_estimation_inner_loop.thisRepN,learning_estimation_inner_loop.thisTrialN,learning_estimation_inner_loop.thisN,learning_estimation_inner_loop.thisIndex,reversal_outer_loop.thisRepN,reversal_outer_loop.thisTrialN,reversal_outer_loop.thisN,reversal_outer_loop.thisIndex,reversal_inner_loop.thisRepN,reversal_inner_loop.thisTrialN,reversal_inner_loop.thisN,reversal_inner_loop.thisIndex,reversal_estimation_outer_loop.thisRepN,reversal_estimation_outer_loop.thisTrialN,reversal_estimation_outer_loop.thisN,reversal_estimation_outer_loop.thisIndex,reversal_estimation_inner_loop.thisRepN,reversal_estimation_inner_loop.thisTrialN,reversal_estimation_inner_loop.thisN,reversal_estimation_inner_loop.thisIndex,skipped,total_trial_counter,trial_num,left_right_flip,left_image_file,right_image_file,clicked_stimulus_side,side,clicked_stimulus,version,high_prob_image_file,low_prob_image_file,choice_a,choice_b,pair_type,correct,trial_feedback_random,reward,trial_type,overall_time_after_trial,score,estimation_rating.started,estimation_exp1.png,estimation_rating.response,estimation_rating.rt,estimation_rating.history,estimation_exp2.png,estimation_exp4.png,estimation_exp3.png,total_learning_time,total_correct,learning_correct,reversal_correct,total_reversal_time,extra_block,end_experiment.keys,end_experiment.rt,end_experiment.duration,participant,date,expName,psychopyVersion,frameRate,ver,
0,exp1.png,exp2.png,,0,0,0,0,0,0,0,0,,,,,,,,,,,,,,,,,,,,,,,,,True,,,,,,,,,,,,,,,,,,,,,,,,,,,,,,,,,,,,,,sub_437,2024-03-31_11h44.44.969,Reversal,2023.1.3,59.973144027572715,1,
1,exp3.png,exp4.png,,0,0,0,0,0,1,1,1,,,,,,,,,,,,,,,,,,,,,,,,,False,0,1,True,exp4.png,exp3.png,trial_right_image,-1,exp3.png,1,exp3.png,exp4.png,1,1,non-reversed,correct,0.9989064699282546,1,valid_win,13.795398499991279,1,,,,,,,,,,,,,,,,,,sub_437,2024-03-31_11h44.44.969,Reversal,2023.1.3,59.973144027572715,1,
2,exp1.png,exp2.png,,0,0,0,0,0,2,2,2,,,,,,,,,,,,,,,,,,,,,,,,,False,1,2,True,exp2.png,exp1.png,trial_right_image,-1,exp1.png,1,exp1.png,exp2.png,1,3,reversed,correct,0.2677758836419527,1,valid_win,21.777184600010514,2,,,,,,,,,,,,,,,,,,sub_437,2024-03-31_11h44.44.969,Reversal,2023.1.3,59.973144027572715,1,
3,exp3.png,exp4.png,,0,0,0,0,0,3,3,3,,,,,,,,,,,,,,,,,,,,,,,,,False,2,3,True,exp4.png,exp3.png,trial_right_image,-1,exp3.png,1,exp3.png,exp4.png,1,1,non-reversed,correct,0.7298717282877436,1,valid_win,28.273163500009105,3,,,,,,,,,,,,,,,,,,sub_437,2024-03-31_11h44.44.969,Reversal,2023.1.3,59.973144027572715,1,
4,exp1.png,exp2.png,,0,0,0,0,0,4,4,4,,,,,,,,,,,,,,,,,,,,,,,,,False,3,4,True,exp2.png,exp1.png,trial_left_image,1,exp2.png,1,exp1.png,exp2.png,0,4,reversed,incorrect,0.3992273521724442,0,valid_lose,35.354461800016,3,,,,,,,,,,,,,,,,,,sub_437,2024-03-31_11h44.44.969,Reversal,2023.1.3,59.973144027572715,1,
5,exp3.png,exp4.png,,0,0,0,0,0,5,5,5,,,,,,,,,,,,,,,,,,,,,,,,,False,4,5,False,exp3.png,exp4.png,trial_right_image,-1,exp4.png,1,exp3.png,exp4.png,0,2,non-reversed,incorrect,0.13328940776289766,1,invalid_win,41.26908450000337,4,,,,,,,,,,,,,,,,,,sub_437,2024-03-31_11h44.44.969,Reversal,2023.1.3,59.973144027572715,1,
6,exp1.png,exp2.png,,0,0,0,0,0,6,6,6,,,,,,,,,,,,,,,,,,,,,,,,,False,5,6,True,exp2.png,exp1.png,trial_right_image,-1,exp1.png,1,exp1.png,exp2.png,1,3,reversed,correct,0.18406818332597097,0,invalid_lose,47.88265819998924,4,,,,,,,,,,,,,,,,,,sub_437,2024-03-31_11h44.44.969,Reversal,2023.1.3,59.973144027572715,1,
7,exp3.png,exp4.png,,0,0,0,0,0,7,7,7,,,,,,,,,,,,,,,,,,,,,,,,,False,6,7,False,exp3.png,exp4.png,trial_right_image,-1,exp4.png,1,exp3.png,exp4.png,0,2,non-reversed,incorrect,0.8330518719506546,0,valid_lose,57.77942969999276,4,,,,,,,,,,,,,,,,,,sub_437,2024-03-31_11h44.44.969,Reversal,2023.1.3,59.973144027572715,1,
8,exp1.png,exp2.png,,0,0,0,0,0,8,8,8,,,,,,,,,,,,,,,,,,,,,,,,,False,7,8,False,exp1.png,exp2.png,trial_left_image,1,exp1.png,1,exp1.png,exp2.png,1,3,reversed,correct,0.72882555371252,1,valid_win,62.41097430000082,5,,,,,,,,,,,,,,,,,,sub_437,2024-03-31_11h44.44.969,Reversal,2023.1.3,59.973144027572715,1,
9,exp3.png,exp4.png,,0,0,0,0,0,9,9,9,,,,,,,,,,,,,,,,,,,,,,,,,False,8,9,False,exp3.png,exp4.png,trial_left_image,1,exp3.png,1,exp3.png,exp4.png,1,1,non-reversed,correct,0.5018834104236921,1,valid_win,67.75895079999464,6,,,,,,,,,,,,,,,,,,sub_437,2024-03-31_11h44.44.969,Reversal,2023.1.3,59.973144027572715,1,
10,exp1.png,exp2.png,,0,0,0,0,0,10,10,10,,,,,,,,,,,,,,,,,,,,,,,,,False,9,10,True,exp2.png,exp1.png,trial_right_image,-1,exp1.png,1,exp1.png,exp2.png,1,3,reversed,correct,0.6856926943958123,1,valid_win,72.89086600000155,7,,,,,,,,,,,,,,,,,,sub_437,2024-03-31_11h44.44.969,Reversal,2023.1.3,59.973144027572715,1,
11,exp3.png,exp4.png,,0,0,0,0,0,11,11,11,,,,,,,,,,,,,,,,,,,,,,,,,False,10,11,False,exp3.png,exp4.png,trial_left_image,1,exp3.png,1,exp3.png,exp4.png,1,1,non-reversed,correct,0.4721164044670968,1,valid_win,77.65549070000998,8,,,,,,,,,,,,,,,,,,sub_437,2024-03-31_11h44.44.969,Reversal,2023.1.3,59.973144027572715,1,
12,exp1.png,exp2.png,,0,0,0,0,0,12,12,12,,,,,,,,,,,,,,,,,,,,,,,,,False,11,12,True,exp2.png,exp1.png,trial_right_image,-1,exp1.png,1,exp1.png,exp2.png,1,3,reversed,correct,0.7702276820828794,1,valid_win,82.08772609999869,9,,,,,,,,,,,,,,,,,,sub_437,2024-03-31_11h44.44.969,Reversal,2023.1.3,59.973144027572715,1,
13,exp3.png,exp4.png,,0,0,0,0,0,13,13,13,,,,,,,,,,,,,,,,,,,,,,,,,False,12,13,False,exp3.png,exp4.png,trial_left_image,1,exp3.png,1,exp3.png,exp4.png,1,1,non-reversed,correct,0.09615799566070737,0,invalid_lose,86.9533919999958,9,,,,,,,,,,,,,,,,,,sub_437,2024-03-31_11h44.44.969,Reversal,2023.1.3,59.973144027572715,1,
14,exp1.png,exp2.png,,0,0,0,0,0,14,14,14,,,,,,,,,,,,,,,,,,,,,,,,,False,13,14,False,exp1.png,exp2.png,trial_left_image,1,exp1.png,1,exp1.png,exp2.png,1,3,reversed,correct,0.1390171682888368,0,invalid_lose,92.4017800000147,9,,,,,,,,,,,,,,,,,,sub_437,2024-03-31_11h44.44.969,Reversal,2023.1.3,59.973144027572715,1,
15,exp3.png,exp4.png,,0,0,0,0,0,15,15,15,,,,,,,,,,,,,,,,,,,,,,,,,False,14,15,False,exp3.png,exp4.png,trial_right_image,-1,exp4.png,1,exp3.png,exp4.png,0,2,non-reversed,incorrect,0.6714315553587602,0,valid_lose,97.96617850000621,9,,,,,,,,,,,,,,,,,,sub_437,2024-03-31_11h44.44.969,Reversal,2023.1.3,59.973144027572715,1,
16,exp1.png,exp2.png,,0,0,0,0,0,16,16,16,,,,,,,,,,,,,,,,,,,,,,,,,False,15,16,True,exp2.png,exp1.png,trial_right_image,-1,exp1.png,1,exp1.png,exp2.png,1,3,reversed,correct,0.3264619848740098,1,valid_win,102.64802170000621,10,,,,,,,,,,,,,,,,,,sub_437,2024-03-31_11h44.44.969,Reversal,2023.1.3,59.973144027572715,1,
17,exp3.png,exp4.png,,0,0,0,0,0,17,17,17,,,,,,,,,,,,,,,,,,,,,,,,,False,16,17,False,exp3.png,exp4.png,trial_left_image,1,exp3.png,1,exp3.png,exp4.png,1,1,non-reversed,correct,0.7883800113636702,1,valid_win,109.11248519999208,11,,,,,,,,,,,,,,,,,,sub_437,2024-03-31_11h44.44.969,Reversal,2023.1.3,59.973144027572715,1,
18,exp1.png,exp2.png,,0,0,0,0,0,18,18,18,,,,,,,,,,,,,,,,,,,,,,,,,False,17,18,False,exp1.png,exp2.png,trial_left_image,1,exp1.png,1,exp1.png,exp2.png,1,3,reversed,correct,0.4384595071707672,1,valid_win,115.51014329999452,12,,,,,,,,,,,,,,,,,,sub_437,2024-03-31_11h44.44.969,Reversal,2023.1.3,59.973144027572715,1,
19,exp3.png,exp4.png,,0,0,0,0,0,19,19,19,,,,,,,,,,,,,,,,,,,,,,,,,False,18,19,True,exp4.png,exp3.png,trial_right_image,-1,exp3.png,1,exp3.png,exp4.png,1,1,non-reversed,correct,0.15582767986961943,0,invalid_lose,120.99136770001496,12,,,,,,,,,,,,,,,,,,sub_437,2024-03-31_11h44.44.969,Reversal,2023.1.3,59.973144027572715,1,
20,exp1.png,exp2.png,,0,0,0,0,0,20,20,20,,,,,,,,,,,,,,,,,,,,,,,,,False,19,20,True,exp2.png,exp1.png,trial_right_image,-1,exp1.png,1,exp1.png,exp2.png,1,3,reversed,correct,0.15438940325662043,0,invalid_lose,125.88976489999914,12,,,,,,,,,,,,,,,,,,sub_437,2024-03-31_11h44.44.969,Reversal,2023.1.3,59.973144027572715,1,
,,,exp1.png,0,0,0,0,,,,,0,0,0,0,0,0,0,0,,,,,,,,,,,,,,,,,,,,,,,,,,,,,,,,,,,,,,203.73758159999852,99.0,99.0,12.817581799987238,"[(99.0, 12.817581799987238)]",,,,,,,,,,,,,sub_437,2024-03-31_11h44.44.969,Reversal,2023.1.3,59.973144027572715,1,
,,,exp2.png,0,0,0,0,,,,,0,0,0,0,0,1,1,1,,,,,,,,,,,,,,,,,,,,,,,,,,,,,,,,,,,,,,218.06835970000247,,51.0,7.291276000003563,"[(34.0, 4.12557529998594), (51.0, 7.291276000003563)]",51.0,,,,,,,,,,,,sub_437,2024-03-31_11h44.44.969,Reversal,2023.1.3,59.973144027572715,1,
,,,exp3.png,0,0,0,0,,,,,0,0,0,0,0,2,2,2,,,,,,,,,,,,,,,,,,,,,,,,,,,,,,,,,,,,,,226.59666189999552,,None,None,[],,,,,,,,,,,,,sub_437,2024-03-31_11h44.44.969,Reversal,2023.1.3,59.973144027572715,1,
,,,exp4.png,0,0,0,0,,,,,0,0,0,0,0,3,3,3,,,,,,,,,,,,,,,,,,,,,,,,,,,,,,,,,,,,,,230.4450302000041,,5.0,4.159265700000105,"[(17.0, 2.9601850000035483), (5.0, 4.159265700000105)]",,5.0,,,,,,,,,,,sub_437,2024-03-31_11h44.44.969,Reversal,2023.1.3,59.973144027572715,1,
0,exp1.png,exp2.png,,1,0,1,0,0,0,0,0,,,,,,,,,,,,,,,,,,,,,,,,,True,,,,,,,,,,,,,,,,,,,,,,,,,,,,,,,,,,,,,,sub_437,2024-03-31_11h44.44.969,Reversal,2023.1.3,59.973144027572715,1,
1,exp3.png,exp4.png,,1,0,1,0,0,1,1,1,,,,,,,,,,,,,,,,,,,,,,,,,False,20,21,False,exp3.png,exp4.png,trial_left_image,1,exp3.png,1,exp3.png,exp4.png,1,1,non-reversed,correct,0.700001401044307,1,valid_win,165.25978339998983,13,,,,,,,,,,,,,,,,,,sub_437,2024-03-31_11h44.44.969,Reversal,2023.1.3,59.973144027572715,1,
2,exp1.png,exp2.png,,1,0,1,0,0,2,2,2,,,,,,,,,,,,,,,,,,,,,,,,,False,21,22,False,exp1.png,exp2.png,trial_right_image,-1,exp2.png,1,exp1.png,exp2.png,0,4,reversed,incorrect,0.9584567238976479,0,valid_lose,170.50748940001358,13,,,,,,,,,,,,,,,,,,sub_437,2024-03-31_11h44.44.969,Reversal,2023.1.3,59.973144027572715,1,
3,exp3.png,exp4.png,,1,0,1,0,0,3,3,3,,,,,,,,,,,,,,,,,,,,,,,,,False,22,23,False,exp3.png,exp4.png,trial_left_image,1,exp3.png,1,exp3.png,exp4.png,1,1,non-reversed,correct,0.2500737353604192,1,valid_win,175.92247379999026,14,,,,,,,,,,,,,,,,,,sub_437,2024-03-31_11h44.44.969,Reversal,2023.1.3,59.973144027572715,1,
4,exp1.png,exp2.png,,1,0,1,0,0,4,4,4,,,,,,,,,,,,,,,,,,,,,,,,,False,23,24,True,exp2.png,exp1.png,trial_right_image,-1,exp1.png,1,exp1.png,exp2.png,1,3,reversed,correct,0.7510041321076288,1,valid_win,180.4542347000097,15,,,,,,,,,,,,,,,,,,sub_437,2024-03-31_11h44.44.969,Reversal,2023.1.3,59.973144027572715,1,
5,exp3.png,exp4.png,,1,0,1,0,0,5,5,5,,,,,,,,,,,,,,,,,,,,,,,,,False,24,25,False,exp3.png,exp4.png,trial_left_image,1,exp3.png,1,exp3.png,exp4.png,1,1,non-reversed,correct,0.06552567061084347,0,invalid_lose,186.3853611999948,15,,,,,,,,,,,,,,,,,,sub_437,2024-03-31_11h44.44.969,Reversal,2023.1.3,59.973144027572715,1,
6,exp1.png,exp2.png,,1,0,1,0,0,6,6,6,,,,,,,,,,,,,,,,,,,,,,,,,False,25,26,False,exp1.png,exp2.png,trial_left_image,1,exp1.png,1,exp1.png,exp2.png,1,3,reversed,correct,0.2244240544100603,0,invalid_lose,192.48447190001025,15,,,,,,,,,,,,,,,,,,sub_437,2024-03-31_11h44.44.969,Reversal,2023.1.3,59.973144027572715,1,
7,exp3.png,exp4.png,,1,0,1,0,0,7,7,7,,,,,,,,,,,,,,,,,,,,,,,,,False,26,27,True,exp4.png,exp3.png,trial_left_image,1,exp4.png,1,exp3.png,exp4.png,0,2,non-reversed,incorrect,0.8932976650772628,0,valid_lose,198.38174479998997,15,,,,,,,,,,,,,,,,,,sub_437,2024-03-31_11h44.44.969,Reversal,2023.1.3,59.973144027572715,1,
8,exp1.png,exp2.png,,1,0,1,0,0,8,8,8,,,,,,,,,,,,,,,,,,,,,,,,,False,27,28,False,exp1.png,exp2.png,trial_right_image,-1,exp2.png,1,exp1.png,exp2.png,0,4,reversed,incorrect,0.34149476972565895,0,valid_lose,205.31283310000435,15,,,,,,,,,,,,,,,,,,sub_437,2024-03-31_11h44.44.969,Reversal,2023.1.3,59.973144027572715,1,
9,exp3.png,exp4.png,,1,0,1,0,0,9,9,9,,,,,,,,,,,,,,,,,,,,,,,,,False,28,29,True,exp4.png,exp3.png,trial_right_image,-1,exp3.png,1,exp3.png,exp4.png,1,1,non-reversed,correct,0.5130988084168839,1,valid_win,212.7103211999929,16,,,,,,,,,,,,,,,,,,sub_437,2024-03-31_11h44.44.969,Reversal,2023.1.3,59.973144027572715,1,
10,exp1.png,exp2.png,,1,0,1,0,0,10,10,10,,,,,,,,,,,,,,,,,,,,,,,,,False,29,30,True,exp2.png,exp1.png,trial_right_image,-1,exp1.png,1,exp1.png,exp2.png,1,3,reversed,correct,0.35465480517164727,1,valid_win,217.608260900015,17,,,,,,,,,,,,,,,,,,sub_437,2024-03-31_11h44.44.969,Reversal,2023.1.3,59.973144027572715,1,
11,exp3.png,exp4.png,,1,0,1,0,0,11,11,11,,,,,,,,,,,,,,,,,,,,,,,,,False,30,31,True,exp4.png,exp3.png,trial_right_image,-1,exp3.png,1,exp3.png,exp4.png,1,1,non-reversed,correct,0.3232551239935184,1,valid_win,223.63933649999672,18,,,,,,,,,,,,,,,,,,sub_437,2024-03-31_11h44.44.969,Reversal,2023.1.3,59.973144027572715,1,
12,exp1.png,exp2.png,,1,0,1,0,0,12,12,12,,,,,,,,,,,,,,,,,,,,,,,,,False,31,32,False,exp1.png,exp2.png,trial_left_image,1,exp1.png,1,exp1.png,exp2.png,1,3,reversed,correct,0.5285905306225264,1,valid_win,228.92131340000196,19,,,,,,,,,,,,,,,,,,sub_437,2024-03-31_11h44.44.969,Reversal,2023.1.3,59.973144027572715,1,
13,exp3.png,exp4.png,,1,0,1,0,0,13,13,13,,,,,,,,,,,,,,,,,,,,,,,,,False,32,33,True,exp4.png,exp3.png,trial_right_image,-1,exp3.png,1,exp3.png,exp4.png,1,1,non-reversed,correct,0.224956803250699,0,invalid_lose,235.6188322000089,19,,,,,,,,,,,,,,,,,,sub_437,2024-03-31_11h44.44.969,Reversal,2023.1.3,59.973144027572715,1,
14,exp1.png,exp2.png,,1,0,1,0,0,14,14,14,,,,,,,,,,,,,,,,,,,,,,,,,False,33,34,True,exp2.png,exp1.png,trial_right_image,-1,exp1.png,1,exp1.png,exp2.png,1,3,reversed,correct,0.711078139082739,1,valid_win,240.43369030000758,20,,,,,,,,,,,,,,,,,,sub_437,2024-03-31_11h44.44.969,Reversal,2023.1.3,59.973144027572715,1,
15,exp3.png,exp4.png,,1,0,1,0,0,15,15,15,,,,,,,,,,,,,,,,,,,,,,,,,False,34,35,False,exp3.png,exp4.png,trial_right_image,-1,exp4.png,1,exp3.png,exp4.png,0,2,non-reversed,incorrect,0.4450790772470823,0,valid_lose,246.48209949999,20,,,,,,,,,,,,,,,,,,sub_437,2024-03-31_11h44.44.969,Reversal,2023.1.3,59.973144027572715,1,
16,exp1.png,exp2.png,,1,0,1,0,0,16,16,16,,,,,,,,,,,,,,,,,,,,,,,,,False,35,36,True,exp2.png,exp1.png,trial_right_image,-1,exp1.png,1,exp1.png,exp2.png,1,3,reversed,correct,0.02033761900338793,0,invalid_lose,254.19790970001486,20,,,,,,,,,,,,,,,,,,sub_437,2024-03-31_11h44.44.969,Reversal,2023.1.3,59.973144027572715,1,
17,exp3.png,exp4.png,,1,0,1,0,0,17,17,17,,,,,,,,,,,,,,,,,,,,,,,,,False,36,37,True,exp4.png,exp3.png,trial_right_image,-1,exp3.png,1,exp3.png,exp4.png,1,1,non-reversed,correct,0.15919833665823113,0,invalid_lose,261.41040369999246,20,,,,,,,,,,,,,,,,,,sub_437,2024-03-31_11h44.44.969,Reversal,2023.1.3,59.973144027572715,1,
18,exp1.png,exp2.png,,1,0,1,0,0,18,18,18,,,,,,,,,,,,,,,,,,,,,,,,,False,37,38,True,exp2.png,exp1.png,trial_right_image,-1,exp1.png,1,exp1.png,exp2.png,1,3,reversed,correct,0.6175152895159376,1,valid_win,266.22541730001103,21,,,,,,,,,,,,,,,,,,sub_437,2024-03-31_11h44.44.969,Reversal,2023.1.3,59.973144027572715,1,
19,exp3.png,exp4.png,,1,0,1,0,0,19,19,19,,,,,,,,,,,,,,,,,,,,,,,,,False,38,39,False,exp3.png,exp4.png,trial_left_image,1,exp3.png,1,exp3.png,exp4.png,1,1,non-reversed,correct,0.5375370880319252,1,valid_win,273.9395721000037,22,,,,,,,,,,,,,,,,,,sub_437,2024-03-31_11h44.44.969,Reversal,2023.1.3,59.973144027572715,1,
20,exp1.png,exp2.png,,1,0,1,0,0,20,20,20,,,,,,,,,,,,,,,,,,,,,,,,,False,39,40,False,exp1.png,exp2.png,trial_left_image,1,exp1.png,1,exp1.png,exp2.png,1,3,reversed,correct,0.47098955222074,1,valid_win,279.9205954000063,23,,,,,,,,,,,,,,,,,,sub_437,2024-03-31_11h44.44.969,Reversal,2023.1.3,59.973144027572715,1,
,,,exp1.png,1,0,1,0,,,,,0,0,0,0,0,0,0,0,,,,,,,,,,,,,,,,,,,,,,,,,,,,,,,,,,,,,,357.77336490000016,86.0,86.0,2.4002623000124004,"[(86.0, 2.4002623000124004)]",,,,,,,,,,,,,sub_437,2024-03-31_11h44.44.969,Reversal,2023.1.3,59.973144027572715,1,
,,,exp2.png,1,0,1,0,,,,,0,0,0,0,0,1,1,1,,,,,,,,,,,,,,,,,,,,,,,,,,,,,,,,,,,,,,361.7184840000118,,11.0,7.208572300005471,"[(11.0, 7.208572300005471)]",11.0,,,,,,,,,,,,sub_437,2024-03-31_11h44.44.969,Reversal,2023.1.3,59.973144027572715,1,
,,,exp3.png,1,0,1,0,,,,,0,0,0,0,0,2,2,2,,,,,,,,,,,,,,,,,,,,,,,,,,,,,,,,,,,,,,370.11359320001793,,None,None,[],,,,,,,,,,,,,sub_437,2024-03-31_11h44.44.969,Reversal,2023.1.3,59.973144027572715,1,
,,,exp4.png,1,0,1,0,,,,,0,0,0,0,0,3,3,3,,,,,,,,,,,,,,,,,,,,,,,,,,,,,,,,,,,,,,372.6149623999954,,None,None,[],,,,,,,,,,,,,sub_437,2024-03-31_11h44.44.969,Reversal,2023.1.3,59.973144027572715,1,
0,exp1.png,exp2.png,,2,0,2,0,0,0,0,0,,,,,,,,,,,,,,,,,,,,,,,,,True,,,,,,,,,,,,,,,,,,,,,,,,,,,,,,,,,,,,,,sub_437,2024-03-31_11h44.44.969,Reversal,2023.1.3,59.973144027572715,1,
1,exp3.png,exp4.png,,2,0,2,0,0,1,1,1,,,,,,,,,,,,,,,,,,,,,,,,,False,40,41,True,exp4.png,exp3.png,trial_right_image,-1,exp3.png,1,exp3.png,exp4.png,1,1,non-reversed,correct,0.9756008162106763,1,valid_win,303.84558940000716,24,,,,,,,,,,,,,,,,,,sub_437,2024-03-31_11h44.44.969,Reversal,2023.1.3,59.973144027572715,1,
2,exp1.png,exp2.png,,2,0,2,0,0,2,2,2,,,,,,,,,,,,,,,,,,,,,,,,,False,41,42,True,exp2.png,exp1.png,trial_right_image,-1,exp1.png,1,exp1.png,exp2.png,1,3,reversed,correct,0.0014184060646027508,0,invalid_lose,309.04476620000787,24,,,,,,,,,,,,,,,,,,sub_437,2024-03-31_11h44.44.969,Reversal,2023.1.3,59.973144027572715,1,
3,exp3.png,exp4.png,,2,0,2,0,0,3,3,3,,,,,,,,,,,,,,,,,,,,,,,,,False,42,43,False,exp3.png,exp4.png,trial_left_image,1,exp3.png,1,exp3.png,exp4.png,1,1,non-reversed,correct,0.8981781233638421,1,valid_win,315.5587411999877,25,,,,,,,,,,,,,,,,,,sub_437,2024-03-31_11h44.44.969,Reversal,2023.1.3,59.973144027572715,1,
4,exp1.png,exp2.png,,2,0,2,0,0,4,4,4,,,,,,,,,,,,,,,,,,,,,,,,,False,43,44,False,exp1.png,exp2.png,trial_right_image,-1,exp2.png,1,exp1.png,exp2.png,0,4,reversed,incorrect,0.2823084119005471,0,valid_lose,320.63976560000447,25,,,,,,,,,,,,,,,,,,sub_437,2024-03-31_11h44.44.969,Reversal,2023.1.3,59.973144027572715,1,
5,exp3.png,exp4.png,,2,0,2,0,0,5,5,5,,,,,,,,,,,,,,,,,,,,,,,,,False,44,45,False,exp3.png,exp4.png,trial_left_image,1,exp3.png,1,exp3.png,exp4.png,1,1,non-reversed,correct,0.7556385418447911,1,valid_win,326.67155870000715,26,,,,,,,,,,,,,,,,,,sub_437,2024-03-31_11h44.44.969,Reversal,2023.1.3,59.973144027572715,1,
6,exp1.png,exp2.png,,2,0,2,0,0,6,6,6,,,,,,,,,,,,,,,,,,,,,,,,,False,45,46,False,exp1.png,exp2.png,trial_right_image,-1,exp2.png,1,exp1.png,exp2.png,0,4,reversed,incorrect,0.8227437131378936,0,valid_lose,335.45166329998756,26,,,,,,,,,,,,,,,,,,sub_437,2024-03-31_11h44.44.969,Reversal,2023.1.3,59.973144027572715,1,
7,exp3.png,exp4.png,,2,0,2,0,0,7,7,7,,,,,,,,,,,,,,,,,,,,,,,,,False,46,47,True,exp4.png,exp3.png,trial_right_image,-1,exp3.png,1,exp3.png,exp4.png,1,1,non-reversed,correct,0.6938208116189738,1,valid_win,340.7163384000014,27,,,,,,,,,,,,,,,,,,sub_437,2024-03-31_11h44.44.969,Reversal,2023.1.3,59.973144027572715,1,
8,exp1.png,exp2.png,,2,0,2,0,0,8,8,8,,,,,,,,,,,,,,,,,,,,,,,,,False,47,48,False,exp1.png,exp2.png,trial_right_image,-1,exp2.png,1,exp1.png,exp2.png,0,4,reversed,incorrect,0.49537604530646073,0,valid_lose,345.964398799988,27,,,,,,,,,,,,,,,,,,sub_437,2024-03-31_11h44.44.969,Reversal,2023.1.3,59.973144027572715,1,
9,exp3.png,exp4.png,,2,0,2,0,0,9,9,9,,,,,,,,,,,,,,,,,,,,,,,,,False,48,49,False,exp3.png,exp4.png,trial_left_image,1,exp3.png,1,exp3.png,exp4.png,1,1,non-reversed,correct,0.129191874797576,0,invalid_lose,352.1293799999985,27,,,,,,,,,,,,,,,,,,sub_437,2024-03-31_11h44.44.969,Reversal,2023.1.3,59.973144027572715,1,
10,exp1.png,exp2.png,,2,0,2,0,0,10,10,10,,,,,,,,,,,,,,,,,,,,,,,,,False,49,50,False,exp1.png,exp2.png,trial_right_image,-1,exp2.png,1,exp1.png,exp2.png,0,4,reversed,incorrect,0.624440748845601,0,valid_lose,357.0774613000103,27,,,,,,,,,,,,,,,,,,sub_437,2024-03-31_11h44.44.969,Reversal,2023.1.3,59.973144027572715,1,
11,exp3.png,exp4.png,,2,0,2,0,0,11,11,11,,,,,,,,,,,,,,,,,,,,,,,,,False,50,51,False,exp3.png,exp4.png,trial_left_image,1,exp3.png,1,exp3.png,exp4.png,1,1,non-reversed,correct,0.971762507518971,1,valid_win,362.67559279999114,28,,,,,,,,,,,,,,,,,,sub_437,2024-03-31_11h44.44.969,Reversal,2023.1.3,59.973144027572715,1,
12,exp1.png,exp2.png,,2,0,2,0,0,12,12,12,,,,,,,,,,,,,,,,,,,,,,,,,False,51,52,True,exp2.png,exp1.png,trial_right_image,-1,exp1.png,1,exp1.png,exp2.png,1,3,reversed,correct,0.9590950254579939,1,valid_win,372.5721965999983,29,,,,,,,,,,,,,,,,,,sub_437,2024-03-31_11h44.44.969,Reversal,2023.1.3,59.973144027572715,1,
13,exp3.png,exp4.png,,2,0,2,0,0,13,13,13,,,,,,,,,,,,,,,,,,,,,,,,,False,52,53,False,exp3.png,exp4.png,trial_left_image,1,exp3.png,1,exp3.png,exp4.png,1,1,non-reversed,correct,0.9621273669253005,1,valid_win,378.7534141000069,30,,,,,,,,,,,,,,,,,,sub_437,2024-03-31_11h44.44.969,Reversal,2023.1.3,59.973144027572715,1,
14,exp1.png,exp2.png,,2,0,2,0,0,14,14,14,,,,,,,,,,,,,,,,,,,,,,,,,False,53,54,True,exp2.png,exp1.png,trial_right_image,-1,exp1.png,1,exp1.png,exp2.png,1,3,reversed,correct,0.8424526041962396,1,valid_win,384.41821520001395,31,,,,,,,,,,,,,,,,,,sub_437,2024-03-31_11h44.44.969,Reversal,2023.1.3,59.973144027572715,1,
15,exp3.png,exp4.png,,2,0,2,0,0,15,15,15,,,,,,,,,,,,,,,,,,,,,,,,,False,54,55,False,exp3.png,exp4.png,trial_left_image,1,exp3.png,1,exp3.png,exp4.png,1,1,non-reversed,correct,0.026124127639656547,0,invalid_lose,390.16683589998866,31,,,,,,,,,,,,,,,,,,sub_437,2024-03-31_11h44.44.969,Reversal,2023.1.3,59.973144027572715,1,
16,exp1.png,exp2.png,,2,0,2,0,0,16,16,16,,,,,,,,,,,,,,,,,,,,,,,,,False,55,56,True,exp2.png,exp1.png,trial_right_image,-1,exp1.png,1,exp1.png,exp2.png,1,3,reversed,correct,0.4010704833046026,1,valid_win,397.080317200016,32,,,,,,,,,,,,,,,,,,sub_437,2024-03-31_11h44.44.969,Reversal,2023.1.3,59.973144027572715,1,
17,exp3.png,exp4.png,,2,0,2,0,0,17,17,17,,,,,,,,,,,,,,,,,,,,,,,,,False,56,57,True,exp4.png,exp3.png,trial_left_image,1,exp4.png,1,exp3.png,exp4.png,0,2,non-reversed,incorrect,0.21341407209401853,1,invalid_win,405.1611436000094,33,,,,,,,,,,,,,,,,,,sub_437,2024-03-31_11h44.44.969,Reversal,2023.1.3,59.973144027572715,1,
18,exp1.png,exp2.png,,2,0,2,0,0,18,18,18,,,,,,,,,,,,,,,,,,,,,,,,,False,57,58,True,exp2.png,exp1.png,trial_right_image,-1,exp1.png,1,exp1.png,exp2.png,1,3,reversed,correct,0.7363512512351696,1,valid_win,410.49322669999674,34,,,,,,,,,,,,,,,,,,sub_437,2024-03-31_11h44.44.969,Reversal,2023.1.3,59.973144027572715,1,
19,exp3.png,exp4.png,,2,0,2,0,0,19,19,19,,,,,,,,,,,,,,,,,,,,,,,,,False,58,59,True,exp4.png,exp3.png,trial_right_image,-1,exp3.png,1,exp3.png,exp4.png,1,1,non-reversed,correct,0.2082703525787427,0,invalid_lose,418.6233363999927,34,,,,,,,,,,,,,,,,,,sub_437,2024-03-31_11h44.44.969,Reversal,2023.1.3,59.973144027572715,1,
20,exp1.png,exp2.png,,2,0,2,0,0,20,20,20,,,,,,,,,,,,,,,,,,,,,,,,,False,59,60,True,exp2.png,exp1.png,trial_right_image,-1,exp1.png,1,exp1.png,exp2.png,1,3,reversed,correct,0.5927260654572031,1,valid_win,423.80526689998806,35,,,,,,,,,,,,,,,,,,sub_437,2024-03-31_11h44.44.969,Reversal,2023.1.3,59.973144027572715,1,
,,,exp1.png,2,0,2,0,,,,,0,0,0,0,0,0,0,0,,,,,,,,,,,,,,,,,,,,,,,,,,,,,,,,,,,,,,501.66607530001784,100.0,100.0,2.583096899994416,"[(100.0, 2.583096899994416)]",,,,,,,,,,,,,sub_437,2024-03-31_11h44.44.969,Reversal,2023.1.3,59.973144027572715,1,
,,,exp2.png,2,0,2,0,,,,,0,0,0,0,0,1,1,1,,,,,,,,,,,,,,,,,,,,,,,,,,,,,,,,,,,,,,507.5175484000065,,None,None,[],,,,,,,,,,,,,sub_437,2024-03-31_11h44.44.969,Reversal,2023.1.3,59.973144027572715,1,
,,,exp3.png,2,0,2,0,,,,,0,0,0,0,0,2,2,2,,,,,,,,,,,,,,,,,,,,,,,,,,,,,,,,,,,,,,514.3483941000013,,None,None,[],,,,,,,,,,,,,sub_437,2024-03-31_11h44.44.969,Reversal,2023.1.3,59.973144027572715,1,
,,,exp4.png,2,0,2,0,,,,,0,0,0,0,0,3,3,3,,,,,,,,,,,,,,,,,,,,,,,,,,,,,,,,,,,,,,520.4651152000006,,None,None,[],,,,,,,,,,,,,sub_437,2024-03-31_11h44.44.969,Reversal,2023.1.3,59.973144027572715,1,
0,exp1.png,exp2.png,,3,0,3,0,0,0,0,0,,,,,,,,,,,,,,,,,,,,,,,,,True,,,,,,,,,,,,,,,,,,,,,,,,,,,,,,,,,,,,,,sub_437,2024-03-31_11h44.44.969,Reversal,2023.1.3,59.973144027572715,1,
1,exp3.png,exp4.png,,3,0,3,0,0,1,1,1,,,,,,,,,,,,,,,,,,,,,,,,,False,60,61,False,exp3.png,exp4.png,trial_right_image,-1,exp4.png,1,exp3.png,exp4.png,0,2,non-reversed,incorrect,0.8637960468015162,0,valid_lose,451.1127506000048,35,,,,,,,,,,,,,,,,,,sub_437,2024-03-31_11h44.44.969,Reversal,2023.1.3,59.973144027572715,1,
2,exp1.png,exp2.png,,3,0,3,0,0,2,2,2,,,,,,,,,,,,,,,,,,,,,,,,,False,61,62,False,exp1.png,exp2.png,trial_right_image,-1,exp2.png,1,exp1.png,exp2.png,0,4,reversed,incorrect,0.23366489556447712,1,invalid_win,456.36030209998717,36,,,,,,,,,,,,,,,,,,sub_437,2024-03-31_11h44.44.969,Reversal,2023.1.3,59.973144027572715,1,
3,exp3.png,exp4.png,,3,0,3,0,0,3,3,3,,,,,,,,,,,,,,,,,,,,,,,,,False,62,63,False,exp3.png,exp4.png,trial_right_image,-1,exp4.png,1,exp3.png,exp4.png,0,2,non-reversed,incorrect,0.806685481304653,0,valid_lose,462.2419344999944,36,,,,,,,,,,,,,,,,,,sub_437,2024-03-31_11h44.44.969,Reversal,2023.1.3,59.973144027572715,1,
4,exp1.png,exp2.png,,3,0,3,0,0,4,4,4,,,,,,,,,,,,,,,,,,,,,,,,,False,63,64,True,exp2.png,exp1.png,trial_left_image,1,exp2.png,1,exp1.png,exp2.png,0,4,reversed,incorrect,0.018767767920907508,1,invalid_win,467.8565094000078,37,,,,,,,,,,,,,,,,,,sub_437,2024-03-31_11h44.44.969,Reversal,2023.1.3,59.973144027572715,1,
5,exp3.png,exp4.png,,3,0,3,0,0,5,5,5,,,,,,,,,,,,,,,,,,,,,,,,,False,64,65,True,exp4.png,exp3.png,trial_right_image,-1,exp3.png,1,exp3.png,exp4.png,1,1,non-reversed,correct,0.5447041040557707,1,valid_win,472.9720391999872,38,,,,,,,,,,,,,,,,,,sub_437,2024-03-31_11h44.44.969,Reversal,2023.1.3,59.973144027572715,1,
6,exp1.png,exp2.png,,3,0,3,0,0,6,6,6,,,,,,,,,,,,,,,,,,,,,,,,,False,65,66,False,exp1.png,exp2.png,trial_right_image,-1,exp2.png,1,exp1.png,exp2.png,0,4,reversed,incorrect,0.800204569247014,0,valid_lose,480.73585759999696,38,,,,,,,,,,,,,,,,,,sub_437,2024-03-31_11h44.44.969,Reversal,2023.1.3,59.973144027572715,1,
7,exp3.png,exp4.png,,3,0,3,0,0,7,7,7,,,,,,,,,,,,,,,,,,,,,,,,,False,66,67,True,exp4.png,exp3.png,trial_left_image,1,exp4.png,1,exp3.png,exp4.png,0,2,non-reversed,incorrect,0.904463403843068,0,valid_lose,488.74934249999933,38,,,,,,,,,,,,,,,,,,sub_437,2024-03-31_11h44.44.969,Reversal,2023.1.3,59.973144027572715,1,
8,exp1.png,exp2.png,,3,0,3,0,0,8,8,8,,,,,,,,,,,,,,,,,,,,,,,,,False,67,68,True,exp2.png,exp1.png,trial_left_image,1,exp2.png,1,exp1.png,exp2.png,0,4,reversed,incorrect,0.5846593433439534,0,valid_lose,494.1154708999966,38,,,,,,,,,,,,,,,,,,sub_437,2024-03-31_11h44.44.969,Reversal,2023.1.3,59.973144027572715,1,
9,exp3.png,exp4.png,,3,0,3,0,0,9,9,9,,,,,,,,,,,,,,,,,,,,,,,,,False,68,69,True,exp4.png,exp3.png,trial_right_image,-1,exp3.png,1,exp3.png,exp4.png,1,1,non-reversed,correct,0.9655652647388626,1,valid_win,500.6954737000051,39,,,,,,,,,,,,,,,,,,sub_437,2024-03-31_11h44.44.969,Reversal,2023.1.3,59.973144027572715,1,
10,exp1.png,exp2.png,,3,0,3,0,0,10,10,10,,,,,,,,,,,,,,,,,,,,,,,,,False,69,70,False,exp1.png,exp2.png,trial_right_image,-1,exp2.png,1,exp1.png,exp2.png,0,4,reversed,incorrect,0.2700588381336332,0,valid_lose,505.86074999999255,39,,,,,,,,,,,,,,,,,,sub_437,2024-03-31_11h44.44.969,Reversal,2023.1.3,59.973144027572715,1,
11,exp3.png,exp4.png,,3,0,3,0,0,11,11,11,,,,,,,,,,,,,,,,,,,,,,,,,False,70,71,True,exp4.png,exp3.png,trial_right_image,-1,exp3.png,1,exp3.png,exp4.png,1,1,non-reversed,correct,0.8346240030644597,1,valid_win,511.32570730001316,40,,,,,,,,,,,,,,,,,,sub_437,2024-03-31_11h44.44.969,Reversal,2023.1.3,59.973144027572715,1,
12,exp1.png,exp2.png,,3,0,3,0,0,12,12,12,,,,,,,,,,,,,,,,,,,,,,,,,False,71,72,False,exp1.png,exp2.png,trial_right_image,-1,exp2.png,1,exp1.png,exp2.png,0,4,reversed,incorrect,0.9120275956306797,0,valid_lose,519.5727402000048,40,,,,,,,,,,,,,,,,,,sub_437,2024-03-31_11h44.44.969,Reversal,2023.1.3,59.973144027572715,1,
13,exp3.png,exp4.png,,3,0,3,0,0,13,13,13,,,,,,,,,,,,,,,,,,,,,,,,,False,72,73,False,exp3.png,exp4.png,trial_left_image,1,exp3.png,1,exp3.png,exp4.png,1,1,non-reversed,correct,0.6736334271163019,1,valid_win,525.7040880999994,41,,,,,,,,,,,,,,,,,,sub_437,2024-03-31_11h44.44.969,Reversal,2023.1.3,59.973144027572715,1,
14,exp1.png,exp2.png,,3,0,3,0,0,14,14,14,,,,,,,,,,,,,,,,,,,,,,,,,False,73,74,True,exp2.png,exp1.png,trial_left_image,1,exp2.png,1,exp1.png,exp2.png,0,4,reversed,incorrect,0.9538681518223873,0,valid_lose,531.5190119000035,41,,,,,,,,,,,,,,,,,,sub_437,2024-03-31_11h44.44.969,Reversal,2023.1.3,59.973144027572715,1,
15,exp3.png,exp4.png,,3,0,3,0,0,15,15,15,,,,,,,,,,,,,,,,,,,,,,,,,False,74,75,True,exp4.png,exp3.png,trial_right_image,-1,exp3.png,1,exp3.png,exp4.png,1,1,non-reversed,correct,0.7739429845273559,1,valid_win,536.6997705000103,42,,,,,,,,,,,,,,,,,,sub_437,2024-03-31_11h44.44.969,Reversal,2023.1.3,59.973144027572715,1,
16,exp1.png,exp2.png,,3,0,3,0,0,16,16,16,,,,,,,,,,,,,,,,,,,,,,,,,False,75,76,True,exp2.png,exp1.png,trial_right_image,-1,exp1.png,1,exp1.png,exp2.png,1,3,reversed,correct,0.018798325808015104,0,invalid_lose,541.6487055000034,42,,,,,,,,,,,,,,,,,,sub_437,2024-03-31_11h44.44.969,Reversal,2023.1.3,59.973144027572715,1,
17,exp3.png,exp4.png,,3,0,3,0,0,17,17,17,,,,,,,,,,,,,,,,,,,,,,,,,False,76,77,True,exp4.png,exp3.png,trial_right_image,-1,exp3.png,1,exp3.png,exp4.png,1,1,non-reversed,correct,0.7089652957166158,1,valid_win,546.2301278999948,43,,,,,,,,,,,,,,,,,,sub_437,2024-03-31_11h44.44.969,Reversal,2023.1.3,59.973144027572715,1,
18,exp1.png,exp2.png,,3,0,3,0,0,18,18,18,,,,,,,,,,,,,,,,,,,,,,,,,False,77,78,False,exp1.png,exp2.png,trial_left_image,1,exp1.png,1,exp1.png,exp2.png,1,3,reversed,correct,0.24155075154035865,0,invalid_lose,552.9278697000118,43,,,,,,,,,,,,,,,,,,sub_437,2024-03-31_11h44.44.969,Reversal,2023.1.3,59.973144027572715,1,
19,exp3.png,exp4.png,,3,0,3,0,0,19,19,19,,,,,,,,,,,,,,,,,,,,,,,,,False,78,79,False,exp3.png,exp4.png,trial_left_image,1,exp3.png,1,exp3.png,exp4.png,1,1,non-reversed,correct,0.9008520604386229,1,valid_win,557.3432695000083,44,,,,,,,,,,,,,,,,,,sub_437,2024-03-31_11h44.44.969,Reversal,2023.1.3,59.973144027572715,1,
20,exp1.png,exp2.png,,3,0,3,0,0,20,20,20,,,,,,,,,,,,,,,,,,,,,,,,,False,79,80,False,exp1.png,exp2.png,trial_right_image,-1,exp2.png,1,exp1.png,exp2.png,0,4,reversed,incorrect,0.13358196622841745,1,invalid_win,562.5583205000148,45,,,,,,,,,,,,,,,,,,sub_437,2024-03-31_11h44.44.969,Reversal,2023.1.3,59.973144027572715,1,
,,,exp1.png,3,0,3,0,,,,,0,0,0,0,0,0,0,0,,,,,,,,,,,,,,,,,,,,,,,,,,,,,,,,,,,,,,640.4262216000061,10.0,10.0,2.8743359000072815,"[(10.0, 2.8743359000072815)]",,,,,,,,,,,,,sub_437,2024-03-31_11h44.44.969,Reversal,2023.1.3,59.973144027572715,1,
,,,exp2.png,3,0,3,0,,,,,0,0,0,0,0,1,1,1,,,,,,,,,,,,,,,,,,,,,,,,,,,,,,,,,,,,,,644.7704316000163,,69.0,5.294068999995943,"[(69.0, 5.294068999995943)]",69.0,,,,,,,,,,,,sub_437,2024-03-31_11h44.44.969,Reversal,2023.1.3,59.973144027572715,1,
,,,exp3.png,3,0,3,0,,,,,0,0,0,0,0,2,2,2,,,,,,,,,,,,,,,,,,,,,,,,,,,,,,,,,,,,,,651.0018486999907,,99.0,1.5462809999880847,"[(99.0, 1.5462809999880847)]",,,99.0,,,,,,,,,,sub_437,2024-03-31_11h44.44.969,Reversal,2023.1.3,59.973144027572715,1,
,,,exp4.png,3,0,3,0,,,,,0,0,0,0,0,3,3,3,,,,,,,,,,,,,,,,,,,,,,,,,,,,,,,,,,,,,,653.6179921000148,,37.0,1.7953223999938928,"[(37.0, 1.7953223999938928)]",,37.0,,,,,,,,,,,sub_437,2024-03-31_11h44.44.969,Reversal,2023.1.3,59.973144027572715,1,
0,exp1.png,exp2.png,,,,,,,,,,,,,,,,,,0,0,0,0,0,0,0,0,,,,,,,,,True,,,,,,,,,,,,,,,,,,,,,,,,,,,,,,,,,,,,,,sub_437,2024-03-31_11h44.44.969,Reversal,2023.1.3,59.973144027572715,1,
1,exp3.png,exp4.png,,,,,,,,,,,,,,,,,,0,0,0,0,0,1,1,1,,,,,,,,,False,0,81,False,exp3.png,exp4.png,trial_right_image,-1,exp4.png,1,exp3.png,exp4.png,0,2,non-reversed,incorrect,0.374690878664246,0,valid_lose,584.0192977999977,45,,,,,,,,,581.107983599999,,,,,,,,,sub_437,2024-03-31_11h44.44.969,Reversal,2023.1.3,59.973144027572715,1,
2,exp1.png,exp2.png,,,,,,,,,,,,,,,,,,0,0,0,0,0,2,2,2,,,,,,,,,False,1,82,False,exp1.png,exp2.png,trial_right_image,-1,exp2.png,1,exp2.png,exp1.png,0,4,reversed,correct,0.02339053698507254,0,invalid_lose,588.8327998000022,45,,,,,,,,,,,,,,,,,,sub_437,2024-03-31_11h44.44.969,Reversal,2023.1.3,59.973144027572715,1,
3,exp3.png,exp4.png,,,,,,,,,,,,,,,,,,0,0,0,0,0,3,3,3,,,,,,,,,False,2,83,True,exp4.png,exp3.png,trial_right_image,-1,exp3.png,1,exp3.png,exp4.png,1,1,non-reversed,correct,0.08997056011422011,0,invalid_lose,594.082408199989,45,,,,,,,,,,,,,,,,,,sub_437,2024-03-31_11h44.44.969,Reversal,2023.1.3,59.973144027572715,1,
4,exp1.png,exp2.png,,,,,,,,,,,,,,,,,,0,0,0,0,0,4,4,4,,,,,,,,,False,3,84,False,exp1.png,exp2.png,trial_left_image,1,exp1.png,1,exp2.png,exp1.png,1,3,reversed,incorrect,0.5005284640970386,0,valid_lose,599.245611899998,45,,,,,,,,,,,,,,,,,,sub_437,2024-03-31_11h44.44.969,Reversal,2023.1.3,59.973144027572715,1,
5,exp3.png,exp4.png,,,,,,,,,,,,,,,,,,0,0,0,0,0,5,5,5,,,,,,,,,False,4,85,True,exp4.png,exp3.png,trial_right_image,-1,exp3.png,1,exp3.png,exp4.png,1,1,non-reversed,correct,0.3482791793014117,1,valid_win,605.9935737999913,46,,,,,,,,,,,,,,,,,,sub_437,2024-03-31_11h44.44.969,Reversal,2023.1.3,59.973144027572715,1,
6,exp1.png,exp2.png,,,,,,,,,,,,,,,,,,0,0,0,0,0,6,6,6,,,,,,,,,False,5,86,True,exp2.png,exp1.png,trial_left_image,1,exp2.png,1,exp2.png,exp1.png,0,4,reversed,correct,0.6580750701250403,1,valid_win,610.9579244999913,47,,,,,,,,,,,,,,,,,,sub_437,2024-03-31_11h44.44.969,Reversal,2023.1.3,59.973144027572715,1,
7,exp3.png,exp4.png,,,,,,,,,,,,,,,,,,0,0,0,0,0,7,7,7,,,,,,,,,False,6,87,False,exp3.png,exp4.png,trial_left_image,1,exp3.png,1,exp3.png,exp4.png,1,1,non-reversed,correct,0.01829130508679333,0,invalid_lose,618.5066026000131,47,,,,,,,,,,,,,,,,,,sub_437,2024-03-31_11h44.44.969,Reversal,2023.1.3,59.973144027572715,1,
8,exp1.png,exp2.png,,,,,,,,,,,,,,,,,,0,0,0,0,0,8,8,8,,,,,,,,,False,7,88,True,exp2.png,exp1.png,trial_left_image,1,exp2.png,1,exp2.png,exp1.png,0,4,reversed,correct,0.5645241332577533,1,valid_win,624.5548002000141,48,,,,,,,,,,,,,,,,,,sub_437,2024-03-31_11h44.44.969,Reversal,2023.1.3,59.973144027572715,1,
9,exp3.png,exp4.png,,,,,,,,,,,,,,,,,,0,0,0,0,0,9,9,9,,,,,,,,,False,8,89,True,exp4.png,exp3.png,trial_left_image,1,exp4.png,1,exp3.png,exp4.png,0,2,non-reversed,incorrect,0.4667123895569557,0,valid_lose,629.9018179000122,48,,,,,,,,,,,,,,,,,,sub_437,2024-03-31_11h44.44.969,Reversal,2023.1.3,59.973144027572715,1,
10,exp1.png,exp2.png,,,,,,,,,,,,,,,,,,0,0,0,0,0,10,10,10,,,,,,,,,False,9,90,True,exp2.png,exp1.png,trial_left_image,1,exp2.png,1,exp2.png,exp1.png,0,4,reversed,correct,0.060761986918495325,0,invalid_lose,634.633605400013,48,,,,,,,,,,,,,,,,,,sub_437,2024-03-31_11h44.44.969,Reversal,2023.1.3,59.973144027572715,1,
11,exp3.png,exp4.png,,,,,,,,,,,,,,,,,,0,0,0,0,0,11,11,11,,,,,,,,,False,10,91,False,exp3.png,exp4.png,trial_right_image,-1,exp4.png,1,exp3.png,exp4.png,0,2,non-reversed,incorrect,0.40508333104752037,0,valid_lose,641.8308188999945,48,,,,,,,,,,,,,,,,,,sub_437,2024-03-31_11h44.44.969,Reversal,2023.1.3,59.973144027572715,1,
12,exp1.png,exp2.png,,,,,,,,,,,,,,,,,,0,0,0,0,0,12,12,12,,,,,,,,,False,11,92,True,exp2.png,exp1.png,trial_left_image,1,exp2.png,1,exp2.png,exp1.png,0,4,reversed,correct,0.8597374719647868,1,valid_win,648.412081699993,49,,,,,,,,,,,,,,,,,,sub_437,2024-03-31_11h44.44.969,Reversal,2023.1.3,59.973144027572715,1,
13,exp3.png,exp4.png,,,,,,,,,,,,,,,,,,0,0,0,0,0,13,13,13,,,,,,,,,False,12,93,True,exp4.png,exp3.png,trial_right_image,-1,exp3.png,1,exp3.png,exp4.png,1,1,non-reversed,correct,0.83939079920273,1,valid_win,655.527045099996,50,,,,,,,,,,,,,,,,,,sub_437,2024-03-31_11h44.44.969,Reversal,2023.1.3,59.973144027572715,1,
14,exp1.png,exp2.png,,,,,,,,,,,,,,,,,,0,0,0,0,0,14,14,14,,,,,,,,,False,13,94,True,exp2.png,exp1.png,trial_left_image,1,exp2.png,1,exp2.png,exp1.png,0,4,reversed,correct,0.7807271647820497,1,valid_win,660.2585556000122,51,,,,,,,,,,,,,,,,,,sub_437,2024-03-31_11h44.44.969,Reversal,2023.1.3,59.973144027572715,1,
15,exp3.png,exp4.png,,,,,,,,,,,,,,,,,,0,0,0,0,0,15,15,15,,,,,,,,,False,14,95,False,exp3.png,exp4.png,trial_left_image,1,exp3.png,1,exp3.png,exp4.png,1,1,non-reversed,correct,0.936545961635342,1,valid_win,667.6888513000158,52,,,,,,,,,,,,,,,,,,sub_437,2024-03-31_11h44.44.969,Reversal,2023.1.3,59.973144027572715,1,
16,exp1.png,exp2.png,,,,,,,,,,,,,,,,,,0,0,0,0,0,16,16,16,,,,,,,,,False,15,96,False,exp1.png,exp2.png,trial_right_image,-1,exp2.png,1,exp2.png,exp1.png,0,4,reversed,correct,0.5278205571334639,1,valid_win,672.7038098000048,53,,,,,,,,,,,,,,,,,,sub_437,2024-03-31_11h44.44.969,Reversal,2023.1.3,59.973144027572715,1,
17,exp3.png,exp4.png,,,,,,,,,,,,,,,,,,0,0,0,0,0,17,17,17,,,,,,,,,False,16,97,False,exp3.png,exp4.png,trial_left_image,1,exp3.png,1,exp3.png,exp4.png,1,1,non-reversed,correct,0.5259161094043933,1,valid_win,678.4190629000077,54,,,,,,,,,,,,,,,,,,sub_437,2024-03-31_11h44.44.969,Reversal,2023.1.3,59.973144027572715,1,
18,exp1.png,exp2.png,,,,,,,,,,,,,,,,,,0,0,0,0,0,18,18,18,,,,,,,,,False,17,98,True,exp2.png,exp1.png,trial_left_image,1,exp2.png,1,exp2.png,exp1.png,0,4,reversed,correct,0.6842890949555047,1,valid_win,683.2674045999884,55,,,,,,,,,,,,,,,,,,sub_437,2024-03-31_11h44.44.969,Reversal,2023.1.3,59.973144027572715,1,
19,exp3.png,exp4.png,,,,,,,,,,,,,,,,,,0,0,0,0,0,19,19,19,,,,,,,,,False,18,99,False,exp3.png,exp4.png,trial_left_image,1,exp3.png,1,exp3.png,exp4.png,1,1,non-reversed,correct,0.11688858193050711,0,invalid_lose,688.4830562999996,55,,,,,,,,,,,,,,,,,,sub_437,2024-03-31_11h44.44.969,Reversal,2023.1.3,59.973144027572715,1,
20,exp1.png,exp2.png,,,,,,,,,,,,,,,,,,0,0,0,0,0,20,20,20,,,,,,,,,False,19,100,False,exp1.png,exp2.png,trial_right_image,-1,exp2.png,1,exp2.png,exp1.png,0,4,reversed,correct,0.8812170682179927,1,valid_win,693.4634642000019,56,,,,,,,,,,,,,,,,,,sub_437,2024-03-31_11h44.44.969,Reversal,2023.1.3,59.973144027572715,1,
,,,exp1.png,,,,,,,,,,,,,,,,,0,0,0,0,,,,,0,0,0,0,0,0,0,0,,,,,,,,,,,,,,,,,,,,,,771.3255119000096,13.0,13.0,6.065108300012071,"[(15.0, 5.166013000009116), (13.0, 6.065108300012071)]",,,,,,,,,,,,,sub_437,2024-03-31_11h44.44.969,Reversal,2023.1.3,59.973144027572715,1,
,,,exp2.png,,,,,,,,,,,,,,,,,0,0,0,0,,,,,0,0,0,0,0,1,1,1,,,,,,,,,,,,,,,,,,,,,,778.5601701000123,,98.0,1.8449034999939613,"[(98.0, 1.8449034999939613)]",98.0,,,,,,,,,,,,sub_437,2024-03-31_11h44.44.969,Reversal,2023.1.3,59.973144027572715,1,
,,,exp3.png,,,,,,,,,,,,,,,,,0,0,0,0,,,,,0,0,0,0,0,2,2,2,,,,,,,,,,,,,,,,,,,,,,781.4566186000011,,None,None,[],,,,,,,,,,,,,sub_437,2024-03-31_11h44.44.969,Reversal,2023.1.3,59.973144027572715,1,
,,,exp4.png,,,,,,,,,,,,,,,,,0,0,0,0,,,,,0,0,0,0,0,3,3,3,,,,,,,,,,,,,,,,,,,,,,785.1068084000144,,73.0,2.910566699982155,"[(73.0, 2.910566699982155)]",,73.0,,,,,,,,,,,sub_437,2024-03-31_11h44.44.969,Reversal,2023.1.3,59.973144027572715,1,
0,exp1.png,exp2.png,,,,,,,,,,,,,,,,,,1,0,1,0,0,0,0,0,,,,,,,,,True,,,,,,,,,,,,,,,,,,,,,,,,,,,,,,,,,,,,,,sub_437,2024-03-31_11h44.44.969,Reversal,2023.1.3,59.973144027572715,1,
1,exp3.png,exp4.png,,,,,,,,,,,,,,,,,,1,0,1,0,0,1,1,1,,,,,,,,,False,20,101,True,exp4.png,exp3.png,trial_right_image,-1,exp3.png,1,exp3.png,exp4.png,1,1,non-reversed,correct,0.12130171665524114,0,invalid_lose,716.3555866999959,56,,,,,,,,,,,,,,,,,,sub_437,2024-03-31_11h44.44.969,Reversal,2023.1.3,59.973144027572715,1,
2,exp1.png,exp2.png,,,,,,,,,,,,,,,,,,1,0,1,0,0,2,2,2,,,,,,,,,False,21,102,False,exp1.png,exp2.png,trial_right_image,-1,exp2.png,1,exp2.png,exp1.png,0,4,reversed,correct,0.6783618645561079,1,valid_win,722.4368302999937,57,,,,,,,,,,,,,,,,,,sub_437,2024-03-31_11h44.44.969,Reversal,2023.1.3,59.973144027572715,1,
3,exp3.png,exp4.png,,,,,,,,,,,,,,,,,,1,0,1,0,0,3,3,3,,,,,,,,,False,22,103,False,exp3.png,exp4.png,trial_left_image,1,exp3.png,1,exp3.png,exp4.png,1,1,non-reversed,correct,0.29137901975741876,1,valid_win,727.8520343000127,58,,,,,,,,,,,,,,,,,,sub_437,2024-03-31_11h44.44.969,Reversal,2023.1.3,59.973144027572715,1,
4,exp1.png,exp2.png,,,,,,,,,,,,,,,,,,1,0,1,0,0,4,4,4,,,,,,,,,False,23,104,False,exp1.png,exp2.png,trial_right_image,-1,exp2.png,1,exp2.png,exp1.png,0,4,reversed,correct,0.41885970577630427,1,valid_win,733.716554100014,59,,,,,,,,,,,,,,,,,,sub_437,2024-03-31_11h44.44.969,Reversal,2023.1.3,59.973144027572715,1,
5,exp3.png,exp4.png,,,,,,,,,,,,,,,,,,1,0,1,0,0,5,5,5,,,,,,,,,False,24,105,False,exp3.png,exp4.png,trial_left_image,1,exp3.png,1,exp3.png,exp4.png,1,1,non-reversed,correct,0.8686265598180224,1,valid_win,739.7483527000004,60,,,,,,,,,,,,,,,,,,sub_437,2024-03-31_11h44.44.969,Reversal,2023.1.3,59.973144027572715,1,
6,exp1.png,exp2.png,,,,,,,,,,,,,,,,,,1,0,1,0,0,6,6,6,,,,,,,,,False,25,106,True,exp2.png,exp1.png,trial_left_image,1,exp2.png,1,exp2.png,exp1.png,0,4,reversed,correct,0.8537463089570815,1,valid_win,744.8795262000058,61,,,,,,,,,,,,,,,,,,sub_437,2024-03-31_11h44.44.969,Reversal,2023.1.3,59.973144027572715,1,
7,exp3.png,exp4.png,,,,,,,,,,,,,,,,,,1,0,1,0,0,7,7,7,,,,,,,,,False,26,107,True,exp4.png,exp3.png,trial_right_image,-1,exp3.png,1,exp3.png,exp4.png,1,1,non-reversed,correct,0.06258314611862181,0,invalid_lose,749.7281409999996,61,,,,,,,,,,,,,,,,,,sub_437,2024-03-31_11h44.44.969,Reversal,2023.1.3,59.973144027572715,1,
8,exp1.png,exp2.png,,,,,,,,,,,,,,,,,,1,0,1,0,0,8,8,8,,,,,,,,,False,27,108,True,exp2.png,exp1.png,trial_left_image,1,exp2.png,1,exp2.png,exp1.png,0,4,reversed,correct,0.6238785544915745,1,valid_win,754.9427557000017,62,,,,,,,,,,,,,,,,,,sub_437,2024-03-31_11h44.44.969,Reversal,2023.1.3,59.973144027572715,1,
9,exp3.png,exp4.png,,,,,,,,,,,,,,,,,,1,0,1,0,0,9,9,9,,,,,,,,,False,28,109,True,exp4.png,exp3.png,trial_right_image,-1,exp3.png,1,exp3.png,exp4.png,1,1,non-reversed,correct,0.13428305036059118,0,invalid_lose,760.1739368000126,62,,,,,,,,,,,,,,,,,,sub_437,2024-03-31_11h44.44.969,Reversal,2023.1.3,59.973144027572715,1,
10,exp1.png,exp2.png,,,,,,,,,,,,,,,,,,1,0,1,0,0,10,10,10,,,,,,,,,False,29,110,False,exp1.png,exp2.png,trial_right_image,-1,exp2.png,1,exp2.png,exp1.png,0,4,reversed,correct,0.09397214128362252,0,invalid_lose,765.7054375000007,62,,,,,,,,,,,,,,,,,,sub_437,2024-03-31_11h44.44.969,Reversal,2023.1.3,59.973144027572715,1,
11,exp3.png,exp4.png,,,,,,,,,,,,,,,,,,1,0,1,0,0,11,11,11,,,,,,,,,False,30,111,False,exp3.png,exp4.png,trial_right_image,-1,exp4.png,1,exp3.png,exp4.png,0,2,non-reversed,incorrect,0.4489247297581158,0,valid_lose,772.8863499000145,62,,,,,,,,,,,,,,,,,,sub_437,2024-03-31_11h44.44.969,Reversal,2023.1.3,59.973144027572715,1,
12,exp1.png,exp2.png,,,,,,,,,,,,,,,,,,1,0,1,0,0,12,12,12,,,,,,,,,False,31,112,False,exp1.png,exp2.png,trial_left_image,1,exp1.png,1,exp2.png,exp1.png,1,3,reversed,incorrect,0.3997610820209597,0,valid_lose,782.0668292999908,62,,,,,,,,,,,,,,,,,,sub_437,2024-03-31_11h44.44.969,Reversal,2023.1.3,59.973144027572715,1,
13,exp3.png,exp4.png,,,,,,,,,,,,,,,,,,1,0,1,0,0,13,13,13,,,,,,,,,False,32,113,False,exp3.png,exp4.png,trial_left_image,1,exp3.png,1,exp3.png,exp4.png,1,1,non-reversed,correct,0.06156910686688666,0,invalid_lose,788.8979472999927,62,,,,,,,,,,,,,,,,,,sub_437,2024-03-31_11h44.44.969,Reversal,2023.1.3,59.973144027572715,1,
14,exp1.png,exp2.png,,,,,,,,,,,,,,,,,,1,0,1,0,0,14,14,14,,,,,,,,,False,33,114,True,exp2.png,exp1.png,trial_right_image,-1,exp1.png,1,exp2.png,exp1.png,1,3,reversed,incorrect,0.3919058940309956,0,valid_lose,794.0791476999875,62,,,,,,,,,,,,,,,,,,sub_437,2024-03-31_11h44.44.969,Reversal,2023.1.3,59.973144027572715,1,
15,exp3.png,exp4.png,,,,,,,,,,,,,,,,,,1,0,1,0,0,15,15,15,,,,,,,,,False,34,115,False,exp3.png,exp4.png,trial_right_image,-1,exp4.png,1,exp3.png,exp4.png,0,2,non-reversed,incorrect,0.17963317360143016,1,invalid_win,802.626468500006,63,,,,,,,,,,,,,,,,,,sub_437,2024-03-31_11h44.44.969,Reversal,2023.1.3,59.973144027572715,1,
16,exp1.png,exp2.png,,,,,,,,,,,,,,,,,,1,0,1,0,0,16,16,16,,,,,,,,,False,35,116,True,exp2.png,exp1.png,trial_left_image,1,exp2.png,1,exp2.png,exp1.png,0,4,reversed,correct,0.6313760309684243,1,valid_win,808.9741087000002,64,,,,,,,,,,,,,,,,,,sub_437,2024-03-31_11h44.44.969,Reversal,2023.1.3,59.973144027572715,1,
17,exp3.png,exp4.png,,,,,,,,,,,,,,,,,,1,0,1,0,0,17,17,17,,,,,,,,,False,36,117,True,exp4.png,exp3.png,trial_left_image,1,exp4.png,1,exp3.png,exp4.png,0,2,non-reversed,incorrect,0.36225882497460693,0,valid_lose,815.839455600013,64,,,,,,,,,,,,,,,,,,sub_437,2024-03-31_11h44.44.969,Reversal,2023.1.3,59.973144027572715,1,
18,exp1.png,exp2.png,,,,,,,,,,,,,,,,,,1,0,1,0,0,18,18,18,,,,,,,,,False,37,118,True,exp2.png,exp1.png,trial_left_image,1,exp2.png,1,exp2.png,exp1.png,0,4,reversed,correct,0.11307792839493924,0,invalid_lose,821.9368370000157,64,,,,,,,,,,,,,,,,,,sub_437,2024-03-31_11h44.44.969,Reversal,2023.1.3,59.973144027572715,1,
19,exp3.png,exp4.png,,,,,,,,,,,,,,,,,,1,0,1,0,0,19,19,19,,,,,,,,,False,38,119,False,exp3.png,exp4.png,trial_right_image,-1,exp4.png,1,exp3.png,exp4.png,0,2,non-reversed,incorrect,0.5004712140666349,0,valid_lose,827.0684548999998,64,,,,,,,,,,,,,,,,,,sub_437,2024-03-31_11h44.44.969,Reversal,2023.1.3,59.973144027572715,1,
20,exp1.png,exp2.png,,,,,,,,,,,,,,,,,,1,0,1,0,0,20,20,20,,,,,,,,,False,39,120,True,exp2.png,exp1.png,trial_left_image,1,exp2.png,1,exp2.png,exp1.png,0,4,reversed,correct,0.28900856645847495,1,valid_win,835.4654318999965,65,,,,,,,,,,,,,,,,,,sub_437,2024-03-31_11h44.44.969,Reversal,2023.1.3,59.973144027572715,1,
,,,exp1.png,,,,,,,,,,,,,,,,,1,0,1,0,,,,,0,0,0,0,0,0,0,0,,,,,,,,,,,,,,,,,,,,,,913.3351244000078,69.0,69.0,4.442414000019198,"[(69.0, 4.442414000019198)]",,,,,,,,,,,,,sub_437,2024-03-31_11h44.44.969,Reversal,2023.1.3,59.973144027572715,1,
,,,exp2.png,,,,,,,,,,,,,,,,,1,0,1,0,,,,,0,0,0,0,0,1,1,1,,,,,,,,,,,,,,,,,,,,,,918.9133973999997,,87.0,2.3273554999905173,"[(87.0, 2.3273554999905173)]",87.0,,,,,,,,,,,,sub_437,2024-03-31_11h44.44.969,Reversal,2023.1.3,59.973144027572715,1,
,,,exp3.png,,,,,,,,,,,,,,,,,1,0,1,0,,,,,0,0,0,0,0,2,2,2,,,,,,,,,,,,,,,,,,,,,,922.3445513999905,,28.0,3.8099769999971613,"[(28.0, 3.8099769999971613)]",,,28.0,,,,,,,,,,sub_437,2024-03-31_11h44.44.969,Reversal,2023.1.3,59.973144027572715,1,
,,,exp4.png,,,,,,,,,,,,,,,,,1,0,1,0,,,,,0,0,0,0,0,3,3,3,,,,,,,,,,,,,,,,,,,,,,927.3957825000107,,14.0,1.4259461999754421,"[(14.0, 1.4259461999754421)]",,14.0,,,,,,,,,,,sub_437,2024-03-31_11h44.44.969,Reversal,2023.1.3,59.973144027572715,1,
0,exp1.png,exp2.png,,,,,,,,,,,,,,,,,,2,0,2,0,0,0,0,0,,,,,,,,,True,,,,,,,,,,,,,,,,,,,,,,,,,,,,,,,,,,,,,,sub_437,2024-03-31_11h44.44.969,Reversal,2023.1.3,59.973144027572715,1,
1,exp3.png,exp4.png,,,,,,,,,,,,,,,,,,2,0,2,0,0,1,1,1,,,,,,,,,False,40,121,False,exp3.png,exp4.png,trial_right_image,-1,exp4.png,1,exp3.png,exp4.png,0,2,non-reversed,incorrect,0.15260415845321162,1,invalid_win,857.5242572000134,66,,,,,,,,,,,,,,,,,,sub_437,2024-03-31_11h44.44.969,Reversal,2023.1.3,59.973144027572715,1,
2,exp1.png,exp2.png,,,,,,,,,,,,,,,,,,2,0,2,0,0,2,2,2,,,,,,,,,False,41,122,False,exp1.png,exp2.png,trial_right_image,-1,exp2.png,1,exp2.png,exp1.png,0,4,reversed,correct,0.7021677851527266,1,valid_win,866.1218032999896,67,,,,,,,,,,,,,,,,,,sub_437,2024-03-31_11h44.44.969,Reversal,2023.1.3,59.973144027572715,1,
3,exp3.png,exp4.png,,,,,,,,,,,,,,,,,,2,0,2,0,0,3,3,3,,,,,,,,,False,42,123,True,exp4.png,exp3.png,trial_left_image,1,exp4.png,1,exp3.png,exp4.png,0,2,non-reversed,incorrect,0.6059373923649679,0,valid_lose,874.4022437999956,67,,,,,,,,,,,,,,,,,,sub_437,2024-03-31_11h44.44.969,Reversal,2023.1.3,59.973144027572715,1,
4,exp1.png,exp2.png,,,,,,,,,,,,,,,,,,2,0,2,0,0,4,4,4,,,,,,,,,False,43,124,False,exp1.png,exp2.png,trial_right_image,-1,exp2.png,1,exp2.png,exp1.png,0,4,reversed,correct,0.4898905789773148,1,valid_win,880.6331514999911,68,,,,,,,,,,,,,,,,,,sub_437,2024-03-31_11h44.44.969,Reversal,2023.1.3,59.973144027572715,1,
5,exp3.png,exp4.png,,,,,,,,,,,,,,,,,,2,0,2,0,0,5,5,5,,,,,,,,,False,44,125,False,exp3.png,exp4.png,trial_right_image,-1,exp4.png,1,exp3.png,exp4.png,0,2,non-reversed,incorrect,0.22078513757269758,1,invalid_win,887.1974801000033,69,,,,,,,,,,,,,,,,,,sub_437,2024-03-31_11h44.44.969,Reversal,2023.1.3,59.973144027572715,1,
6,exp1.png,exp2.png,,,,,,,,,,,,,,,,,,2,0,2,0,0,6,6,6,,,,,,,,,False,45,126,False,exp1.png,exp2.png,trial_right_image,-1,exp2.png,1,exp2.png,exp1.png,0,4,reversed,correct,0.11540015172972817,0,invalid_lose,893.0456460000132,69,,,,,,,,,,,,,,,,,,sub_437,2024-03-31_11h44.44.969,Reversal,2023.1.3,59.973144027572715,1,
7,exp3.png,exp4.png,,,,,,,,,,,,,,,,,,2,0,2,0,0,7,7,7,,,,,,,,,False,46,127,False,exp3.png,exp4.png,trial_right_image,-1,exp4.png,1,exp3.png,exp4.png,0,2,non-reversed,incorrect,0.5737072093810652,0,valid_lose,897.8939561000152,69,,,,,,,,,,,,,,,,,,sub_437,2024-03-31_11h44.44.969,Reversal,2023.1.3,59.973144027572715,1,
8,exp1.png,exp2.png,,,,,,,,,,,,,,,,,,2,0,2,0,0,8,8,8,,,,,,,,,False,47,128,True,exp2.png,exp1.png,trial_left_image,1,exp2.png,1,exp2.png,exp1.png,0,4,reversed,correct,0.8910419988491949,1,valid_win,903.4099986999936,70,,,,,,,,,,,,,,,,,,sub_437,2024-03-31_11h44.44.969,Reversal,2023.1.3,59.973144027572715,1,
9,exp3.png,exp4.png,,,,,,,,,,,,,,,,,,2,0,2,0,0,9,9,9,,,,,,,,,False,48,129,True,exp4.png,exp3.png,trial_left_image,1,exp4.png,1,exp3.png,exp4.png,0,2,non-reversed,incorrect,0.6737842616052581,0,valid_lose,910.9562248000002,70,,,,,,,,,,,,,,,,,,sub_437,2024-03-31_11h44.44.969,Reversal,2023.1.3,59.973144027572715,1,
10,exp1.png,exp2.png,,,,,,,,,,,,,,,,,,2,0,2,0,0,10,10,10,,,,,,,,,False,49,130,False,exp1.png,exp2.png,trial_right_image,-1,exp2.png,1,exp2.png,exp1.png,0,4,reversed,correct,0.9892337982809615,1,valid_win,915.9213037000154,71,,,,,,,,,,,,,,,,,,sub_437,2024-03-31_11h44.44.969,Reversal,2023.1.3,59.973144027572715,1,
11,exp3.png,exp4.png,,,,,,,,,,,,,,,,,,2,0,2,0,0,11,11,11,,,,,,,,,False,50,131,True,exp4.png,exp3.png,trial_right_image,-1,exp3.png,1,exp3.png,exp4.png,1,1,non-reversed,correct,0.6677096681182217,1,valid_win,921.1865327999985,72,,,,,,,,,,,,,,,,,,sub_437,2024-03-31_11h44.44.969,Reversal,2023.1.3,59.973144027572715,1,
12,exp1.png,exp2.png,,,,,,,,,,,,,,,,,,2,0,2,0,0,12,12,12,,,,,,,,,False,51,132,False,exp1.png,exp2.png,trial_right_image,-1,exp2.png,1,exp2.png,exp1.png,0,4,reversed,correct,0.7428158107091456,1,valid_win,926.7510492000147,73,,,,,,,,,,,,,,,,,,sub_437,2024-03-31_11h44.44.969,Reversal,2023.1.3,59.973144027572715,1,
13,exp3.png,exp4.png,,,,,,,,,,,,,,,,,,2,0,2,0,0,13,13,13,,,,,,,,,False,52,133,True,exp4.png,exp3.png,trial_right_image,-1,exp3.png,1,exp3.png,exp4.png,1,1,non-reversed,correct,0.5758152223931059,1,valid_win,932.032321000006,74,,,,,,,,,,,,,,,,,,sub_437,2024-03-31_11h44.44.969,Reversal,2023.1.3,59.973144027572715,1,
14,exp1.png,exp2.png,,,,,,,,,,,,,,,,,,2,0,2,0,0,14,14,14,,,,,,,,,False,53,134,True,exp2.png,exp1.png,trial_right_image,-1,exp1.png,1,exp2.png,exp1.png,1,3,reversed,incorrect,0.5443456791795112,0,valid_lose,936.2646320000058,74,,,,,,,,,,,,,,,,,,sub_437,2024-03-31_11h44.44.969,Reversal,2023.1.3,59.973144027572715,1,
15,exp3.png,exp4.png,,,,,,,,,,,,,,,,,,2,0,2,0,0,15,15,15,,,,,,,,,False,54,135,True,exp4.png,exp3.png,trial_right_image,-1,exp3.png,1,exp3.png,exp4.png,1,1,non-reversed,correct,0.729706777654899,1,valid_win,941.71290340001,75,,,,,,,,,,,,,,,,,,sub_437,2024-03-31_11h44.44.969,Reversal,2023.1.3,59.973144027572715,1,
16,exp1.png,exp2.png,,,,,,,,,,,,,,,,,,2,0,2,0,0,16,16,16,,,,,,,,,False,55,136,True,exp2.png,exp1.png,trial_left_image,1,exp2.png,1,exp2.png,exp1.png,0,4,reversed,correct,0.07459153286923825,0,invalid_lose,946.1774906000064,75,,,,,,,,,,,,,,,,,,sub_437,2024-03-31_11h44.44.969,Reversal,2023.1.3,59.973144027572715,1,
17,exp3.png,exp4.png,,,,,,,,,,,,,,,,,,2,0,2,0,0,17,17,17,,,,,,,,,False,56,137,False,exp3.png,exp4.png,trial_right_image,-1,exp4.png,1,exp3.png,exp4.png,0,2,non-reversed,incorrect,0.05845417811885023,1,invalid_win,954.6680862999929,76,,,,,,,,,,,,,,,,,,sub_437,2024-03-31_11h44.44.969,Reversal,2023.1.3,59.973144027572715,1,
18,exp1.png,exp2.png,,,,,,,,,,,,,,,,,,2,0,2,0,0,18,18,18,,,,,,,,,False,57,138,True,exp2.png,exp1.png,trial_right_image,-1,exp1.png,1,exp2.png,exp1.png,1,3,reversed,incorrect,0.7521696701265356,0,valid_lose,959.1900228000013,76,,,,,,,,,,,,,,,,,,sub_437,2024-03-31_11h44.44.969,Reversal,2023.1.3,59.973144027572715,1,
19,exp3.png,exp4.png,,,,,,,,,,,,,,,,,,2,0,2,0,0,19,19,19,,,,,,,,,False,58,139,False,exp3.png,exp4.png,trial_left_image,1,exp3.png,1,exp3.png,exp4.png,1,1,non-reversed,correct,0.5127293441850148,1,valid_win,964.371724800003,77,,,,,,,,,,,,,,,,,,sub_437,2024-03-31_11h44.44.969,Reversal,2023.1.3,59.973144027572715,1,
20,exp1.png,exp2.png,,,,,,,,,,,,,,,,,,2,0,2,0,0,20,20,20,,,,,,,,,False,59,140,True,exp2.png,exp1.png,trial_right_image,-1,exp1.png,1,exp2.png,exp1.png,1,3,reversed,incorrect,0.31482649254376516,0,valid_lose,970.1196045000106,77,,,,,,,,,,,,,,,,,,sub_437,2024-03-31_11h44.44.969,Reversal,2023.1.3,59.973144027572715,1,
,,,exp1.png,,,,,,,,,,,,,,,,,2,0,2,0,,,,,0,0,0,0,0,0,0,0,,,,,,,,,,,,,,,,,,,,,,1047.9842255999974,,None,None,[],,,,,,,,,,,,,sub_437,2024-03-31_11h44.44.969,Reversal,2023.1.3,59.973144027572715,1,
,,,exp2.png,,,,,,,,,,,,,,,,,2,0,2,0,,,,,0,0,0,0,0,1,1,1,,,,,,,,,,,,,,,,,,,,,,1061.1978210000088,,51.0,6.093644100008532,"[(76.0, 2.410982600005809), (51.0, 6.093644100008532)]",51.0,,,,,,,,,,,,sub_437,2024-03-31_11h44.44.969,Reversal,2023.1.3,59.973144027572715,1,
,,,exp3.png,,,,,,,,,,,,,,,,,2,0,2,0,,,,,0,0,0,0,0,2,2,2,,,,,,,,,,,,,,,,,,,,,,1068.2454494000121,,None,None,[],,,,,,,,,,,,,sub_437,2024-03-31_11h44.44.969,Reversal,2023.1.3,59.973144027572715,1,
,,,exp4.png,,,,,,,,,,,,,,,,,2,0,2,0,,,,,0,0,0,0,0,3,3,3,,,,,,,,,,,,,,,,,,,,,,1069.5454155000043,,None,None,[],,,,,,,,,,,,,sub_437,2024-03-31_11h44.44.969,Reversal,2023.1.3,59.973144027572715,1,
,,,,,,,,,,,,,,,,,,,,,,,,,,,,,,,,,,,,,,,,,,,,,,,,,,,,,,,,77,,,,,,,,,,97,56,41,414.10450720001245,1,space,77.01353970001219,None,sub_437,2024-03-31_11h44.44.969,Reversal,2023.1.3,59.973144027572715,1,
