trial_index,trial_image1_file,trial_image2_file,image_file,learning_outer_loop.thisRepN,learning_outer_loop.thisTrialN,learning_outer_loop.thisN,learning_outer_loop.thisIndex,learning_inner_loop.thisRepN,learning_inner_loop.thisTrialN,learning_inner_loop.thisN,learning_inner_loop.thisIndex,learning_estimation_outer_loop.thisRepN,learning_estimation_outer_loop.thisTrialN,learning_estimation_outer_loop.thisN,learning_estimation_outer_loop.thisIndex,learning_estimation_inner_loop.thisRepN,learning_estimation_inner_loop.thisTrialN,learning_estimation_inner_loop.thisN,learning_estimation_inner_loop.thisIndex,reversal_outer_loop.thisRepN,reversal_outer_loop.thisTrialN,reversal_outer_loop.thisN,reversal_outer_loop.thisIndex,reversal_inner_loop.thisRepN,reversal_inner_loop.thisTrialN,reversal_inner_loop.thisN,reversal_inner_loop.thisIndex,reversal_estimation_outer_loop.thisRepN,reversal_estimation_outer_loop.thisTrialN,reversal_estimation_outer_loop.thisN,reversal_estimation_outer_loop.thisIndex,reversal_estimation_inner_loop.thisRepN,reversal_estimation_inner_loop.thisTrialN,reversal_estimation_inner_loop.thisN,reversal_estimation_inner_loop.thisIndex,thisRow.t,notes,instructions1.started,instructions1.stopped,instructions2.started,instructions2.stopped,instructions3.started,instructions3.stopped,intstructions4.started,intstructions4.stopped,instructions5.started,instructions5.stopped,mindware_trigger_learning.started,mindware_trigger_learning.stopped,trial.started,skipped,total_trial_counter,trial_num,left_right_flip,left_image_file,right_image_file,clicked_stimulus_side,trial.stopped,side,clicked_stimulus,version,high_prob_image_file,low_prob_image_file,choice_a,choice_b,pair_type,correct,trial_feedback_random,reward,trial_type,overall_time_after_trial,feedback_preparation.started,feedback_preparation.stopped,score,feedback.started,feedback.stopped,estimation.started,estimation_rating.started,estimation.stopped,estimation_exp1.png,estimation_rating.response,estimation_rating.rt,estimation_rating.history,estimation_exp2.png,estimation_exp3.png,estimation_exp4.png,mindware_trigger_reversal.started,mindware_trigger_reversal.stopped,total_learning_time,thank_you.started,total_correct,learning_correct,reversal_correct,total_reversal_time,extra_block,participant,date,expName,psychopyVersion,frameRate,ver,expStart,
0,exp1.png,exp2.png,,0,0,0,0,0,0,0,0,,,,,,,,,,,,,,,,,,,,,,,,,98.74380749999546,,0.012216100003570318,33.60023600002751,33.60025230003521,52.5478221999947,52.547837499994785,79.97819180018269,79.97822240018286,86.74305960000493,86.74309650016949,98.57543299999088,98.59147770004347,98.59232669998892,98.59236130001955,False,0,1,True,exp2.png,exp1.png,trial_right_image,102.20630039996468,-1,exp1.png,2,exp1.png,exp2.png,1,1,non-reversed,correct,0.6595593069640776,1,valid_win,3.631034600082785,102.20650249999017,102.82157830009237,1,102.82159560010768,104.6194214001298,,,,,,,,,,,,,,,,,,,,sub_778,2024-01-05_12h59.41.022,Reversal,2023.2.1,60.1367750585381,2,2024-01-05 12h59.52.816280 +0200,
1,exp3.png,exp4.png,,0,0,0,0,0,1,1,1,,,,,,,,,,,,,,,,,,,,,,,,,104.77145290002227,,,,,,,,,,,,104.61990090017207,104.6204783001449,104.62050459999591,False,1,2,False,exp3.png,exp4.png,trial_left_image,115.5053298000712,1,exp3.png,2,exp3.png,exp4.png,1,3,reversed,correct,0.5219388035612698,1,valid_win,16.930216599954292,115.50569450017065,116.11989230010659,2,116.11991050001234,117.91781440004706,,,,,,,,,,,,,,,,,,,,sub_778,2024-01-05_12h59.41.022,Reversal,2023.2.1,60.1367750585381,2,2024-01-05 12h59.52.816280 +0200,
2,exp1.png,exp2.png,,0,0,0,0,0,2,2,2,,,,,,,,,,,,,,,,,,,,,,,,,118.0481257000938,,,,,,,,,,,,117.91811420000158,117.91858810000122,117.9186042000074,False,2,3,True,exp2.png,exp1.png,trial_left_image,121.23859620001167,1,exp2.png,2,exp1.png,exp2.png,0,2,non-reversed,incorrect,0.36836659939949934,0,valid_lose,22.663435199996457,121.23890830017626,121.85288170003332,2,121.85290820011869,123.65112900012173,,,,,,,,,,,,,,,,,,,,sub_778,2024-01-05_12h59.41.022,Reversal,2023.2.1,60.1367750585381,2,2024-01-05 12h59.52.816280 +0200,
3,exp3.png,exp4.png,,0,0,0,0,0,3,3,3,,,,,,,,,,,,,,,,,,,,,,,,,123.79224169999361,,,,,,,,,,,,123.65219340007752,123.65344270016067,123.6535753000062,False,3,4,True,exp4.png,exp3.png,trial_right_image,128.38667699997313,-1,exp3.png,2,exp3.png,exp4.png,1,3,reversed,correct,0.4890427811412671,1,valid_win,29.81154950009659,128.38702570018359,129.00169200007804,3,129.00172120006755,130.7994770000223,,,,,,,,,,,,,,,,,,,,sub_778,2024-01-05_12h59.41.022,Reversal,2023.2.1,60.1367750585381,2,2024-01-05 12h59.52.816280 +0200,
4,exp1.png,exp2.png,,0,0,0,0,0,4,4,4,,,,,,,,,,,,,,,,,,,,,,,,,130.93435230012983,,,,,,,,,,,,130.79997849999927,130.80059750005603,130.8006263000425,False,4,5,True,exp2.png,exp1.png,trial_left_image,133.15261850017123,1,exp2.png,2,exp1.png,exp2.png,0,2,non-reversed,incorrect,0.5942498350665226,0,valid_lose,34.57743520010263,133.15291110007092,133.767677300144,3,133.7676999999676,135.56545820017345,,,,,,,,,,,,,,,,,,,,sub_778,2024-01-05_12h59.41.022,Reversal,2023.2.1,60.1367750585381,2,2024-01-05 12h59.52.816280 +0200,
5,exp3.png,exp4.png,,0,0,0,0,0,5,5,5,,,,,,,,,,,,,,,,,,,,,,,,,135.70826179999858,,,,,,,,,,,,135.5659521999769,135.56657130015083,135.56660000002012,False,5,6,True,exp4.png,exp3.png,trial_right_image,139.35217540012673,-1,exp3.png,2,exp3.png,exp4.png,1,3,reversed,correct,0.9121779467634855,1,valid_win,40.77697509992868,139.35244749998674,139.96695460006595,4,139.9669767001178,141.76451240014285,,,,,,,,,,,,,,,,,,,,sub_778,2024-01-05_12h59.41.022,Reversal,2023.2.1,60.1367750585381,2,2024-01-05 12h59.52.816280 +0200,
6,exp1.png,exp2.png,,0,0,0,0,0,6,6,6,,,,,,,,,,,,,,,,,,,,,,,,,141.88745190016925,,,,,,,,,,,,141.76487249997444,141.7653565001674,141.76544350013137,False,6,7,False,exp1.png,exp2.png,trial_left_image,145.18495300016366,1,exp1.png,2,exp1.png,exp2.png,1,1,non-reversed,correct,0.6651307142305025,1,valid_win,46.60998610011302,145.18546600011177,145.7997528000269,5,145.79977010004222,147.59755160007626,,,,,,,,,,,,,,,,,,,,sub_778,2024-01-05_12h59.41.022,Reversal,2023.2.1,60.1367750585381,2,2024-01-05 12h59.52.816280 +0200,
7,exp3.png,exp4.png,,0,0,0,0,0,7,7,7,,,,,,,,,,,,,,,,,,,,,,,,,147.73372990009375,,,,,,,,,,,,147.59834030014463,147.59931010007858,147.59935600007884,False,7,8,False,exp3.png,exp4.png,trial_left_image,149.95056170015596,1,exp3.png,2,exp3.png,exp4.png,1,3,reversed,correct,0.05987823322597863,0,invalid_lose,51.375291200121865,149.95075850002468,150.56593629997224,5,150.56596709997393,152.36383459996432,,,,,,,,,,,,,,,,,,,,sub_778,2024-01-05_12h59.41.022,Reversal,2023.2.1,60.1367750585381,2,2024-01-05 12h59.52.816280 +0200,
8,exp1.png,exp2.png,,0,0,0,0,0,8,8,8,,,,,,,,,,,,,,,,,,,,,,,,,152.50293070008047,,,,,,,,,,,,152.3646106000524,152.36572890006937,152.36577480006963,False,8,9,False,exp1.png,exp2.png,trial_right_image,158.21572950016707,-1,exp2.png,2,exp1.png,exp2.png,0,2,non-reversed,incorrect,0.6819631972136027,0,valid_lose,59.64053380000405,158.2160082999617,158.83146120002493,5,158.83149230014533,160.6293081000913,,,,,,,,,,,,,,,,,,,,sub_778,2024-01-05_12h59.41.022,Reversal,2023.2.1,60.1367750585381,2,2024-01-05 12h59.52.816280 +0200,
9,exp3.png,exp4.png,,0,0,0,0,0,9,9,9,,,,,,,,,,,,,,,,,,,,,,,,,160.76545980013907,,,,,,,,,,,,160.63030149997212,160.63168600015342,160.6317919001449,False,9,10,False,exp3.png,exp4.png,trial_left_image,163.79871780006215,1,exp3.png,2,exp3.png,exp4.png,1,3,reversed,correct,0.2281666180914187,0,invalid_lose,65.22372020012699,163.799197900109,164.41453980002552,5,164.4145552001428,166.21228380012326,,,,,,,,,,,,,,,,,,,,sub_778,2024-01-05_12h59.41.022,Reversal,2023.2.1,60.1367750585381,2,2024-01-05 12h59.52.816280 +0200,
10,exp1.png,exp2.png,,0,0,0,0,0,10,10,10,,,,,,,,,,,,,,,,,,,,,,,,,166.35202210000716,,,,,,,,,,,,166.21346650016494,166.2147125999909,166.21477500000037,False,10,11,True,exp2.png,exp1.png,trial_right_image,168.9980821001809,-1,exp1.png,2,exp1.png,exp2.png,1,1,non-reversed,correct,0.7919694743818437,1,valid_win,70.42296830005944,168.9984552001115,169.6132700999733,6,169.61331110005267,171.41114650014788,,,,,,,,,,,,,,,,,,,,sub_778,2024-01-05_12h59.41.022,Reversal,2023.2.1,60.1367750585381,2,2024-01-05 12h59.52.816280 +0200,
11,exp3.png,exp4.png,,0,0,0,0,0,11,11,11,,,,,,,,,,,,,,,,,,,,,,,,,171.54689110000618,,,,,,,,,,,,171.41187490010634,171.41284070000984,171.41294210008346,False,11,12,False,exp3.png,exp4.png,trial_left_image,174.1642964000348,1,exp3.png,2,exp3.png,exp4.png,1,3,reversed,correct,0.0866022724451524,0,invalid_lose,75.5892064999789,174.164684999967,174.7790626999922,6,174.77907850011252,176.5770376001019,,,,,,,,,,,,,,,,,,,,sub_778,2024-01-05_12h59.41.022,Reversal,2023.2.1,60.1367750585381,2,2024-01-05 12h59.52.816280 +0200,
12,exp1.png,exp2.png,,0,0,0,0,0,12,12,12,,,,,,,,,,,,,,,,,,,,,,,,,176.71070519997738,,,,,,,,,,,,176.57791400002316,176.5788553999737,176.57890080008656,False,12,13,False,exp1.png,exp2.png,trial_right_image,179.88124840008095,-1,exp2.png,2,exp1.png,exp2.png,0,2,non-reversed,incorrect,0.313704209885067,0,valid_lose,81.30627320008352,179.88176010013558,180.49553150008433,6,180.49557749996893,182.29266410018317,,,,,,,,,,,,,,,,,,,,sub_778,2024-01-05_12h59.41.022,Reversal,2023.2.1,60.1367750585381,2,2024-01-05 12h59.52.816280 +0200,
13,exp3.png,exp4.png,,0,0,0,0,0,13,13,13,,,,,,,,,,,,,,,,,,,,,,,,,182.41711449995637,,,,,,,,,,,,182.29305239999667,182.2935199001804,182.2935452000238,False,13,14,False,exp3.png,exp4.png,trial_right_image,185.11262010014616,-1,exp4.png,2,exp3.png,exp4.png,0,4,reversed,incorrect,0.7286279165528038,0,valid_lose,86.53736150008626,185.11283220001496,185.72769440012053,6,185.72771660005674,187.52520569995977,,,,,,,,,,,,,,,,,,,,sub_778,2024-01-05_12h59.41.022,Reversal,2023.2.1,60.1367750585381,2,2024-01-05 12h59.52.816280 +0200,
14,exp1.png,exp2.png,,0,0,0,0,0,14,14,14,,,,,,,,,,,,,,,,,,,,,,,,,187.64745840011165,,,,,,,,,,,,187.52547150012106,187.5258411001414,187.52585500013083,False,14,15,False,exp1.png,exp2.png,trial_left_image,194.7114283000119,1,exp1.png,2,exp1.png,exp2.png,1,1,non-reversed,correct,0.6606290588285837,1,valid_win,96.1362528000027,194.7117259001825,195.32628999999724,7,195.3263103000354,197.12432639999315,,,,,,,,,,,,,,,,,,,,sub_778,2024-01-05_12h59.41.022,Reversal,2023.2.1,60.1367750585381,2,2024-01-05 12h59.52.816280 +0200,
15,exp3.png,exp4.png,,0,0,0,0,0,15,15,15,,,,,,,,,,,,,,,,,,,,,,,,,197.2500471000094,,,,,,,,,,,,197.1249488000758,197.12554140016437,197.1255697000306,False,15,16,True,exp4.png,exp3.png,trial_left_image,200.64419140014797,1,exp4.png,2,exp3.png,exp4.png,0,4,reversed,incorrect,0.0058848574063111725,1,invalid_win,102.06910740002058,200.6445861000102,201.25890330015682,8,201.25891840015538,203.0570670000743,,,,,,,,,,,,,,,,,,,,sub_778,2024-01-05_12h59.41.022,Reversal,2023.2.1,60.1367750585381,2,2024-01-05 12h59.52.816280 +0200,
16,exp1.png,exp2.png,,0,0,0,0,0,16,16,16,,,,,,,,,,,,,,,,,,,,,,,,,203.19782500015572,,,,,,,,,,,,203.05793950008228,203.05887680011801,203.0589278000407,False,16,17,False,exp1.png,exp2.png,trial_right_image,206.0268103000708,-1,exp2.png,2,exp1.png,exp2.png,0,2,non-reversed,incorrect,0.6441505638160498,0,valid_lose,107.45168539998122,206.02716220007278,206.64212770015,8,206.64214680017903,208.4397134000901,,,,,,,,,,,,,,,,,,,,sub_778,2024-01-05_12h59.41.022,Reversal,2023.2.1,60.1367750585381,2,2024-01-05 12h59.52.816280 +0200,
17,exp3.png,exp4.png,,0,0,0,0,0,17,17,17,,,,,,,,,,,,,,,,,,,,,,,,,208.58336110017262,,,,,,,,,,,,208.4405820001848,208.44169390015304,208.44179870001972,False,17,18,True,exp4.png,exp3.png,trial_left_image,213.79212840017863,1,exp4.png,2,exp3.png,exp4.png,0,4,reversed,incorrect,0.7353967687732694,0,valid_lose,115.21691419999115,213.79238550015725,214.40711900009774,8,214.40713470010087,216.20513899996877,,,,,,,,,,,,,,,,,,,,sub_778,2024-01-05_12h59.41.022,Reversal,2023.2.1,60.1367750585381,2,2024-01-05 12h59.52.816280 +0200,
18,exp1.png,exp2.png,,0,0,0,0,0,18,18,18,,,,,,,,,,,,,,,,,,,,,,,,,216.32322230003774,,,,,,,,,,,,216.2054016001057,216.20576210017316,216.20577610004693,False,18,19,True,exp2.png,exp1.png,trial_right_image,218.0416900999844,-1,exp1.png,2,exp1.png,exp2.png,1,1,non-reversed,correct,0.9360664001261071,1,valid_win,119.46650879993103,218.04198139999062,218.65762680000626,9,218.65766030014493,220.45433100010268,,,,,,,,,,,,,,,,,,,,sub_778,2024-01-05_12h59.41.022,Reversal,2023.2.1,60.1367750585381,2,2024-01-05 12h59.52.816280 +0200,
19,exp3.png,exp4.png,,0,0,0,0,0,19,19,19,,,,,,,,,,,,,,,,,,,,,,,,,220.57417550007813,,,,,,,,,,,,220.4545967001468,220.45494680013508,220.4549641001504,False,19,20,True,exp4.png,exp3.png,trial_left_image,223.44100960018113,1,exp4.png,2,exp3.png,exp4.png,0,4,reversed,incorrect,0.3188570820244988,0,valid_lose,124.86584539990872,223.441319799982,224.05585810006596,9,224.05587240005843,225.85432590008713,,,,,,,,,,,,,,,,,,,,sub_778,2024-01-05_12h59.41.022,Reversal,2023.2.1,60.1367750585381,2,2024-01-05 12h59.52.816280 +0200,
20,exp1.png,exp2.png,,0,0,0,0,0,20,20,20,,,,,,,,,,,,,,,,,,,,,,,,,226.04995030001737,,,,,,,,,,,,225.8552069000434,225.85635070013814,225.85640450008214,True,,,,,,,225.94616970000789,,,,,,,,,,,,,,225.9461860000156,225.96005490003154,,225.9600721001625,225.98231330001727,,,,,,,,,,,,,,,,,,,,sub_778,2024-01-05_12h59.41.022,Reversal,2023.2.1,60.1367750585381,2,2024-01-05 12h59.52.816280 +0200,
,,,exp1.png,0,0,0,0,,,,,0,0,0,0,0,0,0,0,,,,,,,,,,,,,,,,,226.04995030001737,,,,,,,,,,,,,,,,,,,,,,,,,,,,,,,,,,,,,,,,,225.9902560999617,226.04995030001737,234.22425570013002,100.0,100.0,7.008608300006017,"[(100.0, 7.008608300006017)]",,,,,,,,,,,,,sub_778,2024-01-05_12h59.41.022,Reversal,2023.2.1,60.1367750585381,2,2024-01-05 12h59.52.816280 +0200,
,,,exp2.png,0,0,0,0,,,,,0,0,0,0,0,1,1,1,,,,,,,,,,,,,,,,,234.28619230003096,,,,,,,,,,,,,,,,,,,,,,,,,,,,,,,,,,,,,,,,,234.22672490007244,234.28619230003096,240.90594460000284,,80.0,5.420941499993205,"[(80.0, 5.420941499993205)]",80.0,,,,,,,,,,,,sub_778,2024-01-05_12h59.41.022,Reversal,2023.2.1,60.1367750585381,2,2024-01-05 12h59.52.816280 +0200,
,,,exp3.png,0,0,0,0,,,,,0,0,0,0,0,2,2,2,,,,,,,,,,,,,,,,,240.96172949997708,,,,,,,,,,,,,,,,,,,,,,,,,,,,,,,,,,,,,,,,,240.90640520001762,240.96172949997708,246.27370660007,,80.0,4.460066699888557,"[(80.0, 4.460066699888557)]",,80.0,,,,,,,,,,,sub_778,2024-01-05_12h59.41.022,Reversal,2023.2.1,60.1367750585381,2,2024-01-05 12h59.52.816280 +0200,
,,,exp4.png,0,0,0,0,,,,,0,0,0,0,0,3,3,3,,,,,,,,,,,,,,,,,246.3347624000162,,,,,,,,,,,,,,,,,,,,,,,,,,,,,,,,,,,,,,,,,246.274324900005,246.3347624000162,250.55548089998774,,18.0,3.3217067001387477,"[(18.0, 3.3217067001387477)]",,,18.0,,,,,,,,,,sub_778,2024-01-05_12h59.41.022,Reversal,2023.2.1,60.1367750585381,2,2024-01-05 12h59.52.816280 +0200,
0,exp1.png,exp2.png,,1,0,1,0,0,0,0,0,,,,,,,,,,,,,,,,,,,,,,,,,250.67329480010085,,,,,,,,,,,,250.5631687999703,250.56383720017038,250.56385889998637,False,20,21,False,exp1.png,exp2.png,trial_left_image,254.83679730002768,1,exp1.png,2,exp1.png,exp2.png,1,1,non-reversed,correct,0.4912043574188609,1,valid_win,156.26160220010206,254.83707460016012,255.4518204999622,10,255.4518377999775,257.2498586999718,,,,,,,,,,,,,,,,,,,,sub_778,2024-01-05_12h59.41.022,Reversal,2023.2.1,60.1367750585381,2,2024-01-05 12h59.52.816280 +0200,
1,exp3.png,exp4.png,,1,0,1,0,0,1,1,1,,,,,,,,,,,,,,,,,,,,,,,,,257.38458700012416,,,,,,,,,,,,257.25046869996004,257.2511386000551,257.25117090018466,False,21,22,True,exp4.png,exp3.png,trial_right_image,261.78632219997235,-1,exp3.png,2,exp3.png,exp4.png,1,3,reversed,correct,0.08628718697356419,0,invalid_lose,163.21120089991018,261.78667880012654,262.4010654001031,10,262.40108830016106,264.19898190000094,,,,,,,,,,,,,,,,,,,,sub_778,2024-01-05_12h59.41.022,Reversal,2023.2.1,60.1367750585381,2,2024-01-05 12h59.52.816280 +0200,
2,exp1.png,exp2.png,,1,0,1,0,0,2,2,2,,,,,,,,,,,,,,,,,,,,,,,,,264.3185721000191,,,,,,,,,,,,264.1993694000412,264.1997807000298,264.19979690015316,False,22,23,True,exp2.png,exp1.png,trial_right_image,266.55259580002166,-1,exp1.png,2,exp1.png,exp2.png,1,1,non-reversed,correct,0.2070736636951841,0,invalid_lose,167.97757419990376,266.55305670015514,267.16720609995537,10,267.16724910004996,268.96495559997857,,,,,,,,,,,,,,,,,,,,sub_778,2024-01-05_12h59.41.022,Reversal,2023.2.1,60.1367750585381,2,2024-01-05 12h59.52.816280 +0200,
3,exp3.png,exp4.png,,1,0,1,0,0,3,3,3,,,,,,,,,,,,,,,,,,,,,,,,,269.10024240007624,,,,,,,,,,,,268.96550539997406,268.9662689000834,268.96630099997856,False,23,24,False,exp3.png,exp4.png,trial_right_image,271.95123490015976,-1,exp4.png,2,exp3.png,exp4.png,0,4,reversed,incorrect,0.007099349280206613,1,invalid_win,173.37602730002254,271.95150090008974,272.56729330006056,11,272.5673432000913,274.3647485000547,,,,,,,,,,,,,,,,,,,,sub_778,2024-01-05_12h59.41.022,Reversal,2023.2.1,60.1367750585381,2,2024-01-05 12h59.52.816280 +0200,
4,exp1.png,exp2.png,,1,0,1,0,0,4,4,4,,,,,,,,,,,,,,,,,,,,,,,,,274.5018049001228,,,,,,,,,,,,274.3655193001032,274.36656960006803,274.3666145000607,False,24,25,True,exp2.png,exp1.png,trial_right_image,277.36705700005405,-1,exp1.png,2,exp1.png,exp2.png,1,1,non-reversed,correct,0.28417644669005615,1,valid_win,178.79182199994102,277.36729270010255,277.982478100108,12,277.9825353999622,279.781133600045,,,,,,,,,,,,,,,,,,,,sub_778,2024-01-05_12h59.41.022,Reversal,2023.2.1,60.1367750585381,2,2024-01-05 12h59.52.816280 +0200,
5,exp3.png,exp4.png,,1,0,1,0,0,5,5,5,,,,,,,,,,,,,,,,,,,,,,,,,279.92192770005204,,,,,,,,,,,,279.7822808001656,279.78317559999414,279.78321769996546,False,25,26,False,exp3.png,exp4.png,trial_right_image,281.6672907001339,-1,exp4.png,2,exp3.png,exp4.png,0,4,reversed,incorrect,0.04581981556909087,1,invalid_win,183.09232980012894,281.66782120009884,282.282038200181,13,282.28205449995585,284.0802510001231,,,,,,,,,,,,,,,,,,,,sub_778,2024-01-05_12h59.41.022,Reversal,2023.2.1,60.1367750585381,2,2024-01-05 12h59.52.816280 +0200,
6,exp1.png,exp2.png,,1,0,1,0,0,6,6,6,,,,,,,,,,,,,,,,,,,,,,,,,284.2165097000543,,,,,,,,,,,,284.081138700014,284.082189100096,284.0822368999943,False,26,27,True,exp2.png,exp1.png,trial_right_image,285.6995486000087,-1,exp1.png,2,exp1.png,exp2.png,1,1,non-reversed,correct,0.4292903914325257,1,valid_win,187.1243263001088,285.69979820004664,286.31468770001084,14,286.31470860005356,288.11230400018394,,,,,,,,,,,,,,,,,,,,sub_778,2024-01-05_12h59.41.022,Reversal,2023.2.1,60.1367750585381,2,2024-01-05 12h59.52.816280 +0200,
7,exp3.png,exp4.png,,1,0,1,0,0,7,7,7,,,,,,,,,,,,,,,,,,,,,,,,,288.2384032001719,,,,,,,,,,,,288.11280770017765,288.1135881000664,288.11361670005135,False,27,28,True,exp4.png,exp3.png,trial_right_image,289.99904979998246,-1,exp3.png,2,exp3.png,exp4.png,1,3,reversed,correct,0.16419571931275845,0,invalid_lose,191.42389090009965,289.99936440004967,290.614166600164,14,290.6141954001505,292.41195690003224,,,,,,,,,,,,,,,,,,,,sub_778,2024-01-05_12h59.41.022,Reversal,2023.2.1,60.1367750585381,2,2024-01-05 12h59.52.816280 +0200,
8,exp1.png,exp2.png,,1,0,1,0,0,8,8,8,,,,,,,,,,,,,,,,,,,,,,,,,292.54839819995686,,,,,,,,,,,,292.4125228000339,292.41323990002275,292.41327180014923,False,28,29,True,exp2.png,exp1.png,trial_left_image,293.98205990018323,1,exp2.png,2,exp1.png,exp2.png,0,2,non-reversed,incorrect,0.49879706976866345,0,valid_lose,195.40692749992013,293.98240260011517,294.59697850001976,14,294.5969961001538,296.39537720009685,,,,,,,,,,,,,,,,,,,,sub_778,2024-01-05_12h59.41.022,Reversal,2023.2.1,60.1367750585381,2,2024-01-05 12h59.52.816280 +0200,
9,exp3.png,exp4.png,,1,0,1,0,0,9,9,9,,,,,,,,,,,,,,,,,,,,,,,,,296.52468649996445,,,,,,,,,,,,296.39604240003973,296.3968789000064,296.3969170001801,False,29,30,False,exp3.png,exp4.png,trial_left_image,299.03158630011603,1,exp3.png,2,exp3.png,exp4.png,1,3,reversed,correct,0.6056013038416446,1,valid_win,200.45644160010852,299.0319169999566,299.6470282000955,15,299.64710619999096,301.44400710007176,,,,,,,,,,,,,,,,,,,,sub_778,2024-01-05_12h59.41.022,Reversal,2023.2.1,60.1367750585381,2,2024-01-05 12h59.52.816280 +0200,
10,exp1.png,exp2.png,,1,0,1,0,0,10,10,10,,,,,,,,,,,,,,,,,,,,,,,,,301.57481370004825,,,,,,,,,,,,301.4445480001159,301.44517190009356,301.445200300077,False,30,31,False,exp1.png,exp2.png,trial_left_image,303.79732560017146,1,exp1.png,2,exp1.png,exp2.png,1,1,non-reversed,correct,0.2073124918682645,0,invalid_lose,205.22220550011843,303.79768109996803,304.4123478999827,15,304.4123741001822,306.21014440013096,,,,,,,,,,,,,,,,,,,,sub_778,2024-01-05_12h59.41.022,Reversal,2023.2.1,60.1367750585381,2,2024-01-05 12h59.52.816280 +0200,
11,exp3.png,exp4.png,,1,0,1,0,0,11,11,11,,,,,,,,,,,,,,,,,,,,,,,,,306.33839339995757,,,,,,,,,,,,306.21047809999436,306.2109199000988,306.2109377000015,False,31,32,False,exp3.png,exp4.png,trial_right_image,309.51336210011505,-1,exp4.png,2,exp3.png,exp4.png,0,4,reversed,incorrect,0.851382883629811,0,valid_lose,210.93832519999705,309.51380320009775,310.1283541000448,15,310.12838010000996,311.9260814001318,,,,,,,,,,,,,,,,,,,,sub_778,2024-01-05_12h59.41.022,Reversal,2023.2.1,60.1367750585381,2,2024-01-05 12h59.52.816280 +0200,
12,exp1.png,exp2.png,,1,0,1,0,0,12,12,12,,,,,,,,,,,,,,,,,,,,,,,,,312.06532589998096,,,,,,,,,,,,311.92676100018434,311.92754800012335,311.9275857000612,False,32,33,True,exp2.png,exp1.png,trial_right_image,316.14531449996866,-1,exp1.png,2,exp1.png,exp2.png,1,1,non-reversed,correct,0.9714995283234317,1,valid_win,217.57009480008855,316.1455646001268,316.7604704000987,16,316.76049210014753,318.5588857999537,,,,,,,,,,,,,,,,,,,,sub_778,2024-01-05_12h59.41.022,Reversal,2023.2.1,60.1367750585381,2,2024-01-05 12h59.52.816280 +0200,
13,exp3.png,exp4.png,,1,0,1,0,0,13,13,13,,,,,,,,,,,,,,,,,,,,,,,,,318.7007417001296,,,,,,,,,,,,318.55959830014035,318.5605454000179,318.56059440015815,False,33,34,False,exp3.png,exp4.png,trial_left_image,321.61146769998595,1,exp3.png,2,exp3.png,exp4.png,1,3,reversed,correct,0.7788119330728416,1,valid_win,223.0363066000864,321.61178000015207,322.22683790000156,17,322.2268634000793,324.02450000005774,,,,,,,,,,,,,,,,,,,,sub_778,2024-01-05_12h59.41.022,Reversal,2023.2.1,60.1367750585381,2,2024-01-05 12h59.52.816280 +0200,
14,exp1.png,exp2.png,,1,0,1,0,0,14,14,14,,,,,,,,,,,,,,,,,,,,,,,,,324.1610559001565,,,,,,,,,,,,324.025202000048,324.02598430006765,324.02604560018517,False,34,35,True,exp2.png,exp1.png,trial_right_image,326.46117230015807,-1,exp1.png,2,exp1.png,exp2.png,1,1,non-reversed,correct,0.38573049272836724,1,valid_win,227.88608289998956,326.4615607999731,327.0759207000956,18,327.07594410004094,328.87419030000456,,,,,,,,,,,,,,,,,,,,sub_778,2024-01-05_12h59.41.022,Reversal,2023.2.1,60.1367750585381,2,2024-01-05 12h59.52.816280 +0200,
15,exp3.png,exp4.png,,1,0,1,0,0,15,15,15,,,,,,,,,,,,,,,,,,,,,,,,,329.00711250002496,,,,,,,,,,,,328.8749786000699,328.87599580013193,328.87604100001045,False,35,36,False,exp3.png,exp4.png,trial_right_image,331.52687250007875,-1,exp4.png,2,exp3.png,exp4.png,0,4,reversed,incorrect,0.035603270655200525,1,invalid_win,232.9516270000022,331.52709630015306,332.14197100000456,19,332.1419913000427,333.93968040007167,,,,,,,,,,,,,,,,,,,,sub_778,2024-01-05_12h59.41.022,Reversal,2023.2.1,60.1367750585381,2,2024-01-05 12h59.52.816280 +0200,
16,exp1.png,exp2.png,,1,0,1,0,0,16,16,16,,,,,,,,,,,,,,,,,,,,,,,,,334.0573134000879,,,,,,,,,,,,333.9399820000399,333.9404436000623,333.94045950006694,False,36,37,False,exp1.png,exp2.png,trial_left_image,336.40962729998864,1,exp1.png,2,exp1.png,exp2.png,1,1,non-reversed,correct,0.24683939504567654,0,invalid_lose,237.83445290010422,336.40992889995687,337.02452430012636,19,337.0245397000108,338.8228221000172,,,,,,,,,,,,,,,,,,,,sub_778,2024-01-05_12h59.41.022,Reversal,2023.2.1,60.1367750585381,2,2024-01-05 12h59.52.816280 +0200,
17,exp3.png,exp4.png,,1,0,1,0,0,17,17,17,,,,,,,,,,,,,,,,,,,,,,,,,338.9701950000599,,,,,,,,,,,,338.8234918001108,338.82439399999566,338.824433100177,False,37,38,False,exp3.png,exp4.png,trial_right_image,340.7929502001498,-1,exp4.png,2,exp3.png,exp4.png,0,4,reversed,incorrect,0.3065519773606118,0,valid_lose,242.21805360005237,340.79354250011966,341.40751449996606,19,341.4075323001016,343.2054940001108,,,,,,,,,,,,,,,,,,,,sub_778,2024-01-05_12h59.41.022,Reversal,2023.2.1,60.1367750585381,2,2024-01-05 12h59.52.816280 +0200,
18,exp1.png,exp2.png,,1,0,1,0,0,18,18,18,,,,,,,,,,,,,,,,,,,,,,,,,343.3417929999996,,,,,,,,,,,,343.2060881999787,343.2067570001818,343.20678670005873,False,38,39,True,exp2.png,exp1.png,trial_right_image,345.8252767000813,-1,exp1.png,2,exp1.png,exp2.png,1,1,non-reversed,correct,0.2815624498549727,1,valid_win,247.25016880012117,345.82564259995706,346.4403315000236,20,346.44034810015,348.23811629996635,,,,,,,,,,,,,,,,,,,,sub_778,2024-01-05_12h59.41.022,Reversal,2023.2.1,60.1367750585381,2,2024-01-05 12h59.52.816280 +0200,
19,exp3.png,exp4.png,,1,0,1,0,0,19,19,19,,,,,,,,,,,,,,,,,,,,,,,,,348.3752812000457,,,,,,,,,,,,348.2384524999652,348.2388506999705,348.2388679999858,False,39,40,True,exp4.png,exp3.png,trial_left_image,350.85819560009986,1,exp4.png,2,exp3.png,exp4.png,0,4,reversed,incorrect,0.10084519261549296,1,invalid_win,252.28314459999092,350.85862349998206,351.4728417999577,21,351.47285969997756,353.2708958000876,,,,,,,,,,,,,,,,,,,,sub_778,2024-01-05_12h59.41.022,Reversal,2023.2.1,60.1367750585381,2,2024-01-05 12h59.52.816280 +0200,
20,exp1.png,exp2.png,,1,0,1,0,0,20,20,20,,,,,,,,,,,,,,,,,,,,,,,,,353.45413130009547,,,,,,,,,,,,353.27155490010045,353.2723942999728,353.27243250003085,True,,,,,,,353.35528130014427,,,,,,,,,,,,,,353.3552985000424,353.3675198999699,,353.3675367999822,353.3841236999724,,,,,,,,,,,,,,,,,,,,sub_778,2024-01-05_12h59.41.022,Reversal,2023.2.1,60.1367750585381,2,2024-01-05 12h59.52.816280 +0200,
,,,exp1.png,1,0,1,0,,,,,0,0,0,0,0,0,0,0,,,,,,,,,,,,,,,,,353.45413130009547,,,,,,,,,,,,,,,,,,,,,,,,,,,,,,,,,,,,,,,,,353.39255450014025,353.45413130009547,358.65831109997816,92.0,92.0,4.291744299931452,"[(92.0, 4.291744299931452)]",,,,,,,,,,,,,sub_778,2024-01-05_12h59.41.022,Reversal,2023.2.1,60.1367750585381,2,2024-01-05 12h59.52.816280 +0200,
,,,exp2.png,1,0,1,0,,,,,0,0,0,0,0,1,1,1,,,,,,,,,,,,,,,,,358.71857809997164,,,,,,,,,,,,,,,,,,,,,,,,,,,,,,,,,,,,,,,,,358.659012200078,358.71857809997164,362.8236194001511,,57.0,3.272182200103998,"[(57.0, 3.272182200103998)]",57.0,,,,,,,,,,,,sub_778,2024-01-05_12h59.41.022,Reversal,2023.2.1,60.1367750585381,2,2024-01-05 12h59.52.816280 +0200,
,,,exp3.png,1,0,1,0,,,,,0,0,0,0,0,2,2,2,,,,,,,,,,,,,,,,,362.8799453000538,,,,,,,,,,,,,,,,,,,,,,,,,,,,,,,,,,,,,,,,,362.8240380999632,362.8799453000538,366.54328220011666,,43.0,2.7777517999056727,"[(43.0, 2.7777517999056727)]",,43.0,,,,,,,,,,,sub_778,2024-01-05_12h59.41.022,Reversal,2023.2.1,60.1367750585381,2,2024-01-05 12h59.52.816280 +0200,
,,,exp4.png,1,0,1,0,,,,,0,0,0,0,0,3,3,3,,,,,,,,,,,,,,,,,366.61276940000243,,,,,,,,,,,,,,,,,,,,,,,,,,,,,,,,,,,,,,,,,366.54412230011076,366.61276940000243,371.4229391000699,,21.0,3.9432848000433296,"[(21.0, 3.9432848000433296)]",,,21.0,,,,,,,,,,sub_778,2024-01-05_12h59.41.022,Reversal,2023.2.1,60.1367750585381,2,2024-01-05 12h59.52.816280 +0200,
0,exp1.png,exp2.png,,2,0,2,0,0,0,0,0,,,,,,,,,,,,,,,,,,,,,,,,,371.53733050008304,,,,,,,,,,,,371.43050340004265,371.4312116999645,371.4312265999615,False,40,41,True,exp2.png,exp1.png,trial_right_image,374.78840030007996,-1,exp1.png,2,exp1.png,exp2.png,1,1,non-reversed,correct,0.31929792156197856,1,valid_win,276.21331720007583,374.78879570006393,375.4029555001762,22,375.4029741999693,377.2009505000897,,,,,,,,,,,,,,,,,,,,sub_778,2024-01-05_12h59.41.022,Reversal,2023.2.1,60.1367750585381,2,2024-01-05 12h59.52.816280 +0200,
1,exp3.png,exp4.png,,2,0,2,0,0,1,1,1,,,,,,,,,,,,,,,,,,,,,,,,,377.3399476001505,,,,,,,,,,,,377.20167320012115,377.20261649996974,377.2026601000689,False,41,42,False,exp3.png,exp4.png,trial_left_image,380.070904500084,1,exp3.png,2,exp3.png,exp4.png,1,3,reversed,correct,0.5216435244879327,1,valid_win,281.4958200000692,380.071298800176,380.68599360017106,23,380.68602330004796,382.4836441001389,,,,,,,,,,,,,,,,,,,,sub_778,2024-01-05_12h59.41.022,Reversal,2023.2.1,60.1367750585381,2,2024-01-05 12h59.52.816280 +0200,
2,exp1.png,exp2.png,,2,0,2,0,0,2,2,2,,,,,,,,,,,,,,,,,,,,,,,,,382.62175210006535,,,,,,,,,,,,382.4843070001807,382.48523030010983,382.485269700177,False,42,43,False,exp1.png,exp2.png,trial_right_image,385.22006780002266,-1,exp2.png,2,exp1.png,exp2.png,0,2,non-reversed,incorrect,0.27518598506222247,0,valid_lose,286.64479840011336,385.2202659000177,385.8350488001015,23,385.83508310001343,387.63275550003164,,,,,,,,,,,,,,,,,,,,sub_778,2024-01-05_12h59.41.022,Reversal,2023.2.1,60.1367750585381,2,2024-01-05 12h59.52.816280 +0200,
3,exp3.png,exp4.png,,2,0,2,0,0,3,3,3,,,,,,,,,,,,,,,,,,,,,,,,,387.7651756000705,,,,,,,,,,,,387.6330488000531,387.6334146000445,387.6334291000385,False,43,44,True,exp4.png,exp3.png,trial_right_image,391.2689700999763,-1,exp3.png,2,exp3.png,exp4.png,1,3,reversed,correct,0.5990153073595769,1,valid_win,292.6937208001036,391.26918940013275,391.8843674000818,24,391.88438910013065,393.6819250001572,,,,,,,,,,,,,,,,,,,,sub_778,2024-01-05_12h59.41.022,Reversal,2023.2.1,60.1367750585381,2,2024-01-05 12h59.52.816280 +0200,
4,exp1.png,exp2.png,,2,0,2,0,0,4,4,4,,,,,,,,,,,,,,,,,,,,,,,,,393.81053899996914,,,,,,,,,,,,393.68222550000064,393.6826667001005,393.6826822999865,False,44,45,True,exp2.png,exp1.png,trial_right_image,395.2689366999548,-1,exp1.png,2,exp1.png,exp2.png,1,1,non-reversed,correct,0.13671405769377787,0,invalid_lose,296.69384719990194,395.26932470011525,395.88383820001036,24,395.88385540014133,397.6813652999699,,,,,,,,,,,,,,,,,,,,sub_778,2024-01-05_12h59.41.022,Reversal,2023.2.1,60.1367750585381,2,2024-01-05 12h59.52.816280 +0200,
5,exp3.png,exp4.png,,2,0,2,0,0,5,5,5,,,,,,,,,,,,,,,,,,,,,,,,,397.8067203001119,,,,,,,,,,,,397.68165190005675,397.6820174001623,397.6820380000863,False,45,46,True,exp4.png,exp3.png,trial_right_image,401.6011414001696,-1,exp3.png,2,exp3.png,exp4.png,1,3,reversed,correct,0.6409070207744932,1,valid_win,303.0260403000284,401.60151659999974,402.21614190004766,25,402.216158100171,404.01412419998087,,,,,,,,,,,,,,,,,,,,sub_778,2024-01-05_12h59.41.022,Reversal,2023.2.1,60.1367750585381,2,2024-01-05 12h59.52.816280 +0200,
6,exp1.png,exp2.png,,2,0,2,0,0,6,6,6,,,,,,,,,,,,,,,,,,,,,,,,,404.15041720005684,,,,,,,,,,,,404.0145945001859,404.0150825001765,404.0151049999986,False,46,47,False,exp1.png,exp2.png,trial_left_image,407.46779420017265,1,exp1.png,2,exp1.png,exp2.png,1,1,non-reversed,correct,0.8493304548280617,1,valid_win,308.89289129991084,407.4683845001273,408.0821557000745,26,408.08218170003965,409.88021060009487,,,,,,,,,,,,,,,,,,,,sub_778,2024-01-05_12h59.41.022,Reversal,2023.2.1,60.1367750585381,2,2024-01-05 12h59.52.816280 +0200,
7,exp3.png,exp4.png,,2,0,2,0,0,7,7,7,,,,,,,,,,,,,,,,,,,,,,,,,410.0205664001405,,,,,,,,,,,,409.88091800012626,409.8816029999871,409.8816349999979,False,47,48,False,exp3.png,exp4.png,trial_left_image,412.78329000016674,1,exp3.png,2,exp3.png,exp4.png,1,3,reversed,correct,0.8116615050224582,1,valid_win,314.208121499978,412.78359450004064,413.3982069999911,27,413.3982361999806,415.19602650008164,,,,,,,,,,,,,,,,,,,,sub_778,2024-01-05_12h59.41.022,Reversal,2023.2.1,60.1367750585381,2,2024-01-05 12h59.52.816280 +0200,
8,exp1.png,exp2.png,,2,0,2,0,0,8,8,8,,,,,,,,,,,,,,,,,,,,,,,,,415.3323909000028,,,,,,,,,,,,415.19662750000134,415.1974084000103,415.1974439001642,False,48,49,True,exp2.png,exp1.png,trial_right_image,418.6489811001811,-1,exp1.png,2,exp1.png,exp2.png,1,1,non-reversed,correct,0.9491450369038021,1,valid_win,320.07379089994356,418.64926380012184,419.26404449995607,28,419.2640609999653,421.06190249999054,,,,,,,,,,,,,,,,,,,,sub_778,2024-01-05_12h59.41.022,Reversal,2023.2.1,60.1367750585381,2,2024-01-05 12h59.52.816280 +0200,
9,exp3.png,exp4.png,,2,0,2,0,0,9,9,9,,,,,,,,,,,,,,,,,,,,,,,,,421.2001500001643,,,,,,,,,,,,421.06230089999735,421.06284989998676,421.0628768000752,False,49,50,False,exp3.png,exp4.png,trial_right_image,427.5483743001241,-1,exp4.png,2,exp3.png,exp4.png,0,4,reversed,incorrect,0.4892755751372927,0,valid_lose,328.97344730002806,427.5489338999614,428.1627841000445,28,428.1628023001831,429.96078329999,,,,,,,,,,,,,,,,,,,,sub_778,2024-01-05_12h59.41.022,Reversal,2023.2.1,60.1367750585381,2,2024-01-05 12h59.52.816280 +0200,
10,exp1.png,exp2.png,,2,0,2,0,0,10,10,10,,,,,,,,,,,,,,,,,,,,,,,,,430.1017406000756,,,,,,,,,,,,429.9614183001686,429.9623098000884,429.9623473000247,False,50,51,True,exp2.png,exp1.png,trial_right_image,432.24701700010337,-1,exp1.png,2,exp1.png,exp2.png,1,1,non-reversed,correct,0.6815408611810301,1,valid_win,333.6718618001323,432.24733450007625,432.8625589001458,29,432.8625958999619,434.66013540001586,,,,,,,,,,,,,,,,,,,,sub_778,2024-01-05_12h59.41.022,Reversal,2023.2.1,60.1367750585381,2,2024-01-05 12h59.52.816280 +0200,
11,exp3.png,exp4.png,,2,0,2,0,0,11,11,11,,,,,,,,,,,,,,,,,,,,,,,,,434.7990809001494,,,,,,,,,,,,434.66078380006365,434.6616048000287,434.6616426000837,False,51,52,False,exp3.png,exp4.png,trial_left_image,436.9301685001701,1,exp3.png,2,exp3.png,exp4.png,1,3,reversed,correct,0.009319710696875538,0,invalid_lose,338.35517630004324,436.9306581001729,437.54544570017606,29,437.54545970004983,439.34280159999616,,,,,,,,,,,,,,,,,,,,sub_778,2024-01-05_12h59.41.022,Reversal,2023.2.1,60.1367750585381,2,2024-01-05 12h59.52.816280 +0200,
12,exp1.png,exp2.png,,2,0,2,0,0,12,12,12,,,,,,,,,,,,,,,,,,,,,,,,,439.46650209999643,,,,,,,,,,,,439.3430733999703,439.3434584001079,439.34347219998017,False,52,53,False,exp1.png,exp2.png,trial_left_image,441.87947529996745,1,exp1.png,2,exp1.png,exp2.png,1,1,non-reversed,correct,0.5959533485532518,1,valid_win,343.3043525000103,441.87982899998315,442.4946493001189,30,442.49468050012365,444.29198780003935,,,,,,,,,,,,,,,,,,,,sub_778,2024-01-05_12h59.41.022,Reversal,2023.2.1,60.1367750585381,2,2024-01-05 12h59.52.816280 +0200,
13,exp3.png,exp4.png,,2,0,2,0,0,13,13,13,,,,,,,,,,,,,,,,,,,,,,,,,444.41599939996377,,,,,,,,,,,,444.29231200017966,444.29276840016246,444.2927864000667,False,53,54,False,exp3.png,exp4.png,trial_left_image,448.71261260006577,1,exp3.png,2,exp3.png,exp4.png,1,3,reversed,correct,0.2024059392853652,0,invalid_lose,350.13788320007734,448.7133853000123,449.32681630016305,30,449.32683180016465,451.12462190003134,,,,,,,,,,,,,,,,,,,,sub_778,2024-01-05_12h59.41.022,Reversal,2023.2.1,60.1367750585381,2,2024-01-05 12h59.52.816280 +0200,
14,exp1.png,exp2.png,,2,0,2,0,0,14,14,14,,,,,,,,,,,,,,,,,,,,,,,,,451.26782750012353,,,,,,,,,,,,451.12529610004276,451.12611009995453,451.1261485000141,False,54,55,True,exp2.png,exp1.png,trial_right_image,453.5111224001739,-1,exp1.png,2,exp1.png,exp2.png,1,1,non-reversed,correct,0.06516717994135957,0,invalid_lose,354.93589580012485,453.5113661000505,454.1263387000654,30,454.1263788000215,455.92386530013755,,,,,,,,,,,,,,,,,,,,sub_778,2024-01-05_12h59.41.022,Reversal,2023.2.1,60.1367750585381,2,2024-01-05 12h59.52.816280 +0200,
15,exp3.png,exp4.png,,2,0,2,0,0,15,15,15,,,,,,,,,,,,,,,,,,,,,,,,,456.0559110001195,,,,,,,,,,,,455.9242222001776,455.9246839999687,455.92470360011794,False,55,56,True,exp4.png,exp3.png,trial_right_image,463.01005630008876,-1,exp3.png,2,exp3.png,exp4.png,1,3,reversed,correct,0.3820212326765766,1,valid_win,364.4349009001162,463.01037529995665,463.6248678001575,31,463.6248823001515,465.4230390000157,,,,,,,,,,,,,,,,,,,,sub_778,2024-01-05_12h59.41.022,Reversal,2023.2.1,60.1367750585381,2,2024-01-05 12h59.52.816280 +0200,
16,exp1.png,exp2.png,,2,0,2,0,0,16,16,16,,,,,,,,,,,,,,,,,,,,,,,,,465.55378179997206,,,,,,,,,,,,465.42370430007577,465.42452200013213,465.4245595000684,False,56,57,True,exp2.png,exp1.png,trial_right_image,467.9764841001015,-1,exp1.png,2,exp1.png,exp2.png,1,1,non-reversed,correct,0.41642869200116217,1,valid_win,369.4015456000343,467.9770285000559,468.59125160006806,32,468.59128060005605,470.3888690001331,,,,,,,,,,,,,,,,,,,,sub_778,2024-01-05_12h59.41.022,Reversal,2023.2.1,60.1367750585381,2,2024-01-05 12h59.52.816280 +0200,
17,exp3.png,exp4.png,,2,0,2,0,0,17,17,17,,,,,,,,,,,,,,,,,,,,,,,,,470.51569060003385,,,,,,,,,,,,470.3893175001722,470.3897602001671,470.38977960008197,False,57,58,True,exp4.png,exp3.png,trial_right_image,473.7929644000251,-1,exp3.png,2,exp3.png,exp4.png,1,3,reversed,correct,0.48232865630517363,1,valid_win,375.2180180000141,473.7935046001803,474.40785810002126,33,474.4079118000809,476.20495000015944,,,,,,,,,,,,,,,,,,,,sub_778,2024-01-05_12h59.41.022,Reversal,2023.2.1,60.1367750585381,2,2024-01-05 12h59.52.816280 +0200,
18,exp1.png,exp2.png,,2,0,2,0,0,18,18,18,,,,,,,,,,,,,,,,,,,,,,,,,476.33888270007446,,,,,,,,,,,,476.2056494001299,476.20640300004743,476.20643729995936,False,58,59,False,exp1.png,exp2.png,trial_right_image,479.3912341000978,-1,exp2.png,2,exp1.png,exp2.png,0,2,non-reversed,incorrect,0.7082380078650456,0,valid_lose,380.8160272000823,479.39149840013124,480.0063944000285,33,480.0064265001565,481.8043007000815,,,,,,,,,,,,,,,,,,,,sub_778,2024-01-05_12h59.41.022,Reversal,2023.2.1,60.1367750585381,2,2024-01-05 12h59.52.816280 +0200,
19,exp3.png,exp4.png,,2,0,2,0,0,19,19,19,,,,,,,,,,,,,,,,,,,,,,,,,481.9374816000927,,,,,,,,,,,,481.8053137001116,481.80650570010766,481.8065573000349,False,59,60,False,exp3.png,exp4.png,trial_left_image,484.95776280015707,1,exp3.png,2,exp3.png,exp4.png,1,3,reversed,correct,0.8764229665854524,1,valid_win,386.38276680000126,484.9582511000335,485.57245310000144,34,485.572478499962,487.36985230003484,,,,,,,,,,,,,,,,,,,,sub_778,2024-01-05_12h59.41.022,Reversal,2023.2.1,60.1367750585381,2,2024-01-05 12h59.52.816280 +0200,
20,exp1.png,exp2.png,,2,0,2,0,0,20,20,20,,,,,,,,,,,,,,,,,,,,,,,,,487.5541010000743,,,,,,,,,,,,487.3702257000841,487.37067089998163,487.3706904000137,True,,,,,,,487.4447472000029,,,,,,,,,,,,,,487.4447635000106,487.4596420000307,,487.4596568001434,487.47681050002575,,,,,,,,,,,,,,,,,,,,sub_778,2024-01-05_12h59.41.022,Reversal,2023.2.1,60.1367750585381,2,2024-01-05 12h59.52.816280 +0200,
,,,exp1.png,2,0,2,0,,,,,0,0,0,0,0,0,0,0,,,,,,,,,,,,,,,,,487.5541010000743,,,,,,,,,,,,,,,,,,,,,,,,,,,,,,,,,,,,,,,,,487.4870707001537,487.5541010000743,491.5413240001071,100.0,100.0,2.779054599814117,"[(100.0, 2.779054599814117)]",,,,,,,,,,,,,sub_778,2024-01-05_12h59.41.022,Reversal,2023.2.1,60.1367750585381,2,2024-01-05 12h59.52.816280 +0200,
,,,exp2.png,2,0,2,0,,,,,0,0,0,0,0,1,1,1,,,,,,,,,,,,,,,,,491.60995600000024,,,,,,,,,,,,,,,,,,,,,,,,,,,,,,,,,,,,,,,,,491.5419284000527,491.60995600000024,494.25708870007657,,32.0,1.8052503999788314,"[(32.0, 1.8052503999788314)]",32.0,,,,,,,,,,,,sub_778,2024-01-05_12h59.41.022,Reversal,2023.2.1,60.1367750585381,2,2024-01-05 12h59.52.816280 +0200,
,,,exp3.png,2,0,2,0,,,,,0,0,0,0,0,2,2,2,,,,,,,,,,,,,,,,,494.315251900116,,,,,,,,,,,,,,,,,,,,,,,,,,,,,,,,,,,,,,,,,494.25759040005505,494.315251900116,496.1747697000392,,67.0,1.0088246001396328,"[(67.0, 1.0088246001396328)]",,67.0,,,,,,,,,,,sub_778,2024-01-05_12h59.41.022,Reversal,2023.2.1,60.1367750585381,2,2024-01-05 12h59.52.816280 +0200,
,,,exp4.png,2,0,2,0,,,,,0,0,0,0,0,3,3,3,,,,,,,,,,,,,,,,,496.23572080000304,,,,,,,,,,,,,,,,,,,,,,,,,,,,,,,,,,,,,,,,,496.175399400061,496.23572080000304,500.9227261999622,,3.0,3.3390492000617087,"[(3.0, 3.3390492000617087)]",,,3.0,,,,,,,,,,sub_778,2024-01-05_12h59.41.022,Reversal,2023.2.1,60.1367750585381,2,2024-01-05 12h59.52.816280 +0200,
0,exp1.png,exp2.png,,,,,,,,,,,,,,,,,,0,0,0,0,0,0,0,0,,,,,,,,,501.03923080000095,,,,,,,,,,,,,,500.93150730011985,False,0,61,True,exp2.png,exp1.png,trial_right_image,503.33798060007393,-1,exp1.png,2,exp1.png,exp2.png,1,1,non-reversed,correct,0.1751169869536623,0,invalid_lose,404.7627020999789,503.3381694999989,503.95292720012367,34,503.95294460002333,505.7511708000675,,,,,,,,,,,500.93075340008363,500.9314802000299,402.4134581000544,,,,,,,sub_778,2024-01-05_12h59.41.022,Reversal,2023.2.1,60.1367750585381,2,2024-01-05 12h59.52.816280 +0200,
1,exp3.png,exp4.png,,,,,,,,,,,,,,,,,,0,0,0,0,0,1,1,1,,,,,,,,,505.89159610006027,,,,,,,,,,,,,,505.7524163001217,False,1,62,True,exp4.png,exp3.png,trial_right_image,507.95461650006473,-1,exp3.png,2,exp4.png,exp3.png,1,3,reversed,incorrect,0.2032371859620895,1,invalid_win,409.37952840002254,507.9550070001278,508.56942140008323,35,508.5694582001306,510.36694650002755,,,,,,,,,,,505.7517518000677,505.75238660001196,,,,,,,,sub_778,2024-01-05_12h59.41.022,Reversal,2023.2.1,60.1367750585381,2,2024-01-05 12h59.52.816280 +0200,
2,exp1.png,exp2.png,,,,,,,,,,,,,,,,,,0,0,0,0,0,2,2,2,,,,,,,,,510.4963484001346,,,,,,,,,,,,,,510.3681477000937,False,2,63,False,exp1.png,exp2.png,trial_left_image,512.8703534000088,1,exp1.png,2,exp1.png,exp2.png,1,1,non-reversed,correct,0.37071680667702056,1,valid_win,414.29534510010853,512.8708282001317,513.4855278001633,36,513.485554400133,515.2832740000449,,,,,,,,,,,510.367479900131,510.3681159000844,,,,,,,,sub_778,2024-01-05_12h59.41.022,Reversal,2023.2.1,60.1367750585381,2,2024-01-05 12h59.52.816280 +0200,
3,exp3.png,exp4.png,,,,,,,,,,,,,,,,,,0,0,0,0,0,3,3,3,,,,,,,,,515.412499200087,,,,,,,,,,,,,,515.2846278999932,False,3,64,True,exp4.png,exp3.png,trial_right_image,517.9026771001518,-1,exp3.png,2,exp4.png,exp3.png,1,3,reversed,incorrect,0.9390605729106719,0,valid_lose,419.32740589999594,517.902873700019,518.5183234000579,36,518.5183680001646,520.3156409000512,,,,,,,,,,,515.283934000181,515.2845997000113,,,,,,,,sub_778,2024-01-05_12h59.41.022,Reversal,2023.2.1,60.1367750585381,2,2024-01-05 12h59.52.816280 +0200,
4,exp1.png,exp2.png,,,,,,,,,,,,,,,,,,0,0,0,0,0,4,4,4,,,,,,,,,520.442130099982,,,,,,,,,,,,,,520.3166027001571,False,4,65,False,exp1.png,exp2.png,trial_left_image,522.5023132001515,1,exp1.png,2,exp1.png,exp2.png,1,1,non-reversed,correct,0.48616479557208214,1,valid_win,423.9271273999475,522.5025998000056,523.1172843000386,37,523.1173004000448,524.9150949001778,,,,,,,,,,,520.3160755999852,520.3165794000961,,,,,,,,sub_778,2024-01-05_12h59.41.022,Reversal,2023.2.1,60.1367750585381,2,2024-01-05 12h59.52.816280 +0200,
5,exp3.png,exp4.png,,,,,,,,,,,,,,,,,,0,0,0,0,0,5,5,5,,,,,,,,,525.0588678000495,,,,,,,,,,,,,,524.9165179000702,False,5,66,True,exp4.png,exp3.png,trial_right_image,527.2351173001807,-1,exp3.png,2,exp4.png,exp3.png,1,3,reversed,incorrect,0.9566085139981887,0,valid_lose,428.6601227999199,527.2356017001439,527.8500990001485,37,527.8501142000314,529.6478355000727,,,,,,,,,,,524.9157332000323,524.9164799000137,,,,,,,,sub_778,2024-01-05_12h59.41.022,Reversal,2023.2.1,60.1367750585381,2,2024-01-05 12h59.52.816280 +0200,
6,exp1.png,exp2.png,,,,,,,,,,,,,,,,,,0,0,0,0,0,6,6,6,,,,,,,,,529.7865220999811,,,,,,,,,,,,,,529.6492930001114,False,6,67,True,exp2.png,exp1.png,trial_right_image,532.7179233001079,-1,exp1.png,2,exp1.png,exp2.png,1,1,non-reversed,correct,0.6245670369008202,1,valid_win,434.1428412999958,532.7183203999884,533.3326930000912,38,533.3327116,535.1304971000645,,,,,,,,,,,529.6484851001296,529.6492526000366,,,,,,,,sub_778,2024-01-05_12h59.41.022,Reversal,2023.2.1,60.1367750585381,2,2024-01-05 12h59.52.816280 +0200,
7,exp3.png,exp4.png,,,,,,,,,,,,,,,,,,0,0,0,0,0,7,7,7,,,,,,,,,535.2700040000491,,,,,,,,,,,,,,535.131804500008,False,7,68,True,exp4.png,exp3.png,trial_right_image,537.666920500109,-1,exp3.png,2,exp4.png,exp3.png,1,3,reversed,incorrect,0.03819047915765372,1,invalid_win,439.09191580000333,537.6673950001132,538.2819267001469,39,538.2819497000892,540.0800976001192,,,,,,,,,,,535.131050700089,535.1317704000976,,,,,,,,sub_778,2024-01-05_12h59.41.022,Reversal,2023.2.1,60.1367750585381,2,2024-01-05 12h59.52.816280 +0200,
8,exp1.png,exp2.png,,,,,,,,,,,,,,,,,,0,0,0,0,0,8,8,8,,,,,,,,,540.2205783000682,,,,,,,,,,,,,,540.081712400075,False,8,69,False,exp1.png,exp2.png,trial_left_image,542.6160291000269,1,exp1.png,2,exp1.png,exp2.png,1,1,non-reversed,correct,0.503443416965951,1,valid_win,444.0408221001271,542.6162918000482,543.2313681000378,40,543.231388800079,545.0292805000208,,,,,,,,,,,540.0808196000289,540.0816683000885,,,,,,,,sub_778,2024-01-05_12h59.41.022,Reversal,2023.2.1,60.1367750585381,2,2024-01-05 12h59.52.816280 +0200,
9,exp3.png,exp4.png,,,,,,,,,,,,,,,,,,0,0,0,0,0,9,9,9,,,,,,,,,545.1668674000539,,,,,,,,,,,,,,545.030447000172,False,9,70,True,exp4.png,exp3.png,trial_right_image,549.0988906000275,-1,exp3.png,2,exp4.png,exp3.png,1,3,reversed,incorrect,0.4283717367465596,0,valid_lose,450.5238220000174,549.0992984001059,549.7141621999908,40,549.714207299985,551.5117705999874,,,,,,,,,,,545.0297749000601,545.0304133000318,,,,,,,,sub_778,2024-01-05_12h59.41.022,Reversal,2023.2.1,60.1367750585381,2,2024-01-05 12h59.52.816280 +0200,
10,exp1.png,exp2.png,,,,,,,,,,,,,,,,,,0,0,0,0,0,10,10,10,,,,,,,,,551.641959000146,,,,,,,,,,,,,,551.5127288000658,False,10,71,True,exp2.png,exp1.png,trial_right_image,553.9981513000093,-1,exp1.png,2,exp1.png,exp2.png,1,1,non-reversed,correct,0.971213987593279,1,valid_win,455.4229655000381,553.9984373000916,554.6135816001333,41,554.6136112001259,556.4115216000937,,,,,,,,,,,551.5122026000172,551.5127066001296,,,,,,,,sub_778,2024-01-05_12h59.41.022,Reversal,2023.2.1,60.1367750585381,2,2024-01-05 12h59.52.816280 +0200,
11,exp3.png,exp4.png,,,,,,,,,,,,,,,,,,0,0,0,0,0,11,11,11,,,,,,,,,556.5553946001455,,,,,,,,,,,,,,556.414036600152,False,11,72,True,exp4.png,exp3.png,trial_right_image,560.8807898999657,-1,exp3.png,2,exp4.png,exp3.png,1,3,reversed,incorrect,0.013098951080164345,1,invalid_win,462.30570619995706,560.881182400044,561.4956816001795,42,561.4957079000305,563.2936212001368,,,,,,,,,,,556.412866699975,556.4139753000345,,,,,,,,sub_778,2024-01-05_12h59.41.022,Reversal,2023.2.1,60.1367750585381,2,2024-01-05 12h59.52.816280 +0200,
12,exp1.png,exp2.png,,,,,,,,,,,,,,,,,,0,0,0,0,0,12,12,12,,,,,,,,,563.425407800125,,,,,,,,,,,,,,563.2949284000788,False,12,73,False,exp1.png,exp2.png,trial_left_image,567.6129239001311,1,exp1.png,2,exp1.png,exp2.png,1,1,non-reversed,correct,0.5778267903253287,1,valid_win,469.037673200015,567.6131418000441,568.2279123000335,43,568.2279314000625,570.0257090001833,,,,,,,,,,,563.2942331000231,563.2948976999614,,,,,,,,sub_778,2024-01-05_12h59.41.022,Reversal,2023.2.1,60.1367750585381,2,2024-01-05 12h59.52.816280 +0200,
13,exp3.png,exp4.png,,,,,,,,,,,,,,,,,,0,0,0,0,0,13,13,13,,,,,,,,,570.1504077001009,,,,,,,,,,,,,,570.0263273001183,False,13,74,False,exp3.png,exp4.png,trial_left_image,573.1622725999914,1,exp3.png,2,exp4.png,exp3.png,1,3,reversed,incorrect,0.12949925055277267,1,invalid_win,474.58710450003855,573.1625840000343,573.7775777000934,44,573.7775962001178,575.5753013000358,,,,,,,,,,,570.025955799967,570.0263145000208,,,,,,,,sub_778,2024-01-05_12h59.41.022,Reversal,2023.2.1,60.1367750585381,2,2024-01-05 12h59.52.816280 +0200,
14,exp1.png,exp2.png,,,,,,,,,,,,,,,,,,0,0,0,0,0,14,14,14,,,,,,,,,575.7073135001119,,,,,,,,,,,,,,575.5767294999678,False,14,75,False,exp1.png,exp2.png,trial_left_image,577.995750800008,1,exp1.png,2,exp1.png,exp2.png,1,1,non-reversed,correct,0.5970858802302934,1,valid_win,479.4207975999452,577.9962846999988,578.6104000001214,45,578.6104375000577,580.4080648999661,,,,,,,,,,,575.5759570000228,575.5766927001532,,,,,,,,sub_778,2024-01-05_12h59.41.022,Reversal,2023.2.1,60.1367750585381,2,2024-01-05 12h59.52.816280 +0200,
15,exp3.png,exp4.png,,,,,,,,,,,,,,,,,,0,0,0,0,0,15,15,15,,,,,,,,,580.5503806001507,,,,,,,,,,,,,,580.4096506000496,False,15,76,False,exp3.png,exp4.png,trial_left_image,585.3106078000274,1,exp3.png,2,exp4.png,exp3.png,1,3,reversed,incorrect,0.8721556255137833,0,valid_lose,486.73539400007576,585.3108700001612,585.9256214001216,45,585.9256365001202,587.7239155001007,,,,,,,,,,,580.4087259999942,580.4096109999809,,,,,,,,sub_778,2024-01-05_12h59.41.022,Reversal,2023.2.1,60.1367750585381,2,2024-01-05 12h59.52.816280 +0200,
16,exp1.png,exp2.png,,,,,,,,,,,,,,,,,,0,0,0,0,0,16,16,16,,,,,,,,,587.869504700182,,,,,,,,,,,,,,587.7258211001754,False,16,77,False,exp1.png,exp2.png,trial_left_image,591.2267917999998,1,exp1.png,2,exp1.png,exp2.png,1,1,non-reversed,correct,0.8708014713108376,1,valid_win,492.65162119991146,591.2270976,591.8421034000348,46,591.8421323001385,593.6400995999575,,,,,,,,,,,587.7247023000382,587.7257727000397,,,,,,,,sub_778,2024-01-05_12h59.41.022,Reversal,2023.2.1,60.1367750585381,2,2024-01-05 12h59.52.816280 +0200,
17,exp3.png,exp4.png,,,,,,,,,,,,,,,,,,0,0,0,0,0,17,17,17,,,,,,,,,593.7914656000212,,,,,,,,,,,,,,593.6424392000772,False,17,78,False,exp3.png,exp4.png,trial_right_image,596.7760628000833,-1,exp4.png,2,exp4.png,exp3.png,0,4,reversed,correct,0.41307575591791956,1,valid_win,498.20092700002715,596.776401600102,597.3909585000947,47,597.3909873000812,599.188589700032,,,,,,,,,,,593.6410764001776,593.6423763001803,,,,,,,,sub_778,2024-01-05_12h59.41.022,Reversal,2023.2.1,60.1367750585381,2,2024-01-05 12h59.52.816280 +0200,
18,exp1.png,exp2.png,,,,,,,,,,,,,,,,,,0,0,0,0,0,18,18,18,,,,,,,,,599.3155465000309,,,,,,,,,,,,,,599.1893254001625,False,18,79,True,exp2.png,exp1.png,trial_right_image,601.3762713000178,-1,exp1.png,2,exp1.png,exp2.png,1,1,non-reversed,correct,0.46990028001106476,1,valid_win,502.80109909991734,601.3765728001017,601.9901735000312,48,601.9901886000298,603.7878871001303,,,,,,,,,,,599.1889005000703,599.1893086000346,,,,,,,,sub_778,2024-01-05_12h59.41.022,Reversal,2023.2.1,60.1367750585381,2,2024-01-05 12h59.52.816280 +0200,
19,exp3.png,exp4.png,,,,,,,,,,,,,,,,,,0,0,0,0,0,19,19,19,,,,,,,,,603.9130802999716,,,,,,,,,,,,,,603.7886177001055,False,19,80,False,exp3.png,exp4.png,trial_right_image,606.6250728000887,-1,exp4.png,2,exp4.png,exp3.png,0,4,reversed,correct,0.9285801370030958,1,valid_win,508.05001450004056,606.6254946000408,607.2396120000631,49,607.2396280001849,609.0378491999581,,,,,,,,,,,603.788240400143,603.7886022999883,,,,,,,,sub_778,2024-01-05_12h59.41.022,Reversal,2023.2.1,60.1367750585381,2,2024-01-05 12h59.52.816280 +0200,
20,exp1.png,exp2.png,,,,,,,,,,,,,,,,,,0,0,0,0,0,20,20,20,,,,,,,,,609.2311277000699,,,,,,,,,,,,,,609.0391470000613,True,,,,,,,609.1241864999756,,,,,,,,,,,,,,609.1242039001081,609.1365053001791,,609.136566700181,609.1537292001303,,,,,,,,,,,609.0384115001652,609.0391138000414,,,,,,,,sub_778,2024-01-05_12h59.41.022,Reversal,2023.2.1,60.1367750585381,2,2024-01-05 12h59.52.816280 +0200,
,,,exp1.png,,,,,,,,,,,,,,,,,0,0,0,0,,,,,0,0,0,0,0,0,0,0,609.2311277000699,,,,,,,,,,,,,,,,,,,,,,,,,,,,,,,,,,,,,,,,,609.1623267000541,609.2311277000699,612.1920406001154,99.0,99.0,1.8361064998898655,"[(99.0, 1.8361064998898655)]",,,,,,,,,,,,,sub_778,2024-01-05_12h59.41.022,Reversal,2023.2.1,60.1367750585381,2,2024-01-05 12h59.52.816280 +0200,
,,,exp2.png,,,,,,,,,,,,,,,,,0,0,0,0,,,,,0,0,0,0,0,1,1,1,612.2488949000835,,,,,,,,,,,,,,,,,,,,,,,,,,,,,,,,,,,,,,,,,612.1927039001603,612.2488949000835,617.8411065000109,,16.0,3.7241672000382096,"[(16.0, 3.7241672000382096)]",16.0,,,,,,,,,,,,sub_778,2024-01-05_12h59.41.022,Reversal,2023.2.1,60.1367750585381,2,2024-01-05 12h59.52.816280 +0200,
,,,exp3.png,,,,,,,,,,,,,,,,,0,0,0,0,,,,,0,0,0,0,0,2,2,2,617.9011908001266,,,,,,,,,,,,,,,,,,,,,,,,,,,,,,,,,,,,,,,,,617.8416069000959,617.9011908001266,621.3743650000542,,81.0,2.6062827000860125,"[(81.0, 2.6062827000860125)]",,81.0,,,,,,,,,,,sub_778,2024-01-05_12h59.41.022,Reversal,2023.2.1,60.1367750585381,2,2024-01-05 12h59.52.816280 +0200,
,,,exp4.png,,,,,,,,,,,,,,,,,0,0,0,0,,,,,0,0,0,0,0,3,3,3,621.4353486001492,,,,,,,,,,,,,,,,,,,,,,,,,,,,,,,,,,,,,,,,,621.3749169001821,621.4353486001492,628.1738491000142,,39.0,6.370672499993816,"[(39.0, 6.370672499993816)]",,,39.0,,,,,,,,,,sub_778,2024-01-05_12h59.41.022,Reversal,2023.2.1,60.1367750585381,2,2024-01-05 12h59.52.816280 +0200,
0,exp1.png,exp2.png,,,,,,,,,,,,,,,,,,1,0,1,0,0,0,0,0,,,,,,,,,628.2915048999712,,,,,,,,,,,,,,628.181664200034,False,20,81,True,exp2.png,exp1.png,trial_right_image,631.0218948000111,-1,exp1.png,2,exp1.png,exp2.png,1,1,non-reversed,correct,0.8174260339976454,1,valid_win,532.4469310999848,631.0224145001266,631.6365175000392,50,631.6365394000895,633.434302699985,,,,,,,,,,,628.1809068000875,628.1816468001343,,,,,,,,sub_778,2024-01-05_12h59.41.022,Reversal,2023.2.1,60.1367750585381,2,2024-01-05 12h59.52.816280 +0200,
1,exp3.png,exp4.png,,,,,,,,,,,,,,,,,,1,0,1,0,0,1,1,1,,,,,,,,,633.5641304000746,,,,,,,,,,,,,,633.43523250008,False,21,82,False,exp3.png,exp4.png,trial_left_image,638.7215407001786,1,exp3.png,2,exp4.png,exp3.png,1,3,reversed,incorrect,0.8532540006754481,0,valid_lose,540.1464551999234,638.7219331001397,639.3356815001462,50,639.3357808000874,641.1337437001057,,,,,,,,,,,633.4346894000191,633.4352096000221,,,,,,,,sub_778,2024-01-05_12h59.41.022,Reversal,2023.2.1,60.1367750585381,2,2024-01-05 12h59.52.816280 +0200,
2,exp1.png,exp2.png,,,,,,,,,,,,,,,,,,1,0,1,0,0,2,2,2,,,,,,,,,641.2702779001556,,,,,,,,,,,,,,641.135256400099,False,22,83,True,exp2.png,exp1.png,trial_right_image,642.836863100063,-1,exp1.png,2,exp1.png,exp2.png,1,1,non-reversed,correct,0.7633903701839331,1,valid_win,544.2617335000541,642.8372091001365,643.4516589001287,51,643.4516742001288,645.2495593000203,,,,,,,,,,,641.134407900041,641.1352163001429,,,,,,,,sub_778,2024-01-05_12h59.41.022,Reversal,2023.2.1,60.1367750585381,2,2024-01-05 12h59.52.816280 +0200,
3,exp3.png,exp4.png,,,,,,,,,,,,,,,,,,1,0,1,0,0,3,3,3,,,,,,,,,645.3730955000501,,,,,,,,,,,,,,645.2504625001457,False,23,84,True,exp4.png,exp3.png,trial_right_image,646.9863440999761,-1,exp3.png,2,exp4.png,exp3.png,1,3,reversed,incorrect,0.14013670058439498,1,invalid_win,548.4111594001297,646.986631100066,647.6009739001747,52,647.6009886001702,649.3991117000114,,,,,,,,,,,645.2499490000773,645.2504396000877,,,,,,,,sub_778,2024-01-05_12h59.41.022,Reversal,2023.2.1,60.1367750585381,2,2024-01-05 12h59.52.816280 +0200,
4,exp1.png,exp2.png,,,,,,,,,,,,,,,,,,1,0,1,0,0,4,4,4,,,,,,,,,649.5286934999749,,,,,,,,,,,,,,649.4009365001693,False,24,85,False,exp1.png,exp2.png,trial_left_image,654.1020826001186,1,exp1.png,2,exp1.png,exp2.png,1,1,non-reversed,correct,0.7123427194844899,1,valid_win,555.5271683000028,654.1026538000442,654.7169037000276,53,654.7169243001845,656.5149691000115,,,,,,,,,,,649.399944400182,649.4008842001203,,,,,,,,sub_778,2024-01-05_12h59.41.022,Reversal,2023.2.1,60.1367750585381,2,2024-01-05 12h59.52.816280 +0200,
5,exp3.png,exp4.png,,,,,,,,,,,,,,,,,,1,0,1,0,0,5,5,5,,,,,,,,,656.6754167000763,,,,,,,,,,,,,,656.5164711000398,False,25,86,False,exp3.png,exp4.png,trial_right_image,659.7844120000955,-1,exp4.png,2,exp4.png,exp3.png,0,4,reversed,correct,0.006919365741436034,0,invalid_lose,561.2092113001272,659.7846829001792,660.3993655000813,53,660.3993808999658,662.1973077000584,,,,,,,,,,,656.5156444001477,656.5164308000822,,,,,,,,sub_778,2024-01-05_12h59.41.022,Reversal,2023.2.1,60.1367750585381,2,2024-01-05 12h59.52.816280 +0200,
6,exp1.png,exp2.png,,,,,,,,,,,,,,,,,,1,0,1,0,0,6,6,6,,,,,,,,,662.3343850001693,,,,,,,,,,,,,,662.1987497999799,False,26,87,True,exp2.png,exp1.png,trial_right_image,664.950173899997,-1,exp1.png,2,exp1.png,exp2.png,1,1,non-reversed,correct,0.2599148725435507,1,valid_win,566.3749253000133,664.9503981999587,665.5655849000905,54,665.5656094001606,667.3632237000857,,,,,,,,,,,662.1979162001517,662.1987122001592,,,,,,,,sub_778,2024-01-05_12h59.41.022,Reversal,2023.2.1,60.1367750585381,2,2024-01-05 12h59.52.816280 +0200,
7,exp3.png,exp4.png,,,,,,,,,,,,,,,,,,1,0,1,0,0,7,7,7,,,,,,,,,667.4860543000977,,,,,,,,,,,,,,667.3639514001552,False,27,88,True,exp4.png,exp3.png,trial_right_image,670.4497215000447,-1,exp3.png,2,exp4.png,exp3.png,1,3,reversed,incorrect,0.7701284710656048,0,valid_lose,571.8744729999453,670.4499427999835,671.0647859000601,54,671.0648076999933,672.8625797999557,,,,,,,,,,,667.3635786001105,667.3639370000456,,,,,,,,sub_778,2024-01-05_12h59.41.022,Reversal,2023.2.1,60.1367750585381,2,2024-01-05 12h59.52.816280 +0200,
8,exp1.png,exp2.png,,,,,,,,,,,,,,,,,,1,0,1,0,0,8,8,8,,,,,,,,,672.9852887000889,,,,,,,,,,,,,,672.8632348000538,False,28,89,False,exp1.png,exp2.png,trial_left_image,675.3322536000051,1,exp1.png,2,exp1.png,exp2.png,1,1,non-reversed,correct,0.8962988557831539,1,valid_win,576.7570354999043,675.332509299973,675.9482458001003,55,675.9482629999984,677.7455848001409,,,,,,,,,,,672.8628454999998,672.8632200001739,,,,,,,,sub_778,2024-01-05_12h59.41.022,Reversal,2023.2.1,60.1367750585381,2,2024-01-05 12h59.52.816280 +0200,
9,exp3.png,exp4.png,,,,,,,,,,,,,,,,,,1,0,1,0,0,9,9,9,,,,,,,,,677.8877914999612,,,,,,,,,,,,,,677.7471624000464,False,29,90,False,exp3.png,exp4.png,trial_left_image,684.9809618000872,1,exp3.png,2,exp4.png,exp3.png,1,3,reversed,incorrect,0.7733095005976577,0,valid_lose,586.4057114000898,684.9811809000093,685.596314900089,55,685.5963372001424,687.3939366000704,,,,,,,,,,,677.7462508000899,677.7471211999655,,,,,,,,sub_778,2024-01-05_12h59.41.022,Reversal,2023.2.1,60.1367750585381,2,2024-01-05 12h59.52.816280 +0200,
10,exp1.png,exp2.png,,,,,,,,,,,,,,,,,,1,0,1,0,0,10,10,10,,,,,,,,,687.522766500013,,,,,,,,,,,,,,687.3946941001341,False,30,91,False,exp1.png,exp2.png,trial_left_image,692.5802005999722,1,exp1.png,2,exp1.png,exp2.png,1,1,non-reversed,correct,0.639735869845503,1,valid_win,594.0049950999673,692.5804699000437,693.1953766001388,56,693.1954216000158,694.9932905000169,,,,,,,,,,,687.3942480001133,687.3946766001172,,,,,,,,sub_778,2024-01-05_12h59.41.022,Reversal,2023.2.1,60.1367750585381,2,2024-01-05 12h59.52.816280 +0200,
11,exp3.png,exp4.png,,,,,,,,,,,,,,,,,,1,0,1,0,0,11,11,11,,,,,,,,,695.1488136001863,,,,,,,,,,,,,,694.9947313000448,False,31,92,True,exp4.png,exp3.png,trial_right_image,697.0467189999763,-1,exp3.png,2,exp4.png,exp3.png,1,3,reversed,incorrect,0.5316554168836386,0,valid_lose,598.4717161001172,697.0472038001753,697.6613998999819,56,697.6614163001068,699.4596694000065,,,,,,,,,,,694.9939050001558,694.9946944001131,,,,,,,,sub_778,2024-01-05_12h59.41.022,Reversal,2023.2.1,60.1367750585381,2,2024-01-05 12h59.52.816280 +0200,
12,exp1.png,exp2.png,,,,,,,,,,,,,,,,,,1,0,1,0,0,12,12,12,,,,,,,,,699.5940767000429,,,,,,,,,,,,,,699.461795900017,False,32,93,False,exp1.png,exp2.png,trial_left_image,701.5962937001605,1,exp1.png,2,exp1.png,exp2.png,1,1,non-reversed,correct,0.5297169270143709,1,valid_win,603.0213625000324,701.596849600086,702.210758500034,57,702.210781400092,704.0086805000901,,,,,,,,,,,699.4606822000351,699.4617427999619,,,,,,,,sub_778,2024-01-05_12h59.41.022,Reversal,2023.2.1,60.1367750585381,2,2024-01-05 12h59.52.816280 +0200,
13,exp3.png,exp4.png,,,,,,,,,,,,,,,,,,1,0,1,0,0,13,13,13,,,,,,,,,704.1502968000714,,,,,,,,,,,,,,704.0100225000642,False,33,94,True,exp4.png,exp3.png,trial_right_image,706.46155430004,-1,exp3.png,2,exp4.png,exp3.png,1,3,reversed,incorrect,0.9481891628448182,0,valid_lose,607.8863300001249,706.461800500052,707.0768526999746,57,707.0768838999793,708.8744916000869,,,,,,,,,,,704.0092515000142,704.0099857000168,,,,,,,,sub_778,2024-01-05_12h59.41.022,Reversal,2023.2.1,60.1367750585381,2,2024-01-05 12h59.52.816280 +0200,
14,exp1.png,exp2.png,,,,,,,,,,,,,,,,,,1,0,1,0,0,14,14,14,,,,,,,,,708.999901600182,,,,,,,,,,,,,,708.8754950000439,False,34,95,True,exp2.png,exp1.png,trial_right_image,711.8783766999841,-1,exp1.png,2,exp1.png,exp2.png,1,1,non-reversed,correct,0.3961332998219048,1,valid_win,613.3035361999646,711.8790246001445,712.4927896000445,58,712.4928055000491,714.2906796000898,,,,,,,,,,,708.87491530017,708.8754698999692,,,,,,,,sub_778,2024-01-05_12h59.41.022,Reversal,2023.2.1,60.1367750585381,2,2024-01-05 12h59.52.816280 +0200,
15,exp3.png,exp4.png,,,,,,,,,,,,,,,,,,1,0,1,0,0,15,15,15,,,,,,,,,714.4192348001525,,,,,,,,,,,,,,714.2914948000107,False,35,96,False,exp3.png,exp4.png,trial_left_image,717.9935229001567,1,exp3.png,2,exp4.png,exp3.png,1,3,reversed,incorrect,0.5139925429037608,0,valid_lose,619.4182617999613,717.9937299999874,718.6086403999943,58,718.6086574001238,720.4063103001099,,,,,,,,,,,714.2910329001024,714.2914748000912,,,,,,,,sub_778,2024-01-05_12h59.41.022,Reversal,2023.2.1,60.1367750585381,2,2024-01-05 12h59.52.816280 +0200,
16,exp1.png,exp2.png,,,,,,,,,,,,,,,,,,1,0,1,0,0,16,16,16,,,,,,,,,720.5379109999631,,,,,,,,,,,,,,720.4073946001008,False,36,97,False,exp1.png,exp2.png,trial_left_image,722.3934289000463,1,exp1.png,2,exp1.png,exp2.png,1,1,non-reversed,correct,0.09882234587075323,0,invalid_lose,623.8184293000959,722.3939110999927,723.0084818000905,58,723.0085203000344,724.8061673999764,,,,,,,,,,,720.4068196001463,720.4073699000292,,,,,,,,sub_778,2024-01-05_12h59.41.022,Reversal,2023.2.1,60.1367750585381,2,2024-01-05 12h59.52.816280 +0200,
17,exp3.png,exp4.png,,,,,,,,,,,,,,,,,,1,0,1,0,0,17,17,17,,,,,,,,,724.9473095000722,,,,,,,,,,,,,,724.8076655999757,False,37,98,True,exp4.png,exp3.png,trial_right_image,727.3270018000621,-1,exp3.png,2,exp4.png,exp3.png,1,3,reversed,incorrect,0.11465299922212158,1,invalid_win,628.7520350001287,727.3275211001746,727.9407196000684,59,727.9407459001523,729.7388802000787,,,,,,,,,,,724.8068217001855,724.8076248001307,,,,,,,,sub_778,2024-01-05_12h59.41.022,Reversal,2023.2.1,60.1367750585381,2,2024-01-05 12h59.52.816280 +0200,
18,exp1.png,exp2.png,,,,,,,,,,,,,,,,,,1,0,1,0,0,18,18,18,,,,,,,,,729.8786583000328,,,,,,,,,,,,,,729.7405827001203,False,38,99,False,exp1.png,exp2.png,trial_right_image,731.4250976999756,-1,exp2.png,2,exp1.png,exp2.png,0,2,non-reversed,incorrect,0.3824701847579637,0,valid_lose,632.849879699992,731.4253497000318,732.0402542001102,59,732.0402748000342,733.8385870000347,,,,,,,,,,,729.7396346000023,729.7405373000074,,,,,,,,sub_778,2024-01-05_12h59.41.022,Reversal,2023.2.1,60.1367750585381,2,2024-01-05 12h59.52.816280 +0200,
19,exp3.png,exp4.png,,,,,,,,,,,,,,,,,,1,0,1,0,0,19,19,19,,,,,,,,,733.9795962001663,,,,,,,,,,,,,,733.8410575999878,False,39,100,True,exp4.png,exp3.png,trial_right_image,735.8749252001289,-1,exp3.png,2,exp4.png,exp3.png,1,3,reversed,incorrect,0.0778696071918783,1,invalid_win,637.3000058999751,735.8754922000226,736.4894577001687,60,736.4894969000015,738.2876595000271,,,,,,,,,,,733.8397790000308,733.8409943999723,,,,,,,,sub_778,2024-01-05_12h59.41.022,Reversal,2023.2.1,60.1367750585381,2,2024-01-05 12h59.52.816280 +0200,
20,exp1.png,exp2.png,,,,,,,,,,,,,,,,,,1,0,1,0,0,20,20,20,,,,,,,,,738.47857320006,,,,,,,,,,,,,,738.2893769000657,True,,,,,,,738.3737896000966,,,,,,,,,,,,,,738.3738180000801,738.3863020001445,,738.3863185001537,738.4020555000752,,,,,,,,,,,738.2884313999675,738.2893324999604,,,,,,,,sub_778,2024-01-05_12h59.41.022,Reversal,2023.2.1,60.1367750585381,2,2024-01-05 12h59.52.816280 +0200,
,,,exp1.png,,,,,,,,,,,,,,,,,1,0,1,0,,,,,0,0,0,0,0,0,0,0,738.47857320006,,,,,,,,,,,,,,,,,,,,,,,,,,,,,,,,,,,,,,,,,738.4104345999658,738.47857320006,745.0242344001308,50.0,50.0,3.589745400007814,"[(50.0, 3.589745400007814)]",,,,,,,,,,,,,sub_778,2024-01-05_12h59.41.022,Reversal,2023.2.1,60.1367750585381,2,2024-01-05 12h59.52.816280 +0200,
,,,exp2.png,,,,,,,,,,,,,,,,,1,0,1,0,,,,,0,0,0,0,0,1,1,1,745.0845033000223,,,,,,,,,,,,,,,,,,,,,,,,,,,,,,,,,,,,,,,,,745.0247778000776,745.0845033000223,749.0071562000085,,None,None,[],,,,,,,,,,,,,sub_778,2024-01-05_12h59.41.022,Reversal,2023.2.1,60.1367750585381,2,2024-01-05 12h59.52.816280 +0200,
,,,exp3.png,,,,,,,,,,,,,,,,,1,0,1,0,,,,,0,0,0,0,0,2,2,2,749.0673780001234,,,,,,,,,,,,,,,,,,,,,,,,,,,,,,,,,,,,,,,,,749.0076223001815,749.0673780001234,751.4900197000243,,63.0,1.5244442999828607,"[(63.0, 1.5244442999828607)]",,63.0,,,,,,,,,,,sub_778,2024-01-05_12h59.41.022,Reversal,2023.2.1,60.1367750585381,2,2024-01-05 12h59.52.816280 +0200,
,,,exp4.png,,,,,,,,,,,,,,,,,1,0,1,0,,,,,0,0,0,0,0,3,3,3,751.5481261999812,,,,,,,,,,,,,,,,,,,,,,,,,,,,,,,,,,,,,,,,,751.4904486001469,751.5481261999812,756.9738658999559,,66.0,4.691479200031608,"[(66.0, 4.691479200031608)]",,,66.0,,,,,,,,,,sub_778,2024-01-05_12h59.41.022,Reversal,2023.2.1,60.1367750585381,2,2024-01-05 12h59.52.816280 +0200,
0,exp1.png,exp2.png,,,,,,,,,,,,,,,,,,2,0,2,0,0,0,0,0,,,,,,,,,757.0916580001358,,,,,,,,,,,,,,756.9845909001306,False,40,101,True,exp2.png,exp1.png,trial_right_image,761.1049067000858,-1,exp1.png,2,exp1.png,exp2.png,1,1,non-reversed,correct,0.7512436737038878,1,valid_win,662.5298091999721,761.1052867001854,761.7201370000839,61,761.7201563999988,763.5173562001437,,,,,,,,,,,756.983520100126,756.9845673001837,,,,,,,,sub_778,2024-01-05_12h59.41.022,Reversal,2023.2.1,60.1367750585381,2,2024-01-05 12h59.52.816280 +0200,
1,exp3.png,exp4.png,,,,,,,,,,,,,,,,,,2,0,2,0,0,1,1,1,,,,,,,,,763.6448594999965,,,,,,,,,,,,,,763.5180434000213,False,41,102,False,exp3.png,exp4.png,trial_right_image,766.1870426000096,-1,exp4.png,2,exp4.png,exp3.png,0,4,reversed,correct,0.8785109112455252,1,valid_win,667.6118979000021,766.1873716001865,766.8025641001295,62,766.8025955001358,768.6000141999684,,,,,,,,,,,763.5176244999748,763.5180291000288,,,,,,,,sub_778,2024-01-05_12h59.41.022,Reversal,2023.2.1,60.1367750585381,2,2024-01-05 12h59.52.816280 +0200,
2,exp1.png,exp2.png,,,,,,,,,,,,,,,,,,2,0,2,0,0,2,2,2,,,,,,,,,768.7230948000215,,,,,,,,,,,,,,768.6009708000347,False,42,103,True,exp2.png,exp1.png,trial_right_image,770.7206510000397,-1,exp1.png,2,exp1.png,exp2.png,1,1,non-reversed,correct,0.45632081792046686,1,valid_win,672.1455558999442,770.7210337000433,771.3354343001265,63,771.3354649001267,773.1332717000041,,,,,,,,,,,768.6004187001381,768.6009460000787,,,,,,,,sub_778,2024-01-05_12h59.41.022,Reversal,2023.2.1,60.1367750585381,2,2024-01-05 12h59.52.816280 +0200,
3,exp3.png,exp4.png,,,,,,,,,,,,,,,,,,2,0,2,0,0,3,3,3,,,,,,,,,773.2755148999859,,,,,,,,,,,,,,773.1347014000639,False,43,104,False,exp3.png,exp4.png,trial_right_image,778.4043265001383,-1,exp4.png,2,exp4.png,exp3.png,0,4,reversed,correct,0.738868037867288,1,valid_win,679.8300010999665,778.4055086001754,779.0172969000414,64,779.017315500183,780.8155272000004,,,,,,,,,,,773.133941099979,773.1346638000105,,,,,,,,sub_778,2024-01-05_12h59.41.022,Reversal,2023.2.1,60.1367750585381,2,2024-01-05 12h59.52.816280 +0200,
4,exp1.png,exp2.png,,,,,,,,,,,,,,,,,,2,0,2,0,0,4,4,4,,,,,,,,,780.9462439999916,,,,,,,,,,,,,,780.8166929001454,False,44,105,True,exp2.png,exp1.png,trial_right_image,783.0516954001505,-1,exp1.png,2,exp1.png,exp2.png,1,1,non-reversed,correct,0.3101485541321085,1,valid_win,684.4764648999553,783.0519390001427,783.6672726999968,65,783.6672859000973,785.4648021000903,,,,,,,,,,,780.8160491001327,780.8166630000342,,,,,,,,sub_778,2024-01-05_12h59.41.022,Reversal,2023.2.1,60.1367750585381,2,2024-01-05 12h59.52.816280 +0200,
5,exp3.png,exp4.png,,,,,,,,,,,,,,,,,,2,0,2,0,0,5,5,5,,,,,,,,,785.6033914000727,,,,,,,,,,,,,,785.4660961001646,False,45,106,True,exp4.png,exp3.png,trial_right_image,788.0178994999733,-1,exp3.png,2,exp4.png,exp3.png,1,3,reversed,incorrect,0.31217748018403946,0,valid_lose,689.4427503000479,788.0182263001334,788.6326307000127,65,788.6326664001681,790.4308578001801,,,,,,,,,,,785.46539700008,785.4660579001065,,,,,,,,sub_778,2024-01-05_12h59.41.022,Reversal,2023.2.1,60.1367750585381,2,2024-01-05 12h59.52.816280 +0200,
6,exp1.png,exp2.png,,,,,,,,,,,,,,,,,,2,0,2,0,0,6,6,6,,,,,,,,,790.5676537000109,,,,,,,,,,,,,,790.4321381000336,False,46,107,True,exp2.png,exp1.png,trial_right_image,792.8335135001689,-1,exp1.png,2,exp1.png,exp2.png,1,1,non-reversed,correct,0.7456852940119673,1,valid_win,694.2582654999569,792.8337352001108,793.4490348000545,66,793.4490845000837,795.2470245000441,,,,,,,,,,,790.4314231001772,790.4321038001217,,,,,,,,sub_778,2024-01-05_12h59.41.022,Reversal,2023.2.1,60.1367750585381,2,2024-01-05 12h59.52.816280 +0200,
7,exp3.png,exp4.png,,,,,,,,,,,,,,,,,,2,0,2,0,0,7,7,7,,,,,,,,,795.3876916000154,,,,,,,,,,,,,,795.248353900155,False,47,108,False,exp3.png,exp4.png,trial_left_image,799.5662804001477,1,exp3.png,2,exp4.png,exp3.png,1,3,reversed,incorrect,0.45976463788269584,0,valid_lose,700.9910279999021,799.5664964001626,800.182287100004,66,800.1823558001779,801.9795287000015,,,,,,,,,,,795.2476210000459,795.2483204000164,,,,,,,,sub_778,2024-01-05_12h59.41.022,Reversal,2023.2.1,60.1367750585381,2,2024-01-05 12h59.52.816280 +0200,
8,exp1.png,exp2.png,,,,,,,,,,,,,,,,,,2,0,2,0,0,8,8,8,,,,,,,,,802.119545500027,,,,,,,,,,,,,,801.9815026000142,False,48,109,False,exp1.png,exp2.png,trial_left_image,804.3823312001768,1,exp1.png,2,exp1.png,exp2.png,1,1,non-reversed,correct,0.5929908561604786,1,valid_win,705.8071673000231,804.382643399993,804.9974233000539,67,804.9974410999566,806.795351000037,,,,,,,,,,,801.9804349001497,801.9814488999546,,,,,,,,sub_778,2024-01-05_12h59.41.022,Reversal,2023.2.1,60.1367750585381,2,2024-01-05 12h59.52.816280 +0200,
9,exp3.png,exp4.png,,,,,,,,,,,,,,,,,,2,0,2,0,0,9,9,9,,,,,,,,,806.9333784000482,,,,,,,,,,,,,,806.7967185000889,False,49,110,True,exp4.png,exp3.png,trial_right_image,808.94854150014,-1,exp3.png,2,exp4.png,exp3.png,1,3,reversed,incorrect,0.11185381344357859,1,invalid_win,710.3734007000457,808.9488756000064,809.5635218000971,68,809.5635573000181,811.3612154000439,,,,,,,,,,,806.7959612000268,806.7966820001602,,,,,,,,sub_778,2024-01-05_12h59.41.022,Reversal,2023.2.1,60.1367750585381,2,2024-01-05 12h59.52.816280 +0200,
10,exp1.png,exp2.png,,,,,,,,,,,,,,,,,,2,0,2,0,0,10,10,10,,,,,,,,,811.4835783999879,,,,,,,,,,,,,,811.3619297000114,False,50,111,True,exp2.png,exp1.png,trial_right_image,813.698017799994,-1,exp1.png,2,exp1.png,exp2.png,1,1,non-reversed,correct,0.8916132144743999,1,valid_win,715.1228418000974,813.698315200163,814.3131488000508,69,814.3131709001027,816.1107709000353,,,,,,,,,,,811.3615354001522,811.361915100133,,,,,,,,sub_778,2024-01-05_12h59.41.022,Reversal,2023.2.1,60.1367750585381,2,2024-01-05 12h59.52.816280 +0200,
11,exp3.png,exp4.png,,,,,,,,,,,,,,,,,,2,0,2,0,0,11,11,11,,,,,,,,,816.2410415001214,,,,,,,,,,,,,,816.1115234000608,False,51,112,True,exp4.png,exp3.png,trial_right_image,819.9475257999729,-1,exp3.png,2,exp4.png,exp3.png,1,3,reversed,incorrect,0.8180722619664857,0,valid_lose,721.3725044999737,819.947987700114,820.5623143999837,69,820.5623509001452,822.3601508000866,,,,,,,,,,,816.1110940000508,816.1115065000486,,,,,,,,sub_778,2024-01-05_12h59.41.022,Reversal,2023.2.1,60.1367750585381,2,2024-01-05 12h59.52.816280 +0200,
12,exp1.png,exp2.png,,,,,,,,,,,,,,,,,,2,0,2,0,0,12,12,12,,,,,,,,,822.4891694001853,,,,,,,,,,,,,,822.3611439999659,False,52,113,True,exp2.png,exp1.png,trial_right_image,824.613956599962,-1,exp1.png,2,exp1.png,exp2.png,1,1,non-reversed,correct,0.4945287605183114,1,valid_win,726.0389656000771,824.6144497999921,825.228171300143,70,825.2281923000701,827.026143199997,,,,,,,,,,,822.360580699984,822.3611211001407,,,,,,,,sub_778,2024-01-05_12h59.41.022,Reversal,2023.2.1,60.1367750585381,2,2024-01-05 12h59.52.816280 +0200,
13,exp3.png,exp4.png,,,,,,,,,,,,,,,,,,2,0,2,0,0,13,13,13,,,,,,,,,827.1751606999896,,,,,,,,,,,,,,827.0278247001115,False,53,114,False,exp3.png,exp4.png,trial_left_image,837.1451809001155,1,exp3.png,2,exp4.png,exp3.png,1,3,reversed,incorrect,0.8302911331410782,0,valid_lose,738.5701546999626,837.1456337000709,837.7599080000073,70,837.7599301000591,839.5576895000413,,,,,,,,,,,827.0269033999648,827.0277807000093,,,,,,,,sub_778,2024-01-05_12h59.41.022,Reversal,2023.2.1,60.1367750585381,2,2024-01-05 12h59.52.816280 +0200,
14,exp1.png,exp2.png,,,,,,,,,,,,,,,,,,2,0,2,0,0,14,14,14,,,,,,,,,839.7086824001744,,,,,,,,,,,,,,839.5592792001553,False,54,115,True,exp2.png,exp1.png,trial_right_image,841.4274156000465,-1,exp1.png,2,exp1.png,exp2.png,1,1,non-reversed,correct,0.6520676142665505,1,valid_win,742.8521660999395,841.4276356000919,842.042588399956,71,842.0426088999957,843.8404399000574,,,,,,,,,,,839.5584358000197,839.5592396999709,,,,,,,,sub_778,2024-01-05_12h59.41.022,Reversal,2023.2.1,60.1367750585381,2,2024-01-05 12h59.52.816280 +0200,
15,exp3.png,exp4.png,,,,,,,,,,,,,,,,,,2,0,2,0,0,15,15,15,,,,,,,,,843.9669011000078,,,,,,,,,,,,,,843.8411585001741,False,55,116,False,exp3.png,exp4.png,trial_left_image,848.4935403000563,1,exp3.png,2,exp4.png,exp3.png,1,3,reversed,incorrect,0.629367806578299,0,valid_lose,749.9185122000054,848.4939962001517,849.1084489000496,71,849.1084661001805,850.9064388000406,,,,,,,,,,,843.8407380001154,843.8411416001618,,,,,,,,sub_778,2024-01-05_12h59.41.022,Reversal,2023.2.1,60.1367750585381,2,2024-01-05 12h59.52.816280 +0200,
16,exp1.png,exp2.png,,,,,,,,,,,,,,,,,,2,0,2,0,0,16,16,16,,,,,,,,,851.0393235001247,,,,,,,,,,,,,,850.9079774001148,False,56,117,False,exp1.png,exp2.png,trial_left_image,853.9426162000746,1,exp1.png,2,exp1.png,exp2.png,1,1,non-reversed,correct,0.17712599999335576,0,invalid_lose,755.3674985999241,853.9429737001192,854.5575769999996,71,854.5576003000606,856.355668600183,,,,,,,,,,,850.9071608001832,850.9079357001465,,,,,,,,sub_778,2024-01-05_12h59.41.022,Reversal,2023.2.1,60.1367750585381,2,2024-01-05 12h59.52.816280 +0200,
17,exp3.png,exp4.png,,,,,,,,,,,,,,,,,,2,0,2,0,0,17,17,17,,,,,,,,,856.5100487000309,,,,,,,,,,,,,,856.3573992999736,False,57,118,False,exp3.png,exp4.png,trial_right_image,858.0924220001325,-1,exp4.png,2,exp4.png,exp3.png,0,4,reversed,correct,0.42108552243989594,1,valid_win,759.5173506999854,858.0928311001044,858.7072738001589,72,858.7073232000694,860.5049839999992,,,,,,,,,,,856.3564586001448,856.3573508001864,,,,,,,,sub_778,2024-01-05_12h59.41.022,Reversal,2023.2.1,60.1367750585381,2,2024-01-05 12h59.52.816280 +0200,
18,exp1.png,exp2.png,,,,,,,,,,,,,,,,,,2,0,2,0,0,18,18,18,,,,,,,,,860.6334885000251,,,,,,,,,,,,,,860.5061266000848,False,58,119,False,exp1.png,exp2.png,trial_right_image,862.125402700156,-1,exp2.png,2,exp1.png,exp2.png,0,2,non-reversed,incorrect,0.32595054596681994,0,valid_lose,763.5504523999989,862.1259395000525,862.7403222001158,72,862.740353200119,864.5375473999884,,,,,,,,,,,860.5055226001423,860.5060944000725,,,,,,,,sub_778,2024-01-05_12h59.41.022,Reversal,2023.2.1,60.1367750585381,2,2024-01-05 12h59.52.816280 +0200,
19,exp3.png,exp4.png,,,,,,,,,,,,,,,,,,2,0,2,0,0,19,19,19,,,,,,,,,864.6794261999894,,,,,,,,,,,,,,864.5383085000794,False,59,120,False,exp3.png,exp4.png,trial_left_image,866.9914903000463,1,exp3.png,2,exp4.png,exp3.png,1,3,reversed,incorrect,0.5378021801936259,0,valid_lose,768.4164638000075,866.9919465000276,867.6060425001197,72,867.6060776000377,869.4041485001799,,,,,,,,,,,864.5378674999811,864.5382922000717,,,,,,,,sub_778,2024-01-05_12h59.41.022,Reversal,2023.2.1,60.1367750585381,2,2024-01-05 12h59.52.816280 +0200,
20,exp1.png,exp2.png,,,,,,,,,,,,,,,,,,2,0,2,0,0,20,20,20,,,,,,,,,869.5859505999833,,,,,,,,,,,,,,869.4055610999931,True,,,,,,,869.4834213000722,,,,,,,,,,,,,,869.4834368999582,869.4963235000614,,869.4963402999565,869.5128180000465,,,,,,,,,,,869.404745799955,869.40552450018,,,,,,,,sub_778,2024-01-05_12h59.41.022,Reversal,2023.2.1,60.1367750585381,2,2024-01-05 12h59.52.816280 +0200,
,,,exp1.png,,,,,,,,,,,,,,,,,2,0,2,0,,,,,0,0,0,0,0,0,0,0,869.5859505999833,,,,,,,,,,,,,,,,,,,,,,,,,,,,,,,,,,,,,,,,,869.5209167001303,869.5859505999833,873.2088430000003,71.0,71.0,2.7962855999358,"[(71.0, 2.7962855999358)]",,,,,,,,,,,,,sub_778,2024-01-05_12h59.41.022,Reversal,2023.2.1,60.1367750585381,2,2024-01-05 12h59.52.816280 +0200,
,,,exp2.png,,,,,,,,,,,,,,,,,2,0,2,0,,,,,0,0,0,0,0,1,1,1,873.2687715000939,,,,,,,,,,,,,,,,,,,,,,,,,,,,,,,,,,,,,,,,,873.2095765999984,873.2687715000939,875.5239446000196,,93.0,1.1389152999036014,"[(93.0, 1.1389152999036014)]",93.0,,,,,,,,,,,,sub_778,2024-01-05_12h59.41.022,Reversal,2023.2.1,60.1367750585381,2,2024-01-05 12h59.52.816280 +0200,
,,,exp3.png,,,,,,,,,,,,,,,,,2,0,2,0,,,,,0,0,0,0,0,2,2,2,875.5812890001107,,,,,,,,,,,,,,,,,,,,,,,,,,,,,,,,,,,,,,,,,875.5244335001335,875.5812890001107,877.6085885001812,,35.0,1.2420971000101417,"[(35.0, 1.2420971000101417)]",,35.0,,,,,,,,,,,sub_778,2024-01-05_12h59.41.022,Reversal,2023.2.1,60.1367750585381,2,2024-01-05 12h59.52.816280 +0200,
,,,exp4.png,,,,,,,,,,,,,,,,,2,0,2,0,,,,,0,0,0,0,0,3,3,3,877.6695062001236,,,,,,,,,,,,,,,,,,,,,,,,,,,,,,,,,,,,,,,,,877.6092851001304,877.6695062001236,879.890485299984,,71.0,1.404441400198266,"[(71.0, 1.404441400198266)]",,,71.0,,,,,,,,,,sub_778,2024-01-05_12h59.41.022,Reversal,2023.2.1,60.1367750585381,2,2024-01-05 12h59.52.816280 +0200,
,,,,,,,,,,,,,,,,,,,,,,,,,,,,,,,,,,,,,,,,,,,,,,,,,,,,,,,,,,,,,,,,,,,,,,,,,,72,,,,,,,,,,,,,,,,879.8908573000226,75,41,34,378.90195710002445,0,,,,,,,,
