trial_index,trial_image1_file,trial_image2_file,image_file,learning_outer_loop.thisRepN,learning_outer_loop.thisTrialN,learning_outer_loop.thisN,learning_outer_loop.thisIndex,learning_inner_loop.thisRepN,learning_inner_loop.thisTrialN,learning_inner_loop.thisN,learning_inner_loop.thisIndex,learning_estimation_outer_loop.thisRepN,learning_estimation_outer_loop.thisTrialN,learning_estimation_outer_loop.thisN,learning_estimation_outer_loop.thisIndex,learning_estimation_inner_loop.thisRepN,learning_estimation_inner_loop.thisTrialN,learning_estimation_inner_loop.thisN,learning_estimation_inner_loop.thisIndex,reversal_outer_loop.thisRepN,reversal_outer_loop.thisTrialN,reversal_outer_loop.thisN,reversal_outer_loop.thisIndex,reversal_inner_loop.thisRepN,reversal_inner_loop.thisTrialN,reversal_inner_loop.thisN,reversal_inner_loop.thisIndex,reversal_estimation_outer_loop.thisRepN,reversal_estimation_outer_loop.thisTrialN,reversal_estimation_outer_loop.thisN,reversal_estimation_outer_loop.thisIndex,reversal_estimation_inner_loop.thisRepN,reversal_estimation_inner_loop.thisTrialN,reversal_estimation_inner_loop.thisN,reversal_estimation_inner_loop.thisIndex,skipped,total_trial_counter,trial_num,left_right_flip,left_image_file,right_image_file,clicked_stimulus_side,side,clicked_stimulus,version,high_prob_image_file,low_prob_image_file,choice_a,choice_b,pair_type,correct,trial_feedback_random,reward,trial_type,overall_time_after_trial,score,estimation_exp1.png,estimation_rating.response,estimation_rating.rt,estimation_rating.history,estimation_rating.started,estimation_rating.stopped,estimation_exp2.png,estimation_exp3.png,estimation_exp4.png,total_learning_time,total_correct,learning_correct,reversal_correct,total_reversal_time,extra_block,participant,date,expName,psychopyVersion,frameRate,ver,
0,exp1.png,exp2.png,,0,0,0,0,0,0,0,0,,,,,,,,,,,,,,,,,,,,,,,,,False,0,1,False,exp1.png,exp2.png,trial_right_image,-1,exp2.png,1,exp1.png,exp2.png,0,4,reversed,incorrect,0.30406649467633473,0,valid_lose,2.317149200476706,0,,,,,,,,,,,,,,,,sub_777,2024-04-18_10h03.54.690,Reversal,2022.1.2,60.04841088017598,1,
1,exp3.png,exp4.png,,0,0,0,0,0,1,1,1,,,,,,,,,,,,,,,,,,,,,,,,,False,1,2,False,exp3.png,exp4.png,trial_left_image,1,exp3.png,1,exp3.png,exp4.png,1,1,non-reversed,correct,0.17662604814081972,0,invalid_lose,15.266656000167131,0,,,,,,,,,,,,,,,,sub_777,2024-04-18_10h03.54.690,Reversal,2022.1.2,60.04841088017598,1,
2,exp1.png,exp2.png,,0,0,0,0,0,2,2,2,,,,,,,,,,,,,,,,,,,,,,,,,False,2,3,False,exp1.png,exp2.png,trial_right_image,-1,exp2.png,1,exp1.png,exp2.png,0,4,reversed,incorrect,0.4780549289846585,0,valid_lose,23.88372590020299,0,,,,,,,,,,,,,,,,sub_777,2024-04-18_10h03.54.690,Reversal,2022.1.2,60.04841088017598,1,
3,exp3.png,exp4.png,,0,0,0,0,0,3,3,3,,,,,,,,,,,,,,,,,,,,,,,,,False,3,4,True,exp4.png,exp3.png,trial_right_image,-1,exp3.png,1,exp3.png,exp4.png,1,1,non-reversed,correct,0.21904928845528193,0,invalid_lose,29.299852999858558,0,,,,,,,,,,,,,,,,sub_777,2024-04-18_10h03.54.690,Reversal,2022.1.2,60.04841088017598,1,
4,exp1.png,exp2.png,,0,0,0,0,0,4,4,4,,,,,,,,,,,,,,,,,,,,,,,,,False,4,5,False,exp1.png,exp2.png,trial_right_image,-1,exp2.png,1,exp1.png,exp2.png,0,4,reversed,incorrect,0.3508434981919083,0,valid_lose,40.249692500568926,0,,,,,,,,,,,,,,,,sub_777,2024-04-18_10h03.54.690,Reversal,2022.1.2,60.04841088017598,1,
5,exp3.png,exp4.png,,0,0,0,0,0,5,5,5,,,,,,,,,,,,,,,,,,,,,,,,,False,5,6,True,exp4.png,exp3.png,trial_right_image,-1,exp3.png,1,exp3.png,exp4.png,1,1,non-reversed,correct,0.47538024372618426,1,valid_win,51.86642310023308,1,,,,,,,,,,,,,,,,sub_777,2024-04-18_10h03.54.690,Reversal,2022.1.2,60.04841088017598,1,
6,exp1.png,exp2.png,,0,0,0,0,0,6,6,6,,,,,,,,,,,,,,,,,,,,,,,,,False,6,7,False,exp1.png,exp2.png,trial_right_image,-1,exp2.png,1,exp1.png,exp2.png,0,4,reversed,incorrect,0.2335010958152408,1,invalid_win,64.04878230020404,2,,,,,,,,,,,,,,,,sub_777,2024-04-18_10h03.54.690,Reversal,2022.1.2,60.04841088017598,1,
7,exp3.png,exp4.png,,0,0,0,0,0,7,7,7,,,,,,,,,,,,,,,,,,,,,,,,,False,7,8,True,exp4.png,exp3.png,trial_right_image,-1,exp3.png,1,exp3.png,exp4.png,1,1,non-reversed,correct,0.7159212740134924,1,valid_win,70.38246120046824,3,,,,,,,,,,,,,,,,sub_777,2024-04-18_10h03.54.690,Reversal,2022.1.2,60.04841088017598,1,
8,exp1.png,exp2.png,,0,0,0,0,0,8,8,8,,,,,,,,,,,,,,,,,,,,,,,,,False,8,9,True,exp2.png,exp1.png,trial_right_image,-1,exp1.png,1,exp1.png,exp2.png,1,3,reversed,correct,0.43090157856466615,1,valid_win,78.41557260043919,4,,,,,,,,,,,,,,,,sub_777,2024-04-18_10h03.54.690,Reversal,2022.1.2,60.04841088017598,1,
9,exp3.png,exp4.png,,0,0,0,0,0,9,9,9,,,,,,,,,,,,,,,,,,,,,,,,,False,9,10,False,exp3.png,exp4.png,trial_right_image,-1,exp4.png,1,exp3.png,exp4.png,0,2,non-reversed,incorrect,0.3846026245942882,0,valid_lose,86.94930080045015,4,,,,,,,,,,,,,,,,sub_777,2024-04-18_10h03.54.690,Reversal,2022.1.2,60.04841088017598,1,
10,exp1.png,exp2.png,,0,0,0,0,0,10,10,10,,,,,,,,,,,,,,,,,,,,,,,,,False,10,11,True,exp2.png,exp1.png,trial_left_image,1,exp2.png,1,exp1.png,exp2.png,0,4,reversed,incorrect,0.16052691865412239,1,invalid_win,91.71532250009477,5,,,,,,,,,,,,,,,,sub_777,2024-04-18_10h03.54.690,Reversal,2022.1.2,60.04841088017598,1,
11,exp3.png,exp4.png,,0,0,0,0,0,11,11,11,,,,,,,,,,,,,,,,,,,,,,,,,False,11,12,False,exp3.png,exp4.png,trial_left_image,1,exp3.png,1,exp3.png,exp4.png,1,1,non-reversed,correct,0.4463693073993247,1,valid_win,97.0821528006345,6,,,,,,,,,,,,,,,,sub_777,2024-04-18_10h03.54.690,Reversal,2022.1.2,60.04841088017598,1,
12,exp1.png,exp2.png,,0,0,0,0,0,12,12,12,,,,,,,,,,,,,,,,,,,,,,,,,False,12,13,False,exp1.png,exp2.png,trial_left_image,1,exp1.png,1,exp1.png,exp2.png,1,3,reversed,correct,0.5377911972225159,1,valid_win,103.78198220022023,7,,,,,,,,,,,,,,,,sub_777,2024-04-18_10h03.54.690,Reversal,2022.1.2,60.04841088017598,1,
13,exp3.png,exp4.png,,0,0,0,0,0,13,13,13,,,,,,,,,,,,,,,,,,,,,,,,,False,13,14,True,exp4.png,exp3.png,trial_right_image,-1,exp3.png,1,exp3.png,exp4.png,1,1,non-reversed,correct,0.7411250445990221,1,valid_win,110.14860360044986,8,,,,,,,,,,,,,,,,sub_777,2024-04-18_10h03.54.690,Reversal,2022.1.2,60.04841088017598,1,
14,exp1.png,exp2.png,,0,0,0,0,0,14,14,14,,,,,,,,,,,,,,,,,,,,,,,,,False,14,15,True,exp2.png,exp1.png,trial_left_image,1,exp2.png,1,exp1.png,exp2.png,0,4,reversed,incorrect,0.1715057459931736,1,invalid_win,115.7488492000848,9,,,,,,,,,,,,,,,,sub_777,2024-04-18_10h03.54.690,Reversal,2022.1.2,60.04841088017598,1,
15,exp3.png,exp4.png,,0,0,0,0,0,15,15,15,,,,,,,,,,,,,,,,,,,,,,,,,False,15,16,True,exp4.png,exp3.png,trial_left_image,1,exp4.png,1,exp3.png,exp4.png,0,2,non-reversed,incorrect,0.7349913911752188,0,valid_lose,121.21482650004327,9,,,,,,,,,,,,,,,,sub_777,2024-04-18_10h03.54.690,Reversal,2022.1.2,60.04841088017598,1,
16,exp1.png,exp2.png,,0,0,0,0,0,16,16,16,,,,,,,,,,,,,,,,,,,,,,,,,False,16,17,True,exp2.png,exp1.png,trial_left_image,1,exp2.png,1,exp1.png,exp2.png,0,4,reversed,incorrect,0.946442282754865,0,valid_lose,126.58146080002189,9,,,,,,,,,,,,,,,,sub_777,2024-04-18_10h03.54.690,Reversal,2022.1.2,60.04841088017598,1,
17,exp3.png,exp4.png,,0,0,0,0,0,17,17,17,,,,,,,,,,,,,,,,,,,,,,,,,False,17,18,False,exp3.png,exp4.png,trial_right_image,-1,exp4.png,1,exp3.png,exp4.png,0,2,non-reversed,incorrect,0.09697241074268004,1,invalid_win,131.51461860071868,10,,,,,,,,,,,,,,,,sub_777,2024-04-18_10h03.54.690,Reversal,2022.1.2,60.04841088017598,1,
18,exp1.png,exp2.png,,0,0,0,0,0,18,18,18,,,,,,,,,,,,,,,,,,,,,,,,,False,18,19,True,exp2.png,exp1.png,trial_left_image,1,exp2.png,1,exp1.png,exp2.png,0,4,reversed,incorrect,0.45667519017953284,0,valid_lose,136.84822109993547,10,,,,,,,,,,,,,,,,sub_777,2024-04-18_10h03.54.690,Reversal,2022.1.2,60.04841088017598,1,
19,exp3.png,exp4.png,,0,0,0,0,0,19,19,19,,,,,,,,,,,,,,,,,,,,,,,,,False,19,20,False,exp3.png,exp4.png,trial_right_image,-1,exp4.png,1,exp3.png,exp4.png,0,2,non-reversed,incorrect,0.672359482130323,0,valid_lose,142.76454909984022,10,,,,,,,,,,,,,,,,sub_777,2024-04-18_10h03.54.690,Reversal,2022.1.2,60.04841088017598,1,
20,exp1.png,exp2.png,,0,0,0,0,0,20,20,20,,,,,,,,,,,,,,,,,,,,,,,,,True,,,,,,,,,,,,,,,,,,,,,,,,,,,,,,,,,,,,sub_777,2024-04-18_10h03.54.690,Reversal,2022.1.2,60.04841088017598,1,
,,,exp1.png,0,0,0,0,,,,,0,0,0,0,0,0,0,0,,,,,,,,,,,,,,,,,,,,,,,,,,,,,,,,,,,,,,85.0,85.0,27.16749079991132,"[(75.0, 10.384568000212312), (83.0, 11.551676699891686), (81.0, 22.11853799968958), (85.0, 26.26925169955939), (85.0, 27.16749079991132)]",261.78104459960014,None,,,,,,,,,,sub_777,2024-04-18_10h03.54.690,Reversal,2022.1.2,60.04841088017598,1,
,,,exp2.png,0,0,0,0,,,,,0,0,0,0,0,1,1,1,,,,,,,,,,,,,,,,,,,,,,,,,,,,,,,,,,,,,,,27.0,5.134466500021517,"[(27.0, 5.134466500021517)]",290.44234459940344,None,27.0,,,,,,,,,sub_777,2024-04-18_10h03.54.690,Reversal,2022.1.2,60.04841088017598,1,
,,,exp3.png,0,0,0,0,,,,,0,0,0,0,0,2,2,2,,,,,,,,,,,,,,,,,,,,,,,,,,,,,,,,,,,,,,,78.0,5.384204000234604,"[(78.0, 5.384204000234604)]",296.8724822001532,None,,78.0,,,,,,,,sub_777,2024-04-18_10h03.54.690,Reversal,2022.1.2,60.04841088017598,1,
,,,exp4.png,0,0,0,0,,,,,0,0,0,0,0,3,3,3,,,,,,,,,,,,,,,,,,,,,,,,,,,,,,,,,,,,,,,5.0,3.0180537002161145,"[(5.0, 3.0180537002161145)]",303.8218829995021,None,,,5.0,,,,,,,sub_777,2024-04-18_10h03.54.690,Reversal,2022.1.2,60.04841088017598,1,
0,exp1.png,exp2.png,,1,0,1,0,0,0,0,0,,,,,,,,,,,,,,,,,,,,,,,,,False,20,21,True,exp2.png,exp1.png,trial_left_image,1,exp2.png,1,exp1.png,exp2.png,0,4,reversed,incorrect,0.7171145921687967,0,valid_lose,196.397390300408,10,,,,,,,,,,,,,,,,sub_777,2024-04-18_10h03.54.690,Reversal,2022.1.2,60.04841088017598,1,
1,exp3.png,exp4.png,,1,0,1,0,0,1,1,1,,,,,,,,,,,,,,,,,,,,,,,,,False,21,22,True,exp4.png,exp3.png,trial_right_image,-1,exp3.png,1,exp3.png,exp4.png,1,1,non-reversed,correct,0.7372430750691884,1,valid_win,202.21309520024806,11,,,,,,,,,,,,,,,,sub_777,2024-04-18_10h03.54.690,Reversal,2022.1.2,60.04841088017598,1,
2,exp1.png,exp2.png,,1,0,1,0,0,2,2,2,,,,,,,,,,,,,,,,,,,,,,,,,False,22,23,True,exp2.png,exp1.png,trial_left_image,1,exp2.png,1,exp1.png,exp2.png,0,4,reversed,incorrect,0.19984151596268152,1,invalid_win,208.6300770007074,12,,,,,,,,,,,,,,,,sub_777,2024-04-18_10h03.54.690,Reversal,2022.1.2,60.04841088017598,1,
3,exp3.png,exp4.png,,1,0,1,0,0,3,3,3,,,,,,,,,,,,,,,,,,,,,,,,,False,23,24,False,exp3.png,exp4.png,trial_right_image,-1,exp4.png,1,exp3.png,exp4.png,0,2,non-reversed,incorrect,0.17290923131644254,1,invalid_win,216.36322590056807,13,,,,,,,,,,,,,,,,sub_777,2024-04-18_10h03.54.690,Reversal,2022.1.2,60.04841088017598,1,
4,exp1.png,exp2.png,,1,0,1,0,0,4,4,4,,,,,,,,,,,,,,,,,,,,,,,,,False,24,25,False,exp1.png,exp2.png,trial_right_image,-1,exp2.png,1,exp1.png,exp2.png,0,4,reversed,incorrect,0.10548551166198095,1,invalid_win,221.09644050057977,14,,,,,,,,,,,,,,,,sub_777,2024-04-18_10h03.54.690,Reversal,2022.1.2,60.04841088017598,1,
5,exp3.png,exp4.png,,1,0,1,0,0,5,5,5,,,,,,,,,,,,,,,,,,,,,,,,,False,25,26,False,exp3.png,exp4.png,trial_right_image,-1,exp4.png,1,exp3.png,exp4.png,0,2,non-reversed,incorrect,0.20637594171397267,1,invalid_win,225.66265540011227,15,,,,,,,,,,,,,,,,sub_777,2024-04-18_10h03.54.690,Reversal,2022.1.2,60.04841088017598,1,
6,exp1.png,exp2.png,,1,0,1,0,0,6,6,6,,,,,,,,,,,,,,,,,,,,,,,,,False,26,27,True,exp2.png,exp1.png,trial_left_image,1,exp2.png,1,exp1.png,exp2.png,0,4,reversed,incorrect,0.9478905573396911,0,valid_lose,232.02985950000584,15,,,,,,,,,,,,,,,,sub_777,2024-04-18_10h03.54.690,Reversal,2022.1.2,60.04841088017598,1,
7,exp3.png,exp4.png,,1,0,1,0,0,7,7,7,,,,,,,,,,,,,,,,,,,,,,,,,False,27,28,False,exp3.png,exp4.png,trial_right_image,-1,exp4.png,1,exp3.png,exp4.png,0,2,non-reversed,incorrect,0.7010161008711217,0,valid_lose,236.57951620034873,15,,,,,,,,,,,,,,,,sub_777,2024-04-18_10h03.54.690,Reversal,2022.1.2,60.04841088017598,1,
8,exp1.png,exp2.png,,1,0,1,0,0,8,8,8,,,,,,,,,,,,,,,,,,,,,,,,,False,28,29,True,exp2.png,exp1.png,trial_left_image,1,exp2.png,1,exp1.png,exp2.png,0,4,reversed,incorrect,0.4930098024698223,0,valid_lose,241.49575170036405,15,,,,,,,,,,,,,,,,sub_777,2024-04-18_10h03.54.690,Reversal,2022.1.2,60.04841088017598,1,
9,exp3.png,exp4.png,,1,0,1,0,0,9,9,9,,,,,,,,,,,,,,,,,,,,,,,,,False,29,30,False,exp3.png,exp4.png,trial_right_image,-1,exp4.png,1,exp3.png,exp4.png,0,2,non-reversed,incorrect,0.23042767744674242,1,invalid_win,246.6128115998581,16,,,,,,,,,,,,,,,,sub_777,2024-04-18_10h03.54.690,Reversal,2022.1.2,60.04841088017598,1,
10,exp1.png,exp2.png,,1,0,1,0,0,10,10,10,,,,,,,,,,,,,,,,,,,,,,,,,False,30,31,False,exp1.png,exp2.png,trial_right_image,-1,exp2.png,1,exp1.png,exp2.png,0,4,reversed,incorrect,0.22009730624942336,1,invalid_win,252.52912590000778,17,,,,,,,,,,,,,,,,sub_777,2024-04-18_10h03.54.690,Reversal,2022.1.2,60.04841088017598,1,
11,exp3.png,exp4.png,,1,0,1,0,0,11,11,11,,,,,,,,,,,,,,,,,,,,,,,,,False,31,32,True,exp4.png,exp3.png,trial_left_image,1,exp4.png,1,exp3.png,exp4.png,0,2,non-reversed,incorrect,0.4077757432838126,0,valid_lose,258.2794000003487,17,,,,,,,,,,,,,,,,sub_777,2024-04-18_10h03.54.690,Reversal,2022.1.2,60.04841088017598,1,
12,exp1.png,exp2.png,,1,0,1,0,0,12,12,12,,,,,,,,,,,,,,,,,,,,,,,,,False,32,33,False,exp1.png,exp2.png,trial_right_image,-1,exp2.png,1,exp1.png,exp2.png,0,4,reversed,incorrect,0.6408962191329701,0,valid_lose,264.96238430030644,17,,,,,,,,,,,,,,,,sub_777,2024-04-18_10h03.54.690,Reversal,2022.1.2,60.04841088017598,1,
13,exp3.png,exp4.png,,1,0,1,0,0,13,13,13,,,,,,,,,,,,,,,,,,,,,,,,,False,33,34,True,exp4.png,exp3.png,trial_left_image,1,exp4.png,1,exp3.png,exp4.png,0,2,non-reversed,incorrect,0.04941679025629542,1,invalid_win,282.42888080049306,18,,,,,,,,,,,,,,,,sub_777,2024-04-18_10h03.54.690,Reversal,2022.1.2,60.04841088017598,1,
14,exp1.png,exp2.png,,1,0,1,0,0,14,14,14,,,,,,,,,,,,,,,,,,,,,,,,,False,34,35,False,exp1.png,exp2.png,trial_left_image,1,exp1.png,1,exp1.png,exp2.png,1,3,reversed,correct,0.029734999526086825,0,invalid_lose,288.5288785006851,18,,,,,,,,,,,,,,,,sub_777,2024-04-18_10h03.54.690,Reversal,2022.1.2,60.04841088017598,1,
15,exp3.png,exp4.png,,1,0,1,0,0,15,15,15,,,,,,,,,,,,,,,,,,,,,,,,,False,35,36,False,exp3.png,exp4.png,trial_right_image,-1,exp4.png,1,exp3.png,exp4.png,0,2,non-reversed,incorrect,0.6570371963588925,0,valid_lose,294.06149270012975,18,,,,,,,,,,,,,,,,sub_777,2024-04-18_10h03.54.690,Reversal,2022.1.2,60.04841088017598,1,
16,exp1.png,exp2.png,,1,0,1,0,0,16,16,16,,,,,,,,,,,,,,,,,,,,,,,,,False,36,37,True,exp2.png,exp1.png,trial_left_image,1,exp2.png,1,exp1.png,exp2.png,0,4,reversed,incorrect,0.14093048801294483,1,invalid_win,299.1282748002559,19,,,,,,,,,,,,,,,,sub_777,2024-04-18_10h03.54.690,Reversal,2022.1.2,60.04841088017598,1,
17,exp3.png,exp4.png,,1,0,1,0,0,17,17,17,,,,,,,,,,,,,,,,,,,,,,,,,False,37,38,True,exp4.png,exp3.png,trial_left_image,1,exp4.png,1,exp3.png,exp4.png,0,2,non-reversed,incorrect,0.3096818020646972,0,valid_lose,308.1113666007295,19,,,,,,,,,,,,,,,,sub_777,2024-04-18_10h03.54.690,Reversal,2022.1.2,60.04841088017598,1,
18,exp1.png,exp2.png,,1,0,1,0,0,18,18,18,,,,,,,,,,,,,,,,,,,,,,,,,False,38,39,True,exp2.png,exp1.png,trial_right_image,-1,exp1.png,1,exp1.png,exp2.png,1,3,reversed,correct,0.9810097853444472,1,valid_win,312.66159899998456,20,,,,,,,,,,,,,,,,sub_777,2024-04-18_10h03.54.690,Reversal,2022.1.2,60.04841088017598,1,
19,exp3.png,exp4.png,,1,0,1,0,0,19,19,19,,,,,,,,,,,,,,,,,,,,,,,,,False,39,40,False,exp3.png,exp4.png,trial_right_image,-1,exp4.png,1,exp3.png,exp4.png,0,2,non-reversed,incorrect,0.6908853204167335,0,valid_lose,317.21111229993403,20,,,,,,,,,,,,,,,,sub_777,2024-04-18_10h03.54.690,Reversal,2022.1.2,60.04841088017598,1,
20,exp1.png,exp2.png,,1,0,1,0,0,20,20,20,,,,,,,,,,,,,,,,,,,,,,,,,True,,,,,,,,,,,,,,,,,,,,,,,,,,,,,,,,,,,,sub_777,2024-04-18_10h03.54.690,Reversal,2022.1.2,60.04841088017598,1,
,,,exp1.png,1,0,1,0,,,,,0,0,0,0,0,0,0,0,,,,,,,,,,,,,,,,,,,,,,,,,,,,,,,,,,,,,,91.0,91.0,5.548508999869227,"[(91.0, 5.548508999869227)]",436.255368899554,None,,,,,,,,,,sub_777,2024-04-18_10h03.54.690,Reversal,2022.1.2,60.04841088017598,1,
,,,exp2.png,1,0,1,0,,,,,0,0,0,0,0,1,1,1,,,,,,,,,,,,,,,,,,,,,,,,,,,,,,,,,,,,,,,100.0,7.18420710042119,"[(80.0, 5.552138400264084), (100.0, 7.18420710042119)]",442.8514823997393,None,100.0,,,,,,,,,sub_777,2024-04-18_10h03.54.690,Reversal,2022.1.2,60.04841088017598,1,
,,,exp3.png,1,0,1,0,,,,,0,0,0,0,0,2,2,2,,,,,,,,,,,,,,,,,,,,,,,,,,,,,,,,,,,,,,,25.0,5.235600500367582,"[(25.0, 5.235600500367582)]",451.05157830007374,None,,25.0,,,,,,,,sub_777,2024-04-18_10h03.54.690,Reversal,2022.1.2,60.04841088017598,1,
,,,exp4.png,1,0,1,0,,,,,0,0,0,0,0,3,3,3,,,,,,,,,,,,,,,,,,,,,,,,,,,,,,,,,,,,,,,81.0,2.8515452994033694,"[(81.0, 2.8515452994033694)]",457.3657714994624,None,,,81.0,,,,,,,sub_777,2024-04-18_10h03.54.690,Reversal,2022.1.2,60.04841088017598,1,
0,exp1.png,exp2.png,,2,0,2,0,0,0,0,0,,,,,,,,,,,,,,,,,,,,,,,,,False,40,41,True,exp2.png,exp1.png,trial_left_image,1,exp2.png,1,exp1.png,exp2.png,0,4,reversed,incorrect,0.521057901186116,0,valid_lose,349.36104630026966,20,,,,,,,,,,,,,,,,sub_777,2024-04-18_10h03.54.690,Reversal,2022.1.2,60.04841088017598,1,
1,exp3.png,exp4.png,,2,0,2,0,0,1,1,1,,,,,,,,,,,,,,,,,,,,,,,,,False,41,42,False,exp3.png,exp4.png,trial_right_image,-1,exp4.png,1,exp3.png,exp4.png,0,2,non-reversed,incorrect,0.434807054266644,0,valid_lose,354.4780272003263,20,,,,,,,,,,,,,,,,sub_777,2024-04-18_10h03.54.690,Reversal,2022.1.2,60.04841088017598,1,
2,exp1.png,exp2.png,,2,0,2,0,0,2,2,2,,,,,,,,,,,,,,,,,,,,,,,,,False,42,43,True,exp2.png,exp1.png,trial_right_image,-1,exp1.png,1,exp1.png,exp2.png,1,3,reversed,correct,0.16719871225826177,0,invalid_lose,359.5106520000845,20,,,,,,,,,,,,,,,,sub_777,2024-04-18_10h03.54.690,Reversal,2022.1.2,60.04841088017598,1,
3,exp3.png,exp4.png,,2,0,2,0,0,3,3,3,,,,,,,,,,,,,,,,,,,,,,,,,False,43,44,False,exp3.png,exp4.png,trial_left_image,1,exp3.png,1,exp3.png,exp4.png,1,1,non-reversed,correct,0.8246674128783867,1,valid_win,364.37705390062183,21,,,,,,,,,,,,,,,,sub_777,2024-04-18_10h03.54.690,Reversal,2022.1.2,60.04841088017598,1,
4,exp1.png,exp2.png,,2,0,2,0,0,4,4,4,,,,,,,,,,,,,,,,,,,,,,,,,False,44,45,True,exp2.png,exp1.png,trial_left_image,1,exp2.png,1,exp1.png,exp2.png,0,4,reversed,incorrect,0.10722506668930676,1,invalid_win,369.3773517999798,22,,,,,,,,,,,,,,,,sub_777,2024-04-18_10h03.54.690,Reversal,2022.1.2,60.04841088017598,1,
5,exp3.png,exp4.png,,2,0,2,0,0,5,5,5,,,,,,,,,,,,,,,,,,,,,,,,,False,45,46,True,exp4.png,exp3.png,trial_left_image,1,exp4.png,1,exp3.png,exp4.png,0,2,non-reversed,incorrect,0.7299849256827693,0,valid_lose,373.97741209995,22,,,,,,,,,,,,,,,,sub_777,2024-04-18_10h03.54.690,Reversal,2022.1.2,60.04841088017598,1,
6,exp1.png,exp2.png,,2,0,2,0,0,6,6,6,,,,,,,,,,,,,,,,,,,,,,,,,False,46,47,True,exp2.png,exp1.png,trial_left_image,1,exp2.png,1,exp1.png,exp2.png,0,4,reversed,incorrect,0.3865475646382007,0,valid_lose,384.1439420999959,22,,,,,,,,,,,,,,,,sub_777,2024-04-18_10h03.54.690,Reversal,2022.1.2,60.04841088017598,1,
7,exp3.png,exp4.png,,2,0,2,0,0,7,7,7,,,,,,,,,,,,,,,,,,,,,,,,,False,47,48,False,exp3.png,exp4.png,trial_right_image,-1,exp4.png,1,exp3.png,exp4.png,0,2,non-reversed,incorrect,0.5133661755243825,0,valid_lose,388.8266537999734,22,,,,,,,,,,,,,,,,sub_777,2024-04-18_10h03.54.690,Reversal,2022.1.2,60.04841088017598,1,
8,exp1.png,exp2.png,,2,0,2,0,0,8,8,8,,,,,,,,,,,,,,,,,,,,,,,,,False,48,49,True,exp2.png,exp1.png,trial_left_image,1,exp2.png,1,exp1.png,exp2.png,0,4,reversed,incorrect,0.9795583825770946,0,valid_lose,393.4271515002474,22,,,,,,,,,,,,,,,,sub_777,2024-04-18_10h03.54.690,Reversal,2022.1.2,60.04841088017598,1,
9,exp3.png,exp4.png,,2,0,2,0,0,9,9,9,,,,,,,,,,,,,,,,,,,,,,,,,False,49,50,False,exp3.png,exp4.png,trial_right_image,-1,exp4.png,1,exp3.png,exp4.png,0,2,non-reversed,incorrect,0.3849509460448268,0,valid_lose,398.4439414003864,22,,,,,,,,,,,,,,,,sub_777,2024-04-18_10h03.54.690,Reversal,2022.1.2,60.04841088017598,1,
10,exp1.png,exp2.png,,2,0,2,0,0,10,10,10,,,,,,,,,,,,,,,,,,,,,,,,,False,50,51,False,exp1.png,exp2.png,trial_right_image,-1,exp2.png,1,exp1.png,exp2.png,0,4,reversed,incorrect,0.04824847135064103,1,invalid_win,403.9933388000354,23,,,,,,,,,,,,,,,,sub_777,2024-04-18_10h03.54.690,Reversal,2022.1.2,60.04841088017598,1,
11,exp3.png,exp4.png,,2,0,2,0,0,11,11,11,,,,,,,,,,,,,,,,,,,,,,,,,False,51,52,False,exp3.png,exp4.png,trial_right_image,-1,exp4.png,1,exp3.png,exp4.png,0,2,non-reversed,incorrect,0.9148905581605814,0,valid_lose,408.54317240044475,23,,,,,,,,,,,,,,,,sub_777,2024-04-18_10h03.54.690,Reversal,2022.1.2,60.04841088017598,1,
12,exp1.png,exp2.png,,2,0,2,0,0,12,12,12,,,,,,,,,,,,,,,,,,,,,,,,,False,52,53,False,exp1.png,exp2.png,trial_right_image,-1,exp2.png,1,exp1.png,exp2.png,0,4,reversed,incorrect,0.056843568754450735,1,invalid_win,413.1767870001495,24,,,,,,,,,,,,,,,,sub_777,2024-04-18_10h03.54.690,Reversal,2022.1.2,60.04841088017598,1,
13,exp3.png,exp4.png,,2,0,2,0,0,13,13,13,,,,,,,,,,,,,,,,,,,,,,,,,False,53,54,False,exp3.png,exp4.png,trial_right_image,-1,exp4.png,1,exp3.png,exp4.png,0,2,non-reversed,incorrect,0.22204631232856087,1,invalid_win,417.47629650030285,25,,,,,,,,,,,,,,,,sub_777,2024-04-18_10h03.54.690,Reversal,2022.1.2,60.04841088017598,1,
14,exp1.png,exp2.png,,2,0,2,0,0,14,14,14,,,,,,,,,,,,,,,,,,,,,,,,,False,54,55,False,exp1.png,exp2.png,trial_right_image,-1,exp2.png,1,exp1.png,exp2.png,0,4,reversed,incorrect,0.8972035856118835,0,valid_lose,421.759499900043,25,,,,,,,,,,,,,,,,sub_777,2024-04-18_10h03.54.690,Reversal,2022.1.2,60.04841088017598,1,
15,exp3.png,exp4.png,,2,0,2,0,0,15,15,15,,,,,,,,,,,,,,,,,,,,,,,,,False,55,56,True,exp4.png,exp3.png,trial_left_image,1,exp4.png,1,exp3.png,exp4.png,0,2,non-reversed,incorrect,0.23282349880850728,1,invalid_win,427.442023800686,26,,,,,,,,,,,,,,,,sub_777,2024-04-18_10h03.54.690,Reversal,2022.1.2,60.04841088017598,1,
16,exp1.png,exp2.png,,2,0,2,0,0,16,16,16,,,,,,,,,,,,,,,,,,,,,,,,,False,56,57,True,exp2.png,exp1.png,trial_left_image,1,exp2.png,1,exp1.png,exp2.png,0,4,reversed,incorrect,0.8814621058442305,0,valid_lose,433.55950410012156,26,,,,,,,,,,,,,,,,sub_777,2024-04-18_10h03.54.690,Reversal,2022.1.2,60.04841088017598,1,
17,exp3.png,exp4.png,,2,0,2,0,0,17,17,17,,,,,,,,,,,,,,,,,,,,,,,,,False,57,58,False,exp3.png,exp4.png,trial_right_image,-1,exp4.png,1,exp3.png,exp4.png,0,2,non-reversed,incorrect,0.3167158103142066,0,valid_lose,438.17606810014695,26,,,,,,,,,,,,,,,,sub_777,2024-04-18_10h03.54.690,Reversal,2022.1.2,60.04841088017598,1,
18,exp1.png,exp2.png,,2,0,2,0,0,18,18,18,,,,,,,,,,,,,,,,,,,,,,,,,False,58,59,True,exp2.png,exp1.png,trial_left_image,1,exp2.png,1,exp1.png,exp2.png,0,4,reversed,incorrect,0.31476244435361855,0,valid_lose,442.85911870002747,26,,,,,,,,,,,,,,,,sub_777,2024-04-18_10h03.54.690,Reversal,2022.1.2,60.04841088017598,1,
19,exp3.png,exp4.png,,2,0,2,0,0,19,19,19,,,,,,,,,,,,,,,,,,,,,,,,,False,59,60,True,exp4.png,exp3.png,trial_right_image,-1,exp3.png,1,exp3.png,exp4.png,1,1,non-reversed,correct,0.008309250566749915,0,invalid_lose,447.192489400506,26,,,,,,,,,,,,,,,,sub_777,2024-04-18_10h03.54.690,Reversal,2022.1.2,60.04841088017598,1,
20,exp1.png,exp2.png,,2,0,2,0,0,20,20,20,,,,,,,,,,,,,,,,,,,,,,,,,True,,,,,,,,,,,,,,,,,,,,,,,,,,,,,,,,,,,,sub_777,2024-04-18_10h03.54.690,Reversal,2022.1.2,60.04841088017598,1,
,,,exp1.png,2,0,2,0,,,,,0,0,0,0,0,0,0,0,,,,,,,,,,,,,,,,,,,,,,,,,,,,,,,,,,,,,,21.0,21.0,7.208115899935365,"[(21.0, 7.208115899935365)]",566.2092830995098,None,,,,,,,,,,sub_777,2024-04-18_10h03.54.690,Reversal,2022.1.2,60.04841088017598,1,
,,,exp2.png,2,0,2,0,,,,,0,0,0,0,0,1,1,1,,,,,,,,,,,,,,,,,,,,,,,,,,,,,,,,,,,,,,,50.0,None,[],575.5137385996059,None,,,,,,,,,,sub_777,2024-04-18_10h03.54.690,Reversal,2022.1.2,60.04841088017598,1,
,,,exp3.png,2,0,2,0,,,,,0,0,0,0,0,2,2,2,,,,,,,,,,,,,,,,,,,,,,,,,,,,,,,,,,,,,,,33.0,3.7518795002251863,"[(33.0, 3.7518795002251863)]",575.9633940998465,None,,33.0,,,,,,,,sub_777,2024-04-18_10h03.54.690,Reversal,2022.1.2,60.04841088017598,1,
,,,exp4.png,2,0,2,0,,,,,0,0,0,0,0,3,3,3,,,,,,,,,,,,,,,,,,,,,,,,,,,,,,,,,,,,,,,68.0,3.1010389998555183,"[(68.0, 3.1010389998555183)]",581.8136225994676,None,,,68.0,,,,,,,sub_777,2024-04-18_10h03.54.690,Reversal,2022.1.2,60.04841088017598,1,
0,exp1.png,exp2.png,,3,0,3,0,0,0,0,0,,,,,,,,,,,,,,,,,,,,,,,,,False,60,61,True,exp2.png,exp1.png,trial_left_image,1,exp2.png,1,exp1.png,exp2.png,0,4,reversed,incorrect,0.3246952726726119,0,valid_lose,472.4067572001368,26,,,,,,,,,,,,,,,,sub_777,2024-04-18_10h03.54.690,Reversal,2022.1.2,60.04841088017598,1,
1,exp3.png,exp4.png,,3,0,3,0,0,1,1,1,,,,,,,,,,,,,,,,,,,,,,,,,False,61,62,False,exp3.png,exp4.png,trial_right_image,-1,exp4.png,1,exp3.png,exp4.png,0,2,non-reversed,incorrect,0.7335217093823644,0,valid_lose,476.95884119998664,26,,,,,,,,,,,,,,,,sub_777,2024-04-18_10h03.54.690,Reversal,2022.1.2,60.04841088017598,1,
2,exp1.png,exp2.png,,3,0,3,0,0,2,2,2,,,,,,,,,,,,,,,,,,,,,,,,,False,62,63,True,exp2.png,exp1.png,trial_left_image,1,exp2.png,1,exp1.png,exp2.png,0,4,reversed,incorrect,0.9919193909657729,0,valid_lose,484.65826770011336,26,,,,,,,,,,,,,,,,sub_777,2024-04-18_10h03.54.690,Reversal,2022.1.2,60.04841088017598,1,
3,exp3.png,exp4.png,,3,0,3,0,0,3,3,3,,,,,,,,,,,,,,,,,,,,,,,,,False,63,64,True,exp4.png,exp3.png,trial_right_image,-1,exp3.png,1,exp3.png,exp4.png,1,1,non-reversed,correct,0.8265233849412462,1,valid_win,488.5740077998489,27,,,,,,,,,,,,,,,,sub_777,2024-04-18_10h03.54.690,Reversal,2022.1.2,60.04841088017598,1,
4,exp1.png,exp2.png,,3,0,3,0,0,4,4,4,,,,,,,,,,,,,,,,,,,,,,,,,False,64,65,False,exp1.png,exp2.png,trial_right_image,-1,exp2.png,1,exp1.png,exp2.png,0,4,reversed,incorrect,0.3261395630235263,0,valid_lose,499.2917364006862,27,,,,,,,,,,,,,,,,sub_777,2024-04-18_10h03.54.690,Reversal,2022.1.2,60.04841088017598,1,
5,exp3.png,exp4.png,,3,0,3,0,0,5,5,5,,,,,,,,,,,,,,,,,,,,,,,,,False,65,66,True,exp4.png,exp3.png,trial_left_image,1,exp4.png,1,exp3.png,exp4.png,0,2,non-reversed,incorrect,0.6905476404517278,0,valid_lose,509.44163660053164,27,,,,,,,,,,,,,,,,sub_777,2024-04-18_10h03.54.690,Reversal,2022.1.2,60.04841088017598,1,
6,exp1.png,exp2.png,,3,0,3,0,0,6,6,6,,,,,,,,,,,,,,,,,,,,,,,,,False,66,67,True,exp2.png,exp1.png,trial_left_image,1,exp2.png,1,exp1.png,exp2.png,0,4,reversed,incorrect,0.37629304085481685,0,valid_lose,515.2081754999235,27,,,,,,,,,,,,,,,,sub_777,2024-04-18_10h03.54.690,Reversal,2022.1.2,60.04841088017598,1,
7,exp3.png,exp4.png,,3,0,3,0,0,7,7,7,,,,,,,,,,,,,,,,,,,,,,,,,False,67,68,False,exp3.png,exp4.png,trial_left_image,1,exp3.png,1,exp3.png,exp4.png,1,1,non-reversed,correct,0.9586973792923175,1,valid_win,520.4245623005554,28,,,,,,,,,,,,,,,,sub_777,2024-04-18_10h03.54.690,Reversal,2022.1.2,60.04841088017598,1,
8,exp1.png,exp2.png,,3,0,3,0,0,8,8,8,,,,,,,,,,,,,,,,,,,,,,,,,False,68,69,False,exp1.png,exp2.png,trial_right_image,-1,exp2.png,1,exp1.png,exp2.png,0,4,reversed,incorrect,0.39328895583428114,0,valid_lose,531.7410289999098,28,,,,,,,,,,,,,,,,sub_777,2024-04-18_10h03.54.690,Reversal,2022.1.2,60.04841088017598,1,
9,exp3.png,exp4.png,,3,0,3,0,0,9,9,9,,,,,,,,,,,,,,,,,,,,,,,,,False,69,70,False,exp3.png,exp4.png,trial_right_image,-1,exp4.png,1,exp3.png,exp4.png,0,2,non-reversed,incorrect,0.9080296474715112,0,valid_lose,541.3074198998511,28,,,,,,,,,,,,,,,,sub_777,2024-04-18_10h03.54.690,Reversal,2022.1.2,60.04841088017598,1,
10,exp1.png,exp2.png,,3,0,3,0,0,10,10,10,,,,,,,,,,,,,,,,,,,,,,,,,False,70,71,True,exp2.png,exp1.png,trial_left_image,1,exp2.png,1,exp1.png,exp2.png,0,4,reversed,incorrect,0.15485063194535376,1,invalid_win,547.3740065004677,29,,,,,,,,,,,,,,,,sub_777,2024-04-18_10h03.54.690,Reversal,2022.1.2,60.04841088017598,1,
11,exp3.png,exp4.png,,3,0,3,0,0,11,11,11,,,,,,,,,,,,,,,,,,,,,,,,,False,71,72,False,exp3.png,exp4.png,trial_right_image,-1,exp4.png,1,exp3.png,exp4.png,0,2,non-reversed,incorrect,0.09821386555739442,1,invalid_win,553.0076697999611,30,,,,,,,,,,,,,,,,sub_777,2024-04-18_10h03.54.690,Reversal,2022.1.2,60.04841088017598,1,
12,exp1.png,exp2.png,,3,0,3,0,0,12,12,12,,,,,,,,,,,,,,,,,,,,,,,,,False,72,73,True,exp2.png,exp1.png,trial_left_image,1,exp2.png,1,exp1.png,exp2.png,0,4,reversed,incorrect,0.4131100244054837,0,valid_lose,558.5571512002498,30,,,,,,,,,,,,,,,,sub_777,2024-04-18_10h03.54.690,Reversal,2022.1.2,60.04841088017598,1,
13,exp3.png,exp4.png,,3,0,3,0,0,13,13,13,,,,,,,,,,,,,,,,,,,,,,,,,False,73,74,True,exp4.png,exp3.png,trial_left_image,1,exp4.png,1,exp3.png,exp4.png,0,2,non-reversed,incorrect,0.07157152672980016,1,invalid_win,564.0408649006858,31,,,,,,,,,,,,,,,,sub_777,2024-04-18_10h03.54.690,Reversal,2022.1.2,60.04841088017598,1,
14,exp1.png,exp2.png,,3,0,3,0,0,14,14,14,,,,,,,,,,,,,,,,,,,,,,,,,False,74,75,False,exp1.png,exp2.png,trial_left_image,1,exp1.png,1,exp1.png,exp2.png,1,3,reversed,correct,0.4169542908180014,1,valid_win,571.6235643001273,32,,,,,,,,,,,,,,,,sub_777,2024-04-18_10h03.54.690,Reversal,2022.1.2,60.04841088017598,1,
15,exp3.png,exp4.png,,3,0,3,0,0,15,15,15,,,,,,,,,,,,,,,,,,,,,,,,,False,75,76,False,exp3.png,exp4.png,trial_right_image,-1,exp4.png,1,exp3.png,exp4.png,0,2,non-reversed,incorrect,0.3884607638802575,0,valid_lose,578.1732512004673,32,,,,,,,,,,,,,,,,sub_777,2024-04-18_10h03.54.690,Reversal,2022.1.2,60.04841088017598,1,
16,exp1.png,exp2.png,,3,0,3,0,0,16,16,16,,,,,,,,,,,,,,,,,,,,,,,,,False,76,77,False,exp1.png,exp2.png,trial_left_image,1,exp1.png,1,exp1.png,exp2.png,1,3,reversed,correct,0.8938151595744287,1,valid_win,583.5736413002014,33,,,,,,,,,,,,,,,,sub_777,2024-04-18_10h03.54.690,Reversal,2022.1.2,60.04841088017598,1,
17,exp3.png,exp4.png,,3,0,3,0,0,17,17,17,,,,,,,,,,,,,,,,,,,,,,,,,False,77,78,True,exp4.png,exp3.png,trial_left_image,1,exp4.png,1,exp3.png,exp4.png,0,2,non-reversed,incorrect,0.02224856082280824,1,invalid_win,589.956735400483,34,,,,,,,,,,,,,,,,sub_777,2024-04-18_10h03.54.690,Reversal,2022.1.2,60.04841088017598,1,
18,exp1.png,exp2.png,,3,0,3,0,0,18,18,18,,,,,,,,,,,,,,,,,,,,,,,,,False,78,79,False,exp1.png,exp2.png,trial_left_image,1,exp1.png,1,exp1.png,exp2.png,1,3,reversed,correct,0.36665017017085777,1,valid_win,597.7389634000137,35,,,,,,,,,,,,,,,,sub_777,2024-04-18_10h03.54.690,Reversal,2022.1.2,60.04841088017598,1,
19,exp3.png,exp4.png,,3,0,3,0,0,19,19,19,,,,,,,,,,,,,,,,,,,,,,,,,False,79,80,True,exp4.png,exp3.png,trial_left_image,1,exp4.png,1,exp3.png,exp4.png,0,2,non-reversed,incorrect,0.38909047030865895,0,valid_lose,604.1897280998528,35,,,,,,,,,,,,,,,,sub_777,2024-04-18_10h03.54.690,Reversal,2022.1.2,60.04841088017598,1,
20,exp1.png,exp2.png,,3,0,3,0,0,20,20,20,,,,,,,,,,,,,,,,,,,,,,,,,True,,,,,,,,,,,,,,,,,,,,,,,,,,,,,,,,,,,,sub_777,2024-04-18_10h03.54.690,Reversal,2022.1.2,60.04841088017598,1,
,,,exp1.png,3,0,3,0,,,,,0,0,0,0,0,0,0,0,,,,,,,,,,,,,,,,,,,,,,,,,,,,,,,,,,,,,,66.0,66.0,8.387407999485731,"[(66.0, 8.387407999485731)]",723.2280292995274,None,,,,,,,,,,sub_777,2024-04-18_10h03.54.690,Reversal,2022.1.2,60.04841088017598,1,
,,,exp2.png,3,0,3,0,,,,,0,0,0,0,0,1,1,1,,,,,,,,,,,,,,,,,,,,,,,,,,,,,,,,,,,,,,,72.0,2.76913580019027,"[(72.0, 2.76913580019027)]",732.5112557001412,None,72.0,,,,,,,,,sub_777,2024-04-18_10h03.54.690,Reversal,2022.1.2,60.04841088017598,1,
,,,exp3.png,3,0,3,0,,,,,0,0,0,0,0,2,2,2,,,,,,,,,,,,,,,,,,,,,,,,,,,,,,,,,,,,,,,35.0,4.784416100010276,"[(35.0, 4.784416100010276)]",736.3786175996065,None,,35.0,,,,,,,,sub_777,2024-04-18_10h03.54.690,Reversal,2022.1.2,60.04841088017598,1,
,,,exp4.png,3,0,3,0,,,,,0,0,0,0,0,3,3,3,,,,,,,,,,,,,,,,,,,,,,,,,,,,,,,,,,,,,,,30.0,3.4336804999038577,"[(30.0, 3.4336804999038577)]",742.3320239996538,None,,,30.0,,,,,,,sub_777,2024-04-18_10h03.54.690,Reversal,2022.1.2,60.04841088017598,1,
0,exp1.png,exp2.png,,,,,,,,,,,,,,,,,,0,0,0,0,0,0,0,0,,,,,,,,,False,0,81,False,exp1.png,exp2.png,trial_right_image,-1,exp2.png,1,exp2.png,exp1.png,0,4,reversed,correct,0.805073834680269,1,valid_win,641.6724947001785,36,,,,,,,,,,631.7108469000086,,,,,,sub_777,2024-04-18_10h03.54.690,Reversal,2022.1.2,60.04841088017598,1,
1,exp3.png,exp4.png,,,,,,,,,,,,,,,,,,0,0,0,0,0,1,1,1,,,,,,,,,False,1,82,False,exp3.png,exp4.png,trial_left_image,1,exp3.png,1,exp3.png,exp4.png,1,1,non-reversed,correct,0.1586352061608749,0,invalid_lose,647.1059763003141,36,,,,,,,,,,,,,,,,sub_777,2024-04-18_10h03.54.690,Reversal,2022.1.2,60.04841088017598,1,
2,exp1.png,exp2.png,,,,,,,,,,,,,,,,,,0,0,0,0,0,2,2,2,,,,,,,,,False,2,83,False,exp1.png,exp2.png,trial_right_image,-1,exp2.png,1,exp2.png,exp1.png,0,4,reversed,correct,0.20497100392342105,0,invalid_lose,651.4724452001974,36,,,,,,,,,,,,,,,,sub_777,2024-04-18_10h03.54.690,Reversal,2022.1.2,60.04841088017598,1,
3,exp3.png,exp4.png,,,,,,,,,,,,,,,,,,0,0,0,0,0,3,3,3,,,,,,,,,False,3,84,True,exp4.png,exp3.png,trial_right_image,-1,exp3.png,1,exp3.png,exp4.png,1,1,non-reversed,correct,0.43447437529340605,1,valid_win,657.63885019999,37,,,,,,,,,,,,,,,,sub_777,2024-04-18_10h03.54.690,Reversal,2022.1.2,60.04841088017598,1,
4,exp1.png,exp2.png,,,,,,,,,,,,,,,,,,0,0,0,0,0,4,4,4,,,,,,,,,False,4,85,False,exp1.png,exp2.png,trial_right_image,-1,exp2.png,1,exp2.png,exp1.png,0,4,reversed,correct,0.5463097769298001,1,valid_win,662.5883542001247,38,,,,,,,,,,,,,,,,sub_777,2024-04-18_10h03.54.690,Reversal,2022.1.2,60.04841088017598,1,
5,exp3.png,exp4.png,,,,,,,,,,,,,,,,,,0,0,0,0,0,5,5,5,,,,,,,,,False,5,86,True,exp4.png,exp3.png,trial_left_image,1,exp4.png,1,exp3.png,exp4.png,0,2,non-reversed,incorrect,0.18303015528991595,1,invalid_win,668.3052487000823,39,,,,,,,,,,,,,,,,sub_777,2024-04-18_10h03.54.690,Reversal,2022.1.2,60.04841088017598,1,
6,exp1.png,exp2.png,,,,,,,,,,,,,,,,,,0,0,0,0,0,6,6,6,,,,,,,,,False,6,87,True,exp2.png,exp1.png,trial_right_image,-1,exp1.png,1,exp2.png,exp1.png,1,3,reversed,incorrect,0.1315487859897796,1,invalid_win,673.2722773002461,40,,,,,,,,,,,,,,,,sub_777,2024-04-18_10h03.54.690,Reversal,2022.1.2,60.04841088017598,1,
7,exp3.png,exp4.png,,,,,,,,,,,,,,,,,,0,0,0,0,0,7,7,7,,,,,,,,,False,7,88,True,exp4.png,exp3.png,trial_left_image,1,exp4.png,1,exp3.png,exp4.png,0,2,non-reversed,incorrect,0.2327528207617925,1,invalid_win,679.5196394007653,41,,,,,,,,,,,,,,,,sub_777,2024-04-18_10h03.54.690,Reversal,2022.1.2,60.04841088017598,1,
8,exp1.png,exp2.png,,,,,,,,,,,,,,,,,,0,0,0,0,0,8,8,8,,,,,,,,,False,8,89,True,exp2.png,exp1.png,trial_right_image,-1,exp1.png,1,exp2.png,exp1.png,1,3,reversed,incorrect,0.32409544615728914,0,valid_lose,684.7216624999419,41,,,,,,,,,,,,,,,,sub_777,2024-04-18_10h03.54.690,Reversal,2022.1.2,60.04841088017598,1,
9,exp3.png,exp4.png,,,,,,,,,,,,,,,,,,0,0,0,0,0,9,9,9,,,,,,,,,False,9,90,True,exp4.png,exp3.png,trial_left_image,1,exp4.png,1,exp3.png,exp4.png,0,2,non-reversed,incorrect,0.7904911765866994,0,valid_lose,693.0217317007482,41,,,,,,,,,,,,,,,,sub_777,2024-04-18_10h03.54.690,Reversal,2022.1.2,60.04841088017598,1,
10,exp1.png,exp2.png,,,,,,,,,,,,,,,,,,0,0,0,0,0,10,10,10,,,,,,,,,False,10,91,False,exp1.png,exp2.png,trial_right_image,-1,exp2.png,1,exp2.png,exp1.png,0,4,reversed,correct,0.5917301413957461,1,valid_win,698.8382955007255,42,,,,,,,,,,,,,,,,sub_777,2024-04-18_10h03.54.690,Reversal,2022.1.2,60.04841088017598,1,
11,exp3.png,exp4.png,,,,,,,,,,,,,,,,,,0,0,0,0,0,11,11,11,,,,,,,,,False,11,92,False,exp3.png,exp4.png,trial_right_image,-1,exp4.png,1,exp3.png,exp4.png,0,2,non-reversed,incorrect,0.4957068553252493,0,valid_lose,704.0048601999879,42,,,,,,,,,,,,,,,,sub_777,2024-04-18_10h03.54.690,Reversal,2022.1.2,60.04841088017598,1,
12,exp1.png,exp2.png,,,,,,,,,,,,,,,,,,0,0,0,0,0,12,12,12,,,,,,,,,False,12,93,True,exp2.png,exp1.png,trial_left_image,1,exp2.png,1,exp2.png,exp1.png,0,4,reversed,correct,0.38032799144199936,1,valid_win,708.7879790998995,43,,,,,,,,,,,,,,,,sub_777,2024-04-18_10h03.54.690,Reversal,2022.1.2,60.04841088017598,1,
13,exp3.png,exp4.png,,,,,,,,,,,,,,,,,,0,0,0,0,0,13,13,13,,,,,,,,,False,13,94,True,exp4.png,exp3.png,trial_right_image,-1,exp3.png,1,exp3.png,exp4.png,1,1,non-reversed,correct,0.8607610234274841,1,valid_win,713.5210949005559,44,,,,,,,,,,,,,,,,sub_777,2024-04-18_10h03.54.690,Reversal,2022.1.2,60.04841088017598,1,
14,exp1.png,exp2.png,,,,,,,,,,,,,,,,,,0,0,0,0,0,14,14,14,,,,,,,,,False,14,95,True,exp2.png,exp1.png,trial_right_image,-1,exp1.png,1,exp2.png,exp1.png,1,3,reversed,incorrect,0.9709685085062066,0,valid_lose,718.254246099852,44,,,,,,,,,,,,,,,,sub_777,2024-04-18_10h03.54.690,Reversal,2022.1.2,60.04841088017598,1,
15,exp3.png,exp4.png,,,,,,,,,,,,,,,,,,0,0,0,0,0,15,15,15,,,,,,,,,False,15,96,False,exp3.png,exp4.png,trial_left_image,1,exp3.png,1,exp3.png,exp4.png,1,1,non-reversed,correct,0.9819628844574132,1,valid_win,722.7877537999302,45,,,,,,,,,,,,,,,,sub_777,2024-04-18_10h03.54.690,Reversal,2022.1.2,60.04841088017598,1,
16,exp1.png,exp2.png,,,,,,,,,,,,,,,,,,0,0,0,0,0,16,16,16,,,,,,,,,False,16,97,False,exp1.png,exp2.png,trial_right_image,-1,exp2.png,1,exp2.png,exp1.png,0,4,reversed,correct,0.04468374404069353,0,invalid_lose,727.1543962005526,45,,,,,,,,,,,,,,,,sub_777,2024-04-18_10h03.54.690,Reversal,2022.1.2,60.04841088017598,1,
17,exp3.png,exp4.png,,,,,,,,,,,,,,,,,,0,0,0,0,0,17,17,17,,,,,,,,,False,17,98,False,exp3.png,exp4.png,trial_right_image,-1,exp4.png,1,exp3.png,exp4.png,0,2,non-reversed,incorrect,0.534321893075602,0,valid_lose,732.2706503001973,45,,,,,,,,,,,,,,,,sub_777,2024-04-18_10h03.54.690,Reversal,2022.1.2,60.04841088017598,1,
18,exp1.png,exp2.png,,,,,,,,,,,,,,,,,,0,0,0,0,0,18,18,18,,,,,,,,,False,18,99,True,exp2.png,exp1.png,trial_left_image,1,exp2.png,1,exp2.png,exp1.png,0,4,reversed,correct,0.2524539595324401,1,valid_win,736.5042125005275,46,,,,,,,,,,,,,,,,sub_777,2024-04-18_10h03.54.690,Reversal,2022.1.2,60.04841088017598,1,
19,exp3.png,exp4.png,,,,,,,,,,,,,,,,,,0,0,0,0,0,19,19,19,,,,,,,,,False,19,100,False,exp3.png,exp4.png,trial_left_image,1,exp3.png,1,exp3.png,exp4.png,1,1,non-reversed,correct,0.21531423149158202,0,invalid_lose,740.6542456001043,46,,,,,,,,,,,,,,,,sub_777,2024-04-18_10h03.54.690,Reversal,2022.1.2,60.04841088017598,1,
20,exp1.png,exp2.png,,,,,,,,,,,,,,,,,,0,0,0,0,0,20,20,20,,,,,,,,,True,,,,,,,,,,,,,,,,,,,,,,,,,,,,,,,,,,,,sub_777,2024-04-18_10h03.54.690,Reversal,2022.1.2,60.04841088017598,1,
,,,exp1.png,,,,,,,,,,,,,,,,,0,0,0,0,,,,,0,0,0,0,0,0,0,0,,,,,,,,,,,,,,,,,,,,,,69.0,69.0,2.4390310999006033,"[(69.0, 2.4390310999006033)]",859.6736415000632,None,,,,,,,,,,sub_777,2024-04-18_10h03.54.690,Reversal,2022.1.2,60.04841088017598,1,
,,,exp2.png,,,,,,,,,,,,,,,,,0,0,0,0,,,,,0,0,0,0,0,1,1,1,,,,,,,,,,,,,,,,,,,,,,,30.0,1.9511951999738812,"[(30.0, 1.9511951999738812)]",863.158398299478,None,30.0,,,,,,,,,sub_777,2024-04-18_10h03.54.690,Reversal,2022.1.2,60.04841088017598,1,
,,,exp3.png,,,,,,,,,,,,,,,,,0,0,0,0,,,,,0,0,0,0,0,2,2,2,,,,,,,,,,,,,,,,,,,,,,,64.0,1.6015090998262167,"[(64.0, 1.6015090998262167)]",865.9923305995762,None,,64.0,,,,,,,,sub_777,2024-04-18_10h03.54.690,Reversal,2022.1.2,60.04841088017598,1,
,,,exp4.png,,,,,,,,,,,,,,,,,0,0,0,0,,,,,0,0,0,0,0,3,3,3,,,,,,,,,,,,,,,,,,,,,,,71.0,1.8028288995847106,"[(71.0, 1.8028288995847106)]",868.4085564995185,None,,,71.0,,,,,,,sub_777,2024-04-18_10h03.54.690,Reversal,2022.1.2,60.04841088017598,1,
0,exp1.png,exp2.png,,,,,,,,,,,,,,,,,,1,0,1,0,0,0,0,0,,,,,,,,,False,20,101,False,exp1.png,exp2.png,trial_right_image,-1,exp2.png,1,exp2.png,exp1.png,0,4,reversed,correct,0.06516150835829049,0,invalid_lose,757.2869644006714,46,,,,,,,,,,,,,,,,sub_777,2024-04-18_10h03.54.690,Reversal,2022.1.2,60.04841088017598,1,
1,exp3.png,exp4.png,,,,,,,,,,,,,,,,,,1,0,1,0,0,1,1,1,,,,,,,,,False,21,102,False,exp3.png,exp4.png,trial_left_image,1,exp3.png,1,exp3.png,exp4.png,1,1,non-reversed,correct,0.726557034858292,1,valid_win,762.2042769007385,47,,,,,,,,,,,,,,,,sub_777,2024-04-18_10h03.54.690,Reversal,2022.1.2,60.04841088017598,1,
2,exp1.png,exp2.png,,,,,,,,,,,,,,,,,,1,0,1,0,0,2,2,2,,,,,,,,,False,22,103,False,exp1.png,exp2.png,trial_left_image,1,exp1.png,1,exp2.png,exp1.png,1,3,reversed,incorrect,0.8725173396228366,0,valid_lose,766.5034942999482,47,,,,,,,,,,,,,,,,sub_777,2024-04-18_10h03.54.690,Reversal,2022.1.2,60.04841088017598,1,
3,exp3.png,exp4.png,,,,,,,,,,,,,,,,,,1,0,1,0,0,3,3,3,,,,,,,,,False,23,104,True,exp4.png,exp3.png,trial_right_image,-1,exp3.png,1,exp3.png,exp4.png,1,1,non-reversed,correct,0.5466618661785838,1,valid_win,771.2202722001821,48,,,,,,,,,,,,,,,,sub_777,2024-04-18_10h03.54.690,Reversal,2022.1.2,60.04841088017598,1,
4,exp1.png,exp2.png,,,,,,,,,,,,,,,,,,1,0,1,0,0,4,4,4,,,,,,,,,False,24,105,False,exp1.png,exp2.png,trial_right_image,-1,exp2.png,1,exp2.png,exp1.png,0,4,reversed,correct,0.5585440788420001,1,valid_win,777.2205401007086,49,,,,,,,,,,,,,,,,sub_777,2024-04-18_10h03.54.690,Reversal,2022.1.2,60.04841088017598,1,
5,exp3.png,exp4.png,,,,,,,,,,,,,,,,,,1,0,1,0,0,5,5,5,,,,,,,,,False,25,106,False,exp3.png,exp4.png,trial_left_image,1,exp3.png,1,exp3.png,exp4.png,1,1,non-reversed,correct,0.3912800727210848,1,valid_win,782.1025645006448,50,,,,,,,,,,,,,,,,sub_777,2024-04-18_10h03.54.690,Reversal,2022.1.2,60.04841088017598,1,
6,exp1.png,exp2.png,,,,,,,,,,,,,,,,,,1,0,1,0,0,6,6,6,,,,,,,,,False,26,107,True,exp2.png,exp1.png,trial_right_image,-1,exp1.png,1,exp2.png,exp1.png,1,3,reversed,incorrect,0.651815277026293,0,valid_lose,787.170406400226,50,,,,,,,,,,,,,,,,sub_777,2024-04-18_10h03.54.690,Reversal,2022.1.2,60.04841088017598,1,
7,exp3.png,exp4.png,,,,,,,,,,,,,,,,,,1,0,1,0,0,7,7,7,,,,,,,,,False,27,108,True,exp4.png,exp3.png,trial_left_image,1,exp4.png,1,exp3.png,exp4.png,0,2,non-reversed,incorrect,0.13090726451393264,1,invalid_win,791.9699007002637,51,,,,,,,,,,,,,,,,sub_777,2024-04-18_10h03.54.690,Reversal,2022.1.2,60.04841088017598,1,
8,exp1.png,exp2.png,,,,,,,,,,,,,,,,,,1,0,1,0,0,8,8,8,,,,,,,,,False,28,109,False,exp1.png,exp2.png,trial_right_image,-1,exp2.png,1,exp2.png,exp1.png,0,4,reversed,correct,0.7590471206802396,1,valid_win,796.1363604003564,52,,,,,,,,,,,,,,,,sub_777,2024-04-18_10h03.54.690,Reversal,2022.1.2,60.04841088017598,1,
9,exp3.png,exp4.png,,,,,,,,,,,,,,,,,,1,0,1,0,0,9,9,9,,,,,,,,,False,29,110,False,exp3.png,exp4.png,trial_right_image,-1,exp4.png,1,exp3.png,exp4.png,0,2,non-reversed,incorrect,0.670545371278622,0,valid_lose,801.9360704999417,52,,,,,,,,,,,,,,,,sub_777,2024-04-18_10h03.54.690,Reversal,2022.1.2,60.04841088017598,1,
10,exp1.png,exp2.png,,,,,,,,,,,,,,,,,,1,0,1,0,0,10,10,10,,,,,,,,,False,30,111,False,exp1.png,exp2.png,trial_left_image,1,exp1.png,1,exp2.png,exp1.png,1,3,reversed,incorrect,0.0686371800213007,1,invalid_win,805.9036528002471,53,,,,,,,,,,,,,,,,sub_777,2024-04-18_10h03.54.690,Reversal,2022.1.2,60.04841088017598,1,
11,exp3.png,exp4.png,,,,,,,,,,,,,,,,,,1,0,1,0,0,11,11,11,,,,,,,,,False,31,112,True,exp4.png,exp3.png,trial_right_image,-1,exp3.png,1,exp3.png,exp4.png,1,1,non-reversed,correct,0.7534239300232152,1,valid_win,809.9533542999998,54,,,,,,,,,,,,,,,,sub_777,2024-04-18_10h03.54.690,Reversal,2022.1.2,60.04841088017598,1,
12,exp1.png,exp2.png,,,,,,,,,,,,,,,,,,1,0,1,0,0,12,12,12,,,,,,,,,False,32,113,True,exp2.png,exp1.png,trial_right_image,-1,exp1.png,1,exp2.png,exp1.png,1,3,reversed,incorrect,0.19380351686703834,1,invalid_win,814.0197417000309,55,,,,,,,,,,,,,,,,sub_777,2024-04-18_10h03.54.690,Reversal,2022.1.2,60.04841088017598,1,
13,exp3.png,exp4.png,,,,,,,,,,,,,,,,,,1,0,1,0,0,13,13,13,,,,,,,,,False,33,114,True,exp4.png,exp3.png,trial_right_image,-1,exp3.png,1,exp3.png,exp4.png,1,1,non-reversed,correct,0.44834854400602264,1,valid_win,818.0697971004993,56,,,,,,,,,,,,,,,,sub_777,2024-04-18_10h03.54.690,Reversal,2022.1.2,60.04841088017598,1,
14,exp1.png,exp2.png,,,,,,,,,,,,,,,,,,1,0,1,0,0,14,14,14,,,,,,,,,False,34,115,True,exp2.png,exp1.png,trial_left_image,1,exp2.png,1,exp2.png,exp1.png,0,4,reversed,correct,0.0770484514976777,0,invalid_lose,822.6026504002512,56,,,,,,,,,,,,,,,,sub_777,2024-04-18_10h03.54.690,Reversal,2022.1.2,60.04841088017598,1,
15,exp3.png,exp4.png,,,,,,,,,,,,,,,,,,1,0,1,0,0,15,15,15,,,,,,,,,False,35,116,True,exp4.png,exp3.png,trial_right_image,-1,exp3.png,1,exp3.png,exp4.png,1,1,non-reversed,correct,0.308666759237045,1,valid_win,826.835936400108,57,,,,,,,,,,,,,,,,sub_777,2024-04-18_10h03.54.690,Reversal,2022.1.2,60.04841088017598,1,
16,exp1.png,exp2.png,,,,,,,,,,,,,,,,,,1,0,1,0,0,16,16,16,,,,,,,,,False,36,117,False,exp1.png,exp2.png,trial_right_image,-1,exp2.png,1,exp2.png,exp1.png,0,4,reversed,correct,0.6291378076138772,1,valid_win,831.8693064004183,58,,,,,,,,,,,,,,,,sub_777,2024-04-18_10h03.54.690,Reversal,2022.1.2,60.04841088017598,1,
17,exp3.png,exp4.png,,,,,,,,,,,,,,,,,,1,0,1,0,0,17,17,17,,,,,,,,,False,37,118,True,exp4.png,exp3.png,trial_right_image,-1,exp3.png,1,exp3.png,exp4.png,1,1,non-reversed,correct,0.24785627518478037,0,invalid_lose,835.9861735999584,58,,,,,,,,,,,,,,,,sub_777,2024-04-18_10h03.54.690,Reversal,2022.1.2,60.04841088017598,1,
18,exp1.png,exp2.png,,,,,,,,,,,,,,,,,,1,0,1,0,0,18,18,18,,,,,,,,,False,38,119,False,exp1.png,exp2.png,trial_left_image,1,exp1.png,1,exp2.png,exp1.png,1,3,reversed,incorrect,0.1862644246745072,1,invalid_win,840.7024198006839,59,,,,,,,,,,,,,,,,sub_777,2024-04-18_10h03.54.690,Reversal,2022.1.2,60.04841088017598,1,
19,exp3.png,exp4.png,,,,,,,,,,,,,,,,,,1,0,1,0,0,19,19,19,,,,,,,,,False,39,120,True,exp4.png,exp3.png,trial_right_image,-1,exp3.png,1,exp3.png,exp4.png,1,1,non-reversed,correct,0.7060239400836037,1,valid_win,845.652815900743,60,,,,,,,,,,,,,,,,sub_777,2024-04-18_10h03.54.690,Reversal,2022.1.2,60.04841088017598,1,
20,exp1.png,exp2.png,,,,,,,,,,,,,,,,,,1,0,1,0,0,20,20,20,,,,,,,,,True,,,,,,,,,,,,,,,,,,,,,,,,,,,,,,,,,,,,sub_777,2024-04-18_10h03.54.690,Reversal,2022.1.2,60.04841088017598,1,
,,,exp1.png,,,,,,,,,,,,,,,,,1,0,1,0,,,,,0,0,0,0,0,0,0,0,,,,,,,,,,,,,,,,,,,,,,71.0,71.0,2.6937624998390675,"[(71.0, 2.6937624998390675)]",964.6833000993356,None,,,,,,,,,,sub_777,2024-04-18_10h03.54.690,Reversal,2022.1.2,60.04841088017598,1,
,,,exp2.png,,,,,,,,,,,,,,,,,1,0,1,0,,,,,0,0,0,0,0,1,1,1,,,,,,,,,,,,,,,,,,,,,,,68.0,2.0014551002532244,"[(68.0, 2.0014551002532244)]",968.2403632001951,None,68.0,,,,,,,,,sub_777,2024-04-18_10h03.54.690,Reversal,2022.1.2,60.04841088017598,1,
,,,exp3.png,,,,,,,,,,,,,,,,,1,0,1,0,,,,,0,0,0,0,0,2,2,2,,,,,,,,,,,,,,,,,,,,,,,30.0,1.117484400048852,"[(30.0, 1.117484400048852)]",972.9739847993478,None,,30.0,,,,,,,,sub_777,2024-04-18_10h03.54.690,Reversal,2022.1.2,60.04841088017598,1,
,,,exp4.png,,,,,,,,,,,,,,,,,1,0,1,0,,,,,0,0,0,0,0,3,3,3,,,,,,,,,,,,,,,,,,,,,,,50.0,None,[],974.4277905998752,None,,,,,,,,,,sub_777,2024-04-18_10h03.54.690,Reversal,2022.1.2,60.04841088017598,1,
0,exp1.png,exp2.png,,,,,,,,,,,,,,,,,,2,0,2,0,0,0,0,0,,,,,,,,,False,40,121,False,exp1.png,exp2.png,trial_right_image,-1,exp2.png,1,exp2.png,exp1.png,0,4,reversed,correct,0.8630474295695487,1,valid_win,861.2519689006731,61,,,,,,,,,,,,,,,,sub_777,2024-04-18_10h03.54.690,Reversal,2022.1.2,60.04841088017598,1,
1,exp3.png,exp4.png,,,,,,,,,,,,,,,,,,2,0,2,0,0,1,1,1,,,,,,,,,False,41,122,False,exp3.png,exp4.png,trial_left_image,1,exp3.png,1,exp3.png,exp4.png,1,1,non-reversed,correct,0.5296388539939354,1,valid_win,865.4853381002322,62,,,,,,,,,,,,,,,,sub_777,2024-04-18_10h03.54.690,Reversal,2022.1.2,60.04841088017598,1,
2,exp1.png,exp2.png,,,,,,,,,,,,,,,,,,2,0,2,0,0,2,2,2,,,,,,,,,False,42,123,False,exp1.png,exp2.png,trial_right_image,-1,exp2.png,1,exp2.png,exp1.png,0,4,reversed,correct,0.5032958062206547,1,valid_win,869.4520738003775,63,,,,,,,,,,,,,,,,sub_777,2024-04-18_10h03.54.690,Reversal,2022.1.2,60.04841088017598,1,
3,exp3.png,exp4.png,,,,,,,,,,,,,,,,,,2,0,2,0,0,3,3,3,,,,,,,,,False,43,124,False,exp3.png,exp4.png,trial_right_image,-1,exp4.png,1,exp3.png,exp4.png,0,2,non-reversed,incorrect,0.9155078381804397,0,valid_lose,873.5517433006316,63,,,,,,,,,,,,,,,,sub_777,2024-04-18_10h03.54.690,Reversal,2022.1.2,60.04841088017598,1,
4,exp1.png,exp2.png,,,,,,,,,,,,,,,,,,2,0,2,0,0,4,4,4,,,,,,,,,False,44,125,False,exp1.png,exp2.png,trial_left_image,1,exp1.png,1,exp2.png,exp1.png,1,3,reversed,incorrect,0.7279774126117611,0,valid_lose,877.7186365006492,63,,,,,,,,,,,,,,,,sub_777,2024-04-18_10h03.54.690,Reversal,2022.1.2,60.04841088017598,1,
5,exp3.png,exp4.png,,,,,,,,,,,,,,,,,,2,0,2,0,0,5,5,5,,,,,,,,,False,45,126,True,exp4.png,exp3.png,trial_right_image,-1,exp3.png,1,exp3.png,exp4.png,1,1,non-reversed,correct,0.21500929014387515,0,invalid_lose,881.6683464003727,63,,,,,,,,,,,,,,,,sub_777,2024-04-18_10h03.54.690,Reversal,2022.1.2,60.04841088017598,1,
6,exp1.png,exp2.png,,,,,,,,,,,,,,,,,,2,0,2,0,0,6,6,6,,,,,,,,,False,46,127,True,exp2.png,exp1.png,trial_right_image,-1,exp1.png,1,exp2.png,exp1.png,1,3,reversed,incorrect,0.27626774134949106,0,valid_lose,885.6351163005456,63,,,,,,,,,,,,,,,,sub_777,2024-04-18_10h03.54.690,Reversal,2022.1.2,60.04841088017598,1,
7,exp3.png,exp4.png,,,,,,,,,,,,,,,,,,2,0,2,0,0,7,7,7,,,,,,,,,False,47,128,True,exp4.png,exp3.png,trial_left_image,1,exp4.png,1,exp3.png,exp4.png,0,2,non-reversed,incorrect,0.8863931835231097,0,valid_lose,889.7683196002617,63,,,,,,,,,,,,,,,,sub_777,2024-04-18_10h03.54.690,Reversal,2022.1.2,60.04841088017598,1,
8,exp1.png,exp2.png,,,,,,,,,,,,,,,,,,2,0,2,0,0,8,8,8,,,,,,,,,False,48,129,False,exp1.png,exp2.png,trial_right_image,-1,exp2.png,1,exp2.png,exp1.png,0,4,reversed,correct,0.2107031053721632,0,invalid_lose,893.8349890001118,63,,,,,,,,,,,,,,,,sub_777,2024-04-18_10h03.54.690,Reversal,2022.1.2,60.04841088017598,1,
9,exp3.png,exp4.png,,,,,,,,,,,,,,,,,,2,0,2,0,0,9,9,9,,,,,,,,,False,49,130,False,exp3.png,exp4.png,trial_right_image,-1,exp4.png,1,exp3.png,exp4.png,0,2,non-reversed,incorrect,0.801623295745079,0,valid_lose,896.9179616998881,63,,,,,,,,,,,,,,,,sub_777,2024-04-18_10h03.54.690,Reversal,2022.1.2,60.04841088017598,1,
10,exp1.png,exp2.png,,,,,,,,,,,,,,,,,,2,0,2,0,0,10,10,10,,,,,,,,,False,50,131,True,exp2.png,exp1.png,trial_left_image,1,exp2.png,1,exp2.png,exp1.png,0,4,reversed,correct,0.7859121313365321,1,valid_win,901.3678840007633,64,,,,,,,,,,,,,,,,sub_777,2024-04-18_10h03.54.690,Reversal,2022.1.2,60.04841088017598,1,
11,exp3.png,exp4.png,,,,,,,,,,,,,,,,,,2,0,2,0,0,11,11,11,,,,,,,,,False,51,132,True,exp4.png,exp3.png,trial_right_image,-1,exp3.png,1,exp3.png,exp4.png,1,1,non-reversed,correct,0.10346991051587706,0,invalid_lose,905.38473250065,64,,,,,,,,,,,,,,,,sub_777,2024-04-18_10h03.54.690,Reversal,2022.1.2,60.04841088017598,1,
12,exp1.png,exp2.png,,,,,,,,,,,,,,,,,,2,0,2,0,0,12,12,12,,,,,,,,,False,52,133,False,exp1.png,exp2.png,trial_left_image,1,exp1.png,1,exp2.png,exp1.png,1,3,reversed,incorrect,0.3914209222647218,0,valid_lose,909.8511415999383,64,,,,,,,,,,,,,,,,sub_777,2024-04-18_10h03.54.690,Reversal,2022.1.2,60.04841088017598,1,
13,exp3.png,exp4.png,,,,,,,,,,,,,,,,,,2,0,2,0,0,13,13,13,,,,,,,,,False,53,134,True,exp4.png,exp3.png,trial_right_image,-1,exp3.png,1,exp3.png,exp4.png,1,1,non-reversed,correct,0.8437531894280842,1,valid_win,913.7337247999385,65,,,,,,,,,,,,,,,,sub_777,2024-04-18_10h03.54.690,Reversal,2022.1.2,60.04841088017598,1,
14,exp1.png,exp2.png,,,,,,,,,,,,,,,,,,2,0,2,0,0,14,14,14,,,,,,,,,False,54,135,True,exp2.png,exp1.png,trial_right_image,-1,exp1.png,1,exp2.png,exp1.png,1,3,reversed,incorrect,0.34062055217557863,0,valid_lose,919.501268000342,65,,,,,,,,,,,,,,,,sub_777,2024-04-18_10h03.54.690,Reversal,2022.1.2,60.04841088017598,1,
15,exp3.png,exp4.png,,,,,,,,,,,,,,,,,,2,0,2,0,0,15,15,15,,,,,,,,,False,55,136,False,exp3.png,exp4.png,trial_right_image,-1,exp4.png,1,exp3.png,exp4.png,0,2,non-reversed,incorrect,0.10603182961553514,1,invalid_win,923.6334906006232,66,,,,,,,,,,,,,,,,sub_777,2024-04-18_10h03.54.690,Reversal,2022.1.2,60.04841088017598,1,
16,exp1.png,exp2.png,,,,,,,,,,,,,,,,,,2,0,2,0,0,16,16,16,,,,,,,,,False,56,137,False,exp1.png,exp2.png,trial_right_image,-1,exp2.png,1,exp2.png,exp1.png,0,4,reversed,correct,0.6826197682488394,1,valid_win,931.9343560002744,67,,,,,,,,,,,,,,,,sub_777,2024-04-18_10h03.54.690,Reversal,2022.1.2,60.04841088017598,1,
17,exp3.png,exp4.png,,,,,,,,,,,,,,,,,,2,0,2,0,0,17,17,17,,,,,,,,,False,57,138,True,exp4.png,exp3.png,trial_left_image,1,exp4.png,1,exp3.png,exp4.png,0,2,non-reversed,incorrect,0.41269703063080965,0,valid_lose,936.9178726999089,67,,,,,,,,,,,,,,,,sub_777,2024-04-18_10h03.54.690,Reversal,2022.1.2,60.04841088017598,1,
18,exp1.png,exp2.png,,,,,,,,,,,,,,,,,,2,0,2,0,0,18,18,18,,,,,,,,,False,58,139,True,exp2.png,exp1.png,trial_left_image,1,exp2.png,1,exp2.png,exp1.png,0,4,reversed,correct,0.7807966814300488,1,valid_win,946.8672144999728,68,,,,,,,,,,,,,,,,sub_777,2024-04-18_10h03.54.690,Reversal,2022.1.2,60.04841088017598,1,
19,exp3.png,exp4.png,,,,,,,,,,,,,,,,,,2,0,2,0,0,19,19,19,,,,,,,,,False,59,140,True,exp4.png,exp3.png,trial_left_image,1,exp4.png,1,exp3.png,exp4.png,0,2,non-reversed,incorrect,0.24108837336433464,1,invalid_win,952.1340140001848,69,,,,,,,,,,,,,,,,sub_777,2024-04-18_10h03.54.690,Reversal,2022.1.2,60.04841088017598,1,
20,exp1.png,exp2.png,,,,,,,,,,,,,,,,,,2,0,2,0,0,20,20,20,,,,,,,,,True,,,,,,,,,,,,,,,,,,,,,,,,,,,,,,,,,,,,sub_777,2024-04-18_10h03.54.690,Reversal,2022.1.2,60.04841088017598,1,
,,,exp1.png,,,,,,,,,,,,,,,,,2,0,2,0,,,,,0,0,0,0,0,0,0,0,,,,,,,,,,,,,,,,,,,,,,67.0,67.0,5.256176699884236,"[(67.0, 5.256176699884236)]",1071.1520611001179,None,,,,,,,,,,sub_777,2024-04-18_10h03.54.690,Reversal,2022.1.2,60.04841088017598,1,
,,,exp2.png,,,,,,,,,,,,,,,,,2,0,2,0,,,,,0,0,0,0,0,1,1,1,,,,,,,,,,,,,,,,,,,,,,,50.0,None,[],1078.2796877995133,None,,,,,,,,,,sub_777,2024-04-18_10h03.54.690,Reversal,2022.1.2,60.04841088017598,1,
,,,exp3.png,,,,,,,,,,,,,,,,,2,0,2,0,,,,,0,0,0,0,0,2,2,2,,,,,,,,,,,,,,,,,,,,,,,60.0,2.2932881005108356,"[(60.0, 2.2932881005108356)]",1078.721332299523,None,,60.0,,,,,,,,sub_777,2024-04-18_10h03.54.690,Reversal,2022.1.2,60.04841088017598,1,
,,,exp4.png,,,,,,,,,,,,,,,,,2,0,2,0,,,,,0,0,0,0,0,3,3,3,,,,,,,,,,,,,,,,,,,,,,,53.0,0.19655630085617304,"[(53.0, 0.19655630085617304)]",1081.7135568996891,None,,,53.0,,,,,,,sub_777,2024-04-18_10h03.54.690,Reversal,2022.1.2,60.04841088017598,1,
,,,,,,,,,,,,,,,,,,,,,,,,,,,,,,,,,,,,,,,,,,,,,,,,,,,,,,,,69,,,,,,,,,,,54,19,35,333.89102550037205,1,,,,,,,
