trial_index,trial_image1_file,trial_image2_file,image_file,learning_outer_loop.thisRepN,learning_outer_loop.thisTrialN,learning_outer_loop.thisN,learning_outer_loop.thisIndex,learning_inner_loop.thisRepN,learning_inner_loop.thisTrialN,learning_inner_loop.thisN,learning_inner_loop.thisIndex,learning_estimation_outer_loop.thisRepN,learning_estimation_outer_loop.thisTrialN,learning_estimation_outer_loop.thisN,learning_estimation_outer_loop.thisIndex,learning_estimation_inner_loop.thisRepN,learning_estimation_inner_loop.thisTrialN,learning_estimation_inner_loop.thisN,learning_estimation_inner_loop.thisIndex,reversal_outer_loop.thisRepN,reversal_outer_loop.thisTrialN,reversal_outer_loop.thisN,reversal_outer_loop.thisIndex,reversal_inner_loop.thisRepN,reversal_inner_loop.thisTrialN,reversal_inner_loop.thisN,reversal_inner_loop.thisIndex,reversal_estimation_outer_loop.thisRepN,reversal_estimation_outer_loop.thisTrialN,reversal_estimation_outer_loop.thisN,reversal_estimation_outer_loop.thisIndex,reversal_estimation_inner_loop.thisRepN,reversal_estimation_inner_loop.thisTrialN,reversal_estimation_inner_loop.thisN,reversal_estimation_inner_loop.thisIndex,skipped,total_trial_counter,trial_num,left_right_flip,left_image_file,right_image_file,clicked_stimulus_side,side,clicked_stimulus,version,high_prob_image_file,low_prob_image_file,choice_a,choice_b,pair_type,correct,trial_feedback_random,reward,trial_type,overall_time_after_trial,score,estimation_exp1.png,estimation_rating.response,estimation_rating.rt,estimation_rating.history,estimation_rating.started,estimation_rating.stopped,estimation_exp3.png,estimation_exp4.png,estimation_exp2.png,total_learning_time,total_correct,learning_correct,reversal_correct,total_reversal_time,extra_block,participant,date,expName,psychopyVersion,frameRate,ver,
0,exp1.png,exp2.png,,0,0,0,0,0,0,0,0,,,,,,,,,,,,,,,,,,,,,,,,,False,0,1,False,exp1.png,exp2.png,trial_right_image,-1,exp2.png,4,exp2.png,exp1.png,1,1,non-reversed,correct,0.35587470079483896,1,valid_win,6.31681650003884,1,,,,,,,,,,,,,,,,sub_212,2023-01-24_17h56.05.823,Reversal,2022.1.2,60.057246569855806,4,
1,exp3.png,exp4.png,,0,0,0,0,0,1,1,1,,,,,,,,,,,,,,,,,,,,,,,,,False,1,2,False,exp3.png,exp4.png,trial_left_image,1,exp3.png,4,exp4.png,exp3.png,0,4,reversed,incorrect,0.9163180288463084,0,valid_lose,25.416054800036363,1,,,,,,,,,,,,,,,,sub_212,2023-01-24_17h56.05.823,Reversal,2022.1.2,60.057246569855806,4,
2,exp1.png,exp2.png,,0,0,0,0,0,2,2,2,,,,,,,,,,,,,,,,,,,,,,,,,False,2,3,True,exp2.png,exp1.png,trial_right_image,-1,exp1.png,4,exp2.png,exp1.png,0,2,non-reversed,incorrect,0.645478482205113,0,valid_lose,31.58260349999182,1,,,,,,,,,,,,,,,,sub_212,2023-01-24_17h56.05.823,Reversal,2022.1.2,60.057246569855806,4,
3,exp3.png,exp4.png,,0,0,0,0,0,3,3,3,,,,,,,,,,,,,,,,,,,,,,,,,False,3,4,False,exp3.png,exp4.png,trial_right_image,-1,exp4.png,4,exp4.png,exp3.png,1,3,reversed,correct,0.7598463712484631,1,valid_win,37.532353100017644,2,,,,,,,,,,,,,,,,sub_212,2023-01-24_17h56.05.823,Reversal,2022.1.2,60.057246569855806,4,
4,exp1.png,exp2.png,,0,0,0,0,0,4,4,4,,,,,,,,,,,,,,,,,,,,,,,,,False,4,5,True,exp2.png,exp1.png,trial_left_image,1,exp2.png,4,exp2.png,exp1.png,1,1,non-reversed,correct,0.7881890440559466,1,valid_win,42.63287099997979,3,,,,,,,,,,,,,,,,sub_212,2023-01-24_17h56.05.823,Reversal,2022.1.2,60.057246569855806,4,
5,exp3.png,exp4.png,,0,0,0,0,0,5,5,5,,,,,,,,,,,,,,,,,,,,,,,,,False,5,6,False,exp3.png,exp4.png,trial_right_image,-1,exp4.png,4,exp4.png,exp3.png,1,3,reversed,correct,0.6741810633363248,1,valid_win,47.8653494999744,4,,,,,,,,,,,,,,,,sub_212,2023-01-24_17h56.05.823,Reversal,2022.1.2,60.057246569855806,4,
6,exp1.png,exp2.png,,0,0,0,0,0,6,6,6,,,,,,,,,,,,,,,,,,,,,,,,,False,6,7,False,exp1.png,exp2.png,trial_right_image,-1,exp2.png,4,exp2.png,exp1.png,1,1,non-reversed,correct,0.1415092408755485,0,invalid_lose,53.3823961999733,4,,,,,,,,,,,,,,,,sub_212,2023-01-24_17h56.05.823,Reversal,2022.1.2,60.057246569855806,4,
7,exp3.png,exp4.png,,0,0,0,0,0,7,7,7,,,,,,,,,,,,,,,,,,,,,,,,,False,7,8,False,exp3.png,exp4.png,trial_left_image,1,exp3.png,4,exp4.png,exp3.png,0,4,reversed,incorrect,0.045120002450704355,1,invalid_win,60.815653300029226,5,,,,,,,,,,,,,,,,sub_212,2023-01-24_17h56.05.823,Reversal,2022.1.2,60.057246569855806,4,
8,exp1.png,exp2.png,,0,0,0,0,0,8,8,8,,,,,,,,,,,,,,,,,,,,,,,,,False,8,9,True,exp2.png,exp1.png,trial_left_image,1,exp2.png,4,exp2.png,exp1.png,1,1,non-reversed,correct,0.2685883261051796,1,valid_win,67.28249639994465,6,,,,,,,,,,,,,,,,sub_212,2023-01-24_17h56.05.823,Reversal,2022.1.2,60.057246569855806,4,
9,exp3.png,exp4.png,,0,0,0,0,0,9,9,9,,,,,,,,,,,,,,,,,,,,,,,,,False,9,10,False,exp3.png,exp4.png,trial_right_image,-1,exp4.png,4,exp4.png,exp3.png,1,3,reversed,correct,0.8861281014140445,1,valid_win,74.43245409999508,7,,,,,,,,,,,,,,,,sub_212,2023-01-24_17h56.05.823,Reversal,2022.1.2,60.057246569855806,4,
10,exp1.png,exp2.png,,0,0,0,0,0,10,10,10,,,,,,,,,,,,,,,,,,,,,,,,,False,10,11,True,exp2.png,exp1.png,trial_right_image,-1,exp1.png,4,exp2.png,exp1.png,0,2,non-reversed,incorrect,0.6683867997920847,0,valid_lose,80.76496880000923,7,,,,,,,,,,,,,,,,sub_212,2023-01-24_17h56.05.823,Reversal,2022.1.2,60.057246569855806,4,
11,exp3.png,exp4.png,,0,0,0,0,0,11,11,11,,,,,,,,,,,,,,,,,,,,,,,,,False,11,12,True,exp4.png,exp3.png,trial_left_image,1,exp4.png,4,exp4.png,exp3.png,1,3,reversed,correct,0.7011600016454865,1,valid_win,88.43187560001388,8,,,,,,,,,,,,,,,,sub_212,2023-01-24_17h56.05.823,Reversal,2022.1.2,60.057246569855806,4,
12,exp1.png,exp2.png,,0,0,0,0,0,12,12,12,,,,,,,,,,,,,,,,,,,,,,,,,False,12,13,False,exp1.png,exp2.png,trial_right_image,-1,exp2.png,4,exp2.png,exp1.png,1,1,non-reversed,correct,0.8372571770916134,1,valid_win,94.39788840000983,9,,,,,,,,,,,,,,,,sub_212,2023-01-24_17h56.05.823,Reversal,2022.1.2,60.057246569855806,4,
13,exp3.png,exp4.png,,0,0,0,0,0,13,13,13,,,,,,,,,,,,,,,,,,,,,,,,,False,13,14,True,exp4.png,exp3.png,trial_right_image,-1,exp3.png,4,exp4.png,exp3.png,0,4,reversed,incorrect,0.6887934516570283,0,valid_lose,99.9315576000372,9,,,,,,,,,,,,,,,,sub_212,2023-01-24_17h56.05.823,Reversal,2022.1.2,60.057246569855806,4,
14,exp1.png,exp2.png,,0,0,0,0,0,14,14,14,,,,,,,,,,,,,,,,,,,,,,,,,False,14,15,True,exp2.png,exp1.png,trial_right_image,-1,exp1.png,4,exp2.png,exp1.png,0,2,non-reversed,incorrect,0.3428718737155382,0,valid_lose,108.3817490999354,9,,,,,,,,,,,,,,,,sub_212,2023-01-24_17h56.05.823,Reversal,2022.1.2,60.057246569855806,4,
15,exp3.png,exp4.png,,0,0,0,0,0,15,15,15,,,,,,,,,,,,,,,,,,,,,,,,,False,15,16,True,exp4.png,exp3.png,trial_left_image,1,exp4.png,4,exp4.png,exp3.png,1,3,reversed,correct,0.1957748418742148,0,invalid_lose,115.89744440000504,9,,,,,,,,,,,,,,,,sub_212,2023-01-24_17h56.05.823,Reversal,2022.1.2,60.057246569855806,4,
16,exp1.png,exp2.png,,0,0,0,0,0,16,16,16,,,,,,,,,,,,,,,,,,,,,,,,,False,16,17,True,exp2.png,exp1.png,trial_left_image,1,exp2.png,4,exp2.png,exp1.png,1,1,non-reversed,correct,0.556832702954839,1,valid_win,121.53083209996112,10,,,,,,,,,,,,,,,,sub_212,2023-01-24_17h56.05.823,Reversal,2022.1.2,60.057246569855806,4,
17,exp3.png,exp4.png,,0,0,0,0,0,17,17,17,,,,,,,,,,,,,,,,,,,,,,,,,False,17,18,False,exp3.png,exp4.png,trial_left_image,1,exp3.png,4,exp4.png,exp3.png,0,4,reversed,incorrect,0.5741720540229804,0,valid_lose,128.81410499999765,10,,,,,,,,,,,,,,,,sub_212,2023-01-24_17h56.05.823,Reversal,2022.1.2,60.057246569855806,4,
18,exp1.png,exp2.png,,0,0,0,0,0,18,18,18,,,,,,,,,,,,,,,,,,,,,,,,,False,18,19,False,exp1.png,exp2.png,trial_right_image,-1,exp2.png,4,exp2.png,exp1.png,1,1,non-reversed,correct,0.21789210552193294,0,invalid_lose,134.58098460000474,10,,,,,,,,,,,,,,,,sub_212,2023-01-24_17h56.05.823,Reversal,2022.1.2,60.057246569855806,4,
19,exp3.png,exp4.png,,0,0,0,0,0,19,19,19,,,,,,,,,,,,,,,,,,,,,,,,,False,19,20,True,exp4.png,exp3.png,trial_right_image,-1,exp3.png,4,exp4.png,exp3.png,0,4,reversed,incorrect,0.2476092411184584,1,invalid_win,140.93040529999416,11,,,,,,,,,,,,,,,,sub_212,2023-01-24_17h56.05.823,Reversal,2022.1.2,60.057246569855806,4,
20,exp1.png,exp2.png,,0,0,0,0,0,20,20,20,,,,,,,,,,,,,,,,,,,,,,,,,True,,,,,,,,,,,,,,,,,,,,,,,,,,,,,,,,,,,,sub_212,2023-01-24_17h56.05.823,Reversal,2022.1.2,60.057246569855806,4,
,,,exp1.png,0,0,0,0,,,,,0,0,0,0,0,0,0,0,,,,,,,,,,,,,,,,,,,,,,,,,,,,,,,,,,,,,,100.0,100.0,17.807915899902582,"[(100.0, 17.807915899902582)]",200.94390119996388,None,,,,,,,,,,sub_212,2023-01-24_17h56.05.823,Reversal,2022.1.2,60.057246569855806,4,
,,,exp2.png,0,0,0,0,,,,,0,0,0,0,0,1,1,1,,,,,,,,,,,,,,,,,,,,,,,,,,,,,,,,,,,,,,,50.0,None,[],220.00950729998294,None,,,,,,,,,,sub_212,2023-01-24_17h56.05.823,Reversal,2022.1.2,60.057246569855806,4,
,,,exp3.png,0,0,0,0,,,,,0,0,0,0,0,2,2,2,,,,,,,,,,,,,,,,,,,,,,,,,,,,,,,,,,,,,,,1.0,3.4671679999446496,"[(1.0, 3.4671679999446496)]",227.9788700999925,None,1.0,,,,,,,,,sub_212,2023-01-24_17h56.05.823,Reversal,2022.1.2,60.057246569855806,4,
,,,exp4.png,0,0,0,0,,,,,0,0,0,0,0,3,3,3,,,,,,,,,,,,,,,,,,,,,,,,,,,,,,,,,,,,,,,100.0,5.018980799941346,"[(100.0, 5.018980799941346)]",232.62135949998628,None,,100.0,,,,,,,,sub_212,2023-01-24_17h56.05.823,Reversal,2022.1.2,60.057246569855806,4,
0,exp1.png,exp2.png,,1,0,1,0,0,0,0,0,,,,,,,,,,,,,,,,,,,,,,,,,False,20,21,False,exp1.png,exp2.png,trial_right_image,-1,exp2.png,4,exp2.png,exp1.png,1,1,non-reversed,correct,0.1581015242205812,0,invalid_lose,186.89567530003842,11,,,,,,,,,,,,,,,,sub_212,2023-01-24_17h56.05.823,Reversal,2022.1.2,60.057246569855806,4,
1,exp3.png,exp4.png,,1,0,1,0,0,1,1,1,,,,,,,,,,,,,,,,,,,,,,,,,False,21,22,True,exp4.png,exp3.png,trial_left_image,1,exp4.png,4,exp4.png,exp3.png,1,3,reversed,correct,0.5011940828679349,1,valid_win,192.42950790002942,12,,,,,,,,,,,,,,,,sub_212,2023-01-24_17h56.05.823,Reversal,2022.1.2,60.057246569855806,4,
2,exp1.png,exp2.png,,1,0,1,0,0,2,2,2,,,,,,,,,,,,,,,,,,,,,,,,,False,22,23,False,exp1.png,exp2.png,trial_right_image,-1,exp2.png,4,exp2.png,exp1.png,1,1,non-reversed,correct,0.9771134816043058,1,valid_win,198.2294688000111,13,,,,,,,,,,,,,,,,sub_212,2023-01-24_17h56.05.823,Reversal,2022.1.2,60.057246569855806,4,
3,exp3.png,exp4.png,,1,0,1,0,0,3,3,3,,,,,,,,,,,,,,,,,,,,,,,,,False,23,24,True,exp4.png,exp3.png,trial_left_image,1,exp4.png,4,exp4.png,exp3.png,1,3,reversed,correct,0.1796660738392062,0,invalid_lose,206.92914479994215,13,,,,,,,,,,,,,,,,sub_212,2023-01-24_17h56.05.823,Reversal,2022.1.2,60.057246569855806,4,
4,exp1.png,exp2.png,,1,0,1,0,0,4,4,4,,,,,,,,,,,,,,,,,,,,,,,,,False,24,25,False,exp1.png,exp2.png,trial_right_image,-1,exp2.png,4,exp2.png,exp1.png,1,1,non-reversed,correct,0.14138551483506312,0,invalid_lose,213.09632080001757,13,,,,,,,,,,,,,,,,sub_212,2023-01-24_17h56.05.823,Reversal,2022.1.2,60.057246569855806,4,
5,exp3.png,exp4.png,,1,0,1,0,0,5,5,5,,,,,,,,,,,,,,,,,,,,,,,,,False,25,26,False,exp3.png,exp4.png,trial_right_image,-1,exp4.png,4,exp4.png,exp3.png,1,3,reversed,correct,0.8899067151617011,1,valid_win,218.22953390004113,14,,,,,,,,,,,,,,,,sub_212,2023-01-24_17h56.05.823,Reversal,2022.1.2,60.057246569855806,4,
6,exp1.png,exp2.png,,1,0,1,0,0,6,6,6,,,,,,,,,,,,,,,,,,,,,,,,,False,26,27,True,exp2.png,exp1.png,trial_right_image,-1,exp1.png,4,exp2.png,exp1.png,0,2,non-reversed,incorrect,0.5129167515934594,0,valid_lose,223.42910159996245,14,,,,,,,,,,,,,,,,sub_212,2023-01-24_17h56.05.823,Reversal,2022.1.2,60.057246569855806,4,
7,exp3.png,exp4.png,,1,0,1,0,0,7,7,7,,,,,,,,,,,,,,,,,,,,,,,,,False,27,28,False,exp3.png,exp4.png,trial_right_image,-1,exp4.png,4,exp4.png,exp3.png,1,3,reversed,correct,0.0004268563107561185,0,invalid_lose,235.9958085999824,14,,,,,,,,,,,,,,,,sub_212,2023-01-24_17h56.05.823,Reversal,2022.1.2,60.057246569855806,4,
8,exp1.png,exp2.png,,1,0,1,0,0,8,8,8,,,,,,,,,,,,,,,,,,,,,,,,,False,28,29,False,exp1.png,exp2.png,trial_left_image,1,exp1.png,4,exp2.png,exp1.png,0,2,non-reversed,incorrect,0.0705328164959701,1,invalid_win,240.91268359997775,15,,,,,,,,,,,,,,,,sub_212,2023-01-24_17h56.05.823,Reversal,2022.1.2,60.057246569855806,4,
9,exp3.png,exp4.png,,1,0,1,0,0,9,9,9,,,,,,,,,,,,,,,,,,,,,,,,,False,29,30,False,exp3.png,exp4.png,trial_right_image,-1,exp4.png,4,exp4.png,exp3.png,1,3,reversed,correct,0.3073917707884034,1,valid_win,248.3120889000129,16,,,,,,,,,,,,,,,,sub_212,2023-01-24_17h56.05.823,Reversal,2022.1.2,60.057246569855806,4,
10,exp1.png,exp2.png,,1,0,1,0,0,10,10,10,,,,,,,,,,,,,,,,,,,,,,,,,False,30,31,True,exp2.png,exp1.png,trial_left_image,1,exp2.png,4,exp2.png,exp1.png,1,1,non-reversed,correct,0.7496285642113626,1,valid_win,255.59496200003196,17,,,,,,,,,,,,,,,,sub_212,2023-01-24_17h56.05.823,Reversal,2022.1.2,60.057246569855806,4,
11,exp3.png,exp4.png,,1,0,1,0,0,11,11,11,,,,,,,,,,,,,,,,,,,,,,,,,False,31,32,True,exp4.png,exp3.png,trial_right_image,-1,exp3.png,4,exp4.png,exp3.png,0,4,reversed,incorrect,0.5583366672073348,0,valid_lose,264.11242759996094,17,,,,,,,,,,,,,,,,sub_212,2023-01-24_17h56.05.823,Reversal,2022.1.2,60.057246569855806,4,
12,exp1.png,exp2.png,,1,0,1,0,0,12,12,12,,,,,,,,,,,,,,,,,,,,,,,,,False,32,33,False,exp1.png,exp2.png,trial_left_image,1,exp1.png,4,exp2.png,exp1.png,0,2,non-reversed,incorrect,0.3641241284143034,0,valid_lose,271.7950730000157,17,,,,,,,,,,,,,,,,sub_212,2023-01-24_17h56.05.823,Reversal,2022.1.2,60.057246569855806,4,
13,exp3.png,exp4.png,,1,0,1,0,0,13,13,13,,,,,,,,,,,,,,,,,,,,,,,,,False,33,34,False,exp3.png,exp4.png,trial_right_image,-1,exp4.png,4,exp4.png,exp3.png,1,3,reversed,correct,0.0011170901116166476,0,invalid_lose,277.71201499993913,17,,,,,,,,,,,,,,,,sub_212,2023-01-24_17h56.05.823,Reversal,2022.1.2,60.057246569855806,4,
14,exp1.png,exp2.png,,1,0,1,0,0,14,14,14,,,,,,,,,,,,,,,,,,,,,,,,,False,34,35,True,exp2.png,exp1.png,trial_left_image,1,exp2.png,4,exp2.png,exp1.png,1,1,non-reversed,correct,0.9248849601775493,1,valid_win,286.227886699955,18,,,,,,,,,,,,,,,,sub_212,2023-01-24_17h56.05.823,Reversal,2022.1.2,60.057246569855806,4,
15,exp3.png,exp4.png,,1,0,1,0,0,15,15,15,,,,,,,,,,,,,,,,,,,,,,,,,False,35,36,True,exp4.png,exp3.png,trial_left_image,1,exp4.png,4,exp4.png,exp3.png,1,3,reversed,correct,0.9105108473877624,1,valid_win,293.36117089993786,19,,,,,,,,,,,,,,,,sub_212,2023-01-24_17h56.05.823,Reversal,2022.1.2,60.057246569855806,4,
16,exp1.png,exp2.png,,1,0,1,0,0,16,16,16,,,,,,,,,,,,,,,,,,,,,,,,,False,36,37,True,exp2.png,exp1.png,trial_right_image,-1,exp1.png,4,exp2.png,exp1.png,0,2,non-reversed,incorrect,0.2555909694284053,0,valid_lose,299.3449322000379,19,,,,,,,,,,,,,,,,sub_212,2023-01-24_17h56.05.823,Reversal,2022.1.2,60.057246569855806,4,
17,exp3.png,exp4.png,,1,0,1,0,0,17,17,17,,,,,,,,,,,,,,,,,,,,,,,,,False,37,38,True,exp4.png,exp3.png,trial_left_image,1,exp4.png,4,exp4.png,exp3.png,1,3,reversed,correct,0.8141124974142567,1,valid_win,306.06108439993113,20,,,,,,,,,,,,,,,,sub_212,2023-01-24_17h56.05.823,Reversal,2022.1.2,60.057246569855806,4,
18,exp1.png,exp2.png,,1,0,1,0,0,18,18,18,,,,,,,,,,,,,,,,,,,,,,,,,False,38,39,True,exp2.png,exp1.png,trial_left_image,1,exp2.png,4,exp2.png,exp1.png,1,1,non-reversed,correct,0.4564502964850661,1,valid_win,311.54450910002925,21,,,,,,,,,,,,,,,,sub_212,2023-01-24_17h56.05.823,Reversal,2022.1.2,60.057246569855806,4,
19,exp3.png,exp4.png,,1,0,1,0,0,19,19,19,,,,,,,,,,,,,,,,,,,,,,,,,False,39,40,False,exp3.png,exp4.png,trial_right_image,-1,exp4.png,4,exp4.png,exp3.png,1,3,reversed,correct,0.21423874807845722,0,invalid_lose,316.22758359997533,21,,,,,,,,,,,,,,,,sub_212,2023-01-24_17h56.05.823,Reversal,2022.1.2,60.057246569855806,4,
20,exp1.png,exp2.png,,1,0,1,0,0,20,20,20,,,,,,,,,,,,,,,,,,,,,,,,,True,,,,,,,,,,,,,,,,,,,,,,,,,,,,,,,,,,,,sub_212,2023-01-24_17h56.05.823,Reversal,2022.1.2,60.057246569855806,4,
,,,exp1.png,1,0,1,0,,,,,0,0,0,0,0,0,0,0,,,,,,,,,,,,,,,,,,,,,,,,,,,,,,,,,,,,,,100.0,100.0,3.8700948000187054,"[(100.0, 3.8700948000187054)]",376.23373059998266,None,,,,,,,,,,sub_212,2023-01-24_17h56.05.823,Reversal,2022.1.2,60.057246569855806,4,
,,,exp2.png,1,0,1,0,,,,,0,0,0,0,0,1,1,1,,,,,,,,,,,,,,,,,,,,,,,,,,,,,,,,,,,,,,,1.0,2.9000242000911385,"[(21.0, 2.6015516000334173), (1.0, 2.9000242000911385)]",381.4519207000267,None,,,1.0,,,,,,,sub_212,2023-01-24_17h56.05.823,Reversal,2022.1.2,60.057246569855806,4,
,,,exp3.png,1,0,1,0,,,,,0,0,0,0,0,2,2,2,,,,,,,,,,,,,,,,,,,,,,,,,,,,,,,,,,,,,,,3.0,2.3837405999656767,"[(3.0, 2.3837405999656767)]",385.80415670003276,None,3.0,,,,,,,,,sub_212,2023-01-24_17h56.05.823,Reversal,2022.1.2,60.057246569855806,4,
,,,exp4.png,1,0,1,0,,,,,0,0,0,0,0,3,3,3,,,,,,,,,,,,,,,,,,,,,,,,,,,,,,,,,,,,,,,98.0,2.113340500043705,"[(98.0, 2.113340500043705)]",389.42209789995104,None,,98.0,,,,,,,,sub_212,2023-01-24_17h56.05.823,Reversal,2022.1.2,60.057246569855806,4,
0,exp1.png,exp2.png,,2,0,2,0,0,0,0,0,,,,,,,,,,,,,,,,,,,,,,,,,False,40,41,True,exp2.png,exp1.png,trial_right_image,-1,exp1.png,4,exp2.png,exp1.png,0,2,non-reversed,incorrect,0.21947165866507146,1,invalid_win,341.1268909999635,22,,,,,,,,,,,,,,,,sub_212,2023-01-24_17h56.05.823,Reversal,2022.1.2,60.057246569855806,4,
1,exp3.png,exp4.png,,2,0,2,0,0,1,1,1,,,,,,,,,,,,,,,,,,,,,,,,,False,41,42,True,exp4.png,exp3.png,trial_left_image,1,exp4.png,4,exp4.png,exp3.png,1,3,reversed,correct,0.35096471847934396,1,valid_win,346.2601021999726,23,,,,,,,,,,,,,,,,sub_212,2023-01-24_17h56.05.823,Reversal,2022.1.2,60.057246569855806,4,
2,exp1.png,exp2.png,,2,0,2,0,0,2,2,2,,,,,,,,,,,,,,,,,,,,,,,,,False,42,43,True,exp2.png,exp1.png,trial_left_image,1,exp2.png,4,exp2.png,exp1.png,1,1,non-reversed,correct,0.03537721904871349,0,invalid_lose,352.3771056999685,23,,,,,,,,,,,,,,,,sub_212,2023-01-24_17h56.05.823,Reversal,2022.1.2,60.057246569855806,4,
3,exp3.png,exp4.png,,2,0,2,0,0,3,3,3,,,,,,,,,,,,,,,,,,,,,,,,,False,43,44,True,exp4.png,exp3.png,trial_left_image,1,exp4.png,4,exp4.png,exp3.png,1,3,reversed,correct,0.2608510532664393,1,valid_win,359.91031369997654,24,,,,,,,,,,,,,,,,sub_212,2023-01-24_17h56.05.823,Reversal,2022.1.2,60.057246569855806,4,
4,exp1.png,exp2.png,,2,0,2,0,0,4,4,4,,,,,,,,,,,,,,,,,,,,,,,,,False,44,45,False,exp1.png,exp2.png,trial_left_image,1,exp1.png,4,exp2.png,exp1.png,0,2,non-reversed,incorrect,0.4064463785757515,0,valid_lose,365.9601363999536,24,,,,,,,,,,,,,,,,sub_212,2023-01-24_17h56.05.823,Reversal,2022.1.2,60.057246569855806,4,
5,exp3.png,exp4.png,,2,0,2,0,0,5,5,5,,,,,,,,,,,,,,,,,,,,,,,,,False,45,46,False,exp3.png,exp4.png,trial_right_image,-1,exp4.png,4,exp4.png,exp3.png,1,3,reversed,correct,0.41709784118655013,1,valid_win,373.0930754999863,25,,,,,,,,,,,,,,,,sub_212,2023-01-24_17h56.05.823,Reversal,2022.1.2,60.057246569855806,4,
6,exp1.png,exp2.png,,2,0,2,0,0,6,6,6,,,,,,,,,,,,,,,,,,,,,,,,,False,46,47,True,exp2.png,exp1.png,trial_right_image,-1,exp1.png,4,exp2.png,exp1.png,0,2,non-reversed,incorrect,0.7558716557432879,0,valid_lose,379.4262325000018,25,,,,,,,,,,,,,,,,sub_212,2023-01-24_17h56.05.823,Reversal,2022.1.2,60.057246569855806,4,
7,exp3.png,exp4.png,,2,0,2,0,0,7,7,7,,,,,,,,,,,,,,,,,,,,,,,,,False,47,48,False,exp3.png,exp4.png,trial_left_image,1,exp3.png,4,exp4.png,exp3.png,0,4,reversed,incorrect,0.5039552582878966,0,valid_lose,384.6594855999574,25,,,,,,,,,,,,,,,,sub_212,2023-01-24_17h56.05.823,Reversal,2022.1.2,60.057246569855806,4,
8,exp1.png,exp2.png,,2,0,2,0,0,8,8,8,,,,,,,,,,,,,,,,,,,,,,,,,False,48,49,True,exp2.png,exp1.png,trial_left_image,1,exp2.png,4,exp2.png,exp1.png,1,1,non-reversed,correct,0.22974968500740922,0,invalid_lose,389.8101132999873,25,,,,,,,,,,,,,,,,sub_212,2023-01-24_17h56.05.823,Reversal,2022.1.2,60.057246569855806,4,
9,exp3.png,exp4.png,,2,0,2,0,0,9,9,9,,,,,,,,,,,,,,,,,,,,,,,,,False,49,50,False,exp3.png,exp4.png,trial_right_image,-1,exp4.png,4,exp4.png,exp3.png,1,3,reversed,correct,0.9706107602441438,1,valid_win,394.6772036999464,26,,,,,,,,,,,,,,,,sub_212,2023-01-24_17h56.05.823,Reversal,2022.1.2,60.057246569855806,4,
10,exp1.png,exp2.png,,2,0,2,0,0,10,10,10,,,,,,,,,,,,,,,,,,,,,,,,,False,50,51,False,exp1.png,exp2.png,trial_right_image,-1,exp2.png,4,exp2.png,exp1.png,1,1,non-reversed,correct,0.398970077548812,1,valid_win,399.4262006999925,27,,,,,,,,,,,,,,,,sub_212,2023-01-24_17h56.05.823,Reversal,2022.1.2,60.057246569855806,4,
11,exp3.png,exp4.png,,2,0,2,0,0,11,11,11,,,,,,,,,,,,,,,,,,,,,,,,,False,51,52,False,exp3.png,exp4.png,trial_right_image,-1,exp4.png,4,exp4.png,exp3.png,1,3,reversed,correct,0.07659190850886699,0,invalid_lose,404.69301099993754,27,,,,,,,,,,,,,,,,sub_212,2023-01-24_17h56.05.823,Reversal,2022.1.2,60.057246569855806,4,
12,exp1.png,exp2.png,,2,0,2,0,0,12,12,12,,,,,,,,,,,,,,,,,,,,,,,,,False,52,53,True,exp2.png,exp1.png,trial_left_image,1,exp2.png,4,exp2.png,exp1.png,1,1,non-reversed,correct,0.043580098115139854,0,invalid_lose,411.6084857999813,27,,,,,,,,,,,,,,,,sub_212,2023-01-24_17h56.05.823,Reversal,2022.1.2,60.057246569855806,4,
13,exp3.png,exp4.png,,2,0,2,0,0,13,13,13,,,,,,,,,,,,,,,,,,,,,,,,,False,53,54,False,exp3.png,exp4.png,trial_left_image,1,exp3.png,4,exp4.png,exp3.png,0,4,reversed,incorrect,0.5564973070232941,0,valid_lose,417.7920986999525,27,,,,,,,,,,,,,,,,sub_212,2023-01-24_17h56.05.823,Reversal,2022.1.2,60.057246569855806,4,
14,exp1.png,exp2.png,,2,0,2,0,0,14,14,14,,,,,,,,,,,,,,,,,,,,,,,,,False,54,55,False,exp1.png,exp2.png,trial_right_image,-1,exp2.png,4,exp2.png,exp1.png,1,1,non-reversed,correct,0.6840608517446728,1,valid_win,422.25892799999565,28,,,,,,,,,,,,,,,,sub_212,2023-01-24_17h56.05.823,Reversal,2022.1.2,60.057246569855806,4,
15,exp3.png,exp4.png,,2,0,2,0,0,15,15,15,,,,,,,,,,,,,,,,,,,,,,,,,False,55,56,False,exp3.png,exp4.png,trial_right_image,-1,exp4.png,4,exp4.png,exp3.png,1,3,reversed,correct,0.1974758934263261,0,invalid_lose,427.74245459993836,28,,,,,,,,,,,,,,,,sub_212,2023-01-24_17h56.05.823,Reversal,2022.1.2,60.057246569855806,4,
16,exp1.png,exp2.png,,2,0,2,0,0,16,16,16,,,,,,,,,,,,,,,,,,,,,,,,,False,56,57,True,exp2.png,exp1.png,trial_left_image,1,exp2.png,4,exp2.png,exp1.png,1,1,non-reversed,correct,0.6543247387395705,1,valid_win,434.84245550003834,29,,,,,,,,,,,,,,,,sub_212,2023-01-24_17h56.05.823,Reversal,2022.1.2,60.057246569855806,4,
17,exp3.png,exp4.png,,2,0,2,0,0,17,17,17,,,,,,,,,,,,,,,,,,,,,,,,,False,57,58,True,exp4.png,exp3.png,trial_right_image,-1,exp3.png,4,exp4.png,exp3.png,0,4,reversed,incorrect,0.7963884233721795,0,valid_lose,441.7251802999526,29,,,,,,,,,,,,,,,,sub_212,2023-01-24_17h56.05.823,Reversal,2022.1.2,60.057246569855806,4,
18,exp1.png,exp2.png,,2,0,2,0,0,18,18,18,,,,,,,,,,,,,,,,,,,,,,,,,False,58,59,False,exp1.png,exp2.png,trial_right_image,-1,exp2.png,4,exp2.png,exp1.png,1,1,non-reversed,correct,0.5447321981039024,1,valid_win,446.97508629993536,30,,,,,,,,,,,,,,,,sub_212,2023-01-24_17h56.05.823,Reversal,2022.1.2,60.057246569855806,4,
19,exp3.png,exp4.png,,2,0,2,0,0,19,19,19,,,,,,,,,,,,,,,,,,,,,,,,,False,59,60,True,exp4.png,exp3.png,trial_left_image,1,exp4.png,4,exp4.png,exp3.png,1,3,reversed,correct,0.041325937699345894,0,invalid_lose,455.15804959996603,30,,,,,,,,,,,,,,,,sub_212,2023-01-24_17h56.05.823,Reversal,2022.1.2,60.057246569855806,4,
20,exp1.png,exp2.png,,2,0,2,0,0,20,20,20,,,,,,,,,,,,,,,,,,,,,,,,,True,,,,,,,,,,,,,,,,,,,,,,,,,,,,,,,,,,,,sub_212,2023-01-24_17h56.05.823,Reversal,2022.1.2,60.057246569855806,4,
,,,exp1.png,2,0,2,0,,,,,0,0,0,0,0,0,0,0,,,,,,,,,,,,,,,,,,,,,,,,,,,,,,,,,,,,,,1.0,1.0,4.132873800001107,"[(1.0, 4.132873800001107)]",515.1682089000242,None,,,,,,,,,,sub_212,2023-01-24_17h56.05.823,Reversal,2022.1.2,60.057246569855806,4,
,,,exp2.png,2,0,2,0,,,,,0,0,0,0,0,1,1,1,,,,,,,,,,,,,,,,,,,,,,,,,,,,,,,,,,,,,,,100.0,4.747875400003977,"[(100.0, 4.747875400003977)]",520.8019684000174,None,,,100.0,,,,,,,sub_212,2023-01-24_17h56.05.823,Reversal,2022.1.2,60.057246569855806,4,
,,,exp3.png,2,0,2,0,,,,,0,0,0,0,0,2,2,2,,,,,,,,,,,,,,,,,,,,,,,,,,,,,,,,,,,,,,,1.0,2.48224990000017,"[(1.0, 2.48224990000017)]",526.7170182999689,None,1.0,,,,,,,,,sub_212,2023-01-24_17h56.05.823,Reversal,2022.1.2,60.057246569855806,4,
,,,exp4.png,2,0,2,0,,,,,0,0,0,0,0,3,3,3,,,,,,,,,,,,,,,,,,,,,,,,,,,,,,,,,,,,,,,100.0,2.084696299978532,"[(100.0, 2.084696299978532)]",531.7174843000248,None,,100.0,,,,,,,,sub_212,2023-01-24_17h56.05.823,Reversal,2022.1.2,60.057246569855806,4,
0,exp1.png,exp2.png,,,,,,,,,,,,,,,,,,0,0,0,0,0,0,0,0,,,,,,,,,False,0,61,False,exp1.png,exp2.png,trial_right_image,-1,exp2.png,4,exp2.png,exp1.png,1,1,non-reversed,correct,0.1257655055401795,0,invalid_lose,488.37436549994163,30,,,,,,,,,,477.5157918999903,,,,,,sub_212,2023-01-24_17h56.05.823,Reversal,2022.1.2,60.057246569855806,4,
1,exp3.png,exp4.png,,,,,,,,,,,,,,,,,,0,0,0,0,0,1,1,1,,,,,,,,,False,1,62,False,exp3.png,exp4.png,trial_right_image,-1,exp4.png,4,exp3.png,exp4.png,1,3,reversed,incorrect,0.017892968085330918,1,invalid_win,495.8247386999428,31,,,,,,,,,,,,,,,,sub_212,2023-01-24_17h56.05.823,Reversal,2022.1.2,60.057246569855806,4,
2,exp1.png,exp2.png,,,,,,,,,,,,,,,,,,0,0,0,0,0,2,2,2,,,,,,,,,False,2,63,False,exp1.png,exp2.png,trial_right_image,-1,exp2.png,4,exp2.png,exp1.png,1,1,non-reversed,correct,0.8464854625868818,1,valid_win,500.47447290003765,32,,,,,,,,,,,,,,,,sub_212,2023-01-24_17h56.05.823,Reversal,2022.1.2,60.057246569855806,4,
3,exp3.png,exp4.png,,,,,,,,,,,,,,,,,,0,0,0,0,0,3,3,3,,,,,,,,,False,3,64,False,exp3.png,exp4.png,trial_right_image,-1,exp4.png,4,exp3.png,exp4.png,1,3,reversed,incorrect,0.3655571731221533,0,valid_lose,505.6908900999697,32,,,,,,,,,,,,,,,,sub_212,2023-01-24_17h56.05.823,Reversal,2022.1.2,60.057246569855806,4,
4,exp1.png,exp2.png,,,,,,,,,,,,,,,,,,0,0,0,0,0,4,4,4,,,,,,,,,False,4,65,False,exp1.png,exp2.png,trial_left_image,1,exp1.png,4,exp2.png,exp1.png,0,2,non-reversed,incorrect,0.7327869839079735,0,valid_lose,514.1908814000199,32,,,,,,,,,,,,,,,,sub_212,2023-01-24_17h56.05.823,Reversal,2022.1.2,60.057246569855806,4,
5,exp3.png,exp4.png,,,,,,,,,,,,,,,,,,0,0,0,0,0,5,5,5,,,,,,,,,False,5,66,True,exp4.png,exp3.png,trial_left_image,1,exp4.png,4,exp3.png,exp4.png,1,3,reversed,incorrect,0.8947099750945265,0,valid_lose,520.2741096999962,32,,,,,,,,,,,,,,,,sub_212,2023-01-24_17h56.05.823,Reversal,2022.1.2,60.057246569855806,4,
6,exp1.png,exp2.png,,,,,,,,,,,,,,,,,,0,0,0,0,0,6,6,6,,,,,,,,,False,6,67,False,exp1.png,exp2.png,trial_right_image,-1,exp2.png,4,exp2.png,exp1.png,1,1,non-reversed,correct,0.45987638246618523,1,valid_win,529.1241781000281,33,,,,,,,,,,,,,,,,sub_212,2023-01-24_17h56.05.823,Reversal,2022.1.2,60.057246569855806,4,
7,exp3.png,exp4.png,,,,,,,,,,,,,,,,,,0,0,0,0,0,7,7,7,,,,,,,,,False,7,68,False,exp3.png,exp4.png,trial_right_image,-1,exp4.png,4,exp3.png,exp4.png,1,3,reversed,incorrect,0.5041191972308703,0,valid_lose,534.2912137999665,33,,,,,,,,,,,,,,,,sub_212,2023-01-24_17h56.05.823,Reversal,2022.1.2,60.057246569855806,4,
8,exp1.png,exp2.png,,,,,,,,,,,,,,,,,,0,0,0,0,0,8,8,8,,,,,,,,,False,8,69,True,exp2.png,exp1.png,trial_left_image,1,exp2.png,4,exp2.png,exp1.png,1,1,non-reversed,correct,0.7969200102467239,1,valid_win,540.5069656999549,34,,,,,,,,,,,,,,,,sub_212,2023-01-24_17h56.05.823,Reversal,2022.1.2,60.057246569855806,4,
9,exp3.png,exp4.png,,,,,,,,,,,,,,,,,,0,0,0,0,0,9,9,9,,,,,,,,,False,9,70,True,exp4.png,exp3.png,trial_left_image,1,exp4.png,4,exp3.png,exp4.png,1,3,reversed,incorrect,0.05982870733084433,1,invalid_win,553.773170099943,35,,,,,,,,,,,,,,,,sub_212,2023-01-24_17h56.05.823,Reversal,2022.1.2,60.057246569855806,4,
10,exp1.png,exp2.png,,,,,,,,,,,,,,,,,,0,0,0,0,0,10,10,10,,,,,,,,,False,10,71,False,exp1.png,exp2.png,trial_left_image,1,exp1.png,4,exp2.png,exp1.png,0,2,non-reversed,incorrect,0.9428062649759112,0,valid_lose,561.2236057999544,35,,,,,,,,,,,,,,,,sub_212,2023-01-24_17h56.05.823,Reversal,2022.1.2,60.057246569855806,4,
11,exp3.png,exp4.png,,,,,,,,,,,,,,,,,,0,0,0,0,0,11,11,11,,,,,,,,,False,11,72,False,exp3.png,exp4.png,trial_right_image,-1,exp4.png,4,exp3.png,exp4.png,1,3,reversed,incorrect,0.30152695948268116,0,valid_lose,566.2565136000048,35,,,,,,,,,,,,,,,,sub_212,2023-01-24_17h56.05.823,Reversal,2022.1.2,60.057246569855806,4,
12,exp1.png,exp2.png,,,,,,,,,,,,,,,,,,0,0,0,0,0,12,12,12,,,,,,,,,False,12,73,True,exp2.png,exp1.png,trial_left_image,1,exp2.png,4,exp2.png,exp1.png,1,1,non-reversed,correct,0.8840642764701349,1,valid_win,571.4066947000101,36,,,,,,,,,,,,,,,,sub_212,2023-01-24_17h56.05.823,Reversal,2022.1.2,60.057246569855806,4,
13,exp3.png,exp4.png,,,,,,,,,,,,,,,,,,0,0,0,0,0,13,13,13,,,,,,,,,False,13,74,False,exp3.png,exp4.png,trial_left_image,1,exp3.png,4,exp3.png,exp4.png,0,4,reversed,correct,0.5264105288806592,1,valid_win,576.822816299973,37,,,,,,,,,,,,,,,,sub_212,2023-01-24_17h56.05.823,Reversal,2022.1.2,60.057246569855806,4,
14,exp1.png,exp2.png,,,,,,,,,,,,,,,,,,0,0,0,0,0,14,14,14,,,,,,,,,False,14,75,True,exp2.png,exp1.png,trial_right_image,-1,exp1.png,4,exp2.png,exp1.png,0,2,non-reversed,incorrect,0.5657955480459547,0,valid_lose,581.1057401000289,37,,,,,,,,,,,,,,,,sub_212,2023-01-24_17h56.05.823,Reversal,2022.1.2,60.057246569855806,4,
15,exp3.png,exp4.png,,,,,,,,,,,,,,,,,,0,0,0,0,0,15,15,15,,,,,,,,,False,15,76,True,exp4.png,exp3.png,trial_left_image,1,exp4.png,4,exp3.png,exp4.png,1,3,reversed,incorrect,0.2123850117887136,1,invalid_win,586.2394846000243,38,,,,,,,,,,,,,,,,sub_212,2023-01-24_17h56.05.823,Reversal,2022.1.2,60.057246569855806,4,
16,exp1.png,exp2.png,,,,,,,,,,,,,,,,,,0,0,0,0,0,16,16,16,,,,,,,,,False,16,77,True,exp2.png,exp1.png,trial_right_image,-1,exp1.png,4,exp2.png,exp1.png,0,2,non-reversed,incorrect,0.7460826326191425,0,valid_lose,591.8063329999568,38,,,,,,,,,,,,,,,,sub_212,2023-01-24_17h56.05.823,Reversal,2022.1.2,60.057246569855806,4,
17,exp3.png,exp4.png,,,,,,,,,,,,,,,,,,0,0,0,0,0,17,17,17,,,,,,,,,False,17,78,True,exp4.png,exp3.png,trial_left_image,1,exp4.png,4,exp3.png,exp4.png,1,3,reversed,incorrect,0.6904690972366662,0,valid_lose,596.439231300028,38,,,,,,,,,,,,,,,,sub_212,2023-01-24_17h56.05.823,Reversal,2022.1.2,60.057246569855806,4,
18,exp1.png,exp2.png,,,,,,,,,,,,,,,,,,0,0,0,0,0,18,18,18,,,,,,,,,False,18,79,True,exp2.png,exp1.png,trial_right_image,-1,exp1.png,4,exp2.png,exp1.png,0,2,non-reversed,incorrect,0.3713135981996607,0,valid_lose,601.7223228999646,38,,,,,,,,,,,,,,,,sub_212,2023-01-24_17h56.05.823,Reversal,2022.1.2,60.057246569855806,4,
19,exp3.png,exp4.png,,,,,,,,,,,,,,,,,,0,0,0,0,0,19,19,19,,,,,,,,,False,19,80,True,exp4.png,exp3.png,trial_left_image,1,exp4.png,4,exp3.png,exp4.png,1,3,reversed,incorrect,0.7730059696606416,0,valid_lose,607.3893674999708,38,,,,,,,,,,,,,,,,sub_212,2023-01-24_17h56.05.823,Reversal,2022.1.2,60.057246569855806,4,
20,exp1.png,exp2.png,,,,,,,,,,,,,,,,,,0,0,0,0,0,20,20,20,,,,,,,,,True,,,,,,,,,,,,,,,,,,,,,,,,,,,,,,,,,,,,sub_212,2023-01-24_17h56.05.823,Reversal,2022.1.2,60.057246569855806,4,
,,,exp1.png,,,,,,,,,,,,,,,,,0,0,0,0,,,,,0,0,0,0,0,0,0,0,,,,,,,,,,,,,,,,,,,,,,,50.0,None,[],667.3917500999523,None,,,,,,,,,,sub_212,2023-01-24_17h56.05.823,Reversal,2022.1.2,60.057246569855806,4,
,,,exp2.png,,,,,,,,,,,,,,,,,0,0,0,0,,,,,0,0,0,0,0,1,1,1,,,,,,,,,,,,,,,,,,,,,,,100.0,2.0684906999813393,"[(100.0, 2.0684906999813393)]",671.3130734999431,None,,,100.0,,,,,,,sub_212,2023-01-24_17h56.05.823,Reversal,2022.1.2,60.057246569855806,4,
,,,exp3.png,,,,,,,,,,,,,,,,,0,0,0,0,,,,,0,0,0,0,0,2,2,2,,,,,,,,,,,,,,,,,,,,,,,50.0,None,[],674.4334477999946,None,,,,,,,,,,sub_212,2023-01-24_17h56.05.823,Reversal,2022.1.2,60.057246569855806,4,
,,,exp4.png,,,,,,,,,,,,,,,,,0,0,0,0,,,,,0,0,0,0,0,3,3,3,,,,,,,,,,,,,,,,,,,,,,,50.0,None,[],676.5134292999282,None,,,,,,,,,,sub_212,2023-01-24_17h56.05.823,Reversal,2022.1.2,60.057246569855806,4,
0,exp1.png,exp2.png,,,,,,,,,,,,,,,,,,1,0,1,0,0,0,0,0,,,,,,,,,False,20,81,True,exp2.png,exp1.png,trial_left_image,1,exp2.png,4,exp2.png,exp1.png,1,1,non-reversed,correct,0.14241361242518757,0,invalid_lose,629.3056651999941,38,,,,,,,,,,,,,,,,sub_212,2023-01-24_17h56.05.823,Reversal,2022.1.2,60.057246569855806,4,
1,exp3.png,exp4.png,,,,,,,,,,,,,,,,,,1,0,1,0,0,1,1,1,,,,,,,,,False,21,82,False,exp3.png,exp4.png,trial_right_image,-1,exp4.png,4,exp3.png,exp4.png,1,3,reversed,incorrect,0.1769383218236139,1,invalid_win,636.5887145999586,39,,,,,,,,,,,,,,,,sub_212,2023-01-24_17h56.05.823,Reversal,2022.1.2,60.057246569855806,4,
2,exp1.png,exp2.png,,,,,,,,,,,,,,,,,,1,0,1,0,0,2,2,2,,,,,,,,,False,22,83,False,exp1.png,exp2.png,trial_right_image,-1,exp2.png,4,exp2.png,exp1.png,1,1,non-reversed,correct,0.6096662081690779,1,valid_win,641.3049696999369,40,,,,,,,,,,,,,,,,sub_212,2023-01-24_17h56.05.823,Reversal,2022.1.2,60.057246569855806,4,
3,exp3.png,exp4.png,,,,,,,,,,,,,,,,,,1,0,1,0,0,3,3,3,,,,,,,,,False,23,84,False,exp3.png,exp4.png,trial_right_image,-1,exp4.png,4,exp3.png,exp4.png,1,3,reversed,incorrect,0.4603894915986386,0,valid_lose,645.7714274999453,40,,,,,,,,,,,,,,,,sub_212,2023-01-24_17h56.05.823,Reversal,2022.1.2,60.057246569855806,4,
4,exp1.png,exp2.png,,,,,,,,,,,,,,,,,,1,0,1,0,0,4,4,4,,,,,,,,,False,24,85,True,exp2.png,exp1.png,trial_right_image,-1,exp1.png,4,exp2.png,exp1.png,0,2,non-reversed,incorrect,0.020225019805829136,1,invalid_win,650.7718822000315,41,,,,,,,,,,,,,,,,sub_212,2023-01-24_17h56.05.823,Reversal,2022.1.2,60.057246569855806,4,
5,exp3.png,exp4.png,,,,,,,,,,,,,,,,,,1,0,1,0,0,5,5,5,,,,,,,,,False,25,86,True,exp4.png,exp3.png,trial_left_image,1,exp4.png,4,exp3.png,exp4.png,1,3,reversed,incorrect,0.3157536741621092,0,valid_lose,655.9046137999976,41,,,,,,,,,,,,,,,,sub_212,2023-01-24_17h56.05.823,Reversal,2022.1.2,60.057246569855806,4,
6,exp1.png,exp2.png,,,,,,,,,,,,,,,,,,1,0,1,0,0,6,6,6,,,,,,,,,False,26,87,False,exp1.png,exp2.png,trial_right_image,-1,exp2.png,4,exp2.png,exp1.png,1,1,non-reversed,correct,0.2811993486872302,1,valid_win,660.8886741999304,42,,,,,,,,,,,,,,,,sub_212,2023-01-24_17h56.05.823,Reversal,2022.1.2,60.057246569855806,4,
7,exp3.png,exp4.png,,,,,,,,,,,,,,,,,,1,0,1,0,0,7,7,7,,,,,,,,,False,27,88,True,exp4.png,exp3.png,trial_right_image,-1,exp3.png,4,exp3.png,exp4.png,0,4,reversed,correct,0.5410026938901532,1,valid_win,666.2215112999547,43,,,,,,,,,,,,,,,,sub_212,2023-01-24_17h56.05.823,Reversal,2022.1.2,60.057246569855806,4,
8,exp1.png,exp2.png,,,,,,,,,,,,,,,,,,1,0,1,0,0,8,8,8,,,,,,,,,False,28,89,False,exp1.png,exp2.png,trial_right_image,-1,exp2.png,4,exp2.png,exp1.png,1,1,non-reversed,correct,0.0378470628637777,0,invalid_lose,671.8377404999919,43,,,,,,,,,,,,,,,,sub_212,2023-01-24_17h56.05.823,Reversal,2022.1.2,60.057246569855806,4,
9,exp3.png,exp4.png,,,,,,,,,,,,,,,,,,1,0,1,0,0,9,9,9,,,,,,,,,False,29,90,True,exp4.png,exp3.png,trial_left_image,1,exp4.png,4,exp3.png,exp4.png,1,3,reversed,incorrect,0.780618604520267,0,valid_lose,677.2377488999628,43,,,,,,,,,,,,,,,,sub_212,2023-01-24_17h56.05.823,Reversal,2022.1.2,60.057246569855806,4,
10,exp1.png,exp2.png,,,,,,,,,,,,,,,,,,1,0,1,0,0,10,10,10,,,,,,,,,False,30,91,True,exp2.png,exp1.png,trial_left_image,1,exp2.png,4,exp2.png,exp1.png,1,1,non-reversed,correct,0.9260123913978143,1,valid_win,682.8211138999322,44,,,,,,,,,,,,,,,,sub_212,2023-01-24_17h56.05.823,Reversal,2022.1.2,60.057246569855806,4,
11,exp3.png,exp4.png,,,,,,,,,,,,,,,,,,1,0,1,0,0,11,11,11,,,,,,,,,False,31,92,False,exp3.png,exp4.png,trial_right_image,-1,exp4.png,4,exp3.png,exp4.png,1,3,reversed,incorrect,0.49135997519179553,0,valid_lose,695.9212789000012,44,,,,,,,,,,,,,,,,sub_212,2023-01-24_17h56.05.823,Reversal,2022.1.2,60.057246569855806,4,
12,exp1.png,exp2.png,,,,,,,,,,,,,,,,,,1,0,1,0,0,12,12,12,,,,,,,,,False,32,93,False,exp1.png,exp2.png,trial_right_image,-1,exp2.png,4,exp2.png,exp1.png,1,1,non-reversed,correct,0.037319046570868264,0,invalid_lose,702.4538552999729,44,,,,,,,,,,,,,,,,sub_212,2023-01-24_17h56.05.823,Reversal,2022.1.2,60.057246569855806,4,
13,exp3.png,exp4.png,,,,,,,,,,,,,,,,,,1,0,1,0,0,13,13,13,,,,,,,,,False,33,94,False,exp3.png,exp4.png,trial_left_image,1,exp3.png,4,exp3.png,exp4.png,0,4,reversed,correct,0.11727061825422336,0,invalid_lose,708.1373445999343,44,,,,,,,,,,,,,,,,sub_212,2023-01-24_17h56.05.823,Reversal,2022.1.2,60.057246569855806,4,
14,exp1.png,exp2.png,,,,,,,,,,,,,,,,,,1,0,1,0,0,14,14,14,,,,,,,,,False,34,95,False,exp1.png,exp2.png,trial_right_image,-1,exp2.png,4,exp2.png,exp1.png,1,1,non-reversed,correct,0.48556924652129707,1,valid_win,714.3702978999354,45,,,,,,,,,,,,,,,,sub_212,2023-01-24_17h56.05.823,Reversal,2022.1.2,60.057246569855806,4,
15,exp3.png,exp4.png,,,,,,,,,,,,,,,,,,1,0,1,0,0,15,15,15,,,,,,,,,False,35,96,True,exp4.png,exp3.png,trial_right_image,-1,exp3.png,4,exp3.png,exp4.png,0,4,reversed,correct,0.2812583964590566,1,valid_win,721.8206105999416,46,,,,,,,,,,,,,,,,sub_212,2023-01-24_17h56.05.823,Reversal,2022.1.2,60.057246569855806,4,
16,exp1.png,exp2.png,,,,,,,,,,,,,,,,,,1,0,1,0,0,16,16,16,,,,,,,,,False,36,97,False,exp1.png,exp2.png,trial_right_image,-1,exp2.png,4,exp2.png,exp1.png,1,1,non-reversed,correct,0.20089094646555472,0,invalid_lose,726.6204323000275,46,,,,,,,,,,,,,,,,sub_212,2023-01-24_17h56.05.823,Reversal,2022.1.2,60.057246569855806,4,
17,exp3.png,exp4.png,,,,,,,,,,,,,,,,,,1,0,1,0,0,17,17,17,,,,,,,,,False,37,98,True,exp4.png,exp3.png,trial_left_image,1,exp4.png,4,exp3.png,exp4.png,1,3,reversed,incorrect,0.9916118918087312,0,valid_lose,731.6864930000156,46,,,,,,,,,,,,,,,,sub_212,2023-01-24_17h56.05.823,Reversal,2022.1.2,60.057246569855806,4,
18,exp1.png,exp2.png,,,,,,,,,,,,,,,,,,1,0,1,0,0,18,18,18,,,,,,,,,False,38,99,True,exp2.png,exp1.png,trial_right_image,-1,exp1.png,4,exp2.png,exp1.png,0,2,non-reversed,incorrect,0.0074140391546752005,1,invalid_win,737.286708700005,47,,,,,,,,,,,,,,,,sub_212,2023-01-24_17h56.05.823,Reversal,2022.1.2,60.057246569855806,4,
19,exp3.png,exp4.png,,,,,,,,,,,,,,,,,,1,0,1,0,0,19,19,19,,,,,,,,,False,39,100,True,exp4.png,exp3.png,trial_left_image,1,exp4.png,4,exp3.png,exp4.png,1,3,reversed,incorrect,0.7278519228314385,0,valid_lose,742.8537734999554,47,,,,,,,,,,,,,,,,sub_212,2023-01-24_17h56.05.823,Reversal,2022.1.2,60.057246569855806,4,
20,exp1.png,exp2.png,,,,,,,,,,,,,,,,,,1,0,1,0,0,20,20,20,,,,,,,,,True,,,,,,,,,,,,,,,,,,,,,,,,,,,,,,,,,,,,sub_212,2023-01-24_17h56.05.823,Reversal,2022.1.2,60.057246569855806,4,
,,,exp1.png,,,,,,,,,,,,,,,,,1,0,1,0,,,,,0,0,0,0,0,0,0,0,,,,,,,,,,,,,,,,,,,,,,1.0,1.0,5.80476660002023,"[(1.0, 5.80476660002023)]",802.8567875999724,None,,,,,,,,,,sub_212,2023-01-24_17h56.05.823,Reversal,2022.1.2,60.057246569855806,4,
,,,exp2.png,,,,,,,,,,,,,,,,,1,0,1,0,,,,,0,0,0,0,0,1,1,1,,,,,,,,,,,,,,,,,,,,,,,100.0,2.250597400008701,"[(100.0, 2.250597400008701)]",810.0763570999261,None,,,100.0,,,,,,,sub_212,2023-01-24_17h56.05.823,Reversal,2022.1.2,60.057246569855806,4,
,,,exp3.png,,,,,,,,,,,,,,,,,1,0,1,0,,,,,0,0,0,0,0,2,2,2,,,,,,,,,,,,,,,,,,,,,,,50.0,None,[],815.2137540000258,None,,,,,,,,,,sub_212,2023-01-24_17h56.05.823,Reversal,2022.1.2,60.057246569855806,4,
,,,exp4.png,,,,,,,,,,,,,,,,,1,0,1,0,,,,,0,0,0,0,0,3,3,3,,,,,,,,,,,,,,,,,,,,,,,50.0,None,[],817.7792423999636,None,,,,,,,,,,sub_212,2023-01-24_17h56.05.823,Reversal,2022.1.2,60.057246569855806,4,
0,exp1.png,exp2.png,,,,,,,,,,,,,,,,,,2,0,2,0,0,0,0,0,,,,,,,,,False,40,101,True,exp2.png,exp1.png,trial_right_image,-1,exp1.png,4,exp2.png,exp1.png,0,2,non-reversed,incorrect,0.4532553804841416,0,valid_lose,769.0021685999818,47,,,,,,,,,,,,,,,,sub_212,2023-01-24_17h56.05.823,Reversal,2022.1.2,60.057246569855806,4,
1,exp3.png,exp4.png,,,,,,,,,,,,,,,,,,2,0,2,0,0,1,1,1,,,,,,,,,False,41,102,True,exp4.png,exp3.png,trial_right_image,-1,exp3.png,4,exp3.png,exp4.png,0,4,reversed,correct,0.591239244794303,1,valid_win,774.8364535999717,48,,,,,,,,,,,,,,,,sub_212,2023-01-24_17h56.05.823,Reversal,2022.1.2,60.057246569855806,4,
2,exp1.png,exp2.png,,,,,,,,,,,,,,,,,,2,0,2,0,0,2,2,2,,,,,,,,,False,42,103,False,exp1.png,exp2.png,trial_right_image,-1,exp2.png,4,exp2.png,exp1.png,1,1,non-reversed,correct,0.42023570422520906,1,valid_win,780.8363850000314,49,,,,,,,,,,,,,,,,sub_212,2023-01-24_17h56.05.823,Reversal,2022.1.2,60.057246569855806,4,
3,exp3.png,exp4.png,,,,,,,,,,,,,,,,,,2,0,2,0,0,3,3,3,,,,,,,,,False,43,104,False,exp3.png,exp4.png,trial_left_image,1,exp3.png,4,exp3.png,exp4.png,0,4,reversed,correct,0.8172810656943191,1,valid_win,785.8026124000316,50,,,,,,,,,,,,,,,,sub_212,2023-01-24_17h56.05.823,Reversal,2022.1.2,60.057246569855806,4,
4,exp1.png,exp2.png,,,,,,,,,,,,,,,,,,2,0,2,0,0,4,4,4,,,,,,,,,False,44,105,True,exp2.png,exp1.png,trial_left_image,1,exp2.png,4,exp2.png,exp1.png,1,1,non-reversed,correct,0.6007919803843966,1,valid_win,790.9695068999426,51,,,,,,,,,,,,,,,,sub_212,2023-01-24_17h56.05.823,Reversal,2022.1.2,60.057246569855806,4,
5,exp3.png,exp4.png,,,,,,,,,,,,,,,,,,2,0,2,0,0,5,5,5,,,,,,,,,False,45,106,False,exp3.png,exp4.png,trial_right_image,-1,exp4.png,4,exp3.png,exp4.png,1,3,reversed,incorrect,0.524229253750845,0,valid_lose,797.6689587000292,51,,,,,,,,,,,,,,,,sub_212,2023-01-24_17h56.05.823,Reversal,2022.1.2,60.057246569855806,4,
6,exp1.png,exp2.png,,,,,,,,,,,,,,,,,,2,0,2,0,0,6,6,6,,,,,,,,,False,46,107,True,exp2.png,exp1.png,trial_left_image,1,exp2.png,4,exp2.png,exp1.png,1,1,non-reversed,correct,0.03123580610381327,0,invalid_lose,802.7525353999808,51,,,,,,,,,,,,,,,,sub_212,2023-01-24_17h56.05.823,Reversal,2022.1.2,60.057246569855806,4,
7,exp3.png,exp4.png,,,,,,,,,,,,,,,,,,2,0,2,0,0,7,7,7,,,,,,,,,False,47,108,False,exp3.png,exp4.png,trial_left_image,1,exp3.png,4,exp3.png,exp4.png,0,4,reversed,correct,0.3521353224136349,1,valid_win,810.6021854999708,52,,,,,,,,,,,,,,,,sub_212,2023-01-24_17h56.05.823,Reversal,2022.1.2,60.057246569855806,4,
8,exp1.png,exp2.png,,,,,,,,,,,,,,,,,,2,0,2,0,0,8,8,8,,,,,,,,,False,48,109,True,exp2.png,exp1.png,trial_left_image,1,exp2.png,4,exp2.png,exp1.png,1,1,non-reversed,correct,0.09798228051786373,0,invalid_lose,815.2692406999413,52,,,,,,,,,,,,,,,,sub_212,2023-01-24_17h56.05.823,Reversal,2022.1.2,60.057246569855806,4,
9,exp3.png,exp4.png,,,,,,,,,,,,,,,,,,2,0,2,0,0,9,9,9,,,,,,,,,False,49,110,False,exp3.png,exp4.png,trial_right_image,-1,exp4.png,4,exp3.png,exp4.png,1,3,reversed,incorrect,0.6259160245090598,0,valid_lose,819.852223200025,52,,,,,,,,,,,,,,,,sub_212,2023-01-24_17h56.05.823,Reversal,2022.1.2,60.057246569855806,4,
10,exp1.png,exp2.png,,,,,,,,,,,,,,,,,,2,0,2,0,0,10,10,10,,,,,,,,,False,50,111,True,exp2.png,exp1.png,trial_right_image,-1,exp1.png,4,exp2.png,exp1.png,0,2,non-reversed,incorrect,0.6243932388823917,0,valid_lose,824.9190171000082,52,,,,,,,,,,,,,,,,sub_212,2023-01-24_17h56.05.823,Reversal,2022.1.2,60.057246569855806,4,
11,exp3.png,exp4.png,,,,,,,,,,,,,,,,,,2,0,2,0,0,11,11,11,,,,,,,,,False,51,112,False,exp3.png,exp4.png,trial_right_image,-1,exp4.png,4,exp3.png,exp4.png,1,3,reversed,incorrect,0.3010910621631887,0,valid_lose,831.268415999948,52,,,,,,,,,,,,,,,,sub_212,2023-01-24_17h56.05.823,Reversal,2022.1.2,60.057246569855806,4,
12,exp1.png,exp2.png,,,,,,,,,,,,,,,,,,2,0,2,0,0,12,12,12,,,,,,,,,False,52,113,True,exp2.png,exp1.png,trial_left_image,1,exp2.png,4,exp2.png,exp1.png,1,1,non-reversed,correct,0.06698434055266456,0,invalid_lose,836.2517448000144,52,,,,,,,,,,,,,,,,sub_212,2023-01-24_17h56.05.823,Reversal,2022.1.2,60.057246569855806,4,
13,exp3.png,exp4.png,,,,,,,,,,,,,,,,,,2,0,2,0,0,13,13,13,,,,,,,,,False,53,114,True,exp4.png,exp3.png,trial_right_image,-1,exp3.png,4,exp3.png,exp4.png,0,4,reversed,correct,0.3910753241282635,1,valid_win,841.9016858999385,53,,,,,,,,,,,,,,,,sub_212,2023-01-24_17h56.05.823,Reversal,2022.1.2,60.057246569855806,4,
14,exp1.png,exp2.png,,,,,,,,,,,,,,,,,,2,0,2,0,0,14,14,14,,,,,,,,,False,54,115,False,exp1.png,exp2.png,trial_right_image,-1,exp2.png,4,exp2.png,exp1.png,1,1,non-reversed,correct,0.9327684790353691,1,valid_win,846.5017334999284,54,,,,,,,,,,,,,,,,sub_212,2023-01-24_17h56.05.823,Reversal,2022.1.2,60.057246569855806,4,
15,exp3.png,exp4.png,,,,,,,,,,,,,,,,,,2,0,2,0,0,15,15,15,,,,,,,,,False,55,116,True,exp4.png,exp3.png,trial_right_image,-1,exp3.png,4,exp3.png,exp4.png,0,4,reversed,correct,0.5962901554589828,1,valid_win,852.8181485999376,55,,,,,,,,,,,,,,,,sub_212,2023-01-24_17h56.05.823,Reversal,2022.1.2,60.057246569855806,4,
16,exp1.png,exp2.png,,,,,,,,,,,,,,,,,,2,0,2,0,0,16,16,16,,,,,,,,,False,56,117,False,exp1.png,exp2.png,trial_right_image,-1,exp2.png,4,exp2.png,exp1.png,1,1,non-reversed,correct,0.6607172763477611,1,valid_win,857.3679659999907,56,,,,,,,,,,,,,,,,sub_212,2023-01-24_17h56.05.823,Reversal,2022.1.2,60.057246569855806,4,
17,exp3.png,exp4.png,,,,,,,,,,,,,,,,,,2,0,2,0,0,17,17,17,,,,,,,,,False,57,118,True,exp4.png,exp3.png,trial_right_image,-1,exp3.png,4,exp3.png,exp4.png,0,4,reversed,correct,0.7233248445484762,1,valid_win,864.1349564000266,57,,,,,,,,,,,,,,,,sub_212,2023-01-24_17h56.05.823,Reversal,2022.1.2,60.057246569855806,4,
18,exp1.png,exp2.png,,,,,,,,,,,,,,,,,,2,0,2,0,0,18,18,18,,,,,,,,,False,58,119,False,exp1.png,exp2.png,trial_right_image,-1,exp2.png,4,exp2.png,exp1.png,1,1,non-reversed,correct,0.9881843292432346,1,valid_win,869.6345755000366,58,,,,,,,,,,,,,,,,sub_212,2023-01-24_17h56.05.823,Reversal,2022.1.2,60.057246569855806,4,
19,exp3.png,exp4.png,,,,,,,,,,,,,,,,,,2,0,2,0,0,19,19,19,,,,,,,,,False,59,120,False,exp3.png,exp4.png,trial_left_image,1,exp3.png,4,exp3.png,exp4.png,0,4,reversed,correct,0.9813994620197015,1,valid_win,877.6676512999693,59,,,,,,,,,,,,,,,,sub_212,2023-01-24_17h56.05.823,Reversal,2022.1.2,60.057246569855806,4,
20,exp1.png,exp2.png,,,,,,,,,,,,,,,,,,2,0,2,0,0,20,20,20,,,,,,,,,True,,,,,,,,,,,,,,,,,,,,,,,,,,,,,,,,,,,,sub_212,2023-01-24_17h56.05.823,Reversal,2022.1.2,60.057246569855806,4,
,,,exp1.png,,,,,,,,,,,,,,,,,2,0,2,0,,,,,0,0,0,0,0,0,0,0,,,,,,,,,,,,,,,,,,,,,,1.0,1.0,5.59685490000993,"[(1.0, 5.59685490000993)]",937.668790500029,None,,,,,,,,,,sub_212,2023-01-24_17h56.05.823,Reversal,2022.1.2,60.057246569855806,4,
,,,exp2.png,,,,,,,,,,,,,,,,,2,0,2,0,,,,,0,0,0,0,0,1,1,1,,,,,,,,,,,,,,,,,,,,,,,50.0,None,[],944.5911909999559,None,,,,,,,,,,sub_212,2023-01-24_17h56.05.823,Reversal,2022.1.2,60.057246569855806,4,
,,,exp3.png,,,,,,,,,,,,,,,,,2,0,2,0,,,,,0,0,0,0,0,2,2,2,,,,,,,,,,,,,,,,,,,,,,,64.0,5.13571560010314,"[(64.0, 5.13571560010314)]",947.7233713000314,None,64.0,,,,,,,,,sub_212,2023-01-24_17h56.05.823,Reversal,2022.1.2,60.057246569855806,4,
,,,exp4.png,,,,,,,,,,,,,,,,,2,0,2,0,,,,,0,0,0,0,0,3,3,3,,,,,,,,,,,,,,,,,,,,,,,50.0,None,[],954.0750446999446,None,,,,,,,,,,sub_212,2023-01-24_17h56.05.823,Reversal,2022.1.2,60.057246569855806,4,
,,,,,,,,,,,,,,,,,,,,,,,,,,,,,,,,,,,,,,,,,,,,,,,,,,,,,,,,59,,,,,,,,,,,73,41,32,422.5019970999565,0,,,,,,,
