trial_index,trial_image1_file,trial_image2_file,image_file,learning_outer_loop.thisRepN,learning_outer_loop.thisTrialN,learning_outer_loop.thisN,learning_outer_loop.thisIndex,learning_inner_loop.thisRepN,learning_inner_loop.thisTrialN,learning_inner_loop.thisN,learning_inner_loop.thisIndex,learning_estimation_outer_loop.thisRepN,learning_estimation_outer_loop.thisTrialN,learning_estimation_outer_loop.thisN,learning_estimation_outer_loop.thisIndex,learning_estimation_inner_loop.thisRepN,learning_estimation_inner_loop.thisTrialN,learning_estimation_inner_loop.thisN,learning_estimation_inner_loop.thisIndex,reversal_outer_loop.thisRepN,reversal_outer_loop.thisTrialN,reversal_outer_loop.thisN,reversal_outer_loop.thisIndex,reversal_inner_loop.thisRepN,reversal_inner_loop.thisTrialN,reversal_inner_loop.thisN,reversal_inner_loop.thisIndex,reversal_estimation_outer_loop.thisRepN,reversal_estimation_outer_loop.thisTrialN,reversal_estimation_outer_loop.thisN,reversal_estimation_outer_loop.thisIndex,reversal_estimation_inner_loop.thisRepN,reversal_estimation_inner_loop.thisTrialN,reversal_estimation_inner_loop.thisN,reversal_estimation_inner_loop.thisIndex,skipped,total_trial_counter,trial_num,left_right_flip,left_image_file,right_image_file,clicked_stimulus_side,side,clicked_stimulus,version,high_prob_image_file,low_prob_image_file,choice_a,choice_b,pair_type,correct,trial_feedback_random,reward,trial_type,overall_time_after_trial,score,estimation_rating.started,estimation_exp1.png,estimation_rating.response,estimation_rating.rt,estimation_rating.history,estimation_exp2.png,estimation_exp3.png,estimation_exp4.png,total_learning_time,total_correct,learning_correct,reversal_correct,total_reversal_time,extra_block,participant,date,expName,psychopyVersion,frameRate,ver,
0,exp1.png,exp2.png,,0,0,0,0,0,0,0,0,,,,,,,,,,,,,,,,,,,,,,,,,False,0,1,False,exp1.png,exp2.png,trial_right_image,-1,exp2.png,4,exp2.png,exp1.png,1,1,non-reversed,correct,0.9263529016250883,1,valid_win,4.713490699999966,1,,,,,,,,,,,,,,,sub_996,2024-08-26_12h07.31.984,Reversal,2023.1.3,60.05569565227904,4,
1,exp3.png,exp4.png,,0,0,0,0,0,1,1,1,,,,,,,,,,,,,,,,,,,,,,,,,False,1,2,False,exp3.png,exp4.png,trial_left_image,1,exp3.png,4,exp4.png,exp3.png,0,4,reversed,incorrect,0.7373068232288953,0,valid_lose,11.14506960000017,1,,,,,,,,,,,,,,,sub_996,2024-08-26_12h07.31.984,Reversal,2023.1.3,60.05569565227904,4,
2,exp1.png,exp2.png,,0,0,0,0,0,2,2,2,,,,,,,,,,,,,,,,,,,,,,,,,False,2,3,False,exp1.png,exp2.png,trial_right_image,-1,exp2.png,4,exp2.png,exp1.png,1,1,non-reversed,correct,0.39694550605171486,1,valid_win,17.843334899999718,2,,,,,,,,,,,,,,,sub_996,2024-08-26_12h07.31.984,Reversal,2023.1.3,60.05569565227904,4,
3,exp3.png,exp4.png,,0,0,0,0,0,3,3,3,,,,,,,,,,,,,,,,,,,,,,,,,False,3,4,False,exp3.png,exp4.png,trial_right_image,-1,exp4.png,4,exp4.png,exp3.png,1,3,reversed,correct,0.10218280116746037,0,invalid_lose,24.040829399999893,2,,,,,,,,,,,,,,,sub_996,2024-08-26_12h07.31.984,Reversal,2023.1.3,60.05569565227904,4,
4,exp1.png,exp2.png,,0,0,0,0,0,4,4,4,,,,,,,,,,,,,,,,,,,,,,,,,False,4,5,False,exp1.png,exp2.png,trial_left_image,1,exp1.png,4,exp2.png,exp1.png,0,2,non-reversed,incorrect,0.47669302809355873,0,valid_lose,29.022026100000403,2,,,,,,,,,,,,,,,sub_996,2024-08-26_12h07.31.984,Reversal,2023.1.3,60.05569565227904,4,
5,exp3.png,exp4.png,,0,0,0,0,0,5,5,5,,,,,,,,,,,,,,,,,,,,,,,,,False,5,6,True,exp4.png,exp3.png,trial_right_image,-1,exp3.png,4,exp4.png,exp3.png,0,4,reversed,incorrect,0.5616877981052167,0,valid_lose,34.403145100000074,2,,,,,,,,,,,,,,,sub_996,2024-08-26_12h07.31.984,Reversal,2023.1.3,60.05569565227904,4,
6,exp1.png,exp2.png,,0,0,0,0,0,6,6,6,,,,,,,,,,,,,,,,,,,,,,,,,False,6,7,False,exp1.png,exp2.png,trial_right_image,-1,exp2.png,4,exp2.png,exp1.png,1,1,non-reversed,correct,0.43426368512056157,1,valid_win,39.168714600000385,3,,,,,,,,,,,,,,,sub_996,2024-08-26_12h07.31.984,Reversal,2023.1.3,60.05569565227904,4,
7,exp3.png,exp4.png,,0,0,0,0,0,7,7,7,,,,,,,,,,,,,,,,,,,,,,,,,False,7,8,False,exp3.png,exp4.png,trial_left_image,1,exp3.png,4,exp4.png,exp3.png,0,4,reversed,incorrect,0.06701053479868602,1,invalid_win,44.999917500000265,4,,,,,,,,,,,,,,,sub_996,2024-08-26_12h07.31.984,Reversal,2023.1.3,60.05569565227904,4,
8,exp1.png,exp2.png,,0,0,0,0,0,8,8,8,,,,,,,,,,,,,,,,,,,,,,,,,False,8,9,True,exp2.png,exp1.png,trial_left_image,1,exp2.png,4,exp2.png,exp1.png,1,1,non-reversed,correct,0.6953084691629395,1,valid_win,50.39854790000027,5,,,,,,,,,,,,,,,sub_996,2024-08-26_12h07.31.984,Reversal,2023.1.3,60.05569565227904,4,
9,exp3.png,exp4.png,,0,0,0,0,0,9,9,9,,,,,,,,,,,,,,,,,,,,,,,,,False,9,10,False,exp3.png,exp4.png,trial_right_image,-1,exp4.png,4,exp4.png,exp3.png,1,3,reversed,correct,0.609118788488443,1,valid_win,55.27974640000048,6,,,,,,,,,,,,,,,sub_996,2024-08-26_12h07.31.984,Reversal,2023.1.3,60.05569565227904,4,
10,exp1.png,exp2.png,,0,0,0,0,0,10,10,10,,,,,,,,,,,,,,,,,,,,,,,,,False,10,11,False,exp1.png,exp2.png,trial_left_image,1,exp1.png,4,exp2.png,exp1.png,0,2,non-reversed,incorrect,0.5457856850760735,0,valid_lose,61.26137010000002,6,,,,,,,,,,,,,,,sub_996,2024-08-26_12h07.31.984,Reversal,2023.1.3,60.05569565227904,4,
11,exp3.png,exp4.png,,0,0,0,0,0,11,11,11,,,,,,,,,,,,,,,,,,,,,,,,,False,11,12,True,exp4.png,exp3.png,trial_left_image,1,exp4.png,4,exp4.png,exp3.png,1,3,reversed,correct,0.5427505071054002,1,valid_win,66.39213240000026,7,,,,,,,,,,,,,,,sub_996,2024-08-26_12h07.31.984,Reversal,2023.1.3,60.05569565227904,4,
12,exp1.png,exp2.png,,0,0,0,0,0,12,12,12,,,,,,,,,,,,,,,,,,,,,,,,,False,12,13,False,exp1.png,exp2.png,trial_right_image,-1,exp2.png,4,exp2.png,exp1.png,1,1,non-reversed,correct,0.6247090028598319,1,valid_win,71.40719999999965,8,,,,,,,,,,,,,,,sub_996,2024-08-26_12h07.31.984,Reversal,2023.1.3,60.05569565227904,4,
13,exp3.png,exp4.png,,0,0,0,0,0,13,13,13,,,,,,,,,,,,,,,,,,,,,,,,,False,13,14,True,exp4.png,exp3.png,trial_right_image,-1,exp3.png,4,exp4.png,exp3.png,0,4,reversed,incorrect,0.2916593838758398,0,valid_lose,77.38870130000032,8,,,,,,,,,,,,,,,sub_996,2024-08-26_12h07.31.984,Reversal,2023.1.3,60.05569565227904,4,
14,exp1.png,exp2.png,,0,0,0,0,0,14,14,14,,,,,,,,,,,,,,,,,,,,,,,,,False,14,15,True,exp2.png,exp1.png,trial_left_image,1,exp2.png,4,exp2.png,exp1.png,1,1,non-reversed,correct,0.9094040835001463,1,valid_win,82.75363440000001,9,,,,,,,,,,,,,,,sub_996,2024-08-26_12h07.31.984,Reversal,2023.1.3,60.05569565227904,4,
15,exp3.png,exp4.png,,0,0,0,0,0,15,15,15,,,,,,,,,,,,,,,,,,,,,,,,,False,15,16,True,exp4.png,exp3.png,trial_left_image,1,exp4.png,4,exp4.png,exp3.png,1,3,reversed,correct,0.007826004287938337,0,invalid_lose,87.45209880000039,9,,,,,,,,,,,,,,,sub_996,2024-08-26_12h07.31.984,Reversal,2023.1.3,60.05569565227904,4,
16,exp1.png,exp2.png,,0,0,0,0,0,16,16,16,,,,,,,,,,,,,,,,,,,,,,,,,False,16,17,True,exp2.png,exp1.png,trial_right_image,-1,exp1.png,4,exp2.png,exp1.png,0,2,non-reversed,incorrect,0.20467888759932473,1,invalid_win,91.93347629999971,10,,,,,,,,,,,,,,,sub_996,2024-08-26_12h07.31.984,Reversal,2023.1.3,60.05569565227904,4,
17,exp3.png,exp4.png,,0,0,0,0,0,17,17,17,,,,,,,,,,,,,,,,,,,,,,,,,False,17,18,True,exp4.png,exp3.png,trial_right_image,-1,exp3.png,4,exp4.png,exp3.png,0,4,reversed,incorrect,0.8205356645273261,0,valid_lose,96.91550000000007,10,,,,,,,,,,,,,,,sub_996,2024-08-26_12h07.31.984,Reversal,2023.1.3,60.05569565227904,4,
18,exp1.png,exp2.png,,0,0,0,0,0,18,18,18,,,,,,,,,,,,,,,,,,,,,,,,,False,18,19,True,exp2.png,exp1.png,trial_left_image,1,exp2.png,4,exp2.png,exp1.png,1,1,non-reversed,correct,0.6854076757705833,1,valid_win,103.64647950000017,11,,,,,,,,,,,,,,,sub_996,2024-08-26_12h07.31.984,Reversal,2023.1.3,60.05569565227904,4,
19,exp3.png,exp4.png,,0,0,0,0,0,19,19,19,,,,,,,,,,,,,,,,,,,,,,,,,False,19,20,True,exp4.png,exp3.png,trial_left_image,1,exp4.png,4,exp4.png,exp3.png,1,3,reversed,correct,0.7672539691811366,1,valid_win,108.94536580000022,12,,,,,,,,,,,,,,,sub_996,2024-08-26_12h07.31.984,Reversal,2023.1.3,60.05569565227904,4,
20,exp1.png,exp2.png,,0,0,0,0,0,20,20,20,,,,,,,,,,,,,,,,,,,,,,,,,True,,,,,,,,,,,,,,,,,,,,,,,,,,,,,,,,,,,sub_996,2024-08-26_12h07.31.984,Reversal,2023.1.3,60.05569565227904,4,
,,,exp1.png,0,0,0,0,,,,,0,0,0,0,0,0,0,0,,,,,,,,,,,,,,,,,,,,,,,,,,,,,,,,,,,,,,216.08786170000076,59.0,59.0,9.610177799999292,"[(59.0, 9.610177799999292)]",,,,,,,,,,sub_996,2024-08-26_12h07.31.984,Reversal,2023.1.3,60.05569565227904,4,
,,,exp2.png,0,0,0,0,,,,,0,0,0,0,0,1,1,1,,,,,,,,,,,,,,,,,,,,,,,,,,,,,,,,,,,,,,227.14490220000062,,82.0,2.441146999999546,"[(82.0, 2.441146999999546)]",82.0,,,,,,,,,sub_996,2024-08-26_12h07.31.984,Reversal,2023.1.3,60.05569565227904,4,
,,,exp3.png,0,0,0,0,,,,,0,0,0,0,0,2,2,2,,,,,,,,,,,,,,,,,,,,,,,,,,,,,,,,,,,,,,230.65592970000034,,57.0,5.527212799999688,"[(37.0, 3.593781999999919), (57.0, 5.527212799999688)]",,57.0,,,,,,,,sub_996,2024-08-26_12h07.31.984,Reversal,2023.1.3,60.05569565227904,4,
,,,exp4.png,0,0,0,0,,,,,0,0,0,0,0,3,3,3,,,,,,,,,,,,,,,,,,,,,,,,,,,,,,,,,,,,,,237.02023050000025,,46.0,3.877958999999464,"[(46.0, 3.877958999999464)]",,,46.0,,,,,,,sub_996,2024-08-26_12h07.31.984,Reversal,2023.1.3,60.05569565227904,4,
0,exp1.png,exp2.png,,1,0,1,0,0,0,0,0,,,,,,,,,,,,,,,,,,,,,,,,,False,20,21,False,exp1.png,exp2.png,trial_right_image,-1,exp2.png,4,exp2.png,exp1.png,1,1,non-reversed,correct,0.4836619215730251,1,valid_win,139.86735260000023,13,,,,,,,,,,,,,,,sub_996,2024-08-26_12h07.31.984,Reversal,2023.1.3,60.05569565227904,4,
1,exp3.png,exp4.png,,1,0,1,0,0,1,1,1,,,,,,,,,,,,,,,,,,,,,,,,,False,21,22,False,exp3.png,exp4.png,trial_right_image,-1,exp4.png,4,exp4.png,exp3.png,1,3,reversed,correct,0.9221963001227632,1,valid_win,145.21597040000051,14,,,,,,,,,,,,,,,sub_996,2024-08-26_12h07.31.984,Reversal,2023.1.3,60.05569565227904,4,
2,exp1.png,exp2.png,,1,0,1,0,0,2,2,2,,,,,,,,,,,,,,,,,,,,,,,,,False,22,23,False,exp1.png,exp2.png,trial_right_image,-1,exp2.png,4,exp2.png,exp1.png,1,1,non-reversed,correct,0.9660267635910964,1,valid_win,149.8814272999998,15,,,,,,,,,,,,,,,sub_996,2024-08-26_12h07.31.984,Reversal,2023.1.3,60.05569565227904,4,
3,exp3.png,exp4.png,,1,0,1,0,0,3,3,3,,,,,,,,,,,,,,,,,,,,,,,,,False,23,24,True,exp4.png,exp3.png,trial_left_image,1,exp4.png,4,exp4.png,exp3.png,1,3,reversed,correct,0.8974628721570103,1,valid_win,154.4796384000001,16,,,,,,,,,,,,,,,sub_996,2024-08-26_12h07.31.984,Reversal,2023.1.3,60.05569565227904,4,
4,exp1.png,exp2.png,,1,0,1,0,0,4,4,4,,,,,,,,,,,,,,,,,,,,,,,,,False,24,25,False,exp1.png,exp2.png,trial_right_image,-1,exp2.png,4,exp2.png,exp1.png,1,1,non-reversed,correct,0.25666078800525083,1,valid_win,158.92836140000054,17,,,,,,,,,,,,,,,sub_996,2024-08-26_12h07.31.984,Reversal,2023.1.3,60.05569565227904,4,
5,exp3.png,exp4.png,,1,0,1,0,0,5,5,5,,,,,,,,,,,,,,,,,,,,,,,,,False,25,26,False,exp3.png,exp4.png,trial_right_image,-1,exp4.png,4,exp4.png,exp3.png,1,3,reversed,correct,0.8993507126852565,1,valid_win,163.7763519,18,,,,,,,,,,,,,,,sub_996,2024-08-26_12h07.31.984,Reversal,2023.1.3,60.05569565227904,4,
6,exp1.png,exp2.png,,1,0,1,0,0,6,6,6,,,,,,,,,,,,,,,,,,,,,,,,,False,26,27,True,exp2.png,exp1.png,trial_left_image,1,exp2.png,4,exp2.png,exp1.png,1,1,non-reversed,correct,0.07268556782707625,0,invalid_lose,168.19261050000023,18,,,,,,,,,,,,,,,sub_996,2024-08-26_12h07.31.984,Reversal,2023.1.3,60.05569565227904,4,
7,exp3.png,exp4.png,,1,0,1,0,0,7,7,7,,,,,,,,,,,,,,,,,,,,,,,,,False,27,28,False,exp3.png,exp4.png,trial_right_image,-1,exp4.png,4,exp4.png,exp3.png,1,3,reversed,correct,0.3056678333026426,1,valid_win,173.32304170000043,19,,,,,,,,,,,,,,,sub_996,2024-08-26_12h07.31.984,Reversal,2023.1.3,60.05569565227904,4,
8,exp1.png,exp2.png,,1,0,1,0,0,8,8,8,,,,,,,,,,,,,,,,,,,,,,,,,False,28,29,False,exp1.png,exp2.png,trial_left_image,1,exp1.png,4,exp2.png,exp1.png,0,2,non-reversed,incorrect,0.4451907357966003,0,valid_lose,178.38767890000054,19,,,,,,,,,,,,,,,sub_996,2024-08-26_12h07.31.984,Reversal,2023.1.3,60.05569565227904,4,
9,exp3.png,exp4.png,,1,0,1,0,0,9,9,9,,,,,,,,,,,,,,,,,,,,,,,,,False,29,30,True,exp4.png,exp3.png,trial_left_image,1,exp4.png,4,exp4.png,exp3.png,1,3,reversed,correct,0.5475566135411268,1,valid_win,183.23636369999986,20,,,,,,,,,,,,,,,sub_996,2024-08-26_12h07.31.984,Reversal,2023.1.3,60.05569565227904,4,
10,exp1.png,exp2.png,,1,0,1,0,0,10,10,10,,,,,,,,,,,,,,,,,,,,,,,,,False,30,31,True,exp2.png,exp1.png,trial_left_image,1,exp2.png,4,exp2.png,exp1.png,1,1,non-reversed,correct,0.22277091676592575,0,invalid_lose,188.40128000000004,20,,,,,,,,,,,,,,,sub_996,2024-08-26_12h07.31.984,Reversal,2023.1.3,60.05569565227904,4,
11,exp3.png,exp4.png,,1,0,1,0,0,11,11,11,,,,,,,,,,,,,,,,,,,,,,,,,False,31,32,False,exp3.png,exp4.png,trial_right_image,-1,exp4.png,4,exp4.png,exp3.png,1,3,reversed,correct,0.6200282560431102,1,valid_win,193.16859120000026,21,,,,,,,,,,,,,,,sub_996,2024-08-26_12h07.31.984,Reversal,2023.1.3,60.05569565227904,4,
12,exp1.png,exp2.png,,1,0,1,0,0,12,12,12,,,,,,,,,,,,,,,,,,,,,,,,,False,32,33,True,exp2.png,exp1.png,trial_right_image,-1,exp1.png,4,exp2.png,exp1.png,0,2,non-reversed,incorrect,0.008744756046863755,1,invalid_win,199.14774020000004,22,,,,,,,,,,,,,,,sub_996,2024-08-26_12h07.31.984,Reversal,2023.1.3,60.05569565227904,4,
13,exp3.png,exp4.png,,1,0,1,0,0,13,13,13,,,,,,,,,,,,,,,,,,,,,,,,,False,33,34,True,exp4.png,exp3.png,trial_left_image,1,exp4.png,4,exp4.png,exp3.png,1,3,reversed,correct,0.4290296061408272,1,valid_win,204.29657589999988,23,,,,,,,,,,,,,,,sub_996,2024-08-26_12h07.31.984,Reversal,2023.1.3,60.05569565227904,4,
14,exp1.png,exp2.png,,1,0,1,0,0,14,14,14,,,,,,,,,,,,,,,,,,,,,,,,,False,34,35,False,exp1.png,exp2.png,trial_left_image,1,exp1.png,4,exp2.png,exp1.png,0,2,non-reversed,incorrect,0.7455964862553692,0,valid_lose,209.7620278000004,23,,,,,,,,,,,,,,,sub_996,2024-08-26_12h07.31.984,Reversal,2023.1.3,60.05569565227904,4,
15,exp3.png,exp4.png,,1,0,1,0,0,15,15,15,,,,,,,,,,,,,,,,,,,,,,,,,False,35,36,True,exp4.png,exp3.png,trial_left_image,1,exp4.png,4,exp4.png,exp3.png,1,3,reversed,correct,0.6003801980076893,1,valid_win,215.45820120000008,24,,,,,,,,,,,,,,,sub_996,2024-08-26_12h07.31.984,Reversal,2023.1.3,60.05569565227904,4,
16,exp1.png,exp2.png,,1,0,1,0,0,16,16,16,,,,,,,,,,,,,,,,,,,,,,,,,False,36,37,True,exp2.png,exp1.png,trial_right_image,-1,exp1.png,4,exp2.png,exp1.png,0,2,non-reversed,incorrect,0.06671538886138884,1,invalid_win,221.28974560000006,25,,,,,,,,,,,,,,,sub_996,2024-08-26_12h07.31.984,Reversal,2023.1.3,60.05569565227904,4,
17,exp3.png,exp4.png,,1,0,1,0,0,17,17,17,,,,,,,,,,,,,,,,,,,,,,,,,False,37,38,True,exp4.png,exp3.png,trial_left_image,1,exp4.png,4,exp4.png,exp3.png,1,3,reversed,correct,0.4893192370671944,1,valid_win,227.33749869999974,26,,,,,,,,,,,,,,,sub_996,2024-08-26_12h07.31.984,Reversal,2023.1.3,60.05569565227904,4,
18,exp1.png,exp2.png,,1,0,1,0,0,18,18,18,,,,,,,,,,,,,,,,,,,,,,,,,False,38,39,False,exp1.png,exp2.png,trial_left_image,1,exp1.png,4,exp2.png,exp1.png,0,2,non-reversed,incorrect,0.4834771506649038,0,valid_lose,232.70261589999973,26,,,,,,,,,,,,,,,sub_996,2024-08-26_12h07.31.984,Reversal,2023.1.3,60.05569565227904,4,
19,exp3.png,exp4.png,,1,0,1,0,0,19,19,19,,,,,,,,,,,,,,,,,,,,,,,,,False,39,40,True,exp4.png,exp3.png,trial_left_image,1,exp4.png,4,exp4.png,exp3.png,1,3,reversed,correct,0.35070733205389903,1,valid_win,238.95054020000043,27,,,,,,,,,,,,,,,sub_996,2024-08-26_12h07.31.984,Reversal,2023.1.3,60.05569565227904,4,
20,exp1.png,exp2.png,,1,0,1,0,0,20,20,20,,,,,,,,,,,,,,,,,,,,,,,,,True,,,,,,,,,,,,,,,,,,,,,,,,,,,,,,,,,,,sub_996,2024-08-26_12h07.31.984,Reversal,2023.1.3,60.05569565227904,4,
,,,exp1.png,1,0,1,0,,,,,0,0,0,0,0,0,0,0,,,,,,,,,,,,,,,,,,,,,,,,,,,,,,,,,,,,,,346.0935205000005,15.0,15.0,5.739999800000078,"[(15.0, 5.739999800000078)]",,,,,,,,,,sub_996,2024-08-26_12h07.31.984,Reversal,2023.1.3,60.05569565227904,4,
,,,exp2.png,1,0,1,0,,,,,0,0,0,0,0,1,1,1,,,,,,,,,,,,,,,,,,,,,,,,,,,,,,,,,,,,,,352.8676359000001,,37.0,3.1258043999996517,"[(37.0, 3.1258043999996517)]",37.0,,,,,,,,,sub_996,2024-08-26_12h07.31.984,Reversal,2023.1.3,60.05569565227904,4,
,,,exp3.png,1,0,1,0,,,,,0,0,0,0,0,2,2,2,,,,,,,,,,,,,,,,,,,,,,,,,,,,,,,,,,,,,,356.9632296,,13.0,1.9439528999992035,"[(13.0, 1.9439528999992035)]",,13.0,,,,,,,,sub_996,2024-08-26_12h07.31.984,Reversal,2023.1.3,60.05569565227904,4,
,,,exp4.png,1,0,1,0,,,,,0,0,0,0,0,3,3,3,,,,,,,,,,,,,,,,,,,,,,,,,,,,,,,,,,,,,,359.88053430000036,,84.0,2.292578799999319,"[(84.0, 2.292578799999319)]",,,84.0,,,,,,,sub_996,2024-08-26_12h07.31.984,Reversal,2023.1.3,60.05569565227904,4,
0,exp1.png,exp2.png,,2,0,2,0,0,0,0,0,,,,,,,,,,,,,,,,,,,,,,,,,False,40,41,False,exp1.png,exp2.png,trial_left_image,1,exp1.png,4,exp2.png,exp1.png,0,2,non-reversed,incorrect,0.2651505570956877,0,valid_lose,261.45941589999984,27,,,,,,,,,,,,,,,sub_996,2024-08-26_12h07.31.984,Reversal,2023.1.3,60.05569565227904,4,
1,exp3.png,exp4.png,,2,0,2,0,0,1,1,1,,,,,,,,,,,,,,,,,,,,,,,,,False,41,42,True,exp4.png,exp3.png,trial_left_image,1,exp4.png,4,exp4.png,exp3.png,1,3,reversed,correct,0.6034197151787393,1,valid_win,266.52416150000045,28,,,,,,,,,,,,,,,sub_996,2024-08-26_12h07.31.984,Reversal,2023.1.3,60.05569565227904,4,
2,exp1.png,exp2.png,,2,0,2,0,0,2,2,2,,,,,,,,,,,,,,,,,,,,,,,,,False,42,43,True,exp2.png,exp1.png,trial_right_image,-1,exp1.png,4,exp2.png,exp1.png,0,2,non-reversed,incorrect,0.28423403789974,0,valid_lose,272.0557101000004,28,,,,,,,,,,,,,,,sub_996,2024-08-26_12h07.31.984,Reversal,2023.1.3,60.05569565227904,4,
3,exp3.png,exp4.png,,2,0,2,0,0,3,3,3,,,,,,,,,,,,,,,,,,,,,,,,,False,43,44,False,exp3.png,exp4.png,trial_right_image,-1,exp4.png,4,exp4.png,exp3.png,1,3,reversed,correct,0.901892065204647,1,valid_win,276.6211013000002,29,,,,,,,,,,,,,,,sub_996,2024-08-26_12h07.31.984,Reversal,2023.1.3,60.05569565227904,4,
4,exp1.png,exp2.png,,2,0,2,0,0,4,4,4,,,,,,,,,,,,,,,,,,,,,,,,,False,44,45,True,exp2.png,exp1.png,trial_left_image,1,exp2.png,4,exp2.png,exp1.png,1,1,non-reversed,correct,0.022120220190754325,0,invalid_lose,281.1196380000001,29,,,,,,,,,,,,,,,sub_996,2024-08-26_12h07.31.984,Reversal,2023.1.3,60.05569565227904,4,
5,exp3.png,exp4.png,,2,0,2,0,0,5,5,5,,,,,,,,,,,,,,,,,,,,,,,,,False,45,46,True,exp4.png,exp3.png,trial_left_image,1,exp4.png,4,exp4.png,exp3.png,1,3,reversed,correct,0.9498328894410256,1,valid_win,285.91809040000044,30,,,,,,,,,,,,,,,sub_996,2024-08-26_12h07.31.984,Reversal,2023.1.3,60.05569565227904,4,
6,exp1.png,exp2.png,,2,0,2,0,0,6,6,6,,,,,,,,,,,,,,,,,,,,,,,,,False,46,47,False,exp1.png,exp2.png,trial_right_image,-1,exp2.png,4,exp2.png,exp1.png,1,1,non-reversed,correct,0.06904660569571996,0,invalid_lose,291.6492758000004,30,,,,,,,,,,,,,,,sub_996,2024-08-26_12h07.31.984,Reversal,2023.1.3,60.05569565227904,4,
7,exp3.png,exp4.png,,2,0,2,0,0,7,7,7,,,,,,,,,,,,,,,,,,,,,,,,,False,47,48,False,exp3.png,exp4.png,trial_right_image,-1,exp4.png,4,exp4.png,exp3.png,1,3,reversed,correct,0.32846374557155567,1,valid_win,296.76499930000045,31,,,,,,,,,,,,,,,sub_996,2024-08-26_12h07.31.984,Reversal,2023.1.3,60.05569565227904,4,
8,exp1.png,exp2.png,,2,0,2,0,0,8,8,8,,,,,,,,,,,,,,,,,,,,,,,,,False,48,49,False,exp1.png,exp2.png,trial_right_image,-1,exp2.png,4,exp2.png,exp1.png,1,1,non-reversed,correct,0.42991804309396786,1,valid_win,304.57871330000035,32,,,,,,,,,,,,,,,sub_996,2024-08-26_12h07.31.984,Reversal,2023.1.3,60.05569565227904,4,
9,exp3.png,exp4.png,,2,0,2,0,0,9,9,9,,,,,,,,,,,,,,,,,,,,,,,,,False,49,50,False,exp3.png,exp4.png,trial_right_image,-1,exp4.png,4,exp4.png,exp3.png,1,3,reversed,correct,0.7438311748815128,1,valid_win,310.6929326999998,33,,,,,,,,,,,,,,,sub_996,2024-08-26_12h07.31.984,Reversal,2023.1.3,60.05569565227904,4,
10,exp1.png,exp2.png,,2,0,2,0,0,10,10,10,,,,,,,,,,,,,,,,,,,,,,,,,False,50,51,True,exp2.png,exp1.png,trial_left_image,1,exp2.png,4,exp2.png,exp1.png,1,1,non-reversed,correct,0.9305130173692376,1,valid_win,317.0238073999999,34,,,,,,,,,,,,,,,sub_996,2024-08-26_12h07.31.984,Reversal,2023.1.3,60.05569565227904,4,
11,exp3.png,exp4.png,,2,0,2,0,0,11,11,11,,,,,,,,,,,,,,,,,,,,,,,,,False,51,52,False,exp3.png,exp4.png,trial_right_image,-1,exp4.png,4,exp4.png,exp3.png,1,3,reversed,correct,0.34553177383453615,1,valid_win,321.98906290000014,35,,,,,,,,,,,,,,,sub_996,2024-08-26_12h07.31.984,Reversal,2023.1.3,60.05569565227904,4,
12,exp1.png,exp2.png,,2,0,2,0,0,12,12,12,,,,,,,,,,,,,,,,,,,,,,,,,False,52,53,True,exp2.png,exp1.png,trial_left_image,1,exp2.png,4,exp2.png,exp1.png,1,1,non-reversed,correct,0.5237008591096066,1,valid_win,326.8879947000005,36,,,,,,,,,,,,,,,sub_996,2024-08-26_12h07.31.984,Reversal,2023.1.3,60.05569565227904,4,
13,exp3.png,exp4.png,,2,0,2,0,0,13,13,13,,,,,,,,,,,,,,,,,,,,,,,,,False,53,54,False,exp3.png,exp4.png,trial_right_image,-1,exp4.png,4,exp4.png,exp3.png,1,3,reversed,correct,0.7473402045365811,1,valid_win,331.75273990000005,37,,,,,,,,,,,,,,,sub_996,2024-08-26_12h07.31.984,Reversal,2023.1.3,60.05569565227904,4,
14,exp1.png,exp2.png,,2,0,2,0,0,14,14,14,,,,,,,,,,,,,,,,,,,,,,,,,False,54,55,True,exp2.png,exp1.png,trial_left_image,1,exp2.png,4,exp2.png,exp1.png,1,1,non-reversed,correct,0.47261861235514757,1,valid_win,336.2675835,38,,,,,,,,,,,,,,,sub_996,2024-08-26_12h07.31.984,Reversal,2023.1.3,60.05569565227904,4,
15,exp3.png,exp4.png,,2,0,2,0,0,15,15,15,,,,,,,,,,,,,,,,,,,,,,,,,False,55,56,False,exp3.png,exp4.png,trial_right_image,-1,exp4.png,4,exp4.png,exp3.png,1,3,reversed,correct,0.08374244017092825,0,invalid_lose,340.8664520000002,38,,,,,,,,,,,,,,,sub_996,2024-08-26_12h07.31.984,Reversal,2023.1.3,60.05569565227904,4,
16,exp1.png,exp2.png,,2,0,2,0,0,16,16,16,,,,,,,,,,,,,,,,,,,,,,,,,False,56,57,True,exp2.png,exp1.png,trial_left_image,1,exp2.png,4,exp2.png,exp1.png,1,1,non-reversed,correct,0.3290024852527573,1,valid_win,346.01394340000024,39,,,,,,,,,,,,,,,sub_996,2024-08-26_12h07.31.984,Reversal,2023.1.3,60.05569565227904,4,
17,exp3.png,exp4.png,,2,0,2,0,0,17,17,17,,,,,,,,,,,,,,,,,,,,,,,,,False,57,58,False,exp3.png,exp4.png,trial_left_image,1,exp3.png,4,exp4.png,exp3.png,0,4,reversed,incorrect,0.6473917175135159,0,valid_lose,350.5295251999996,39,,,,,,,,,,,,,,,sub_996,2024-08-26_12h07.31.984,Reversal,2023.1.3,60.05569565227904,4,
18,exp1.png,exp2.png,,2,0,2,0,0,18,18,18,,,,,,,,,,,,,,,,,,,,,,,,,False,58,59,True,exp2.png,exp1.png,trial_left_image,1,exp2.png,4,exp2.png,exp1.png,1,1,non-reversed,correct,0.6120797618125337,1,valid_win,355.16105249999964,40,,,,,,,,,,,,,,,sub_996,2024-08-26_12h07.31.984,Reversal,2023.1.3,60.05569565227904,4,
19,exp3.png,exp4.png,,2,0,2,0,0,19,19,19,,,,,,,,,,,,,,,,,,,,,,,,,False,59,60,True,exp4.png,exp3.png,trial_left_image,1,exp4.png,4,exp4.png,exp3.png,1,3,reversed,correct,0.6442006032773934,1,valid_win,362.4257496000009,41,,,,,,,,,,,,,,,sub_996,2024-08-26_12h07.31.984,Reversal,2023.1.3,60.05569565227904,4,
20,exp1.png,exp2.png,,2,0,2,0,0,20,20,20,,,,,,,,,,,,,,,,,,,,,,,,,True,,,,,,,,,,,,,,,,,,,,,,,,,,,,,,,,,,,sub_996,2024-08-26_12h07.31.984,Reversal,2023.1.3,60.05569565227904,4,
,,,exp1.png,2,0,2,0,,,,,0,0,0,0,0,0,0,0,,,,,,,,,,,,,,,,,,,,,,,,,,,,,,,,,,,,,,469.5591320000003,16.0,16.0,3.347901600000114,"[(16.0, 3.347901600000114)]",,,,,,,,,,sub_996,2024-08-26_12h07.31.984,Reversal,2023.1.3,60.05569565227904,4,
,,,exp2.png,2,0,2,0,,,,,0,0,0,0,0,1,1,1,,,,,,,,,,,,,,,,,,,,,,,,,,,,,,,,,,,,,,473.9224291999999,,93.0,2.0445300999999745,"[(93.0, 2.0445300999999745)]",93.0,,,,,,,,,sub_996,2024-08-26_12h07.31.984,Reversal,2023.1.3,60.05569565227904,4,
,,,exp3.png,2,0,2,0,,,,,0,0,0,0,0,2,2,2,,,,,,,,,,,,,,,,,,,,,,,,,,,,,,,,,,,,,,476.9042616000006,,None,None,[],,,,,,,,,,sub_996,2024-08-26_12h07.31.984,Reversal,2023.1.3,60.05569565227904,4,
,,,exp4.png,2,0,2,0,,,,,0,0,0,0,0,3,3,3,,,,,,,,,,,,,,,,,,,,,,,,,,,,,,,,,,,,,,479.4207473000006,,88.0,2.395204599999488,"[(88.0, 2.395204599999488)]",,,88.0,,,,,,,sub_996,2024-08-26_12h07.31.984,Reversal,2023.1.3,60.05569565227904,4,
0,exp1.png,exp2.png,,,,,,,,,,,,,,,,,,0,0,0,0,0,0,0,0,,,,,,,,,False,0,61,False,exp1.png,exp2.png,trial_right_image,-1,exp2.png,4,exp2.png,exp1.png,1,1,non-reversed,correct,0.7459548265028694,1,valid_win,380.28692729999966,42,,,,,,,,,378.1488253999996,,,,,,sub_996,2024-08-26_12h07.31.984,Reversal,2023.1.3,60.05569565227904,4,
1,exp3.png,exp4.png,,,,,,,,,,,,,,,,,,0,0,0,0,0,1,1,1,,,,,,,,,False,1,62,True,exp4.png,exp3.png,trial_left_image,1,exp4.png,4,exp3.png,exp4.png,1,3,reversed,incorrect,0.7130702504020857,0,valid_lose,385.7681047999995,42,,,,,,,,,,,,,,,sub_996,2024-08-26_12h07.31.984,Reversal,2023.1.3,60.05569565227904,4,
2,exp1.png,exp2.png,,,,,,,,,,,,,,,,,,0,0,0,0,0,2,2,2,,,,,,,,,False,2,63,True,exp2.png,exp1.png,trial_left_image,1,exp2.png,4,exp2.png,exp1.png,1,1,non-reversed,correct,0.9454458272915914,1,valid_win,391.11558270000023,43,,,,,,,,,,,,,,,sub_996,2024-08-26_12h07.31.984,Reversal,2023.1.3,60.05569565227904,4,
3,exp3.png,exp4.png,,,,,,,,,,,,,,,,,,0,0,0,0,0,3,3,3,,,,,,,,,False,3,64,False,exp3.png,exp4.png,trial_left_image,1,exp3.png,4,exp3.png,exp4.png,0,4,reversed,correct,0.36715510357009884,1,valid_win,396.213596900001,44,,,,,,,,,,,,,,,sub_996,2024-08-26_12h07.31.984,Reversal,2023.1.3,60.05569565227904,4,
4,exp1.png,exp2.png,,,,,,,,,,,,,,,,,,0,0,0,0,0,4,4,4,,,,,,,,,False,4,65,True,exp2.png,exp1.png,trial_left_image,1,exp2.png,4,exp2.png,exp1.png,1,1,non-reversed,correct,0.3401825668424743,1,valid_win,401.2784993000005,45,,,,,,,,,,,,,,,sub_996,2024-08-26_12h07.31.984,Reversal,2023.1.3,60.05569565227904,4,
5,exp3.png,exp4.png,,,,,,,,,,,,,,,,,,0,0,0,0,0,5,5,5,,,,,,,,,False,5,66,True,exp4.png,exp3.png,trial_right_image,-1,exp3.png,4,exp3.png,exp4.png,0,4,reversed,correct,0.9135118160645057,1,valid_win,408.2096287000004,46,,,,,,,,,,,,,,,sub_996,2024-08-26_12h07.31.984,Reversal,2023.1.3,60.05569565227904,4,
6,exp1.png,exp2.png,,,,,,,,,,,,,,,,,,0,0,0,0,0,6,6,6,,,,,,,,,False,6,67,True,exp2.png,exp1.png,trial_left_image,1,exp2.png,4,exp2.png,exp1.png,1,1,non-reversed,correct,0.3732791949690475,1,valid_win,413.6085256000006,47,,,,,,,,,,,,,,,sub_996,2024-08-26_12h07.31.984,Reversal,2023.1.3,60.05569565227904,4,
7,exp3.png,exp4.png,,,,,,,,,,,,,,,,,,0,0,0,0,0,7,7,7,,,,,,,,,False,7,68,True,exp4.png,exp3.png,trial_right_image,-1,exp3.png,4,exp3.png,exp4.png,0,4,reversed,correct,0.9687911058076126,1,valid_win,418.35642499999994,48,,,,,,,,,,,,,,,sub_996,2024-08-26_12h07.31.984,Reversal,2023.1.3,60.05569565227904,4,
8,exp1.png,exp2.png,,,,,,,,,,,,,,,,,,0,0,0,0,0,8,8,8,,,,,,,,,False,8,69,False,exp1.png,exp2.png,trial_right_image,-1,exp2.png,4,exp2.png,exp1.png,1,1,non-reversed,correct,0.8412951936007746,1,valid_win,423.6046934999995,49,,,,,,,,,,,,,,,sub_996,2024-08-26_12h07.31.984,Reversal,2023.1.3,60.05569565227904,4,
9,exp3.png,exp4.png,,,,,,,,,,,,,,,,,,0,0,0,0,0,9,9,9,,,,,,,,,False,9,70,False,exp3.png,exp4.png,trial_left_image,1,exp3.png,4,exp3.png,exp4.png,0,4,reversed,correct,0.39476861502638216,1,valid_win,428.9361824000007,50,,,,,,,,,,,,,,,sub_996,2024-08-26_12h07.31.984,Reversal,2023.1.3,60.05569565227904,4,
10,exp1.png,exp2.png,,,,,,,,,,,,,,,,,,0,0,0,0,0,10,10,10,,,,,,,,,False,10,71,False,exp1.png,exp2.png,trial_right_image,-1,exp2.png,4,exp2.png,exp1.png,1,1,non-reversed,correct,0.741315571026266,1,valid_win,433.9683798999995,51,,,,,,,,,,,,,,,sub_996,2024-08-26_12h07.31.984,Reversal,2023.1.3,60.05569565227904,4,
11,exp3.png,exp4.png,,,,,,,,,,,,,,,,,,0,0,0,0,0,11,11,11,,,,,,,,,False,11,72,False,exp3.png,exp4.png,trial_left_image,1,exp3.png,4,exp3.png,exp4.png,0,4,reversed,correct,0.07375838934872059,0,invalid_lose,438.9991890000001,51,,,,,,,,,,,,,,,sub_996,2024-08-26_12h07.31.984,Reversal,2023.1.3,60.05569565227904,4,
12,exp1.png,exp2.png,,,,,,,,,,,,,,,,,,0,0,0,0,0,12,12,12,,,,,,,,,False,12,73,False,exp1.png,exp2.png,trial_right_image,-1,exp2.png,4,exp2.png,exp1.png,1,1,non-reversed,correct,0.9170383391727852,1,valid_win,443.71488320000026,52,,,,,,,,,,,,,,,sub_996,2024-08-26_12h07.31.984,Reversal,2023.1.3,60.05569565227904,4,
13,exp3.png,exp4.png,,,,,,,,,,,,,,,,,,0,0,0,0,0,13,13,13,,,,,,,,,False,13,74,False,exp3.png,exp4.png,trial_left_image,1,exp3.png,4,exp3.png,exp4.png,0,4,reversed,correct,0.9292495776974544,1,valid_win,449.6953271000002,53,,,,,,,,,,,,,,,sub_996,2024-08-26_12h07.31.984,Reversal,2023.1.3,60.05569565227904,4,
14,exp1.png,exp2.png,,,,,,,,,,,,,,,,,,0,0,0,0,0,14,14,14,,,,,,,,,False,14,75,True,exp2.png,exp1.png,trial_left_image,1,exp2.png,4,exp2.png,exp1.png,1,1,non-reversed,correct,0.7526232454317626,1,valid_win,457.0102879999995,54,,,,,,,,,,,,,,,sub_996,2024-08-26_12h07.31.984,Reversal,2023.1.3,60.05569565227904,4,
15,exp3.png,exp4.png,,,,,,,,,,,,,,,,,,0,0,0,0,0,15,15,15,,,,,,,,,False,15,76,True,exp4.png,exp3.png,trial_right_image,-1,exp3.png,4,exp3.png,exp4.png,0,4,reversed,correct,0.5568641791331311,1,valid_win,461.7748367999993,55,,,,,,,,,,,,,,,sub_996,2024-08-26_12h07.31.984,Reversal,2023.1.3,60.05569565227904,4,
16,exp1.png,exp2.png,,,,,,,,,,,,,,,,,,0,0,0,0,0,16,16,16,,,,,,,,,False,16,77,True,exp2.png,exp1.png,trial_left_image,1,exp2.png,4,exp2.png,exp1.png,1,1,non-reversed,correct,0.3227861145995412,1,valid_win,466.6564010000002,56,,,,,,,,,,,,,,,sub_996,2024-08-26_12h07.31.984,Reversal,2023.1.3,60.05569565227904,4,
17,exp3.png,exp4.png,,,,,,,,,,,,,,,,,,0,0,0,0,0,17,17,17,,,,,,,,,False,17,78,False,exp3.png,exp4.png,trial_left_image,1,exp3.png,4,exp3.png,exp4.png,0,4,reversed,correct,0.5587569142724389,1,valid_win,472.73923450000075,57,,,,,,,,,,,,,,,sub_996,2024-08-26_12h07.31.984,Reversal,2023.1.3,60.05569565227904,4,
18,exp1.png,exp2.png,,,,,,,,,,,,,,,,,,0,0,0,0,0,18,18,18,,,,,,,,,False,18,79,True,exp2.png,exp1.png,trial_left_image,1,exp2.png,4,exp2.png,exp1.png,1,1,non-reversed,correct,0.5446405833427141,1,valid_win,477.38688770000044,58,,,,,,,,,,,,,,,sub_996,2024-08-26_12h07.31.984,Reversal,2023.1.3,60.05569565227904,4,
19,exp3.png,exp4.png,,,,,,,,,,,,,,,,,,0,0,0,0,0,19,19,19,,,,,,,,,False,19,80,False,exp3.png,exp4.png,trial_left_image,1,exp3.png,4,exp3.png,exp4.png,0,4,reversed,correct,0.49882873177874376,1,valid_win,483.4006888999993,59,,,,,,,,,,,,,,,sub_996,2024-08-26_12h07.31.984,Reversal,2023.1.3,60.05569565227904,4,
20,exp1.png,exp2.png,,,,,,,,,,,,,,,,,,0,0,0,0,0,20,20,20,,,,,,,,,True,,,,,,,,,,,,,,,,,,,,,,,,,,,,,,,,,,,sub_996,2024-08-26_12h07.31.984,Reversal,2023.1.3,60.05569565227904,4,
,,,exp1.png,,,,,,,,,,,,,,,,,0,0,0,0,,,,,0,0,0,0,0,0,0,0,,,,,,,,,,,,,,,,,,,,,,590.5497538,3.0,3.0,3.299857800000609,"[(3.0, 3.299857800000609)]",,,,,,,,,,sub_996,2024-08-26_12h07.31.984,Reversal,2023.1.3,60.05569565227904,4,
,,,exp2.png,,,,,,,,,,,,,,,,,0,0,0,0,,,,,0,0,0,0,0,1,1,1,,,,,,,,,,,,,,,,,,,,,,594.9333829000007,,100.0,1.9598398999987694,"[(100.0, 1.9598398999987694)]",100.0,,,,,,,,,sub_996,2024-08-26_12h07.31.984,Reversal,2023.1.3,60.05569565227904,4,
,,,exp3.png,,,,,,,,,,,,,,,,,0,0,0,0,,,,,0,0,0,0,0,2,2,2,,,,,,,,,,,,,,,,,,,,,,597.8643740999996,,97.0,1.8451420000001235,"[(97.0, 1.8451420000001235)]",,97.0,,,,,,,,sub_996,2024-08-26_12h07.31.984,Reversal,2023.1.3,60.05569565227904,4,
,,,exp4.png,,,,,,,,,,,,,,,,,0,0,0,0,,,,,0,0,0,0,0,3,3,3,,,,,,,,,,,,,,,,,,,,,,600.812844,,6.0,2.61141520000092,"[(6.0, 2.61141520000092)]",,,6.0,,,,,,,sub_996,2024-08-26_12h07.31.984,Reversal,2023.1.3,60.05569565227904,4,
0,exp1.png,exp2.png,,,,,,,,,,,,,,,,,,1,0,1,0,0,0,0,0,,,,,,,,,False,20,81,False,exp1.png,exp2.png,trial_right_image,-1,exp2.png,4,exp2.png,exp1.png,1,1,non-reversed,correct,0.4053174147816341,1,valid_win,502.1618312999999,60,,,,,,,,,,,,,,,sub_996,2024-08-26_12h07.31.984,Reversal,2023.1.3,60.05569565227904,4,
1,exp3.png,exp4.png,,,,,,,,,,,,,,,,,,1,0,1,0,0,1,1,1,,,,,,,,,False,21,82,False,exp3.png,exp4.png,trial_left_image,1,exp3.png,4,exp3.png,exp4.png,0,4,reversed,correct,0.14526069074718018,0,invalid_lose,506.89287030000014,60,,,,,,,,,,,,,,,sub_996,2024-08-26_12h07.31.984,Reversal,2023.1.3,60.05569565227904,4,
2,exp1.png,exp2.png,,,,,,,,,,,,,,,,,,1,0,1,0,0,2,2,2,,,,,,,,,False,22,83,True,exp2.png,exp1.png,trial_left_image,1,exp2.png,4,exp2.png,exp1.png,1,1,non-reversed,correct,0.06402989054148989,0,invalid_lose,511.924637600001,60,,,,,,,,,,,,,,,sub_996,2024-08-26_12h07.31.984,Reversal,2023.1.3,60.05569565227904,4,
3,exp3.png,exp4.png,,,,,,,,,,,,,,,,,,1,0,1,0,0,3,3,3,,,,,,,,,False,23,84,False,exp3.png,exp4.png,trial_left_image,1,exp3.png,4,exp3.png,exp4.png,0,4,reversed,correct,0.21094541778549414,0,invalid_lose,517.4895450999993,60,,,,,,,,,,,,,,,sub_996,2024-08-26_12h07.31.984,Reversal,2023.1.3,60.05569565227904,4,
4,exp1.png,exp2.png,,,,,,,,,,,,,,,,,,1,0,1,0,0,4,4,4,,,,,,,,,False,24,85,True,exp2.png,exp1.png,trial_right_image,-1,exp1.png,4,exp2.png,exp1.png,0,2,non-reversed,incorrect,0.9545809907385912,0,valid_lose,522.5876731000008,60,,,,,,,,,,,,,,,sub_996,2024-08-26_12h07.31.984,Reversal,2023.1.3,60.05569565227904,4,
5,exp3.png,exp4.png,,,,,,,,,,,,,,,,,,1,0,1,0,0,5,5,5,,,,,,,,,False,25,86,True,exp4.png,exp3.png,trial_right_image,-1,exp3.png,4,exp3.png,exp4.png,0,4,reversed,correct,0.863290236994301,1,valid_win,528.1853071999994,61,,,,,,,,,,,,,,,sub_996,2024-08-26_12h07.31.984,Reversal,2023.1.3,60.05569565227904,4,
6,exp1.png,exp2.png,,,,,,,,,,,,,,,,,,1,0,1,0,0,6,6,6,,,,,,,,,False,26,87,True,exp2.png,exp1.png,trial_left_image,1,exp2.png,4,exp2.png,exp1.png,1,1,non-reversed,correct,0.185387892051043,0,invalid_lose,533.3673868999995,61,,,,,,,,,,,,,,,sub_996,2024-08-26_12h07.31.984,Reversal,2023.1.3,60.05569565227904,4,
7,exp3.png,exp4.png,,,,,,,,,,,,,,,,,,1,0,1,0,0,7,7,7,,,,,,,,,False,27,88,True,exp4.png,exp3.png,trial_right_image,-1,exp3.png,4,exp3.png,exp4.png,0,4,reversed,correct,0.4816454849720623,1,valid_win,538.1991918000003,62,,,,,,,,,,,,,,,sub_996,2024-08-26_12h07.31.984,Reversal,2023.1.3,60.05569565227904,4,
8,exp1.png,exp2.png,,,,,,,,,,,,,,,,,,1,0,1,0,0,8,8,8,,,,,,,,,False,28,89,True,exp2.png,exp1.png,trial_left_image,1,exp2.png,4,exp2.png,exp1.png,1,1,non-reversed,correct,0.12443000376094548,0,invalid_lose,547.2958283999997,62,,,,,,,,,,,,,,,sub_996,2024-08-26_12h07.31.984,Reversal,2023.1.3,60.05569565227904,4,
9,exp3.png,exp4.png,,,,,,,,,,,,,,,,,,1,0,1,0,0,9,9,9,,,,,,,,,False,29,90,False,exp3.png,exp4.png,trial_left_image,1,exp3.png,4,exp3.png,exp4.png,0,4,reversed,correct,0.6086800632170681,1,valid_win,552.2274570999998,63,,,,,,,,,,,,,,,sub_996,2024-08-26_12h07.31.984,Reversal,2023.1.3,60.05569565227904,4,
10,exp1.png,exp2.png,,,,,,,,,,,,,,,,,,1,0,1,0,0,10,10,10,,,,,,,,,False,30,91,False,exp1.png,exp2.png,trial_left_image,1,exp1.png,4,exp2.png,exp1.png,0,2,non-reversed,incorrect,0.7910911146541166,0,valid_lose,557.0758334000002,63,,,,,,,,,,,,,,,sub_996,2024-08-26_12h07.31.984,Reversal,2023.1.3,60.05569565227904,4,
11,exp3.png,exp4.png,,,,,,,,,,,,,,,,,,1,0,1,0,0,11,11,11,,,,,,,,,False,31,92,True,exp4.png,exp3.png,trial_right_image,-1,exp3.png,4,exp3.png,exp4.png,0,4,reversed,correct,0.9114176409499861,1,valid_win,561.7744671,64,,,,,,,,,,,,,,,sub_996,2024-08-26_12h07.31.984,Reversal,2023.1.3,60.05569565227904,4,
12,exp1.png,exp2.png,,,,,,,,,,,,,,,,,,1,0,1,0,0,12,12,12,,,,,,,,,False,32,93,False,exp1.png,exp2.png,trial_left_image,1,exp1.png,4,exp2.png,exp1.png,0,2,non-reversed,incorrect,0.5059688636507544,0,valid_lose,568.2397082000007,64,,,,,,,,,,,,,,,sub_996,2024-08-26_12h07.31.984,Reversal,2023.1.3,60.05569565227904,4,
13,exp3.png,exp4.png,,,,,,,,,,,,,,,,,,1,0,1,0,0,13,13,13,,,,,,,,,False,33,94,False,exp3.png,exp4.png,trial_left_image,1,exp3.png,4,exp3.png,exp4.png,0,4,reversed,correct,0.07826914171902366,0,invalid_lose,573.2366720000009,64,,,,,,,,,,,,,,,sub_996,2024-08-26_12h07.31.984,Reversal,2023.1.3,60.05569565227904,4,
14,exp1.png,exp2.png,,,,,,,,,,,,,,,,,,1,0,1,0,0,14,14,14,,,,,,,,,False,34,95,True,exp2.png,exp1.png,trial_left_image,1,exp2.png,4,exp2.png,exp1.png,1,1,non-reversed,correct,0.5113434709109694,1,valid_win,581.5505475000009,65,,,,,,,,,,,,,,,sub_996,2024-08-26_12h07.31.984,Reversal,2023.1.3,60.05569565227904,4,
15,exp3.png,exp4.png,,,,,,,,,,,,,,,,,,1,0,1,0,0,15,15,15,,,,,,,,,False,35,96,False,exp3.png,exp4.png,trial_left_image,1,exp3.png,4,exp3.png,exp4.png,0,4,reversed,correct,0.33581972370745694,1,valid_win,587.3487325999995,66,,,,,,,,,,,,,,,sub_996,2024-08-26_12h07.31.984,Reversal,2023.1.3,60.05569565227904,4,
16,exp1.png,exp2.png,,,,,,,,,,,,,,,,,,1,0,1,0,0,16,16,16,,,,,,,,,False,36,97,True,exp2.png,exp1.png,trial_left_image,1,exp2.png,4,exp2.png,exp1.png,1,1,non-reversed,correct,0.6246324646786707,1,valid_win,593.6472075000001,67,,,,,,,,,,,,,,,sub_996,2024-08-26_12h07.31.984,Reversal,2023.1.3,60.05569565227904,4,
17,exp3.png,exp4.png,,,,,,,,,,,,,,,,,,1,0,1,0,0,17,17,17,,,,,,,,,False,37,98,False,exp3.png,exp4.png,trial_left_image,1,exp3.png,4,exp3.png,exp4.png,0,4,reversed,correct,0.4331572986993001,1,valid_win,599.8790384999993,68,,,,,,,,,,,,,,,sub_996,2024-08-26_12h07.31.984,Reversal,2023.1.3,60.05569565227904,4,
18,exp1.png,exp2.png,,,,,,,,,,,,,,,,,,1,0,1,0,0,18,18,18,,,,,,,,,False,38,99,True,exp2.png,exp1.png,trial_right_image,-1,exp1.png,4,exp2.png,exp1.png,0,2,non-reversed,incorrect,0.9483258837485966,0,valid_lose,607.7923066999992,68,,,,,,,,,,,,,,,sub_996,2024-08-26_12h07.31.984,Reversal,2023.1.3,60.05569565227904,4,
19,exp3.png,exp4.png,,,,,,,,,,,,,,,,,,1,0,1,0,0,19,19,19,,,,,,,,,False,39,100,False,exp3.png,exp4.png,trial_left_image,1,exp3.png,4,exp3.png,exp4.png,0,4,reversed,correct,0.9352862498705137,1,valid_win,613.6564687999999,69,,,,,,,,,,,,,,,sub_996,2024-08-26_12h07.31.984,Reversal,2023.1.3,60.05569565227904,4,
20,exp1.png,exp2.png,,,,,,,,,,,,,,,,,,1,0,1,0,0,20,20,20,,,,,,,,,True,,,,,,,,,,,,,,,,,,,,,,,,,,,,,,,,,,,sub_996,2024-08-26_12h07.31.984,Reversal,2023.1.3,60.05569565227904,4,
,,,exp1.png,,,,,,,,,,,,,,,,,1,0,1,0,,,,,0,0,0,0,0,0,0,0,,,,,,,,,,,,,,,,,,,,,,720.7865593000006,10.0,10.0,3.752507900000637,"[(10.0, 3.752507900000637)]",,,,,,,,,,sub_996,2024-08-26_12h07.31.984,Reversal,2023.1.3,60.05569565227904,4,
,,,exp2.png,,,,,,,,,,,,,,,,,1,0,1,0,,,,,0,0,0,0,0,1,1,1,,,,,,,,,,,,,,,,,,,,,,725.4714626000005,,92.0,4.676847600001565,"[(92.0, 4.676847600001565)]",92.0,,,,,,,,,sub_996,2024-08-26_12h07.31.984,Reversal,2023.1.3,60.05569565227904,4,
,,,exp3.png,,,,,,,,,,,,,,,,,1,0,1,0,,,,,0,0,0,0,0,2,2,2,,,,,,,,,,,,,,,,,,,,,,731.0195058000008,,79.0,2.5452026999992086,"[(79.0, 2.5452026999992086)]",,79.0,,,,,,,,sub_996,2024-08-26_12h07.31.984,Reversal,2023.1.3,60.05569565227904,4,
,,,exp4.png,,,,,,,,,,,,,,,,,1,0,1,0,,,,,0,0,0,0,0,3,3,3,,,,,,,,,,,,,,,,,,,,,,734.4347087999995,,14.0,2.6623089000004256,"[(14.0, 2.6623089000004256)]",,,14.0,,,,,,,sub_996,2024-08-26_12h07.31.984,Reversal,2023.1.3,60.05569565227904,4,
0,exp1.png,exp2.png,,,,,,,,,,,,,,,,,,2,0,2,0,0,0,0,0,,,,,,,,,False,40,101,True,exp2.png,exp1.png,trial_left_image,1,exp2.png,4,exp2.png,exp1.png,1,1,non-reversed,correct,0.21771370124657807,0,invalid_lose,636.7318689000003,69,,,,,,,,,,,,,,,sub_996,2024-08-26_12h07.31.984,Reversal,2023.1.3,60.05569565227904,4,
1,exp3.png,exp4.png,,,,,,,,,,,,,,,,,,2,0,2,0,0,1,1,1,,,,,,,,,False,41,102,False,exp3.png,exp4.png,trial_left_image,1,exp3.png,4,exp3.png,exp4.png,0,4,reversed,correct,0.4362599043054145,1,valid_win,642.0986066000005,70,,,,,,,,,,,,,,,sub_996,2024-08-26_12h07.31.984,Reversal,2023.1.3,60.05569565227904,4,
2,exp1.png,exp2.png,,,,,,,,,,,,,,,,,,2,0,2,0,0,2,2,2,,,,,,,,,False,42,103,True,exp2.png,exp1.png,trial_left_image,1,exp2.png,4,exp2.png,exp1.png,1,1,non-reversed,correct,0.1213962351250576,0,invalid_lose,651.1276715000004,70,,,,,,,,,,,,,,,sub_996,2024-08-26_12h07.31.984,Reversal,2023.1.3,60.05569565227904,4,
3,exp3.png,exp4.png,,,,,,,,,,,,,,,,,,2,0,2,0,0,3,3,3,,,,,,,,,False,43,104,True,exp4.png,exp3.png,trial_right_image,-1,exp3.png,4,exp3.png,exp4.png,0,4,reversed,correct,0.5444407158654293,1,valid_win,656.4251062000003,71,,,,,,,,,,,,,,,sub_996,2024-08-26_12h07.31.984,Reversal,2023.1.3,60.05569565227904,4,
4,exp1.png,exp2.png,,,,,,,,,,,,,,,,,,2,0,2,0,0,4,4,4,,,,,,,,,False,44,105,True,exp2.png,exp1.png,trial_right_image,-1,exp1.png,4,exp2.png,exp1.png,0,2,non-reversed,incorrect,0.10412663837398306,1,invalid_win,661.7572987000003,72,,,,,,,,,,,,,,,sub_996,2024-08-26_12h07.31.984,Reversal,2023.1.3,60.05569565227904,4,
5,exp3.png,exp4.png,,,,,,,,,,,,,,,,,,2,0,2,0,0,5,5,5,,,,,,,,,False,45,106,False,exp3.png,exp4.png,trial_left_image,1,exp3.png,4,exp3.png,exp4.png,0,4,reversed,correct,0.9536489520577315,1,valid_win,667.6879241000006,73,,,,,,,,,,,,,,,sub_996,2024-08-26_12h07.31.984,Reversal,2023.1.3,60.05569565227904,4,
6,exp1.png,exp2.png,,,,,,,,,,,,,,,,,,2,0,2,0,0,6,6,6,,,,,,,,,False,46,107,False,exp1.png,exp2.png,trial_left_image,1,exp1.png,4,exp2.png,exp1.png,0,2,non-reversed,incorrect,0.05737581902424682,1,invalid_win,673.8191004,74,,,,,,,,,,,,,,,sub_996,2024-08-26_12h07.31.984,Reversal,2023.1.3,60.05569565227904,4,
7,exp3.png,exp4.png,,,,,,,,,,,,,,,,,,2,0,2,0,0,7,7,7,,,,,,,,,False,47,108,True,exp4.png,exp3.png,trial_right_image,-1,exp3.png,4,exp3.png,exp4.png,0,4,reversed,correct,0.25442825070241903,1,valid_win,679.2174725999994,75,,,,,,,,,,,,,,,sub_996,2024-08-26_12h07.31.984,Reversal,2023.1.3,60.05569565227904,4,
8,exp1.png,exp2.png,,,,,,,,,,,,,,,,,,2,0,2,0,0,8,8,8,,,,,,,,,False,48,109,False,exp1.png,exp2.png,trial_left_image,1,exp1.png,4,exp2.png,exp1.png,0,2,non-reversed,incorrect,0.8523809877196449,0,valid_lose,684.4659348999994,75,,,,,,,,,,,,,,,sub_996,2024-08-26_12h07.31.984,Reversal,2023.1.3,60.05569565227904,4,
9,exp3.png,exp4.png,,,,,,,,,,,,,,,,,,2,0,2,0,0,9,9,9,,,,,,,,,False,49,110,False,exp3.png,exp4.png,trial_left_image,1,exp3.png,4,exp3.png,exp4.png,0,4,reversed,correct,0.9827611486814428,1,valid_win,691.1637463999996,76,,,,,,,,,,,,,,,sub_996,2024-08-26_12h07.31.984,Reversal,2023.1.3,60.05569565227904,4,
10,exp1.png,exp2.png,,,,,,,,,,,,,,,,,,2,0,2,0,0,10,10,10,,,,,,,,,False,50,111,True,exp2.png,exp1.png,trial_left_image,1,exp2.png,4,exp2.png,exp1.png,1,1,non-reversed,correct,0.9233483944979334,1,valid_win,697.2614582000006,77,,,,,,,,,,,,,,,sub_996,2024-08-26_12h07.31.984,Reversal,2023.1.3,60.05569565227904,4,
11,exp3.png,exp4.png,,,,,,,,,,,,,,,,,,2,0,2,0,0,11,11,11,,,,,,,,,False,51,112,True,exp4.png,exp3.png,trial_right_image,-1,exp3.png,4,exp3.png,exp4.png,0,4,reversed,correct,0.29872703925320854,1,valid_win,702.6927744000004,78,,,,,,,,,,,,,,,sub_996,2024-08-26_12h07.31.984,Reversal,2023.1.3,60.05569565227904,4,
12,exp1.png,exp2.png,,,,,,,,,,,,,,,,,,2,0,2,0,0,12,12,12,,,,,,,,,False,52,113,False,exp1.png,exp2.png,trial_right_image,-1,exp2.png,4,exp2.png,exp1.png,1,1,non-reversed,correct,0.0024223710317986535,0,invalid_lose,707.7246066999996,78,,,,,,,,,,,,,,,sub_996,2024-08-26_12h07.31.984,Reversal,2023.1.3,60.05569565227904,4,
13,exp3.png,exp4.png,,,,,,,,,,,,,,,,,,2,0,2,0,0,13,13,13,,,,,,,,,False,53,114,True,exp4.png,exp3.png,trial_right_image,-1,exp3.png,4,exp3.png,exp4.png,0,4,reversed,correct,0.28105106389422296,1,valid_win,712.5893720999993,79,,,,,,,,,,,,,,,sub_996,2024-08-26_12h07.31.984,Reversal,2023.1.3,60.05569565227904,4,
14,exp1.png,exp2.png,,,,,,,,,,,,,,,,,,2,0,2,0,0,14,14,14,,,,,,,,,False,54,115,False,exp1.png,exp2.png,trial_left_image,1,exp1.png,4,exp2.png,exp1.png,0,2,non-reversed,incorrect,0.38880731321946127,0,valid_lose,718.5875871000007,79,,,,,,,,,,,,,,,sub_996,2024-08-26_12h07.31.984,Reversal,2023.1.3,60.05569565227904,4,
15,exp3.png,exp4.png,,,,,,,,,,,,,,,,,,2,0,2,0,0,15,15,15,,,,,,,,,False,55,116,False,exp3.png,exp4.png,trial_left_image,1,exp3.png,4,exp3.png,exp4.png,0,4,reversed,correct,0.2575948083194922,1,valid_win,724.9524736000003,80,,,,,,,,,,,,,,,sub_996,2024-08-26_12h07.31.984,Reversal,2023.1.3,60.05569565227904,4,
16,exp1.png,exp2.png,,,,,,,,,,,,,,,,,,2,0,2,0,0,16,16,16,,,,,,,,,False,56,117,True,exp2.png,exp1.png,trial_right_image,-1,exp1.png,4,exp2.png,exp1.png,0,2,non-reversed,incorrect,0.48828496272398847,0,valid_lose,731.4335960999997,80,,,,,,,,,,,,,,,sub_996,2024-08-26_12h07.31.984,Reversal,2023.1.3,60.05569565227904,4,
17,exp3.png,exp4.png,,,,,,,,,,,,,,,,,,2,0,2,0,0,17,17,17,,,,,,,,,False,57,118,True,exp4.png,exp3.png,trial_right_image,-1,exp3.png,4,exp3.png,exp4.png,0,4,reversed,correct,0.35508797692235494,1,valid_win,736.3480027000005,81,,,,,,,,,,,,,,,sub_996,2024-08-26_12h07.31.984,Reversal,2023.1.3,60.05569565227904,4,
18,exp1.png,exp2.png,,,,,,,,,,,,,,,,,,2,0,2,0,0,18,18,18,,,,,,,,,False,58,119,False,exp1.png,exp2.png,trial_right_image,-1,exp2.png,4,exp2.png,exp1.png,1,1,non-reversed,correct,0.15187697790157506,0,invalid_lose,741.1304230000005,81,,,,,,,,,,,,,,,sub_996,2024-08-26_12h07.31.984,Reversal,2023.1.3,60.05569565227904,4,
19,exp3.png,exp4.png,,,,,,,,,,,,,,,,,,2,0,2,0,0,19,19,19,,,,,,,,,False,59,120,False,exp3.png,exp4.png,trial_left_image,1,exp3.png,4,exp3.png,exp4.png,0,4,reversed,correct,0.6870586070498247,1,valid_win,746.2948715000002,82,,,,,,,,,,,,,,,sub_996,2024-08-26_12h07.31.984,Reversal,2023.1.3,60.05569565227904,4,
20,exp1.png,exp2.png,,,,,,,,,,,,,,,,,,2,0,2,0,0,20,20,20,,,,,,,,,True,,,,,,,,,,,,,,,,,,,,,,,,,,,,,,,,,,,sub_996,2024-08-26_12h07.31.984,Reversal,2023.1.3,60.05569565227904,4,
,,,exp1.png,,,,,,,,,,,,,,,,,2,0,2,0,,,,,0,0,0,0,0,0,0,0,,,,,,,,,,,,,,,,,,,,,,853.4332801,,None,None,[],,,,,,,,,,sub_996,2024-08-26_12h07.31.984,Reversal,2023.1.3,60.05569565227904,4,
,,,exp2.png,,,,,,,,,,,,,,,,,2,0,2,0,,,,,0,0,0,0,0,1,1,1,,,,,,,,,,,,,,,,,,,,,,857.8258671000003,,82.0,2.0289375000011205,"[(82.0, 2.0289375000011205)]",82.0,,,,,,,,,sub_996,2024-08-26_12h07.31.984,Reversal,2023.1.3,60.05569565227904,4,
,,,exp3.png,,,,,,,,,,,,,,,,,2,0,2,0,,,,,0,0,0,0,0,2,2,2,,,,,,,,,,,,,,,,,,,,,,860.7104130000007,,71.0,3.1283628000001045,"[(71.0, 3.1283628000001045)]",,71.0,,,,,,,,sub_996,2024-08-26_12h07.31.984,Reversal,2023.1.3,60.05569565227904,4,
,,,exp4.png,,,,,,,,,,,,,,,,,2,0,2,0,,,,,0,0,0,0,0,3,3,3,,,,,,,,,,,,,,,,,,,,,,864.6064745000003,,14.0,2.4790358999998716,"[(14.0, 2.4790358999998716)]",,,14.0,,,,,,,sub_996,2024-08-26_12h07.31.984,Reversal,2023.1.3,60.05569565227904,4,
,,,,,,,,,,,,,,,,,,,,,,,,,,,,,,,,,,,,,,,,,,,,,,,,,,,,,,,,82,,,,,,,,,,94,44,50,385.2577222,0,,,,,,,
