trial_index,trial_image1_file,trial_image2_file,image_file,learning_outer_loop.thisRepN,learning_outer_loop.thisTrialN,learning_outer_loop.thisN,learning_outer_loop.thisIndex,learning_inner_loop.thisRepN,learning_inner_loop.thisTrialN,learning_inner_loop.thisN,learning_inner_loop.thisIndex,learning_estimation_outer_loop.thisRepN,learning_estimation_outer_loop.thisTrialN,learning_estimation_outer_loop.thisN,learning_estimation_outer_loop.thisIndex,learning_estimation_inner_loop.thisRepN,learning_estimation_inner_loop.thisTrialN,learning_estimation_inner_loop.thisN,learning_estimation_inner_loop.thisIndex,reversal_outer_loop.thisRepN,reversal_outer_loop.thisTrialN,reversal_outer_loop.thisN,reversal_outer_loop.thisIndex,reversal_inner_loop.thisRepN,reversal_inner_loop.thisTrialN,reversal_inner_loop.thisN,reversal_inner_loop.thisIndex,reversal_estimation_outer_loop.thisRepN,reversal_estimation_outer_loop.thisTrialN,reversal_estimation_outer_loop.thisN,reversal_estimation_outer_loop.thisIndex,reversal_estimation_inner_loop.thisRepN,reversal_estimation_inner_loop.thisTrialN,reversal_estimation_inner_loop.thisN,reversal_estimation_inner_loop.thisIndex,skipped,total_trial_counter,trial_num,left_right_flip,left_image_file,right_image_file,clicked_stimulus_side,side,clicked_stimulus,version,high_prob_image_file,low_prob_image_file,choice_a,choice_b,pair_type,correct,trial_feedback_random,reward,trial_type,overall_time_after_trial,score,estimation_rating.started,estimation_rating.response,estimation_rating.rt,estimation_rating.history,estimation_exp1.png,total_learning_time,total_correct,learning_correct,reversal_correct,total_reversal_time,extra_block,participant,date,expName,psychopyVersion,frameRate,ver,
0,exp1.png,exp2.png,,0,0,0,0,0,0,0,0,,,,,,,,,,,,,,,,,,,,,,,,,True,,,,,,,,,,,,,,,,,,,,,,,,,,,,,,,,sub_985,2024-09-09_09h56.10.377,Reversal,2023.1.3,60.08120575879088,1,
1,exp3.png,exp4.png,,0,0,0,0,0,1,1,1,,,,,,,,,,,,,,,,,,,,,,,,,False,0,1,True,exp4.png,exp3.png,trial_left_image,1,exp4.png,1,exp3.png,exp4.png,0,2,non-reversed,incorrect,0.5264019622413393,0,valid_lose,6.861654899999849,0,,,,,,,,,,,,sub_985,2024-09-09_09h56.10.377,Reversal,2023.1.3,60.08120575879088,1,
2,exp1.png,exp2.png,,0,0,0,0,0,2,2,2,,,,,,,,,,,,,,,,,,,,,,,,,False,1,2,True,exp2.png,exp1.png,trial_left_image,1,exp2.png,1,exp1.png,exp2.png,0,4,reversed,incorrect,0.3049371355773497,0,valid_lose,13.577340699994238,0,,,,,,,,,,,,sub_985,2024-09-09_09h56.10.377,Reversal,2023.1.3,60.08120575879088,1,
3,exp3.png,exp4.png,,0,0,0,0,0,3,3,3,,,,,,,,,,,,,,,,,,,,,,,,,False,2,3,True,exp4.png,exp3.png,trial_left_image,1,exp4.png,1,exp3.png,exp4.png,0,2,non-reversed,incorrect,0.0368236614298274,1,invalid_win,20.040481300005922,1,,,,,,,,,,,,sub_985,2024-09-09_09h56.10.377,Reversal,2023.1.3,60.08120575879088,1,
4,exp1.png,exp2.png,,0,0,0,0,0,4,4,4,,,,,,,,,,,,,,,,,,,,,,,,,False,3,4,True,exp2.png,exp1.png,trial_right_image,-1,exp1.png,1,exp1.png,exp2.png,1,3,reversed,correct,0.578778443577701,1,valid_win,26.554956799998763,2,,,,,,,,,,,,sub_985,2024-09-09_09h56.10.377,Reversal,2023.1.3,60.08120575879088,1,
5,exp3.png,exp4.png,,0,0,0,0,0,5,5,5,,,,,,,,,,,,,,,,,,,,,,,,,False,4,5,False,exp3.png,exp4.png,trial_right_image,-1,exp4.png,1,exp3.png,exp4.png,0,2,non-reversed,incorrect,0.7578042990941372,0,valid_lose,31.971659700007876,2,,,,,,,,,,,,sub_985,2024-09-09_09h56.10.377,Reversal,2023.1.3,60.08120575879088,1,
6,exp1.png,exp2.png,,0,0,0,0,0,6,6,6,,,,,,,,,,,,,,,,,,,,,,,,,False,5,6,False,exp1.png,exp2.png,trial_right_image,-1,exp2.png,1,exp1.png,exp2.png,0,4,reversed,incorrect,0.6888352223369982,0,valid_lose,36.7697490999999,2,,,,,,,,,,,,sub_985,2024-09-09_09h56.10.377,Reversal,2023.1.3,60.08120575879088,1,
7,exp3.png,exp4.png,,0,0,0,0,0,7,7,7,,,,,,,,,,,,,,,,,,,,,,,,,False,6,7,False,exp3.png,exp4.png,trial_right_image,-1,exp4.png,1,exp3.png,exp4.png,0,2,non-reversed,incorrect,0.5111730313205112,0,valid_lose,40.952078899994376,2,,,,,,,,,,,,sub_985,2024-09-09_09h56.10.377,Reversal,2023.1.3,60.08120575879088,1,
8,exp1.png,exp2.png,,0,0,0,0,0,8,8,8,,,,,,,,,,,,,,,,,,,,,,,,,False,7,8,False,exp1.png,exp2.png,trial_right_image,-1,exp2.png,1,exp1.png,exp2.png,0,4,reversed,incorrect,0.9885190612694258,0,valid_lose,45.60025200000382,2,,,,,,,,,,,,sub_985,2024-09-09_09h56.10.377,Reversal,2023.1.3,60.08120575879088,1,
9,exp3.png,exp4.png,,0,0,0,0,0,9,9,9,,,,,,,,,,,,,,,,,,,,,,,,,False,8,9,True,exp4.png,exp3.png,trial_left_image,1,exp4.png,1,exp3.png,exp4.png,0,2,non-reversed,incorrect,0.08924988501486653,1,invalid_win,49.51532609999413,3,,,,,,,,,,,,sub_985,2024-09-09_09h56.10.377,Reversal,2023.1.3,60.08120575879088,1,
10,exp1.png,exp2.png,,0,0,0,0,0,10,10,10,,,,,,,,,,,,,,,,,,,,,,,,,False,9,10,True,exp2.png,exp1.png,trial_left_image,1,exp2.png,1,exp1.png,exp2.png,0,4,reversed,incorrect,0.6569236150660643,0,valid_lose,53.69712120000622,3,,,,,,,,,,,,sub_985,2024-09-09_09h56.10.377,Reversal,2023.1.3,60.08120575879088,1,
11,exp3.png,exp4.png,,0,0,0,0,0,11,11,11,,,,,,,,,,,,,,,,,,,,,,,,,False,10,11,False,exp3.png,exp4.png,trial_left_image,1,exp3.png,1,exp3.png,exp4.png,1,1,non-reversed,correct,0.6238406554596584,1,valid_win,57.84482339999522,4,,,,,,,,,,,,sub_985,2024-09-09_09h56.10.377,Reversal,2023.1.3,60.08120575879088,1,
12,exp1.png,exp2.png,,0,0,0,0,0,12,12,12,,,,,,,,,,,,,,,,,,,,,,,,,False,11,12,True,exp2.png,exp1.png,trial_right_image,-1,exp1.png,1,exp1.png,exp2.png,1,3,reversed,correct,0.36186997814086985,1,valid_win,62.344128299999284,5,,,,,,,,,,,,sub_985,2024-09-09_09h56.10.377,Reversal,2023.1.3,60.08120575879088,1,
13,exp3.png,exp4.png,,0,0,0,0,0,13,13,13,,,,,,,,,,,,,,,,,,,,,,,,,False,12,13,True,exp4.png,exp3.png,trial_left_image,1,exp4.png,1,exp3.png,exp4.png,0,2,non-reversed,incorrect,0.4764896280534754,0,valid_lose,66.4762738999998,5,,,,,,,,,,,,sub_985,2024-09-09_09h56.10.377,Reversal,2023.1.3,60.08120575879088,1,
14,exp1.png,exp2.png,,0,0,0,0,0,14,14,14,,,,,,,,,,,,,,,,,,,,,,,,,False,13,14,False,exp1.png,exp2.png,trial_left_image,1,exp1.png,1,exp1.png,exp2.png,1,3,reversed,correct,0.7984811150155949,1,valid_win,70.97501819999889,6,,,,,,,,,,,,sub_985,2024-09-09_09h56.10.377,Reversal,2023.1.3,60.08120575879088,1,
15,exp3.png,exp4.png,,0,0,0,0,0,15,15,15,,,,,,,,,,,,,,,,,,,,,,,,,False,14,15,False,exp3.png,exp4.png,trial_left_image,1,exp3.png,1,exp3.png,exp4.png,1,1,non-reversed,correct,0.8605275583166467,1,valid_win,75.37229090000619,7,,,,,,,,,,,,sub_985,2024-09-09_09h56.10.377,Reversal,2023.1.3,60.08120575879088,1,
16,exp1.png,exp2.png,,0,0,0,0,0,16,16,16,,,,,,,,,,,,,,,,,,,,,,,,,False,15,16,False,exp1.png,exp2.png,trial_right_image,-1,exp2.png,1,exp1.png,exp2.png,0,4,reversed,incorrect,0.03921432349471621,1,invalid_win,79.33909459999995,8,,,,,,,,,,,,sub_985,2024-09-09_09h56.10.377,Reversal,2023.1.3,60.08120575879088,1,
17,exp3.png,exp4.png,,0,0,0,0,0,17,17,17,,,,,,,,,,,,,,,,,,,,,,,,,False,16,17,True,exp4.png,exp3.png,trial_right_image,-1,exp3.png,1,exp3.png,exp4.png,1,1,non-reversed,correct,0.9076899102641448,1,valid_win,83.31984959999681,9,,,,,,,,,,,,sub_985,2024-09-09_09h56.10.377,Reversal,2023.1.3,60.08120575879088,1,
18,exp1.png,exp2.png,,0,0,0,0,0,18,18,18,,,,,,,,,,,,,,,,,,,,,,,,,False,17,18,True,exp2.png,exp1.png,trial_right_image,-1,exp1.png,1,exp1.png,exp2.png,1,3,reversed,correct,0.7167393626357261,1,valid_win,87.38581429999613,10,,,,,,,,,,,,sub_985,2024-09-09_09h56.10.377,Reversal,2023.1.3,60.08120575879088,1,
19,exp3.png,exp4.png,,0,0,0,0,0,19,19,19,,,,,,,,,,,,,,,,,,,,,,,,,False,18,19,False,exp3.png,exp4.png,trial_left_image,1,exp3.png,1,exp3.png,exp4.png,1,1,non-reversed,correct,0.3265035604437174,1,valid_win,91.38337140000658,11,,,,,,,,,,,,sub_985,2024-09-09_09h56.10.377,Reversal,2023.1.3,60.08120575879088,1,
20,exp1.png,exp2.png,,0,0,0,0,0,20,20,20,,,,,,,,,,,,,,,,,,,,,,,,,False,19,20,False,exp1.png,exp2.png,trial_right_image,-1,exp2.png,1,exp1.png,exp2.png,0,4,reversed,incorrect,0.903200837322865,0,valid_lose,95.6167218000046,11,,,,,,,,,,,,sub_985,2024-09-09_09h56.10.377,Reversal,2023.1.3,60.08120575879088,1,
,,,exp1.png,0,0,0,0,,,,,0,0,0,0,0,0,0,0,,,,,,,,,,,,,,,,,,,,,,,,,,,,,,,,,,,,,,176.1657678999909,None,None,[],,,,,,,,sub_985,2024-09-09_09h56.10.377,Reversal,2023.1.3,60.08120575879088,1,
,,,exp2.png,0,0,0,0,,,,,0,0,0,0,0,1,1,1,,,,,,,,,,,,,,,,,,,,,,,,,,,,,,,,,,,,,,187.09210509998957,None,None,[],,,,,,,,sub_985,2024-09-09_09h56.10.377,Reversal,2023.1.3,60.08120575879088,1,
,,,exp3.png,0,0,0,0,,,,,0,0,0,0,0,2,2,2,,,,,,,,,,,,,,,,,,,,,,,,,,,,,,,,,,,,,,190.860153799993,None,None,[],,,,,,,,sub_985,2024-09-09_09h56.10.377,Reversal,2023.1.3,60.08120575879088,1,
,,,exp4.png,0,0,0,0,,,,,0,0,0,0,0,3,3,3,,,,,,,,,,,,,,,,,,,,,,,,,,,,,,,,,,,,,,195.63612339999236,None,None,[],,,,,,,,sub_985,2024-09-09_09h56.10.377,Reversal,2023.1.3,60.08120575879088,1,
0,exp1.png,exp2.png,,1,0,1,0,0,0,0,0,,,,,,,,,,,,,,,,,,,,,,,,,True,,,,,,,,,,,,,,,,,,,,,,,,,,,,,,,,sub_985,2024-09-09_09h56.10.377,Reversal,2023.1.3,60.08120575879088,1,
1,exp3.png,exp4.png,,1,0,1,0,0,1,1,1,,,,,,,,,,,,,,,,,,,,,,,,,False,20,21,False,exp3.png,exp4.png,trial_left_image,1,exp3.png,1,exp3.png,exp4.png,1,1,non-reversed,correct,0.7953020166709318,1,valid_win,123.83968730000197,12,,,,,,,,,,,,sub_985,2024-09-09_09h56.10.377,Reversal,2023.1.3,60.08120575879088,1,
2,exp1.png,exp2.png,,1,0,1,0,0,2,2,2,,,,,,,,,,,,,,,,,,,,,,,,,False,21,22,False,exp1.png,exp2.png,trial_right_image,-1,exp2.png,1,exp1.png,exp2.png,0,4,reversed,incorrect,0.7163955276695555,0,valid_lose,128.137596200002,12,,,,,,,,,,,,sub_985,2024-09-09_09h56.10.377,Reversal,2023.1.3,60.08120575879088,1,
3,exp3.png,exp4.png,,1,0,1,0,0,3,3,3,,,,,,,,,,,,,,,,,,,,,,,,,False,22,23,True,exp4.png,exp3.png,trial_right_image,-1,exp3.png,1,exp3.png,exp4.png,1,1,non-reversed,correct,0.17498103352698835,0,invalid_lose,132.18665250000777,12,,,,,,,,,,,,sub_985,2024-09-09_09h56.10.377,Reversal,2023.1.3,60.08120575879088,1,
4,exp1.png,exp2.png,,1,0,1,0,0,4,4,4,,,,,,,,,,,,,,,,,,,,,,,,,False,23,24,False,exp1.png,exp2.png,trial_left_image,1,exp1.png,1,exp1.png,exp2.png,1,3,reversed,correct,0.4006174570438371,1,valid_win,136.56866370000353,13,,,,,,,,,,,,sub_985,2024-09-09_09h56.10.377,Reversal,2023.1.3,60.08120575879088,1,
5,exp3.png,exp4.png,,1,0,1,0,0,5,5,5,,,,,,,,,,,,,,,,,,,,,,,,,False,24,25,True,exp4.png,exp3.png,trial_left_image,1,exp4.png,1,exp3.png,exp4.png,0,2,non-reversed,incorrect,0.3154862608457494,0,valid_lose,140.8348588999943,13,,,,,,,,,,,,sub_985,2024-09-09_09h56.10.377,Reversal,2023.1.3,60.08120575879088,1,
6,exp1.png,exp2.png,,1,0,1,0,0,6,6,6,,,,,,,,,,,,,,,,,,,,,,,,,False,25,26,True,exp2.png,exp1.png,trial_left_image,1,exp2.png,1,exp1.png,exp2.png,0,4,reversed,incorrect,0.5036130777099094,0,valid_lose,145.08384500000102,13,,,,,,,,,,,,sub_985,2024-09-09_09h56.10.377,Reversal,2023.1.3,60.08120575879088,1,
7,exp3.png,exp4.png,,1,0,1,0,0,7,7,7,,,,,,,,,,,,,,,,,,,,,,,,,False,26,27,False,exp3.png,exp4.png,trial_right_image,-1,exp4.png,1,exp3.png,exp4.png,0,2,non-reversed,incorrect,0.037798386486224356,1,invalid_win,149.74895940000715,14,,,,,,,,,,,,sub_985,2024-09-09_09h56.10.377,Reversal,2023.1.3,60.08120575879088,1,
8,exp1.png,exp2.png,,1,0,1,0,0,8,8,8,,,,,,,,,,,,,,,,,,,,,,,,,False,27,28,True,exp2.png,exp1.png,trial_left_image,1,exp2.png,1,exp1.png,exp2.png,0,4,reversed,incorrect,0.04533621159862211,1,invalid_win,154.16215259999444,15,,,,,,,,,,,,sub_985,2024-09-09_09h56.10.377,Reversal,2023.1.3,60.08120575879088,1,
9,exp3.png,exp4.png,,1,0,1,0,0,9,9,9,,,,,,,,,,,,,,,,,,,,,,,,,False,28,29,False,exp3.png,exp4.png,trial_left_image,1,exp3.png,1,exp3.png,exp4.png,1,1,non-reversed,correct,0.48156710624271504,1,valid_win,157.77854240000306,16,,,,,,,,,,,,sub_985,2024-09-09_09h56.10.377,Reversal,2023.1.3,60.08120575879088,1,
10,exp1.png,exp2.png,,1,0,1,0,0,10,10,10,,,,,,,,,,,,,,,,,,,,,,,,,False,29,30,True,exp2.png,exp1.png,trial_right_image,-1,exp1.png,1,exp1.png,exp2.png,1,3,reversed,correct,0.7915924760212911,1,valid_win,161.71201930000097,17,,,,,,,,,,,,sub_985,2024-09-09_09h56.10.377,Reversal,2023.1.3,60.08120575879088,1,
11,exp3.png,exp4.png,,1,0,1,0,0,11,11,11,,,,,,,,,,,,,,,,,,,,,,,,,False,30,31,True,exp4.png,exp3.png,trial_left_image,1,exp4.png,1,exp3.png,exp4.png,0,2,non-reversed,incorrect,0.8897393954701196,0,valid_lose,165.71017200000642,17,,,,,,,,,,,,sub_985,2024-09-09_09h56.10.377,Reversal,2023.1.3,60.08120575879088,1,
12,exp1.png,exp2.png,,1,0,1,0,0,12,12,12,,,,,,,,,,,,,,,,,,,,,,,,,False,31,32,False,exp1.png,exp2.png,trial_left_image,1,exp1.png,1,exp1.png,exp2.png,1,3,reversed,correct,0.44438003948528404,1,valid_win,169.64057129999856,18,,,,,,,,,,,,sub_985,2024-09-09_09h56.10.377,Reversal,2023.1.3,60.08120575879088,1,
13,exp3.png,exp4.png,,1,0,1,0,0,13,13,13,,,,,,,,,,,,,,,,,,,,,,,,,False,32,33,False,exp3.png,exp4.png,trial_right_image,-1,exp4.png,1,exp3.png,exp4.png,0,2,non-reversed,incorrect,0.9226732196842461,0,valid_lose,173.8389879000024,18,,,,,,,,,,,,sub_985,2024-09-09_09h56.10.377,Reversal,2023.1.3,60.08120575879088,1,
14,exp1.png,exp2.png,,1,0,1,0,0,14,14,14,,,,,,,,,,,,,,,,,,,,,,,,,False,33,34,True,exp2.png,exp1.png,trial_right_image,-1,exp1.png,1,exp1.png,exp2.png,1,3,reversed,correct,0.7793199652902129,1,valid_win,177.85435320000397,19,,,,,,,,,,,,sub_985,2024-09-09_09h56.10.377,Reversal,2023.1.3,60.08120575879088,1,
15,exp3.png,exp4.png,,1,0,1,0,0,15,15,15,,,,,,,,,,,,,,,,,,,,,,,,,False,34,35,False,exp3.png,exp4.png,trial_left_image,1,exp3.png,1,exp3.png,exp4.png,1,1,non-reversed,correct,0.6264422450012097,1,valid_win,181.71960510000645,20,,,,,,,,,,,,sub_985,2024-09-09_09h56.10.377,Reversal,2023.1.3,60.08120575879088,1,
16,exp1.png,exp2.png,,1,0,1,0,0,16,16,16,,,,,,,,,,,,,,,,,,,,,,,,,False,35,36,True,exp2.png,exp1.png,trial_right_image,-1,exp1.png,1,exp1.png,exp2.png,1,3,reversed,correct,0.9929049582211186,1,valid_win,185.65313069999684,21,,,,,,,,,,,,sub_985,2024-09-09_09h56.10.377,Reversal,2023.1.3,60.08120575879088,1,
17,exp3.png,exp4.png,,1,0,1,0,0,17,17,17,,,,,,,,,,,,,,,,,,,,,,,,,False,36,37,True,exp4.png,exp3.png,trial_left_image,1,exp4.png,1,exp3.png,exp4.png,0,2,non-reversed,incorrect,0.779631498264358,0,valid_lose,189.85141289999592,21,,,,,,,,,,,,sub_985,2024-09-09_09h56.10.377,Reversal,2023.1.3,60.08120575879088,1,
18,exp1.png,exp2.png,,1,0,1,0,0,18,18,18,,,,,,,,,,,,,,,,,,,,,,,,,False,37,38,False,exp1.png,exp2.png,trial_left_image,1,exp1.png,1,exp1.png,exp2.png,1,3,reversed,correct,0.3806226621564054,1,valid_win,194.2342384999938,22,,,,,,,,,,,,sub_985,2024-09-09_09h56.10.377,Reversal,2023.1.3,60.08120575879088,1,
19,exp3.png,exp4.png,,1,0,1,0,0,19,19,19,,,,,,,,,,,,,,,,,,,,,,,,,False,38,39,False,exp3.png,exp4.png,trial_right_image,-1,exp4.png,1,exp3.png,exp4.png,0,2,non-reversed,incorrect,0.17872565475415125,1,invalid_win,198.34875360000296,23,,,,,,,,,,,,sub_985,2024-09-09_09h56.10.377,Reversal,2023.1.3,60.08120575879088,1,
20,exp1.png,exp2.png,,1,0,1,0,0,20,20,20,,,,,,,,,,,,,,,,,,,,,,,,,False,39,40,True,exp2.png,exp1.png,trial_right_image,-1,exp1.png,1,exp1.png,exp2.png,1,3,reversed,correct,0.835211350665245,1,valid_win,202.51306959999783,24,,,,,,,,,,,,sub_985,2024-09-09_09h56.10.377,Reversal,2023.1.3,60.08120575879088,1,
,,,exp1.png,1,0,1,0,,,,,0,0,0,0,0,0,0,0,,,,,,,,,,,,,,,,,,,,,,,,,,,,,,,,,,,,,,282.94929350000166,None,None,[],,,,,,,,sub_985,2024-09-09_09h56.10.377,Reversal,2023.1.3,60.08120575879088,1,
,,,exp2.png,1,0,1,0,,,,,0,0,0,0,0,1,1,1,,,,,,,,,,,,,,,,,,,,,,,,,,,,,,,,,,,,,,286.78889509999135,None,None,[],,,,,,,,sub_985,2024-09-09_09h56.10.377,Reversal,2023.1.3,60.08120575879088,1,
,,,exp3.png,1,0,1,0,,,,,0,0,0,0,0,2,2,2,,,,,,,,,,,,,,,,,,,,,,,,,,,,,,,,,,,,,,288.1053979999997,None,None,[],,,,,,,,sub_985,2024-09-09_09h56.10.377,Reversal,2023.1.3,60.08120575879088,1,
,,,exp4.png,1,0,1,0,,,,,0,0,0,0,0,3,3,3,,,,,,,,,,,,,,,,,,,,,,,,,,,,,,,,,,,,,,289.18894069999806,None,None,[],,,,,,,,sub_985,2024-09-09_09h56.10.377,Reversal,2023.1.3,60.08120575879088,1,
0,exp1.png,exp2.png,,2,0,2,0,0,0,0,0,,,,,,,,,,,,,,,,,,,,,,,,,True,,,,,,,,,,,,,,,,,,,,,,,,,,,,,,,,sub_985,2024-09-09_09h56.10.377,Reversal,2023.1.3,60.08120575879088,1,
1,exp3.png,exp4.png,,2,0,2,0,0,1,1,1,,,,,,,,,,,,,,,,,,,,,,,,,False,40,41,False,exp3.png,exp4.png,trial_right_image,-1,exp4.png,1,exp3.png,exp4.png,0,2,non-reversed,incorrect,0.0655667569063545,1,invalid_win,214.3422947999934,25,,,,,,,,,,,,sub_985,2024-09-09_09h56.10.377,Reversal,2023.1.3,60.08120575879088,1,
2,exp1.png,exp2.png,,2,0,2,0,0,2,2,2,,,,,,,,,,,,,,,,,,,,,,,,,False,41,42,False,exp1.png,exp2.png,trial_left_image,1,exp1.png,1,exp1.png,exp2.png,1,3,reversed,correct,0.4122195113444188,1,valid_win,218.60792219999712,26,,,,,,,,,,,,sub_985,2024-09-09_09h56.10.377,Reversal,2023.1.3,60.08120575879088,1,
3,exp3.png,exp4.png,,2,0,2,0,0,3,3,3,,,,,,,,,,,,,,,,,,,,,,,,,False,42,43,True,exp4.png,exp3.png,trial_left_image,1,exp4.png,1,exp3.png,exp4.png,0,2,non-reversed,incorrect,0.15515244840160614,1,invalid_win,222.47381589999713,27,,,,,,,,,,,,sub_985,2024-09-09_09h56.10.377,Reversal,2023.1.3,60.08120575879088,1,
4,exp1.png,exp2.png,,2,0,2,0,0,4,4,4,,,,,,,,,,,,,,,,,,,,,,,,,False,43,44,True,exp2.png,exp1.png,trial_left_image,1,exp2.png,1,exp1.png,exp2.png,0,4,reversed,incorrect,0.17911490963403554,1,invalid_win,226.3404312000057,28,,,,,,,,,,,,sub_985,2024-09-09_09h56.10.377,Reversal,2023.1.3,60.08120575879088,1,
5,exp3.png,exp4.png,,2,0,2,0,0,5,5,5,,,,,,,,,,,,,,,,,,,,,,,,,False,44,45,False,exp3.png,exp4.png,trial_right_image,-1,exp4.png,1,exp3.png,exp4.png,0,2,non-reversed,incorrect,0.5782544751866708,0,valid_lose,230.66940060000343,28,,,,,,,,,,,,sub_985,2024-09-09_09h56.10.377,Reversal,2023.1.3,60.08120575879088,1,
6,exp1.png,exp2.png,,2,0,2,0,0,6,6,6,,,,,,,,,,,,,,,,,,,,,,,,,False,45,46,False,exp1.png,exp2.png,trial_left_image,1,exp1.png,1,exp1.png,exp2.png,1,3,reversed,correct,0.1986750355358009,0,invalid_lose,235.4513683999976,28,,,,,,,,,,,,sub_985,2024-09-09_09h56.10.377,Reversal,2023.1.3,60.08120575879088,1,
7,exp3.png,exp4.png,,2,0,2,0,0,7,7,7,,,,,,,,,,,,,,,,,,,,,,,,,False,46,47,True,exp4.png,exp3.png,trial_right_image,-1,exp3.png,1,exp3.png,exp4.png,1,1,non-reversed,correct,0.29887688852681427,1,valid_win,240.73344290000387,29,,,,,,,,,,,,sub_985,2024-09-09_09h56.10.377,Reversal,2023.1.3,60.08120575879088,1,
8,exp1.png,exp2.png,,2,0,2,0,0,8,8,8,,,,,,,,,,,,,,,,,,,,,,,,,False,47,48,False,exp1.png,exp2.png,trial_right_image,-1,exp2.png,1,exp1.png,exp2.png,0,4,reversed,incorrect,0.6290835424338189,0,valid_lose,245.8825552000053,29,,,,,,,,,,,,sub_985,2024-09-09_09h56.10.377,Reversal,2023.1.3,60.08120575879088,1,
9,exp3.png,exp4.png,,2,0,2,0,0,9,9,9,,,,,,,,,,,,,,,,,,,,,,,,,False,48,49,False,exp3.png,exp4.png,trial_left_image,1,exp3.png,1,exp3.png,exp4.png,1,1,non-reversed,correct,0.40499795458014753,1,valid_win,250.0301735999965,30,,,,,,,,,,,,sub_985,2024-09-09_09h56.10.377,Reversal,2023.1.3,60.08120575879088,1,
10,exp1.png,exp2.png,,2,0,2,0,0,10,10,10,,,,,,,,,,,,,,,,,,,,,,,,,False,49,50,True,exp2.png,exp1.png,trial_left_image,1,exp2.png,1,exp1.png,exp2.png,0,4,reversed,incorrect,0.3515197435420766,0,valid_lose,254.84544079999614,30,,,,,,,,,,,,sub_985,2024-09-09_09h56.10.377,Reversal,2023.1.3,60.08120575879088,1,
11,exp3.png,exp4.png,,2,0,2,0,0,11,11,11,,,,,,,,,,,,,,,,,,,,,,,,,False,50,51,True,exp4.png,exp3.png,trial_right_image,-1,exp3.png,1,exp3.png,exp4.png,1,1,non-reversed,correct,0.2243224629647934,0,invalid_lose,258.9283657000051,30,,,,,,,,,,,,sub_985,2024-09-09_09h56.10.377,Reversal,2023.1.3,60.08120575879088,1,
12,exp1.png,exp2.png,,2,0,2,0,0,12,12,12,,,,,,,,,,,,,,,,,,,,,,,,,False,51,52,True,exp2.png,exp1.png,trial_right_image,-1,exp1.png,1,exp1.png,exp2.png,1,3,reversed,correct,0.7216568526874562,1,valid_win,263.0421958999941,31,,,,,,,,,,,,sub_985,2024-09-09_09h56.10.377,Reversal,2023.1.3,60.08120575879088,1,
13,exp3.png,exp4.png,,2,0,2,0,0,13,13,13,,,,,,,,,,,,,,,,,,,,,,,,,False,52,53,True,exp4.png,exp3.png,trial_left_image,1,exp4.png,1,exp3.png,exp4.png,0,2,non-reversed,incorrect,0.6795556098888194,0,valid_lose,267.0419019999972,31,,,,,,,,,,,,sub_985,2024-09-09_09h56.10.377,Reversal,2023.1.3,60.08120575879088,1,
14,exp1.png,exp2.png,,2,0,2,0,0,14,14,14,,,,,,,,,,,,,,,,,,,,,,,,,False,53,54,True,exp2.png,exp1.png,trial_left_image,1,exp2.png,1,exp1.png,exp2.png,0,4,reversed,incorrect,0.025556008553449083,1,invalid_win,270.97429890000785,32,,,,,,,,,,,,sub_985,2024-09-09_09h56.10.377,Reversal,2023.1.3,60.08120575879088,1,
15,exp3.png,exp4.png,,2,0,2,0,0,15,15,15,,,,,,,,,,,,,,,,,,,,,,,,,False,54,55,False,exp3.png,exp4.png,trial_right_image,-1,exp4.png,1,exp3.png,exp4.png,0,2,non-reversed,incorrect,0.16063210850499854,1,invalid_win,274.98944669999764,33,,,,,,,,,,,,sub_985,2024-09-09_09h56.10.377,Reversal,2023.1.3,60.08120575879088,1,
16,exp1.png,exp2.png,,2,0,2,0,0,16,16,16,,,,,,,,,,,,,,,,,,,,,,,,,False,55,56,False,exp1.png,exp2.png,trial_left_image,1,exp1.png,1,exp1.png,exp2.png,1,3,reversed,correct,0.45836280373028093,1,valid_win,279.20376220000617,34,,,,,,,,,,,,sub_985,2024-09-09_09h56.10.377,Reversal,2023.1.3,60.08120575879088,1,
17,exp3.png,exp4.png,,2,0,2,0,0,17,17,17,,,,,,,,,,,,,,,,,,,,,,,,,False,56,57,True,exp4.png,exp3.png,trial_right_image,-1,exp3.png,1,exp3.png,exp4.png,1,1,non-reversed,correct,0.8860456500269959,1,valid_win,283.3365638999967,35,,,,,,,,,,,,sub_985,2024-09-09_09h56.10.377,Reversal,2023.1.3,60.08120575879088,1,
18,exp1.png,exp2.png,,2,0,2,0,0,18,18,18,,,,,,,,,,,,,,,,,,,,,,,,,False,57,58,False,exp1.png,exp2.png,trial_left_image,1,exp1.png,1,exp1.png,exp2.png,1,3,reversed,correct,0.21586320964071692,0,invalid_lose,287.5516856000031,35,,,,,,,,,,,,sub_985,2024-09-09_09h56.10.377,Reversal,2023.1.3,60.08120575879088,1,
19,exp3.png,exp4.png,,2,0,2,0,0,19,19,19,,,,,,,,,,,,,,,,,,,,,,,,,False,58,59,True,exp4.png,exp3.png,trial_right_image,-1,exp3.png,1,exp3.png,exp4.png,1,1,non-reversed,correct,0.6185330581261217,1,valid_win,293.49869720000424,36,,,,,,,,,,,,sub_985,2024-09-09_09h56.10.377,Reversal,2023.1.3,60.08120575879088,1,
20,exp1.png,exp2.png,,2,0,2,0,0,20,20,20,,,,,,,,,,,,,,,,,,,,,,,,,False,59,60,False,exp1.png,exp2.png,trial_left_image,1,exp1.png,1,exp1.png,exp2.png,1,3,reversed,correct,0.5573898709449101,1,valid_win,298.34715549999964,37,,,,,,,,,,,,sub_985,2024-09-09_09h56.10.377,Reversal,2023.1.3,60.08120575879088,1,
,,,exp1.png,2,0,2,0,,,,,0,0,0,0,0,0,0,0,,,,,,,,,,,,,,,,,,,,,,,,,,,,,,,,,,,,,,378.79190630000085,None,None,[],,,,,,,,sub_985,2024-09-09_09h56.10.377,Reversal,2023.1.3,60.08120575879088,1,
,,,exp2.png,2,0,2,0,,,,,0,0,0,0,0,1,1,1,,,,,,,,,,,,,,,,,,,,,,,,,,,,,,,,,,,,,,381.907555999991,None,None,[],,,,,,,,sub_985,2024-09-09_09h56.10.377,Reversal,2023.1.3,60.08120575879088,1,
,,,exp3.png,2,0,2,0,,,,,0,0,0,0,0,2,2,2,,,,,,,,,,,,,,,,,,,,,,,,,,,,,,,,,,,,,,383.3540944999986,None,None,[],,,,,,,,sub_985,2024-09-09_09h56.10.377,Reversal,2023.1.3,60.08120575879088,1,
,,,exp4.png,2,0,2,0,,,,,0,0,0,0,0,3,3,3,,,,,,,,,,,,,,,,,,,,,,,,,,,,,,,,,,,,,,384.5931980000023,None,None,[],,,,,,,,sub_985,2024-09-09_09h56.10.377,Reversal,2023.1.3,60.08120575879088,1,
0,exp1.png,exp2.png,,3,0,3,0,0,0,0,0,,,,,,,,,,,,,,,,,,,,,,,,,True,,,,,,,,,,,,,,,,,,,,,,,,,,,,,,,,sub_985,2024-09-09_09h56.10.377,Reversal,2023.1.3,60.08120575879088,1,
1,exp3.png,exp4.png,,3,0,3,0,0,1,1,1,,,,,,,,,,,,,,,,,,,,,,,,,False,60,61,True,exp4.png,exp3.png,trial_right_image,-1,exp3.png,1,exp3.png,exp4.png,1,1,non-reversed,correct,0.8890074698325717,1,valid_win,309.6275439000019,38,,,,,,,,,,,,sub_985,2024-09-09_09h56.10.377,Reversal,2023.1.3,60.08120575879088,1,
2,exp1.png,exp2.png,,3,0,3,0,0,2,2,2,,,,,,,,,,,,,,,,,,,,,,,,,False,61,62,True,exp2.png,exp1.png,trial_left_image,1,exp2.png,1,exp1.png,exp2.png,0,4,reversed,incorrect,0.08394028304887202,1,invalid_win,313.4921841000032,39,,,,,,,,,,,,sub_985,2024-09-09_09h56.10.377,Reversal,2023.1.3,60.08120575879088,1,
3,exp3.png,exp4.png,,3,0,3,0,0,3,3,3,,,,,,,,,,,,,,,,,,,,,,,,,False,62,63,True,exp4.png,exp3.png,trial_right_image,-1,exp3.png,1,exp3.png,exp4.png,1,1,non-reversed,correct,0.6009710098243902,1,valid_win,317.52522650000174,40,,,,,,,,,,,,sub_985,2024-09-09_09h56.10.377,Reversal,2023.1.3,60.08120575879088,1,
4,exp1.png,exp2.png,,3,0,3,0,0,4,4,4,,,,,,,,,,,,,,,,,,,,,,,,,False,63,64,False,exp1.png,exp2.png,trial_right_image,-1,exp2.png,1,exp1.png,exp2.png,0,4,reversed,incorrect,0.5597771032032067,0,valid_lose,321.6739203000034,40,,,,,,,,,,,,sub_985,2024-09-09_09h56.10.377,Reversal,2023.1.3,60.08120575879088,1,
5,exp3.png,exp4.png,,3,0,3,0,0,5,5,5,,,,,,,,,,,,,,,,,,,,,,,,,False,64,65,False,exp3.png,exp4.png,trial_right_image,-1,exp4.png,1,exp3.png,exp4.png,0,2,non-reversed,incorrect,0.7514620318155338,0,valid_lose,325.58882319999975,40,,,,,,,,,,,,sub_985,2024-09-09_09h56.10.377,Reversal,2023.1.3,60.08120575879088,1,
6,exp1.png,exp2.png,,3,0,3,0,0,6,6,6,,,,,,,,,,,,,,,,,,,,,,,,,False,65,66,False,exp1.png,exp2.png,trial_right_image,-1,exp2.png,1,exp1.png,exp2.png,0,4,reversed,incorrect,0.660994837880037,0,valid_lose,329.5036900999985,40,,,,,,,,,,,,sub_985,2024-09-09_09h56.10.377,Reversal,2023.1.3,60.08120575879088,1,
7,exp3.png,exp4.png,,3,0,3,0,0,7,7,7,,,,,,,,,,,,,,,,,,,,,,,,,False,66,67,False,exp3.png,exp4.png,trial_right_image,-1,exp4.png,1,exp3.png,exp4.png,0,2,non-reversed,incorrect,0.9753276306976337,0,valid_lose,333.40304590000596,40,,,,,,,,,,,,sub_985,2024-09-09_09h56.10.377,Reversal,2023.1.3,60.08120575879088,1,
8,exp1.png,exp2.png,,3,0,3,0,0,8,8,8,,,,,,,,,,,,,,,,,,,,,,,,,False,67,68,True,exp2.png,exp1.png,trial_right_image,-1,exp1.png,1,exp1.png,exp2.png,1,3,reversed,correct,0.81178055593777,1,valid_win,337.40221980000206,41,,,,,,,,,,,,sub_985,2024-09-09_09h56.10.377,Reversal,2023.1.3,60.08120575879088,1,
9,exp3.png,exp4.png,,3,0,3,0,0,9,9,9,,,,,,,,,,,,,,,,,,,,,,,,,False,68,69,False,exp3.png,exp4.png,trial_left_image,1,exp3.png,1,exp3.png,exp4.png,1,1,non-reversed,correct,0.013796365894356954,0,invalid_lose,341.2990986000077,41,,,,,,,,,,,,sub_985,2024-09-09_09h56.10.377,Reversal,2023.1.3,60.08120575879088,1,
10,exp1.png,exp2.png,,3,0,3,0,0,10,10,10,,,,,,,,,,,,,,,,,,,,,,,,,False,69,70,False,exp1.png,exp2.png,trial_left_image,1,exp1.png,1,exp1.png,exp2.png,1,3,reversed,correct,0.059677141705586245,0,invalid_lose,345.1141869999992,41,,,,,,,,,,,,sub_985,2024-09-09_09h56.10.377,Reversal,2023.1.3,60.08120575879088,1,
11,exp3.png,exp4.png,,3,0,3,0,0,11,11,11,,,,,,,,,,,,,,,,,,,,,,,,,False,70,71,True,exp4.png,exp3.png,trial_right_image,-1,exp3.png,1,exp3.png,exp4.png,1,1,non-reversed,correct,0.8938912400417445,1,valid_win,349.16333759999543,42,,,,,,,,,,,,sub_985,2024-09-09_09h56.10.377,Reversal,2023.1.3,60.08120575879088,1,
12,exp1.png,exp2.png,,3,0,3,0,0,12,12,12,,,,,,,,,,,,,,,,,,,,,,,,,False,71,72,True,exp2.png,exp1.png,trial_left_image,1,exp2.png,1,exp1.png,exp2.png,0,4,reversed,incorrect,0.9023099418724471,0,valid_lose,353.6959155000077,42,,,,,,,,,,,,sub_985,2024-09-09_09h56.10.377,Reversal,2023.1.3,60.08120575879088,1,
13,exp3.png,exp4.png,,3,0,3,0,0,13,13,13,,,,,,,,,,,,,,,,,,,,,,,,,False,72,73,False,exp3.png,exp4.png,trial_left_image,1,exp3.png,1,exp3.png,exp4.png,1,1,non-reversed,correct,0.9365731234774272,1,valid_win,357.9447663000028,43,,,,,,,,,,,,sub_985,2024-09-09_09h56.10.377,Reversal,2023.1.3,60.08120575879088,1,
14,exp1.png,exp2.png,,3,0,3,0,0,14,14,14,,,,,,,,,,,,,,,,,,,,,,,,,False,73,74,False,exp1.png,exp2.png,trial_right_image,-1,exp2.png,1,exp1.png,exp2.png,0,4,reversed,incorrect,0.4660096279492588,0,valid_lose,363.0916409000056,43,,,,,,,,,,,,sub_985,2024-09-09_09h56.10.377,Reversal,2023.1.3,60.08120575879088,1,
15,exp3.png,exp4.png,,3,0,3,0,0,15,15,15,,,,,,,,,,,,,,,,,,,,,,,,,False,74,75,False,exp3.png,exp4.png,trial_left_image,1,exp3.png,1,exp3.png,exp4.png,1,1,non-reversed,correct,0.23796118024898427,0,invalid_lose,367.7252019000007,43,,,,,,,,,,,,sub_985,2024-09-09_09h56.10.377,Reversal,2023.1.3,60.08120575879088,1,
16,exp1.png,exp2.png,,3,0,3,0,0,16,16,16,,,,,,,,,,,,,,,,,,,,,,,,,False,75,76,False,exp1.png,exp2.png,trial_right_image,-1,exp2.png,1,exp1.png,exp2.png,0,4,reversed,incorrect,0.746049322438427,0,valid_lose,371.77393609999854,43,,,,,,,,,,,,sub_985,2024-09-09_09h56.10.377,Reversal,2023.1.3,60.08120575879088,1,
17,exp3.png,exp4.png,,3,0,3,0,0,17,17,17,,,,,,,,,,,,,,,,,,,,,,,,,False,76,77,True,exp4.png,exp3.png,trial_left_image,1,exp4.png,1,exp3.png,exp4.png,0,2,non-reversed,incorrect,0.23972205240534827,1,invalid_win,375.70527770000626,44,,,,,,,,,,,,sub_985,2024-09-09_09h56.10.377,Reversal,2023.1.3,60.08120575879088,1,
18,exp1.png,exp2.png,,3,0,3,0,0,18,18,18,,,,,,,,,,,,,,,,,,,,,,,,,False,77,78,True,exp2.png,exp1.png,trial_right_image,-1,exp1.png,1,exp1.png,exp2.png,1,3,reversed,correct,0.29544855321419705,1,valid_win,379.77083850000054,45,,,,,,,,,,,,sub_985,2024-09-09_09h56.10.377,Reversal,2023.1.3,60.08120575879088,1,
19,exp3.png,exp4.png,,3,0,3,0,0,19,19,19,,,,,,,,,,,,,,,,,,,,,,,,,False,78,79,True,exp4.png,exp3.png,trial_right_image,-1,exp3.png,1,exp3.png,exp4.png,1,1,non-reversed,correct,0.4337562908660727,1,valid_win,383.8025418000034,46,,,,,,,,,,,,sub_985,2024-09-09_09h56.10.377,Reversal,2023.1.3,60.08120575879088,1,
20,exp1.png,exp2.png,,3,0,3,0,0,20,20,20,,,,,,,,,,,,,,,,,,,,,,,,,False,79,80,True,exp2.png,exp1.png,trial_right_image,-1,exp1.png,1,exp1.png,exp2.png,1,3,reversed,correct,0.43589367159669234,1,valid_win,387.7680304999958,47,,,,,,,,,,,,sub_985,2024-09-09_09h56.10.377,Reversal,2023.1.3,60.08120575879088,1,
,,,exp1.png,3,0,3,0,,,,,0,0,0,0,0,0,0,0,,,,,,,,,,,,,,,,,,,,,,,,,,,,,,,,,,,,,,468.2091463999968,56.0,3.7030224000045564,"[(56.0, 3.7030224000045564)]",56.0,,,,,,,sub_985,2024-09-09_09h56.10.377,Reversal,2023.1.3,60.08120575879088,1,
,,,exp2.png,3,0,3,0,,,,,0,0,0,0,0,1,1,1,,,,,,,,,,,,,,,,,,,,,,,,,,,,,,,,,,,,,,473.15889839999727,None,None,[],,,,,,,,sub_985,2024-09-09_09h56.10.377,Reversal,2023.1.3,60.08120575879088,1,
,,,exp3.png,3,0,3,0,,,,,0,0,0,0,0,2,2,2,,,,,,,,,,,,,,,,,,,,,,,,,,,,,,,,,,,,,,474.6281530999986,None,None,[],,,,,,,,sub_985,2024-09-09_09h56.10.377,Reversal,2023.1.3,60.08120575879088,1,
,,,exp4.png,3,0,3,0,,,,,0,0,0,0,0,3,3,3,,,,,,,,,,,,,,,,,,,,,,,,,,,,,,,,,,,,,,475.69476899999427,None,None,[],,,,,,,,sub_985,2024-09-09_09h56.10.377,Reversal,2023.1.3,60.08120575879088,1,
0,exp1.png,exp2.png,,,,,,,,,,,,,,,,,,0,0,0,0,0,0,0,0,,,,,,,,,True,,,,,,,,,,,,,,,,,,,,,,,,,,,,,,,,sub_985,2024-09-09_09h56.10.377,Reversal,2023.1.3,60.08120575879088,1,
1,exp3.png,exp4.png,,,,,,,,,,,,,,,,,,0,0,0,0,0,1,1,1,,,,,,,,,False,0,81,False,exp3.png,exp4.png,trial_left_image,1,exp3.png,1,exp3.png,exp4.png,1,1,non-reversed,correct,0.011998898934736157,0,invalid_lose,401.13018540000485,47,,,,,,399.40132049999374,,,,,,sub_985,2024-09-09_09h56.10.377,Reversal,2023.1.3,60.08120575879088,1,
2,exp1.png,exp2.png,,,,,,,,,,,,,,,,,,0,0,0,0,0,2,2,2,,,,,,,,,False,1,82,False,exp1.png,exp2.png,trial_right_image,-1,exp2.png,1,exp2.png,exp1.png,0,4,reversed,correct,0.9146988481306862,1,valid_win,405.1608832000056,48,,,,,,,,,,,,sub_985,2024-09-09_09h56.10.377,Reversal,2023.1.3,60.08120575879088,1,
3,exp3.png,exp4.png,,,,,,,,,,,,,,,,,,0,0,0,0,0,3,3,3,,,,,,,,,False,2,83,False,exp3.png,exp4.png,trial_left_image,1,exp3.png,1,exp3.png,exp4.png,1,1,non-reversed,correct,0.8371737986043601,1,valid_win,409.2596826999943,49,,,,,,,,,,,,sub_985,2024-09-09_09h56.10.377,Reversal,2023.1.3,60.08120575879088,1,
4,exp1.png,exp2.png,,,,,,,,,,,,,,,,,,0,0,0,0,0,4,4,4,,,,,,,,,False,3,84,False,exp1.png,exp2.png,trial_left_image,1,exp1.png,1,exp2.png,exp1.png,1,3,reversed,incorrect,0.975497114278094,0,valid_lose,413.1937719999987,49,,,,,,,,,,,,sub_985,2024-09-09_09h56.10.377,Reversal,2023.1.3,60.08120575879088,1,
5,exp3.png,exp4.png,,,,,,,,,,,,,,,,,,0,0,0,0,0,5,5,5,,,,,,,,,False,4,85,True,exp4.png,exp3.png,trial_left_image,1,exp4.png,1,exp3.png,exp4.png,0,2,non-reversed,incorrect,0.0319109283435004,1,invalid_win,416.9915083999949,50,,,,,,,,,,,,sub_985,2024-09-09_09h56.10.377,Reversal,2023.1.3,60.08120575879088,1,
6,exp1.png,exp2.png,,,,,,,,,,,,,,,,,,0,0,0,0,0,6,6,6,,,,,,,,,False,5,86,False,exp1.png,exp2.png,trial_left_image,1,exp1.png,1,exp2.png,exp1.png,1,3,reversed,incorrect,0.9832179391383865,0,valid_lose,420.9737000000023,50,,,,,,,,,,,,sub_985,2024-09-09_09h56.10.377,Reversal,2023.1.3,60.08120575879088,1,
7,exp3.png,exp4.png,,,,,,,,,,,,,,,,,,0,0,0,0,0,7,7,7,,,,,,,,,False,6,87,True,exp4.png,exp3.png,trial_right_image,-1,exp3.png,1,exp3.png,exp4.png,1,1,non-reversed,correct,0.14995267783566957,0,invalid_lose,425.0873492999963,50,,,,,,,,,,,,sub_985,2024-09-09_09h56.10.377,Reversal,2023.1.3,60.08120575879088,1,
8,exp1.png,exp2.png,,,,,,,,,,,,,,,,,,0,0,0,0,0,8,8,8,,,,,,,,,False,7,88,True,exp2.png,exp1.png,trial_right_image,-1,exp1.png,1,exp2.png,exp1.png,1,3,reversed,incorrect,0.009369152252959534,1,invalid_win,429.2874057000008,51,,,,,,,,,,,,sub_985,2024-09-09_09h56.10.377,Reversal,2023.1.3,60.08120575879088,1,
9,exp3.png,exp4.png,,,,,,,,,,,,,,,,,,0,0,0,0,0,9,9,9,,,,,,,,,False,8,89,True,exp4.png,exp3.png,trial_left_image,1,exp4.png,1,exp3.png,exp4.png,0,2,non-reversed,incorrect,0.7531732196710714,0,valid_lose,433.2179770000075,51,,,,,,,,,,,,sub_985,2024-09-09_09h56.10.377,Reversal,2023.1.3,60.08120575879088,1,
10,exp1.png,exp2.png,,,,,,,,,,,,,,,,,,0,0,0,0,0,10,10,10,,,,,,,,,False,9,90,True,exp2.png,exp1.png,trial_left_image,1,exp2.png,1,exp2.png,exp1.png,0,4,reversed,correct,0.7815007757351572,1,valid_win,437.31799090000277,52,,,,,,,,,,,,sub_985,2024-09-09_09h56.10.377,Reversal,2023.1.3,60.08120575879088,1,
11,exp3.png,exp4.png,,,,,,,,,,,,,,,,,,0,0,0,0,0,11,11,11,,,,,,,,,False,10,91,False,exp3.png,exp4.png,trial_left_image,1,exp3.png,1,exp3.png,exp4.png,1,1,non-reversed,correct,0.06889369505758436,0,invalid_lose,441.39986069999577,52,,,,,,,,,,,,sub_985,2024-09-09_09h56.10.377,Reversal,2023.1.3,60.08120575879088,1,
12,exp1.png,exp2.png,,,,,,,,,,,,,,,,,,0,0,0,0,0,12,12,12,,,,,,,,,False,11,92,False,exp1.png,exp2.png,trial_right_image,-1,exp2.png,1,exp2.png,exp1.png,0,4,reversed,correct,0.6844636487160476,1,valid_win,447.6647135999956,53,,,,,,,,,,,,sub_985,2024-09-09_09h56.10.377,Reversal,2023.1.3,60.08120575879088,1,
13,exp3.png,exp4.png,,,,,,,,,,,,,,,,,,0,0,0,0,0,13,13,13,,,,,,,,,False,12,93,False,exp3.png,exp4.png,trial_right_image,-1,exp4.png,1,exp3.png,exp4.png,0,2,non-reversed,incorrect,0.4198641364919564,0,valid_lose,451.547604899999,53,,,,,,,,,,,,sub_985,2024-09-09_09h56.10.377,Reversal,2023.1.3,60.08120575879088,1,
14,exp1.png,exp2.png,,,,,,,,,,,,,,,,,,0,0,0,0,0,14,14,14,,,,,,,,,False,13,94,True,exp2.png,exp1.png,trial_left_image,1,exp2.png,1,exp2.png,exp1.png,0,4,reversed,correct,0.048131832598400814,0,invalid_lose,455.7110110000067,53,,,,,,,,,,,,sub_985,2024-09-09_09h56.10.377,Reversal,2023.1.3,60.08120575879088,1,
15,exp3.png,exp4.png,,,,,,,,,,,,,,,,,,0,0,0,0,0,15,15,15,,,,,,,,,False,14,95,True,exp4.png,exp3.png,trial_left_image,1,exp4.png,1,exp3.png,exp4.png,0,2,non-reversed,incorrect,0.547025812675122,0,valid_lose,460.35935719999543,53,,,,,,,,,,,,sub_985,2024-09-09_09h56.10.377,Reversal,2023.1.3,60.08120575879088,1,
16,exp1.png,exp2.png,,,,,,,,,,,,,,,,,,0,0,0,0,0,16,16,16,,,,,,,,,False,15,96,True,exp2.png,exp1.png,trial_right_image,-1,exp1.png,1,exp2.png,exp1.png,1,3,reversed,incorrect,0.8442141143601833,0,valid_lose,464.6911339000071,53,,,,,,,,,,,,sub_985,2024-09-09_09h56.10.377,Reversal,2023.1.3,60.08120575879088,1,
17,exp3.png,exp4.png,,,,,,,,,,,,,,,,,,0,0,0,0,0,17,17,17,,,,,,,,,False,16,97,True,exp4.png,exp3.png,trial_left_image,1,exp4.png,1,exp3.png,exp4.png,0,2,non-reversed,incorrect,0.8845058462613442,0,valid_lose,468.55760280000686,53,,,,,,,,,,,,sub_985,2024-09-09_09h56.10.377,Reversal,2023.1.3,60.08120575879088,1,
18,exp1.png,exp2.png,,,,,,,,,,,,,,,,,,0,0,0,0,0,18,18,18,,,,,,,,,False,17,98,True,exp2.png,exp1.png,trial_left_image,1,exp2.png,1,exp2.png,exp1.png,0,4,reversed,correct,0.42611203396353303,1,valid_win,472.4066254000063,54,,,,,,,,,,,,sub_985,2024-09-09_09h56.10.377,Reversal,2023.1.3,60.08120575879088,1,
19,exp3.png,exp4.png,,,,,,,,,,,,,,,,,,0,0,0,0,0,19,19,19,,,,,,,,,False,18,99,False,exp3.png,exp4.png,trial_right_image,-1,exp4.png,1,exp3.png,exp4.png,0,2,non-reversed,incorrect,0.7638097876644435,0,valid_lose,476.38813279999886,54,,,,,,,,,,,,sub_985,2024-09-09_09h56.10.377,Reversal,2023.1.3,60.08120575879088,1,
20,exp1.png,exp2.png,,,,,,,,,,,,,,,,,,0,0,0,0,0,20,20,20,,,,,,,,,False,19,100,False,exp1.png,exp2.png,trial_left_image,1,exp1.png,1,exp2.png,exp1.png,1,3,reversed,incorrect,0.4008722590416519,0,valid_lose,480.4535204999993,54,,,,,,,,,,,,sub_985,2024-09-09_09h56.10.377,Reversal,2023.1.3,60.08120575879088,1,
,,,exp1.png,,,,,,,,,,,,,,,,,0,0,0,0,,,,,0,0,0,0,0,0,0,0,,,,,,,,,,,,,,,,,,,,,,560.89800809999,None,None,[],,,,,,,,sub_985,2024-09-09_09h56.10.377,Reversal,2023.1.3,60.08120575879088,1,
,,,exp2.png,,,,,,,,,,,,,,,,,0,0,0,0,,,,,0,0,0,0,0,1,1,1,,,,,,,,,,,,,,,,,,,,,,562.6560448999953,None,None,[],,,,,,,,sub_985,2024-09-09_09h56.10.377,Reversal,2023.1.3,60.08120575879088,1,
,,,exp3.png,,,,,,,,,,,,,,,,,0,0,0,0,,,,,0,0,0,0,0,2,2,2,,,,,,,,,,,,,,,,,,,,,,563.6140657999931,None,None,[],,,,,,,,sub_985,2024-09-09_09h56.10.377,Reversal,2023.1.3,60.08120575879088,1,
,,,exp4.png,,,,,,,,,,,,,,,,,0,0,0,0,,,,,0,0,0,0,0,3,3,3,,,,,,,,,,,,,,,,,,,,,,564.6444784999912,None,None,[],,,,,,,,sub_985,2024-09-09_09h56.10.377,Reversal,2023.1.3,60.08120575879088,1,
0,exp1.png,exp2.png,,,,,,,,,,,,,,,,,,1,0,1,0,0,0,0,0,,,,,,,,,True,,,,,,,,,,,,,,,,,,,,,,,,,,,,,,,,sub_985,2024-09-09_09h56.10.377,Reversal,2023.1.3,60.08120575879088,1,
1,exp3.png,exp4.png,,,,,,,,,,,,,,,,,,1,0,1,0,0,1,1,1,,,,,,,,,False,20,101,False,exp3.png,exp4.png,trial_right_image,-1,exp4.png,1,exp3.png,exp4.png,0,2,non-reversed,incorrect,0.9009697806699181,0,valid_lose,489.6326281000074,54,,,,,,,,,,,,sub_985,2024-09-09_09h56.10.377,Reversal,2023.1.3,60.08120575879088,1,
2,exp1.png,exp2.png,,,,,,,,,,,,,,,,,,1,0,1,0,0,2,2,2,,,,,,,,,False,21,102,True,exp2.png,exp1.png,trial_right_image,-1,exp1.png,1,exp2.png,exp1.png,1,3,reversed,incorrect,0.3608567331152469,0,valid_lose,493.4318865999958,54,,,,,,,,,,,,sub_985,2024-09-09_09h56.10.377,Reversal,2023.1.3,60.08120575879088,1,
3,exp3.png,exp4.png,,,,,,,,,,,,,,,,,,1,0,1,0,0,3,3,3,,,,,,,,,False,22,103,False,exp3.png,exp4.png,trial_left_image,1,exp3.png,1,exp3.png,exp4.png,1,1,non-reversed,correct,0.9807817890219803,1,valid_win,497.26367899999605,55,,,,,,,,,,,,sub_985,2024-09-09_09h56.10.377,Reversal,2023.1.3,60.08120575879088,1,
4,exp1.png,exp2.png,,,,,,,,,,,,,,,,,,1,0,1,0,0,4,4,4,,,,,,,,,False,23,104,True,exp2.png,exp1.png,trial_left_image,1,exp2.png,1,exp2.png,exp1.png,0,4,reversed,correct,0.44136309808156204,1,valid_win,501.29602619999787,56,,,,,,,,,,,,sub_985,2024-09-09_09h56.10.377,Reversal,2023.1.3,60.08120575879088,1,
5,exp3.png,exp4.png,,,,,,,,,,,,,,,,,,1,0,1,0,0,5,5,5,,,,,,,,,False,24,105,False,exp3.png,exp4.png,trial_left_image,1,exp3.png,1,exp3.png,exp4.png,1,1,non-reversed,correct,0.7533927013280628,1,valid_win,505.27759450000303,57,,,,,,,,,,,,sub_985,2024-09-09_09h56.10.377,Reversal,2023.1.3,60.08120575879088,1,
6,exp1.png,exp2.png,,,,,,,,,,,,,,,,,,1,0,1,0,0,6,6,6,,,,,,,,,False,25,106,False,exp1.png,exp2.png,trial_right_image,-1,exp2.png,1,exp2.png,exp1.png,0,4,reversed,correct,0.6143842232707236,1,valid_win,509.142851800003,58,,,,,,,,,,,,sub_985,2024-09-09_09h56.10.377,Reversal,2023.1.3,60.08120575879088,1,
7,exp3.png,exp4.png,,,,,,,,,,,,,,,,,,1,0,1,0,0,7,7,7,,,,,,,,,False,26,107,True,exp4.png,exp3.png,trial_right_image,-1,exp3.png,1,exp3.png,exp4.png,1,1,non-reversed,correct,0.10285080363747878,0,invalid_lose,512.9908022000018,58,,,,,,,,,,,,sub_985,2024-09-09_09h56.10.377,Reversal,2023.1.3,60.08120575879088,1,
8,exp1.png,exp2.png,,,,,,,,,,,,,,,,,,1,0,1,0,0,8,8,8,,,,,,,,,False,27,108,True,exp2.png,exp1.png,trial_left_image,1,exp2.png,1,exp2.png,exp1.png,0,4,reversed,correct,0.9673179393062888,1,valid_win,516.9737599999935,59,,,,,,,,,,,,sub_985,2024-09-09_09h56.10.377,Reversal,2023.1.3,60.08120575879088,1,
9,exp3.png,exp4.png,,,,,,,,,,,,,,,,,,1,0,1,0,0,9,9,9,,,,,,,,,False,28,109,True,exp4.png,exp3.png,trial_right_image,-1,exp3.png,1,exp3.png,exp4.png,1,1,non-reversed,correct,0.04831323901981066,0,invalid_lose,520.8904232000059,59,,,,,,,,,,,,sub_985,2024-09-09_09h56.10.377,Reversal,2023.1.3,60.08120575879088,1,
10,exp1.png,exp2.png,,,,,,,,,,,,,,,,,,1,0,1,0,0,10,10,10,,,,,,,,,False,29,110,False,exp1.png,exp2.png,trial_right_image,-1,exp2.png,1,exp2.png,exp1.png,0,4,reversed,correct,0.513828285357212,1,valid_win,524.8222925000009,60,,,,,,,,,,,,sub_985,2024-09-09_09h56.10.377,Reversal,2023.1.3,60.08120575879088,1,
11,exp3.png,exp4.png,,,,,,,,,,,,,,,,,,1,0,1,0,0,11,11,11,,,,,,,,,False,30,111,True,exp4.png,exp3.png,trial_left_image,1,exp4.png,1,exp3.png,exp4.png,0,2,non-reversed,incorrect,0.804090138428457,0,valid_lose,528.6692750999937,60,,,,,,,,,,,,sub_985,2024-09-09_09h56.10.377,Reversal,2023.1.3,60.08120575879088,1,
12,exp1.png,exp2.png,,,,,,,,,,,,,,,,,,1,0,1,0,0,12,12,12,,,,,,,,,False,31,112,False,exp1.png,exp2.png,trial_right_image,-1,exp2.png,1,exp2.png,exp1.png,0,4,reversed,correct,0.5591729430692135,1,valid_win,532.6017498000001,61,,,,,,,,,,,,sub_985,2024-09-09_09h56.10.377,Reversal,2023.1.3,60.08120575879088,1,
13,exp3.png,exp4.png,,,,,,,,,,,,,,,,,,1,0,1,0,0,13,13,13,,,,,,,,,False,32,113,True,exp4.png,exp3.png,trial_left_image,1,exp4.png,1,exp3.png,exp4.png,0,2,non-reversed,incorrect,0.14069960320060348,1,invalid_win,536.4515562000015,62,,,,,,,,,,,,sub_985,2024-09-09_09h56.10.377,Reversal,2023.1.3,60.08120575879088,1,
14,exp1.png,exp2.png,,,,,,,,,,,,,,,,,,1,0,1,0,0,14,14,14,,,,,,,,,False,33,114,False,exp1.png,exp2.png,trial_left_image,1,exp1.png,1,exp2.png,exp1.png,1,3,reversed,incorrect,0.6523075722143059,0,valid_lose,540.4501171000011,62,,,,,,,,,,,,sub_985,2024-09-09_09h56.10.377,Reversal,2023.1.3,60.08120575879088,1,
15,exp3.png,exp4.png,,,,,,,,,,,,,,,,,,1,0,1,0,0,15,15,15,,,,,,,,,False,34,115,True,exp4.png,exp3.png,trial_right_image,-1,exp3.png,1,exp3.png,exp4.png,1,1,non-reversed,correct,0.4928212508329679,1,valid_win,544.3319377000007,63,,,,,,,,,,,,sub_985,2024-09-09_09h56.10.377,Reversal,2023.1.3,60.08120575879088,1,
16,exp1.png,exp2.png,,,,,,,,,,,,,,,,,,1,0,1,0,0,16,16,16,,,,,,,,,False,35,116,False,exp1.png,exp2.png,trial_left_image,1,exp1.png,1,exp2.png,exp1.png,1,3,reversed,incorrect,0.06863974229865677,1,invalid_win,548.6802121999935,64,,,,,,,,,,,,sub_985,2024-09-09_09h56.10.377,Reversal,2023.1.3,60.08120575879088,1,
17,exp3.png,exp4.png,,,,,,,,,,,,,,,,,,1,0,1,0,0,17,17,17,,,,,,,,,False,36,117,False,exp3.png,exp4.png,trial_left_image,1,exp3.png,1,exp3.png,exp4.png,1,1,non-reversed,correct,0.46076550871283917,1,valid_win,552.6625124999991,65,,,,,,,,,,,,sub_985,2024-09-09_09h56.10.377,Reversal,2023.1.3,60.08120575879088,1,
18,exp1.png,exp2.png,,,,,,,,,,,,,,,,,,1,0,1,0,0,18,18,18,,,,,,,,,False,37,118,False,exp1.png,exp2.png,trial_left_image,1,exp1.png,1,exp2.png,exp1.png,1,3,reversed,incorrect,0.3773149564236732,0,valid_lose,556.645399400004,65,,,,,,,,,,,,sub_985,2024-09-09_09h56.10.377,Reversal,2023.1.3,60.08120575879088,1,
19,exp3.png,exp4.png,,,,,,,,,,,,,,,,,,1,0,1,0,0,19,19,19,,,,,,,,,False,38,119,True,exp4.png,exp3.png,trial_left_image,1,exp4.png,1,exp3.png,exp4.png,0,2,non-reversed,incorrect,0.32831814653617786,0,valid_lose,560.4422873000003,65,,,,,,,,,,,,sub_985,2024-09-09_09h56.10.377,Reversal,2023.1.3,60.08120575879088,1,
20,exp1.png,exp2.png,,,,,,,,,,,,,,,,,,1,0,1,0,0,20,20,20,,,,,,,,,False,39,120,True,exp2.png,exp1.png,trial_right_image,-1,exp1.png,1,exp2.png,exp1.png,1,3,reversed,incorrect,0.6801381344039016,0,valid_lose,564.3918237000034,65,,,,,,,,,,,,sub_985,2024-09-09_09h56.10.377,Reversal,2023.1.3,60.08120575879088,1,
,,,exp1.png,,,,,,,,,,,,,,,,,1,0,1,0,,,,,0,0,0,0,0,0,0,0,,,,,,,,,,,,,,,,,,,,,,644.832441999999,None,None,[],,,,,,,,sub_985,2024-09-09_09h56.10.377,Reversal,2023.1.3,60.08120575879088,1,
,,,exp2.png,,,,,,,,,,,,,,,,,1,0,1,0,,,,,0,0,0,0,0,1,1,1,,,,,,,,,,,,,,,,,,,,,,647.5132435999985,None,None,[],,,,,,,,sub_985,2024-09-09_09h56.10.377,Reversal,2023.1.3,60.08120575879088,1,
,,,exp3.png,,,,,,,,,,,,,,,,,1,0,1,0,,,,,0,0,0,0,0,2,2,2,,,,,,,,,,,,,,,,,,,,,,648.3984634999943,None,None,[],,,,,,,,sub_985,2024-09-09_09h56.10.377,Reversal,2023.1.3,60.08120575879088,1,
,,,exp4.png,,,,,,,,,,,,,,,,,1,0,1,0,,,,,0,0,0,0,0,3,3,3,,,,,,,,,,,,,,,,,,,,,,649.3465926999925,None,None,[],,,,,,,,sub_985,2024-09-09_09h56.10.377,Reversal,2023.1.3,60.08120575879088,1,
0,exp1.png,exp2.png,,,,,,,,,,,,,,,,,,2,0,2,0,0,0,0,0,,,,,,,,,True,,,,,,,,,,,,,,,,,,,,,,,,,,,,,,,,sub_985,2024-09-09_09h56.10.377,Reversal,2023.1.3,60.08120575879088,1,
1,exp3.png,exp4.png,,,,,,,,,,,,,,,,,,2,0,2,0,0,1,1,1,,,,,,,,,False,40,121,True,exp4.png,exp3.png,trial_right_image,-1,exp3.png,1,exp3.png,exp4.png,1,1,non-reversed,correct,0.007890283621720506,0,invalid_lose,573.9387752000039,65,,,,,,,,,,,,sub_985,2024-09-09_09h56.10.377,Reversal,2023.1.3,60.08120575879088,1,
2,exp1.png,exp2.png,,,,,,,,,,,,,,,,,,2,0,2,0,0,2,2,2,,,,,,,,,False,41,122,False,exp1.png,exp2.png,trial_right_image,-1,exp2.png,1,exp2.png,exp1.png,0,4,reversed,correct,0.4911205422221486,1,valid_win,578.437416300003,66,,,,,,,,,,,,sub_985,2024-09-09_09h56.10.377,Reversal,2023.1.3,60.08120575879088,1,
3,exp3.png,exp4.png,,,,,,,,,,,,,,,,,,2,0,2,0,0,3,3,3,,,,,,,,,False,42,123,False,exp3.png,exp4.png,trial_right_image,-1,exp4.png,1,exp3.png,exp4.png,0,2,non-reversed,incorrect,0.6891332637082656,0,valid_lose,583.0015691000008,66,,,,,,,,,,,,sub_985,2024-09-09_09h56.10.377,Reversal,2023.1.3,60.08120575879088,1,
4,exp1.png,exp2.png,,,,,,,,,,,,,,,,,,2,0,2,0,0,4,4,4,,,,,,,,,False,43,124,False,exp1.png,exp2.png,trial_left_image,1,exp1.png,1,exp2.png,exp1.png,1,3,reversed,incorrect,0.3230687250593294,0,valid_lose,586.9671852000029,66,,,,,,,,,,,,sub_985,2024-09-09_09h56.10.377,Reversal,2023.1.3,60.08120575879088,1,
5,exp3.png,exp4.png,,,,,,,,,,,,,,,,,,2,0,2,0,0,5,5,5,,,,,,,,,False,44,125,False,exp3.png,exp4.png,trial_left_image,1,exp3.png,1,exp3.png,exp4.png,1,1,non-reversed,correct,0.1816692653890718,0,invalid_lose,590.7986564000021,66,,,,,,,,,,,,sub_985,2024-09-09_09h56.10.377,Reversal,2023.1.3,60.08120575879088,1,
6,exp1.png,exp2.png,,,,,,,,,,,,,,,,,,2,0,2,0,0,6,6,6,,,,,,,,,False,45,126,True,exp2.png,exp1.png,trial_left_image,1,exp2.png,1,exp2.png,exp1.png,0,4,reversed,correct,0.47210699373671094,1,valid_win,594.7649877000076,67,,,,,,,,,,,,sub_985,2024-09-09_09h56.10.377,Reversal,2023.1.3,60.08120575879088,1,
7,exp3.png,exp4.png,,,,,,,,,,,,,,,,,,2,0,2,0,0,7,7,7,,,,,,,,,False,46,127,False,exp3.png,exp4.png,trial_right_image,-1,exp4.png,1,exp3.png,exp4.png,0,2,non-reversed,incorrect,0.6188420410186811,0,valid_lose,598.6461949000077,67,,,,,,,,,,,,sub_985,2024-09-09_09h56.10.377,Reversal,2023.1.3,60.08120575879088,1,
8,exp1.png,exp2.png,,,,,,,,,,,,,,,,,,2,0,2,0,0,8,8,8,,,,,,,,,False,47,128,False,exp1.png,exp2.png,trial_left_image,1,exp1.png,1,exp2.png,exp1.png,1,3,reversed,incorrect,0.90860972453575,0,valid_lose,603.5953695000062,67,,,,,,,,,,,,sub_985,2024-09-09_09h56.10.377,Reversal,2023.1.3,60.08120575879088,1,
9,exp3.png,exp4.png,,,,,,,,,,,,,,,,,,2,0,2,0,0,9,9,9,,,,,,,,,False,48,129,False,exp3.png,exp4.png,trial_left_image,1,exp3.png,1,exp3.png,exp4.png,1,1,non-reversed,correct,0.4844419534161508,1,valid_win,607.4940964999987,68,,,,,,,,,,,,sub_985,2024-09-09_09h56.10.377,Reversal,2023.1.3,60.08120575879088,1,
10,exp1.png,exp2.png,,,,,,,,,,,,,,,,,,2,0,2,0,0,10,10,10,,,,,,,,,False,49,130,True,exp2.png,exp1.png,trial_right_image,-1,exp1.png,1,exp2.png,exp1.png,1,3,reversed,incorrect,0.5920621603688504,0,valid_lose,611.2746850999974,68,,,,,,,,,,,,sub_985,2024-09-09_09h56.10.377,Reversal,2023.1.3,60.08120575879088,1,
11,exp3.png,exp4.png,,,,,,,,,,,,,,,,,,2,0,2,0,0,11,11,11,,,,,,,,,False,50,131,True,exp4.png,exp3.png,trial_left_image,1,exp4.png,1,exp3.png,exp4.png,0,2,non-reversed,incorrect,0.4975299507686022,0,valid_lose,615.0899263000028,68,,,,,,,,,,,,sub_985,2024-09-09_09h56.10.377,Reversal,2023.1.3,60.08120575879088,1,
12,exp1.png,exp2.png,,,,,,,,,,,,,,,,,,2,0,2,0,0,12,12,12,,,,,,,,,False,51,132,True,exp2.png,exp1.png,trial_left_image,1,exp2.png,1,exp2.png,exp1.png,0,4,reversed,correct,0.04515268523957783,0,invalid_lose,618.9742991999956,68,,,,,,,,,,,,sub_985,2024-09-09_09h56.10.377,Reversal,2023.1.3,60.08120575879088,1,
13,exp3.png,exp4.png,,,,,,,,,,,,,,,,,,2,0,2,0,0,13,13,13,,,,,,,,,False,52,133,True,exp4.png,exp3.png,trial_right_image,-1,exp3.png,1,exp3.png,exp4.png,1,1,non-reversed,correct,0.3533545328492971,1,valid_win,622.8042352000048,69,,,,,,,,,,,,sub_985,2024-09-09_09h56.10.377,Reversal,2023.1.3,60.08120575879088,1,
14,exp1.png,exp2.png,,,,,,,,,,,,,,,,,,2,0,2,0,0,14,14,14,,,,,,,,,False,53,134,True,exp2.png,exp1.png,trial_right_image,-1,exp1.png,1,exp2.png,exp1.png,1,3,reversed,incorrect,0.6502775101681917,0,valid_lose,626.6543863999977,69,,,,,,,,,,,,sub_985,2024-09-09_09h56.10.377,Reversal,2023.1.3,60.08120575879088,1,
15,exp3.png,exp4.png,,,,,,,,,,,,,,,,,,2,0,2,0,0,15,15,15,,,,,,,,,False,54,135,False,exp3.png,exp4.png,trial_left_image,1,exp3.png,1,exp3.png,exp4.png,1,1,non-reversed,correct,0.8080727044351801,1,valid_win,630.501815399999,70,,,,,,,,,,,,sub_985,2024-09-09_09h56.10.377,Reversal,2023.1.3,60.08120575879088,1,
16,exp1.png,exp2.png,,,,,,,,,,,,,,,,,,2,0,2,0,0,16,16,16,,,,,,,,,False,55,136,True,exp2.png,exp1.png,trial_left_image,1,exp2.png,1,exp2.png,exp1.png,0,4,reversed,correct,0.34078940931429236,1,valid_win,634.7682884999958,71,,,,,,,,,,,,sub_985,2024-09-09_09h56.10.377,Reversal,2023.1.3,60.08120575879088,1,
17,exp3.png,exp4.png,,,,,,,,,,,,,,,,,,2,0,2,0,0,17,17,17,,,,,,,,,False,56,137,False,exp3.png,exp4.png,trial_right_image,-1,exp4.png,1,exp3.png,exp4.png,0,2,non-reversed,incorrect,0.8274595378608026,0,valid_lose,638.6166654999979,71,,,,,,,,,,,,sub_985,2024-09-09_09h56.10.377,Reversal,2023.1.3,60.08120575879088,1,
18,exp1.png,exp2.png,,,,,,,,,,,,,,,,,,2,0,2,0,0,18,18,18,,,,,,,,,False,57,138,False,exp1.png,exp2.png,trial_left_image,1,exp1.png,1,exp2.png,exp1.png,1,3,reversed,incorrect,0.5296598156549961,0,valid_lose,642.6312008999957,71,,,,,,,,,,,,sub_985,2024-09-09_09h56.10.377,Reversal,2023.1.3,60.08120575879088,1,
19,exp3.png,exp4.png,,,,,,,,,,,,,,,,,,2,0,2,0,0,19,19,19,,,,,,,,,False,58,139,True,exp4.png,exp3.png,trial_left_image,1,exp4.png,1,exp3.png,exp4.png,0,2,non-reversed,incorrect,0.02324544527152861,1,invalid_win,646.3976331000013,72,,,,,,,,,,,,sub_985,2024-09-09_09h56.10.377,Reversal,2023.1.3,60.08120575879088,1,
20,exp1.png,exp2.png,,,,,,,,,,,,,,,,,,2,0,2,0,0,20,20,20,,,,,,,,,False,59,140,True,exp2.png,exp1.png,trial_left_image,1,exp2.png,1,exp2.png,exp1.png,0,4,reversed,correct,0.8110651979623371,1,valid_win,650.5449687000073,73,,,,,,,,,,,,sub_985,2024-09-09_09h56.10.377,Reversal,2023.1.3,60.08120575879088,1,
,,,exp1.png,,,,,,,,,,,,,,,,,2,0,2,0,,,,,0,0,0,0,0,0,0,0,,,,,,,,,,,,,,,,,,,,,,730.9902688000002,None,None,[],,,,,,,,sub_985,2024-09-09_09h56.10.377,Reversal,2023.1.3,60.08120575879088,1,
,,,exp2.png,,,,,,,,,,,,,,,,,2,0,2,0,,,,,0,0,0,0,0,1,1,1,,,,,,,,,,,,,,,,,,,,,,732.7916779999941,None,None,[],,,,,,,,sub_985,2024-09-09_09h56.10.377,Reversal,2023.1.3,60.08120575879088,1,
,,,exp3.png,,,,,,,,,,,,,,,,,2,0,2,0,,,,,0,0,0,0,0,2,2,2,,,,,,,,,,,,,,,,,,,,,,733.6736302999925,None,None,[],,,,,,,,sub_985,2024-09-09_09h56.10.377,Reversal,2023.1.3,60.08120575879088,1,
,,,exp4.png,,,,,,,,,,,,,,,,,2,0,2,0,,,,,0,0,0,0,0,3,3,3,,,,,,,,,,,,,,,,,,,,,,734.5285569999978,None,None,[],,,,,,,,sub_985,2024-09-09_09h56.10.377,Reversal,2023.1.3,60.08120575879088,1,
,,,,,,,,,,,,,,,,,,,,,,,,,,,,,,,,,,,,,,,,,,,,,,,,,,,,,,,,73,,,,,,,71,41,30,257.9278653000074,1,,,,,,,
