trial_index,trial_image1_file,trial_image2_file,image_file,learning_outer_loop.thisRepN,learning_outer_loop.thisTrialN,learning_outer_loop.thisN,learning_outer_loop.thisIndex,learning_inner_loop.thisRepN,learning_inner_loop.thisTrialN,learning_inner_loop.thisN,learning_inner_loop.thisIndex,learning_estimation_outer_loop.thisRepN,learning_estimation_outer_loop.thisTrialN,learning_estimation_outer_loop.thisN,learning_estimation_outer_loop.thisIndex,learning_estimation_inner_loop.thisRepN,learning_estimation_inner_loop.thisTrialN,learning_estimation_inner_loop.thisN,learning_estimation_inner_loop.thisIndex,reversal_outer_loop.thisRepN,reversal_outer_loop.thisTrialN,reversal_outer_loop.thisN,reversal_outer_loop.thisIndex,reversal_inner_loop.thisRepN,reversal_inner_loop.thisTrialN,reversal_inner_loop.thisN,reversal_inner_loop.thisIndex,reversal_estimation_outer_loop.thisRepN,reversal_estimation_outer_loop.thisTrialN,reversal_estimation_outer_loop.thisN,reversal_estimation_outer_loop.thisIndex,reversal_estimation_inner_loop.thisRepN,reversal_estimation_inner_loop.thisTrialN,reversal_estimation_inner_loop.thisN,reversal_estimation_inner_loop.thisIndex,skipped,total_trial_counter,trial_num,left_right_flip,left_image_file,right_image_file,clicked_stimulus_side,side,clicked_stimulus,version,high_prob_image_file,low_prob_image_file,choice_a,choice_b,pair_type,correct,trial_feedback_random,reward,trial_type,overall_time_after_trial,score,estimation_exp1.png,estimation_rating.response,estimation_rating.rt,estimation_rating.history,estimation_rating.started,estimation_rating.stopped,estimation_exp2.png,estimation_exp3.png,estimation_exp4.png,total_learning_time,total_correct,learning_correct,reversal_correct,total_reversal_time,extra_block,participant,date,expName,psychopyVersion,frameRate,ver,
0,exp1.png,exp2.png,,0,0,0,0,0,0,0,0,,,,,,,,,,,,,,,,,,,,,,,,,False,0,1,False,exp1.png,exp2.png,trial_right_image,-1,exp2.png,1,exp1.png,exp2.png,0,4,reversed,incorrect,0.9393364367710226,0,valid_lose,6.83007839997299,0,,,,,,,,,,,,,,,,sub_213,2022-11-09_10h37.10.160,Reversal,2022.1.1,59.922436400666065,1,
1,exp3.png,exp4.png,,0,0,0,0,0,1,1,1,,,,,,,,,,,,,,,,,,,,,,,,,False,1,2,False,exp3.png,exp4.png,trial_left_image,1,exp3.png,1,exp3.png,exp4.png,1,1,non-reversed,correct,0.017715379691493616,0,invalid_lose,23.996211700025015,0,,,,,,,,,,,,,,,,sub_213,2022-11-09_10h37.10.160,Reversal,2022.1.1,59.922436400666065,1,
2,exp1.png,exp2.png,,0,0,0,0,0,2,2,2,,,,,,,,,,,,,,,,,,,,,,,,,False,2,3,True,exp2.png,exp1.png,trial_left_image,1,exp2.png,1,exp1.png,exp2.png,0,4,reversed,incorrect,0.6167129143026624,0,valid_lose,37.5114828000078,0,,,,,,,,,,,,,,,,sub_213,2022-11-09_10h37.10.160,Reversal,2022.1.1,59.922436400666065,1,
3,exp3.png,exp4.png,,0,0,0,0,0,3,3,3,,,,,,,,,,,,,,,,,,,,,,,,,False,3,4,True,exp4.png,exp3.png,trial_right_image,-1,exp3.png,1,exp3.png,exp4.png,1,1,non-reversed,correct,0.7400175606867746,1,valid_win,42.91133560001617,1,,,,,,,,,,,,,,,,sub_213,2022-11-09_10h37.10.160,Reversal,2022.1.1,59.922436400666065,1,
4,exp1.png,exp2.png,,0,0,0,0,0,4,4,4,,,,,,,,,,,,,,,,,,,,,,,,,False,4,5,True,exp2.png,exp1.png,trial_right_image,-1,exp1.png,1,exp1.png,exp2.png,1,3,reversed,correct,0.3011712930111876,1,valid_win,51.35805639997125,2,,,,,,,,,,,,,,,,sub_213,2022-11-09_10h37.10.160,Reversal,2022.1.1,59.922436400666065,1,
5,exp3.png,exp4.png,,0,0,0,0,0,5,5,5,,,,,,,,,,,,,,,,,,,,,,,,,False,5,6,False,exp3.png,exp4.png,trial_right_image,-1,exp4.png,1,exp3.png,exp4.png,0,2,non-reversed,incorrect,0.19081859257960432,1,invalid_win,55.84101069997996,3,,,,,,,,,,,,,,,,sub_213,2022-11-09_10h37.10.160,Reversal,2022.1.1,59.922436400666065,1,
6,exp1.png,exp2.png,,0,0,0,0,0,6,6,6,,,,,,,,,,,,,,,,,,,,,,,,,False,6,7,False,exp1.png,exp2.png,trial_right_image,-1,exp2.png,1,exp1.png,exp2.png,0,4,reversed,incorrect,0.009896957476266066,1,invalid_win,60.057775199995376,4,,,,,,,,,,,,,,,,sub_213,2022-11-09_10h37.10.160,Reversal,2022.1.1,59.922436400666065,1,
7,exp3.png,exp4.png,,0,0,0,0,0,7,7,7,,,,,,,,,,,,,,,,,,,,,,,,,False,7,8,True,exp4.png,exp3.png,trial_right_image,-1,exp3.png,1,exp3.png,exp4.png,1,1,non-reversed,correct,0.4853888070689365,1,valid_win,73.25563989998773,5,,,,,,,,,,,,,,,,sub_213,2022-11-09_10h37.10.160,Reversal,2022.1.1,59.922436400666065,1,
8,exp1.png,exp2.png,,0,0,0,0,0,8,8,8,,,,,,,,,,,,,,,,,,,,,,,,,False,8,9,False,exp1.png,exp2.png,trial_right_image,-1,exp2.png,1,exp1.png,exp2.png,0,4,reversed,incorrect,0.2627416159813649,0,valid_lose,77.40733790001832,5,,,,,,,,,,,,,,,,sub_213,2022-11-09_10h37.10.160,Reversal,2022.1.1,59.922436400666065,1,
9,exp3.png,exp4.png,,0,0,0,0,0,9,9,9,,,,,,,,,,,,,,,,,,,,,,,,,False,9,10,False,exp3.png,exp4.png,trial_left_image,1,exp3.png,1,exp3.png,exp4.png,1,1,non-reversed,correct,0.16439735625477758,0,invalid_lose,85.00423939997563,5,,,,,,,,,,,,,,,,sub_213,2022-11-09_10h37.10.160,Reversal,2022.1.1,59.922436400666065,1,
10,exp1.png,exp2.png,,0,0,0,0,0,10,10,10,,,,,,,,,,,,,,,,,,,,,,,,,False,10,11,True,exp2.png,exp1.png,trial_right_image,-1,exp1.png,1,exp1.png,exp2.png,1,3,reversed,correct,0.9687516793439418,1,valid_win,89.53639640001347,6,,,,,,,,,,,,,,,,sub_213,2022-11-09_10h37.10.160,Reversal,2022.1.1,59.922436400666065,1,
11,exp3.png,exp4.png,,0,0,0,0,0,11,11,11,,,,,,,,,,,,,,,,,,,,,,,,,False,11,12,True,exp4.png,exp3.png,trial_right_image,-1,exp3.png,1,exp3.png,exp4.png,1,1,non-reversed,correct,0.2377947371493706,0,invalid_lose,96.43469869997352,6,,,,,,,,,,,,,,,,sub_213,2022-11-09_10h37.10.160,Reversal,2022.1.1,59.922436400666065,1,
12,exp1.png,exp2.png,,0,0,0,0,0,12,12,12,,,,,,,,,,,,,,,,,,,,,,,,,False,12,13,True,exp2.png,exp1.png,trial_right_image,-1,exp1.png,1,exp1.png,exp2.png,1,3,reversed,correct,0.8462916821329851,1,valid_win,101.26867670001229,7,,,,,,,,,,,,,,,,sub_213,2022-11-09_10h37.10.160,Reversal,2022.1.1,59.922436400666065,1,
13,exp3.png,exp4.png,,0,0,0,0,0,13,13,13,,,,,,,,,,,,,,,,,,,,,,,,,False,13,14,True,exp4.png,exp3.png,trial_left_image,1,exp4.png,1,exp3.png,exp4.png,0,2,non-reversed,incorrect,0.6589426234992981,0,valid_lose,107.1182594000129,7,,,,,,,,,,,,,,,,sub_213,2022-11-09_10h37.10.160,Reversal,2022.1.1,59.922436400666065,1,
14,exp1.png,exp2.png,,0,0,0,0,0,14,14,14,,,,,,,,,,,,,,,,,,,,,,,,,False,14,15,False,exp1.png,exp2.png,trial_right_image,-1,exp2.png,1,exp1.png,exp2.png,0,4,reversed,incorrect,0.767825660303352,0,valid_lose,111.26758049998898,7,,,,,,,,,,,,,,,,sub_213,2022-11-09_10h37.10.160,Reversal,2022.1.1,59.922436400666065,1,
15,exp3.png,exp4.png,,0,0,0,0,0,15,15,15,,,,,,,,,,,,,,,,,,,,,,,,,False,15,16,True,exp4.png,exp3.png,trial_left_image,1,exp4.png,1,exp3.png,exp4.png,0,2,non-reversed,incorrect,0.6795812137566998,0,valid_lose,120.08254550001584,7,,,,,,,,,,,,,,,,sub_213,2022-11-09_10h37.10.160,Reversal,2022.1.1,59.922436400666065,1,
16,exp1.png,exp2.png,,0,0,0,0,0,16,16,16,,,,,,,,,,,,,,,,,,,,,,,,,False,16,17,False,exp1.png,exp2.png,trial_right_image,-1,exp2.png,1,exp1.png,exp2.png,0,4,reversed,incorrect,0.15460548914212513,1,invalid_win,125.76813560002483,8,,,,,,,,,,,,,,,,sub_213,2022-11-09_10h37.10.160,Reversal,2022.1.1,59.922436400666065,1,
17,exp3.png,exp4.png,,0,0,0,0,0,17,17,17,,,,,,,,,,,,,,,,,,,,,,,,,False,17,18,False,exp3.png,exp4.png,trial_right_image,-1,exp4.png,1,exp3.png,exp4.png,0,2,non-reversed,incorrect,0.3631554809402552,0,valid_lose,133.71457269997336,8,,,,,,,,,,,,,,,,sub_213,2022-11-09_10h37.10.160,Reversal,2022.1.1,59.922436400666065,1,
18,exp1.png,exp2.png,,0,0,0,0,0,18,18,18,,,,,,,,,,,,,,,,,,,,,,,,,False,18,19,False,exp1.png,exp2.png,trial_left_image,1,exp1.png,1,exp1.png,exp2.png,1,3,reversed,correct,0.5343531216545383,1,valid_win,138.56474010000238,9,,,,,,,,,,,,,,,,sub_213,2022-11-09_10h37.10.160,Reversal,2022.1.1,59.922436400666065,1,
19,exp3.png,exp4.png,,0,0,0,0,0,19,19,19,,,,,,,,,,,,,,,,,,,,,,,,,False,19,20,True,exp4.png,exp3.png,trial_right_image,-1,exp3.png,1,exp3.png,exp4.png,1,1,non-reversed,correct,0.7035029174978705,1,valid_win,144.66331470001023,10,,,,,,,,,,,,,,,,sub_213,2022-11-09_10h37.10.160,Reversal,2022.1.1,59.922436400666065,1,
20,exp1.png,exp2.png,,0,0,0,0,0,20,20,20,,,,,,,,,,,,,,,,,,,,,,,,,True,,,,,,,,,,,,,,,,,,,,,,,,,,,,,,,,,,,,sub_213,2022-11-09_10h37.10.160,Reversal,2022.1.1,59.922436400666065,1,
,,,exp1.png,0,0,0,0,,,,,0,0,0,0,0,0,0,0,,,,,,,,,,,,,,,,,,,,,,,,,,,,,,,,,,,,,,31.0,31.0,24.079092400032096,"[(31.0, 24.079092400032096)]",290.22893209999893,None,,,,,,,,,,sub_213,2022-11-09_10h37.10.160,Reversal,2022.1.1,59.922436400666065,1,
,,,exp2.png,0,0,0,0,,,,,0,0,0,0,0,1,1,1,,,,,,,,,,,,,,,,,,,,,,,,,,,,,,,,,,,,,,,31.0,13.81463859998621,"[(31.0, 13.81463859998621)]",316.52851309999824,None,31.0,,,,,,,,,sub_213,2022-11-09_10h37.10.160,Reversal,2022.1.1,59.922436400666065,1,
,,,exp3.png,0,0,0,0,,,,,0,0,0,0,0,2,2,2,,,,,,,,,,,,,,,,,,,,,,,,,,,,,,,,,,,,,,,30.0,9.933023100020364,"[(30.0, 9.933023100020364)]",332.77283579995856,None,,30.0,,,,,,,,sub_213,2022-11-09_10h37.10.160,Reversal,2022.1.1,59.922436400666065,1,
,,,exp4.png,0,0,0,0,,,,,0,0,0,0,0,3,3,3,,,,,,,,,,,,,,,,,,,,,,,,,,,,,,,,,,,,,,,57.0,7.008821600000374,"[(57.0, 7.008821600000374)]",345.68220109998947,None,,,57.0,,,,,,,sub_213,2022-11-09_10h37.10.160,Reversal,2022.1.1,59.922436400666065,1,
0,exp1.png,exp2.png,,1,0,1,0,0,0,0,0,,,,,,,,,,,,,,,,,,,,,,,,,False,20,21,False,exp1.png,exp2.png,trial_right_image,-1,exp2.png,1,exp1.png,exp2.png,0,4,reversed,incorrect,0.6905582145988958,0,valid_lose,218.86982969997916,10,,,,,,,,,,,,,,,,sub_213,2022-11-09_10h37.10.160,Reversal,2022.1.1,59.922436400666065,1,
1,exp3.png,exp4.png,,1,0,1,0,0,1,1,1,,,,,,,,,,,,,,,,,,,,,,,,,False,21,22,False,exp3.png,exp4.png,trial_right_image,-1,exp4.png,1,exp3.png,exp4.png,0,2,non-reversed,incorrect,0.3734343503366828,0,valid_lose,224.7195261999732,10,,,,,,,,,,,,,,,,sub_213,2022-11-09_10h37.10.160,Reversal,2022.1.1,59.922436400666065,1,
2,exp1.png,exp2.png,,1,0,1,0,0,2,2,2,,,,,,,,,,,,,,,,,,,,,,,,,False,22,23,True,exp2.png,exp1.png,trial_left_image,1,exp2.png,1,exp1.png,exp2.png,0,4,reversed,incorrect,0.9385657635521915,0,valid_lose,230.48475679999683,10,,,,,,,,,,,,,,,,sub_213,2022-11-09_10h37.10.160,Reversal,2022.1.1,59.922436400666065,1,
3,exp3.png,exp4.png,,1,0,1,0,0,3,3,3,,,,,,,,,,,,,,,,,,,,,,,,,False,23,24,False,exp3.png,exp4.png,trial_right_image,-1,exp4.png,1,exp3.png,exp4.png,0,2,non-reversed,incorrect,0.7016735270265224,0,valid_lose,234.51788310002303,10,,,,,,,,,,,,,,,,sub_213,2022-11-09_10h37.10.160,Reversal,2022.1.1,59.922436400666065,1,
4,exp1.png,exp2.png,,1,0,1,0,0,4,4,4,,,,,,,,,,,,,,,,,,,,,,,,,False,24,25,True,exp2.png,exp1.png,trial_left_image,1,exp2.png,1,exp1.png,exp2.png,0,4,reversed,incorrect,0.26331860278126984,0,valid_lose,238.66797760000918,10,,,,,,,,,,,,,,,,sub_213,2022-11-09_10h37.10.160,Reversal,2022.1.1,59.922436400666065,1,
5,exp3.png,exp4.png,,1,0,1,0,0,5,5,5,,,,,,,,,,,,,,,,,,,,,,,,,False,25,26,False,exp3.png,exp4.png,trial_right_image,-1,exp4.png,1,exp3.png,exp4.png,0,2,non-reversed,incorrect,0.259953218553553,0,valid_lose,242.73462970001856,10,,,,,,,,,,,,,,,,sub_213,2022-11-09_10h37.10.160,Reversal,2022.1.1,59.922436400666065,1,
6,exp1.png,exp2.png,,1,0,1,0,0,6,6,6,,,,,,,,,,,,,,,,,,,,,,,,,False,26,27,True,exp2.png,exp1.png,trial_right_image,-1,exp1.png,1,exp1.png,exp2.png,1,3,reversed,correct,0.9656021231860967,1,valid_win,246.78272870002547,11,,,,,,,,,,,,,,,,sub_213,2022-11-09_10h37.10.160,Reversal,2022.1.1,59.922436400666065,1,
7,exp3.png,exp4.png,,1,0,1,0,0,7,7,7,,,,,,,,,,,,,,,,,,,,,,,,,False,27,28,False,exp3.png,exp4.png,trial_right_image,-1,exp4.png,1,exp3.png,exp4.png,0,2,non-reversed,incorrect,0.28505009403942994,0,valid_lose,252.23206279997248,11,,,,,,,,,,,,,,,,sub_213,2022-11-09_10h37.10.160,Reversal,2022.1.1,59.922436400666065,1,
8,exp1.png,exp2.png,,1,0,1,0,0,8,8,8,,,,,,,,,,,,,,,,,,,,,,,,,False,28,29,True,exp2.png,exp1.png,trial_right_image,-1,exp1.png,1,exp1.png,exp2.png,1,3,reversed,correct,0.3829068741310855,1,valid_win,257.56713600002695,12,,,,,,,,,,,,,,,,sub_213,2022-11-09_10h37.10.160,Reversal,2022.1.1,59.922436400666065,1,
9,exp3.png,exp4.png,,1,0,1,0,0,9,9,9,,,,,,,,,,,,,,,,,,,,,,,,,False,29,30,True,exp4.png,exp3.png,trial_left_image,1,exp4.png,1,exp3.png,exp4.png,0,2,non-reversed,incorrect,0.7638730533646894,0,valid_lose,263.565592799976,12,,,,,,,,,,,,,,,,sub_213,2022-11-09_10h37.10.160,Reversal,2022.1.1,59.922436400666065,1,
10,exp1.png,exp2.png,,1,0,1,0,0,10,10,10,,,,,,,,,,,,,,,,,,,,,,,,,False,30,31,True,exp2.png,exp1.png,trial_right_image,-1,exp1.png,1,exp1.png,exp2.png,1,3,reversed,correct,0.27904482711480094,1,valid_win,267.5645607999759,13,,,,,,,,,,,,,,,,sub_213,2022-11-09_10h37.10.160,Reversal,2022.1.1,59.922436400666065,1,
11,exp3.png,exp4.png,,1,0,1,0,0,11,11,11,,,,,,,,,,,,,,,,,,,,,,,,,False,31,32,False,exp3.png,exp4.png,trial_right_image,-1,exp4.png,1,exp3.png,exp4.png,0,2,non-reversed,incorrect,0.9506554167882012,0,valid_lose,271.863848900015,13,,,,,,,,,,,,,,,,sub_213,2022-11-09_10h37.10.160,Reversal,2022.1.1,59.922436400666065,1,
12,exp1.png,exp2.png,,1,0,1,0,0,12,12,12,,,,,,,,,,,,,,,,,,,,,,,,,False,32,33,True,exp2.png,exp1.png,trial_right_image,-1,exp1.png,1,exp1.png,exp2.png,1,3,reversed,correct,0.3156435790496819,1,valid_win,275.9137832999695,14,,,,,,,,,,,,,,,,sub_213,2022-11-09_10h37.10.160,Reversal,2022.1.1,59.922436400666065,1,
13,exp3.png,exp4.png,,1,0,1,0,0,13,13,13,,,,,,,,,,,,,,,,,,,,,,,,,False,33,34,True,exp4.png,exp3.png,trial_left_image,1,exp4.png,1,exp3.png,exp4.png,0,2,non-reversed,incorrect,0.2591424442260234,0,valid_lose,280.06294460000936,14,,,,,,,,,,,,,,,,sub_213,2022-11-09_10h37.10.160,Reversal,2022.1.1,59.922436400666065,1,
14,exp1.png,exp2.png,,1,0,1,0,0,14,14,14,,,,,,,,,,,,,,,,,,,,,,,,,False,34,35,True,exp2.png,exp1.png,trial_right_image,-1,exp1.png,1,exp1.png,exp2.png,1,3,reversed,correct,0.9926407939666115,1,valid_win,284.19518739997875,15,,,,,,,,,,,,,,,,sub_213,2022-11-09_10h37.10.160,Reversal,2022.1.1,59.922436400666065,1,
15,exp3.png,exp4.png,,1,0,1,0,0,15,15,15,,,,,,,,,,,,,,,,,,,,,,,,,False,35,36,False,exp3.png,exp4.png,trial_right_image,-1,exp4.png,1,exp3.png,exp4.png,0,2,non-reversed,incorrect,0.6592937158304499,0,valid_lose,289.0779204000137,15,,,,,,,,,,,,,,,,sub_213,2022-11-09_10h37.10.160,Reversal,2022.1.1,59.922436400666065,1,
16,exp1.png,exp2.png,,1,0,1,0,0,16,16,16,,,,,,,,,,,,,,,,,,,,,,,,,False,36,37,True,exp2.png,exp1.png,trial_left_image,1,exp2.png,1,exp1.png,exp2.png,0,4,reversed,incorrect,0.5954408144782071,0,valid_lose,293.1769372000126,15,,,,,,,,,,,,,,,,sub_213,2022-11-09_10h37.10.160,Reversal,2022.1.1,59.922436400666065,1,
17,exp3.png,exp4.png,,1,0,1,0,0,17,17,17,,,,,,,,,,,,,,,,,,,,,,,,,False,37,38,False,exp3.png,exp4.png,trial_right_image,-1,exp4.png,1,exp3.png,exp4.png,0,2,non-reversed,incorrect,0.5274194802471708,0,valid_lose,297.2435979999718,15,,,,,,,,,,,,,,,,sub_213,2022-11-09_10h37.10.160,Reversal,2022.1.1,59.922436400666065,1,
18,exp1.png,exp2.png,,1,0,1,0,0,18,18,18,,,,,,,,,,,,,,,,,,,,,,,,,False,38,39,False,exp1.png,exp2.png,trial_right_image,-1,exp2.png,1,exp1.png,exp2.png,0,4,reversed,incorrect,0.6434128977104874,0,valid_lose,302.4251862000092,15,,,,,,,,,,,,,,,,sub_213,2022-11-09_10h37.10.160,Reversal,2022.1.1,59.922436400666065,1,
19,exp3.png,exp4.png,,1,0,1,0,0,19,19,19,,,,,,,,,,,,,,,,,,,,,,,,,False,39,40,False,exp3.png,exp4.png,trial_right_image,-1,exp4.png,1,exp3.png,exp4.png,0,2,non-reversed,incorrect,0.663744095914643,0,valid_lose,306.7576254999731,15,,,,,,,,,,,,,,,,sub_213,2022-11-09_10h37.10.160,Reversal,2022.1.1,59.922436400666065,1,
20,exp1.png,exp2.png,,1,0,1,0,0,20,20,20,,,,,,,,,,,,,,,,,,,,,,,,,True,,,,,,,,,,,,,,,,,,,,,,,,,,,,,,,,,,,,sub_213,2022-11-09_10h37.10.160,Reversal,2022.1.1,59.922436400666065,1,
,,,exp1.png,1,0,1,0,,,,,0,0,0,0,0,0,0,0,,,,,,,,,,,,,,,,,,,,,,,,,,,,,,,,,,,,,,32.0,32.0,4.117874599993229,"[(32.0, 4.117874599993229)]",452.33178689994384,None,,,,,,,,,,sub_213,2022-11-09_10h37.10.160,Reversal,2022.1.1,59.922436400666065,1,
,,,exp2.png,1,0,1,0,,,,,0,0,0,0,0,1,1,1,,,,,,,,,,,,,,,,,,,,,,,,,,,,,,,,,,,,,,,21.0,4.715598899987526,"[(21.0, 4.715598899987526)]",457.6576861999929,None,21.0,,,,,,,,,sub_213,2022-11-09_10h37.10.160,Reversal,2022.1.1,59.922436400666065,1,
,,,exp3.png,1,0,1,0,,,,,0,0,0,0,0,2,2,2,,,,,,,,,,,,,,,,,,,,,,,,,,,,,,,,,,,,,,,35.0,4.992310300003737,"[(35.0, 4.992310300003737)]",463.74584939994384,None,,35.0,,,,,,,,sub_213,2022-11-09_10h37.10.160,Reversal,2022.1.1,59.922436400666065,1,
,,,exp4.png,1,0,1,0,,,,,0,0,0,0,0,3,3,3,,,,,,,,,,,,,,,,,,,,,,,,,,,,,,,,,,,,,,,59.0,4.399871000030544,"[(59.0, 4.399871000030544)]",469.85883149999427,None,,,59.0,,,,,,,sub_213,2022-11-09_10h37.10.160,Reversal,2022.1.1,59.922436400666065,1,
0,exp1.png,exp2.png,,2,0,2,0,0,0,0,0,,,,,,,,,,,,,,,,,,,,,,,,,False,40,41,True,exp2.png,exp1.png,trial_right_image,-1,exp1.png,1,exp1.png,exp2.png,1,3,reversed,correct,0.01228394910855235,0,invalid_lose,336.4211932999897,15,,,,,,,,,,,,,,,,sub_213,2022-11-09_10h37.10.160,Reversal,2022.1.1,59.922436400666065,1,
1,exp3.png,exp4.png,,2,0,2,0,0,1,1,1,,,,,,,,,,,,,,,,,,,,,,,,,False,41,42,True,exp4.png,exp3.png,trial_right_image,-1,exp3.png,1,exp3.png,exp4.png,1,1,non-reversed,correct,0.21948145877078584,0,invalid_lose,341.20384620002005,15,,,,,,,,,,,,,,,,sub_213,2022-11-09_10h37.10.160,Reversal,2022.1.1,59.922436400666065,1,
2,exp1.png,exp2.png,,2,0,2,0,0,2,2,2,,,,,,,,,,,,,,,,,,,,,,,,,False,42,43,True,exp2.png,exp1.png,trial_left_image,1,exp2.png,1,exp1.png,exp2.png,0,4,reversed,incorrect,0.33519173306563166,0,valid_lose,345.3044626999763,15,,,,,,,,,,,,,,,,sub_213,2022-11-09_10h37.10.160,Reversal,2022.1.1,59.922436400666065,1,
3,exp3.png,exp4.png,,2,0,2,0,0,3,3,3,,,,,,,,,,,,,,,,,,,,,,,,,False,43,44,True,exp4.png,exp3.png,trial_right_image,-1,exp3.png,1,exp3.png,exp4.png,1,1,non-reversed,correct,0.1824027768872053,0,invalid_lose,349.35331809998024,15,,,,,,,,,,,,,,,,sub_213,2022-11-09_10h37.10.160,Reversal,2022.1.1,59.922436400666065,1,
4,exp1.png,exp2.png,,2,0,2,0,0,4,4,4,,,,,,,,,,,,,,,,,,,,,,,,,False,44,45,True,exp2.png,exp1.png,trial_right_image,-1,exp1.png,1,exp1.png,exp2.png,1,3,reversed,correct,0.6320589889797659,1,valid_win,353.4190697000013,16,,,,,,,,,,,,,,,,sub_213,2022-11-09_10h37.10.160,Reversal,2022.1.1,59.922436400666065,1,
5,exp3.png,exp4.png,,2,0,2,0,0,5,5,5,,,,,,,,,,,,,,,,,,,,,,,,,False,45,46,False,exp3.png,exp4.png,trial_right_image,-1,exp4.png,1,exp3.png,exp4.png,0,2,non-reversed,incorrect,0.7338056573893049,0,valid_lose,357.50383499998134,16,,,,,,,,,,,,,,,,sub_213,2022-11-09_10h37.10.160,Reversal,2022.1.1,59.922436400666065,1,
6,exp1.png,exp2.png,,2,0,2,0,0,6,6,6,,,,,,,,,,,,,,,,,,,,,,,,,False,46,47,False,exp1.png,exp2.png,trial_left_image,1,exp1.png,1,exp1.png,exp2.png,1,3,reversed,correct,0.384023851772457,1,valid_win,361.6689386999933,17,,,,,,,,,,,,,,,,sub_213,2022-11-09_10h37.10.160,Reversal,2022.1.1,59.922436400666065,1,
7,exp3.png,exp4.png,,2,0,2,0,0,7,7,7,,,,,,,,,,,,,,,,,,,,,,,,,False,47,48,True,exp4.png,exp3.png,trial_left_image,1,exp4.png,1,exp3.png,exp4.png,0,2,non-reversed,incorrect,0.31558261540590926,0,valid_lose,365.8021721999976,17,,,,,,,,,,,,,,,,sub_213,2022-11-09_10h37.10.160,Reversal,2022.1.1,59.922436400666065,1,
8,exp1.png,exp2.png,,2,0,2,0,0,8,8,8,,,,,,,,,,,,,,,,,,,,,,,,,False,48,49,True,exp2.png,exp1.png,trial_left_image,1,exp2.png,1,exp1.png,exp2.png,0,4,reversed,incorrect,0.35758734438804207,0,valid_lose,369.85115329996916,17,,,,,,,,,,,,,,,,sub_213,2022-11-09_10h37.10.160,Reversal,2022.1.1,59.922436400666065,1,
9,exp3.png,exp4.png,,2,0,2,0,0,9,9,9,,,,,,,,,,,,,,,,,,,,,,,,,False,49,50,True,exp4.png,exp3.png,trial_right_image,-1,exp3.png,1,exp3.png,exp4.png,1,1,non-reversed,correct,0.05021683594908166,0,invalid_lose,374.0501653000247,17,,,,,,,,,,,,,,,,sub_213,2022-11-09_10h37.10.160,Reversal,2022.1.1,59.922436400666065,1,
10,exp1.png,exp2.png,,2,0,2,0,0,10,10,10,,,,,,,,,,,,,,,,,,,,,,,,,False,50,51,True,exp2.png,exp1.png,trial_right_image,-1,exp1.png,1,exp1.png,exp2.png,1,3,reversed,correct,0.12740643057716106,0,invalid_lose,378.06567189999623,17,,,,,,,,,,,,,,,,sub_213,2022-11-09_10h37.10.160,Reversal,2022.1.1,59.922436400666065,1,
11,exp3.png,exp4.png,,2,0,2,0,0,11,11,11,,,,,,,,,,,,,,,,,,,,,,,,,False,51,52,False,exp3.png,exp4.png,trial_right_image,-1,exp4.png,1,exp3.png,exp4.png,0,2,non-reversed,incorrect,0.8085322172006628,0,valid_lose,383.18169509997824,17,,,,,,,,,,,,,,,,sub_213,2022-11-09_10h37.10.160,Reversal,2022.1.1,59.922436400666065,1,
12,exp1.png,exp2.png,,2,0,2,0,0,12,12,12,,,,,,,,,,,,,,,,,,,,,,,,,False,52,53,False,exp1.png,exp2.png,trial_right_image,-1,exp2.png,1,exp1.png,exp2.png,0,4,reversed,incorrect,0.1907610120544312,1,invalid_win,387.78142140002456,18,,,,,,,,,,,,,,,,sub_213,2022-11-09_10h37.10.160,Reversal,2022.1.1,59.922436400666065,1,
13,exp3.png,exp4.png,,2,0,2,0,0,13,13,13,,,,,,,,,,,,,,,,,,,,,,,,,False,53,54,False,exp3.png,exp4.png,trial_right_image,-1,exp4.png,1,exp3.png,exp4.png,0,2,non-reversed,incorrect,0.7917027751437674,0,valid_lose,392.09773739997763,18,,,,,,,,,,,,,,,,sub_213,2022-11-09_10h37.10.160,Reversal,2022.1.1,59.922436400666065,1,
14,exp1.png,exp2.png,,2,0,2,0,0,14,14,14,,,,,,,,,,,,,,,,,,,,,,,,,False,54,55,False,exp1.png,exp2.png,trial_right_image,-1,exp2.png,1,exp1.png,exp2.png,0,4,reversed,incorrect,0.0643622910501841,1,invalid_win,396.52980670001125,19,,,,,,,,,,,,,,,,sub_213,2022-11-09_10h37.10.160,Reversal,2022.1.1,59.922436400666065,1,
15,exp3.png,exp4.png,,2,0,2,0,0,15,15,15,,,,,,,,,,,,,,,,,,,,,,,,,False,55,56,False,exp3.png,exp4.png,trial_right_image,-1,exp4.png,1,exp3.png,exp4.png,0,2,non-reversed,incorrect,0.4357948082513198,0,valid_lose,400.7644446999766,19,,,,,,,,,,,,,,,,sub_213,2022-11-09_10h37.10.160,Reversal,2022.1.1,59.922436400666065,1,
16,exp1.png,exp2.png,,2,0,2,0,0,16,16,16,,,,,,,,,,,,,,,,,,,,,,,,,False,56,57,False,exp1.png,exp2.png,trial_left_image,1,exp1.png,1,exp1.png,exp2.png,1,3,reversed,correct,0.9733610849386729,1,valid_win,405.4293517000042,20,,,,,,,,,,,,,,,,sub_213,2022-11-09_10h37.10.160,Reversal,2022.1.1,59.922436400666065,1,
17,exp3.png,exp4.png,,2,0,2,0,0,17,17,17,,,,,,,,,,,,,,,,,,,,,,,,,False,57,58,False,exp3.png,exp4.png,trial_left_image,1,exp3.png,1,exp3.png,exp4.png,1,1,non-reversed,correct,0.10077915142708282,0,invalid_lose,409.51244179997593,20,,,,,,,,,,,,,,,,sub_213,2022-11-09_10h37.10.160,Reversal,2022.1.1,59.922436400666065,1,
18,exp1.png,exp2.png,,2,0,2,0,0,18,18,18,,,,,,,,,,,,,,,,,,,,,,,,,False,58,59,False,exp1.png,exp2.png,trial_right_image,-1,exp2.png,1,exp1.png,exp2.png,0,4,reversed,incorrect,0.503997332606425,0,valid_lose,413.6112771999906,20,,,,,,,,,,,,,,,,sub_213,2022-11-09_10h37.10.160,Reversal,2022.1.1,59.922436400666065,1,
19,exp3.png,exp4.png,,2,0,2,0,0,19,19,19,,,,,,,,,,,,,,,,,,,,,,,,,False,59,60,True,exp4.png,exp3.png,trial_right_image,-1,exp3.png,1,exp3.png,exp4.png,1,1,non-reversed,correct,0.11047376738191916,0,invalid_lose,417.72801489999983,20,,,,,,,,,,,,,,,,sub_213,2022-11-09_10h37.10.160,Reversal,2022.1.1,59.922436400666065,1,
20,exp1.png,exp2.png,,2,0,2,0,0,20,20,20,,,,,,,,,,,,,,,,,,,,,,,,,True,,,,,,,,,,,,,,,,,,,,,,,,,,,,,,,,,,,,sub_213,2022-11-09_10h37.10.160,Reversal,2022.1.1,59.922436400666065,1,
,,,exp1.png,2,0,2,0,,,,,0,0,0,0,0,0,0,0,,,,,,,,,,,,,,,,,,,,,,,,,,,,,,,,,,,,,,18.0,18.0,3.5717431000084616,"[(18.0, 3.5717431000084616)]",563.3116760999546,None,,,,,,,,,,sub_213,2022-11-09_10h37.10.160,Reversal,2022.1.1,59.922436400666065,1,
,,,exp2.png,2,0,2,0,,,,,0,0,0,0,0,1,1,1,,,,,,,,,,,,,,,,,,,,,,,,,,,,,,,,,,,,,,,26.0,3.58821529999841,"[(26.0, 3.58821529999841)]",568.9362260999624,None,26.0,,,,,,,,,sub_213,2022-11-09_10h37.10.160,Reversal,2022.1.1,59.922436400666065,1,
,,,exp3.png,2,0,2,0,,,,,0,0,0,0,0,2,2,2,,,,,,,,,,,,,,,,,,,,,,,,,,,,,,,,,,,,,,,23.0,2.9004085999913514,"[(29.0, 2.6327184999827296), (23.0, 2.9004085999913514)]",573.9586524999468,None,,23.0,,,,,,,,sub_213,2022-11-09_10h37.10.160,Reversal,2022.1.1,59.922436400666065,1,
,,,exp4.png,2,0,2,0,,,,,0,0,0,0,0,3,3,3,,,,,,,,,,,,,,,,,,,,,,,,,,,,,,,,,,,,,,,26.0,3.256244999996852,"[(26.0, 3.256244999996852)]",578.3008874999941,None,,,26.0,,,,,,,sub_213,2022-11-09_10h37.10.160,Reversal,2022.1.1,59.922436400666065,1,
0,exp1.png,exp2.png,,3,0,3,0,0,0,0,0,,,,,,,,,,,,,,,,,,,,,,,,,False,60,61,True,exp2.png,exp1.png,trial_right_image,-1,exp1.png,1,exp1.png,exp2.png,1,3,reversed,correct,0.564026707746486,1,valid_win,442.92478629999096,21,,,,,,,,,,,,,,,,sub_213,2022-11-09_10h37.10.160,Reversal,2022.1.1,59.922436400666065,1,
1,exp3.png,exp4.png,,3,0,3,0,0,1,1,1,,,,,,,,,,,,,,,,,,,,,,,,,False,61,62,True,exp4.png,exp3.png,trial_right_image,-1,exp3.png,1,exp3.png,exp4.png,1,1,non-reversed,correct,0.8399797624395465,1,valid_win,447.40704620000906,22,,,,,,,,,,,,,,,,sub_213,2022-11-09_10h37.10.160,Reversal,2022.1.1,59.922436400666065,1,
2,exp1.png,exp2.png,,3,0,3,0,0,2,2,2,,,,,,,,,,,,,,,,,,,,,,,,,False,62,63,False,exp1.png,exp2.png,trial_right_image,-1,exp2.png,1,exp1.png,exp2.png,0,4,reversed,incorrect,0.5200014006715168,0,valid_lose,451.48943219997454,22,,,,,,,,,,,,,,,,sub_213,2022-11-09_10h37.10.160,Reversal,2022.1.1,59.922436400666065,1,
3,exp3.png,exp4.png,,3,0,3,0,0,3,3,3,,,,,,,,,,,,,,,,,,,,,,,,,False,63,64,True,exp4.png,exp3.png,trial_right_image,-1,exp3.png,1,exp3.png,exp4.png,1,1,non-reversed,correct,0.5699474242211219,1,valid_win,455.97273350000614,23,,,,,,,,,,,,,,,,sub_213,2022-11-09_10h37.10.160,Reversal,2022.1.1,59.922436400666065,1,
4,exp1.png,exp2.png,,3,0,3,0,0,4,4,4,,,,,,,,,,,,,,,,,,,,,,,,,False,64,65,True,exp2.png,exp1.png,trial_right_image,-1,exp1.png,1,exp1.png,exp2.png,1,3,reversed,correct,0.4915379602915194,1,valid_win,460.32301860000007,24,,,,,,,,,,,,,,,,sub_213,2022-11-09_10h37.10.160,Reversal,2022.1.1,59.922436400666065,1,
5,exp3.png,exp4.png,,3,0,3,0,0,5,5,5,,,,,,,,,,,,,,,,,,,,,,,,,False,65,66,False,exp3.png,exp4.png,trial_right_image,-1,exp4.png,1,exp3.png,exp4.png,0,2,non-reversed,incorrect,0.9027862065725836,0,valid_lose,464.52409319998696,24,,,,,,,,,,,,,,,,sub_213,2022-11-09_10h37.10.160,Reversal,2022.1.1,59.922436400666065,1,
6,exp1.png,exp2.png,,3,0,3,0,0,6,6,6,,,,,,,,,,,,,,,,,,,,,,,,,False,66,67,True,exp2.png,exp1.png,trial_right_image,-1,exp1.png,1,exp1.png,exp2.png,1,3,reversed,correct,0.3381493089283232,1,valid_win,468.8211405000184,25,,,,,,,,,,,,,,,,sub_213,2022-11-09_10h37.10.160,Reversal,2022.1.1,59.922436400666065,1,
7,exp3.png,exp4.png,,3,0,3,0,0,7,7,7,,,,,,,,,,,,,,,,,,,,,,,,,False,67,68,False,exp3.png,exp4.png,trial_right_image,-1,exp4.png,1,exp3.png,exp4.png,0,2,non-reversed,incorrect,0.41796394958465277,0,valid_lose,473.02027390000876,25,,,,,,,,,,,,,,,,sub_213,2022-11-09_10h37.10.160,Reversal,2022.1.1,59.922436400666065,1,
8,exp1.png,exp2.png,,3,0,3,0,0,8,8,8,,,,,,,,,,,,,,,,,,,,,,,,,False,68,69,True,exp2.png,exp1.png,trial_right_image,-1,exp1.png,1,exp1.png,exp2.png,1,3,reversed,correct,0.20263758803969767,0,invalid_lose,477.2038869999815,25,,,,,,,,,,,,,,,,sub_213,2022-11-09_10h37.10.160,Reversal,2022.1.1,59.922436400666065,1,
9,exp3.png,exp4.png,,3,0,3,0,0,9,9,9,,,,,,,,,,,,,,,,,,,,,,,,,False,69,70,False,exp3.png,exp4.png,trial_right_image,-1,exp4.png,1,exp3.png,exp4.png,0,2,non-reversed,incorrect,0.3765695274223574,0,valid_lose,481.402620000008,25,,,,,,,,,,,,,,,,sub_213,2022-11-09_10h37.10.160,Reversal,2022.1.1,59.922436400666065,1,
10,exp1.png,exp2.png,,3,0,3,0,0,10,10,10,,,,,,,,,,,,,,,,,,,,,,,,,False,70,71,True,exp2.png,exp1.png,trial_left_image,1,exp2.png,1,exp1.png,exp2.png,0,4,reversed,incorrect,0.13224830990111558,1,invalid_win,485.6032790999743,26,,,,,,,,,,,,,,,,sub_213,2022-11-09_10h37.10.160,Reversal,2022.1.1,59.922436400666065,1,
11,exp3.png,exp4.png,,3,0,3,0,0,11,11,11,,,,,,,,,,,,,,,,,,,,,,,,,False,71,72,False,exp3.png,exp4.png,trial_left_image,1,exp3.png,1,exp3.png,exp4.png,1,1,non-reversed,correct,0.5844325709490225,1,valid_win,489.71847869997146,27,,,,,,,,,,,,,,,,sub_213,2022-11-09_10h37.10.160,Reversal,2022.1.1,59.922436400666065,1,
12,exp1.png,exp2.png,,3,0,3,0,0,12,12,12,,,,,,,,,,,,,,,,,,,,,,,,,False,72,73,False,exp1.png,exp2.png,trial_left_image,1,exp1.png,1,exp1.png,exp2.png,1,3,reversed,correct,0.16794619248480291,0,invalid_lose,494.1689025000087,27,,,,,,,,,,,,,,,,sub_213,2022-11-09_10h37.10.160,Reversal,2022.1.1,59.922436400666065,1,
13,exp3.png,exp4.png,,3,0,3,0,0,13,13,13,,,,,,,,,,,,,,,,,,,,,,,,,False,73,74,True,exp4.png,exp3.png,trial_left_image,1,exp4.png,1,exp3.png,exp4.png,0,2,non-reversed,incorrect,0.08933820055242392,1,invalid_win,498.36711749999085,28,,,,,,,,,,,,,,,,sub_213,2022-11-09_10h37.10.160,Reversal,2022.1.1,59.922436400666065,1,
14,exp1.png,exp2.png,,3,0,3,0,0,14,14,14,,,,,,,,,,,,,,,,,,,,,,,,,False,74,75,False,exp1.png,exp2.png,trial_left_image,1,exp1.png,1,exp1.png,exp2.png,1,3,reversed,correct,0.14353858868007396,0,invalid_lose,502.55117769999197,28,,,,,,,,,,,,,,,,sub_213,2022-11-09_10h37.10.160,Reversal,2022.1.1,59.922436400666065,1,
15,exp3.png,exp4.png,,3,0,3,0,0,15,15,15,,,,,,,,,,,,,,,,,,,,,,,,,False,75,76,False,exp3.png,exp4.png,trial_left_image,1,exp3.png,1,exp3.png,exp4.png,1,1,non-reversed,correct,0.6967902134549517,1,valid_win,506.93271259998437,29,,,,,,,,,,,,,,,,sub_213,2022-11-09_10h37.10.160,Reversal,2022.1.1,59.922436400666065,1,
16,exp1.png,exp2.png,,3,0,3,0,0,16,16,16,,,,,,,,,,,,,,,,,,,,,,,,,False,76,77,True,exp2.png,exp1.png,trial_left_image,1,exp2.png,1,exp1.png,exp2.png,0,4,reversed,incorrect,0.39730265083387784,0,valid_lose,513.0156500000157,29,,,,,,,,,,,,,,,,sub_213,2022-11-09_10h37.10.160,Reversal,2022.1.1,59.922436400666065,1,
17,exp3.png,exp4.png,,3,0,3,0,0,17,17,17,,,,,,,,,,,,,,,,,,,,,,,,,False,77,78,True,exp4.png,exp3.png,trial_left_image,1,exp4.png,1,exp3.png,exp4.png,0,2,non-reversed,incorrect,0.2145124434598672,1,invalid_win,518.364640099986,30,,,,,,,,,,,,,,,,sub_213,2022-11-09_10h37.10.160,Reversal,2022.1.1,59.922436400666065,1,
18,exp1.png,exp2.png,,3,0,3,0,0,18,18,18,,,,,,,,,,,,,,,,,,,,,,,,,False,78,79,False,exp1.png,exp2.png,trial_left_image,1,exp1.png,1,exp1.png,exp2.png,1,3,reversed,correct,0.6797738394637223,1,valid_win,523.2302139999811,31,,,,,,,,,,,,,,,,sub_213,2022-11-09_10h37.10.160,Reversal,2022.1.1,59.922436400666065,1,
19,exp3.png,exp4.png,,3,0,3,0,0,19,19,19,,,,,,,,,,,,,,,,,,,,,,,,,False,79,80,False,exp3.png,exp4.png,trial_left_image,1,exp3.png,1,exp3.png,exp4.png,1,1,non-reversed,correct,0.14155927737868357,0,invalid_lose,527.9969764999696,31,,,,,,,,,,,,,,,,sub_213,2022-11-09_10h37.10.160,Reversal,2022.1.1,59.922436400666065,1,
20,exp1.png,exp2.png,,3,0,3,0,0,20,20,20,,,,,,,,,,,,,,,,,,,,,,,,,True,,,,,,,,,,,,,,,,,,,,,,,,,,,,,,,,,,,,sub_213,2022-11-09_10h37.10.160,Reversal,2022.1.1,59.922436400666065,1,
,,,exp1.png,3,0,3,0,,,,,0,0,0,0,0,0,0,0,,,,,,,,,,,,,,,,,,,,,,,,,,,,,,,,,,,,,,66.0,66.0,4.043216499965638,"[(66.0, 4.043216499965638)]",673.5606806999422,None,,,,,,,,,,sub_213,2022-11-09_10h37.10.160,Reversal,2022.1.1,59.922436400666065,1,
,,,exp2.png,3,0,3,0,,,,,0,0,0,0,0,1,1,1,,,,,,,,,,,,,,,,,,,,,,,,,,,,,,,,,,,,,,,50.0,5.689279100042768,"[(50.0, 5.689279100042768)]",678.6045749999466,None,50.0,,,,,,,,,sub_213,2022-11-09_10h37.10.160,Reversal,2022.1.1,59.922436400666065,1,
,,,exp3.png,3,0,3,0,,,,,0,0,0,0,0,2,2,2,,,,,,,,,,,,,,,,,,,,,,,,,,,,,,,,,,,,,,,50.0,None,[],685.2682366999798,None,,,,,,,,,,sub_213,2022-11-09_10h37.10.160,Reversal,2022.1.1,59.922436400666065,1,
,,,exp4.png,3,0,3,0,,,,,0,0,0,0,0,3,3,3,,,,,,,,,,,,,,,,,,,,,,,,,,,,,,,,,,,,,,,50.0,None,[],687.0550776999444,None,,,,,,,,,,sub_213,2022-11-09_10h37.10.160,Reversal,2022.1.1,59.922436400666065,1,
0,exp1.png,exp2.png,,,,,,,,,,,,,,,,,,0,0,0,0,0,0,0,0,,,,,,,,,False,0,81,True,exp2.png,exp1.png,trial_right_image,-1,exp1.png,1,exp2.png,exp1.png,1,3,reversed,incorrect,0.388049619121556,0,valid_lose,548.0448788999929,31,,,,,,,,,,545.8477625999949,,,,,,sub_213,2022-11-09_10h37.10.160,Reversal,2022.1.1,59.922436400666065,1,
1,exp3.png,exp4.png,,,,,,,,,,,,,,,,,,0,0,0,0,0,1,1,1,,,,,,,,,False,1,82,False,exp3.png,exp4.png,trial_right_image,-1,exp4.png,1,exp3.png,exp4.png,0,2,non-reversed,incorrect,0.6637308696674586,0,valid_lose,552.2932860999717,31,,,,,,,,,,,,,,,,sub_213,2022-11-09_10h37.10.160,Reversal,2022.1.1,59.922436400666065,1,
2,exp1.png,exp2.png,,,,,,,,,,,,,,,,,,0,0,0,0,0,2,2,2,,,,,,,,,False,2,83,True,exp2.png,exp1.png,trial_left_image,1,exp2.png,1,exp2.png,exp1.png,0,4,reversed,correct,0.9143943486286998,1,valid_win,556.6432279999717,32,,,,,,,,,,,,,,,,sub_213,2022-11-09_10h37.10.160,Reversal,2022.1.1,59.922436400666065,1,
3,exp3.png,exp4.png,,,,,,,,,,,,,,,,,,0,0,0,0,0,3,3,3,,,,,,,,,False,3,84,True,exp4.png,exp3.png,trial_left_image,1,exp4.png,1,exp3.png,exp4.png,0,2,non-reversed,incorrect,0.7088052664722698,0,valid_lose,560.7428711000248,32,,,,,,,,,,,,,,,,sub_213,2022-11-09_10h37.10.160,Reversal,2022.1.1,59.922436400666065,1,
4,exp1.png,exp2.png,,,,,,,,,,,,,,,,,,0,0,0,0,0,4,4,4,,,,,,,,,False,4,85,False,exp1.png,exp2.png,trial_left_image,1,exp1.png,1,exp2.png,exp1.png,1,3,reversed,incorrect,0.11198063531063274,1,invalid_win,564.9581701999996,33,,,,,,,,,,,,,,,,sub_213,2022-11-09_10h37.10.160,Reversal,2022.1.1,59.922436400666065,1,
5,exp3.png,exp4.png,,,,,,,,,,,,,,,,,,0,0,0,0,0,5,5,5,,,,,,,,,False,5,86,True,exp4.png,exp3.png,trial_left_image,1,exp4.png,1,exp3.png,exp4.png,0,2,non-reversed,incorrect,0.21113783246470053,1,invalid_win,569.1583879999816,34,,,,,,,,,,,,,,,,sub_213,2022-11-09_10h37.10.160,Reversal,2022.1.1,59.922436400666065,1,
6,exp1.png,exp2.png,,,,,,,,,,,,,,,,,,0,0,0,0,0,6,6,6,,,,,,,,,False,6,87,True,exp2.png,exp1.png,trial_left_image,1,exp2.png,1,exp2.png,exp1.png,0,4,reversed,correct,0.3767286539166288,1,valid_win,575.2739434000105,35,,,,,,,,,,,,,,,,sub_213,2022-11-09_10h37.10.160,Reversal,2022.1.1,59.922436400666065,1,
7,exp3.png,exp4.png,,,,,,,,,,,,,,,,,,0,0,0,0,0,7,7,7,,,,,,,,,False,7,88,False,exp3.png,exp4.png,trial_left_image,1,exp3.png,1,exp3.png,exp4.png,1,1,non-reversed,correct,0.11583794267609604,0,invalid_lose,579.5899485999835,35,,,,,,,,,,,,,,,,sub_213,2022-11-09_10h37.10.160,Reversal,2022.1.1,59.922436400666065,1,
8,exp1.png,exp2.png,,,,,,,,,,,,,,,,,,0,0,0,0,0,8,8,8,,,,,,,,,False,8,89,True,exp2.png,exp1.png,trial_left_image,1,exp2.png,1,exp2.png,exp1.png,0,4,reversed,correct,0.9388216171173233,1,valid_win,583.6398237000103,36,,,,,,,,,,,,,,,,sub_213,2022-11-09_10h37.10.160,Reversal,2022.1.1,59.922436400666065,1,
9,exp3.png,exp4.png,,,,,,,,,,,,,,,,,,0,0,0,0,0,9,9,9,,,,,,,,,False,9,90,False,exp3.png,exp4.png,trial_left_image,1,exp3.png,1,exp3.png,exp4.png,1,1,non-reversed,correct,0.5614980055308667,1,valid_win,589.7574570999714,37,,,,,,,,,,,,,,,,sub_213,2022-11-09_10h37.10.160,Reversal,2022.1.1,59.922436400666065,1,
10,exp1.png,exp2.png,,,,,,,,,,,,,,,,,,0,0,0,0,0,10,10,10,,,,,,,,,False,10,91,False,exp1.png,exp2.png,trial_left_image,1,exp1.png,1,exp2.png,exp1.png,1,3,reversed,incorrect,0.2554845313741946,0,valid_lose,593.8217695999774,37,,,,,,,,,,,,,,,,sub_213,2022-11-09_10h37.10.160,Reversal,2022.1.1,59.922436400666065,1,
11,exp3.png,exp4.png,,,,,,,,,,,,,,,,,,0,0,0,0,0,11,11,11,,,,,,,,,False,11,92,True,exp4.png,exp3.png,trial_left_image,1,exp4.png,1,exp3.png,exp4.png,0,2,non-reversed,incorrect,0.3274910586408337,0,valid_lose,597.889815100003,37,,,,,,,,,,,,,,,,sub_213,2022-11-09_10h37.10.160,Reversal,2022.1.1,59.922436400666065,1,
12,exp1.png,exp2.png,,,,,,,,,,,,,,,,,,0,0,0,0,0,12,12,12,,,,,,,,,False,12,93,True,exp2.png,exp1.png,trial_left_image,1,exp2.png,1,exp2.png,exp1.png,0,4,reversed,correct,0.04795512764075616,0,invalid_lose,603.0205713000032,37,,,,,,,,,,,,,,,,sub_213,2022-11-09_10h37.10.160,Reversal,2022.1.1,59.922436400666065,1,
13,exp3.png,exp4.png,,,,,,,,,,,,,,,,,,0,0,0,0,0,13,13,13,,,,,,,,,False,13,94,False,exp3.png,exp4.png,trial_left_image,1,exp3.png,1,exp3.png,exp4.png,1,1,non-reversed,correct,0.14328586968980184,0,invalid_lose,608.2361144999741,37,,,,,,,,,,,,,,,,sub_213,2022-11-09_10h37.10.160,Reversal,2022.1.1,59.922436400666065,1,
14,exp1.png,exp2.png,,,,,,,,,,,,,,,,,,0,0,0,0,0,14,14,14,,,,,,,,,False,14,95,False,exp1.png,exp2.png,trial_right_image,-1,exp2.png,1,exp2.png,exp1.png,0,4,reversed,correct,0.1232760093248344,0,invalid_lose,611.8353351000114,37,,,,,,,,,,,,,,,,sub_213,2022-11-09_10h37.10.160,Reversal,2022.1.1,59.922436400666065,1,
15,exp3.png,exp4.png,,,,,,,,,,,,,,,,,,0,0,0,0,0,15,15,15,,,,,,,,,False,15,96,True,exp4.png,exp3.png,trial_left_image,1,exp4.png,1,exp3.png,exp4.png,0,2,non-reversed,incorrect,0.3056040535329725,0,valid_lose,615.9520298999851,37,,,,,,,,,,,,,,,,sub_213,2022-11-09_10h37.10.160,Reversal,2022.1.1,59.922436400666065,1,
16,exp1.png,exp2.png,,,,,,,,,,,,,,,,,,0,0,0,0,0,16,16,16,,,,,,,,,False,16,97,True,exp2.png,exp1.png,trial_right_image,-1,exp1.png,1,exp2.png,exp1.png,1,3,reversed,incorrect,0.582229968773672,0,valid_lose,620.035126200004,37,,,,,,,,,,,,,,,,sub_213,2022-11-09_10h37.10.160,Reversal,2022.1.1,59.922436400666065,1,
17,exp3.png,exp4.png,,,,,,,,,,,,,,,,,,0,0,0,0,0,17,17,17,,,,,,,,,False,17,98,False,exp3.png,exp4.png,trial_left_image,1,exp3.png,1,exp3.png,exp4.png,1,1,non-reversed,correct,0.12570867401356867,0,invalid_lose,624.234893899993,37,,,,,,,,,,,,,,,,sub_213,2022-11-09_10h37.10.160,Reversal,2022.1.1,59.922436400666065,1,
18,exp1.png,exp2.png,,,,,,,,,,,,,,,,,,0,0,0,0,0,18,18,18,,,,,,,,,False,18,99,False,exp1.png,exp2.png,trial_left_image,1,exp1.png,1,exp2.png,exp1.png,1,3,reversed,incorrect,0.08772520531409222,1,invalid_win,628.3839699000237,38,,,,,,,,,,,,,,,,sub_213,2022-11-09_10h37.10.160,Reversal,2022.1.1,59.922436400666065,1,
19,exp3.png,exp4.png,,,,,,,,,,,,,,,,,,0,0,0,0,0,19,19,19,,,,,,,,,False,19,100,False,exp3.png,exp4.png,trial_left_image,1,exp3.png,1,exp3.png,exp4.png,1,1,non-reversed,correct,0.34502540646380286,1,valid_win,632.5499402999994,39,,,,,,,,,,,,,,,,sub_213,2022-11-09_10h37.10.160,Reversal,2022.1.1,59.922436400666065,1,
20,exp1.png,exp2.png,,,,,,,,,,,,,,,,,,0,0,0,0,0,20,20,20,,,,,,,,,True,,,,,,,,,,,,,,,,,,,,,,,,,,,,,,,,,,,,sub_213,2022-11-09_10h37.10.160,Reversal,2022.1.1,59.922436400666065,1,
,,,exp1.png,,,,,,,,,,,,,,,,,0,0,0,0,,,,,0,0,0,0,0,0,0,0,,,,,,,,,,,,,,,,,,,,,,16.0,16.0,4.589621999999508,"[(16.0, 4.589621999999508)]",778.1143202999956,None,,,,,,,,,,sub_213,2022-11-09_10h37.10.160,Reversal,2022.1.1,59.922436400666065,1,
,,,exp2.png,,,,,,,,,,,,,,,,,0,0,0,0,,,,,0,0,0,0,0,1,1,1,,,,,,,,,,,,,,,,,,,,,,,14.0,4.423534800007474,"[(14.0, 4.423534800007474)]",783.8581932999659,None,14.0,,,,,,,,,sub_213,2022-11-09_10h37.10.160,Reversal,2022.1.1,59.922436400666065,1,
,,,exp3.png,,,,,,,,,,,,,,,,,0,0,0,0,,,,,0,0,0,0,0,2,2,2,,,,,,,,,,,,,,,,,,,,,,,18.0,2.476264299999457,"[(18.0, 2.476264299999457)]",789.3719478999847,None,,18.0,,,,,,,,sub_213,2022-11-09_10h37.10.160,Reversal,2022.1.1,59.922436400666065,1,
,,,exp4.png,,,,,,,,,,,,,,,,,0,0,0,0,,,,,0,0,0,0,0,3,3,3,,,,,,,,,,,,,,,,,,,,,,,19.0,4.245885399985127,"[(19.0, 4.245885399985127)]",792.8523550999817,None,,,19.0,,,,,,,sub_213,2022-11-09_10h37.10.160,Reversal,2022.1.1,59.922436400666065,1,
0,exp1.png,exp2.png,,,,,,,,,,,,,,,,,,1,0,1,0,0,0,0,0,,,,,,,,,False,20,101,False,exp1.png,exp2.png,trial_left_image,1,exp1.png,1,exp2.png,exp1.png,1,3,reversed,incorrect,0.8524936973220683,0,valid_lose,658.4974476000061,39,,,,,,,,,,,,,,,,sub_213,2022-11-09_10h37.10.160,Reversal,2022.1.1,59.922436400666065,1,
1,exp3.png,exp4.png,,,,,,,,,,,,,,,,,,1,0,1,0,0,1,1,1,,,,,,,,,False,21,102,True,exp4.png,exp3.png,trial_left_image,1,exp4.png,1,exp3.png,exp4.png,0,2,non-reversed,incorrect,0.7119147954232616,0,valid_lose,662.7621761999908,39,,,,,,,,,,,,,,,,sub_213,2022-11-09_10h37.10.160,Reversal,2022.1.1,59.922436400666065,1,
2,exp1.png,exp2.png,,,,,,,,,,,,,,,,,,1,0,1,0,0,2,2,2,,,,,,,,,False,22,103,False,exp1.png,exp2.png,trial_right_image,-1,exp2.png,1,exp2.png,exp1.png,0,4,reversed,correct,0.6317811192586288,1,valid_win,667.0285739999963,40,,,,,,,,,,,,,,,,sub_213,2022-11-09_10h37.10.160,Reversal,2022.1.1,59.922436400666065,1,
3,exp3.png,exp4.png,,,,,,,,,,,,,,,,,,1,0,1,0,0,3,3,3,,,,,,,,,False,23,104,False,exp3.png,exp4.png,trial_right_image,-1,exp4.png,1,exp3.png,exp4.png,0,2,non-reversed,incorrect,0.15763435886404487,1,invalid_win,671.2119142999873,41,,,,,,,,,,,,,,,,sub_213,2022-11-09_10h37.10.160,Reversal,2022.1.1,59.922436400666065,1,
4,exp1.png,exp2.png,,,,,,,,,,,,,,,,,,1,0,1,0,0,4,4,4,,,,,,,,,False,24,105,False,exp1.png,exp2.png,trial_right_image,-1,exp2.png,1,exp2.png,exp1.png,0,4,reversed,correct,0.3794687217577697,1,valid_win,675.2443827000097,42,,,,,,,,,,,,,,,,sub_213,2022-11-09_10h37.10.160,Reversal,2022.1.1,59.922436400666065,1,
5,exp3.png,exp4.png,,,,,,,,,,,,,,,,,,1,0,1,0,0,5,5,5,,,,,,,,,False,25,106,False,exp3.png,exp4.png,trial_right_image,-1,exp4.png,1,exp3.png,exp4.png,0,2,non-reversed,incorrect,0.0642550314436735,1,invalid_win,679.2771866000257,43,,,,,,,,,,,,,,,,sub_213,2022-11-09_10h37.10.160,Reversal,2022.1.1,59.922436400666065,1,
6,exp1.png,exp2.png,,,,,,,,,,,,,,,,,,1,0,1,0,0,6,6,6,,,,,,,,,False,26,107,False,exp1.png,exp2.png,trial_right_image,-1,exp2.png,1,exp2.png,exp1.png,0,4,reversed,correct,0.9709221556231507,1,valid_win,683.5437922999845,44,,,,,,,,,,,,,,,,sub_213,2022-11-09_10h37.10.160,Reversal,2022.1.1,59.922436400666065,1,
7,exp3.png,exp4.png,,,,,,,,,,,,,,,,,,1,0,1,0,0,7,7,7,,,,,,,,,False,27,108,True,exp4.png,exp3.png,trial_left_image,1,exp4.png,1,exp3.png,exp4.png,0,2,non-reversed,incorrect,0.6708580285454927,0,valid_lose,687.809617299994,44,,,,,,,,,,,,,,,,sub_213,2022-11-09_10h37.10.160,Reversal,2022.1.1,59.922436400666065,1,
8,exp1.png,exp2.png,,,,,,,,,,,,,,,,,,1,0,1,0,0,8,8,8,,,,,,,,,False,28,109,True,exp2.png,exp1.png,trial_right_image,-1,exp1.png,1,exp2.png,exp1.png,1,3,reversed,incorrect,0.8863671958118704,0,valid_lose,691.8773632000084,44,,,,,,,,,,,,,,,,sub_213,2022-11-09_10h37.10.160,Reversal,2022.1.1,59.922436400666065,1,
9,exp3.png,exp4.png,,,,,,,,,,,,,,,,,,1,0,1,0,0,9,9,9,,,,,,,,,False,29,110,False,exp3.png,exp4.png,trial_left_image,1,exp3.png,1,exp3.png,exp4.png,1,1,non-reversed,correct,0.6420837684526953,1,valid_win,696.2585060999845,45,,,,,,,,,,,,,,,,sub_213,2022-11-09_10h37.10.160,Reversal,2022.1.1,59.922436400666065,1,
10,exp1.png,exp2.png,,,,,,,,,,,,,,,,,,1,0,1,0,0,10,10,10,,,,,,,,,False,30,111,False,exp1.png,exp2.png,trial_left_image,1,exp1.png,1,exp2.png,exp1.png,1,3,reversed,incorrect,0.14727852283840892,1,invalid_win,700.424707499973,46,,,,,,,,,,,,,,,,sub_213,2022-11-09_10h37.10.160,Reversal,2022.1.1,59.922436400666065,1,
11,exp3.png,exp4.png,,,,,,,,,,,,,,,,,,1,0,1,0,0,11,11,11,,,,,,,,,False,31,112,True,exp4.png,exp3.png,trial_left_image,1,exp4.png,1,exp3.png,exp4.png,0,2,non-reversed,incorrect,0.7591295937204801,0,valid_lose,704.6744758000132,46,,,,,,,,,,,,,,,,sub_213,2022-11-09_10h37.10.160,Reversal,2022.1.1,59.922436400666065,1,
12,exp1.png,exp2.png,,,,,,,,,,,,,,,,,,1,0,1,0,0,12,12,12,,,,,,,,,False,32,113,True,exp2.png,exp1.png,trial_right_image,-1,exp1.png,1,exp2.png,exp1.png,1,3,reversed,incorrect,0.3296244463838873,0,valid_lose,708.7070361999795,46,,,,,,,,,,,,,,,,sub_213,2022-11-09_10h37.10.160,Reversal,2022.1.1,59.922436400666065,1,
13,exp3.png,exp4.png,,,,,,,,,,,,,,,,,,1,0,1,0,0,13,13,13,,,,,,,,,False,33,114,True,exp4.png,exp3.png,trial_left_image,1,exp4.png,1,exp3.png,exp4.png,0,2,non-reversed,incorrect,0.3225676851155471,0,valid_lose,713.7732054999797,46,,,,,,,,,,,,,,,,sub_213,2022-11-09_10h37.10.160,Reversal,2022.1.1,59.922436400666065,1,
14,exp1.png,exp2.png,,,,,,,,,,,,,,,,,,1,0,1,0,0,14,14,14,,,,,,,,,False,34,115,True,exp2.png,exp1.png,trial_right_image,-1,exp1.png,1,exp2.png,exp1.png,1,3,reversed,incorrect,0.3918316679595555,0,valid_lose,717.8232594999718,46,,,,,,,,,,,,,,,,sub_213,2022-11-09_10h37.10.160,Reversal,2022.1.1,59.922436400666065,1,
15,exp3.png,exp4.png,,,,,,,,,,,,,,,,,,1,0,1,0,0,15,15,15,,,,,,,,,False,35,116,False,exp3.png,exp4.png,trial_left_image,1,exp3.png,1,exp3.png,exp4.png,1,1,non-reversed,correct,0.9213449214895159,1,valid_win,722.0217898000265,47,,,,,,,,,,,,,,,,sub_213,2022-11-09_10h37.10.160,Reversal,2022.1.1,59.922436400666065,1,
16,exp1.png,exp2.png,,,,,,,,,,,,,,,,,,1,0,1,0,0,16,16,16,,,,,,,,,False,36,117,True,exp2.png,exp1.png,trial_left_image,1,exp2.png,1,exp2.png,exp1.png,0,4,reversed,correct,0.5393378928008571,1,valid_win,726.1551678000251,48,,,,,,,,,,,,,,,,sub_213,2022-11-09_10h37.10.160,Reversal,2022.1.1,59.922436400666065,1,
17,exp3.png,exp4.png,,,,,,,,,,,,,,,,,,1,0,1,0,0,17,17,17,,,,,,,,,False,37,118,True,exp4.png,exp3.png,trial_left_image,1,exp4.png,1,exp3.png,exp4.png,0,2,non-reversed,incorrect,0.6853072434564675,0,valid_lose,730.7207436999888,48,,,,,,,,,,,,,,,,sub_213,2022-11-09_10h37.10.160,Reversal,2022.1.1,59.922436400666065,1,
18,exp1.png,exp2.png,,,,,,,,,,,,,,,,,,1,0,1,0,0,18,18,18,,,,,,,,,False,38,119,False,exp1.png,exp2.png,trial_right_image,-1,exp2.png,1,exp2.png,exp1.png,0,4,reversed,correct,0.5809241918641391,1,valid_win,736.1373153000022,49,,,,,,,,,,,,,,,,sub_213,2022-11-09_10h37.10.160,Reversal,2022.1.1,59.922436400666065,1,
19,exp3.png,exp4.png,,,,,,,,,,,,,,,,,,1,0,1,0,0,19,19,19,,,,,,,,,False,39,120,True,exp4.png,exp3.png,trial_right_image,-1,exp3.png,1,exp3.png,exp4.png,1,1,non-reversed,correct,0.2858586090339006,1,valid_win,740.4032429999788,50,,,,,,,,,,,,,,,,sub_213,2022-11-09_10h37.10.160,Reversal,2022.1.1,59.922436400666065,1,
20,exp1.png,exp2.png,,,,,,,,,,,,,,,,,,1,0,1,0,0,20,20,20,,,,,,,,,True,,,,,,,,,,,,,,,,,,,,,,,,,,,,,,,,,,,,sub_213,2022-11-09_10h37.10.160,Reversal,2022.1.1,59.922436400666065,1,
,,,exp1.png,,,,,,,,,,,,,,,,,1,0,1,0,,,,,0,0,0,0,0,0,0,0,,,,,,,,,,,,,,,,,,,,,,44.0,44.0,2.565504400001373,"[(44.0, 2.565504400001373)]",885.9777458999888,None,,,,,,,,,,sub_213,2022-11-09_10h37.10.160,Reversal,2022.1.1,59.922436400666065,1,
,,,exp2.png,,,,,,,,,,,,,,,,,1,0,1,0,,,,,0,0,0,0,0,1,1,1,,,,,,,,,,,,,,,,,,,,,,,41.0,2.6233701999881305,"[(41.0, 2.6233701999881305)]",889.5601836999995,None,41.0,,,,,,,,,sub_213,2022-11-09_10h37.10.160,Reversal,2022.1.1,59.922436400666065,1,
,,,exp3.png,,,,,,,,,,,,,,,,,1,0,1,0,,,,,0,0,0,0,0,2,2,2,,,,,,,,,,,,,,,,,,,,,,,43.0,3.8250594999990426,"[(43.0, 3.8250594999990426)]",893.2420970999519,None,,43.0,,,,,,,,sub_213,2022-11-09_10h37.10.160,Reversal,2022.1.1,59.922436400666065,1,
,,,exp4.png,,,,,,,,,,,,,,,,,1,0,1,0,,,,,0,0,0,0,0,3,3,3,,,,,,,,,,,,,,,,,,,,,,,40.0,2.132397099980153,"[(40.0, 2.132397099980153)]",898.217837299977,None,,,40.0,,,,,,,sub_213,2022-11-09_10h37.10.160,Reversal,2022.1.1,59.922436400666065,1,
0,exp1.png,exp2.png,,,,,,,,,,,,,,,,,,2,0,2,0,0,0,0,0,,,,,,,,,False,40,121,True,exp2.png,exp1.png,trial_right_image,-1,exp1.png,1,exp2.png,exp1.png,1,3,reversed,incorrect,0.3931216058404683,0,valid_lose,760.5832858000067,50,,,,,,,,,,,,,,,,sub_213,2022-11-09_10h37.10.160,Reversal,2022.1.1,59.922436400666065,1,
1,exp3.png,exp4.png,,,,,,,,,,,,,,,,,,2,0,2,0,0,1,1,1,,,,,,,,,False,41,122,True,exp4.png,exp3.png,trial_right_image,-1,exp3.png,1,exp3.png,exp4.png,1,1,non-reversed,correct,0.19320795912191358,0,invalid_lose,764.6999720999738,50,,,,,,,,,,,,,,,,sub_213,2022-11-09_10h37.10.160,Reversal,2022.1.1,59.922436400666065,1,
2,exp1.png,exp2.png,,,,,,,,,,,,,,,,,,2,0,2,0,0,2,2,2,,,,,,,,,False,42,123,True,exp2.png,exp1.png,trial_left_image,1,exp2.png,1,exp2.png,exp1.png,0,4,reversed,correct,0.43443867084392507,1,valid_win,769.1842379000154,51,,,,,,,,,,,,,,,,sub_213,2022-11-09_10h37.10.160,Reversal,2022.1.1,59.922436400666065,1,
3,exp3.png,exp4.png,,,,,,,,,,,,,,,,,,2,0,2,0,0,3,3,3,,,,,,,,,False,43,124,False,exp3.png,exp4.png,trial_left_image,1,exp3.png,1,exp3.png,exp4.png,1,1,non-reversed,correct,0.021848365957485072,0,invalid_lose,773.2651020999765,51,,,,,,,,,,,,,,,,sub_213,2022-11-09_10h37.10.160,Reversal,2022.1.1,59.922436400666065,1,
4,exp1.png,exp2.png,,,,,,,,,,,,,,,,,,2,0,2,0,0,4,4,4,,,,,,,,,False,44,125,False,exp1.png,exp2.png,trial_left_image,1,exp1.png,1,exp2.png,exp1.png,1,3,reversed,incorrect,0.138439878038771,1,invalid_win,777.6819040999981,52,,,,,,,,,,,,,,,,sub_213,2022-11-09_10h37.10.160,Reversal,2022.1.1,59.922436400666065,1,
5,exp3.png,exp4.png,,,,,,,,,,,,,,,,,,2,0,2,0,0,5,5,5,,,,,,,,,False,45,126,True,exp4.png,exp3.png,trial_left_image,1,exp4.png,1,exp3.png,exp4.png,0,2,non-reversed,incorrect,0.5945661983730198,0,valid_lose,781.9646397000179,52,,,,,,,,,,,,,,,,sub_213,2022-11-09_10h37.10.160,Reversal,2022.1.1,59.922436400666065,1,
6,exp1.png,exp2.png,,,,,,,,,,,,,,,,,,2,0,2,0,0,6,6,6,,,,,,,,,False,46,127,False,exp1.png,exp2.png,trial_right_image,-1,exp2.png,1,exp2.png,exp1.png,0,4,reversed,correct,0.2033728616888517,0,invalid_lose,786.6461161000188,52,,,,,,,,,,,,,,,,sub_213,2022-11-09_10h37.10.160,Reversal,2022.1.1,59.922436400666065,1,
7,exp3.png,exp4.png,,,,,,,,,,,,,,,,,,2,0,2,0,0,7,7,7,,,,,,,,,False,47,128,False,exp3.png,exp4.png,trial_left_image,1,exp3.png,1,exp3.png,exp4.png,1,1,non-reversed,correct,0.46340013196136953,1,valid_win,791.0139015999739,53,,,,,,,,,,,,,,,,sub_213,2022-11-09_10h37.10.160,Reversal,2022.1.1,59.922436400666065,1,
8,exp1.png,exp2.png,,,,,,,,,,,,,,,,,,2,0,2,0,0,8,8,8,,,,,,,,,False,48,129,False,exp1.png,exp2.png,trial_left_image,1,exp1.png,1,exp2.png,exp1.png,1,3,reversed,incorrect,0.9065938283394928,0,valid_lose,795.2455819000024,53,,,,,,,,,,,,,,,,sub_213,2022-11-09_10h37.10.160,Reversal,2022.1.1,59.922436400666065,1,
9,exp3.png,exp4.png,,,,,,,,,,,,,,,,,,2,0,2,0,0,9,9,9,,,,,,,,,False,49,130,True,exp4.png,exp3.png,trial_left_image,1,exp4.png,1,exp3.png,exp4.png,0,2,non-reversed,incorrect,0.0019289045505661573,1,invalid_win,799.7457473999821,54,,,,,,,,,,,,,,,,sub_213,2022-11-09_10h37.10.160,Reversal,2022.1.1,59.922436400666065,1,
10,exp1.png,exp2.png,,,,,,,,,,,,,,,,,,2,0,2,0,0,10,10,10,,,,,,,,,False,50,131,True,exp2.png,exp1.png,trial_left_image,1,exp2.png,1,exp2.png,exp1.png,0,4,reversed,correct,0.15229574022466408,0,invalid_lose,804.0293056999799,54,,,,,,,,,,,,,,,,sub_213,2022-11-09_10h37.10.160,Reversal,2022.1.1,59.922436400666065,1,
11,exp3.png,exp4.png,,,,,,,,,,,,,,,,,,2,0,2,0,0,11,11,11,,,,,,,,,False,51,132,False,exp3.png,exp4.png,trial_left_image,1,exp3.png,1,exp3.png,exp4.png,1,1,non-reversed,correct,0.6048824350745221,1,valid_win,809.2446508000139,55,,,,,,,,,,,,,,,,sub_213,2022-11-09_10h37.10.160,Reversal,2022.1.1,59.922436400666065,1,
12,exp1.png,exp2.png,,,,,,,,,,,,,,,,,,2,0,2,0,0,12,12,12,,,,,,,,,False,52,133,True,exp2.png,exp1.png,trial_left_image,1,exp2.png,1,exp2.png,exp1.png,0,4,reversed,correct,0.9557976944639548,1,valid_win,814.443056899996,56,,,,,,,,,,,,,,,,sub_213,2022-11-09_10h37.10.160,Reversal,2022.1.1,59.922436400666065,1,
13,exp3.png,exp4.png,,,,,,,,,,,,,,,,,,2,0,2,0,0,13,13,13,,,,,,,,,False,53,134,True,exp4.png,exp3.png,trial_left_image,1,exp4.png,1,exp3.png,exp4.png,0,2,non-reversed,incorrect,0.038675495060440435,1,invalid_win,819.0422020999831,57,,,,,,,,,,,,,,,,sub_213,2022-11-09_10h37.10.160,Reversal,2022.1.1,59.922436400666065,1,
14,exp1.png,exp2.png,,,,,,,,,,,,,,,,,,2,0,2,0,0,14,14,14,,,,,,,,,False,54,135,True,exp2.png,exp1.png,trial_left_image,1,exp2.png,1,exp2.png,exp1.png,0,4,reversed,correct,0.18313593238119108,0,invalid_lose,824.8751269999775,57,,,,,,,,,,,,,,,,sub_213,2022-11-09_10h37.10.160,Reversal,2022.1.1,59.922436400666065,1,
15,exp3.png,exp4.png,,,,,,,,,,,,,,,,,,2,0,2,0,0,15,15,15,,,,,,,,,False,55,136,False,exp3.png,exp4.png,trial_right_image,-1,exp4.png,1,exp3.png,exp4.png,0,2,non-reversed,incorrect,0.4836351801740505,0,valid_lose,829.4946247999906,57,,,,,,,,,,,,,,,,sub_213,2022-11-09_10h37.10.160,Reversal,2022.1.1,59.922436400666065,1,
16,exp1.png,exp2.png,,,,,,,,,,,,,,,,,,2,0,2,0,0,16,16,16,,,,,,,,,False,56,137,False,exp1.png,exp2.png,trial_left_image,1,exp1.png,1,exp2.png,exp1.png,1,3,reversed,incorrect,0.7936515887203882,0,valid_lose,834.0749154000077,57,,,,,,,,,,,,,,,,sub_213,2022-11-09_10h37.10.160,Reversal,2022.1.1,59.922436400666065,1,
17,exp3.png,exp4.png,,,,,,,,,,,,,,,,,,2,0,2,0,0,17,17,17,,,,,,,,,False,57,138,True,exp4.png,exp3.png,trial_left_image,1,exp4.png,1,exp3.png,exp4.png,0,2,non-reversed,incorrect,0.42854695100919815,0,valid_lose,838.6237795000197,57,,,,,,,,,,,,,,,,sub_213,2022-11-09_10h37.10.160,Reversal,2022.1.1,59.922436400666065,1,
18,exp1.png,exp2.png,,,,,,,,,,,,,,,,,,2,0,2,0,0,18,18,18,,,,,,,,,False,58,139,False,exp1.png,exp2.png,trial_right_image,-1,exp2.png,1,exp2.png,exp1.png,0,4,reversed,correct,0.5661823781182621,1,valid_win,843.0060633000103,58,,,,,,,,,,,,,,,,sub_213,2022-11-09_10h37.10.160,Reversal,2022.1.1,59.922436400666065,1,
19,exp3.png,exp4.png,,,,,,,,,,,,,,,,,,2,0,2,0,0,19,19,19,,,,,,,,,False,59,140,False,exp3.png,exp4.png,trial_left_image,1,exp3.png,1,exp3.png,exp4.png,1,1,non-reversed,correct,0.3793260728075739,1,valid_win,847.3399936999776,59,,,,,,,,,,,,,,,,sub_213,2022-11-09_10h37.10.160,Reversal,2022.1.1,59.922436400666065,1,
20,exp1.png,exp2.png,,,,,,,,,,,,,,,,,,2,0,2,0,0,20,20,20,,,,,,,,,True,,,,,,,,,,,,,,,,,,,,,,,,,,,,,,,,,,,,sub_213,2022-11-09_10h37.10.160,Reversal,2022.1.1,59.922436400666065,1,
,,,exp1.png,,,,,,,,,,,,,,,,,2,0,2,0,,,,,0,0,0,0,0,0,0,0,,,,,,,,,,,,,,,,,,,,,,36.0,36.0,4.649477700004354,"[(36.0, 4.649477700004354)]",992.9114370999741,None,,,,,,,,,,sub_213,2022-11-09_10h37.10.160,Reversal,2022.1.1,59.922436400666065,1,
,,,exp2.png,,,,,,,,,,,,,,,,,2,0,2,0,,,,,0,0,0,0,0,1,1,1,,,,,,,,,,,,,,,,,,,,,,,32.0,2.237630599993281,"[(32.0, 2.237630599993281)]",998.7988775999984,None,32.0,,,,,,,,,sub_213,2022-11-09_10h37.10.160,Reversal,2022.1.1,59.922436400666065,1,
,,,exp3.png,,,,,,,,,,,,,,,,,2,0,2,0,,,,,0,0,0,0,0,2,2,2,,,,,,,,,,,,,,,,,,,,,,,35.0,1.8513437999645248,"[(35.0, 1.8513437999645248)]",1002.1680440999917,None,,35.0,,,,,,,,sub_213,2022-11-09_10h37.10.160,Reversal,2022.1.1,59.922436400666065,1,
,,,exp4.png,,,,,,,,,,,,,,,,,2,0,2,0,,,,,0,0,0,0,0,3,3,3,,,,,,,,,,,,,,,,,,,,,,,36.0,1.8435018000309356,"[(36.0, 1.8435018000309356)]",1005.0090626999736,None,,,36.0,,,,,,,sub_213,2022-11-09_10h37.10.160,Reversal,2022.1.1,59.922436400666065,1,
,,,,,,,,,,,,,,,,,,,,,,,,,,,,,,,,,,,,,,,,,,,,,,,,,,,,,,,,59,,,,,,,,,,,66,37,29,318.92562430002727,1,,,,,,,
