trial_index,trial_image1_file,trial_image2_file,image_file,learning_outer_loop.thisRepN,learning_outer_loop.thisTrialN,learning_outer_loop.thisN,learning_outer_loop.thisIndex,learning_inner_loop.thisRepN,learning_inner_loop.thisTrialN,learning_inner_loop.thisN,learning_inner_loop.thisIndex,learning_estimation_outer_loop.thisRepN,learning_estimation_outer_loop.thisTrialN,learning_estimation_outer_loop.thisN,learning_estimation_outer_loop.thisIndex,learning_estimation_inner_loop.thisRepN,learning_estimation_inner_loop.thisTrialN,learning_estimation_inner_loop.thisN,learning_estimation_inner_loop.thisIndex,reversal_outer_loop.thisRepN,reversal_outer_loop.thisTrialN,reversal_outer_loop.thisN,reversal_outer_loop.thisIndex,reversal_inner_loop.thisRepN,reversal_inner_loop.thisTrialN,reversal_inner_loop.thisN,reversal_inner_loop.thisIndex,reversal_estimation_outer_loop.thisRepN,reversal_estimation_outer_loop.thisTrialN,reversal_estimation_outer_loop.thisN,reversal_estimation_outer_loop.thisIndex,reversal_estimation_inner_loop.thisRepN,reversal_estimation_inner_loop.thisTrialN,reversal_estimation_inner_loop.thisN,reversal_estimation_inner_loop.thisIndex,skipped,total_trial_counter,trial_num,left_right_flip,left_image_file,right_image_file,clicked_stimulus_side,side,clicked_stimulus,version,high_prob_image_file,low_prob_image_file,choice_a,choice_b,pair_type,correct,trial_feedback_random,reward,trial_type,overall_time_after_trial,score,estimation_exp1.png,estimation_rating.response,estimation_rating.rt,estimation_rating.history,estimation_rating.started,estimation_rating.stopped,estimation_exp2.png,estimation_exp3.png,estimation_exp4.png,total_learning_time,total_correct,learning_correct,reversal_correct,total_reversal_time,extra_block,end_experiment.keys,end_experiment.rt,participant,date,expName,psychopyVersion,frameRate,ver,
0,exp1.png,exp2.png,,0,0,0,0,0,0,0,0,,,,,,,,,,,,,,,,,,,,,,,,,True,,,,,,,,,,,,,,,,,,,,,,,,,,,,,,,,,,,,,,sub_077,2022-10-19_17h58.02.485,Reversal,2022.1.2,60.0507548982696,1,
1,exp3.png,exp4.png,,0,0,0,0,0,1,1,1,,,,,,,,,,,,,,,,,,,,,,,,,False,0,1,True,exp4.png,exp3.png,trial_left_image,1,exp4.png,1,exp3.png,exp4.png,0,2,non-reversed,incorrect,0.678834429376098,0,valid_lose,8.283345300002111,0,,,,,,,,,,,,,,,,,,sub_077,2022-10-19_17h58.02.485,Reversal,2022.1.2,60.0507548982696,1,
2,exp1.png,exp2.png,,0,0,0,0,0,2,2,2,,,,,,,,,,,,,,,,,,,,,,,,,False,1,2,False,exp1.png,exp2.png,trial_right_image,-1,exp2.png,1,exp1.png,exp2.png,0,4,reversed,incorrect,0.47362159524993097,0,valid_lose,14.032835199999681,0,,,,,,,,,,,,,,,,,,sub_077,2022-10-19_17h58.02.485,Reversal,2022.1.2,60.0507548982696,1,
3,exp3.png,exp4.png,,0,0,0,0,0,3,3,3,,,,,,,,,,,,,,,,,,,,,,,,,False,2,3,False,exp3.png,exp4.png,trial_left_image,1,exp3.png,1,exp3.png,exp4.png,1,1,non-reversed,correct,0.46314000757478446,1,valid_win,20.88349709999966,1,,,,,,,,,,,,,,,,,,sub_077,2022-10-19_17h58.02.485,Reversal,2022.1.2,60.0507548982696,1,
4,exp1.png,exp2.png,,0,0,0,0,0,4,4,4,,,,,,,,,,,,,,,,,,,,,,,,,False,3,4,False,exp1.png,exp2.png,trial_left_image,1,exp1.png,1,exp1.png,exp2.png,1,3,reversed,correct,0.16648258464880505,0,invalid_lose,26.36685790000047,1,,,,,,,,,,,,,,,,,,sub_077,2022-10-19_17h58.02.485,Reversal,2022.1.2,60.0507548982696,1,
5,exp3.png,exp4.png,,0,0,0,0,0,5,5,5,,,,,,,,,,,,,,,,,,,,,,,,,False,4,5,False,exp3.png,exp4.png,trial_right_image,-1,exp4.png,1,exp3.png,exp4.png,0,2,non-reversed,incorrect,0.22641390043475496,1,invalid_win,32.49946959999943,2,,,,,,,,,,,,,,,,,,sub_077,2022-10-19_17h58.02.485,Reversal,2022.1.2,60.0507548982696,1,
6,exp1.png,exp2.png,,0,0,0,0,0,6,6,6,,,,,,,,,,,,,,,,,,,,,,,,,False,5,6,False,exp1.png,exp2.png,trial_right_image,-1,exp2.png,1,exp1.png,exp2.png,0,4,reversed,incorrect,0.6518339732359274,0,valid_lose,38.998873399999866,2,,,,,,,,,,,,,,,,,,sub_077,2022-10-19_17h58.02.485,Reversal,2022.1.2,60.0507548982696,1,
7,exp3.png,exp4.png,,0,0,0,0,0,7,7,7,,,,,,,,,,,,,,,,,,,,,,,,,False,6,7,True,exp4.png,exp3.png,trial_right_image,-1,exp3.png,1,exp3.png,exp4.png,1,1,non-reversed,correct,0.4079034923720838,1,valid_win,43.99931640000068,3,,,,,,,,,,,,,,,,,,sub_077,2022-10-19_17h58.02.485,Reversal,2022.1.2,60.0507548982696,1,
8,exp1.png,exp2.png,,0,0,0,0,0,8,8,8,,,,,,,,,,,,,,,,,,,,,,,,,False,7,8,True,exp2.png,exp1.png,trial_right_image,-1,exp1.png,1,exp1.png,exp2.png,1,3,reversed,correct,0.20597689984591783,0,invalid_lose,50.43225639999946,3,,,,,,,,,,,,,,,,,,sub_077,2022-10-19_17h58.02.485,Reversal,2022.1.2,60.0507548982696,1,
9,exp3.png,exp4.png,,0,0,0,0,0,9,9,9,,,,,,,,,,,,,,,,,,,,,,,,,False,8,9,False,exp3.png,exp4.png,trial_right_image,-1,exp4.png,1,exp3.png,exp4.png,0,2,non-reversed,incorrect,0.39949946081091947,0,valid_lose,56.41546410000228,3,,,,,,,,,,,,,,,,,,sub_077,2022-10-19_17h58.02.485,Reversal,2022.1.2,60.0507548982696,1,
10,exp1.png,exp2.png,,0,0,0,0,0,10,10,10,,,,,,,,,,,,,,,,,,,,,,,,,False,9,10,True,exp2.png,exp1.png,trial_left_image,1,exp2.png,1,exp1.png,exp2.png,0,4,reversed,incorrect,0.48232671327208343,0,valid_lose,64.04829149999932,3,,,,,,,,,,,,,,,,,,sub_077,2022-10-19_17h58.02.485,Reversal,2022.1.2,60.0507548982696,1,
11,exp3.png,exp4.png,,0,0,0,0,0,11,11,11,,,,,,,,,,,,,,,,,,,,,,,,,False,10,11,False,exp3.png,exp4.png,trial_left_image,1,exp3.png,1,exp3.png,exp4.png,1,1,non-reversed,correct,0.7060728866259063,1,valid_win,70.43200440000146,4,,,,,,,,,,,,,,,,,,sub_077,2022-10-19_17h58.02.485,Reversal,2022.1.2,60.0507548982696,1,
12,exp1.png,exp2.png,,0,0,0,0,0,12,12,12,,,,,,,,,,,,,,,,,,,,,,,,,False,11,12,True,exp2.png,exp1.png,trial_right_image,-1,exp1.png,1,exp1.png,exp2.png,1,3,reversed,correct,0.8484862917587318,1,valid_win,76.88253450000047,5,,,,,,,,,,,,,,,,,,sub_077,2022-10-19_17h58.02.485,Reversal,2022.1.2,60.0507548982696,1,
13,exp3.png,exp4.png,,0,0,0,0,0,13,13,13,,,,,,,,,,,,,,,,,,,,,,,,,False,12,13,False,exp3.png,exp4.png,trial_left_image,1,exp3.png,1,exp3.png,exp4.png,1,1,non-reversed,correct,0.31238555936924106,1,valid_win,85.59808290000001,6,,,,,,,,,,,,,,,,,,sub_077,2022-10-19_17h58.02.485,Reversal,2022.1.2,60.0507548982696,1,
14,exp1.png,exp2.png,,0,0,0,0,0,14,14,14,,,,,,,,,,,,,,,,,,,,,,,,,False,13,14,True,exp2.png,exp1.png,trial_right_image,-1,exp1.png,1,exp1.png,exp2.png,1,3,reversed,correct,0.9110048430758908,1,valid_win,91.28205170000001,7,,,,,,,,,,,,,,,,,,sub_077,2022-10-19_17h58.02.485,Reversal,2022.1.2,60.0507548982696,1,
15,exp3.png,exp4.png,,0,0,0,0,0,15,15,15,,,,,,,,,,,,,,,,,,,,,,,,,False,14,15,False,exp3.png,exp4.png,trial_left_image,1,exp3.png,1,exp3.png,exp4.png,1,1,non-reversed,correct,0.6533025823685802,1,valid_win,96.08213900000192,8,,,,,,,,,,,,,,,,,,sub_077,2022-10-19_17h58.02.485,Reversal,2022.1.2,60.0507548982696,1,
16,exp1.png,exp2.png,,0,0,0,0,0,16,16,16,,,,,,,,,,,,,,,,,,,,,,,,,False,15,16,False,exp1.png,exp2.png,trial_left_image,1,exp1.png,1,exp1.png,exp2.png,1,3,reversed,correct,0.9277312593296083,1,valid_win,100.94803800000227,9,,,,,,,,,,,,,,,,,,sub_077,2022-10-19_17h58.02.485,Reversal,2022.1.2,60.0507548982696,1,
17,exp3.png,exp4.png,,0,0,0,0,0,17,17,17,,,,,,,,,,,,,,,,,,,,,,,,,False,16,17,True,exp4.png,exp3.png,trial_right_image,-1,exp3.png,1,exp3.png,exp4.png,1,1,non-reversed,correct,0.4208942108240534,1,valid_win,105.46511269999974,10,,,,,,,,,,,,,,,,,,sub_077,2022-10-19_17h58.02.485,Reversal,2022.1.2,60.0507548982696,1,
18,exp1.png,exp2.png,,0,0,0,0,0,18,18,18,,,,,,,,,,,,,,,,,,,,,,,,,False,17,18,True,exp2.png,exp1.png,trial_right_image,-1,exp1.png,1,exp1.png,exp2.png,1,3,reversed,correct,0.34645608003587836,1,valid_win,110.38144160000229,11,,,,,,,,,,,,,,,,,,sub_077,2022-10-19_17h58.02.485,Reversal,2022.1.2,60.0507548982696,1,
19,exp3.png,exp4.png,,0,0,0,0,0,19,19,19,,,,,,,,,,,,,,,,,,,,,,,,,False,18,19,True,exp4.png,exp3.png,trial_right_image,-1,exp3.png,1,exp3.png,exp4.png,1,1,non-reversed,correct,0.030250344212628844,0,invalid_lose,115.19823929999984,11,,,,,,,,,,,,,,,,,,sub_077,2022-10-19_17h58.02.485,Reversal,2022.1.2,60.0507548982696,1,
20,exp1.png,exp2.png,,0,0,0,0,0,20,20,20,,,,,,,,,,,,,,,,,,,,,,,,,False,19,20,True,exp2.png,exp1.png,trial_right_image,-1,exp1.png,1,exp1.png,exp2.png,1,3,reversed,correct,0.2226975932616555,0,invalid_lose,119.96490470000208,11,,,,,,,,,,,,,,,,,,sub_077,2022-10-19_17h58.02.485,Reversal,2022.1.2,60.0507548982696,1,
,,,exp1.png,0,0,0,0,,,,,0,0,0,0,0,0,0,0,,,,,,,,,,,,,,,,,,,,,,,,,,,,,,,,,,,,,,66.0,66.0,9.322761499999615,"[(66.0, 9.322761499999615)]",182.32524019999983,None,,,,,,,,,,,,sub_077,2022-10-19_17h58.02.485,Reversal,2022.1.2,60.0507548982696,1,
,,,exp2.png,0,0,0,0,,,,,0,0,0,0,0,1,1,1,,,,,,,,,,,,,,,,,,,,,,,,,,,,,,,,,,,,,,,24.0,4.5012027000011585,"[(24.0, 4.5012027000011585)]",192.76180119999844,None,24.0,,,,,,,,,,,sub_077,2022-10-19_17h58.02.485,Reversal,2022.1.2,60.0507548982696,1,
,,,exp3.png,0,0,0,0,,,,,0,0,0,0,0,2,2,2,,,,,,,,,,,,,,,,,,,,,,,,,,,,,,,,,,,,,,,66.0,3.7516539999996894,"[(66.0, 3.7516539999996894)]",198.3318388000007,None,,66.0,,,,,,,,,,sub_077,2022-10-19_17h58.02.485,Reversal,2022.1.2,60.0507548982696,1,
,,,exp4.png,0,0,0,0,,,,,0,0,0,0,0,3,3,3,,,,,,,,,,,,,,,,,,,,,,,,,,,,,,,,,,,,,,,49.0,9.166885900001944,"[(29.0, 6.600552900003095), (49.0, 9.166885900001944)]",204.16355290000138,None,,,49.0,,,,,,,,,sub_077,2022-10-19_17h58.02.485,Reversal,2022.1.2,60.0507548982696,1,
0,exp1.png,exp2.png,,1,0,1,0,0,0,0,0,,,,,,,,,,,,,,,,,,,,,,,,,True,,,,,,,,,,,,,,,,,,,,,,,,,,,,,,,,,,,,,,sub_077,2022-10-19_17h58.02.485,Reversal,2022.1.2,60.0507548982696,1,
1,exp3.png,exp4.png,,1,0,1,0,0,1,1,1,,,,,,,,,,,,,,,,,,,,,,,,,False,20,21,False,exp3.png,exp4.png,trial_left_image,1,exp3.png,1,exp3.png,exp4.png,1,1,non-reversed,correct,0.7152305576623562,1,valid_win,160.64735110000038,12,,,,,,,,,,,,,,,,,,sub_077,2022-10-19_17h58.02.485,Reversal,2022.1.2,60.0507548982696,1,
2,exp1.png,exp2.png,,1,0,1,0,0,2,2,2,,,,,,,,,,,,,,,,,,,,,,,,,False,21,22,False,exp1.png,exp2.png,trial_left_image,1,exp1.png,1,exp1.png,exp2.png,1,3,reversed,correct,0.16080229684009018,0,invalid_lose,166.51311319999877,12,,,,,,,,,,,,,,,,,,sub_077,2022-10-19_17h58.02.485,Reversal,2022.1.2,60.0507548982696,1,
3,exp3.png,exp4.png,,1,0,1,0,0,3,3,3,,,,,,,,,,,,,,,,,,,,,,,,,False,22,23,False,exp3.png,exp4.png,trial_left_image,1,exp3.png,1,exp3.png,exp4.png,1,1,non-reversed,correct,0.6321793210056789,1,valid_win,172.0468647000016,13,,,,,,,,,,,,,,,,,,sub_077,2022-10-19_17h58.02.485,Reversal,2022.1.2,60.0507548982696,1,
4,exp1.png,exp2.png,,1,0,1,0,0,4,4,4,,,,,,,,,,,,,,,,,,,,,,,,,False,23,24,True,exp2.png,exp1.png,trial_left_image,1,exp2.png,1,exp1.png,exp2.png,0,4,reversed,incorrect,0.8985807652388546,0,valid_lose,178.14745160000166,13,,,,,,,,,,,,,,,,,,sub_077,2022-10-19_17h58.02.485,Reversal,2022.1.2,60.0507548982696,1,
5,exp3.png,exp4.png,,1,0,1,0,0,5,5,5,,,,,,,,,,,,,,,,,,,,,,,,,False,24,25,False,exp3.png,exp4.png,trial_left_image,1,exp3.png,1,exp3.png,exp4.png,1,1,non-reversed,correct,0.791456788650436,1,valid_win,184.61373900000035,14,,,,,,,,,,,,,,,,,,sub_077,2022-10-19_17h58.02.485,Reversal,2022.1.2,60.0507548982696,1,
6,exp1.png,exp2.png,,1,0,1,0,0,6,6,6,,,,,,,,,,,,,,,,,,,,,,,,,False,25,26,True,exp2.png,exp1.png,trial_left_image,1,exp2.png,1,exp1.png,exp2.png,0,4,reversed,incorrect,0.7471971174951543,0,valid_lose,190.29643710000164,14,,,,,,,,,,,,,,,,,,sub_077,2022-10-19_17h58.02.485,Reversal,2022.1.2,60.0507548982696,1,
7,exp3.png,exp4.png,,1,0,1,0,0,7,7,7,,,,,,,,,,,,,,,,,,,,,,,,,False,26,27,False,exp3.png,exp4.png,trial_left_image,1,exp3.png,1,exp3.png,exp4.png,1,1,non-reversed,correct,0.9286604517967282,1,valid_win,195.64721270000155,15,,,,,,,,,,,,,,,,,,sub_077,2022-10-19_17h58.02.485,Reversal,2022.1.2,60.0507548982696,1,
8,exp1.png,exp2.png,,1,0,1,0,0,8,8,8,,,,,,,,,,,,,,,,,,,,,,,,,False,27,28,True,exp2.png,exp1.png,trial_right_image,-1,exp1.png,1,exp1.png,exp2.png,1,3,reversed,correct,0.0541613475873155,0,invalid_lose,201.34633100000065,15,,,,,,,,,,,,,,,,,,sub_077,2022-10-19_17h58.02.485,Reversal,2022.1.2,60.0507548982696,1,
9,exp3.png,exp4.png,,1,0,1,0,0,9,9,9,,,,,,,,,,,,,,,,,,,,,,,,,False,28,29,True,exp4.png,exp3.png,trial_right_image,-1,exp3.png,1,exp3.png,exp4.png,1,1,non-reversed,correct,0.16002474817325119,0,invalid_lose,206.99582240000018,15,,,,,,,,,,,,,,,,,,sub_077,2022-10-19_17h58.02.485,Reversal,2022.1.2,60.0507548982696,1,
10,exp1.png,exp2.png,,1,0,1,0,0,10,10,10,,,,,,,,,,,,,,,,,,,,,,,,,False,29,30,False,exp1.png,exp2.png,trial_right_image,-1,exp2.png,1,exp1.png,exp2.png,0,4,reversed,incorrect,0.23119184391617376,1,invalid_win,213.2297460000009,16,,,,,,,,,,,,,,,,,,sub_077,2022-10-19_17h58.02.485,Reversal,2022.1.2,60.0507548982696,1,
11,exp3.png,exp4.png,,1,0,1,0,0,11,11,11,,,,,,,,,,,,,,,,,,,,,,,,,False,30,31,True,exp4.png,exp3.png,trial_left_image,1,exp4.png,1,exp3.png,exp4.png,0,2,non-reversed,incorrect,0.5582147063784036,0,valid_lose,218.04565830000138,16,,,,,,,,,,,,,,,,,,sub_077,2022-10-19_17h58.02.485,Reversal,2022.1.2,60.0507548982696,1,
12,exp1.png,exp2.png,,1,0,1,0,0,12,12,12,,,,,,,,,,,,,,,,,,,,,,,,,False,31,32,True,exp2.png,exp1.png,trial_left_image,1,exp2.png,1,exp1.png,exp2.png,0,4,reversed,incorrect,0.3536297007065662,0,valid_lose,223.7294514999994,16,,,,,,,,,,,,,,,,,,sub_077,2022-10-19_17h58.02.485,Reversal,2022.1.2,60.0507548982696,1,
13,exp3.png,exp4.png,,1,0,1,0,0,13,13,13,,,,,,,,,,,,,,,,,,,,,,,,,False,32,33,True,exp4.png,exp3.png,trial_right_image,-1,exp3.png,1,exp3.png,exp4.png,1,1,non-reversed,correct,0.18730127748492642,0,invalid_lose,230.22906610000064,16,,,,,,,,,,,,,,,,,,sub_077,2022-10-19_17h58.02.485,Reversal,2022.1.2,60.0507548982696,1,
14,exp1.png,exp2.png,,1,0,1,0,0,14,14,14,,,,,,,,,,,,,,,,,,,,,,,,,False,33,34,True,exp2.png,exp1.png,trial_right_image,-1,exp1.png,1,exp1.png,exp2.png,1,3,reversed,correct,0.22472442163501427,0,invalid_lose,236.71267480000097,16,,,,,,,,,,,,,,,,,,sub_077,2022-10-19_17h58.02.485,Reversal,2022.1.2,60.0507548982696,1,
15,exp3.png,exp4.png,,1,0,1,0,0,15,15,15,,,,,,,,,,,,,,,,,,,,,,,,,False,34,35,False,exp3.png,exp4.png,trial_left_image,1,exp3.png,1,exp3.png,exp4.png,1,1,non-reversed,correct,0.8275436439429122,1,valid_win,242.6458965999991,17,,,,,,,,,,,,,,,,,,sub_077,2022-10-19_17h58.02.485,Reversal,2022.1.2,60.0507548982696,1,
16,exp1.png,exp2.png,,1,0,1,0,0,16,16,16,,,,,,,,,,,,,,,,,,,,,,,,,False,35,36,False,exp1.png,exp2.png,trial_left_image,1,exp1.png,1,exp1.png,exp2.png,1,3,reversed,correct,0.31967931604543187,1,valid_win,248.7458998000002,18,,,,,,,,,,,,,,,,,,sub_077,2022-10-19_17h58.02.485,Reversal,2022.1.2,60.0507548982696,1,
17,exp3.png,exp4.png,,1,0,1,0,0,17,17,17,,,,,,,,,,,,,,,,,,,,,,,,,False,36,37,False,exp3.png,exp4.png,trial_left_image,1,exp3.png,1,exp3.png,exp4.png,1,1,non-reversed,correct,0.13938351145460182,0,invalid_lose,253.9460289000017,18,,,,,,,,,,,,,,,,,,sub_077,2022-10-19_17h58.02.485,Reversal,2022.1.2,60.0507548982696,1,
18,exp1.png,exp2.png,,1,0,1,0,0,18,18,18,,,,,,,,,,,,,,,,,,,,,,,,,False,37,38,False,exp1.png,exp2.png,trial_left_image,1,exp1.png,1,exp1.png,exp2.png,1,3,reversed,correct,0.6183450471615354,1,valid_win,260.91150879999987,19,,,,,,,,,,,,,,,,,,sub_077,2022-10-19_17h58.02.485,Reversal,2022.1.2,60.0507548982696,1,
19,exp3.png,exp4.png,,1,0,1,0,0,19,19,19,,,,,,,,,,,,,,,,,,,,,,,,,False,38,39,True,exp4.png,exp3.png,trial_left_image,1,exp4.png,1,exp3.png,exp4.png,0,2,non-reversed,incorrect,0.31016496977223196,0,valid_lose,266.19484490000104,19,,,,,,,,,,,,,,,,,,sub_077,2022-10-19_17h58.02.485,Reversal,2022.1.2,60.0507548982696,1,
20,exp1.png,exp2.png,,1,0,1,0,0,20,20,20,,,,,,,,,,,,,,,,,,,,,,,,,False,39,40,True,exp2.png,exp1.png,trial_left_image,1,exp2.png,1,exp1.png,exp2.png,0,4,reversed,incorrect,0.9657741462734111,0,valid_lose,273.7121021999992,19,,,,,,,,,,,,,,,,,,sub_077,2022-10-19_17h58.02.485,Reversal,2022.1.2,60.0507548982696,1,
,,,exp1.png,1,0,1,0,,,,,0,0,0,0,0,0,0,0,,,,,,,,,,,,,,,,,,,,,,,,,,,,,,,,,,,,,,34.0,34.0,12.146188799997617,"[(34.0, 12.146188799997617)]",336.08317579999857,None,,,,,,,,,,,,sub_077,2022-10-19_17h58.02.485,Reversal,2022.1.2,60.0507548982696,1,
,,,exp2.png,1,0,1,0,,,,,0,0,0,0,0,1,1,1,,,,,,,,,,,,,,,,,,,,,,,,,,,,,,,,,,,,,,,50.0,None,[],349.48648559999856,None,,,,,,,,,,,,sub_077,2022-10-19_17h58.02.485,Reversal,2022.1.2,60.0507548982696,1,
,,,exp3.png,1,0,1,0,,,,,0,0,0,0,0,2,2,2,,,,,,,,,,,,,,,,,,,,,,,,,,,,,,,,,,,,,,,60.0,3.6825852999972994,"[(60.0, 3.6825852999972994)]",349.942310800001,None,,60.0,,,,,,,,,,sub_077,2022-10-19_17h58.02.485,Reversal,2022.1.2,60.0507548982696,1,
,,,exp4.png,1,0,1,0,,,,,0,0,0,0,0,3,3,3,,,,,,,,,,,,,,,,,,,,,,,,,,,,,,,,,,,,,,,38.0,2.7009920999989845,"[(38.0, 2.7009920999989845)]",354.7795320000005,None,,,38.0,,,,,,,,,sub_077,2022-10-19_17h58.02.485,Reversal,2022.1.2,60.0507548982696,1,
0,exp1.png,exp2.png,,2,0,2,0,0,0,0,0,,,,,,,,,,,,,,,,,,,,,,,,,True,,,,,,,,,,,,,,,,,,,,,,,,,,,,,,,,,,,,,,sub_077,2022-10-19_17h58.02.485,Reversal,2022.1.2,60.0507548982696,1,
1,exp3.png,exp4.png,,2,0,2,0,0,1,1,1,,,,,,,,,,,,,,,,,,,,,,,,,False,40,41,True,exp4.png,exp3.png,trial_right_image,-1,exp3.png,1,exp3.png,exp4.png,1,1,non-reversed,correct,0.9207124070824398,1,valid_win,304.07800900000075,20,,,,,,,,,,,,,,,,,,sub_077,2022-10-19_17h58.02.485,Reversal,2022.1.2,60.0507548982696,1,
2,exp1.png,exp2.png,,2,0,2,0,0,2,2,2,,,,,,,,,,,,,,,,,,,,,,,,,False,41,42,True,exp2.png,exp1.png,trial_right_image,-1,exp1.png,1,exp1.png,exp2.png,1,3,reversed,correct,0.9672911827278857,1,valid_win,309.4943394000002,21,,,,,,,,,,,,,,,,,,sub_077,2022-10-19_17h58.02.485,Reversal,2022.1.2,60.0507548982696,1,
3,exp3.png,exp4.png,,2,0,2,0,0,3,3,3,,,,,,,,,,,,,,,,,,,,,,,,,False,42,43,True,exp4.png,exp3.png,trial_left_image,1,exp4.png,1,exp3.png,exp4.png,0,2,non-reversed,incorrect,0.5163490712535281,0,valid_lose,314.9939956999988,21,,,,,,,,,,,,,,,,,,sub_077,2022-10-19_17h58.02.485,Reversal,2022.1.2,60.0507548982696,1,
4,exp1.png,exp2.png,,2,0,2,0,0,4,4,4,,,,,,,,,,,,,,,,,,,,,,,,,False,43,44,False,exp1.png,exp2.png,trial_left_image,1,exp1.png,1,exp1.png,exp2.png,1,3,reversed,correct,0.4131422169567702,1,valid_win,321.59426170000006,22,,,,,,,,,,,,,,,,,,sub_077,2022-10-19_17h58.02.485,Reversal,2022.1.2,60.0507548982696,1,
5,exp3.png,exp4.png,,2,0,2,0,0,5,5,5,,,,,,,,,,,,,,,,,,,,,,,,,False,44,45,False,exp3.png,exp4.png,trial_left_image,1,exp3.png,1,exp3.png,exp4.png,1,1,non-reversed,correct,0.6244743874383459,1,valid_win,328.6613146000018,23,,,,,,,,,,,,,,,,,,sub_077,2022-10-19_17h58.02.485,Reversal,2022.1.2,60.0507548982696,1,
6,exp1.png,exp2.png,,2,0,2,0,0,6,6,6,,,,,,,,,,,,,,,,,,,,,,,,,False,45,46,True,exp2.png,exp1.png,trial_left_image,1,exp2.png,1,exp1.png,exp2.png,0,4,reversed,incorrect,0.006553583305445976,1,invalid_win,334.2937997000008,24,,,,,,,,,,,,,,,,,,sub_077,2022-10-19_17h58.02.485,Reversal,2022.1.2,60.0507548982696,1,
7,exp3.png,exp4.png,,2,0,2,0,0,7,7,7,,,,,,,,,,,,,,,,,,,,,,,,,False,46,47,True,exp4.png,exp3.png,trial_left_image,1,exp4.png,1,exp3.png,exp4.png,0,2,non-reversed,incorrect,0.867681119418887,0,valid_lose,339.59427499999947,24,,,,,,,,,,,,,,,,,,sub_077,2022-10-19_17h58.02.485,Reversal,2022.1.2,60.0507548982696,1,
8,exp1.png,exp2.png,,2,0,2,0,0,8,8,8,,,,,,,,,,,,,,,,,,,,,,,,,False,47,48,True,exp2.png,exp1.png,trial_right_image,-1,exp1.png,1,exp1.png,exp2.png,1,3,reversed,correct,0.5089649541947551,1,valid_win,345.2774740999994,25,,,,,,,,,,,,,,,,,,sub_077,2022-10-19_17h58.02.485,Reversal,2022.1.2,60.0507548982696,1,
9,exp3.png,exp4.png,,2,0,2,0,0,9,9,9,,,,,,,,,,,,,,,,,,,,,,,,,False,48,49,False,exp3.png,exp4.png,trial_left_image,1,exp3.png,1,exp3.png,exp4.png,1,1,non-reversed,correct,0.820543282603449,1,valid_win,350.51111780000065,26,,,,,,,,,,,,,,,,,,sub_077,2022-10-19_17h58.02.485,Reversal,2022.1.2,60.0507548982696,1,
10,exp1.png,exp2.png,,2,0,2,0,0,10,10,10,,,,,,,,,,,,,,,,,,,,,,,,,False,49,50,True,exp2.png,exp1.png,trial_left_image,1,exp2.png,1,exp1.png,exp2.png,0,4,reversed,incorrect,0.1460475817282807,1,invalid_win,356.04421840000214,27,,,,,,,,,,,,,,,,,,sub_077,2022-10-19_17h58.02.485,Reversal,2022.1.2,60.0507548982696,1,
11,exp3.png,exp4.png,,2,0,2,0,0,11,11,11,,,,,,,,,,,,,,,,,,,,,,,,,False,50,51,False,exp3.png,exp4.png,trial_left_image,1,exp3.png,1,exp3.png,exp4.png,1,1,non-reversed,correct,0.9775990609257003,1,valid_win,361.46072859999913,28,,,,,,,,,,,,,,,,,,sub_077,2022-10-19_17h58.02.485,Reversal,2022.1.2,60.0507548982696,1,
12,exp1.png,exp2.png,,2,0,2,0,0,12,12,12,,,,,,,,,,,,,,,,,,,,,,,,,False,51,52,False,exp1.png,exp2.png,trial_left_image,1,exp1.png,1,exp1.png,exp2.png,1,3,reversed,correct,0.1971780548533636,0,invalid_lose,366.1434874000006,28,,,,,,,,,,,,,,,,,,sub_077,2022-10-19_17h58.02.485,Reversal,2022.1.2,60.0507548982696,1,
13,exp3.png,exp4.png,,2,0,2,0,0,13,13,13,,,,,,,,,,,,,,,,,,,,,,,,,False,52,53,False,exp3.png,exp4.png,trial_left_image,1,exp3.png,1,exp3.png,exp4.png,1,1,non-reversed,correct,0.6968367388758407,1,valid_win,372.2934556,29,,,,,,,,,,,,,,,,,,sub_077,2022-10-19_17h58.02.485,Reversal,2022.1.2,60.0507548982696,1,
14,exp1.png,exp2.png,,2,0,2,0,0,14,14,14,,,,,,,,,,,,,,,,,,,,,,,,,False,53,54,False,exp1.png,exp2.png,trial_right_image,-1,exp2.png,1,exp1.png,exp2.png,0,4,reversed,incorrect,0.9795190689954496,0,valid_lose,377.6931919999988,29,,,,,,,,,,,,,,,,,,sub_077,2022-10-19_17h58.02.485,Reversal,2022.1.2,60.0507548982696,1,
15,exp3.png,exp4.png,,2,0,2,0,0,15,15,15,,,,,,,,,,,,,,,,,,,,,,,,,False,54,55,True,exp4.png,exp3.png,trial_right_image,-1,exp3.png,1,exp3.png,exp4.png,1,1,non-reversed,correct,0.8036390648673978,1,valid_win,383.09276800000225,30,,,,,,,,,,,,,,,,,,sub_077,2022-10-19_17h58.02.485,Reversal,2022.1.2,60.0507548982696,1,
16,exp1.png,exp2.png,,2,0,2,0,0,16,16,16,,,,,,,,,,,,,,,,,,,,,,,,,False,55,56,True,exp2.png,exp1.png,trial_left_image,1,exp2.png,1,exp1.png,exp2.png,0,4,reversed,incorrect,0.7249414776656993,0,valid_lose,389.57680099999925,30,,,,,,,,,,,,,,,,,,sub_077,2022-10-19_17h58.02.485,Reversal,2022.1.2,60.0507548982696,1,
17,exp3.png,exp4.png,,2,0,2,0,0,17,17,17,,,,,,,,,,,,,,,,,,,,,,,,,False,56,57,True,exp4.png,exp3.png,trial_right_image,-1,exp3.png,1,exp3.png,exp4.png,1,1,non-reversed,correct,0.45146562634968057,1,valid_win,394.59331810000003,31,,,,,,,,,,,,,,,,,,sub_077,2022-10-19_17h58.02.485,Reversal,2022.1.2,60.0507548982696,1,
18,exp1.png,exp2.png,,2,0,2,0,0,18,18,18,,,,,,,,,,,,,,,,,,,,,,,,,False,57,58,False,exp1.png,exp2.png,trial_left_image,1,exp1.png,1,exp1.png,exp2.png,1,3,reversed,correct,0.30615277524736484,1,valid_win,399.20928690000073,32,,,,,,,,,,,,,,,,,,sub_077,2022-10-19_17h58.02.485,Reversal,2022.1.2,60.0507548982696,1,
19,exp3.png,exp4.png,,2,0,2,0,0,19,19,19,,,,,,,,,,,,,,,,,,,,,,,,,False,58,59,False,exp3.png,exp4.png,trial_right_image,-1,exp4.png,1,exp3.png,exp4.png,0,2,non-reversed,incorrect,0.42194788142519124,0,valid_lose,404.05924830000004,32,,,,,,,,,,,,,,,,,,sub_077,2022-10-19_17h58.02.485,Reversal,2022.1.2,60.0507548982696,1,
20,exp1.png,exp2.png,,2,0,2,0,0,20,20,20,,,,,,,,,,,,,,,,,,,,,,,,,False,59,60,False,exp1.png,exp2.png,trial_left_image,1,exp1.png,1,exp1.png,exp2.png,1,3,reversed,correct,0.6332271720863285,1,valid_win,411.34272409999903,33,,,,,,,,,,,,,,,,,,sub_077,2022-10-19_17h58.02.485,Reversal,2022.1.2,60.0507548982696,1,
,,,exp1.png,2,0,2,0,,,,,0,0,0,0,0,0,0,0,,,,,,,,,,,,,,,,,,,,,,,,,,,,,,,,,,,,,,41.0,41.0,6.1270994000005885,"[(41.0, 6.1270994000005885)]",473.7147616000002,None,,,,,,,,,,,,sub_077,2022-10-19_17h58.02.485,Reversal,2022.1.2,60.0507548982696,1,
,,,exp2.png,2,0,2,0,,,,,0,0,0,0,0,1,1,1,,,,,,,,,,,,,,,,,,,,,,,,,,,,,,,,,,,,,,,36.0,1.7120117000013124,"[(36.0, 1.7120117000013124)]",481.1436501999997,None,36.0,,,,,,,,,,,sub_077,2022-10-19_17h58.02.485,Reversal,2022.1.2,60.0507548982696,1,
,,,exp3.png,2,0,2,0,,,,,0,0,0,0,0,2,2,2,,,,,,,,,,,,,,,,,,,,,,,,,,,,,,,,,,,,,,,71.0,1.5674628000015218,"[(71.0, 1.5674628000015218)]",484.007619,None,,71.0,,,,,,,,,,sub_077,2022-10-19_17h58.02.485,Reversal,2022.1.2,60.0507548982696,1,
,,,exp4.png,2,0,2,0,,,,,0,0,0,0,0,3,3,3,,,,,,,,,,,,,,,,,,,,,,,,,,,,,,,,,,,,,,,33.0,5.029706400000578,"[(33.0, 5.029706400000578)]",486.44222499999887,None,,,33.0,,,,,,,,,sub_077,2022-10-19_17h58.02.485,Reversal,2022.1.2,60.0507548982696,1,
0,exp1.png,exp2.png,,3,0,3,0,0,0,0,0,,,,,,,,,,,,,,,,,,,,,,,,,True,,,,,,,,,,,,,,,,,,,,,,,,,,,,,,,,,,,,,,sub_077,2022-10-19_17h58.02.485,Reversal,2022.1.2,60.0507548982696,1,
1,exp3.png,exp4.png,,3,0,3,0,0,1,1,1,,,,,,,,,,,,,,,,,,,,,,,,,False,60,61,True,exp4.png,exp3.png,trial_right_image,-1,exp3.png,1,exp3.png,exp4.png,1,1,non-reversed,correct,0.313296731894799,1,valid_win,436.94230750000133,34,,,,,,,,,,,,,,,,,,sub_077,2022-10-19_17h58.02.485,Reversal,2022.1.2,60.0507548982696,1,
2,exp1.png,exp2.png,,3,0,3,0,0,2,2,2,,,,,,,,,,,,,,,,,,,,,,,,,False,61,62,True,exp2.png,exp1.png,trial_right_image,-1,exp1.png,1,exp1.png,exp2.png,1,3,reversed,correct,0.9132367961012063,1,valid_win,443.97508220000236,35,,,,,,,,,,,,,,,,,,sub_077,2022-10-19_17h58.02.485,Reversal,2022.1.2,60.0507548982696,1,
3,exp3.png,exp4.png,,3,0,3,0,0,3,3,3,,,,,,,,,,,,,,,,,,,,,,,,,False,62,63,True,exp4.png,exp3.png,trial_left_image,1,exp4.png,1,exp3.png,exp4.png,0,2,non-reversed,incorrect,0.6888250924783694,0,valid_lose,449.64240860000064,35,,,,,,,,,,,,,,,,,,sub_077,2022-10-19_17h58.02.485,Reversal,2022.1.2,60.0507548982696,1,
4,exp1.png,exp2.png,,3,0,3,0,0,4,4,4,,,,,,,,,,,,,,,,,,,,,,,,,False,63,64,True,exp2.png,exp1.png,trial_right_image,-1,exp1.png,1,exp1.png,exp2.png,1,3,reversed,correct,0.8288002960074968,1,valid_win,455.1755765000016,36,,,,,,,,,,,,,,,,,,sub_077,2022-10-19_17h58.02.485,Reversal,2022.1.2,60.0507548982696,1,
5,exp3.png,exp4.png,,3,0,3,0,0,5,5,5,,,,,,,,,,,,,,,,,,,,,,,,,False,64,65,False,exp3.png,exp4.png,trial_left_image,1,exp3.png,1,exp3.png,exp4.png,1,1,non-reversed,correct,0.5998867829443091,1,valid_win,460.8081944000005,37,,,,,,,,,,,,,,,,,,sub_077,2022-10-19_17h58.02.485,Reversal,2022.1.2,60.0507548982696,1,
6,exp1.png,exp2.png,,3,0,3,0,0,6,6,6,,,,,,,,,,,,,,,,,,,,,,,,,False,65,66,False,exp1.png,exp2.png,trial_left_image,1,exp1.png,1,exp1.png,exp2.png,1,3,reversed,correct,0.8037958932360258,1,valid_win,466.25826660000166,38,,,,,,,,,,,,,,,,,,sub_077,2022-10-19_17h58.02.485,Reversal,2022.1.2,60.0507548982696,1,
7,exp3.png,exp4.png,,3,0,3,0,0,7,7,7,,,,,,,,,,,,,,,,,,,,,,,,,False,66,67,True,exp4.png,exp3.png,trial_right_image,-1,exp3.png,1,exp3.png,exp4.png,1,1,non-reversed,correct,0.6148331733618179,1,valid_win,471.3919000999995,39,,,,,,,,,,,,,,,,,,sub_077,2022-10-19_17h58.02.485,Reversal,2022.1.2,60.0507548982696,1,
8,exp1.png,exp2.png,,3,0,3,0,0,8,8,8,,,,,,,,,,,,,,,,,,,,,,,,,False,67,68,True,exp2.png,exp1.png,trial_right_image,-1,exp1.png,1,exp1.png,exp2.png,1,3,reversed,correct,0.8528260521746508,1,valid_win,476.30850350000037,40,,,,,,,,,,,,,,,,,,sub_077,2022-10-19_17h58.02.485,Reversal,2022.1.2,60.0507548982696,1,
9,exp3.png,exp4.png,,3,0,3,0,0,9,9,9,,,,,,,,,,,,,,,,,,,,,,,,,False,68,69,False,exp3.png,exp4.png,trial_left_image,1,exp3.png,1,exp3.png,exp4.png,1,1,non-reversed,correct,0.23226160651105876,0,invalid_lose,481.2742020000005,40,,,,,,,,,,,,,,,,,,sub_077,2022-10-19_17h58.02.485,Reversal,2022.1.2,60.0507548982696,1,
10,exp1.png,exp2.png,,3,0,3,0,0,10,10,10,,,,,,,,,,,,,,,,,,,,,,,,,False,69,70,True,exp2.png,exp1.png,trial_right_image,-1,exp1.png,1,exp1.png,exp2.png,1,3,reversed,correct,0.9759208852874003,1,valid_win,486.2245019000002,41,,,,,,,,,,,,,,,,,,sub_077,2022-10-19_17h58.02.485,Reversal,2022.1.2,60.0507548982696,1,
11,exp3.png,exp4.png,,3,0,3,0,0,11,11,11,,,,,,,,,,,,,,,,,,,,,,,,,False,70,71,False,exp3.png,exp4.png,trial_left_image,1,exp3.png,1,exp3.png,exp4.png,1,1,non-reversed,correct,0.14165602039204084,0,invalid_lose,492.2407757000001,41,,,,,,,,,,,,,,,,,,sub_077,2022-10-19_17h58.02.485,Reversal,2022.1.2,60.0507548982696,1,
12,exp1.png,exp2.png,,3,0,3,0,0,12,12,12,,,,,,,,,,,,,,,,,,,,,,,,,False,71,72,True,exp2.png,exp1.png,trial_right_image,-1,exp1.png,1,exp1.png,exp2.png,1,3,reversed,correct,0.14502551551148524,0,invalid_lose,497.5572099000019,41,,,,,,,,,,,,,,,,,,sub_077,2022-10-19_17h58.02.485,Reversal,2022.1.2,60.0507548982696,1,
13,exp3.png,exp4.png,,3,0,3,0,0,13,13,13,,,,,,,,,,,,,,,,,,,,,,,,,False,72,73,False,exp3.png,exp4.png,trial_right_image,-1,exp4.png,1,exp3.png,exp4.png,0,2,non-reversed,incorrect,0.17572216452103073,1,invalid_win,504.15787569999884,42,,,,,,,,,,,,,,,,,,sub_077,2022-10-19_17h58.02.485,Reversal,2022.1.2,60.0507548982696,1,
14,exp1.png,exp2.png,,3,0,3,0,0,14,14,14,,,,,,,,,,,,,,,,,,,,,,,,,False,73,74,True,exp2.png,exp1.png,trial_right_image,-1,exp1.png,1,exp1.png,exp2.png,1,3,reversed,correct,0.843261013573419,1,valid_win,509.30739470000117,43,,,,,,,,,,,,,,,,,,sub_077,2022-10-19_17h58.02.485,Reversal,2022.1.2,60.0507548982696,1,
15,exp3.png,exp4.png,,3,0,3,0,0,15,15,15,,,,,,,,,,,,,,,,,,,,,,,,,False,74,75,False,exp3.png,exp4.png,trial_left_image,1,exp3.png,1,exp3.png,exp4.png,1,1,non-reversed,correct,0.5525559628579385,1,valid_win,514.2569339000001,44,,,,,,,,,,,,,,,,,,sub_077,2022-10-19_17h58.02.485,Reversal,2022.1.2,60.0507548982696,1,
16,exp1.png,exp2.png,,3,0,3,0,0,16,16,16,,,,,,,,,,,,,,,,,,,,,,,,,False,75,76,False,exp1.png,exp2.png,trial_right_image,-1,exp2.png,1,exp1.png,exp2.png,0,4,reversed,incorrect,0.6520362119573548,0,valid_lose,519.0077681000002,44,,,,,,,,,,,,,,,,,,sub_077,2022-10-19_17h58.02.485,Reversal,2022.1.2,60.0507548982696,1,
17,exp3.png,exp4.png,,3,0,3,0,0,17,17,17,,,,,,,,,,,,,,,,,,,,,,,,,False,76,77,False,exp3.png,exp4.png,trial_left_image,1,exp3.png,1,exp3.png,exp4.png,1,1,non-reversed,correct,0.5275545370850575,1,valid_win,524.090497000001,45,,,,,,,,,,,,,,,,,,sub_077,2022-10-19_17h58.02.485,Reversal,2022.1.2,60.0507548982696,1,
18,exp1.png,exp2.png,,3,0,3,0,0,18,18,18,,,,,,,,,,,,,,,,,,,,,,,,,False,77,78,True,exp2.png,exp1.png,trial_right_image,-1,exp1.png,1,exp1.png,exp2.png,1,3,reversed,correct,0.04541786037870443,0,invalid_lose,528.8073766000016,45,,,,,,,,,,,,,,,,,,sub_077,2022-10-19_17h58.02.485,Reversal,2022.1.2,60.0507548982696,1,
19,exp3.png,exp4.png,,3,0,3,0,0,19,19,19,,,,,,,,,,,,,,,,,,,,,,,,,False,78,79,False,exp3.png,exp4.png,trial_left_image,1,exp3.png,1,exp3.png,exp4.png,1,1,non-reversed,correct,0.9601938348075388,1,valid_win,534.1243706000023,46,,,,,,,,,,,,,,,,,,sub_077,2022-10-19_17h58.02.485,Reversal,2022.1.2,60.0507548982696,1,
20,exp1.png,exp2.png,,3,0,3,0,0,20,20,20,,,,,,,,,,,,,,,,,,,,,,,,,False,79,80,False,exp1.png,exp2.png,trial_left_image,1,exp1.png,1,exp1.png,exp2.png,1,3,reversed,correct,0.11375629623566152,0,invalid_lose,539.7072236000022,46,,,,,,,,,,,,,,,,,,sub_077,2022-10-19_17h58.02.485,Reversal,2022.1.2,60.0507548982696,1,
,,,exp1.png,3,0,3,0,,,,,0,0,0,0,0,0,0,0,,,,,,,,,,,,,,,,,,,,,,,,,,,,,,,,,,,,,,62.0,62.0,8.54575929999919,"[(62.0, 8.54575929999919)]",602.0774211999997,None,,,,,,,,,,,,sub_077,2022-10-19_17h58.02.485,Reversal,2022.1.2,60.0507548982696,1,
,,,exp2.png,3,0,3,0,,,,,0,0,0,0,0,1,1,1,,,,,,,,,,,,,,,,,,,,,,,,,,,,,,,,,,,,,,,35.0,1.9680960000005143,"[(35.0, 1.9680960000005143)]",611.5356858999985,None,35.0,,,,,,,,,,,sub_077,2022-10-19_17h58.02.485,Reversal,2022.1.2,60.0507548982696,1,
,,,exp3.png,3,0,3,0,,,,,0,0,0,0,0,2,2,2,,,,,,,,,,,,,,,,,,,,,,,,,,,,,,,,,,,,,,,69.0,1.9163818000015453,"[(69.0, 1.9163818000015453)]",614.470079499999,None,,69.0,,,,,,,,,,sub_077,2022-10-19_17h58.02.485,Reversal,2022.1.2,60.0507548982696,1,
,,,exp4.png,3,0,3,0,,,,,0,0,0,0,0,3,3,3,,,,,,,,,,,,,,,,,,,,,,,,,,,,,,,,,,,,,,,38.0,5.820290199997544,"[(38.0, 5.820290199997544)]",617.3892696000003,None,,,38.0,,,,,,,,,sub_077,2022-10-19_17h58.02.485,Reversal,2022.1.2,60.0507548982696,1,
0,exp1.png,exp2.png,,,,,,,,,,,,,,,,,,0,0,0,0,0,0,0,0,,,,,,,,,True,,,,,,,,,,,,,,,,,,,,,,,,,,,,,,,,,,,,,,sub_077,2022-10-19_17h58.02.485,Reversal,2022.1.2,60.0507548982696,1,
1,exp3.png,exp4.png,,,,,,,,,,,,,,,,,,0,0,0,0,0,1,1,1,,,,,,,,,False,0,81,True,exp4.png,exp3.png,trial_right_image,-1,exp3.png,1,exp3.png,exp4.png,1,1,non-reversed,correct,0.7932700877274783,1,valid_win,567.990254100001,47,,,,,,,,,,564.2610674999996,,,,,,,,sub_077,2022-10-19_17h58.02.485,Reversal,2022.1.2,60.0507548982696,1,
2,exp1.png,exp2.png,,,,,,,,,,,,,,,,,,0,0,0,0,0,2,2,2,,,,,,,,,False,1,82,True,exp2.png,exp1.png,trial_right_image,-1,exp1.png,1,exp2.png,exp1.png,1,3,reversed,incorrect,0.34051533690532676,0,valid_lose,573.1892884000008,47,,,,,,,,,,,,,,,,,,sub_077,2022-10-19_17h58.02.485,Reversal,2022.1.2,60.0507548982696,1,
3,exp3.png,exp4.png,,,,,,,,,,,,,,,,,,0,0,0,0,0,3,3,3,,,,,,,,,False,2,83,False,exp3.png,exp4.png,trial_left_image,1,exp3.png,1,exp3.png,exp4.png,1,1,non-reversed,correct,0.3654990768347185,1,valid_win,578.5725190000012,48,,,,,,,,,,,,,,,,,,sub_077,2022-10-19_17h58.02.485,Reversal,2022.1.2,60.0507548982696,1,
4,exp1.png,exp2.png,,,,,,,,,,,,,,,,,,0,0,0,0,0,4,4,4,,,,,,,,,False,3,84,True,exp2.png,exp1.png,trial_left_image,1,exp2.png,1,exp2.png,exp1.png,0,4,reversed,correct,0.1366801648532494,0,invalid_lose,583.8063432999988,48,,,,,,,,,,,,,,,,,,sub_077,2022-10-19_17h58.02.485,Reversal,2022.1.2,60.0507548982696,1,
5,exp3.png,exp4.png,,,,,,,,,,,,,,,,,,0,0,0,0,0,5,5,5,,,,,,,,,False,4,85,True,exp4.png,exp3.png,trial_left_image,1,exp4.png,1,exp3.png,exp4.png,0,2,non-reversed,incorrect,0.8408779975543689,0,valid_lose,588.9729918000012,48,,,,,,,,,,,,,,,,,,sub_077,2022-10-19_17h58.02.485,Reversal,2022.1.2,60.0507548982696,1,
6,exp1.png,exp2.png,,,,,,,,,,,,,,,,,,0,0,0,0,0,6,6,6,,,,,,,,,False,5,86,True,exp2.png,exp1.png,trial_right_image,-1,exp1.png,1,exp2.png,exp1.png,1,3,reversed,incorrect,0.24267249497249288,1,invalid_win,594.689188100001,49,,,,,,,,,,,,,,,,,,sub_077,2022-10-19_17h58.02.485,Reversal,2022.1.2,60.0507548982696,1,
7,exp3.png,exp4.png,,,,,,,,,,,,,,,,,,0,0,0,0,0,7,7,7,,,,,,,,,False,6,87,True,exp4.png,exp3.png,trial_right_image,-1,exp3.png,1,exp3.png,exp4.png,1,1,non-reversed,correct,0.6175124665483103,1,valid_win,599.2891696000006,50,,,,,,,,,,,,,,,,,,sub_077,2022-10-19_17h58.02.485,Reversal,2022.1.2,60.0507548982696,1,
8,exp1.png,exp2.png,,,,,,,,,,,,,,,,,,0,0,0,0,0,8,8,8,,,,,,,,,False,7,88,True,exp2.png,exp1.png,trial_left_image,1,exp2.png,1,exp2.png,exp1.png,0,4,reversed,correct,0.5442939602551531,1,valid_win,604.1723788000018,51,,,,,,,,,,,,,,,,,,sub_077,2022-10-19_17h58.02.485,Reversal,2022.1.2,60.0507548982696,1,
9,exp3.png,exp4.png,,,,,,,,,,,,,,,,,,0,0,0,0,0,9,9,9,,,,,,,,,False,8,89,False,exp3.png,exp4.png,trial_left_image,1,exp3.png,1,exp3.png,exp4.png,1,1,non-reversed,correct,0.25564438797221767,1,valid_win,609.5390277000006,52,,,,,,,,,,,,,,,,,,sub_077,2022-10-19_17h58.02.485,Reversal,2022.1.2,60.0507548982696,1,
10,exp1.png,exp2.png,,,,,,,,,,,,,,,,,,0,0,0,0,0,10,10,10,,,,,,,,,False,9,90,True,exp2.png,exp1.png,trial_right_image,-1,exp1.png,1,exp2.png,exp1.png,1,3,reversed,incorrect,0.7213147374692447,0,valid_lose,614.1558315000002,52,,,,,,,,,,,,,,,,,,sub_077,2022-10-19_17h58.02.485,Reversal,2022.1.2,60.0507548982696,1,
11,exp3.png,exp4.png,,,,,,,,,,,,,,,,,,0,0,0,0,0,11,11,11,,,,,,,,,False,10,91,False,exp3.png,exp4.png,trial_left_image,1,exp3.png,1,exp3.png,exp4.png,1,1,non-reversed,correct,0.3361968085299947,1,valid_win,619.5218730000015,53,,,,,,,,,,,,,,,,,,sub_077,2022-10-19_17h58.02.485,Reversal,2022.1.2,60.0507548982696,1,
12,exp1.png,exp2.png,,,,,,,,,,,,,,,,,,0,0,0,0,0,12,12,12,,,,,,,,,False,11,92,False,exp1.png,exp2.png,trial_left_image,1,exp1.png,1,exp2.png,exp1.png,1,3,reversed,incorrect,0.5471186922281216,0,valid_lose,625.9719593000009,53,,,,,,,,,,,,,,,,,,sub_077,2022-10-19_17h58.02.485,Reversal,2022.1.2,60.0507548982696,1,
13,exp3.png,exp4.png,,,,,,,,,,,,,,,,,,0,0,0,0,0,13,13,13,,,,,,,,,False,12,93,True,exp4.png,exp3.png,trial_right_image,-1,exp3.png,1,exp3.png,exp4.png,1,1,non-reversed,correct,0.2872762147188097,1,valid_win,631.1219449000018,54,,,,,,,,,,,,,,,,,,sub_077,2022-10-19_17h58.02.485,Reversal,2022.1.2,60.0507548982696,1,
14,exp1.png,exp2.png,,,,,,,,,,,,,,,,,,0,0,0,0,0,14,14,14,,,,,,,,,False,13,94,False,exp1.png,exp2.png,trial_right_image,-1,exp2.png,1,exp2.png,exp1.png,0,4,reversed,correct,0.6584930707738617,1,valid_win,636.9224058,55,,,,,,,,,,,,,,,,,,sub_077,2022-10-19_17h58.02.485,Reversal,2022.1.2,60.0507548982696,1,
15,exp3.png,exp4.png,,,,,,,,,,,,,,,,,,0,0,0,0,0,15,15,15,,,,,,,,,False,14,95,True,exp4.png,exp3.png,trial_right_image,-1,exp3.png,1,exp3.png,exp4.png,1,1,non-reversed,correct,0.0003693948801091196,0,invalid_lose,642.0388463000018,55,,,,,,,,,,,,,,,,,,sub_077,2022-10-19_17h58.02.485,Reversal,2022.1.2,60.0507548982696,1,
16,exp1.png,exp2.png,,,,,,,,,,,,,,,,,,0,0,0,0,0,16,16,16,,,,,,,,,False,15,96,False,exp1.png,exp2.png,trial_left_image,1,exp1.png,1,exp2.png,exp1.png,1,3,reversed,incorrect,0.24456537993674832,1,invalid_win,649.3382113000007,56,,,,,,,,,,,,,,,,,,sub_077,2022-10-19_17h58.02.485,Reversal,2022.1.2,60.0507548982696,1,
17,exp3.png,exp4.png,,,,,,,,,,,,,,,,,,0,0,0,0,0,17,17,17,,,,,,,,,False,16,97,False,exp3.png,exp4.png,trial_left_image,1,exp3.png,1,exp3.png,exp4.png,1,1,non-reversed,correct,0.23058391270226009,0,invalid_lose,655.0713741,56,,,,,,,,,,,,,,,,,,sub_077,2022-10-19_17h58.02.485,Reversal,2022.1.2,60.0507548982696,1,
18,exp1.png,exp2.png,,,,,,,,,,,,,,,,,,0,0,0,0,0,18,18,18,,,,,,,,,False,17,98,False,exp1.png,exp2.png,trial_right_image,-1,exp2.png,1,exp2.png,exp1.png,0,4,reversed,correct,0.7078702738958064,1,valid_win,660.6881095999997,57,,,,,,,,,,,,,,,,,,sub_077,2022-10-19_17h58.02.485,Reversal,2022.1.2,60.0507548982696,1,
19,exp3.png,exp4.png,,,,,,,,,,,,,,,,,,0,0,0,0,0,19,19,19,,,,,,,,,False,18,99,False,exp3.png,exp4.png,trial_left_image,1,exp3.png,1,exp3.png,exp4.png,1,1,non-reversed,correct,0.7719990146772044,1,valid_win,665.5543952000007,58,,,,,,,,,,,,,,,,,,sub_077,2022-10-19_17h58.02.485,Reversal,2022.1.2,60.0507548982696,1,
20,exp1.png,exp2.png,,,,,,,,,,,,,,,,,,0,0,0,0,0,20,20,20,,,,,,,,,False,19,100,False,exp1.png,exp2.png,trial_left_image,1,exp1.png,1,exp2.png,exp1.png,1,3,reversed,incorrect,0.1870585657365319,1,invalid_win,670.3711843000019,59,,,,,,,,,,,,,,,,,,sub_077,2022-10-19_17h58.02.485,Reversal,2022.1.2,60.0507548982696,1,
,,,exp1.png,,,,,,,,,,,,,,,,,0,0,0,0,,,,,0,0,0,0,0,0,0,0,,,,,,,,,,,,,,,,,,,,,,,50.0,None,[],732.7449372999981,None,,,,,,,,,,,,sub_077,2022-10-19_17h58.02.485,Reversal,2022.1.2,60.0507548982696,1,
,,,exp2.png,,,,,,,,,,,,,,,,,0,0,0,0,,,,,0,0,0,0,0,1,1,1,,,,,,,,,,,,,,,,,,,,,,,50.0,None,[],736.8007328999993,None,,,,,,,,,,,,sub_077,2022-10-19_17h58.02.485,Reversal,2022.1.2,60.0507548982696,1,
,,,exp3.png,,,,,,,,,,,,,,,,,0,0,0,0,,,,,0,0,0,0,0,2,2,2,,,,,,,,,,,,,,,,,,,,,,,50.0,None,[],737.7672109999985,None,,,,,,,,,,,,sub_077,2022-10-19_17h58.02.485,Reversal,2022.1.2,60.0507548982696,1,
,,,exp4.png,,,,,,,,,,,,,,,,,0,0,0,0,,,,,0,0,0,0,0,3,3,3,,,,,,,,,,,,,,,,,,,,,,,50.0,None,[],738.6830664000008,None,,,,,,,,,,,,sub_077,2022-10-19_17h58.02.485,Reversal,2022.1.2,60.0507548982696,1,
0,exp1.png,exp2.png,,,,,,,,,,,,,,,,,,1,0,1,0,0,0,0,0,,,,,,,,,True,,,,,,,,,,,,,,,,,,,,,,,,,,,,,,,,,,,,,,sub_077,2022-10-19_17h58.02.485,Reversal,2022.1.2,60.0507548982696,1,
1,exp3.png,exp4.png,,,,,,,,,,,,,,,,,,1,0,1,0,0,1,1,1,,,,,,,,,False,20,101,True,exp4.png,exp3.png,trial_right_image,-1,exp3.png,1,exp3.png,exp4.png,1,1,non-reversed,correct,0.5634937601986383,1,valid_win,686.8379308000003,60,,,,,,,,,,,,,,,,,,sub_077,2022-10-19_17h58.02.485,Reversal,2022.1.2,60.0507548982696,1,
2,exp1.png,exp2.png,,,,,,,,,,,,,,,,,,1,0,1,0,0,2,2,2,,,,,,,,,False,21,102,False,exp1.png,exp2.png,trial_right_image,-1,exp2.png,1,exp2.png,exp1.png,0,4,reversed,correct,0.6111409374149496,1,valid_win,693.4373631000017,61,,,,,,,,,,,,,,,,,,sub_077,2022-10-19_17h58.02.485,Reversal,2022.1.2,60.0507548982696,1,
3,exp3.png,exp4.png,,,,,,,,,,,,,,,,,,1,0,1,0,0,3,3,3,,,,,,,,,False,22,103,False,exp3.png,exp4.png,trial_left_image,1,exp3.png,1,exp3.png,exp4.png,1,1,non-reversed,correct,0.3534769840861113,1,valid_win,698.7372551000008,62,,,,,,,,,,,,,,,,,,sub_077,2022-10-19_17h58.02.485,Reversal,2022.1.2,60.0507548982696,1,
4,exp1.png,exp2.png,,,,,,,,,,,,,,,,,,1,0,1,0,0,4,4,4,,,,,,,,,False,23,104,False,exp1.png,exp2.png,trial_left_image,1,exp1.png,1,exp2.png,exp1.png,1,3,reversed,incorrect,0.5106802902890014,0,valid_lose,703.6706440999988,62,,,,,,,,,,,,,,,,,,sub_077,2022-10-19_17h58.02.485,Reversal,2022.1.2,60.0507548982696,1,
5,exp3.png,exp4.png,,,,,,,,,,,,,,,,,,1,0,1,0,0,5,5,5,,,,,,,,,False,24,105,False,exp3.png,exp4.png,trial_left_image,1,exp3.png,1,exp3.png,exp4.png,1,1,non-reversed,correct,0.5142493316364319,1,valid_win,708.537642700001,63,,,,,,,,,,,,,,,,,,sub_077,2022-10-19_17h58.02.485,Reversal,2022.1.2,60.0507548982696,1,
6,exp1.png,exp2.png,,,,,,,,,,,,,,,,,,1,0,1,0,0,6,6,6,,,,,,,,,False,25,106,True,exp2.png,exp1.png,trial_left_image,1,exp2.png,1,exp2.png,exp1.png,0,4,reversed,correct,0.7744937878094047,1,valid_win,713.8038691000002,64,,,,,,,,,,,,,,,,,,sub_077,2022-10-19_17h58.02.485,Reversal,2022.1.2,60.0507548982696,1,
7,exp3.png,exp4.png,,,,,,,,,,,,,,,,,,1,0,1,0,0,7,7,7,,,,,,,,,False,26,107,False,exp3.png,exp4.png,trial_left_image,1,exp3.png,1,exp3.png,exp4.png,1,1,non-reversed,correct,0.8381419315152316,1,valid_win,719.1365995000015,65,,,,,,,,,,,,,,,,,,sub_077,2022-10-19_17h58.02.485,Reversal,2022.1.2,60.0507548982696,1,
8,exp1.png,exp2.png,,,,,,,,,,,,,,,,,,1,0,1,0,0,8,8,8,,,,,,,,,False,27,108,True,exp2.png,exp1.png,trial_right_image,-1,exp1.png,1,exp2.png,exp1.png,1,3,reversed,incorrect,0.8047809977147957,0,valid_lose,724.5197451999993,65,,,,,,,,,,,,,,,,,,sub_077,2022-10-19_17h58.02.485,Reversal,2022.1.2,60.0507548982696,1,
9,exp3.png,exp4.png,,,,,,,,,,,,,,,,,,1,0,1,0,0,9,9,9,,,,,,,,,False,28,109,False,exp3.png,exp4.png,trial_left_image,1,exp3.png,1,exp3.png,exp4.png,1,1,non-reversed,correct,0.9661020727621648,1,valid_win,730.4371518000007,66,,,,,,,,,,,,,,,,,,sub_077,2022-10-19_17h58.02.485,Reversal,2022.1.2,60.0507548982696,1,
10,exp1.png,exp2.png,,,,,,,,,,,,,,,,,,1,0,1,0,0,10,10,10,,,,,,,,,False,29,110,True,exp2.png,exp1.png,trial_left_image,1,exp2.png,1,exp2.png,exp1.png,0,4,reversed,correct,0.5552780091500898,1,valid_win,736.2866247999991,67,,,,,,,,,,,,,,,,,,sub_077,2022-10-19_17h58.02.485,Reversal,2022.1.2,60.0507548982696,1,
11,exp3.png,exp4.png,,,,,,,,,,,,,,,,,,1,0,1,0,0,11,11,11,,,,,,,,,False,30,111,True,exp4.png,exp3.png,trial_right_image,-1,exp3.png,1,exp3.png,exp4.png,1,1,non-reversed,correct,0.7365015197661219,1,valid_win,741.0869162999988,68,,,,,,,,,,,,,,,,,,sub_077,2022-10-19_17h58.02.485,Reversal,2022.1.2,60.0507548982696,1,
12,exp1.png,exp2.png,,,,,,,,,,,,,,,,,,1,0,1,0,0,12,12,12,,,,,,,,,False,31,112,False,exp1.png,exp2.png,trial_left_image,1,exp1.png,1,exp2.png,exp1.png,1,3,reversed,incorrect,0.5076921475967869,0,valid_lose,745.9700510000002,68,,,,,,,,,,,,,,,,,,sub_077,2022-10-19_17h58.02.485,Reversal,2022.1.2,60.0507548982696,1,
13,exp3.png,exp4.png,,,,,,,,,,,,,,,,,,1,0,1,0,0,13,13,13,,,,,,,,,False,32,113,True,exp4.png,exp3.png,trial_left_image,1,exp4.png,1,exp3.png,exp4.png,0,2,non-reversed,incorrect,0.06111818296022242,1,invalid_win,751.3529159999998,69,,,,,,,,,,,,,,,,,,sub_077,2022-10-19_17h58.02.485,Reversal,2022.1.2,60.0507548982696,1,
14,exp1.png,exp2.png,,,,,,,,,,,,,,,,,,1,0,1,0,0,14,14,14,,,,,,,,,False,33,114,False,exp1.png,exp2.png,trial_right_image,-1,exp2.png,1,exp2.png,exp1.png,0,4,reversed,correct,0.01503849887630837,0,invalid_lose,757.5035779999998,69,,,,,,,,,,,,,,,,,,sub_077,2022-10-19_17h58.02.485,Reversal,2022.1.2,60.0507548982696,1,
15,exp3.png,exp4.png,,,,,,,,,,,,,,,,,,1,0,1,0,0,15,15,15,,,,,,,,,False,34,115,True,exp4.png,exp3.png,trial_right_image,-1,exp3.png,1,exp3.png,exp4.png,1,1,non-reversed,correct,0.4117569326076479,1,valid_win,763.3195911000003,70,,,,,,,,,,,,,,,,,,sub_077,2022-10-19_17h58.02.485,Reversal,2022.1.2,60.0507548982696,1,
16,exp1.png,exp2.png,,,,,,,,,,,,,,,,,,1,0,1,0,0,16,16,16,,,,,,,,,False,35,116,True,exp2.png,exp1.png,trial_left_image,1,exp2.png,1,exp2.png,exp1.png,0,4,reversed,correct,0.6749550497707337,1,valid_win,770.002921700001,71,,,,,,,,,,,,,,,,,,sub_077,2022-10-19_17h58.02.485,Reversal,2022.1.2,60.0507548982696,1,
17,exp3.png,exp4.png,,,,,,,,,,,,,,,,,,1,0,1,0,0,17,17,17,,,,,,,,,False,36,117,True,exp4.png,exp3.png,trial_right_image,-1,exp3.png,1,exp3.png,exp4.png,1,1,non-reversed,correct,0.28653933644575114,1,valid_win,774.6858288000003,72,,,,,,,,,,,,,,,,,,sub_077,2022-10-19_17h58.02.485,Reversal,2022.1.2,60.0507548982696,1,
18,exp1.png,exp2.png,,,,,,,,,,,,,,,,,,1,0,1,0,0,18,18,18,,,,,,,,,False,37,118,True,exp2.png,exp1.png,trial_right_image,-1,exp1.png,1,exp2.png,exp1.png,1,3,reversed,incorrect,0.4093970651194354,0,valid_lose,779.6360865999995,72,,,,,,,,,,,,,,,,,,sub_077,2022-10-19_17h58.02.485,Reversal,2022.1.2,60.0507548982696,1,
19,exp3.png,exp4.png,,,,,,,,,,,,,,,,,,1,0,1,0,0,19,19,19,,,,,,,,,False,38,119,False,exp3.png,exp4.png,trial_left_image,1,exp3.png,1,exp3.png,exp4.png,1,1,non-reversed,correct,0.8003469858953588,1,valid_win,784.5026757000014,73,,,,,,,,,,,,,,,,,,sub_077,2022-10-19_17h58.02.485,Reversal,2022.1.2,60.0507548982696,1,
20,exp1.png,exp2.png,,,,,,,,,,,,,,,,,,1,0,1,0,0,20,20,20,,,,,,,,,False,39,120,False,exp1.png,exp2.png,trial_left_image,1,exp1.png,1,exp2.png,exp1.png,1,3,reversed,incorrect,0.9576332700048986,0,valid_lose,789.2195238000022,73,,,,,,,,,,,,,,,,,,sub_077,2022-10-19_17h58.02.485,Reversal,2022.1.2,60.0507548982696,1,
,,,exp1.png,,,,,,,,,,,,,,,,,1,0,1,0,,,,,0,0,0,0,0,0,0,0,,,,,,,,,,,,,,,,,,,,,,40.0,40.0,2.980593999996927,"[(40.0, 2.980593999996927)]",851.5879424999985,None,,,,,,,,,,,,sub_077,2022-10-19_17h58.02.485,Reversal,2022.1.2,60.0507548982696,1,
,,,exp2.png,,,,,,,,,,,,,,,,,1,0,1,0,,,,,0,0,0,0,0,1,1,1,,,,,,,,,,,,,,,,,,,,,,,67.0,2.4654818999988493,"[(67.0, 2.4654818999988493)]",855.5164828999987,None,67.0,,,,,,,,,,,sub_077,2022-10-19_17h58.02.485,Reversal,2022.1.2,60.0507548982696,1,
,,,exp3.png,,,,,,,,,,,,,,,,,1,0,1,0,,,,,0,0,0,0,0,2,2,2,,,,,,,,,,,,,,,,,,,,,,,68.0,1.6009597999982361,"[(68.0, 1.6009597999982361)]",858.831427699999,None,,68.0,,,,,,,,,,sub_077,2022-10-19_17h58.02.485,Reversal,2022.1.2,60.0507548982696,1,
,,,exp4.png,,,,,,,,,,,,,,,,,1,0,1,0,,,,,0,0,0,0,0,3,3,3,,,,,,,,,,,,,,,,,,,,,,,50.0,None,[],861.3137678999992,None,,,,,,,,,,,,sub_077,2022-10-19_17h58.02.485,Reversal,2022.1.2,60.0507548982696,1,
0,exp1.png,exp2.png,,,,,,,,,,,,,,,,,,2,0,2,0,0,0,0,0,,,,,,,,,True,,,,,,,,,,,,,,,,,,,,,,,,,,,,,,,,,,,,,,sub_077,2022-10-19_17h58.02.485,Reversal,2022.1.2,60.0507548982696,1,
1,exp3.png,exp4.png,,,,,,,,,,,,,,,,,,2,0,2,0,0,1,1,1,,,,,,,,,False,40,121,True,exp4.png,exp3.png,trial_left_image,1,exp4.png,1,exp3.png,exp4.png,0,2,non-reversed,incorrect,0.7851921241304534,0,valid_lose,808.7357859000003,73,,,,,,,,,,,,,,,,,,sub_077,2022-10-19_17h58.02.485,Reversal,2022.1.2,60.0507548982696,1,
2,exp1.png,exp2.png,,,,,,,,,,,,,,,,,,2,0,2,0,0,2,2,2,,,,,,,,,False,41,122,False,exp1.png,exp2.png,trial_left_image,1,exp1.png,1,exp2.png,exp1.png,1,3,reversed,incorrect,0.29524727159295994,0,valid_lose,814.1849593000006,73,,,,,,,,,,,,,,,,,,sub_077,2022-10-19_17h58.02.485,Reversal,2022.1.2,60.0507548982696,1,
3,exp3.png,exp4.png,,,,,,,,,,,,,,,,,,2,0,2,0,0,3,3,3,,,,,,,,,False,42,123,True,exp4.png,exp3.png,trial_right_image,-1,exp3.png,1,exp3.png,exp4.png,1,1,non-reversed,correct,0.3889751659394701,1,valid_win,818.5023648999995,74,,,,,,,,,,,,,,,,,,sub_077,2022-10-19_17h58.02.485,Reversal,2022.1.2,60.0507548982696,1,
4,exp1.png,exp2.png,,,,,,,,,,,,,,,,,,2,0,2,0,0,4,4,4,,,,,,,,,False,43,124,True,exp2.png,exp1.png,trial_right_image,-1,exp1.png,1,exp2.png,exp1.png,1,3,reversed,incorrect,0.784723956276081,0,valid_lose,823.4683130000012,74,,,,,,,,,,,,,,,,,,sub_077,2022-10-19_17h58.02.485,Reversal,2022.1.2,60.0507548982696,1,
5,exp3.png,exp4.png,,,,,,,,,,,,,,,,,,2,0,2,0,0,5,5,5,,,,,,,,,False,44,125,False,exp3.png,exp4.png,trial_left_image,1,exp3.png,1,exp3.png,exp4.png,1,1,non-reversed,correct,0.8750498089839409,1,valid_win,828.6016492000017,75,,,,,,,,,,,,,,,,,,sub_077,2022-10-19_17h58.02.485,Reversal,2022.1.2,60.0507548982696,1,
6,exp1.png,exp2.png,,,,,,,,,,,,,,,,,,2,0,2,0,0,6,6,6,,,,,,,,,False,45,126,True,exp2.png,exp1.png,trial_right_image,-1,exp1.png,1,exp2.png,exp1.png,1,3,reversed,incorrect,0.1870743079226126,1,invalid_win,833.218707,76,,,,,,,,,,,,,,,,,,sub_077,2022-10-19_17h58.02.485,Reversal,2022.1.2,60.0507548982696,1,
7,exp3.png,exp4.png,,,,,,,,,,,,,,,,,,2,0,2,0,0,7,7,7,,,,,,,,,False,46,127,True,exp4.png,exp3.png,trial_left_image,1,exp4.png,1,exp3.png,exp4.png,0,2,non-reversed,incorrect,0.20773175202310645,1,invalid_win,837.6347391999989,77,,,,,,,,,,,,,,,,,,sub_077,2022-10-19_17h58.02.485,Reversal,2022.1.2,60.0507548982696,1,
8,exp1.png,exp2.png,,,,,,,,,,,,,,,,,,2,0,2,0,0,8,8,8,,,,,,,,,False,47,128,False,exp1.png,exp2.png,trial_right_image,-1,exp2.png,1,exp2.png,exp1.png,0,4,reversed,correct,0.7215072877209391,1,valid_win,841.9678994999995,78,,,,,,,,,,,,,,,,,,sub_077,2022-10-19_17h58.02.485,Reversal,2022.1.2,60.0507548982696,1,
9,exp3.png,exp4.png,,,,,,,,,,,,,,,,,,2,0,2,0,0,9,9,9,,,,,,,,,False,48,129,True,exp4.png,exp3.png,trial_left_image,1,exp4.png,1,exp3.png,exp4.png,0,2,non-reversed,incorrect,0.8995832353187471,0,valid_lose,846.4682840000023,78,,,,,,,,,,,,,,,,,,sub_077,2022-10-19_17h58.02.485,Reversal,2022.1.2,60.0507548982696,1,
10,exp1.png,exp2.png,,,,,,,,,,,,,,,,,,2,0,2,0,0,10,10,10,,,,,,,,,False,49,130,True,exp2.png,exp1.png,trial_right_image,-1,exp1.png,1,exp2.png,exp1.png,1,3,reversed,incorrect,0.9610591757413237,0,valid_lose,852.5181401000009,78,,,,,,,,,,,,,,,,,,sub_077,2022-10-19_17h58.02.485,Reversal,2022.1.2,60.0507548982696,1,
11,exp3.png,exp4.png,,,,,,,,,,,,,,,,,,2,0,2,0,0,11,11,11,,,,,,,,,False,50,131,False,exp3.png,exp4.png,trial_right_image,-1,exp4.png,1,exp3.png,exp4.png,0,2,non-reversed,incorrect,0.4160673397536043,0,valid_lose,858.6847662,78,,,,,,,,,,,,,,,,,,sub_077,2022-10-19_17h58.02.485,Reversal,2022.1.2,60.0507548982696,1,
12,exp1.png,exp2.png,,,,,,,,,,,,,,,,,,2,0,2,0,0,12,12,12,,,,,,,,,False,51,132,False,exp1.png,exp2.png,trial_left_image,1,exp1.png,1,exp2.png,exp1.png,1,3,reversed,incorrect,0.8772667464086922,0,valid_lose,863.6343190000007,78,,,,,,,,,,,,,,,,,,sub_077,2022-10-19_17h58.02.485,Reversal,2022.1.2,60.0507548982696,1,
13,exp3.png,exp4.png,,,,,,,,,,,,,,,,,,2,0,2,0,0,13,13,13,,,,,,,,,False,52,133,True,exp4.png,exp3.png,trial_right_image,-1,exp3.png,1,exp3.png,exp4.png,1,1,non-reversed,correct,0.5934979574793839,1,valid_win,868.834358600001,79,,,,,,,,,,,,,,,,,,sub_077,2022-10-19_17h58.02.485,Reversal,2022.1.2,60.0507548982696,1,
14,exp1.png,exp2.png,,,,,,,,,,,,,,,,,,2,0,2,0,0,14,14,14,,,,,,,,,False,53,134,False,exp1.png,exp2.png,trial_left_image,1,exp1.png,1,exp2.png,exp1.png,1,3,reversed,incorrect,0.14443696347264146,1,invalid_win,873.2340741000007,80,,,,,,,,,,,,,,,,,,sub_077,2022-10-19_17h58.02.485,Reversal,2022.1.2,60.0507548982696,1,
15,exp3.png,exp4.png,,,,,,,,,,,,,,,,,,2,0,2,0,0,15,15,15,,,,,,,,,False,54,135,False,exp3.png,exp4.png,trial_right_image,-1,exp4.png,1,exp3.png,exp4.png,0,2,non-reversed,incorrect,0.931005484890505,0,valid_lose,877.667356599999,80,,,,,,,,,,,,,,,,,,sub_077,2022-10-19_17h58.02.485,Reversal,2022.1.2,60.0507548982696,1,
16,exp1.png,exp2.png,,,,,,,,,,,,,,,,,,2,0,2,0,0,16,16,16,,,,,,,,,False,55,136,False,exp1.png,exp2.png,trial_left_image,1,exp1.png,1,exp2.png,exp1.png,1,3,reversed,incorrect,0.7313267027471775,0,valid_lose,882.3838595000016,80,,,,,,,,,,,,,,,,,,sub_077,2022-10-19_17h58.02.485,Reversal,2022.1.2,60.0507548982696,1,
17,exp3.png,exp4.png,,,,,,,,,,,,,,,,,,2,0,2,0,0,17,17,17,,,,,,,,,False,56,137,True,exp4.png,exp3.png,trial_right_image,-1,exp3.png,1,exp3.png,exp4.png,1,1,non-reversed,correct,0.7021699901547822,1,valid_win,888.6341271000019,81,,,,,,,,,,,,,,,,,,sub_077,2022-10-19_17h58.02.485,Reversal,2022.1.2,60.0507548982696,1,
18,exp1.png,exp2.png,,,,,,,,,,,,,,,,,,2,0,2,0,0,18,18,18,,,,,,,,,False,57,138,False,exp1.png,exp2.png,trial_left_image,1,exp1.png,1,exp2.png,exp1.png,1,3,reversed,incorrect,0.7138135425205097,0,valid_lose,893.250592299999,81,,,,,,,,,,,,,,,,,,sub_077,2022-10-19_17h58.02.485,Reversal,2022.1.2,60.0507548982696,1,
19,exp3.png,exp4.png,,,,,,,,,,,,,,,,,,2,0,2,0,0,19,19,19,,,,,,,,,False,58,139,True,exp4.png,exp3.png,trial_right_image,-1,exp3.png,1,exp3.png,exp4.png,1,1,non-reversed,correct,0.059111429042026375,0,invalid_lose,897.7837543999995,81,,,,,,,,,,,,,,,,,,sub_077,2022-10-19_17h58.02.485,Reversal,2022.1.2,60.0507548982696,1,
20,exp1.png,exp2.png,,,,,,,,,,,,,,,,,,2,0,2,0,0,20,20,20,,,,,,,,,False,59,140,False,exp1.png,exp2.png,trial_right_image,-1,exp2.png,1,exp2.png,exp1.png,0,4,reversed,correct,0.9698304908798452,1,valid_win,902.2662837999997,82,,,,,,,,,,,,,,,,,,sub_077,2022-10-19_17h58.02.485,Reversal,2022.1.2,60.0507548982696,1,
,,,exp1.png,,,,,,,,,,,,,,,,,2,0,2,0,,,,,0,0,0,0,0,0,0,0,,,,,,,,,,,,,,,,,,,,,,50.0,50.0,4.196655100000498,"[(50.0, 4.196655100000498)]",964.635446799999,None,,,,,,,,,,,,sub_077,2022-10-19_17h58.02.485,Reversal,2022.1.2,60.0507548982696,1,
,,,exp2.png,,,,,,,,,,,,,,,,,2,0,2,0,,,,,0,0,0,0,0,1,1,1,,,,,,,,,,,,,,,,,,,,,,,50.0,None,[],969.6631334999984,None,,,,,,,,,,,,sub_077,2022-10-19_17h58.02.485,Reversal,2022.1.2,60.0507548982696,1,
,,,exp3.png,,,,,,,,,,,,,,,,,2,0,2,0,,,,,0,0,0,0,0,2,2,2,,,,,,,,,,,,,,,,,,,,,,,50.0,None,[],970.5297257999991,None,,,,,,,,,,,,sub_077,2022-10-19_17h58.02.485,Reversal,2022.1.2,60.0507548982696,1,
,,,exp4.png,,,,,,,,,,,,,,,,,2,0,2,0,,,,,0,0,0,0,0,3,3,3,,,,,,,,,,,,,,,,,,,,,,,50.0,None,[],971.5673390000011,None,,,,,,,,,,,,sub_077,2022-10-19_17h58.02.485,Reversal,2022.1.2,60.0507548982696,1,
,,,,,,,,,,,,,,,,,,,,,,,,,,,,,,,,,,,,,,,,,,,,,,,,,,,,,,,,82,,,,,,,,,,,91,57,34,349.20925160000115,1,space,51.5202939999981,sub_077,2022-10-19_17h58.02.485,Reversal,2022.1.2,60.0507548982696,1,
