trial_index,trial_image1_file,trial_image2_file,image_file,learning_outer_loop.thisRepN,learning_outer_loop.thisTrialN,learning_outer_loop.thisN,learning_outer_loop.thisIndex,learning_inner_loop.thisRepN,learning_inner_loop.thisTrialN,learning_inner_loop.thisN,learning_inner_loop.thisIndex,learning_estimation_outer_loop.thisRepN,learning_estimation_outer_loop.thisTrialN,learning_estimation_outer_loop.thisN,learning_estimation_outer_loop.thisIndex,learning_estimation_inner_loop.thisRepN,learning_estimation_inner_loop.thisTrialN,learning_estimation_inner_loop.thisN,learning_estimation_inner_loop.thisIndex,reversal_outer_loop.thisRepN,reversal_outer_loop.thisTrialN,reversal_outer_loop.thisN,reversal_outer_loop.thisIndex,reversal_inner_loop.thisRepN,reversal_inner_loop.thisTrialN,reversal_inner_loop.thisN,reversal_inner_loop.thisIndex,reversal_estimation_outer_loop.thisRepN,reversal_estimation_outer_loop.thisTrialN,reversal_estimation_outer_loop.thisN,reversal_estimation_outer_loop.thisIndex,reversal_estimation_inner_loop.thisRepN,reversal_estimation_inner_loop.thisTrialN,reversal_estimation_inner_loop.thisN,reversal_estimation_inner_loop.thisIndex,skipped,total_trial_counter,trial_num,left_right_flip,left_image_file,right_image_file,clicked_stimulus_side,side,clicked_stimulus,version,high_prob_image_file,low_prob_image_file,choice_a,choice_b,pair_type,correct,trial_feedback_random,reward,trial_type,overall_time_after_trial,score,estimation_rating.response,estimation_rating.rt,estimation_rating.history,estimation_rating.started,estimation_rating.stopped,estimation_exp2.png,total_learning_time,estimation_exp3.png,estimation_exp4.png,estimation_exp1.png,total_correct,learning_correct,reversal_correct,total_reversal_time,extra_block,participant,date,expName,psychopyVersion,frameRate,ver,
0,exp1.png,exp2.png,,0,0,0,0,0,0,0,0,,,,,,,,,,,,,,,,,,,,,,,,,False,0,1,False,exp1.png,exp2.png,trial_left_image,1,exp1.png,1,exp1.png,exp2.png,1,3,reversed,correct,0.012048779543387789,0,invalid_lose,11.716410599998198,0,,,,,,,,,,,,,,,,sub_529,2024-09-16_11h35.56.405,Reversal,2022.1.2,60.0194703246862,1,
1,exp3.png,exp4.png,,0,0,0,0,0,1,1,1,,,,,,,,,,,,,,,,,,,,,,,,,False,1,2,True,exp4.png,exp3.png,trial_right_image,-1,exp3.png,1,exp3.png,exp4.png,1,1,non-reversed,correct,0.6264817434103318,1,valid_win,19.73239200003445,1,,,,,,,,,,,,,,,,sub_529,2024-09-16_11h35.56.405,Reversal,2022.1.2,60.0194703246862,1,
2,exp1.png,exp2.png,,0,0,0,0,0,2,2,2,,,,,,,,,,,,,,,,,,,,,,,,,False,2,3,False,exp1.png,exp2.png,trial_right_image,-1,exp2.png,1,exp1.png,exp2.png,0,4,reversed,incorrect,0.29555820076375783,0,valid_lose,25.91599580005277,1,,,,,,,,,,,,,,,,sub_529,2024-09-16_11h35.56.405,Reversal,2022.1.2,60.0194703246862,1,
3,exp3.png,exp4.png,,0,0,0,0,0,3,3,3,,,,,,,,,,,,,,,,,,,,,,,,,False,3,4,False,exp3.png,exp4.png,trial_right_image,-1,exp4.png,1,exp3.png,exp4.png,0,2,non-reversed,incorrect,0.2399496606339917,1,invalid_win,38.28281070000958,2,,,,,,,,,,,,,,,,sub_529,2024-09-16_11h35.56.405,Reversal,2022.1.2,60.0194703246862,1,
4,exp1.png,exp2.png,,0,0,0,0,0,4,4,4,,,,,,,,,,,,,,,,,,,,,,,,,False,4,5,True,exp2.png,exp1.png,trial_right_image,-1,exp1.png,1,exp1.png,exp2.png,1,3,reversed,correct,0.6068599901312076,1,valid_win,47.266187499975786,3,,,,,,,,,,,,,,,,sub_529,2024-09-16_11h35.56.405,Reversal,2022.1.2,60.0194703246862,1,
5,exp3.png,exp4.png,,0,0,0,0,0,5,5,5,,,,,,,,,,,,,,,,,,,,,,,,,False,5,6,False,exp3.png,exp4.png,trial_left_image,1,exp3.png,1,exp3.png,exp4.png,1,1,non-reversed,correct,0.1319021593569889,0,invalid_lose,53.31622410006821,3,,,,,,,,,,,,,,,,sub_529,2024-09-16_11h35.56.405,Reversal,2022.1.2,60.0194703246862,1,
6,exp1.png,exp2.png,,0,0,0,0,0,6,6,6,,,,,,,,,,,,,,,,,,,,,,,,,False,6,7,False,exp1.png,exp2.png,trial_right_image,-1,exp2.png,1,exp1.png,exp2.png,0,4,reversed,incorrect,0.2997440061148897,0,valid_lose,58.866374199977145,3,,,,,,,,,,,,,,,,sub_529,2024-09-16_11h35.56.405,Reversal,2022.1.2,60.0194703246862,1,
7,exp3.png,exp4.png,,0,0,0,0,0,7,7,7,,,,,,,,,,,,,,,,,,,,,,,,,False,7,8,True,exp4.png,exp3.png,trial_right_image,-1,exp3.png,1,exp3.png,exp4.png,1,1,non-reversed,correct,0.41491641127818335,1,valid_win,66.94867660000455,4,,,,,,,,,,,,,,,,sub_529,2024-09-16_11h35.56.405,Reversal,2022.1.2,60.0194703246862,1,
8,exp1.png,exp2.png,,0,0,0,0,0,8,8,8,,,,,,,,,,,,,,,,,,,,,,,,,False,8,9,False,exp1.png,exp2.png,trial_left_image,1,exp1.png,1,exp1.png,exp2.png,1,3,reversed,correct,0.29105470627480334,1,valid_win,71.36580799997319,5,,,,,,,,,,,,,,,,sub_529,2024-09-16_11h35.56.405,Reversal,2022.1.2,60.0194703246862,1,
9,exp3.png,exp4.png,,0,0,0,0,0,9,9,9,,,,,,,,,,,,,,,,,,,,,,,,,False,9,10,True,exp4.png,exp3.png,trial_right_image,-1,exp3.png,1,exp3.png,exp4.png,1,1,non-reversed,correct,0.7460724657583937,1,valid_win,75.53187010006513,6,,,,,,,,,,,,,,,,sub_529,2024-09-16_11h35.56.405,Reversal,2022.1.2,60.0194703246862,1,
10,exp1.png,exp2.png,,0,0,0,0,0,10,10,10,,,,,,,,,,,,,,,,,,,,,,,,,False,10,11,True,exp2.png,exp1.png,trial_left_image,1,exp2.png,1,exp1.png,exp2.png,0,4,reversed,incorrect,0.95139036933322,0,valid_lose,79.79875690001063,6,,,,,,,,,,,,,,,,sub_529,2024-09-16_11h35.56.405,Reversal,2022.1.2,60.0194703246862,1,
11,exp3.png,exp4.png,,0,0,0,0,0,11,11,11,,,,,,,,,,,,,,,,,,,,,,,,,False,11,12,False,exp3.png,exp4.png,trial_right_image,-1,exp4.png,1,exp3.png,exp4.png,0,2,non-reversed,incorrect,0.9492605977567813,0,valid_lose,86.31501410005149,6,,,,,,,,,,,,,,,,sub_529,2024-09-16_11h35.56.405,Reversal,2022.1.2,60.0194703246862,1,
12,exp1.png,exp2.png,,0,0,0,0,0,12,12,12,,,,,,,,,,,,,,,,,,,,,,,,,False,12,13,True,exp2.png,exp1.png,trial_right_image,-1,exp1.png,1,exp1.png,exp2.png,1,3,reversed,correct,0.6705501489505018,1,valid_win,92.24882820004132,7,,,,,,,,,,,,,,,,sub_529,2024-09-16_11h35.56.405,Reversal,2022.1.2,60.0194703246862,1,
13,exp3.png,exp4.png,,0,0,0,0,0,13,13,13,,,,,,,,,,,,,,,,,,,,,,,,,False,13,14,True,exp4.png,exp3.png,trial_left_image,1,exp4.png,1,exp3.png,exp4.png,0,2,non-reversed,incorrect,0.30423095415338386,0,valid_lose,96.61504160007462,7,,,,,,,,,,,,,,,,sub_529,2024-09-16_11h35.56.405,Reversal,2022.1.2,60.0194703246862,1,
14,exp1.png,exp2.png,,0,0,0,0,0,14,14,14,,,,,,,,,,,,,,,,,,,,,,,,,False,14,15,True,exp2.png,exp1.png,trial_left_image,1,exp2.png,1,exp1.png,exp2.png,0,4,reversed,incorrect,0.6517098237032503,0,valid_lose,104.54867839999497,7,,,,,,,,,,,,,,,,sub_529,2024-09-16_11h35.56.405,Reversal,2022.1.2,60.0194703246862,1,
15,exp3.png,exp4.png,,0,0,0,0,0,15,15,15,,,,,,,,,,,,,,,,,,,,,,,,,False,15,16,False,exp3.png,exp4.png,trial_left_image,1,exp3.png,1,exp3.png,exp4.png,1,1,non-reversed,correct,0.9107442269978339,1,valid_win,114.76474859996233,8,,,,,,,,,,,,,,,,sub_529,2024-09-16_11h35.56.405,Reversal,2022.1.2,60.0194703246862,1,
16,exp1.png,exp2.png,,0,0,0,0,0,16,16,16,,,,,,,,,,,,,,,,,,,,,,,,,False,16,17,False,exp1.png,exp2.png,trial_right_image,-1,exp2.png,1,exp1.png,exp2.png,0,4,reversed,incorrect,0.7506585750002296,0,valid_lose,123.4481717000017,8,,,,,,,,,,,,,,,,sub_529,2024-09-16_11h35.56.405,Reversal,2022.1.2,60.0194703246862,1,
17,exp3.png,exp4.png,,0,0,0,0,0,17,17,17,,,,,,,,,,,,,,,,,,,,,,,,,False,17,18,True,exp4.png,exp3.png,trial_left_image,1,exp4.png,1,exp3.png,exp4.png,0,2,non-reversed,incorrect,0.8454521831923664,0,valid_lose,128.29759600001853,8,,,,,,,,,,,,,,,,sub_529,2024-09-16_11h35.56.405,Reversal,2022.1.2,60.0194703246862,1,
18,exp1.png,exp2.png,,0,0,0,0,0,18,18,18,,,,,,,,,,,,,,,,,,,,,,,,,False,18,19,True,exp2.png,exp1.png,trial_left_image,1,exp2.png,1,exp1.png,exp2.png,0,4,reversed,incorrect,0.9936169160949085,0,valid_lose,132.43104260007385,8,,,,,,,,,,,,,,,,sub_529,2024-09-16_11h35.56.405,Reversal,2022.1.2,60.0194703246862,1,
19,exp3.png,exp4.png,,0,0,0,0,0,19,19,19,,,,,,,,,,,,,,,,,,,,,,,,,False,19,20,False,exp3.png,exp4.png,trial_left_image,1,exp3.png,1,exp3.png,exp4.png,1,1,non-reversed,correct,0.26455992512732984,1,valid_win,136.6146230000304,9,,,,,,,,,,,,,,,,sub_529,2024-09-16_11h35.56.405,Reversal,2022.1.2,60.0194703246862,1,
20,exp1.png,exp2.png,,0,0,0,0,0,20,20,20,,,,,,,,,,,,,,,,,,,,,,,,,True,,,,,,,,,,,,,,,,,,,,,,,,,,,,,,,,,,,,sub_529,2024-09-16_11h35.56.405,Reversal,2022.1.2,60.0194703246862,1,
,,,exp1.png,0,0,0,0,,,,,0,0,0,0,0,0,0,0,,,,,,,,,,,,,,,,,,,,,,,,,,,,,,,,,,,,,,50.0,None,[],203.45620349992532,None,,,,,,,,,,,sub_529,2024-09-16_11h35.56.405,Reversal,2022.1.2,60.0194703246862,1,
,,,exp2.png,0,0,0,0,,,,,0,0,0,0,0,1,1,1,,,,,,,,,,,,,,,,,,,,,,,,,,,,,,,,,,,,,,50.0,16.234219999983907,"[(47.0, 3.6341986000770703), (51.0, 6.270392299978994), (68.0, 14.267718799994327), (50.0, 16.234219999983907)]",216.6614394999342,None,50.0,,,,,,,,,,sub_529,2024-09-16_11h35.56.405,Reversal,2022.1.2,60.0194703246862,1,
,,,exp3.png,0,0,0,0,,,,,0,0,0,0,0,2,2,2,,,,,,,,,,,,,,,,,,,,,,,,,,,,,,,,,,,,,,50.0,None,[],239.59033289994113,None,,,,,,,,,,,sub_529,2024-09-16_11h35.56.405,Reversal,2022.1.2,60.0194703246862,1,
,,,exp4.png,0,0,0,0,,,,,0,0,0,0,0,3,3,3,,,,,,,,,,,,,,,,,,,,,,,,,,,,,,,,,,,,,,50.0,None,[],242.72195189993363,None,,,,,,,,,,,sub_529,2024-09-16_11h35.56.405,Reversal,2022.1.2,60.0194703246862,1,
0,exp1.png,exp2.png,,1,0,1,0,0,0,0,0,,,,,,,,,,,,,,,,,,,,,,,,,False,20,21,False,exp1.png,exp2.png,trial_right_image,-1,exp2.png,1,exp1.png,exp2.png,0,4,reversed,incorrect,0.5244562735524323,0,valid_lose,188.48012139997445,9,,,,,,,,,,,,,,,,sub_529,2024-09-16_11h35.56.405,Reversal,2022.1.2,60.0194703246862,1,
1,exp3.png,exp4.png,,1,0,1,0,0,1,1,1,,,,,,,,,,,,,,,,,,,,,,,,,False,21,22,True,exp4.png,exp3.png,trial_right_image,-1,exp3.png,1,exp3.png,exp4.png,1,1,non-reversed,correct,0.9166187097373283,1,valid_win,193.3297164000105,10,,,,,,,,,,,,,,,,sub_529,2024-09-16_11h35.56.405,Reversal,2022.1.2,60.0194703246862,1,
2,exp1.png,exp2.png,,1,0,1,0,0,2,2,2,,,,,,,,,,,,,,,,,,,,,,,,,False,22,23,False,exp1.png,exp2.png,trial_right_image,-1,exp2.png,1,exp1.png,exp2.png,0,4,reversed,incorrect,0.7704087465099299,0,valid_lose,199.89673100004438,10,,,,,,,,,,,,,,,,sub_529,2024-09-16_11h35.56.405,Reversal,2022.1.2,60.0194703246862,1,
3,exp3.png,exp4.png,,1,0,1,0,0,3,3,3,,,,,,,,,,,,,,,,,,,,,,,,,False,23,24,True,exp4.png,exp3.png,trial_right_image,-1,exp3.png,1,exp3.png,exp4.png,1,1,non-reversed,correct,0.8888948003777891,1,valid_win,204.0467810999835,11,,,,,,,,,,,,,,,,sub_529,2024-09-16_11h35.56.405,Reversal,2022.1.2,60.0194703246862,1,
4,exp1.png,exp2.png,,1,0,1,0,0,4,4,4,,,,,,,,,,,,,,,,,,,,,,,,,False,24,25,False,exp1.png,exp2.png,trial_left_image,1,exp1.png,1,exp1.png,exp2.png,1,3,reversed,correct,0.8319745479253687,1,valid_win,208.3962799999863,12,,,,,,,,,,,,,,,,sub_529,2024-09-16_11h35.56.405,Reversal,2022.1.2,60.0194703246862,1,
5,exp3.png,exp4.png,,1,0,1,0,0,5,5,5,,,,,,,,,,,,,,,,,,,,,,,,,False,25,26,True,exp4.png,exp3.png,trial_right_image,-1,exp3.png,1,exp3.png,exp4.png,1,1,non-reversed,correct,0.9632877760117268,1,valid_win,212.4970918999752,13,,,,,,,,,,,,,,,,sub_529,2024-09-16_11h35.56.405,Reversal,2022.1.2,60.0194703246862,1,
6,exp1.png,exp2.png,,1,0,1,0,0,6,6,6,,,,,,,,,,,,,,,,,,,,,,,,,False,26,27,True,exp2.png,exp1.png,trial_left_image,1,exp2.png,1,exp1.png,exp2.png,0,4,reversed,incorrect,0.4351184833093166,0,valid_lose,216.88000360003207,13,,,,,,,,,,,,,,,,sub_529,2024-09-16_11h35.56.405,Reversal,2022.1.2,60.0194703246862,1,
7,exp3.png,exp4.png,,1,0,1,0,0,7,7,7,,,,,,,,,,,,,,,,,,,,,,,,,False,27,28,False,exp3.png,exp4.png,trial_left_image,1,exp3.png,1,exp3.png,exp4.png,1,1,non-reversed,correct,0.39963192388972013,1,valid_win,221.11276729998644,14,,,,,,,,,,,,,,,,sub_529,2024-09-16_11h35.56.405,Reversal,2022.1.2,60.0194703246862,1,
8,exp1.png,exp2.png,,1,0,1,0,0,8,8,8,,,,,,,,,,,,,,,,,,,,,,,,,False,28,29,True,exp2.png,exp1.png,trial_right_image,-1,exp1.png,1,exp1.png,exp2.png,1,3,reversed,correct,0.4139725281403255,1,valid_win,225.31311600003392,15,,,,,,,,,,,,,,,,sub_529,2024-09-16_11h35.56.405,Reversal,2022.1.2,60.0194703246862,1,
9,exp3.png,exp4.png,,1,0,1,0,0,9,9,9,,,,,,,,,,,,,,,,,,,,,,,,,False,29,30,True,exp4.png,exp3.png,trial_left_image,1,exp4.png,1,exp3.png,exp4.png,0,2,non-reversed,incorrect,0.08130527868604598,1,invalid_win,229.52983600005973,16,,,,,,,,,,,,,,,,sub_529,2024-09-16_11h35.56.405,Reversal,2022.1.2,60.0194703246862,1,
10,exp1.png,exp2.png,,1,0,1,0,0,10,10,10,,,,,,,,,,,,,,,,,,,,,,,,,False,30,31,False,exp1.png,exp2.png,trial_right_image,-1,exp2.png,1,exp1.png,exp2.png,0,4,reversed,incorrect,0.973439377046501,0,valid_lose,233.67950480000582,16,,,,,,,,,,,,,,,,sub_529,2024-09-16_11h35.56.405,Reversal,2022.1.2,60.0194703246862,1,
11,exp3.png,exp4.png,,1,0,1,0,0,11,11,11,,,,,,,,,,,,,,,,,,,,,,,,,False,31,32,True,exp4.png,exp3.png,trial_right_image,-1,exp3.png,1,exp3.png,exp4.png,1,1,non-reversed,correct,0.930487177099097,1,valid_win,237.72926900000311,17,,,,,,,,,,,,,,,,sub_529,2024-09-16_11h35.56.405,Reversal,2022.1.2,60.0194703246862,1,
12,exp1.png,exp2.png,,1,0,1,0,0,12,12,12,,,,,,,,,,,,,,,,,,,,,,,,,False,32,33,False,exp1.png,exp2.png,trial_left_image,1,exp1.png,1,exp1.png,exp2.png,1,3,reversed,correct,0.7970299778694244,1,valid_win,241.8295150999911,18,,,,,,,,,,,,,,,,sub_529,2024-09-16_11h35.56.405,Reversal,2022.1.2,60.0194703246862,1,
13,exp3.png,exp4.png,,1,0,1,0,0,13,13,13,,,,,,,,,,,,,,,,,,,,,,,,,False,33,34,True,exp4.png,exp3.png,trial_right_image,-1,exp3.png,1,exp3.png,exp4.png,1,1,non-reversed,correct,0.07694877855899962,0,invalid_lose,245.81296999996994,18,,,,,,,,,,,,,,,,sub_529,2024-09-16_11h35.56.405,Reversal,2022.1.2,60.0194703246862,1,
14,exp1.png,exp2.png,,1,0,1,0,0,14,14,14,,,,,,,,,,,,,,,,,,,,,,,,,False,34,35,True,exp2.png,exp1.png,trial_right_image,-1,exp1.png,1,exp1.png,exp2.png,1,3,reversed,correct,0.9227116032157306,1,valid_win,249.91260979999788,19,,,,,,,,,,,,,,,,sub_529,2024-09-16_11h35.56.405,Reversal,2022.1.2,60.0194703246862,1,
15,exp3.png,exp4.png,,1,0,1,0,0,15,15,15,,,,,,,,,,,,,,,,,,,,,,,,,False,35,36,False,exp3.png,exp4.png,trial_left_image,1,exp3.png,1,exp3.png,exp4.png,1,1,non-reversed,correct,0.7318324157676489,1,valid_win,254.1127813999774,20,,,,,,,,,,,,,,,,sub_529,2024-09-16_11h35.56.405,Reversal,2022.1.2,60.0194703246862,1,
16,exp1.png,exp2.png,,1,0,1,0,0,16,16,16,,,,,,,,,,,,,,,,,,,,,,,,,False,36,37,True,exp2.png,exp1.png,trial_right_image,-1,exp1.png,1,exp1.png,exp2.png,1,3,reversed,correct,0.3523633352625003,1,valid_win,258.2625738000497,21,,,,,,,,,,,,,,,,sub_529,2024-09-16_11h35.56.405,Reversal,2022.1.2,60.0194703246862,1,
17,exp3.png,exp4.png,,1,0,1,0,0,17,17,17,,,,,,,,,,,,,,,,,,,,,,,,,False,37,38,False,exp3.png,exp4.png,trial_right_image,-1,exp4.png,1,exp3.png,exp4.png,0,2,non-reversed,incorrect,0.5713962251197937,0,valid_lose,262.378640800016,21,,,,,,,,,,,,,,,,sub_529,2024-09-16_11h35.56.405,Reversal,2022.1.2,60.0194703246862,1,
18,exp1.png,exp2.png,,1,0,1,0,0,18,18,18,,,,,,,,,,,,,,,,,,,,,,,,,False,38,39,False,exp1.png,exp2.png,trial_right_image,-1,exp2.png,1,exp1.png,exp2.png,0,4,reversed,incorrect,0.16343841513859314,1,invalid_win,266.42852910002694,22,,,,,,,,,,,,,,,,sub_529,2024-09-16_11h35.56.405,Reversal,2022.1.2,60.0194703246862,1,
19,exp3.png,exp4.png,,1,0,1,0,0,19,19,19,,,,,,,,,,,,,,,,,,,,,,,,,False,39,40,False,exp3.png,exp4.png,trial_left_image,1,exp3.png,1,exp3.png,exp4.png,1,1,non-reversed,correct,0.8694745805682579,1,valid_win,270.57923659996595,23,,,,,,,,,,,,,,,,sub_529,2024-09-16_11h35.56.405,Reversal,2022.1.2,60.0194703246862,1,
20,exp1.png,exp2.png,,1,0,1,0,0,20,20,20,,,,,,,,,,,,,,,,,,,,,,,,,True,,,,,,,,,,,,,,,,,,,,,,,,,,,,,,,,,,,,sub_529,2024-09-16_11h35.56.405,Reversal,2022.1.2,60.0194703246862,1,
,,,exp1.png,1,0,1,0,,,,,0,0,0,0,0,0,0,0,,,,,,,,,,,,,,,,,,,,,,,,,,,,,,,,,,,,,,50.0,None,[],337.4170931999106,None,,,,,,,,,,,sub_529,2024-09-16_11h35.56.405,Reversal,2022.1.2,60.0194703246862,1,
,,,exp2.png,1,0,1,0,,,,,0,0,0,0,0,1,1,1,,,,,,,,,,,,,,,,,,,,,,,,,,,,,,,,,,,,,,50.0,None,[],342.96930709993467,None,,,,,,,,,,,sub_529,2024-09-16_11h35.56.405,Reversal,2022.1.2,60.0194703246862,1,
,,,exp3.png,1,0,1,0,,,,,0,0,0,0,0,2,2,2,,,,,,,,,,,,,,,,,,,,,,,,,,,,,,,,,,,,,,50.0,None,[],345.41861339996103,None,,,,,,,,,,,sub_529,2024-09-16_11h35.56.405,Reversal,2022.1.2,60.0194703246862,1,
,,,exp4.png,1,0,1,0,,,,,0,0,0,0,0,3,3,3,,,,,,,,,,,,,,,,,,,,,,,,,,,,,,,,,,,,,,50.0,None,[],346.4022490999196,None,,,,,,,,,,,sub_529,2024-09-16_11h35.56.405,Reversal,2022.1.2,60.0194703246862,1,
0,exp1.png,exp2.png,,2,0,2,0,0,0,0,0,,,,,,,,,,,,,,,,,,,,,,,,,False,40,41,True,exp2.png,exp1.png,trial_right_image,-1,exp1.png,1,exp1.png,exp2.png,1,3,reversed,correct,0.1546990342155461,0,invalid_lose,289.078583399998,23,,,,,,,,,,,,,,,,sub_529,2024-09-16_11h35.56.405,Reversal,2022.1.2,60.0194703246862,1,
1,exp3.png,exp4.png,,2,0,2,0,0,1,1,1,,,,,,,,,,,,,,,,,,,,,,,,,False,41,42,False,exp3.png,exp4.png,trial_right_image,-1,exp4.png,1,exp3.png,exp4.png,0,2,non-reversed,incorrect,0.19688374663987973,1,invalid_win,294.8454725999618,24,,,,,,,,,,,,,,,,sub_529,2024-09-16_11h35.56.405,Reversal,2022.1.2,60.0194703246862,1,
2,exp1.png,exp2.png,,2,0,2,0,0,2,2,2,,,,,,,,,,,,,,,,,,,,,,,,,False,42,43,False,exp1.png,exp2.png,trial_left_image,1,exp1.png,1,exp1.png,exp2.png,1,3,reversed,correct,0.41351561550819116,1,valid_win,298.9286911999807,25,,,,,,,,,,,,,,,,sub_529,2024-09-16_11h35.56.405,Reversal,2022.1.2,60.0194703246862,1,
3,exp3.png,exp4.png,,2,0,2,0,0,3,3,3,,,,,,,,,,,,,,,,,,,,,,,,,False,43,44,True,exp4.png,exp3.png,trial_right_image,-1,exp3.png,1,exp3.png,exp4.png,1,1,non-reversed,correct,0.5925936097293152,1,valid_win,302.84486630000174,26,,,,,,,,,,,,,,,,sub_529,2024-09-16_11h35.56.405,Reversal,2022.1.2,60.0194703246862,1,
4,exp1.png,exp2.png,,2,0,2,0,0,4,4,4,,,,,,,,,,,,,,,,,,,,,,,,,False,44,45,False,exp1.png,exp2.png,trial_right_image,-1,exp2.png,1,exp1.png,exp2.png,0,4,reversed,incorrect,0.3491246762074073,0,valid_lose,306.77824370004237,26,,,,,,,,,,,,,,,,sub_529,2024-09-16_11h35.56.405,Reversal,2022.1.2,60.0194703246862,1,
5,exp3.png,exp4.png,,2,0,2,0,0,5,5,5,,,,,,,,,,,,,,,,,,,,,,,,,False,45,46,True,exp4.png,exp3.png,trial_right_image,-1,exp3.png,1,exp3.png,exp4.png,1,1,non-reversed,correct,0.9518420141900417,1,valid_win,310.66169139998965,27,,,,,,,,,,,,,,,,sub_529,2024-09-16_11h35.56.405,Reversal,2022.1.2,60.0194703246862,1,
6,exp1.png,exp2.png,,2,0,2,0,0,6,6,6,,,,,,,,,,,,,,,,,,,,,,,,,False,46,47,True,exp2.png,exp1.png,trial_left_image,1,exp2.png,1,exp1.png,exp2.png,0,4,reversed,incorrect,0.22446219383513422,1,invalid_win,314.6117467000149,28,,,,,,,,,,,,,,,,sub_529,2024-09-16_11h35.56.405,Reversal,2022.1.2,60.0194703246862,1,
7,exp3.png,exp4.png,,2,0,2,0,0,7,7,7,,,,,,,,,,,,,,,,,,,,,,,,,False,47,48,False,exp3.png,exp4.png,trial_right_image,-1,exp4.png,1,exp3.png,exp4.png,0,2,non-reversed,incorrect,0.6816279488088945,0,valid_lose,318.52827640005853,28,,,,,,,,,,,,,,,,sub_529,2024-09-16_11h35.56.405,Reversal,2022.1.2,60.0194703246862,1,
8,exp1.png,exp2.png,,2,0,2,0,0,8,8,8,,,,,,,,,,,,,,,,,,,,,,,,,False,48,49,True,exp2.png,exp1.png,trial_right_image,-1,exp1.png,1,exp1.png,exp2.png,1,3,reversed,correct,0.8223777148530467,1,valid_win,322.62854409997817,29,,,,,,,,,,,,,,,,sub_529,2024-09-16_11h35.56.405,Reversal,2022.1.2,60.0194703246862,1,
9,exp3.png,exp4.png,,2,0,2,0,0,9,9,9,,,,,,,,,,,,,,,,,,,,,,,,,False,49,50,False,exp3.png,exp4.png,trial_left_image,1,exp3.png,1,exp3.png,exp4.png,1,1,non-reversed,correct,0.9709260539337953,1,valid_win,326.72786460001953,30,,,,,,,,,,,,,,,,sub_529,2024-09-16_11h35.56.405,Reversal,2022.1.2,60.0194703246862,1,
10,exp1.png,exp2.png,,2,0,2,0,0,10,10,10,,,,,,,,,,,,,,,,,,,,,,,,,False,50,51,True,exp2.png,exp1.png,trial_right_image,-1,exp1.png,1,exp1.png,exp2.png,1,3,reversed,correct,0.09159053617858637,0,invalid_lose,330.6442369000288,30,,,,,,,,,,,,,,,,sub_529,2024-09-16_11h35.56.405,Reversal,2022.1.2,60.0194703246862,1,
11,exp3.png,exp4.png,,2,0,2,0,0,11,11,11,,,,,,,,,,,,,,,,,,,,,,,,,False,51,52,True,exp4.png,exp3.png,trial_right_image,-1,exp3.png,1,exp3.png,exp4.png,1,1,non-reversed,correct,0.7640684745479966,1,valid_win,334.6613653000677,31,,,,,,,,,,,,,,,,sub_529,2024-09-16_11h35.56.405,Reversal,2022.1.2,60.0194703246862,1,
12,exp1.png,exp2.png,,2,0,2,0,0,12,12,12,,,,,,,,,,,,,,,,,,,,,,,,,False,52,53,False,exp1.png,exp2.png,trial_left_image,1,exp1.png,1,exp1.png,exp2.png,1,3,reversed,correct,0.7325674143261856,1,valid_win,338.7115836000303,32,,,,,,,,,,,,,,,,sub_529,2024-09-16_11h35.56.405,Reversal,2022.1.2,60.0194703246862,1,
13,exp3.png,exp4.png,,2,0,2,0,0,13,13,13,,,,,,,,,,,,,,,,,,,,,,,,,False,53,54,False,exp3.png,exp4.png,trial_right_image,-1,exp4.png,1,exp3.png,exp4.png,0,2,non-reversed,incorrect,0.6146573552591413,0,valid_lose,342.62834940000903,32,,,,,,,,,,,,,,,,sub_529,2024-09-16_11h35.56.405,Reversal,2022.1.2,60.0194703246862,1,
14,exp1.png,exp2.png,,2,0,2,0,0,14,14,14,,,,,,,,,,,,,,,,,,,,,,,,,False,54,55,False,exp1.png,exp2.png,trial_right_image,-1,exp2.png,1,exp1.png,exp2.png,0,4,reversed,incorrect,0.8660603333201734,0,valid_lose,346.5779574000044,32,,,,,,,,,,,,,,,,sub_529,2024-09-16_11h35.56.405,Reversal,2022.1.2,60.0194703246862,1,
15,exp3.png,exp4.png,,2,0,2,0,0,15,15,15,,,,,,,,,,,,,,,,,,,,,,,,,False,55,56,True,exp4.png,exp3.png,trial_left_image,1,exp4.png,1,exp3.png,exp4.png,0,2,non-reversed,incorrect,0.8983738248085045,0,valid_lose,350.92773710004985,32,,,,,,,,,,,,,,,,sub_529,2024-09-16_11h35.56.405,Reversal,2022.1.2,60.0194703246862,1,
16,exp1.png,exp2.png,,2,0,2,0,0,16,16,16,,,,,,,,,,,,,,,,,,,,,,,,,False,56,57,False,exp1.png,exp2.png,trial_right_image,-1,exp2.png,1,exp1.png,exp2.png,0,4,reversed,incorrect,0.31696532240314423,0,valid_lose,354.8275883999886,32,,,,,,,,,,,,,,,,sub_529,2024-09-16_11h35.56.405,Reversal,2022.1.2,60.0194703246862,1,
17,exp3.png,exp4.png,,2,0,2,0,0,17,17,17,,,,,,,,,,,,,,,,,,,,,,,,,False,57,58,True,exp4.png,exp3.png,trial_right_image,-1,exp3.png,1,exp3.png,exp4.png,1,1,non-reversed,correct,0.8028167815627595,1,valid_win,359.4111431000056,33,,,,,,,,,,,,,,,,sub_529,2024-09-16_11h35.56.405,Reversal,2022.1.2,60.0194703246862,1,
18,exp1.png,exp2.png,,2,0,2,0,0,18,18,18,,,,,,,,,,,,,,,,,,,,,,,,,False,58,59,False,exp1.png,exp2.png,trial_right_image,-1,exp2.png,1,exp1.png,exp2.png,0,4,reversed,incorrect,0.5069678971796935,0,valid_lose,363.86066330003086,33,,,,,,,,,,,,,,,,sub_529,2024-09-16_11h35.56.405,Reversal,2022.1.2,60.0194703246862,1,
19,exp3.png,exp4.png,,2,0,2,0,0,19,19,19,,,,,,,,,,,,,,,,,,,,,,,,,False,59,60,True,exp4.png,exp3.png,trial_right_image,-1,exp3.png,1,exp3.png,exp4.png,1,1,non-reversed,correct,0.6455666667212859,1,valid_win,368.27734000002965,34,,,,,,,,,,,,,,,,sub_529,2024-09-16_11h35.56.405,Reversal,2022.1.2,60.0194703246862,1,
20,exp1.png,exp2.png,,2,0,2,0,0,20,20,20,,,,,,,,,,,,,,,,,,,,,,,,,True,,,,,,,,,,,,,,,,,,,,,,,,,,,,,,,,,,,,sub_529,2024-09-16_11h35.56.405,Reversal,2022.1.2,60.0194703246862,1,
,,,exp1.png,2,0,2,0,,,,,0,0,0,0,0,0,0,0,,,,,,,,,,,,,,,,,,,,,,,,,,,,,,,,,,,,,,50.0,None,[],435.11981679999735,None,,,,,,,,,,,sub_529,2024-09-16_11h35.56.405,Reversal,2022.1.2,60.0194703246862,1,
,,,exp2.png,2,0,2,0,,,,,0,0,0,0,0,1,1,1,,,,,,,,,,,,,,,,,,,,,,,,,,,,,,,,,,,,,,50.0,None,[],441.4168447999982,None,,,,,,,,,,,sub_529,2024-09-16_11h35.56.405,Reversal,2022.1.2,60.0194703246862,1,
,,,exp3.png,2,0,2,0,,,,,0,0,0,0,0,2,2,2,,,,,,,,,,,,,,,,,,,,,,,,,,,,,,,,,,,,,,50.0,None,[],443.20213160000276,None,,,,,,,,,,,sub_529,2024-09-16_11h35.56.405,Reversal,2022.1.2,60.0194703246862,1,
,,,exp4.png,2,0,2,0,,,,,0,0,0,0,0,3,3,3,,,,,,,,,,,,,,,,,,,,,,,,,,,,,,,,,,,,,,50.0,None,[],446.4511511999881,None,,,,,,,,,,,sub_529,2024-09-16_11h35.56.405,Reversal,2022.1.2,60.0194703246862,1,
0,exp1.png,exp2.png,,3,0,3,0,0,0,0,0,,,,,,,,,,,,,,,,,,,,,,,,,False,60,61,True,exp2.png,exp1.png,trial_right_image,-1,exp1.png,1,exp1.png,exp2.png,1,3,reversed,correct,0.10236861516759277,0,invalid_lose,386.8099091000622,34,,,,,,,,,,,,,,,,sub_529,2024-09-16_11h35.56.405,Reversal,2022.1.2,60.0194703246862,1,
1,exp3.png,exp4.png,,3,0,3,0,0,1,1,1,,,,,,,,,,,,,,,,,,,,,,,,,False,61,62,False,exp3.png,exp4.png,trial_left_image,1,exp3.png,1,exp3.png,exp4.png,1,1,non-reversed,correct,0.4497817014347347,1,valid_win,394.86013599997386,35,,,,,,,,,,,,,,,,sub_529,2024-09-16_11h35.56.405,Reversal,2022.1.2,60.0194703246862,1,
2,exp1.png,exp2.png,,3,0,3,0,0,2,2,2,,,,,,,,,,,,,,,,,,,,,,,,,False,62,63,True,exp2.png,exp1.png,trial_left_image,1,exp2.png,1,exp1.png,exp2.png,0,4,reversed,incorrect,0.4353802561800747,0,valid_lose,399.593561100075,35,,,,,,,,,,,,,,,,sub_529,2024-09-16_11h35.56.405,Reversal,2022.1.2,60.0194703246862,1,
3,exp3.png,exp4.png,,3,0,3,0,0,3,3,3,,,,,,,,,,,,,,,,,,,,,,,,,False,63,64,True,exp4.png,exp3.png,trial_right_image,-1,exp3.png,1,exp3.png,exp4.png,1,1,non-reversed,correct,0.2513725789538691,1,valid_win,406.3599989999784,36,,,,,,,,,,,,,,,,sub_529,2024-09-16_11h35.56.405,Reversal,2022.1.2,60.0194703246862,1,
4,exp1.png,exp2.png,,3,0,3,0,0,4,4,4,,,,,,,,,,,,,,,,,,,,,,,,,False,64,65,True,exp2.png,exp1.png,trial_right_image,-1,exp1.png,1,exp1.png,exp2.png,1,3,reversed,correct,0.4800652982532372,1,valid_win,414.22620150004514,37,,,,,,,,,,,,,,,,sub_529,2024-09-16_11h35.56.405,Reversal,2022.1.2,60.0194703246862,1,
5,exp3.png,exp4.png,,3,0,3,0,0,5,5,5,,,,,,,,,,,,,,,,,,,,,,,,,False,65,66,False,exp3.png,exp4.png,trial_left_image,1,exp3.png,1,exp3.png,exp4.png,1,1,non-reversed,correct,0.039274587038375275,0,invalid_lose,418.9098703999771,37,,,,,,,,,,,,,,,,sub_529,2024-09-16_11h35.56.405,Reversal,2022.1.2,60.0194703246862,1,
6,exp1.png,exp2.png,,3,0,3,0,0,6,6,6,,,,,,,,,,,,,,,,,,,,,,,,,False,66,67,False,exp1.png,exp2.png,trial_right_image,-1,exp2.png,1,exp1.png,exp2.png,0,4,reversed,incorrect,0.1186045396146298,1,invalid_win,425.1095242999727,38,,,,,,,,,,,,,,,,sub_529,2024-09-16_11h35.56.405,Reversal,2022.1.2,60.0194703246862,1,
7,exp3.png,exp4.png,,3,0,3,0,0,7,7,7,,,,,,,,,,,,,,,,,,,,,,,,,False,67,68,False,exp3.png,exp4.png,trial_right_image,-1,exp4.png,1,exp3.png,exp4.png,0,2,non-reversed,incorrect,0.628899838965633,0,valid_lose,432.7925088000484,38,,,,,,,,,,,,,,,,sub_529,2024-09-16_11h35.56.405,Reversal,2022.1.2,60.0194703246862,1,
8,exp1.png,exp2.png,,3,0,3,0,0,8,8,8,,,,,,,,,,,,,,,,,,,,,,,,,False,68,69,False,exp1.png,exp2.png,trial_left_image,1,exp1.png,1,exp1.png,exp2.png,1,3,reversed,correct,0.6255394487536484,1,valid_win,439.12544770003296,39,,,,,,,,,,,,,,,,sub_529,2024-09-16_11h35.56.405,Reversal,2022.1.2,60.0194703246862,1,
9,exp3.png,exp4.png,,3,0,3,0,0,9,9,9,,,,,,,,,,,,,,,,,,,,,,,,,False,69,70,False,exp3.png,exp4.png,trial_left_image,1,exp3.png,1,exp3.png,exp4.png,1,1,non-reversed,correct,0.30037946841508134,1,valid_win,443.9259880000027,40,,,,,,,,,,,,,,,,sub_529,2024-09-16_11h35.56.405,Reversal,2022.1.2,60.0194703246862,1,
10,exp1.png,exp2.png,,3,0,3,0,0,10,10,10,,,,,,,,,,,,,,,,,,,,,,,,,False,70,71,False,exp1.png,exp2.png,trial_right_image,-1,exp2.png,1,exp1.png,exp2.png,0,4,reversed,incorrect,0.7511386693000452,0,valid_lose,448.3422330999747,40,,,,,,,,,,,,,,,,sub_529,2024-09-16_11h35.56.405,Reversal,2022.1.2,60.0194703246862,1,
11,exp3.png,exp4.png,,3,0,3,0,0,11,11,11,,,,,,,,,,,,,,,,,,,,,,,,,False,71,72,False,exp3.png,exp4.png,trial_right_image,-1,exp4.png,1,exp3.png,exp4.png,0,2,non-reversed,incorrect,0.09698475064444223,1,invalid_win,452.6256357000675,41,,,,,,,,,,,,,,,,sub_529,2024-09-16_11h35.56.405,Reversal,2022.1.2,60.0194703246862,1,
12,exp1.png,exp2.png,,3,0,3,0,0,12,12,12,,,,,,,,,,,,,,,,,,,,,,,,,False,72,73,True,exp2.png,exp1.png,trial_right_image,-1,exp1.png,1,exp1.png,exp2.png,1,3,reversed,correct,0.502387467987182,1,valid_win,458.5085056000389,42,,,,,,,,,,,,,,,,sub_529,2024-09-16_11h35.56.405,Reversal,2022.1.2,60.0194703246862,1,
13,exp3.png,exp4.png,,3,0,3,0,0,13,13,13,,,,,,,,,,,,,,,,,,,,,,,,,False,73,74,True,exp4.png,exp3.png,trial_left_image,1,exp4.png,1,exp3.png,exp4.png,0,2,non-reversed,incorrect,0.35521825195792667,0,valid_lose,465.80874420003965,42,,,,,,,,,,,,,,,,sub_529,2024-09-16_11h35.56.405,Reversal,2022.1.2,60.0194703246862,1,
14,exp1.png,exp2.png,,3,0,3,0,0,14,14,14,,,,,,,,,,,,,,,,,,,,,,,,,False,74,75,False,exp1.png,exp2.png,trial_right_image,-1,exp2.png,1,exp1.png,exp2.png,0,4,reversed,incorrect,0.8643811547532383,0,valid_lose,474.3585253000492,42,,,,,,,,,,,,,,,,sub_529,2024-09-16_11h35.56.405,Reversal,2022.1.2,60.0194703246862,1,
15,exp3.png,exp4.png,,3,0,3,0,0,15,15,15,,,,,,,,,,,,,,,,,,,,,,,,,False,75,76,True,exp4.png,exp3.png,trial_left_image,1,exp4.png,1,exp3.png,exp4.png,0,2,non-reversed,incorrect,0.4778219017279526,0,valid_lose,479.8250610000687,42,,,,,,,,,,,,,,,,sub_529,2024-09-16_11h35.56.405,Reversal,2022.1.2,60.0194703246862,1,
16,exp1.png,exp2.png,,3,0,3,0,0,16,16,16,,,,,,,,,,,,,,,,,,,,,,,,,False,76,77,True,exp2.png,exp1.png,trial_right_image,-1,exp1.png,1,exp1.png,exp2.png,1,3,reversed,correct,0.46276520386693176,1,valid_win,484.2755584999686,43,,,,,,,,,,,,,,,,sub_529,2024-09-16_11h35.56.405,Reversal,2022.1.2,60.0194703246862,1,
17,exp3.png,exp4.png,,3,0,3,0,0,17,17,17,,,,,,,,,,,,,,,,,,,,,,,,,False,77,78,True,exp4.png,exp3.png,trial_right_image,-1,exp3.png,1,exp3.png,exp4.png,1,1,non-reversed,correct,0.051403709488461624,0,invalid_lose,491.1413756000111,43,,,,,,,,,,,,,,,,sub_529,2024-09-16_11h35.56.405,Reversal,2022.1.2,60.0194703246862,1,
18,exp1.png,exp2.png,,3,0,3,0,0,18,18,18,,,,,,,,,,,,,,,,,,,,,,,,,False,78,79,False,exp1.png,exp2.png,trial_right_image,-1,exp2.png,1,exp1.png,exp2.png,0,4,reversed,incorrect,0.5041365907135263,0,valid_lose,498.0252581000095,43,,,,,,,,,,,,,,,,sub_529,2024-09-16_11h35.56.405,Reversal,2022.1.2,60.0194703246862,1,
19,exp3.png,exp4.png,,3,0,3,0,0,19,19,19,,,,,,,,,,,,,,,,,,,,,,,,,False,79,80,True,exp4.png,exp3.png,trial_left_image,1,exp4.png,1,exp3.png,exp4.png,0,2,non-reversed,incorrect,0.3284903474775376,0,valid_lose,503.2749333999818,43,,,,,,,,,,,,,,,,sub_529,2024-09-16_11h35.56.405,Reversal,2022.1.2,60.0194703246862,1,
20,exp1.png,exp2.png,,3,0,3,0,0,20,20,20,,,,,,,,,,,,,,,,,,,,,,,,,True,,,,,,,,,,,,,,,,,,,,,,,,,,,,,,,,,,,,sub_529,2024-09-16_11h35.56.405,Reversal,2022.1.2,60.0194703246862,1,
,,,exp1.png,3,0,3,0,,,,,0,0,0,0,0,0,0,0,,,,,,,,,,,,,,,,,,,,,,,,,,,,,,,,,,,,,,50.0,None,[],570.1149579000194,None,,,,,,,,,,,sub_529,2024-09-16_11h35.56.405,Reversal,2022.1.2,60.0194703246862,1,
,,,exp2.png,3,0,3,0,,,,,0,0,0,0,0,1,1,1,,,,,,,,,,,,,,,,,,,,,,,,,,,,,,,,,,,,,,50.0,None,[],575.4340661999304,None,,,,,,,,,,,sub_529,2024-09-16_11h35.56.405,Reversal,2022.1.2,60.0194703246862,1,
,,,exp3.png,3,0,3,0,,,,,0,0,0,0,0,2,2,2,,,,,,,,,,,,,,,,,,,,,,,,,,,,,,,,,,,,,,50.0,None,[],582.4845992999617,None,,,,,,,,,,,sub_529,2024-09-16_11h35.56.405,Reversal,2022.1.2,60.0194703246862,1,
,,,exp4.png,3,0,3,0,,,,,0,0,0,0,0,3,3,3,,,,,,,,,,,,,,,,,,,,,,,,,,,,,,,,,,,,,,50.0,None,[],584.8027455999982,None,,,,,,,,,,,sub_529,2024-09-16_11h35.56.405,Reversal,2022.1.2,60.0194703246862,1,
0,exp1.png,exp2.png,,,,,,,,,,,,,,,,,,0,0,0,0,0,0,0,0,,,,,,,,,False,0,81,False,exp1.png,exp2.png,trial_left_image,1,exp1.png,1,exp2.png,exp1.png,1,3,reversed,incorrect,0.9114580271470132,0,valid_lose,524.5582837000256,43,,,,,,,522.4773926000344,,,,,,,,,sub_529,2024-09-16_11h35.56.405,Reversal,2022.1.2,60.0194703246862,1,
1,exp3.png,exp4.png,,,,,,,,,,,,,,,,,,0,0,0,0,0,1,1,1,,,,,,,,,False,1,82,False,exp3.png,exp4.png,trial_right_image,-1,exp4.png,1,exp3.png,exp4.png,0,2,non-reversed,incorrect,0.06985423741559571,1,invalid_win,530.3080359000014,44,,,,,,,,,,,,,,,,sub_529,2024-09-16_11h35.56.405,Reversal,2022.1.2,60.0194703246862,1,
2,exp1.png,exp2.png,,,,,,,,,,,,,,,,,,0,0,0,0,0,2,2,2,,,,,,,,,False,2,83,True,exp2.png,exp1.png,trial_right_image,-1,exp1.png,1,exp2.png,exp1.png,1,3,reversed,incorrect,0.7109298018825194,0,valid_lose,537.9078558000037,44,,,,,,,,,,,,,,,,sub_529,2024-09-16_11h35.56.405,Reversal,2022.1.2,60.0194703246862,1,
3,exp3.png,exp4.png,,,,,,,,,,,,,,,,,,0,0,0,0,0,3,3,3,,,,,,,,,False,3,84,False,exp3.png,exp4.png,trial_right_image,-1,exp4.png,1,exp3.png,exp4.png,0,2,non-reversed,incorrect,0.5810569681133975,0,valid_lose,543.0742989999708,44,,,,,,,,,,,,,,,,sub_529,2024-09-16_11h35.56.405,Reversal,2022.1.2,60.0194703246862,1,
4,exp1.png,exp2.png,,,,,,,,,,,,,,,,,,0,0,0,0,0,4,4,4,,,,,,,,,False,4,85,True,exp2.png,exp1.png,trial_right_image,-1,exp1.png,1,exp2.png,exp1.png,1,3,reversed,incorrect,0.9725558956737133,0,valid_lose,547.5076619000174,44,,,,,,,,,,,,,,,,sub_529,2024-09-16_11h35.56.405,Reversal,2022.1.2,60.0194703246862,1,
5,exp3.png,exp4.png,,,,,,,,,,,,,,,,,,0,0,0,0,0,5,5,5,,,,,,,,,False,5,86,True,exp4.png,exp3.png,trial_left_image,1,exp4.png,1,exp3.png,exp4.png,0,2,non-reversed,incorrect,0.4244193110497312,0,valid_lose,553.1404069999699,44,,,,,,,,,,,,,,,,sub_529,2024-09-16_11h35.56.405,Reversal,2022.1.2,60.0194703246862,1,
6,exp1.png,exp2.png,,,,,,,,,,,,,,,,,,0,0,0,0,0,6,6,6,,,,,,,,,False,6,87,False,exp1.png,exp2.png,trial_left_image,1,exp1.png,1,exp2.png,exp1.png,1,3,reversed,incorrect,0.057873768069619524,1,invalid_win,561.2076381000225,45,,,,,,,,,,,,,,,,sub_529,2024-09-16_11h35.56.405,Reversal,2022.1.2,60.0194703246862,1,
7,exp3.png,exp4.png,,,,,,,,,,,,,,,,,,0,0,0,0,0,7,7,7,,,,,,,,,False,7,88,False,exp3.png,exp4.png,trial_left_image,1,exp3.png,1,exp3.png,exp4.png,1,1,non-reversed,correct,0.7919734077336126,1,valid_win,566.8739263999742,46,,,,,,,,,,,,,,,,sub_529,2024-09-16_11h35.56.405,Reversal,2022.1.2,60.0194703246862,1,
8,exp1.png,exp2.png,,,,,,,,,,,,,,,,,,0,0,0,0,0,8,8,8,,,,,,,,,False,8,89,True,exp2.png,exp1.png,trial_left_image,1,exp2.png,1,exp2.png,exp1.png,0,4,reversed,correct,0.2273869365186545,0,invalid_lose,572.8401895000134,46,,,,,,,,,,,,,,,,sub_529,2024-09-16_11h35.56.405,Reversal,2022.1.2,60.0194703246862,1,
9,exp3.png,exp4.png,,,,,,,,,,,,,,,,,,0,0,0,0,0,9,9,9,,,,,,,,,False,9,90,True,exp4.png,exp3.png,trial_right_image,-1,exp3.png,1,exp3.png,exp4.png,1,1,non-reversed,correct,0.46082590660749523,1,valid_win,579.7566399000352,47,,,,,,,,,,,,,,,,sub_529,2024-09-16_11h35.56.405,Reversal,2022.1.2,60.0194703246862,1,
10,exp1.png,exp2.png,,,,,,,,,,,,,,,,,,0,0,0,0,0,10,10,10,,,,,,,,,False,10,91,True,exp2.png,exp1.png,trial_right_image,-1,exp1.png,1,exp2.png,exp1.png,1,3,reversed,incorrect,0.7324983571588188,0,valid_lose,584.0903867000015,47,,,,,,,,,,,,,,,,sub_529,2024-09-16_11h35.56.405,Reversal,2022.1.2,60.0194703246862,1,
11,exp3.png,exp4.png,,,,,,,,,,,,,,,,,,0,0,0,0,0,11,11,11,,,,,,,,,False,11,92,True,exp4.png,exp3.png,trial_left_image,1,exp4.png,1,exp3.png,exp4.png,0,2,non-reversed,incorrect,0.5715296402752832,0,valid_lose,589.4403172000311,47,,,,,,,,,,,,,,,,sub_529,2024-09-16_11h35.56.405,Reversal,2022.1.2,60.0194703246862,1,
12,exp1.png,exp2.png,,,,,,,,,,,,,,,,,,0,0,0,0,0,12,12,12,,,,,,,,,False,12,93,True,exp2.png,exp1.png,trial_right_image,-1,exp1.png,1,exp2.png,exp1.png,1,3,reversed,incorrect,0.347648201630815,0,valid_lose,594.240144600044,47,,,,,,,,,,,,,,,,sub_529,2024-09-16_11h35.56.405,Reversal,2022.1.2,60.0194703246862,1,
13,exp3.png,exp4.png,,,,,,,,,,,,,,,,,,0,0,0,0,0,13,13,13,,,,,,,,,False,13,94,True,exp4.png,exp3.png,trial_right_image,-1,exp3.png,1,exp3.png,exp4.png,1,1,non-reversed,correct,0.02413678792885554,0,invalid_lose,599.3900906000054,47,,,,,,,,,,,,,,,,sub_529,2024-09-16_11h35.56.405,Reversal,2022.1.2,60.0194703246862,1,
14,exp1.png,exp2.png,,,,,,,,,,,,,,,,,,0,0,0,0,0,14,14,14,,,,,,,,,False,14,95,True,exp2.png,exp1.png,trial_right_image,-1,exp1.png,1,exp2.png,exp1.png,1,3,reversed,incorrect,0.7157688628688349,0,valid_lose,604.390431900043,47,,,,,,,,,,,,,,,,sub_529,2024-09-16_11h35.56.405,Reversal,2022.1.2,60.0194703246862,1,
15,exp3.png,exp4.png,,,,,,,,,,,,,,,,,,0,0,0,0,0,15,15,15,,,,,,,,,False,15,96,False,exp3.png,exp4.png,trial_right_image,-1,exp4.png,1,exp3.png,exp4.png,0,2,non-reversed,incorrect,0.4099337284539728,0,valid_lose,608.2731415000744,47,,,,,,,,,,,,,,,,sub_529,2024-09-16_11h35.56.405,Reversal,2022.1.2,60.0194703246862,1,
16,exp1.png,exp2.png,,,,,,,,,,,,,,,,,,0,0,0,0,0,16,16,16,,,,,,,,,False,16,97,False,exp1.png,exp2.png,trial_left_image,1,exp1.png,1,exp2.png,exp1.png,1,3,reversed,incorrect,0.2439453780459484,1,invalid_win,612.2898128000088,48,,,,,,,,,,,,,,,,sub_529,2024-09-16_11h35.56.405,Reversal,2022.1.2,60.0194703246862,1,
17,exp3.png,exp4.png,,,,,,,,,,,,,,,,,,0,0,0,0,0,17,17,17,,,,,,,,,False,17,98,False,exp3.png,exp4.png,trial_right_image,-1,exp4.png,1,exp3.png,exp4.png,0,2,non-reversed,incorrect,0.3558016192437462,0,valid_lose,616.5568950000452,48,,,,,,,,,,,,,,,,sub_529,2024-09-16_11h35.56.405,Reversal,2022.1.2,60.0194703246862,1,
18,exp1.png,exp2.png,,,,,,,,,,,,,,,,,,0,0,0,0,0,18,18,18,,,,,,,,,False,18,99,False,exp1.png,exp2.png,trial_right_image,-1,exp2.png,1,exp2.png,exp1.png,0,4,reversed,correct,0.5393324945668512,1,valid_win,621.6398821000475,49,,,,,,,,,,,,,,,,sub_529,2024-09-16_11h35.56.405,Reversal,2022.1.2,60.0194703246862,1,
19,exp3.png,exp4.png,,,,,,,,,,,,,,,,,,0,0,0,0,0,19,19,19,,,,,,,,,False,19,100,False,exp3.png,exp4.png,trial_right_image,-1,exp4.png,1,exp3.png,exp4.png,0,2,non-reversed,incorrect,0.7378712268856569,0,valid_lose,626.7055010000477,49,,,,,,,,,,,,,,,,sub_529,2024-09-16_11h35.56.405,Reversal,2022.1.2,60.0194703246862,1,
20,exp1.png,exp2.png,,,,,,,,,,,,,,,,,,0,0,0,0,0,20,20,20,,,,,,,,,True,,,,,,,,,,,,,,,,,,,,,,,,,,,,,,,,,,,,sub_529,2024-09-16_11h35.56.405,Reversal,2022.1.2,60.0194703246862,1,
,,,exp1.png,,,,,,,,,,,,,,,,,0,0,0,0,,,,,0,0,0,0,0,0,0,0,,,,,,,,,,,,,,,,,,,,,,50.0,None,[],693.5449023999972,None,,,,,,,,,,,sub_529,2024-09-16_11h35.56.405,Reversal,2022.1.2,60.0194703246862,1,
,,,exp2.png,,,,,,,,,,,,,,,,,0,0,0,0,,,,,0,0,0,0,0,1,1,1,,,,,,,,,,,,,,,,,,,,,,25.0,2.199116399977356,"[(25.0, 2.199116399977356)]",706.3037005999358,None,25.0,,,,,,,,,,sub_529,2024-09-16_11h35.56.405,Reversal,2022.1.2,60.0194703246862,1,
,,,exp3.png,,,,,,,,,,,,,,,,,0,0,0,0,,,,,0,0,0,0,0,2,2,2,,,,,,,,,,,,,,,,,,,,,,21.0,7.09845450008288,"[(21.0, 7.09845450008288)]",709.8484229999594,None,,,21.0,,,,,,,,sub_529,2024-09-16_11h35.56.405,Reversal,2022.1.2,60.0194703246862,1,
,,,exp4.png,,,,,,,,,,,,,,,,,0,0,0,0,,,,,0,0,0,0,0,3,3,3,,,,,,,,,,,,,,,,,,,,,,67.0,1.2846516000572592,"[(67.0, 1.2846516000572592)]",718.0512902999762,None,,,,67.0,,,,,,,sub_529,2024-09-16_11h35.56.405,Reversal,2022.1.2,60.0194703246862,1,
0,exp1.png,exp2.png,,,,,,,,,,,,,,,,,,1,0,1,0,0,0,0,0,,,,,,,,,False,20,101,True,exp2.png,exp1.png,trial_right_image,-1,exp1.png,1,exp2.png,exp1.png,1,3,reversed,incorrect,0.12872892663299607,1,invalid_win,658.1555548000615,50,,,,,,,,,,,,,,,,sub_529,2024-09-16_11h35.56.405,Reversal,2022.1.2,60.0194703246862,1,
1,exp3.png,exp4.png,,,,,,,,,,,,,,,,,,1,0,1,0,0,1,1,1,,,,,,,,,False,21,102,True,exp4.png,exp3.png,trial_left_image,1,exp4.png,1,exp3.png,exp4.png,0,2,non-reversed,incorrect,0.8884160143189616,0,valid_lose,668.9221754000755,50,,,,,,,,,,,,,,,,sub_529,2024-09-16_11h35.56.405,Reversal,2022.1.2,60.0194703246862,1,
2,exp1.png,exp2.png,,,,,,,,,,,,,,,,,,1,0,1,0,0,2,2,2,,,,,,,,,False,22,103,True,exp2.png,exp1.png,trial_right_image,-1,exp1.png,1,exp2.png,exp1.png,1,3,reversed,incorrect,0.6205965641258115,0,valid_lose,676.4221235000296,50,,,,,,,,,,,,,,,,sub_529,2024-09-16_11h35.56.405,Reversal,2022.1.2,60.0194703246862,1,
3,exp3.png,exp4.png,,,,,,,,,,,,,,,,,,1,0,1,0,0,3,3,3,,,,,,,,,False,23,104,False,exp3.png,exp4.png,trial_right_image,-1,exp4.png,1,exp3.png,exp4.png,0,2,non-reversed,incorrect,0.10040512717771855,1,invalid_win,680.7883551999694,51,,,,,,,,,,,,,,,,sub_529,2024-09-16_11h35.56.405,Reversal,2022.1.2,60.0194703246862,1,
4,exp1.png,exp2.png,,,,,,,,,,,,,,,,,,1,0,1,0,0,4,4,4,,,,,,,,,False,24,105,True,exp2.png,exp1.png,trial_left_image,1,exp2.png,1,exp2.png,exp1.png,0,4,reversed,correct,0.7825975521342032,1,valid_win,687.2219089000719,52,,,,,,,,,,,,,,,,sub_529,2024-09-16_11h35.56.405,Reversal,2022.1.2,60.0194703246862,1,
5,exp3.png,exp4.png,,,,,,,,,,,,,,,,,,1,0,1,0,0,5,5,5,,,,,,,,,False,25,106,True,exp4.png,exp3.png,trial_right_image,-1,exp3.png,1,exp3.png,exp4.png,1,1,non-reversed,correct,0.008519046651859763,0,invalid_lose,691.2380825000582,52,,,,,,,,,,,,,,,,sub_529,2024-09-16_11h35.56.405,Reversal,2022.1.2,60.0194703246862,1,
6,exp1.png,exp2.png,,,,,,,,,,,,,,,,,,1,0,1,0,0,6,6,6,,,,,,,,,False,26,107,False,exp1.png,exp2.png,trial_right_image,-1,exp2.png,1,exp2.png,exp1.png,0,4,reversed,correct,0.5291354917908146,1,valid_win,695.8390454000328,53,,,,,,,,,,,,,,,,sub_529,2024-09-16_11h35.56.405,Reversal,2022.1.2,60.0194703246862,1,
7,exp3.png,exp4.png,,,,,,,,,,,,,,,,,,1,0,1,0,0,7,7,7,,,,,,,,,False,27,108,False,exp3.png,exp4.png,trial_left_image,1,exp3.png,1,exp3.png,exp4.png,1,1,non-reversed,correct,0.3724745757698311,1,valid_win,700.5383191000437,54,,,,,,,,,,,,,,,,sub_529,2024-09-16_11h35.56.405,Reversal,2022.1.2,60.0194703246862,1,
8,exp1.png,exp2.png,,,,,,,,,,,,,,,,,,1,0,1,0,0,8,8,8,,,,,,,,,False,28,109,False,exp1.png,exp2.png,trial_right_image,-1,exp2.png,1,exp2.png,exp1.png,0,4,reversed,correct,0.21674823126551412,0,invalid_lose,707.7546234000474,54,,,,,,,,,,,,,,,,sub_529,2024-09-16_11h35.56.405,Reversal,2022.1.2,60.0194703246862,1,
9,exp3.png,exp4.png,,,,,,,,,,,,,,,,,,1,0,1,0,0,9,9,9,,,,,,,,,False,29,110,False,exp3.png,exp4.png,trial_right_image,-1,exp4.png,1,exp3.png,exp4.png,0,2,non-reversed,incorrect,0.8987487469115149,0,valid_lose,713.8546245000325,54,,,,,,,,,,,,,,,,sub_529,2024-09-16_11h35.56.405,Reversal,2022.1.2,60.0194703246862,1,
10,exp1.png,exp2.png,,,,,,,,,,,,,,,,,,1,0,1,0,0,10,10,10,,,,,,,,,False,30,111,False,exp1.png,exp2.png,trial_right_image,-1,exp2.png,1,exp2.png,exp1.png,0,4,reversed,correct,0.7634114029969061,1,valid_win,721.3219200000167,55,,,,,,,,,,,,,,,,sub_529,2024-09-16_11h35.56.405,Reversal,2022.1.2,60.0194703246862,1,
11,exp3.png,exp4.png,,,,,,,,,,,,,,,,,,1,0,1,0,0,11,11,11,,,,,,,,,False,31,112,True,exp4.png,exp3.png,trial_left_image,1,exp4.png,1,exp3.png,exp4.png,0,2,non-reversed,incorrect,0.6804664991736639,0,valid_lose,725.8545463000191,55,,,,,,,,,,,,,,,,sub_529,2024-09-16_11h35.56.405,Reversal,2022.1.2,60.0194703246862,1,
12,exp1.png,exp2.png,,,,,,,,,,,,,,,,,,1,0,1,0,0,12,12,12,,,,,,,,,False,32,113,True,exp2.png,exp1.png,trial_left_image,1,exp2.png,1,exp2.png,exp1.png,0,4,reversed,correct,0.4277998253119537,1,valid_win,733.1710684000282,56,,,,,,,,,,,,,,,,sub_529,2024-09-16_11h35.56.405,Reversal,2022.1.2,60.0194703246862,1,
13,exp3.png,exp4.png,,,,,,,,,,,,,,,,,,1,0,1,0,0,13,13,13,,,,,,,,,False,33,114,False,exp3.png,exp4.png,trial_right_image,-1,exp4.png,1,exp3.png,exp4.png,0,2,non-reversed,incorrect,0.9129896513472415,0,valid_lose,738.3042392999632,56,,,,,,,,,,,,,,,,sub_529,2024-09-16_11h35.56.405,Reversal,2022.1.2,60.0194703246862,1,
14,exp1.png,exp2.png,,,,,,,,,,,,,,,,,,1,0,1,0,0,14,14,14,,,,,,,,,False,34,115,False,exp1.png,exp2.png,trial_left_image,1,exp1.png,1,exp2.png,exp1.png,1,3,reversed,incorrect,0.9765889905720548,0,valid_lose,743.6541767000454,56,,,,,,,,,,,,,,,,sub_529,2024-09-16_11h35.56.405,Reversal,2022.1.2,60.0194703246862,1,
15,exp3.png,exp4.png,,,,,,,,,,,,,,,,,,1,0,1,0,0,15,15,15,,,,,,,,,False,35,116,True,exp4.png,exp3.png,trial_right_image,-1,exp3.png,1,exp3.png,exp4.png,1,1,non-reversed,correct,0.3810974723783749,1,valid_win,747.8041985000018,57,,,,,,,,,,,,,,,,sub_529,2024-09-16_11h35.56.405,Reversal,2022.1.2,60.0194703246862,1,
16,exp1.png,exp2.png,,,,,,,,,,,,,,,,,,1,0,1,0,0,16,16,16,,,,,,,,,False,36,117,True,exp2.png,exp1.png,trial_right_image,-1,exp1.png,1,exp2.png,exp1.png,1,3,reversed,incorrect,0.4495703322079587,0,valid_lose,752.087913800031,57,,,,,,,,,,,,,,,,sub_529,2024-09-16_11h35.56.405,Reversal,2022.1.2,60.0194703246862,1,
17,exp3.png,exp4.png,,,,,,,,,,,,,,,,,,1,0,1,0,0,17,17,17,,,,,,,,,False,37,118,True,exp4.png,exp3.png,trial_right_image,-1,exp3.png,1,exp3.png,exp4.png,1,1,non-reversed,correct,0.9126309253332471,1,valid_win,757.7041093000444,58,,,,,,,,,,,,,,,,sub_529,2024-09-16_11h35.56.405,Reversal,2022.1.2,60.0194703246862,1,
18,exp1.png,exp2.png,,,,,,,,,,,,,,,,,,1,0,1,0,0,18,18,18,,,,,,,,,False,38,119,False,exp1.png,exp2.png,trial_left_image,1,exp1.png,1,exp2.png,exp1.png,1,3,reversed,incorrect,0.5667058494441589,0,valid_lose,763.7538768000668,58,,,,,,,,,,,,,,,,sub_529,2024-09-16_11h35.56.405,Reversal,2022.1.2,60.0194703246862,1,
19,exp3.png,exp4.png,,,,,,,,,,,,,,,,,,1,0,1,0,0,19,19,19,,,,,,,,,False,39,120,False,exp3.png,exp4.png,trial_right_image,-1,exp4.png,1,exp3.png,exp4.png,0,2,non-reversed,incorrect,0.4769657798429535,0,valid_lose,768.586966300034,58,,,,,,,,,,,,,,,,sub_529,2024-09-16_11h35.56.405,Reversal,2022.1.2,60.0194703246862,1,
20,exp1.png,exp2.png,,,,,,,,,,,,,,,,,,1,0,1,0,0,20,20,20,,,,,,,,,True,,,,,,,,,,,,,,,,,,,,,,,,,,,,,,,,,,,,sub_529,2024-09-16_11h35.56.405,Reversal,2022.1.2,60.0194703246862,1,
,,,exp1.png,,,,,,,,,,,,,,,,,1,0,1,0,,,,,0,0,0,0,0,0,0,0,,,,,,,,,,,,,,,,,,,,,,50.0,None,[],835.4103421999607,None,,,,,,,,,,,sub_529,2024-09-16_11h35.56.405,Reversal,2022.1.2,60.0194703246862,1,
,,,exp2.png,,,,,,,,,,,,,,,,,1,0,1,0,,,,,0,0,0,0,0,1,1,1,,,,,,,,,,,,,,,,,,,,,,25.0,3.648218799964525,"[(37.0, 3.0819385999348015), (25.0, 3.648218799964525)]",842.6455944000045,None,25.0,,,,,,,,,,sub_529,2024-09-16_11h35.56.405,Reversal,2022.1.2,60.0194703246862,1,
,,,exp3.png,,,,,,,,,,,,,,,,,1,0,1,0,,,,,0,0,0,0,0,2,2,2,,,,,,,,,,,,,,,,,,,,,,70.0,3.9357848999788985,"[(70.0, 3.9357848999788985)]",847.460352199967,None,,,70.0,,,,,,,,sub_529,2024-09-16_11h35.56.405,Reversal,2022.1.2,60.0194703246862,1,
,,,exp4.png,,,,,,,,,,,,,,,,,1,0,1,0,,,,,0,0,0,0,0,3,3,3,,,,,,,,,,,,,,,,,,,,,,50.0,None,[],852.3656359999441,None,,,,,,,,,,,sub_529,2024-09-16_11h35.56.405,Reversal,2022.1.2,60.0194703246862,1,
0,exp1.png,exp2.png,,,,,,,,,,,,,,,,,,2,0,2,0,0,0,0,0,,,,,,,,,False,40,121,False,exp1.png,exp2.png,trial_left_image,1,exp1.png,1,exp2.png,exp1.png,1,3,reversed,incorrect,0.4989309980414801,0,valid_lose,791.9703039000742,58,,,,,,,,,,,,,,,,sub_529,2024-09-16_11h35.56.405,Reversal,2022.1.2,60.0194703246862,1,
1,exp3.png,exp4.png,,,,,,,,,,,,,,,,,,2,0,2,0,0,1,1,1,,,,,,,,,False,41,122,False,exp3.png,exp4.png,trial_right_image,-1,exp4.png,1,exp3.png,exp4.png,0,2,non-reversed,incorrect,0.9251216614690031,0,valid_lose,798.4035469000228,58,,,,,,,,,,,,,,,,sub_529,2024-09-16_11h35.56.405,Reversal,2022.1.2,60.0194703246862,1,
2,exp1.png,exp2.png,,,,,,,,,,,,,,,,,,2,0,2,0,0,2,2,2,,,,,,,,,False,42,123,False,exp1.png,exp2.png,trial_left_image,1,exp1.png,1,exp2.png,exp1.png,1,3,reversed,incorrect,0.1774544760292921,1,invalid_win,805.2200946999947,59,,,,,,,,,,,,,,,,sub_529,2024-09-16_11h35.56.405,Reversal,2022.1.2,60.0194703246862,1,
3,exp3.png,exp4.png,,,,,,,,,,,,,,,,,,2,0,2,0,0,3,3,3,,,,,,,,,False,43,124,False,exp3.png,exp4.png,trial_left_image,1,exp3.png,1,exp3.png,exp4.png,1,1,non-reversed,correct,0.36363860858001573,1,valid_win,810.7198347999947,60,,,,,,,,,,,,,,,,sub_529,2024-09-16_11h35.56.405,Reversal,2022.1.2,60.0194703246862,1,
4,exp1.png,exp2.png,,,,,,,,,,,,,,,,,,2,0,2,0,0,4,4,4,,,,,,,,,False,44,125,True,exp2.png,exp1.png,trial_left_image,1,exp2.png,1,exp2.png,exp1.png,0,4,reversed,correct,0.714991535659516,1,valid_win,822.2022601000499,61,,,,,,,,,,,,,,,,sub_529,2024-09-16_11h35.56.405,Reversal,2022.1.2,60.0194703246862,1,
5,exp3.png,exp4.png,,,,,,,,,,,,,,,,,,2,0,2,0,0,5,5,5,,,,,,,,,False,45,126,False,exp3.png,exp4.png,trial_right_image,-1,exp4.png,1,exp3.png,exp4.png,0,2,non-reversed,incorrect,0.9519375989462411,0,valid_lose,826.8532594999997,61,,,,,,,,,,,,,,,,sub_529,2024-09-16_11h35.56.405,Reversal,2022.1.2,60.0194703246862,1,
6,exp1.png,exp2.png,,,,,,,,,,,,,,,,,,2,0,2,0,0,6,6,6,,,,,,,,,False,46,127,True,exp2.png,exp1.png,trial_left_image,1,exp2.png,1,exp2.png,exp1.png,0,4,reversed,correct,0.5726507893339412,1,valid_win,834.185567800072,62,,,,,,,,,,,,,,,,sub_529,2024-09-16_11h35.56.405,Reversal,2022.1.2,60.0194703246862,1,
7,exp3.png,exp4.png,,,,,,,,,,,,,,,,,,2,0,2,0,0,7,7,7,,,,,,,,,False,47,128,True,exp4.png,exp3.png,trial_left_image,1,exp4.png,1,exp3.png,exp4.png,0,2,non-reversed,incorrect,0.22578346009383898,1,invalid_win,838.7357234000228,63,,,,,,,,,,,,,,,,sub_529,2024-09-16_11h35.56.405,Reversal,2022.1.2,60.0194703246862,1,
8,exp1.png,exp2.png,,,,,,,,,,,,,,,,,,2,0,2,0,0,8,8,8,,,,,,,,,False,48,129,True,exp2.png,exp1.png,trial_right_image,-1,exp1.png,1,exp2.png,exp1.png,1,3,reversed,incorrect,0.3480970680557266,0,valid_lose,843.6361332000233,63,,,,,,,,,,,,,,,,sub_529,2024-09-16_11h35.56.405,Reversal,2022.1.2,60.0194703246862,1,
9,exp3.png,exp4.png,,,,,,,,,,,,,,,,,,2,0,2,0,0,9,9,9,,,,,,,,,False,49,130,True,exp4.png,exp3.png,trial_left_image,1,exp4.png,1,exp3.png,exp4.png,0,2,non-reversed,incorrect,0.14334611715055445,1,invalid_win,849.0521676000208,64,,,,,,,,,,,,,,,,sub_529,2024-09-16_11h35.56.405,Reversal,2022.1.2,60.0194703246862,1,
10,exp1.png,exp2.png,,,,,,,,,,,,,,,,,,2,0,2,0,0,10,10,10,,,,,,,,,False,50,131,True,exp2.png,exp1.png,trial_right_image,-1,exp1.png,1,exp2.png,exp1.png,1,3,reversed,incorrect,0.6329790511756054,0,valid_lose,855.1191234000726,64,,,,,,,,,,,,,,,,sub_529,2024-09-16_11h35.56.405,Reversal,2022.1.2,60.0194703246862,1,
11,exp3.png,exp4.png,,,,,,,,,,,,,,,,,,2,0,2,0,0,11,11,11,,,,,,,,,False,51,132,True,exp4.png,exp3.png,trial_left_image,1,exp4.png,1,exp3.png,exp4.png,0,2,non-reversed,incorrect,0.6522744903183944,0,valid_lose,859.5355348000303,64,,,,,,,,,,,,,,,,sub_529,2024-09-16_11h35.56.405,Reversal,2022.1.2,60.0194703246862,1,
12,exp1.png,exp2.png,,,,,,,,,,,,,,,,,,2,0,2,0,0,12,12,12,,,,,,,,,False,52,133,False,exp1.png,exp2.png,trial_right_image,-1,exp2.png,1,exp2.png,exp1.png,0,4,reversed,correct,0.6524300793585449,1,valid_win,864.9186962000094,65,,,,,,,,,,,,,,,,sub_529,2024-09-16_11h35.56.405,Reversal,2022.1.2,60.0194703246862,1,
13,exp3.png,exp4.png,,,,,,,,,,,,,,,,,,2,0,2,0,0,13,13,13,,,,,,,,,False,53,134,False,exp3.png,exp4.png,trial_right_image,-1,exp4.png,1,exp3.png,exp4.png,0,2,non-reversed,incorrect,0.8994510011873604,0,valid_lose,869.368431000039,65,,,,,,,,,,,,,,,,sub_529,2024-09-16_11h35.56.405,Reversal,2022.1.2,60.0194703246862,1,
14,exp1.png,exp2.png,,,,,,,,,,,,,,,,,,2,0,2,0,0,14,14,14,,,,,,,,,False,54,135,True,exp2.png,exp1.png,trial_right_image,-1,exp1.png,1,exp2.png,exp1.png,1,3,reversed,incorrect,0.12783365040173233,1,invalid_win,874.9682259999681,66,,,,,,,,,,,,,,,,sub_529,2024-09-16_11h35.56.405,Reversal,2022.1.2,60.0194703246862,1,
15,exp3.png,exp4.png,,,,,,,,,,,,,,,,,,2,0,2,0,0,15,15,15,,,,,,,,,False,55,136,False,exp3.png,exp4.png,trial_left_image,1,exp3.png,1,exp3.png,exp4.png,1,1,non-reversed,correct,0.24229219447245265,0,invalid_lose,879.3354768999852,66,,,,,,,,,,,,,,,,sub_529,2024-09-16_11h35.56.405,Reversal,2022.1.2,60.0194703246862,1,
16,exp1.png,exp2.png,,,,,,,,,,,,,,,,,,2,0,2,0,0,16,16,16,,,,,,,,,False,56,137,True,exp2.png,exp1.png,trial_left_image,1,exp2.png,1,exp2.png,exp1.png,0,4,reversed,correct,0.9862077548122851,1,valid_win,884.2854832999874,67,,,,,,,,,,,,,,,,sub_529,2024-09-16_11h35.56.405,Reversal,2022.1.2,60.0194703246862,1,
17,exp3.png,exp4.png,,,,,,,,,,,,,,,,,,2,0,2,0,0,17,17,17,,,,,,,,,False,57,138,False,exp3.png,exp4.png,trial_left_image,1,exp3.png,1,exp3.png,exp4.png,1,1,non-reversed,correct,0.09278835223301174,0,invalid_lose,889.8184310999932,67,,,,,,,,,,,,,,,,sub_529,2024-09-16_11h35.56.405,Reversal,2022.1.2,60.0194703246862,1,
18,exp1.png,exp2.png,,,,,,,,,,,,,,,,,,2,0,2,0,0,18,18,18,,,,,,,,,False,58,139,True,exp2.png,exp1.png,trial_right_image,-1,exp1.png,1,exp2.png,exp1.png,1,3,reversed,incorrect,0.4531057248378483,0,valid_lose,895.2681266000727,67,,,,,,,,,,,,,,,,sub_529,2024-09-16_11h35.56.405,Reversal,2022.1.2,60.0194703246862,1,
19,exp3.png,exp4.png,,,,,,,,,,,,,,,,,,2,0,2,0,0,19,19,19,,,,,,,,,False,59,140,False,exp3.png,exp4.png,trial_right_image,-1,exp4.png,1,exp3.png,exp4.png,0,2,non-reversed,incorrect,0.45730132971964454,0,valid_lose,902.0011850000592,67,,,,,,,,,,,,,,,,sub_529,2024-09-16_11h35.56.405,Reversal,2022.1.2,60.0194703246862,1,
20,exp1.png,exp2.png,,,,,,,,,,,,,,,,,,2,0,2,0,0,20,20,20,,,,,,,,,True,,,,,,,,,,,,,,,,,,,,,,,,,,,,,,,,,,,,sub_529,2024-09-16_11h35.56.405,Reversal,2022.1.2,60.0194703246862,1,
,,,exp1.png,,,,,,,,,,,,,,,,,2,0,2,0,,,,,0,0,0,0,0,0,0,0,,,,,,,,,,,,,,,,,,,,,,17.0,3.336876699933782,"[(17.0, 3.336876699933782)]",968.8416971999686,None,,,,,17.0,,,,,,sub_529,2024-09-16_11h35.56.405,Reversal,2022.1.2,60.0194703246862,1,
,,,exp2.png,,,,,,,,,,,,,,,,,2,0,2,0,,,,,0,0,0,0,0,1,1,1,,,,,,,,,,,,,,,,,,,,,,84.0,1.3528116999659687,"[(84.0, 1.3528116999659687)]",973.2587662999285,None,84.0,,,,,,,,,,sub_529,2024-09-16_11h35.56.405,Reversal,2022.1.2,60.0194703246862,1,
,,,exp3.png,,,,,,,,,,,,,,,,,2,0,2,0,,,,,0,0,0,0,0,2,2,2,,,,,,,,,,,,,,,,,,,,,,50.0,None,[],976.9606400999473,None,,,,,,,,,,,sub_529,2024-09-16_11h35.56.405,Reversal,2022.1.2,60.0194703246862,1,
,,,exp4.png,,,,,,,,,,,,,,,,,2,0,2,0,,,,,0,0,0,0,0,3,3,3,,,,,,,,,,,,,,,,,,,,,,50.0,None,[],980.4251432999736,None,,,,,,,,,,,sub_529,2024-09-16_11h35.56.405,Reversal,2022.1.2,60.0194703246862,1,
,,,,,,,,,,,,,,,,,,,,,,,,,,,,,,,,,,,,,,,,,,,,,,,,,,,,,,,,67,,,,,,,,,,,65,44,21,394.81002899992745,1,,,,,,,
