trial_index,trial_image1_file,trial_image2_file,image_file,learning_outer_loop.thisRepN,learning_outer_loop.thisTrialN,learning_outer_loop.thisN,learning_outer_loop.thisIndex,learning_inner_loop.thisRepN,learning_inner_loop.thisTrialN,learning_inner_loop.thisN,learning_inner_loop.thisIndex,learning_estimation_outer_loop.thisRepN,learning_estimation_outer_loop.thisTrialN,learning_estimation_outer_loop.thisN,learning_estimation_outer_loop.thisIndex,learning_estimation_inner_loop.thisRepN,learning_estimation_inner_loop.thisTrialN,learning_estimation_inner_loop.thisN,learning_estimation_inner_loop.thisIndex,reversal_outer_loop.thisRepN,reversal_outer_loop.thisTrialN,reversal_outer_loop.thisN,reversal_outer_loop.thisIndex,reversal_inner_loop.thisRepN,reversal_inner_loop.thisTrialN,reversal_inner_loop.thisN,reversal_inner_loop.thisIndex,reversal_estimation_outer_loop.thisRepN,reversal_estimation_outer_loop.thisTrialN,reversal_estimation_outer_loop.thisN,reversal_estimation_outer_loop.thisIndex,reversal_estimation_inner_loop.thisRepN,reversal_estimation_inner_loop.thisTrialN,reversal_estimation_inner_loop.thisN,reversal_estimation_inner_loop.thisIndex,skipped,total_trial_counter,trial_num,left_right_flip,left_image_file,right_image_file,clicked_stimulus_side,side,clicked_stimulus,version,high_prob_image_file,low_prob_image_file,choice_a,choice_b,pair_type,correct,trial_feedback_random,reward,trial_type,overall_time_after_trial,score,estimation_exp1.png,estimation_rating.response,estimation_rating.rt,estimation_rating.history,estimation_rating.started,estimation_rating.stopped,estimation_exp2.png,estimation_exp3.png,estimation_exp4.png,total_learning_time,total_correct,learning_correct,reversal_correct,total_reversal_time,extra_block,participant,date,expName,psychopyVersion,frameRate,ver,
0,exp1.png,exp2.png,,0,0,0,0,0,0,0,0,,,,,,,,,,,,,,,,,,,,,,,,,True,,,,,,,,,,,,,,,,,,,,,,,,,,,,,,,,,,,,sub_173,2022-08-28_16h00.39.265,Reversal,2022.1.1,59.80850512848703,1,
1,exp3.png,exp4.png,,0,0,0,0,0,1,1,1,,,,,,,,,,,,,,,,,,,,,,,,,False,0,1,True,exp4.png,exp3.png,trial_right_image,-1,exp3.png,1,exp3.png,exp4.png,1,1,non-reversed,correct,0.36311138908901475,1,valid_win,4.531683200000771,1,,,,,,,,,,,,,,,,sub_173,2022-08-28_16h00.39.265,Reversal,2022.1.1,59.80850512848703,1,
2,exp1.png,exp2.png,,0,0,0,0,0,2,2,2,,,,,,,,,,,,,,,,,,,,,,,,,False,1,2,False,exp1.png,exp2.png,trial_left_image,1,exp1.png,1,exp1.png,exp2.png,1,3,reversed,correct,0.8848602843131237,1,valid_win,11.064292600000044,2,,,,,,,,,,,,,,,,sub_173,2022-08-28_16h00.39.265,Reversal,2022.1.1,59.80850512848703,1,
3,exp3.png,exp4.png,,0,0,0,0,0,3,3,3,,,,,,,,,,,,,,,,,,,,,,,,,False,2,3,True,exp4.png,exp3.png,trial_left_image,1,exp4.png,1,exp3.png,exp4.png,0,2,non-reversed,incorrect,0.6834050339126515,0,valid_lose,16.915707300000577,2,,,,,,,,,,,,,,,,sub_173,2022-08-28_16h00.39.265,Reversal,2022.1.1,59.80850512848703,1,
4,exp1.png,exp2.png,,0,0,0,0,0,4,4,4,,,,,,,,,,,,,,,,,,,,,,,,,False,3,4,True,exp2.png,exp1.png,trial_right_image,-1,exp1.png,1,exp1.png,exp2.png,1,3,reversed,correct,0.9669359524617978,1,valid_win,23.04592540000067,3,,,,,,,,,,,,,,,,sub_173,2022-08-28_16h00.39.265,Reversal,2022.1.1,59.80850512848703,1,
5,exp3.png,exp4.png,,0,0,0,0,0,5,5,5,,,,,,,,,,,,,,,,,,,,,,,,,False,4,5,True,exp4.png,exp3.png,trial_right_image,-1,exp3.png,1,exp3.png,exp4.png,1,1,non-reversed,correct,0.6651835723703742,1,valid_win,29.79506350000065,4,,,,,,,,,,,,,,,,sub_173,2022-08-28_16h00.39.265,Reversal,2022.1.1,59.80850512848703,1,
6,exp1.png,exp2.png,,0,0,0,0,0,6,6,6,,,,,,,,,,,,,,,,,,,,,,,,,False,5,6,False,exp1.png,exp2.png,trial_left_image,1,exp1.png,1,exp1.png,exp2.png,1,3,reversed,correct,0.40359860917408064,1,valid_win,35.87724359999993,5,,,,,,,,,,,,,,,,sub_173,2022-08-28_16h00.39.265,Reversal,2022.1.1,59.80850512848703,1,
7,exp3.png,exp4.png,,0,0,0,0,0,7,7,7,,,,,,,,,,,,,,,,,,,,,,,,,False,6,7,False,exp3.png,exp4.png,trial_right_image,-1,exp4.png,1,exp3.png,exp4.png,0,2,non-reversed,incorrect,0.08455949443947108,1,invalid_win,41.676431500000035,6,,,,,,,,,,,,,,,,sub_173,2022-08-28_16h00.39.265,Reversal,2022.1.1,59.80850512848703,1,
8,exp1.png,exp2.png,,0,0,0,0,0,8,8,8,,,,,,,,,,,,,,,,,,,,,,,,,False,7,8,True,exp2.png,exp1.png,trial_left_image,1,exp2.png,1,exp1.png,exp2.png,0,4,reversed,incorrect,0.7673458382664088,0,valid_lose,47.44300810000004,6,,,,,,,,,,,,,,,,sub_173,2022-08-28_16h00.39.265,Reversal,2022.1.1,59.80850512848703,1,
9,exp3.png,exp4.png,,0,0,0,0,0,9,9,9,,,,,,,,,,,,,,,,,,,,,,,,,False,8,9,False,exp3.png,exp4.png,trial_right_image,-1,exp4.png,1,exp3.png,exp4.png,0,2,non-reversed,incorrect,0.6554985073043091,0,valid_lose,52.74193280000054,6,,,,,,,,,,,,,,,,sub_173,2022-08-28_16h00.39.265,Reversal,2022.1.1,59.80850512848703,1,
10,exp1.png,exp2.png,,0,0,0,0,0,10,10,10,,,,,,,,,,,,,,,,,,,,,,,,,False,9,10,False,exp1.png,exp2.png,trial_left_image,1,exp1.png,1,exp1.png,exp2.png,1,3,reversed,correct,0.027508770727454723,0,invalid_lose,57.35851340000045,6,,,,,,,,,,,,,,,,sub_173,2022-08-28_16h00.39.265,Reversal,2022.1.1,59.80850512848703,1,
11,exp3.png,exp4.png,,0,0,0,0,0,11,11,11,,,,,,,,,,,,,,,,,,,,,,,,,False,10,11,False,exp3.png,exp4.png,trial_right_image,-1,exp4.png,1,exp3.png,exp4.png,0,2,non-reversed,incorrect,0.6264011957770725,0,valid_lose,61.72459450000042,6,,,,,,,,,,,,,,,,sub_173,2022-08-28_16h00.39.265,Reversal,2022.1.1,59.80850512848703,1,
12,exp1.png,exp2.png,,0,0,0,0,0,12,12,12,,,,,,,,,,,,,,,,,,,,,,,,,False,11,12,False,exp1.png,exp2.png,trial_right_image,-1,exp2.png,1,exp1.png,exp2.png,0,4,reversed,incorrect,0.429812012032567,0,valid_lose,67.10630570000012,6,,,,,,,,,,,,,,,,sub_173,2022-08-28_16h00.39.265,Reversal,2022.1.1,59.80850512848703,1,
13,exp3.png,exp4.png,,0,0,0,0,0,13,13,13,,,,,,,,,,,,,,,,,,,,,,,,,False,12,13,False,exp3.png,exp4.png,trial_left_image,1,exp3.png,1,exp3.png,exp4.png,1,1,non-reversed,correct,0.8167761469342927,1,valid_win,72.2402363000001,7,,,,,,,,,,,,,,,,sub_173,2022-08-28_16h00.39.265,Reversal,2022.1.1,59.80850512848703,1,
14,exp1.png,exp2.png,,0,0,0,0,0,14,14,14,,,,,,,,,,,,,,,,,,,,,,,,,False,13,14,True,exp2.png,exp1.png,trial_left_image,1,exp2.png,1,exp1.png,exp2.png,0,4,reversed,incorrect,0.43830319810689,0,valid_lose,77.72459049999998,7,,,,,,,,,,,,,,,,sub_173,2022-08-28_16h00.39.265,Reversal,2022.1.1,59.80850512848703,1,
15,exp3.png,exp4.png,,0,0,0,0,0,15,15,15,,,,,,,,,,,,,,,,,,,,,,,,,False,14,15,True,exp4.png,exp3.png,trial_right_image,-1,exp3.png,1,exp3.png,exp4.png,1,1,non-reversed,correct,0.7314498566325603,1,valid_win,82.1067034000007,8,,,,,,,,,,,,,,,,sub_173,2022-08-28_16h00.39.265,Reversal,2022.1.1,59.80850512848703,1,
16,exp1.png,exp2.png,,0,0,0,0,0,16,16,16,,,,,,,,,,,,,,,,,,,,,,,,,False,15,16,False,exp1.png,exp2.png,trial_left_image,1,exp1.png,1,exp1.png,exp2.png,1,3,reversed,correct,0.6760380300193742,1,valid_win,87.96937190000062,9,,,,,,,,,,,,,,,,sub_173,2022-08-28_16h00.39.265,Reversal,2022.1.1,59.80850512848703,1,
17,exp3.png,exp4.png,,0,0,0,0,0,17,17,17,,,,,,,,,,,,,,,,,,,,,,,,,False,16,17,True,exp4.png,exp3.png,trial_right_image,-1,exp3.png,1,exp3.png,exp4.png,1,1,non-reversed,correct,0.3548611428404205,1,valid_win,92.40369220000048,10,,,,,,,,,,,,,,,,sub_173,2022-08-28_16h00.39.265,Reversal,2022.1.1,59.80850512848703,1,
18,exp1.png,exp2.png,,0,0,0,0,0,18,18,18,,,,,,,,,,,,,,,,,,,,,,,,,False,17,18,False,exp1.png,exp2.png,trial_right_image,-1,exp2.png,1,exp1.png,exp2.png,0,4,reversed,incorrect,0.22308292176212008,1,invalid_win,97.37026050000077,11,,,,,,,,,,,,,,,,sub_173,2022-08-28_16h00.39.265,Reversal,2022.1.1,59.80850512848703,1,
19,exp3.png,exp4.png,,0,0,0,0,0,19,19,19,,,,,,,,,,,,,,,,,,,,,,,,,False,18,19,True,exp4.png,exp3.png,trial_left_image,1,exp4.png,1,exp3.png,exp4.png,0,2,non-reversed,incorrect,0.534289295507122,0,valid_lose,102.7020892999999,11,,,,,,,,,,,,,,,,sub_173,2022-08-28_16h00.39.265,Reversal,2022.1.1,59.80850512848703,1,
20,exp1.png,exp2.png,,0,0,0,0,0,20,20,20,,,,,,,,,,,,,,,,,,,,,,,,,False,19,20,True,exp2.png,exp1.png,trial_right_image,-1,exp1.png,1,exp1.png,exp2.png,1,3,reversed,correct,0.7130367446990477,1,valid_win,107.05145230000016,12,,,,,,,,,,,,,,,,sub_173,2022-08-28_16h00.39.265,Reversal,2022.1.1,59.80850512848703,1,
,,,exp1.png,0,0,0,0,,,,,0,0,0,0,0,0,0,0,,,,,,,,,,,,,,,,,,,,,,,,,,,,,,,,,,,,,,88.0,88.0,14.043371199999456,"[(88.0, 14.043371199999456)]",230.7405787000007,None,,,,,,,,,,sub_173,2022-08-28_16h00.39.265,Reversal,2022.1.1,59.80850512848703,1,
,,,exp2.png,0,0,0,0,,,,,0,0,0,0,0,1,1,1,,,,,,,,,,,,,,,,,,,,,,,,,,,,,,,,,,,,,,,100.0,4.71525979999933,"[(100.0, 4.71525979999933)]",245.98305000000073,None,100.0,,,,,,,,,sub_173,2022-08-28_16h00.39.265,Reversal,2022.1.1,59.80850512848703,1,
,,,exp3.png,0,0,0,0,,,,,0,0,0,0,0,2,2,2,,,,,,,,,,,,,,,,,,,,,,,,,,,,,,,,,,,,,,,100.0,4.685344100000293,"[(100.0, 4.685344100000293)]",252.0490245000001,None,,100.0,,,,,,,,sub_173,2022-08-28_16h00.39.265,Reversal,2022.1.1,59.80850512848703,1,
,,,exp4.png,0,0,0,0,,,,,0,0,0,0,0,3,3,3,,,,,,,,,,,,,,,,,,,,,,,,,,,,,,,,,,,,,,,100.0,6.555048700000043,"[(100.0, 6.555048700000043)]",257.8959964000005,None,,,100.0,,,,,,,sub_173,2022-08-28_16h00.39.265,Reversal,2022.1.1,59.80850512848703,1,
0,exp1.png,exp2.png,,1,0,1,0,0,0,0,0,,,,,,,,,,,,,,,,,,,,,,,,,True,,,,,,,,,,,,,,,,,,,,,,,,,,,,,,,,,,,,sub_173,2022-08-28_16h00.39.265,Reversal,2022.1.1,59.80850512848703,1,
1,exp3.png,exp4.png,,1,0,1,0,0,1,1,1,,,,,,,,,,,,,,,,,,,,,,,,,False,20,21,True,exp4.png,exp3.png,trial_right_image,-1,exp3.png,1,exp3.png,exp4.png,1,1,non-reversed,correct,0.4545657674215827,1,valid_win,147.1632356,13,,,,,,,,,,,,,,,,sub_173,2022-08-28_16h00.39.265,Reversal,2022.1.1,59.80850512848703,1,
2,exp1.png,exp2.png,,1,0,1,0,0,2,2,2,,,,,,,,,,,,,,,,,,,,,,,,,False,21,22,True,exp2.png,exp1.png,trial_right_image,-1,exp1.png,1,exp1.png,exp2.png,1,3,reversed,correct,0.7022219414710928,1,valid_win,151.5473036000003,14,,,,,,,,,,,,,,,,sub_173,2022-08-28_16h00.39.265,Reversal,2022.1.1,59.80850512848703,1,
3,exp3.png,exp4.png,,1,0,1,0,0,3,3,3,,,,,,,,,,,,,,,,,,,,,,,,,False,22,23,False,exp3.png,exp4.png,trial_left_image,1,exp3.png,1,exp3.png,exp4.png,1,1,non-reversed,correct,0.8117333782208592,1,valid_win,156.3289046,15,,,,,,,,,,,,,,,,sub_173,2022-08-28_16h00.39.265,Reversal,2022.1.1,59.80850512848703,1,
4,exp1.png,exp2.png,,1,0,1,0,0,4,4,4,,,,,,,,,,,,,,,,,,,,,,,,,False,23,24,False,exp1.png,exp2.png,trial_left_image,1,exp1.png,1,exp1.png,exp2.png,1,3,reversed,correct,0.971172563365888,1,valid_win,161.64425960000062,16,,,,,,,,,,,,,,,,sub_173,2022-08-28_16h00.39.265,Reversal,2022.1.1,59.80850512848703,1,
5,exp3.png,exp4.png,,1,0,1,0,0,5,5,5,,,,,,,,,,,,,,,,,,,,,,,,,False,24,25,True,exp4.png,exp3.png,trial_right_image,-1,exp3.png,1,exp3.png,exp4.png,1,1,non-reversed,correct,0.3153370661331405,1,valid_win,166.34432220000053,17,,,,,,,,,,,,,,,,sub_173,2022-08-28_16h00.39.265,Reversal,2022.1.1,59.80850512848703,1,
6,exp1.png,exp2.png,,1,0,1,0,0,6,6,6,,,,,,,,,,,,,,,,,,,,,,,,,False,25,26,False,exp1.png,exp2.png,trial_right_image,-1,exp2.png,1,exp1.png,exp2.png,0,4,reversed,incorrect,0.4436300695865687,0,valid_lose,172.41213880000032,17,,,,,,,,,,,,,,,,sub_173,2022-08-28_16h00.39.265,Reversal,2022.1.1,59.80850512848703,1,
7,exp3.png,exp4.png,,1,0,1,0,0,7,7,7,,,,,,,,,,,,,,,,,,,,,,,,,False,26,27,False,exp3.png,exp4.png,trial_left_image,1,exp3.png,1,exp3.png,exp4.png,1,1,non-reversed,correct,0.6522698913407018,1,valid_win,176.99354800000037,18,,,,,,,,,,,,,,,,sub_173,2022-08-28_16h00.39.265,Reversal,2022.1.1,59.80850512848703,1,
8,exp1.png,exp2.png,,1,0,1,0,0,8,8,8,,,,,,,,,,,,,,,,,,,,,,,,,False,27,28,True,exp2.png,exp1.png,trial_right_image,-1,exp1.png,1,exp1.png,exp2.png,1,3,reversed,correct,0.4408543426858216,1,valid_win,181.82580230000076,19,,,,,,,,,,,,,,,,sub_173,2022-08-28_16h00.39.265,Reversal,2022.1.1,59.80850512848703,1,
9,exp3.png,exp4.png,,1,0,1,0,0,9,9,9,,,,,,,,,,,,,,,,,,,,,,,,,False,28,29,True,exp4.png,exp3.png,trial_left_image,1,exp4.png,1,exp3.png,exp4.png,0,2,non-reversed,incorrect,0.48801281929945095,0,valid_lose,187.10842310000044,19,,,,,,,,,,,,,,,,sub_173,2022-08-28_16h00.39.265,Reversal,2022.1.1,59.80850512848703,1,
10,exp1.png,exp2.png,,1,0,1,0,0,10,10,10,,,,,,,,,,,,,,,,,,,,,,,,,False,29,30,True,exp2.png,exp1.png,trial_right_image,-1,exp1.png,1,exp1.png,exp2.png,1,3,reversed,correct,0.6185651971704855,1,valid_win,191.37445900000057,20,,,,,,,,,,,,,,,,sub_173,2022-08-28_16h00.39.265,Reversal,2022.1.1,59.80850512848703,1,
11,exp3.png,exp4.png,,1,0,1,0,0,11,11,11,,,,,,,,,,,,,,,,,,,,,,,,,False,30,31,True,exp4.png,exp3.png,trial_right_image,-1,exp3.png,1,exp3.png,exp4.png,1,1,non-reversed,correct,0.6685851475874054,1,valid_win,195.52337940000052,21,,,,,,,,,,,,,,,,sub_173,2022-08-28_16h00.39.265,Reversal,2022.1.1,59.80850512848703,1,
12,exp1.png,exp2.png,,1,0,1,0,0,12,12,12,,,,,,,,,,,,,,,,,,,,,,,,,False,31,32,False,exp1.png,exp2.png,trial_right_image,-1,exp2.png,1,exp1.png,exp2.png,0,4,reversed,incorrect,0.5143848885073058,0,valid_lose,200.14096080000036,21,,,,,,,,,,,,,,,,sub_173,2022-08-28_16h00.39.265,Reversal,2022.1.1,59.80850512848703,1,
13,exp3.png,exp4.png,,1,0,1,0,0,13,13,13,,,,,,,,,,,,,,,,,,,,,,,,,False,32,33,False,exp3.png,exp4.png,trial_left_image,1,exp3.png,1,exp3.png,exp4.png,1,1,non-reversed,correct,0.34068102227776,1,valid_win,204.67393950000042,22,,,,,,,,,,,,,,,,sub_173,2022-08-28_16h00.39.265,Reversal,2022.1.1,59.80850512848703,1,
14,exp1.png,exp2.png,,1,0,1,0,0,14,14,14,,,,,,,,,,,,,,,,,,,,,,,,,False,33,34,True,exp2.png,exp1.png,trial_right_image,-1,exp1.png,1,exp1.png,exp2.png,1,3,reversed,correct,0.7264870909044704,1,valid_win,211.8877824000001,23,,,,,,,,,,,,,,,,sub_173,2022-08-28_16h00.39.265,Reversal,2022.1.1,59.80850512848703,1,
15,exp3.png,exp4.png,,1,0,1,0,0,15,15,15,,,,,,,,,,,,,,,,,,,,,,,,,False,34,35,True,exp4.png,exp3.png,trial_right_image,-1,exp3.png,1,exp3.png,exp4.png,1,1,non-reversed,correct,0.30418901762863637,1,valid_win,216.57237410000016,24,,,,,,,,,,,,,,,,sub_173,2022-08-28_16h00.39.265,Reversal,2022.1.1,59.80850512848703,1,
16,exp1.png,exp2.png,,1,0,1,0,0,16,16,16,,,,,,,,,,,,,,,,,,,,,,,,,False,35,36,False,exp1.png,exp2.png,trial_left_image,1,exp1.png,1,exp1.png,exp2.png,1,3,reversed,correct,0.6010918478555087,1,valid_win,221.53677180000068,25,,,,,,,,,,,,,,,,sub_173,2022-08-28_16h00.39.265,Reversal,2022.1.1,59.80850512848703,1,
17,exp3.png,exp4.png,,1,0,1,0,0,17,17,17,,,,,,,,,,,,,,,,,,,,,,,,,False,36,37,False,exp3.png,exp4.png,trial_right_image,-1,exp4.png,1,exp3.png,exp4.png,0,2,non-reversed,incorrect,0.9660952593643107,0,valid_lose,225.86921650000022,25,,,,,,,,,,,,,,,,sub_173,2022-08-28_16h00.39.265,Reversal,2022.1.1,59.80850512848703,1,
18,exp1.png,exp2.png,,1,0,1,0,0,18,18,18,,,,,,,,,,,,,,,,,,,,,,,,,False,37,38,False,exp1.png,exp2.png,trial_left_image,1,exp1.png,1,exp1.png,exp2.png,1,3,reversed,correct,0.7465413719083899,1,valid_win,230.55214220000016,26,,,,,,,,,,,,,,,,sub_173,2022-08-28_16h00.39.265,Reversal,2022.1.1,59.80850512848703,1,
19,exp3.png,exp4.png,,1,0,1,0,0,19,19,19,,,,,,,,,,,,,,,,,,,,,,,,,False,38,39,True,exp4.png,exp3.png,trial_right_image,-1,exp3.png,1,exp3.png,exp4.png,1,1,non-reversed,correct,0.0483981607001146,0,invalid_lose,234.95284510000056,26,,,,,,,,,,,,,,,,sub_173,2022-08-28_16h00.39.265,Reversal,2022.1.1,59.80850512848703,1,
20,exp1.png,exp2.png,,1,0,1,0,0,20,20,20,,,,,,,,,,,,,,,,,,,,,,,,,False,39,40,False,exp1.png,exp2.png,trial_left_image,1,exp1.png,1,exp1.png,exp2.png,1,3,reversed,correct,0.14219172932052804,0,invalid_lose,239.8194782999999,26,,,,,,,,,,,,,,,,sub_173,2022-08-28_16h00.39.265,Reversal,2022.1.1,59.80850512848703,1,
,,,exp1.png,1,0,1,0,,,,,0,0,0,0,0,0,0,0,,,,,,,,,,,,,,,,,,,,,,,,,,,,,,,,,,,,,,100.0,100.0,4.416089100000136,"[(100.0, 4.416089100000136)]",363.52050099999997,None,,,,,,,,,,sub_173,2022-08-28_16h00.39.265,Reversal,2022.1.1,59.80850512848703,1,
,,,exp2.png,1,0,1,0,,,,,0,0,0,0,0,1,1,1,,,,,,,,,,,,,,,,,,,,,,,,,,,,,,,,,,,,,,,100.0,2.7253562999994756,"[(100.0, 2.7253562999994756)]",369.17716910000036,None,100.0,,,,,,,,,sub_173,2022-08-28_16h00.39.265,Reversal,2022.1.1,59.80850512848703,1,
,,,exp3.png,1,0,1,0,,,,,0,0,0,0,0,2,2,2,,,,,,,,,,,,,,,,,,,,,,,,,,,,,,,,,,,,,,,100.0,3.735495799999626,"[(100.0, 3.735495799999626)]",373.06676850000076,None,,100.0,,,,,,,,sub_173,2022-08-28_16h00.39.265,Reversal,2022.1.1,59.80850512848703,1,
,,,exp4.png,1,0,1,0,,,,,0,0,0,0,0,3,3,3,,,,,,,,,,,,,,,,,,,,,,,,,,,,,,,,,,,,,,,100.0,3.7053538000000117,"[(100.0, 3.7053538000000117)]",378.1300590000001,None,,,100.0,,,,,,,sub_173,2022-08-28_16h00.39.265,Reversal,2022.1.1,59.80850512848703,1,
0,exp1.png,exp2.png,,2,0,2,0,0,0,0,0,,,,,,,,,,,,,,,,,,,,,,,,,True,,,,,,,,,,,,,,,,,,,,,,,,,,,,,,,,,,,,sub_173,2022-08-28_16h00.39.265,Reversal,2022.1.1,59.80850512848703,1,
1,exp3.png,exp4.png,,2,0,2,0,0,1,1,1,,,,,,,,,,,,,,,,,,,,,,,,,False,40,41,True,exp4.png,exp3.png,trial_right_image,-1,exp3.png,1,exp3.png,exp4.png,1,1,non-reversed,correct,0.4728055545550711,1,valid_win,264.09820020000006,27,,,,,,,,,,,,,,,,sub_173,2022-08-28_16h00.39.265,Reversal,2022.1.1,59.80850512848703,1,
2,exp1.png,exp2.png,,2,0,2,0,0,2,2,2,,,,,,,,,,,,,,,,,,,,,,,,,False,41,42,False,exp1.png,exp2.png,trial_left_image,1,exp1.png,1,exp1.png,exp2.png,1,3,reversed,correct,0.06903101642180143,0,invalid_lose,269.34729740000057,27,,,,,,,,,,,,,,,,sub_173,2022-08-28_16h00.39.265,Reversal,2022.1.1,59.80850512848703,1,
3,exp3.png,exp4.png,,2,0,2,0,0,3,3,3,,,,,,,,,,,,,,,,,,,,,,,,,False,42,43,True,exp4.png,exp3.png,trial_right_image,-1,exp3.png,1,exp3.png,exp4.png,1,1,non-reversed,correct,0.14046014385349037,0,invalid_lose,273.63065330000063,27,,,,,,,,,,,,,,,,sub_173,2022-08-28_16h00.39.265,Reversal,2022.1.1,59.80850512848703,1,
4,exp1.png,exp2.png,,2,0,2,0,0,4,4,4,,,,,,,,,,,,,,,,,,,,,,,,,False,43,44,False,exp1.png,exp2.png,trial_right_image,-1,exp2.png,1,exp1.png,exp2.png,0,4,reversed,incorrect,0.472290608847884,0,valid_lose,277.7988113000001,27,,,,,,,,,,,,,,,,sub_173,2022-08-28_16h00.39.265,Reversal,2022.1.1,59.80850512848703,1,
5,exp3.png,exp4.png,,2,0,2,0,0,5,5,5,,,,,,,,,,,,,,,,,,,,,,,,,False,44,45,False,exp3.png,exp4.png,trial_left_image,1,exp3.png,1,exp3.png,exp4.png,1,1,non-reversed,correct,0.2592394348089302,1,valid_win,282.0303285,28,,,,,,,,,,,,,,,,sub_173,2022-08-28_16h00.39.265,Reversal,2022.1.1,59.80850512848703,1,
6,exp1.png,exp2.png,,2,0,2,0,0,6,6,6,,,,,,,,,,,,,,,,,,,,,,,,,False,45,46,True,exp2.png,exp1.png,trial_right_image,-1,exp1.png,1,exp1.png,exp2.png,1,3,reversed,correct,0.11088590071580895,0,invalid_lose,286.8957567000007,28,,,,,,,,,,,,,,,,sub_173,2022-08-28_16h00.39.265,Reversal,2022.1.1,59.80850512848703,1,
7,exp3.png,exp4.png,,2,0,2,0,0,7,7,7,,,,,,,,,,,,,,,,,,,,,,,,,False,46,47,False,exp3.png,exp4.png,trial_left_image,1,exp3.png,1,exp3.png,exp4.png,1,1,non-reversed,correct,0.22213674076731338,0,invalid_lose,291.24541210000007,28,,,,,,,,,,,,,,,,sub_173,2022-08-28_16h00.39.265,Reversal,2022.1.1,59.80850512848703,1,
8,exp1.png,exp2.png,,2,0,2,0,0,8,8,8,,,,,,,,,,,,,,,,,,,,,,,,,False,47,48,True,exp2.png,exp1.png,trial_right_image,-1,exp1.png,1,exp1.png,exp2.png,1,3,reversed,correct,0.25436322231151864,1,valid_win,295.5106988000007,29,,,,,,,,,,,,,,,,sub_173,2022-08-28_16h00.39.265,Reversal,2022.1.1,59.80850512848703,1,
9,exp3.png,exp4.png,,2,0,2,0,0,9,9,9,,,,,,,,,,,,,,,,,,,,,,,,,False,48,49,False,exp3.png,exp4.png,trial_left_image,1,exp3.png,1,exp3.png,exp4.png,1,1,non-reversed,correct,0.1719551475341461,0,invalid_lose,300.2460021000006,29,,,,,,,,,,,,,,,,sub_173,2022-08-28_16h00.39.265,Reversal,2022.1.1,59.80850512848703,1,
10,exp1.png,exp2.png,,2,0,2,0,0,10,10,10,,,,,,,,,,,,,,,,,,,,,,,,,False,49,50,True,exp2.png,exp1.png,trial_right_image,-1,exp1.png,1,exp1.png,exp2.png,1,3,reversed,correct,0.8427829450513172,1,valid_win,304.5431105000007,30,,,,,,,,,,,,,,,,sub_173,2022-08-28_16h00.39.265,Reversal,2022.1.1,59.80850512848703,1,
11,exp3.png,exp4.png,,2,0,2,0,0,11,11,11,,,,,,,,,,,,,,,,,,,,,,,,,False,50,51,False,exp3.png,exp4.png,trial_right_image,-1,exp4.png,1,exp3.png,exp4.png,0,2,non-reversed,incorrect,0.7482528804373686,0,valid_lose,309.38060920000044,30,,,,,,,,,,,,,,,,sub_173,2022-08-28_16h00.39.265,Reversal,2022.1.1,59.80850512848703,1,
12,exp1.png,exp2.png,,2,0,2,0,0,12,12,12,,,,,,,,,,,,,,,,,,,,,,,,,False,51,52,True,exp2.png,exp1.png,trial_left_image,1,exp2.png,1,exp1.png,exp2.png,0,4,reversed,incorrect,0.6709226297702188,0,valid_lose,315.57431650000035,30,,,,,,,,,,,,,,,,sub_173,2022-08-28_16h00.39.265,Reversal,2022.1.1,59.80850512848703,1,
13,exp3.png,exp4.png,,2,0,2,0,0,13,13,13,,,,,,,,,,,,,,,,,,,,,,,,,False,52,53,True,exp4.png,exp3.png,trial_right_image,-1,exp3.png,1,exp3.png,exp4.png,1,1,non-reversed,correct,0.9387719480179577,1,valid_win,319.8574214,31,,,,,,,,,,,,,,,,sub_173,2022-08-28_16h00.39.265,Reversal,2022.1.1,59.80850512848703,1,
14,exp1.png,exp2.png,,2,0,2,0,0,14,14,14,,,,,,,,,,,,,,,,,,,,,,,,,False,53,54,True,exp2.png,exp1.png,trial_right_image,-1,exp1.png,1,exp1.png,exp2.png,1,3,reversed,correct,0.7662830197770888,1,valid_win,324.20687670000007,32,,,,,,,,,,,,,,,,sub_173,2022-08-28_16h00.39.265,Reversal,2022.1.1,59.80850512848703,1,
15,exp3.png,exp4.png,,2,0,2,0,0,15,15,15,,,,,,,,,,,,,,,,,,,,,,,,,False,54,55,False,exp3.png,exp4.png,trial_right_image,-1,exp4.png,1,exp3.png,exp4.png,0,2,non-reversed,incorrect,0.2841289906195066,0,valid_lose,328.35556799999995,32,,,,,,,,,,,,,,,,sub_173,2022-08-28_16h00.39.265,Reversal,2022.1.1,59.80850512848703,1,
16,exp1.png,exp2.png,,2,0,2,0,0,16,16,16,,,,,,,,,,,,,,,,,,,,,,,,,False,55,56,False,exp1.png,exp2.png,trial_left_image,1,exp1.png,1,exp1.png,exp2.png,1,3,reversed,correct,0.23218204563234823,0,invalid_lose,332.90551570000025,32,,,,,,,,,,,,,,,,sub_173,2022-08-28_16h00.39.265,Reversal,2022.1.1,59.80850512848703,1,
17,exp3.png,exp4.png,,2,0,2,0,0,17,17,17,,,,,,,,,,,,,,,,,,,,,,,,,False,56,57,True,exp4.png,exp3.png,trial_right_image,-1,exp3.png,1,exp3.png,exp4.png,1,1,non-reversed,correct,0.2919682590935897,1,valid_win,337.0051661000007,33,,,,,,,,,,,,,,,,sub_173,2022-08-28_16h00.39.265,Reversal,2022.1.1,59.80850512848703,1,
18,exp1.png,exp2.png,,2,0,2,0,0,18,18,18,,,,,,,,,,,,,,,,,,,,,,,,,False,57,58,True,exp2.png,exp1.png,trial_right_image,-1,exp1.png,1,exp1.png,exp2.png,1,3,reversed,correct,0.5554604235360209,1,valid_win,341.7214818000002,34,,,,,,,,,,,,,,,,sub_173,2022-08-28_16h00.39.265,Reversal,2022.1.1,59.80850512848703,1,
19,exp3.png,exp4.png,,2,0,2,0,0,19,19,19,,,,,,,,,,,,,,,,,,,,,,,,,False,58,59,False,exp3.png,exp4.png,trial_right_image,-1,exp4.png,1,exp3.png,exp4.png,0,2,non-reversed,incorrect,0.6517395645855696,0,valid_lose,345.8889312000001,34,,,,,,,,,,,,,,,,sub_173,2022-08-28_16h00.39.265,Reversal,2022.1.1,59.80850512848703,1,
20,exp1.png,exp2.png,,2,0,2,0,0,20,20,20,,,,,,,,,,,,,,,,,,,,,,,,,False,59,60,False,exp1.png,exp2.png,trial_left_image,1,exp1.png,1,exp1.png,exp2.png,1,3,reversed,correct,0.43195177965442,1,valid_win,350.17106050000075,35,,,,,,,,,,,,,,,,sub_173,2022-08-28_16h00.39.265,Reversal,2022.1.1,59.80850512848703,1,
,,,exp1.png,2,0,2,0,,,,,0,0,0,0,0,0,0,0,,,,,,,,,,,,,,,,,,,,,,,,,,,,,,,,,,,,,,100.0,100.0,8.23826740000004,"[(100.0, 8.23826740000004)]",473.86898960000053,None,,,,,,,,,,sub_173,2022-08-28_16h00.39.265,Reversal,2022.1.1,59.80850512848703,1,
,,,exp2.png,2,0,2,0,,,,,0,0,0,0,0,1,1,1,,,,,,,,,,,,,,,,,,,,,,,,,,,,,,,,,,,,,,,86.0,2.0077832999995735,"[(86.0, 2.0077832999995735)]",483.7306597000006,None,86.0,,,,,,,,,sub_173,2022-08-28_16h00.39.265,Reversal,2022.1.1,59.80850512848703,1,
,,,exp3.png,2,0,2,0,,,,,0,0,0,0,0,2,2,2,,,,,,,,,,,,,,,,,,,,,,,,,,,,,,,,,,,,,,,98.0,1.4747182000000976,"[(98.0, 1.4747182000000976)]",486.7282477000008,None,,98.0,,,,,,,,sub_173,2022-08-28_16h00.39.265,Reversal,2022.1.1,59.80850512848703,1,
,,,exp4.png,2,0,2,0,,,,,0,0,0,0,0,3,3,3,,,,,,,,,,,,,,,,,,,,,,,,,,,,,,,,,,,,,,,100.0,1.5389515999995638,"[(100.0, 1.5389515999995638)]",489.38060140000016,None,,,100.0,,,,,,,sub_173,2022-08-28_16h00.39.265,Reversal,2022.1.1,59.80850512848703,1,
0,exp1.png,exp2.png,,,,,,,,,,,,,,,,,,0,0,0,0,0,0,0,0,,,,,,,,,True,,,,,,,,,,,,,,,,,,,,,,,,,,,,,,,,,,,,sub_173,2022-08-28_16h00.39.265,Reversal,2022.1.1,59.80850512848703,1,
1,exp3.png,exp4.png,,,,,,,,,,,,,,,,,,0,0,0,0,0,1,1,1,,,,,,,,,False,0,61,True,exp4.png,exp3.png,trial_right_image,-1,exp3.png,1,exp3.png,exp4.png,1,1,non-reversed,correct,0.23430480065695636,0,invalid_lose,372.86966890000076,35,,,,,,,,,,371.0557927,,,,,,sub_173,2022-08-28_16h00.39.265,Reversal,2022.1.1,59.80850512848703,1,
2,exp1.png,exp2.png,,,,,,,,,,,,,,,,,,0,0,0,0,0,2,2,2,,,,,,,,,False,1,62,False,exp1.png,exp2.png,trial_left_image,1,exp1.png,1,exp2.png,exp1.png,1,3,reversed,incorrect,0.8475571705961839,0,valid_lose,377.0502107000002,35,,,,,,,,,,,,,,,,sub_173,2022-08-28_16h00.39.265,Reversal,2022.1.1,59.80850512848703,1,
3,exp3.png,exp4.png,,,,,,,,,,,,,,,,,,0,0,0,0,0,3,3,3,,,,,,,,,False,2,63,True,exp4.png,exp3.png,trial_right_image,-1,exp3.png,1,exp3.png,exp4.png,1,1,non-reversed,correct,0.08351115328194603,0,invalid_lose,381.0498726000005,35,,,,,,,,,,,,,,,,sub_173,2022-08-28_16h00.39.265,Reversal,2022.1.1,59.80850512848703,1,
4,exp1.png,exp2.png,,,,,,,,,,,,,,,,,,0,0,0,0,0,4,4,4,,,,,,,,,False,3,64,True,exp2.png,exp1.png,trial_left_image,1,exp2.png,1,exp2.png,exp1.png,0,4,reversed,correct,0.5252376177941033,1,valid_win,385.1491762000005,36,,,,,,,,,,,,,,,,sub_173,2022-08-28_16h00.39.265,Reversal,2022.1.1,59.80850512848703,1,
5,exp3.png,exp4.png,,,,,,,,,,,,,,,,,,0,0,0,0,0,5,5,5,,,,,,,,,False,4,65,True,exp4.png,exp3.png,trial_right_image,-1,exp3.png,1,exp3.png,exp4.png,1,1,non-reversed,correct,0.24213175256085617,0,invalid_lose,389.6992396000005,36,,,,,,,,,,,,,,,,sub_173,2022-08-28_16h00.39.265,Reversal,2022.1.1,59.80850512848703,1,
6,exp1.png,exp2.png,,,,,,,,,,,,,,,,,,0,0,0,0,0,6,6,6,,,,,,,,,False,5,66,False,exp1.png,exp2.png,trial_left_image,1,exp1.png,1,exp2.png,exp1.png,1,3,reversed,incorrect,0.689989640761987,0,valid_lose,393.93218570000045,36,,,,,,,,,,,,,,,,sub_173,2022-08-28_16h00.39.265,Reversal,2022.1.1,59.80850512848703,1,
7,exp3.png,exp4.png,,,,,,,,,,,,,,,,,,0,0,0,0,0,7,7,7,,,,,,,,,False,6,67,True,exp4.png,exp3.png,trial_right_image,-1,exp3.png,1,exp3.png,exp4.png,1,1,non-reversed,correct,0.7544261012796957,1,valid_win,398.05000760000075,37,,,,,,,,,,,,,,,,sub_173,2022-08-28_16h00.39.265,Reversal,2022.1.1,59.80850512848703,1,
8,exp1.png,exp2.png,,,,,,,,,,,,,,,,,,0,0,0,0,0,8,8,8,,,,,,,,,False,7,68,False,exp1.png,exp2.png,trial_left_image,1,exp1.png,1,exp2.png,exp1.png,1,3,reversed,incorrect,0.5167029093374284,0,valid_lose,403.0811485000004,37,,,,,,,,,,,,,,,,sub_173,2022-08-28_16h00.39.265,Reversal,2022.1.1,59.80850512848703,1,
9,exp3.png,exp4.png,,,,,,,,,,,,,,,,,,0,0,0,0,0,9,9,9,,,,,,,,,False,8,69,False,exp3.png,exp4.png,trial_right_image,-1,exp4.png,1,exp3.png,exp4.png,0,2,non-reversed,incorrect,0.61971839624343,0,valid_lose,407.23094180000044,37,,,,,,,,,,,,,,,,sub_173,2022-08-28_16h00.39.265,Reversal,2022.1.1,59.80850512848703,1,
10,exp1.png,exp2.png,,,,,,,,,,,,,,,,,,0,0,0,0,0,10,10,10,,,,,,,,,False,9,70,True,exp2.png,exp1.png,trial_left_image,1,exp2.png,1,exp2.png,exp1.png,0,4,reversed,correct,0.8511375387038563,1,valid_win,411.2639515000001,38,,,,,,,,,,,,,,,,sub_173,2022-08-28_16h00.39.265,Reversal,2022.1.1,59.80850512848703,1,
11,exp3.png,exp4.png,,,,,,,,,,,,,,,,,,0,0,0,0,0,11,11,11,,,,,,,,,False,10,71,True,exp4.png,exp3.png,trial_right_image,-1,exp3.png,1,exp3.png,exp4.png,1,1,non-reversed,correct,0.6988465259638524,1,valid_win,415.49585040000056,39,,,,,,,,,,,,,,,,sub_173,2022-08-28_16h00.39.265,Reversal,2022.1.1,59.80850512848703,1,
12,exp1.png,exp2.png,,,,,,,,,,,,,,,,,,0,0,0,0,0,12,12,12,,,,,,,,,False,11,72,False,exp1.png,exp2.png,trial_left_image,1,exp1.png,1,exp2.png,exp1.png,1,3,reversed,incorrect,0.7306532161790422,0,valid_lose,420.5462428000001,39,,,,,,,,,,,,,,,,sub_173,2022-08-28_16h00.39.265,Reversal,2022.1.1,59.80850512848703,1,
13,exp3.png,exp4.png,,,,,,,,,,,,,,,,,,0,0,0,0,0,13,13,13,,,,,,,,,False,12,73,False,exp3.png,exp4.png,trial_right_image,-1,exp4.png,1,exp3.png,exp4.png,0,2,non-reversed,incorrect,0.3482747528531782,0,valid_lose,424.6947146000002,39,,,,,,,,,,,,,,,,sub_173,2022-08-28_16h00.39.265,Reversal,2022.1.1,59.80850512848703,1,
14,exp1.png,exp2.png,,,,,,,,,,,,,,,,,,0,0,0,0,0,14,14,14,,,,,,,,,False,13,74,True,exp2.png,exp1.png,trial_right_image,-1,exp1.png,1,exp2.png,exp1.png,1,3,reversed,incorrect,0.8098699396693299,0,valid_lose,429.2437077000004,39,,,,,,,,,,,,,,,,sub_173,2022-08-28_16h00.39.265,Reversal,2022.1.1,59.80850512848703,1,
15,exp3.png,exp4.png,,,,,,,,,,,,,,,,,,0,0,0,0,0,15,15,15,,,,,,,,,False,14,75,False,exp3.png,exp4.png,trial_left_image,1,exp3.png,1,exp3.png,exp4.png,1,1,non-reversed,correct,0.8318347176093943,1,valid_win,433.4443538000005,40,,,,,,,,,,,,,,,,sub_173,2022-08-28_16h00.39.265,Reversal,2022.1.1,59.80850512848703,1,
16,exp1.png,exp2.png,,,,,,,,,,,,,,,,,,0,0,0,0,0,16,16,16,,,,,,,,,False,15,76,True,exp2.png,exp1.png,trial_right_image,-1,exp1.png,1,exp2.png,exp1.png,1,3,reversed,incorrect,0.007473221939083841,1,invalid_win,438.21009890000005,41,,,,,,,,,,,,,,,,sub_173,2022-08-28_16h00.39.265,Reversal,2022.1.1,59.80850512848703,1,
17,exp3.png,exp4.png,,,,,,,,,,,,,,,,,,0,0,0,0,0,17,17,17,,,,,,,,,False,16,77,False,exp3.png,exp4.png,trial_left_image,1,exp3.png,1,exp3.png,exp4.png,1,1,non-reversed,correct,0.2290445461900502,0,invalid_lose,442.8100692000007,41,,,,,,,,,,,,,,,,sub_173,2022-08-28_16h00.39.265,Reversal,2022.1.1,59.80850512848703,1,
18,exp1.png,exp2.png,,,,,,,,,,,,,,,,,,0,0,0,0,0,18,18,18,,,,,,,,,False,17,78,False,exp1.png,exp2.png,trial_right_image,-1,exp2.png,1,exp2.png,exp1.png,0,4,reversed,correct,0.4243377720564985,1,valid_win,446.69185070000003,42,,,,,,,,,,,,,,,,sub_173,2022-08-28_16h00.39.265,Reversal,2022.1.1,59.80850512848703,1,
19,exp3.png,exp4.png,,,,,,,,,,,,,,,,,,0,0,0,0,0,19,19,19,,,,,,,,,False,18,79,False,exp3.png,exp4.png,trial_right_image,-1,exp4.png,1,exp3.png,exp4.png,0,2,non-reversed,incorrect,0.9170444396321372,0,valid_lose,451.29296969999996,42,,,,,,,,,,,,,,,,sub_173,2022-08-28_16h00.39.265,Reversal,2022.1.1,59.80850512848703,1,
20,exp1.png,exp2.png,,,,,,,,,,,,,,,,,,0,0,0,0,0,20,20,20,,,,,,,,,False,19,80,True,exp2.png,exp1.png,trial_left_image,1,exp2.png,1,exp2.png,exp1.png,0,4,reversed,correct,0.5769020144679546,1,valid_win,455.80766570000014,43,,,,,,,,,,,,,,,,sub_173,2022-08-28_16h00.39.265,Reversal,2022.1.1,59.80850512848703,1,
,,,exp1.png,,,,,,,,,,,,,,,,,0,0,0,0,,,,,0,0,0,0,0,0,0,0,,,,,,,,,,,,,,,,,,,,,,100.0,100.0,3.68100400000003,"[(100.0, 3.68100400000003)]",579.5133602000005,None,,,,,,,,,,sub_173,2022-08-28_16h00.39.265,Reversal,2022.1.1,59.80850512848703,1,
,,,exp2.png,,,,,,,,,,,,,,,,,0,0,0,0,,,,,0,0,0,0,0,1,1,1,,,,,,,,,,,,,,,,,,,,,,,100.0,1.590519200000017,"[(100.0, 1.590519200000017)]",586.2508984000006,None,100.0,,,,,,,,,sub_173,2022-08-28_16h00.39.265,Reversal,2022.1.1,59.80850512848703,1,
,,,exp3.png,,,,,,,,,,,,,,,,,0,0,0,0,,,,,0,0,0,0,0,2,2,2,,,,,,,,,,,,,,,,,,,,,,,100.0,1.090109400000074,"[(52.0, 0.7747411999998803), (100.0, 1.090109400000074)]",588.8728757000008,None,,100.0,,,,,,,,sub_173,2022-08-28_16h00.39.265,Reversal,2022.1.1,59.80850512848703,1,
,,,exp4.png,,,,,,,,,,,,,,,,,0,0,0,0,,,,,0,0,0,0,0,3,3,3,,,,,,,,,,,,,,,,,,,,,,,98.0,2.054527899999812,"[(98.0, 2.054527899999812)]",591.0036664000008,None,,,98.0,,,,,,,sub_173,2022-08-28_16h00.39.265,Reversal,2022.1.1,59.80850512848703,1,
0,exp1.png,exp2.png,,,,,,,,,,,,,,,,,,1,0,1,0,0,0,0,0,,,,,,,,,True,,,,,,,,,,,,,,,,,,,,,,,,,,,,,,,,,,,,sub_173,2022-08-28_16h00.39.265,Reversal,2022.1.1,59.80850512848703,1,
1,exp3.png,exp4.png,,,,,,,,,,,,,,,,,,1,0,1,0,0,1,1,1,,,,,,,,,False,20,81,False,exp3.png,exp4.png,trial_left_image,1,exp3.png,1,exp3.png,exp4.png,1,1,non-reversed,correct,0.7633403332149863,1,valid_win,477.6202186999999,44,,,,,,,,,,,,,,,,sub_173,2022-08-28_16h00.39.265,Reversal,2022.1.1,59.80850512848703,1,
2,exp1.png,exp2.png,,,,,,,,,,,,,,,,,,1,0,1,0,0,2,2,2,,,,,,,,,False,21,82,True,exp2.png,exp1.png,trial_right_image,-1,exp1.png,1,exp2.png,exp1.png,1,3,reversed,incorrect,0.002136073830726226,1,invalid_win,482.00598380000065,45,,,,,,,,,,,,,,,,sub_173,2022-08-28_16h00.39.265,Reversal,2022.1.1,59.80850512848703,1,
3,exp3.png,exp4.png,,,,,,,,,,,,,,,,,,1,0,1,0,0,3,3,3,,,,,,,,,False,22,83,True,exp4.png,exp3.png,trial_left_image,1,exp4.png,1,exp3.png,exp4.png,0,2,non-reversed,incorrect,0.5232388190723074,0,valid_lose,486.6693213000008,45,,,,,,,,,,,,,,,,sub_173,2022-08-28_16h00.39.265,Reversal,2022.1.1,59.80850512848703,1,
4,exp1.png,exp2.png,,,,,,,,,,,,,,,,,,1,0,1,0,0,4,4,4,,,,,,,,,False,23,84,False,exp1.png,exp2.png,trial_right_image,-1,exp2.png,1,exp2.png,exp1.png,0,4,reversed,correct,0.18969137202915087,0,invalid_lose,490.67123119999997,45,,,,,,,,,,,,,,,,sub_173,2022-08-28_16h00.39.265,Reversal,2022.1.1,59.80850512848703,1,
5,exp3.png,exp4.png,,,,,,,,,,,,,,,,,,1,0,1,0,0,5,5,5,,,,,,,,,False,24,85,False,exp3.png,exp4.png,trial_left_image,1,exp3.png,1,exp3.png,exp4.png,1,1,non-reversed,correct,0.1240218086560766,0,invalid_lose,494.9523112000006,45,,,,,,,,,,,,,,,,sub_173,2022-08-28_16h00.39.265,Reversal,2022.1.1,59.80850512848703,1,
6,exp1.png,exp2.png,,,,,,,,,,,,,,,,,,1,0,1,0,0,6,6,6,,,,,,,,,False,25,86,False,exp1.png,exp2.png,trial_right_image,-1,exp2.png,1,exp2.png,exp1.png,0,4,reversed,correct,0.20273467546446466,0,invalid_lose,499.03615230000014,45,,,,,,,,,,,,,,,,sub_173,2022-08-28_16h00.39.265,Reversal,2022.1.1,59.80850512848703,1,
7,exp3.png,exp4.png,,,,,,,,,,,,,,,,,,1,0,1,0,0,7,7,7,,,,,,,,,False,26,87,False,exp3.png,exp4.png,trial_left_image,1,exp3.png,1,exp3.png,exp4.png,1,1,non-reversed,correct,0.185260746769913,0,invalid_lose,503.41923020000013,45,,,,,,,,,,,,,,,,sub_173,2022-08-28_16h00.39.265,Reversal,2022.1.1,59.80850512848703,1,
8,exp1.png,exp2.png,,,,,,,,,,,,,,,,,,1,0,1,0,0,8,8,8,,,,,,,,,False,27,88,True,exp2.png,exp1.png,trial_right_image,-1,exp1.png,1,exp2.png,exp1.png,1,3,reversed,incorrect,0.8900086606655176,0,valid_lose,507.81797150000057,45,,,,,,,,,,,,,,,,sub_173,2022-08-28_16h00.39.265,Reversal,2022.1.1,59.80850512848703,1,
9,exp3.png,exp4.png,,,,,,,,,,,,,,,,,,1,0,1,0,0,9,9,9,,,,,,,,,False,28,89,True,exp4.png,exp3.png,trial_left_image,1,exp4.png,1,exp3.png,exp4.png,0,2,non-reversed,incorrect,0.3901262586839914,0,valid_lose,512.4836394000004,45,,,,,,,,,,,,,,,,sub_173,2022-08-28_16h00.39.265,Reversal,2022.1.1,59.80850512848703,1,
10,exp1.png,exp2.png,,,,,,,,,,,,,,,,,,1,0,1,0,0,10,10,10,,,,,,,,,False,29,90,True,exp2.png,exp1.png,trial_right_image,-1,exp1.png,1,exp2.png,exp1.png,1,3,reversed,incorrect,0.98096557588538,0,valid_lose,516.5846309000008,45,,,,,,,,,,,,,,,,sub_173,2022-08-28_16h00.39.265,Reversal,2022.1.1,59.80850512848703,1,
11,exp3.png,exp4.png,,,,,,,,,,,,,,,,,,1,0,1,0,0,11,11,11,,,,,,,,,False,30,91,True,exp4.png,exp3.png,trial_left_image,1,exp4.png,1,exp3.png,exp4.png,0,2,non-reversed,incorrect,0.7726645917441298,0,valid_lose,521.0985671000008,45,,,,,,,,,,,,,,,,sub_173,2022-08-28_16h00.39.265,Reversal,2022.1.1,59.80850512848703,1,
12,exp1.png,exp2.png,,,,,,,,,,,,,,,,,,1,0,1,0,0,12,12,12,,,,,,,,,False,31,92,False,exp1.png,exp2.png,trial_right_image,-1,exp2.png,1,exp2.png,exp1.png,0,4,reversed,correct,0.19451782744008905,0,invalid_lose,525.1652795,45,,,,,,,,,,,,,,,,sub_173,2022-08-28_16h00.39.265,Reversal,2022.1.1,59.80850512848703,1,
13,exp3.png,exp4.png,,,,,,,,,,,,,,,,,,1,0,1,0,0,13,13,13,,,,,,,,,False,32,93,False,exp3.png,exp4.png,trial_left_image,1,exp3.png,1,exp3.png,exp4.png,1,1,non-reversed,correct,0.568214052232449,1,valid_win,529.4319974,46,,,,,,,,,,,,,,,,sub_173,2022-08-28_16h00.39.265,Reversal,2022.1.1,59.80850512848703,1,
14,exp1.png,exp2.png,,,,,,,,,,,,,,,,,,1,0,1,0,0,14,14,14,,,,,,,,,False,33,94,True,exp2.png,exp1.png,trial_right_image,-1,exp1.png,1,exp2.png,exp1.png,1,3,reversed,incorrect,0.566008577290277,0,valid_lose,533.7488861000002,46,,,,,,,,,,,,,,,,sub_173,2022-08-28_16h00.39.265,Reversal,2022.1.1,59.80850512848703,1,
15,exp3.png,exp4.png,,,,,,,,,,,,,,,,,,1,0,1,0,0,15,15,15,,,,,,,,,False,34,95,False,exp3.png,exp4.png,trial_left_image,1,exp3.png,1,exp3.png,exp4.png,1,1,non-reversed,correct,0.804027717224165,1,valid_win,538.1964735000001,47,,,,,,,,,,,,,,,,sub_173,2022-08-28_16h00.39.265,Reversal,2022.1.1,59.80850512848703,1,
16,exp1.png,exp2.png,,,,,,,,,,,,,,,,,,1,0,1,0,0,16,16,16,,,,,,,,,False,35,96,True,exp2.png,exp1.png,trial_left_image,1,exp2.png,1,exp2.png,exp1.png,0,4,reversed,correct,0.9996334885861531,1,valid_win,543.4291120000007,48,,,,,,,,,,,,,,,,sub_173,2022-08-28_16h00.39.265,Reversal,2022.1.1,59.80850512848703,1,
17,exp3.png,exp4.png,,,,,,,,,,,,,,,,,,1,0,1,0,0,17,17,17,,,,,,,,,False,36,97,True,exp4.png,exp3.png,trial_left_image,1,exp4.png,1,exp3.png,exp4.png,0,2,non-reversed,incorrect,0.6190138744317434,0,valid_lose,548.3299281,48,,,,,,,,,,,,,,,,sub_173,2022-08-28_16h00.39.265,Reversal,2022.1.1,59.80850512848703,1,
18,exp1.png,exp2.png,,,,,,,,,,,,,,,,,,1,0,1,0,0,18,18,18,,,,,,,,,False,37,98,False,exp1.png,exp2.png,trial_right_image,-1,exp2.png,1,exp2.png,exp1.png,0,4,reversed,correct,0.6078788292170989,1,valid_win,552.2619556,49,,,,,,,,,,,,,,,,sub_173,2022-08-28_16h00.39.265,Reversal,2022.1.1,59.80850512848703,1,
19,exp3.png,exp4.png,,,,,,,,,,,,,,,,,,1,0,1,0,0,19,19,19,,,,,,,,,False,38,99,True,exp4.png,exp3.png,trial_right_image,-1,exp3.png,1,exp3.png,exp4.png,1,1,non-reversed,correct,0.940130472138373,1,valid_win,556.7618935,50,,,,,,,,,,,,,,,,sub_173,2022-08-28_16h00.39.265,Reversal,2022.1.1,59.80850512848703,1,
20,exp1.png,exp2.png,,,,,,,,,,,,,,,,,,1,0,1,0,0,20,20,20,,,,,,,,,False,39,100,False,exp1.png,exp2.png,trial_left_image,1,exp1.png,1,exp2.png,exp1.png,1,3,reversed,incorrect,0.024194177124026606,1,invalid_win,561.3435002000006,51,,,,,,,,,,,,,,,,sub_173,2022-08-28_16h00.39.265,Reversal,2022.1.1,59.80850512848703,1,
,,,exp1.png,,,,,,,,,,,,,,,,,1,0,1,0,,,,,0,0,0,0,0,0,0,0,,,,,,,,,,,,,,,,,,,,,,1.0,1.0,3.416155200000503,"[(1.0, 3.416155200000503)]",685.0498891000007,None,,,,,,,,,,sub_173,2022-08-28_16h00.39.265,Reversal,2022.1.1,59.80850512848703,1,
,,,exp2.png,,,,,,,,,,,,,,,,,1,0,1,0,,,,,0,0,0,0,0,1,1,1,,,,,,,,,,,,,,,,,,,,,,,100.0,2.571849099999781,"[(94.0, 1.5728534999998374), (100.0, 2.571849099999781)]",689.6220349000005,None,100.0,,,,,,,,,sub_173,2022-08-28_16h00.39.265,Reversal,2022.1.1,59.80850512848703,1,
,,,exp3.png,,,,,,,,,,,,,,,,,1,0,1,0,,,,,0,0,0,0,0,2,2,2,,,,,,,,,,,,,,,,,,,,,,,100.0,1.9054636000000755,"[(80.0, 1.006287500000326), (100.0, 1.9054636000000755)]",693.3059184000003,None,,100.0,,,,,,,,sub_173,2022-08-28_16h00.39.265,Reversal,2022.1.1,59.80850512848703,1,
,,,exp4.png,,,,,,,,,,,,,,,,,1,0,1,0,,,,,0,0,0,0,0,3,3,3,,,,,,,,,,,,,,,,,,,,,,,100.0,1.3209866999995938,"[(100.0, 1.3209866999995938)]",696.2897207000005,None,,,100.0,,,,,,,sub_173,2022-08-28_16h00.39.265,Reversal,2022.1.1,59.80850512848703,1,
0,exp1.png,exp2.png,,,,,,,,,,,,,,,,,,2,0,2,0,0,0,0,0,,,,,,,,,True,,,,,,,,,,,,,,,,,,,,,,,,,,,,,,,,,,,,sub_173,2022-08-28_16h00.39.265,Reversal,2022.1.1,59.80850512848703,1,
1,exp3.png,exp4.png,,,,,,,,,,,,,,,,,,2,0,2,0,0,1,1,1,,,,,,,,,False,40,101,False,exp3.png,exp4.png,trial_left_image,1,exp3.png,1,exp3.png,exp4.png,1,1,non-reversed,correct,0.2555126717968855,1,valid_win,579.6258151000002,52,,,,,,,,,,,,,,,,sub_173,2022-08-28_16h00.39.265,Reversal,2022.1.1,59.80850512848703,1,
2,exp1.png,exp2.png,,,,,,,,,,,,,,,,,,2,0,2,0,0,2,2,2,,,,,,,,,False,41,102,False,exp1.png,exp2.png,trial_left_image,1,exp1.png,1,exp2.png,exp1.png,1,3,reversed,incorrect,0.5731009903504729,0,valid_lose,583.9906252000001,52,,,,,,,,,,,,,,,,sub_173,2022-08-28_16h00.39.265,Reversal,2022.1.1,59.80850512848703,1,
3,exp3.png,exp4.png,,,,,,,,,,,,,,,,,,2,0,2,0,0,3,3,3,,,,,,,,,False,42,103,True,exp4.png,exp3.png,trial_right_image,-1,exp3.png,1,exp3.png,exp4.png,1,1,non-reversed,correct,0.7814658534826502,1,valid_win,588.1578007000007,53,,,,,,,,,,,,,,,,sub_173,2022-08-28_16h00.39.265,Reversal,2022.1.1,59.80850512848703,1,
4,exp1.png,exp2.png,,,,,,,,,,,,,,,,,,2,0,2,0,0,4,4,4,,,,,,,,,False,43,104,True,exp2.png,exp1.png,trial_right_image,-1,exp1.png,1,exp2.png,exp1.png,1,3,reversed,incorrect,0.3770155310382458,0,valid_lose,592.3399417999999,53,,,,,,,,,,,,,,,,sub_173,2022-08-28_16h00.39.265,Reversal,2022.1.1,59.80850512848703,1,
5,exp3.png,exp4.png,,,,,,,,,,,,,,,,,,2,0,2,0,0,5,5,5,,,,,,,,,False,44,105,True,exp4.png,exp3.png,trial_left_image,1,exp4.png,1,exp3.png,exp4.png,0,2,non-reversed,incorrect,0.608932968749464,0,valid_lose,596.3735704999999,53,,,,,,,,,,,,,,,,sub_173,2022-08-28_16h00.39.265,Reversal,2022.1.1,59.80850512848703,1,
6,exp1.png,exp2.png,,,,,,,,,,,,,,,,,,2,0,2,0,0,6,6,6,,,,,,,,,False,45,106,True,exp2.png,exp1.png,trial_right_image,-1,exp1.png,1,exp2.png,exp1.png,1,3,reversed,incorrect,0.0636248553733384,1,invalid_win,601.6220932000006,54,,,,,,,,,,,,,,,,sub_173,2022-08-28_16h00.39.265,Reversal,2022.1.1,59.80850512848703,1,
7,exp3.png,exp4.png,,,,,,,,,,,,,,,,,,2,0,2,0,0,7,7,7,,,,,,,,,False,46,107,True,exp4.png,exp3.png,trial_right_image,-1,exp3.png,1,exp3.png,exp4.png,1,1,non-reversed,correct,0.4251913547134819,1,valid_win,606.1549652000003,55,,,,,,,,,,,,,,,,sub_173,2022-08-28_16h00.39.265,Reversal,2022.1.1,59.80850512848703,1,
8,exp1.png,exp2.png,,,,,,,,,,,,,,,,,,2,0,2,0,0,8,8,8,,,,,,,,,False,47,108,False,exp1.png,exp2.png,trial_left_image,1,exp1.png,1,exp2.png,exp1.png,1,3,reversed,incorrect,0.11126029190167896,1,invalid_win,610.6539290000001,56,,,,,,,,,,,,,,,,sub_173,2022-08-28_16h00.39.265,Reversal,2022.1.1,59.80850512848703,1,
9,exp3.png,exp4.png,,,,,,,,,,,,,,,,,,2,0,2,0,0,9,9,9,,,,,,,,,False,48,109,True,exp4.png,exp3.png,trial_right_image,-1,exp3.png,1,exp3.png,exp4.png,1,1,non-reversed,correct,0.2728784293018143,1,valid_win,615.0378221999999,57,,,,,,,,,,,,,,,,sub_173,2022-08-28_16h00.39.265,Reversal,2022.1.1,59.80850512848703,1,
10,exp1.png,exp2.png,,,,,,,,,,,,,,,,,,2,0,2,0,0,10,10,10,,,,,,,,,False,49,110,False,exp1.png,exp2.png,trial_left_image,1,exp1.png,1,exp2.png,exp1.png,1,3,reversed,incorrect,0.4360613490024674,0,valid_lose,619.9357878999999,57,,,,,,,,,,,,,,,,sub_173,2022-08-28_16h00.39.265,Reversal,2022.1.1,59.80850512848703,1,
11,exp3.png,exp4.png,,,,,,,,,,,,,,,,,,2,0,2,0,0,11,11,11,,,,,,,,,False,50,111,True,exp4.png,exp3.png,trial_right_image,-1,exp3.png,1,exp3.png,exp4.png,1,1,non-reversed,correct,0.1690837018506467,0,invalid_lose,624.3023298000007,57,,,,,,,,,,,,,,,,sub_173,2022-08-28_16h00.39.265,Reversal,2022.1.1,59.80850512848703,1,
12,exp1.png,exp2.png,,,,,,,,,,,,,,,,,,2,0,2,0,0,12,12,12,,,,,,,,,False,51,112,True,exp2.png,exp1.png,trial_left_image,1,exp2.png,1,exp2.png,exp1.png,0,4,reversed,correct,0.31470706244786717,1,valid_win,628.5351599000005,58,,,,,,,,,,,,,,,,sub_173,2022-08-28_16h00.39.265,Reversal,2022.1.1,59.80850512848703,1,
13,exp3.png,exp4.png,,,,,,,,,,,,,,,,,,2,0,2,0,0,13,13,13,,,,,,,,,False,52,113,False,exp3.png,exp4.png,trial_left_image,1,exp3.png,1,exp3.png,exp4.png,1,1,non-reversed,correct,0.4430747558449969,1,valid_win,632.8844788000006,59,,,,,,,,,,,,,,,,sub_173,2022-08-28_16h00.39.265,Reversal,2022.1.1,59.80850512848703,1,
14,exp1.png,exp2.png,,,,,,,,,,,,,,,,,,2,0,2,0,0,14,14,14,,,,,,,,,False,53,114,False,exp1.png,exp2.png,trial_left_image,1,exp1.png,1,exp2.png,exp1.png,1,3,reversed,incorrect,0.5927013616994437,0,valid_lose,637.8503569000004,59,,,,,,,,,,,,,,,,sub_173,2022-08-28_16h00.39.265,Reversal,2022.1.1,59.80850512848703,1,
15,exp3.png,exp4.png,,,,,,,,,,,,,,,,,,2,0,2,0,0,15,15,15,,,,,,,,,False,54,115,False,exp3.png,exp4.png,trial_right_image,-1,exp4.png,1,exp3.png,exp4.png,0,2,non-reversed,incorrect,0.4931919047306649,0,valid_lose,641.8664037000008,59,,,,,,,,,,,,,,,,sub_173,2022-08-28_16h00.39.265,Reversal,2022.1.1,59.80850512848703,1,
16,exp1.png,exp2.png,,,,,,,,,,,,,,,,,,2,0,2,0,0,16,16,16,,,,,,,,,False,55,116,False,exp1.png,exp2.png,trial_left_image,1,exp1.png,1,exp2.png,exp1.png,1,3,reversed,incorrect,0.8556744584612574,0,valid_lose,646.0169776000002,59,,,,,,,,,,,,,,,,sub_173,2022-08-28_16h00.39.265,Reversal,2022.1.1,59.80850512848703,1,
17,exp3.png,exp4.png,,,,,,,,,,,,,,,,,,2,0,2,0,0,17,17,17,,,,,,,,,False,56,117,False,exp3.png,exp4.png,trial_right_image,-1,exp4.png,1,exp3.png,exp4.png,0,2,non-reversed,incorrect,0.9627572767672932,0,valid_lose,650.0491084000005,59,,,,,,,,,,,,,,,,sub_173,2022-08-28_16h00.39.265,Reversal,2022.1.1,59.80850512848703,1,
18,exp1.png,exp2.png,,,,,,,,,,,,,,,,,,2,0,2,0,0,18,18,18,,,,,,,,,False,57,118,False,exp1.png,exp2.png,trial_left_image,1,exp1.png,1,exp2.png,exp1.png,1,3,reversed,incorrect,0.6018472816310487,0,valid_lose,654.1328270000004,59,,,,,,,,,,,,,,,,sub_173,2022-08-28_16h00.39.265,Reversal,2022.1.1,59.80850512848703,1,
19,exp3.png,exp4.png,,,,,,,,,,,,,,,,,,2,0,2,0,0,19,19,19,,,,,,,,,False,58,119,True,exp4.png,exp3.png,trial_right_image,-1,exp3.png,1,exp3.png,exp4.png,1,1,non-reversed,correct,0.6103902833533325,1,valid_win,658.4147358,60,,,,,,,,,,,,,,,,sub_173,2022-08-28_16h00.39.265,Reversal,2022.1.1,59.80850512848703,1,
20,exp1.png,exp2.png,,,,,,,,,,,,,,,,,,2,0,2,0,0,20,20,20,,,,,,,,,False,59,120,True,exp2.png,exp1.png,trial_right_image,-1,exp1.png,1,exp2.png,exp1.png,1,3,reversed,incorrect,0.9758555725177371,0,valid_lose,663.4804735000007,60,,,,,,,,,,,,,,,,sub_173,2022-08-28_16h00.39.265,Reversal,2022.1.1,59.80850512848703,1,
,,,exp1.png,,,,,,,,,,,,,,,,,2,0,2,0,,,,,0,0,0,0,0,0,0,0,,,,,,,,,,,,,,,,,,,,,,100.0,100.0,2.1555232000000615,"[(100.0, 2.1555232000000615)]",787.1825357000007,None,,,,,,,,,,sub_173,2022-08-28_16h00.39.265,Reversal,2022.1.1,59.80850512848703,1,
,,,exp2.png,,,,,,,,,,,,,,,,,2,0,2,0,,,,,0,0,0,0,0,1,1,1,,,,,,,,,,,,,,,,,,,,,,,100.0,5.358175800000026,"[(100.0, 5.358175800000026)]",790.4242103000006,None,100.0,,,,,,,,,sub_173,2022-08-28_16h00.39.265,Reversal,2022.1.1,59.80850512848703,1,
,,,exp3.png,,,,,,,,,,,,,,,,,2,0,2,0,,,,,0,0,0,0,0,2,2,2,,,,,,,,,,,,,,,,,,,,,,,100.0,1.4540885999995226,"[(100.0, 1.4540885999995226)]",797.0278498000007,None,,100.0,,,,,,,,sub_173,2022-08-28_16h00.39.265,Reversal,2022.1.1,59.80850512848703,1,
,,,exp4.png,,,,,,,,,,,,,,,,,2,0,2,0,,,,,0,0,0,0,0,3,3,3,,,,,,,,,,,,,,,,,,,,,,,100.0,1.2556283999992957,"[(100.0, 1.2556283999992957)]",799.5594621,None,,,100.0,,,,,,,sub_173,2022-08-28_16h00.39.265,Reversal,2022.1.1,59.80850512848703,1,
,,,,,,,,,,,,,,,,,,,,,,,,,,,,,,,,,,,,,,,,,,,,,,,,,,,,,,,,60,,,,,,,,,,,72,42,30,309.52506429999994,0,,,,,,,
