trial_index,trial_image1_file,trial_image2_file,image_file,learning_outer_loop.thisRepN,learning_outer_loop.thisTrialN,learning_outer_loop.thisN,learning_outer_loop.thisIndex,learning_inner_loop.thisRepN,learning_inner_loop.thisTrialN,learning_inner_loop.thisN,learning_inner_loop.thisIndex,learning_estimation_outer_loop.thisRepN,learning_estimation_outer_loop.thisTrialN,learning_estimation_outer_loop.thisN,learning_estimation_outer_loop.thisIndex,learning_estimation_inner_loop.thisRepN,learning_estimation_inner_loop.thisTrialN,learning_estimation_inner_loop.thisN,learning_estimation_inner_loop.thisIndex,reversal_outer_loop.thisRepN,reversal_outer_loop.thisTrialN,reversal_outer_loop.thisN,reversal_outer_loop.thisIndex,reversal_inner_loop.thisRepN,reversal_inner_loop.thisTrialN,reversal_inner_loop.thisN,reversal_inner_loop.thisIndex,reversal_estimation_outer_loop.thisRepN,reversal_estimation_outer_loop.thisTrialN,reversal_estimation_outer_loop.thisN,reversal_estimation_outer_loop.thisIndex,reversal_estimation_inner_loop.thisRepN,reversal_estimation_inner_loop.thisTrialN,reversal_estimation_inner_loop.thisN,reversal_estimation_inner_loop.thisIndex,skipped,total_trial_counter,trial_num,left_right_flip,left_image_file,right_image_file,clicked_stimulus_side,side,clicked_stimulus,version,high_prob_image_file,low_prob_image_file,choice_a,choice_b,pair_type,correct,trial_feedback_random,reward,trial_type,overall_time_after_trial,score,estimation_exp1.png,estimation_rating.response,estimation_rating.rt,estimation_rating.history,estimation_rating.started,estimation_rating.stopped,estimation_exp2.png,estimation_exp3.png,estimation_exp4.png,total_learning_time,total_correct,learning_correct,reversal_correct,total_reversal_time,extra_block,end_experiment.keys,end_experiment.rt,participant,date,expName,psychopyVersion,frameRate,ver,
0,exp1.png,exp2.png,,0,0,0,0,0,0,0,0,,,,,,,,,,,,,,,,,,,,,,,,,True,,,,,,,,,,,,,,,,,,,,,,,,,,,,,,,,,,,,,,sub_215,2022-12-12_17h19.12.013,Reversal,2022.1.2,60.02721653323863,3,
1,exp3.png,exp4.png,,0,0,0,0,0,1,1,1,,,,,,,,,,,,,,,,,,,,,,,,,False,0,1,False,exp3.png,exp4.png,trial_left_image,1,exp3.png,3,exp4.png,exp3.png,0,2,non-reversed,incorrect,0.2923873958646389,0,valid_lose,9.016959499567747,0,,,,,,,,,,,,,,,,,,sub_215,2022-12-12_17h19.12.013,Reversal,2022.1.2,60.02721653323863,3,
2,exp1.png,exp2.png,,0,0,0,0,0,2,2,2,,,,,,,,,,,,,,,,,,,,,,,,,False,1,2,False,exp1.png,exp2.png,trial_left_image,1,exp1.png,3,exp2.png,exp1.png,0,4,reversed,incorrect,0.8630653217603473,0,valid_lose,29.14982539974153,0,,,,,,,,,,,,,,,,,,sub_215,2022-12-12_17h19.12.013,Reversal,2022.1.2,60.02721653323863,3,
3,exp3.png,exp4.png,,0,0,0,0,0,3,3,3,,,,,,,,,,,,,,,,,,,,,,,,,False,2,3,False,exp3.png,exp4.png,trial_left_image,1,exp3.png,3,exp4.png,exp3.png,0,2,non-reversed,incorrect,0.786774853792945,0,valid_lose,34.40005940012634,0,,,,,,,,,,,,,,,,,,sub_215,2022-12-12_17h19.12.013,Reversal,2022.1.2,60.02721653323863,3,
4,exp1.png,exp2.png,,0,0,0,0,0,4,4,4,,,,,,,,,,,,,,,,,,,,,,,,,False,3,4,True,exp2.png,exp1.png,trial_right_image,-1,exp1.png,3,exp2.png,exp1.png,0,4,reversed,incorrect,0.9108749740114805,0,valid_lose,39.34943410009146,0,,,,,,,,,,,,,,,,,,sub_215,2022-12-12_17h19.12.013,Reversal,2022.1.2,60.02721653323863,3,
5,exp3.png,exp4.png,,0,0,0,0,0,5,5,5,,,,,,,,,,,,,,,,,,,,,,,,,False,4,5,True,exp4.png,exp3.png,trial_left_image,1,exp4.png,3,exp4.png,exp3.png,1,1,non-reversed,correct,0.0886060551632264,0,invalid_lose,43.80011420045048,0,,,,,,,,,,,,,,,,,,sub_215,2022-12-12_17h19.12.013,Reversal,2022.1.2,60.02721653323863,3,
6,exp1.png,exp2.png,,0,0,0,0,0,6,6,6,,,,,,,,,,,,,,,,,,,,,,,,,False,5,6,False,exp1.png,exp2.png,trial_right_image,-1,exp2.png,3,exp2.png,exp1.png,1,3,reversed,correct,0.9680491542907372,1,valid_win,48.899387300014496,1,,,,,,,,,,,,,,,,,,sub_215,2022-12-12_17h19.12.013,Reversal,2022.1.2,60.02721653323863,3,
7,exp3.png,exp4.png,,0,0,0,0,0,7,7,7,,,,,,,,,,,,,,,,,,,,,,,,,False,6,7,True,exp4.png,exp3.png,trial_left_image,1,exp4.png,3,exp4.png,exp3.png,1,1,non-reversed,correct,0.9352983397002529,1,valid_win,53.48319000005722,2,,,,,,,,,,,,,,,,,,sub_215,2022-12-12_17h19.12.013,Reversal,2022.1.2,60.02721653323863,3,
8,exp1.png,exp2.png,,0,0,0,0,0,8,8,8,,,,,,,,,,,,,,,,,,,,,,,,,False,7,8,False,exp1.png,exp2.png,trial_right_image,-1,exp2.png,3,exp2.png,exp1.png,1,3,reversed,correct,0.8808077958386191,1,valid_win,57.78231650032103,3,,,,,,,,,,,,,,,,,,sub_215,2022-12-12_17h19.12.013,Reversal,2022.1.2,60.02721653323863,3,
9,exp3.png,exp4.png,,0,0,0,0,0,9,9,9,,,,,,,,,,,,,,,,,,,,,,,,,False,8,9,True,exp4.png,exp3.png,trial_right_image,-1,exp3.png,3,exp4.png,exp3.png,0,2,non-reversed,incorrect,0.916730917630151,0,valid_lose,62.24949789978564,3,,,,,,,,,,,,,,,,,,sub_215,2022-12-12_17h19.12.013,Reversal,2022.1.2,60.02721653323863,3,
10,exp1.png,exp2.png,,0,0,0,0,0,10,10,10,,,,,,,,,,,,,,,,,,,,,,,,,False,9,10,False,exp1.png,exp2.png,trial_left_image,1,exp1.png,3,exp2.png,exp1.png,0,4,reversed,incorrect,0.012237006793822336,1,invalid_win,66.63265340030193,4,,,,,,,,,,,,,,,,,,sub_215,2022-12-12_17h19.12.013,Reversal,2022.1.2,60.02721653323863,3,
11,exp3.png,exp4.png,,0,0,0,0,0,11,11,11,,,,,,,,,,,,,,,,,,,,,,,,,False,10,11,True,exp4.png,exp3.png,trial_right_image,-1,exp3.png,3,exp4.png,exp3.png,0,2,non-reversed,incorrect,0.1582039267745028,1,invalid_win,70.79855469986796,5,,,,,,,,,,,,,,,,,,sub_215,2022-12-12_17h19.12.013,Reversal,2022.1.2,60.02721653323863,3,
12,exp1.png,exp2.png,,0,0,0,0,0,12,12,12,,,,,,,,,,,,,,,,,,,,,,,,,False,11,12,False,exp1.png,exp2.png,trial_left_image,1,exp1.png,3,exp2.png,exp1.png,0,4,reversed,incorrect,0.8002133262199216,0,valid_lose,74.98301040008664,5,,,,,,,,,,,,,,,,,,sub_215,2022-12-12_17h19.12.013,Reversal,2022.1.2,60.02721653323863,3,
13,exp3.png,exp4.png,,0,0,0,0,0,13,13,13,,,,,,,,,,,,,,,,,,,,,,,,,False,12,13,False,exp3.png,exp4.png,trial_right_image,-1,exp4.png,3,exp4.png,exp3.png,1,1,non-reversed,correct,0.83385779401541,1,valid_win,79.48240269999951,6,,,,,,,,,,,,,,,,,,sub_215,2022-12-12_17h19.12.013,Reversal,2022.1.2,60.02721653323863,3,
14,exp1.png,exp2.png,,0,0,0,0,0,14,14,14,,,,,,,,,,,,,,,,,,,,,,,,,False,13,14,False,exp1.png,exp2.png,trial_left_image,1,exp1.png,3,exp2.png,exp1.png,0,4,reversed,incorrect,0.9322429745001592,0,valid_lose,84.28224550001323,6,,,,,,,,,,,,,,,,,,sub_215,2022-12-12_17h19.12.013,Reversal,2022.1.2,60.02721653323863,3,
15,exp3.png,exp4.png,,0,0,0,0,0,15,15,15,,,,,,,,,,,,,,,,,,,,,,,,,False,14,15,True,exp4.png,exp3.png,trial_right_image,-1,exp3.png,3,exp4.png,exp3.png,0,2,non-reversed,incorrect,0.9908650011090877,0,valid_lose,88.83205480035394,6,,,,,,,,,,,,,,,,,,sub_215,2022-12-12_17h19.12.013,Reversal,2022.1.2,60.02721653323863,3,
16,exp1.png,exp2.png,,0,0,0,0,0,16,16,16,,,,,,,,,,,,,,,,,,,,,,,,,False,15,16,True,exp2.png,exp1.png,trial_left_image,1,exp2.png,3,exp2.png,exp1.png,1,3,reversed,correct,0.5232430483484365,1,valid_win,93.11555130034685,7,,,,,,,,,,,,,,,,,,sub_215,2022-12-12_17h19.12.013,Reversal,2022.1.2,60.02721653323863,3,
17,exp3.png,exp4.png,,0,0,0,0,0,17,17,17,,,,,,,,,,,,,,,,,,,,,,,,,False,16,17,False,exp3.png,exp4.png,trial_right_image,-1,exp4.png,3,exp4.png,exp3.png,1,1,non-reversed,correct,0.7984707802976481,1,valid_win,97.08183120004833,8,,,,,,,,,,,,,,,,,,sub_215,2022-12-12_17h19.12.013,Reversal,2022.1.2,60.02721653323863,3,
18,exp1.png,exp2.png,,0,0,0,0,0,18,18,18,,,,,,,,,,,,,,,,,,,,,,,,,False,17,18,True,exp2.png,exp1.png,trial_right_image,-1,exp1.png,3,exp2.png,exp1.png,0,4,reversed,incorrect,0.8142116163702199,0,valid_lose,101.31547920033336,8,,,,,,,,,,,,,,,,,,sub_215,2022-12-12_17h19.12.013,Reversal,2022.1.2,60.02721653323863,3,
19,exp3.png,exp4.png,,0,0,0,0,0,19,19,19,,,,,,,,,,,,,,,,,,,,,,,,,False,18,19,True,exp4.png,exp3.png,trial_left_image,1,exp4.png,3,exp4.png,exp3.png,1,1,non-reversed,correct,0.7051039615524923,1,valid_win,105.36529489979148,9,,,,,,,,,,,,,,,,,,sub_215,2022-12-12_17h19.12.013,Reversal,2022.1.2,60.02721653323863,3,
20,exp1.png,exp2.png,,0,0,0,0,0,20,20,20,,,,,,,,,,,,,,,,,,,,,,,,,False,19,20,True,exp2.png,exp1.png,trial_left_image,1,exp2.png,3,exp2.png,exp1.png,1,3,reversed,correct,0.29923048297113974,1,valid_win,109.59857090003788,10,,,,,,,,,,,,,,,,,,sub_215,2022-12-12_17h19.12.013,Reversal,2022.1.2,60.02721653323863,3,
,,,exp1.png,0,0,0,0,,,,,0,0,0,0,0,0,0,0,,,,,,,,,,,,,,,,,,,,,,,,,,,,,,,,,,,,,,85.0,85.0,8.485715900547802,"[(85.0, 8.485715900547802)]",197.0210768999532,None,,,,,,,,,,,,sub_215,2022-12-12_17h19.12.013,Reversal,2022.1.2,60.02721653323863,3,
,,,exp2.png,0,0,0,0,,,,,0,0,0,0,0,1,1,1,,,,,,,,,,,,,,,,,,,,,,,,,,,,,,,,,,,,,,,100.0,10.982859400101006,"[(54.0, 9.083257300779223), (100.0, 10.982859400101006)]",206.8084734994918,None,100.0,,,,,,,,,,,sub_215,2022-12-12_17h19.12.013,Reversal,2022.1.2,60.02721653323863,3,
,,,exp3.png,0,0,0,0,,,,,0,0,0,0,0,2,2,2,,,,,,,,,,,,,,,,,,,,,,,,,,,,,,,,,,,,,,,93.0,3.900308900512755,"[(93.0, 3.900308900512755)]",219.2980353999883,None,,93.0,,,,,,,,,,sub_215,2022-12-12_17h19.12.013,Reversal,2022.1.2,60.02721653323863,3,
,,,exp4.png,0,0,0,0,,,,,0,0,0,0,0,3,3,3,,,,,,,,,,,,,,,,,,,,,,,,,,,,,,,,,,,,,,,81.0,1.6344159003347158,"[(81.0, 1.6344159003347158)]",224.44201899971813,None,,,81.0,,,,,,,,,sub_215,2022-12-12_17h19.12.013,Reversal,2022.1.2,60.02721653323863,3,
0,exp1.png,exp2.png,,1,0,1,0,0,0,0,0,,,,,,,,,,,,,,,,,,,,,,,,,True,,,,,,,,,,,,,,,,,,,,,,,,,,,,,,,,,,,,,,sub_215,2022-12-12_17h19.12.013,Reversal,2022.1.2,60.02721653323863,3,
1,exp3.png,exp4.png,,1,0,1,0,0,1,1,1,,,,,,,,,,,,,,,,,,,,,,,,,False,20,21,True,exp4.png,exp3.png,trial_right_image,-1,exp3.png,3,exp4.png,exp3.png,0,2,non-reversed,incorrect,0.2767790434315669,0,valid_lose,144.64785610046238,10,,,,,,,,,,,,,,,,,,sub_215,2022-12-12_17h19.12.013,Reversal,2022.1.2,60.02721653323863,3,
2,exp1.png,exp2.png,,1,0,1,0,0,2,2,2,,,,,,,,,,,,,,,,,,,,,,,,,False,21,22,True,exp2.png,exp1.png,trial_left_image,1,exp2.png,3,exp2.png,exp1.png,1,3,reversed,correct,0.7596733359130685,1,valid_win,148.81374919973314,11,,,,,,,,,,,,,,,,,,sub_215,2022-12-12_17h19.12.013,Reversal,2022.1.2,60.02721653323863,3,
3,exp3.png,exp4.png,,1,0,1,0,0,3,3,3,,,,,,,,,,,,,,,,,,,,,,,,,False,22,23,False,exp3.png,exp4.png,trial_left_image,1,exp3.png,3,exp4.png,exp3.png,0,2,non-reversed,incorrect,0.864041939796018,0,valid_lose,152.9473805995658,11,,,,,,,,,,,,,,,,,,sub_215,2022-12-12_17h19.12.013,Reversal,2022.1.2,60.02721653323863,3,
4,exp1.png,exp2.png,,1,0,1,0,0,4,4,4,,,,,,,,,,,,,,,,,,,,,,,,,False,23,24,False,exp1.png,exp2.png,trial_right_image,-1,exp2.png,3,exp2.png,exp1.png,1,3,reversed,correct,0.3720807021885557,1,valid_win,157.14739940036088,12,,,,,,,,,,,,,,,,,,sub_215,2022-12-12_17h19.12.013,Reversal,2022.1.2,60.02721653323863,3,
5,exp3.png,exp4.png,,1,0,1,0,0,5,5,5,,,,,,,,,,,,,,,,,,,,,,,,,False,24,25,False,exp3.png,exp4.png,trial_right_image,-1,exp4.png,3,exp4.png,exp3.png,1,1,non-reversed,correct,0.7392950494439512,1,valid_win,161.2478203997016,13,,,,,,,,,,,,,,,,,,sub_215,2022-12-12_17h19.12.013,Reversal,2022.1.2,60.02721653323863,3,
6,exp1.png,exp2.png,,1,0,1,0,0,6,6,6,,,,,,,,,,,,,,,,,,,,,,,,,False,25,26,True,exp2.png,exp1.png,trial_left_image,1,exp2.png,3,exp2.png,exp1.png,1,3,reversed,correct,0.8230232189067422,1,valid_win,165.64784399978817,14,,,,,,,,,,,,,,,,,,sub_215,2022-12-12_17h19.12.013,Reversal,2022.1.2,60.02721653323863,3,
7,exp3.png,exp4.png,,1,0,1,0,0,7,7,7,,,,,,,,,,,,,,,,,,,,,,,,,False,26,27,True,exp4.png,exp3.png,trial_left_image,1,exp4.png,3,exp4.png,exp3.png,1,1,non-reversed,correct,0.5595670614097092,1,valid_win,169.9147452004254,15,,,,,,,,,,,,,,,,,,sub_215,2022-12-12_17h19.12.013,Reversal,2022.1.2,60.02721653323863,3,
8,exp1.png,exp2.png,,1,0,1,0,0,8,8,8,,,,,,,,,,,,,,,,,,,,,,,,,False,27,28,False,exp1.png,exp2.png,trial_right_image,-1,exp2.png,3,exp2.png,exp1.png,1,3,reversed,correct,0.7930467769196468,1,valid_win,174.13113239966333,16,,,,,,,,,,,,,,,,,,sub_215,2022-12-12_17h19.12.013,Reversal,2022.1.2,60.02721653323863,3,
9,exp3.png,exp4.png,,1,0,1,0,0,9,9,9,,,,,,,,,,,,,,,,,,,,,,,,,False,28,29,False,exp3.png,exp4.png,trial_right_image,-1,exp4.png,3,exp4.png,exp3.png,1,1,non-reversed,correct,0.8914974095144822,1,valid_win,178.26417590025812,17,,,,,,,,,,,,,,,,,,sub_215,2022-12-12_17h19.12.013,Reversal,2022.1.2,60.02721653323863,3,
10,exp1.png,exp2.png,,1,0,1,0,0,10,10,10,,,,,,,,,,,,,,,,,,,,,,,,,False,29,30,True,exp2.png,exp1.png,trial_left_image,1,exp2.png,3,exp2.png,exp1.png,1,3,reversed,correct,0.7135867245725364,1,valid_win,182.51362480036914,18,,,,,,,,,,,,,,,,,,sub_215,2022-12-12_17h19.12.013,Reversal,2022.1.2,60.02721653323863,3,
11,exp3.png,exp4.png,,1,0,1,0,0,11,11,11,,,,,,,,,,,,,,,,,,,,,,,,,False,30,31,False,exp3.png,exp4.png,trial_right_image,-1,exp4.png,3,exp4.png,exp3.png,1,1,non-reversed,correct,0.03411827240685461,0,invalid_lose,186.596656200476,18,,,,,,,,,,,,,,,,,,sub_215,2022-12-12_17h19.12.013,Reversal,2022.1.2,60.02721653323863,3,
12,exp1.png,exp2.png,,1,0,1,0,0,12,12,12,,,,,,,,,,,,,,,,,,,,,,,,,False,31,32,False,exp1.png,exp2.png,trial_right_image,-1,exp2.png,3,exp2.png,exp1.png,1,3,reversed,correct,0.3366050067827986,1,valid_win,190.6967449998483,19,,,,,,,,,,,,,,,,,,sub_215,2022-12-12_17h19.12.013,Reversal,2022.1.2,60.02721653323863,3,
13,exp3.png,exp4.png,,1,0,1,0,0,13,13,13,,,,,,,,,,,,,,,,,,,,,,,,,False,32,33,True,exp4.png,exp3.png,trial_left_image,1,exp4.png,3,exp4.png,exp3.png,1,1,non-reversed,correct,0.8520904651361177,1,valid_win,194.9472693996504,20,,,,,,,,,,,,,,,,,,sub_215,2022-12-12_17h19.12.013,Reversal,2022.1.2,60.02721653323863,3,
14,exp1.png,exp2.png,,1,0,1,0,0,14,14,14,,,,,,,,,,,,,,,,,,,,,,,,,False,33,34,True,exp2.png,exp1.png,trial_left_image,1,exp2.png,3,exp2.png,exp1.png,1,3,reversed,correct,0.7710966240248305,1,valid_win,199.14689250010997,21,,,,,,,,,,,,,,,,,,sub_215,2022-12-12_17h19.12.013,Reversal,2022.1.2,60.02721653323863,3,
15,exp3.png,exp4.png,,1,0,1,0,0,15,15,15,,,,,,,,,,,,,,,,,,,,,,,,,False,34,35,True,exp4.png,exp3.png,trial_left_image,1,exp4.png,3,exp4.png,exp3.png,1,1,non-reversed,correct,0.35437703876391136,1,valid_win,204.646852100268,22,,,,,,,,,,,,,,,,,,sub_215,2022-12-12_17h19.12.013,Reversal,2022.1.2,60.02721653323863,3,
16,exp1.png,exp2.png,,1,0,1,0,0,16,16,16,,,,,,,,,,,,,,,,,,,,,,,,,False,35,36,False,exp1.png,exp2.png,trial_right_image,-1,exp2.png,3,exp2.png,exp1.png,1,3,reversed,correct,0.4357364508579906,1,valid_win,208.94613649975508,23,,,,,,,,,,,,,,,,,,sub_215,2022-12-12_17h19.12.013,Reversal,2022.1.2,60.02721653323863,3,
17,exp3.png,exp4.png,,1,0,1,0,0,17,17,17,,,,,,,,,,,,,,,,,,,,,,,,,False,36,37,True,exp4.png,exp3.png,trial_left_image,1,exp4.png,3,exp4.png,exp3.png,1,1,non-reversed,correct,0.4965743960149318,1,valid_win,213.13019690010697,24,,,,,,,,,,,,,,,,,,sub_215,2022-12-12_17h19.12.013,Reversal,2022.1.2,60.02721653323863,3,
18,exp1.png,exp2.png,,1,0,1,0,0,18,18,18,,,,,,,,,,,,,,,,,,,,,,,,,False,37,38,False,exp1.png,exp2.png,trial_right_image,-1,exp2.png,3,exp2.png,exp1.png,1,3,reversed,correct,0.25016937571261355,1,valid_win,217.31334660016,25,,,,,,,,,,,,,,,,,,sub_215,2022-12-12_17h19.12.013,Reversal,2022.1.2,60.02721653323863,3,
19,exp3.png,exp4.png,,1,0,1,0,0,19,19,19,,,,,,,,,,,,,,,,,,,,,,,,,False,38,39,True,exp4.png,exp3.png,trial_left_image,1,exp4.png,3,exp4.png,exp3.png,1,1,non-reversed,correct,0.9602144214212893,1,valid_win,221.69668150041252,26,,,,,,,,,,,,,,,,,,sub_215,2022-12-12_17h19.12.013,Reversal,2022.1.2,60.02721653323863,3,
20,exp1.png,exp2.png,,1,0,1,0,0,20,20,20,,,,,,,,,,,,,,,,,,,,,,,,,False,39,40,False,exp1.png,exp2.png,trial_right_image,-1,exp2.png,3,exp2.png,exp1.png,1,3,reversed,correct,0.5924769651712954,1,valid_win,225.84582460019737,27,,,,,,,,,,,,,,,,,,sub_215,2022-12-12_17h19.12.013,Reversal,2022.1.2,60.02721653323863,3,
,,,exp1.png,1,0,1,0,,,,,0,0,0,0,0,0,0,0,,,,,,,,,,,,,,,,,,,,,,,,,,,,,,,,,,,,,,91.0,91.0,6.229600000195205,"[(91.0, 6.229600000195205)]",313.26330520026386,None,,,,,,,,,,,,sub_215,2022-12-12_17h19.12.013,Reversal,2022.1.2,60.02721653323863,3,
,,,exp2.png,1,0,1,0,,,,,0,0,0,0,0,1,1,1,,,,,,,,,,,,,,,,,,,,,,,,,,,,,,,,,,,,,,,99.0,2.965507600456476,"[(99.0, 2.965507600456476)]",320.80783599987626,None,99.0,,,,,,,,,,,sub_215,2022-12-12_17h19.12.013,Reversal,2022.1.2,60.02721653323863,3,
,,,exp3.png,1,0,1,0,,,,,0,0,0,0,0,2,2,2,,,,,,,,,,,,,,,,,,,,,,,,,,,,,,,,,,,,,,,25.0,2.5014374991878867,"[(25.0, 2.5014374991878867)]",324.8373119998723,None,,25.0,,,,,,,,,,sub_215,2022-12-12_17h19.12.013,Reversal,2022.1.2,60.02721653323863,3,
,,,exp4.png,1,0,1,0,,,,,0,0,0,0,0,3,3,3,,,,,,,,,,,,,,,,,,,,,,,,,,,,,,,,,,,,,,,94.0,2.082736600190401,"[(94.0, 2.082736600190401)]",328.32476960029453,None,,,94.0,,,,,,,,,sub_215,2022-12-12_17h19.12.013,Reversal,2022.1.2,60.02721653323863,3,
0,exp1.png,exp2.png,,2,0,2,0,0,0,0,0,,,,,,,,,,,,,,,,,,,,,,,,,True,,,,,,,,,,,,,,,,,,,,,,,,,,,,,,,,,,,,,,sub_215,2022-12-12_17h19.12.013,Reversal,2022.1.2,60.02721653323863,3,
1,exp3.png,exp4.png,,2,0,2,0,0,1,1,1,,,,,,,,,,,,,,,,,,,,,,,,,False,40,41,False,exp3.png,exp4.png,trial_right_image,-1,exp4.png,3,exp4.png,exp3.png,1,1,non-reversed,correct,0.5280365725514488,1,valid_win,249.07943569961935,28,,,,,,,,,,,,,,,,,,sub_215,2022-12-12_17h19.12.013,Reversal,2022.1.2,60.02721653323863,3,
2,exp1.png,exp2.png,,2,0,2,0,0,2,2,2,,,,,,,,,,,,,,,,,,,,,,,,,False,41,42,True,exp2.png,exp1.png,trial_left_image,1,exp2.png,3,exp2.png,exp1.png,1,3,reversed,correct,0.3552152677612276,1,valid_win,252.99454169999808,29,,,,,,,,,,,,,,,,,,sub_215,2022-12-12_17h19.12.013,Reversal,2022.1.2,60.02721653323863,3,
3,exp3.png,exp4.png,,2,0,2,0,0,3,3,3,,,,,,,,,,,,,,,,,,,,,,,,,False,42,43,True,exp4.png,exp3.png,trial_left_image,1,exp4.png,3,exp4.png,exp3.png,1,1,non-reversed,correct,0.4690326910058481,1,valid_win,257.3458492998034,30,,,,,,,,,,,,,,,,,,sub_215,2022-12-12_17h19.12.013,Reversal,2022.1.2,60.02721653323863,3,
4,exp1.png,exp2.png,,2,0,2,0,0,4,4,4,,,,,,,,,,,,,,,,,,,,,,,,,False,43,44,True,exp2.png,exp1.png,trial_left_image,1,exp2.png,3,exp2.png,exp1.png,1,3,reversed,correct,0.5292358848461239,1,valid_win,261.6126105999574,31,,,,,,,,,,,,,,,,,,sub_215,2022-12-12_17h19.12.013,Reversal,2022.1.2,60.02721653323863,3,
5,exp3.png,exp4.png,,2,0,2,0,0,5,5,5,,,,,,,,,,,,,,,,,,,,,,,,,False,44,45,True,exp4.png,exp3.png,trial_left_image,1,exp4.png,3,exp4.png,exp3.png,1,1,non-reversed,correct,0.888291801213413,1,valid_win,265.7289735004306,32,,,,,,,,,,,,,,,,,,sub_215,2022-12-12_17h19.12.013,Reversal,2022.1.2,60.02721653323863,3,
6,exp1.png,exp2.png,,2,0,2,0,0,6,6,6,,,,,,,,,,,,,,,,,,,,,,,,,False,45,46,False,exp1.png,exp2.png,trial_right_image,-1,exp2.png,3,exp2.png,exp1.png,1,3,reversed,correct,0.5887659283296978,1,valid_win,270.045654900372,33,,,,,,,,,,,,,,,,,,sub_215,2022-12-12_17h19.12.013,Reversal,2022.1.2,60.02721653323863,3,
7,exp3.png,exp4.png,,2,0,2,0,0,7,7,7,,,,,,,,,,,,,,,,,,,,,,,,,False,46,47,False,exp3.png,exp4.png,trial_right_image,-1,exp4.png,3,exp4.png,exp3.png,1,1,non-reversed,correct,0.3346415102841461,1,valid_win,274.32903499994427,34,,,,,,,,,,,,,,,,,,sub_215,2022-12-12_17h19.12.013,Reversal,2022.1.2,60.02721653323863,3,
8,exp1.png,exp2.png,,2,0,2,0,0,8,8,8,,,,,,,,,,,,,,,,,,,,,,,,,False,47,48,False,exp1.png,exp2.png,trial_right_image,-1,exp2.png,3,exp2.png,exp1.png,1,3,reversed,correct,0.054444597876477596,0,invalid_lose,278.4779372001067,34,,,,,,,,,,,,,,,,,,sub_215,2022-12-12_17h19.12.013,Reversal,2022.1.2,60.02721653323863,3,
9,exp3.png,exp4.png,,2,0,2,0,0,9,9,9,,,,,,,,,,,,,,,,,,,,,,,,,False,48,49,True,exp4.png,exp3.png,trial_left_image,1,exp4.png,3,exp4.png,exp3.png,1,1,non-reversed,correct,0.05822485789811138,0,invalid_lose,282.7121120002121,34,,,,,,,,,,,,,,,,,,sub_215,2022-12-12_17h19.12.013,Reversal,2022.1.2,60.02721653323863,3,
10,exp1.png,exp2.png,,2,0,2,0,0,10,10,10,,,,,,,,,,,,,,,,,,,,,,,,,False,49,50,False,exp1.png,exp2.png,trial_right_image,-1,exp2.png,3,exp2.png,exp1.png,1,3,reversed,correct,0.6682297154480521,1,valid_win,286.79499819967896,35,,,,,,,,,,,,,,,,,,sub_215,2022-12-12_17h19.12.013,Reversal,2022.1.2,60.02721653323863,3,
11,exp3.png,exp4.png,,2,0,2,0,0,11,11,11,,,,,,,,,,,,,,,,,,,,,,,,,False,50,51,False,exp3.png,exp4.png,trial_right_image,-1,exp4.png,3,exp4.png,exp3.png,1,1,non-reversed,correct,0.8671614972062175,1,valid_win,290.8951286999509,36,,,,,,,,,,,,,,,,,,sub_215,2022-12-12_17h19.12.013,Reversal,2022.1.2,60.02721653323863,3,
12,exp1.png,exp2.png,,2,0,2,0,0,12,12,12,,,,,,,,,,,,,,,,,,,,,,,,,False,51,52,False,exp1.png,exp2.png,trial_right_image,-1,exp2.png,3,exp2.png,exp1.png,1,3,reversed,correct,0.7805186921582519,1,valid_win,295.0451349001378,37,,,,,,,,,,,,,,,,,,sub_215,2022-12-12_17h19.12.013,Reversal,2022.1.2,60.02721653323863,3,
13,exp3.png,exp4.png,,2,0,2,0,0,13,13,13,,,,,,,,,,,,,,,,,,,,,,,,,False,52,53,True,exp4.png,exp3.png,trial_left_image,1,exp4.png,3,exp4.png,exp3.png,1,1,non-reversed,correct,0.4102541455211597,1,valid_win,299.2115129996091,38,,,,,,,,,,,,,,,,,,sub_215,2022-12-12_17h19.12.013,Reversal,2022.1.2,60.02721653323863,3,
14,exp1.png,exp2.png,,2,0,2,0,0,14,14,14,,,,,,,,,,,,,,,,,,,,,,,,,False,53,54,True,exp2.png,exp1.png,trial_left_image,1,exp2.png,3,exp2.png,exp1.png,1,3,reversed,correct,0.8333502328520184,1,valid_win,303.327925699763,39,,,,,,,,,,,,,,,,,,sub_215,2022-12-12_17h19.12.013,Reversal,2022.1.2,60.02721653323863,3,
15,exp3.png,exp4.png,,2,0,2,0,0,15,15,15,,,,,,,,,,,,,,,,,,,,,,,,,False,54,55,False,exp3.png,exp4.png,trial_right_image,-1,exp4.png,3,exp4.png,exp3.png,1,1,non-reversed,correct,0.4437248263694047,1,valid_win,307.47839429974556,40,,,,,,,,,,,,,,,,,,sub_215,2022-12-12_17h19.12.013,Reversal,2022.1.2,60.02721653323863,3,
16,exp1.png,exp2.png,,2,0,2,0,0,16,16,16,,,,,,,,,,,,,,,,,,,,,,,,,False,55,56,True,exp2.png,exp1.png,trial_left_image,1,exp2.png,3,exp2.png,exp1.png,1,3,reversed,correct,0.8993003793383598,1,valid_win,311.71104629989713,41,,,,,,,,,,,,,,,,,,sub_215,2022-12-12_17h19.12.013,Reversal,2022.1.2,60.02721653323863,3,
17,exp3.png,exp4.png,,2,0,2,0,0,17,17,17,,,,,,,,,,,,,,,,,,,,,,,,,False,56,57,False,exp3.png,exp4.png,trial_right_image,-1,exp4.png,3,exp4.png,exp3.png,1,1,non-reversed,correct,0.5397755389938355,1,valid_win,315.87782249972224,42,,,,,,,,,,,,,,,,,,sub_215,2022-12-12_17h19.12.013,Reversal,2022.1.2,60.02721653323863,3,
18,exp1.png,exp2.png,,2,0,2,0,0,18,18,18,,,,,,,,,,,,,,,,,,,,,,,,,False,57,58,True,exp2.png,exp1.png,trial_left_image,1,exp2.png,3,exp2.png,exp1.png,1,3,reversed,correct,0.12029944945792526,0,invalid_lose,320.1781703000888,42,,,,,,,,,,,,,,,,,,sub_215,2022-12-12_17h19.12.013,Reversal,2022.1.2,60.02721653323863,3,
19,exp3.png,exp4.png,,2,0,2,0,0,19,19,19,,,,,,,,,,,,,,,,,,,,,,,,,False,58,59,False,exp3.png,exp4.png,trial_right_image,-1,exp4.png,3,exp4.png,exp3.png,1,1,non-reversed,correct,0.2389759418722407,0,invalid_lose,324.2449345001951,42,,,,,,,,,,,,,,,,,,sub_215,2022-12-12_17h19.12.013,Reversal,2022.1.2,60.02721653323863,3,
20,exp1.png,exp2.png,,2,0,2,0,0,20,20,20,,,,,,,,,,,,,,,,,,,,,,,,,False,59,60,True,exp2.png,exp1.png,trial_left_image,1,exp2.png,3,exp2.png,exp1.png,1,3,reversed,correct,0.3307667858215989,1,valid_win,328.4778198003769,43,,,,,,,,,,,,,,,,,,sub_215,2022-12-12_17h19.12.013,Reversal,2022.1.2,60.02721653323863,3,
,,,exp1.png,2,0,2,0,,,,,0,0,0,0,0,0,0,0,,,,,,,,,,,,,,,,,,,,,,,,,,,,,,,,,,,,,,95.0,95.0,3.6117377998307347,"[(95.0, 3.6117377998307347)]",415.89586909953505,None,,,,,,,,,,,,sub_215,2022-12-12_17h19.12.013,Reversal,2022.1.2,60.02721653323863,3,
,,,exp2.png,2,0,2,0,,,,,0,0,0,0,0,1,1,1,,,,,,,,,,,,,,,,,,,,,,,,,,,,,,,,,,,,,,,95.0,1.5173137998208404,"[(95.0, 1.5173137998208404)]",420.65407270006835,None,95.0,,,,,,,,,,,sub_215,2022-12-12_17h19.12.013,Reversal,2022.1.2,60.02721653323863,3,
,,,exp3.png,2,0,2,0,,,,,0,0,0,0,0,2,2,2,,,,,,,,,,,,,,,,,,,,,,,,,,,,,,,,,,,,,,,100.0,1.5487927999347448,"[(100.0, 1.5487927999347448)]",423.20673269964755,None,,100.0,,,,,,,,,,sub_215,2022-12-12_17h19.12.013,Reversal,2022.1.2,60.02721653323863,3,
,,,exp4.png,2,0,2,0,,,,,0,0,0,0,0,3,3,3,,,,,,,,,,,,,,,,,,,,,,,,,,,,,,,,,,,,,,,100.0,1.7024260004982352,"[(100.0, 1.7024260004982352)]",425.83610740024596,None,,,100.0,,,,,,,,,sub_215,2022-12-12_17h19.12.013,Reversal,2022.1.2,60.02721653323863,3,
0,exp1.png,exp2.png,,,,,,,,,,,,,,,,,,0,0,0,0,0,0,0,0,,,,,,,,,True,,,,,,,,,,,,,,,,,,,,,,,,,,,,,,,,,,,,,,sub_215,2022-12-12_17h19.12.013,Reversal,2022.1.2,60.02721653323863,3,
1,exp3.png,exp4.png,,,,,,,,,,,,,,,,,,0,0,0,0,0,1,1,1,,,,,,,,,False,0,61,False,exp3.png,exp4.png,trial_right_image,-1,exp4.png,3,exp4.png,exp3.png,1,1,non-reversed,correct,0.07945457888217922,0,invalid_lose,345.5109248999506,43,,,,,,,,,,343.736437600106,,,,,,,,sub_215,2022-12-12_17h19.12.013,Reversal,2022.1.2,60.02721653323863,3,
2,exp1.png,exp2.png,,,,,,,,,,,,,,,,,,0,0,0,0,0,2,2,2,,,,,,,,,False,1,62,False,exp1.png,exp2.png,trial_right_image,-1,exp2.png,3,exp1.png,exp2.png,1,3,reversed,incorrect,0.8622825837978921,0,valid_lose,349.5610736999661,43,,,,,,,,,,,,,,,,,,sub_215,2022-12-12_17h19.12.013,Reversal,2022.1.2,60.02721653323863,3,
3,exp3.png,exp4.png,,,,,,,,,,,,,,,,,,0,0,0,0,0,3,3,3,,,,,,,,,False,2,63,True,exp4.png,exp3.png,trial_left_image,1,exp4.png,3,exp4.png,exp3.png,1,1,non-reversed,correct,0.5392023178061769,1,valid_win,353.8605789002031,44,,,,,,,,,,,,,,,,,,sub_215,2022-12-12_17h19.12.013,Reversal,2022.1.2,60.02721653323863,3,
4,exp1.png,exp2.png,,,,,,,,,,,,,,,,,,0,0,0,0,0,4,4,4,,,,,,,,,False,3,64,False,exp1.png,exp2.png,trial_right_image,-1,exp2.png,3,exp1.png,exp2.png,1,3,reversed,incorrect,0.7318462950123483,0,valid_lose,357.993839699775,44,,,,,,,,,,,,,,,,,,sub_215,2022-12-12_17h19.12.013,Reversal,2022.1.2,60.02721653323863,3,
5,exp3.png,exp4.png,,,,,,,,,,,,,,,,,,0,0,0,0,0,5,5,5,,,,,,,,,False,4,65,False,exp3.png,exp4.png,trial_right_image,-1,exp4.png,3,exp4.png,exp3.png,1,1,non-reversed,correct,0.9576699179275784,1,valid_win,362.21038439963013,45,,,,,,,,,,,,,,,,,,sub_215,2022-12-12_17h19.12.013,Reversal,2022.1.2,60.02721653323863,3,
6,exp1.png,exp2.png,,,,,,,,,,,,,,,,,,0,0,0,0,0,6,6,6,,,,,,,,,False,5,66,True,exp2.png,exp1.png,trial_left_image,1,exp2.png,3,exp1.png,exp2.png,1,3,reversed,incorrect,0.8606748089027779,0,valid_lose,366.4608615003526,45,,,,,,,,,,,,,,,,,,sub_215,2022-12-12_17h19.12.013,Reversal,2022.1.2,60.02721653323863,3,
7,exp3.png,exp4.png,,,,,,,,,,,,,,,,,,0,0,0,0,0,7,7,7,,,,,,,,,False,6,67,True,exp4.png,exp3.png,trial_left_image,1,exp4.png,3,exp4.png,exp3.png,1,1,non-reversed,correct,0.20926220349573965,0,invalid_lose,370.6933920998126,45,,,,,,,,,,,,,,,,,,sub_215,2022-12-12_17h19.12.013,Reversal,2022.1.2,60.02721653323863,3,
8,exp1.png,exp2.png,,,,,,,,,,,,,,,,,,0,0,0,0,0,8,8,8,,,,,,,,,False,7,68,False,exp1.png,exp2.png,trial_right_image,-1,exp2.png,3,exp1.png,exp2.png,1,3,reversed,incorrect,0.12964613835898375,1,invalid_win,374.8096420997754,46,,,,,,,,,,,,,,,,,,sub_215,2022-12-12_17h19.12.013,Reversal,2022.1.2,60.02721653323863,3,
9,exp3.png,exp4.png,,,,,,,,,,,,,,,,,,0,0,0,0,0,9,9,9,,,,,,,,,False,8,69,False,exp3.png,exp4.png,trial_right_image,-1,exp4.png,3,exp4.png,exp3.png,1,1,non-reversed,correct,0.8240175147791087,1,valid_win,378.9100416004658,47,,,,,,,,,,,,,,,,,,sub_215,2022-12-12_17h19.12.013,Reversal,2022.1.2,60.02721653323863,3,
10,exp1.png,exp2.png,,,,,,,,,,,,,,,,,,0,0,0,0,0,10,10,10,,,,,,,,,False,9,70,True,exp2.png,exp1.png,trial_left_image,1,exp2.png,3,exp1.png,exp2.png,1,3,reversed,incorrect,0.5608881082772199,0,valid_lose,383.1932290000841,47,,,,,,,,,,,,,,,,,,sub_215,2022-12-12_17h19.12.013,Reversal,2022.1.2,60.02721653323863,3,
11,exp3.png,exp4.png,,,,,,,,,,,,,,,,,,0,0,0,0,0,11,11,11,,,,,,,,,False,10,71,True,exp4.png,exp3.png,trial_left_image,1,exp4.png,3,exp4.png,exp3.png,1,1,non-reversed,correct,0.27987422531203554,1,valid_win,387.37694619968534,48,,,,,,,,,,,,,,,,,,sub_215,2022-12-12_17h19.12.013,Reversal,2022.1.2,60.02721653323863,3,
12,exp1.png,exp2.png,,,,,,,,,,,,,,,,,,0,0,0,0,0,12,12,12,,,,,,,,,False,11,72,True,exp2.png,exp1.png,trial_left_image,1,exp2.png,3,exp1.png,exp2.png,1,3,reversed,incorrect,0.34520249609165443,0,valid_lose,391.5601487001404,48,,,,,,,,,,,,,,,,,,sub_215,2022-12-12_17h19.12.013,Reversal,2022.1.2,60.02721653323863,3,
13,exp3.png,exp4.png,,,,,,,,,,,,,,,,,,0,0,0,0,0,13,13,13,,,,,,,,,False,12,73,False,exp3.png,exp4.png,trial_right_image,-1,exp4.png,3,exp4.png,exp3.png,1,1,non-reversed,correct,0.8485705622861313,1,valid_win,395.8096647001803,49,,,,,,,,,,,,,,,,,,sub_215,2022-12-12_17h19.12.013,Reversal,2022.1.2,60.02721653323863,3,
14,exp1.png,exp2.png,,,,,,,,,,,,,,,,,,0,0,0,0,0,14,14,14,,,,,,,,,False,13,74,True,exp2.png,exp1.png,trial_left_image,1,exp2.png,3,exp1.png,exp2.png,1,3,reversed,incorrect,0.5944660568318704,0,valid_lose,400.14363390021026,49,,,,,,,,,,,,,,,,,,sub_215,2022-12-12_17h19.12.013,Reversal,2022.1.2,60.02721653323863,3,
15,exp3.png,exp4.png,,,,,,,,,,,,,,,,,,0,0,0,0,0,15,15,15,,,,,,,,,False,14,75,True,exp4.png,exp3.png,trial_right_image,-1,exp3.png,3,exp4.png,exp3.png,0,2,non-reversed,incorrect,0.9016051752363522,0,valid_lose,404.24347939994186,49,,,,,,,,,,,,,,,,,,sub_215,2022-12-12_17h19.12.013,Reversal,2022.1.2,60.02721653323863,3,
16,exp1.png,exp2.png,,,,,,,,,,,,,,,,,,0,0,0,0,0,16,16,16,,,,,,,,,False,15,76,False,exp1.png,exp2.png,trial_left_image,1,exp1.png,3,exp1.png,exp2.png,0,4,reversed,correct,0.7198066151790392,1,valid_win,408.54300570022315,50,,,,,,,,,,,,,,,,,,sub_215,2022-12-12_17h19.12.013,Reversal,2022.1.2,60.02721653323863,3,
17,exp3.png,exp4.png,,,,,,,,,,,,,,,,,,0,0,0,0,0,17,17,17,,,,,,,,,False,16,77,False,exp3.png,exp4.png,trial_left_image,1,exp3.png,3,exp4.png,exp3.png,0,2,non-reversed,incorrect,0.10903057950827832,1,invalid_win,412.55964570026845,51,,,,,,,,,,,,,,,,,,sub_215,2022-12-12_17h19.12.013,Reversal,2022.1.2,60.02721653323863,3,
18,exp1.png,exp2.png,,,,,,,,,,,,,,,,,,0,0,0,0,0,18,18,18,,,,,,,,,False,17,78,True,exp2.png,exp1.png,trial_right_image,-1,exp1.png,3,exp1.png,exp2.png,0,4,reversed,correct,0.4599176142729131,1,valid_win,416.7432233998552,52,,,,,,,,,,,,,,,,,,sub_215,2022-12-12_17h19.12.013,Reversal,2022.1.2,60.02721653323863,3,
19,exp3.png,exp4.png,,,,,,,,,,,,,,,,,,0,0,0,0,0,19,19,19,,,,,,,,,False,18,79,False,exp3.png,exp4.png,trial_left_image,1,exp3.png,3,exp4.png,exp3.png,0,2,non-reversed,incorrect,0.9858757255569824,0,valid_lose,420.9266780996695,52,,,,,,,,,,,,,,,,,,sub_215,2022-12-12_17h19.12.013,Reversal,2022.1.2,60.02721653323863,3,
20,exp1.png,exp2.png,,,,,,,,,,,,,,,,,,0,0,0,0,0,20,20,20,,,,,,,,,False,19,80,True,exp2.png,exp1.png,trial_right_image,-1,exp1.png,3,exp1.png,exp2.png,0,4,reversed,correct,0.2665116677376165,1,valid_win,425.44303570035845,53,,,,,,,,,,,,,,,,,,sub_215,2022-12-12_17h19.12.013,Reversal,2022.1.2,60.02721653323863,3,
,,,exp1.png,,,,,,,,,,,,,,,,,0,0,0,0,,,,,0,0,0,0,0,0,0,0,,,,,,,,,,,,,,,,,,,,,,83.0,83.0,2.145409299992025,"[(83.0, 2.145409299992025)]",512.8609392000362,None,,,,,,,,,,,,sub_215,2022-12-12_17h19.12.013,Reversal,2022.1.2,60.02721653323863,3,
,,,exp2.png,,,,,,,,,,,,,,,,,0,0,0,0,,,,,0,0,0,0,0,1,1,1,,,,,,,,,,,,,,,,,,,,,,,96.0,1.334366500377655,"[(96.0, 1.334366500377655)]",515.9685709001496,None,96.0,,,,,,,,,,,sub_215,2022-12-12_17h19.12.013,Reversal,2022.1.2,60.02721653323863,3,
,,,exp3.png,,,,,,,,,,,,,,,,,0,0,0,0,,,,,0,0,0,0,0,2,2,2,,,,,,,,,,,,,,,,,,,,,,,38.0,1.0159157998859882,"[(38.0, 1.0159157998859882)]",518.4373709000647,None,,38.0,,,,,,,,,,sub_215,2022-12-12_17h19.12.013,Reversal,2022.1.2,60.02721653323863,3,
,,,exp4.png,,,,,,,,,,,,,,,,,0,0,0,0,,,,,0,0,0,0,0,3,3,3,,,,,,,,,,,,,,,,,,,,,,,35.0,1.3321279007941484,"[(35.0, 1.3321279007941484)]",520.4400848997757,None,,,35.0,,,,,,,,,sub_215,2022-12-12_17h19.12.013,Reversal,2022.1.2,60.02721653323863,3,
0,exp1.png,exp2.png,,,,,,,,,,,,,,,,,,1,0,1,0,0,0,0,0,,,,,,,,,True,,,,,,,,,,,,,,,,,,,,,,,,,,,,,,,,,,,,,,sub_215,2022-12-12_17h19.12.013,Reversal,2022.1.2,60.02721653323863,3,
1,exp3.png,exp4.png,,,,,,,,,,,,,,,,,,1,0,1,0,0,1,1,1,,,,,,,,,False,20,81,True,exp4.png,exp3.png,trial_right_image,-1,exp3.png,3,exp4.png,exp3.png,0,2,non-reversed,incorrect,0.3806914777565378,0,valid_lose,439.8090875996277,53,,,,,,,,,,,,,,,,,,sub_215,2022-12-12_17h19.12.013,Reversal,2022.1.2,60.02721653323863,3,
2,exp1.png,exp2.png,,,,,,,,,,,,,,,,,,1,0,1,0,0,2,2,2,,,,,,,,,False,21,82,False,exp1.png,exp2.png,trial_left_image,1,exp1.png,3,exp1.png,exp2.png,0,4,reversed,correct,0.9597142883755334,1,valid_win,444.0757523002103,54,,,,,,,,,,,,,,,,,,sub_215,2022-12-12_17h19.12.013,Reversal,2022.1.2,60.02721653323863,3,
3,exp3.png,exp4.png,,,,,,,,,,,,,,,,,,1,0,1,0,0,3,3,3,,,,,,,,,False,22,83,True,exp4.png,exp3.png,trial_left_image,1,exp4.png,3,exp4.png,exp3.png,1,1,non-reversed,correct,0.9921082201048456,1,valid_win,448.5590821998194,55,,,,,,,,,,,,,,,,,,sub_215,2022-12-12_17h19.12.013,Reversal,2022.1.2,60.02721653323863,3,
4,exp1.png,exp2.png,,,,,,,,,,,,,,,,,,1,0,1,0,0,4,4,4,,,,,,,,,False,23,84,False,exp1.png,exp2.png,trial_left_image,1,exp1.png,3,exp1.png,exp2.png,0,4,reversed,correct,0.28500532025097314,1,valid_win,452.59212350007147,56,,,,,,,,,,,,,,,,,,sub_215,2022-12-12_17h19.12.013,Reversal,2022.1.2,60.02721653323863,3,
5,exp3.png,exp4.png,,,,,,,,,,,,,,,,,,1,0,1,0,0,5,5,5,,,,,,,,,False,24,85,False,exp3.png,exp4.png,trial_left_image,1,exp3.png,3,exp4.png,exp3.png,0,2,non-reversed,incorrect,0.7479951556466478,0,valid_lose,456.6758960997686,56,,,,,,,,,,,,,,,,,,sub_215,2022-12-12_17h19.12.013,Reversal,2022.1.2,60.02721653323863,3,
6,exp1.png,exp2.png,,,,,,,,,,,,,,,,,,1,0,1,0,0,6,6,6,,,,,,,,,False,25,86,False,exp1.png,exp2.png,trial_left_image,1,exp1.png,3,exp1.png,exp2.png,0,4,reversed,correct,0.7556669607602636,1,valid_win,460.6581746004522,57,,,,,,,,,,,,,,,,,,sub_215,2022-12-12_17h19.12.013,Reversal,2022.1.2,60.02721653323863,3,
7,exp3.png,exp4.png,,,,,,,,,,,,,,,,,,1,0,1,0,0,7,7,7,,,,,,,,,False,26,87,False,exp3.png,exp4.png,trial_left_image,1,exp3.png,3,exp4.png,exp3.png,0,2,non-reversed,incorrect,0.3010540453735393,0,valid_lose,464.7086616996676,57,,,,,,,,,,,,,,,,,,sub_215,2022-12-12_17h19.12.013,Reversal,2022.1.2,60.02721653323863,3,
8,exp1.png,exp2.png,,,,,,,,,,,,,,,,,,1,0,1,0,0,8,8,8,,,,,,,,,False,27,88,True,exp2.png,exp1.png,trial_right_image,-1,exp1.png,3,exp1.png,exp2.png,0,4,reversed,correct,0.8154612723490803,1,valid_win,468.9922288004309,58,,,,,,,,,,,,,,,,,,sub_215,2022-12-12_17h19.12.013,Reversal,2022.1.2,60.02721653323863,3,
9,exp3.png,exp4.png,,,,,,,,,,,,,,,,,,1,0,1,0,0,9,9,9,,,,,,,,,False,28,89,False,exp3.png,exp4.png,trial_left_image,1,exp3.png,3,exp4.png,exp3.png,0,2,non-reversed,incorrect,0.9162962443148361,0,valid_lose,473.2252968000248,58,,,,,,,,,,,,,,,,,,sub_215,2022-12-12_17h19.12.013,Reversal,2022.1.2,60.02721653323863,3,
10,exp1.png,exp2.png,,,,,,,,,,,,,,,,,,1,0,1,0,0,10,10,10,,,,,,,,,False,29,90,False,exp1.png,exp2.png,trial_left_image,1,exp1.png,3,exp1.png,exp2.png,0,4,reversed,correct,0.7507006062632664,1,valid_win,477.2915342999622,59,,,,,,,,,,,,,,,,,,sub_215,2022-12-12_17h19.12.013,Reversal,2022.1.2,60.02721653323863,3,
11,exp3.png,exp4.png,,,,,,,,,,,,,,,,,,1,0,1,0,0,11,11,11,,,,,,,,,False,30,91,False,exp3.png,exp4.png,trial_left_image,1,exp3.png,3,exp4.png,exp3.png,0,2,non-reversed,incorrect,0.7818800017675847,0,valid_lose,481.3421139996499,59,,,,,,,,,,,,,,,,,,sub_215,2022-12-12_17h19.12.013,Reversal,2022.1.2,60.02721653323863,3,
12,exp1.png,exp2.png,,,,,,,,,,,,,,,,,,1,0,1,0,0,12,12,12,,,,,,,,,False,31,92,False,exp1.png,exp2.png,trial_left_image,1,exp1.png,3,exp1.png,exp2.png,0,4,reversed,correct,0.22325691960199934,0,invalid_lose,485.4749349001795,59,,,,,,,,,,,,,,,,,,sub_215,2022-12-12_17h19.12.013,Reversal,2022.1.2,60.02721653323863,3,
13,exp3.png,exp4.png,,,,,,,,,,,,,,,,,,1,0,1,0,0,13,13,13,,,,,,,,,False,32,93,True,exp4.png,exp3.png,trial_right_image,-1,exp3.png,3,exp4.png,exp3.png,0,2,non-reversed,incorrect,0.14542102019029735,1,invalid_win,489.8246571999043,60,,,,,,,,,,,,,,,,,,sub_215,2022-12-12_17h19.12.013,Reversal,2022.1.2,60.02721653323863,3,
14,exp1.png,exp2.png,,,,,,,,,,,,,,,,,,1,0,1,0,0,14,14,14,,,,,,,,,False,33,94,True,exp2.png,exp1.png,trial_right_image,-1,exp1.png,3,exp1.png,exp2.png,0,4,reversed,correct,0.14968587126438415,0,invalid_lose,493.97459239978343,60,,,,,,,,,,,,,,,,,,sub_215,2022-12-12_17h19.12.013,Reversal,2022.1.2,60.02721653323863,3,
15,exp3.png,exp4.png,,,,,,,,,,,,,,,,,,1,0,1,0,0,15,15,15,,,,,,,,,False,34,95,True,exp4.png,exp3.png,trial_right_image,-1,exp3.png,3,exp4.png,exp3.png,0,2,non-reversed,incorrect,0.5777657235360166,0,valid_lose,498.3076250003651,60,,,,,,,,,,,,,,,,,,sub_215,2022-12-12_17h19.12.013,Reversal,2022.1.2,60.02721653323863,3,
16,exp1.png,exp2.png,,,,,,,,,,,,,,,,,,1,0,1,0,0,16,16,16,,,,,,,,,False,35,96,True,exp2.png,exp1.png,trial_right_image,-1,exp1.png,3,exp1.png,exp2.png,0,4,reversed,correct,0.6134426063206517,1,valid_win,502.37458239961416,61,,,,,,,,,,,,,,,,,,sub_215,2022-12-12_17h19.12.013,Reversal,2022.1.2,60.02721653323863,3,
17,exp3.png,exp4.png,,,,,,,,,,,,,,,,,,1,0,1,0,0,17,17,17,,,,,,,,,False,36,97,True,exp4.png,exp3.png,trial_right_image,-1,exp3.png,3,exp4.png,exp3.png,0,2,non-reversed,incorrect,0.21490941528943086,1,invalid_win,506.2246987996623,62,,,,,,,,,,,,,,,,,,sub_215,2022-12-12_17h19.12.013,Reversal,2022.1.2,60.02721653323863,3,
18,exp1.png,exp2.png,,,,,,,,,,,,,,,,,,1,0,1,0,0,18,18,18,,,,,,,,,False,37,98,True,exp2.png,exp1.png,trial_right_image,-1,exp1.png,3,exp1.png,exp2.png,0,4,reversed,correct,0.8230519034420498,1,valid_win,510.0749417003244,63,,,,,,,,,,,,,,,,,,sub_215,2022-12-12_17h19.12.013,Reversal,2022.1.2,60.02721653323863,3,
19,exp3.png,exp4.png,,,,,,,,,,,,,,,,,,1,0,1,0,0,19,19,19,,,,,,,,,False,38,99,True,exp4.png,exp3.png,trial_right_image,-1,exp3.png,3,exp4.png,exp3.png,0,2,non-reversed,incorrect,0.17271691869764305,1,invalid_win,513.974692299962,64,,,,,,,,,,,,,,,,,,sub_215,2022-12-12_17h19.12.013,Reversal,2022.1.2,60.02721653323863,3,
20,exp1.png,exp2.png,,,,,,,,,,,,,,,,,,1,0,1,0,0,20,20,20,,,,,,,,,False,39,100,False,exp1.png,exp2.png,trial_right_image,-1,exp2.png,3,exp1.png,exp2.png,1,3,reversed,incorrect,0.8951642023942714,0,valid_lose,517.9078754996881,64,,,,,,,,,,,,,,,,,,sub_215,2022-12-12_17h19.12.013,Reversal,2022.1.2,60.02721653323863,3,
,,,exp1.png,,,,,,,,,,,,,,,,,1,0,1,0,,,,,0,0,0,0,0,0,0,0,,,,,,,,,,,,,,,,,,,,,,99.0,99.0,2.213553000241518,"[(99.0, 2.213553000241518)]",605.3218705998734,None,,,,,,,,,,,,sub_215,2022-12-12_17h19.12.013,Reversal,2022.1.2,60.02721653323863,3,
,,,exp2.png,,,,,,,,,,,,,,,,,1,0,1,0,,,,,0,0,0,0,0,1,1,1,,,,,,,,,,,,,,,,,,,,,,,100.0,1.6345642004162073,"[(100.0, 1.6345642004162073)]",608.700022299774,None,100.0,,,,,,,,,,,sub_215,2022-12-12_17h19.12.013,Reversal,2022.1.2,60.02721653323863,3,
,,,exp3.png,,,,,,,,,,,,,,,,,1,0,1,0,,,,,0,0,0,0,0,2,2,2,,,,,,,,,,,,,,,,,,,,,,,99.0,1.3662850996479392,"[(99.0, 1.3662850996479392)]",611.5198047002777,None,,99.0,,,,,,,,,,sub_215,2022-12-12_17h19.12.013,Reversal,2022.1.2,60.02721653323863,3,
,,,exp4.png,,,,,,,,,,,,,,,,,1,0,1,0,,,,,0,0,0,0,0,3,3,3,,,,,,,,,,,,,,,,,,,,,,,100.0,1.2183138998225331,"[(100.0, 1.2183138998225331)]",613.9161353996024,None,,,100.0,,,,,,,,,sub_215,2022-12-12_17h19.12.013,Reversal,2022.1.2,60.02721653323863,3,
0,exp1.png,exp2.png,,,,,,,,,,,,,,,,,,2,0,2,0,0,0,0,0,,,,,,,,,True,,,,,,,,,,,,,,,,,,,,,,,,,,,,,,,,,,,,,,sub_215,2022-12-12_17h19.12.013,Reversal,2022.1.2,60.02721653323863,3,
1,exp3.png,exp4.png,,,,,,,,,,,,,,,,,,2,0,2,0,0,1,1,1,,,,,,,,,False,40,101,True,exp4.png,exp3.png,trial_right_image,-1,exp3.png,3,exp4.png,exp3.png,0,2,non-reversed,incorrect,0.7392724681925404,0,valid_lose,533.0085201002657,64,,,,,,,,,,,,,,,,,,sub_215,2022-12-12_17h19.12.013,Reversal,2022.1.2,60.02721653323863,3,
2,exp1.png,exp2.png,,,,,,,,,,,,,,,,,,2,0,2,0,0,2,2,2,,,,,,,,,False,41,102,False,exp1.png,exp2.png,trial_right_image,-1,exp2.png,3,exp1.png,exp2.png,1,3,reversed,incorrect,0.28389323410284095,0,valid_lose,536.8904181001708,64,,,,,,,,,,,,,,,,,,sub_215,2022-12-12_17h19.12.013,Reversal,2022.1.2,60.02721653323863,3,
3,exp3.png,exp4.png,,,,,,,,,,,,,,,,,,2,0,2,0,0,3,3,3,,,,,,,,,False,42,103,True,exp4.png,exp3.png,trial_right_image,-1,exp3.png,3,exp4.png,exp3.png,0,2,non-reversed,incorrect,0.37649192435528056,0,valid_lose,539.8071654997766,64,,,,,,,,,,,,,,,,,,sub_215,2022-12-12_17h19.12.013,Reversal,2022.1.2,60.02721653323863,3,
4,exp1.png,exp2.png,,,,,,,,,,,,,,,,,,2,0,2,0,0,4,4,4,,,,,,,,,False,43,104,True,exp2.png,exp1.png,trial_right_image,-1,exp1.png,3,exp1.png,exp2.png,0,4,reversed,correct,0.012942103625743884,0,invalid_lose,543.7401224998757,64,,,,,,,,,,,,,,,,,,sub_215,2022-12-12_17h19.12.013,Reversal,2022.1.2,60.02721653323863,3,
5,exp3.png,exp4.png,,,,,,,,,,,,,,,,,,2,0,2,0,0,5,5,5,,,,,,,,,False,44,105,False,exp3.png,exp4.png,trial_right_image,-1,exp4.png,3,exp4.png,exp3.png,1,1,non-reversed,correct,0.050595107303898934,0,invalid_lose,547.6568079004064,64,,,,,,,,,,,,,,,,,,sub_215,2022-12-12_17h19.12.013,Reversal,2022.1.2,60.02721653323863,3,
6,exp1.png,exp2.png,,,,,,,,,,,,,,,,,,2,0,2,0,0,6,6,6,,,,,,,,,False,45,106,False,exp1.png,exp2.png,trial_right_image,-1,exp2.png,3,exp1.png,exp2.png,1,3,reversed,incorrect,0.8001569417068553,0,valid_lose,551.5404909001663,64,,,,,,,,,,,,,,,,,,sub_215,2022-12-12_17h19.12.013,Reversal,2022.1.2,60.02721653323863,3,
7,exp3.png,exp4.png,,,,,,,,,,,,,,,,,,2,0,2,0,0,7,7,7,,,,,,,,,False,46,107,False,exp3.png,exp4.png,trial_right_image,-1,exp4.png,3,exp4.png,exp3.png,1,1,non-reversed,correct,0.19414519633757388,0,invalid_lose,555.3573992997408,64,,,,,,,,,,,,,,,,,,sub_215,2022-12-12_17h19.12.013,Reversal,2022.1.2,60.02721653323863,3,
8,exp1.png,exp2.png,,,,,,,,,,,,,,,,,,2,0,2,0,0,8,8,8,,,,,,,,,False,47,108,False,exp1.png,exp2.png,trial_right_image,-1,exp2.png,3,exp1.png,exp2.png,1,3,reversed,incorrect,0.735229955528964,0,valid_lose,559.2403472997248,64,,,,,,,,,,,,,,,,,,sub_215,2022-12-12_17h19.12.013,Reversal,2022.1.2,60.02721653323863,3,
9,exp3.png,exp4.png,,,,,,,,,,,,,,,,,,2,0,2,0,0,9,9,9,,,,,,,,,False,48,109,False,exp3.png,exp4.png,trial_right_image,-1,exp4.png,3,exp4.png,exp3.png,1,1,non-reversed,correct,0.09096077871932384,0,invalid_lose,563.1905190004036,64,,,,,,,,,,,,,,,,,,sub_215,2022-12-12_17h19.12.013,Reversal,2022.1.2,60.02721653323863,3,
10,exp1.png,exp2.png,,,,,,,,,,,,,,,,,,2,0,2,0,0,10,10,10,,,,,,,,,False,49,110,True,exp2.png,exp1.png,trial_right_image,-1,exp1.png,3,exp1.png,exp2.png,0,4,reversed,correct,0.08991334244306659,0,invalid_lose,567.4403549004346,64,,,,,,,,,,,,,,,,,,sub_215,2022-12-12_17h19.12.013,Reversal,2022.1.2,60.02721653323863,3,
11,exp3.png,exp4.png,,,,,,,,,,,,,,,,,,2,0,2,0,0,11,11,11,,,,,,,,,False,50,111,True,exp4.png,exp3.png,trial_right_image,-1,exp3.png,3,exp4.png,exp3.png,0,2,non-reversed,incorrect,0.554507838877879,0,valid_lose,571.5233947997913,64,,,,,,,,,,,,,,,,,,sub_215,2022-12-12_17h19.12.013,Reversal,2022.1.2,60.02721653323863,3,
12,exp1.png,exp2.png,,,,,,,,,,,,,,,,,,2,0,2,0,0,12,12,12,,,,,,,,,False,51,112,True,exp2.png,exp1.png,trial_right_image,-1,exp1.png,3,exp1.png,exp2.png,0,4,reversed,correct,0.6988754638864575,1,valid_win,575.5730253001675,65,,,,,,,,,,,,,,,,,,sub_215,2022-12-12_17h19.12.013,Reversal,2022.1.2,60.02721653323863,3,
13,exp3.png,exp4.png,,,,,,,,,,,,,,,,,,2,0,2,0,0,13,13,13,,,,,,,,,False,52,113,False,exp3.png,exp4.png,trial_right_image,-1,exp4.png,3,exp4.png,exp3.png,1,1,non-reversed,correct,0.20688412701120995,0,invalid_lose,579.5069270003587,65,,,,,,,,,,,,,,,,,,sub_215,2022-12-12_17h19.12.013,Reversal,2022.1.2,60.02721653323863,3,
14,exp1.png,exp2.png,,,,,,,,,,,,,,,,,,2,0,2,0,0,14,14,14,,,,,,,,,False,53,114,True,exp2.png,exp1.png,trial_right_image,-1,exp1.png,3,exp1.png,exp2.png,0,4,reversed,correct,0.7106524445861321,1,valid_win,582.4397839996964,66,,,,,,,,,,,,,,,,,,sub_215,2022-12-12_17h19.12.013,Reversal,2022.1.2,60.02721653323863,3,
15,exp3.png,exp4.png,,,,,,,,,,,,,,,,,,2,0,2,0,0,15,15,15,,,,,,,,,False,54,115,True,exp4.png,exp3.png,trial_right_image,-1,exp3.png,3,exp4.png,exp3.png,0,2,non-reversed,incorrect,0.6951033921314437,0,valid_lose,585.5393663002178,66,,,,,,,,,,,,,,,,,,sub_215,2022-12-12_17h19.12.013,Reversal,2022.1.2,60.02721653323863,3,
16,exp1.png,exp2.png,,,,,,,,,,,,,,,,,,2,0,2,0,0,16,16,16,,,,,,,,,False,55,116,False,exp1.png,exp2.png,trial_right_image,-1,exp2.png,3,exp1.png,exp2.png,1,3,reversed,incorrect,0.8292740090476707,0,valid_lose,588.6121541000903,66,,,,,,,,,,,,,,,,,,sub_215,2022-12-12_17h19.12.013,Reversal,2022.1.2,60.02721653323863,3,
17,exp3.png,exp4.png,,,,,,,,,,,,,,,,,,2,0,2,0,0,17,17,17,,,,,,,,,False,56,117,True,exp4.png,exp3.png,trial_right_image,-1,exp3.png,3,exp4.png,exp3.png,0,2,non-reversed,incorrect,0.0007522774978503399,1,invalid_win,591.5897503001615,67,,,,,,,,,,,,,,,,,,sub_215,2022-12-12_17h19.12.013,Reversal,2022.1.2,60.02721653323863,3,
18,exp1.png,exp2.png,,,,,,,,,,,,,,,,,,2,0,2,0,0,18,18,18,,,,,,,,,False,57,118,False,exp1.png,exp2.png,trial_right_image,-1,exp2.png,3,exp1.png,exp2.png,1,3,reversed,incorrect,0.6210865291352752,0,valid_lose,594.5051616998389,67,,,,,,,,,,,,,,,,,,sub_215,2022-12-12_17h19.12.013,Reversal,2022.1.2,60.02721653323863,3,
19,exp3.png,exp4.png,,,,,,,,,,,,,,,,,,2,0,2,0,0,19,19,19,,,,,,,,,False,58,119,False,exp3.png,exp4.png,trial_right_image,-1,exp4.png,3,exp4.png,exp3.png,1,1,non-reversed,correct,0.5011451052405179,1,valid_win,597.6559431003407,68,,,,,,,,,,,,,,,,,,sub_215,2022-12-12_17h19.12.013,Reversal,2022.1.2,60.02721653323863,3,
20,exp1.png,exp2.png,,,,,,,,,,,,,,,,,,2,0,2,0,0,20,20,20,,,,,,,,,False,59,120,True,exp2.png,exp1.png,trial_right_image,-1,exp1.png,3,exp1.png,exp2.png,0,4,reversed,correct,0.39980027777457583,1,valid_win,600.555611600168,69,,,,,,,,,,,,,,,,,,sub_215,2022-12-12_17h19.12.013,Reversal,2022.1.2,60.02721653323863,3,
,,,exp1.png,,,,,,,,,,,,,,,,,2,0,2,0,,,,,0,0,0,0,0,0,0,0,,,,,,,,,,,,,,,,,,,,,,100.0,100.0,1.9487415002658963,"[(100.0, 1.9487415002658963)]",687.9684536000714,None,,,,,,,,,,,,sub_215,2022-12-12_17h19.12.013,Reversal,2022.1.2,60.02721653323863,3,
,,,exp2.png,,,,,,,,,,,,,,,,,2,0,2,0,,,,,0,0,0,0,0,1,1,1,,,,,,,,,,,,,,,,,,,,,,,100.0,0.9655452007427812,"[(100.0, 0.9655452007427812)]",691.0846309000626,None,100.0,,,,,,,,,,,sub_215,2022-12-12_17h19.12.013,Reversal,2022.1.2,60.02721653323863,3,
,,,exp3.png,,,,,,,,,,,,,,,,,2,0,2,0,,,,,0,0,0,0,0,2,2,2,,,,,,,,,,,,,,,,,,,,,,,100.0,1.1995142996311188,"[(100.0, 1.1995142996311188)]",693.0843340996653,None,,100.0,,,,,,,,,,sub_215,2022-12-12_17h19.12.013,Reversal,2022.1.2,60.02721653323863,3,
,,,exp4.png,,,,,,,,,,,,,,,,,2,0,2,0,,,,,0,0,0,0,0,3,3,3,,,,,,,,,,,,,,,,,,,,,,,100.0,1.0345799997448921,"[(100.0, 1.0345799997448921)]",695.3488986995071,None,,,100.0,,,,,,,,,sub_215,2022-12-12_17h19.12.013,Reversal,2022.1.2,60.02721653323863,3,
,,,,,,,,,,,,,,,,,,,,,,,,,,,,,,,,,,,,,,,,,,,,,,,,,,,,,,,,69,,,,,,,,,,,77,47,30,268.65376009978354,0,space,39.85751140024513,sub_215,2022-12-12_17h19.12.013,Reversal,2022.1.2,60.02721653323863,3,
