trial_index,trial_image1_file,trial_image2_file,image_file,learning_outer_loop.thisRepN,learning_outer_loop.thisTrialN,learning_outer_loop.thisN,learning_outer_loop.thisIndex,learning_inner_loop.thisRepN,learning_inner_loop.thisTrialN,learning_inner_loop.thisN,learning_inner_loop.thisIndex,learning_estimation_outer_loop.thisRepN,learning_estimation_outer_loop.thisTrialN,learning_estimation_outer_loop.thisN,learning_estimation_outer_loop.thisIndex,learning_estimation_inner_loop.thisRepN,learning_estimation_inner_loop.thisTrialN,learning_estimation_inner_loop.thisN,learning_estimation_inner_loop.thisIndex,reversal_outer_loop.thisRepN,reversal_outer_loop.thisTrialN,reversal_outer_loop.thisN,reversal_outer_loop.thisIndex,reversal_inner_loop.thisRepN,reversal_inner_loop.thisTrialN,reversal_inner_loop.thisN,reversal_inner_loop.thisIndex,reversal_estimation_outer_loop.thisRepN,reversal_estimation_outer_loop.thisTrialN,reversal_estimation_outer_loop.thisN,reversal_estimation_outer_loop.thisIndex,reversal_estimation_inner_loop.thisRepN,reversal_estimation_inner_loop.thisTrialN,reversal_estimation_inner_loop.thisN,reversal_estimation_inner_loop.thisIndex,skipped,total_trial_counter,trial_num,left_right_flip,left_image_file,right_image_file,clicked_stimulus_side,side,clicked_stimulus,version,high_prob_image_file,low_prob_image_file,choice_a,choice_b,pair_type,correct,trial_feedback_random,reward,trial_type,overall_time_after_trial,score,estimation_exp1.png,estimation_rating.response,estimation_rating.rt,estimation_rating.history,estimation_rating.started,estimation_rating.stopped,estimation_exp2.png,estimation_exp3.png,estimation_exp4.png,total_learning_time,total_correct,learning_correct,reversal_correct,total_reversal_time,extra_block,participant,date,expName,psychopyVersion,frameRate,ver,
0,exp1.png,exp2.png,,0,0,0,0,0,0,0,0,,,,,,,,,,,,,,,,,,,,,,,,,False,0,1,True,exp2.png,exp1.png,trial_right_image,-1,exp1.png,1,exp1.png,exp2.png,1,3,reversed,correct,0.17280497490874547,0,invalid_lose,7.065414600016084,0,,,,,,,,,,,,,,,,sub_589,2023-05-14_10h18.30.904,Reversal,2022.1.1,59.90097171960253,1,
1,exp3.png,exp4.png,,0,0,0,0,0,1,1,1,,,,,,,,,,,,,,,,,,,,,,,,,False,1,2,False,exp3.png,exp4.png,trial_right_image,-1,exp4.png,1,exp3.png,exp4.png,0,2,non-reversed,incorrect,0.02002974896343912,1,invalid_win,24.17949290003162,1,,,,,,,,,,,,,,,,sub_589,2023-05-14_10h18.30.904,Reversal,2022.1.1,59.90097171960253,1,
2,exp1.png,exp2.png,,0,0,0,0,0,2,2,2,,,,,,,,,,,,,,,,,,,,,,,,,False,2,3,False,exp1.png,exp2.png,trial_left_image,1,exp1.png,1,exp1.png,exp2.png,1,3,reversed,correct,0.8487796804250056,1,valid_win,31.978126700036228,2,,,,,,,,,,,,,,,,sub_589,2023-05-14_10h18.30.904,Reversal,2022.1.1,59.90097171960253,1,
3,exp3.png,exp4.png,,0,0,0,0,0,3,3,3,,,,,,,,,,,,,,,,,,,,,,,,,False,3,4,False,exp3.png,exp4.png,trial_right_image,-1,exp4.png,1,exp3.png,exp4.png,0,2,non-reversed,incorrect,0.10765400509007983,1,invalid_win,39.62752919999184,3,,,,,,,,,,,,,,,,sub_589,2023-05-14_10h18.30.904,Reversal,2022.1.1,59.90097171960253,1,
4,exp1.png,exp2.png,,0,0,0,0,0,4,4,4,,,,,,,,,,,,,,,,,,,,,,,,,False,4,5,True,exp2.png,exp1.png,trial_right_image,-1,exp1.png,1,exp1.png,exp2.png,1,3,reversed,correct,0.5683272258398512,1,valid_win,44.576425700041,4,,,,,,,,,,,,,,,,sub_589,2023-05-14_10h18.30.904,Reversal,2022.1.1,59.90097171960253,1,
5,exp3.png,exp4.png,,0,0,0,0,0,5,5,5,,,,,,,,,,,,,,,,,,,,,,,,,False,5,6,True,exp4.png,exp3.png,trial_left_image,1,exp4.png,1,exp3.png,exp4.png,0,2,non-reversed,incorrect,0.9443547514053441,0,valid_lose,50.97550780000165,4,,,,,,,,,,,,,,,,sub_589,2023-05-14_10h18.30.904,Reversal,2022.1.1,59.90097171960253,1,
6,exp1.png,exp2.png,,0,0,0,0,0,6,6,6,,,,,,,,,,,,,,,,,,,,,,,,,False,6,7,True,exp2.png,exp1.png,trial_right_image,-1,exp1.png,1,exp1.png,exp2.png,1,3,reversed,correct,0.2337982226365125,0,invalid_lose,58.04144629999064,4,,,,,,,,,,,,,,,,sub_589,2023-05-14_10h18.30.904,Reversal,2022.1.1,59.90097171960253,1,
7,exp3.png,exp4.png,,0,0,0,0,0,7,7,7,,,,,,,,,,,,,,,,,,,,,,,,,False,7,8,False,exp3.png,exp4.png,trial_right_image,-1,exp4.png,1,exp3.png,exp4.png,0,2,non-reversed,incorrect,0.999779033770975,0,valid_lose,63.69081980001647,4,,,,,,,,,,,,,,,,sub_589,2023-05-14_10h18.30.904,Reversal,2022.1.1,59.90097171960253,1,
8,exp1.png,exp2.png,,0,0,0,0,0,8,8,8,,,,,,,,,,,,,,,,,,,,,,,,,False,8,9,True,exp2.png,exp1.png,trial_right_image,-1,exp1.png,1,exp1.png,exp2.png,1,3,reversed,correct,0.9096076629517591,1,valid_win,68.40716160001466,5,,,,,,,,,,,,,,,,sub_589,2023-05-14_10h18.30.904,Reversal,2022.1.1,59.90097171960253,1,
9,exp3.png,exp4.png,,0,0,0,0,0,9,9,9,,,,,,,,,,,,,,,,,,,,,,,,,False,9,10,False,exp3.png,exp4.png,trial_right_image,-1,exp4.png,1,exp3.png,exp4.png,0,2,non-reversed,incorrect,0.9413261321262375,0,valid_lose,77.28925710002659,5,,,,,,,,,,,,,,,,sub_589,2023-05-14_10h18.30.904,Reversal,2022.1.1,59.90097171960253,1,
10,exp1.png,exp2.png,,0,0,0,0,0,10,10,10,,,,,,,,,,,,,,,,,,,,,,,,,False,10,11,True,exp2.png,exp1.png,trial_right_image,-1,exp1.png,1,exp1.png,exp2.png,1,3,reversed,correct,0.28507743509972583,1,valid_win,82.42400490003638,6,,,,,,,,,,,,,,,,sub_589,2023-05-14_10h18.30.904,Reversal,2022.1.1,59.90097171960253,1,
11,exp3.png,exp4.png,,0,0,0,0,0,11,11,11,,,,,,,,,,,,,,,,,,,,,,,,,False,11,12,False,exp3.png,exp4.png,trial_left_image,1,exp3.png,1,exp3.png,exp4.png,1,1,non-reversed,correct,0.35797775648559715,1,valid_win,88.47172370000044,7,,,,,,,,,,,,,,,,sub_589,2023-05-14_10h18.30.904,Reversal,2022.1.1,59.90097171960253,1,
12,exp1.png,exp2.png,,0,0,0,0,0,12,12,12,,,,,,,,,,,,,,,,,,,,,,,,,False,12,13,False,exp1.png,exp2.png,trial_left_image,1,exp1.png,1,exp1.png,exp2.png,1,3,reversed,correct,0.012989802136083362,0,invalid_lose,109.11851070000557,7,,,,,,,,,,,,,,,,sub_589,2023-05-14_10h18.30.904,Reversal,2022.1.1,59.90097171960253,1,
13,exp3.png,exp4.png,,0,0,0,0,0,13,13,13,,,,,,,,,,,,,,,,,,,,,,,,,False,13,14,True,exp4.png,exp3.png,trial_right_image,-1,exp3.png,1,exp3.png,exp4.png,1,1,non-reversed,correct,0.9233082114340486,1,valid_win,117.45151109999279,8,,,,,,,,,,,,,,,,sub_589,2023-05-14_10h18.30.904,Reversal,2022.1.1,59.90097171960253,1,
14,exp1.png,exp2.png,,0,0,0,0,0,14,14,14,,,,,,,,,,,,,,,,,,,,,,,,,False,14,15,False,exp1.png,exp2.png,trial_left_image,1,exp1.png,1,exp1.png,exp2.png,1,3,reversed,correct,0.25961874051649214,1,valid_win,126.69930330000352,9,,,,,,,,,,,,,,,,sub_589,2023-05-14_10h18.30.904,Reversal,2022.1.1,59.90097171960253,1,
15,exp3.png,exp4.png,,0,0,0,0,0,15,15,15,,,,,,,,,,,,,,,,,,,,,,,,,False,15,16,False,exp3.png,exp4.png,trial_right_image,-1,exp4.png,1,exp3.png,exp4.png,0,2,non-reversed,incorrect,0.6393056433911017,0,valid_lose,132.36498280003434,9,,,,,,,,,,,,,,,,sub_589,2023-05-14_10h18.30.904,Reversal,2022.1.1,59.90097171960253,1,
16,exp1.png,exp2.png,,0,0,0,0,0,16,16,16,,,,,,,,,,,,,,,,,,,,,,,,,False,16,17,True,exp2.png,exp1.png,trial_right_image,-1,exp1.png,1,exp1.png,exp2.png,1,3,reversed,correct,0.28741293627456876,1,valid_win,136.81501710001612,10,,,,,,,,,,,,,,,,sub_589,2023-05-14_10h18.30.904,Reversal,2022.1.1,59.90097171960253,1,
17,exp3.png,exp4.png,,0,0,0,0,0,17,17,17,,,,,,,,,,,,,,,,,,,,,,,,,False,17,18,True,exp4.png,exp3.png,trial_right_image,-1,exp3.png,1,exp3.png,exp4.png,1,1,non-reversed,correct,0.35922142898895326,1,valid_win,142.31505510001443,11,,,,,,,,,,,,,,,,sub_589,2023-05-14_10h18.30.904,Reversal,2022.1.1,59.90097171960253,1,
18,exp1.png,exp2.png,,0,0,0,0,0,18,18,18,,,,,,,,,,,,,,,,,,,,,,,,,False,18,19,True,exp2.png,exp1.png,trial_left_image,1,exp2.png,1,exp1.png,exp2.png,0,4,reversed,incorrect,0.39918800562536827,0,valid_lose,147.2327430000296,11,,,,,,,,,,,,,,,,sub_589,2023-05-14_10h18.30.904,Reversal,2022.1.1,59.90097171960253,1,
19,exp3.png,exp4.png,,0,0,0,0,0,19,19,19,,,,,,,,,,,,,,,,,,,,,,,,,False,19,20,False,exp3.png,exp4.png,trial_left_image,1,exp3.png,1,exp3.png,exp4.png,1,1,non-reversed,correct,0.9337572891337885,1,valid_win,153.12956949998625,12,,,,,,,,,,,,,,,,sub_589,2023-05-14_10h18.30.904,Reversal,2022.1.1,59.90097171960253,1,
20,exp1.png,exp2.png,,0,0,0,0,0,20,20,20,,,,,,,,,,,,,,,,,,,,,,,,,True,,,,,,,,,,,,,,,,,,,,,,,,,,,,,,,,,,,,sub_589,2023-05-14_10h18.30.904,Reversal,2022.1.1,59.90097171960253,1,
,,,exp1.png,0,0,0,0,,,,,0,0,0,0,0,0,0,0,,,,,,,,,,,,,,,,,,,,,,,,,,,,,,,,,,,,,,81.0,81.0,10.105422699998599,"[(81.0, 10.105422699998599)]",225.89972590003163,None,,,,,,,,,,sub_589,2023-05-14_10h18.30.904,Reversal,2022.1.1,59.90097171960253,1,
,,,exp2.png,0,0,0,0,,,,,0,0,0,0,0,1,1,1,,,,,,,,,,,,,,,,,,,,,,,,,,,,,,,,,,,,,,,22.0,5.256058699975256,"[(38.0, 3.243957699974999), (22.0, 5.256058699975256)]",236.97854139999254,None,22.0,,,,,,,,,sub_589,2023-05-14_10h18.30.904,Reversal,2022.1.1,59.90097171960253,1,
,,,exp3.png,0,0,0,0,,,,,0,0,0,0,0,2,2,2,,,,,,,,,,,,,,,,,,,,,,,,,,,,,,,,,,,,,,,32.0,2.761848699999973,"[(32.0, 2.761848699999973)]",243.36384290002752,None,,32.0,,,,,,,,sub_589,2023-05-14_10h18.30.904,Reversal,2022.1.1,59.90097171960253,1,
,,,exp4.png,0,0,0,0,,,,,0,0,0,0,0,3,3,3,,,,,,,,,,,,,,,,,,,,,,,,,,,,,,,,,,,,,,,73.0,6.427131500036921,"[(79.0, 4.091888300026767), (80.0, 5.198403300018981), (73.0, 6.427131500036921)]",246.96345199999632,None,,,73.0,,,,,,,sub_589,2023-05-14_10h18.30.904,Reversal,2022.1.1,59.90097171960253,1,
0,exp1.png,exp2.png,,1,0,1,0,0,0,0,0,,,,,,,,,,,,,,,,,,,,,,,,,False,20,21,False,exp1.png,exp2.png,trial_left_image,1,exp1.png,1,exp1.png,exp2.png,1,3,reversed,correct,0.35751994010581933,1,valid_win,188.7917987999972,13,,,,,,,,,,,,,,,,sub_589,2023-05-14_10h18.30.904,Reversal,2022.1.1,59.90097171960253,1,
1,exp3.png,exp4.png,,1,0,1,0,0,1,1,1,,,,,,,,,,,,,,,,,,,,,,,,,False,21,22,True,exp4.png,exp3.png,trial_left_image,1,exp4.png,1,exp3.png,exp4.png,0,2,non-reversed,incorrect,0.824273074497471,0,valid_lose,195.50728120002896,13,,,,,,,,,,,,,,,,sub_589,2023-05-14_10h18.30.904,Reversal,2022.1.1,59.90097171960253,1,
2,exp1.png,exp2.png,,1,0,1,0,0,2,2,2,,,,,,,,,,,,,,,,,,,,,,,,,False,22,23,False,exp1.png,exp2.png,trial_left_image,1,exp1.png,1,exp1.png,exp2.png,1,3,reversed,correct,0.5911468945182425,1,valid_win,203.13959830004023,14,,,,,,,,,,,,,,,,sub_589,2023-05-14_10h18.30.904,Reversal,2022.1.1,59.90097171960253,1,
3,exp3.png,exp4.png,,1,0,1,0,0,3,3,3,,,,,,,,,,,,,,,,,,,,,,,,,False,23,24,True,exp4.png,exp3.png,trial_left_image,1,exp4.png,1,exp3.png,exp4.png,0,2,non-reversed,incorrect,0.17749980105773733,1,invalid_win,208.52216880000196,15,,,,,,,,,,,,,,,,sub_589,2023-05-14_10h18.30.904,Reversal,2022.1.1,59.90097171960253,1,
4,exp1.png,exp2.png,,1,0,1,0,0,4,4,4,,,,,,,,,,,,,,,,,,,,,,,,,False,24,25,False,exp1.png,exp2.png,trial_left_image,1,exp1.png,1,exp1.png,exp2.png,1,3,reversed,correct,0.9061308922135266,1,valid_win,214.020996700041,16,,,,,,,,,,,,,,,,sub_589,2023-05-14_10h18.30.904,Reversal,2022.1.1,59.90097171960253,1,
5,exp3.png,exp4.png,,1,0,1,0,0,5,5,5,,,,,,,,,,,,,,,,,,,,,,,,,False,25,26,True,exp4.png,exp3.png,trial_left_image,1,exp4.png,1,exp3.png,exp4.png,0,2,non-reversed,incorrect,0.9853207047523302,0,valid_lose,219.30382690002443,16,,,,,,,,,,,,,,,,sub_589,2023-05-14_10h18.30.904,Reversal,2022.1.1,59.90097171960253,1,
6,exp1.png,exp2.png,,1,0,1,0,0,6,6,6,,,,,,,,,,,,,,,,,,,,,,,,,False,26,27,False,exp1.png,exp2.png,trial_left_image,1,exp1.png,1,exp1.png,exp2.png,1,3,reversed,correct,0.4240215471221145,1,valid_win,224.18633220001357,17,,,,,,,,,,,,,,,,sub_589,2023-05-14_10h18.30.904,Reversal,2022.1.1,59.90097171960253,1,
7,exp3.png,exp4.png,,1,0,1,0,0,7,7,7,,,,,,,,,,,,,,,,,,,,,,,,,False,27,28,True,exp4.png,exp3.png,trial_left_image,1,exp4.png,1,exp3.png,exp4.png,0,2,non-reversed,incorrect,0.6368051515014591,0,valid_lose,229.2859565000399,17,,,,,,,,,,,,,,,,sub_589,2023-05-14_10h18.30.904,Reversal,2022.1.1,59.90097171960253,1,
8,exp1.png,exp2.png,,1,0,1,0,0,8,8,8,,,,,,,,,,,,,,,,,,,,,,,,,False,28,29,True,exp2.png,exp1.png,trial_right_image,-1,exp1.png,1,exp1.png,exp2.png,1,3,reversed,correct,0.4526702545193084,1,valid_win,234.2849239000352,18,,,,,,,,,,,,,,,,sub_589,2023-05-14_10h18.30.904,Reversal,2022.1.1,59.90097171960253,1,
9,exp3.png,exp4.png,,1,0,1,0,0,9,9,9,,,,,,,,,,,,,,,,,,,,,,,,,False,29,30,True,exp4.png,exp3.png,trial_right_image,-1,exp3.png,1,exp3.png,exp4.png,1,1,non-reversed,correct,0.9366655827471488,1,valid_win,239.30231440003263,19,,,,,,,,,,,,,,,,sub_589,2023-05-14_10h18.30.904,Reversal,2022.1.1,59.90097171960253,1,
10,exp1.png,exp2.png,,1,0,1,0,0,10,10,10,,,,,,,,,,,,,,,,,,,,,,,,,False,30,31,True,exp2.png,exp1.png,trial_right_image,-1,exp1.png,1,exp1.png,exp2.png,1,3,reversed,correct,0.7290538409014499,1,valid_win,244.01869029999943,20,,,,,,,,,,,,,,,,sub_589,2023-05-14_10h18.30.904,Reversal,2022.1.1,59.90097171960253,1,
11,exp3.png,exp4.png,,1,0,1,0,0,11,11,11,,,,,,,,,,,,,,,,,,,,,,,,,False,31,32,False,exp3.png,exp4.png,trial_left_image,1,exp3.png,1,exp3.png,exp4.png,1,1,non-reversed,correct,0.8604829406365094,1,valid_win,249.4337596000405,21,,,,,,,,,,,,,,,,sub_589,2023-05-14_10h18.30.904,Reversal,2022.1.1,59.90097171960253,1,
12,exp1.png,exp2.png,,1,0,1,0,0,12,12,12,,,,,,,,,,,,,,,,,,,,,,,,,False,32,33,False,exp1.png,exp2.png,trial_left_image,1,exp1.png,1,exp1.png,exp2.png,1,3,reversed,correct,0.48569332276389177,1,valid_win,253.99984300002689,22,,,,,,,,,,,,,,,,sub_589,2023-05-14_10h18.30.904,Reversal,2022.1.1,59.90097171960253,1,
13,exp3.png,exp4.png,,1,0,1,0,0,13,13,13,,,,,,,,,,,,,,,,,,,,,,,,,False,33,34,True,exp4.png,exp3.png,trial_right_image,-1,exp3.png,1,exp3.png,exp4.png,1,1,non-reversed,correct,0.6156982520638598,1,valid_win,259.2652728999965,23,,,,,,,,,,,,,,,,sub_589,2023-05-14_10h18.30.904,Reversal,2022.1.1,59.90097171960253,1,
14,exp1.png,exp2.png,,1,0,1,0,0,14,14,14,,,,,,,,,,,,,,,,,,,,,,,,,False,34,35,True,exp2.png,exp1.png,trial_right_image,-1,exp1.png,1,exp1.png,exp2.png,1,3,reversed,correct,0.14807014384536332,0,invalid_lose,264.8494987000013,23,,,,,,,,,,,,,,,,sub_589,2023-05-14_10h18.30.904,Reversal,2022.1.1,59.90097171960253,1,
15,exp3.png,exp4.png,,1,0,1,0,0,15,15,15,,,,,,,,,,,,,,,,,,,,,,,,,False,35,36,False,exp3.png,exp4.png,trial_left_image,1,exp3.png,1,exp3.png,exp4.png,1,1,non-reversed,correct,0.939428136992249,1,valid_win,270.69749059999594,24,,,,,,,,,,,,,,,,sub_589,2023-05-14_10h18.30.904,Reversal,2022.1.1,59.90097171960253,1,
16,exp1.png,exp2.png,,1,0,1,0,0,16,16,16,,,,,,,,,,,,,,,,,,,,,,,,,False,36,37,True,exp2.png,exp1.png,trial_right_image,-1,exp1.png,1,exp1.png,exp2.png,1,3,reversed,correct,0.08128322664858412,0,invalid_lose,275.66364839999005,24,,,,,,,,,,,,,,,,sub_589,2023-05-14_10h18.30.904,Reversal,2022.1.1,59.90097171960253,1,
17,exp3.png,exp4.png,,1,0,1,0,0,17,17,17,,,,,,,,,,,,,,,,,,,,,,,,,False,37,38,False,exp3.png,exp4.png,trial_right_image,-1,exp4.png,1,exp3.png,exp4.png,0,2,non-reversed,incorrect,0.1257389595390902,1,invalid_win,280.7625017000246,25,,,,,,,,,,,,,,,,sub_589,2023-05-14_10h18.30.904,Reversal,2022.1.1,59.90097171960253,1,
18,exp1.png,exp2.png,,1,0,1,0,0,18,18,18,,,,,,,,,,,,,,,,,,,,,,,,,False,38,39,False,exp1.png,exp2.png,trial_left_image,1,exp1.png,1,exp1.png,exp2.png,1,3,reversed,correct,0.07424094003998305,0,invalid_lose,285.54560380004114,25,,,,,,,,,,,,,,,,sub_589,2023-05-14_10h18.30.904,Reversal,2022.1.1,59.90097171960253,1,
19,exp3.png,exp4.png,,1,0,1,0,0,19,19,19,,,,,,,,,,,,,,,,,,,,,,,,,False,39,40,False,exp3.png,exp4.png,trial_left_image,1,exp3.png,1,exp3.png,exp4.png,1,1,non-reversed,correct,0.8618112191104134,1,valid_win,291.0946278999909,26,,,,,,,,,,,,,,,,sub_589,2023-05-14_10h18.30.904,Reversal,2022.1.1,59.90097171960253,1,
20,exp1.png,exp2.png,,1,0,1,0,0,20,20,20,,,,,,,,,,,,,,,,,,,,,,,,,True,,,,,,,,,,,,,,,,,,,,,,,,,,,,,,,,,,,,sub_589,2023-05-14_10h18.30.904,Reversal,2022.1.1,59.90097171960253,1,
,,,exp1.png,1,0,1,0,,,,,0,0,0,0,0,0,0,0,,,,,,,,,,,,,,,,,,,,,,,,,,,,,,,,,,,,,,90.0,90.0,6.194938500004355,"[(90.0, 6.194938500004355)]",363.86865120002767,None,,,,,,,,,,sub_589,2023-05-14_10h18.30.904,Reversal,2022.1.1,59.90097171960253,1,
,,,exp2.png,1,0,1,0,,,,,0,0,0,0,0,1,1,1,,,,,,,,,,,,,,,,,,,,,,,,,,,,,,,,,,,,,,,50.0,None,[],371.3947044000379,None,,,,,,,,,,sub_589,2023-05-14_10h18.30.904,Reversal,2022.1.1,59.90097171960253,1,
,,,exp3.png,1,0,1,0,,,,,0,0,0,0,0,2,2,2,,,,,,,,,,,,,,,,,,,,,,,,,,,,,,,,,,,,,,,50.0,None,[],373.56133769999724,None,,,,,,,,,,sub_589,2023-05-14_10h18.30.904,Reversal,2022.1.1,59.90097171960253,1,
,,,exp4.png,1,0,1,0,,,,,0,0,0,0,0,3,3,3,,,,,,,,,,,,,,,,,,,,,,,,,,,,,,,,,,,,,,,50.0,None,[],375.37529019999783,None,,,,,,,,,,sub_589,2023-05-14_10h18.30.904,Reversal,2022.1.1,59.90097171960253,1,
0,exp1.png,exp2.png,,2,0,2,0,0,0,0,0,,,,,,,,,,,,,,,,,,,,,,,,,False,40,41,False,exp1.png,exp2.png,trial_left_image,1,exp1.png,1,exp1.png,exp2.png,1,3,reversed,correct,0.7541100755613713,1,valid_win,316.5083972000284,27,,,,,,,,,,,,,,,,sub_589,2023-05-14_10h18.30.904,Reversal,2022.1.1,59.90097171960253,1,
1,exp3.png,exp4.png,,2,0,2,0,0,1,1,1,,,,,,,,,,,,,,,,,,,,,,,,,False,41,42,False,exp3.png,exp4.png,trial_left_image,1,exp3.png,1,exp3.png,exp4.png,1,1,non-reversed,correct,0.3307144528905712,1,valid_win,321.9256211000029,28,,,,,,,,,,,,,,,,sub_589,2023-05-14_10h18.30.904,Reversal,2022.1.1,59.90097171960253,1,
2,exp1.png,exp2.png,,2,0,2,0,0,2,2,2,,,,,,,,,,,,,,,,,,,,,,,,,False,42,43,True,exp2.png,exp1.png,trial_right_image,-1,exp1.png,1,exp1.png,exp2.png,1,3,reversed,correct,0.9312879703681557,1,valid_win,330.3227054000017,29,,,,,,,,,,,,,,,,sub_589,2023-05-14_10h18.30.904,Reversal,2022.1.1,59.90097171960253,1,
3,exp3.png,exp4.png,,2,0,2,0,0,3,3,3,,,,,,,,,,,,,,,,,,,,,,,,,False,43,44,False,exp3.png,exp4.png,trial_right_image,-1,exp4.png,1,exp3.png,exp4.png,0,2,non-reversed,incorrect,0.42331273330135444,0,valid_lose,335.30671010003425,29,,,,,,,,,,,,,,,,sub_589,2023-05-14_10h18.30.904,Reversal,2022.1.1,59.90097171960253,1,
4,exp1.png,exp2.png,,2,0,2,0,0,4,4,4,,,,,,,,,,,,,,,,,,,,,,,,,False,44,45,False,exp1.png,exp2.png,trial_left_image,1,exp1.png,1,exp1.png,exp2.png,1,3,reversed,correct,0.6814457064468753,1,valid_win,339.889567300037,30,,,,,,,,,,,,,,,,sub_589,2023-05-14_10h18.30.904,Reversal,2022.1.1,59.90097171960253,1,
5,exp3.png,exp4.png,,2,0,2,0,0,5,5,5,,,,,,,,,,,,,,,,,,,,,,,,,False,45,46,True,exp4.png,exp3.png,trial_left_image,1,exp4.png,1,exp3.png,exp4.png,0,2,non-reversed,incorrect,0.40077901892751167,0,valid_lose,345.0557759000221,30,,,,,,,,,,,,,,,,sub_589,2023-05-14_10h18.30.904,Reversal,2022.1.1,59.90097171960253,1,
6,exp1.png,exp2.png,,2,0,2,0,0,6,6,6,,,,,,,,,,,,,,,,,,,,,,,,,False,46,47,True,exp2.png,exp1.png,trial_right_image,-1,exp1.png,1,exp1.png,exp2.png,1,3,reversed,correct,0.6264103557661105,1,valid_win,349.73915969999507,31,,,,,,,,,,,,,,,,sub_589,2023-05-14_10h18.30.904,Reversal,2022.1.1,59.90097171960253,1,
7,exp3.png,exp4.png,,2,0,2,0,0,7,7,7,,,,,,,,,,,,,,,,,,,,,,,,,False,47,48,False,exp3.png,exp4.png,trial_right_image,-1,exp4.png,1,exp3.png,exp4.png,0,2,non-reversed,incorrect,0.32508856524260354,0,valid_lose,355.31972090003546,31,,,,,,,,,,,,,,,,sub_589,2023-05-14_10h18.30.904,Reversal,2022.1.1,59.90097171960253,1,
8,exp1.png,exp2.png,,2,0,2,0,0,8,8,8,,,,,,,,,,,,,,,,,,,,,,,,,False,48,49,True,exp2.png,exp1.png,trial_right_image,-1,exp1.png,1,exp1.png,exp2.png,1,3,reversed,correct,0.47370724721583546,1,valid_win,361.0023485000129,32,,,,,,,,,,,,,,,,sub_589,2023-05-14_10h18.30.904,Reversal,2022.1.1,59.90097171960253,1,
9,exp3.png,exp4.png,,2,0,2,0,0,9,9,9,,,,,,,,,,,,,,,,,,,,,,,,,False,49,50,False,exp3.png,exp4.png,trial_right_image,-1,exp4.png,1,exp3.png,exp4.png,0,2,non-reversed,incorrect,0.20002311998855304,1,invalid_win,365.9850402000011,33,,,,,,,,,,,,,,,,sub_589,2023-05-14_10h18.30.904,Reversal,2022.1.1,59.90097171960253,1,
10,exp1.png,exp2.png,,2,0,2,0,0,10,10,10,,,,,,,,,,,,,,,,,,,,,,,,,False,50,51,True,exp2.png,exp1.png,trial_right_image,-1,exp1.png,1,exp1.png,exp2.png,1,3,reversed,correct,0.8765574019243693,1,valid_win,370.5842415000079,34,,,,,,,,,,,,,,,,sub_589,2023-05-14_10h18.30.904,Reversal,2022.1.1,59.90097171960253,1,
11,exp3.png,exp4.png,,2,0,2,0,0,11,11,11,,,,,,,,,,,,,,,,,,,,,,,,,False,51,52,True,exp4.png,exp3.png,trial_left_image,1,exp4.png,1,exp3.png,exp4.png,0,2,non-reversed,incorrect,0.314170178357259,0,valid_lose,375.6673923000344,34,,,,,,,,,,,,,,,,sub_589,2023-05-14_10h18.30.904,Reversal,2022.1.1,59.90097171960253,1,
12,exp1.png,exp2.png,,2,0,2,0,0,12,12,12,,,,,,,,,,,,,,,,,,,,,,,,,False,52,53,False,exp1.png,exp2.png,trial_left_image,1,exp1.png,1,exp1.png,exp2.png,1,3,reversed,correct,0.6298461894548658,1,valid_win,380.3668824000051,35,,,,,,,,,,,,,,,,sub_589,2023-05-14_10h18.30.904,Reversal,2022.1.1,59.90097171960253,1,
13,exp3.png,exp4.png,,2,0,2,0,0,13,13,13,,,,,,,,,,,,,,,,,,,,,,,,,False,53,54,False,exp3.png,exp4.png,trial_right_image,-1,exp4.png,1,exp3.png,exp4.png,0,2,non-reversed,incorrect,0.06287927866891008,1,invalid_win,386.31559660000494,36,,,,,,,,,,,,,,,,sub_589,2023-05-14_10h18.30.904,Reversal,2022.1.1,59.90097171960253,1,
14,exp1.png,exp2.png,,2,0,2,0,0,14,14,14,,,,,,,,,,,,,,,,,,,,,,,,,False,54,55,False,exp1.png,exp2.png,trial_left_image,1,exp1.png,1,exp1.png,exp2.png,1,3,reversed,correct,0.7366707998056924,1,valid_win,392.550661700021,37,,,,,,,,,,,,,,,,sub_589,2023-05-14_10h18.30.904,Reversal,2022.1.1,59.90097171960253,1,
15,exp3.png,exp4.png,,2,0,2,0,0,15,15,15,,,,,,,,,,,,,,,,,,,,,,,,,False,55,56,True,exp4.png,exp3.png,trial_left_image,1,exp4.png,1,exp3.png,exp4.png,0,2,non-reversed,incorrect,0.9613646244096176,0,valid_lose,397.26393640000606,37,,,,,,,,,,,,,,,,sub_589,2023-05-14_10h18.30.904,Reversal,2022.1.1,59.90097171960253,1,
16,exp1.png,exp2.png,,2,0,2,0,0,16,16,16,,,,,,,,,,,,,,,,,,,,,,,,,False,56,57,True,exp2.png,exp1.png,trial_right_image,-1,exp1.png,1,exp1.png,exp2.png,1,3,reversed,correct,0.355541798932854,1,valid_win,401.96392880001804,38,,,,,,,,,,,,,,,,sub_589,2023-05-14_10h18.30.904,Reversal,2022.1.1,59.90097171960253,1,
17,exp3.png,exp4.png,,2,0,2,0,0,17,17,17,,,,,,,,,,,,,,,,,,,,,,,,,False,57,58,True,exp4.png,exp3.png,trial_left_image,1,exp4.png,1,exp3.png,exp4.png,0,2,non-reversed,incorrect,0.29851354123981266,0,valid_lose,406.8958958000294,38,,,,,,,,,,,,,,,,sub_589,2023-05-14_10h18.30.904,Reversal,2022.1.1,59.90097171960253,1,
18,exp1.png,exp2.png,,2,0,2,0,0,18,18,18,,,,,,,,,,,,,,,,,,,,,,,,,False,58,59,False,exp1.png,exp2.png,trial_left_image,1,exp1.png,1,exp1.png,exp2.png,1,3,reversed,correct,0.31465289598270063,1,valid_win,411.57892440003343,39,,,,,,,,,,,,,,,,sub_589,2023-05-14_10h18.30.904,Reversal,2022.1.1,59.90097171960253,1,
19,exp3.png,exp4.png,,2,0,2,0,0,19,19,19,,,,,,,,,,,,,,,,,,,,,,,,,False,59,60,True,exp4.png,exp3.png,trial_right_image,-1,exp3.png,1,exp3.png,exp4.png,1,1,non-reversed,correct,0.8238906707468928,1,valid_win,417.0461565000005,40,,,,,,,,,,,,,,,,sub_589,2023-05-14_10h18.30.904,Reversal,2022.1.1,59.90097171960253,1,
20,exp1.png,exp2.png,,2,0,2,0,0,20,20,20,,,,,,,,,,,,,,,,,,,,,,,,,True,,,,,,,,,,,,,,,,,,,,,,,,,,,,,,,,,,,,sub_589,2023-05-14_10h18.30.904,Reversal,2022.1.1,59.90097171960253,1,
,,,exp1.png,2,0,2,0,,,,,0,0,0,0,0,0,0,0,,,,,,,,,,,,,,,,,,,,,,,,,,,,,,,,,,,,,,99.0,99.0,5.627681299985852,"[(99.0, 5.627681299985852)]",489.8134676000336,None,,,,,,,,,,sub_589,2023-05-14_10h18.30.904,Reversal,2022.1.1,59.90097171960253,1,
,,,exp2.png,2,0,2,0,,,,,0,0,0,0,0,1,1,1,,,,,,,,,,,,,,,,,,,,,,,,,,,,,,,,,,,,,,,1.0,1.3937162999645807,"[(1.0, 1.3937162999645807)]",496.53000460000476,None,1.0,,,,,,,,,sub_589,2023-05-14_10h18.30.904,Reversal,2022.1.1,59.90097171960253,1,
,,,exp3.png,2,0,2,0,,,,,0,0,0,0,0,2,2,2,,,,,,,,,,,,,,,,,,,,,,,,,,,,,,,,,,,,,,,50.0,None,[],499.02004929998657,None,,,,,,,,,,sub_589,2023-05-14_10h18.30.904,Reversal,2022.1.1,59.90097171960253,1,
,,,exp4.png,2,0,2,0,,,,,0,0,0,0,0,3,3,3,,,,,,,,,,,,,,,,,,,,,,,,,,,,,,,,,,,,,,,50.0,None,[],500.7960566999973,None,,,,,,,,,,sub_589,2023-05-14_10h18.30.904,Reversal,2022.1.1,59.90097171960253,1,
0,exp1.png,exp2.png,,3,0,3,0,0,0,0,0,,,,,,,,,,,,,,,,,,,,,,,,,False,60,61,True,exp2.png,exp1.png,trial_right_image,-1,exp1.png,1,exp1.png,exp2.png,1,3,reversed,correct,0.6815431647727594,1,valid_win,435.02632240002276,41,,,,,,,,,,,,,,,,sub_589,2023-05-14_10h18.30.904,Reversal,2022.1.1,59.90097171960253,1,
1,exp3.png,exp4.png,,3,0,3,0,0,1,1,1,,,,,,,,,,,,,,,,,,,,,,,,,False,61,62,True,exp4.png,exp3.png,trial_right_image,-1,exp3.png,1,exp3.png,exp4.png,1,1,non-reversed,correct,0.6801925625844207,1,valid_win,440.193285699992,42,,,,,,,,,,,,,,,,sub_589,2023-05-14_10h18.30.904,Reversal,2022.1.1,59.90097171960253,1,
2,exp1.png,exp2.png,,3,0,3,0,0,2,2,2,,,,,,,,,,,,,,,,,,,,,,,,,False,62,63,False,exp1.png,exp2.png,trial_left_image,1,exp1.png,1,exp1.png,exp2.png,1,3,reversed,correct,0.04634686981668901,0,invalid_lose,445.008216599992,42,,,,,,,,,,,,,,,,sub_589,2023-05-14_10h18.30.904,Reversal,2022.1.1,59.90097171960253,1,
3,exp3.png,exp4.png,,3,0,3,0,0,3,3,3,,,,,,,,,,,,,,,,,,,,,,,,,False,63,64,False,exp3.png,exp4.png,trial_left_image,1,exp3.png,1,exp3.png,exp4.png,1,1,non-reversed,correct,0.24911576219940534,0,invalid_lose,449.9407043000101,42,,,,,,,,,,,,,,,,sub_589,2023-05-14_10h18.30.904,Reversal,2022.1.1,59.90097171960253,1,
4,exp1.png,exp2.png,,3,0,3,0,0,4,4,4,,,,,,,,,,,,,,,,,,,,,,,,,False,64,65,False,exp1.png,exp2.png,trial_right_image,-1,exp2.png,1,exp1.png,exp2.png,0,4,reversed,incorrect,0.7985999760118166,0,valid_lose,454.5078655999969,42,,,,,,,,,,,,,,,,sub_589,2023-05-14_10h18.30.904,Reversal,2022.1.1,59.90097171960253,1,
5,exp3.png,exp4.png,,3,0,3,0,0,5,5,5,,,,,,,,,,,,,,,,,,,,,,,,,False,65,66,False,exp3.png,exp4.png,trial_left_image,1,exp3.png,1,exp3.png,exp4.png,1,1,non-reversed,correct,0.026784341487588348,0,invalid_lose,459.20598510000855,42,,,,,,,,,,,,,,,,sub_589,2023-05-14_10h18.30.904,Reversal,2022.1.1,59.90097171960253,1,
6,exp1.png,exp2.png,,3,0,3,0,0,6,6,6,,,,,,,,,,,,,,,,,,,,,,,,,False,66,67,False,exp1.png,exp2.png,trial_left_image,1,exp1.png,1,exp1.png,exp2.png,1,3,reversed,correct,0.9572585925337109,1,valid_win,463.60538710001856,43,,,,,,,,,,,,,,,,sub_589,2023-05-14_10h18.30.904,Reversal,2022.1.1,59.90097171960253,1,
7,exp3.png,exp4.png,,3,0,3,0,0,7,7,7,,,,,,,,,,,,,,,,,,,,,,,,,False,67,68,True,exp4.png,exp3.png,trial_left_image,1,exp4.png,1,exp3.png,exp4.png,0,2,non-reversed,incorrect,0.2612180744789354,0,valid_lose,474.4546457999968,43,,,,,,,,,,,,,,,,sub_589,2023-05-14_10h18.30.904,Reversal,2022.1.1,59.90097171960253,1,
8,exp1.png,exp2.png,,3,0,3,0,0,8,8,8,,,,,,,,,,,,,,,,,,,,,,,,,False,68,69,True,exp2.png,exp1.png,trial_left_image,1,exp2.png,1,exp1.png,exp2.png,0,4,reversed,incorrect,0.8639024745712133,0,valid_lose,479.47112110001035,43,,,,,,,,,,,,,,,,sub_589,2023-05-14_10h18.30.904,Reversal,2022.1.1,59.90097171960253,1,
9,exp3.png,exp4.png,,3,0,3,0,0,9,9,9,,,,,,,,,,,,,,,,,,,,,,,,,False,69,70,True,exp4.png,exp3.png,trial_left_image,1,exp4.png,1,exp3.png,exp4.png,0,2,non-reversed,incorrect,0.669991750769932,0,valid_lose,485.0194293000386,43,,,,,,,,,,,,,,,,sub_589,2023-05-14_10h18.30.904,Reversal,2022.1.1,59.90097171960253,1,
10,exp1.png,exp2.png,,3,0,3,0,0,10,10,10,,,,,,,,,,,,,,,,,,,,,,,,,False,70,71,False,exp1.png,exp2.png,trial_left_image,1,exp1.png,1,exp1.png,exp2.png,1,3,reversed,correct,0.22594038068130495,0,invalid_lose,489.55389050004305,43,,,,,,,,,,,,,,,,sub_589,2023-05-14_10h18.30.904,Reversal,2022.1.1,59.90097171960253,1,
11,exp3.png,exp4.png,,3,0,3,0,0,11,11,11,,,,,,,,,,,,,,,,,,,,,,,,,False,71,72,False,exp3.png,exp4.png,trial_left_image,1,exp3.png,1,exp3.png,exp4.png,1,1,non-reversed,correct,0.9048389421394878,1,valid_win,495.01911510003265,44,,,,,,,,,,,,,,,,sub_589,2023-05-14_10h18.30.904,Reversal,2022.1.1,59.90097171960253,1,
12,exp1.png,exp2.png,,3,0,3,0,0,12,12,12,,,,,,,,,,,,,,,,,,,,,,,,,False,72,73,True,exp2.png,exp1.png,trial_right_image,-1,exp1.png,1,exp1.png,exp2.png,1,3,reversed,correct,0.8009178577666822,1,valid_win,499.5845382999978,45,,,,,,,,,,,,,,,,sub_589,2023-05-14_10h18.30.904,Reversal,2022.1.1,59.90097171960253,1,
13,exp3.png,exp4.png,,3,0,3,0,0,13,13,13,,,,,,,,,,,,,,,,,,,,,,,,,False,73,74,True,exp4.png,exp3.png,trial_right_image,-1,exp3.png,1,exp3.png,exp4.png,1,1,non-reversed,correct,0.9868422310005435,1,valid_win,504.9833906000131,46,,,,,,,,,,,,,,,,sub_589,2023-05-14_10h18.30.904,Reversal,2022.1.1,59.90097171960253,1,
14,exp1.png,exp2.png,,3,0,3,0,0,14,14,14,,,,,,,,,,,,,,,,,,,,,,,,,False,74,75,False,exp1.png,exp2.png,trial_left_image,1,exp1.png,1,exp1.png,exp2.png,1,3,reversed,correct,0.0306450583032174,0,invalid_lose,509.70089360000566,46,,,,,,,,,,,,,,,,sub_589,2023-05-14_10h18.30.904,Reversal,2022.1.1,59.90097171960253,1,
15,exp3.png,exp4.png,,3,0,3,0,0,15,15,15,,,,,,,,,,,,,,,,,,,,,,,,,False,75,76,True,exp4.png,exp3.png,trial_right_image,-1,exp3.png,1,exp3.png,exp4.png,1,1,non-reversed,correct,0.9303539407671153,1,valid_win,514.932662200008,47,,,,,,,,,,,,,,,,sub_589,2023-05-14_10h18.30.904,Reversal,2022.1.1,59.90097171960253,1,
16,exp1.png,exp2.png,,3,0,3,0,0,16,16,16,,,,,,,,,,,,,,,,,,,,,,,,,False,76,77,False,exp1.png,exp2.png,trial_right_image,-1,exp2.png,1,exp1.png,exp2.png,0,4,reversed,incorrect,0.397998600780349,0,valid_lose,519.7813714999938,47,,,,,,,,,,,,,,,,sub_589,2023-05-14_10h18.30.904,Reversal,2022.1.1,59.90097171960253,1,
17,exp3.png,exp4.png,,3,0,3,0,0,17,17,17,,,,,,,,,,,,,,,,,,,,,,,,,False,77,78,False,exp3.png,exp4.png,trial_left_image,1,exp3.png,1,exp3.png,exp4.png,1,1,non-reversed,correct,0.3160879269451996,1,valid_win,524.7973275000113,48,,,,,,,,,,,,,,,,sub_589,2023-05-14_10h18.30.904,Reversal,2022.1.1,59.90097171960253,1,
18,exp1.png,exp2.png,,3,0,3,0,0,18,18,18,,,,,,,,,,,,,,,,,,,,,,,,,False,78,79,True,exp2.png,exp1.png,trial_right_image,-1,exp1.png,1,exp1.png,exp2.png,1,3,reversed,correct,0.6734433607224747,1,valid_win,529.6152334000217,49,,,,,,,,,,,,,,,,sub_589,2023-05-14_10h18.30.904,Reversal,2022.1.1,59.90097171960253,1,
19,exp3.png,exp4.png,,3,0,3,0,0,19,19,19,,,,,,,,,,,,,,,,,,,,,,,,,False,79,80,True,exp4.png,exp3.png,trial_right_image,-1,exp3.png,1,exp3.png,exp4.png,1,1,non-reversed,correct,0.8396254521340639,1,valid_win,542.9460608999943,50,,,,,,,,,,,,,,,,sub_589,2023-05-14_10h18.30.904,Reversal,2022.1.1,59.90097171960253,1,
20,exp1.png,exp2.png,,3,0,3,0,0,20,20,20,,,,,,,,,,,,,,,,,,,,,,,,,True,,,,,,,,,,,,,,,,,,,,,,,,,,,,,,,,,,,,sub_589,2023-05-14_10h18.30.904,Reversal,2022.1.1,59.90097171960253,1,
,,,exp1.png,3,0,3,0,,,,,0,0,0,0,0,0,0,0,,,,,,,,,,,,,,,,,,,,,,,,,,,,,,,,,,,,,,,50.0,None,[],615.739806800033,None,,,,,,,,,,sub_589,2023-05-14_10h18.30.904,Reversal,2022.1.1,59.90097171960253,1,
,,,exp2.png,3,0,3,0,,,,,0,0,0,0,0,1,1,1,,,,,,,,,,,,,,,,,,,,,,,,,,,,,,,,,,,,,,,50.0,None,[],630.8379613000434,None,,,,,,,,,,sub_589,2023-05-14_10h18.30.904,Reversal,2022.1.1,59.90097171960253,1,
,,,exp3.png,3,0,3,0,,,,,0,0,0,0,0,2,2,2,,,,,,,,,,,,,,,,,,,,,,,,,,,,,,,,,,,,,,,50.0,None,[],631.6328937000362,None,,,,,,,,,,sub_589,2023-05-14_10h18.30.904,Reversal,2022.1.1,59.90097171960253,1,
,,,exp4.png,3,0,3,0,,,,,0,0,0,0,0,3,3,3,,,,,,,,,,,,,,,,,,,,,,,,,,,,,,,,,,,,,,,50.0,None,[],632.1312811000389,None,,,,,,,,,,sub_589,2023-05-14_10h18.30.904,Reversal,2022.1.1,59.90097171960253,1,
0,exp1.png,exp2.png,,,,,,,,,,,,,,,,,,0,0,0,0,0,0,0,0,,,,,,,,,False,0,81,False,exp1.png,exp2.png,trial_left_image,1,exp1.png,1,exp2.png,exp1.png,1,3,reversed,incorrect,0.5789247280947755,0,valid_lose,566.1595641000313,50,,,,,,,,,,562.5326689000358,,,,,,sub_589,2023-05-14_10h18.30.904,Reversal,2022.1.1,59.90097171960253,1,
1,exp3.png,exp4.png,,,,,,,,,,,,,,,,,,0,0,0,0,0,1,1,1,,,,,,,,,False,1,82,True,exp4.png,exp3.png,trial_left_image,1,exp4.png,1,exp3.png,exp4.png,0,2,non-reversed,incorrect,0.13882629747184383,1,invalid_win,570.9758550000261,51,,,,,,,,,,,,,,,,sub_589,2023-05-14_10h18.30.904,Reversal,2022.1.1,59.90097171960253,1,
2,exp1.png,exp2.png,,,,,,,,,,,,,,,,,,0,0,0,0,0,2,2,2,,,,,,,,,False,2,83,True,exp2.png,exp1.png,trial_right_image,-1,exp1.png,1,exp2.png,exp1.png,1,3,reversed,incorrect,0.14645006645477243,1,invalid_win,575.4749615000328,52,,,,,,,,,,,,,,,,sub_589,2023-05-14_10h18.30.904,Reversal,2022.1.1,59.90097171960253,1,
3,exp3.png,exp4.png,,,,,,,,,,,,,,,,,,0,0,0,0,0,3,3,3,,,,,,,,,False,3,84,True,exp4.png,exp3.png,trial_left_image,1,exp4.png,1,exp3.png,exp4.png,0,2,non-reversed,incorrect,0.9222729946560593,0,valid_lose,580.2901364000281,52,,,,,,,,,,,,,,,,sub_589,2023-05-14_10h18.30.904,Reversal,2022.1.1,59.90097171960253,1,
4,exp1.png,exp2.png,,,,,,,,,,,,,,,,,,0,0,0,0,0,4,4,4,,,,,,,,,False,4,85,True,exp2.png,exp1.png,trial_left_image,1,exp2.png,1,exp2.png,exp1.png,0,4,reversed,correct,0.3594371866994889,1,valid_win,584.922997799993,53,,,,,,,,,,,,,,,,sub_589,2023-05-14_10h18.30.904,Reversal,2022.1.1,59.90097171960253,1,
5,exp3.png,exp4.png,,,,,,,,,,,,,,,,,,0,0,0,0,0,5,5,5,,,,,,,,,False,5,86,False,exp3.png,exp4.png,trial_right_image,-1,exp4.png,1,exp3.png,exp4.png,0,2,non-reversed,incorrect,0.3240369792880803,0,valid_lose,591.3237287999946,53,,,,,,,,,,,,,,,,sub_589,2023-05-14_10h18.30.904,Reversal,2022.1.1,59.90097171960253,1,
6,exp1.png,exp2.png,,,,,,,,,,,,,,,,,,0,0,0,0,0,6,6,6,,,,,,,,,False,6,87,False,exp1.png,exp2.png,trial_left_image,1,exp1.png,1,exp2.png,exp1.png,1,3,reversed,incorrect,0.6863129634349315,0,valid_lose,597.039522600011,53,,,,,,,,,,,,,,,,sub_589,2023-05-14_10h18.30.904,Reversal,2022.1.1,59.90097171960253,1,
7,exp3.png,exp4.png,,,,,,,,,,,,,,,,,,0,0,0,0,0,7,7,7,,,,,,,,,False,7,88,False,exp3.png,exp4.png,trial_right_image,-1,exp4.png,1,exp3.png,exp4.png,0,2,non-reversed,incorrect,0.643598569745693,0,valid_lose,601.7213578000083,53,,,,,,,,,,,,,,,,sub_589,2023-05-14_10h18.30.904,Reversal,2022.1.1,59.90097171960253,1,
8,exp1.png,exp2.png,,,,,,,,,,,,,,,,,,0,0,0,0,0,8,8,8,,,,,,,,,False,8,89,True,exp2.png,exp1.png,trial_right_image,-1,exp1.png,1,exp2.png,exp1.png,1,3,reversed,incorrect,0.09414185963248356,1,invalid_win,606.6208042000071,54,,,,,,,,,,,,,,,,sub_589,2023-05-14_10h18.30.904,Reversal,2022.1.1,59.90097171960253,1,
9,exp3.png,exp4.png,,,,,,,,,,,,,,,,,,0,0,0,0,0,9,9,9,,,,,,,,,False,9,90,False,exp3.png,exp4.png,trial_left_image,1,exp3.png,1,exp3.png,exp4.png,1,1,non-reversed,correct,0.8940939386857629,1,valid_win,612.0366900000372,55,,,,,,,,,,,,,,,,sub_589,2023-05-14_10h18.30.904,Reversal,2022.1.1,59.90097171960253,1,
10,exp1.png,exp2.png,,,,,,,,,,,,,,,,,,0,0,0,0,0,10,10,10,,,,,,,,,False,10,91,True,exp2.png,exp1.png,trial_right_image,-1,exp1.png,1,exp2.png,exp1.png,1,3,reversed,incorrect,0.2700226984728936,0,valid_lose,616.8695012000389,55,,,,,,,,,,,,,,,,sub_589,2023-05-14_10h18.30.904,Reversal,2022.1.1,59.90097171960253,1,
11,exp3.png,exp4.png,,,,,,,,,,,,,,,,,,0,0,0,0,0,11,11,11,,,,,,,,,False,11,92,True,exp4.png,exp3.png,trial_left_image,1,exp4.png,1,exp3.png,exp4.png,0,2,non-reversed,incorrect,0.4951880317396401,0,valid_lose,622.6688469999935,55,,,,,,,,,,,,,,,,sub_589,2023-05-14_10h18.30.904,Reversal,2022.1.1,59.90097171960253,1,
12,exp1.png,exp2.png,,,,,,,,,,,,,,,,,,0,0,0,0,0,12,12,12,,,,,,,,,False,12,93,False,exp1.png,exp2.png,trial_right_image,-1,exp2.png,1,exp2.png,exp1.png,0,4,reversed,correct,0.37199402137829307,1,valid_win,627.4844635000336,56,,,,,,,,,,,,,,,,sub_589,2023-05-14_10h18.30.904,Reversal,2022.1.1,59.90097171960253,1,
13,exp3.png,exp4.png,,,,,,,,,,,,,,,,,,0,0,0,0,0,13,13,13,,,,,,,,,False,13,94,False,exp3.png,exp4.png,trial_left_image,1,exp3.png,1,exp3.png,exp4.png,1,1,non-reversed,correct,0.2475609805220368,0,invalid_lose,631.8051780000096,56,,,,,,,,,,,,,,,,sub_589,2023-05-14_10h18.30.904,Reversal,2022.1.1,59.90097171960253,1,
14,exp1.png,exp2.png,,,,,,,,,,,,,,,,,,0,0,0,0,0,14,14,14,,,,,,,,,False,14,95,False,exp1.png,exp2.png,trial_left_image,1,exp1.png,1,exp2.png,exp1.png,1,3,reversed,incorrect,0.3504534993140568,0,valid_lose,637.032918300014,56,,,,,,,,,,,,,,,,sub_589,2023-05-14_10h18.30.904,Reversal,2022.1.1,59.90097171960253,1,
15,exp3.png,exp4.png,,,,,,,,,,,,,,,,,,0,0,0,0,0,15,15,15,,,,,,,,,False,15,96,False,exp3.png,exp4.png,trial_left_image,1,exp3.png,1,exp3.png,exp4.png,1,1,non-reversed,correct,0.6647819352118258,1,valid_win,641.9659361999948,57,,,,,,,,,,,,,,,,sub_589,2023-05-14_10h18.30.904,Reversal,2022.1.1,59.90097171960253,1,
16,exp1.png,exp2.png,,,,,,,,,,,,,,,,,,0,0,0,0,0,16,16,16,,,,,,,,,False,16,97,False,exp1.png,exp2.png,trial_left_image,1,exp1.png,1,exp2.png,exp1.png,1,3,reversed,incorrect,0.2503430594574759,0,valid_lose,646.1820732000051,57,,,,,,,,,,,,,,,,sub_589,2023-05-14_10h18.30.904,Reversal,2022.1.1,59.90097171960253,1,
17,exp3.png,exp4.png,,,,,,,,,,,,,,,,,,0,0,0,0,0,17,17,17,,,,,,,,,False,17,98,True,exp4.png,exp3.png,trial_left_image,1,exp4.png,1,exp3.png,exp4.png,0,2,non-reversed,incorrect,0.9944766341554023,0,valid_lose,650.9146278999979,57,,,,,,,,,,,,,,,,sub_589,2023-05-14_10h18.30.904,Reversal,2022.1.1,59.90097171960253,1,
18,exp1.png,exp2.png,,,,,,,,,,,,,,,,,,0,0,0,0,0,18,18,18,,,,,,,,,False,18,99,True,exp2.png,exp1.png,trial_right_image,-1,exp1.png,1,exp2.png,exp1.png,1,3,reversed,incorrect,0.9773216101775265,0,valid_lose,655.3475685000303,57,,,,,,,,,,,,,,,,sub_589,2023-05-14_10h18.30.904,Reversal,2022.1.1,59.90097171960253,1,
19,exp3.png,exp4.png,,,,,,,,,,,,,,,,,,0,0,0,0,0,19,19,19,,,,,,,,,False,19,100,True,exp4.png,exp3.png,trial_left_image,1,exp4.png,1,exp3.png,exp4.png,0,2,non-reversed,incorrect,0.4137264286218888,0,valid_lose,659.5298801999888,57,,,,,,,,,,,,,,,,sub_589,2023-05-14_10h18.30.904,Reversal,2022.1.1,59.90097171960253,1,
20,exp1.png,exp2.png,,,,,,,,,,,,,,,,,,0,0,0,0,0,20,20,20,,,,,,,,,True,,,,,,,,,,,,,,,,,,,,,,,,,,,,,,,,,,,,sub_589,2023-05-14_10h18.30.904,Reversal,2022.1.1,59.90097171960253,1,
,,,exp1.png,,,,,,,,,,,,,,,,,0,0,0,0,,,,,0,0,0,0,0,0,0,0,,,,,,,,,,,,,,,,,,,,,,18.0,18.0,5.953319399966858,"[(18.0, 4.180380899982993), (18.0, 5.953319399966858)]",732.310975200031,None,,,,,,,,,,sub_589,2023-05-14_10h18.30.904,Reversal,2022.1.1,59.90097171960253,1,
,,,exp2.png,,,,,,,,,,,,,,,,,0,0,0,0,,,,,0,0,0,0,0,1,1,1,,,,,,,,,,,,,,,,,,,,,,,13.0,2.719976099964697,"[(13.0, 2.719976099964697)]",739.2236381000257,None,13.0,,,,,,,,,sub_589,2023-05-14_10h18.30.904,Reversal,2022.1.1,59.90097171960253,1,
,,,exp3.png,,,,,,,,,,,,,,,,,0,0,0,0,,,,,0,0,0,0,0,2,2,2,,,,,,,,,,,,,,,,,,,,,,,67.0,2.303364099992905,"[(67.0, 2.303364099992905)]",743.1787369000376,None,,67.0,,,,,,,,sub_589,2023-05-14_10h18.30.904,Reversal,2022.1.1,59.90097171960253,1,
,,,exp4.png,,,,,,,,,,,,,,,,,0,0,0,0,,,,,0,0,0,0,0,3,3,3,,,,,,,,,,,,,,,,,,,,,,,72.0,0.9714501000125892,"[(72.0, 0.9714501000125892)]",746.3013793000137,None,,,72.0,,,,,,,sub_589,2023-05-14_10h18.30.904,Reversal,2022.1.1,59.90097171960253,1,
0,exp1.png,exp2.png,,,,,,,,,,,,,,,,,,1,0,1,0,0,0,0,0,,,,,,,,,False,20,101,False,exp1.png,exp2.png,trial_left_image,1,exp1.png,1,exp2.png,exp1.png,1,3,reversed,incorrect,0.5729110743325424,0,valid_lose,681.7271541000227,57,,,,,,,,,,,,,,,,sub_589,2023-05-14_10h18.30.904,Reversal,2022.1.1,59.90097171960253,1,
1,exp3.png,exp4.png,,,,,,,,,,,,,,,,,,1,0,1,0,0,1,1,1,,,,,,,,,False,21,102,False,exp3.png,exp4.png,trial_left_image,1,exp3.png,1,exp3.png,exp4.png,1,1,non-reversed,correct,0.06468927871924512,0,invalid_lose,688.5594745000126,57,,,,,,,,,,,,,,,,sub_589,2023-05-14_10h18.30.904,Reversal,2022.1.1,59.90097171960253,1,
2,exp1.png,exp2.png,,,,,,,,,,,,,,,,,,1,0,1,0,0,2,2,2,,,,,,,,,False,22,103,False,exp1.png,exp2.png,trial_right_image,-1,exp2.png,1,exp2.png,exp1.png,0,4,reversed,correct,0.07593827925189478,0,invalid_lose,692.8924918000121,57,,,,,,,,,,,,,,,,sub_589,2023-05-14_10h18.30.904,Reversal,2022.1.1,59.90097171960253,1,
3,exp3.png,exp4.png,,,,,,,,,,,,,,,,,,1,0,1,0,0,3,3,3,,,,,,,,,False,23,104,True,exp4.png,exp3.png,trial_left_image,1,exp4.png,1,exp3.png,exp4.png,0,2,non-reversed,incorrect,0.37600760836475144,0,valid_lose,697.3256803000113,57,,,,,,,,,,,,,,,,sub_589,2023-05-14_10h18.30.904,Reversal,2022.1.1,59.90097171960253,1,
4,exp1.png,exp2.png,,,,,,,,,,,,,,,,,,1,0,1,0,0,4,4,4,,,,,,,,,False,24,105,False,exp1.png,exp2.png,trial_right_image,-1,exp2.png,1,exp2.png,exp1.png,0,4,reversed,correct,0.3182161625286214,1,valid_win,702.241554600012,58,,,,,,,,,,,,,,,,sub_589,2023-05-14_10h18.30.904,Reversal,2022.1.1,59.90097171960253,1,
5,exp3.png,exp4.png,,,,,,,,,,,,,,,,,,1,0,1,0,0,5,5,5,,,,,,,,,False,25,106,True,exp4.png,exp3.png,trial_left_image,1,exp4.png,1,exp3.png,exp4.png,0,2,non-reversed,incorrect,0.2964484536588067,0,valid_lose,706.3753168000258,58,,,,,,,,,,,,,,,,sub_589,2023-05-14_10h18.30.904,Reversal,2022.1.1,59.90097171960253,1,
6,exp1.png,exp2.png,,,,,,,,,,,,,,,,,,1,0,1,0,0,6,6,6,,,,,,,,,False,26,107,True,exp2.png,exp1.png,trial_left_image,1,exp2.png,1,exp2.png,exp1.png,0,4,reversed,correct,0.6299335497582345,1,valid_win,710.6743724000407,59,,,,,,,,,,,,,,,,sub_589,2023-05-14_10h18.30.904,Reversal,2022.1.1,59.90097171960253,1,
7,exp3.png,exp4.png,,,,,,,,,,,,,,,,,,1,0,1,0,0,7,7,7,,,,,,,,,False,27,108,False,exp3.png,exp4.png,trial_right_image,-1,exp4.png,1,exp3.png,exp4.png,0,2,non-reversed,incorrect,0.07190800767264949,1,invalid_win,715.4060400000308,60,,,,,,,,,,,,,,,,sub_589,2023-05-14_10h18.30.904,Reversal,2022.1.1,59.90097171960253,1,
8,exp1.png,exp2.png,,,,,,,,,,,,,,,,,,1,0,1,0,0,8,8,8,,,,,,,,,False,28,109,True,exp2.png,exp1.png,trial_left_image,1,exp2.png,1,exp2.png,exp1.png,0,4,reversed,correct,0.8546978284008058,1,valid_win,719.8889926000265,61,,,,,,,,,,,,,,,,sub_589,2023-05-14_10h18.30.904,Reversal,2022.1.1,59.90097171960253,1,
9,exp3.png,exp4.png,,,,,,,,,,,,,,,,,,1,0,1,0,0,9,9,9,,,,,,,,,False,29,110,False,exp3.png,exp4.png,trial_left_image,1,exp3.png,1,exp3.png,exp4.png,1,1,non-reversed,correct,0.8461836884624574,1,valid_win,724.0557280000066,62,,,,,,,,,,,,,,,,sub_589,2023-05-14_10h18.30.904,Reversal,2022.1.1,59.90097171960253,1,
10,exp1.png,exp2.png,,,,,,,,,,,,,,,,,,1,0,1,0,0,10,10,10,,,,,,,,,False,30,111,False,exp1.png,exp2.png,trial_right_image,-1,exp2.png,1,exp2.png,exp1.png,0,4,reversed,correct,0.7721736269847503,1,valid_win,729.4213748000329,63,,,,,,,,,,,,,,,,sub_589,2023-05-14_10h18.30.904,Reversal,2022.1.1,59.90097171960253,1,
11,exp3.png,exp4.png,,,,,,,,,,,,,,,,,,1,0,1,0,0,11,11,11,,,,,,,,,False,31,112,False,exp3.png,exp4.png,trial_right_image,-1,exp4.png,1,exp3.png,exp4.png,0,2,non-reversed,incorrect,0.6216040956907251,0,valid_lose,733.4879735000432,63,,,,,,,,,,,,,,,,sub_589,2023-05-14_10h18.30.904,Reversal,2022.1.1,59.90097171960253,1,
12,exp1.png,exp2.png,,,,,,,,,,,,,,,,,,1,0,1,0,0,12,12,12,,,,,,,,,False,32,113,False,exp1.png,exp2.png,trial_right_image,-1,exp2.png,1,exp2.png,exp1.png,0,4,reversed,correct,0.2116077262305497,0,invalid_lose,737.8866411999916,63,,,,,,,,,,,,,,,,sub_589,2023-05-14_10h18.30.904,Reversal,2022.1.1,59.90097171960253,1,
13,exp3.png,exp4.png,,,,,,,,,,,,,,,,,,1,0,1,0,0,13,13,13,,,,,,,,,False,33,114,True,exp4.png,exp3.png,trial_left_image,1,exp4.png,1,exp3.png,exp4.png,0,2,non-reversed,incorrect,0.7269226647579139,0,valid_lose,742.2862418000004,63,,,,,,,,,,,,,,,,sub_589,2023-05-14_10h18.30.904,Reversal,2022.1.1,59.90097171960253,1,
14,exp1.png,exp2.png,,,,,,,,,,,,,,,,,,1,0,1,0,0,14,14,14,,,,,,,,,False,34,115,True,exp2.png,exp1.png,trial_left_image,1,exp2.png,1,exp2.png,exp1.png,0,4,reversed,correct,0.8906618691011218,1,valid_win,747.4522540000034,64,,,,,,,,,,,,,,,,sub_589,2023-05-14_10h18.30.904,Reversal,2022.1.1,59.90097171960253,1,
15,exp3.png,exp4.png,,,,,,,,,,,,,,,,,,1,0,1,0,0,15,15,15,,,,,,,,,False,35,116,False,exp3.png,exp4.png,trial_left_image,1,exp3.png,1,exp3.png,exp4.png,1,1,non-reversed,correct,0.2035748733093764,0,invalid_lose,751.9013002000283,64,,,,,,,,,,,,,,,,sub_589,2023-05-14_10h18.30.904,Reversal,2022.1.1,59.90097171960253,1,
16,exp1.png,exp2.png,,,,,,,,,,,,,,,,,,1,0,1,0,0,16,16,16,,,,,,,,,False,36,117,True,exp2.png,exp1.png,trial_left_image,1,exp2.png,1,exp2.png,exp1.png,0,4,reversed,correct,0.3618198034909954,1,valid_win,756.1851103000226,65,,,,,,,,,,,,,,,,sub_589,2023-05-14_10h18.30.904,Reversal,2022.1.1,59.90097171960253,1,
17,exp3.png,exp4.png,,,,,,,,,,,,,,,,,,1,0,1,0,0,17,17,17,,,,,,,,,False,37,118,True,exp4.png,exp3.png,trial_right_image,-1,exp3.png,1,exp3.png,exp4.png,1,1,non-reversed,correct,0.754102680949834,1,valid_win,761.1167589999968,66,,,,,,,,,,,,,,,,sub_589,2023-05-14_10h18.30.904,Reversal,2022.1.1,59.90097171960253,1,
18,exp1.png,exp2.png,,,,,,,,,,,,,,,,,,1,0,1,0,0,18,18,18,,,,,,,,,False,38,119,True,exp2.png,exp1.png,trial_left_image,1,exp2.png,1,exp2.png,exp1.png,0,4,reversed,correct,0.5548149325133552,1,valid_win,765.533335199987,67,,,,,,,,,,,,,,,,sub_589,2023-05-14_10h18.30.904,Reversal,2022.1.1,59.90097171960253,1,
19,exp3.png,exp4.png,,,,,,,,,,,,,,,,,,1,0,1,0,0,19,19,19,,,,,,,,,False,39,120,True,exp4.png,exp3.png,trial_right_image,-1,exp3.png,1,exp3.png,exp4.png,1,1,non-reversed,correct,0.8340382166285396,1,valid_win,769.4989729000372,68,,,,,,,,,,,,,,,,sub_589,2023-05-14_10h18.30.904,Reversal,2022.1.1,59.90097171960253,1,
20,exp1.png,exp2.png,,,,,,,,,,,,,,,,,,1,0,1,0,0,20,20,20,,,,,,,,,True,,,,,,,,,,,,,,,,,,,,,,,,,,,,,,,,,,,,sub_589,2023-05-14_10h18.30.904,Reversal,2022.1.1,59.90097171960253,1,
,,,exp1.png,,,,,,,,,,,,,,,,,1,0,1,0,,,,,0,0,0,0,0,0,0,0,,,,,,,,,,,,,,,,,,,,,,15.0,15.0,3.2276037000119686,"[(15.0, 3.2276037000119686)]",842.2692887000157,None,,,,,,,,,,sub_589,2023-05-14_10h18.30.904,Reversal,2022.1.1,59.90097171960253,1,
,,,exp2.png,,,,,,,,,,,,,,,,,1,0,1,0,,,,,0,0,0,0,0,1,1,1,,,,,,,,,,,,,,,,,,,,,,,88.0,1.4970142000238411,"[(88.0, 1.4970142000238411)]",847.1882982000243,None,88.0,,,,,,,,,sub_589,2023-05-14_10h18.30.904,Reversal,2022.1.1,59.90097171960253,1,
,,,exp3.png,,,,,,,,,,,,,,,,,1,0,1,0,,,,,0,0,0,0,0,2,2,2,,,,,,,,,,,,,,,,,,,,,,,71.0,2.30696859996533,"[(71.0, 2.30696859996533)]",849.5650447999942,None,,71.0,,,,,,,,sub_589,2023-05-14_10h18.30.904,Reversal,2022.1.1,59.90097171960253,1,
,,,exp4.png,,,,,,,,,,,,,,,,,1,0,1,0,,,,,0,0,0,0,0,3,3,3,,,,,,,,,,,,,,,,,,,,,,,9.0,1.4525330000324175,"[(9.0, 1.4525330000324175)]",852.8035307000391,None,,,9.0,,,,,,,sub_589,2023-05-14_10h18.30.904,Reversal,2022.1.1,59.90097171960253,1,
0,exp1.png,exp2.png,,,,,,,,,,,,,,,,,,2,0,2,0,0,0,0,0,,,,,,,,,False,40,121,True,exp2.png,exp1.png,trial_right_image,-1,exp1.png,1,exp2.png,exp1.png,1,3,reversed,incorrect,0.6650270408694591,0,valid_lose,788.9471078999923,68,,,,,,,,,,,,,,,,sub_589,2023-05-14_10h18.30.904,Reversal,2022.1.1,59.90097171960253,1,
1,exp3.png,exp4.png,,,,,,,,,,,,,,,,,,2,0,2,0,0,1,1,1,,,,,,,,,False,41,122,True,exp4.png,exp3.png,trial_left_image,1,exp4.png,1,exp3.png,exp4.png,0,2,non-reversed,incorrect,0.09646045539907999,1,invalid_win,794.1124201000202,69,,,,,,,,,,,,,,,,sub_589,2023-05-14_10h18.30.904,Reversal,2022.1.1,59.90097171960253,1,
2,exp1.png,exp2.png,,,,,,,,,,,,,,,,,,2,0,2,0,0,2,2,2,,,,,,,,,False,42,123,False,exp1.png,exp2.png,trial_left_image,1,exp1.png,1,exp2.png,exp1.png,1,3,reversed,incorrect,0.3014130793031632,0,valid_lose,798.4617871000082,69,,,,,,,,,,,,,,,,sub_589,2023-05-14_10h18.30.904,Reversal,2022.1.1,59.90097171960253,1,
3,exp3.png,exp4.png,,,,,,,,,,,,,,,,,,2,0,2,0,0,3,3,3,,,,,,,,,False,43,124,False,exp3.png,exp4.png,trial_right_image,-1,exp4.png,1,exp3.png,exp4.png,0,2,non-reversed,incorrect,0.8881924297616273,0,valid_lose,802.5782349000219,69,,,,,,,,,,,,,,,,sub_589,2023-05-14_10h18.30.904,Reversal,2022.1.1,59.90097171960253,1,
4,exp1.png,exp2.png,,,,,,,,,,,,,,,,,,2,0,2,0,0,4,4,4,,,,,,,,,False,44,125,True,exp2.png,exp1.png,trial_left_image,1,exp2.png,1,exp2.png,exp1.png,0,4,reversed,correct,0.16600768058763182,0,invalid_lose,808.4796536000213,69,,,,,,,,,,,,,,,,sub_589,2023-05-14_10h18.30.904,Reversal,2022.1.1,59.90097171960253,1,
5,exp3.png,exp4.png,,,,,,,,,,,,,,,,,,2,0,2,0,0,5,5,5,,,,,,,,,False,45,126,False,exp3.png,exp4.png,trial_right_image,-1,exp4.png,1,exp3.png,exp4.png,0,2,non-reversed,incorrect,0.7452644341455434,0,valid_lose,812.8103463000152,69,,,,,,,,,,,,,,,,sub_589,2023-05-14_10h18.30.904,Reversal,2022.1.1,59.90097171960253,1,
6,exp1.png,exp2.png,,,,,,,,,,,,,,,,,,2,0,2,0,0,6,6,6,,,,,,,,,False,46,127,False,exp1.png,exp2.png,trial_left_image,1,exp1.png,1,exp2.png,exp1.png,1,3,reversed,incorrect,0.2999543674994213,0,valid_lose,817.3106740000076,69,,,,,,,,,,,,,,,,sub_589,2023-05-14_10h18.30.904,Reversal,2022.1.1,59.90097171960253,1,
7,exp3.png,exp4.png,,,,,,,,,,,,,,,,,,2,0,2,0,0,7,7,7,,,,,,,,,False,47,128,True,exp4.png,exp3.png,trial_right_image,-1,exp3.png,1,exp3.png,exp4.png,1,1,non-reversed,correct,0.08727314908411199,0,invalid_lose,821.7255664000404,69,,,,,,,,,,,,,,,,sub_589,2023-05-14_10h18.30.904,Reversal,2022.1.1,59.90097171960253,1,
8,exp1.png,exp2.png,,,,,,,,,,,,,,,,,,2,0,2,0,0,8,8,8,,,,,,,,,False,48,129,True,exp2.png,exp1.png,trial_right_image,-1,exp1.png,1,exp2.png,exp1.png,1,3,reversed,incorrect,0.7260458163209215,0,valid_lose,825.8088747999864,69,,,,,,,,,,,,,,,,sub_589,2023-05-14_10h18.30.904,Reversal,2022.1.1,59.90097171960253,1,
9,exp3.png,exp4.png,,,,,,,,,,,,,,,,,,2,0,2,0,0,9,9,9,,,,,,,,,False,49,130,True,exp4.png,exp3.png,trial_left_image,1,exp4.png,1,exp3.png,exp4.png,0,2,non-reversed,incorrect,0.41507936658959266,0,valid_lose,829.7745389000047,69,,,,,,,,,,,,,,,,sub_589,2023-05-14_10h18.30.904,Reversal,2022.1.1,59.90097171960253,1,
10,exp1.png,exp2.png,,,,,,,,,,,,,,,,,,2,0,2,0,0,10,10,10,,,,,,,,,False,50,131,True,exp2.png,exp1.png,trial_left_image,1,exp2.png,1,exp2.png,exp1.png,0,4,reversed,correct,0.8219300949378695,1,valid_win,833.8071174999932,70,,,,,,,,,,,,,,,,sub_589,2023-05-14_10h18.30.904,Reversal,2022.1.1,59.90097171960253,1,
11,exp3.png,exp4.png,,,,,,,,,,,,,,,,,,2,0,2,0,0,11,11,11,,,,,,,,,False,51,132,False,exp3.png,exp4.png,trial_right_image,-1,exp4.png,1,exp3.png,exp4.png,0,2,non-reversed,incorrect,0.4156771341069212,0,valid_lose,837.9903262000298,70,,,,,,,,,,,,,,,,sub_589,2023-05-14_10h18.30.904,Reversal,2022.1.1,59.90097171960253,1,
12,exp1.png,exp2.png,,,,,,,,,,,,,,,,,,2,0,2,0,0,12,12,12,,,,,,,,,False,52,133,True,exp2.png,exp1.png,trial_right_image,-1,exp1.png,1,exp2.png,exp1.png,1,3,reversed,incorrect,0.1464289323534831,1,invalid_win,842.1563543000375,71,,,,,,,,,,,,,,,,sub_589,2023-05-14_10h18.30.904,Reversal,2022.1.1,59.90097171960253,1,
13,exp3.png,exp4.png,,,,,,,,,,,,,,,,,,2,0,2,0,0,13,13,13,,,,,,,,,False,53,134,True,exp4.png,exp3.png,trial_left_image,1,exp4.png,1,exp3.png,exp4.png,0,2,non-reversed,incorrect,0.907649514351177,0,valid_lose,846.3724842999945,71,,,,,,,,,,,,,,,,sub_589,2023-05-14_10h18.30.904,Reversal,2022.1.1,59.90097171960253,1,
14,exp1.png,exp2.png,,,,,,,,,,,,,,,,,,2,0,2,0,0,14,14,14,,,,,,,,,False,54,135,False,exp1.png,exp2.png,trial_right_image,-1,exp2.png,1,exp2.png,exp1.png,0,4,reversed,correct,0.824019531004274,1,valid_win,850.8389545000391,72,,,,,,,,,,,,,,,,sub_589,2023-05-14_10h18.30.904,Reversal,2022.1.1,59.90097171960253,1,
15,exp3.png,exp4.png,,,,,,,,,,,,,,,,,,2,0,2,0,0,15,15,15,,,,,,,,,False,55,136,False,exp3.png,exp4.png,trial_right_image,-1,exp4.png,1,exp3.png,exp4.png,0,2,non-reversed,incorrect,0.49662602072939055,0,valid_lose,854.8877152000205,72,,,,,,,,,,,,,,,,sub_589,2023-05-14_10h18.30.904,Reversal,2022.1.1,59.90097171960253,1,
16,exp1.png,exp2.png,,,,,,,,,,,,,,,,,,2,0,2,0,0,16,16,16,,,,,,,,,False,56,137,False,exp1.png,exp2.png,trial_left_image,1,exp1.png,1,exp2.png,exp1.png,1,3,reversed,incorrect,0.03014880691023991,1,invalid_win,859.3378712999984,73,,,,,,,,,,,,,,,,sub_589,2023-05-14_10h18.30.904,Reversal,2022.1.1,59.90097171960253,1,
17,exp3.png,exp4.png,,,,,,,,,,,,,,,,,,2,0,2,0,0,17,17,17,,,,,,,,,False,57,138,False,exp3.png,exp4.png,trial_left_image,1,exp3.png,1,exp3.png,exp4.png,1,1,non-reversed,correct,0.20089520741496447,0,invalid_lose,863.4042507000268,73,,,,,,,,,,,,,,,,sub_589,2023-05-14_10h18.30.904,Reversal,2022.1.1,59.90097171960253,1,
18,exp1.png,exp2.png,,,,,,,,,,,,,,,,,,2,0,2,0,0,18,18,18,,,,,,,,,False,58,139,True,exp2.png,exp1.png,trial_left_image,1,exp2.png,1,exp2.png,exp1.png,0,4,reversed,correct,0.6201330212471005,1,valid_win,868.5539262000239,74,,,,,,,,,,,,,,,,sub_589,2023-05-14_10h18.30.904,Reversal,2022.1.1,59.90097171960253,1,
19,exp3.png,exp4.png,,,,,,,,,,,,,,,,,,2,0,2,0,0,19,19,19,,,,,,,,,False,59,140,False,exp3.png,exp4.png,trial_right_image,-1,exp4.png,1,exp3.png,exp4.png,0,2,non-reversed,incorrect,0.8699869206996952,0,valid_lose,873.5696229999885,74,,,,,,,,,,,,,,,,sub_589,2023-05-14_10h18.30.904,Reversal,2022.1.1,59.90097171960253,1,
20,exp1.png,exp2.png,,,,,,,,,,,,,,,,,,2,0,2,0,0,20,20,20,,,,,,,,,True,,,,,,,,,,,,,,,,,,,,,,,,,,,,,,,,,,,,sub_589,2023-05-14_10h18.30.904,Reversal,2022.1.1,59.90097171960253,1,
,,,exp1.png,,,,,,,,,,,,,,,,,2,0,2,0,,,,,0,0,0,0,0,0,0,0,,,,,,,,,,,,,,,,,,,,,,,50.0,None,[],946.3459959999891,None,,,,,,,,,,sub_589,2023-05-14_10h18.30.904,Reversal,2022.1.1,59.90097171960253,1,
,,,exp2.png,,,,,,,,,,,,,,,,,2,0,2,0,,,,,0,0,0,0,0,1,1,1,,,,,,,,,,,,,,,,,,,,,,,50.0,None,[],948.7650874000392,None,,,,,,,,,,sub_589,2023-05-14_10h18.30.904,Reversal,2022.1.1,59.90097171960253,1,
,,,exp3.png,,,,,,,,,,,,,,,,,2,0,2,0,,,,,0,0,0,0,0,2,2,2,,,,,,,,,,,,,,,,,,,,,,,50.0,None,[],949.9692882000236,None,,,,,,,,,,sub_589,2023-05-14_10h18.30.904,Reversal,2022.1.1,59.90097171960253,1,
,,,exp4.png,,,,,,,,,,,,,,,,,2,0,2,0,,,,,0,0,0,0,0,3,3,3,,,,,,,,,,,,,,,,,,,,,,,8.0,2.7635851000086404,"[(8.0, 2.7635851000086404)]",953.214061900042,None,,,8.0,,,,,,,sub_589,2023-05-14_10h18.30.904,Reversal,2022.1.1,59.90097171960253,1,
,,,,,,,,,,,,,,,,,,,,,,,,,,,,,,,,,,,,,,,,,,,,,,,,,,,,,,,,74,,,,,,,,,,,80,55,25,324.3228603999596,1,,,,,,,
