trial_index,trial_image1_file,trial_image2_file,image_file,learning_outer_loop.thisRepN,learning_outer_loop.thisTrialN,learning_outer_loop.thisN,learning_outer_loop.thisIndex,learning_inner_loop.thisRepN,learning_inner_loop.thisTrialN,learning_inner_loop.thisN,learning_inner_loop.thisIndex,learning_estimation_outer_loop.thisRepN,learning_estimation_outer_loop.thisTrialN,learning_estimation_outer_loop.thisN,learning_estimation_outer_loop.thisIndex,learning_estimation_inner_loop.thisRepN,learning_estimation_inner_loop.thisTrialN,learning_estimation_inner_loop.thisN,learning_estimation_inner_loop.thisIndex,reversal_outer_loop.thisRepN,reversal_outer_loop.thisTrialN,reversal_outer_loop.thisN,reversal_outer_loop.thisIndex,reversal_inner_loop.thisRepN,reversal_inner_loop.thisTrialN,reversal_inner_loop.thisN,reversal_inner_loop.thisIndex,reversal_estimation_outer_loop.thisRepN,reversal_estimation_outer_loop.thisTrialN,reversal_estimation_outer_loop.thisN,reversal_estimation_outer_loop.thisIndex,reversal_estimation_inner_loop.thisRepN,reversal_estimation_inner_loop.thisTrialN,reversal_estimation_inner_loop.thisN,reversal_estimation_inner_loop.thisIndex,skipped,total_trial_counter,trial_num,left_right_flip,left_image_file,right_image_file,clicked_stimulus_side,side,clicked_stimulus,version,high_prob_image_file,low_prob_image_file,choice_a,choice_b,pair_type,correct,trial_feedback_random,reward,trial_type,overall_time_after_trial,score,estimation_exp1.png,estimation_rating.response,estimation_rating.rt,estimation_rating.history,estimation_rating.started,estimation_rating.stopped,estimation_exp2.png,estimation_exp3.png,estimation_exp4.png,total_learning_time,total_correct,learning_correct,reversal_correct,total_reversal_time,extra_block,participant,date,expName,psychopyVersion,frameRate,ver,
0,exp1.png,exp2.png,,0,0,0,0,0,0,0,0,,,,,,,,,,,,,,,,,,,,,,,,,False,0,1,False,exp1.png,exp2.png,trial_left_image,1,exp1.png,3,exp2.png,exp1.png,0,4,reversed,incorrect,0.5435847829471574,0,valid_lose,2.648103200015612,0,,,,,,,,,,,,,,,,sub_515,2023-06-15_12h23.41.914,Reversal,2022.1.1,59.991097323206674,3,
1,exp3.png,exp4.png,,0,0,0,0,0,1,1,1,,,,,,,,,,,,,,,,,,,,,,,,,False,1,2,True,exp4.png,exp3.png,trial_left_image,1,exp4.png,3,exp4.png,exp3.png,1,1,non-reversed,correct,0.2627878152354495,1,valid_win,6.532991399988532,1,,,,,,,,,,,,,,,,sub_515,2023-06-15_12h23.41.914,Reversal,2022.1.1,59.991097323206674,3,
2,exp1.png,exp2.png,,0,0,0,0,0,2,2,2,,,,,,,,,,,,,,,,,,,,,,,,,False,2,3,True,exp2.png,exp1.png,trial_left_image,1,exp2.png,3,exp2.png,exp1.png,1,3,reversed,correct,0.7092211986425048,1,valid_win,12.096733700018376,2,,,,,,,,,,,,,,,,sub_515,2023-06-15_12h23.41.914,Reversal,2022.1.1,59.991097323206674,3,
3,exp3.png,exp4.png,,0,0,0,0,0,3,3,3,,,,,,,,,,,,,,,,,,,,,,,,,False,3,4,True,exp4.png,exp3.png,trial_left_image,1,exp4.png,3,exp4.png,exp3.png,1,1,non-reversed,correct,0.9902999395627441,1,valid_win,16.76301509991754,3,,,,,,,,,,,,,,,,sub_515,2023-06-15_12h23.41.914,Reversal,2022.1.1,59.991097323206674,3,
4,exp1.png,exp2.png,,0,0,0,0,0,4,4,4,,,,,,,,,,,,,,,,,,,,,,,,,False,4,5,False,exp1.png,exp2.png,trial_left_image,1,exp1.png,3,exp2.png,exp1.png,0,4,reversed,incorrect,0.06137656391564106,1,invalid_win,20.928833800018765,4,,,,,,,,,,,,,,,,sub_515,2023-06-15_12h23.41.914,Reversal,2022.1.1,59.991097323206674,3,
5,exp3.png,exp4.png,,0,0,0,0,0,5,5,5,,,,,,,,,,,,,,,,,,,,,,,,,False,5,6,True,exp4.png,exp3.png,trial_left_image,1,exp4.png,3,exp4.png,exp3.png,1,1,non-reversed,correct,0.06535956309377966,0,invalid_lose,24.745489399996586,4,,,,,,,,,,,,,,,,sub_515,2023-06-15_12h23.41.914,Reversal,2022.1.1,59.991097323206674,3,
6,exp1.png,exp2.png,,0,0,0,0,0,6,6,6,,,,,,,,,,,,,,,,,,,,,,,,,False,6,7,False,exp1.png,exp2.png,trial_left_image,1,exp1.png,3,exp2.png,exp1.png,0,4,reversed,incorrect,0.5688416508775235,0,valid_lose,28.944592399988323,4,,,,,,,,,,,,,,,,sub_515,2023-06-15_12h23.41.914,Reversal,2022.1.1,59.991097323206674,3,
7,exp3.png,exp4.png,,0,0,0,0,0,7,7,7,,,,,,,,,,,,,,,,,,,,,,,,,False,7,8,True,exp4.png,exp3.png,trial_left_image,1,exp4.png,3,exp4.png,exp3.png,1,1,non-reversed,correct,0.6124419601975472,1,valid_win,33.27747009997256,5,,,,,,,,,,,,,,,,sub_515,2023-06-15_12h23.41.914,Reversal,2022.1.1,59.991097323206674,3,
8,exp1.png,exp2.png,,0,0,0,0,0,8,8,8,,,,,,,,,,,,,,,,,,,,,,,,,False,8,9,True,exp2.png,exp1.png,trial_left_image,1,exp2.png,3,exp2.png,exp1.png,1,3,reversed,correct,0.2884149708566037,1,valid_win,37.94448349997401,6,,,,,,,,,,,,,,,,sub_515,2023-06-15_12h23.41.914,Reversal,2022.1.1,59.991097323206674,3,
9,exp3.png,exp4.png,,0,0,0,0,0,9,9,9,,,,,,,,,,,,,,,,,,,,,,,,,False,9,10,True,exp4.png,exp3.png,trial_left_image,1,exp4.png,3,exp4.png,exp3.png,1,1,non-reversed,correct,0.13893566656257295,0,invalid_lose,42.27590439992491,6,,,,,,,,,,,,,,,,sub_515,2023-06-15_12h23.41.914,Reversal,2022.1.1,59.991097323206674,3,
10,exp1.png,exp2.png,,0,0,0,0,0,10,10,10,,,,,,,,,,,,,,,,,,,,,,,,,False,10,11,True,exp2.png,exp1.png,trial_left_image,1,exp2.png,3,exp2.png,exp1.png,1,3,reversed,correct,0.7311944869944599,1,valid_win,46.642303099972196,7,,,,,,,,,,,,,,,,sub_515,2023-06-15_12h23.41.914,Reversal,2022.1.1,59.991097323206674,3,
11,exp3.png,exp4.png,,0,0,0,0,0,11,11,11,,,,,,,,,,,,,,,,,,,,,,,,,False,11,12,False,exp3.png,exp4.png,trial_right_image,-1,exp4.png,3,exp4.png,exp3.png,1,1,non-reversed,correct,0.7888470002371953,1,valid_win,51.02556899993215,8,,,,,,,,,,,,,,,,sub_515,2023-06-15_12h23.41.914,Reversal,2022.1.1,59.991097323206674,3,
12,exp1.png,exp2.png,,0,0,0,0,0,12,12,12,,,,,,,,,,,,,,,,,,,,,,,,,False,12,13,False,exp1.png,exp2.png,trial_left_image,1,exp1.png,3,exp2.png,exp1.png,0,4,reversed,incorrect,0.8274313649178668,0,valid_lose,55.557950699934736,8,,,,,,,,,,,,,,,,sub_515,2023-06-15_12h23.41.914,Reversal,2022.1.1,59.991097323206674,3,
13,exp3.png,exp4.png,,0,0,0,0,0,13,13,13,,,,,,,,,,,,,,,,,,,,,,,,,False,13,14,False,exp3.png,exp4.png,trial_right_image,-1,exp4.png,3,exp4.png,exp3.png,1,1,non-reversed,correct,0.4124107765506393,1,valid_win,60.20938120002393,9,,,,,,,,,,,,,,,,sub_515,2023-06-15_12h23.41.914,Reversal,2022.1.1,59.991097323206674,3,
14,exp1.png,exp2.png,,0,0,0,0,0,14,14,14,,,,,,,,,,,,,,,,,,,,,,,,,False,14,15,False,exp1.png,exp2.png,trial_right_image,-1,exp2.png,3,exp2.png,exp1.png,1,3,reversed,correct,0.2864632037644046,1,valid_win,64.52409670001362,10,,,,,,,,,,,,,,,,sub_515,2023-06-15_12h23.41.914,Reversal,2022.1.1,59.991097323206674,3,
15,exp3.png,exp4.png,,0,0,0,0,0,15,15,15,,,,,,,,,,,,,,,,,,,,,,,,,False,15,16,False,exp3.png,exp4.png,trial_right_image,-1,exp4.png,3,exp4.png,exp3.png,1,1,non-reversed,correct,0.3742110004382291,1,valid_win,68.90716219996102,11,,,,,,,,,,,,,,,,sub_515,2023-06-15_12h23.41.914,Reversal,2022.1.1,59.991097323206674,3,
16,exp1.png,exp2.png,,0,0,0,0,0,16,16,16,,,,,,,,,,,,,,,,,,,,,,,,,False,16,17,False,exp1.png,exp2.png,trial_right_image,-1,exp2.png,3,exp2.png,exp1.png,1,3,reversed,correct,0.14330282656298476,0,invalid_lose,73.85587139998097,11,,,,,,,,,,,,,,,,sub_515,2023-06-15_12h23.41.914,Reversal,2022.1.1,59.991097323206674,3,
17,exp3.png,exp4.png,,0,0,0,0,0,17,17,17,,,,,,,,,,,,,,,,,,,,,,,,,False,17,18,True,exp4.png,exp3.png,trial_left_image,1,exp4.png,3,exp4.png,exp3.png,1,1,non-reversed,correct,0.22597073402045353,0,invalid_lose,78.0903471999336,11,,,,,,,,,,,,,,,,sub_515,2023-06-15_12h23.41.914,Reversal,2022.1.1,59.991097323206674,3,
18,exp1.png,exp2.png,,0,0,0,0,0,18,18,18,,,,,,,,,,,,,,,,,,,,,,,,,False,18,19,True,exp2.png,exp1.png,trial_right_image,-1,exp1.png,3,exp2.png,exp1.png,0,4,reversed,incorrect,0.4108027962178843,0,valid_lose,82.17261709994636,11,,,,,,,,,,,,,,,,sub_515,2023-06-15_12h23.41.914,Reversal,2022.1.1,59.991097323206674,3,
19,exp3.png,exp4.png,,0,0,0,0,0,19,19,19,,,,,,,,,,,,,,,,,,,,,,,,,False,19,20,False,exp3.png,exp4.png,trial_left_image,1,exp3.png,3,exp4.png,exp3.png,0,2,non-reversed,incorrect,0.6434640118654914,0,valid_lose,86.33832909993362,11,,,,,,,,,,,,,,,,sub_515,2023-06-15_12h23.41.914,Reversal,2022.1.1,59.991097323206674,3,
20,exp1.png,exp2.png,,0,0,0,0,0,20,20,20,,,,,,,,,,,,,,,,,,,,,,,,,True,,,,,,,,,,,,,,,,,,,,,,,,,,,,,,,,,,,,sub_515,2023-06-15_12h23.41.914,Reversal,2022.1.1,59.991097323206674,3,
,,,exp1.png,0,0,0,0,,,,,0,0,0,0,0,0,0,0,,,,,,,,,,,,,,,,,,,,,,,,,,,,,,,,,,,,,,68.0,68.0,19.275022099958733,"[(68.0, 19.275022099958733)]",797.5001198999817,None,,,,,,,,,,sub_515,2023-06-15_12h23.41.914,Reversal,2022.1.1,59.991097323206674,3,
,,,exp2.png,0,0,0,0,,,,,0,0,0,0,0,1,1,1,,,,,,,,,,,,,,,,,,,,,,,,,,,,,,,,,,,,,,,73.0,4.588292500004172,"[(73.0, 4.588292500004172)]",817.576726899948,None,73.0,,,,,,,,,sub_515,2023-06-15_12h23.41.914,Reversal,2022.1.1,59.991097323206674,3,
,,,exp3.png,0,0,0,0,,,,,0,0,0,0,0,2,2,2,,,,,,,,,,,,,,,,,,,,,,,,,,,,,,,,,,,,,,,20.0,4.988080799928866,"[(32.0, 3.1883455999195576), (20.0, 4.988080799928866)]",823.2244751999388,None,,20.0,,,,,,,,sub_515,2023-06-15_12h23.41.914,Reversal,2022.1.1,59.991097323206674,3,
,,,exp4.png,0,0,0,0,,,,,0,0,0,0,0,3,3,3,,,,,,,,,,,,,,,,,,,,,,,,,,,,,,,,,,,,,,,50.0,12.837570099974982,"[(50.0, 12.837570099974982)]",829.756961899926,None,,,50.0,,,,,,,sub_515,2023-06-15_12h23.41.914,Reversal,2022.1.1,59.991097323206674,3,
0,exp1.png,exp2.png,,1,0,1,0,0,0,0,0,,,,,,,,,,,,,,,,,,,,,,,,,False,20,21,True,exp2.png,exp1.png,trial_left_image,1,exp2.png,3,exp2.png,exp1.png,1,3,reversed,correct,0.4737158626910668,1,valid_win,137.7481104999315,12,,,,,,,,,,,,,,,,sub_515,2023-06-15_12h23.41.914,Reversal,2022.1.1,59.991097323206674,3,
1,exp3.png,exp4.png,,1,0,1,0,0,1,1,1,,,,,,,,,,,,,,,,,,,,,,,,,False,21,22,False,exp3.png,exp4.png,trial_left_image,1,exp3.png,3,exp4.png,exp3.png,0,2,non-reversed,incorrect,0.9340795349156454,0,valid_lose,143.23016129992902,12,,,,,,,,,,,,,,,,sub_515,2023-06-15_12h23.41.914,Reversal,2022.1.1,59.991097323206674,3,
2,exp1.png,exp2.png,,1,0,1,0,0,2,2,2,,,,,,,,,,,,,,,,,,,,,,,,,False,22,23,True,exp2.png,exp1.png,trial_right_image,-1,exp1.png,3,exp2.png,exp1.png,0,4,reversed,incorrect,0.4193968811803963,0,valid_lose,147.92907029995695,12,,,,,,,,,,,,,,,,sub_515,2023-06-15_12h23.41.914,Reversal,2022.1.1,59.991097323206674,3,
3,exp3.png,exp4.png,,1,0,1,0,0,3,3,3,,,,,,,,,,,,,,,,,,,,,,,,,False,23,24,False,exp3.png,exp4.png,trial_left_image,1,exp3.png,3,exp4.png,exp3.png,0,2,non-reversed,incorrect,0.2412717165379965,1,invalid_win,151.06194829999004,13,,,,,,,,,,,,,,,,sub_515,2023-06-15_12h23.41.914,Reversal,2022.1.1,59.991097323206674,3,
4,exp1.png,exp2.png,,1,0,1,0,0,4,4,4,,,,,,,,,,,,,,,,,,,,,,,,,False,24,25,True,exp2.png,exp1.png,trial_left_image,1,exp2.png,3,exp2.png,exp1.png,1,3,reversed,correct,0.9134569960870242,1,valid_win,155.094772499986,14,,,,,,,,,,,,,,,,sub_515,2023-06-15_12h23.41.914,Reversal,2022.1.1,59.991097323206674,3,
5,exp3.png,exp4.png,,1,0,1,0,0,5,5,5,,,,,,,,,,,,,,,,,,,,,,,,,False,25,26,True,exp4.png,exp3.png,trial_left_image,1,exp4.png,3,exp4.png,exp3.png,1,1,non-reversed,correct,0.8641552334588934,1,valid_win,158.9288350000279,15,,,,,,,,,,,,,,,,sub_515,2023-06-15_12h23.41.914,Reversal,2022.1.1,59.991097323206674,3,
6,exp1.png,exp2.png,,1,0,1,0,0,6,6,6,,,,,,,,,,,,,,,,,,,,,,,,,False,26,27,False,exp1.png,exp2.png,trial_right_image,-1,exp2.png,3,exp2.png,exp1.png,1,3,reversed,correct,0.6539044024474711,1,valid_win,162.81400489993393,16,,,,,,,,,,,,,,,,sub_515,2023-06-15_12h23.41.914,Reversal,2022.1.1,59.991097323206674,3,
7,exp3.png,exp4.png,,1,0,1,0,0,7,7,7,,,,,,,,,,,,,,,,,,,,,,,,,False,27,28,False,exp3.png,exp4.png,trial_right_image,-1,exp4.png,3,exp4.png,exp3.png,1,1,non-reversed,correct,0.7143856513060386,1,valid_win,166.64462199993432,17,,,,,,,,,,,,,,,,sub_515,2023-06-15_12h23.41.914,Reversal,2022.1.1,59.991097323206674,3,
8,exp1.png,exp2.png,,1,0,1,0,0,8,8,8,,,,,,,,,,,,,,,,,,,,,,,,,False,28,29,True,exp2.png,exp1.png,trial_left_image,1,exp2.png,3,exp2.png,exp1.png,1,3,reversed,correct,0.9562095680614717,1,valid_win,170.44491109997034,18,,,,,,,,,,,,,,,,sub_515,2023-06-15_12h23.41.914,Reversal,2022.1.1,59.991097323206674,3,
9,exp3.png,exp4.png,,1,0,1,0,0,9,9,9,,,,,,,,,,,,,,,,,,,,,,,,,False,29,30,True,exp4.png,exp3.png,trial_left_image,1,exp4.png,3,exp4.png,exp3.png,1,1,non-reversed,correct,0.9037341407943156,1,valid_win,174.4758903000038,19,,,,,,,,,,,,,,,,sub_515,2023-06-15_12h23.41.914,Reversal,2022.1.1,59.991097323206674,3,
10,exp1.png,exp2.png,,1,0,1,0,0,10,10,10,,,,,,,,,,,,,,,,,,,,,,,,,False,30,31,True,exp2.png,exp1.png,trial_left_image,1,exp2.png,3,exp2.png,exp1.png,1,3,reversed,correct,0.337513445599531,1,valid_win,178.1942213999573,20,,,,,,,,,,,,,,,,sub_515,2023-06-15_12h23.41.914,Reversal,2022.1.1,59.991097323206674,3,
11,exp3.png,exp4.png,,1,0,1,0,0,11,11,11,,,,,,,,,,,,,,,,,,,,,,,,,False,31,32,False,exp3.png,exp4.png,trial_right_image,-1,exp4.png,3,exp4.png,exp3.png,1,1,non-reversed,correct,0.03453358026724229,0,invalid_lose,182.20901679992676,20,,,,,,,,,,,,,,,,sub_515,2023-06-15_12h23.41.914,Reversal,2022.1.1,59.991097323206674,3,
12,exp1.png,exp2.png,,1,0,1,0,0,12,12,12,,,,,,,,,,,,,,,,,,,,,,,,,False,32,33,False,exp1.png,exp2.png,trial_right_image,-1,exp2.png,3,exp2.png,exp1.png,1,3,reversed,correct,0.1744466593130597,0,invalid_lose,186.62602450000122,20,,,,,,,,,,,,,,,,sub_515,2023-06-15_12h23.41.914,Reversal,2022.1.1,59.991097323206674,3,
13,exp3.png,exp4.png,,1,0,1,0,0,13,13,13,,,,,,,,,,,,,,,,,,,,,,,,,False,33,34,True,exp4.png,exp3.png,trial_right_image,-1,exp3.png,3,exp4.png,exp3.png,0,2,non-reversed,incorrect,0.09504143108884411,1,invalid_win,191.09275660000276,21,,,,,,,,,,,,,,,,sub_515,2023-06-15_12h23.41.914,Reversal,2022.1.1,59.991097323206674,3,
14,exp1.png,exp2.png,,1,0,1,0,0,14,14,14,,,,,,,,,,,,,,,,,,,,,,,,,False,34,35,False,exp1.png,exp2.png,trial_right_image,-1,exp2.png,3,exp2.png,exp1.png,1,3,reversed,correct,0.5181550341809117,1,valid_win,195.3910960999783,22,,,,,,,,,,,,,,,,sub_515,2023-06-15_12h23.41.914,Reversal,2022.1.1,59.991097323206674,3,
15,exp3.png,exp4.png,,1,0,1,0,0,15,15,15,,,,,,,,,,,,,,,,,,,,,,,,,False,35,36,True,exp4.png,exp3.png,trial_right_image,-1,exp3.png,3,exp4.png,exp3.png,0,2,non-reversed,incorrect,0.7444804234728382,0,valid_lose,199.43942740000784,22,,,,,,,,,,,,,,,,sub_515,2023-06-15_12h23.41.914,Reversal,2022.1.1,59.991097323206674,3,
16,exp1.png,exp2.png,,1,0,1,0,0,16,16,16,,,,,,,,,,,,,,,,,,,,,,,,,False,36,37,False,exp1.png,exp2.png,trial_right_image,-1,exp2.png,3,exp2.png,exp1.png,1,3,reversed,correct,0.7935661895032698,1,valid_win,203.45711720001418,23,,,,,,,,,,,,,,,,sub_515,2023-06-15_12h23.41.914,Reversal,2022.1.1,59.991097323206674,3,
17,exp3.png,exp4.png,,1,0,1,0,0,17,17,17,,,,,,,,,,,,,,,,,,,,,,,,,False,37,38,True,exp4.png,exp3.png,trial_left_image,1,exp4.png,3,exp4.png,exp3.png,1,1,non-reversed,correct,0.38699899683736394,1,valid_win,208.07299399992917,24,,,,,,,,,,,,,,,,sub_515,2023-06-15_12h23.41.914,Reversal,2022.1.1,59.991097323206674,3,
18,exp1.png,exp2.png,,1,0,1,0,0,18,18,18,,,,,,,,,,,,,,,,,,,,,,,,,False,38,39,False,exp1.png,exp2.png,trial_left_image,1,exp1.png,3,exp2.png,exp1.png,0,4,reversed,incorrect,0.09933715433702361,1,invalid_win,212.68851509992965,25,,,,,,,,,,,,,,,,sub_515,2023-06-15_12h23.41.914,Reversal,2022.1.1,59.991097323206674,3,
19,exp3.png,exp4.png,,1,0,1,0,0,19,19,19,,,,,,,,,,,,,,,,,,,,,,,,,False,39,40,False,exp3.png,exp4.png,trial_left_image,1,exp3.png,3,exp4.png,exp3.png,0,2,non-reversed,incorrect,0.1515060206827471,1,invalid_win,217.27157540002372,26,,,,,,,,,,,,,,,,sub_515,2023-06-15_12h23.41.914,Reversal,2022.1.1,59.991097323206674,3,
20,exp1.png,exp2.png,,1,0,1,0,0,20,20,20,,,,,,,,,,,,,,,,,,,,,,,,,True,,,,,,,,,,,,,,,,,,,,,,,,,,,,,,,,,,,,sub_515,2023-06-15_12h23.41.914,Reversal,2022.1.1,59.991097323206674,3,
,,,exp1.png,1,0,1,0,,,,,0,0,0,0,0,0,0,0,,,,,,,,,,,,,,,,,,,,,,,,,,,,,,,,,,,,,,14.0,14.0,7.169469799962826,"[(32.0, 3.1866808999329805), (14.0, 7.169469799962826)]",928.450667600031,None,,,,,,,,,,sub_515,2023-06-15_12h23.41.914,Reversal,2022.1.1,59.991097323206674,3,
,,,exp2.png,1,0,1,0,,,,,0,0,0,0,0,1,1,1,,,,,,,,,,,,,,,,,,,,,,,,,,,,,,,,,,,,,,,87.0,4.356935600051656,"[(87.0, 4.356935600051656)]",936.7724272999913,None,87.0,,,,,,,,,sub_515,2023-06-15_12h23.41.914,Reversal,2022.1.1,59.991097323206674,3,
,,,exp3.png,1,0,1,0,,,,,0,0,0,0,0,2,2,2,,,,,,,,,,,,,,,,,,,,,,,,,,,,,,,,,,,,,,,50.0,None,[],942.014746199944,None,,,,,,,,,,sub_515,2023-06-15_12h23.41.914,Reversal,2022.1.1,59.991097323206674,3,
,,,exp4.png,1,0,1,0,,,,,0,0,0,0,0,3,3,3,,,,,,,,,,,,,,,,,,,,,,,,,,,,,,,,,,,,,,,89.0,5.25713739998173,"[(36.0, 1.1243267999961972), (89.0, 5.25713739998173)]",946.0223321999656,None,,,89.0,,,,,,,sub_515,2023-06-15_12h23.41.914,Reversal,2022.1.1,59.991097323206674,3,
0,exp1.png,exp2.png,,2,0,2,0,0,0,0,0,,,,,,,,,,,,,,,,,,,,,,,,,False,40,41,True,exp2.png,exp1.png,trial_left_image,1,exp2.png,3,exp2.png,exp1.png,1,3,reversed,correct,0.8991099257363847,1,valid_win,245.13436369993724,27,,,,,,,,,,,,,,,,sub_515,2023-06-15_12h23.41.914,Reversal,2022.1.1,59.991097323206674,3,
1,exp3.png,exp4.png,,2,0,2,0,0,1,1,1,,,,,,,,,,,,,,,,,,,,,,,,,False,41,42,True,exp4.png,exp3.png,trial_left_image,1,exp4.png,3,exp4.png,exp3.png,1,1,non-reversed,correct,0.09393646757140617,0,invalid_lose,249.26676609995775,27,,,,,,,,,,,,,,,,sub_515,2023-06-15_12h23.41.914,Reversal,2022.1.1,59.991097323206674,3,
2,exp1.png,exp2.png,,2,0,2,0,0,2,2,2,,,,,,,,,,,,,,,,,,,,,,,,,False,42,43,False,exp1.png,exp2.png,trial_right_image,-1,exp2.png,3,exp2.png,exp1.png,1,3,reversed,correct,0.007163843569021111,0,invalid_lose,253.00181139993947,27,,,,,,,,,,,,,,,,sub_515,2023-06-15_12h23.41.914,Reversal,2022.1.1,59.991097323206674,3,
3,exp3.png,exp4.png,,2,0,2,0,0,3,3,3,,,,,,,,,,,,,,,,,,,,,,,,,False,43,44,True,exp4.png,exp3.png,trial_left_image,1,exp4.png,3,exp4.png,exp3.png,1,1,non-reversed,correct,0.02209665140684558,0,invalid_lose,257.21592099999543,27,,,,,,,,,,,,,,,,sub_515,2023-06-15_12h23.41.914,Reversal,2022.1.1,59.991097323206674,3,
4,exp1.png,exp2.png,,2,0,2,0,0,4,4,4,,,,,,,,,,,,,,,,,,,,,,,,,False,44,45,False,exp1.png,exp2.png,trial_left_image,1,exp1.png,3,exp2.png,exp1.png,0,4,reversed,incorrect,0.27295838671653194,0,valid_lose,261.3483164999634,27,,,,,,,,,,,,,,,,sub_515,2023-06-15_12h23.41.914,Reversal,2022.1.1,59.991097323206674,3,
5,exp3.png,exp4.png,,2,0,2,0,0,5,5,5,,,,,,,,,,,,,,,,,,,,,,,,,False,45,46,True,exp4.png,exp3.png,trial_left_image,1,exp4.png,3,exp4.png,exp3.png,1,1,non-reversed,correct,0.2878879029855288,1,valid_win,265.06592949992046,28,,,,,,,,,,,,,,,,sub_515,2023-06-15_12h23.41.914,Reversal,2022.1.1,59.991097323206674,3,
6,exp1.png,exp2.png,,2,0,2,0,0,6,6,6,,,,,,,,,,,,,,,,,,,,,,,,,False,46,47,False,exp1.png,exp2.png,trial_left_image,1,exp1.png,3,exp2.png,exp1.png,0,4,reversed,incorrect,0.8968072803333424,0,valid_lose,269.21589709992986,28,,,,,,,,,,,,,,,,sub_515,2023-06-15_12h23.41.914,Reversal,2022.1.1,59.991097323206674,3,
7,exp3.png,exp4.png,,2,0,2,0,0,7,7,7,,,,,,,,,,,,,,,,,,,,,,,,,False,47,48,False,exp3.png,exp4.png,trial_right_image,-1,exp4.png,3,exp4.png,exp3.png,1,1,non-reversed,correct,0.9973457169175008,1,valid_win,272.93108809995465,29,,,,,,,,,,,,,,,,sub_515,2023-06-15_12h23.41.914,Reversal,2022.1.1,59.991097323206674,3,
8,exp1.png,exp2.png,,2,0,2,0,0,8,8,8,,,,,,,,,,,,,,,,,,,,,,,,,False,48,49,False,exp1.png,exp2.png,trial_left_image,1,exp1.png,3,exp2.png,exp1.png,0,4,reversed,incorrect,0.4332053069885735,0,valid_lose,278.03003619995434,29,,,,,,,,,,,,,,,,sub_515,2023-06-15_12h23.41.914,Reversal,2022.1.1,59.991097323206674,3,
9,exp3.png,exp4.png,,2,0,2,0,0,9,9,9,,,,,,,,,,,,,,,,,,,,,,,,,False,49,50,False,exp3.png,exp4.png,trial_right_image,-1,exp4.png,3,exp4.png,exp3.png,1,1,non-reversed,correct,0.3827893310603504,1,valid_win,281.9142362999264,30,,,,,,,,,,,,,,,,sub_515,2023-06-15_12h23.41.914,Reversal,2022.1.1,59.991097323206674,3,
10,exp1.png,exp2.png,,2,0,2,0,0,10,10,10,,,,,,,,,,,,,,,,,,,,,,,,,False,50,51,False,exp1.png,exp2.png,trial_left_image,1,exp1.png,3,exp2.png,exp1.png,0,4,reversed,incorrect,0.09912130564464627,1,invalid_win,286.01338319992647,31,,,,,,,,,,,,,,,,sub_515,2023-06-15_12h23.41.914,Reversal,2022.1.1,59.991097323206674,3,
11,exp3.png,exp4.png,,2,0,2,0,0,11,11,11,,,,,,,,,,,,,,,,,,,,,,,,,False,51,52,False,exp3.png,exp4.png,trial_right_image,-1,exp4.png,3,exp4.png,exp3.png,1,1,non-reversed,correct,0.9488235720041093,1,valid_win,289.92970989993773,32,,,,,,,,,,,,,,,,sub_515,2023-06-15_12h23.41.914,Reversal,2022.1.1,59.991097323206674,3,
12,exp1.png,exp2.png,,2,0,2,0,0,12,12,12,,,,,,,,,,,,,,,,,,,,,,,,,False,52,53,False,exp1.png,exp2.png,trial_right_image,-1,exp2.png,3,exp2.png,exp1.png,1,3,reversed,correct,0.34157385665728923,1,valid_win,294.1112415000098,33,,,,,,,,,,,,,,,,sub_515,2023-06-15_12h23.41.914,Reversal,2022.1.1,59.991097323206674,3,
13,exp3.png,exp4.png,,2,0,2,0,0,13,13,13,,,,,,,,,,,,,,,,,,,,,,,,,False,53,54,True,exp4.png,exp3.png,trial_right_image,-1,exp3.png,3,exp4.png,exp3.png,0,2,non-reversed,incorrect,0.5100127365940731,0,valid_lose,298.22735249996185,33,,,,,,,,,,,,,,,,sub_515,2023-06-15_12h23.41.914,Reversal,2022.1.1,59.991097323206674,3,
14,exp1.png,exp2.png,,2,0,2,0,0,14,14,14,,,,,,,,,,,,,,,,,,,,,,,,,False,54,55,True,exp2.png,exp1.png,trial_left_image,1,exp2.png,3,exp2.png,exp1.png,1,3,reversed,correct,0.7425603541546565,1,valid_win,302.5821887999773,34,,,,,,,,,,,,,,,,sub_515,2023-06-15_12h23.41.914,Reversal,2022.1.1,59.991097323206674,3,
15,exp3.png,exp4.png,,2,0,2,0,0,15,15,15,,,,,,,,,,,,,,,,,,,,,,,,,False,55,56,True,exp4.png,exp3.png,trial_left_image,1,exp4.png,3,exp4.png,exp3.png,1,1,non-reversed,correct,0.39160640284535075,1,valid_win,306.6119634999195,35,,,,,,,,,,,,,,,,sub_515,2023-06-15_12h23.41.914,Reversal,2022.1.1,59.991097323206674,3,
16,exp1.png,exp2.png,,2,0,2,0,0,16,16,16,,,,,,,,,,,,,,,,,,,,,,,,,False,56,57,True,exp2.png,exp1.png,trial_right_image,-1,exp1.png,3,exp2.png,exp1.png,0,4,reversed,incorrect,0.61462135588714,0,valid_lose,311.00850180001,35,,,,,,,,,,,,,,,,sub_515,2023-06-15_12h23.41.914,Reversal,2022.1.1,59.991097323206674,3,
17,exp3.png,exp4.png,,2,0,2,0,0,17,17,17,,,,,,,,,,,,,,,,,,,,,,,,,False,57,58,False,exp3.png,exp4.png,trial_left_image,1,exp3.png,3,exp4.png,exp3.png,0,2,non-reversed,incorrect,0.17763767640979644,1,invalid_win,315.80889430001844,36,,,,,,,,,,,,,,,,sub_515,2023-06-15_12h23.41.914,Reversal,2022.1.1,59.991097323206674,3,
18,exp1.png,exp2.png,,2,0,2,0,0,18,18,18,,,,,,,,,,,,,,,,,,,,,,,,,False,58,59,True,exp2.png,exp1.png,trial_right_image,-1,exp1.png,3,exp2.png,exp1.png,0,4,reversed,incorrect,0.9129679721672814,0,valid_lose,320.22440409997944,36,,,,,,,,,,,,,,,,sub_515,2023-06-15_12h23.41.914,Reversal,2022.1.1,59.991097323206674,3,
19,exp3.png,exp4.png,,2,0,2,0,0,19,19,19,,,,,,,,,,,,,,,,,,,,,,,,,False,59,60,True,exp4.png,exp3.png,trial_right_image,-1,exp3.png,3,exp4.png,exp3.png,0,2,non-reversed,incorrect,0.28995089648446026,0,valid_lose,324.376266199979,36,,,,,,,,,,,,,,,,sub_515,2023-06-15_12h23.41.914,Reversal,2022.1.1,59.991097323206674,3,
20,exp1.png,exp2.png,,2,0,2,0,0,20,20,20,,,,,,,,,,,,,,,,,,,,,,,,,True,,,,,,,,,,,,,,,,,,,,,,,,,,,,,,,,,,,,sub_515,2023-06-15_12h23.41.914,Reversal,2022.1.1,59.991097323206674,3,
,,,exp1.png,2,0,2,0,,,,,0,0,0,0,0,0,0,0,,,,,,,,,,,,,,,,,,,,,,,,,,,,,,,,,,,,,,33.0,33.0,2.985024599940516,"[(33.0, 2.985024599940516)]",1035.539122999995,None,,,,,,,,,,sub_515,2023-06-15_12h23.41.914,Reversal,2022.1.1,59.991097323206674,3,
,,,exp2.png,2,0,2,0,,,,,0,0,0,0,0,1,1,1,,,,,,,,,,,,,,,,,,,,,,,,,,,,,,,,,,,,,,,82.0,4.390995300025679,"[(98.0, 2.074739500065334), (82.0, 4.390995300025679)]",1039.3440744000254,None,82.0,,,,,,,,,sub_515,2023-06-15_12h23.41.914,Reversal,2022.1.1,59.991097323206674,3,
,,,exp3.png,2,0,2,0,,,,,0,0,0,0,0,2,2,2,,,,,,,,,,,,,,,,,,,,,,,,,,,,,,,,,,,,,,,65.0,3.003971000085585,"[(65.0, 3.003971000085585)]",1044.8632210999494,None,,65.0,,,,,,,,sub_515,2023-06-15_12h23.41.914,Reversal,2022.1.1,59.991097323206674,3,
,,,exp4.png,2,0,2,0,,,,,0,0,0,0,0,3,3,3,,,,,,,,,,,,,,,,,,,,,,,,,,,,,,,,,,,,,,,97.0,2.7839375999756157,"[(97.0, 2.7839375999756157)]",1048.698086499935,None,,,97.0,,,,,,,sub_515,2023-06-15_12h23.41.914,Reversal,2022.1.1,59.991097323206674,3,
0,exp1.png,exp2.png,,3,0,3,0,0,0,0,0,,,,,,,,,,,,,,,,,,,,,,,,,False,60,61,False,exp1.png,exp2.png,trial_left_image,1,exp1.png,3,exp2.png,exp1.png,0,4,reversed,incorrect,0.46159741650805186,0,valid_lose,347.2207759999437,36,,,,,,,,,,,,,,,,sub_515,2023-06-15_12h23.41.914,Reversal,2022.1.1,59.991097323206674,3,
1,exp3.png,exp4.png,,3,0,3,0,0,1,1,1,,,,,,,,,,,,,,,,,,,,,,,,,False,61,62,False,exp3.png,exp4.png,trial_right_image,-1,exp4.png,3,exp4.png,exp3.png,1,1,non-reversed,correct,0.5673606753650495,1,valid_win,353.7860862999223,37,,,,,,,,,,,,,,,,sub_515,2023-06-15_12h23.41.914,Reversal,2022.1.1,59.991097323206674,3,
2,exp1.png,exp2.png,,3,0,3,0,0,2,2,2,,,,,,,,,,,,,,,,,,,,,,,,,False,62,63,False,exp1.png,exp2.png,trial_right_image,-1,exp2.png,3,exp2.png,exp1.png,1,3,reversed,correct,0.9958317967693652,1,valid_win,360.1202036999166,38,,,,,,,,,,,,,,,,sub_515,2023-06-15_12h23.41.914,Reversal,2022.1.1,59.991097323206674,3,
3,exp3.png,exp4.png,,3,0,3,0,0,3,3,3,,,,,,,,,,,,,,,,,,,,,,,,,False,63,64,False,exp3.png,exp4.png,trial_right_image,-1,exp4.png,3,exp4.png,exp3.png,1,1,non-reversed,correct,0.4098809842850216,1,valid_win,365.05167760001495,39,,,,,,,,,,,,,,,,sub_515,2023-06-15_12h23.41.914,Reversal,2022.1.1,59.991097323206674,3,
4,exp1.png,exp2.png,,3,0,3,0,0,4,4,4,,,,,,,,,,,,,,,,,,,,,,,,,False,64,65,True,exp2.png,exp1.png,trial_left_image,1,exp2.png,3,exp2.png,exp1.png,1,3,reversed,correct,0.15141853284090656,0,invalid_lose,371.3679978,39,,,,,,,,,,,,,,,,sub_515,2023-06-15_12h23.41.914,Reversal,2022.1.1,59.991097323206674,3,
5,exp3.png,exp4.png,,3,0,3,0,0,5,5,5,,,,,,,,,,,,,,,,,,,,,,,,,False,65,66,False,exp3.png,exp4.png,trial_right_image,-1,exp4.png,3,exp4.png,exp3.png,1,1,non-reversed,correct,0.30509022362931704,1,valid_win,375.8179950999329,40,,,,,,,,,,,,,,,,sub_515,2023-06-15_12h23.41.914,Reversal,2022.1.1,59.991097323206674,3,
6,exp1.png,exp2.png,,3,0,3,0,0,6,6,6,,,,,,,,,,,,,,,,,,,,,,,,,False,66,67,True,exp2.png,exp1.png,trial_left_image,1,exp2.png,3,exp2.png,exp1.png,1,3,reversed,correct,0.9971918299217366,1,valid_win,380.43280549999326,41,,,,,,,,,,,,,,,,sub_515,2023-06-15_12h23.41.914,Reversal,2022.1.1,59.991097323206674,3,
7,exp3.png,exp4.png,,3,0,3,0,0,7,7,7,,,,,,,,,,,,,,,,,,,,,,,,,False,67,68,False,exp3.png,exp4.png,trial_right_image,-1,exp4.png,3,exp4.png,exp3.png,1,1,non-reversed,correct,0.1675820533760114,0,invalid_lose,384.56692429992836,41,,,,,,,,,,,,,,,,sub_515,2023-06-15_12h23.41.914,Reversal,2022.1.1,59.991097323206674,3,
8,exp1.png,exp2.png,,3,0,3,0,0,8,8,8,,,,,,,,,,,,,,,,,,,,,,,,,False,68,69,True,exp2.png,exp1.png,trial_left_image,1,exp2.png,3,exp2.png,exp1.png,1,3,reversed,correct,0.6486477970977877,1,valid_win,389.0827017999254,42,,,,,,,,,,,,,,,,sub_515,2023-06-15_12h23.41.914,Reversal,2022.1.1,59.991097323206674,3,
9,exp3.png,exp4.png,,3,0,3,0,0,9,9,9,,,,,,,,,,,,,,,,,,,,,,,,,False,69,70,True,exp4.png,exp3.png,trial_right_image,-1,exp3.png,3,exp4.png,exp3.png,0,2,non-reversed,incorrect,0.17630066853021575,1,invalid_win,393.74843349994626,43,,,,,,,,,,,,,,,,sub_515,2023-06-15_12h23.41.914,Reversal,2022.1.1,59.991097323206674,3,
10,exp1.png,exp2.png,,3,0,3,0,0,10,10,10,,,,,,,,,,,,,,,,,,,,,,,,,False,70,71,True,exp2.png,exp1.png,trial_left_image,1,exp2.png,3,exp2.png,exp1.png,1,3,reversed,correct,0.6705897095846557,1,valid_win,398.1984844999388,44,,,,,,,,,,,,,,,,sub_515,2023-06-15_12h23.41.914,Reversal,2022.1.1,59.991097323206674,3,
11,exp3.png,exp4.png,,3,0,3,0,0,11,11,11,,,,,,,,,,,,,,,,,,,,,,,,,False,71,72,True,exp4.png,exp3.png,trial_right_image,-1,exp3.png,3,exp4.png,exp3.png,0,2,non-reversed,incorrect,0.7026173786473747,0,valid_lose,402.34720900002867,44,,,,,,,,,,,,,,,,sub_515,2023-06-15_12h23.41.914,Reversal,2022.1.1,59.991097323206674,3,
12,exp1.png,exp2.png,,3,0,3,0,0,12,12,12,,,,,,,,,,,,,,,,,,,,,,,,,False,72,73,True,exp2.png,exp1.png,trial_left_image,1,exp2.png,3,exp2.png,exp1.png,1,3,reversed,correct,0.9059736988060171,1,valid_win,406.6650570000056,45,,,,,,,,,,,,,,,,sub_515,2023-06-15_12h23.41.914,Reversal,2022.1.1,59.991097323206674,3,
13,exp3.png,exp4.png,,3,0,3,0,0,13,13,13,,,,,,,,,,,,,,,,,,,,,,,,,False,73,74,False,exp3.png,exp4.png,trial_left_image,1,exp3.png,3,exp4.png,exp3.png,0,2,non-reversed,incorrect,0.06898038795924966,1,invalid_win,410.7463663999224,46,,,,,,,,,,,,,,,,sub_515,2023-06-15_12h23.41.914,Reversal,2022.1.1,59.991097323206674,3,
14,exp1.png,exp2.png,,3,0,3,0,0,14,14,14,,,,,,,,,,,,,,,,,,,,,,,,,False,74,75,False,exp1.png,exp2.png,trial_right_image,-1,exp2.png,3,exp2.png,exp1.png,1,3,reversed,correct,0.6955342979872343,1,valid_win,414.8989914000267,47,,,,,,,,,,,,,,,,sub_515,2023-06-15_12h23.41.914,Reversal,2022.1.1,59.991097323206674,3,
15,exp3.png,exp4.png,,3,0,3,0,0,15,15,15,,,,,,,,,,,,,,,,,,,,,,,,,False,75,76,True,exp4.png,exp3.png,trial_right_image,-1,exp3.png,3,exp4.png,exp3.png,0,2,non-reversed,incorrect,0.6454891152911268,0,valid_lose,419.3976511999499,47,,,,,,,,,,,,,,,,sub_515,2023-06-15_12h23.41.914,Reversal,2022.1.1,59.991097323206674,3,
16,exp1.png,exp2.png,,3,0,3,0,0,16,16,16,,,,,,,,,,,,,,,,,,,,,,,,,False,76,77,True,exp2.png,exp1.png,trial_left_image,1,exp2.png,3,exp2.png,exp1.png,1,3,reversed,correct,0.2024802240255582,0,invalid_lose,423.9447714999551,47,,,,,,,,,,,,,,,,sub_515,2023-06-15_12h23.41.914,Reversal,2022.1.1,59.991097323206674,3,
17,exp3.png,exp4.png,,3,0,3,0,0,17,17,17,,,,,,,,,,,,,,,,,,,,,,,,,False,77,78,False,exp3.png,exp4.png,trial_right_image,-1,exp4.png,3,exp4.png,exp3.png,1,1,non-reversed,correct,0.2645342793454052,1,valid_win,428.89504849992227,48,,,,,,,,,,,,,,,,sub_515,2023-06-15_12h23.41.914,Reversal,2022.1.1,59.991097323206674,3,
18,exp1.png,exp2.png,,3,0,3,0,0,18,18,18,,,,,,,,,,,,,,,,,,,,,,,,,False,78,79,False,exp1.png,exp2.png,trial_right_image,-1,exp2.png,3,exp2.png,exp1.png,1,3,reversed,correct,0.4529591378672241,1,valid_win,433.34349889995065,49,,,,,,,,,,,,,,,,sub_515,2023-06-15_12h23.41.914,Reversal,2022.1.1,59.991097323206674,3,
19,exp3.png,exp4.png,,3,0,3,0,0,19,19,19,,,,,,,,,,,,,,,,,,,,,,,,,False,79,80,True,exp4.png,exp3.png,trial_right_image,-1,exp3.png,3,exp4.png,exp3.png,0,2,non-reversed,incorrect,0.7573180495062384,0,valid_lose,437.79296009999234,49,,,,,,,,,,,,,,,,sub_515,2023-06-15_12h23.41.914,Reversal,2022.1.1,59.991097323206674,3,
20,exp1.png,exp2.png,,3,0,3,0,0,20,20,20,,,,,,,,,,,,,,,,,,,,,,,,,True,,,,,,,,,,,,,,,,,,,,,,,,,,,,,,,,,,,,sub_515,2023-06-15_12h23.41.914,Reversal,2022.1.1,59.991097323206674,3,
,,,exp1.png,3,0,3,0,,,,,0,0,0,0,0,0,0,0,,,,,,,,,,,,,,,,,,,,,,,,,,,,,,,,,,,,,,66.0,66.0,3.5357064999407157,"[(66.0, 3.5357064999407157)]",1148.9759600999532,None,,,,,,,,,,sub_515,2023-06-15_12h23.41.914,Reversal,2022.1.1,59.991097323206674,3,
,,,exp2.png,3,0,3,0,,,,,0,0,0,0,0,1,1,1,,,,,,,,,,,,,,,,,,,,,,,,,,,,,,,,,,,,,,,81.0,4.774778199964203,"[(100.0, 2.959425500012003), (81.0, 4.774778199964203)]",1153.543698500027,None,81.0,,,,,,,,,sub_515,2023-06-15_12h23.41.914,Reversal,2022.1.1,59.991097323206674,3,
,,,exp3.png,3,0,3,0,,,,,0,0,0,0,0,2,2,2,,,,,,,,,,,,,,,,,,,,,,,,,,,,,,,,,,,,,,,50.0,None,[],1159.2457024999894,None,,,,,,,,,,sub_515,2023-06-15_12h23.41.914,Reversal,2022.1.1,59.991097323206674,3,
,,,exp4.png,3,0,3,0,,,,,0,0,0,0,0,3,3,3,,,,,,,,,,,,,,,,,,,,,,,,,,,,,,,,,,,,,,,84.0,2.457254400011152,"[(84.0, 2.457254400011152)]",1161.6593186999671,None,,,84.0,,,,,,,sub_515,2023-06-15_12h23.41.914,Reversal,2022.1.1,59.991097323206674,3,
0,exp1.png,exp2.png,,,,,,,,,,,,,,,,,,0,0,0,0,0,0,0,0,,,,,,,,,False,0,81,False,exp1.png,exp2.png,trial_right_image,-1,exp2.png,3,exp1.png,exp2.png,1,3,reversed,incorrect,0.13623233558890757,1,invalid_win,458.4730448999908,50,,,,,,,,,,456.7710636999691,,,,,,sub_515,2023-06-15_12h23.41.914,Reversal,2022.1.1,59.991097323206674,3,
1,exp3.png,exp4.png,,,,,,,,,,,,,,,,,,0,0,0,0,0,1,1,1,,,,,,,,,False,1,82,True,exp4.png,exp3.png,trial_right_image,-1,exp3.png,3,exp4.png,exp3.png,0,2,non-reversed,incorrect,0.10120589083433096,1,invalid_win,463.3908886000281,51,,,,,,,,,,,,,,,,sub_515,2023-06-15_12h23.41.914,Reversal,2022.1.1,59.991097323206674,3,
2,exp1.png,exp2.png,,,,,,,,,,,,,,,,,,0,0,0,0,0,2,2,2,,,,,,,,,False,2,83,True,exp2.png,exp1.png,trial_left_image,1,exp2.png,3,exp1.png,exp2.png,1,3,reversed,incorrect,0.8874177852869648,0,valid_lose,467.5727405999787,51,,,,,,,,,,,,,,,,sub_515,2023-06-15_12h23.41.914,Reversal,2022.1.1,59.991097323206674,3,
3,exp3.png,exp4.png,,,,,,,,,,,,,,,,,,0,0,0,0,0,3,3,3,,,,,,,,,False,3,84,False,exp3.png,exp4.png,trial_right_image,-1,exp4.png,3,exp4.png,exp3.png,1,1,non-reversed,correct,0.752714783203715,1,valid_win,471.7899472999852,52,,,,,,,,,,,,,,,,sub_515,2023-06-15_12h23.41.914,Reversal,2022.1.1,59.991097323206674,3,
4,exp1.png,exp2.png,,,,,,,,,,,,,,,,,,0,0,0,0,0,4,4,4,,,,,,,,,False,4,85,False,exp1.png,exp2.png,trial_right_image,-1,exp2.png,3,exp1.png,exp2.png,1,3,reversed,incorrect,0.46393372480299844,0,valid_lose,475.8059477999341,52,,,,,,,,,,,,,,,,sub_515,2023-06-15_12h23.41.914,Reversal,2022.1.1,59.991097323206674,3,
5,exp3.png,exp4.png,,,,,,,,,,,,,,,,,,0,0,0,0,0,5,5,5,,,,,,,,,False,5,86,True,exp4.png,exp3.png,trial_right_image,-1,exp3.png,3,exp4.png,exp3.png,0,2,non-reversed,incorrect,0.0927277585880042,1,invalid_win,480.0871086999541,53,,,,,,,,,,,,,,,,sub_515,2023-06-15_12h23.41.914,Reversal,2022.1.1,59.991097323206674,3,
6,exp1.png,exp2.png,,,,,,,,,,,,,,,,,,0,0,0,0,0,6,6,6,,,,,,,,,False,6,87,False,exp1.png,exp2.png,trial_left_image,1,exp1.png,3,exp1.png,exp2.png,0,4,reversed,correct,0.7461406231779317,1,valid_win,484.3032676000148,54,,,,,,,,,,,,,,,,sub_515,2023-06-15_12h23.41.914,Reversal,2022.1.1,59.991097323206674,3,
7,exp3.png,exp4.png,,,,,,,,,,,,,,,,,,0,0,0,0,0,7,7,7,,,,,,,,,False,7,88,True,exp4.png,exp3.png,trial_left_image,1,exp4.png,3,exp4.png,exp3.png,1,1,non-reversed,correct,0.785732397255266,1,valid_win,488.6539218999678,55,,,,,,,,,,,,,,,,sub_515,2023-06-15_12h23.41.914,Reversal,2022.1.1,59.991097323206674,3,
8,exp1.png,exp2.png,,,,,,,,,,,,,,,,,,0,0,0,0,0,8,8,8,,,,,,,,,False,8,89,False,exp1.png,exp2.png,trial_left_image,1,exp1.png,3,exp1.png,exp2.png,0,4,reversed,correct,0.26366864593347716,1,valid_win,492.5530866999179,56,,,,,,,,,,,,,,,,sub_515,2023-06-15_12h23.41.914,Reversal,2022.1.1,59.991097323206674,3,
9,exp3.png,exp4.png,,,,,,,,,,,,,,,,,,0,0,0,0,0,9,9,9,,,,,,,,,False,9,90,True,exp4.png,exp3.png,trial_left_image,1,exp4.png,3,exp4.png,exp3.png,1,1,non-reversed,correct,0.44352765265451566,1,valid_win,496.21866679994855,57,,,,,,,,,,,,,,,,sub_515,2023-06-15_12h23.41.914,Reversal,2022.1.1,59.991097323206674,3,
10,exp1.png,exp2.png,,,,,,,,,,,,,,,,,,0,0,0,0,0,10,10,10,,,,,,,,,False,10,91,False,exp1.png,exp2.png,trial_left_image,1,exp1.png,3,exp1.png,exp2.png,0,4,reversed,correct,0.0036603259271563715,0,invalid_lose,500.00294989999384,57,,,,,,,,,,,,,,,,sub_515,2023-06-15_12h23.41.914,Reversal,2022.1.1,59.991097323206674,3,
11,exp3.png,exp4.png,,,,,,,,,,,,,,,,,,0,0,0,0,0,11,11,11,,,,,,,,,False,11,92,False,exp3.png,exp4.png,trial_left_image,1,exp3.png,3,exp4.png,exp3.png,0,2,non-reversed,incorrect,0.9748260974187113,0,valid_lose,503.2669437000295,57,,,,,,,,,,,,,,,,sub_515,2023-06-15_12h23.41.914,Reversal,2022.1.1,59.991097323206674,3,
12,exp1.png,exp2.png,,,,,,,,,,,,,,,,,,0,0,0,0,0,12,12,12,,,,,,,,,False,12,93,True,exp2.png,exp1.png,trial_left_image,1,exp2.png,3,exp1.png,exp2.png,1,3,reversed,incorrect,0.2153089795435631,1,invalid_win,508.8003752999939,58,,,,,,,,,,,,,,,,sub_515,2023-06-15_12h23.41.914,Reversal,2022.1.1,59.991097323206674,3,
13,exp3.png,exp4.png,,,,,,,,,,,,,,,,,,0,0,0,0,0,13,13,13,,,,,,,,,False,13,94,False,exp3.png,exp4.png,trial_left_image,1,exp3.png,3,exp4.png,exp3.png,0,2,non-reversed,incorrect,0.8806555380640394,0,valid_lose,513.0161663999315,58,,,,,,,,,,,,,,,,sub_515,2023-06-15_12h23.41.914,Reversal,2022.1.1,59.991097323206674,3,
14,exp1.png,exp2.png,,,,,,,,,,,,,,,,,,0,0,0,0,0,14,14,14,,,,,,,,,False,14,95,True,exp2.png,exp1.png,trial_left_image,1,exp2.png,3,exp1.png,exp2.png,1,3,reversed,incorrect,0.13591741539724222,1,invalid_win,517.3681274999399,59,,,,,,,,,,,,,,,,sub_515,2023-06-15_12h23.41.914,Reversal,2022.1.1,59.991097323206674,3,
15,exp3.png,exp4.png,,,,,,,,,,,,,,,,,,0,0,0,0,0,15,15,15,,,,,,,,,False,15,96,False,exp3.png,exp4.png,trial_right_image,-1,exp4.png,3,exp4.png,exp3.png,1,1,non-reversed,correct,0.38131753144655156,1,valid_win,521.1317046999466,60,,,,,,,,,,,,,,,,sub_515,2023-06-15_12h23.41.914,Reversal,2022.1.1,59.991097323206674,3,
16,exp1.png,exp2.png,,,,,,,,,,,,,,,,,,0,0,0,0,0,16,16,16,,,,,,,,,False,16,97,True,exp2.png,exp1.png,trial_left_image,1,exp2.png,3,exp1.png,exp2.png,1,3,reversed,incorrect,0.830563720160243,0,valid_lose,524.9995411999989,60,,,,,,,,,,,,,,,,sub_515,2023-06-15_12h23.41.914,Reversal,2022.1.1,59.991097323206674,3,
17,exp3.png,exp4.png,,,,,,,,,,,,,,,,,,0,0,0,0,0,17,17,17,,,,,,,,,False,17,98,True,exp4.png,exp3.png,trial_left_image,1,exp4.png,3,exp4.png,exp3.png,1,1,non-reversed,correct,0.2333624181870032,0,invalid_lose,528.947384799947,60,,,,,,,,,,,,,,,,sub_515,2023-06-15_12h23.41.914,Reversal,2022.1.1,59.991097323206674,3,
18,exp1.png,exp2.png,,,,,,,,,,,,,,,,,,0,0,0,0,0,18,18,18,,,,,,,,,False,18,99,True,exp2.png,exp1.png,trial_left_image,1,exp2.png,3,exp1.png,exp2.png,1,3,reversed,incorrect,0.7527782472137784,0,valid_lose,532.7133661999833,60,,,,,,,,,,,,,,,,sub_515,2023-06-15_12h23.41.914,Reversal,2022.1.1,59.991097323206674,3,
19,exp3.png,exp4.png,,,,,,,,,,,,,,,,,,0,0,0,0,0,19,19,19,,,,,,,,,False,19,100,False,exp3.png,exp4.png,trial_right_image,-1,exp4.png,3,exp4.png,exp3.png,1,1,non-reversed,correct,0.7373910538650312,1,valid_win,536.5632591999602,61,,,,,,,,,,,,,,,,sub_515,2023-06-15_12h23.41.914,Reversal,2022.1.1,59.991097323206674,3,
20,exp1.png,exp2.png,,,,,,,,,,,,,,,,,,0,0,0,0,0,20,20,20,,,,,,,,,True,,,,,,,,,,,,,,,,,,,,,,,,,,,,,,,,,,,,sub_515,2023-06-15_12h23.41.914,Reversal,2022.1.1,59.991097323206674,3,
,,,exp1.png,,,,,,,,,,,,,,,,,0,0,0,0,,,,,0,0,0,0,0,0,0,0,,,,,,,,,,,,,,,,,,,,,,,50.0,None,[],1247.7348200000124,None,,,,,,,,,,sub_515,2023-06-15_12h23.41.914,Reversal,2022.1.1,59.991097323206674,3,
,,,exp2.png,,,,,,,,,,,,,,,,,0,0,0,0,,,,,0,0,0,0,0,1,1,1,,,,,,,,,,,,,,,,,,,,,,,25.0,5.074600300053135,"[(25.0, 5.074600300053135)]",1249.1820202999515,None,25.0,,,,,,,,,sub_515,2023-06-15_12h23.41.914,Reversal,2022.1.1,59.991097323206674,3,
,,,exp3.png,,,,,,,,,,,,,,,,,0,0,0,0,,,,,0,0,0,0,0,2,2,2,,,,,,,,,,,,,,,,,,,,,,,27.0,2.341731599997729,"[(27.0, 2.341731599997729)]",1255.3642613999546,None,,27.0,,,,,,,,sub_515,2023-06-15_12h23.41.914,Reversal,2022.1.1,59.991097323206674,3,
,,,exp4.png,,,,,,,,,,,,,,,,,0,0,0,0,,,,,0,0,0,0,0,3,3,3,,,,,,,,,,,,,,,,,,,,,,,63.0,7.491234500077553,"[(63.0, 7.491234500077553)]",1258.4804384999443,None,,,63.0,,,,,,,sub_515,2023-06-15_12h23.41.914,Reversal,2022.1.1,59.991097323206674,3,
0,exp1.png,exp2.png,,,,,,,,,,,,,,,,,,1,0,1,0,0,0,0,0,,,,,,,,,False,20,101,False,exp1.png,exp2.png,trial_right_image,-1,exp2.png,3,exp1.png,exp2.png,1,3,reversed,incorrect,0.955000685519912,0,valid_lose,560.3603916999418,61,,,,,,,,,,,,,,,,sub_515,2023-06-15_12h23.41.914,Reversal,2022.1.1,59.991097323206674,3,
1,exp3.png,exp4.png,,,,,,,,,,,,,,,,,,1,0,1,0,0,1,1,1,,,,,,,,,False,21,102,False,exp3.png,exp4.png,trial_left_image,1,exp3.png,3,exp4.png,exp3.png,0,2,non-reversed,incorrect,0.2264232610364285,1,invalid_win,564.360538900015,62,,,,,,,,,,,,,,,,sub_515,2023-06-15_12h23.41.914,Reversal,2022.1.1,59.991097323206674,3,
2,exp1.png,exp2.png,,,,,,,,,,,,,,,,,,1,0,1,0,0,2,2,2,,,,,,,,,False,22,103,False,exp1.png,exp2.png,trial_left_image,1,exp1.png,3,exp1.png,exp2.png,0,4,reversed,correct,0.34908418577287814,1,valid_win,568.1099172999384,63,,,,,,,,,,,,,,,,sub_515,2023-06-15_12h23.41.914,Reversal,2022.1.1,59.991097323206674,3,
3,exp3.png,exp4.png,,,,,,,,,,,,,,,,,,1,0,1,0,0,3,3,3,,,,,,,,,False,23,104,False,exp3.png,exp4.png,trial_left_image,1,exp3.png,3,exp4.png,exp3.png,0,2,non-reversed,incorrect,0.6584022246605702,0,valid_lose,571.8448466999689,63,,,,,,,,,,,,,,,,sub_515,2023-06-15_12h23.41.914,Reversal,2022.1.1,59.991097323206674,3,
4,exp1.png,exp2.png,,,,,,,,,,,,,,,,,,1,0,1,0,0,4,4,4,,,,,,,,,False,24,105,False,exp1.png,exp2.png,trial_right_image,-1,exp2.png,3,exp1.png,exp2.png,1,3,reversed,incorrect,0.2599221998964164,0,valid_lose,575.6616205999162,63,,,,,,,,,,,,,,,,sub_515,2023-06-15_12h23.41.914,Reversal,2022.1.1,59.991097323206674,3,
5,exp3.png,exp4.png,,,,,,,,,,,,,,,,,,1,0,1,0,0,5,5,5,,,,,,,,,False,25,106,False,exp3.png,exp4.png,trial_left_image,1,exp3.png,3,exp4.png,exp3.png,0,2,non-reversed,incorrect,0.999677053733926,0,valid_lose,579.7405657999916,63,,,,,,,,,,,,,,,,sub_515,2023-06-15_12h23.41.914,Reversal,2022.1.1,59.991097323206674,3,
6,exp1.png,exp2.png,,,,,,,,,,,,,,,,,,1,0,1,0,0,6,6,6,,,,,,,,,False,26,107,False,exp1.png,exp2.png,trial_left_image,1,exp1.png,3,exp1.png,exp2.png,0,4,reversed,correct,0.6613670866993633,1,valid_win,583.8407727999147,64,,,,,,,,,,,,,,,,sub_515,2023-06-15_12h23.41.914,Reversal,2022.1.1,59.991097323206674,3,
7,exp3.png,exp4.png,,,,,,,,,,,,,,,,,,1,0,1,0,0,7,7,7,,,,,,,,,False,27,108,True,exp4.png,exp3.png,trial_left_image,1,exp4.png,3,exp4.png,exp3.png,1,1,non-reversed,correct,0.21173330435269988,0,invalid_lose,588.0060121000279,64,,,,,,,,,,,,,,,,sub_515,2023-06-15_12h23.41.914,Reversal,2022.1.1,59.991097323206674,3,
8,exp1.png,exp2.png,,,,,,,,,,,,,,,,,,1,0,1,0,0,8,8,8,,,,,,,,,False,28,109,True,exp2.png,exp1.png,trial_right_image,-1,exp1.png,3,exp1.png,exp2.png,0,4,reversed,correct,0.5666451483410281,1,valid_win,592.075719299959,65,,,,,,,,,,,,,,,,sub_515,2023-06-15_12h23.41.914,Reversal,2022.1.1,59.991097323206674,3,
9,exp3.png,exp4.png,,,,,,,,,,,,,,,,,,1,0,1,0,0,9,9,9,,,,,,,,,False,29,110,True,exp4.png,exp3.png,trial_right_image,-1,exp3.png,3,exp4.png,exp3.png,0,2,non-reversed,incorrect,0.5208798412623166,0,valid_lose,597.275751399924,65,,,,,,,,,,,,,,,,sub_515,2023-06-15_12h23.41.914,Reversal,2022.1.1,59.991097323206674,3,
10,exp1.png,exp2.png,,,,,,,,,,,,,,,,,,1,0,1,0,0,10,10,10,,,,,,,,,False,30,111,True,exp2.png,exp1.png,trial_right_image,-1,exp1.png,3,exp1.png,exp2.png,0,4,reversed,correct,0.9209208487992294,1,valid_win,603.0208639999619,66,,,,,,,,,,,,,,,,sub_515,2023-06-15_12h23.41.914,Reversal,2022.1.1,59.991097323206674,3,
11,exp3.png,exp4.png,,,,,,,,,,,,,,,,,,1,0,1,0,0,11,11,11,,,,,,,,,False,31,112,True,exp4.png,exp3.png,trial_right_image,-1,exp3.png,3,exp4.png,exp3.png,0,2,non-reversed,incorrect,0.15973702222877484,1,invalid_win,607.9041920999298,67,,,,,,,,,,,,,,,,sub_515,2023-06-15_12h23.41.914,Reversal,2022.1.1,59.991097323206674,3,
12,exp1.png,exp2.png,,,,,,,,,,,,,,,,,,1,0,1,0,0,12,12,12,,,,,,,,,False,32,113,True,exp2.png,exp1.png,trial_right_image,-1,exp1.png,3,exp1.png,exp2.png,0,4,reversed,correct,0.7496086790698981,1,valid_win,612.5728857999202,68,,,,,,,,,,,,,,,,sub_515,2023-06-15_12h23.41.914,Reversal,2022.1.1,59.991097323206674,3,
13,exp3.png,exp4.png,,,,,,,,,,,,,,,,,,1,0,1,0,0,13,13,13,,,,,,,,,False,33,114,True,exp4.png,exp3.png,trial_right_image,-1,exp3.png,3,exp4.png,exp3.png,0,2,non-reversed,incorrect,0.6102846150911606,0,valid_lose,616.5364791000029,68,,,,,,,,,,,,,,,,sub_515,2023-06-15_12h23.41.914,Reversal,2022.1.1,59.991097323206674,3,
14,exp1.png,exp2.png,,,,,,,,,,,,,,,,,,1,0,1,0,0,14,14,14,,,,,,,,,False,34,115,False,exp1.png,exp2.png,trial_right_image,-1,exp2.png,3,exp1.png,exp2.png,1,3,reversed,incorrect,0.2676782008693305,0,valid_lose,620.5546556999907,68,,,,,,,,,,,,,,,,sub_515,2023-06-15_12h23.41.914,Reversal,2022.1.1,59.991097323206674,3,
15,exp3.png,exp4.png,,,,,,,,,,,,,,,,,,1,0,1,0,0,15,15,15,,,,,,,,,False,35,116,True,exp4.png,exp3.png,trial_right_image,-1,exp3.png,3,exp4.png,exp3.png,0,2,non-reversed,incorrect,0.8596308199851225,0,valid_lose,624.4689393999288,68,,,,,,,,,,,,,,,,sub_515,2023-06-15_12h23.41.914,Reversal,2022.1.1,59.991097323206674,3,
16,exp1.png,exp2.png,,,,,,,,,,,,,,,,,,1,0,1,0,0,16,16,16,,,,,,,,,False,36,117,True,exp2.png,exp1.png,trial_right_image,-1,exp1.png,3,exp1.png,exp2.png,0,4,reversed,correct,0.06925742209549568,0,invalid_lose,628.2056069999235,68,,,,,,,,,,,,,,,,sub_515,2023-06-15_12h23.41.914,Reversal,2022.1.1,59.991097323206674,3,
17,exp3.png,exp4.png,,,,,,,,,,,,,,,,,,1,0,1,0,0,17,17,17,,,,,,,,,False,37,118,False,exp3.png,exp4.png,trial_left_image,1,exp3.png,3,exp4.png,exp3.png,0,2,non-reversed,incorrect,0.775356064246219,0,valid_lose,632.9345165999839,68,,,,,,,,,,,,,,,,sub_515,2023-06-15_12h23.41.914,Reversal,2022.1.1,59.991097323206674,3,
18,exp1.png,exp2.png,,,,,,,,,,,,,,,,,,1,0,1,0,0,18,18,18,,,,,,,,,False,38,119,True,exp2.png,exp1.png,trial_right_image,-1,exp1.png,3,exp1.png,exp2.png,0,4,reversed,correct,0.542117658405755,1,valid_win,636.8337211000035,69,,,,,,,,,,,,,,,,sub_515,2023-06-15_12h23.41.914,Reversal,2022.1.1,59.991097323206674,3,
19,exp3.png,exp4.png,,,,,,,,,,,,,,,,,,1,0,1,0,0,19,19,19,,,,,,,,,False,39,120,False,exp3.png,exp4.png,trial_left_image,1,exp3.png,3,exp4.png,exp3.png,0,2,non-reversed,incorrect,0.487260675843872,0,valid_lose,641.0501937000081,69,,,,,,,,,,,,,,,,sub_515,2023-06-15_12h23.41.914,Reversal,2022.1.1,59.991097323206674,3,
20,exp1.png,exp2.png,,,,,,,,,,,,,,,,,,1,0,1,0,0,20,20,20,,,,,,,,,True,,,,,,,,,,,,,,,,,,,,,,,,,,,,,,,,,,,,sub_515,2023-06-15_12h23.41.914,Reversal,2022.1.1,59.991097323206674,3,
,,,exp1.png,,,,,,,,,,,,,,,,,1,0,1,0,,,,,0,0,0,0,0,0,0,0,,,,,,,,,,,,,,,,,,,,,,33.0,33.0,2.939067899947986,"[(33.0, 2.939067899947986)]",1352.2123764000135,None,,,,,,,,,,sub_515,2023-06-15_12h23.41.914,Reversal,2022.1.1,59.991097323206674,3,
,,,exp2.png,,,,,,,,,,,,,,,,,1,0,1,0,,,,,0,0,0,0,0,1,1,1,,,,,,,,,,,,,,,,,,,,,,,76.0,2.6353748999536037,"[(76.0, 2.6353748999536037)]",1355.9893537999596,None,76.0,,,,,,,,,sub_515,2023-06-15_12h23.41.914,Reversal,2022.1.1,59.991097323206674,3,
,,,exp3.png,,,,,,,,,,,,,,,,,1,0,1,0,,,,,0,0,0,0,0,2,2,2,,,,,,,,,,,,,,,,,,,,,,,15.0,2.6072779999813065,"[(15.0, 2.6072779999813065)]",1359.384410199942,None,,15.0,,,,,,,,sub_515,2023-06-15_12h23.41.914,Reversal,2022.1.1,59.991097323206674,3,
,,,exp4.png,,,,,,,,,,,,,,,,,1,0,1,0,,,,,0,0,0,0,0,3,3,3,,,,,,,,,,,,,,,,,,,,,,,70.0,2.6233575999503955,"[(70.0, 2.6233575999503955)]",1363.034899399965,None,,,70.0,,,,,,,sub_515,2023-06-15_12h23.41.914,Reversal,2022.1.1,59.991097323206674,3,
0,exp1.png,exp2.png,,,,,,,,,,,,,,,,,,2,0,2,0,0,0,0,0,,,,,,,,,False,40,121,True,exp2.png,exp1.png,trial_left_image,1,exp2.png,3,exp1.png,exp2.png,1,3,reversed,incorrect,0.9437954272835826,0,valid_lose,659.5312626999803,69,,,,,,,,,,,,,,,,sub_515,2023-06-15_12h23.41.914,Reversal,2022.1.1,59.991097323206674,3,
1,exp3.png,exp4.png,,,,,,,,,,,,,,,,,,2,0,2,0,0,1,1,1,,,,,,,,,False,41,122,True,exp4.png,exp3.png,trial_right_image,-1,exp3.png,3,exp4.png,exp3.png,0,2,non-reversed,incorrect,0.8232029265774856,0,valid_lose,663.4978092999663,69,,,,,,,,,,,,,,,,sub_515,2023-06-15_12h23.41.914,Reversal,2022.1.1,59.991097323206674,3,
2,exp1.png,exp2.png,,,,,,,,,,,,,,,,,,2,0,2,0,0,2,2,2,,,,,,,,,False,42,123,False,exp1.png,exp2.png,trial_left_image,1,exp1.png,3,exp1.png,exp2.png,0,4,reversed,correct,0.5650677790148172,1,valid_win,667.2462993999943,70,,,,,,,,,,,,,,,,sub_515,2023-06-15_12h23.41.914,Reversal,2022.1.1,59.991097323206674,3,
3,exp3.png,exp4.png,,,,,,,,,,,,,,,,,,2,0,2,0,0,3,3,3,,,,,,,,,False,43,124,False,exp3.png,exp4.png,trial_left_image,1,exp3.png,3,exp4.png,exp3.png,0,2,non-reversed,incorrect,0.06900417416569105,1,invalid_win,671.5652631999692,71,,,,,,,,,,,,,,,,sub_515,2023-06-15_12h23.41.914,Reversal,2022.1.1,59.991097323206674,3,
4,exp1.png,exp2.png,,,,,,,,,,,,,,,,,,2,0,2,0,0,4,4,4,,,,,,,,,False,44,125,False,exp1.png,exp2.png,trial_left_image,1,exp1.png,3,exp1.png,exp2.png,0,4,reversed,correct,0.07991826137961666,0,invalid_lose,675.4459215999814,71,,,,,,,,,,,,,,,,sub_515,2023-06-15_12h23.41.914,Reversal,2022.1.1,59.991097323206674,3,
5,exp3.png,exp4.png,,,,,,,,,,,,,,,,,,2,0,2,0,0,5,5,5,,,,,,,,,False,45,126,True,exp4.png,exp3.png,trial_right_image,-1,exp3.png,3,exp4.png,exp3.png,0,2,non-reversed,incorrect,0.8818096994969844,0,valid_lose,679.329340599943,71,,,,,,,,,,,,,,,,sub_515,2023-06-15_12h23.41.914,Reversal,2022.1.1,59.991097323206674,3,
6,exp1.png,exp2.png,,,,,,,,,,,,,,,,,,2,0,2,0,0,6,6,6,,,,,,,,,False,46,127,True,exp2.png,exp1.png,trial_left_image,1,exp2.png,3,exp1.png,exp2.png,1,3,reversed,incorrect,0.0775001917633874,1,invalid_win,683.2445458000293,72,,,,,,,,,,,,,,,,sub_515,2023-06-15_12h23.41.914,Reversal,2022.1.1,59.991097323206674,3,
7,exp3.png,exp4.png,,,,,,,,,,,,,,,,,,2,0,2,0,0,7,7,7,,,,,,,,,False,47,128,True,exp4.png,exp3.png,trial_left_image,1,exp4.png,3,exp4.png,exp3.png,1,1,non-reversed,correct,0.5568274037751378,1,valid_win,687.2462098000105,73,,,,,,,,,,,,,,,,sub_515,2023-06-15_12h23.41.914,Reversal,2022.1.1,59.991097323206674,3,
8,exp1.png,exp2.png,,,,,,,,,,,,,,,,,,2,0,2,0,0,8,8,8,,,,,,,,,False,48,129,False,exp1.png,exp2.png,trial_right_image,-1,exp2.png,3,exp1.png,exp2.png,1,3,reversed,incorrect,0.461903050276151,0,valid_lose,691.077156299958,73,,,,,,,,,,,,,,,,sub_515,2023-06-15_12h23.41.914,Reversal,2022.1.1,59.991097323206674,3,
9,exp3.png,exp4.png,,,,,,,,,,,,,,,,,,2,0,2,0,0,9,9,9,,,,,,,,,False,49,130,False,exp3.png,exp4.png,trial_right_image,-1,exp4.png,3,exp4.png,exp3.png,1,1,non-reversed,correct,0.736298267579066,1,valid_win,694.8439589999616,74,,,,,,,,,,,,,,,,sub_515,2023-06-15_12h23.41.914,Reversal,2022.1.1,59.991097323206674,3,
10,exp1.png,exp2.png,,,,,,,,,,,,,,,,,,2,0,2,0,0,10,10,10,,,,,,,,,False,50,131,False,exp1.png,exp2.png,trial_right_image,-1,exp2.png,3,exp1.png,exp2.png,1,3,reversed,incorrect,0.45555265484324814,0,valid_lose,698.5289146000287,74,,,,,,,,,,,,,,,,sub_515,2023-06-15_12h23.41.914,Reversal,2022.1.1,59.991097323206674,3,
11,exp3.png,exp4.png,,,,,,,,,,,,,,,,,,2,0,2,0,0,11,11,11,,,,,,,,,False,51,132,False,exp3.png,exp4.png,trial_right_image,-1,exp4.png,3,exp4.png,exp3.png,1,1,non-reversed,correct,0.8336018123835106,1,valid_win,702.4921575000044,75,,,,,,,,,,,,,,,,sub_515,2023-06-15_12h23.41.914,Reversal,2022.1.1,59.991097323206674,3,
12,exp1.png,exp2.png,,,,,,,,,,,,,,,,,,2,0,2,0,0,12,12,12,,,,,,,,,False,52,133,True,exp2.png,exp1.png,trial_left_image,1,exp2.png,3,exp1.png,exp2.png,1,3,reversed,incorrect,0.2994808154334965,0,valid_lose,706.3797904999228,75,,,,,,,,,,,,,,,,sub_515,2023-06-15_12h23.41.914,Reversal,2022.1.1,59.991097323206674,3,
13,exp3.png,exp4.png,,,,,,,,,,,,,,,,,,2,0,2,0,0,13,13,13,,,,,,,,,False,53,134,True,exp4.png,exp3.png,trial_right_image,-1,exp3.png,3,exp4.png,exp3.png,0,2,non-reversed,incorrect,0.440898362291668,0,valid_lose,710.226353499922,75,,,,,,,,,,,,,,,,sub_515,2023-06-15_12h23.41.914,Reversal,2022.1.1,59.991097323206674,3,
14,exp1.png,exp2.png,,,,,,,,,,,,,,,,,,2,0,2,0,0,14,14,14,,,,,,,,,False,54,135,False,exp1.png,exp2.png,trial_right_image,-1,exp2.png,3,exp1.png,exp2.png,1,3,reversed,incorrect,0.7047464717971952,0,valid_lose,715.3094149000244,75,,,,,,,,,,,,,,,,sub_515,2023-06-15_12h23.41.914,Reversal,2022.1.1,59.991097323206674,3,
15,exp3.png,exp4.png,,,,,,,,,,,,,,,,,,2,0,2,0,0,15,15,15,,,,,,,,,False,55,136,False,exp3.png,exp4.png,trial_right_image,-1,exp4.png,3,exp4.png,exp3.png,1,1,non-reversed,correct,0.4124765480638407,1,valid_win,719.189930499997,76,,,,,,,,,,,,,,,,sub_515,2023-06-15_12h23.41.914,Reversal,2022.1.1,59.991097323206674,3,
16,exp1.png,exp2.png,,,,,,,,,,,,,,,,,,2,0,2,0,0,16,16,16,,,,,,,,,False,56,137,True,exp2.png,exp1.png,trial_left_image,1,exp2.png,3,exp1.png,exp2.png,1,3,reversed,incorrect,0.2792466871395384,0,valid_lose,723.5392056999262,76,,,,,,,,,,,,,,,,sub_515,2023-06-15_12h23.41.914,Reversal,2022.1.1,59.991097323206674,3,
17,exp3.png,exp4.png,,,,,,,,,,,,,,,,,,2,0,2,0,0,17,17,17,,,,,,,,,False,57,138,True,exp4.png,exp3.png,trial_right_image,-1,exp3.png,3,exp4.png,exp3.png,0,2,non-reversed,incorrect,0.5464671208921309,0,valid_lose,727.9388158000074,76,,,,,,,,,,,,,,,,sub_515,2023-06-15_12h23.41.914,Reversal,2022.1.1,59.991097323206674,3,
18,exp1.png,exp2.png,,,,,,,,,,,,,,,,,,2,0,2,0,0,18,18,18,,,,,,,,,False,58,139,False,exp1.png,exp2.png,trial_left_image,1,exp1.png,3,exp1.png,exp2.png,0,4,reversed,correct,0.967451544775861,1,valid_win,732.0063969999319,77,,,,,,,,,,,,,,,,sub_515,2023-06-15_12h23.41.914,Reversal,2022.1.1,59.991097323206674,3,
19,exp3.png,exp4.png,,,,,,,,,,,,,,,,,,2,0,2,0,0,19,19,19,,,,,,,,,False,59,140,True,exp4.png,exp3.png,trial_right_image,-1,exp3.png,3,exp4.png,exp3.png,0,2,non-reversed,incorrect,0.12109458243065241,1,invalid_win,736.5561863000039,78,,,,,,,,,,,,,,,,sub_515,2023-06-15_12h23.41.914,Reversal,2022.1.1,59.991097323206674,3,
20,exp1.png,exp2.png,,,,,,,,,,,,,,,,,,2,0,2,0,0,20,20,20,,,,,,,,,True,,,,,,,,,,,,,,,,,,,,,,,,,,,,,,,,,,,,sub_515,2023-06-15_12h23.41.914,Reversal,2022.1.1,59.991097323206674,3,
,,,exp1.png,,,,,,,,,,,,,,,,,2,0,2,0,,,,,0,0,0,0,0,0,0,0,,,,,,,,,,,,,,,,,,,,,,72.0,72.0,5.530192099977285,"[(72.0, 5.530192099977285)]",1447.72404250002,None,,,,,,,,,,sub_515,2023-06-15_12h23.41.914,Reversal,2022.1.1,59.991097323206674,3,
,,,exp2.png,,,,,,,,,,,,,,,,,2,0,2,0,,,,,0,0,0,0,0,1,1,1,,,,,,,,,,,,,,,,,,,,,,,1.0,2.072673999937251,"[(1.0, 2.072673999937251)]",1455.0741577999434,None,1.0,,,,,,,,,sub_515,2023-06-15_12h23.41.914,Reversal,2022.1.1,59.991097323206674,3,
,,,exp3.png,,,,,,,,,,,,,,,,,2,0,2,0,,,,,0,0,0,0,0,2,2,2,,,,,,,,,,,,,,,,,,,,,,,23.0,3.3755388000281528,"[(23.0, 3.3755388000281528)]",1458.8381088000024,None,,23.0,,,,,,,,sub_515,2023-06-15_12h23.41.914,Reversal,2022.1.1,59.991097323206674,3,
,,,exp4.png,,,,,,,,,,,,,,,,,2,0,2,0,,,,,0,0,0,0,0,3,3,3,,,,,,,,,,,,,,,,,,,,,,,1.0,3.421662100008689,"[(14.0, 1.5223393000196666), (1.0, 3.421662100008689)]",1462.957638300024,None,,,1.0,,,,,,,sub_515,2023-06-15_12h23.41.914,Reversal,2022.1.1,59.991097323206674,3,
,,,,,,,,,,,,,,,,,,,,,,,,,,,,,,,,,,,,,,,,,,,,,,,,,,,,,,,,78,,,,,,,,,,,76,52,24,302.21543019998353,1,,,,,,,
