trial_index,trial_image1_file,trial_image2_file,image_file,learning_outer_loop.thisRepN,learning_outer_loop.thisTrialN,learning_outer_loop.thisN,learning_outer_loop.thisIndex,learning_inner_loop.thisRepN,learning_inner_loop.thisTrialN,learning_inner_loop.thisN,learning_inner_loop.thisIndex,learning_estimation_outer_loop.thisRepN,learning_estimation_outer_loop.thisTrialN,learning_estimation_outer_loop.thisN,learning_estimation_outer_loop.thisIndex,learning_estimation_inner_loop.thisRepN,learning_estimation_inner_loop.thisTrialN,learning_estimation_inner_loop.thisN,learning_estimation_inner_loop.thisIndex,reversal_outer_loop.thisRepN,reversal_outer_loop.thisTrialN,reversal_outer_loop.thisN,reversal_outer_loop.thisIndex,reversal_inner_loop.thisRepN,reversal_inner_loop.thisTrialN,reversal_inner_loop.thisN,reversal_inner_loop.thisIndex,reversal_estimation_outer_loop.thisRepN,reversal_estimation_outer_loop.thisTrialN,reversal_estimation_outer_loop.thisN,reversal_estimation_outer_loop.thisIndex,reversal_estimation_inner_loop.thisRepN,reversal_estimation_inner_loop.thisTrialN,reversal_estimation_inner_loop.thisN,reversal_estimation_inner_loop.thisIndex,skipped,total_trial_counter,trial_num,left_right_flip,left_image_file,right_image_file,clicked_stimulus_side,side,clicked_stimulus,version,high_prob_image_file,low_prob_image_file,choice_a,choice_b,pair_type,correct,trial_feedback_random,reward,trial_type,overall_time_after_trial,score,estimation_rating.started,estimation_exp1.png,estimation_rating.response,estimation_rating.rt,estimation_rating.history,estimation_exp2.png,estimation_exp3.png,estimation_exp4.png,total_learning_time,total_correct,learning_correct,reversal_correct,total_reversal_time,extra_block,end_experiment.keys,end_experiment.rt,end_experiment.duration,participant,date,expName,psychopyVersion,frameRate,ver,
0,exp1.png,exp2.png,,0,0,0,0,0,0,0,0,,,,,,,,,,,,,,,,,,,,,,,,,True,,,,,,,,,,,,,,,,,,,,,,,,,,,,,,,,,,,,,,sub_926,2024-05-06_11h44.58.631,Reversal,2023.1.3,59.956962892113346,2,
1,exp3.png,exp4.png,,0,0,0,0,0,1,1,1,,,,,,,,,,,,,,,,,,,,,,,,,False,0,1,True,exp4.png,exp3.png,trial_left_image,1,exp4.png,2,exp3.png,exp4.png,0,4,reversed,incorrect,0.7482229175930049,0,valid_lose,6.379466399999728,0,,,,,,,,,,,,,,,,,,sub_926,2024-05-06_11h44.58.631,Reversal,2023.1.3,59.956962892113346,2,
2,exp1.png,exp2.png,,0,0,0,0,0,2,2,2,,,,,,,,,,,,,,,,,,,,,,,,,False,1,2,False,exp1.png,exp2.png,trial_left_image,1,exp1.png,2,exp1.png,exp2.png,1,1,non-reversed,correct,0.4086240513281547,1,valid_win,13.160906300000079,1,,,,,,,,,,,,,,,,,,sub_926,2024-05-06_11h44.58.631,Reversal,2023.1.3,59.956962892113346,2,
3,exp3.png,exp4.png,,0,0,0,0,0,3,3,3,,,,,,,,,,,,,,,,,,,,,,,,,False,2,3,False,exp3.png,exp4.png,trial_right_image,-1,exp4.png,2,exp3.png,exp4.png,0,4,reversed,incorrect,0.8562622758267565,0,valid_lose,18.042093799999748,1,,,,,,,,,,,,,,,,,,sub_926,2024-05-06_11h44.58.631,Reversal,2023.1.3,59.956962892113346,2,
4,exp1.png,exp2.png,,0,0,0,0,0,4,4,4,,,,,,,,,,,,,,,,,,,,,,,,,False,3,4,True,exp2.png,exp1.png,trial_right_image,-1,exp1.png,2,exp1.png,exp2.png,1,1,non-reversed,correct,0.6976675868660586,1,valid_win,24.440130699999827,2,,,,,,,,,,,,,,,,,,sub_926,2024-05-06_11h44.58.631,Reversal,2023.1.3,59.956962892113346,2,
5,exp3.png,exp4.png,,0,0,0,0,0,5,5,5,,,,,,,,,,,,,,,,,,,,,,,,,False,4,5,True,exp4.png,exp3.png,trial_right_image,-1,exp3.png,2,exp3.png,exp4.png,1,3,reversed,correct,0.0030134350274056976,0,invalid_lose,29.905410299999858,2,,,,,,,,,,,,,,,,,,sub_926,2024-05-06_11h44.58.631,Reversal,2023.1.3,59.956962892113346,2,
6,exp1.png,exp2.png,,0,0,0,0,0,6,6,6,,,,,,,,,,,,,,,,,,,,,,,,,False,5,6,False,exp1.png,exp2.png,trial_right_image,-1,exp2.png,2,exp1.png,exp2.png,0,2,non-reversed,incorrect,0.4568025362297671,0,valid_lose,37.93614579999985,2,,,,,,,,,,,,,,,,,,sub_926,2024-05-06_11h44.58.631,Reversal,2023.1.3,59.956962892113346,2,
7,exp3.png,exp4.png,,0,0,0,0,0,7,7,7,,,,,,,,,,,,,,,,,,,,,,,,,False,6,7,False,exp3.png,exp4.png,trial_right_image,-1,exp4.png,2,exp3.png,exp4.png,0,4,reversed,incorrect,0.2663759035153349,0,valid_lose,42.58401009999989,2,,,,,,,,,,,,,,,,,,sub_926,2024-05-06_11h44.58.631,Reversal,2023.1.3,59.956962892113346,2,
8,exp1.png,exp2.png,,0,0,0,0,0,8,8,8,,,,,,,,,,,,,,,,,,,,,,,,,False,7,8,True,exp2.png,exp1.png,trial_left_image,1,exp2.png,2,exp1.png,exp2.png,0,2,non-reversed,incorrect,0.37702822233495936,0,valid_lose,46.61594839999998,2,,,,,,,,,,,,,,,,,,sub_926,2024-05-06_11h44.58.631,Reversal,2023.1.3,59.956962892113346,2,
9,exp3.png,exp4.png,,0,0,0,0,0,9,9,9,,,,,,,,,,,,,,,,,,,,,,,,,False,8,9,True,exp4.png,exp3.png,trial_right_image,-1,exp3.png,2,exp3.png,exp4.png,1,3,reversed,correct,0.18147329093326459,0,invalid_lose,50.58173549999947,2,,,,,,,,,,,,,,,,,,sub_926,2024-05-06_11h44.58.631,Reversal,2023.1.3,59.956962892113346,2,
10,exp1.png,exp2.png,,0,0,0,0,0,10,10,10,,,,,,,,,,,,,,,,,,,,,,,,,False,9,10,True,exp2.png,exp1.png,trial_left_image,1,exp2.png,2,exp1.png,exp2.png,0,2,non-reversed,incorrect,0.9221044326638369,0,valid_lose,54.41326650000019,2,,,,,,,,,,,,,,,,,,sub_926,2024-05-06_11h44.58.631,Reversal,2023.1.3,59.956962892113346,2,
11,exp3.png,exp4.png,,0,0,0,0,0,11,11,11,,,,,,,,,,,,,,,,,,,,,,,,,False,10,11,True,exp4.png,exp3.png,trial_left_image,1,exp4.png,2,exp3.png,exp4.png,0,4,reversed,incorrect,0.45869481699123404,0,valid_lose,58.39539420000028,2,,,,,,,,,,,,,,,,,,sub_926,2024-05-06_11h44.58.631,Reversal,2023.1.3,59.956962892113346,2,
12,exp1.png,exp2.png,,0,0,0,0,0,12,12,12,,,,,,,,,,,,,,,,,,,,,,,,,False,11,12,False,exp1.png,exp2.png,trial_left_image,1,exp1.png,2,exp1.png,exp2.png,1,1,non-reversed,correct,0.577161936803057,1,valid_win,63.976797499999975,3,,,,,,,,,,,,,,,,,,sub_926,2024-05-06_11h44.58.631,Reversal,2023.1.3,59.956962892113346,2,
13,exp3.png,exp4.png,,0,0,0,0,0,13,13,13,,,,,,,,,,,,,,,,,,,,,,,,,False,12,13,False,exp3.png,exp4.png,trial_right_image,-1,exp4.png,2,exp3.png,exp4.png,0,4,reversed,incorrect,0.46125988827846387,0,valid_lose,68.49176169999964,3,,,,,,,,,,,,,,,,,,sub_926,2024-05-06_11h44.58.631,Reversal,2023.1.3,59.956962892113346,2,
14,exp1.png,exp2.png,,0,0,0,0,0,14,14,14,,,,,,,,,,,,,,,,,,,,,,,,,False,13,14,False,exp1.png,exp2.png,trial_left_image,1,exp1.png,2,exp1.png,exp2.png,1,1,non-reversed,correct,0.5749642248427551,1,valid_win,72.72385129999975,4,,,,,,,,,,,,,,,,,,sub_926,2024-05-06_11h44.58.631,Reversal,2023.1.3,59.956962892113346,2,
15,exp3.png,exp4.png,,0,0,0,0,0,15,15,15,,,,,,,,,,,,,,,,,,,,,,,,,False,14,15,True,exp4.png,exp3.png,trial_right_image,-1,exp3.png,2,exp3.png,exp4.png,1,3,reversed,correct,0.4029739187937781,1,valid_win,76.83914919999961,5,,,,,,,,,,,,,,,,,,sub_926,2024-05-06_11h44.58.631,Reversal,2023.1.3,59.956962892113346,2,
16,exp1.png,exp2.png,,0,0,0,0,0,16,16,16,,,,,,,,,,,,,,,,,,,,,,,,,False,15,16,True,exp2.png,exp1.png,trial_right_image,-1,exp1.png,2,exp1.png,exp2.png,1,1,non-reversed,correct,0.48646247269296417,1,valid_win,80.9045173999998,6,,,,,,,,,,,,,,,,,,sub_926,2024-05-06_11h44.58.631,Reversal,2023.1.3,59.956962892113346,2,
17,exp3.png,exp4.png,,0,0,0,0,0,17,17,17,,,,,,,,,,,,,,,,,,,,,,,,,False,16,17,False,exp3.png,exp4.png,trial_left_image,1,exp3.png,2,exp3.png,exp4.png,1,3,reversed,correct,0.3301236327502741,1,valid_win,85.3196069999999,7,,,,,,,,,,,,,,,,,,sub_926,2024-05-06_11h44.58.631,Reversal,2023.1.3,59.956962892113346,2,
18,exp1.png,exp2.png,,0,0,0,0,0,18,18,18,,,,,,,,,,,,,,,,,,,,,,,,,False,17,18,True,exp2.png,exp1.png,trial_right_image,-1,exp1.png,2,exp1.png,exp2.png,1,1,non-reversed,correct,0.6558449127930763,1,valid_win,89.4347302000001,8,,,,,,,,,,,,,,,,,,sub_926,2024-05-06_11h44.58.631,Reversal,2023.1.3,59.956962892113346,2,
19,exp3.png,exp4.png,,0,0,0,0,0,19,19,19,,,,,,,,,,,,,,,,,,,,,,,,,False,18,19,False,exp3.png,exp4.png,trial_left_image,1,exp3.png,2,exp3.png,exp4.png,1,3,reversed,correct,0.30741736082895443,1,valid_win,93.51717679999956,9,,,,,,,,,,,,,,,,,,sub_926,2024-05-06_11h44.58.631,Reversal,2023.1.3,59.956962892113346,2,
20,exp1.png,exp2.png,,0,0,0,0,0,20,20,20,,,,,,,,,,,,,,,,,,,,,,,,,False,19,20,False,exp1.png,exp2.png,trial_left_image,1,exp1.png,2,exp1.png,exp2.png,1,1,non-reversed,correct,0.8724892180244297,1,valid_win,97.55179399999952,10,,,,,,,,,,,,,,,,,,sub_926,2024-05-06_11h44.58.631,Reversal,2023.1.3,59.956962892113346,2,
,,,exp1.png,0,0,0,0,,,,,0,0,0,0,0,0,0,0,,,,,,,,,,,,,,,,,,,,,,,,,,,,,,,,,,,,,,169.61899649999987,100.0,100.0,4.930193000000145,"[(100.0, 4.930193000000145)]",,,,,,,,,,,,,sub_926,2024-05-06_11h44.58.631,Reversal,2023.1.3,59.956962892113346,2,
,,,exp2.png,0,0,0,0,,,,,0,0,0,0,0,1,1,1,,,,,,,,,,,,,,,,,,,,,,,,,,,,,,,,,,,,,,176.94912780000004,,1.0,2.8086167999999816,"[(1.0, 2.8086167999999816)]",1.0,,,,,,,,,,,,sub_926,2024-05-06_11h44.58.631,Reversal,2023.1.3,59.956962892113346,2,
,,,exp3.png,0,0,0,0,,,,,0,0,0,0,0,2,2,2,,,,,,,,,,,,,,,,,,,,,,,,,,,,,,,,,,,,,,181.0789963000002,,100.0,2.627195699999902,"[(100.0, 2.627195699999902)]",,100.0,,,,,,,,,,,sub_926,2024-05-06_11h44.58.631,Reversal,2023.1.3,59.956962892113346,2,
,,,exp4.png,0,0,0,0,,,,,0,0,0,0,0,3,3,3,,,,,,,,,,,,,,,,,,,,,,,,,,,,,,,,,,,,,,185.5946057999995,,1.0,2.292609199999788,"[(1.0, 2.292609199999788)]",,,1.0,,,,,,,,,,sub_926,2024-05-06_11h44.58.631,Reversal,2023.1.3,59.956962892113346,2,
0,exp1.png,exp2.png,,1,0,1,0,0,0,0,0,,,,,,,,,,,,,,,,,,,,,,,,,True,,,,,,,,,,,,,,,,,,,,,,,,,,,,,,,,,,,,,,sub_926,2024-05-06_11h44.58.631,Reversal,2023.1.3,59.956962892113346,2,
1,exp3.png,exp4.png,,1,0,1,0,0,1,1,1,,,,,,,,,,,,,,,,,,,,,,,,,False,20,21,True,exp4.png,exp3.png,trial_right_image,-1,exp3.png,2,exp3.png,exp4.png,1,3,reversed,correct,0.687853692088247,1,valid_win,122.3570778999997,11,,,,,,,,,,,,,,,,,,sub_926,2024-05-06_11h44.58.631,Reversal,2023.1.3,59.956962892113346,2,
2,exp1.png,exp2.png,,1,0,1,0,0,2,2,2,,,,,,,,,,,,,,,,,,,,,,,,,False,21,22,True,exp2.png,exp1.png,trial_right_image,-1,exp1.png,2,exp1.png,exp2.png,1,1,non-reversed,correct,0.5976879279073799,1,valid_win,126.58928220000007,12,,,,,,,,,,,,,,,,,,sub_926,2024-05-06_11h44.58.631,Reversal,2023.1.3,59.956962892113346,2,
3,exp3.png,exp4.png,,1,0,1,0,0,3,3,3,,,,,,,,,,,,,,,,,,,,,,,,,False,22,23,False,exp3.png,exp4.png,trial_left_image,1,exp3.png,2,exp3.png,exp4.png,1,3,reversed,correct,0.9871747918068995,1,valid_win,130.98733500000026,13,,,,,,,,,,,,,,,,,,sub_926,2024-05-06_11h44.58.631,Reversal,2023.1.3,59.956962892113346,2,
4,exp1.png,exp2.png,,1,0,1,0,0,4,4,4,,,,,,,,,,,,,,,,,,,,,,,,,False,23,24,True,exp2.png,exp1.png,trial_right_image,-1,exp1.png,2,exp1.png,exp2.png,1,1,non-reversed,correct,0.4991496137112226,1,valid_win,135.2527441999996,14,,,,,,,,,,,,,,,,,,sub_926,2024-05-06_11h44.58.631,Reversal,2023.1.3,59.956962892113346,2,
5,exp3.png,exp4.png,,1,0,1,0,0,5,5,5,,,,,,,,,,,,,,,,,,,,,,,,,False,24,25,True,exp4.png,exp3.png,trial_right_image,-1,exp3.png,2,exp3.png,exp4.png,1,3,reversed,correct,0.26198380553878875,1,valid_win,139.45134559999997,15,,,,,,,,,,,,,,,,,,sub_926,2024-05-06_11h44.58.631,Reversal,2023.1.3,59.956962892113346,2,
6,exp1.png,exp2.png,,1,0,1,0,0,6,6,6,,,,,,,,,,,,,,,,,,,,,,,,,False,25,26,False,exp1.png,exp2.png,trial_left_image,1,exp1.png,2,exp1.png,exp2.png,1,1,non-reversed,correct,0.9862915033717609,1,valid_win,143.6498461999995,16,,,,,,,,,,,,,,,,,,sub_926,2024-05-06_11h44.58.631,Reversal,2023.1.3,59.956962892113346,2,
7,exp3.png,exp4.png,,1,0,1,0,0,7,7,7,,,,,,,,,,,,,,,,,,,,,,,,,False,26,27,False,exp3.png,exp4.png,trial_left_image,1,exp3.png,2,exp3.png,exp4.png,1,3,reversed,correct,0.9861707892939598,1,valid_win,147.632204,17,,,,,,,,,,,,,,,,,,sub_926,2024-05-06_11h44.58.631,Reversal,2023.1.3,59.956962892113346,2,
8,exp1.png,exp2.png,,1,0,1,0,0,8,8,8,,,,,,,,,,,,,,,,,,,,,,,,,False,27,28,True,exp2.png,exp1.png,trial_right_image,-1,exp1.png,2,exp1.png,exp2.png,1,1,non-reversed,correct,0.9377249344920602,1,valid_win,151.84747709999965,18,,,,,,,,,,,,,,,,,,sub_926,2024-05-06_11h44.58.631,Reversal,2023.1.3,59.956962892113346,2,
9,exp3.png,exp4.png,,1,0,1,0,0,9,9,9,,,,,,,,,,,,,,,,,,,,,,,,,False,28,29,False,exp3.png,exp4.png,trial_left_image,1,exp3.png,2,exp3.png,exp4.png,1,3,reversed,correct,0.31470758989617587,1,valid_win,156.2621667999997,19,,,,,,,,,,,,,,,,,,sub_926,2024-05-06_11h44.58.631,Reversal,2023.1.3,59.956962892113346,2,
10,exp1.png,exp2.png,,1,0,1,0,0,10,10,10,,,,,,,,,,,,,,,,,,,,,,,,,False,29,30,False,exp1.png,exp2.png,trial_left_image,1,exp1.png,2,exp1.png,exp2.png,1,1,non-reversed,correct,0.5830493812139963,1,valid_win,160.34403909999992,20,,,,,,,,,,,,,,,,,,sub_926,2024-05-06_11h44.58.631,Reversal,2023.1.3,59.956962892113346,2,
11,exp3.png,exp4.png,,1,0,1,0,0,11,11,11,,,,,,,,,,,,,,,,,,,,,,,,,False,30,31,False,exp3.png,exp4.png,trial_left_image,1,exp3.png,2,exp3.png,exp4.png,1,3,reversed,correct,0.23256077536838282,0,invalid_lose,164.65951989999985,20,,,,,,,,,,,,,,,,,,sub_926,2024-05-06_11h44.58.631,Reversal,2023.1.3,59.956962892113346,2,
12,exp1.png,exp2.png,,1,0,1,0,0,12,12,12,,,,,,,,,,,,,,,,,,,,,,,,,False,31,32,True,exp2.png,exp1.png,trial_right_image,-1,exp1.png,2,exp1.png,exp2.png,1,1,non-reversed,correct,0.33512082553420885,1,valid_win,168.87478109999984,21,,,,,,,,,,,,,,,,,,sub_926,2024-05-06_11h44.58.631,Reversal,2023.1.3,59.956962892113346,2,
13,exp3.png,exp4.png,,1,0,1,0,0,13,13,13,,,,,,,,,,,,,,,,,,,,,,,,,False,32,33,True,exp4.png,exp3.png,trial_right_image,-1,exp3.png,2,exp3.png,exp4.png,1,3,reversed,correct,0.5874331166369113,1,valid_win,173.42320139999947,22,,,,,,,,,,,,,,,,,,sub_926,2024-05-06_11h44.58.631,Reversal,2023.1.3,59.956962892113346,2,
14,exp1.png,exp2.png,,1,0,1,0,0,14,14,14,,,,,,,,,,,,,,,,,,,,,,,,,False,33,34,False,exp1.png,exp2.png,trial_left_image,1,exp1.png,2,exp1.png,exp2.png,1,1,non-reversed,correct,0.8606867788587241,1,valid_win,177.8048917000001,23,,,,,,,,,,,,,,,,,,sub_926,2024-05-06_11h44.58.631,Reversal,2023.1.3,59.956962892113346,2,
15,exp3.png,exp4.png,,1,0,1,0,0,15,15,15,,,,,,,,,,,,,,,,,,,,,,,,,False,34,35,True,exp4.png,exp3.png,trial_right_image,-1,exp3.png,2,exp3.png,exp4.png,1,3,reversed,correct,0.22423459617651975,0,invalid_lose,182.0702110999996,23,,,,,,,,,,,,,,,,,,sub_926,2024-05-06_11h44.58.631,Reversal,2023.1.3,59.956962892113346,2,
16,exp1.png,exp2.png,,1,0,1,0,0,16,16,16,,,,,,,,,,,,,,,,,,,,,,,,,False,35,36,False,exp1.png,exp2.png,trial_left_image,1,exp1.png,2,exp1.png,exp2.png,1,1,non-reversed,correct,0.332268952037862,1,valid_win,186.3689042000001,24,,,,,,,,,,,,,,,,,,sub_926,2024-05-06_11h44.58.631,Reversal,2023.1.3,59.956962892113346,2,
17,exp3.png,exp4.png,,1,0,1,0,0,17,17,17,,,,,,,,,,,,,,,,,,,,,,,,,False,36,37,False,exp3.png,exp4.png,trial_right_image,-1,exp4.png,2,exp3.png,exp4.png,0,4,reversed,incorrect,0.17512893930133944,1,invalid_win,190.9007660000002,25,,,,,,,,,,,,,,,,,,sub_926,2024-05-06_11h44.58.631,Reversal,2023.1.3,59.956962892113346,2,
18,exp1.png,exp2.png,,1,0,1,0,0,18,18,18,,,,,,,,,,,,,,,,,,,,,,,,,False,37,38,True,exp2.png,exp1.png,trial_right_image,-1,exp1.png,2,exp1.png,exp2.png,1,1,non-reversed,correct,0.027386346782242943,0,invalid_lose,195.43215839999948,25,,,,,,,,,,,,,,,,,,sub_926,2024-05-06_11h44.58.631,Reversal,2023.1.3,59.956962892113346,2,
19,exp3.png,exp4.png,,1,0,1,0,0,19,19,19,,,,,,,,,,,,,,,,,,,,,,,,,False,38,39,True,exp4.png,exp3.png,trial_left_image,1,exp4.png,2,exp3.png,exp4.png,0,4,reversed,incorrect,0.4803669182724607,0,valid_lose,199.83086330000015,25,,,,,,,,,,,,,,,,,,sub_926,2024-05-06_11h44.58.631,Reversal,2023.1.3,59.956962892113346,2,
20,exp1.png,exp2.png,,1,0,1,0,0,20,20,20,,,,,,,,,,,,,,,,,,,,,,,,,False,39,40,False,exp1.png,exp2.png,trial_left_image,1,exp1.png,2,exp1.png,exp2.png,1,1,non-reversed,correct,0.8034752423754083,1,valid_win,204.56249929999967,26,,,,,,,,,,,,,,,,,,sub_926,2024-05-06_11h44.58.631,Reversal,2023.1.3,59.956962892113346,2,
,,,exp1.png,1,0,1,0,,,,,0,0,0,0,0,0,0,0,,,,,,,,,,,,,,,,,,,,,,,,,,,,,,,,,,,,,,276.5830513999995,100.0,100.0,3.826748399999815,"[(100.0, 3.826748399999815)]",,,,,,,,,,,,,sub_926,2024-05-06_11h44.58.631,Reversal,2023.1.3,59.956962892113346,2,
,,,exp2.png,1,0,1,0,,,,,0,0,0,0,0,1,1,1,,,,,,,,,,,,,,,,,,,,,,,,,,,,,,,,,,,,,,281.4960765000001,,1.0,2.761512699999912,"[(1.0, 2.761512699999912)]",1.0,,,,,,,,,,,,sub_926,2024-05-06_11h44.58.631,Reversal,2023.1.3,59.956962892113346,2,
,,,exp3.png,1,0,1,0,,,,,0,0,0,0,0,2,2,2,,,,,,,,,,,,,,,,,,,,,,,,,,,,,,,,,,,,,,285.5600965999997,,92.0,3.493719100000817,"[(92.0, 3.493719100000817)]",,92.0,,,,,,,,,,,sub_926,2024-05-06_11h44.58.631,Reversal,2023.1.3,59.956962892113346,2,
,,,exp4.png,1,0,1,0,,,,,0,0,0,0,0,3,3,3,,,,,,,,,,,,,,,,,,,,,,,,,,,,,,,,,,,,,,290.4245096999998,,7.0,2.443663899999592,"[(7.0, 2.443663899999592)]",,,7.0,,,,,,,,,,sub_926,2024-05-06_11h44.58.631,Reversal,2023.1.3,59.956962892113346,2,
0,exp1.png,exp2.png,,2,0,2,0,0,0,0,0,,,,,,,,,,,,,,,,,,,,,,,,,True,,,,,,,,,,,,,,,,,,,,,,,,,,,,,,,,,,,,,,sub_926,2024-05-06_11h44.58.631,Reversal,2023.1.3,59.956962892113346,2,
1,exp3.png,exp4.png,,2,0,2,0,0,1,1,1,,,,,,,,,,,,,,,,,,,,,,,,,False,40,41,False,exp3.png,exp4.png,trial_left_image,1,exp3.png,2,exp3.png,exp4.png,1,3,reversed,correct,0.03756041594895798,0,invalid_lose,228.0211672999999,26,,,,,,,,,,,,,,,,,,sub_926,2024-05-06_11h44.58.631,Reversal,2023.1.3,59.956962892113346,2,
2,exp1.png,exp2.png,,2,0,2,0,0,2,2,2,,,,,,,,,,,,,,,,,,,,,,,,,False,41,42,True,exp2.png,exp1.png,trial_right_image,-1,exp1.png,2,exp1.png,exp2.png,1,1,non-reversed,correct,0.41922379459060954,1,valid_win,232.58644400000003,27,,,,,,,,,,,,,,,,,,sub_926,2024-05-06_11h44.58.631,Reversal,2023.1.3,59.956962892113346,2,
3,exp3.png,exp4.png,,2,0,2,0,0,3,3,3,,,,,,,,,,,,,,,,,,,,,,,,,False,42,43,True,exp4.png,exp3.png,trial_left_image,1,exp4.png,2,exp3.png,exp4.png,0,4,reversed,incorrect,0.2239779736942018,1,invalid_win,236.7015682999995,28,,,,,,,,,,,,,,,,,,sub_926,2024-05-06_11h44.58.631,Reversal,2023.1.3,59.956962892113346,2,
4,exp1.png,exp2.png,,2,0,2,0,0,4,4,4,,,,,,,,,,,,,,,,,,,,,,,,,False,43,44,False,exp1.png,exp2.png,trial_left_image,1,exp1.png,2,exp1.png,exp2.png,1,1,non-reversed,correct,0.3357824516866905,1,valid_win,241.0171193000001,29,,,,,,,,,,,,,,,,,,sub_926,2024-05-06_11h44.58.631,Reversal,2023.1.3,59.956962892113346,2,
5,exp3.png,exp4.png,,2,0,2,0,0,5,5,5,,,,,,,,,,,,,,,,,,,,,,,,,False,44,45,True,exp4.png,exp3.png,trial_left_image,1,exp4.png,2,exp3.png,exp4.png,0,4,reversed,incorrect,0.4664554617403994,0,valid_lose,245.46554700000024,29,,,,,,,,,,,,,,,,,,sub_926,2024-05-06_11h44.58.631,Reversal,2023.1.3,59.956962892113346,2,
6,exp1.png,exp2.png,,2,0,2,0,0,6,6,6,,,,,,,,,,,,,,,,,,,,,,,,,False,45,46,False,exp1.png,exp2.png,trial_left_image,1,exp1.png,2,exp1.png,exp2.png,1,1,non-reversed,correct,0.168254313198562,0,invalid_lose,249.69734599999947,29,,,,,,,,,,,,,,,,,,sub_926,2024-05-06_11h44.58.631,Reversal,2023.1.3,59.956962892113346,2,
7,exp3.png,exp4.png,,2,0,2,0,0,7,7,7,,,,,,,,,,,,,,,,,,,,,,,,,False,46,47,True,exp4.png,exp3.png,trial_right_image,-1,exp3.png,2,exp3.png,exp4.png,1,3,reversed,correct,0.7777554266836496,1,valid_win,254.07900589999963,30,,,,,,,,,,,,,,,,,,sub_926,2024-05-06_11h44.58.631,Reversal,2023.1.3,59.956962892113346,2,
8,exp1.png,exp2.png,,2,0,2,0,0,8,8,8,,,,,,,,,,,,,,,,,,,,,,,,,False,47,48,True,exp2.png,exp1.png,trial_right_image,-1,exp1.png,2,exp1.png,exp2.png,1,1,non-reversed,correct,0.4437882868756736,1,valid_win,258.5608707999995,31,,,,,,,,,,,,,,,,,,sub_926,2024-05-06_11h44.58.631,Reversal,2023.1.3,59.956962892113346,2,
9,exp3.png,exp4.png,,2,0,2,0,0,9,9,9,,,,,,,,,,,,,,,,,,,,,,,,,False,48,49,False,exp3.png,exp4.png,trial_right_image,-1,exp4.png,2,exp3.png,exp4.png,0,4,reversed,incorrect,0.4193098592827027,0,valid_lose,262.6766467000002,31,,,,,,,,,,,,,,,,,,sub_926,2024-05-06_11h44.58.631,Reversal,2023.1.3,59.956962892113346,2,
10,exp1.png,exp2.png,,2,0,2,0,0,10,10,10,,,,,,,,,,,,,,,,,,,,,,,,,False,49,50,False,exp1.png,exp2.png,trial_left_image,1,exp1.png,2,exp1.png,exp2.png,1,1,non-reversed,correct,0.6307596444985654,1,valid_win,267.15827469999977,32,,,,,,,,,,,,,,,,,,sub_926,2024-05-06_11h44.58.631,Reversal,2023.1.3,59.956962892113346,2,
11,exp3.png,exp4.png,,2,0,2,0,0,11,11,11,,,,,,,,,,,,,,,,,,,,,,,,,False,50,51,False,exp3.png,exp4.png,trial_left_image,1,exp3.png,2,exp3.png,exp4.png,1,3,reversed,correct,0.9719616482905963,1,valid_win,272.02317399999947,33,,,,,,,,,,,,,,,,,,sub_926,2024-05-06_11h44.58.631,Reversal,2023.1.3,59.956962892113346,2,
12,exp1.png,exp2.png,,2,0,2,0,0,12,12,12,,,,,,,,,,,,,,,,,,,,,,,,,False,51,52,True,exp2.png,exp1.png,trial_right_image,-1,exp1.png,2,exp1.png,exp2.png,1,1,non-reversed,correct,0.24521022933581726,0,invalid_lose,276.35487460000013,33,,,,,,,,,,,,,,,,,,sub_926,2024-05-06_11h44.58.631,Reversal,2023.1.3,59.956962892113346,2,
13,exp3.png,exp4.png,,2,0,2,0,0,13,13,13,,,,,,,,,,,,,,,,,,,,,,,,,False,52,53,False,exp3.png,exp4.png,trial_right_image,-1,exp4.png,2,exp3.png,exp4.png,0,4,reversed,incorrect,0.7554592170810251,0,valid_lose,280.8035574999999,33,,,,,,,,,,,,,,,,,,sub_926,2024-05-06_11h44.58.631,Reversal,2023.1.3,59.956962892113346,2,
14,exp1.png,exp2.png,,2,0,2,0,0,14,14,14,,,,,,,,,,,,,,,,,,,,,,,,,False,53,54,True,exp2.png,exp1.png,trial_right_image,-1,exp1.png,2,exp1.png,exp2.png,1,1,non-reversed,correct,0.975250909391832,1,valid_win,285.1519566000002,34,,,,,,,,,,,,,,,,,,sub_926,2024-05-06_11h44.58.631,Reversal,2023.1.3,59.956962892113346,2,
15,exp3.png,exp4.png,,2,0,2,0,0,15,15,15,,,,,,,,,,,,,,,,,,,,,,,,,False,54,55,True,exp4.png,exp3.png,trial_right_image,-1,exp3.png,2,exp3.png,exp4.png,1,3,reversed,correct,0.9104225361228416,1,valid_win,289.5510258999998,35,,,,,,,,,,,,,,,,,,sub_926,2024-05-06_11h44.58.631,Reversal,2023.1.3,59.956962892113346,2,
16,exp1.png,exp2.png,,2,0,2,0,0,16,16,16,,,,,,,,,,,,,,,,,,,,,,,,,False,55,56,False,exp1.png,exp2.png,trial_left_image,1,exp1.png,2,exp1.png,exp2.png,1,1,non-reversed,correct,0.23993064855302904,0,invalid_lose,293.8657275999999,35,,,,,,,,,,,,,,,,,,sub_926,2024-05-06_11h44.58.631,Reversal,2023.1.3,59.956962892113346,2,
17,exp3.png,exp4.png,,2,0,2,0,0,17,17,17,,,,,,,,,,,,,,,,,,,,,,,,,False,56,57,False,exp3.png,exp4.png,trial_left_image,1,exp3.png,2,exp3.png,exp4.png,1,3,reversed,correct,0.6105829788786532,1,valid_win,298.23079180000013,36,,,,,,,,,,,,,,,,,,sub_926,2024-05-06_11h44.58.631,Reversal,2023.1.3,59.956962892113346,2,
18,exp1.png,exp2.png,,2,0,2,0,0,18,18,18,,,,,,,,,,,,,,,,,,,,,,,,,False,57,58,True,exp2.png,exp1.png,trial_right_image,-1,exp1.png,2,exp1.png,exp2.png,1,1,non-reversed,correct,0.5631999520812518,1,valid_win,302.5794453000003,37,,,,,,,,,,,,,,,,,,sub_926,2024-05-06_11h44.58.631,Reversal,2023.1.3,59.956962892113346,2,
19,exp3.png,exp4.png,,2,0,2,0,0,19,19,19,,,,,,,,,,,,,,,,,,,,,,,,,False,58,59,True,exp4.png,exp3.png,trial_right_image,-1,exp3.png,2,exp3.png,exp4.png,1,3,reversed,correct,0.8120852619113501,1,valid_win,307.4777917999995,38,,,,,,,,,,,,,,,,,,sub_926,2024-05-06_11h44.58.631,Reversal,2023.1.3,59.956962892113346,2,
20,exp1.png,exp2.png,,2,0,2,0,0,20,20,20,,,,,,,,,,,,,,,,,,,,,,,,,False,59,60,False,exp1.png,exp2.png,trial_left_image,1,exp1.png,2,exp1.png,exp2.png,1,1,non-reversed,correct,0.7341322934791443,1,valid_win,311.6266125999996,39,,,,,,,,,,,,,,,,,,sub_926,2024-05-06_11h44.58.631,Reversal,2023.1.3,59.956962892113346,2,
,,,exp1.png,2,0,2,0,,,,,0,0,0,0,0,0,0,0,,,,,,,,,,,,,,,,,,,,,,,,,,,,,,,,,,,,,,383.64601410000023,93.0,93.0,5.041234700000132,"[(93.0, 5.041234700000132)]",,,,,,,,,,,,,sub_926,2024-05-06_11h44.58.631,Reversal,2023.1.3,59.956962892113346,2,
,,,exp2.png,2,0,2,0,,,,,0,0,0,0,0,1,1,1,,,,,,,,,,,,,,,,,,,,,,,,,,,,,,,,,,,,,,390.19144749999987,,8.0,1.7780703999997058,"[(8.0, 1.7780703999997058)]",8.0,,,,,,,,,,,,sub_926,2024-05-06_11h44.58.631,Reversal,2023.1.3,59.956962892113346,2,
,,,exp3.png,2,0,2,0,,,,,0,0,0,0,0,2,2,2,,,,,,,,,,,,,,,,,,,,,,,,,,,,,,,,,,,,,,393.2248491999994,,77.0,2.26134970000021,"[(77.0, 2.26134970000021)]",,77.0,,,,,,,,,,,sub_926,2024-05-06_11h44.58.631,Reversal,2023.1.3,59.956962892113346,2,
,,,exp4.png,2,0,2,0,,,,,0,0,0,0,0,3,3,3,,,,,,,,,,,,,,,,,,,,,,,,,,,,,,,,,,,,,,396.80544280000004,,25.0,2.1261928000003536,"[(25.0, 2.1261928000003536)]",,,25.0,,,,,,,,,,sub_926,2024-05-06_11h44.58.631,Reversal,2023.1.3,59.956962892113346,2,
0,exp1.png,exp2.png,,3,0,3,0,0,0,0,0,,,,,,,,,,,,,,,,,,,,,,,,,True,,,,,,,,,,,,,,,,,,,,,,,,,,,,,,,,,,,,,,sub_926,2024-05-06_11h44.58.631,Reversal,2023.1.3,59.956962892113346,2,
1,exp3.png,exp4.png,,3,0,3,0,0,1,1,1,,,,,,,,,,,,,,,,,,,,,,,,,False,60,61,True,exp4.png,exp3.png,trial_right_image,-1,exp3.png,2,exp3.png,exp4.png,1,3,reversed,correct,0.8179311292483091,1,valid_win,334.2525085000002,40,,,,,,,,,,,,,,,,,,sub_926,2024-05-06_11h44.58.631,Reversal,2023.1.3,59.956962892113346,2,
2,exp1.png,exp2.png,,3,0,3,0,0,2,2,2,,,,,,,,,,,,,,,,,,,,,,,,,False,61,62,False,exp1.png,exp2.png,trial_left_image,1,exp1.png,2,exp1.png,exp2.png,1,1,non-reversed,correct,0.5428171026000133,1,valid_win,338.6540835999999,41,,,,,,,,,,,,,,,,,,sub_926,2024-05-06_11h44.58.631,Reversal,2023.1.3,59.956962892113346,2,
3,exp3.png,exp4.png,,3,0,3,0,0,3,3,3,,,,,,,,,,,,,,,,,,,,,,,,,False,62,63,False,exp3.png,exp4.png,trial_left_image,1,exp3.png,2,exp3.png,exp4.png,1,3,reversed,correct,0.8959845604058904,1,valid_win,343.0322060000003,42,,,,,,,,,,,,,,,,,,sub_926,2024-05-06_11h44.58.631,Reversal,2023.1.3,59.956962892113346,2,
4,exp1.png,exp2.png,,3,0,3,0,0,4,4,4,,,,,,,,,,,,,,,,,,,,,,,,,False,63,64,False,exp1.png,exp2.png,trial_left_image,1,exp1.png,2,exp1.png,exp2.png,1,1,non-reversed,correct,0.4151227374887422,1,valid_win,347.1977337000003,43,,,,,,,,,,,,,,,,,,sub_926,2024-05-06_11h44.58.631,Reversal,2023.1.3,59.956962892113346,2,
5,exp3.png,exp4.png,,3,0,3,0,0,5,5,5,,,,,,,,,,,,,,,,,,,,,,,,,False,64,65,True,exp4.png,exp3.png,trial_left_image,1,exp4.png,2,exp3.png,exp4.png,0,4,reversed,incorrect,0.4543588406867324,0,valid_lose,351.3296196999995,43,,,,,,,,,,,,,,,,,,sub_926,2024-05-06_11h44.58.631,Reversal,2023.1.3,59.956962892113346,2,
6,exp1.png,exp2.png,,3,0,3,0,0,6,6,6,,,,,,,,,,,,,,,,,,,,,,,,,False,65,66,True,exp2.png,exp1.png,trial_right_image,-1,exp1.png,2,exp1.png,exp2.png,1,1,non-reversed,correct,0.3600372914928742,1,valid_win,355.4616971999999,44,,,,,,,,,,,,,,,,,,sub_926,2024-05-06_11h44.58.631,Reversal,2023.1.3,59.956962892113346,2,
7,exp3.png,exp4.png,,3,0,3,0,0,7,7,7,,,,,,,,,,,,,,,,,,,,,,,,,False,66,67,True,exp4.png,exp3.png,trial_right_image,-1,exp3.png,2,exp3.png,exp4.png,1,3,reversed,correct,0.3546886400793202,1,valid_win,359.49352210000006,45,,,,,,,,,,,,,,,,,,sub_926,2024-05-06_11h44.58.631,Reversal,2023.1.3,59.956962892113346,2,
8,exp1.png,exp2.png,,3,0,3,0,0,8,8,8,,,,,,,,,,,,,,,,,,,,,,,,,False,67,68,False,exp1.png,exp2.png,trial_left_image,1,exp1.png,2,exp1.png,exp2.png,1,1,non-reversed,correct,0.5501278509725249,1,valid_win,363.5758705000003,46,,,,,,,,,,,,,,,,,,sub_926,2024-05-06_11h44.58.631,Reversal,2023.1.3,59.956962892113346,2,
9,exp3.png,exp4.png,,3,0,3,0,0,9,9,9,,,,,,,,,,,,,,,,,,,,,,,,,False,68,69,False,exp3.png,exp4.png,trial_left_image,1,exp3.png,2,exp3.png,exp4.png,1,3,reversed,correct,0.7070102965004359,1,valid_win,367.6075245999996,47,,,,,,,,,,,,,,,,,,sub_926,2024-05-06_11h44.58.631,Reversal,2023.1.3,59.956962892113346,2,
10,exp1.png,exp2.png,,3,0,3,0,0,10,10,10,,,,,,,,,,,,,,,,,,,,,,,,,False,69,70,False,exp1.png,exp2.png,trial_left_image,1,exp1.png,2,exp1.png,exp2.png,1,1,non-reversed,correct,0.7767212723830913,1,valid_win,371.67322879999983,48,,,,,,,,,,,,,,,,,,sub_926,2024-05-06_11h44.58.631,Reversal,2023.1.3,59.956962892113346,2,
11,exp3.png,exp4.png,,3,0,3,0,0,11,11,11,,,,,,,,,,,,,,,,,,,,,,,,,False,70,71,False,exp3.png,exp4.png,trial_left_image,1,exp3.png,2,exp3.png,exp4.png,1,3,reversed,correct,0.4018121894213931,1,valid_win,375.6879323999997,49,,,,,,,,,,,,,,,,,,sub_926,2024-05-06_11h44.58.631,Reversal,2023.1.3,59.956962892113346,2,
12,exp1.png,exp2.png,,3,0,3,0,0,12,12,12,,,,,,,,,,,,,,,,,,,,,,,,,False,71,72,True,exp2.png,exp1.png,trial_right_image,-1,exp1.png,2,exp1.png,exp2.png,1,1,non-reversed,correct,0.16189392826770865,0,invalid_lose,379.8700582999995,49,,,,,,,,,,,,,,,,,,sub_926,2024-05-06_11h44.58.631,Reversal,2023.1.3,59.956962892113346,2,
13,exp3.png,exp4.png,,3,0,3,0,0,13,13,13,,,,,,,,,,,,,,,,,,,,,,,,,False,72,73,False,exp3.png,exp4.png,trial_left_image,1,exp3.png,2,exp3.png,exp4.png,1,3,reversed,correct,0.01597015857609141,0,invalid_lose,384.6850935999996,49,,,,,,,,,,,,,,,,,,sub_926,2024-05-06_11h44.58.631,Reversal,2023.1.3,59.956962892113346,2,
14,exp1.png,exp2.png,,3,0,3,0,0,14,14,14,,,,,,,,,,,,,,,,,,,,,,,,,False,73,74,True,exp2.png,exp1.png,trial_right_image,-1,exp1.png,2,exp1.png,exp2.png,1,1,non-reversed,correct,0.8218056393093223,1,valid_win,388.76684199999954,50,,,,,,,,,,,,,,,,,,sub_926,2024-05-06_11h44.58.631,Reversal,2023.1.3,59.956962892113346,2,
15,exp3.png,exp4.png,,3,0,3,0,0,15,15,15,,,,,,,,,,,,,,,,,,,,,,,,,False,74,75,True,exp4.png,exp3.png,trial_right_image,-1,exp3.png,2,exp3.png,exp4.png,1,3,reversed,correct,0.1475466466642571,0,invalid_lose,392.88218149999966,50,,,,,,,,,,,,,,,,,,sub_926,2024-05-06_11h44.58.631,Reversal,2023.1.3,59.956962892113346,2,
16,exp1.png,exp2.png,,3,0,3,0,0,16,16,16,,,,,,,,,,,,,,,,,,,,,,,,,False,75,76,True,exp2.png,exp1.png,trial_right_image,-1,exp1.png,2,exp1.png,exp2.png,1,1,non-reversed,correct,0.6217943211299966,1,valid_win,396.7980219999995,51,,,,,,,,,,,,,,,,,,sub_926,2024-05-06_11h44.58.631,Reversal,2023.1.3,59.956962892113346,2,
17,exp3.png,exp4.png,,3,0,3,0,0,17,17,17,,,,,,,,,,,,,,,,,,,,,,,,,False,76,77,True,exp4.png,exp3.png,trial_right_image,-1,exp3.png,2,exp3.png,exp4.png,1,3,reversed,correct,0.5926560987332236,1,valid_win,400.8462894999998,52,,,,,,,,,,,,,,,,,,sub_926,2024-05-06_11h44.58.631,Reversal,2023.1.3,59.956962892113346,2,
18,exp1.png,exp2.png,,3,0,3,0,0,18,18,18,,,,,,,,,,,,,,,,,,,,,,,,,False,77,78,False,exp1.png,exp2.png,trial_left_image,1,exp1.png,2,exp1.png,exp2.png,1,1,non-reversed,correct,0.21173268531661404,0,invalid_lose,404.9617532999996,52,,,,,,,,,,,,,,,,,,sub_926,2024-05-06_11h44.58.631,Reversal,2023.1.3,59.956962892113346,2,
19,exp3.png,exp4.png,,3,0,3,0,0,19,19,19,,,,,,,,,,,,,,,,,,,,,,,,,False,78,79,False,exp3.png,exp4.png,trial_left_image,1,exp3.png,2,exp3.png,exp4.png,1,3,reversed,correct,0.8251076731183379,1,valid_win,409.1099929999996,53,,,,,,,,,,,,,,,,,,sub_926,2024-05-06_11h44.58.631,Reversal,2023.1.3,59.956962892113346,2,
20,exp1.png,exp2.png,,3,0,3,0,0,20,20,20,,,,,,,,,,,,,,,,,,,,,,,,,False,79,80,True,exp2.png,exp1.png,trial_right_image,-1,exp1.png,2,exp1.png,exp2.png,1,1,non-reversed,correct,0.5918599438330598,1,valid_win,413.20879449999984,54,,,,,,,,,,,,,,,,,,sub_926,2024-05-06_11h44.58.631,Reversal,2023.1.3,59.956962892113346,2,
,,,exp1.png,3,0,3,0,,,,,0,0,0,0,0,0,0,0,,,,,,,,,,,,,,,,,,,,,,,,,,,,,,,,,,,,,,485.2333913999996,93.0,93.0,3.406940300000315,"[(93.0, 3.406940300000315)]",,,,,,,,,,,,,sub_926,2024-05-06_11h44.58.631,Reversal,2023.1.3,59.956962892113346,2,
,,,exp2.png,3,0,3,0,,,,,0,0,0,0,0,1,1,1,,,,,,,,,,,,,,,,,,,,,,,,,,,,,,,,,,,,,,489.7556775999997,,8.0,3.3280608000004577,"[(8.0, 3.3280608000004577)]",8.0,,,,,,,,,,,,sub_926,2024-05-06_11h44.58.631,Reversal,2023.1.3,59.956962892113346,2,
,,,exp3.png,3,0,3,0,,,,,0,0,0,0,0,2,2,2,,,,,,,,,,,,,,,,,,,,,,,,,,,,,,,,,,,,,,494.4756930999997,,85.0,3.573018599999159,"[(85.0, 3.573018599999159)]",,85.0,,,,,,,,,,,sub_926,2024-05-06_11h44.58.631,Reversal,2023.1.3,59.956962892113346,2,
,,,exp4.png,3,0,3,0,,,,,0,0,0,0,0,3,3,3,,,,,,,,,,,,,,,,,,,,,,,,,,,,,,,,,,,,,,499.33841970000003,,14.0,2.061483500000577,"[(14.0, 2.061483500000577)]",,,14.0,,,,,,,,,,sub_926,2024-05-06_11h44.58.631,Reversal,2023.1.3,59.956962892113346,2,
0,exp1.png,exp2.png,,,,,,,,,,,,,,,,,,0,0,0,0,0,0,0,0,,,,,,,,,True,,,,,,,,,,,,,,,,,,,,,,,,,,,,,,,,,,,,,,sub_926,2024-05-06_11h44.58.631,Reversal,2023.1.3,59.956962892113346,2,
1,exp3.png,exp4.png,,,,,,,,,,,,,,,,,,0,0,0,0,0,1,1,1,,,,,,,,,False,0,81,False,exp3.png,exp4.png,trial_left_image,1,exp3.png,2,exp4.png,exp3.png,1,3,reversed,incorrect,0.8014627893766417,0,valid_lose,435.80110579999973,54,,,,,,,,,433.03432870000006,,,,,,,,,sub_926,2024-05-06_11h44.58.631,Reversal,2023.1.3,59.956962892113346,2,
2,exp1.png,exp2.png,,,,,,,,,,,,,,,,,,0,0,0,0,0,2,2,2,,,,,,,,,False,1,82,False,exp1.png,exp2.png,trial_left_image,1,exp1.png,2,exp1.png,exp2.png,1,1,non-reversed,correct,0.1558162415319384,0,invalid_lose,440.0996554999997,54,,,,,,,,,,,,,,,,,,sub_926,2024-05-06_11h44.58.631,Reversal,2023.1.3,59.956962892113346,2,
3,exp3.png,exp4.png,,,,,,,,,,,,,,,,,,0,0,0,0,0,3,3,3,,,,,,,,,False,2,83,True,exp4.png,exp3.png,trial_left_image,1,exp4.png,2,exp4.png,exp3.png,0,4,reversed,correct,0.25945501554142336,1,valid_win,444.4149725000002,55,,,,,,,,,,,,,,,,,,sub_926,2024-05-06_11h44.58.631,Reversal,2023.1.3,59.956962892113346,2,
4,exp1.png,exp2.png,,,,,,,,,,,,,,,,,,0,0,0,0,0,4,4,4,,,,,,,,,False,3,84,False,exp1.png,exp2.png,trial_right_image,-1,exp2.png,2,exp1.png,exp2.png,0,2,non-reversed,incorrect,0.09288138313422312,1,invalid_win,448.3966266000002,56,,,,,,,,,,,,,,,,,,sub_926,2024-05-06_11h44.58.631,Reversal,2023.1.3,59.956962892113346,2,
5,exp3.png,exp4.png,,,,,,,,,,,,,,,,,,0,0,0,0,0,5,5,5,,,,,,,,,False,4,85,True,exp4.png,exp3.png,trial_left_image,1,exp4.png,2,exp4.png,exp3.png,0,4,reversed,correct,0.4738004264694372,1,valid_win,452.46220760000006,57,,,,,,,,,,,,,,,,,,sub_926,2024-05-06_11h44.58.631,Reversal,2023.1.3,59.956962892113346,2,
6,exp1.png,exp2.png,,,,,,,,,,,,,,,,,,0,0,0,0,0,6,6,6,,,,,,,,,False,5,86,False,exp1.png,exp2.png,trial_right_image,-1,exp2.png,2,exp1.png,exp2.png,0,2,non-reversed,incorrect,0.9002624516030678,0,valid_lose,456.8448330999995,57,,,,,,,,,,,,,,,,,,sub_926,2024-05-06_11h44.58.631,Reversal,2023.1.3,59.956962892113346,2,
7,exp3.png,exp4.png,,,,,,,,,,,,,,,,,,0,0,0,0,0,7,7,7,,,,,,,,,False,6,87,False,exp3.png,exp4.png,trial_left_image,1,exp3.png,2,exp4.png,exp3.png,1,3,reversed,incorrect,0.16812121733395557,1,invalid_win,460.9258219999997,58,,,,,,,,,,,,,,,,,,sub_926,2024-05-06_11h44.58.631,Reversal,2023.1.3,59.956962892113346,2,
8,exp1.png,exp2.png,,,,,,,,,,,,,,,,,,0,0,0,0,0,8,8,8,,,,,,,,,False,7,88,False,exp1.png,exp2.png,trial_left_image,1,exp1.png,2,exp1.png,exp2.png,1,1,non-reversed,correct,0.210215811218337,0,invalid_lose,465.25778169999967,58,,,,,,,,,,,,,,,,,,sub_926,2024-05-06_11h44.58.631,Reversal,2023.1.3,59.956962892113346,2,
9,exp3.png,exp4.png,,,,,,,,,,,,,,,,,,0,0,0,0,0,9,9,9,,,,,,,,,False,8,89,False,exp3.png,exp4.png,trial_right_image,-1,exp4.png,2,exp4.png,exp3.png,0,4,reversed,correct,0.41361875623829725,1,valid_win,469.63952370000015,59,,,,,,,,,,,,,,,,,,sub_926,2024-05-06_11h44.58.631,Reversal,2023.1.3,59.956962892113346,2,
10,exp1.png,exp2.png,,,,,,,,,,,,,,,,,,0,0,0,0,0,10,10,10,,,,,,,,,False,9,90,False,exp1.png,exp2.png,trial_right_image,-1,exp2.png,2,exp1.png,exp2.png,0,2,non-reversed,incorrect,0.875989343110934,0,valid_lose,473.63871419999987,59,,,,,,,,,,,,,,,,,,sub_926,2024-05-06_11h44.58.631,Reversal,2023.1.3,59.956962892113346,2,
11,exp3.png,exp4.png,,,,,,,,,,,,,,,,,,0,0,0,0,0,11,11,11,,,,,,,,,False,10,91,True,exp4.png,exp3.png,trial_right_image,-1,exp3.png,2,exp4.png,exp3.png,1,3,reversed,incorrect,0.04992777510339386,1,invalid_win,477.77031560000023,60,,,,,,,,,,,,,,,,,,sub_926,2024-05-06_11h44.58.631,Reversal,2023.1.3,59.956962892113346,2,
12,exp1.png,exp2.png,,,,,,,,,,,,,,,,,,0,0,0,0,0,12,12,12,,,,,,,,,False,11,92,True,exp2.png,exp1.png,trial_left_image,1,exp2.png,2,exp1.png,exp2.png,0,2,non-reversed,incorrect,0.8838491163632938,0,valid_lose,482.3685564000002,60,,,,,,,,,,,,,,,,,,sub_926,2024-05-06_11h44.58.631,Reversal,2023.1.3,59.956962892113346,2,
13,exp3.png,exp4.png,,,,,,,,,,,,,,,,,,0,0,0,0,0,13,13,13,,,,,,,,,False,12,93,False,exp3.png,exp4.png,trial_left_image,1,exp3.png,2,exp4.png,exp3.png,1,3,reversed,incorrect,0.9898550628503665,0,valid_lose,486.5674074000003,60,,,,,,,,,,,,,,,,,,sub_926,2024-05-06_11h44.58.631,Reversal,2023.1.3,59.956962892113346,2,
14,exp1.png,exp2.png,,,,,,,,,,,,,,,,,,0,0,0,0,0,14,14,14,,,,,,,,,False,13,94,True,exp2.png,exp1.png,trial_right_image,-1,exp1.png,2,exp1.png,exp2.png,1,1,non-reversed,correct,0.3380882730232966,1,valid_win,490.28259279999975,61,,,,,,,,,,,,,,,,,,sub_926,2024-05-06_11h44.58.631,Reversal,2023.1.3,59.956962892113346,2,
15,exp3.png,exp4.png,,,,,,,,,,,,,,,,,,0,0,0,0,0,15,15,15,,,,,,,,,False,14,95,True,exp4.png,exp3.png,trial_right_image,-1,exp3.png,2,exp4.png,exp3.png,1,3,reversed,incorrect,0.7161832345682905,0,valid_lose,494.2145714000003,61,,,,,,,,,,,,,,,,,,sub_926,2024-05-06_11h44.58.631,Reversal,2023.1.3,59.956962892113346,2,
16,exp1.png,exp2.png,,,,,,,,,,,,,,,,,,0,0,0,0,0,16,16,16,,,,,,,,,False,15,96,True,exp2.png,exp1.png,trial_right_image,-1,exp1.png,2,exp1.png,exp2.png,1,1,non-reversed,correct,0.7296625860775844,1,valid_win,498.1632990000003,62,,,,,,,,,,,,,,,,,,sub_926,2024-05-06_11h44.58.631,Reversal,2023.1.3,59.956962892113346,2,
17,exp3.png,exp4.png,,,,,,,,,,,,,,,,,,0,0,0,0,0,17,17,17,,,,,,,,,False,16,97,True,exp4.png,exp3.png,trial_left_image,1,exp4.png,2,exp4.png,exp3.png,0,4,reversed,correct,0.7057705104124298,1,valid_win,502.22861929999954,63,,,,,,,,,,,,,,,,,,sub_926,2024-05-06_11h44.58.631,Reversal,2023.1.3,59.956962892113346,2,
18,exp1.png,exp2.png,,,,,,,,,,,,,,,,,,0,0,0,0,0,18,18,18,,,,,,,,,False,17,98,True,exp2.png,exp1.png,trial_right_image,-1,exp1.png,2,exp1.png,exp2.png,1,1,non-reversed,correct,0.5301519246907209,1,valid_win,506.21048139999994,64,,,,,,,,,,,,,,,,,,sub_926,2024-05-06_11h44.58.631,Reversal,2023.1.3,59.956962892113346,2,
19,exp3.png,exp4.png,,,,,,,,,,,,,,,,,,0,0,0,0,0,19,19,19,,,,,,,,,False,18,99,False,exp3.png,exp4.png,trial_right_image,-1,exp4.png,2,exp4.png,exp3.png,0,4,reversed,correct,0.3125468006542015,1,valid_win,510.1260021000003,65,,,,,,,,,,,,,,,,,,sub_926,2024-05-06_11h44.58.631,Reversal,2023.1.3,59.956962892113346,2,
20,exp1.png,exp2.png,,,,,,,,,,,,,,,,,,0,0,0,0,0,20,20,20,,,,,,,,,False,19,100,True,exp2.png,exp1.png,trial_right_image,-1,exp1.png,2,exp1.png,exp2.png,1,1,non-reversed,correct,0.003998310978029274,0,invalid_lose,513.9412336999999,65,,,,,,,,,,,,,,,,,,sub_926,2024-05-06_11h44.58.631,Reversal,2023.1.3,59.956962892113346,2,
,,,exp1.png,,,,,,,,,,,,,,,,,0,0,0,0,,,,,0,0,0,0,0,0,0,0,,,,,,,,,,,,,,,,,,,,,,585.9745430999997,78.0,78.0,2.7292183999998088,"[(78.0, 2.7292183999998088)]",,,,,,,,,,,,,sub_926,2024-05-06_11h44.58.631,Reversal,2023.1.3,59.956962892113346,2,
,,,exp2.png,,,,,,,,,,,,,,,,,0,0,0,0,,,,,0,0,0,0,0,1,1,1,,,,,,,,,,,,,,,,,,,,,,590.7719910000001,,37.0,12.323925400000007,"[(73.0, 3.3444308999996792), (37.0, 12.323925400000007)]",37.0,,,,,,,,,,,,sub_926,2024-05-06_11h44.58.631,Reversal,2023.1.3,59.956962892113346,2,
,,,exp3.png,,,,,,,,,,,,,,,,,0,0,0,0,,,,,0,0,0,0,0,2,2,2,,,,,,,,,,,,,,,,,,,,,,609.3024079000002,,None,None,[],,,,,,,,,,,,,sub_926,2024-05-06_11h44.58.631,Reversal,2023.1.3,59.956962892113346,2,
,,,exp4.png,,,,,,,,,,,,,,,,,0,0,0,0,,,,,0,0,0,0,0,3,3,3,,,,,,,,,,,,,,,,,,,,,,610.9493963,,None,None,[],,,,,,,,,,,,,sub_926,2024-05-06_11h44.58.631,Reversal,2023.1.3,59.956962892113346,2,
0,exp1.png,exp2.png,,,,,,,,,,,,,,,,,,1,0,1,0,0,0,0,0,,,,,,,,,True,,,,,,,,,,,,,,,,,,,,,,,,,,,,,,,,,,,,,,sub_926,2024-05-06_11h44.58.631,Reversal,2023.1.3,59.956962892113346,2,
1,exp3.png,exp4.png,,,,,,,,,,,,,,,,,,1,0,1,0,0,1,1,1,,,,,,,,,False,20,101,True,exp4.png,exp3.png,trial_right_image,-1,exp3.png,2,exp4.png,exp3.png,1,3,reversed,incorrect,0.4538050796333032,0,valid_lose,545.3472307999996,65,,,,,,,,,,,,,,,,,,sub_926,2024-05-06_11h44.58.631,Reversal,2023.1.3,59.956962892113346,2,
2,exp1.png,exp2.png,,,,,,,,,,,,,,,,,,1,0,1,0,0,2,2,2,,,,,,,,,False,21,102,True,exp2.png,exp1.png,trial_left_image,1,exp2.png,2,exp1.png,exp2.png,0,2,non-reversed,incorrect,0.6962402199517197,0,valid_lose,549.3296427999999,65,,,,,,,,,,,,,,,,,,sub_926,2024-05-06_11h44.58.631,Reversal,2023.1.3,59.956962892113346,2,
3,exp3.png,exp4.png,,,,,,,,,,,,,,,,,,1,0,1,0,0,3,3,3,,,,,,,,,False,22,103,True,exp4.png,exp3.png,trial_right_image,-1,exp3.png,2,exp4.png,exp3.png,1,3,reversed,incorrect,0.8147316055273149,0,valid_lose,553.1780590000003,65,,,,,,,,,,,,,,,,,,sub_926,2024-05-06_11h44.58.631,Reversal,2023.1.3,59.956962892113346,2,
4,exp1.png,exp2.png,,,,,,,,,,,,,,,,,,1,0,1,0,0,4,4,4,,,,,,,,,False,23,104,False,exp1.png,exp2.png,trial_right_image,-1,exp2.png,2,exp1.png,exp2.png,0,2,non-reversed,incorrect,0.1341430526949463,1,invalid_win,557.0432857999999,66,,,,,,,,,,,,,,,,,,sub_926,2024-05-06_11h44.58.631,Reversal,2023.1.3,59.956962892113346,2,
5,exp3.png,exp4.png,,,,,,,,,,,,,,,,,,1,0,1,0,0,5,5,5,,,,,,,,,False,24,105,True,exp4.png,exp3.png,trial_left_image,1,exp4.png,2,exp4.png,exp3.png,0,4,reversed,correct,0.5368366820218003,1,valid_win,561.2257408,67,,,,,,,,,,,,,,,,,,sub_926,2024-05-06_11h44.58.631,Reversal,2023.1.3,59.956962892113346,2,
6,exp1.png,exp2.png,,,,,,,,,,,,,,,,,,1,0,1,0,0,6,6,6,,,,,,,,,False,25,106,False,exp1.png,exp2.png,trial_right_image,-1,exp2.png,2,exp1.png,exp2.png,0,2,non-reversed,incorrect,0.10082354663593984,1,invalid_win,565.1410511999998,68,,,,,,,,,,,,,,,,,,sub_926,2024-05-06_11h44.58.631,Reversal,2023.1.3,59.956962892113346,2,
7,exp3.png,exp4.png,,,,,,,,,,,,,,,,,,1,0,1,0,0,7,7,7,,,,,,,,,False,26,107,False,exp3.png,exp4.png,trial_right_image,-1,exp4.png,2,exp4.png,exp3.png,0,4,reversed,correct,0.0957117720977384,0,invalid_lose,568.9560873999994,68,,,,,,,,,,,,,,,,,,sub_926,2024-05-06_11h44.58.631,Reversal,2023.1.3,59.956962892113346,2,
8,exp1.png,exp2.png,,,,,,,,,,,,,,,,,,1,0,1,0,0,8,8,8,,,,,,,,,False,27,108,True,exp2.png,exp1.png,trial_right_image,-1,exp1.png,2,exp1.png,exp2.png,1,1,non-reversed,correct,0.23180060023264082,0,invalid_lose,572.8546450999997,68,,,,,,,,,,,,,,,,,,sub_926,2024-05-06_11h44.58.631,Reversal,2023.1.3,59.956962892113346,2,
9,exp3.png,exp4.png,,,,,,,,,,,,,,,,,,1,0,1,0,0,9,9,9,,,,,,,,,False,28,109,True,exp4.png,exp3.png,trial_right_image,-1,exp3.png,2,exp4.png,exp3.png,1,3,reversed,incorrect,0.7427069401008083,0,valid_lose,577.4864680999995,68,,,,,,,,,,,,,,,,,,sub_926,2024-05-06_11h44.58.631,Reversal,2023.1.3,59.956962892113346,2,
10,exp1.png,exp2.png,,,,,,,,,,,,,,,,,,1,0,1,0,0,10,10,10,,,,,,,,,False,29,110,True,exp2.png,exp1.png,trial_left_image,1,exp2.png,2,exp1.png,exp2.png,0,2,non-reversed,incorrect,0.8761812767679271,0,valid_lose,581.4183330000001,68,,,,,,,,,,,,,,,,,,sub_926,2024-05-06_11h44.58.631,Reversal,2023.1.3,59.956962892113346,2,
11,exp3.png,exp4.png,,,,,,,,,,,,,,,,,,1,0,1,0,0,11,11,11,,,,,,,,,False,30,111,True,exp4.png,exp3.png,trial_right_image,-1,exp3.png,2,exp4.png,exp3.png,1,3,reversed,incorrect,0.12214536425898603,1,invalid_win,585.6170138000002,69,,,,,,,,,,,,,,,,,,sub_926,2024-05-06_11h44.58.631,Reversal,2023.1.3,59.956962892113346,2,
12,exp1.png,exp2.png,,,,,,,,,,,,,,,,,,1,0,1,0,0,12,12,12,,,,,,,,,False,31,112,False,exp1.png,exp2.png,trial_left_image,1,exp1.png,2,exp1.png,exp2.png,1,1,non-reversed,correct,0.3760137820028411,1,valid_win,589.6657316999995,70,,,,,,,,,,,,,,,,,,sub_926,2024-05-06_11h44.58.631,Reversal,2023.1.3,59.956962892113346,2,
13,exp3.png,exp4.png,,,,,,,,,,,,,,,,,,1,0,1,0,0,13,13,13,,,,,,,,,False,32,113,False,exp3.png,exp4.png,trial_right_image,-1,exp4.png,2,exp4.png,exp3.png,0,4,reversed,correct,0.7720174324290515,1,valid_win,593.8813094000002,71,,,,,,,,,,,,,,,,,,sub_926,2024-05-06_11h44.58.631,Reversal,2023.1.3,59.956962892113346,2,
14,exp1.png,exp2.png,,,,,,,,,,,,,,,,,,1,0,1,0,0,14,14,14,,,,,,,,,False,33,114,True,exp2.png,exp1.png,trial_right_image,-1,exp1.png,2,exp1.png,exp2.png,1,1,non-reversed,correct,0.17577330213424236,0,invalid_lose,598.5796679,71,,,,,,,,,,,,,,,,,,sub_926,2024-05-06_11h44.58.631,Reversal,2023.1.3,59.956962892113346,2,
15,exp3.png,exp4.png,,,,,,,,,,,,,,,,,,1,0,1,0,0,15,15,15,,,,,,,,,False,34,115,False,exp3.png,exp4.png,trial_right_image,-1,exp4.png,2,exp4.png,exp3.png,0,4,reversed,correct,0.7875748483381952,1,valid_win,602.6944748000001,72,,,,,,,,,,,,,,,,,,sub_926,2024-05-06_11h44.58.631,Reversal,2023.1.3,59.956962892113346,2,
16,exp1.png,exp2.png,,,,,,,,,,,,,,,,,,1,0,1,0,0,16,16,16,,,,,,,,,False,35,116,False,exp1.png,exp2.png,trial_right_image,-1,exp2.png,2,exp1.png,exp2.png,0,2,non-reversed,incorrect,0.9559432263787562,0,valid_lose,606.5434324000003,72,,,,,,,,,,,,,,,,,,sub_926,2024-05-06_11h44.58.631,Reversal,2023.1.3,59.956962892113346,2,
17,exp3.png,exp4.png,,,,,,,,,,,,,,,,,,1,0,1,0,0,17,17,17,,,,,,,,,False,36,117,False,exp3.png,exp4.png,trial_left_image,1,exp3.png,2,exp4.png,exp3.png,1,3,reversed,incorrect,0.14921200025811876,1,invalid_win,610.7420318999998,73,,,,,,,,,,,,,,,,,,sub_926,2024-05-06_11h44.58.631,Reversal,2023.1.3,59.956962892113346,2,
18,exp1.png,exp2.png,,,,,,,,,,,,,,,,,,1,0,1,0,0,18,18,18,,,,,,,,,False,37,118,True,exp2.png,exp1.png,trial_right_image,-1,exp1.png,2,exp1.png,exp2.png,1,1,non-reversed,correct,0.957527279013385,1,valid_win,614.9733390999995,74,,,,,,,,,,,,,,,,,,sub_926,2024-05-06_11h44.58.631,Reversal,2023.1.3,59.956962892113346,2,
19,exp3.png,exp4.png,,,,,,,,,,,,,,,,,,1,0,1,0,0,19,19,19,,,,,,,,,False,38,119,False,exp3.png,exp4.png,trial_left_image,1,exp3.png,2,exp4.png,exp3.png,1,3,reversed,incorrect,0.39225533009252156,0,valid_lose,618.9058192999996,74,,,,,,,,,,,,,,,,,,sub_926,2024-05-06_11h44.58.631,Reversal,2023.1.3,59.956962892113346,2,
20,exp1.png,exp2.png,,,,,,,,,,,,,,,,,,1,0,1,0,0,20,20,20,,,,,,,,,False,39,120,False,exp1.png,exp2.png,trial_right_image,-1,exp2.png,2,exp1.png,exp2.png,0,2,non-reversed,incorrect,0.47812479466442515,0,valid_lose,622.6711933000001,74,,,,,,,,,,,,,,,,,,sub_926,2024-05-06_11h44.58.631,Reversal,2023.1.3,59.956962892113346,2,
,,,exp1.png,,,,,,,,,,,,,,,,,1,0,1,0,,,,,0,0,0,0,0,0,0,0,,,,,,,,,,,,,,,,,,,,,,694.7010810999996,,None,None,[],,,,,,,,,,,,,sub_926,2024-05-06_11h44.58.631,Reversal,2023.1.3,59.956962892113346,2,
,,,exp2.png,,,,,,,,,,,,,,,,,1,0,1,0,,,,,0,0,0,0,0,1,1,1,,,,,,,,,,,,,,,,,,,,,,696.9020687999996,,None,None,[],,,,,,,,,,,,,sub_926,2024-05-06_11h44.58.631,Reversal,2023.1.3,59.956962892113346,2,
,,,exp3.png,,,,,,,,,,,,,,,,,1,0,1,0,,,,,0,0,0,0,0,2,2,2,,,,,,,,,,,,,,,,,,,,,,697.8019455999997,,None,None,[],,,,,,,,,,,,,sub_926,2024-05-06_11h44.58.631,Reversal,2023.1.3,59.956962892113346,2,
,,,exp4.png,,,,,,,,,,,,,,,,,1,0,1,0,,,,,0,0,0,0,0,3,3,3,,,,,,,,,,,,,,,,,,,,,,698.652294,,None,None,[],,,,,,,,,,,,,sub_926,2024-05-06_11h44.58.631,Reversal,2023.1.3,59.956962892113346,2,
0,exp1.png,exp2.png,,,,,,,,,,,,,,,,,,2,0,2,0,0,0,0,0,,,,,,,,,True,,,,,,,,,,,,,,,,,,,,,,,,,,,,,,,,,,,,,,sub_926,2024-05-06_11h44.58.631,Reversal,2023.1.3,59.956962892113346,2,
1,exp3.png,exp4.png,,,,,,,,,,,,,,,,,,2,0,2,0,0,1,1,1,,,,,,,,,False,40,121,True,exp4.png,exp3.png,trial_right_image,-1,exp3.png,2,exp4.png,exp3.png,1,3,reversed,incorrect,0.6361143641023326,0,valid_lose,632.0012278999998,74,,,,,,,,,,,,,,,,,,sub_926,2024-05-06_11h44.58.631,Reversal,2023.1.3,59.956962892113346,2,
2,exp1.png,exp2.png,,,,,,,,,,,,,,,,,,2,0,2,0,0,2,2,2,,,,,,,,,False,41,122,True,exp2.png,exp1.png,trial_left_image,1,exp2.png,2,exp1.png,exp2.png,0,2,non-reversed,incorrect,0.1440080219241784,1,invalid_win,636.3500964,75,,,,,,,,,,,,,,,,,,sub_926,2024-05-06_11h44.58.631,Reversal,2023.1.3,59.956962892113346,2,
3,exp3.png,exp4.png,,,,,,,,,,,,,,,,,,2,0,2,0,0,3,3,3,,,,,,,,,False,42,123,False,exp3.png,exp4.png,trial_left_image,1,exp3.png,2,exp4.png,exp3.png,1,3,reversed,incorrect,0.559808927288701,0,valid_lose,640.6481935999996,75,,,,,,,,,,,,,,,,,,sub_926,2024-05-06_11h44.58.631,Reversal,2023.1.3,59.956962892113346,2,
4,exp1.png,exp2.png,,,,,,,,,,,,,,,,,,2,0,2,0,0,4,4,4,,,,,,,,,False,43,124,False,exp1.png,exp2.png,trial_right_image,-1,exp2.png,2,exp1.png,exp2.png,0,2,non-reversed,incorrect,0.23116471184960963,1,invalid_win,644.4970449999996,76,,,,,,,,,,,,,,,,,,sub_926,2024-05-06_11h44.58.631,Reversal,2023.1.3,59.956962892113346,2,
5,exp3.png,exp4.png,,,,,,,,,,,,,,,,,,2,0,2,0,0,5,5,5,,,,,,,,,False,44,125,False,exp3.png,exp4.png,trial_right_image,-1,exp4.png,2,exp4.png,exp3.png,0,4,reversed,correct,0.870600890243207,1,valid_win,648.3628070999998,77,,,,,,,,,,,,,,,,,,sub_926,2024-05-06_11h44.58.631,Reversal,2023.1.3,59.956962892113346,2,
6,exp1.png,exp2.png,,,,,,,,,,,,,,,,,,2,0,2,0,0,6,6,6,,,,,,,,,False,45,126,False,exp1.png,exp2.png,trial_right_image,-1,exp2.png,2,exp1.png,exp2.png,0,2,non-reversed,incorrect,0.4985164581628819,0,valid_lose,652.2617368999995,77,,,,,,,,,,,,,,,,,,sub_926,2024-05-06_11h44.58.631,Reversal,2023.1.3,59.956962892113346,2,
7,exp3.png,exp4.png,,,,,,,,,,,,,,,,,,2,0,2,0,0,7,7,7,,,,,,,,,False,46,127,True,exp4.png,exp3.png,trial_left_image,1,exp4.png,2,exp4.png,exp3.png,0,4,reversed,correct,0.4178848916075777,1,valid_win,656.4930319999999,78,,,,,,,,,,,,,,,,,,sub_926,2024-05-06_11h44.58.631,Reversal,2023.1.3,59.956962892113346,2,
8,exp1.png,exp2.png,,,,,,,,,,,,,,,,,,2,0,2,0,0,8,8,8,,,,,,,,,False,47,128,False,exp1.png,exp2.png,trial_left_image,1,exp1.png,2,exp1.png,exp2.png,1,1,non-reversed,correct,0.8700536903052037,1,valid_win,660.5088774000001,79,,,,,,,,,,,,,,,,,,sub_926,2024-05-06_11h44.58.631,Reversal,2023.1.3,59.956962892113346,2,
9,exp3.png,exp4.png,,,,,,,,,,,,,,,,,,2,0,2,0,0,9,9,9,,,,,,,,,False,48,129,False,exp3.png,exp4.png,trial_right_image,-1,exp4.png,2,exp4.png,exp3.png,0,4,reversed,correct,0.5801564087380765,1,valid_win,664.7569601999999,80,,,,,,,,,,,,,,,,,,sub_926,2024-05-06_11h44.58.631,Reversal,2023.1.3,59.956962892113346,2,
10,exp1.png,exp2.png,,,,,,,,,,,,,,,,,,2,0,2,0,0,10,10,10,,,,,,,,,False,49,130,False,exp1.png,exp2.png,trial_right_image,-1,exp2.png,2,exp1.png,exp2.png,0,2,non-reversed,incorrect,0.37363590658840706,0,valid_lose,668.6055063999997,80,,,,,,,,,,,,,,,,,,sub_926,2024-05-06_11h44.58.631,Reversal,2023.1.3,59.956962892113346,2,
11,exp3.png,exp4.png,,,,,,,,,,,,,,,,,,2,0,2,0,0,11,11,11,,,,,,,,,False,50,131,True,exp4.png,exp3.png,trial_left_image,1,exp4.png,2,exp4.png,exp3.png,0,4,reversed,correct,0.8872543027248716,1,valid_win,672.9040185999997,81,,,,,,,,,,,,,,,,,,sub_926,2024-05-06_11h44.58.631,Reversal,2023.1.3,59.956962892113346,2,
12,exp1.png,exp2.png,,,,,,,,,,,,,,,,,,2,0,2,0,0,12,12,12,,,,,,,,,False,51,132,True,exp2.png,exp1.png,trial_right_image,-1,exp1.png,2,exp1.png,exp2.png,1,1,non-reversed,correct,0.33346841252114023,1,valid_win,677.9691264999997,82,,,,,,,,,,,,,,,,,,sub_926,2024-05-06_11h44.58.631,Reversal,2023.1.3,59.956962892113346,2,
13,exp3.png,exp4.png,,,,,,,,,,,,,,,,,,2,0,2,0,0,13,13,13,,,,,,,,,False,52,133,True,exp4.png,exp3.png,trial_left_image,1,exp4.png,2,exp4.png,exp3.png,0,4,reversed,correct,0.635156456844545,1,valid_win,682.1680032999998,83,,,,,,,,,,,,,,,,,,sub_926,2024-05-06_11h44.58.631,Reversal,2023.1.3,59.956962892113346,2,
14,exp1.png,exp2.png,,,,,,,,,,,,,,,,,,2,0,2,0,0,14,14,14,,,,,,,,,False,53,134,True,exp2.png,exp1.png,trial_left_image,1,exp2.png,2,exp1.png,exp2.png,0,2,non-reversed,incorrect,0.5475800009226403,0,valid_lose,686.0997309999998,83,,,,,,,,,,,,,,,,,,sub_926,2024-05-06_11h44.58.631,Reversal,2023.1.3,59.956962892113346,2,
15,exp3.png,exp4.png,,,,,,,,,,,,,,,,,,2,0,2,0,0,15,15,15,,,,,,,,,False,54,135,False,exp3.png,exp4.png,trial_right_image,-1,exp4.png,2,exp4.png,exp3.png,0,4,reversed,correct,0.9866232800953189,1,valid_win,690.1814988000001,84,,,,,,,,,,,,,,,,,,sub_926,2024-05-06_11h44.58.631,Reversal,2023.1.3,59.956962892113346,2,
16,exp1.png,exp2.png,,,,,,,,,,,,,,,,,,2,0,2,0,0,16,16,16,,,,,,,,,False,55,136,True,exp2.png,exp1.png,trial_left_image,1,exp2.png,2,exp1.png,exp2.png,0,2,non-reversed,incorrect,0.4689135284556153,0,valid_lose,694.8969194999995,84,,,,,,,,,,,,,,,,,,sub_926,2024-05-06_11h44.58.631,Reversal,2023.1.3,59.956962892113346,2,
17,exp3.png,exp4.png,,,,,,,,,,,,,,,,,,2,0,2,0,0,17,17,17,,,,,,,,,False,56,137,True,exp4.png,exp3.png,trial_left_image,1,exp4.png,2,exp4.png,exp3.png,0,4,reversed,correct,0.928595667567348,1,valid_win,698.7954361999996,85,,,,,,,,,,,,,,,,,,sub_926,2024-05-06_11h44.58.631,Reversal,2023.1.3,59.956962892113346,2,
18,exp1.png,exp2.png,,,,,,,,,,,,,,,,,,2,0,2,0,0,18,18,18,,,,,,,,,False,57,138,False,exp1.png,exp2.png,trial_left_image,1,exp1.png,2,exp1.png,exp2.png,1,1,non-reversed,correct,0.5344748876855405,1,valid_win,702.7441005999995,86,,,,,,,,,,,,,,,,,,sub_926,2024-05-06_11h44.58.631,Reversal,2023.1.3,59.956962892113346,2,
19,exp3.png,exp4.png,,,,,,,,,,,,,,,,,,2,0,2,0,0,19,19,19,,,,,,,,,False,58,139,True,exp4.png,exp3.png,trial_left_image,1,exp4.png,2,exp4.png,exp3.png,0,4,reversed,correct,0.6348625929909847,1,valid_win,706.7427296000001,87,,,,,,,,,,,,,,,,,,sub_926,2024-05-06_11h44.58.631,Reversal,2023.1.3,59.956962892113346,2,
20,exp1.png,exp2.png,,,,,,,,,,,,,,,,,,2,0,2,0,0,20,20,20,,,,,,,,,False,59,140,False,exp1.png,exp2.png,trial_left_image,1,exp1.png,2,exp1.png,exp2.png,1,1,non-reversed,correct,0.5898281223159513,1,valid_win,710.7412288,88,,,,,,,,,,,,,,,,,,sub_926,2024-05-06_11h44.58.631,Reversal,2023.1.3,59.956962892113346,2,
,,,exp1.png,,,,,,,,,,,,,,,,,2,0,2,0,,,,,0,0,0,0,0,0,0,0,,,,,,,,,,,,,,,,,,,,,,782.7671009000001,87.0,87.0,3.8205684999993537,"[(87.0, 3.8205684999993537)]",,,,,,,,,,,,,sub_926,2024-05-06_11h44.58.631,Reversal,2023.1.3,59.956962892113346,2,
,,,exp2.png,,,,,,,,,,,,,,,,,2,0,2,0,,,,,0,0,0,0,0,1,1,1,,,,,,,,,,,,,,,,,,,,,,787.6385733000002,,18.0,1.8443012000007002,"[(18.0, 1.8443012000007002)]",18.0,,,,,,,,,,,,sub_926,2024-05-06_11h44.58.631,Reversal,2023.1.3,59.956962892113346,2,
,,,exp3.png,,,,,,,,,,,,,,,,,2,0,2,0,,,,,0,0,0,0,0,2,2,2,,,,,,,,,,,,,,,,,,,,,,790.6710388999995,,1.0,1.9106924999996409,"[(1.0, 1.9106924999996409)]",,1.0,,,,,,,,,,,sub_926,2024-05-06_11h44.58.631,Reversal,2023.1.3,59.956962892113346,2,
,,,exp4.png,,,,,,,,,,,,,,,,,2,0,2,0,,,,,0,0,0,0,0,3,3,3,,,,,,,,,,,,,,,,,,,,,,793.8877934999996,,100.0,2.1596782000005987,"[(100.0, 1.0620066999999835), (68.0, 1.2953206000001956), (100.0, 2.1596782000005987)]",,,100.0,,,,,,,,,,sub_926,2024-05-06_11h44.58.631,Reversal,2023.1.3,59.956962892113346,2,
,,,,,,,,,,,,,,,,,,,,,,,,,,,,,,,,,,,,,,,,,,,,,,,,,,,,,,,,88,,,,,,,,,,96,65,31,294.61926330000006,1,space,50.255839600000854,None,sub_926,2024-05-06_11h44.58.631,Reversal,2023.1.3,59.956962892113346,2,
