trial_index,trial_image1_file,trial_image2_file,image_file,learning_outer_loop.thisRepN,learning_outer_loop.thisTrialN,learning_outer_loop.thisN,learning_outer_loop.thisIndex,learning_inner_loop.thisRepN,learning_inner_loop.thisTrialN,learning_inner_loop.thisN,learning_inner_loop.thisIndex,learning_estimation_outer_loop.thisRepN,learning_estimation_outer_loop.thisTrialN,learning_estimation_outer_loop.thisN,learning_estimation_outer_loop.thisIndex,learning_estimation_inner_loop.thisRepN,learning_estimation_inner_loop.thisTrialN,learning_estimation_inner_loop.thisN,learning_estimation_inner_loop.thisIndex,reversal_outer_loop.thisRepN,reversal_outer_loop.thisTrialN,reversal_outer_loop.thisN,reversal_outer_loop.thisIndex,reversal_inner_loop.thisRepN,reversal_inner_loop.thisTrialN,reversal_inner_loop.thisN,reversal_inner_loop.thisIndex,reversal_estimation_outer_loop.thisRepN,reversal_estimation_outer_loop.thisTrialN,reversal_estimation_outer_loop.thisN,reversal_estimation_outer_loop.thisIndex,reversal_estimation_inner_loop.thisRepN,reversal_estimation_inner_loop.thisTrialN,reversal_estimation_inner_loop.thisN,reversal_estimation_inner_loop.thisIndex,skipped,total_trial_counter,trial_num,left_right_flip,left_image_file,right_image_file,clicked_stimulus_side,side,clicked_stimulus,version,high_prob_image_file,low_prob_image_file,choice_a,choice_b,pair_type,correct,trial_feedback_random,reward,trial_type,overall_time_after_trial,score,estimation_exp1.png,estimation_rating.response,estimation_rating.rt,estimation_rating.history,estimation_rating.started,estimation_rating.stopped,estimation_exp2.png,estimation_exp3.png,estimation_exp4.png,total_learning_time,total_correct,learning_correct,reversal_correct,total_reversal_time,extra_block,participant,date,expName,psychopyVersion,frameRate,ver,
0,exp1.png,exp2.png,,0,0,0,0,0,0,0,0,,,,,,,,,,,,,,,,,,,,,,,,,True,,,,,,,,,,,,,,,,,,,,,,,,,,,,,,,,,,,,sub_028,2022-12-08_12h07.33.540,Reversal,2022.1.2,60.047257033834065,4,
1,exp3.png,exp4.png,,0,0,0,0,0,1,1,1,,,,,,,,,,,,,,,,,,,,,,,,,False,0,1,False,exp3.png,exp4.png,trial_right_image,-1,exp4.png,4,exp4.png,exp3.png,1,3,reversed,correct,0.7359083581840754,1,valid_win,19.18417949974537,1,,,,,,,,,,,,,,,,sub_028,2022-12-08_12h07.33.540,Reversal,2022.1.2,60.047257033834065,4,
2,exp1.png,exp2.png,,0,0,0,0,0,2,2,2,,,,,,,,,,,,,,,,,,,,,,,,,False,1,2,False,exp1.png,exp2.png,trial_right_image,-1,exp2.png,4,exp2.png,exp1.png,1,1,non-reversed,correct,0.05844654801933258,0,invalid_lose,26.317903900519013,1,,,,,,,,,,,,,,,,sub_028,2022-12-08_12h07.33.540,Reversal,2022.1.2,60.047257033834065,4,
3,exp3.png,exp4.png,,0,0,0,0,0,3,3,3,,,,,,,,,,,,,,,,,,,,,,,,,False,2,3,True,exp4.png,exp3.png,trial_left_image,1,exp4.png,4,exp4.png,exp3.png,1,3,reversed,correct,0.7285947818505771,1,valid_win,41.550712999887764,2,,,,,,,,,,,,,,,,sub_028,2022-12-08_12h07.33.540,Reversal,2022.1.2,60.047257033834065,4,
4,exp1.png,exp2.png,,0,0,0,0,0,4,4,4,,,,,,,,,,,,,,,,,,,,,,,,,False,3,4,False,exp1.png,exp2.png,trial_left_image,1,exp1.png,4,exp2.png,exp1.png,0,2,non-reversed,incorrect,0.25490594232096475,0,valid_lose,49.01678020041436,2,,,,,,,,,,,,,,,,sub_028,2022-12-08_12h07.33.540,Reversal,2022.1.2,60.047257033834065,4,
5,exp3.png,exp4.png,,0,0,0,0,0,5,5,5,,,,,,,,,,,,,,,,,,,,,,,,,False,4,5,False,exp3.png,exp4.png,trial_right_image,-1,exp4.png,4,exp4.png,exp3.png,1,3,reversed,correct,0.7384236876515371,1,valid_win,57.45026919990778,3,,,,,,,,,,,,,,,,sub_028,2022-12-08_12h07.33.540,Reversal,2022.1.2,60.047257033834065,4,
6,exp1.png,exp2.png,,0,0,0,0,0,6,6,6,,,,,,,,,,,,,,,,,,,,,,,,,False,5,6,False,exp1.png,exp2.png,trial_left_image,1,exp1.png,4,exp2.png,exp1.png,0,2,non-reversed,incorrect,0.844715777634518,0,valid_lose,71.13366319984198,3,,,,,,,,,,,,,,,,sub_028,2022-12-08_12h07.33.540,Reversal,2022.1.2,60.047257033834065,4,
7,exp3.png,exp4.png,,0,0,0,0,0,7,7,7,,,,,,,,,,,,,,,,,,,,,,,,,False,6,7,True,exp4.png,exp3.png,trial_left_image,1,exp4.png,4,exp4.png,exp3.png,1,3,reversed,correct,0.18669968029322392,0,invalid_lose,77.99851359985769,3,,,,,,,,,,,,,,,,sub_028,2022-12-08_12h07.33.540,Reversal,2022.1.2,60.047257033834065,4,
8,exp1.png,exp2.png,,0,0,0,0,0,8,8,8,,,,,,,,,,,,,,,,,,,,,,,,,False,7,8,True,exp2.png,exp1.png,trial_right_image,-1,exp1.png,4,exp2.png,exp1.png,0,2,non-reversed,incorrect,0.9030739492586006,0,valid_lose,84.53252870030701,3,,,,,,,,,,,,,,,,sub_028,2022-12-08_12h07.33.540,Reversal,2022.1.2,60.047257033834065,4,
9,exp3.png,exp4.png,,0,0,0,0,0,9,9,9,,,,,,,,,,,,,,,,,,,,,,,,,False,8,9,False,exp3.png,exp4.png,trial_right_image,-1,exp4.png,4,exp4.png,exp3.png,1,3,reversed,correct,0.7596328679538368,1,valid_win,90.19839440006763,4,,,,,,,,,,,,,,,,sub_028,2022-12-08_12h07.33.540,Reversal,2022.1.2,60.047257033834065,4,
10,exp1.png,exp2.png,,0,0,0,0,0,10,10,10,,,,,,,,,,,,,,,,,,,,,,,,,False,9,10,False,exp1.png,exp2.png,trial_right_image,-1,exp2.png,4,exp2.png,exp1.png,1,1,non-reversed,correct,0.6277371347129179,1,valid_win,94.69889049977064,5,,,,,,,,,,,,,,,,sub_028,2022-12-08_12h07.33.540,Reversal,2022.1.2,60.047257033834065,4,
11,exp3.png,exp4.png,,0,0,0,0,0,11,11,11,,,,,,,,,,,,,,,,,,,,,,,,,False,10,11,True,exp4.png,exp3.png,trial_right_image,-1,exp3.png,4,exp4.png,exp3.png,0,4,reversed,incorrect,0.8214410666386996,0,valid_lose,109.03173500020057,5,,,,,,,,,,,,,,,,sub_028,2022-12-08_12h07.33.540,Reversal,2022.1.2,60.047257033834065,4,
12,exp1.png,exp2.png,,0,0,0,0,0,12,12,12,,,,,,,,,,,,,,,,,,,,,,,,,False,11,12,True,exp2.png,exp1.png,trial_left_image,1,exp2.png,4,exp2.png,exp1.png,1,1,non-reversed,correct,0.884280531280242,1,valid_win,116.54780440032482,6,,,,,,,,,,,,,,,,sub_028,2022-12-08_12h07.33.540,Reversal,2022.1.2,60.047257033834065,4,
13,exp3.png,exp4.png,,0,0,0,0,0,13,13,13,,,,,,,,,,,,,,,,,,,,,,,,,False,12,13,False,exp3.png,exp4.png,trial_right_image,-1,exp4.png,4,exp4.png,exp3.png,1,3,reversed,correct,0.5520449299483349,1,valid_win,121.43104740045965,7,,,,,,,,,,,,,,,,sub_028,2022-12-08_12h07.33.540,Reversal,2022.1.2,60.047257033834065,4,
14,exp1.png,exp2.png,,0,0,0,0,0,14,14,14,,,,,,,,,,,,,,,,,,,,,,,,,False,13,14,True,exp2.png,exp1.png,trial_left_image,1,exp2.png,4,exp2.png,exp1.png,1,1,non-reversed,correct,0.24003943653044424,0,invalid_lose,130.84761380031705,7,,,,,,,,,,,,,,,,sub_028,2022-12-08_12h07.33.540,Reversal,2022.1.2,60.047257033834065,4,
15,exp3.png,exp4.png,,0,0,0,0,0,15,15,15,,,,,,,,,,,,,,,,,,,,,,,,,False,14,15,False,exp3.png,exp4.png,trial_right_image,-1,exp4.png,4,exp4.png,exp3.png,1,3,reversed,correct,0.2677743657271574,1,valid_win,136.23084530048072,8,,,,,,,,,,,,,,,,sub_028,2022-12-08_12h07.33.540,Reversal,2022.1.2,60.047257033834065,4,
16,exp1.png,exp2.png,,0,0,0,0,0,16,16,16,,,,,,,,,,,,,,,,,,,,,,,,,False,15,16,True,exp2.png,exp1.png,trial_left_image,1,exp2.png,4,exp2.png,exp1.png,1,1,non-reversed,correct,0.13120256732766722,0,invalid_lose,145.180903499946,8,,,,,,,,,,,,,,,,sub_028,2022-12-08_12h07.33.540,Reversal,2022.1.2,60.047257033834065,4,
17,exp3.png,exp4.png,,0,0,0,0,0,17,17,17,,,,,,,,,,,,,,,,,,,,,,,,,False,16,17,True,exp4.png,exp3.png,trial_left_image,1,exp4.png,4,exp4.png,exp3.png,1,3,reversed,correct,0.6866909947862091,1,valid_win,152.26434850040823,9,,,,,,,,,,,,,,,,sub_028,2022-12-08_12h07.33.540,Reversal,2022.1.2,60.047257033834065,4,
18,exp1.png,exp2.png,,0,0,0,0,0,18,18,18,,,,,,,,,,,,,,,,,,,,,,,,,False,17,18,True,exp2.png,exp1.png,trial_right_image,-1,exp1.png,4,exp2.png,exp1.png,0,2,non-reversed,incorrect,0.6651990684001625,0,valid_lose,157.86387099977583,9,,,,,,,,,,,,,,,,sub_028,2022-12-08_12h07.33.540,Reversal,2022.1.2,60.047257033834065,4,
19,exp3.png,exp4.png,,0,0,0,0,0,19,19,19,,,,,,,,,,,,,,,,,,,,,,,,,False,18,19,True,exp4.png,exp3.png,trial_left_image,1,exp4.png,4,exp4.png,exp3.png,1,3,reversed,correct,0.5324061775428215,1,valid_win,167.63155040051788,10,,,,,,,,,,,,,,,,sub_028,2022-12-08_12h07.33.540,Reversal,2022.1.2,60.047257033834065,4,
20,exp1.png,exp2.png,,0,0,0,0,0,20,20,20,,,,,,,,,,,,,,,,,,,,,,,,,False,19,20,False,exp1.png,exp2.png,trial_right_image,-1,exp2.png,4,exp2.png,exp1.png,1,1,non-reversed,correct,0.45904422120481114,1,valid_win,173.38054070062935,11,,,,,,,,,,,,,,,,sub_028,2022-12-08_12h07.33.540,Reversal,2022.1.2,60.047257033834065,4,
,,,exp1.png,0,0,0,0,,,,,0,0,0,0,0,0,0,0,,,,,,,,,,,,,,,,,,,,,,,,,,,,,,,,,,,,,,54.0,54.0,37.47632979974151,"[(49.0, 15.375523299910128), (54.0, 37.47632979974151)]",280.52308840025216,None,,,,,,,,,,sub_028,2022-12-08_12h07.33.540,Reversal,2022.1.2,60.047257033834065,4,
,,,exp2.png,0,0,0,0,,,,,0,0,0,0,0,1,1,1,,,,,,,,,,,,,,,,,,,,,,,,,,,,,,,,,,,,,,,78.0,5.000702300108969,"[(78.0, 5.000702300108969)]",321.19297309964895,None,78.0,,,,,,,,,sub_028,2022-12-08_12h07.33.540,Reversal,2022.1.2,60.047257033834065,4,
,,,exp3.png,0,0,0,0,,,,,0,0,0,0,0,2,2,2,,,,,,,,,,,,,,,,,,,,,,,,,,,,,,,,,,,,,,,36.0,5.284194199368358,"[(36.0, 5.284194199368358)]",327.1884677996859,None,,36.0,,,,,,,,sub_028,2022-12-08_12h07.33.540,Reversal,2022.1.2,60.047257033834065,4,
,,,exp4.png,0,0,0,0,,,,,0,0,0,0,0,3,3,3,,,,,,,,,,,,,,,,,,,,,,,,,,,,,,,,,,,,,,,59.0,9.349499500356615,"[(59.0, 9.349499500356615)]",333.6429433999583,None,,,59.0,,,,,,,sub_028,2022-12-08_12h07.33.540,Reversal,2022.1.2,60.047257033834065,4,
0,exp1.png,exp2.png,,1,0,1,0,0,0,0,0,,,,,,,,,,,,,,,,,,,,,,,,,True,,,,,,,,,,,,,,,,,,,,,,,,,,,,,,,,,,,,sub_028,2022-12-08_12h07.33.540,Reversal,2022.1.2,60.047257033834065,4,
1,exp3.png,exp4.png,,1,0,1,0,0,1,1,1,,,,,,,,,,,,,,,,,,,,,,,,,False,20,21,True,exp4.png,exp3.png,trial_left_image,1,exp4.png,4,exp4.png,exp3.png,1,3,reversed,correct,0.71806129310174,1,valid_win,245.71250370051712,12,,,,,,,,,,,,,,,,sub_028,2022-12-08_12h07.33.540,Reversal,2022.1.2,60.047257033834065,4,
2,exp1.png,exp2.png,,1,0,1,0,0,2,2,2,,,,,,,,,,,,,,,,,,,,,,,,,False,21,22,True,exp2.png,exp1.png,trial_right_image,-1,exp1.png,4,exp2.png,exp1.png,0,2,non-reversed,incorrect,0.560109649122994,0,valid_lose,251.3456116002053,12,,,,,,,,,,,,,,,,sub_028,2022-12-08_12h07.33.540,Reversal,2022.1.2,60.047257033834065,4,
3,exp3.png,exp4.png,,1,0,1,0,0,3,3,3,,,,,,,,,,,,,,,,,,,,,,,,,False,22,23,True,exp4.png,exp3.png,trial_left_image,1,exp4.png,4,exp4.png,exp3.png,1,3,reversed,correct,0.35245223058103936,1,valid_win,258.0121750002727,13,,,,,,,,,,,,,,,,sub_028,2022-12-08_12h07.33.540,Reversal,2022.1.2,60.047257033834065,4,
4,exp1.png,exp2.png,,1,0,1,0,0,4,4,4,,,,,,,,,,,,,,,,,,,,,,,,,False,23,24,False,exp1.png,exp2.png,trial_right_image,-1,exp2.png,4,exp2.png,exp1.png,1,1,non-reversed,correct,0.8960651862559044,1,valid_win,271.4284142004326,14,,,,,,,,,,,,,,,,sub_028,2022-12-08_12h07.33.540,Reversal,2022.1.2,60.047257033834065,4,
5,exp3.png,exp4.png,,1,0,1,0,0,5,5,5,,,,,,,,,,,,,,,,,,,,,,,,,False,24,25,False,exp3.png,exp4.png,trial_right_image,-1,exp4.png,4,exp4.png,exp3.png,1,3,reversed,correct,0.19835630059364506,0,invalid_lose,278.4953762004152,14,,,,,,,,,,,,,,,,sub_028,2022-12-08_12h07.33.540,Reversal,2022.1.2,60.047257033834065,4,
6,exp1.png,exp2.png,,1,0,1,0,0,6,6,6,,,,,,,,,,,,,,,,,,,,,,,,,False,25,26,False,exp1.png,exp2.png,trial_right_image,-1,exp2.png,4,exp2.png,exp1.png,1,1,non-reversed,correct,0.2594453806370771,1,valid_win,283.195411500521,15,,,,,,,,,,,,,,,,sub_028,2022-12-08_12h07.33.540,Reversal,2022.1.2,60.047257033834065,4,
7,exp3.png,exp4.png,,1,0,1,0,0,7,7,7,,,,,,,,,,,,,,,,,,,,,,,,,False,26,27,True,exp4.png,exp3.png,trial_right_image,-1,exp3.png,4,exp4.png,exp3.png,0,4,reversed,incorrect,0.0703352006387159,1,invalid_win,290.227996500209,16,,,,,,,,,,,,,,,,sub_028,2022-12-08_12h07.33.540,Reversal,2022.1.2,60.047257033834065,4,
8,exp1.png,exp2.png,,1,0,1,0,0,8,8,8,,,,,,,,,,,,,,,,,,,,,,,,,False,27,28,False,exp1.png,exp2.png,trial_right_image,-1,exp2.png,4,exp2.png,exp1.png,1,1,non-reversed,correct,0.7120361220639408,1,valid_win,296.7114206003025,17,,,,,,,,,,,,,,,,sub_028,2022-12-08_12h07.33.540,Reversal,2022.1.2,60.047257033834065,4,
9,exp3.png,exp4.png,,1,0,1,0,0,9,9,9,,,,,,,,,,,,,,,,,,,,,,,,,False,28,29,False,exp3.png,exp4.png,trial_right_image,-1,exp4.png,4,exp4.png,exp3.png,1,3,reversed,correct,0.11864951125736922,0,invalid_lose,308.3286619000137,17,,,,,,,,,,,,,,,,sub_028,2022-12-08_12h07.33.540,Reversal,2022.1.2,60.047257033834065,4,
10,exp1.png,exp2.png,,1,0,1,0,0,10,10,10,,,,,,,,,,,,,,,,,,,,,,,,,False,29,30,False,exp1.png,exp2.png,trial_right_image,-1,exp2.png,4,exp2.png,exp1.png,1,1,non-reversed,correct,0.16292149767516084,0,invalid_lose,312.99533880036324,17,,,,,,,,,,,,,,,,sub_028,2022-12-08_12h07.33.540,Reversal,2022.1.2,60.047257033834065,4,
11,exp3.png,exp4.png,,1,0,1,0,0,11,11,11,,,,,,,,,,,,,,,,,,,,,,,,,False,30,31,False,exp3.png,exp4.png,trial_right_image,-1,exp4.png,4,exp4.png,exp3.png,1,3,reversed,correct,0.4044558877365989,1,valid_win,318.0786186000332,18,,,,,,,,,,,,,,,,sub_028,2022-12-08_12h07.33.540,Reversal,2022.1.2,60.047257033834065,4,
12,exp1.png,exp2.png,,1,0,1,0,0,12,12,12,,,,,,,,,,,,,,,,,,,,,,,,,False,31,32,False,exp1.png,exp2.png,trial_left_image,1,exp1.png,4,exp2.png,exp1.png,0,2,non-reversed,incorrect,0.9105335697695958,0,valid_lose,325.47872680053115,18,,,,,,,,,,,,,,,,sub_028,2022-12-08_12h07.33.540,Reversal,2022.1.2,60.047257033834065,4,
13,exp3.png,exp4.png,,1,0,1,0,0,13,13,13,,,,,,,,,,,,,,,,,,,,,,,,,False,32,33,True,exp4.png,exp3.png,trial_left_image,1,exp4.png,4,exp4.png,exp3.png,1,3,reversed,correct,0.10110241574492218,0,invalid_lose,330.3273196006194,18,,,,,,,,,,,,,,,,sub_028,2022-12-08_12h07.33.540,Reversal,2022.1.2,60.047257033834065,4,
14,exp1.png,exp2.png,,1,0,1,0,0,14,14,14,,,,,,,,,,,,,,,,,,,,,,,,,False,33,34,True,exp2.png,exp1.png,trial_left_image,1,exp2.png,4,exp2.png,exp1.png,1,1,non-reversed,correct,0.38594094354336106,1,valid_win,336.14409800060093,19,,,,,,,,,,,,,,,,sub_028,2022-12-08_12h07.33.540,Reversal,2022.1.2,60.047257033834065,4,
15,exp3.png,exp4.png,,1,0,1,0,0,15,15,15,,,,,,,,,,,,,,,,,,,,,,,,,False,34,35,True,exp4.png,exp3.png,trial_right_image,-1,exp3.png,4,exp4.png,exp3.png,0,4,reversed,incorrect,0.9240754161769742,0,valid_lose,341.14400460012257,19,,,,,,,,,,,,,,,,sub_028,2022-12-08_12h07.33.540,Reversal,2022.1.2,60.047257033834065,4,
16,exp1.png,exp2.png,,1,0,1,0,0,16,16,16,,,,,,,,,,,,,,,,,,,,,,,,,False,35,36,True,exp2.png,exp1.png,trial_left_image,1,exp2.png,4,exp2.png,exp1.png,1,1,non-reversed,correct,0.5907981761221576,1,valid_win,346.4442707002163,20,,,,,,,,,,,,,,,,sub_028,2022-12-08_12h07.33.540,Reversal,2022.1.2,60.047257033834065,4,
17,exp3.png,exp4.png,,1,0,1,0,0,17,17,17,,,,,,,,,,,,,,,,,,,,,,,,,False,36,37,False,exp3.png,exp4.png,trial_right_image,-1,exp4.png,4,exp4.png,exp3.png,1,3,reversed,correct,0.49826288628306137,1,valid_win,350.9936279002577,21,,,,,,,,,,,,,,,,sub_028,2022-12-08_12h07.33.540,Reversal,2022.1.2,60.047257033834065,4,
18,exp1.png,exp2.png,,1,0,1,0,0,18,18,18,,,,,,,,,,,,,,,,,,,,,,,,,False,37,38,True,exp2.png,exp1.png,trial_right_image,-1,exp1.png,4,exp2.png,exp1.png,0,2,non-reversed,incorrect,0.7016113099808126,0,valid_lose,356.2938020005822,21,,,,,,,,,,,,,,,,sub_028,2022-12-08_12h07.33.540,Reversal,2022.1.2,60.047257033834065,4,
19,exp3.png,exp4.png,,1,0,1,0,0,19,19,19,,,,,,,,,,,,,,,,,,,,,,,,,False,38,39,False,exp3.png,exp4.png,trial_right_image,-1,exp4.png,4,exp4.png,exp3.png,1,3,reversed,correct,0.086259461033384,0,invalid_lose,373.2441336000338,21,,,,,,,,,,,,,,,,sub_028,2022-12-08_12h07.33.540,Reversal,2022.1.2,60.047257033834065,4,
20,exp1.png,exp2.png,,1,0,1,0,0,20,20,20,,,,,,,,,,,,,,,,,,,,,,,,,False,39,40,True,exp2.png,exp1.png,trial_left_image,1,exp2.png,4,exp2.png,exp1.png,1,1,non-reversed,correct,0.71009214593743,1,valid_win,378.0932494997978,22,,,,,,,,,,,,,,,,sub_028,2022-12-08_12h07.33.540,Reversal,2022.1.2,60.047257033834065,4,
,,,exp1.png,1,0,1,0,,,,,0,0,0,0,0,0,0,0,,,,,,,,,,,,,,,,,,,,,,,,,,,,,,,,,,,,,,38.0,38.0,6.615378599613905,"[(38.0, 6.615378599613905)]",485.23593549989164,None,,,,,,,,,,sub_028,2022-12-08_12h07.33.540,Reversal,2022.1.2,60.047257033834065,4,
,,,exp2.png,1,0,1,0,,,,,0,0,0,0,0,1,1,1,,,,,,,,,,,,,,,,,,,,,,,,,,,,,,,,,,,,,,,62.0,6.13552310038358,"[(62.0, 6.13552310038358)]",493.0302496002987,None,62.0,,,,,,,,,sub_028,2022-12-08_12h07.33.540,Reversal,2022.1.2,60.047257033834065,4,
,,,exp3.png,1,0,1,0,,,,,0,0,0,0,0,2,2,2,,,,,,,,,,,,,,,,,,,,,,,,,,,,,,,,,,,,,,,50.0,None,[],500.1347551001236,None,,,,,,,,,,sub_028,2022-12-08_12h07.33.540,Reversal,2022.1.2,60.047257033834065,4,
,,,exp4.png,1,0,1,0,,,,,0,0,0,0,0,3,3,3,,,,,,,,,,,,,,,,,,,,,,,,,,,,,,,,,,,,,,,64.0,3.683613200671971,"[(64.0, 3.683613200671971)]",506.7673816001043,None,,,64.0,,,,,,,sub_028,2022-12-08_12h07.33.540,Reversal,2022.1.2,60.047257033834065,4,
0,exp1.png,exp2.png,,2,0,2,0,0,0,0,0,,,,,,,,,,,,,,,,,,,,,,,,,True,,,,,,,,,,,,,,,,,,,,,,,,,,,,,,,,,,,,sub_028,2022-12-08_12h07.33.540,Reversal,2022.1.2,60.047257033834065,4,
1,exp3.png,exp4.png,,2,0,2,0,0,1,1,1,,,,,,,,,,,,,,,,,,,,,,,,,False,40,41,True,exp4.png,exp3.png,trial_left_image,1,exp4.png,4,exp4.png,exp3.png,1,3,reversed,correct,0.07908025222897352,0,invalid_lose,410.976187299937,22,,,,,,,,,,,,,,,,sub_028,2022-12-08_12h07.33.540,Reversal,2022.1.2,60.047257033834065,4,
2,exp1.png,exp2.png,,2,0,2,0,0,2,2,2,,,,,,,,,,,,,,,,,,,,,,,,,False,41,42,False,exp1.png,exp2.png,trial_right_image,-1,exp2.png,4,exp2.png,exp1.png,1,1,non-reversed,correct,0.025370353384681632,0,invalid_lose,415.72555739991367,22,,,,,,,,,,,,,,,,sub_028,2022-12-08_12h07.33.540,Reversal,2022.1.2,60.047257033834065,4,
3,exp3.png,exp4.png,,2,0,2,0,0,3,3,3,,,,,,,,,,,,,,,,,,,,,,,,,False,42,43,False,exp3.png,exp4.png,trial_right_image,-1,exp4.png,4,exp4.png,exp3.png,1,3,reversed,correct,0.2912601893292013,1,valid_win,420.22619630023837,23,,,,,,,,,,,,,,,,sub_028,2022-12-08_12h07.33.540,Reversal,2022.1.2,60.047257033834065,4,
4,exp1.png,exp2.png,,2,0,2,0,0,4,4,4,,,,,,,,,,,,,,,,,,,,,,,,,False,43,44,False,exp1.png,exp2.png,trial_left_image,1,exp1.png,4,exp2.png,exp1.png,0,2,non-reversed,incorrect,0.8722336796555454,0,valid_lose,427.72569940052927,23,,,,,,,,,,,,,,,,sub_028,2022-12-08_12h07.33.540,Reversal,2022.1.2,60.047257033834065,4,
5,exp3.png,exp4.png,,2,0,2,0,0,5,5,5,,,,,,,,,,,,,,,,,,,,,,,,,False,44,45,True,exp4.png,exp3.png,trial_left_image,1,exp4.png,4,exp4.png,exp3.png,1,3,reversed,correct,0.6316010950904977,1,valid_win,432.3427488999441,24,,,,,,,,,,,,,,,,sub_028,2022-12-08_12h07.33.540,Reversal,2022.1.2,60.047257033834065,4,
6,exp1.png,exp2.png,,2,0,2,0,0,6,6,6,,,,,,,,,,,,,,,,,,,,,,,,,False,45,46,False,exp1.png,exp2.png,trial_right_image,-1,exp2.png,4,exp2.png,exp1.png,1,1,non-reversed,correct,0.0457666396086116,0,invalid_lose,436.8423003004864,24,,,,,,,,,,,,,,,,sub_028,2022-12-08_12h07.33.540,Reversal,2022.1.2,60.047257033834065,4,
7,exp3.png,exp4.png,,2,0,2,0,0,7,7,7,,,,,,,,,,,,,,,,,,,,,,,,,False,46,47,True,exp4.png,exp3.png,trial_left_image,1,exp4.png,4,exp4.png,exp3.png,1,3,reversed,correct,0.7863118573865723,1,valid_win,441.8250577002764,25,,,,,,,,,,,,,,,,sub_028,2022-12-08_12h07.33.540,Reversal,2022.1.2,60.047257033834065,4,
8,exp1.png,exp2.png,,2,0,2,0,0,8,8,8,,,,,,,,,,,,,,,,,,,,,,,,,False,47,48,False,exp1.png,exp2.png,trial_right_image,-1,exp2.png,4,exp2.png,exp1.png,1,1,non-reversed,correct,0.7671364713955341,1,valid_win,461.22672810032964,26,,,,,,,,,,,,,,,,sub_028,2022-12-08_12h07.33.540,Reversal,2022.1.2,60.047257033834065,4,
9,exp3.png,exp4.png,,2,0,2,0,0,9,9,9,,,,,,,,,,,,,,,,,,,,,,,,,False,48,49,True,exp4.png,exp3.png,trial_left_image,1,exp4.png,4,exp4.png,exp3.png,1,3,reversed,correct,0.04850302417847141,0,invalid_lose,466.9418085999787,26,,,,,,,,,,,,,,,,sub_028,2022-12-08_12h07.33.540,Reversal,2022.1.2,60.047257033834065,4,
10,exp1.png,exp2.png,,2,0,2,0,0,10,10,10,,,,,,,,,,,,,,,,,,,,,,,,,False,49,50,False,exp1.png,exp2.png,trial_right_image,-1,exp2.png,4,exp2.png,exp1.png,1,1,non-reversed,correct,0.3806236821531044,1,valid_win,471.6750536002219,27,,,,,,,,,,,,,,,,sub_028,2022-12-08_12h07.33.540,Reversal,2022.1.2,60.047257033834065,4,
11,exp3.png,exp4.png,,2,0,2,0,0,11,11,11,,,,,,,,,,,,,,,,,,,,,,,,,False,50,51,True,exp4.png,exp3.png,trial_left_image,1,exp4.png,4,exp4.png,exp3.png,1,3,reversed,correct,0.8628259377279476,1,valid_win,476.6746417004615,28,,,,,,,,,,,,,,,,sub_028,2022-12-08_12h07.33.540,Reversal,2022.1.2,60.047257033834065,4,
12,exp1.png,exp2.png,,2,0,2,0,0,12,12,12,,,,,,,,,,,,,,,,,,,,,,,,,False,51,52,False,exp1.png,exp2.png,trial_left_image,1,exp1.png,4,exp2.png,exp1.png,0,2,non-reversed,incorrect,0.7180664205724954,0,valid_lose,482.1915250001475,28,,,,,,,,,,,,,,,,sub_028,2022-12-08_12h07.33.540,Reversal,2022.1.2,60.047257033834065,4,
13,exp3.png,exp4.png,,2,0,2,0,0,13,13,13,,,,,,,,,,,,,,,,,,,,,,,,,False,52,53,True,exp4.png,exp3.png,trial_left_image,1,exp4.png,4,exp4.png,exp3.png,1,3,reversed,correct,0.6639344199995588,1,valid_win,486.7077365005389,29,,,,,,,,,,,,,,,,sub_028,2022-12-08_12h07.33.540,Reversal,2022.1.2,60.047257033834065,4,
14,exp1.png,exp2.png,,2,0,2,0,0,14,14,14,,,,,,,,,,,,,,,,,,,,,,,,,False,53,54,True,exp2.png,exp1.png,trial_right_image,-1,exp1.png,4,exp2.png,exp1.png,0,2,non-reversed,incorrect,0.338947141995403,0,valid_lose,495.74114880058914,29,,,,,,,,,,,,,,,,sub_028,2022-12-08_12h07.33.540,Reversal,2022.1.2,60.047257033834065,4,
15,exp3.png,exp4.png,,2,0,2,0,0,15,15,15,,,,,,,,,,,,,,,,,,,,,,,,,False,54,55,False,exp3.png,exp4.png,trial_right_image,-1,exp4.png,4,exp4.png,exp3.png,1,3,reversed,correct,0.8709892975359429,1,valid_win,502.35881440062076,30,,,,,,,,,,,,,,,,sub_028,2022-12-08_12h07.33.540,Reversal,2022.1.2,60.047257033834065,4,
16,exp1.png,exp2.png,,2,0,2,0,0,16,16,16,,,,,,,,,,,,,,,,,,,,,,,,,False,55,56,True,exp2.png,exp1.png,trial_right_image,-1,exp1.png,4,exp2.png,exp1.png,0,2,non-reversed,incorrect,0.5800814566343474,0,valid_lose,514.457558600232,30,,,,,,,,,,,,,,,,sub_028,2022-12-08_12h07.33.540,Reversal,2022.1.2,60.047257033834065,4,
17,exp3.png,exp4.png,,2,0,2,0,0,17,17,17,,,,,,,,,,,,,,,,,,,,,,,,,False,56,57,True,exp4.png,exp3.png,trial_left_image,1,exp4.png,4,exp4.png,exp3.png,1,3,reversed,correct,0.0017714876662792145,0,invalid_lose,519.107280000113,30,,,,,,,,,,,,,,,,sub_028,2022-12-08_12h07.33.540,Reversal,2022.1.2,60.047257033834065,4,
18,exp1.png,exp2.png,,2,0,2,0,0,18,18,18,,,,,,,,,,,,,,,,,,,,,,,,,False,57,58,False,exp1.png,exp2.png,trial_right_image,-1,exp2.png,4,exp2.png,exp1.png,1,1,non-reversed,correct,0.581567170146513,1,valid_win,523.3233471000567,31,,,,,,,,,,,,,,,,sub_028,2022-12-08_12h07.33.540,Reversal,2022.1.2,60.047257033834065,4,
19,exp3.png,exp4.png,,2,0,2,0,0,19,19,19,,,,,,,,,,,,,,,,,,,,,,,,,False,58,59,True,exp4.png,exp3.png,trial_right_image,-1,exp3.png,4,exp4.png,exp3.png,0,4,reversed,incorrect,0.3631160210788089,0,valid_lose,528.890738800168,31,,,,,,,,,,,,,,,,sub_028,2022-12-08_12h07.33.540,Reversal,2022.1.2,60.047257033834065,4,
20,exp1.png,exp2.png,,2,0,2,0,0,20,20,20,,,,,,,,,,,,,,,,,,,,,,,,,False,59,60,False,exp1.png,exp2.png,trial_right_image,-1,exp2.png,4,exp2.png,exp1.png,1,1,non-reversed,correct,0.5005434166775296,1,valid_win,533.1236910000443,32,,,,,,,,,,,,,,,,sub_028,2022-12-08_12h07.33.540,Reversal,2022.1.2,60.047257033834065,4,
,,,exp1.png,2,0,2,0,,,,,0,0,0,0,0,0,0,0,,,,,,,,,,,,,,,,,,,,,,,,,,,,,,,,,,,,,,,50.0,None,[],640.2682518996298,None,,,,,,,,,,sub_028,2022-12-08_12h07.33.540,Reversal,2022.1.2,60.047257033834065,4,
,,,exp2.png,2,0,2,0,,,,,0,0,0,0,0,1,1,1,,,,,,,,,,,,,,,,,,,,,,,,,,,,,,,,,,,,,,,57.0,4.5985356997698545,"[(57.0, 4.5985356997698545)]",646.3149052998051,None,57.0,,,,,,,,,sub_028,2022-12-08_12h07.33.540,Reversal,2022.1.2,60.047257033834065,4,
,,,exp3.png,2,0,2,0,,,,,0,0,0,0,0,2,2,2,,,,,,,,,,,,,,,,,,,,,,,,,,,,,,,,,,,,,,,44.0,9.335421899333596,"[(44.0, 9.335421899333596)]",651.866796599701,None,,44.0,,,,,,,,sub_028,2022-12-08_12h07.33.540,Reversal,2022.1.2,60.047257033834065,4,
,,,exp4.png,2,0,2,0,,,,,0,0,0,0,0,3,3,3,,,,,,,,,,,,,,,,,,,,,,,,,,,,,,,,,,,,,,,50.0,None,[],662.1378558995202,None,,,,,,,,,,sub_028,2022-12-08_12h07.33.540,Reversal,2022.1.2,60.047257033834065,4,
0,exp1.png,exp2.png,,3,0,3,0,0,0,0,0,,,,,,,,,,,,,,,,,,,,,,,,,True,,,,,,,,,,,,,,,,,,,,,,,,,,,,,,,,,,,,sub_028,2022-12-08_12h07.33.540,Reversal,2022.1.2,60.047257033834065,4,
1,exp3.png,exp4.png,,3,0,3,0,0,1,1,1,,,,,,,,,,,,,,,,,,,,,,,,,False,60,61,True,exp4.png,exp3.png,trial_left_image,1,exp4.png,4,exp4.png,exp3.png,1,3,reversed,correct,0.3406316064341419,1,valid_win,564.6395329004154,33,,,,,,,,,,,,,,,,sub_028,2022-12-08_12h07.33.540,Reversal,2022.1.2,60.047257033834065,4,
2,exp1.png,exp2.png,,3,0,3,0,0,2,2,2,,,,,,,,,,,,,,,,,,,,,,,,,False,61,62,False,exp1.png,exp2.png,trial_left_image,1,exp1.png,4,exp2.png,exp1.png,0,2,non-reversed,incorrect,0.7379574022539381,0,valid_lose,576.4393495004624,33,,,,,,,,,,,,,,,,sub_028,2022-12-08_12h07.33.540,Reversal,2022.1.2,60.047257033834065,4,
3,exp3.png,exp4.png,,3,0,3,0,0,3,3,3,,,,,,,,,,,,,,,,,,,,,,,,,False,62,63,True,exp4.png,exp3.png,trial_left_image,1,exp4.png,4,exp4.png,exp3.png,1,3,reversed,correct,0.4348483373182431,1,valid_win,582.7231179997325,34,,,,,,,,,,,,,,,,sub_028,2022-12-08_12h07.33.540,Reversal,2022.1.2,60.047257033834065,4,
4,exp1.png,exp2.png,,3,0,3,0,0,4,4,4,,,,,,,,,,,,,,,,,,,,,,,,,False,63,64,True,exp2.png,exp1.png,trial_left_image,1,exp2.png,4,exp2.png,exp1.png,1,1,non-reversed,correct,0.4299863652360306,1,valid_win,588.6060244999826,35,,,,,,,,,,,,,,,,sub_028,2022-12-08_12h07.33.540,Reversal,2022.1.2,60.047257033834065,4,
5,exp3.png,exp4.png,,3,0,3,0,0,5,5,5,,,,,,,,,,,,,,,,,,,,,,,,,False,64,65,False,exp3.png,exp4.png,trial_left_image,1,exp3.png,4,exp4.png,exp3.png,0,4,reversed,incorrect,0.35805164380383214,0,valid_lose,593.8060849001631,35,,,,,,,,,,,,,,,,sub_028,2022-12-08_12h07.33.540,Reversal,2022.1.2,60.047257033834065,4,
6,exp1.png,exp2.png,,3,0,3,0,0,6,6,6,,,,,,,,,,,,,,,,,,,,,,,,,False,65,66,False,exp1.png,exp2.png,trial_right_image,-1,exp2.png,4,exp2.png,exp1.png,1,1,non-reversed,correct,0.2984250325533232,1,valid_win,598.2556106001139,36,,,,,,,,,,,,,,,,sub_028,2022-12-08_12h07.33.540,Reversal,2022.1.2,60.047257033834065,4,
7,exp3.png,exp4.png,,3,0,3,0,0,7,7,7,,,,,,,,,,,,,,,,,,,,,,,,,False,66,67,False,exp3.png,exp4.png,trial_right_image,-1,exp4.png,4,exp4.png,exp3.png,1,3,reversed,correct,0.5669951365727518,1,valid_win,602.4887928003445,37,,,,,,,,,,,,,,,,sub_028,2022-12-08_12h07.33.540,Reversal,2022.1.2,60.047257033834065,4,
8,exp1.png,exp2.png,,3,0,3,0,0,8,8,8,,,,,,,,,,,,,,,,,,,,,,,,,False,67,68,True,exp2.png,exp1.png,trial_right_image,-1,exp1.png,4,exp2.png,exp1.png,0,2,non-reversed,incorrect,0.15146221345504263,1,invalid_win,610.4556154999882,38,,,,,,,,,,,,,,,,sub_028,2022-12-08_12h07.33.540,Reversal,2022.1.2,60.047257033834065,4,
9,exp3.png,exp4.png,,3,0,3,0,0,9,9,9,,,,,,,,,,,,,,,,,,,,,,,,,False,68,69,False,exp3.png,exp4.png,trial_right_image,-1,exp4.png,4,exp4.png,exp3.png,1,3,reversed,correct,0.11216009152730588,0,invalid_lose,617.5558949997649,38,,,,,,,,,,,,,,,,sub_028,2022-12-08_12h07.33.540,Reversal,2022.1.2,60.047257033834065,4,
10,exp1.png,exp2.png,,3,0,3,0,0,10,10,10,,,,,,,,,,,,,,,,,,,,,,,,,False,69,70,False,exp1.png,exp2.png,trial_right_image,-1,exp2.png,4,exp2.png,exp1.png,1,1,non-reversed,correct,0.6319255851426617,1,valid_win,625.1553270006552,39,,,,,,,,,,,,,,,,sub_028,2022-12-08_12h07.33.540,Reversal,2022.1.2,60.047257033834065,4,
11,exp3.png,exp4.png,,3,0,3,0,0,11,11,11,,,,,,,,,,,,,,,,,,,,,,,,,False,70,71,True,exp4.png,exp3.png,trial_left_image,1,exp4.png,4,exp4.png,exp3.png,1,3,reversed,correct,0.5248629489415277,1,valid_win,629.821720900014,40,,,,,,,,,,,,,,,,sub_028,2022-12-08_12h07.33.540,Reversal,2022.1.2,60.047257033834065,4,
12,exp1.png,exp2.png,,3,0,3,0,0,12,12,12,,,,,,,,,,,,,,,,,,,,,,,,,False,71,72,False,exp1.png,exp2.png,trial_left_image,1,exp1.png,4,exp2.png,exp1.png,0,2,non-reversed,incorrect,0.11618653433348702,1,invalid_win,634.3048597006127,41,,,,,,,,,,,,,,,,sub_028,2022-12-08_12h07.33.540,Reversal,2022.1.2,60.047257033834065,4,
13,exp3.png,exp4.png,,3,0,3,0,0,13,13,13,,,,,,,,,,,,,,,,,,,,,,,,,False,72,73,False,exp3.png,exp4.png,trial_left_image,1,exp3.png,4,exp4.png,exp3.png,0,4,reversed,incorrect,0.9598945421392086,0,valid_lose,638.8719008006155,41,,,,,,,,,,,,,,,,sub_028,2022-12-08_12h07.33.540,Reversal,2022.1.2,60.047257033834065,4,
14,exp1.png,exp2.png,,3,0,3,0,0,14,14,14,,,,,,,,,,,,,,,,,,,,,,,,,False,73,74,False,exp1.png,exp2.png,trial_right_image,-1,exp2.png,4,exp2.png,exp1.png,1,1,non-reversed,correct,0.3206582768313836,1,valid_win,643.6216294001788,42,,,,,,,,,,,,,,,,sub_028,2022-12-08_12h07.33.540,Reversal,2022.1.2,60.047257033834065,4,
15,exp3.png,exp4.png,,3,0,3,0,0,15,15,15,,,,,,,,,,,,,,,,,,,,,,,,,False,74,75,True,exp4.png,exp3.png,trial_left_image,1,exp4.png,4,exp4.png,exp3.png,1,3,reversed,correct,0.6418167813142477,1,valid_win,648.0882000001147,43,,,,,,,,,,,,,,,,sub_028,2022-12-08_12h07.33.540,Reversal,2022.1.2,60.047257033834065,4,
16,exp1.png,exp2.png,,3,0,3,0,0,16,16,16,,,,,,,,,,,,,,,,,,,,,,,,,False,75,76,True,exp2.png,exp1.png,trial_right_image,-1,exp1.png,4,exp2.png,exp1.png,0,2,non-reversed,incorrect,0.17854611711556545,1,invalid_win,654.8380856998265,44,,,,,,,,,,,,,,,,sub_028,2022-12-08_12h07.33.540,Reversal,2022.1.2,60.047257033834065,4,
17,exp3.png,exp4.png,,3,0,3,0,0,17,17,17,,,,,,,,,,,,,,,,,,,,,,,,,False,76,77,True,exp4.png,exp3.png,trial_right_image,-1,exp3.png,4,exp4.png,exp3.png,0,4,reversed,incorrect,0.7583207823679949,0,valid_lose,660.3047449002042,44,,,,,,,,,,,,,,,,sub_028,2022-12-08_12h07.33.540,Reversal,2022.1.2,60.047257033834065,4,
18,exp1.png,exp2.png,,3,0,3,0,0,18,18,18,,,,,,,,,,,,,,,,,,,,,,,,,False,77,78,False,exp1.png,exp2.png,trial_right_image,-1,exp2.png,4,exp2.png,exp1.png,1,1,non-reversed,correct,0.7824706175936933,1,valid_win,666.6717205997556,45,,,,,,,,,,,,,,,,sub_028,2022-12-08_12h07.33.540,Reversal,2022.1.2,60.047257033834065,4,
19,exp3.png,exp4.png,,3,0,3,0,0,19,19,19,,,,,,,,,,,,,,,,,,,,,,,,,False,78,79,True,exp4.png,exp3.png,trial_left_image,1,exp4.png,4,exp4.png,exp3.png,1,3,reversed,correct,0.027768643357067746,0,invalid_lose,671.0542911998928,45,,,,,,,,,,,,,,,,sub_028,2022-12-08_12h07.33.540,Reversal,2022.1.2,60.047257033834065,4,
20,exp1.png,exp2.png,,3,0,3,0,0,20,20,20,,,,,,,,,,,,,,,,,,,,,,,,,False,79,80,True,exp2.png,exp1.png,trial_left_image,1,exp2.png,4,exp2.png,exp1.png,1,1,non-reversed,correct,0.9490523520404557,1,valid_win,677.004381400533,46,,,,,,,,,,,,,,,,sub_028,2022-12-08_12h07.33.540,Reversal,2022.1.2,60.047257033834065,4,
,,,exp1.png,3,0,3,0,,,,,0,0,0,0,0,0,0,0,,,,,,,,,,,,,,,,,,,,,,,,,,,,,,,,,,,,,,56.0,56.0,11.298422100022435,"[(56.0, 11.298422100022435)]",784.1482103997841,None,,,,,,,,,,sub_028,2022-12-08_12h07.33.540,Reversal,2022.1.2,60.047257033834065,4,
,,,exp2.png,3,0,3,0,,,,,0,0,0,0,0,1,1,1,,,,,,,,,,,,,,,,,,,,,,,,,,,,,,,,,,,,,,,57.0,9.032391300424933,"[(57.0, 9.032391300424933)]",796.7520372997969,None,57.0,,,,,,,,,sub_028,2022-12-08_12h07.33.540,Reversal,2022.1.2,60.047257033834065,4,
,,,exp3.png,3,0,3,0,,,,,0,0,0,0,0,2,2,2,,,,,,,,,,,,,,,,,,,,,,,,,,,,,,,,,,,,,,,50.0,None,[],806.6298976000398,None,,,,,,,,,,sub_028,2022-12-08_12h07.33.540,Reversal,2022.1.2,60.047257033834065,4,
,,,exp4.png,3,0,3,0,,,,,0,0,0,0,0,3,3,3,,,,,,,,,,,,,,,,,,,,,,,,,,,,,,,,,,,,,,,58.0,2.833769300021231,"[(58.0, 2.833769300021231)]",810.2586989998817,None,,,58.0,,,,,,,sub_028,2022-12-08_12h07.33.540,Reversal,2022.1.2,60.047257033834065,4,
0,exp1.png,exp2.png,,,,,,,,,,,,,,,,,,0,0,0,0,0,0,0,0,,,,,,,,,True,,,,,,,,,,,,,,,,,,,,,,,,,,,,,,,,,,,,sub_028,2022-12-08_12h07.33.540,Reversal,2022.1.2,60.047257033834065,4,
1,exp3.png,exp4.png,,,,,,,,,,,,,,,,,,0,0,0,0,0,1,1,1,,,,,,,,,False,0,81,False,exp3.png,exp4.png,trial_right_image,-1,exp4.png,4,exp3.png,exp4.png,1,3,reversed,incorrect,0.9234494317051039,0,valid_lose,715.1034217998385,46,,,,,,,,,,709.2782936003059,,,,,,sub_028,2022-12-08_12h07.33.540,Reversal,2022.1.2,60.047257033834065,4,
2,exp1.png,exp2.png,,,,,,,,,,,,,,,,,,0,0,0,0,0,2,2,2,,,,,,,,,False,1,82,True,exp2.png,exp1.png,trial_left_image,1,exp2.png,4,exp2.png,exp1.png,1,1,non-reversed,correct,0.9218974329372881,1,valid_win,721.3706879001111,47,,,,,,,,,,,,,,,,sub_028,2022-12-08_12h07.33.540,Reversal,2022.1.2,60.047257033834065,4,
3,exp3.png,exp4.png,,,,,,,,,,,,,,,,,,0,0,0,0,0,3,3,3,,,,,,,,,False,2,83,True,exp4.png,exp3.png,trial_right_image,-1,exp3.png,4,exp3.png,exp4.png,0,4,reversed,correct,0.7976650030891566,1,valid_win,728.8873797999695,48,,,,,,,,,,,,,,,,sub_028,2022-12-08_12h07.33.540,Reversal,2022.1.2,60.047257033834065,4,
4,exp1.png,exp2.png,,,,,,,,,,,,,,,,,,0,0,0,0,0,4,4,4,,,,,,,,,False,3,84,True,exp2.png,exp1.png,trial_right_image,-1,exp1.png,4,exp2.png,exp1.png,0,2,non-reversed,incorrect,0.39756042318597307,0,valid_lose,736.087051300332,48,,,,,,,,,,,,,,,,sub_028,2022-12-08_12h07.33.540,Reversal,2022.1.2,60.047257033834065,4,
5,exp3.png,exp4.png,,,,,,,,,,,,,,,,,,0,0,0,0,0,5,5,5,,,,,,,,,False,4,85,False,exp3.png,exp4.png,trial_left_image,1,exp3.png,4,exp3.png,exp4.png,0,4,reversed,correct,0.2552749958782716,1,valid_win,742.5034734001383,49,,,,,,,,,,,,,,,,sub_028,2022-12-08_12h07.33.540,Reversal,2022.1.2,60.047257033834065,4,
6,exp1.png,exp2.png,,,,,,,,,,,,,,,,,,0,0,0,0,0,6,6,6,,,,,,,,,False,5,86,False,exp1.png,exp2.png,trial_right_image,-1,exp2.png,4,exp2.png,exp1.png,1,1,non-reversed,correct,0.16879818392318313,0,invalid_lose,749.2859984003007,49,,,,,,,,,,,,,,,,sub_028,2022-12-08_12h07.33.540,Reversal,2022.1.2,60.047257033834065,4,
7,exp3.png,exp4.png,,,,,,,,,,,,,,,,,,0,0,0,0,0,7,7,7,,,,,,,,,False,6,87,True,exp4.png,exp3.png,trial_right_image,-1,exp3.png,4,exp3.png,exp4.png,0,4,reversed,correct,0.49790255362573144,1,valid_win,755.9029390998185,50,,,,,,,,,,,,,,,,sub_028,2022-12-08_12h07.33.540,Reversal,2022.1.2,60.047257033834065,4,
8,exp1.png,exp2.png,,,,,,,,,,,,,,,,,,0,0,0,0,0,8,8,8,,,,,,,,,False,7,88,False,exp1.png,exp2.png,trial_right_image,-1,exp2.png,4,exp2.png,exp1.png,1,1,non-reversed,correct,0.014547523335397328,0,invalid_lose,764.4697072003037,50,,,,,,,,,,,,,,,,sub_028,2022-12-08_12h07.33.540,Reversal,2022.1.2,60.047257033834065,4,
9,exp3.png,exp4.png,,,,,,,,,,,,,,,,,,0,0,0,0,0,9,9,9,,,,,,,,,False,8,89,False,exp3.png,exp4.png,trial_right_image,-1,exp4.png,4,exp3.png,exp4.png,1,3,reversed,incorrect,0.73521479762654,0,valid_lose,772.802660100162,50,,,,,,,,,,,,,,,,sub_028,2022-12-08_12h07.33.540,Reversal,2022.1.2,60.047257033834065,4,
10,exp1.png,exp2.png,,,,,,,,,,,,,,,,,,0,0,0,0,0,10,10,10,,,,,,,,,False,9,90,True,exp2.png,exp1.png,trial_right_image,-1,exp1.png,4,exp2.png,exp1.png,0,2,non-reversed,incorrect,0.3800557786198894,0,valid_lose,777.5526461005211,50,,,,,,,,,,,,,,,,sub_028,2022-12-08_12h07.33.540,Reversal,2022.1.2,60.047257033834065,4,
11,exp3.png,exp4.png,,,,,,,,,,,,,,,,,,0,0,0,0,0,11,11,11,,,,,,,,,False,10,91,True,exp4.png,exp3.png,trial_left_image,1,exp4.png,4,exp3.png,exp4.png,1,3,reversed,incorrect,0.3210981836407035,0,valid_lose,781.9692926006392,50,,,,,,,,,,,,,,,,sub_028,2022-12-08_12h07.33.540,Reversal,2022.1.2,60.047257033834065,4,
12,exp1.png,exp2.png,,,,,,,,,,,,,,,,,,0,0,0,0,0,12,12,12,,,,,,,,,False,11,92,False,exp1.png,exp2.png,trial_right_image,-1,exp2.png,4,exp2.png,exp1.png,1,1,non-reversed,correct,0.6696309615548124,1,valid_win,786.3855304000899,51,,,,,,,,,,,,,,,,sub_028,2022-12-08_12h07.33.540,Reversal,2022.1.2,60.047257033834065,4,
13,exp3.png,exp4.png,,,,,,,,,,,,,,,,,,0,0,0,0,0,13,13,13,,,,,,,,,False,12,93,False,exp3.png,exp4.png,trial_left_image,1,exp3.png,4,exp3.png,exp4.png,0,4,reversed,correct,0.43464706683198384,1,valid_win,792.4187714001164,52,,,,,,,,,,,,,,,,sub_028,2022-12-08_12h07.33.540,Reversal,2022.1.2,60.047257033834065,4,
14,exp1.png,exp2.png,,,,,,,,,,,,,,,,,,0,0,0,0,0,14,14,14,,,,,,,,,False,13,94,True,exp2.png,exp1.png,trial_left_image,1,exp2.png,4,exp2.png,exp1.png,1,1,non-reversed,correct,0.13827433172568693,0,invalid_lose,798.8698843000457,52,,,,,,,,,,,,,,,,sub_028,2022-12-08_12h07.33.540,Reversal,2022.1.2,60.047257033834065,4,
15,exp3.png,exp4.png,,,,,,,,,,,,,,,,,,0,0,0,0,0,15,15,15,,,,,,,,,False,14,95,True,exp4.png,exp3.png,trial_right_image,-1,exp3.png,4,exp3.png,exp4.png,0,4,reversed,correct,0.402741411619408,1,valid_win,805.7856074003503,53,,,,,,,,,,,,,,,,sub_028,2022-12-08_12h07.33.540,Reversal,2022.1.2,60.047257033834065,4,
16,exp1.png,exp2.png,,,,,,,,,,,,,,,,,,0,0,0,0,0,16,16,16,,,,,,,,,False,15,96,True,exp2.png,exp1.png,trial_left_image,1,exp2.png,4,exp2.png,exp1.png,1,1,non-reversed,correct,0.24173151559649908,0,invalid_lose,816.0532897002995,53,,,,,,,,,,,,,,,,sub_028,2022-12-08_12h07.33.540,Reversal,2022.1.2,60.047257033834065,4,
17,exp3.png,exp4.png,,,,,,,,,,,,,,,,,,0,0,0,0,0,17,17,17,,,,,,,,,False,16,97,False,exp3.png,exp4.png,trial_left_image,1,exp3.png,4,exp3.png,exp4.png,0,4,reversed,correct,0.29112720752652355,1,valid_win,822.3863708004355,54,,,,,,,,,,,,,,,,sub_028,2022-12-08_12h07.33.540,Reversal,2022.1.2,60.047257033834065,4,
18,exp1.png,exp2.png,,,,,,,,,,,,,,,,,,0,0,0,0,0,18,18,18,,,,,,,,,False,17,98,True,exp2.png,exp1.png,trial_right_image,-1,exp1.png,4,exp2.png,exp1.png,0,2,non-reversed,incorrect,0.13160599205533186,1,invalid_win,830.2032711999491,55,,,,,,,,,,,,,,,,sub_028,2022-12-08_12h07.33.540,Reversal,2022.1.2,60.047257033834065,4,
19,exp3.png,exp4.png,,,,,,,,,,,,,,,,,,0,0,0,0,0,19,19,19,,,,,,,,,False,18,99,False,exp3.png,exp4.png,trial_left_image,1,exp3.png,4,exp3.png,exp4.png,0,4,reversed,correct,0.5124177781807365,1,valid_win,836.9030606001616,56,,,,,,,,,,,,,,,,sub_028,2022-12-08_12h07.33.540,Reversal,2022.1.2,60.047257033834065,4,
20,exp1.png,exp2.png,,,,,,,,,,,,,,,,,,0,0,0,0,0,20,20,20,,,,,,,,,False,19,100,False,exp1.png,exp2.png,trial_left_image,1,exp1.png,4,exp2.png,exp1.png,0,2,non-reversed,incorrect,0.14027213063123178,1,invalid_win,843.9180303001776,57,,,,,,,,,,,,,,,,sub_028,2022-12-08_12h07.33.540,Reversal,2022.1.2,60.047257033834065,4,
,,,exp1.png,,,,,,,,,,,,,,,,,0,0,0,0,,,,,0,0,0,0,0,0,0,0,,,,,,,,,,,,,,,,,,,,,,55.0,55.0,13.03127480018884,"[(52.0, 11.450031000189483), (55.0, 13.03127480018884)]",951.0469151996076,None,,,,,,,,,,sub_028,2022-12-08_12h07.33.540,Reversal,2022.1.2,60.047257033834065,4,
,,,exp2.png,,,,,,,,,,,,,,,,,0,0,0,0,,,,,0,0,0,0,0,1,1,1,,,,,,,,,,,,,,,,,,,,,,,42.0,2.734664199873805,"[(42.0, 2.734664199873805)]",964.8811758998781,None,42.0,,,,,,,,,sub_028,2022-12-08_12h07.33.540,Reversal,2022.1.2,60.047257033834065,4,
,,,exp3.png,,,,,,,,,,,,,,,,,0,0,0,0,,,,,0,0,0,0,0,2,2,2,,,,,,,,,,,,,,,,,,,,,,,71.0,2.7863707998767495,"[(71.0, 2.7863707998767495)]",968.5385926002637,None,,71.0,,,,,,,,sub_028,2022-12-08_12h07.33.540,Reversal,2022.1.2,60.047257033834065,4,
,,,exp4.png,,,,,,,,,,,,,,,,,0,0,0,0,,,,,0,0,0,0,0,3,3,3,,,,,,,,,,,,,,,,,,,,,,,41.0,5.81775620020926,"[(43.0, 4.883855199441314), (41.0, 5.81775620020926)]",972.8776374002919,None,,,41.0,,,,,,,sub_028,2022-12-08_12h07.33.540,Reversal,2022.1.2,60.047257033834065,4,
0,exp1.png,exp2.png,,,,,,,,,,,,,,,,,,1,0,1,0,0,0,0,0,,,,,,,,,True,,,,,,,,,,,,,,,,,,,,,,,,,,,,,,,,,,,,sub_028,2022-12-08_12h07.33.540,Reversal,2022.1.2,60.047257033834065,4,
1,exp3.png,exp4.png,,,,,,,,,,,,,,,,,,1,0,1,0,0,1,1,1,,,,,,,,,False,20,101,False,exp3.png,exp4.png,trial_left_image,1,exp3.png,4,exp3.png,exp4.png,0,4,reversed,correct,0.5120307459949401,1,valid_win,878.6008387999609,58,,,,,,,,,,,,,,,,sub_028,2022-12-08_12h07.33.540,Reversal,2022.1.2,60.047257033834065,4,
2,exp1.png,exp2.png,,,,,,,,,,,,,,,,,,1,0,1,0,0,2,2,2,,,,,,,,,False,21,102,True,exp2.png,exp1.png,trial_right_image,-1,exp1.png,4,exp2.png,exp1.png,0,2,non-reversed,incorrect,0.2971728653193818,0,valid_lose,883.9005963997915,58,,,,,,,,,,,,,,,,sub_028,2022-12-08_12h07.33.540,Reversal,2022.1.2,60.047257033834065,4,
3,exp3.png,exp4.png,,,,,,,,,,,,,,,,,,1,0,1,0,0,3,3,3,,,,,,,,,False,22,103,True,exp4.png,exp3.png,trial_right_image,-1,exp3.png,4,exp3.png,exp4.png,0,4,reversed,correct,0.6913228844099648,1,valid_win,888.9175428003073,59,,,,,,,,,,,,,,,,sub_028,2022-12-08_12h07.33.540,Reversal,2022.1.2,60.047257033834065,4,
4,exp1.png,exp2.png,,,,,,,,,,,,,,,,,,1,0,1,0,0,4,4,4,,,,,,,,,False,23,104,True,exp2.png,exp1.png,trial_left_image,1,exp2.png,4,exp2.png,exp1.png,1,1,non-reversed,correct,0.9569479019333754,1,valid_win,896.0172861004248,60,,,,,,,,,,,,,,,,sub_028,2022-12-08_12h07.33.540,Reversal,2022.1.2,60.047257033834065,4,
5,exp3.png,exp4.png,,,,,,,,,,,,,,,,,,1,0,1,0,0,5,5,5,,,,,,,,,False,24,105,True,exp4.png,exp3.png,trial_right_image,-1,exp3.png,4,exp3.png,exp4.png,0,4,reversed,correct,0.678775693705371,1,valid_win,901.2845392003655,61,,,,,,,,,,,,,,,,sub_028,2022-12-08_12h07.33.540,Reversal,2022.1.2,60.047257033834065,4,
6,exp1.png,exp2.png,,,,,,,,,,,,,,,,,,1,0,1,0,0,6,6,6,,,,,,,,,False,25,106,True,exp2.png,exp1.png,trial_right_image,-1,exp1.png,4,exp2.png,exp1.png,0,2,non-reversed,incorrect,0.5577090485272571,0,valid_lose,908.9999389005825,61,,,,,,,,,,,,,,,,sub_028,2022-12-08_12h07.33.540,Reversal,2022.1.2,60.047257033834065,4,
7,exp3.png,exp4.png,,,,,,,,,,,,,,,,,,1,0,1,0,0,7,7,7,,,,,,,,,False,26,107,True,exp4.png,exp3.png,trial_right_image,-1,exp3.png,4,exp3.png,exp4.png,0,4,reversed,correct,0.5853318891815571,1,valid_win,914.3837175006047,62,,,,,,,,,,,,,,,,sub_028,2022-12-08_12h07.33.540,Reversal,2022.1.2,60.047257033834065,4,
8,exp1.png,exp2.png,,,,,,,,,,,,,,,,,,1,0,1,0,0,8,8,8,,,,,,,,,False,27,108,False,exp1.png,exp2.png,trial_left_image,1,exp1.png,4,exp2.png,exp1.png,0,2,non-reversed,incorrect,0.81489239035353,0,valid_lose,919.9007604997605,62,,,,,,,,,,,,,,,,sub_028,2022-12-08_12h07.33.540,Reversal,2022.1.2,60.047257033834065,4,
9,exp3.png,exp4.png,,,,,,,,,,,,,,,,,,1,0,1,0,0,9,9,9,,,,,,,,,False,28,109,False,exp3.png,exp4.png,trial_left_image,1,exp3.png,4,exp3.png,exp4.png,0,4,reversed,correct,0.9727221135580424,1,valid_win,924.8167030001059,63,,,,,,,,,,,,,,,,sub_028,2022-12-08_12h07.33.540,Reversal,2022.1.2,60.047257033834065,4,
10,exp1.png,exp2.png,,,,,,,,,,,,,,,,,,1,0,1,0,0,10,10,10,,,,,,,,,False,29,110,True,exp2.png,exp1.png,trial_right_image,-1,exp1.png,4,exp2.png,exp1.png,0,2,non-reversed,incorrect,0.7812490881016528,0,valid_lose,930.4997449005023,63,,,,,,,,,,,,,,,,sub_028,2022-12-08_12h07.33.540,Reversal,2022.1.2,60.047257033834065,4,
11,exp3.png,exp4.png,,,,,,,,,,,,,,,,,,1,0,1,0,0,11,11,11,,,,,,,,,False,30,111,False,exp3.png,exp4.png,trial_left_image,1,exp3.png,4,exp3.png,exp4.png,0,4,reversed,correct,0.18056098475332316,0,invalid_lose,935.3669236004353,63,,,,,,,,,,,,,,,,sub_028,2022-12-08_12h07.33.540,Reversal,2022.1.2,60.047257033834065,4,
12,exp1.png,exp2.png,,,,,,,,,,,,,,,,,,1,0,1,0,0,12,12,12,,,,,,,,,False,31,112,False,exp1.png,exp2.png,trial_right_image,-1,exp2.png,4,exp2.png,exp1.png,1,1,non-reversed,correct,0.8096669851021995,1,valid_win,940.0333350999281,64,,,,,,,,,,,,,,,,sub_028,2022-12-08_12h07.33.540,Reversal,2022.1.2,60.047257033834065,4,
13,exp3.png,exp4.png,,,,,,,,,,,,,,,,,,1,0,1,0,0,13,13,13,,,,,,,,,False,32,113,False,exp3.png,exp4.png,trial_right_image,-1,exp4.png,4,exp3.png,exp4.png,1,3,reversed,incorrect,0.6720509084729551,0,valid_lose,945.1660620998591,64,,,,,,,,,,,,,,,,sub_028,2022-12-08_12h07.33.540,Reversal,2022.1.2,60.047257033834065,4,
14,exp1.png,exp2.png,,,,,,,,,,,,,,,,,,1,0,1,0,0,14,14,14,,,,,,,,,False,33,114,False,exp1.png,exp2.png,trial_right_image,-1,exp2.png,4,exp2.png,exp1.png,1,1,non-reversed,correct,0.6689328866551014,1,valid_win,950.3330906005576,65,,,,,,,,,,,,,,,,sub_028,2022-12-08_12h07.33.540,Reversal,2022.1.2,60.047257033834065,4,
15,exp3.png,exp4.png,,,,,,,,,,,,,,,,,,1,0,1,0,0,15,15,15,,,,,,,,,False,34,115,False,exp3.png,exp4.png,trial_left_image,1,exp3.png,4,exp3.png,exp4.png,0,4,reversed,correct,0.794122063523667,1,valid_win,954.7994290003553,66,,,,,,,,,,,,,,,,sub_028,2022-12-08_12h07.33.540,Reversal,2022.1.2,60.047257033834065,4,
16,exp1.png,exp2.png,,,,,,,,,,,,,,,,,,1,0,1,0,0,16,16,16,,,,,,,,,False,35,116,True,exp2.png,exp1.png,trial_left_image,1,exp2.png,4,exp2.png,exp1.png,1,1,non-reversed,correct,0.5773165636913562,1,valid_win,959.9995103003457,67,,,,,,,,,,,,,,,,sub_028,2022-12-08_12h07.33.540,Reversal,2022.1.2,60.047257033834065,4,
17,exp3.png,exp4.png,,,,,,,,,,,,,,,,,,1,0,1,0,0,17,17,17,,,,,,,,,False,36,117,False,exp3.png,exp4.png,trial_left_image,1,exp3.png,4,exp3.png,exp4.png,0,4,reversed,correct,0.7832946117933863,1,valid_win,964.4822207000107,68,,,,,,,,,,,,,,,,sub_028,2022-12-08_12h07.33.540,Reversal,2022.1.2,60.047257033834065,4,
18,exp1.png,exp2.png,,,,,,,,,,,,,,,,,,1,0,1,0,0,18,18,18,,,,,,,,,False,37,118,True,exp2.png,exp1.png,trial_left_image,1,exp2.png,4,exp2.png,exp1.png,1,1,non-reversed,correct,0.2615498349785428,1,valid_win,970.3494687005877,69,,,,,,,,,,,,,,,,sub_028,2022-12-08_12h07.33.540,Reversal,2022.1.2,60.047257033834065,4,
19,exp3.png,exp4.png,,,,,,,,,,,,,,,,,,1,0,1,0,0,19,19,19,,,,,,,,,False,38,119,True,exp4.png,exp3.png,trial_right_image,-1,exp3.png,4,exp3.png,exp4.png,0,4,reversed,correct,0.30482830048112486,1,valid_win,975.0327885001898,70,,,,,,,,,,,,,,,,sub_028,2022-12-08_12h07.33.540,Reversal,2022.1.2,60.047257033834065,4,
20,exp1.png,exp2.png,,,,,,,,,,,,,,,,,,1,0,1,0,0,20,20,20,,,,,,,,,False,39,120,False,exp1.png,exp2.png,trial_right_image,-1,exp2.png,4,exp2.png,exp1.png,1,1,non-reversed,correct,0.7046144946781059,1,valid_win,980.0154291000217,71,,,,,,,,,,,,,,,,sub_028,2022-12-08_12h07.33.540,Reversal,2022.1.2,60.047257033834065,4,
,,,exp1.png,,,,,,,,,,,,,,,,,1,0,1,0,,,,,0,0,0,0,0,0,0,0,,,,,,,,,,,,,,,,,,,,,,33.0,33.0,3.6143409004434943,"[(33.0, 3.6143409004434943)]",1087.1413925001398,None,,,,,,,,,,sub_028,2022-12-08_12h07.33.540,Reversal,2022.1.2,60.047257033834065,4,
,,,exp2.png,,,,,,,,,,,,,,,,,1,0,1,0,,,,,0,0,0,0,0,1,1,1,,,,,,,,,,,,,,,,,,,,,,,42.0,3.684144699946046,"[(42.0, 3.684144699946046)]",1091.9053261997178,None,42.0,,,,,,,,,sub_028,2022-12-08_12h07.33.540,Reversal,2022.1.2,60.047257033834065,4,
,,,exp3.png,,,,,,,,,,,,,,,,,1,0,1,0,,,,,0,0,0,0,0,2,2,2,,,,,,,,,,,,,,,,,,,,,,,73.0,1.9859231002628803,"[(73.0, 1.9859231002628803)]",1096.6348743001,None,,73.0,,,,,,,,sub_028,2022-12-08_12h07.33.540,Reversal,2022.1.2,60.047257033834065,4,
,,,exp4.png,,,,,,,,,,,,,,,,,1,0,1,0,,,,,0,0,0,0,0,3,3,3,,,,,,,,,,,,,,,,,,,,,,,50.0,None,[],1099.7292909994721,None,,,,,,,,,,sub_028,2022-12-08_12h07.33.540,Reversal,2022.1.2,60.047257033834065,4,
0,exp1.png,exp2.png,,,,,,,,,,,,,,,,,,2,0,2,0,0,0,0,0,,,,,,,,,True,,,,,,,,,,,,,,,,,,,,,,,,,,,,,,,,,,,,sub_028,2022-12-08_12h07.33.540,Reversal,2022.1.2,60.047257033834065,4,
1,exp3.png,exp4.png,,,,,,,,,,,,,,,,,,2,0,2,0,0,1,1,1,,,,,,,,,False,40,121,False,exp3.png,exp4.png,trial_right_image,-1,exp4.png,4,exp3.png,exp4.png,1,3,reversed,incorrect,0.0765793930992974,1,invalid_win,1003.7482952000573,72,,,,,,,,,,,,,,,,sub_028,2022-12-08_12h07.33.540,Reversal,2022.1.2,60.047257033834065,4,
2,exp1.png,exp2.png,,,,,,,,,,,,,,,,,,2,0,2,0,0,2,2,2,,,,,,,,,False,41,122,True,exp2.png,exp1.png,trial_left_image,1,exp2.png,4,exp2.png,exp1.png,1,1,non-reversed,correct,0.7566232180465063,1,valid_win,1008.8487987006083,73,,,,,,,,,,,,,,,,sub_028,2022-12-08_12h07.33.540,Reversal,2022.1.2,60.047257033834065,4,
3,exp3.png,exp4.png,,,,,,,,,,,,,,,,,,2,0,2,0,0,3,3,3,,,,,,,,,False,42,123,True,exp4.png,exp3.png,trial_right_image,-1,exp3.png,4,exp3.png,exp4.png,0,4,reversed,correct,0.5078937495803673,1,valid_win,1013.598014600575,74,,,,,,,,,,,,,,,,sub_028,2022-12-08_12h07.33.540,Reversal,2022.1.2,60.047257033834065,4,
4,exp1.png,exp2.png,,,,,,,,,,,,,,,,,,2,0,2,0,0,4,4,4,,,,,,,,,False,43,124,False,exp1.png,exp2.png,trial_right_image,-1,exp2.png,4,exp2.png,exp1.png,1,1,non-reversed,correct,0.39878137844054506,1,valid_win,1022.1315804999322,75,,,,,,,,,,,,,,,,sub_028,2022-12-08_12h07.33.540,Reversal,2022.1.2,60.047257033834065,4,
5,exp3.png,exp4.png,,,,,,,,,,,,,,,,,,2,0,2,0,0,5,5,5,,,,,,,,,False,44,125,False,exp3.png,exp4.png,trial_left_image,1,exp3.png,4,exp3.png,exp4.png,0,4,reversed,correct,0.07648703973534654,0,invalid_lose,1026.2979733003303,75,,,,,,,,,,,,,,,,sub_028,2022-12-08_12h07.33.540,Reversal,2022.1.2,60.047257033834065,4,
6,exp1.png,exp2.png,,,,,,,,,,,,,,,,,,2,0,2,0,0,6,6,6,,,,,,,,,False,45,126,False,exp1.png,exp2.png,trial_right_image,-1,exp2.png,4,exp2.png,exp1.png,1,1,non-reversed,correct,0.7592940961548609,1,valid_win,1031.264728100039,76,,,,,,,,,,,,,,,,sub_028,2022-12-08_12h07.33.540,Reversal,2022.1.2,60.047257033834065,4,
7,exp3.png,exp4.png,,,,,,,,,,,,,,,,,,2,0,2,0,0,7,7,7,,,,,,,,,False,46,127,True,exp4.png,exp3.png,trial_right_image,-1,exp3.png,4,exp3.png,exp4.png,0,4,reversed,correct,0.4994251678043393,1,valid_win,1038.4316455004737,77,,,,,,,,,,,,,,,,sub_028,2022-12-08_12h07.33.540,Reversal,2022.1.2,60.047257033834065,4,
8,exp1.png,exp2.png,,,,,,,,,,,,,,,,,,2,0,2,0,0,8,8,8,,,,,,,,,False,47,128,False,exp1.png,exp2.png,trial_right_image,-1,exp2.png,4,exp2.png,exp1.png,1,1,non-reversed,correct,0.6329715461107401,1,valid_win,1043.3974619004875,78,,,,,,,,,,,,,,,,sub_028,2022-12-08_12h07.33.540,Reversal,2022.1.2,60.047257033834065,4,
9,exp3.png,exp4.png,,,,,,,,,,,,,,,,,,2,0,2,0,0,9,9,9,,,,,,,,,False,48,129,True,exp4.png,exp3.png,trial_left_image,1,exp4.png,4,exp3.png,exp4.png,1,3,reversed,incorrect,0.7251810169035378,0,valid_lose,1053.4313213005662,78,,,,,,,,,,,,,,,,sub_028,2022-12-08_12h07.33.540,Reversal,2022.1.2,60.047257033834065,4,
10,exp1.png,exp2.png,,,,,,,,,,,,,,,,,,2,0,2,0,0,10,10,10,,,,,,,,,False,49,130,True,exp2.png,exp1.png,trial_left_image,1,exp2.png,4,exp2.png,exp1.png,1,1,non-reversed,correct,0.4049934337884872,1,valid_win,1058.4806051002815,79,,,,,,,,,,,,,,,,sub_028,2022-12-08_12h07.33.540,Reversal,2022.1.2,60.047257033834065,4,
11,exp3.png,exp4.png,,,,,,,,,,,,,,,,,,2,0,2,0,0,11,11,11,,,,,,,,,False,50,131,False,exp3.png,exp4.png,trial_left_image,1,exp3.png,4,exp3.png,exp4.png,0,4,reversed,correct,0.6946337087086558,1,valid_win,1064.4143040003255,80,,,,,,,,,,,,,,,,sub_028,2022-12-08_12h07.33.540,Reversal,2022.1.2,60.047257033834065,4,
12,exp1.png,exp2.png,,,,,,,,,,,,,,,,,,2,0,2,0,0,12,12,12,,,,,,,,,False,51,132,True,exp2.png,exp1.png,trial_left_image,1,exp2.png,4,exp2.png,exp1.png,1,1,non-reversed,correct,0.020925561639484114,0,invalid_lose,1070.930870000273,80,,,,,,,,,,,,,,,,sub_028,2022-12-08_12h07.33.540,Reversal,2022.1.2,60.047257033834065,4,
13,exp3.png,exp4.png,,,,,,,,,,,,,,,,,,2,0,2,0,0,13,13,13,,,,,,,,,False,52,133,True,exp4.png,exp3.png,trial_right_image,-1,exp3.png,4,exp3.png,exp4.png,0,4,reversed,correct,0.6551529471433856,1,valid_win,1075.8315543001518,81,,,,,,,,,,,,,,,,sub_028,2022-12-08_12h07.33.540,Reversal,2022.1.2,60.047257033834065,4,
14,exp1.png,exp2.png,,,,,,,,,,,,,,,,,,2,0,2,0,0,14,14,14,,,,,,,,,False,53,134,True,exp2.png,exp1.png,trial_left_image,1,exp2.png,4,exp2.png,exp1.png,1,1,non-reversed,correct,0.624637103681833,1,valid_win,1081.1982235005125,82,,,,,,,,,,,,,,,,sub_028,2022-12-08_12h07.33.540,Reversal,2022.1.2,60.047257033834065,4,
15,exp3.png,exp4.png,,,,,,,,,,,,,,,,,,2,0,2,0,0,15,15,15,,,,,,,,,False,54,135,False,exp3.png,exp4.png,trial_left_image,1,exp3.png,4,exp3.png,exp4.png,0,4,reversed,correct,0.09883670668533973,0,invalid_lose,1088.9651671005413,82,,,,,,,,,,,,,,,,sub_028,2022-12-08_12h07.33.540,Reversal,2022.1.2,60.047257033834065,4,
16,exp1.png,exp2.png,,,,,,,,,,,,,,,,,,2,0,2,0,0,16,16,16,,,,,,,,,False,55,136,True,exp2.png,exp1.png,trial_left_image,1,exp2.png,4,exp2.png,exp1.png,1,1,non-reversed,correct,0.0879635507964287,0,invalid_lose,1094.2649103999138,82,,,,,,,,,,,,,,,,sub_028,2022-12-08_12h07.33.540,Reversal,2022.1.2,60.047257033834065,4,
17,exp3.png,exp4.png,,,,,,,,,,,,,,,,,,2,0,2,0,0,17,17,17,,,,,,,,,False,56,137,False,exp3.png,exp4.png,trial_right_image,-1,exp4.png,4,exp3.png,exp4.png,1,3,reversed,incorrect,0.13962190923027773,1,invalid_win,1099.8814336005598,83,,,,,,,,,,,,,,,,sub_028,2022-12-08_12h07.33.540,Reversal,2022.1.2,60.047257033834065,4,
18,exp1.png,exp2.png,,,,,,,,,,,,,,,,,,2,0,2,0,0,18,18,18,,,,,,,,,False,57,138,False,exp1.png,exp2.png,trial_left_image,1,exp1.png,4,exp2.png,exp1.png,0,2,non-reversed,incorrect,0.8592623771175482,0,valid_lose,1105.7466237004846,83,,,,,,,,,,,,,,,,sub_028,2022-12-08_12h07.33.540,Reversal,2022.1.2,60.047257033834065,4,
19,exp3.png,exp4.png,,,,,,,,,,,,,,,,,,2,0,2,0,0,19,19,19,,,,,,,,,False,58,139,False,exp3.png,exp4.png,trial_right_image,-1,exp4.png,4,exp3.png,exp4.png,1,3,reversed,incorrect,0.9484774949107756,0,valid_lose,1109.9463205998763,83,,,,,,,,,,,,,,,,sub_028,2022-12-08_12h07.33.540,Reversal,2022.1.2,60.047257033834065,4,
20,exp1.png,exp2.png,,,,,,,,,,,,,,,,,,2,0,2,0,0,20,20,20,,,,,,,,,False,59,140,True,exp2.png,exp1.png,trial_left_image,1,exp2.png,4,exp2.png,exp1.png,1,1,non-reversed,correct,0.044012990678612085,0,invalid_lose,1115.196190500632,83,,,,,,,,,,,,,,,,sub_028,2022-12-08_12h07.33.540,Reversal,2022.1.2,60.047257033834065,4,
,,,exp1.png,,,,,,,,,,,,,,,,,2,0,2,0,,,,,0,0,0,0,0,0,0,0,,,,,,,,,,,,,,,,,,,,,,,50.0,None,[],1222.3225819999352,None,,,,,,,,,,sub_028,2022-12-08_12h07.33.540,Reversal,2022.1.2,60.047257033834065,4,
,,,exp2.png,,,,,,,,,,,,,,,,,2,0,2,0,,,,,0,0,0,0,0,1,1,1,,,,,,,,,,,,,,,,,,,,,,,50.0,None,[],1225.034897999838,None,,,,,,,,,,sub_028,2022-12-08_12h07.33.540,Reversal,2022.1.2,60.047257033834065,4,
,,,exp3.png,,,,,,,,,,,,,,,,,2,0,2,0,,,,,0,0,0,0,0,2,2,2,,,,,,,,,,,,,,,,,,,,,,,50.0,None,[],1228.2361244000494,None,,,,,,,,,,sub_028,2022-12-08_12h07.33.540,Reversal,2022.1.2,60.047257033834065,4,
,,,exp4.png,,,,,,,,,,,,,,,,,2,0,2,0,,,,,0,0,0,0,0,3,3,3,,,,,,,,,,,,,,,,,,,,,,,55.0,3.6841396000236273,"[(55.0, 3.6841396000236273)]",1231.6998902997002,None,,,55.0,,,,,,,sub_028,2022-12-08_12h07.33.540,Reversal,2022.1.2,60.047257033834065,4,
,,,,,,,,,,,,,,,,,,,,,,,,,,,,,,,,,,,,,,,,,,,,,,,,,,,,,,,,83,,,,,,,,,,,101,58,43,422.20252340007573,1,,,,,,,
