trial_index,trial_image1_file,trial_image2_file,image_file,learning_outer_loop.thisRepN,learning_outer_loop.thisTrialN,learning_outer_loop.thisN,learning_outer_loop.thisIndex,learning_inner_loop.thisRepN,learning_inner_loop.thisTrialN,learning_inner_loop.thisN,learning_inner_loop.thisIndex,learning_estimation_outer_loop.thisRepN,learning_estimation_outer_loop.thisTrialN,learning_estimation_outer_loop.thisN,learning_estimation_outer_loop.thisIndex,learning_estimation_inner_loop.thisRepN,learning_estimation_inner_loop.thisTrialN,learning_estimation_inner_loop.thisN,learning_estimation_inner_loop.thisIndex,reversal_outer_loop.thisRepN,reversal_outer_loop.thisTrialN,reversal_outer_loop.thisN,reversal_outer_loop.thisIndex,reversal_inner_loop.thisRepN,reversal_inner_loop.thisTrialN,reversal_inner_loop.thisN,reversal_inner_loop.thisIndex,reversal_estimation_outer_loop.thisRepN,reversal_estimation_outer_loop.thisTrialN,reversal_estimation_outer_loop.thisN,reversal_estimation_outer_loop.thisIndex,reversal_estimation_inner_loop.thisRepN,reversal_estimation_inner_loop.thisTrialN,reversal_estimation_inner_loop.thisN,reversal_estimation_inner_loop.thisIndex,skipped,total_trial_counter,trial_num,left_right_flip,left_image_file,right_image_file,clicked_stimulus_side,side,clicked_stimulus,version,high_prob_image_file,low_prob_image_file,choice_a,choice_b,pair_type,correct,trial_feedback_random,reward,trial_type,overall_time_after_trial,score,estimation_rating.started,estimation_exp1.png,estimation_rating.response,estimation_rating.rt,estimation_rating.history,estimation_exp2.png,estimation_exp3.png,estimation_exp4.png,total_learning_time,total_correct,learning_correct,reversal_correct,total_reversal_time,extra_block,participant,date,expName,psychopyVersion,frameRate,ver,
0,exp1.png,exp2.png,,0,0,0,0,0,0,0,0,,,,,,,,,,,,,,,,,,,,,,,,,True,,,,,,,,,,,,,,,,,,,,,,,,,,,,,,,,,,,sub_799,2024-05-19_11h03.51.306,Reversal,2023.1.3,59.85694190864153,3,
1,exp3.png,exp4.png,,0,0,0,0,0,1,1,1,,,,,,,,,,,,,,,,,,,,,,,,,False,0,1,True,exp4.png,exp3.png,trial_left_image,1,exp4.png,3,exp4.png,exp3.png,1,1,non-reversed,correct,0.6843256085660064,1,valid_win,17.05916359999992,1,,,,,,,,,,,,,,,sub_799,2024-05-19_11h03.51.306,Reversal,2023.1.3,59.85694190864153,3,
2,exp1.png,exp2.png,,0,0,0,0,0,2,2,2,,,,,,,,,,,,,,,,,,,,,,,,,False,1,2,False,exp1.png,exp2.png,trial_left_image,1,exp1.png,3,exp2.png,exp1.png,0,4,reversed,incorrect,0.20570859773977457,1,invalid_win,24.840508000000227,2,,,,,,,,,,,,,,,sub_799,2024-05-19_11h03.51.306,Reversal,2023.1.3,59.85694190864153,3,
3,exp3.png,exp4.png,,0,0,0,0,0,3,3,3,,,,,,,,,,,,,,,,,,,,,,,,,False,2,3,True,exp4.png,exp3.png,trial_left_image,1,exp4.png,3,exp4.png,exp3.png,1,1,non-reversed,correct,0.5520108785551668,1,valid_win,32.27077029999964,3,,,,,,,,,,,,,,,sub_799,2024-05-19_11h03.51.306,Reversal,2023.1.3,59.85694190864153,3,
4,exp1.png,exp2.png,,0,0,0,0,0,4,4,4,,,,,,,,,,,,,,,,,,,,,,,,,False,3,4,True,exp2.png,exp1.png,trial_right_image,-1,exp1.png,3,exp2.png,exp1.png,0,4,reversed,incorrect,0.042771147862080694,1,invalid_win,39.734777900000154,4,,,,,,,,,,,,,,,sub_799,2024-05-19_11h03.51.306,Reversal,2023.1.3,59.85694190864153,3,
5,exp3.png,exp4.png,,0,0,0,0,0,5,5,5,,,,,,,,,,,,,,,,,,,,,,,,,False,4,5,False,exp3.png,exp4.png,trial_right_image,-1,exp4.png,3,exp4.png,exp3.png,1,1,non-reversed,correct,0.3404836127889368,1,valid_win,46.834089799999674,5,,,,,,,,,,,,,,,sub_799,2024-05-19_11h03.51.306,Reversal,2023.1.3,59.85694190864153,3,
6,exp1.png,exp2.png,,0,0,0,0,0,6,6,6,,,,,,,,,,,,,,,,,,,,,,,,,False,5,6,False,exp1.png,exp2.png,trial_left_image,1,exp1.png,3,exp2.png,exp1.png,0,4,reversed,incorrect,0.6676587712822294,0,valid_lose,52.69785320000028,5,,,,,,,,,,,,,,,sub_799,2024-05-19_11h03.51.306,Reversal,2023.1.3,59.85694190864153,3,
7,exp3.png,exp4.png,,0,0,0,0,0,7,7,7,,,,,,,,,,,,,,,,,,,,,,,,,False,6,7,False,exp3.png,exp4.png,trial_right_image,-1,exp4.png,3,exp4.png,exp3.png,1,1,non-reversed,correct,0.3761376388871267,1,valid_win,58.69581969999945,6,,,,,,,,,,,,,,,sub_799,2024-05-19_11h03.51.306,Reversal,2023.1.3,59.85694190864153,3,
8,exp1.png,exp2.png,,0,0,0,0,0,8,8,8,,,,,,,,,,,,,,,,,,,,,,,,,False,7,8,False,exp1.png,exp2.png,trial_left_image,1,exp1.png,3,exp2.png,exp1.png,0,4,reversed,incorrect,0.45837129924114073,0,valid_lose,64.37647839999954,6,,,,,,,,,,,,,,,sub_799,2024-05-19_11h03.51.306,Reversal,2023.1.3,59.85694190864153,3,
9,exp3.png,exp4.png,,0,0,0,0,0,9,9,9,,,,,,,,,,,,,,,,,,,,,,,,,False,8,9,True,exp4.png,exp3.png,trial_left_image,1,exp4.png,3,exp4.png,exp3.png,1,1,non-reversed,correct,0.7490237512143962,1,valid_win,70.6749020999996,7,,,,,,,,,,,,,,,sub_799,2024-05-19_11h03.51.306,Reversal,2023.1.3,59.85694190864153,3,
10,exp1.png,exp2.png,,0,0,0,0,0,10,10,10,,,,,,,,,,,,,,,,,,,,,,,,,False,9,10,True,exp2.png,exp1.png,trial_right_image,-1,exp1.png,3,exp2.png,exp1.png,0,4,reversed,incorrect,0.664719174333363,0,valid_lose,75.82263049999983,7,,,,,,,,,,,,,,,sub_799,2024-05-19_11h03.51.306,Reversal,2023.1.3,59.85694190864153,3,
11,exp3.png,exp4.png,,0,0,0,0,0,11,11,11,,,,,,,,,,,,,,,,,,,,,,,,,False,10,11,True,exp4.png,exp3.png,trial_left_image,1,exp4.png,3,exp4.png,exp3.png,1,1,non-reversed,correct,0.6973441435186184,1,valid_win,81.03779959999974,8,,,,,,,,,,,,,,,sub_799,2024-05-19_11h03.51.306,Reversal,2023.1.3,59.85694190864153,3,
12,exp1.png,exp2.png,,0,0,0,0,0,12,12,12,,,,,,,,,,,,,,,,,,,,,,,,,False,11,12,True,exp2.png,exp1.png,trial_right_image,-1,exp1.png,3,exp2.png,exp1.png,0,4,reversed,incorrect,0.801451046866625,0,valid_lose,86.3692073000002,8,,,,,,,,,,,,,,,sub_799,2024-05-19_11h03.51.306,Reversal,2023.1.3,59.85694190864153,3,
13,exp3.png,exp4.png,,0,0,0,0,0,13,13,13,,,,,,,,,,,,,,,,,,,,,,,,,False,12,13,False,exp3.png,exp4.png,trial_right_image,-1,exp4.png,3,exp4.png,exp3.png,1,1,non-reversed,correct,0.636414848216586,1,valid_win,91.66754789999959,9,,,,,,,,,,,,,,,sub_799,2024-05-19_11h03.51.306,Reversal,2023.1.3,59.85694190864153,3,
14,exp1.png,exp2.png,,0,0,0,0,0,14,14,14,,,,,,,,,,,,,,,,,,,,,,,,,False,13,14,False,exp1.png,exp2.png,trial_left_image,1,exp1.png,3,exp2.png,exp1.png,0,4,reversed,incorrect,0.9746016680000255,0,valid_lose,97.69929270000011,9,,,,,,,,,,,,,,,sub_799,2024-05-19_11h03.51.306,Reversal,2023.1.3,59.85694190864153,3,
15,exp3.png,exp4.png,,0,0,0,0,0,15,15,15,,,,,,,,,,,,,,,,,,,,,,,,,False,14,15,False,exp3.png,exp4.png,trial_right_image,-1,exp4.png,3,exp4.png,exp3.png,1,1,non-reversed,correct,0.21463509812686465,0,invalid_lose,102.51396479999948,9,,,,,,,,,,,,,,,sub_799,2024-05-19_11h03.51.306,Reversal,2023.1.3,59.85694190864153,3,
16,exp1.png,exp2.png,,0,0,0,0,0,16,16,16,,,,,,,,,,,,,,,,,,,,,,,,,False,15,16,True,exp2.png,exp1.png,trial_right_image,-1,exp1.png,3,exp2.png,exp1.png,0,4,reversed,incorrect,0.028495300855294947,1,invalid_win,107.32835629999954,10,,,,,,,,,,,,,,,sub_799,2024-05-19_11h03.51.306,Reversal,2023.1.3,59.85694190864153,3,
17,exp3.png,exp4.png,,0,0,0,0,0,17,17,17,,,,,,,,,,,,,,,,,,,,,,,,,False,16,17,False,exp3.png,exp4.png,trial_right_image,-1,exp4.png,3,exp4.png,exp3.png,1,1,non-reversed,correct,0.7430634112648202,1,valid_win,113.05994569999984,11,,,,,,,,,,,,,,,sub_799,2024-05-19_11h03.51.306,Reversal,2023.1.3,59.85694190864153,3,
18,exp1.png,exp2.png,,0,0,0,0,0,18,18,18,,,,,,,,,,,,,,,,,,,,,,,,,False,17,18,False,exp1.png,exp2.png,trial_left_image,1,exp1.png,3,exp2.png,exp1.png,0,4,reversed,incorrect,0.5924091827318799,0,valid_lose,117.92505079999955,11,,,,,,,,,,,,,,,sub_799,2024-05-19_11h03.51.306,Reversal,2023.1.3,59.85694190864153,3,
19,exp3.png,exp4.png,,0,0,0,0,0,19,19,19,,,,,,,,,,,,,,,,,,,,,,,,,False,18,19,True,exp4.png,exp3.png,trial_left_image,1,exp4.png,3,exp4.png,exp3.png,1,1,non-reversed,correct,0.2737595395489003,1,valid_win,122.89052309999988,12,,,,,,,,,,,,,,,sub_799,2024-05-19_11h03.51.306,Reversal,2023.1.3,59.85694190864153,3,
20,exp1.png,exp2.png,,0,0,0,0,0,20,20,20,,,,,,,,,,,,,,,,,,,,,,,,,False,19,20,True,exp2.png,exp1.png,trial_right_image,-1,exp1.png,3,exp2.png,exp1.png,0,4,reversed,incorrect,0.02495672286548467,1,invalid_win,127.47289230000024,13,,,,,,,,,,,,,,,sub_799,2024-05-19_11h03.51.306,Reversal,2023.1.3,59.85694190864153,3,
,,,exp1.png,0,0,0,0,,,,,0,0,0,0,0,0,0,0,,,,,,,,,,,,,,,,,,,,,,,,,,,,,,,,,,,,,,195.9466311999995,75.0,75.0,9.343483900000138,"[(75.0, 9.343483900000138)]",,,,,,,,,,sub_799,2024-05-19_11h03.51.306,Reversal,2023.1.3,59.85694190864153,3,
,,,exp2.png,0,0,0,0,,,,,0,0,0,0,0,1,1,1,,,,,,,,,,,,,,,,,,,,,,,,,,,,,,,,,,,,,,206.83864019999965,,22.0,5.758453299999928,"[(22.0, 5.758453299999928)]",22.0,,,,,,,,,sub_799,2024-05-19_11h03.51.306,Reversal,2023.1.3,59.85694190864153,3,
,,,exp3.png,0,0,0,0,,,,,0,0,0,0,0,2,2,2,,,,,,,,,,,,,,,,,,,,,,,,,,,,,,,,,,,,,,213.85174469999947,,23.0,3.660657400000673,"[(23.0, 3.660657400000673)]",,23.0,,,,,,,,sub_799,2024-05-19_11h03.51.306,Reversal,2023.1.3,59.85694190864153,3,
,,,exp4.png,0,0,0,0,,,,,0,0,0,0,0,3,3,3,,,,,,,,,,,,,,,,,,,,,,,,,,,,,,,,,,,,,,218.66773099999955,,81.0,2.4927864000001136,"[(81.0, 2.4927864000001136)]",,,81.0,,,,,,,sub_799,2024-05-19_11h03.51.306,Reversal,2023.1.3,59.85694190864153,3,
0,exp1.png,exp2.png,,1,0,1,0,0,0,0,0,,,,,,,,,,,,,,,,,,,,,,,,,True,,,,,,,,,,,,,,,,,,,,,,,,,,,,,,,,,,,sub_799,2024-05-19_11h03.51.306,Reversal,2023.1.3,59.85694190864153,3,
1,exp3.png,exp4.png,,1,0,1,0,0,1,1,1,,,,,,,,,,,,,,,,,,,,,,,,,False,20,21,True,exp4.png,exp3.png,trial_left_image,1,exp4.png,3,exp4.png,exp3.png,1,1,non-reversed,correct,0.3231252161383166,1,valid_win,159.37778770000023,14,,,,,,,,,,,,,,,sub_799,2024-05-19_11h03.51.306,Reversal,2023.1.3,59.85694190864153,3,
2,exp1.png,exp2.png,,1,0,1,0,0,2,2,2,,,,,,,,,,,,,,,,,,,,,,,,,False,21,22,True,exp2.png,exp1.png,trial_right_image,-1,exp1.png,3,exp2.png,exp1.png,0,4,reversed,incorrect,0.8022581735795186,0,valid_lose,163.66007209999952,14,,,,,,,,,,,,,,,sub_799,2024-05-19_11h03.51.306,Reversal,2023.1.3,59.85694190864153,3,
3,exp3.png,exp4.png,,1,0,1,0,0,3,3,3,,,,,,,,,,,,,,,,,,,,,,,,,False,22,23,True,exp4.png,exp3.png,trial_left_image,1,exp4.png,3,exp4.png,exp3.png,1,1,non-reversed,correct,0.9170159466033971,1,valid_win,168.24159249999957,15,,,,,,,,,,,,,,,sub_799,2024-05-19_11h03.51.306,Reversal,2023.1.3,59.85694190864153,3,
4,exp1.png,exp2.png,,1,0,1,0,0,4,4,4,,,,,,,,,,,,,,,,,,,,,,,,,False,23,24,False,exp1.png,exp2.png,trial_left_image,1,exp1.png,3,exp2.png,exp1.png,0,4,reversed,incorrect,0.9247303314403299,0,valid_lose,175.12276479999946,15,,,,,,,,,,,,,,,sub_799,2024-05-19_11h03.51.306,Reversal,2023.1.3,59.85694190864153,3,
5,exp3.png,exp4.png,,1,0,1,0,0,5,5,5,,,,,,,,,,,,,,,,,,,,,,,,,False,24,25,True,exp4.png,exp3.png,trial_left_image,1,exp4.png,3,exp4.png,exp3.png,1,1,non-reversed,correct,0.5420733754239367,1,valid_win,180.60446450000018,16,,,,,,,,,,,,,,,sub_799,2024-05-19_11h03.51.306,Reversal,2023.1.3,59.85694190864153,3,
6,exp1.png,exp2.png,,1,0,1,0,0,6,6,6,,,,,,,,,,,,,,,,,,,,,,,,,False,25,26,True,exp2.png,exp1.png,trial_left_image,1,exp2.png,3,exp2.png,exp1.png,1,3,reversed,correct,0.18461349973153984,0,invalid_lose,186.93478830000004,16,,,,,,,,,,,,,,,sub_799,2024-05-19_11h03.51.306,Reversal,2023.1.3,59.85694190864153,3,
7,exp3.png,exp4.png,,1,0,1,0,0,7,7,7,,,,,,,,,,,,,,,,,,,,,,,,,False,26,27,False,exp3.png,exp4.png,trial_right_image,-1,exp4.png,3,exp4.png,exp3.png,1,1,non-reversed,correct,0.9732645177486714,1,valid_win,191.55057729999953,17,,,,,,,,,,,,,,,sub_799,2024-05-19_11h03.51.306,Reversal,2023.1.3,59.85694190864153,3,
8,exp1.png,exp2.png,,1,0,1,0,0,8,8,8,,,,,,,,,,,,,,,,,,,,,,,,,False,27,28,False,exp1.png,exp2.png,trial_right_image,-1,exp2.png,3,exp2.png,exp1.png,1,3,reversed,correct,0.5483806360931174,1,valid_win,198.56515409999975,18,,,,,,,,,,,,,,,sub_799,2024-05-19_11h03.51.306,Reversal,2023.1.3,59.85694190864153,3,
9,exp3.png,exp4.png,,1,0,1,0,0,9,9,9,,,,,,,,,,,,,,,,,,,,,,,,,False,28,29,True,exp4.png,exp3.png,trial_left_image,1,exp4.png,3,exp4.png,exp3.png,1,1,non-reversed,correct,0.6779102330291041,1,valid_win,203.9139551999997,19,,,,,,,,,,,,,,,sub_799,2024-05-19_11h03.51.306,Reversal,2023.1.3,59.85694190864153,3,
10,exp1.png,exp2.png,,1,0,1,0,0,10,10,10,,,,,,,,,,,,,,,,,,,,,,,,,False,29,30,False,exp1.png,exp2.png,trial_left_image,1,exp1.png,3,exp2.png,exp1.png,0,4,reversed,incorrect,0.7672132165635849,0,valid_lose,210.54364179999993,19,,,,,,,,,,,,,,,sub_799,2024-05-19_11h03.51.306,Reversal,2023.1.3,59.85694190864153,3,
11,exp3.png,exp4.png,,1,0,1,0,0,11,11,11,,,,,,,,,,,,,,,,,,,,,,,,,False,30,31,False,exp3.png,exp4.png,trial_right_image,-1,exp4.png,3,exp4.png,exp3.png,1,1,non-reversed,correct,0.3121212027213204,1,valid_win,218.3576267999997,20,,,,,,,,,,,,,,,sub_799,2024-05-19_11h03.51.306,Reversal,2023.1.3,59.85694190864153,3,
12,exp1.png,exp2.png,,1,0,1,0,0,12,12,12,,,,,,,,,,,,,,,,,,,,,,,,,False,31,32,False,exp1.png,exp2.png,trial_right_image,-1,exp2.png,3,exp2.png,exp1.png,1,3,reversed,correct,0.12861774368429812,0,invalid_lose,226.17174019999948,20,,,,,,,,,,,,,,,sub_799,2024-05-19_11h03.51.306,Reversal,2023.1.3,59.85694190864153,3,
13,exp3.png,exp4.png,,1,0,1,0,0,13,13,13,,,,,,,,,,,,,,,,,,,,,,,,,False,32,33,False,exp3.png,exp4.png,trial_right_image,-1,exp4.png,3,exp4.png,exp3.png,1,1,non-reversed,correct,0.020903437771398914,0,invalid_lose,231.5531678999996,20,,,,,,,,,,,,,,,sub_799,2024-05-19_11h03.51.306,Reversal,2023.1.3,59.85694190864153,3,
14,exp1.png,exp2.png,,1,0,1,0,0,14,14,14,,,,,,,,,,,,,,,,,,,,,,,,,False,33,34,False,exp1.png,exp2.png,trial_left_image,1,exp1.png,3,exp2.png,exp1.png,0,4,reversed,incorrect,0.10237806043193753,1,invalid_win,236.10177099999964,21,,,,,,,,,,,,,,,sub_799,2024-05-19_11h03.51.306,Reversal,2023.1.3,59.85694190864153,3,
15,exp3.png,exp4.png,,1,0,1,0,0,15,15,15,,,,,,,,,,,,,,,,,,,,,,,,,False,34,35,True,exp4.png,exp3.png,trial_left_image,1,exp4.png,3,exp4.png,exp3.png,1,1,non-reversed,correct,0.8045406438757298,1,valid_win,240.98326670000006,22,,,,,,,,,,,,,,,sub_799,2024-05-19_11h03.51.306,Reversal,2023.1.3,59.85694190864153,3,
16,exp1.png,exp2.png,,1,0,1,0,0,16,16,16,,,,,,,,,,,,,,,,,,,,,,,,,False,35,36,True,exp2.png,exp1.png,trial_right_image,-1,exp1.png,3,exp2.png,exp1.png,0,4,reversed,incorrect,0.796357752262636,0,valid_lose,248.2313336999996,22,,,,,,,,,,,,,,,sub_799,2024-05-19_11h03.51.306,Reversal,2023.1.3,59.85694190864153,3,
17,exp3.png,exp4.png,,1,0,1,0,0,17,17,17,,,,,,,,,,,,,,,,,,,,,,,,,False,36,37,False,exp3.png,exp4.png,trial_right_image,-1,exp4.png,3,exp4.png,exp3.png,1,1,non-reversed,correct,0.23521400555360095,0,invalid_lose,253.37901450000027,22,,,,,,,,,,,,,,,sub_799,2024-05-19_11h03.51.306,Reversal,2023.1.3,59.85694190864153,3,
18,exp1.png,exp2.png,,1,0,1,0,0,18,18,18,,,,,,,,,,,,,,,,,,,,,,,,,False,37,38,True,exp2.png,exp1.png,trial_right_image,-1,exp1.png,3,exp2.png,exp1.png,0,4,reversed,incorrect,0.3755762817911448,0,valid_lose,258.4442097000001,22,,,,,,,,,,,,,,,sub_799,2024-05-19_11h03.51.306,Reversal,2023.1.3,59.85694190864153,3,
19,exp3.png,exp4.png,,1,0,1,0,0,19,19,19,,,,,,,,,,,,,,,,,,,,,,,,,False,38,39,False,exp3.png,exp4.png,trial_right_image,-1,exp4.png,3,exp4.png,exp3.png,1,1,non-reversed,correct,0.6638929463082547,1,valid_win,263.45948599999974,23,,,,,,,,,,,,,,,sub_799,2024-05-19_11h03.51.306,Reversal,2023.1.3,59.85694190864153,3,
20,exp1.png,exp2.png,,1,0,1,0,0,20,20,20,,,,,,,,,,,,,,,,,,,,,,,,,False,39,40,True,exp2.png,exp1.png,trial_right_image,-1,exp1.png,3,exp2.png,exp1.png,0,4,reversed,incorrect,0.2614398521471841,0,valid_lose,269.45710529999997,23,,,,,,,,,,,,,,,sub_799,2024-05-19_11h03.51.306,Reversal,2023.1.3,59.85694190864153,3,
,,,exp1.png,1,0,1,0,,,,,0,0,0,0,0,0,0,0,,,,,,,,,,,,,,,,,,,,,,,,,,,,,,,,,,,,,,337.9391655999998,56.0,56.0,7.949182199999996,"[(56.0, 7.949182199999996)]",,,,,,,,,,sub_799,2024-05-19_11h03.51.306,Reversal,2023.1.3,59.85694190864153,3,
,,,exp2.png,1,0,1,0,,,,,0,0,0,0,0,1,1,1,,,,,,,,,,,,,,,,,,,,,,,,,,,,,,,,,,,,,,346.9893767000003,,61.0,3.228030199999921,"[(61.0, 3.228030199999921)]",61.0,,,,,,,,,sub_799,2024-05-19_11h03.51.306,Reversal,2023.1.3,59.85694190864153,3,
,,,exp3.png,1,0,1,0,,,,,0,0,0,0,0,2,2,2,,,,,,,,,,,,,,,,,,,,,,,,,,,,,,,,,,,,,,351.10646910000014,,18.0,3.1778811999993195,"[(18.0, 3.1778811999993195)]",,18.0,,,,,,,,sub_799,2024-05-19_11h03.51.306,Reversal,2023.1.3,59.85694190864153,3,
,,,exp4.png,1,0,1,0,,,,,0,0,0,0,0,3,3,3,,,,,,,,,,,,,,,,,,,,,,,,,,,,,,,,,,,,,,355.52180619999945,,79.0,4.7934073999995235,"[(76.0, 3.4441813000003094), (79.0, 4.7934073999995235)]",,,79.0,,,,,,,sub_799,2024-05-19_11h03.51.306,Reversal,2023.1.3,59.85694190864153,3,
0,exp1.png,exp2.png,,2,0,2,0,0,0,0,0,,,,,,,,,,,,,,,,,,,,,,,,,True,,,,,,,,,,,,,,,,,,,,,,,,,,,,,,,,,,,sub_799,2024-05-19_11h03.51.306,Reversal,2023.1.3,59.85694190864153,3,
1,exp3.png,exp4.png,,2,0,2,0,0,1,1,1,,,,,,,,,,,,,,,,,,,,,,,,,False,40,41,False,exp3.png,exp4.png,trial_right_image,-1,exp4.png,3,exp4.png,exp3.png,1,1,non-reversed,correct,0.08977732767111024,0,invalid_lose,298.33049459999984,23,,,,,,,,,,,,,,,sub_799,2024-05-19_11h03.51.306,Reversal,2023.1.3,59.85694190864153,3,
2,exp1.png,exp2.png,,2,0,2,0,0,2,2,2,,,,,,,,,,,,,,,,,,,,,,,,,False,41,42,True,exp2.png,exp1.png,trial_right_image,-1,exp1.png,3,exp2.png,exp1.png,0,4,reversed,incorrect,0.5024816443984687,0,valid_lose,303.57877050000025,23,,,,,,,,,,,,,,,sub_799,2024-05-19_11h03.51.306,Reversal,2023.1.3,59.85694190864153,3,
3,exp3.png,exp4.png,,2,0,2,0,0,3,3,3,,,,,,,,,,,,,,,,,,,,,,,,,False,42,43,False,exp3.png,exp4.png,trial_right_image,-1,exp4.png,3,exp4.png,exp3.png,1,1,non-reversed,correct,0.8478213605045699,1,valid_win,308.5607786999999,24,,,,,,,,,,,,,,,sub_799,2024-05-19_11h03.51.306,Reversal,2023.1.3,59.85694190864153,3,
4,exp1.png,exp2.png,,2,0,2,0,0,4,4,4,,,,,,,,,,,,,,,,,,,,,,,,,False,43,44,True,exp2.png,exp1.png,trial_right_image,-1,exp1.png,3,exp2.png,exp1.png,0,4,reversed,incorrect,0.20417641900450423,1,invalid_win,316.52464839999993,25,,,,,,,,,,,,,,,sub_799,2024-05-19_11h03.51.306,Reversal,2023.1.3,59.85694190864153,3,
5,exp3.png,exp4.png,,2,0,2,0,0,5,5,5,,,,,,,,,,,,,,,,,,,,,,,,,False,44,45,True,exp4.png,exp3.png,trial_left_image,1,exp4.png,3,exp4.png,exp3.png,1,1,non-reversed,correct,0.8925136994886351,1,valid_win,321.80581749999965,26,,,,,,,,,,,,,,,sub_799,2024-05-19_11h03.51.306,Reversal,2023.1.3,59.85694190864153,3,
6,exp1.png,exp2.png,,2,0,2,0,0,6,6,6,,,,,,,,,,,,,,,,,,,,,,,,,False,45,46,False,exp1.png,exp2.png,trial_left_image,1,exp1.png,3,exp2.png,exp1.png,0,4,reversed,incorrect,0.241807306235017,1,invalid_win,330.86951260000023,27,,,,,,,,,,,,,,,sub_799,2024-05-19_11h03.51.306,Reversal,2023.1.3,59.85694190864153,3,
7,exp3.png,exp4.png,,2,0,2,0,0,7,7,7,,,,,,,,,,,,,,,,,,,,,,,,,False,46,47,False,exp3.png,exp4.png,trial_right_image,-1,exp4.png,3,exp4.png,exp3.png,1,1,non-reversed,correct,0.8165087427158398,1,valid_win,335.8019309000001,28,,,,,,,,,,,,,,,sub_799,2024-05-19_11h03.51.306,Reversal,2023.1.3,59.85694190864153,3,
8,exp1.png,exp2.png,,2,0,2,0,0,8,8,8,,,,,,,,,,,,,,,,,,,,,,,,,False,47,48,False,exp1.png,exp2.png,trial_left_image,1,exp1.png,3,exp2.png,exp1.png,0,4,reversed,incorrect,0.5975920214485976,0,valid_lose,341.54931020000004,28,,,,,,,,,,,,,,,sub_799,2024-05-19_11h03.51.306,Reversal,2023.1.3,59.85694190864153,3,
9,exp3.png,exp4.png,,2,0,2,0,0,9,9,9,,,,,,,,,,,,,,,,,,,,,,,,,False,48,49,True,exp4.png,exp3.png,trial_left_image,1,exp4.png,3,exp4.png,exp3.png,1,1,non-reversed,correct,0.2369013709286346,0,invalid_lose,346.43097940000007,28,,,,,,,,,,,,,,,sub_799,2024-05-19_11h03.51.306,Reversal,2023.1.3,59.85694190864153,3,
10,exp1.png,exp2.png,,2,0,2,0,0,10,10,10,,,,,,,,,,,,,,,,,,,,,,,,,False,49,50,True,exp2.png,exp1.png,trial_right_image,-1,exp1.png,3,exp2.png,exp1.png,0,4,reversed,incorrect,0.059824824899670115,1,invalid_win,351.5292333999996,29,,,,,,,,,,,,,,,sub_799,2024-05-19_11h03.51.306,Reversal,2023.1.3,59.85694190864153,3,
11,exp3.png,exp4.png,,2,0,2,0,0,11,11,11,,,,,,,,,,,,,,,,,,,,,,,,,False,50,51,True,exp4.png,exp3.png,trial_right_image,-1,exp3.png,3,exp4.png,exp3.png,0,2,non-reversed,incorrect,0.17805678543377956,1,invalid_win,356.31159690000004,30,,,,,,,,,,,,,,,sub_799,2024-05-19_11h03.51.306,Reversal,2023.1.3,59.85694190864153,3,
12,exp1.png,exp2.png,,2,0,2,0,0,12,12,12,,,,,,,,,,,,,,,,,,,,,,,,,False,51,52,True,exp2.png,exp1.png,trial_left_image,1,exp2.png,3,exp2.png,exp1.png,1,3,reversed,correct,0.02477665057022771,0,invalid_lose,362.8089689999997,30,,,,,,,,,,,,,,,sub_799,2024-05-19_11h03.51.306,Reversal,2023.1.3,59.85694190864153,3,
13,exp3.png,exp4.png,,2,0,2,0,0,13,13,13,,,,,,,,,,,,,,,,,,,,,,,,,False,52,53,True,exp4.png,exp3.png,trial_right_image,-1,exp3.png,3,exp4.png,exp3.png,0,2,non-reversed,incorrect,0.688836173158452,0,valid_lose,367.2912673000001,30,,,,,,,,,,,,,,,sub_799,2024-05-19_11h03.51.306,Reversal,2023.1.3,59.85694190864153,3,
14,exp1.png,exp2.png,,2,0,2,0,0,14,14,14,,,,,,,,,,,,,,,,,,,,,,,,,False,53,54,False,exp1.png,exp2.png,trial_right_image,-1,exp2.png,3,exp2.png,exp1.png,1,3,reversed,correct,0.05685577797595476,0,invalid_lose,374.70547689999967,30,,,,,,,,,,,,,,,sub_799,2024-05-19_11h03.51.306,Reversal,2023.1.3,59.85694190864153,3,
15,exp3.png,exp4.png,,2,0,2,0,0,15,15,15,,,,,,,,,,,,,,,,,,,,,,,,,False,54,55,False,exp3.png,exp4.png,trial_left_image,1,exp3.png,3,exp4.png,exp3.png,0,2,non-reversed,incorrect,0.06684725793906265,1,invalid_win,380.50258740000027,31,,,,,,,,,,,,,,,sub_799,2024-05-19_11h03.51.306,Reversal,2023.1.3,59.85694190864153,3,
16,exp1.png,exp2.png,,2,0,2,0,0,16,16,16,,,,,,,,,,,,,,,,,,,,,,,,,False,55,56,False,exp1.png,exp2.png,trial_right_image,-1,exp2.png,3,exp2.png,exp1.png,1,3,reversed,correct,0.38290454879188196,1,valid_win,388.9841319999996,32,,,,,,,,,,,,,,,sub_799,2024-05-19_11h03.51.306,Reversal,2023.1.3,59.85694190864153,3,
17,exp3.png,exp4.png,,2,0,2,0,0,17,17,17,,,,,,,,,,,,,,,,,,,,,,,,,False,56,57,False,exp3.png,exp4.png,trial_left_image,1,exp3.png,3,exp4.png,exp3.png,0,2,non-reversed,incorrect,0.6743228930883747,0,valid_lose,393.93196569999964,32,,,,,,,,,,,,,,,sub_799,2024-05-19_11h03.51.306,Reversal,2023.1.3,59.85694190864153,3,
18,exp1.png,exp2.png,,2,0,2,0,0,18,18,18,,,,,,,,,,,,,,,,,,,,,,,,,False,57,58,True,exp2.png,exp1.png,trial_right_image,-1,exp1.png,3,exp2.png,exp1.png,0,4,reversed,incorrect,0.7177734028937752,0,valid_lose,407.2100769999997,32,,,,,,,,,,,,,,,sub_799,2024-05-19_11h03.51.306,Reversal,2023.1.3,59.85694190864153,3,
19,exp3.png,exp4.png,,2,0,2,0,0,19,19,19,,,,,,,,,,,,,,,,,,,,,,,,,False,58,59,False,exp3.png,exp4.png,trial_left_image,1,exp3.png,3,exp4.png,exp3.png,0,2,non-reversed,incorrect,0.1352155445955816,1,invalid_win,413.6750456,33,,,,,,,,,,,,,,,sub_799,2024-05-19_11h03.51.306,Reversal,2023.1.3,59.85694190864153,3,
20,exp1.png,exp2.png,,2,0,2,0,0,20,20,20,,,,,,,,,,,,,,,,,,,,,,,,,False,59,60,True,exp2.png,exp1.png,trial_left_image,1,exp2.png,3,exp2.png,exp1.png,1,3,reversed,correct,0.5342030537629548,1,valid_win,419.39018959999976,34,,,,,,,,,,,,,,,sub_799,2024-05-19_11h03.51.306,Reversal,2023.1.3,59.85694190864153,3,
,,,exp1.png,2,0,2,0,,,,,0,0,0,0,0,0,0,0,,,,,,,,,,,,,,,,,,,,,,,,,,,,,,,,,,,,,,487.87683749999997,13.0,13.0,4.345213200000217,"[(13.0, 4.345213200000217)]",,,,,,,,,,sub_799,2024-05-19_11h03.51.306,Reversal,2023.1.3,59.85694190864153,3,
,,,exp2.png,2,0,2,0,,,,,0,0,0,0,0,1,1,1,,,,,,,,,,,,,,,,,,,,,,,,,,,,,,,,,,,,,,494.1400679999997,,82.0,2.3607344999991255,"[(82.0, 2.3607344999991255)]",82.0,,,,,,,,,sub_799,2024-05-19_11h03.51.306,Reversal,2023.1.3,59.85694190864153,3,
,,,exp3.png,2,0,2,0,,,,,0,0,0,0,0,2,2,2,,,,,,,,,,,,,,,,,,,,,,,,,,,,,,,,,,,,,,497.60480709999956,,77.0,2.261746299999686,"[(77.0, 2.261746299999686)]",,77.0,,,,,,,,sub_799,2024-05-19_11h03.51.306,Reversal,2023.1.3,59.85694190864153,3,
,,,exp4.png,2,0,2,0,,,,,0,0,0,0,0,3,3,3,,,,,,,,,,,,,,,,,,,,,,,,,,,,,,,,,,,,,,500.8876973999995,,28.0,1.8630855000001247,"[(28.0, 1.8630855000001247)]",,,28.0,,,,,,,sub_799,2024-05-19_11h03.51.306,Reversal,2023.1.3,59.85694190864153,3,
0,exp1.png,exp2.png,,3,0,3,0,0,0,0,0,,,,,,,,,,,,,,,,,,,,,,,,,True,,,,,,,,,,,,,,,,,,,,,,,,,,,,,,,,,,,sub_799,2024-05-19_11h03.51.306,Reversal,2023.1.3,59.85694190864153,3,
1,exp3.png,exp4.png,,3,0,3,0,0,1,1,1,,,,,,,,,,,,,,,,,,,,,,,,,False,60,61,True,exp4.png,exp3.png,trial_right_image,-1,exp3.png,3,exp4.png,exp3.png,0,2,non-reversed,incorrect,0.10268917866014893,1,invalid_win,441.2666841999999,35,,,,,,,,,,,,,,,sub_799,2024-05-19_11h03.51.306,Reversal,2023.1.3,59.85694190864153,3,
2,exp1.png,exp2.png,,3,0,3,0,0,2,2,2,,,,,,,,,,,,,,,,,,,,,,,,,False,61,62,False,exp1.png,exp2.png,trial_right_image,-1,exp2.png,3,exp2.png,exp1.png,1,3,reversed,correct,0.039060418478835235,0,invalid_lose,447.2481201999999,35,,,,,,,,,,,,,,,sub_799,2024-05-19_11h03.51.306,Reversal,2023.1.3,59.85694190864153,3,
3,exp3.png,exp4.png,,3,0,3,0,0,3,3,3,,,,,,,,,,,,,,,,,,,,,,,,,False,62,63,True,exp4.png,exp3.png,trial_right_image,-1,exp3.png,3,exp4.png,exp3.png,0,2,non-reversed,incorrect,0.732866439561828,0,valid_lose,452.3949708,35,,,,,,,,,,,,,,,sub_799,2024-05-19_11h03.51.306,Reversal,2023.1.3,59.85694190864153,3,
4,exp1.png,exp2.png,,3,0,3,0,0,4,4,4,,,,,,,,,,,,,,,,,,,,,,,,,False,63,64,True,exp2.png,exp1.png,trial_right_image,-1,exp1.png,3,exp2.png,exp1.png,0,4,reversed,incorrect,0.034234019404410954,1,invalid_win,457.80966459999945,36,,,,,,,,,,,,,,,sub_799,2024-05-19_11h03.51.306,Reversal,2023.1.3,59.85694190864153,3,
5,exp3.png,exp4.png,,3,0,3,0,0,5,5,5,,,,,,,,,,,,,,,,,,,,,,,,,False,64,65,True,exp4.png,exp3.png,trial_left_image,1,exp4.png,3,exp4.png,exp3.png,1,1,non-reversed,correct,0.8732724644730189,1,valid_win,463.30798289999984,37,,,,,,,,,,,,,,,sub_799,2024-05-19_11h03.51.306,Reversal,2023.1.3,59.85694190864153,3,
6,exp1.png,exp2.png,,3,0,3,0,0,6,6,6,,,,,,,,,,,,,,,,,,,,,,,,,False,65,66,True,exp2.png,exp1.png,trial_right_image,-1,exp1.png,3,exp2.png,exp1.png,0,4,reversed,incorrect,0.5766869153912021,0,valid_lose,468.53954859999976,37,,,,,,,,,,,,,,,sub_799,2024-05-19_11h03.51.306,Reversal,2023.1.3,59.85694190864153,3,
7,exp3.png,exp4.png,,3,0,3,0,0,7,7,7,,,,,,,,,,,,,,,,,,,,,,,,,False,66,67,False,exp3.png,exp4.png,trial_right_image,-1,exp4.png,3,exp4.png,exp3.png,1,1,non-reversed,correct,0.36512091500047095,1,valid_win,474.60421739999947,38,,,,,,,,,,,,,,,sub_799,2024-05-19_11h03.51.306,Reversal,2023.1.3,59.85694190864153,3,
8,exp1.png,exp2.png,,3,0,3,0,0,8,8,8,,,,,,,,,,,,,,,,,,,,,,,,,False,67,68,True,exp2.png,exp1.png,trial_left_image,1,exp2.png,3,exp2.png,exp1.png,1,3,reversed,correct,0.579868981261621,1,valid_win,479.9362135000001,39,,,,,,,,,,,,,,,sub_799,2024-05-19_11h03.51.306,Reversal,2023.1.3,59.85694190864153,3,
9,exp3.png,exp4.png,,3,0,3,0,0,9,9,9,,,,,,,,,,,,,,,,,,,,,,,,,False,68,69,False,exp3.png,exp4.png,trial_left_image,1,exp3.png,3,exp4.png,exp3.png,0,2,non-reversed,incorrect,0.07718785421165397,1,invalid_win,484.9671965999996,40,,,,,,,,,,,,,,,sub_799,2024-05-19_11h03.51.306,Reversal,2023.1.3,59.85694190864153,3,
10,exp1.png,exp2.png,,3,0,3,0,0,10,10,10,,,,,,,,,,,,,,,,,,,,,,,,,False,69,70,False,exp1.png,exp2.png,trial_right_image,-1,exp2.png,3,exp2.png,exp1.png,1,3,reversed,correct,0.3423665187333996,1,valid_win,490.13204870000027,41,,,,,,,,,,,,,,,sub_799,2024-05-19_11h03.51.306,Reversal,2023.1.3,59.85694190864153,3,
11,exp3.png,exp4.png,,3,0,3,0,0,11,11,11,,,,,,,,,,,,,,,,,,,,,,,,,False,70,71,False,exp3.png,exp4.png,trial_left_image,1,exp3.png,3,exp4.png,exp3.png,0,2,non-reversed,incorrect,0.49073794722268926,0,valid_lose,494.9811529999997,41,,,,,,,,,,,,,,,sub_799,2024-05-19_11h03.51.306,Reversal,2023.1.3,59.85694190864153,3,
12,exp1.png,exp2.png,,3,0,3,0,0,12,12,12,,,,,,,,,,,,,,,,,,,,,,,,,False,71,72,True,exp2.png,exp1.png,trial_left_image,1,exp2.png,3,exp2.png,exp1.png,1,3,reversed,correct,0.4601140596981341,1,valid_win,500.9125702000001,42,,,,,,,,,,,,,,,sub_799,2024-05-19_11h03.51.306,Reversal,2023.1.3,59.85694190864153,3,
13,exp3.png,exp4.png,,3,0,3,0,0,13,13,13,,,,,,,,,,,,,,,,,,,,,,,,,False,72,73,True,exp4.png,exp3.png,trial_right_image,-1,exp3.png,3,exp4.png,exp3.png,0,2,non-reversed,incorrect,0.08135403021706789,1,invalid_win,505.74379859999954,43,,,,,,,,,,,,,,,sub_799,2024-05-19_11h03.51.306,Reversal,2023.1.3,59.85694190864153,3,
14,exp1.png,exp2.png,,3,0,3,0,0,14,14,14,,,,,,,,,,,,,,,,,,,,,,,,,False,73,74,False,exp1.png,exp2.png,trial_right_image,-1,exp2.png,3,exp2.png,exp1.png,1,3,reversed,correct,0.1645136557117144,0,invalid_lose,511.12500699999964,43,,,,,,,,,,,,,,,sub_799,2024-05-19_11h03.51.306,Reversal,2023.1.3,59.85694190864153,3,
15,exp3.png,exp4.png,,3,0,3,0,0,15,15,15,,,,,,,,,,,,,,,,,,,,,,,,,False,74,75,True,exp4.png,exp3.png,trial_right_image,-1,exp3.png,3,exp4.png,exp3.png,0,2,non-reversed,incorrect,0.2543227008305875,0,valid_lose,516.2399300999996,43,,,,,,,,,,,,,,,sub_799,2024-05-19_11h03.51.306,Reversal,2023.1.3,59.85694190864153,3,
16,exp1.png,exp2.png,,3,0,3,0,0,16,16,16,,,,,,,,,,,,,,,,,,,,,,,,,False,75,76,False,exp1.png,exp2.png,trial_right_image,-1,exp2.png,3,exp2.png,exp1.png,1,3,reversed,correct,0.08158368082668055,0,invalid_lose,521.3382311999994,43,,,,,,,,,,,,,,,sub_799,2024-05-19_11h03.51.306,Reversal,2023.1.3,59.85694190864153,3,
17,exp3.png,exp4.png,,3,0,3,0,0,17,17,17,,,,,,,,,,,,,,,,,,,,,,,,,False,76,77,False,exp3.png,exp4.png,trial_left_image,1,exp3.png,3,exp4.png,exp3.png,0,2,non-reversed,incorrect,0.7278570745214338,0,valid_lose,524.8774366999996,43,,,,,,,,,,,,,,,sub_799,2024-05-19_11h03.51.306,Reversal,2023.1.3,59.85694190864153,3,
18,exp1.png,exp2.png,,3,0,3,0,0,18,18,18,,,,,,,,,,,,,,,,,,,,,,,,,False,77,78,False,exp1.png,exp2.png,trial_left_image,1,exp1.png,3,exp2.png,exp1.png,0,4,reversed,incorrect,0.16814184197931437,1,invalid_win,531.0530011999999,44,,,,,,,,,,,,,,,sub_799,2024-05-19_11h03.51.306,Reversal,2023.1.3,59.85694190864153,3,
19,exp3.png,exp4.png,,3,0,3,0,0,19,19,19,,,,,,,,,,,,,,,,,,,,,,,,,False,78,79,False,exp3.png,exp4.png,trial_left_image,1,exp3.png,3,exp4.png,exp3.png,0,2,non-reversed,incorrect,0.2618723354995518,0,valid_lose,538.4496842999997,44,,,,,,,,,,,,,,,sub_799,2024-05-19_11h03.51.306,Reversal,2023.1.3,59.85694190864153,3,
20,exp1.png,exp2.png,,3,0,3,0,0,20,20,20,,,,,,,,,,,,,,,,,,,,,,,,,False,79,80,True,exp2.png,exp1.png,trial_right_image,-1,exp1.png,3,exp2.png,exp1.png,0,4,reversed,incorrect,0.18332484054419862,1,invalid_win,544.1145875000002,45,,,,,,,,,,,,,,,sub_799,2024-05-19_11h03.51.306,Reversal,2023.1.3,59.85694190864153,3,
,,,exp1.png,3,0,3,0,,,,,0,0,0,0,0,0,0,0,,,,,,,,,,,,,,,,,,,,,,,,,,,,,,,,,,,,,,612.5999891000001,69.0,69.0,2.6990499000003183,"[(69.0, 2.6990499000003183)]",,,,,,,,,,sub_799,2024-05-19_11h03.51.306,Reversal,2023.1.3,59.85694190864153,3,
,,,exp2.png,3,0,3,0,,,,,0,0,0,0,0,1,1,1,,,,,,,,,,,,,,,,,,,,,,,,,,,,,,,,,,,,,,616.4163796000003,,None,None,[],,,,,,,,,,sub_799,2024-05-19_11h03.51.306,Reversal,2023.1.3,59.85694190864153,3,
,,,exp3.png,3,0,3,0,,,,,0,0,0,0,0,2,2,2,,,,,,,,,,,,,,,,,,,,,,,,,,,,,,,,,,,,,,620.4640201000002,,58.0,2.9124675000002753,"[(58.0, 2.9124675000002753)]",,58.0,,,,,,,,sub_799,2024-05-19_11h03.51.306,Reversal,2023.1.3,59.85694190864153,3,
,,,exp4.png,3,0,3,0,,,,,0,0,0,0,0,3,3,3,,,,,,,,,,,,,,,,,,,,,,,,,,,,,,,,,,,,,,624.3494017000003,,43.0,2.3943915999998353,"[(43.0, 2.3943915999998353)]",,,43.0,,,,,,,sub_799,2024-05-19_11h03.51.306,Reversal,2023.1.3,59.85694190864153,3,
0,exp1.png,exp2.png,,,,,,,,,,,,,,,,,,0,0,0,0,0,0,0,0,,,,,,,,,True,,,,,,,,,,,,,,,,,,,,,,,,,,,,,,,,,,,sub_799,2024-05-19_11h03.51.306,Reversal,2023.1.3,59.85694190864153,3,
1,exp3.png,exp4.png,,,,,,,,,,,,,,,,,,0,0,0,0,0,1,1,1,,,,,,,,,False,0,81,False,exp3.png,exp4.png,trial_left_image,1,exp3.png,3,exp4.png,exp3.png,0,2,non-reversed,incorrect,0.43246838247036,0,valid_lose,568.4391839,45,,,,,,,,,561.7528998999996,,,,,,sub_799,2024-05-19_11h03.51.306,Reversal,2023.1.3,59.85694190864153,3,
2,exp1.png,exp2.png,,,,,,,,,,,,,,,,,,0,0,0,0,0,2,2,2,,,,,,,,,False,1,82,True,exp2.png,exp1.png,trial_right_image,-1,exp1.png,3,exp1.png,exp2.png,0,4,reversed,correct,0.9345742021834017,1,valid_win,574.0206668999999,46,,,,,,,,,,,,,,,sub_799,2024-05-19_11h03.51.306,Reversal,2023.1.3,59.85694190864153,3,
3,exp3.png,exp4.png,,,,,,,,,,,,,,,,,,0,0,0,0,0,3,3,3,,,,,,,,,False,2,83,False,exp3.png,exp4.png,trial_right_image,-1,exp4.png,3,exp4.png,exp3.png,1,1,non-reversed,correct,0.49540341753378947,1,valid_win,578.9043216,47,,,,,,,,,,,,,,,sub_799,2024-05-19_11h03.51.306,Reversal,2023.1.3,59.85694190864153,3,
4,exp1.png,exp2.png,,,,,,,,,,,,,,,,,,0,0,0,0,0,4,4,4,,,,,,,,,False,3,84,True,exp2.png,exp1.png,trial_right_image,-1,exp1.png,3,exp1.png,exp2.png,0,4,reversed,correct,0.7021856476753381,1,valid_win,584.5001240000001,48,,,,,,,,,,,,,,,sub_799,2024-05-19_11h03.51.306,Reversal,2023.1.3,59.85694190864153,3,
5,exp3.png,exp4.png,,,,,,,,,,,,,,,,,,0,0,0,0,0,5,5,5,,,,,,,,,False,4,85,True,exp4.png,exp3.png,trial_left_image,1,exp4.png,3,exp4.png,exp3.png,1,1,non-reversed,correct,0.9359716208124647,1,valid_win,592.0483368999994,49,,,,,,,,,,,,,,,sub_799,2024-05-19_11h03.51.306,Reversal,2023.1.3,59.85694190864153,3,
6,exp1.png,exp2.png,,,,,,,,,,,,,,,,,,0,0,0,0,0,6,6,6,,,,,,,,,False,5,86,False,exp1.png,exp2.png,trial_left_image,1,exp1.png,3,exp1.png,exp2.png,0,4,reversed,correct,0.08061887226008646,0,invalid_lose,596.8459480000001,49,,,,,,,,,,,,,,,sub_799,2024-05-19_11h03.51.306,Reversal,2023.1.3,59.85694190864153,3,
7,exp3.png,exp4.png,,,,,,,,,,,,,,,,,,0,0,0,0,0,7,7,7,,,,,,,,,False,6,87,False,exp3.png,exp4.png,trial_right_image,-1,exp4.png,3,exp4.png,exp3.png,1,1,non-reversed,correct,0.7683396236511197,1,valid_win,602.2277589999994,50,,,,,,,,,,,,,,,sub_799,2024-05-19_11h03.51.306,Reversal,2023.1.3,59.85694190864153,3,
8,exp1.png,exp2.png,,,,,,,,,,,,,,,,,,0,0,0,0,0,8,8,8,,,,,,,,,False,7,88,False,exp1.png,exp2.png,trial_left_image,1,exp1.png,3,exp1.png,exp2.png,0,4,reversed,correct,0.8822760805649248,1,valid_win,608.4761131999994,51,,,,,,,,,,,,,,,sub_799,2024-05-19_11h03.51.306,Reversal,2023.1.3,59.85694190864153,3,
9,exp3.png,exp4.png,,,,,,,,,,,,,,,,,,0,0,0,0,0,9,9,9,,,,,,,,,False,8,89,False,exp3.png,exp4.png,trial_right_image,-1,exp4.png,3,exp4.png,exp3.png,1,1,non-reversed,correct,0.0969350230199505,0,invalid_lose,613.6901966999994,51,,,,,,,,,,,,,,,sub_799,2024-05-19_11h03.51.306,Reversal,2023.1.3,59.85694190864153,3,
10,exp1.png,exp2.png,,,,,,,,,,,,,,,,,,0,0,0,0,0,10,10,10,,,,,,,,,False,9,90,True,exp2.png,exp1.png,trial_right_image,-1,exp1.png,3,exp1.png,exp2.png,0,4,reversed,correct,0.012565686707079471,0,invalid_lose,619.5383149999998,51,,,,,,,,,,,,,,,sub_799,2024-05-19_11h03.51.306,Reversal,2023.1.3,59.85694190864153,3,
11,exp3.png,exp4.png,,,,,,,,,,,,,,,,,,0,0,0,0,0,11,11,11,,,,,,,,,False,10,91,True,exp4.png,exp3.png,trial_left_image,1,exp4.png,3,exp4.png,exp3.png,1,1,non-reversed,correct,0.7863392660050188,1,valid_win,626.5196092999995,52,,,,,,,,,,,,,,,sub_799,2024-05-19_11h03.51.306,Reversal,2023.1.3,59.85694190864153,3,
12,exp1.png,exp2.png,,,,,,,,,,,,,,,,,,0,0,0,0,0,12,12,12,,,,,,,,,False,11,92,False,exp1.png,exp2.png,trial_left_image,1,exp1.png,3,exp1.png,exp2.png,0,4,reversed,correct,0.17849534508502074,0,invalid_lose,631.9675196999997,52,,,,,,,,,,,,,,,sub_799,2024-05-19_11h03.51.306,Reversal,2023.1.3,59.85694190864153,3,
13,exp3.png,exp4.png,,,,,,,,,,,,,,,,,,0,0,0,0,0,13,13,13,,,,,,,,,False,12,93,True,exp4.png,exp3.png,trial_left_image,1,exp4.png,3,exp4.png,exp3.png,1,1,non-reversed,correct,0.2776385184496257,1,valid_win,641.7809111999995,53,,,,,,,,,,,,,,,sub_799,2024-05-19_11h03.51.306,Reversal,2023.1.3,59.85694190864153,3,
14,exp1.png,exp2.png,,,,,,,,,,,,,,,,,,0,0,0,0,0,14,14,14,,,,,,,,,False,13,94,False,exp1.png,exp2.png,trial_right_image,-1,exp2.png,3,exp1.png,exp2.png,1,3,reversed,incorrect,0.879952012160084,0,valid_lose,647.0455647999997,53,,,,,,,,,,,,,,,sub_799,2024-05-19_11h03.51.306,Reversal,2023.1.3,59.85694190864153,3,
15,exp3.png,exp4.png,,,,,,,,,,,,,,,,,,0,0,0,0,0,15,15,15,,,,,,,,,False,14,95,True,exp4.png,exp3.png,trial_left_image,1,exp4.png,3,exp4.png,exp3.png,1,1,non-reversed,correct,0.7305484955959918,1,valid_win,652.3106754,54,,,,,,,,,,,,,,,sub_799,2024-05-19_11h03.51.306,Reversal,2023.1.3,59.85694190864153,3,
16,exp1.png,exp2.png,,,,,,,,,,,,,,,,,,0,0,0,0,0,16,16,16,,,,,,,,,False,15,96,True,exp2.png,exp1.png,trial_right_image,-1,exp1.png,3,exp1.png,exp2.png,0,4,reversed,correct,0.29157087014222893,1,valid_win,658.7416149000001,55,,,,,,,,,,,,,,,sub_799,2024-05-19_11h03.51.306,Reversal,2023.1.3,59.85694190864153,3,
17,exp3.png,exp4.png,,,,,,,,,,,,,,,,,,0,0,0,0,0,17,17,17,,,,,,,,,False,16,97,False,exp3.png,exp4.png,trial_right_image,-1,exp4.png,3,exp4.png,exp3.png,1,1,non-reversed,correct,0.9586240245370685,1,valid_win,664.4230577999997,56,,,,,,,,,,,,,,,sub_799,2024-05-19_11h03.51.306,Reversal,2023.1.3,59.85694190864153,3,
18,exp1.png,exp2.png,,,,,,,,,,,,,,,,,,0,0,0,0,0,18,18,18,,,,,,,,,False,17,98,True,exp2.png,exp1.png,trial_right_image,-1,exp1.png,3,exp1.png,exp2.png,0,4,reversed,correct,0.9172433563578373,1,valid_win,673.5867454999998,57,,,,,,,,,,,,,,,sub_799,2024-05-19_11h03.51.306,Reversal,2023.1.3,59.85694190864153,3,
19,exp3.png,exp4.png,,,,,,,,,,,,,,,,,,0,0,0,0,0,19,19,19,,,,,,,,,False,18,99,False,exp3.png,exp4.png,trial_right_image,-1,exp4.png,3,exp4.png,exp3.png,1,1,non-reversed,correct,0.9840662390301786,1,valid_win,679.6013031000002,58,,,,,,,,,,,,,,,sub_799,2024-05-19_11h03.51.306,Reversal,2023.1.3,59.85694190864153,3,
20,exp1.png,exp2.png,,,,,,,,,,,,,,,,,,0,0,0,0,0,20,20,20,,,,,,,,,False,19,100,True,exp2.png,exp1.png,trial_right_image,-1,exp1.png,3,exp1.png,exp2.png,0,4,reversed,correct,0.37869453598609415,1,valid_win,685.7831691000001,59,,,,,,,,,,,,,,,sub_799,2024-05-19_11h03.51.306,Reversal,2023.1.3,59.85694190864153,3,
,,,exp1.png,,,,,,,,,,,,,,,,,0,0,0,0,,,,,0,0,0,0,0,0,0,0,,,,,,,,,,,,,,,,,,,,,,754.2595370999998,76.0,76.0,6.088553100000354,"[(69.0, 4.173748300000625), (76.0, 6.088553100000354)]",,,,,,,,,,sub_799,2024-05-19_11h03.51.306,Reversal,2023.1.3,59.85694190864153,3,
,,,exp2.png,,,,,,,,,,,,,,,,,0,0,0,0,,,,,0,0,0,0,0,1,1,1,,,,,,,,,,,,,,,,,,,,,,761.6342782000002,,27.0,2.6954931999998735,"[(27.0, 2.6954931999998735)]",27.0,,,,,,,,,sub_799,2024-05-19_11h03.51.306,Reversal,2023.1.3,59.85694190864153,3,
,,,exp3.png,,,,,,,,,,,,,,,,,0,0,0,0,,,,,0,0,0,0,0,2,2,2,,,,,,,,,,,,,,,,,,,,,,765.3658509999996,,95.0,4.877564899999925,"[(95.0, 4.877564899999925)]",,95.0,,,,,,,,sub_799,2024-05-19_11h03.51.306,Reversal,2023.1.3,59.85694190864153,3,
,,,exp4.png,,,,,,,,,,,,,,,,,0,0,0,0,,,,,0,0,0,0,0,3,3,3,,,,,,,,,,,,,,,,,,,,,,771.3637324000001,,8.0,1.9122183999998015,"[(8.0, 1.9122183999998015)]",,,8.0,,,,,,,sub_799,2024-05-19_11h03.51.306,Reversal,2023.1.3,59.85694190864153,3,
0,exp1.png,exp2.png,,,,,,,,,,,,,,,,,,1,0,1,0,0,0,0,0,,,,,,,,,True,,,,,,,,,,,,,,,,,,,,,,,,,,,,,,,,,,,sub_799,2024-05-19_11h03.51.306,Reversal,2023.1.3,59.85694190864153,3,
1,exp3.png,exp4.png,,,,,,,,,,,,,,,,,,1,0,1,0,0,1,1,1,,,,,,,,,False,20,101,True,exp4.png,exp3.png,trial_right_image,-1,exp3.png,3,exp4.png,exp3.png,0,2,non-reversed,incorrect,0.6127966140867358,0,valid_lose,711.8072268999995,59,,,,,,,,,,,,,,,sub_799,2024-05-19_11h03.51.306,Reversal,2023.1.3,59.85694190864153,3,
2,exp1.png,exp2.png,,,,,,,,,,,,,,,,,,1,0,1,0,0,2,2,2,,,,,,,,,False,21,102,True,exp2.png,exp1.png,trial_left_image,1,exp2.png,3,exp1.png,exp2.png,1,3,reversed,incorrect,0.16117179383590163,1,invalid_win,717.2718260000001,60,,,,,,,,,,,,,,,sub_799,2024-05-19_11h03.51.306,Reversal,2023.1.3,59.85694190864153,3,
3,exp3.png,exp4.png,,,,,,,,,,,,,,,,,,1,0,1,0,0,3,3,3,,,,,,,,,False,22,103,False,exp3.png,exp4.png,trial_right_image,-1,exp4.png,3,exp4.png,exp3.png,1,1,non-reversed,correct,0.287281006209288,1,valid_win,722.3039394999996,61,,,,,,,,,,,,,,,sub_799,2024-05-19_11h03.51.306,Reversal,2023.1.3,59.85694190864153,3,
4,exp1.png,exp2.png,,,,,,,,,,,,,,,,,,1,0,1,0,0,4,4,4,,,,,,,,,False,23,104,True,exp2.png,exp1.png,trial_left_image,1,exp2.png,3,exp1.png,exp2.png,1,3,reversed,incorrect,0.8452723599113869,0,valid_lose,727.4351884999996,61,,,,,,,,,,,,,,,sub_799,2024-05-19_11h03.51.306,Reversal,2023.1.3,59.85694190864153,3,
5,exp3.png,exp4.png,,,,,,,,,,,,,,,,,,1,0,1,0,0,5,5,5,,,,,,,,,False,24,105,True,exp4.png,exp3.png,trial_left_image,1,exp4.png,3,exp4.png,exp3.png,1,1,non-reversed,correct,0.7945579955175829,1,valid_win,732.6500022999999,62,,,,,,,,,,,,,,,sub_799,2024-05-19_11h03.51.306,Reversal,2023.1.3,59.85694190864153,3,
6,exp1.png,exp2.png,,,,,,,,,,,,,,,,,,1,0,1,0,0,6,6,6,,,,,,,,,False,25,106,False,exp1.png,exp2.png,trial_left_image,1,exp1.png,3,exp1.png,exp2.png,0,4,reversed,correct,0.24399041455047787,0,invalid_lose,737.8984715999995,62,,,,,,,,,,,,,,,sub_799,2024-05-19_11h03.51.306,Reversal,2023.1.3,59.85694190864153,3,
7,exp3.png,exp4.png,,,,,,,,,,,,,,,,,,1,0,1,0,0,7,7,7,,,,,,,,,False,26,107,True,exp4.png,exp3.png,trial_left_image,1,exp4.png,3,exp4.png,exp3.png,1,1,non-reversed,correct,0.5354172521746907,1,valid_win,743.3301777999995,63,,,,,,,,,,,,,,,sub_799,2024-05-19_11h03.51.306,Reversal,2023.1.3,59.85694190864153,3,
8,exp1.png,exp2.png,,,,,,,,,,,,,,,,,,1,0,1,0,0,8,8,8,,,,,,,,,False,27,108,False,exp1.png,exp2.png,trial_right_image,-1,exp2.png,3,exp1.png,exp2.png,1,3,reversed,incorrect,0.7529018408036131,0,valid_lose,747.4955078000003,63,,,,,,,,,,,,,,,sub_799,2024-05-19_11h03.51.306,Reversal,2023.1.3,59.85694190864153,3,
9,exp3.png,exp4.png,,,,,,,,,,,,,,,,,,1,0,1,0,0,9,9,9,,,,,,,,,False,28,109,True,exp4.png,exp3.png,trial_left_image,1,exp4.png,3,exp4.png,exp3.png,1,1,non-reversed,correct,0.17078347532942983,0,invalid_lose,754.0100083999996,63,,,,,,,,,,,,,,,sub_799,2024-05-19_11h03.51.306,Reversal,2023.1.3,59.85694190864153,3,
10,exp1.png,exp2.png,,,,,,,,,,,,,,,,,,1,0,1,0,0,10,10,10,,,,,,,,,False,29,110,False,exp1.png,exp2.png,trial_left_image,1,exp1.png,3,exp1.png,exp2.png,0,4,reversed,correct,0.2928938682150989,1,valid_win,759.3245762999995,64,,,,,,,,,,,,,,,sub_799,2024-05-19_11h03.51.306,Reversal,2023.1.3,59.85694190864153,3,
11,exp3.png,exp4.png,,,,,,,,,,,,,,,,,,1,0,1,0,0,11,11,11,,,,,,,,,False,30,111,True,exp4.png,exp3.png,trial_left_image,1,exp4.png,3,exp4.png,exp3.png,1,1,non-reversed,correct,0.5311219071822292,1,valid_win,764.3064815999996,65,,,,,,,,,,,,,,,sub_799,2024-05-19_11h03.51.306,Reversal,2023.1.3,59.85694190864153,3,
12,exp1.png,exp2.png,,,,,,,,,,,,,,,,,,1,0,1,0,0,12,12,12,,,,,,,,,False,31,112,True,exp2.png,exp1.png,trial_right_image,-1,exp1.png,3,exp1.png,exp2.png,0,4,reversed,correct,0.10483718030203515,0,invalid_lose,768.6880903000001,65,,,,,,,,,,,,,,,sub_799,2024-05-19_11h03.51.306,Reversal,2023.1.3,59.85694190864153,3,
13,exp3.png,exp4.png,,,,,,,,,,,,,,,,,,1,0,1,0,0,13,13,13,,,,,,,,,False,32,113,False,exp3.png,exp4.png,trial_right_image,-1,exp4.png,3,exp4.png,exp3.png,1,1,non-reversed,correct,0.21031684847045262,0,invalid_lose,774.6694379,65,,,,,,,,,,,,,,,sub_799,2024-05-19_11h03.51.306,Reversal,2023.1.3,59.85694190864153,3,
14,exp1.png,exp2.png,,,,,,,,,,,,,,,,,,1,0,1,0,0,14,14,14,,,,,,,,,False,33,114,False,exp1.png,exp2.png,trial_left_image,1,exp1.png,3,exp1.png,exp2.png,0,4,reversed,correct,0.7158499535543377,1,valid_win,781.1174184000001,66,,,,,,,,,,,,,,,sub_799,2024-05-19_11h03.51.306,Reversal,2023.1.3,59.85694190864153,3,
15,exp3.png,exp4.png,,,,,,,,,,,,,,,,,,1,0,1,0,0,15,15,15,,,,,,,,,False,34,115,False,exp3.png,exp4.png,trial_right_image,-1,exp4.png,3,exp4.png,exp3.png,1,1,non-reversed,correct,0.3830840868881644,1,valid_win,788.8143602,67,,,,,,,,,,,,,,,sub_799,2024-05-19_11h03.51.306,Reversal,2023.1.3,59.85694190864153,3,
16,exp1.png,exp2.png,,,,,,,,,,,,,,,,,,1,0,1,0,0,16,16,16,,,,,,,,,False,35,116,False,exp1.png,exp2.png,trial_left_image,1,exp1.png,3,exp1.png,exp2.png,0,4,reversed,correct,0.7595490243715372,1,valid_win,796.1286020999996,68,,,,,,,,,,,,,,,sub_799,2024-05-19_11h03.51.306,Reversal,2023.1.3,59.85694190864153,3,
17,exp3.png,exp4.png,,,,,,,,,,,,,,,,,,1,0,1,0,0,17,17,17,,,,,,,,,False,36,117,True,exp4.png,exp3.png,trial_left_image,1,exp4.png,3,exp4.png,exp3.png,1,1,non-reversed,correct,0.3662280543972293,1,valid_win,800.6936377000002,69,,,,,,,,,,,,,,,sub_799,2024-05-19_11h03.51.306,Reversal,2023.1.3,59.85694190864153,3,
18,exp1.png,exp2.png,,,,,,,,,,,,,,,,,,1,0,1,0,0,18,18,18,,,,,,,,,False,37,118,False,exp1.png,exp2.png,trial_left_image,1,exp1.png,3,exp1.png,exp2.png,0,4,reversed,correct,0.2398298365569318,0,invalid_lose,805.3589929999998,69,,,,,,,,,,,,,,,sub_799,2024-05-19_11h03.51.306,Reversal,2023.1.3,59.85694190864153,3,
19,exp3.png,exp4.png,,,,,,,,,,,,,,,,,,1,0,1,0,0,19,19,19,,,,,,,,,False,38,119,False,exp3.png,exp4.png,trial_right_image,-1,exp4.png,3,exp4.png,exp3.png,1,1,non-reversed,correct,0.8950656622812102,1,valid_win,812.2730007999999,70,,,,,,,,,,,,,,,sub_799,2024-05-19_11h03.51.306,Reversal,2023.1.3,59.85694190864153,3,
20,exp1.png,exp2.png,,,,,,,,,,,,,,,,,,1,0,1,0,0,20,20,20,,,,,,,,,False,39,120,True,exp2.png,exp1.png,trial_right_image,-1,exp1.png,3,exp1.png,exp2.png,0,4,reversed,correct,0.9333833635908709,1,valid_win,816.5886840000003,71,,,,,,,,,,,,,,,sub_799,2024-05-19_11h03.51.306,Reversal,2023.1.3,59.85694190864153,3,
,,,exp1.png,,,,,,,,,,,,,,,,,1,0,1,0,,,,,0,0,0,0,0,0,0,0,,,,,,,,,,,,,,,,,,,,,,885.0661472000002,,None,None,[],,,,,,,,,,sub_799,2024-05-19_11h03.51.306,Reversal,2023.1.3,59.85694190864153,3,
,,,exp2.png,,,,,,,,,,,,,,,,,1,0,1,0,,,,,0,0,0,0,0,1,1,1,,,,,,,,,,,,,,,,,,,,,,889.3242048000002,,None,None,[],,,,,,,,,,sub_799,2024-05-19_11h03.51.306,Reversal,2023.1.3,59.85694190864153,3,
,,,exp3.png,,,,,,,,,,,,,,,,,1,0,1,0,,,,,0,0,0,0,0,2,2,2,,,,,,,,,,,,,,,,,,,,,,892.6213097999998,,32.0,4.97748109999975,"[(32.0, 4.97748109999975)]",,32.0,,,,,,,,sub_799,2024-05-19_11h03.51.306,Reversal,2023.1.3,59.85694190864153,3,
,,,exp4.png,,,,,,,,,,,,,,,,,1,0,1,0,,,,,0,0,0,0,0,3,3,3,,,,,,,,,,,,,,,,,,,,,,899.1700467000001,,66.0,1.6288926999995965,"[(66.0, 1.6288926999995965)]",,,66.0,,,,,,,sub_799,2024-05-19_11h03.51.306,Reversal,2023.1.3,59.85694190864153,3,
0,exp1.png,exp2.png,,,,,,,,,,,,,,,,,,2,0,2,0,0,0,0,0,,,,,,,,,True,,,,,,,,,,,,,,,,,,,,,,,,,,,,,,,,,,,sub_799,2024-05-19_11h03.51.306,Reversal,2023.1.3,59.85694190864153,3,
1,exp3.png,exp4.png,,,,,,,,,,,,,,,,,,2,0,2,0,0,1,1,1,,,,,,,,,False,40,121,True,exp4.png,exp3.png,trial_right_image,-1,exp3.png,3,exp4.png,exp3.png,0,2,non-reversed,incorrect,0.0007783953275700695,1,invalid_win,842.0806898999999,72,,,,,,,,,,,,,,,sub_799,2024-05-19_11h03.51.306,Reversal,2023.1.3,59.85694190864153,3,
2,exp1.png,exp2.png,,,,,,,,,,,,,,,,,,2,0,2,0,0,2,2,2,,,,,,,,,False,41,122,False,exp1.png,exp2.png,trial_left_image,1,exp1.png,3,exp1.png,exp2.png,0,4,reversed,correct,0.77220455844228,1,valid_win,847.0610710999999,73,,,,,,,,,,,,,,,sub_799,2024-05-19_11h03.51.306,Reversal,2023.1.3,59.85694190864153,3,
3,exp3.png,exp4.png,,,,,,,,,,,,,,,,,,2,0,2,0,0,3,3,3,,,,,,,,,False,42,123,False,exp3.png,exp4.png,trial_left_image,1,exp3.png,3,exp4.png,exp3.png,0,2,non-reversed,incorrect,0.5546680473092895,0,valid_lose,851.6601941999998,73,,,,,,,,,,,,,,,sub_799,2024-05-19_11h03.51.306,Reversal,2023.1.3,59.85694190864153,3,
4,exp1.png,exp2.png,,,,,,,,,,,,,,,,,,2,0,2,0,0,4,4,4,,,,,,,,,False,43,124,True,exp2.png,exp1.png,trial_right_image,-1,exp1.png,3,exp1.png,exp2.png,0,4,reversed,correct,0.7254804058230098,1,valid_win,856.2581891,74,,,,,,,,,,,,,,,sub_799,2024-05-19_11h03.51.306,Reversal,2023.1.3,59.85694190864153,3,
5,exp3.png,exp4.png,,,,,,,,,,,,,,,,,,2,0,2,0,0,5,5,5,,,,,,,,,False,44,125,False,exp3.png,exp4.png,trial_right_image,-1,exp4.png,3,exp4.png,exp3.png,1,1,non-reversed,correct,0.834173129969143,1,valid_win,861.2065843999999,75,,,,,,,,,,,,,,,sub_799,2024-05-19_11h03.51.306,Reversal,2023.1.3,59.85694190864153,3,
6,exp1.png,exp2.png,,,,,,,,,,,,,,,,,,2,0,2,0,0,6,6,6,,,,,,,,,False,45,126,True,exp2.png,exp1.png,trial_right_image,-1,exp1.png,3,exp1.png,exp2.png,0,4,reversed,correct,0.9763348385076808,1,valid_win,866.6212912000001,76,,,,,,,,,,,,,,,sub_799,2024-05-19_11h03.51.306,Reversal,2023.1.3,59.85694190864153,3,
7,exp3.png,exp4.png,,,,,,,,,,,,,,,,,,2,0,2,0,0,7,7,7,,,,,,,,,False,46,127,False,exp3.png,exp4.png,trial_right_image,-1,exp4.png,3,exp4.png,exp3.png,1,1,non-reversed,correct,0.8062173215419757,1,valid_win,870.6205687000001,77,,,,,,,,,,,,,,,sub_799,2024-05-19_11h03.51.306,Reversal,2023.1.3,59.85694190864153,3,
8,exp1.png,exp2.png,,,,,,,,,,,,,,,,,,2,0,2,0,0,8,8,8,,,,,,,,,False,47,128,True,exp2.png,exp1.png,trial_right_image,-1,exp1.png,3,exp1.png,exp2.png,0,4,reversed,correct,0.38305106970606073,1,valid_win,875.9347122999998,78,,,,,,,,,,,,,,,sub_799,2024-05-19_11h03.51.306,Reversal,2023.1.3,59.85694190864153,3,
9,exp3.png,exp4.png,,,,,,,,,,,,,,,,,,2,0,2,0,0,9,9,9,,,,,,,,,False,48,129,True,exp4.png,exp3.png,trial_right_image,-1,exp3.png,3,exp4.png,exp3.png,0,2,non-reversed,incorrect,0.7837373727341936,0,valid_lose,881.3330663999996,78,,,,,,,,,,,,,,,sub_799,2024-05-19_11h03.51.306,Reversal,2023.1.3,59.85694190864153,3,
10,exp1.png,exp2.png,,,,,,,,,,,,,,,,,,2,0,2,0,0,10,10,10,,,,,,,,,False,49,130,True,exp2.png,exp1.png,trial_right_image,-1,exp1.png,3,exp1.png,exp2.png,0,4,reversed,correct,0.5938851261724606,1,valid_win,886.2990978999997,79,,,,,,,,,,,,,,,sub_799,2024-05-19_11h03.51.306,Reversal,2023.1.3,59.85694190864153,3,
11,exp3.png,exp4.png,,,,,,,,,,,,,,,,,,2,0,2,0,0,11,11,11,,,,,,,,,False,50,131,False,exp3.png,exp4.png,trial_left_image,1,exp3.png,3,exp4.png,exp3.png,0,2,non-reversed,incorrect,0.3524470888987382,0,valid_lose,892.0961447999998,79,,,,,,,,,,,,,,,sub_799,2024-05-19_11h03.51.306,Reversal,2023.1.3,59.85694190864153,3,
12,exp1.png,exp2.png,,,,,,,,,,,,,,,,,,2,0,2,0,0,12,12,12,,,,,,,,,False,51,132,False,exp1.png,exp2.png,trial_left_image,1,exp1.png,3,exp1.png,exp2.png,0,4,reversed,correct,0.8294195469579634,1,valid_win,896.2278428999998,80,,,,,,,,,,,,,,,sub_799,2024-05-19_11h03.51.306,Reversal,2023.1.3,59.85694190864153,3,
13,exp3.png,exp4.png,,,,,,,,,,,,,,,,,,2,0,2,0,0,13,13,13,,,,,,,,,False,52,133,False,exp3.png,exp4.png,trial_right_image,-1,exp4.png,3,exp4.png,exp3.png,1,1,non-reversed,correct,0.11882373510243038,0,invalid_lose,900.1096519000002,80,,,,,,,,,,,,,,,sub_799,2024-05-19_11h03.51.306,Reversal,2023.1.3,59.85694190864153,3,
14,exp1.png,exp2.png,,,,,,,,,,,,,,,,,,2,0,2,0,0,14,14,14,,,,,,,,,False,53,134,False,exp1.png,exp2.png,trial_left_image,1,exp1.png,3,exp1.png,exp2.png,0,4,reversed,correct,0.07342824397717629,0,invalid_lose,904.6753034000003,80,,,,,,,,,,,,,,,sub_799,2024-05-19_11h03.51.306,Reversal,2023.1.3,59.85694190864153,3,
15,exp3.png,exp4.png,,,,,,,,,,,,,,,,,,2,0,2,0,0,15,15,15,,,,,,,,,False,54,135,False,exp3.png,exp4.png,trial_right_image,-1,exp4.png,3,exp4.png,exp3.png,1,1,non-reversed,correct,0.6226246859753142,1,valid_win,908.6245131999995,81,,,,,,,,,,,,,,,sub_799,2024-05-19_11h03.51.306,Reversal,2023.1.3,59.85694190864153,3,
16,exp1.png,exp2.png,,,,,,,,,,,,,,,,,,2,0,2,0,0,16,16,16,,,,,,,,,False,55,136,True,exp2.png,exp1.png,trial_right_image,-1,exp1.png,3,exp1.png,exp2.png,0,4,reversed,correct,0.6678520928802576,1,valid_win,920.3198086000002,82,,,,,,,,,,,,,,,sub_799,2024-05-19_11h03.51.306,Reversal,2023.1.3,59.85694190864153,3,
17,exp3.png,exp4.png,,,,,,,,,,,,,,,,,,2,0,2,0,0,17,17,17,,,,,,,,,False,56,137,True,exp4.png,exp3.png,trial_left_image,1,exp4.png,3,exp4.png,exp3.png,1,1,non-reversed,correct,0.38380113127652604,1,valid_win,930.1497160999998,83,,,,,,,,,,,,,,,sub_799,2024-05-19_11h03.51.306,Reversal,2023.1.3,59.85694190864153,3,
18,exp1.png,exp2.png,,,,,,,,,,,,,,,,,,2,0,2,0,0,18,18,18,,,,,,,,,False,57,138,False,exp1.png,exp2.png,trial_left_image,1,exp1.png,3,exp1.png,exp2.png,0,4,reversed,correct,0.4998906173102816,1,valid_win,935.7985104999998,84,,,,,,,,,,,,,,,sub_799,2024-05-19_11h03.51.306,Reversal,2023.1.3,59.85694190864153,3,
19,exp3.png,exp4.png,,,,,,,,,,,,,,,,,,2,0,2,0,0,19,19,19,,,,,,,,,False,58,139,True,exp4.png,exp3.png,trial_left_image,1,exp4.png,3,exp4.png,exp3.png,1,1,non-reversed,correct,0.17832575583635124,0,invalid_lose,940.0131449,84,,,,,,,,,,,,,,,sub_799,2024-05-19_11h03.51.306,Reversal,2023.1.3,59.85694190864153,3,
20,exp1.png,exp2.png,,,,,,,,,,,,,,,,,,2,0,2,0,0,20,20,20,,,,,,,,,False,59,140,True,exp2.png,exp1.png,trial_right_image,-1,exp1.png,3,exp1.png,exp2.png,0,4,reversed,correct,0.2063103769799054,0,invalid_lose,945.2113492999997,84,,,,,,,,,,,,,,,sub_799,2024-05-19_11h03.51.306,Reversal,2023.1.3,59.85694190864153,3,
,,,exp1.png,,,,,,,,,,,,,,,,,2,0,2,0,,,,,0,0,0,0,0,0,0,0,,,,,,,,,,,,,,,,,,,,,,1013.6840443000001,62.0,62.0,4.310296300000118,"[(60.0, 2.9270950000000084), (62.0, 4.310296300000118)]",,,,,,,,,,sub_799,2024-05-19_11h03.51.306,Reversal,2023.1.3,59.85694190864153,3,
,,,exp2.png,,,,,,,,,,,,,,,,,2,0,2,0,,,,,0,0,0,0,0,1,1,1,,,,,,,,,,,,,,,,,,,,,,1018.7962957,,34.0,3.5774842000000717,"[(34.0, 3.5774842000000717)]",34.0,,,,,,,,,sub_799,2024-05-19_11h03.51.306,Reversal,2023.1.3,59.85694190864153,3,
,,,exp3.png,,,,,,,,,,,,,,,,,2,0,2,0,,,,,0,0,0,0,0,2,2,2,,,,,,,,,,,,,,,,,,,,,,1023.6787730999995,,50.0,10.641594300000179,"[(50.0, 10.641594300000179)]",,50.0,,,,,,,,sub_799,2024-05-19_11h03.51.306,Reversal,2023.1.3,59.85694190864153,3,
,,,exp4.png,,,,,,,,,,,,,,,,,2,0,2,0,,,,,0,0,0,0,0,3,3,3,,,,,,,,,,,,,,,,,,,,,,1035.1427084999996,,None,None,[],,,,,,,,,,sub_799,2024-05-19_11h03.51.306,Reversal,2023.1.3,59.85694190864153,3,
,,,,,,,,,,,,,,,,,,,,,,,,,,,,,,,,,,,,,,,,,,,,,,,,,,,,,,,,84,,,,,,,,,,90,40,50,408.43427260000044,1,,,,,,,
