trial_index,trial_image1_file,trial_image2_file,image_file,learning_outer_loop.thisRepN,learning_outer_loop.thisTrialN,learning_outer_loop.thisN,learning_outer_loop.thisIndex,learning_inner_loop.thisRepN,learning_inner_loop.thisTrialN,learning_inner_loop.thisN,learning_inner_loop.thisIndex,learning_estimation_outer_loop.thisRepN,learning_estimation_outer_loop.thisTrialN,learning_estimation_outer_loop.thisN,learning_estimation_outer_loop.thisIndex,learning_estimation_inner_loop.thisRepN,learning_estimation_inner_loop.thisTrialN,learning_estimation_inner_loop.thisN,learning_estimation_inner_loop.thisIndex,reversal_outer_loop.thisRepN,reversal_outer_loop.thisTrialN,reversal_outer_loop.thisN,reversal_outer_loop.thisIndex,reversal_inner_loop.thisRepN,reversal_inner_loop.thisTrialN,reversal_inner_loop.thisN,reversal_inner_loop.thisIndex,reversal_estimation_outer_loop.thisRepN,reversal_estimation_outer_loop.thisTrialN,reversal_estimation_outer_loop.thisN,reversal_estimation_outer_loop.thisIndex,reversal_estimation_inner_loop.thisRepN,reversal_estimation_inner_loop.thisTrialN,reversal_estimation_inner_loop.thisN,reversal_estimation_inner_loop.thisIndex,skipped,total_trial_counter,trial_num,left_right_flip,left_image_file,right_image_file,clicked_stimulus_side,side,clicked_stimulus,version,high_prob_image_file,low_prob_image_file,choice_a,choice_b,pair_type,correct,trial_feedback_random,reward,trial_type,overall_time_after_trial,score,estimation_rating.started,estimation_exp1.png,estimation_rating.response,estimation_rating.rt,estimation_rating.history,estimation_exp2.png,estimation_exp3.png,estimation_exp4.png,total_learning_time,total_correct,learning_correct,reversal_correct,total_reversal_time,extra_block,participant,date,expName,psychopyVersion,frameRate,ver,
0,exp1.png,exp2.png,,0,0,0,0,0,0,0,0,,,,,,,,,,,,,,,,,,,,,,,,,False,0,1,True,exp2.png,exp1.png,trial_right_image,-1,exp1.png,3,exp2.png,exp1.png,0,4,reversed,incorrect,0.10162077491960297,1,invalid_win,2.930561300003319,1,,,,,,,,,,,,,,,sub_791,2024-08-19_12h21.14.043,Reversal,2023.1.3,60.0790399801073,3,
1,exp3.png,exp4.png,,0,0,0,0,0,1,1,1,,,,,,,,,,,,,,,,,,,,,,,,,False,1,2,True,exp4.png,exp3.png,trial_right_image,-1,exp3.png,3,exp4.png,exp3.png,0,2,non-reversed,incorrect,0.49948719736156333,0,valid_lose,13.660254999995232,1,,,,,,,,,,,,,,,sub_791,2024-08-19_12h21.14.043,Reversal,2023.1.3,60.0790399801073,3,
2,exp1.png,exp2.png,,0,0,0,0,0,2,2,2,,,,,,,,,,,,,,,,,,,,,,,,,False,2,3,True,exp2.png,exp1.png,trial_right_image,-1,exp1.png,3,exp2.png,exp1.png,0,4,reversed,incorrect,0.05948985126576034,1,invalid_win,19.441354599999613,2,,,,,,,,,,,,,,,sub_791,2024-08-19_12h21.14.043,Reversal,2023.1.3,60.0790399801073,3,
3,exp3.png,exp4.png,,0,0,0,0,0,3,3,3,,,,,,,,,,,,,,,,,,,,,,,,,False,3,4,True,exp4.png,exp3.png,trial_right_image,-1,exp3.png,3,exp4.png,exp3.png,0,2,non-reversed,incorrect,0.922056498435869,0,valid_lose,28.388236900005722,2,,,,,,,,,,,,,,,sub_791,2024-08-19_12h21.14.043,Reversal,2023.1.3,60.0790399801073,3,
4,exp1.png,exp2.png,,0,0,0,0,0,4,4,4,,,,,,,,,,,,,,,,,,,,,,,,,False,4,5,False,exp1.png,exp2.png,trial_left_image,1,exp1.png,3,exp2.png,exp1.png,0,4,reversed,incorrect,0.9892737571000333,0,valid_lose,36.11899829999311,2,,,,,,,,,,,,,,,sub_791,2024-08-19_12h21.14.043,Reversal,2023.1.3,60.0790399801073,3,
5,exp3.png,exp4.png,,0,0,0,0,0,5,5,5,,,,,,,,,,,,,,,,,,,,,,,,,False,5,6,False,exp3.png,exp4.png,trial_left_image,1,exp3.png,3,exp4.png,exp3.png,0,2,non-reversed,incorrect,0.4596832522204547,0,valid_lose,53.21334930000012,2,,,,,,,,,,,,,,,sub_791,2024-08-19_12h21.14.043,Reversal,2023.1.3,60.0790399801073,3,
6,exp1.png,exp2.png,,0,0,0,0,0,6,6,6,,,,,,,,,,,,,,,,,,,,,,,,,False,6,7,True,exp2.png,exp1.png,trial_left_image,1,exp2.png,3,exp2.png,exp1.png,1,3,reversed,correct,0.2701236325740429,1,valid_win,61.21131199999945,3,,,,,,,,,,,,,,,sub_791,2024-08-19_12h21.14.043,Reversal,2023.1.3,60.0790399801073,3,
7,exp3.png,exp4.png,,0,0,0,0,0,7,7,7,,,,,,,,,,,,,,,,,,,,,,,,,False,7,8,True,exp4.png,exp3.png,trial_left_image,1,exp4.png,3,exp4.png,exp3.png,1,1,non-reversed,correct,0.9418856313491037,1,valid_win,67.09202209999785,4,,,,,,,,,,,,,,,sub_791,2024-08-19_12h21.14.043,Reversal,2023.1.3,60.0790399801073,3,
8,exp1.png,exp2.png,,0,0,0,0,0,8,8,8,,,,,,,,,,,,,,,,,,,,,,,,,False,8,9,False,exp1.png,exp2.png,trial_right_image,-1,exp2.png,3,exp2.png,exp1.png,1,3,reversed,correct,0.768264030196382,1,valid_win,71.92438070000208,5,,,,,,,,,,,,,,,sub_791,2024-08-19_12h21.14.043,Reversal,2023.1.3,60.0790399801073,3,
9,exp3.png,exp4.png,,0,0,0,0,0,9,9,9,,,,,,,,,,,,,,,,,,,,,,,,,False,9,10,False,exp3.png,exp4.png,trial_right_image,-1,exp4.png,3,exp4.png,exp3.png,1,1,non-reversed,correct,0.6875619970574515,1,valid_win,77.68859619999421,6,,,,,,,,,,,,,,,sub_791,2024-08-19_12h21.14.043,Reversal,2023.1.3,60.0790399801073,3,
10,exp1.png,exp2.png,,0,0,0,0,0,10,10,10,,,,,,,,,,,,,,,,,,,,,,,,,False,10,11,False,exp1.png,exp2.png,trial_right_image,-1,exp2.png,3,exp2.png,exp1.png,1,3,reversed,correct,0.08590433150525945,0,invalid_lose,82.93648649999523,6,,,,,,,,,,,,,,,sub_791,2024-08-19_12h21.14.043,Reversal,2023.1.3,60.0790399801073,3,
11,exp3.png,exp4.png,,0,0,0,0,0,11,11,11,,,,,,,,,,,,,,,,,,,,,,,,,False,11,12,False,exp3.png,exp4.png,trial_left_image,1,exp3.png,3,exp4.png,exp3.png,0,2,non-reversed,incorrect,0.8420996454958863,0,valid_lose,88.15103019999515,6,,,,,,,,,,,,,,,sub_791,2024-08-19_12h21.14.043,Reversal,2023.1.3,60.0790399801073,3,
12,exp1.png,exp2.png,,0,0,0,0,0,12,12,12,,,,,,,,,,,,,,,,,,,,,,,,,False,12,13,False,exp1.png,exp2.png,trial_left_image,1,exp1.png,3,exp2.png,exp1.png,0,4,reversed,incorrect,0.8467490104131197,0,valid_lose,95.28270660000271,6,,,,,,,,,,,,,,,sub_791,2024-08-19_12h21.14.043,Reversal,2023.1.3,60.0790399801073,3,
13,exp3.png,exp4.png,,0,0,0,0,0,13,13,13,,,,,,,,,,,,,,,,,,,,,,,,,False,13,14,False,exp3.png,exp4.png,trial_right_image,-1,exp4.png,3,exp4.png,exp3.png,1,1,non-reversed,correct,0.6563908441852019,1,valid_win,100.7636543999979,7,,,,,,,,,,,,,,,sub_791,2024-08-19_12h21.14.043,Reversal,2023.1.3,60.0790399801073,3,
14,exp1.png,exp2.png,,0,0,0,0,0,14,14,14,,,,,,,,,,,,,,,,,,,,,,,,,False,14,15,True,exp2.png,exp1.png,trial_left_image,1,exp2.png,3,exp2.png,exp1.png,1,3,reversed,correct,0.13944099478744998,0,invalid_lose,106.14594729999953,7,,,,,,,,,,,,,,,sub_791,2024-08-19_12h21.14.043,Reversal,2023.1.3,60.0790399801073,3,
15,exp3.png,exp4.png,,0,0,0,0,0,15,15,15,,,,,,,,,,,,,,,,,,,,,,,,,False,15,16,True,exp4.png,exp3.png,trial_left_image,1,exp4.png,3,exp4.png,exp3.png,1,1,non-reversed,correct,0.9736735503109332,1,valid_win,110.99468499999784,8,,,,,,,,,,,,,,,sub_791,2024-08-19_12h21.14.043,Reversal,2023.1.3,60.0790399801073,3,
16,exp1.png,exp2.png,,0,0,0,0,0,16,16,16,,,,,,,,,,,,,,,,,,,,,,,,,False,16,17,True,exp2.png,exp1.png,trial_right_image,-1,exp1.png,3,exp2.png,exp1.png,0,4,reversed,incorrect,0.16543150125580908,1,invalid_win,116.69400119999773,9,,,,,,,,,,,,,,,sub_791,2024-08-19_12h21.14.043,Reversal,2023.1.3,60.0790399801073,3,
17,exp3.png,exp4.png,,0,0,0,0,0,17,17,17,,,,,,,,,,,,,,,,,,,,,,,,,False,17,18,True,exp4.png,exp3.png,trial_left_image,1,exp4.png,3,exp4.png,exp3.png,1,1,non-reversed,correct,0.8411525198918207,1,valid_win,121.60736510000424,10,,,,,,,,,,,,,,,sub_791,2024-08-19_12h21.14.043,Reversal,2023.1.3,60.0790399801073,3,
18,exp1.png,exp2.png,,0,0,0,0,0,18,18,18,,,,,,,,,,,,,,,,,,,,,,,,,False,18,19,False,exp1.png,exp2.png,trial_left_image,1,exp1.png,3,exp2.png,exp1.png,0,4,reversed,incorrect,0.4156800114353042,0,valid_lose,126.67148190000444,10,,,,,,,,,,,,,,,sub_791,2024-08-19_12h21.14.043,Reversal,2023.1.3,60.0790399801073,3,
19,exp3.png,exp4.png,,0,0,0,0,0,19,19,19,,,,,,,,,,,,,,,,,,,,,,,,,False,19,20,False,exp3.png,exp4.png,trial_right_image,-1,exp4.png,3,exp4.png,exp3.png,1,1,non-reversed,correct,0.9102205277292262,1,valid_win,131.50337229999423,11,,,,,,,,,,,,,,,sub_791,2024-08-19_12h21.14.043,Reversal,2023.1.3,60.0790399801073,3,
20,exp1.png,exp2.png,,0,0,0,0,0,20,20,20,,,,,,,,,,,,,,,,,,,,,,,,,True,,,,,,,,,,,,,,,,,,,,,,,,,,,,,,,,,,,sub_791,2024-08-19_12h21.14.043,Reversal,2023.1.3,60.0790399801073,3,
,,,exp1.png,0,0,0,0,,,,,0,0,0,0,0,0,0,0,,,,,,,,,,,,,,,,,,,,,,,,,,,,,,,,,,,,,,282.0960589000024,50.0,50.0,17.961504899998545,"[(50.0, 17.961504899998545)]",,,,,,,,,,sub_791,2024-08-19_12h21.14.043,Reversal,2023.1.3,60.0790399801073,3,
,,,exp2.png,0,0,0,0,,,,,0,0,0,0,0,1,1,1,,,,,,,,,,,,,,,,,,,,,,,,,,,,,,,,,,,,,,304.1380754000129,,None,None,[],,,,,,,,,,sub_791,2024-08-19_12h21.14.043,Reversal,2023.1.3,60.0790399801073,3,
,,,exp3.png,0,0,0,0,,,,,0,0,0,0,0,2,2,2,,,,,,,,,,,,,,,,,,,,,,,,,,,,,,,,,,,,,,310.03228900000977,,None,None,[],,,,,,,,,,sub_791,2024-08-19_12h21.14.043,Reversal,2023.1.3,60.0790399801073,3,
,,,exp4.png,0,0,0,0,,,,,0,0,0,0,0,3,3,3,,,,,,,,,,,,,,,,,,,,,,,,,,,,,,,,,,,,,,316.4149166999996,,None,None,[],,,,,,,,,,sub_791,2024-08-19_12h21.14.043,Reversal,2023.1.3,60.0790399801073,3,
0,exp1.png,exp2.png,,1,0,1,0,0,0,0,0,,,,,,,,,,,,,,,,,,,,,,,,,False,20,21,False,exp1.png,exp2.png,trial_left_image,1,exp1.png,3,exp2.png,exp1.png,0,4,reversed,incorrect,0.026519165413336654,1,invalid_win,174.2225044999941,12,,,,,,,,,,,,,,,sub_791,2024-08-19_12h21.14.043,Reversal,2023.1.3,60.0790399801073,3,
1,exp3.png,exp4.png,,1,0,1,0,0,1,1,1,,,,,,,,,,,,,,,,,,,,,,,,,False,21,22,False,exp3.png,exp4.png,trial_right_image,-1,exp4.png,3,exp4.png,exp3.png,1,1,non-reversed,correct,0.5522894445299605,1,valid_win,184.73523760000535,13,,,,,,,,,,,,,,,sub_791,2024-08-19_12h21.14.043,Reversal,2023.1.3,60.0790399801073,3,
2,exp1.png,exp2.png,,1,0,1,0,0,2,2,2,,,,,,,,,,,,,,,,,,,,,,,,,False,22,23,True,exp2.png,exp1.png,trial_right_image,-1,exp1.png,3,exp2.png,exp1.png,0,4,reversed,incorrect,0.18661594063116516,1,invalid_win,190.21689080000215,14,,,,,,,,,,,,,,,sub_791,2024-08-19_12h21.14.043,Reversal,2023.1.3,60.0790399801073,3,
3,exp3.png,exp4.png,,1,0,1,0,0,3,3,3,,,,,,,,,,,,,,,,,,,,,,,,,False,23,24,False,exp3.png,exp4.png,trial_right_image,-1,exp4.png,3,exp4.png,exp3.png,1,1,non-reversed,correct,0.4812564116270076,1,valid_win,194.91506889999437,15,,,,,,,,,,,,,,,sub_791,2024-08-19_12h21.14.043,Reversal,2023.1.3,60.0790399801073,3,
4,exp1.png,exp2.png,,1,0,1,0,0,4,4,4,,,,,,,,,,,,,,,,,,,,,,,,,False,24,25,True,exp2.png,exp1.png,trial_right_image,-1,exp1.png,3,exp2.png,exp1.png,0,4,reversed,incorrect,0.89600206367959,0,valid_lose,199.8632634999958,15,,,,,,,,,,,,,,,sub_791,2024-08-19_12h21.14.043,Reversal,2023.1.3,60.0790399801073,3,
5,exp3.png,exp4.png,,1,0,1,0,0,5,5,5,,,,,,,,,,,,,,,,,,,,,,,,,False,25,26,True,exp4.png,exp3.png,trial_left_image,1,exp4.png,3,exp4.png,exp3.png,1,1,non-reversed,correct,0.2488215186943592,0,invalid_lose,205.07823860000644,15,,,,,,,,,,,,,,,sub_791,2024-08-19_12h21.14.043,Reversal,2023.1.3,60.0790399801073,3,
6,exp1.png,exp2.png,,1,0,1,0,0,6,6,6,,,,,,,,,,,,,,,,,,,,,,,,,False,26,27,False,exp1.png,exp2.png,trial_right_image,-1,exp2.png,3,exp2.png,exp1.png,1,3,reversed,correct,0.36080910639194885,1,valid_win,209.8934447000065,16,,,,,,,,,,,,,,,sub_791,2024-08-19_12h21.14.043,Reversal,2023.1.3,60.0790399801073,3,
7,exp3.png,exp4.png,,1,0,1,0,0,7,7,7,,,,,,,,,,,,,,,,,,,,,,,,,False,27,28,False,exp3.png,exp4.png,trial_left_image,1,exp3.png,3,exp4.png,exp3.png,0,2,non-reversed,incorrect,0.9545195882411519,0,valid_lose,214.57505919999676,16,,,,,,,,,,,,,,,sub_791,2024-08-19_12h21.14.043,Reversal,2023.1.3,60.0790399801073,3,
8,exp1.png,exp2.png,,1,0,1,0,0,8,8,8,,,,,,,,,,,,,,,,,,,,,,,,,False,28,29,False,exp1.png,exp2.png,trial_right_image,-1,exp2.png,3,exp2.png,exp1.png,1,3,reversed,correct,0.3305450385419416,1,valid_win,219.35679119999986,17,,,,,,,,,,,,,,,sub_791,2024-08-19_12h21.14.043,Reversal,2023.1.3,60.0790399801073,3,
9,exp3.png,exp4.png,,1,0,1,0,0,9,9,9,,,,,,,,,,,,,,,,,,,,,,,,,False,29,30,True,exp4.png,exp3.png,trial_left_image,1,exp4.png,3,exp4.png,exp3.png,1,1,non-reversed,correct,0.6056819911069292,1,valid_win,224.25452930000029,18,,,,,,,,,,,,,,,sub_791,2024-08-19_12h21.14.043,Reversal,2023.1.3,60.0790399801073,3,
10,exp1.png,exp2.png,,1,0,1,0,0,10,10,10,,,,,,,,,,,,,,,,,,,,,,,,,False,30,31,False,exp1.png,exp2.png,trial_right_image,-1,exp2.png,3,exp2.png,exp1.png,1,3,reversed,correct,0.5220094137412077,1,valid_win,228.95344820000173,19,,,,,,,,,,,,,,,sub_791,2024-08-19_12h21.14.043,Reversal,2023.1.3,60.0790399801073,3,
11,exp3.png,exp4.png,,1,0,1,0,0,11,11,11,,,,,,,,,,,,,,,,,,,,,,,,,False,31,32,True,exp4.png,exp3.png,trial_left_image,1,exp4.png,3,exp4.png,exp3.png,1,1,non-reversed,correct,0.2930429265481401,1,valid_win,233.95192419999512,20,,,,,,,,,,,,,,,sub_791,2024-08-19_12h21.14.043,Reversal,2023.1.3,60.0790399801073,3,
12,exp1.png,exp2.png,,1,0,1,0,0,12,12,12,,,,,,,,,,,,,,,,,,,,,,,,,False,32,33,True,exp2.png,exp1.png,trial_left_image,1,exp2.png,3,exp2.png,exp1.png,1,3,reversed,correct,0.8115158804094456,1,valid_win,238.9669709000009,21,,,,,,,,,,,,,,,sub_791,2024-08-19_12h21.14.043,Reversal,2023.1.3,60.0790399801073,3,
13,exp3.png,exp4.png,,1,0,1,0,0,13,13,13,,,,,,,,,,,,,,,,,,,,,,,,,False,33,34,False,exp3.png,exp4.png,trial_right_image,-1,exp4.png,3,exp4.png,exp3.png,1,1,non-reversed,correct,0.1603916276140811,0,invalid_lose,243.63222369999858,21,,,,,,,,,,,,,,,sub_791,2024-08-19_12h21.14.043,Reversal,2023.1.3,60.0790399801073,3,
14,exp1.png,exp2.png,,1,0,1,0,0,14,14,14,,,,,,,,,,,,,,,,,,,,,,,,,False,34,35,False,exp1.png,exp2.png,trial_right_image,-1,exp2.png,3,exp2.png,exp1.png,1,3,reversed,correct,0.24781126558181477,0,invalid_lose,248.06394730000466,21,,,,,,,,,,,,,,,sub_791,2024-08-19_12h21.14.043,Reversal,2023.1.3,60.0790399801073,3,
15,exp3.png,exp4.png,,1,0,1,0,0,15,15,15,,,,,,,,,,,,,,,,,,,,,,,,,False,35,36,True,exp4.png,exp3.png,trial_right_image,-1,exp3.png,3,exp4.png,exp3.png,0,2,non-reversed,incorrect,0.10172787703042496,1,invalid_win,252.17940379999345,22,,,,,,,,,,,,,,,sub_791,2024-08-19_12h21.14.043,Reversal,2023.1.3,60.0790399801073,3,
16,exp1.png,exp2.png,,1,0,1,0,0,16,16,16,,,,,,,,,,,,,,,,,,,,,,,,,False,36,37,True,exp2.png,exp1.png,trial_right_image,-1,exp1.png,3,exp2.png,exp1.png,0,4,reversed,incorrect,0.5404709583004492,0,valid_lose,256.42766790000314,22,,,,,,,,,,,,,,,sub_791,2024-08-19_12h21.14.043,Reversal,2023.1.3,60.0790399801073,3,
17,exp3.png,exp4.png,,1,0,1,0,0,17,17,17,,,,,,,,,,,,,,,,,,,,,,,,,False,37,38,True,exp4.png,exp3.png,trial_right_image,-1,exp3.png,3,exp4.png,exp3.png,0,2,non-reversed,incorrect,0.27958007314136835,0,valid_lose,260.49342230000184,22,,,,,,,,,,,,,,,sub_791,2024-08-19_12h21.14.043,Reversal,2023.1.3,60.0790399801073,3,
18,exp1.png,exp2.png,,1,0,1,0,0,18,18,18,,,,,,,,,,,,,,,,,,,,,,,,,False,38,39,True,exp2.png,exp1.png,trial_right_image,-1,exp1.png,3,exp2.png,exp1.png,0,4,reversed,incorrect,0.9484133072394193,0,valid_lose,264.8081505000009,22,,,,,,,,,,,,,,,sub_791,2024-08-19_12h21.14.043,Reversal,2023.1.3,60.0790399801073,3,
19,exp3.png,exp4.png,,1,0,1,0,0,19,19,19,,,,,,,,,,,,,,,,,,,,,,,,,False,39,40,False,exp3.png,exp4.png,trial_right_image,-1,exp4.png,3,exp4.png,exp3.png,1,1,non-reversed,correct,0.52280590638224,1,valid_win,269.03980100000626,23,,,,,,,,,,,,,,,sub_791,2024-08-19_12h21.14.043,Reversal,2023.1.3,60.0790399801073,3,
20,exp1.png,exp2.png,,1,0,1,0,0,20,20,20,,,,,,,,,,,,,,,,,,,,,,,,,True,,,,,,,,,,,,,,,,,,,,,,,,,,,,,,,,,,,sub_791,2024-08-19_12h21.14.043,Reversal,2023.1.3,60.0790399801073,3,
,,,exp1.png,1,0,1,0,,,,,0,0,0,0,0,0,0,0,,,,,,,,,,,,,,,,,,,,,,,,,,,,,,,,,,,,,,419.5897190000105,,None,None,[],,,,,,,,,,sub_791,2024-08-19_12h21.14.043,Reversal,2023.1.3,60.0790399801073,3,
,,,exp2.png,1,0,1,0,,,,,0,0,0,0,0,1,1,1,,,,,,,,,,,,,,,,,,,,,,,,,,,,,,,,,,,,,,424.926377300013,,None,None,[],,,,,,,,,,sub_791,2024-08-19_12h21.14.043,Reversal,2023.1.3,60.0790399801073,3,
,,,exp3.png,1,0,1,0,,,,,0,0,0,0,0,2,2,2,,,,,,,,,,,,,,,,,,,,,,,,,,,,,,,,,,,,,,427.7434011000005,,None,None,[],,,,,,,,,,sub_791,2024-08-19_12h21.14.043,Reversal,2023.1.3,60.0790399801073,3,
,,,exp4.png,1,0,1,0,,,,,0,0,0,0,0,3,3,3,,,,,,,,,,,,,,,,,,,,,,,,,,,,,,,,,,,,,,431.4578967000125,,None,None,[],,,,,,,,,,sub_791,2024-08-19_12h21.14.043,Reversal,2023.1.3,60.0790399801073,3,
0,exp1.png,exp2.png,,2,0,2,0,0,0,0,0,,,,,,,,,,,,,,,,,,,,,,,,,False,40,41,True,exp2.png,exp1.png,trial_left_image,1,exp2.png,3,exp2.png,exp1.png,1,3,reversed,correct,0.706456550935753,1,valid_win,288.8502819999994,24,,,,,,,,,,,,,,,sub_791,2024-08-19_12h21.14.043,Reversal,2023.1.3,60.0790399801073,3,
1,exp3.png,exp4.png,,2,0,2,0,0,1,1,1,,,,,,,,,,,,,,,,,,,,,,,,,False,41,42,True,exp4.png,exp3.png,trial_right_image,-1,exp3.png,3,exp4.png,exp3.png,0,2,non-reversed,incorrect,0.489746211193408,0,valid_lose,295.14745020000555,24,,,,,,,,,,,,,,,sub_791,2024-08-19_12h21.14.043,Reversal,2023.1.3,60.0790399801073,3,
2,exp1.png,exp2.png,,2,0,2,0,0,2,2,2,,,,,,,,,,,,,,,,,,,,,,,,,False,42,43,False,exp1.png,exp2.png,trial_right_image,-1,exp2.png,3,exp2.png,exp1.png,1,3,reversed,correct,0.544839728414215,1,valid_win,299.24662669999816,25,,,,,,,,,,,,,,,sub_791,2024-08-19_12h21.14.043,Reversal,2023.1.3,60.0790399801073,3,
3,exp3.png,exp4.png,,2,0,2,0,0,3,3,3,,,,,,,,,,,,,,,,,,,,,,,,,False,43,44,True,exp4.png,exp3.png,trial_left_image,1,exp4.png,3,exp4.png,exp3.png,1,1,non-reversed,correct,0.6837483858942527,1,valid_win,303.7953698000056,26,,,,,,,,,,,,,,,sub_791,2024-08-19_12h21.14.043,Reversal,2023.1.3,60.0790399801073,3,
4,exp1.png,exp2.png,,2,0,2,0,0,4,4,4,,,,,,,,,,,,,,,,,,,,,,,,,False,44,45,False,exp1.png,exp2.png,trial_right_image,-1,exp2.png,3,exp2.png,exp1.png,1,3,reversed,correct,0.6520724596451417,1,valid_win,307.72802789999696,27,,,,,,,,,,,,,,,sub_791,2024-08-19_12h21.14.043,Reversal,2023.1.3,60.0790399801073,3,
5,exp3.png,exp4.png,,2,0,2,0,0,5,5,5,,,,,,,,,,,,,,,,,,,,,,,,,False,45,46,True,exp4.png,exp3.png,trial_right_image,-1,exp3.png,3,exp4.png,exp3.png,0,2,non-reversed,incorrect,0.6095103973832958,0,valid_lose,311.8587125000049,27,,,,,,,,,,,,,,,sub_791,2024-08-19_12h21.14.043,Reversal,2023.1.3,60.0790399801073,3,
6,exp1.png,exp2.png,,2,0,2,0,0,6,6,6,,,,,,,,,,,,,,,,,,,,,,,,,False,46,47,False,exp1.png,exp2.png,trial_right_image,-1,exp2.png,3,exp2.png,exp1.png,1,3,reversed,correct,0.23361309279719011,0,invalid_lose,315.874487699999,27,,,,,,,,,,,,,,,sub_791,2024-08-19_12h21.14.043,Reversal,2023.1.3,60.0790399801073,3,
7,exp3.png,exp4.png,,2,0,2,0,0,7,7,7,,,,,,,,,,,,,,,,,,,,,,,,,False,47,48,True,exp4.png,exp3.png,trial_left_image,1,exp4.png,3,exp4.png,exp3.png,1,1,non-reversed,correct,0.38601739607219754,1,valid_win,319.88957319999463,28,,,,,,,,,,,,,,,sub_791,2024-08-19_12h21.14.043,Reversal,2023.1.3,60.0790399801073,3,
8,exp1.png,exp2.png,,2,0,2,0,0,8,8,8,,,,,,,,,,,,,,,,,,,,,,,,,False,48,49,False,exp1.png,exp2.png,trial_left_image,1,exp1.png,3,exp2.png,exp1.png,0,4,reversed,incorrect,0.9586733153493355,0,valid_lose,324.1876132000034,28,,,,,,,,,,,,,,,sub_791,2024-08-19_12h21.14.043,Reversal,2023.1.3,60.0790399801073,3,
9,exp3.png,exp4.png,,2,0,2,0,0,9,9,9,,,,,,,,,,,,,,,,,,,,,,,,,False,49,50,False,exp3.png,exp4.png,trial_right_image,-1,exp4.png,3,exp4.png,exp3.png,1,1,non-reversed,correct,0.06173634840637143,0,invalid_lose,328.13644750000094,28,,,,,,,,,,,,,,,sub_791,2024-08-19_12h21.14.043,Reversal,2023.1.3,60.0790399801073,3,
10,exp1.png,exp2.png,,2,0,2,0,0,10,10,10,,,,,,,,,,,,,,,,,,,,,,,,,False,50,51,False,exp1.png,exp2.png,trial_left_image,1,exp1.png,3,exp2.png,exp1.png,0,4,reversed,incorrect,0.6644580374638434,0,valid_lose,332.4188162000064,28,,,,,,,,,,,,,,,sub_791,2024-08-19_12h21.14.043,Reversal,2023.1.3,60.0790399801073,3,
11,exp3.png,exp4.png,,2,0,2,0,0,11,11,11,,,,,,,,,,,,,,,,,,,,,,,,,False,51,52,False,exp3.png,exp4.png,trial_right_image,-1,exp4.png,3,exp4.png,exp3.png,1,1,non-reversed,correct,0.07706921406947875,0,invalid_lose,336.35076099999424,28,,,,,,,,,,,,,,,sub_791,2024-08-19_12h21.14.043,Reversal,2023.1.3,60.0790399801073,3,
12,exp1.png,exp2.png,,2,0,2,0,0,12,12,12,,,,,,,,,,,,,,,,,,,,,,,,,False,52,53,True,exp2.png,exp1.png,trial_right_image,-1,exp1.png,3,exp2.png,exp1.png,0,4,reversed,incorrect,0.2608275165004422,0,valid_lose,340.248949300003,28,,,,,,,,,,,,,,,sub_791,2024-08-19_12h21.14.043,Reversal,2023.1.3,60.0790399801073,3,
13,exp3.png,exp4.png,,2,0,2,0,0,13,13,13,,,,,,,,,,,,,,,,,,,,,,,,,False,53,54,False,exp3.png,exp4.png,trial_right_image,-1,exp4.png,3,exp4.png,exp3.png,1,1,non-reversed,correct,0.09372823839700539,0,invalid_lose,344.0650502000062,28,,,,,,,,,,,,,,,sub_791,2024-08-19_12h21.14.043,Reversal,2023.1.3,60.0790399801073,3,
14,exp1.png,exp2.png,,2,0,2,0,0,14,14,14,,,,,,,,,,,,,,,,,,,,,,,,,False,54,55,False,exp1.png,exp2.png,trial_left_image,1,exp1.png,3,exp2.png,exp1.png,0,4,reversed,incorrect,0.8473271366389852,0,valid_lose,347.9465205000015,28,,,,,,,,,,,,,,,sub_791,2024-08-19_12h21.14.043,Reversal,2023.1.3,60.0790399801073,3,
15,exp3.png,exp4.png,,2,0,2,0,0,15,15,15,,,,,,,,,,,,,,,,,,,,,,,,,False,55,56,True,exp4.png,exp3.png,trial_right_image,-1,exp3.png,3,exp4.png,exp3.png,0,2,non-reversed,incorrect,0.8479300200804968,0,valid_lose,351.6950355000008,28,,,,,,,,,,,,,,,sub_791,2024-08-19_12h21.14.043,Reversal,2023.1.3,60.0790399801073,3,
16,exp1.png,exp2.png,,2,0,2,0,0,16,16,16,,,,,,,,,,,,,,,,,,,,,,,,,False,56,57,True,exp2.png,exp1.png,trial_left_image,1,exp2.png,3,exp2.png,exp1.png,1,3,reversed,correct,0.7225081213792568,1,valid_win,355.57717410000623,29,,,,,,,,,,,,,,,sub_791,2024-08-19_12h21.14.043,Reversal,2023.1.3,60.0790399801073,3,
17,exp3.png,exp4.png,,2,0,2,0,0,17,17,17,,,,,,,,,,,,,,,,,,,,,,,,,False,57,58,True,exp4.png,exp3.png,trial_left_image,1,exp4.png,3,exp4.png,exp3.png,1,1,non-reversed,correct,0.9584351823398083,1,valid_win,359.426466799996,30,,,,,,,,,,,,,,,sub_791,2024-08-19_12h21.14.043,Reversal,2023.1.3,60.0790399801073,3,
18,exp1.png,exp2.png,,2,0,2,0,0,18,18,18,,,,,,,,,,,,,,,,,,,,,,,,,False,58,59,True,exp2.png,exp1.png,trial_right_image,-1,exp1.png,3,exp2.png,exp1.png,0,4,reversed,incorrect,0.21740740900504496,1,invalid_win,363.40777789999265,31,,,,,,,,,,,,,,,sub_791,2024-08-19_12h21.14.043,Reversal,2023.1.3,60.0790399801073,3,
19,exp3.png,exp4.png,,2,0,2,0,0,19,19,19,,,,,,,,,,,,,,,,,,,,,,,,,False,59,60,False,exp3.png,exp4.png,trial_right_image,-1,exp4.png,3,exp4.png,exp3.png,1,1,non-reversed,correct,0.2639931565919954,1,valid_win,367.50658889999613,32,,,,,,,,,,,,,,,sub_791,2024-08-19_12h21.14.043,Reversal,2023.1.3,60.0790399801073,3,
20,exp1.png,exp2.png,,2,0,2,0,0,20,20,20,,,,,,,,,,,,,,,,,,,,,,,,,True,,,,,,,,,,,,,,,,,,,,,,,,,,,,,,,,,,,sub_791,2024-08-19_12h21.14.043,Reversal,2023.1.3,60.0790399801073,3,
,,,exp1.png,2,0,2,0,,,,,0,0,0,0,0,0,0,0,,,,,,,,,,,,,,,,,,,,,,,,,,,,,,,,,,,,,,518.0449523000134,47.0,47.0,12.697832399993786,"[(40.0, 6.63249979999091), (47.0, 7.632573399998364), (52.0, 8.647238699995796), (47.0, 12.697832399993786)]",,,,,,,,,,sub_791,2024-08-19_12h21.14.043,Reversal,2023.1.3,60.0790399801073,3,
,,,exp2.png,2,0,2,0,,,,,0,0,0,0,0,1,1,1,,,,,,,,,,,,,,,,,,,,,,,,,,,,,,,,,,,,,,531.8219829000009,,57.0,1.3640266999864252,"[(57.0, 1.3640266999864252)]",57.0,,,,,,,,,sub_791,2024-08-19_12h21.14.043,Reversal,2023.1.3,60.0790399801073,3,
,,,exp3.png,2,0,2,0,,,,,0,0,0,0,0,2,2,2,,,,,,,,,,,,,,,,,,,,,,,,,,,,,,,,,,,,,,534.3223115000001,,None,None,[],,,,,,,,,,sub_791,2024-08-19_12h21.14.043,Reversal,2023.1.3,60.0790399801073,3,
,,,exp4.png,2,0,2,0,,,,,0,0,0,0,0,3,3,3,,,,,,,,,,,,,,,,,,,,,,,,,,,,,,,,,,,,,,536.6718491000065,,None,None,[],,,,,,,,,,sub_791,2024-08-19_12h21.14.043,Reversal,2023.1.3,60.0790399801073,3,
0,exp1.png,exp2.png,,3,0,3,0,0,0,0,0,,,,,,,,,,,,,,,,,,,,,,,,,False,60,61,False,exp1.png,exp2.png,trial_right_image,-1,exp2.png,3,exp2.png,exp1.png,1,3,reversed,correct,0.11973109875636023,0,invalid_lose,391.881879499997,32,,,,,,,,,,,,,,,sub_791,2024-08-19_12h21.14.043,Reversal,2023.1.3,60.0790399801073,3,
1,exp3.png,exp4.png,,3,0,3,0,0,1,1,1,,,,,,,,,,,,,,,,,,,,,,,,,False,61,62,False,exp3.png,exp4.png,trial_left_image,1,exp3.png,3,exp4.png,exp3.png,0,2,non-reversed,incorrect,0.8618804940169572,0,valid_lose,396.0803372999944,32,,,,,,,,,,,,,,,sub_791,2024-08-19_12h21.14.043,Reversal,2023.1.3,60.0790399801073,3,
2,exp1.png,exp2.png,,3,0,3,0,0,2,2,2,,,,,,,,,,,,,,,,,,,,,,,,,False,62,63,False,exp1.png,exp2.png,trial_right_image,-1,exp2.png,3,exp2.png,exp1.png,1,3,reversed,correct,0.4804607718068765,1,valid_win,401.32842099999834,33,,,,,,,,,,,,,,,sub_791,2024-08-19_12h21.14.043,Reversal,2023.1.3,60.0790399801073,3,
3,exp3.png,exp4.png,,3,0,3,0,0,3,3,3,,,,,,,,,,,,,,,,,,,,,,,,,False,63,64,False,exp3.png,exp4.png,trial_right_image,-1,exp4.png,3,exp4.png,exp3.png,1,1,non-reversed,correct,0.964800621134211,1,valid_win,406.51235499999893,34,,,,,,,,,,,,,,,sub_791,2024-08-19_12h21.14.043,Reversal,2023.1.3,60.0790399801073,3,
4,exp1.png,exp2.png,,3,0,3,0,0,4,4,4,,,,,,,,,,,,,,,,,,,,,,,,,False,64,65,False,exp1.png,exp2.png,trial_right_image,-1,exp2.png,3,exp2.png,exp1.png,1,3,reversed,correct,0.09785366059775347,0,invalid_lose,411.32498780000606,34,,,,,,,,,,,,,,,sub_791,2024-08-19_12h21.14.043,Reversal,2023.1.3,60.0790399801073,3,
5,exp3.png,exp4.png,,3,0,3,0,0,5,5,5,,,,,,,,,,,,,,,,,,,,,,,,,False,65,66,False,exp3.png,exp4.png,trial_right_image,-1,exp4.png,3,exp4.png,exp3.png,1,1,non-reversed,correct,0.39031170731523235,1,valid_win,417.42252839999855,35,,,,,,,,,,,,,,,sub_791,2024-08-19_12h21.14.043,Reversal,2023.1.3,60.0790399801073,3,
6,exp1.png,exp2.png,,3,0,3,0,0,6,6,6,,,,,,,,,,,,,,,,,,,,,,,,,False,66,67,True,exp2.png,exp1.png,trial_left_image,1,exp2.png,3,exp2.png,exp1.png,1,3,reversed,correct,0.8232028437785924,1,valid_win,422.40471210000396,36,,,,,,,,,,,,,,,sub_791,2024-08-19_12h21.14.043,Reversal,2023.1.3,60.0790399801073,3,
7,exp3.png,exp4.png,,3,0,3,0,0,7,7,7,,,,,,,,,,,,,,,,,,,,,,,,,False,67,68,True,exp4.png,exp3.png,trial_left_image,1,exp4.png,3,exp4.png,exp3.png,1,1,non-reversed,correct,0.3973718055600932,1,valid_win,427.53638879999926,37,,,,,,,,,,,,,,,sub_791,2024-08-19_12h21.14.043,Reversal,2023.1.3,60.0790399801073,3,
8,exp1.png,exp2.png,,3,0,3,0,0,8,8,8,,,,,,,,,,,,,,,,,,,,,,,,,False,68,69,True,exp2.png,exp1.png,trial_right_image,-1,exp1.png,3,exp2.png,exp1.png,0,4,reversed,incorrect,0.5147666202646279,0,valid_lose,433.05108689999906,37,,,,,,,,,,,,,,,sub_791,2024-08-19_12h21.14.043,Reversal,2023.1.3,60.0790399801073,3,
9,exp3.png,exp4.png,,3,0,3,0,0,9,9,9,,,,,,,,,,,,,,,,,,,,,,,,,False,69,70,True,exp4.png,exp3.png,trial_left_image,1,exp4.png,3,exp4.png,exp3.png,1,1,non-reversed,correct,0.8938658322157272,1,valid_win,438.0002177999995,38,,,,,,,,,,,,,,,sub_791,2024-08-19_12h21.14.043,Reversal,2023.1.3,60.0790399801073,3,
10,exp1.png,exp2.png,,3,0,3,0,0,10,10,10,,,,,,,,,,,,,,,,,,,,,,,,,False,70,71,False,exp1.png,exp2.png,trial_right_image,-1,exp2.png,3,exp2.png,exp1.png,1,3,reversed,correct,0.5522877528158524,1,valid_win,443.1138515000057,39,,,,,,,,,,,,,,,sub_791,2024-08-19_12h21.14.043,Reversal,2023.1.3,60.0790399801073,3,
11,exp3.png,exp4.png,,3,0,3,0,0,11,11,11,,,,,,,,,,,,,,,,,,,,,,,,,False,71,72,True,exp4.png,exp3.png,trial_left_image,1,exp4.png,3,exp4.png,exp3.png,1,1,non-reversed,correct,0.9715883083549582,1,valid_win,447.8289846999978,40,,,,,,,,,,,,,,,sub_791,2024-08-19_12h21.14.043,Reversal,2023.1.3,60.0790399801073,3,
12,exp1.png,exp2.png,,3,0,3,0,0,12,12,12,,,,,,,,,,,,,,,,,,,,,,,,,False,72,73,True,exp2.png,exp1.png,trial_left_image,1,exp2.png,3,exp2.png,exp1.png,1,3,reversed,correct,0.30800846347805577,1,valid_win,452.94432799999777,41,,,,,,,,,,,,,,,sub_791,2024-08-19_12h21.14.043,Reversal,2023.1.3,60.0790399801073,3,
13,exp3.png,exp4.png,,3,0,3,0,0,13,13,13,,,,,,,,,,,,,,,,,,,,,,,,,False,73,74,True,exp4.png,exp3.png,trial_left_image,1,exp4.png,3,exp4.png,exp3.png,1,1,non-reversed,correct,0.010468983137716159,0,invalid_lose,457.6757137999957,41,,,,,,,,,,,,,,,sub_791,2024-08-19_12h21.14.043,Reversal,2023.1.3,60.0790399801073,3,
14,exp1.png,exp2.png,,3,0,3,0,0,14,14,14,,,,,,,,,,,,,,,,,,,,,,,,,False,74,75,False,exp1.png,exp2.png,trial_right_image,-1,exp2.png,3,exp2.png,exp1.png,1,3,reversed,correct,0.4481032169202991,1,valid_win,462.7572730999964,42,,,,,,,,,,,,,,,sub_791,2024-08-19_12h21.14.043,Reversal,2023.1.3,60.0790399801073,3,
15,exp3.png,exp4.png,,3,0,3,0,0,15,15,15,,,,,,,,,,,,,,,,,,,,,,,,,False,75,76,False,exp3.png,exp4.png,trial_left_image,1,exp3.png,3,exp4.png,exp3.png,0,2,non-reversed,incorrect,0.016805760643464507,1,invalid_win,467.8395229000016,43,,,,,,,,,,,,,,,sub_791,2024-08-19_12h21.14.043,Reversal,2023.1.3,60.0790399801073,3,
16,exp1.png,exp2.png,,3,0,3,0,0,16,16,16,,,,,,,,,,,,,,,,,,,,,,,,,False,76,77,False,exp1.png,exp2.png,trial_right_image,-1,exp2.png,3,exp2.png,exp1.png,1,3,reversed,correct,0.49021599547643857,1,valid_win,474.7866936999926,44,,,,,,,,,,,,,,,sub_791,2024-08-19_12h21.14.043,Reversal,2023.1.3,60.0790399801073,3,
17,exp3.png,exp4.png,,3,0,3,0,0,17,17,17,,,,,,,,,,,,,,,,,,,,,,,,,False,77,78,True,exp4.png,exp3.png,trial_right_image,-1,exp3.png,3,exp4.png,exp3.png,0,2,non-reversed,incorrect,0.4015447722213348,0,valid_lose,480.46824390000256,44,,,,,,,,,,,,,,,sub_791,2024-08-19_12h21.14.043,Reversal,2023.1.3,60.0790399801073,3,
18,exp1.png,exp2.png,,3,0,3,0,0,18,18,18,,,,,,,,,,,,,,,,,,,,,,,,,False,78,79,True,exp2.png,exp1.png,trial_left_image,1,exp2.png,3,exp2.png,exp1.png,1,3,reversed,correct,0.8782027119441029,1,valid_win,484.8495748999994,45,,,,,,,,,,,,,,,sub_791,2024-08-19_12h21.14.043,Reversal,2023.1.3,60.0790399801073,3,
19,exp3.png,exp4.png,,3,0,3,0,0,19,19,19,,,,,,,,,,,,,,,,,,,,,,,,,False,79,80,True,exp4.png,exp3.png,trial_left_image,1,exp4.png,3,exp4.png,exp3.png,1,1,non-reversed,correct,0.08004831867558637,0,invalid_lose,489.2150493999943,45,,,,,,,,,,,,,,,sub_791,2024-08-19_12h21.14.043,Reversal,2023.1.3,60.0790399801073,3,
20,exp1.png,exp2.png,,3,0,3,0,0,20,20,20,,,,,,,,,,,,,,,,,,,,,,,,,True,,,,,,,,,,,,,,,,,,,,,,,,,,,,,,,,,,,sub_791,2024-08-19_12h21.14.043,Reversal,2023.1.3,60.0790399801073,3,
,,,exp1.png,3,0,3,0,,,,,0,0,0,0,0,0,0,0,,,,,,,,,,,,,,,,,,,,,,,,,,,,,,,,,,,,,,639.7523548000026,26.0,26.0,5.918440599998576,"[(42.0, 3.534058500008541), (37.0, 4.434392900002422), (26.0, 5.918440599998576)]",,,,,,,,,,sub_791,2024-08-19_12h21.14.043,Reversal,2023.1.3,60.0790399801073,3,
,,,exp2.png,3,0,3,0,,,,,0,0,0,0,0,1,1,1,,,,,,,,,,,,,,,,,,,,,,,,,,,,,,,,,,,,,,647.7040695000032,,83.0,5.04442000000563,"[(70.0, 1.9773302000103286), (73.0, 2.844023700003163), (77.0, 3.4433660000067903), (83.0, 5.04442000000563)]",83.0,,,,,,,,,sub_791,2024-08-19_12h21.14.043,Reversal,2023.1.3,60.0790399801073,3,
,,,exp3.png,3,0,3,0,,,,,0,0,0,0,0,2,2,2,,,,,,,,,,,,,,,,,,,,,,,,,,,,,,,,,,,,,,653.8536048000096,,38.0,2.7437499000079697,"[(38.0, 2.7437499000079697)]",,38.0,,,,,,,,sub_791,2024-08-19_12h21.14.043,Reversal,2023.1.3,60.0790399801073,3,
,,,exp4.png,3,0,3,0,,,,,0,0,0,0,0,3,3,3,,,,,,,,,,,,,,,,,,,,,,,,,,,,,,,,,,,,,,657.6503287000087,,66.0,1.1276393000007374,"[(66.0, 1.1276393000007374)]",,,66.0,,,,,,,sub_791,2024-08-19_12h21.14.043,Reversal,2023.1.3,60.0790399801073,3,
0,exp1.png,exp2.png,,,,,,,,,,,,,,,,,,0,0,0,0,0,0,0,0,,,,,,,,,False,0,81,True,exp2.png,exp1.png,trial_left_image,1,exp2.png,3,exp1.png,exp2.png,1,3,reversed,incorrect,0.17504984225369236,1,invalid_win,515.022678399997,46,,,,,,,,,511.80269759999646,,,,,,sub_791,2024-08-19_12h21.14.043,Reversal,2023.1.3,60.0790399801073,3,
1,exp3.png,exp4.png,,,,,,,,,,,,,,,,,,0,0,0,0,0,1,1,1,,,,,,,,,False,1,82,True,exp4.png,exp3.png,trial_left_image,1,exp4.png,3,exp4.png,exp3.png,1,1,non-reversed,correct,0.958680508140698,1,valid_win,519.438072200006,47,,,,,,,,,,,,,,,sub_791,2024-08-19_12h21.14.043,Reversal,2023.1.3,60.0790399801073,3,
2,exp1.png,exp2.png,,,,,,,,,,,,,,,,,,0,0,0,0,0,2,2,2,,,,,,,,,False,2,83,True,exp2.png,exp1.png,trial_left_image,1,exp2.png,3,exp1.png,exp2.png,1,3,reversed,incorrect,0.18212503812393976,1,invalid_win,524.8360455999937,48,,,,,,,,,,,,,,,sub_791,2024-08-19_12h21.14.043,Reversal,2023.1.3,60.0790399801073,3,
3,exp3.png,exp4.png,,,,,,,,,,,,,,,,,,0,0,0,0,0,3,3,3,,,,,,,,,False,3,84,True,exp4.png,exp3.png,trial_left_image,1,exp4.png,3,exp4.png,exp3.png,1,1,non-reversed,correct,0.8200174186650795,1,valid_win,529.7856401000026,49,,,,,,,,,,,,,,,sub_791,2024-08-19_12h21.14.043,Reversal,2023.1.3,60.0790399801073,3,
4,exp1.png,exp2.png,,,,,,,,,,,,,,,,,,0,0,0,0,0,4,4,4,,,,,,,,,False,4,85,False,exp1.png,exp2.png,trial_right_image,-1,exp2.png,3,exp1.png,exp2.png,1,3,reversed,incorrect,0.19721513246131062,1,invalid_win,535.0825916000031,50,,,,,,,,,,,,,,,sub_791,2024-08-19_12h21.14.043,Reversal,2023.1.3,60.0790399801073,3,
5,exp3.png,exp4.png,,,,,,,,,,,,,,,,,,0,0,0,0,0,5,5,5,,,,,,,,,False,5,86,False,exp3.png,exp4.png,trial_right_image,-1,exp4.png,3,exp4.png,exp3.png,1,1,non-reversed,correct,0.4497669049119295,1,valid_win,539.3645056999958,51,,,,,,,,,,,,,,,sub_791,2024-08-19_12h21.14.043,Reversal,2023.1.3,60.0790399801073,3,
6,exp1.png,exp2.png,,,,,,,,,,,,,,,,,,0,0,0,0,0,6,6,6,,,,,,,,,False,6,87,True,exp2.png,exp1.png,trial_left_image,1,exp2.png,3,exp1.png,exp2.png,1,3,reversed,incorrect,0.9232633771578266,0,valid_lose,543.813467400003,51,,,,,,,,,,,,,,,sub_791,2024-08-19_12h21.14.043,Reversal,2023.1.3,60.0790399801073,3,
7,exp3.png,exp4.png,,,,,,,,,,,,,,,,,,0,0,0,0,0,7,7,7,,,,,,,,,False,7,88,False,exp3.png,exp4.png,trial_right_image,-1,exp4.png,3,exp4.png,exp3.png,1,1,non-reversed,correct,0.5713052565554347,1,valid_win,549.3110140999925,52,,,,,,,,,,,,,,,sub_791,2024-08-19_12h21.14.043,Reversal,2023.1.3,60.0790399801073,3,
8,exp1.png,exp2.png,,,,,,,,,,,,,,,,,,0,0,0,0,0,8,8,8,,,,,,,,,False,8,89,False,exp1.png,exp2.png,trial_right_image,-1,exp2.png,3,exp1.png,exp2.png,1,3,reversed,incorrect,0.8451715349321959,0,valid_lose,555.1757788999967,52,,,,,,,,,,,,,,,sub_791,2024-08-19_12h21.14.043,Reversal,2023.1.3,60.0790399801073,3,
9,exp3.png,exp4.png,,,,,,,,,,,,,,,,,,0,0,0,0,0,9,9,9,,,,,,,,,False,9,90,False,exp3.png,exp4.png,trial_right_image,-1,exp4.png,3,exp4.png,exp3.png,1,1,non-reversed,correct,0.9685122476518653,1,valid_win,559.5576891999954,53,,,,,,,,,,,,,,,sub_791,2024-08-19_12h21.14.043,Reversal,2023.1.3,60.0790399801073,3,
10,exp1.png,exp2.png,,,,,,,,,,,,,,,,,,0,0,0,0,0,10,10,10,,,,,,,,,False,10,91,True,exp2.png,exp1.png,trial_left_image,1,exp2.png,3,exp1.png,exp2.png,1,3,reversed,incorrect,0.4153341650497856,0,valid_lose,564.6893680999929,53,,,,,,,,,,,,,,,sub_791,2024-08-19_12h21.14.043,Reversal,2023.1.3,60.0790399801073,3,
11,exp3.png,exp4.png,,,,,,,,,,,,,,,,,,0,0,0,0,0,11,11,11,,,,,,,,,False,11,92,True,exp4.png,exp3.png,trial_left_image,1,exp4.png,3,exp4.png,exp3.png,1,1,non-reversed,correct,0.4122711743668692,1,valid_win,569.9873238,54,,,,,,,,,,,,,,,sub_791,2024-08-19_12h21.14.043,Reversal,2023.1.3,60.0790399801073,3,
12,exp1.png,exp2.png,,,,,,,,,,,,,,,,,,0,0,0,0,0,12,12,12,,,,,,,,,False,12,93,True,exp2.png,exp1.png,trial_left_image,1,exp2.png,3,exp1.png,exp2.png,1,3,reversed,incorrect,0.9657241258548017,0,valid_lose,578.0185514000041,54,,,,,,,,,,,,,,,sub_791,2024-08-19_12h21.14.043,Reversal,2023.1.3,60.0790399801073,3,
13,exp3.png,exp4.png,,,,,,,,,,,,,,,,,,0,0,0,0,0,13,13,13,,,,,,,,,False,13,94,True,exp4.png,exp3.png,trial_left_image,1,exp4.png,3,exp4.png,exp3.png,1,1,non-reversed,correct,0.8902092415897118,1,valid_win,582.1334821000055,55,,,,,,,,,,,,,,,sub_791,2024-08-19_12h21.14.043,Reversal,2023.1.3,60.0790399801073,3,
14,exp1.png,exp2.png,,,,,,,,,,,,,,,,,,0,0,0,0,0,14,14,14,,,,,,,,,False,14,95,False,exp1.png,exp2.png,trial_right_image,-1,exp2.png,3,exp1.png,exp2.png,1,3,reversed,incorrect,0.9297629593348041,0,valid_lose,586.815446499997,55,,,,,,,,,,,,,,,sub_791,2024-08-19_12h21.14.043,Reversal,2023.1.3,60.0790399801073,3,
15,exp3.png,exp4.png,,,,,,,,,,,,,,,,,,0,0,0,0,0,15,15,15,,,,,,,,,False,15,96,True,exp4.png,exp3.png,trial_left_image,1,exp4.png,3,exp4.png,exp3.png,1,1,non-reversed,correct,0.13179770298818883,0,invalid_lose,591.1972447000007,55,,,,,,,,,,,,,,,sub_791,2024-08-19_12h21.14.043,Reversal,2023.1.3,60.0790399801073,3,
16,exp1.png,exp2.png,,,,,,,,,,,,,,,,,,0,0,0,0,0,16,16,16,,,,,,,,,False,16,97,False,exp1.png,exp2.png,trial_right_image,-1,exp2.png,3,exp1.png,exp2.png,1,3,reversed,incorrect,0.05514741955409963,1,invalid_win,595.4622031000035,56,,,,,,,,,,,,,,,sub_791,2024-08-19_12h21.14.043,Reversal,2023.1.3,60.0790399801073,3,
17,exp3.png,exp4.png,,,,,,,,,,,,,,,,,,0,0,0,0,0,17,17,17,,,,,,,,,False,17,98,False,exp3.png,exp4.png,trial_right_image,-1,exp4.png,3,exp4.png,exp3.png,1,1,non-reversed,correct,0.3904634124273074,1,valid_win,600.1604453000036,57,,,,,,,,,,,,,,,sub_791,2024-08-19_12h21.14.043,Reversal,2023.1.3,60.0790399801073,3,
18,exp1.png,exp2.png,,,,,,,,,,,,,,,,,,0,0,0,0,0,18,18,18,,,,,,,,,False,18,99,False,exp1.png,exp2.png,trial_right_image,-1,exp2.png,3,exp1.png,exp2.png,1,3,reversed,incorrect,0.9023913547985519,0,valid_lose,604.4762350999954,57,,,,,,,,,,,,,,,sub_791,2024-08-19_12h21.14.043,Reversal,2023.1.3,60.0790399801073,3,
19,exp3.png,exp4.png,,,,,,,,,,,,,,,,,,0,0,0,0,0,19,19,19,,,,,,,,,False,19,100,False,exp3.png,exp4.png,trial_right_image,-1,exp4.png,3,exp4.png,exp3.png,1,1,non-reversed,correct,0.7870112580452702,1,valid_win,608.5075151000055,58,,,,,,,,,,,,,,,sub_791,2024-08-19_12h21.14.043,Reversal,2023.1.3,60.0790399801073,3,
20,exp1.png,exp2.png,,,,,,,,,,,,,,,,,,0,0,0,0,0,20,20,20,,,,,,,,,True,,,,,,,,,,,,,,,,,,,,,,,,,,,,,,,,,,,sub_791,2024-08-19_12h21.14.043,Reversal,2023.1.3,60.0790399801073,3,
,,,exp1.png,,,,,,,,,,,,,,,,,0,0,0,0,,,,,0,0,0,0,0,0,0,0,,,,,,,,,,,,,,,,,,,,,,759.0451872000122,54.0,54.0,11.098463900008937,"[(54.0, 11.098463900008937)]",,,,,,,,,,sub_791,2024-08-19_12h21.14.043,Reversal,2023.1.3,60.0790399801073,3,
,,,exp2.png,,,,,,,,,,,,,,,,,0,0,0,0,,,,,0,0,0,0,0,1,1,1,,,,,,,,,,,,,,,,,,,,,,771.2931873000052,,52.0,8.309773900007713,"[(52.0, 8.309773900007713)]",52.0,,,,,,,,,sub_791,2024-08-19_12h21.14.043,Reversal,2023.1.3,60.0790399801073,3,
,,,exp3.png,,,,,,,,,,,,,,,,,0,0,0,0,,,,,0,0,0,0,0,2,2,2,,,,,,,,,,,,,,,,,,,,,,780.8889628000034,,7.0,10.192782199999783,"[(1.0, 6.0935358999995515), (4.0, 7.428323300002376), (7.0, 10.192782199999783)]",,7.0,,,,,,,,sub_791,2024-08-19_12h21.14.043,Reversal,2023.1.3,60.0790399801073,3,
,,,exp4.png,,,,,,,,,,,,,,,,,0,0,0,0,,,,,0,0,0,0,0,3,3,3,,,,,,,,,,,,,,,,,,,,,,792.3538258000044,,95.0,4.658875499997521,"[(88.0, 3.1438612999918405), (93.0, 3.8112124999897787), (95.0, 4.658875499997521)]",,,95.0,,,,,,,sub_791,2024-08-19_12h21.14.043,Reversal,2023.1.3,60.0790399801073,3,
0,exp1.png,exp2.png,,,,,,,,,,,,,,,,,,1,0,1,0,0,0,0,0,,,,,,,,,False,20,101,True,exp2.png,exp1.png,trial_left_image,1,exp2.png,3,exp1.png,exp2.png,1,3,reversed,incorrect,0.03053319610294325,1,invalid_win,652.8092754999961,59,,,,,,,,,,,,,,,sub_791,2024-08-19_12h21.14.043,Reversal,2023.1.3,60.0790399801073,3,
1,exp3.png,exp4.png,,,,,,,,,,,,,,,,,,1,0,1,0,0,1,1,1,,,,,,,,,False,21,102,True,exp4.png,exp3.png,trial_left_image,1,exp4.png,3,exp4.png,exp3.png,1,1,non-reversed,correct,0.663430944505156,1,valid_win,657.0913211000006,60,,,,,,,,,,,,,,,sub_791,2024-08-19_12h21.14.043,Reversal,2023.1.3,60.0790399801073,3,
2,exp1.png,exp2.png,,,,,,,,,,,,,,,,,,1,0,1,0,0,2,2,2,,,,,,,,,False,22,103,False,exp1.png,exp2.png,trial_left_image,1,exp1.png,3,exp1.png,exp2.png,0,4,reversed,correct,0.8973903810415392,1,valid_win,661.4739706999972,61,,,,,,,,,,,,,,,sub_791,2024-08-19_12h21.14.043,Reversal,2023.1.3,60.0790399801073,3,
3,exp3.png,exp4.png,,,,,,,,,,,,,,,,,,1,0,1,0,0,3,3,3,,,,,,,,,False,23,104,False,exp3.png,exp4.png,trial_right_image,-1,exp4.png,3,exp4.png,exp3.png,1,1,non-reversed,correct,0.9994606452957802,1,valid_win,665.6720478999923,62,,,,,,,,,,,,,,,sub_791,2024-08-19_12h21.14.043,Reversal,2023.1.3,60.0790399801073,3,
4,exp1.png,exp2.png,,,,,,,,,,,,,,,,,,1,0,1,0,0,4,4,4,,,,,,,,,False,24,105,True,exp2.png,exp1.png,trial_left_image,1,exp2.png,3,exp1.png,exp2.png,1,3,reversed,incorrect,0.8183481680535372,0,valid_lose,669.6377764000063,62,,,,,,,,,,,,,,,sub_791,2024-08-19_12h21.14.043,Reversal,2023.1.3,60.0790399801073,3,
5,exp3.png,exp4.png,,,,,,,,,,,,,,,,,,1,0,1,0,0,5,5,5,,,,,,,,,False,25,106,False,exp3.png,exp4.png,trial_right_image,-1,exp4.png,3,exp4.png,exp3.png,1,1,non-reversed,correct,0.640946643738397,1,valid_win,673.8356938999932,63,,,,,,,,,,,,,,,sub_791,2024-08-19_12h21.14.043,Reversal,2023.1.3,60.0790399801073,3,
6,exp1.png,exp2.png,,,,,,,,,,,,,,,,,,1,0,1,0,0,6,6,6,,,,,,,,,False,26,107,True,exp2.png,exp1.png,trial_left_image,1,exp2.png,3,exp1.png,exp2.png,1,3,reversed,incorrect,0.28374404037461576,0,valid_lose,678.2342356000008,63,,,,,,,,,,,,,,,sub_791,2024-08-19_12h21.14.043,Reversal,2023.1.3,60.0790399801073,3,
7,exp3.png,exp4.png,,,,,,,,,,,,,,,,,,1,0,1,0,0,7,7,7,,,,,,,,,False,27,108,False,exp3.png,exp4.png,trial_right_image,-1,exp4.png,3,exp4.png,exp3.png,1,1,non-reversed,correct,0.9915291196378377,1,valid_win,682.4333475000021,64,,,,,,,,,,,,,,,sub_791,2024-08-19_12h21.14.043,Reversal,2023.1.3,60.0790399801073,3,
8,exp1.png,exp2.png,,,,,,,,,,,,,,,,,,1,0,1,0,0,8,8,8,,,,,,,,,False,28,109,False,exp1.png,exp2.png,trial_left_image,1,exp1.png,3,exp1.png,exp2.png,0,4,reversed,correct,0.6661326932590556,1,valid_win,687.4312085999991,65,,,,,,,,,,,,,,,sub_791,2024-08-19_12h21.14.043,Reversal,2023.1.3,60.0790399801073,3,
9,exp3.png,exp4.png,,,,,,,,,,,,,,,,,,1,0,1,0,0,9,9,9,,,,,,,,,False,29,110,False,exp3.png,exp4.png,trial_left_image,1,exp3.png,3,exp4.png,exp3.png,0,2,non-reversed,incorrect,0.7028741392222517,0,valid_lose,691.6127727999992,65,,,,,,,,,,,,,,,sub_791,2024-08-19_12h21.14.043,Reversal,2023.1.3,60.0790399801073,3,
10,exp1.png,exp2.png,,,,,,,,,,,,,,,,,,1,0,1,0,0,10,10,10,,,,,,,,,False,30,111,True,exp2.png,exp1.png,trial_right_image,-1,exp1.png,3,exp1.png,exp2.png,0,4,reversed,correct,0.20148258112301975,0,invalid_lose,695.7283683999995,65,,,,,,,,,,,,,,,sub_791,2024-08-19_12h21.14.043,Reversal,2023.1.3,60.0790399801073,3,
11,exp3.png,exp4.png,,,,,,,,,,,,,,,,,,1,0,1,0,0,11,11,11,,,,,,,,,False,31,112,True,exp4.png,exp3.png,trial_right_image,-1,exp3.png,3,exp4.png,exp3.png,0,2,non-reversed,incorrect,0.7474537799982532,0,valid_lose,699.8598745000054,65,,,,,,,,,,,,,,,sub_791,2024-08-19_12h21.14.043,Reversal,2023.1.3,60.0790399801073,3,
12,exp1.png,exp2.png,,,,,,,,,,,,,,,,,,1,0,1,0,0,12,12,12,,,,,,,,,False,32,113,True,exp2.png,exp1.png,trial_right_image,-1,exp1.png,3,exp1.png,exp2.png,0,4,reversed,correct,0.6430309880014267,1,valid_win,703.909223900002,66,,,,,,,,,,,,,,,sub_791,2024-08-19_12h21.14.043,Reversal,2023.1.3,60.0790399801073,3,
13,exp3.png,exp4.png,,,,,,,,,,,,,,,,,,1,0,1,0,0,13,13,13,,,,,,,,,False,33,114,False,exp3.png,exp4.png,trial_left_image,1,exp3.png,3,exp4.png,exp3.png,0,2,non-reversed,incorrect,0.38125238500558467,0,valid_lose,707.9737559999921,66,,,,,,,,,,,,,,,sub_791,2024-08-19_12h21.14.043,Reversal,2023.1.3,60.0790399801073,3,
14,exp1.png,exp2.png,,,,,,,,,,,,,,,,,,1,0,1,0,0,14,14,14,,,,,,,,,False,34,115,False,exp1.png,exp2.png,trial_right_image,-1,exp2.png,3,exp1.png,exp2.png,1,3,reversed,incorrect,0.8985362733855246,0,valid_lose,711.9058839000063,66,,,,,,,,,,,,,,,sub_791,2024-08-19_12h21.14.043,Reversal,2023.1.3,60.0790399801073,3,
15,exp3.png,exp4.png,,,,,,,,,,,,,,,,,,1,0,1,0,0,15,15,15,,,,,,,,,False,35,116,True,exp4.png,exp3.png,trial_left_image,1,exp4.png,3,exp4.png,exp3.png,1,1,non-reversed,correct,0.6233025810829486,1,valid_win,715.8710730000021,67,,,,,,,,,,,,,,,sub_791,2024-08-19_12h21.14.043,Reversal,2023.1.3,60.0790399801073,3,
16,exp1.png,exp2.png,,,,,,,,,,,,,,,,,,1,0,1,0,0,16,16,16,,,,,,,,,False,36,117,True,exp2.png,exp1.png,trial_left_image,1,exp2.png,3,exp1.png,exp2.png,1,3,reversed,incorrect,0.27499449581474156,0,valid_lose,719.9864098999969,67,,,,,,,,,,,,,,,sub_791,2024-08-19_12h21.14.043,Reversal,2023.1.3,60.0790399801073,3,
17,exp3.png,exp4.png,,,,,,,,,,,,,,,,,,1,0,1,0,0,17,17,17,,,,,,,,,False,37,118,False,exp3.png,exp4.png,trial_right_image,-1,exp4.png,3,exp4.png,exp3.png,1,1,non-reversed,correct,0.9611578404102459,1,valid_win,724.0350325000036,68,,,,,,,,,,,,,,,sub_791,2024-08-19_12h21.14.043,Reversal,2023.1.3,60.0790399801073,3,
18,exp1.png,exp2.png,,,,,,,,,,,,,,,,,,1,0,1,0,0,18,18,18,,,,,,,,,False,38,119,True,exp2.png,exp1.png,trial_right_image,-1,exp1.png,3,exp1.png,exp2.png,0,4,reversed,correct,0.11519899958797164,0,invalid_lose,729.6163207999925,68,,,,,,,,,,,,,,,sub_791,2024-08-19_12h21.14.043,Reversal,2023.1.3,60.0790399801073,3,
19,exp3.png,exp4.png,,,,,,,,,,,,,,,,,,1,0,1,0,0,19,19,19,,,,,,,,,False,39,120,False,exp3.png,exp4.png,trial_left_image,1,exp3.png,3,exp4.png,exp3.png,0,2,non-reversed,incorrect,0.14859999923572098,1,invalid_win,733.9982370999933,69,,,,,,,,,,,,,,,sub_791,2024-08-19_12h21.14.043,Reversal,2023.1.3,60.0790399801073,3,
20,exp1.png,exp2.png,,,,,,,,,,,,,,,,,,1,0,1,0,0,20,20,20,,,,,,,,,True,,,,,,,,,,,,,,,,,,,,,,,,,,,,,,,,,,,sub_791,2024-08-19_12h21.14.043,Reversal,2023.1.3,60.0790399801073,3,
,,,exp1.png,,,,,,,,,,,,,,,,,1,0,1,0,,,,,0,0,0,0,0,0,0,0,,,,,,,,,,,,,,,,,,,,,,884.5450546000066,,None,None,[],,,,,,,,,,sub_791,2024-08-19_12h21.14.043,Reversal,2023.1.3,60.0790399801073,3,
,,,exp2.png,,,,,,,,,,,,,,,,,1,0,1,0,,,,,0,0,0,0,0,1,1,1,,,,,,,,,,,,,,,,,,,,,,887.5194763000036,,None,None,[],,,,,,,,,,sub_791,2024-08-19_12h21.14.043,Reversal,2023.1.3,60.0790399801073,3,
,,,exp3.png,,,,,,,,,,,,,,,,,1,0,1,0,,,,,0,0,0,0,0,2,2,2,,,,,,,,,,,,,,,,,,,,,,888.4862244000105,,None,None,[],,,,,,,,,,sub_791,2024-08-19_12h21.14.043,Reversal,2023.1.3,60.0790399801073,3,
,,,exp4.png,,,,,,,,,,,,,,,,,1,0,1,0,,,,,0,0,0,0,0,3,3,3,,,,,,,,,,,,,,,,,,,,,,889.3524985000113,,None,None,[],,,,,,,,,,sub_791,2024-08-19_12h21.14.043,Reversal,2023.1.3,60.0790399801073,3,
0,exp1.png,exp2.png,,,,,,,,,,,,,,,,,,2,0,2,0,0,0,0,0,,,,,,,,,False,40,121,True,exp2.png,exp1.png,trial_left_image,1,exp2.png,3,exp1.png,exp2.png,1,3,reversed,incorrect,0.7358436087172796,0,valid_lose,744.2453201000026,69,,,,,,,,,,,,,,,sub_791,2024-08-19_12h21.14.043,Reversal,2023.1.3,60.0790399801073,3,
1,exp3.png,exp4.png,,,,,,,,,,,,,,,,,,2,0,2,0,0,1,1,1,,,,,,,,,False,41,122,False,exp3.png,exp4.png,trial_right_image,-1,exp4.png,3,exp4.png,exp3.png,1,1,non-reversed,correct,0.24130662861276453,0,invalid_lose,748.3601583999989,69,,,,,,,,,,,,,,,sub_791,2024-08-19_12h21.14.043,Reversal,2023.1.3,60.0790399801073,3,
2,exp1.png,exp2.png,,,,,,,,,,,,,,,,,,2,0,2,0,0,2,2,2,,,,,,,,,False,42,123,True,exp2.png,exp1.png,trial_right_image,-1,exp1.png,3,exp1.png,exp2.png,0,4,reversed,correct,0.3656283751034648,1,valid_win,751.9987500999996,70,,,,,,,,,,,,,,,sub_791,2024-08-19_12h21.14.043,Reversal,2023.1.3,60.0790399801073,3,
3,exp3.png,exp4.png,,,,,,,,,,,,,,,,,,2,0,2,0,0,3,3,3,,,,,,,,,False,43,124,False,exp3.png,exp4.png,trial_right_image,-1,exp4.png,3,exp4.png,exp3.png,1,1,non-reversed,correct,0.9023481703223108,1,valid_win,756.107451799995,71,,,,,,,,,,,,,,,sub_791,2024-08-19_12h21.14.043,Reversal,2023.1.3,60.0790399801073,3,
4,exp1.png,exp2.png,,,,,,,,,,,,,,,,,,2,0,2,0,0,4,4,4,,,,,,,,,False,44,125,True,exp2.png,exp1.png,trial_right_image,-1,exp1.png,3,exp1.png,exp2.png,0,4,reversed,correct,0.9061398875800623,1,valid_win,760.1394374999945,72,,,,,,,,,,,,,,,sub_791,2024-08-19_12h21.14.043,Reversal,2023.1.3,60.0790399801073,3,
5,exp3.png,exp4.png,,,,,,,,,,,,,,,,,,2,0,2,0,0,5,5,5,,,,,,,,,False,45,126,False,exp3.png,exp4.png,trial_left_image,1,exp3.png,3,exp4.png,exp3.png,0,2,non-reversed,incorrect,0.2842046074733152,0,valid_lose,764.2049101000011,72,,,,,,,,,,,,,,,sub_791,2024-08-19_12h21.14.043,Reversal,2023.1.3,60.0790399801073,3,
6,exp1.png,exp2.png,,,,,,,,,,,,,,,,,,2,0,2,0,0,6,6,6,,,,,,,,,False,46,127,False,exp1.png,exp2.png,trial_left_image,1,exp1.png,3,exp1.png,exp2.png,0,4,reversed,correct,0.867349786488834,1,valid_win,768.903363999998,73,,,,,,,,,,,,,,,sub_791,2024-08-19_12h21.14.043,Reversal,2023.1.3,60.0790399801073,3,
7,exp3.png,exp4.png,,,,,,,,,,,,,,,,,,2,0,2,0,0,7,7,7,,,,,,,,,False,47,128,True,exp4.png,exp3.png,trial_left_image,1,exp4.png,3,exp4.png,exp3.png,1,1,non-reversed,correct,0.286939915015764,1,valid_win,773.1182038999978,74,,,,,,,,,,,,,,,sub_791,2024-08-19_12h21.14.043,Reversal,2023.1.3,60.0790399801073,3,
8,exp1.png,exp2.png,,,,,,,,,,,,,,,,,,2,0,2,0,0,8,8,8,,,,,,,,,False,48,129,False,exp1.png,exp2.png,trial_left_image,1,exp1.png,3,exp1.png,exp2.png,0,4,reversed,correct,0.11164798275977117,0,invalid_lose,777.3169099999941,74,,,,,,,,,,,,,,,sub_791,2024-08-19_12h21.14.043,Reversal,2023.1.3,60.0790399801073,3,
9,exp3.png,exp4.png,,,,,,,,,,,,,,,,,,2,0,2,0,0,9,9,9,,,,,,,,,False,49,130,False,exp3.png,exp4.png,trial_right_image,-1,exp4.png,3,exp4.png,exp3.png,1,1,non-reversed,correct,0.57714733874296,1,valid_win,782.5316889999958,75,,,,,,,,,,,,,,,sub_791,2024-08-19_12h21.14.043,Reversal,2023.1.3,60.0790399801073,3,
10,exp1.png,exp2.png,,,,,,,,,,,,,,,,,,2,0,2,0,0,10,10,10,,,,,,,,,False,50,131,True,exp2.png,exp1.png,trial_left_image,1,exp2.png,3,exp1.png,exp2.png,1,3,reversed,incorrect,0.5785706199282407,0,valid_lose,786.6485147000058,75,,,,,,,,,,,,,,,sub_791,2024-08-19_12h21.14.043,Reversal,2023.1.3,60.0790399801073,3,
11,exp3.png,exp4.png,,,,,,,,,,,,,,,,,,2,0,2,0,0,11,11,11,,,,,,,,,False,51,132,False,exp3.png,exp4.png,trial_right_image,-1,exp4.png,3,exp4.png,exp3.png,1,1,non-reversed,correct,0.44823250719585084,1,valid_win,791.0955546000041,76,,,,,,,,,,,,,,,sub_791,2024-08-19_12h21.14.043,Reversal,2023.1.3,60.0790399801073,3,
12,exp1.png,exp2.png,,,,,,,,,,,,,,,,,,2,0,2,0,0,12,12,12,,,,,,,,,False,52,133,True,exp2.png,exp1.png,trial_left_image,1,exp2.png,3,exp1.png,exp2.png,1,3,reversed,incorrect,0.9416515226288636,0,valid_lose,795.311065899994,76,,,,,,,,,,,,,,,sub_791,2024-08-19_12h21.14.043,Reversal,2023.1.3,60.0790399801073,3,
13,exp3.png,exp4.png,,,,,,,,,,,,,,,,,,2,0,2,0,0,13,13,13,,,,,,,,,False,53,134,True,exp4.png,exp3.png,trial_left_image,1,exp4.png,3,exp4.png,exp3.png,1,1,non-reversed,correct,0.4842600635195502,1,valid_win,799.5428404999984,77,,,,,,,,,,,,,,,sub_791,2024-08-19_12h21.14.043,Reversal,2023.1.3,60.0790399801073,3,
14,exp1.png,exp2.png,,,,,,,,,,,,,,,,,,2,0,2,0,0,14,14,14,,,,,,,,,False,54,135,False,exp1.png,exp2.png,trial_left_image,1,exp1.png,3,exp1.png,exp2.png,0,4,reversed,correct,0.9346306428852832,1,valid_win,804.0419256000023,78,,,,,,,,,,,,,,,sub_791,2024-08-19_12h21.14.043,Reversal,2023.1.3,60.0790399801073,3,
15,exp3.png,exp4.png,,,,,,,,,,,,,,,,,,2,0,2,0,0,15,15,15,,,,,,,,,False,55,136,True,exp4.png,exp3.png,trial_left_image,1,exp4.png,3,exp4.png,exp3.png,1,1,non-reversed,correct,0.08501362261984158,0,invalid_lose,808.2735847000004,78,,,,,,,,,,,,,,,sub_791,2024-08-19_12h21.14.043,Reversal,2023.1.3,60.0790399801073,3,
16,exp1.png,exp2.png,,,,,,,,,,,,,,,,,,2,0,2,0,0,16,16,16,,,,,,,,,False,56,137,False,exp1.png,exp2.png,trial_left_image,1,exp1.png,3,exp1.png,exp2.png,0,4,reversed,correct,0.25365423848970914,1,valid_win,812.6382737999957,79,,,,,,,,,,,,,,,sub_791,2024-08-19_12h21.14.043,Reversal,2023.1.3,60.0790399801073,3,
17,exp3.png,exp4.png,,,,,,,,,,,,,,,,,,2,0,2,0,0,17,17,17,,,,,,,,,False,57,138,False,exp3.png,exp4.png,trial_left_image,1,exp3.png,3,exp4.png,exp3.png,0,2,non-reversed,incorrect,0.432445548115989,0,valid_lose,818.120029800004,79,,,,,,,,,,,,,,,sub_791,2024-08-19_12h21.14.043,Reversal,2023.1.3,60.0790399801073,3,
18,exp1.png,exp2.png,,,,,,,,,,,,,,,,,,2,0,2,0,0,18,18,18,,,,,,,,,False,58,139,True,exp2.png,exp1.png,trial_right_image,-1,exp1.png,3,exp1.png,exp2.png,0,4,reversed,correct,0.3002923078886983,1,valid_win,822.8865159999987,80,,,,,,,,,,,,,,,sub_791,2024-08-19_12h21.14.043,Reversal,2023.1.3,60.0790399801073,3,
19,exp3.png,exp4.png,,,,,,,,,,,,,,,,,,2,0,2,0,0,19,19,19,,,,,,,,,False,59,140,True,exp4.png,exp3.png,trial_left_image,1,exp4.png,3,exp4.png,exp3.png,1,1,non-reversed,correct,0.9303162323933836,1,valid_win,827.2165879999957,81,,,,,,,,,,,,,,,sub_791,2024-08-19_12h21.14.043,Reversal,2023.1.3,60.0790399801073,3,
20,exp1.png,exp2.png,,,,,,,,,,,,,,,,,,2,0,2,0,0,20,20,20,,,,,,,,,True,,,,,,,,,,,,,,,,,,,,,,,,,,,,,,,,,,,sub_791,2024-08-19_12h21.14.043,Reversal,2023.1.3,60.0790399801073,3,
,,,exp1.png,,,,,,,,,,,,,,,,,2,0,2,0,,,,,0,0,0,0,0,0,0,0,,,,,,,,,,,,,,,,,,,,,,977.7534517000022,,None,None,[],,,,,,,,,,sub_791,2024-08-19_12h21.14.043,Reversal,2023.1.3,60.0790399801073,3,
,,,exp2.png,,,,,,,,,,,,,,,,,2,0,2,0,,,,,0,0,0,0,0,1,1,1,,,,,,,,,,,,,,,,,,,,,,980.4547621000092,,None,None,[],,,,,,,,,,sub_791,2024-08-19_12h21.14.043,Reversal,2023.1.3,60.0790399801073,3,
,,,exp3.png,,,,,,,,,,,,,,,,,2,0,2,0,,,,,0,0,0,0,0,2,2,2,,,,,,,,,,,,,,,,,,,,,,981.3381523000135,,None,None,[],,,,,,,,,,sub_791,2024-08-19_12h21.14.043,Reversal,2023.1.3,60.0790399801073,3,
,,,exp4.png,,,,,,,,,,,,,,,,,2,0,2,0,,,,,0,0,0,0,0,3,3,3,,,,,,,,,,,,,,,,,,,,,,982.2372020000039,,None,None,[],,,,,,,,,,sub_791,2024-08-19_12h21.14.043,Reversal,2023.1.3,60.0790399801073,3,
,,,,,,,,,,,,,,,,,,,,,,,,,,,,,,,,,,,,,,,,,,,,,,,,,,,,,,,,81,,,,,,,,,,86,50,36,323.8621914999967,1,,,,,,,
