trial_index,trial_image1_file,trial_image2_file,image_file,learning_outer_loop.thisRepN,learning_outer_loop.thisTrialN,learning_outer_loop.thisN,learning_outer_loop.thisIndex,learning_inner_loop.thisRepN,learning_inner_loop.thisTrialN,learning_inner_loop.thisN,learning_inner_loop.thisIndex,learning_estimation_outer_loop.thisRepN,learning_estimation_outer_loop.thisTrialN,learning_estimation_outer_loop.thisN,learning_estimation_outer_loop.thisIndex,learning_estimation_inner_loop.thisRepN,learning_estimation_inner_loop.thisTrialN,learning_estimation_inner_loop.thisN,learning_estimation_inner_loop.thisIndex,reversal_outer_loop.thisRepN,reversal_outer_loop.thisTrialN,reversal_outer_loop.thisN,reversal_outer_loop.thisIndex,reversal_inner_loop.thisRepN,reversal_inner_loop.thisTrialN,reversal_inner_loop.thisN,reversal_inner_loop.thisIndex,reversal_estimation_outer_loop.thisRepN,reversal_estimation_outer_loop.thisTrialN,reversal_estimation_outer_loop.thisN,reversal_estimation_outer_loop.thisIndex,reversal_estimation_inner_loop.thisRepN,reversal_estimation_inner_loop.thisTrialN,reversal_estimation_inner_loop.thisN,reversal_estimation_inner_loop.thisIndex,skipped,total_trial_counter,trial_num,left_right_flip,left_image_file,right_image_file,clicked_stimulus_side,side,clicked_stimulus,version,high_prob_image_file,low_prob_image_file,choice_a,choice_b,pair_type,correct,trial_feedback_random,reward,trial_type,overall_time_after_trial,score,estimation_exp1.png,estimation_rating.response,estimation_rating.rt,estimation_rating.history,estimation_rating.started,estimation_rating.stopped,estimation_exp2.png,estimation_exp4.png,estimation_exp3.png,total_learning_time,total_correct,learning_correct,reversal_correct,total_reversal_time,extra_block,participant,date,expName,psychopyVersion,frameRate,ver,
0,exp1.png,exp2.png,,0,0,0,0,0,0,0,0,,,,,,,,,,,,,,,,,,,,,,,,,False,0,1,False,exp1.png,exp2.png,trial_left_image,1,exp1.png,4,exp2.png,exp1.png,0,2,non-reversed,incorrect,0.6020769363303304,0,valid_lose,5.96311280000009,0,,,,,,,,,,,,,,,,sub_124,2022-09-09_10h11.43.783,Reversal,2022.1.1,59.942263611791276,4,
1,exp3.png,exp4.png,,0,0,0,0,0,1,1,1,,,,,,,,,,,,,,,,,,,,,,,,,False,1,2,True,exp4.png,exp3.png,trial_right_image,-1,exp3.png,4,exp4.png,exp3.png,0,4,reversed,incorrect,0.06019810186316643,1,invalid_win,14.37927690000015,1,,,,,,,,,,,,,,,,sub_124,2022-09-09_10h11.43.783,Reversal,2022.1.1,59.942263611791276,4,
2,exp1.png,exp2.png,,0,0,0,0,0,2,2,2,,,,,,,,,,,,,,,,,,,,,,,,,False,2,3,True,exp2.png,exp1.png,trial_left_image,1,exp2.png,4,exp2.png,exp1.png,1,1,non-reversed,correct,0.03564274083952612,0,invalid_lose,22.76142830000026,1,,,,,,,,,,,,,,,,sub_124,2022-09-09_10h11.43.783,Reversal,2022.1.1,59.942263611791276,4,
3,exp3.png,exp4.png,,0,0,0,0,0,3,3,3,,,,,,,,,,,,,,,,,,,,,,,,,False,3,4,True,exp4.png,exp3.png,trial_left_image,1,exp4.png,4,exp4.png,exp3.png,1,3,reversed,correct,0.5716465655110148,1,valid_win,56.57384180000008,2,,,,,,,,,,,,,,,,sub_124,2022-09-09_10h11.43.783,Reversal,2022.1.1,59.942263611791276,4,
4,exp1.png,exp2.png,,0,0,0,0,0,4,4,4,,,,,,,,,,,,,,,,,,,,,,,,,False,4,5,True,exp2.png,exp1.png,trial_right_image,-1,exp1.png,4,exp2.png,exp1.png,0,2,non-reversed,incorrect,0.5545160803944237,0,valid_lose,71.6728008,2,,,,,,,,,,,,,,,,sub_124,2022-09-09_10h11.43.783,Reversal,2022.1.1,59.942263611791276,4,
5,exp3.png,exp4.png,,0,0,0,0,0,5,5,5,,,,,,,,,,,,,,,,,,,,,,,,,False,5,6,False,exp3.png,exp4.png,trial_left_image,1,exp3.png,4,exp4.png,exp3.png,0,4,reversed,incorrect,0.18987054654736912,1,invalid_win,85.47027770000022,3,,,,,,,,,,,,,,,,sub_124,2022-09-09_10h11.43.783,Reversal,2022.1.1,59.942263611791276,4,
6,exp1.png,exp2.png,,0,0,0,0,0,6,6,6,,,,,,,,,,,,,,,,,,,,,,,,,False,6,7,True,exp2.png,exp1.png,trial_left_image,1,exp2.png,4,exp2.png,exp1.png,1,1,non-reversed,correct,0.305580981642231,1,valid_win,103.13433220000024,4,,,,,,,,,,,,,,,,sub_124,2022-09-09_10h11.43.783,Reversal,2022.1.1,59.942263611791276,4,
7,exp3.png,exp4.png,,0,0,0,0,0,7,7,7,,,,,,,,,,,,,,,,,,,,,,,,,False,7,8,False,exp3.png,exp4.png,trial_left_image,1,exp3.png,4,exp4.png,exp3.png,0,4,reversed,incorrect,0.6876033276355569,0,valid_lose,111.89971770000011,4,,,,,,,,,,,,,,,,sub_124,2022-09-09_10h11.43.783,Reversal,2022.1.1,59.942263611791276,4,
8,exp1.png,exp2.png,,0,0,0,0,0,8,8,8,,,,,,,,,,,,,,,,,,,,,,,,,False,8,9,False,exp1.png,exp2.png,trial_left_image,1,exp1.png,4,exp2.png,exp1.png,0,2,non-reversed,incorrect,0.0390346148025974,1,invalid_win,122.31684559999985,5,,,,,,,,,,,,,,,,sub_124,2022-09-09_10h11.43.783,Reversal,2022.1.1,59.942263611791276,4,
9,exp3.png,exp4.png,,0,0,0,0,0,9,9,9,,,,,,,,,,,,,,,,,,,,,,,,,False,9,10,True,exp4.png,exp3.png,trial_right_image,-1,exp3.png,4,exp4.png,exp3.png,0,4,reversed,incorrect,0.9838252302340894,0,valid_lose,132.41385170000012,5,,,,,,,,,,,,,,,,sub_124,2022-09-09_10h11.43.783,Reversal,2022.1.1,59.942263611791276,4,
10,exp1.png,exp2.png,,0,0,0,0,0,10,10,10,,,,,,,,,,,,,,,,,,,,,,,,,False,10,11,True,exp2.png,exp1.png,trial_left_image,1,exp2.png,4,exp2.png,exp1.png,1,1,non-reversed,correct,0.16180455963580187,0,invalid_lose,143.3296350999999,5,,,,,,,,,,,,,,,,sub_124,2022-09-09_10h11.43.783,Reversal,2022.1.1,59.942263611791276,4,
11,exp3.png,exp4.png,,0,0,0,0,0,11,11,11,,,,,,,,,,,,,,,,,,,,,,,,,False,11,12,True,exp4.png,exp3.png,trial_right_image,-1,exp3.png,4,exp4.png,exp3.png,0,4,reversed,incorrect,0.09339951197562368,1,invalid_win,154.26087189999998,6,,,,,,,,,,,,,,,,sub_124,2022-09-09_10h11.43.783,Reversal,2022.1.1,59.942263611791276,4,
12,exp1.png,exp2.png,,0,0,0,0,0,12,12,12,,,,,,,,,,,,,,,,,,,,,,,,,False,12,13,False,exp1.png,exp2.png,trial_left_image,1,exp1.png,4,exp2.png,exp1.png,0,2,non-reversed,incorrect,0.6271201568852373,0,valid_lose,163.37763129999985,6,,,,,,,,,,,,,,,,sub_124,2022-09-09_10h11.43.783,Reversal,2022.1.1,59.942263611791276,4,
13,exp3.png,exp4.png,,0,0,0,0,0,13,13,13,,,,,,,,,,,,,,,,,,,,,,,,,False,13,14,False,exp3.png,exp4.png,trial_left_image,1,exp3.png,4,exp4.png,exp3.png,0,4,reversed,incorrect,0.04844903117149657,1,invalid_win,175.00799210000014,7,,,,,,,,,,,,,,,,sub_124,2022-09-09_10h11.43.783,Reversal,2022.1.1,59.942263611791276,4,
14,exp1.png,exp2.png,,0,0,0,0,0,14,14,14,,,,,,,,,,,,,,,,,,,,,,,,,False,14,15,True,exp2.png,exp1.png,trial_left_image,1,exp2.png,4,exp2.png,exp1.png,1,1,non-reversed,correct,0.9022804204763293,1,valid_win,185.12411629999997,8,,,,,,,,,,,,,,,,sub_124,2022-09-09_10h11.43.783,Reversal,2022.1.1,59.942263611791276,4,
15,exp3.png,exp4.png,,0,0,0,0,0,15,15,15,,,,,,,,,,,,,,,,,,,,,,,,,False,15,16,False,exp3.png,exp4.png,trial_right_image,-1,exp4.png,4,exp4.png,exp3.png,1,3,reversed,correct,0.5557065794713739,1,valid_win,194.30620959999987,9,,,,,,,,,,,,,,,,sub_124,2022-09-09_10h11.43.783,Reversal,2022.1.1,59.942263611791276,4,
16,exp1.png,exp2.png,,0,0,0,0,0,16,16,16,,,,,,,,,,,,,,,,,,,,,,,,,False,16,17,False,exp1.png,exp2.png,trial_left_image,1,exp1.png,4,exp2.png,exp1.png,0,2,non-reversed,incorrect,0.8746595063276803,0,valid_lose,200.17245540000022,9,,,,,,,,,,,,,,,,sub_124,2022-09-09_10h11.43.783,Reversal,2022.1.1,59.942263611791276,4,
17,exp3.png,exp4.png,,0,0,0,0,0,17,17,17,,,,,,,,,,,,,,,,,,,,,,,,,False,17,18,False,exp3.png,exp4.png,trial_right_image,-1,exp4.png,4,exp4.png,exp3.png,1,3,reversed,correct,0.524728566617869,1,valid_win,204.7389020999999,10,,,,,,,,,,,,,,,,sub_124,2022-09-09_10h11.43.783,Reversal,2022.1.1,59.942263611791276,4,
18,exp1.png,exp2.png,,0,0,0,0,0,18,18,18,,,,,,,,,,,,,,,,,,,,,,,,,False,18,19,False,exp1.png,exp2.png,trial_left_image,1,exp1.png,4,exp2.png,exp1.png,0,2,non-reversed,incorrect,0.35613601884923773,0,valid_lose,211.75325139999995,10,,,,,,,,,,,,,,,,sub_124,2022-09-09_10h11.43.783,Reversal,2022.1.1,59.942263611791276,4,
19,exp3.png,exp4.png,,0,0,0,0,0,19,19,19,,,,,,,,,,,,,,,,,,,,,,,,,False,19,20,True,exp4.png,exp3.png,trial_left_image,1,exp4.png,4,exp4.png,exp3.png,1,3,reversed,correct,0.8868293646513278,1,valid_win,215.93648970000004,11,,,,,,,,,,,,,,,,sub_124,2022-09-09_10h11.43.783,Reversal,2022.1.1,59.942263611791276,4,
20,exp1.png,exp2.png,,0,0,0,0,0,20,20,20,,,,,,,,,,,,,,,,,,,,,,,,,True,,,,,,,,,,,,,,,,,,,,,,,,,,,,,,,,,,,,sub_124,2022-09-09_10h11.43.783,Reversal,2022.1.1,59.942263611791276,4,
,,,exp1.png,0,0,0,0,,,,,0,0,0,0,0,0,0,0,,,,,,,,,,,,,,,,,,,,,,,,,,,,,,,,,,,,,,1.0,1.0,4.693955899999764,"[(1.0, 4.693955899999764)]",276.02145710000013,None,,,,,,,,,,sub_124,2022-09-09_10h11.43.783,Reversal,2022.1.1,59.942263611791276,4,
,,,exp2.png,0,0,0,0,,,,,0,0,0,0,0,1,1,1,,,,,,,,,,,,,,,,,,,,,,,,,,,,,,,,,,,,,,,100.0,2.5903409000002284,"[(100.0, 2.5903409000002284)]",281.8097574999997,None,100.0,,,,,,,,,sub_124,2022-09-09_10h11.43.783,Reversal,2022.1.1,59.942263611791276,4,
,,,exp3.png,0,0,0,0,,,,,0,0,0,0,0,2,2,2,,,,,,,,,,,,,,,,,,,,,,,,,,,,,,,,,,,,,,,50.0,None,[],285.49112669999977,None,,,,,,,,,,sub_124,2022-09-09_10h11.43.783,Reversal,2022.1.1,59.942263611791276,4,
,,,exp4.png,0,0,0,0,,,,,0,0,0,0,0,3,3,3,,,,,,,,,,,,,,,,,,,,,,,,,,,,,,,,,,,,,,,100.0,2.5069816000000174,"[(100.0, 2.5069816000000174)]",288.65773260000014,None,,100.0,,,,,,,,sub_124,2022-09-09_10h11.43.783,Reversal,2022.1.1,59.942263611791276,4,
0,exp1.png,exp2.png,,1,0,1,0,0,0,0,0,,,,,,,,,,,,,,,,,,,,,,,,,False,20,21,True,exp2.png,exp1.png,trial_left_image,1,exp2.png,4,exp2.png,exp1.png,1,1,non-reversed,correct,0.3009039060769889,1,valid_win,236.80052269999987,12,,,,,,,,,,,,,,,,sub_124,2022-09-09_10h11.43.783,Reversal,2022.1.1,59.942263611791276,4,
1,exp3.png,exp4.png,,1,0,1,0,0,1,1,1,,,,,,,,,,,,,,,,,,,,,,,,,False,21,22,True,exp4.png,exp3.png,trial_left_image,1,exp4.png,4,exp4.png,exp3.png,1,3,reversed,correct,0.9187949117567005,1,valid_win,241.81650739999986,13,,,,,,,,,,,,,,,,sub_124,2022-09-09_10h11.43.783,Reversal,2022.1.1,59.942263611791276,4,
2,exp1.png,exp2.png,,1,0,1,0,0,2,2,2,,,,,,,,,,,,,,,,,,,,,,,,,False,22,23,False,exp1.png,exp2.png,trial_right_image,-1,exp2.png,4,exp2.png,exp1.png,1,1,non-reversed,correct,0.8670019046459225,1,valid_win,247.54870280000023,14,,,,,,,,,,,,,,,,sub_124,2022-09-09_10h11.43.783,Reversal,2022.1.1,59.942263611791276,4,
3,exp3.png,exp4.png,,1,0,1,0,0,3,3,3,,,,,,,,,,,,,,,,,,,,,,,,,False,23,24,False,exp3.png,exp4.png,trial_right_image,-1,exp4.png,4,exp4.png,exp3.png,1,3,reversed,correct,0.9922054399346659,1,valid_win,253.2317008,15,,,,,,,,,,,,,,,,sub_124,2022-09-09_10h11.43.783,Reversal,2022.1.1,59.942263611791276,4,
4,exp1.png,exp2.png,,1,0,1,0,0,4,4,4,,,,,,,,,,,,,,,,,,,,,,,,,False,24,25,False,exp1.png,exp2.png,trial_right_image,-1,exp2.png,4,exp2.png,exp1.png,1,1,non-reversed,correct,0.806293701462762,1,valid_win,258.73083750000023,16,,,,,,,,,,,,,,,,sub_124,2022-09-09_10h11.43.783,Reversal,2022.1.1,59.942263611791276,4,
5,exp3.png,exp4.png,,1,0,1,0,0,5,5,5,,,,,,,,,,,,,,,,,,,,,,,,,False,25,26,True,exp4.png,exp3.png,trial_left_image,1,exp4.png,4,exp4.png,exp3.png,1,3,reversed,correct,0.3648082694505329,1,valid_win,263.7307546000002,17,,,,,,,,,,,,,,,,sub_124,2022-09-09_10h11.43.783,Reversal,2022.1.1,59.942263611791276,4,
6,exp1.png,exp2.png,,1,0,1,0,0,6,6,6,,,,,,,,,,,,,,,,,,,,,,,,,False,26,27,False,exp1.png,exp2.png,trial_right_image,-1,exp2.png,4,exp2.png,exp1.png,1,1,non-reversed,correct,0.31213991870963353,1,valid_win,269.5139408,18,,,,,,,,,,,,,,,,sub_124,2022-09-09_10h11.43.783,Reversal,2022.1.1,59.942263611791276,4,
7,exp3.png,exp4.png,,1,0,1,0,0,7,7,7,,,,,,,,,,,,,,,,,,,,,,,,,False,27,28,True,exp4.png,exp3.png,trial_left_image,1,exp4.png,4,exp4.png,exp3.png,1,3,reversed,correct,0.49707242794389794,1,valid_win,273.962951,19,,,,,,,,,,,,,,,,sub_124,2022-09-09_10h11.43.783,Reversal,2022.1.1,59.942263611791276,4,
8,exp1.png,exp2.png,,1,0,1,0,0,8,8,8,,,,,,,,,,,,,,,,,,,,,,,,,False,28,29,True,exp2.png,exp1.png,trial_left_image,1,exp2.png,4,exp2.png,exp1.png,1,1,non-reversed,correct,0.5927228323763835,1,valid_win,278.1784968000002,20,,,,,,,,,,,,,,,,sub_124,2022-09-09_10h11.43.783,Reversal,2022.1.1,59.942263611791276,4,
9,exp3.png,exp4.png,,1,0,1,0,0,9,9,9,,,,,,,,,,,,,,,,,,,,,,,,,False,29,30,True,exp4.png,exp3.png,trial_left_image,1,exp4.png,4,exp4.png,exp3.png,1,3,reversed,correct,0.9527961758363459,1,valid_win,282.4109997999999,21,,,,,,,,,,,,,,,,sub_124,2022-09-09_10h11.43.783,Reversal,2022.1.1,59.942263611791276,4,
10,exp1.png,exp2.png,,1,0,1,0,0,10,10,10,,,,,,,,,,,,,,,,,,,,,,,,,False,30,31,True,exp2.png,exp1.png,trial_left_image,1,exp2.png,4,exp2.png,exp1.png,1,1,non-reversed,correct,0.1897415275019717,0,invalid_lose,287.0129548,21,,,,,,,,,,,,,,,,sub_124,2022-09-09_10h11.43.783,Reversal,2022.1.1,59.942263611791276,4,
11,exp3.png,exp4.png,,1,0,1,0,0,11,11,11,,,,,,,,,,,,,,,,,,,,,,,,,False,31,32,False,exp3.png,exp4.png,trial_left_image,1,exp3.png,4,exp4.png,exp3.png,0,4,reversed,incorrect,0.3068656862796427,0,valid_lose,292.10975670000016,21,,,,,,,,,,,,,,,,sub_124,2022-09-09_10h11.43.783,Reversal,2022.1.1,59.942263611791276,4,
12,exp1.png,exp2.png,,1,0,1,0,0,12,12,12,,,,,,,,,,,,,,,,,,,,,,,,,False,32,33,False,exp1.png,exp2.png,trial_right_image,-1,exp2.png,4,exp2.png,exp1.png,1,1,non-reversed,correct,0.6205508038572534,1,valid_win,296.62635,22,,,,,,,,,,,,,,,,sub_124,2022-09-09_10h11.43.783,Reversal,2022.1.1,59.942263611791276,4,
13,exp3.png,exp4.png,,1,0,1,0,0,13,13,13,,,,,,,,,,,,,,,,,,,,,,,,,False,33,34,True,exp4.png,exp3.png,trial_right_image,-1,exp3.png,4,exp4.png,exp3.png,0,4,reversed,incorrect,0.8022578988123714,0,valid_lose,303.17763430000014,22,,,,,,,,,,,,,,,,sub_124,2022-09-09_10h11.43.783,Reversal,2022.1.1,59.942263611791276,4,
14,exp1.png,exp2.png,,1,0,1,0,0,14,14,14,,,,,,,,,,,,,,,,,,,,,,,,,False,34,35,False,exp1.png,exp2.png,trial_right_image,-1,exp2.png,4,exp2.png,exp1.png,1,1,non-reversed,correct,0.17897295256205037,0,invalid_lose,308.07425890000013,22,,,,,,,,,,,,,,,,sub_124,2022-09-09_10h11.43.783,Reversal,2022.1.1,59.942263611791276,4,
15,exp3.png,exp4.png,,1,0,1,0,0,15,15,15,,,,,,,,,,,,,,,,,,,,,,,,,False,35,36,True,exp4.png,exp3.png,trial_left_image,1,exp4.png,4,exp4.png,exp3.png,1,3,reversed,correct,0.16085844810433547,0,invalid_lose,313.74094270000023,22,,,,,,,,,,,,,,,,sub_124,2022-09-09_10h11.43.783,Reversal,2022.1.1,59.942263611791276,4,
16,exp1.png,exp2.png,,1,0,1,0,0,16,16,16,,,,,,,,,,,,,,,,,,,,,,,,,False,36,37,True,exp2.png,exp1.png,trial_right_image,-1,exp1.png,4,exp2.png,exp1.png,0,2,non-reversed,incorrect,0.23037838001073685,1,invalid_win,318.90638560000025,23,,,,,,,,,,,,,,,,sub_124,2022-09-09_10h11.43.783,Reversal,2022.1.1,59.942263611791276,4,
17,exp3.png,exp4.png,,1,0,1,0,0,17,17,17,,,,,,,,,,,,,,,,,,,,,,,,,False,37,38,False,exp3.png,exp4.png,trial_right_image,-1,exp4.png,4,exp4.png,exp3.png,1,3,reversed,correct,0.043780490985845244,0,invalid_lose,327.0895220000002,23,,,,,,,,,,,,,,,,sub_124,2022-09-09_10h11.43.783,Reversal,2022.1.1,59.942263611791276,4,
18,exp1.png,exp2.png,,1,0,1,0,0,18,18,18,,,,,,,,,,,,,,,,,,,,,,,,,False,38,39,False,exp1.png,exp2.png,trial_left_image,1,exp1.png,4,exp2.png,exp1.png,0,2,non-reversed,incorrect,0.2661928201496062,0,valid_lose,332.5380490000002,23,,,,,,,,,,,,,,,,sub_124,2022-09-09_10h11.43.783,Reversal,2022.1.1,59.942263611791276,4,
19,exp3.png,exp4.png,,1,0,1,0,0,19,19,19,,,,,,,,,,,,,,,,,,,,,,,,,False,39,40,False,exp3.png,exp4.png,trial_left_image,1,exp3.png,4,exp4.png,exp3.png,0,4,reversed,incorrect,0.5370628742756095,0,valid_lose,337.77133719999983,23,,,,,,,,,,,,,,,,sub_124,2022-09-09_10h11.43.783,Reversal,2022.1.1,59.942263611791276,4,
20,exp1.png,exp2.png,,1,0,1,0,0,20,20,20,,,,,,,,,,,,,,,,,,,,,,,,,True,,,,,,,,,,,,,,,,,,,,,,,,,,,,,,,,,,,,sub_124,2022-09-09_10h11.43.783,Reversal,2022.1.1,59.942263611791276,4,
,,,exp1.png,1,0,1,0,,,,,0,0,0,0,0,0,0,0,,,,,,,,,,,,,,,,,,,,,,,,,,,,,,,,,,,,,,100.0,100.0,3.884953299999779,"[(100.0, 3.884953299999779)]",397.8911601,None,,,,,,,,,,sub_124,2022-09-09_10h11.43.783,Reversal,2022.1.1,59.942263611791276,4,
,,,exp2.png,1,0,1,0,,,,,0,0,0,0,0,1,1,1,,,,,,,,,,,,,,,,,,,,,,,,,,,,,,,,,,,,,,,1.0,3.499817599999915,"[(1.0, 3.499817599999915)]",402.8346453999998,None,1.0,,,,,,,,,sub_124,2022-09-09_10h11.43.783,Reversal,2022.1.1,59.942263611791276,4,
,,,exp3.png,1,0,1,0,,,,,0,0,0,0,0,2,2,2,,,,,,,,,,,,,,,,,,,,,,,,,,,,,,,,,,,,,,,24.0,2.152730199999951,"[(24.0, 2.152730199999951)]",407.2148947999999,None,,,24.0,,,,,,,sub_124,2022-09-09_10h11.43.783,Reversal,2022.1.1,59.942263611791276,4,
,,,exp4.png,1,0,1,0,,,,,0,0,0,0,0,3,3,3,,,,,,,,,,,,,,,,,,,,,,,,,,,,,,,,,,,,,,,65.0,1.9387082999996892,"[(65.0, 1.9387082999996892)]",410.1606834999998,None,,65.0,,,,,,,,sub_124,2022-09-09_10h11.43.783,Reversal,2022.1.1,59.942263611791276,4,
0,exp1.png,exp2.png,,2,0,2,0,0,0,0,0,,,,,,,,,,,,,,,,,,,,,,,,,False,40,41,False,exp1.png,exp2.png,trial_right_image,-1,exp2.png,4,exp2.png,exp1.png,1,1,non-reversed,correct,0.30039264071346483,1,valid_win,359.6505191000001,24,,,,,,,,,,,,,,,,sub_124,2022-09-09_10h11.43.783,Reversal,2022.1.1,59.942263611791276,4,
1,exp3.png,exp4.png,,2,0,2,0,0,1,1,1,,,,,,,,,,,,,,,,,,,,,,,,,False,41,42,False,exp3.png,exp4.png,trial_left_image,1,exp3.png,4,exp4.png,exp3.png,0,4,reversed,incorrect,0.8722728306866562,0,valid_lose,364.60105639999983,24,,,,,,,,,,,,,,,,sub_124,2022-09-09_10h11.43.783,Reversal,2022.1.1,59.942263611791276,4,
2,exp1.png,exp2.png,,2,0,2,0,0,2,2,2,,,,,,,,,,,,,,,,,,,,,,,,,False,42,43,True,exp2.png,exp1.png,trial_left_image,1,exp2.png,4,exp2.png,exp1.png,1,1,non-reversed,correct,0.5544104975526802,1,valid_win,370.5168570000001,25,,,,,,,,,,,,,,,,sub_124,2022-09-09_10h11.43.783,Reversal,2022.1.1,59.942263611791276,4,
3,exp3.png,exp4.png,,2,0,2,0,0,3,3,3,,,,,,,,,,,,,,,,,,,,,,,,,False,43,44,False,exp3.png,exp4.png,trial_right_image,-1,exp4.png,4,exp4.png,exp3.png,1,3,reversed,correct,0.8666307611644708,1,valid_win,376.4336916000002,26,,,,,,,,,,,,,,,,sub_124,2022-09-09_10h11.43.783,Reversal,2022.1.1,59.942263611791276,4,
4,exp1.png,exp2.png,,2,0,2,0,0,4,4,4,,,,,,,,,,,,,,,,,,,,,,,,,False,44,45,False,exp1.png,exp2.png,trial_right_image,-1,exp2.png,4,exp2.png,exp1.png,1,1,non-reversed,correct,0.44388776604375746,1,valid_win,380.9485863,27,,,,,,,,,,,,,,,,sub_124,2022-09-09_10h11.43.783,Reversal,2022.1.1,59.942263611791276,4,
5,exp3.png,exp4.png,,2,0,2,0,0,5,5,5,,,,,,,,,,,,,,,,,,,,,,,,,False,45,46,False,exp3.png,exp4.png,trial_right_image,-1,exp4.png,4,exp4.png,exp3.png,1,3,reversed,correct,0.7648397569119828,1,valid_win,385.3651869,28,,,,,,,,,,,,,,,,sub_124,2022-09-09_10h11.43.783,Reversal,2022.1.1,59.942263611791276,4,
6,exp1.png,exp2.png,,2,0,2,0,0,6,6,6,,,,,,,,,,,,,,,,,,,,,,,,,False,46,47,False,exp1.png,exp2.png,trial_right_image,-1,exp2.png,4,exp2.png,exp1.png,1,1,non-reversed,correct,0.8672007795394073,1,valid_win,390.56412020000016,29,,,,,,,,,,,,,,,,sub_124,2022-09-09_10h11.43.783,Reversal,2022.1.1,59.942263611791276,4,
7,exp3.png,exp4.png,,2,0,2,0,0,7,7,7,,,,,,,,,,,,,,,,,,,,,,,,,False,47,48,False,exp3.png,exp4.png,trial_right_image,-1,exp4.png,4,exp4.png,exp3.png,1,3,reversed,correct,0.3761391794264475,1,valid_win,395.41332520000014,30,,,,,,,,,,,,,,,,sub_124,2022-09-09_10h11.43.783,Reversal,2022.1.1,59.942263611791276,4,
8,exp1.png,exp2.png,,2,0,2,0,0,8,8,8,,,,,,,,,,,,,,,,,,,,,,,,,False,48,49,True,exp2.png,exp1.png,trial_left_image,1,exp2.png,4,exp2.png,exp1.png,1,1,non-reversed,correct,0.44471759831073165,1,valid_win,400.11274570000023,31,,,,,,,,,,,,,,,,sub_124,2022-09-09_10h11.43.783,Reversal,2022.1.1,59.942263611791276,4,
9,exp3.png,exp4.png,,2,0,2,0,0,9,9,9,,,,,,,,,,,,,,,,,,,,,,,,,False,49,50,True,exp4.png,exp3.png,trial_left_image,1,exp4.png,4,exp4.png,exp3.png,1,3,reversed,correct,0.40874770498836976,1,valid_win,405.5622999000002,32,,,,,,,,,,,,,,,,sub_124,2022-09-09_10h11.43.783,Reversal,2022.1.1,59.942263611791276,4,
10,exp1.png,exp2.png,,2,0,2,0,0,10,10,10,,,,,,,,,,,,,,,,,,,,,,,,,False,50,51,True,exp2.png,exp1.png,trial_left_image,1,exp2.png,4,exp2.png,exp1.png,1,1,non-reversed,correct,0.1425850981179645,0,invalid_lose,410.2612785000001,32,,,,,,,,,,,,,,,,sub_124,2022-09-09_10h11.43.783,Reversal,2022.1.1,59.942263611791276,4,
11,exp3.png,exp4.png,,2,0,2,0,0,11,11,11,,,,,,,,,,,,,,,,,,,,,,,,,False,51,52,True,exp4.png,exp3.png,trial_right_image,-1,exp3.png,4,exp4.png,exp3.png,0,4,reversed,incorrect,0.3418522798398679,0,valid_lose,415.06124379999983,32,,,,,,,,,,,,,,,,sub_124,2022-09-09_10h11.43.783,Reversal,2022.1.1,59.942263611791276,4,
12,exp1.png,exp2.png,,2,0,2,0,0,12,12,12,,,,,,,,,,,,,,,,,,,,,,,,,False,52,53,True,exp2.png,exp1.png,trial_right_image,-1,exp1.png,4,exp2.png,exp1.png,0,2,non-reversed,incorrect,0.6562014871639319,0,valid_lose,419.7113730000001,32,,,,,,,,,,,,,,,,sub_124,2022-09-09_10h11.43.783,Reversal,2022.1.1,59.942263611791276,4,
13,exp3.png,exp4.png,,2,0,2,0,0,13,13,13,,,,,,,,,,,,,,,,,,,,,,,,,False,53,54,False,exp3.png,exp4.png,trial_left_image,1,exp3.png,4,exp4.png,exp3.png,0,4,reversed,incorrect,0.3260098921261376,0,valid_lose,425.35989169999993,32,,,,,,,,,,,,,,,,sub_124,2022-09-09_10h11.43.783,Reversal,2022.1.1,59.942263611791276,4,
14,exp1.png,exp2.png,,2,0,2,0,0,14,14,14,,,,,,,,,,,,,,,,,,,,,,,,,False,54,55,False,exp1.png,exp2.png,trial_left_image,1,exp1.png,4,exp2.png,exp1.png,0,2,non-reversed,incorrect,0.91884122735539,0,valid_lose,433.3417300000001,32,,,,,,,,,,,,,,,,sub_124,2022-09-09_10h11.43.783,Reversal,2022.1.1,59.942263611791276,4,
15,exp3.png,exp4.png,,2,0,2,0,0,15,15,15,,,,,,,,,,,,,,,,,,,,,,,,,False,55,56,True,exp4.png,exp3.png,trial_left_image,1,exp4.png,4,exp4.png,exp3.png,1,3,reversed,correct,0.46453702497207394,1,valid_win,438.3076424000001,33,,,,,,,,,,,,,,,,sub_124,2022-09-09_10h11.43.783,Reversal,2022.1.1,59.942263611791276,4,
16,exp1.png,exp2.png,,2,0,2,0,0,16,16,16,,,,,,,,,,,,,,,,,,,,,,,,,False,56,57,False,exp1.png,exp2.png,trial_right_image,-1,exp2.png,4,exp2.png,exp1.png,1,1,non-reversed,correct,0.9596144156262821,1,valid_win,442.9739356,34,,,,,,,,,,,,,,,,sub_124,2022-09-09_10h11.43.783,Reversal,2022.1.1,59.942263611791276,4,
17,exp3.png,exp4.png,,2,0,2,0,0,17,17,17,,,,,,,,,,,,,,,,,,,,,,,,,False,57,58,True,exp4.png,exp3.png,trial_left_image,1,exp4.png,4,exp4.png,exp3.png,1,3,reversed,correct,0.5024582700310608,1,valid_win,453.63915880000013,35,,,,,,,,,,,,,,,,sub_124,2022-09-09_10h11.43.783,Reversal,2022.1.1,59.942263611791276,4,
18,exp1.png,exp2.png,,2,0,2,0,0,18,18,18,,,,,,,,,,,,,,,,,,,,,,,,,False,58,59,True,exp2.png,exp1.png,trial_left_image,1,exp2.png,4,exp2.png,exp1.png,1,1,non-reversed,correct,0.9093758024687866,1,valid_win,459.35455409999986,36,,,,,,,,,,,,,,,,sub_124,2022-09-09_10h11.43.783,Reversal,2022.1.1,59.942263611791276,4,
19,exp3.png,exp4.png,,2,0,2,0,0,19,19,19,,,,,,,,,,,,,,,,,,,,,,,,,False,59,60,True,exp4.png,exp3.png,trial_left_image,1,exp4.png,4,exp4.png,exp3.png,1,3,reversed,correct,0.7140014981044429,1,valid_win,464.37181820000023,37,,,,,,,,,,,,,,,,sub_124,2022-09-09_10h11.43.783,Reversal,2022.1.1,59.942263611791276,4,
20,exp1.png,exp2.png,,2,0,2,0,0,20,20,20,,,,,,,,,,,,,,,,,,,,,,,,,True,,,,,,,,,,,,,,,,,,,,,,,,,,,,,,,,,,,,sub_124,2022-09-09_10h11.43.783,Reversal,2022.1.1,59.942263611791276,4,
,,,exp1.png,2,0,2,0,,,,,0,0,0,0,0,0,0,0,,,,,,,,,,,,,,,,,,,,,,,,,,,,,,,,,,,,,,1.0,1.0,2.2462954000002355,"[(1.0, 2.2462954000002355)]",524.4990733999998,None,,,,,,,,,,sub_124,2022-09-09_10h11.43.783,Reversal,2022.1.1,59.942263611791276,4,
,,,exp2.png,2,0,2,0,,,,,0,0,0,0,0,1,1,1,,,,,,,,,,,,,,,,,,,,,,,,,,,,,,,,,,,,,,,100.0,1.3724065000001247,"[(100.0, 1.3724065000001247)]",527.6951510999997,None,100.0,,,,,,,,,sub_124,2022-09-09_10h11.43.783,Reversal,2022.1.1,59.942263611791276,4,
,,,exp3.png,2,0,2,0,,,,,0,0,0,0,0,2,2,2,,,,,,,,,,,,,,,,,,,,,,,,,,,,,,,,,,,,,,,16.0,1.3821290999999292,"[(16.0, 1.3821290999999292)]",530.199768,None,,,16.0,,,,,,,sub_124,2022-09-09_10h11.43.783,Reversal,2022.1.1,59.942263611791276,4,
,,,exp4.png,2,0,2,0,,,,,0,0,0,0,0,3,3,3,,,,,,,,,,,,,,,,,,,,,,,,,,,,,,,,,,,,,,,100.0,2.2082080000000133,"[(100.0, 2.2082080000000133)]",532.5090572999998,None,,100.0,,,,,,,,sub_124,2022-09-09_10h11.43.783,Reversal,2022.1.1,59.942263611791276,4,
0,exp1.png,exp2.png,,,,,,,,,,,,,,,,,,0,0,0,0,0,0,0,0,,,,,,,,,False,0,61,False,exp1.png,exp2.png,trial_left_image,1,exp1.png,4,exp2.png,exp1.png,0,2,non-reversed,incorrect,0.22438419093182915,1,invalid_win,481.55253840000023,38,,,,,,,,,,478.1841875,,,,,,sub_124,2022-09-09_10h11.43.783,Reversal,2022.1.1,59.942263611791276,4,
1,exp3.png,exp4.png,,,,,,,,,,,,,,,,,,0,0,0,0,0,1,1,1,,,,,,,,,False,1,62,False,exp3.png,exp4.png,trial_left_image,1,exp3.png,4,exp3.png,exp4.png,0,4,reversed,correct,0.49837843694516104,1,valid_win,487.8845332000001,39,,,,,,,,,,,,,,,,sub_124,2022-09-09_10h11.43.783,Reversal,2022.1.1,59.942263611791276,4,
2,exp1.png,exp2.png,,,,,,,,,,,,,,,,,,0,0,0,0,0,2,2,2,,,,,,,,,False,2,63,False,exp1.png,exp2.png,trial_left_image,1,exp1.png,4,exp2.png,exp1.png,0,2,non-reversed,incorrect,0.07248224880507348,1,invalid_win,493.5171799999998,40,,,,,,,,,,,,,,,,sub_124,2022-09-09_10h11.43.783,Reversal,2022.1.1,59.942263611791276,4,
3,exp3.png,exp4.png,,,,,,,,,,,,,,,,,,0,0,0,0,0,3,3,3,,,,,,,,,False,3,64,True,exp4.png,exp3.png,trial_right_image,-1,exp3.png,4,exp3.png,exp4.png,0,4,reversed,correct,0.007259342937851243,0,invalid_lose,497.8165982999999,40,,,,,,,,,,,,,,,,sub_124,2022-09-09_10h11.43.783,Reversal,2022.1.1,59.942263611791276,4,
4,exp1.png,exp2.png,,,,,,,,,,,,,,,,,,0,0,0,0,0,4,4,4,,,,,,,,,False,4,65,True,exp2.png,exp1.png,trial_right_image,-1,exp1.png,4,exp2.png,exp1.png,0,2,non-reversed,incorrect,0.37015823278159943,0,valid_lose,502.66608099999985,40,,,,,,,,,,,,,,,,sub_124,2022-09-09_10h11.43.783,Reversal,2022.1.1,59.942263611791276,4,
5,exp3.png,exp4.png,,,,,,,,,,,,,,,,,,0,0,0,0,0,5,5,5,,,,,,,,,False,5,66,True,exp4.png,exp3.png,trial_left_image,1,exp4.png,4,exp3.png,exp4.png,1,3,reversed,incorrect,0.08469605648862077,1,invalid_win,507.26497470000004,41,,,,,,,,,,,,,,,,sub_124,2022-09-09_10h11.43.783,Reversal,2022.1.1,59.942263611791276,4,
6,exp1.png,exp2.png,,,,,,,,,,,,,,,,,,0,0,0,0,0,6,6,6,,,,,,,,,False,6,67,False,exp1.png,exp2.png,trial_left_image,1,exp1.png,4,exp2.png,exp1.png,0,2,non-reversed,incorrect,0.6283543567069325,0,valid_lose,511.8311592,41,,,,,,,,,,,,,,,,sub_124,2022-09-09_10h11.43.783,Reversal,2022.1.1,59.942263611791276,4,
7,exp3.png,exp4.png,,,,,,,,,,,,,,,,,,0,0,0,0,0,7,7,7,,,,,,,,,False,7,68,True,exp4.png,exp3.png,trial_right_image,-1,exp3.png,4,exp3.png,exp4.png,0,4,reversed,correct,0.6513586573831999,1,valid_win,516.9812185000001,42,,,,,,,,,,,,,,,,sub_124,2022-09-09_10h11.43.783,Reversal,2022.1.1,59.942263611791276,4,
8,exp1.png,exp2.png,,,,,,,,,,,,,,,,,,0,0,0,0,0,8,8,8,,,,,,,,,False,8,69,True,exp2.png,exp1.png,trial_right_image,-1,exp1.png,4,exp2.png,exp1.png,0,2,non-reversed,incorrect,0.7610902404555725,0,valid_lose,522.4971787,42,,,,,,,,,,,,,,,,sub_124,2022-09-09_10h11.43.783,Reversal,2022.1.1,59.942263611791276,4,
9,exp3.png,exp4.png,,,,,,,,,,,,,,,,,,0,0,0,0,0,9,9,9,,,,,,,,,False,9,70,True,exp4.png,exp3.png,trial_right_image,-1,exp3.png,4,exp3.png,exp4.png,0,4,reversed,correct,0.2521627954075285,1,valid_win,527.7630675,43,,,,,,,,,,,,,,,,sub_124,2022-09-09_10h11.43.783,Reversal,2022.1.1,59.942263611791276,4,
10,exp1.png,exp2.png,,,,,,,,,,,,,,,,,,0,0,0,0,0,10,10,10,,,,,,,,,False,10,71,True,exp2.png,exp1.png,trial_left_image,1,exp2.png,4,exp2.png,exp1.png,1,1,non-reversed,correct,0.3347547228688432,1,valid_win,532.4453782,44,,,,,,,,,,,,,,,,sub_124,2022-09-09_10h11.43.783,Reversal,2022.1.1,59.942263611791276,4,
11,exp3.png,exp4.png,,,,,,,,,,,,,,,,,,0,0,0,0,0,11,11,11,,,,,,,,,False,11,72,False,exp3.png,exp4.png,trial_left_image,1,exp3.png,4,exp3.png,exp4.png,0,4,reversed,correct,0.11738721040505429,0,invalid_lose,539.4296723000002,44,,,,,,,,,,,,,,,,sub_124,2022-09-09_10h11.43.783,Reversal,2022.1.1,59.942263611791276,4,
12,exp1.png,exp2.png,,,,,,,,,,,,,,,,,,0,0,0,0,0,12,12,12,,,,,,,,,False,12,73,False,exp1.png,exp2.png,trial_left_image,1,exp1.png,4,exp2.png,exp1.png,0,2,non-reversed,incorrect,0.5065117133264114,0,valid_lose,546.7783644000001,44,,,,,,,,,,,,,,,,sub_124,2022-09-09_10h11.43.783,Reversal,2022.1.1,59.942263611791276,4,
13,exp3.png,exp4.png,,,,,,,,,,,,,,,,,,0,0,0,0,0,13,13,13,,,,,,,,,False,13,74,False,exp3.png,exp4.png,trial_left_image,1,exp3.png,4,exp3.png,exp4.png,0,4,reversed,correct,0.06005325308187415,0,invalid_lose,551.5943711999998,44,,,,,,,,,,,,,,,,sub_124,2022-09-09_10h11.43.783,Reversal,2022.1.1,59.942263611791276,4,
14,exp1.png,exp2.png,,,,,,,,,,,,,,,,,,0,0,0,0,0,14,14,14,,,,,,,,,False,14,75,True,exp2.png,exp1.png,trial_left_image,1,exp2.png,4,exp2.png,exp1.png,1,1,non-reversed,correct,0.3172116469101265,1,valid_win,555.7930258000001,45,,,,,,,,,,,,,,,,sub_124,2022-09-09_10h11.43.783,Reversal,2022.1.1,59.942263611791276,4,
15,exp3.png,exp4.png,,,,,,,,,,,,,,,,,,0,0,0,0,0,15,15,15,,,,,,,,,False,15,76,True,exp4.png,exp3.png,trial_left_image,1,exp4.png,4,exp3.png,exp4.png,1,3,reversed,incorrect,0.13285227186005677,1,invalid_win,560.3420417000002,46,,,,,,,,,,,,,,,,sub_124,2022-09-09_10h11.43.783,Reversal,2022.1.1,59.942263611791276,4,
16,exp1.png,exp2.png,,,,,,,,,,,,,,,,,,0,0,0,0,0,16,16,16,,,,,,,,,False,16,77,False,exp1.png,exp2.png,trial_right_image,-1,exp2.png,4,exp2.png,exp1.png,1,1,non-reversed,correct,0.8738705640179951,1,valid_win,565.6913287000002,47,,,,,,,,,,,,,,,,sub_124,2022-09-09_10h11.43.783,Reversal,2022.1.1,59.942263611791276,4,
17,exp3.png,exp4.png,,,,,,,,,,,,,,,,,,0,0,0,0,0,17,17,17,,,,,,,,,False,17,78,False,exp3.png,exp4.png,trial_left_image,1,exp3.png,4,exp3.png,exp4.png,0,4,reversed,correct,0.5153628682884405,1,valid_win,569.8906198,48,,,,,,,,,,,,,,,,sub_124,2022-09-09_10h11.43.783,Reversal,2022.1.1,59.942263611791276,4,
18,exp1.png,exp2.png,,,,,,,,,,,,,,,,,,0,0,0,0,0,18,18,18,,,,,,,,,False,18,79,False,exp1.png,exp2.png,trial_right_image,-1,exp2.png,4,exp2.png,exp1.png,1,1,non-reversed,correct,0.023479692020121457,0,invalid_lose,574.4903982999999,48,,,,,,,,,,,,,,,,sub_124,2022-09-09_10h11.43.783,Reversal,2022.1.1,59.942263611791276,4,
19,exp3.png,exp4.png,,,,,,,,,,,,,,,,,,0,0,0,0,0,19,19,19,,,,,,,,,False,19,80,True,exp4.png,exp3.png,trial_right_image,-1,exp3.png,4,exp3.png,exp4.png,0,4,reversed,correct,0.9192194910185302,1,valid_win,578.7239294999999,49,,,,,,,,,,,,,,,,sub_124,2022-09-09_10h11.43.783,Reversal,2022.1.1,59.942263611791276,4,
20,exp1.png,exp2.png,,,,,,,,,,,,,,,,,,0,0,0,0,0,20,20,20,,,,,,,,,True,,,,,,,,,,,,,,,,,,,,,,,,,,,,,,,,,,,,sub_124,2022-09-09_10h11.43.783,Reversal,2022.1.1,59.942263611791276,4,
,,,exp1.png,,,,,,,,,,,,,,,,,0,0,0,0,,,,,0,0,0,0,0,0,0,0,,,,,,,,,,,,,,,,,,,,,,5.0,5.0,3.8767736999998306,"[(5.0, 3.8767736999998306)]",638.8334767000001,None,,,,,,,,,,sub_124,2022-09-09_10h11.43.783,Reversal,2022.1.1,59.942263611791276,4,
,,,exp2.png,,,,,,,,,,,,,,,,,0,0,0,0,,,,,0,0,0,0,0,1,1,1,,,,,,,,,,,,,,,,,,,,,,,100.0,1.8746900999999525,"[(77.0, 1.007723299999725), (100.0, 1.8746900999999525)]",643.5628424000001,None,100.0,,,,,,,,,sub_124,2022-09-09_10h11.43.783,Reversal,2022.1.1,59.942263611791276,4,
,,,exp3.png,,,,,,,,,,,,,,,,,0,0,0,0,,,,,0,0,0,0,0,2,2,2,,,,,,,,,,,,,,,,,,,,,,,71.0,2.4918225000001257,"[(71.0, 2.4918225000001257)]",646.4260442999998,None,,,71.0,,,,,,,sub_124,2022-09-09_10h11.43.783,Reversal,2022.1.1,59.942263611791276,4,
,,,exp4.png,,,,,,,,,,,,,,,,,0,0,0,0,,,,,0,0,0,0,0,3,3,3,,,,,,,,,,,,,,,,,,,,,,,36.0,2.268356699999913,"[(36.0, 2.268356699999913)]",649.8996616,None,,36.0,,,,,,,,sub_124,2022-09-09_10h11.43.783,Reversal,2022.1.1,59.942263611791276,4,
0,exp1.png,exp2.png,,,,,,,,,,,,,,,,,,1,0,1,0,0,0,0,0,,,,,,,,,False,20,81,True,exp2.png,exp1.png,trial_right_image,-1,exp1.png,4,exp2.png,exp1.png,0,2,non-reversed,incorrect,0.7471026011166773,0,valid_lose,598.6042883999999,49,,,,,,,,,,,,,,,,sub_124,2022-09-09_10h11.43.783,Reversal,2022.1.1,59.942263611791276,4,
1,exp3.png,exp4.png,,,,,,,,,,,,,,,,,,1,0,1,0,0,1,1,1,,,,,,,,,False,21,82,False,exp3.png,exp4.png,trial_right_image,-1,exp4.png,4,exp3.png,exp4.png,1,3,reversed,incorrect,0.3238871673239634,0,valid_lose,603.1531466000001,49,,,,,,,,,,,,,,,,sub_124,2022-09-09_10h11.43.783,Reversal,2022.1.1,59.942263611791276,4,
2,exp1.png,exp2.png,,,,,,,,,,,,,,,,,,1,0,1,0,0,2,2,2,,,,,,,,,False,22,83,True,exp2.png,exp1.png,trial_left_image,1,exp2.png,4,exp2.png,exp1.png,1,1,non-reversed,correct,0.3847451654643622,1,valid_win,607.5532315,50,,,,,,,,,,,,,,,,sub_124,2022-09-09_10h11.43.783,Reversal,2022.1.1,59.942263611791276,4,
3,exp3.png,exp4.png,,,,,,,,,,,,,,,,,,1,0,1,0,0,3,3,3,,,,,,,,,False,23,84,True,exp4.png,exp3.png,trial_right_image,-1,exp3.png,4,exp3.png,exp4.png,0,4,reversed,correct,0.604062906911894,1,valid_win,611.8010439999998,51,,,,,,,,,,,,,,,,sub_124,2022-09-09_10h11.43.783,Reversal,2022.1.1,59.942263611791276,4,
4,exp1.png,exp2.png,,,,,,,,,,,,,,,,,,1,0,1,0,0,4,4,4,,,,,,,,,False,24,85,True,exp2.png,exp1.png,trial_left_image,1,exp2.png,4,exp2.png,exp1.png,1,1,non-reversed,correct,0.9066746731334199,1,valid_win,616.3172101999999,52,,,,,,,,,,,,,,,,sub_124,2022-09-09_10h11.43.783,Reversal,2022.1.1,59.942263611791276,4,
5,exp3.png,exp4.png,,,,,,,,,,,,,,,,,,1,0,1,0,0,5,5,5,,,,,,,,,False,25,86,True,exp4.png,exp3.png,trial_right_image,-1,exp3.png,4,exp3.png,exp4.png,0,4,reversed,correct,0.674626859802798,1,valid_win,620.6666295999999,53,,,,,,,,,,,,,,,,sub_124,2022-09-09_10h11.43.783,Reversal,2022.1.1,59.942263611791276,4,
6,exp1.png,exp2.png,,,,,,,,,,,,,,,,,,1,0,1,0,0,6,6,6,,,,,,,,,False,26,87,True,exp2.png,exp1.png,trial_left_image,1,exp2.png,4,exp2.png,exp1.png,1,1,non-reversed,correct,0.9636416199336598,1,valid_win,624.7831577000002,54,,,,,,,,,,,,,,,,sub_124,2022-09-09_10h11.43.783,Reversal,2022.1.1,59.942263611791276,4,
7,exp3.png,exp4.png,,,,,,,,,,,,,,,,,,1,0,1,0,0,7,7,7,,,,,,,,,False,27,88,False,exp3.png,exp4.png,trial_left_image,1,exp3.png,4,exp3.png,exp4.png,0,4,reversed,correct,0.5264590070661547,1,valid_win,628.9658570000001,55,,,,,,,,,,,,,,,,sub_124,2022-09-09_10h11.43.783,Reversal,2022.1.1,59.942263611791276,4,
8,exp1.png,exp2.png,,,,,,,,,,,,,,,,,,1,0,1,0,0,8,8,8,,,,,,,,,False,28,89,True,exp2.png,exp1.png,trial_left_image,1,exp2.png,4,exp2.png,exp1.png,1,1,non-reversed,correct,0.48867102090014225,1,valid_win,636.7985073999998,56,,,,,,,,,,,,,,,,sub_124,2022-09-09_10h11.43.783,Reversal,2022.1.1,59.942263611791276,4,
9,exp3.png,exp4.png,,,,,,,,,,,,,,,,,,1,0,1,0,0,9,9,9,,,,,,,,,False,29,90,True,exp4.png,exp3.png,trial_right_image,-1,exp3.png,4,exp3.png,exp4.png,0,4,reversed,correct,0.49503720891696823,1,valid_win,641.2479552,57,,,,,,,,,,,,,,,,sub_124,2022-09-09_10h11.43.783,Reversal,2022.1.1,59.942263611791276,4,
10,exp1.png,exp2.png,,,,,,,,,,,,,,,,,,1,0,1,0,0,10,10,10,,,,,,,,,False,30,91,False,exp1.png,exp2.png,trial_right_image,-1,exp2.png,4,exp2.png,exp1.png,1,1,non-reversed,correct,0.21434079970525055,0,invalid_lose,645.9815296000002,57,,,,,,,,,,,,,,,,sub_124,2022-09-09_10h11.43.783,Reversal,2022.1.1,59.942263611791276,4,
11,exp3.png,exp4.png,,,,,,,,,,,,,,,,,,1,0,1,0,0,11,11,11,,,,,,,,,False,31,92,False,exp3.png,exp4.png,trial_left_image,1,exp3.png,4,exp3.png,exp4.png,0,4,reversed,correct,0.5523209427989192,1,valid_win,650.2968283999999,58,,,,,,,,,,,,,,,,sub_124,2022-09-09_10h11.43.783,Reversal,2022.1.1,59.942263611791276,4,
12,exp1.png,exp2.png,,,,,,,,,,,,,,,,,,1,0,1,0,0,12,12,12,,,,,,,,,False,32,93,False,exp1.png,exp2.png,trial_left_image,1,exp1.png,4,exp2.png,exp1.png,0,2,non-reversed,incorrect,0.04793380865861696,1,invalid_win,654.5131735999998,59,,,,,,,,,,,,,,,,sub_124,2022-09-09_10h11.43.783,Reversal,2022.1.1,59.942263611791276,4,
13,exp3.png,exp4.png,,,,,,,,,,,,,,,,,,1,0,1,0,0,13,13,13,,,,,,,,,False,33,94,True,exp4.png,exp3.png,trial_right_image,-1,exp3.png,4,exp3.png,exp4.png,0,4,reversed,correct,0.16880257714133373,0,invalid_lose,658.9784903,59,,,,,,,,,,,,,,,,sub_124,2022-09-09_10h11.43.783,Reversal,2022.1.1,59.942263611791276,4,
14,exp1.png,exp2.png,,,,,,,,,,,,,,,,,,1,0,1,0,0,14,14,14,,,,,,,,,False,34,95,True,exp2.png,exp1.png,trial_right_image,-1,exp1.png,4,exp2.png,exp1.png,0,2,non-reversed,incorrect,0.10962549603186178,1,invalid_win,664.0449165,60,,,,,,,,,,,,,,,,sub_124,2022-09-09_10h11.43.783,Reversal,2022.1.1,59.942263611791276,4,
15,exp3.png,exp4.png,,,,,,,,,,,,,,,,,,1,0,1,0,0,15,15,15,,,,,,,,,False,35,96,False,exp3.png,exp4.png,trial_left_image,1,exp3.png,4,exp3.png,exp4.png,0,4,reversed,correct,0.008968162047929384,0,invalid_lose,668.2618993000001,60,,,,,,,,,,,,,,,,sub_124,2022-09-09_10h11.43.783,Reversal,2022.1.1,59.942263611791276,4,
16,exp1.png,exp2.png,,,,,,,,,,,,,,,,,,1,0,1,0,0,16,16,16,,,,,,,,,False,36,97,False,exp1.png,exp2.png,trial_left_image,1,exp1.png,4,exp2.png,exp1.png,0,2,non-reversed,incorrect,0.6023873943290001,0,valid_lose,673.3777186000002,60,,,,,,,,,,,,,,,,sub_124,2022-09-09_10h11.43.783,Reversal,2022.1.1,59.942263611791276,4,
17,exp3.png,exp4.png,,,,,,,,,,,,,,,,,,1,0,1,0,0,17,17,17,,,,,,,,,False,37,98,False,exp3.png,exp4.png,trial_right_image,-1,exp4.png,4,exp3.png,exp4.png,1,3,reversed,incorrect,0.9596057106163903,0,valid_lose,677.6776356999999,60,,,,,,,,,,,,,,,,sub_124,2022-09-09_10h11.43.783,Reversal,2022.1.1,59.942263611791276,4,
18,exp1.png,exp2.png,,,,,,,,,,,,,,,,,,1,0,1,0,0,18,18,18,,,,,,,,,False,38,99,False,exp1.png,exp2.png,trial_right_image,-1,exp2.png,4,exp2.png,exp1.png,1,1,non-reversed,correct,0.11177657280339492,0,invalid_lose,681.7762314000001,60,,,,,,,,,,,,,,,,sub_124,2022-09-09_10h11.43.783,Reversal,2022.1.1,59.942263611791276,4,
19,exp3.png,exp4.png,,,,,,,,,,,,,,,,,,1,0,1,0,0,19,19,19,,,,,,,,,False,39,100,False,exp3.png,exp4.png,trial_right_image,-1,exp4.png,4,exp3.png,exp4.png,1,3,reversed,incorrect,0.5395866481250731,0,valid_lose,686.3763924,60,,,,,,,,,,,,,,,,sub_124,2022-09-09_10h11.43.783,Reversal,2022.1.1,59.942263611791276,4,
20,exp1.png,exp2.png,,,,,,,,,,,,,,,,,,1,0,1,0,0,20,20,20,,,,,,,,,True,,,,,,,,,,,,,,,,,,,,,,,,,,,,,,,,,,,,sub_124,2022-09-09_10h11.43.783,Reversal,2022.1.1,59.942263611791276,4,
,,,exp1.png,,,,,,,,,,,,,,,,,1,0,1,0,,,,,0,0,0,0,0,0,0,0,,,,,,,,,,,,,,,,,,,,,,73.0,73.0,2.7504010999991806,"[(73.0, 2.7504010999991806)]",746.4957406999997,None,,,,,,,,,,sub_124,2022-09-09_10h11.43.783,Reversal,2022.1.1,59.942263611791276,4,
,,,exp2.png,,,,,,,,,,,,,,,,,1,0,1,0,,,,,0,0,0,0,0,1,1,1,,,,,,,,,,,,,,,,,,,,,,,38.0,1.6186794999994163,"[(38.0, 1.6186794999994163)]",750.1361899999997,None,38.0,,,,,,,,,sub_124,2022-09-09_10h11.43.783,Reversal,2022.1.1,59.942263611791276,4,
,,,exp3.png,,,,,,,,,,,,,,,,,1,0,1,0,,,,,0,0,0,0,0,2,2,2,,,,,,,,,,,,,,,,,,,,,,,77.0,1.5224241999994774,"[(77.0, 1.5224241999994774)]",752.4839021000003,None,,,77.0,,,,,,,sub_124,2022-09-09_10h11.43.783,Reversal,2022.1.1,59.942263611791276,4,
,,,exp4.png,,,,,,,,,,,,,,,,,1,0,1,0,,,,,0,0,0,0,0,3,3,3,,,,,,,,,,,,,,,,,,,,,,,50.0,None,[],754.8685404000003,None,,,,,,,,,,sub_124,2022-09-09_10h11.43.783,Reversal,2022.1.1,59.942263611791276,4,
0,exp1.png,exp2.png,,,,,,,,,,,,,,,,,,2,0,2,0,0,0,0,0,,,,,,,,,False,40,101,False,exp1.png,exp2.png,trial_left_image,1,exp1.png,4,exp2.png,exp1.png,0,2,non-reversed,incorrect,0.982779853024024,0,valid_lose,702.2743335999999,60,,,,,,,,,,,,,,,,sub_124,2022-09-09_10h11.43.783,Reversal,2022.1.1,59.942263611791276,4,
1,exp3.png,exp4.png,,,,,,,,,,,,,,,,,,2,0,2,0,0,1,1,1,,,,,,,,,False,41,102,True,exp4.png,exp3.png,trial_left_image,1,exp4.png,4,exp3.png,exp4.png,1,3,reversed,incorrect,0.6279242162981351,0,valid_lose,706.7730513000001,60,,,,,,,,,,,,,,,,sub_124,2022-09-09_10h11.43.783,Reversal,2022.1.1,59.942263611791276,4,
2,exp1.png,exp2.png,,,,,,,,,,,,,,,,,,2,0,2,0,0,2,2,2,,,,,,,,,False,42,103,False,exp1.png,exp2.png,trial_right_image,-1,exp2.png,4,exp2.png,exp1.png,1,1,non-reversed,correct,0.5920711862458239,1,valid_win,710.9557030000001,61,,,,,,,,,,,,,,,,sub_124,2022-09-09_10h11.43.783,Reversal,2022.1.1,59.942263611791276,4,
3,exp3.png,exp4.png,,,,,,,,,,,,,,,,,,2,0,2,0,0,3,3,3,,,,,,,,,False,43,104,True,exp4.png,exp3.png,trial_right_image,-1,exp3.png,4,exp3.png,exp4.png,0,4,reversed,correct,0.949474296120476,1,valid_win,715.3384388999998,62,,,,,,,,,,,,,,,,sub_124,2022-09-09_10h11.43.783,Reversal,2022.1.1,59.942263611791276,4,
4,exp1.png,exp2.png,,,,,,,,,,,,,,,,,,2,0,2,0,0,4,4,4,,,,,,,,,False,44,105,False,exp1.png,exp2.png,trial_right_image,-1,exp2.png,4,exp2.png,exp1.png,1,1,non-reversed,correct,0.21080629221553282,0,invalid_lose,720.8384481999997,62,,,,,,,,,,,,,,,,sub_124,2022-09-09_10h11.43.783,Reversal,2022.1.1,59.942263611791276,4,
5,exp3.png,exp4.png,,,,,,,,,,,,,,,,,,2,0,2,0,0,5,5,5,,,,,,,,,False,45,106,True,exp4.png,exp3.png,trial_left_image,1,exp4.png,4,exp3.png,exp4.png,1,3,reversed,incorrect,0.5708725738117274,0,valid_lose,726.4207443,62,,,,,,,,,,,,,,,,sub_124,2022-09-09_10h11.43.783,Reversal,2022.1.1,59.942263611791276,4,
6,exp1.png,exp2.png,,,,,,,,,,,,,,,,,,2,0,2,0,0,6,6,6,,,,,,,,,False,46,107,True,exp2.png,exp1.png,trial_right_image,-1,exp1.png,4,exp2.png,exp1.png,0,2,non-reversed,incorrect,0.2386190838783664,1,invalid_win,730.3206794000002,63,,,,,,,,,,,,,,,,sub_124,2022-09-09_10h11.43.783,Reversal,2022.1.1,59.942263611791276,4,
7,exp3.png,exp4.png,,,,,,,,,,,,,,,,,,2,0,2,0,0,7,7,7,,,,,,,,,False,47,108,False,exp3.png,exp4.png,trial_left_image,1,exp3.png,4,exp3.png,exp4.png,0,4,reversed,correct,0.4843768819380122,1,valid_win,734.9187364000004,64,,,,,,,,,,,,,,,,sub_124,2022-09-09_10h11.43.783,Reversal,2022.1.1,59.942263611791276,4,
8,exp1.png,exp2.png,,,,,,,,,,,,,,,,,,2,0,2,0,0,8,8,8,,,,,,,,,False,48,109,True,exp2.png,exp1.png,trial_right_image,-1,exp1.png,4,exp2.png,exp1.png,0,2,non-reversed,incorrect,0.1836937255044887,1,invalid_win,739.6357908000004,65,,,,,,,,,,,,,,,,sub_124,2022-09-09_10h11.43.783,Reversal,2022.1.1,59.942263611791276,4,
9,exp3.png,exp4.png,,,,,,,,,,,,,,,,,,2,0,2,0,0,9,9,9,,,,,,,,,False,49,110,True,exp4.png,exp3.png,trial_right_image,-1,exp3.png,4,exp3.png,exp4.png,0,4,reversed,correct,0.4918210415661668,1,valid_win,743.8354802999997,66,,,,,,,,,,,,,,,,sub_124,2022-09-09_10h11.43.783,Reversal,2022.1.1,59.942263611791276,4,
10,exp1.png,exp2.png,,,,,,,,,,,,,,,,,,2,0,2,0,0,10,10,10,,,,,,,,,False,50,111,False,exp1.png,exp2.png,trial_left_image,1,exp1.png,4,exp2.png,exp1.png,0,2,non-reversed,incorrect,0.7671776089059417,0,valid_lose,749.0338233999996,66,,,,,,,,,,,,,,,,sub_124,2022-09-09_10h11.43.783,Reversal,2022.1.1,59.942263611791276,4,
11,exp3.png,exp4.png,,,,,,,,,,,,,,,,,,2,0,2,0,0,11,11,11,,,,,,,,,False,51,112,False,exp3.png,exp4.png,trial_right_image,-1,exp4.png,4,exp3.png,exp4.png,1,3,reversed,incorrect,0.6196015028474195,0,valid_lose,753.5022328999999,66,,,,,,,,,,,,,,,,sub_124,2022-09-09_10h11.43.783,Reversal,2022.1.1,59.942263611791276,4,
12,exp1.png,exp2.png,,,,,,,,,,,,,,,,,,2,0,2,0,0,12,12,12,,,,,,,,,False,52,113,True,exp2.png,exp1.png,trial_left_image,1,exp2.png,4,exp2.png,exp1.png,1,1,non-reversed,correct,0.8600739087976162,1,valid_win,757.9180840000004,67,,,,,,,,,,,,,,,,sub_124,2022-09-09_10h11.43.783,Reversal,2022.1.1,59.942263611791276,4,
13,exp3.png,exp4.png,,,,,,,,,,,,,,,,,,2,0,2,0,0,13,13,13,,,,,,,,,False,53,114,True,exp4.png,exp3.png,trial_right_image,-1,exp3.png,4,exp3.png,exp4.png,0,4,reversed,correct,0.9593670224881203,1,valid_win,762.0998267999998,68,,,,,,,,,,,,,,,,sub_124,2022-09-09_10h11.43.783,Reversal,2022.1.1,59.942263611791276,4,
14,exp1.png,exp2.png,,,,,,,,,,,,,,,,,,2,0,2,0,0,14,14,14,,,,,,,,,False,54,115,False,exp1.png,exp2.png,trial_left_image,1,exp1.png,4,exp2.png,exp1.png,0,2,non-reversed,incorrect,0.21373005600692696,1,invalid_win,768.5496355999999,69,,,,,,,,,,,,,,,,sub_124,2022-09-09_10h11.43.783,Reversal,2022.1.1,59.942263611791276,4,
15,exp3.png,exp4.png,,,,,,,,,,,,,,,,,,2,0,2,0,0,15,15,15,,,,,,,,,False,55,116,True,exp4.png,exp3.png,trial_right_image,-1,exp3.png,4,exp3.png,exp4.png,0,4,reversed,correct,0.017906222668340965,0,invalid_lose,774.9308042999996,69,,,,,,,,,,,,,,,,sub_124,2022-09-09_10h11.43.783,Reversal,2022.1.1,59.942263611791276,4,
16,exp1.png,exp2.png,,,,,,,,,,,,,,,,,,2,0,2,0,0,16,16,16,,,,,,,,,False,56,117,False,exp1.png,exp2.png,trial_left_image,1,exp1.png,4,exp2.png,exp1.png,0,2,non-reversed,incorrect,0.04808195623316214,1,invalid_win,779.4808900000003,70,,,,,,,,,,,,,,,,sub_124,2022-09-09_10h11.43.783,Reversal,2022.1.1,59.942263611791276,4,
17,exp3.png,exp4.png,,,,,,,,,,,,,,,,,,2,0,2,0,0,17,17,17,,,,,,,,,False,57,118,True,exp4.png,exp3.png,trial_right_image,-1,exp3.png,4,exp3.png,exp4.png,0,4,reversed,correct,0.829908865535595,1,valid_win,784.0630009000001,71,,,,,,,,,,,,,,,,sub_124,2022-09-09_10h11.43.783,Reversal,2022.1.1,59.942263611791276,4,
18,exp1.png,exp2.png,,,,,,,,,,,,,,,,,,2,0,2,0,0,18,18,18,,,,,,,,,False,58,119,False,exp1.png,exp2.png,trial_left_image,1,exp1.png,4,exp2.png,exp1.png,0,2,non-reversed,incorrect,0.2251183375440523,1,invalid_win,788.9287724000001,72,,,,,,,,,,,,,,,,sub_124,2022-09-09_10h11.43.783,Reversal,2022.1.1,59.942263611791276,4,
19,exp3.png,exp4.png,,,,,,,,,,,,,,,,,,2,0,2,0,0,19,19,19,,,,,,,,,False,59,120,False,exp3.png,exp4.png,trial_left_image,1,exp3.png,4,exp3.png,exp4.png,0,4,reversed,correct,0.531148012867621,1,valid_win,792.8636340999997,73,,,,,,,,,,,,,,,,sub_124,2022-09-09_10h11.43.783,Reversal,2022.1.1,59.942263611791276,4,
20,exp1.png,exp2.png,,,,,,,,,,,,,,,,,,2,0,2,0,0,20,20,20,,,,,,,,,True,,,,,,,,,,,,,,,,,,,,,,,,,,,,,,,,,,,,sub_124,2022-09-09_10h11.43.783,Reversal,2022.1.1,59.942263611791276,4,
,,,exp1.png,,,,,,,,,,,,,,,,,2,0,2,0,,,,,0,0,0,0,0,0,0,0,,,,,,,,,,,,,,,,,,,,,,100.0,100.0,2.999554099999841,"[(100.0, 2.999554099999841)]",852.982544,None,,,,,,,,,,sub_124,2022-09-09_10h11.43.783,Reversal,2022.1.1,59.942263611791276,4,
,,,exp2.png,,,,,,,,,,,,,,,,,2,0,2,0,,,,,0,0,0,0,0,1,1,1,,,,,,,,,,,,,,,,,,,,,,,1.0,3.1526632999994035,"[(1.0, 3.1526632999994035)]",856.9235121999995,None,1.0,,,,,,,,,sub_124,2022-09-09_10h11.43.783,Reversal,2022.1.1,59.942263611791276,4,
,,,exp3.png,,,,,,,,,,,,,,,,,2,0,2,0,,,,,0,0,0,0,0,2,2,2,,,,,,,,,,,,,,,,,,,,,,,71.0,1.5418738999997004,"[(71.0, 1.5418738999997004)]",860.9828659,None,,,71.0,,,,,,,sub_124,2022-09-09_10h11.43.783,Reversal,2022.1.1,59.942263611791276,4,
,,,exp4.png,,,,,,,,,,,,,,,,,2,0,2,0,,,,,0,0,0,0,0,3,3,3,,,,,,,,,,,,,,,,,,,,,,,48.0,1.0870698000007906,"[(48.0, 1.0870698000007906)]",863.3702128,None,,48.0,,,,,,,,sub_124,2022-09-09_10h11.43.783,Reversal,2022.1.1,59.942263611791276,4,
,,,,,,,,,,,,,,,,,,,,,,,,,,,,,,,,,,,,,,,,,,,,,,,,,,,,,,,,73,,,,,,,,,,,73,38,35,329.4610068999996,0,,,,,,,
