trial_index,trial_image1_file,trial_image2_file,image_file,learning_outer_loop.thisRepN,learning_outer_loop.thisTrialN,learning_outer_loop.thisN,learning_outer_loop.thisIndex,learning_inner_loop.thisRepN,learning_inner_loop.thisTrialN,learning_inner_loop.thisN,learning_inner_loop.thisIndex,learning_estimation_outer_loop.thisRepN,learning_estimation_outer_loop.thisTrialN,learning_estimation_outer_loop.thisN,learning_estimation_outer_loop.thisIndex,learning_estimation_inner_loop.thisRepN,learning_estimation_inner_loop.thisTrialN,learning_estimation_inner_loop.thisN,learning_estimation_inner_loop.thisIndex,reversal_outer_loop.thisRepN,reversal_outer_loop.thisTrialN,reversal_outer_loop.thisN,reversal_outer_loop.thisIndex,reversal_inner_loop.thisRepN,reversal_inner_loop.thisTrialN,reversal_inner_loop.thisN,reversal_inner_loop.thisIndex,reversal_estimation_outer_loop.thisRepN,reversal_estimation_outer_loop.thisTrialN,reversal_estimation_outer_loop.thisN,reversal_estimation_outer_loop.thisIndex,reversal_estimation_inner_loop.thisRepN,reversal_estimation_inner_loop.thisTrialN,reversal_estimation_inner_loop.thisN,reversal_estimation_inner_loop.thisIndex,skipped,total_trial_counter,trial_num,left_right_flip,left_image_file,right_image_file,clicked_stimulus_side,side,clicked_stimulus,version,high_prob_image_file,low_prob_image_file,choice_a,choice_b,pair_type,correct,trial_feedback_random,reward,trial_type,overall_time_after_trial,score,estimation_rating.started,estimation_exp1.png,estimation_rating.response,estimation_rating.rt,estimation_rating.history,estimation_exp2.png,estimation_exp3.png,total_learning_time,estimation_exp4.png,total_correct,learning_correct,reversal_correct,total_reversal_time,extra_block,end_experiment.keys,end_experiment.rt,end_experiment.duration,participant,date,expName,psychopyVersion,frameRate,ver,
0,exp1.png,exp2.png,,0,0,0,0,0,0,0,0,,,,,,,,,,,,,,,,,,,,,,,,,False,0,1,False,exp1.png,exp2.png,trial_left_image,1,exp1.png,2,exp1.png,exp2.png,1,1,non-reversed,correct,0.5704628426843285,1,valid_win,3.181242699996801,1,,,,,,,,,,,,,,,,,,sub_266,2024-01-14_11h38.28.916,Reversal,2023.1.3,60.0356131208111,2,
1,exp3.png,exp4.png,,0,0,0,0,0,1,1,1,,,,,,,,,,,,,,,,,,,,,,,,,False,1,2,False,exp3.png,exp4.png,trial_left_image,1,exp3.png,2,exp3.png,exp4.png,1,3,reversed,correct,0.9165433812208458,1,valid_win,14.294027800002368,2,,,,,,,,,,,,,,,,,,sub_266,2024-01-14_11h38.28.916,Reversal,2023.1.3,60.0356131208111,2,
2,exp1.png,exp2.png,,0,0,0,0,0,2,2,2,,,,,,,,,,,,,,,,,,,,,,,,,False,2,3,False,exp1.png,exp2.png,trial_left_image,1,exp1.png,2,exp1.png,exp2.png,1,1,non-reversed,correct,0.5343702711528949,1,valid_win,23.773779300012393,3,,,,,,,,,,,,,,,,,,sub_266,2024-01-14_11h38.28.916,Reversal,2023.1.3,60.0356131208111,2,
3,exp3.png,exp4.png,,0,0,0,0,0,3,3,3,,,,,,,,,,,,,,,,,,,,,,,,,False,3,4,True,exp4.png,exp3.png,trial_left_image,1,exp4.png,2,exp3.png,exp4.png,0,4,reversed,incorrect,0.08992682401237495,1,invalid_win,30.055013800010784,4,,,,,,,,,,,,,,,,,,sub_266,2024-01-14_11h38.28.916,Reversal,2023.1.3,60.0356131208111,2,
4,exp1.png,exp2.png,,0,0,0,0,0,4,4,4,,,,,,,,,,,,,,,,,,,,,,,,,False,4,5,False,exp1.png,exp2.png,trial_left_image,1,exp1.png,2,exp1.png,exp2.png,1,1,non-reversed,correct,0.768905311040285,1,valid_win,36.219362600008026,5,,,,,,,,,,,,,,,,,,sub_266,2024-01-14_11h38.28.916,Reversal,2023.1.3,60.0356131208111,2,
5,exp3.png,exp4.png,,0,0,0,0,0,5,5,5,,,,,,,,,,,,,,,,,,,,,,,,,False,5,6,False,exp3.png,exp4.png,trial_left_image,1,exp3.png,2,exp3.png,exp4.png,1,3,reversed,correct,0.9338456012772071,1,valid_win,41.96784620001563,6,,,,,,,,,,,,,,,,,,sub_266,2024-01-14_11h38.28.916,Reversal,2023.1.3,60.0356131208111,2,
6,exp1.png,exp2.png,,0,0,0,0,0,6,6,6,,,,,,,,,,,,,,,,,,,,,,,,,False,6,7,True,exp2.png,exp1.png,trial_left_image,1,exp2.png,2,exp1.png,exp2.png,0,2,non-reversed,incorrect,0.4281515486038835,0,valid_lose,47.5659064000065,6,,,,,,,,,,,,,,,,,,sub_266,2024-01-14_11h38.28.916,Reversal,2023.1.3,60.0356131208111,2,
7,exp3.png,exp4.png,,0,0,0,0,0,7,7,7,,,,,,,,,,,,,,,,,,,,,,,,,False,7,8,False,exp3.png,exp4.png,trial_right_image,-1,exp4.png,2,exp3.png,exp4.png,0,4,reversed,incorrect,0.061590178333525425,1,invalid_win,56.59592630001134,7,,,,,,,,,,,,,,,,,,sub_266,2024-01-14_11h38.28.916,Reversal,2023.1.3,60.0356131208111,2,
8,exp1.png,exp2.png,,0,0,0,0,0,8,8,8,,,,,,,,,,,,,,,,,,,,,,,,,False,8,9,False,exp1.png,exp2.png,trial_left_image,1,exp1.png,2,exp1.png,exp2.png,1,1,non-reversed,correct,0.6999304600852425,1,valid_win,71.90766270001768,8,,,,,,,,,,,,,,,,,,sub_266,2024-01-14_11h38.28.916,Reversal,2023.1.3,60.0356131208111,2,
9,exp3.png,exp4.png,,0,0,0,0,0,9,9,9,,,,,,,,,,,,,,,,,,,,,,,,,False,9,10,True,exp4.png,exp3.png,trial_left_image,1,exp4.png,2,exp3.png,exp4.png,0,4,reversed,incorrect,0.4469961372666369,0,valid_lose,82.20431390000158,8,,,,,,,,,,,,,,,,,,sub_266,2024-01-14_11h38.28.916,Reversal,2023.1.3,60.0356131208111,2,
10,exp1.png,exp2.png,,0,0,0,0,0,10,10,10,,,,,,,,,,,,,,,,,,,,,,,,,False,10,11,False,exp1.png,exp2.png,trial_left_image,1,exp1.png,2,exp1.png,exp2.png,1,1,non-reversed,correct,0.6048005174240626,1,valid_win,87.61910549999448,9,,,,,,,,,,,,,,,,,,sub_266,2024-01-14_11h38.28.916,Reversal,2023.1.3,60.0356131208111,2,
11,exp3.png,exp4.png,,0,0,0,0,0,11,11,11,,,,,,,,,,,,,,,,,,,,,,,,,False,11,12,True,exp4.png,exp3.png,trial_right_image,-1,exp3.png,2,exp3.png,exp4.png,1,3,reversed,correct,0.1379699756094035,0,invalid_lose,93.28425419999985,9,,,,,,,,,,,,,,,,,,sub_266,2024-01-14_11h38.28.916,Reversal,2023.1.3,60.0356131208111,2,
12,exp1.png,exp2.png,,0,0,0,0,0,12,12,12,,,,,,,,,,,,,,,,,,,,,,,,,False,12,13,False,exp1.png,exp2.png,trial_left_image,1,exp1.png,2,exp1.png,exp2.png,1,1,non-reversed,correct,0.12801191800859513,0,invalid_lose,98.26567310001701,9,,,,,,,,,,,,,,,,,,sub_266,2024-01-14_11h38.28.916,Reversal,2023.1.3,60.0356131208111,2,
13,exp3.png,exp4.png,,0,0,0,0,0,13,13,13,,,,,,,,,,,,,,,,,,,,,,,,,False,13,14,True,exp4.png,exp3.png,trial_left_image,1,exp4.png,2,exp3.png,exp4.png,0,4,reversed,incorrect,0.8296722209722671,0,valid_lose,103.13012210000306,9,,,,,,,,,,,,,,,,,,sub_266,2024-01-14_11h38.28.916,Reversal,2023.1.3,60.0356131208111,2,
14,exp1.png,exp2.png,,0,0,0,0,0,14,14,14,,,,,,,,,,,,,,,,,,,,,,,,,False,14,15,True,exp2.png,exp1.png,trial_right_image,-1,exp1.png,2,exp1.png,exp2.png,1,1,non-reversed,correct,0.7859728516550537,1,valid_win,107.71247560001211,10,,,,,,,,,,,,,,,,,,sub_266,2024-01-14_11h38.28.916,Reversal,2023.1.3,60.0356131208111,2,
15,exp3.png,exp4.png,,0,0,0,0,0,15,15,15,,,,,,,,,,,,,,,,,,,,,,,,,False,15,16,True,exp4.png,exp3.png,trial_right_image,-1,exp3.png,2,exp3.png,exp4.png,1,3,reversed,correct,0.305473979848503,1,valid_win,113.22697240000707,11,,,,,,,,,,,,,,,,,,sub_266,2024-01-14_11h38.28.916,Reversal,2023.1.3,60.0356131208111,2,
16,exp1.png,exp2.png,,0,0,0,0,0,16,16,16,,,,,,,,,,,,,,,,,,,,,,,,,False,16,17,True,exp2.png,exp1.png,trial_right_image,-1,exp1.png,2,exp1.png,exp2.png,1,1,non-reversed,correct,0.7676860394820694,1,valid_win,117.95856910001021,12,,,,,,,,,,,,,,,,,,sub_266,2024-01-14_11h38.28.916,Reversal,2023.1.3,60.0356131208111,2,
17,exp3.png,exp4.png,,0,0,0,0,0,17,17,17,,,,,,,,,,,,,,,,,,,,,,,,,False,17,18,True,exp4.png,exp3.png,trial_right_image,-1,exp3.png,2,exp3.png,exp4.png,1,3,reversed,correct,0.34202300352775783,1,valid_win,122.70718850000412,13,,,,,,,,,,,,,,,,,,sub_266,2024-01-14_11h38.28.916,Reversal,2023.1.3,60.0356131208111,2,
18,exp1.png,exp2.png,,0,0,0,0,0,18,18,18,,,,,,,,,,,,,,,,,,,,,,,,,False,18,19,False,exp1.png,exp2.png,trial_right_image,-1,exp2.png,2,exp1.png,exp2.png,0,2,non-reversed,incorrect,0.49172552991316476,0,valid_lose,127.10596849999274,13,,,,,,,,,,,,,,,,,,sub_266,2024-01-14_11h38.28.916,Reversal,2023.1.3,60.0356131208111,2,
19,exp3.png,exp4.png,,0,0,0,0,0,19,19,19,,,,,,,,,,,,,,,,,,,,,,,,,False,19,20,True,exp4.png,exp3.png,trial_left_image,1,exp4.png,2,exp3.png,exp4.png,0,4,reversed,incorrect,0.7841006529529324,0,valid_lose,131.52042680000886,13,,,,,,,,,,,,,,,,,,sub_266,2024-01-14_11h38.28.916,Reversal,2023.1.3,60.0356131208111,2,
20,exp1.png,exp2.png,,0,0,0,0,0,20,20,20,,,,,,,,,,,,,,,,,,,,,,,,,True,,,,,,,,,,,,,,,,,,,,,,,,,,,,,,,,,,,,,,sub_266,2024-01-14_11h38.28.916,Reversal,2023.1.3,60.0356131208111,2,
,,,exp1.png,0,0,0,0,,,,,0,0,0,0,0,0,0,0,,,,,,,,,,,,,,,,,,,,,,,,,,,,,,,,,,,,,,241.9866719999991,48.0,48.0,21.930951500020456,"[(51.0, 14.134456200001296), (48.0, 21.930951500020456)]",,,,,,,,,,,,,sub_266,2024-01-14_11h38.28.916,Reversal,2023.1.3,60.0356131208111,2,
,,,exp2.png,0,0,0,0,,,,,0,0,0,0,0,1,1,1,,,,,,,,,,,,,,,,,,,,,,,,,,,,,,,,,,,,,,265.84335609999835,,None,None,[],,,,,,,,,,,,,sub_266,2024-01-14_11h38.28.916,Reversal,2023.1.3,60.0356131208111,2,
,,,exp3.png,0,0,0,0,,,,,0,0,0,0,0,2,2,2,,,,,,,,,,,,,,,,,,,,,,,,,,,,,,,,,,,,,,267.8097453000082,,None,None,[],,,,,,,,,,,,,sub_266,2024-01-14_11h38.28.916,Reversal,2023.1.3,60.0356131208111,2,
,,,exp4.png,0,0,0,0,,,,,0,0,0,0,0,3,3,3,,,,,,,,,,,,,,,,,,,,,,,,,,,,,,,,,,,,,,276.87597399999504,,None,None,[],,,,,,,,,,,,,sub_266,2024-01-14_11h38.28.916,Reversal,2023.1.3,60.0356131208111,2,
0,exp1.png,exp2.png,,1,0,1,0,0,0,0,0,,,,,,,,,,,,,,,,,,,,,,,,,False,20,21,False,exp1.png,exp2.png,trial_left_image,1,exp1.png,2,exp1.png,exp2.png,1,1,non-reversed,correct,0.023235490706795425,0,invalid_lose,178.15547090000473,13,,,,,,,,,,,,,,,,,,sub_266,2024-01-14_11h38.28.916,Reversal,2023.1.3,60.0356131208111,2,
1,exp3.png,exp4.png,,1,0,1,0,0,1,1,1,,,,,,,,,,,,,,,,,,,,,,,,,False,21,22,False,exp3.png,exp4.png,trial_left_image,1,exp3.png,2,exp3.png,exp4.png,1,3,reversed,correct,0.7880725170054161,1,valid_win,182.90351299999747,14,,,,,,,,,,,,,,,,,,sub_266,2024-01-14_11h38.28.916,Reversal,2023.1.3,60.0356131208111,2,
2,exp1.png,exp2.png,,1,0,1,0,0,2,2,2,,,,,,,,,,,,,,,,,,,,,,,,,False,22,23,True,exp2.png,exp1.png,trial_right_image,-1,exp1.png,2,exp1.png,exp2.png,1,1,non-reversed,correct,0.24097540868427947,0,invalid_lose,192.1834657000145,14,,,,,,,,,,,,,,,,,,sub_266,2024-01-14_11h38.28.916,Reversal,2023.1.3,60.0356131208111,2,
3,exp3.png,exp4.png,,1,0,1,0,0,3,3,3,,,,,,,,,,,,,,,,,,,,,,,,,False,23,24,True,exp4.png,exp3.png,trial_left_image,1,exp4.png,2,exp3.png,exp4.png,0,4,reversed,incorrect,0.7680248747389766,0,valid_lose,196.04902850001235,14,,,,,,,,,,,,,,,,,,sub_266,2024-01-14_11h38.28.916,Reversal,2023.1.3,60.0356131208111,2,
4,exp1.png,exp2.png,,1,0,1,0,0,4,4,4,,,,,,,,,,,,,,,,,,,,,,,,,False,24,25,True,exp2.png,exp1.png,trial_left_image,1,exp2.png,2,exp1.png,exp2.png,0,2,non-reversed,incorrect,0.13216252189816258,1,invalid_win,201.38008560001617,15,,,,,,,,,,,,,,,,,,sub_266,2024-01-14_11h38.28.916,Reversal,2023.1.3,60.0356131208111,2,
5,exp3.png,exp4.png,,1,0,1,0,0,5,5,5,,,,,,,,,,,,,,,,,,,,,,,,,False,25,26,True,exp4.png,exp3.png,trial_right_image,-1,exp3.png,2,exp3.png,exp4.png,1,3,reversed,correct,0.288418508264095,1,valid_win,205.66192600000068,16,,,,,,,,,,,,,,,,,,sub_266,2024-01-14_11h38.28.916,Reversal,2023.1.3,60.0356131208111,2,
6,exp1.png,exp2.png,,1,0,1,0,0,6,6,6,,,,,,,,,,,,,,,,,,,,,,,,,False,26,27,False,exp1.png,exp2.png,trial_right_image,-1,exp2.png,2,exp1.png,exp2.png,0,2,non-reversed,incorrect,0.9967497717495206,0,valid_lose,212.6936137000157,16,,,,,,,,,,,,,,,,,,sub_266,2024-01-14_11h38.28.916,Reversal,2023.1.3,60.0356131208111,2,
7,exp3.png,exp4.png,,1,0,1,0,0,7,7,7,,,,,,,,,,,,,,,,,,,,,,,,,False,27,28,True,exp4.png,exp3.png,trial_left_image,1,exp4.png,2,exp3.png,exp4.png,0,4,reversed,incorrect,0.4473442347468496,0,valid_lose,217.0083033000119,16,,,,,,,,,,,,,,,,,,sub_266,2024-01-14_11h38.28.916,Reversal,2023.1.3,60.0356131208111,2,
8,exp1.png,exp2.png,,1,0,1,0,0,8,8,8,,,,,,,,,,,,,,,,,,,,,,,,,False,28,29,False,exp1.png,exp2.png,trial_right_image,-1,exp2.png,2,exp1.png,exp2.png,0,2,non-reversed,incorrect,0.10659042823148268,1,invalid_win,221.42359869999927,17,,,,,,,,,,,,,,,,,,sub_266,2024-01-14_11h38.28.916,Reversal,2023.1.3,60.0356131208111,2,
9,exp3.png,exp4.png,,1,0,1,0,0,9,9,9,,,,,,,,,,,,,,,,,,,,,,,,,False,29,30,True,exp4.png,exp3.png,trial_right_image,-1,exp3.png,2,exp3.png,exp4.png,1,3,reversed,correct,0.07026355382105931,0,invalid_lose,226.8718799999915,17,,,,,,,,,,,,,,,,,,sub_266,2024-01-14_11h38.28.916,Reversal,2023.1.3,60.0356131208111,2,
10,exp1.png,exp2.png,,1,0,1,0,0,10,10,10,,,,,,,,,,,,,,,,,,,,,,,,,False,30,31,False,exp1.png,exp2.png,trial_left_image,1,exp1.png,2,exp1.png,exp2.png,1,1,non-reversed,correct,0.2821536180430909,1,valid_win,231.0368291999912,18,,,,,,,,,,,,,,,,,,sub_266,2024-01-14_11h38.28.916,Reversal,2023.1.3,60.0356131208111,2,
11,exp3.png,exp4.png,,1,0,1,0,0,11,11,11,,,,,,,,,,,,,,,,,,,,,,,,,False,31,32,False,exp3.png,exp4.png,trial_left_image,1,exp3.png,2,exp3.png,exp4.png,1,3,reversed,correct,0.6036387617643402,1,valid_win,235.585459599999,19,,,,,,,,,,,,,,,,,,sub_266,2024-01-14_11h38.28.916,Reversal,2023.1.3,60.0356131208111,2,
12,exp1.png,exp2.png,,1,0,1,0,0,12,12,12,,,,,,,,,,,,,,,,,,,,,,,,,False,32,33,True,exp2.png,exp1.png,trial_right_image,-1,exp1.png,2,exp1.png,exp2.png,1,1,non-reversed,correct,0.3170792869992922,1,valid_win,241.4667005999945,20,,,,,,,,,,,,,,,,,,sub_266,2024-01-14_11h38.28.916,Reversal,2023.1.3,60.0356131208111,2,
13,exp3.png,exp4.png,,1,0,1,0,0,13,13,13,,,,,,,,,,,,,,,,,,,,,,,,,False,33,34,True,exp4.png,exp3.png,trial_left_image,1,exp4.png,2,exp3.png,exp4.png,0,4,reversed,incorrect,0.6193709151749395,0,valid_lose,249.43066610000096,20,,,,,,,,,,,,,,,,,,sub_266,2024-01-14_11h38.28.916,Reversal,2023.1.3,60.0356131208111,2,
14,exp1.png,exp2.png,,1,0,1,0,0,14,14,14,,,,,,,,,,,,,,,,,,,,,,,,,False,34,35,False,exp1.png,exp2.png,trial_left_image,1,exp1.png,2,exp1.png,exp2.png,1,1,non-reversed,correct,0.5493832874683191,1,valid_win,253.31274439999834,21,,,,,,,,,,,,,,,,,,sub_266,2024-01-14_11h38.28.916,Reversal,2023.1.3,60.0356131208111,2,
15,exp3.png,exp4.png,,1,0,1,0,0,15,15,15,,,,,,,,,,,,,,,,,,,,,,,,,False,35,36,False,exp3.png,exp4.png,trial_right_image,-1,exp4.png,2,exp3.png,exp4.png,0,4,reversed,incorrect,0.22787481476368765,1,invalid_win,257.39468319999287,22,,,,,,,,,,,,,,,,,,sub_266,2024-01-14_11h38.28.916,Reversal,2023.1.3,60.0356131208111,2,
16,exp1.png,exp2.png,,1,0,1,0,0,16,16,16,,,,,,,,,,,,,,,,,,,,,,,,,False,36,37,False,exp1.png,exp2.png,trial_left_image,1,exp1.png,2,exp1.png,exp2.png,1,1,non-reversed,correct,0.444115420739158,1,valid_win,279.80427550000604,23,,,,,,,,,,,,,,,,,,sub_266,2024-01-14_11h38.28.916,Reversal,2023.1.3,60.0356131208111,2,
17,exp3.png,exp4.png,,1,0,1,0,0,17,17,17,,,,,,,,,,,,,,,,,,,,,,,,,False,37,38,True,exp4.png,exp3.png,trial_right_image,-1,exp3.png,2,exp3.png,exp4.png,1,3,reversed,correct,0.47310993286626113,1,valid_win,285.8185877999931,24,,,,,,,,,,,,,,,,,,sub_266,2024-01-14_11h38.28.916,Reversal,2023.1.3,60.0356131208111,2,
18,exp1.png,exp2.png,,1,0,1,0,0,18,18,18,,,,,,,,,,,,,,,,,,,,,,,,,False,38,39,False,exp1.png,exp2.png,trial_left_image,1,exp1.png,2,exp1.png,exp2.png,1,1,non-reversed,correct,0.7468333160205654,1,valid_win,291.9161160000076,25,,,,,,,,,,,,,,,,,,sub_266,2024-01-14_11h38.28.916,Reversal,2023.1.3,60.0356131208111,2,
19,exp3.png,exp4.png,,1,0,1,0,0,19,19,19,,,,,,,,,,,,,,,,,,,,,,,,,False,39,40,True,exp4.png,exp3.png,trial_right_image,-1,exp3.png,2,exp3.png,exp4.png,1,3,reversed,correct,0.1762295196300997,0,invalid_lose,299.4470494000125,25,,,,,,,,,,,,,,,,,,sub_266,2024-01-14_11h38.28.916,Reversal,2023.1.3,60.0356131208111,2,
20,exp1.png,exp2.png,,1,0,1,0,0,20,20,20,,,,,,,,,,,,,,,,,,,,,,,,,True,,,,,,,,,,,,,,,,,,,,,,,,,,,,,,,,,,,,,,sub_266,2024-01-14_11h38.28.916,Reversal,2023.1.3,60.0356131208111,2,
,,,exp1.png,1,0,1,0,,,,,0,0,0,0,0,0,0,0,,,,,,,,,,,,,,,,,,,,,,,,,,,,,,,,,,,,,,409.87373729998944,64.0,64.0,17.582121899991762,"[(4.0, 5.3870458000164945), (42.0, 9.951268800010439), (64.0, 17.582121899991762)]",,,,,,,,,,,,,sub_266,2024-01-14_11h38.28.916,Reversal,2023.1.3,60.0356131208111,2,
,,,exp2.png,1,0,1,0,,,,,0,0,0,0,0,1,1,1,,,,,,,,,,,,,,,,,,,,,,,,,,,,,,,,,,,,,,428.623955499992,,None,None,[],,,,,,,,,,,,,sub_266,2024-01-14_11h38.28.916,Reversal,2023.1.3,60.0356131208111,2,
,,,exp3.png,1,0,1,0,,,,,0,0,0,0,0,2,2,2,,,,,,,,,,,,,,,,,,,,,,,,,,,,,,,,,,,,,,433.05473370000254,,None,None,[],,,,,,,,,,,,,sub_266,2024-01-14_11h38.28.916,Reversal,2023.1.3,60.0356131208111,2,
,,,exp4.png,1,0,1,0,,,,,0,0,0,0,0,3,3,3,,,,,,,,,,,,,,,,,,,,,,,,,,,,,,,,,,,,,,435.1540544000163,,None,None,[],,,,,,,,,,,,,sub_266,2024-01-14_11h38.28.916,Reversal,2023.1.3,60.0356131208111,2,
0,exp1.png,exp2.png,,2,0,2,0,0,0,0,0,,,,,,,,,,,,,,,,,,,,,,,,,False,40,41,False,exp1.png,exp2.png,trial_left_image,1,exp1.png,2,exp1.png,exp2.png,1,1,non-reversed,correct,0.9893258934311274,1,valid_win,337.13427500001853,26,,,,,,,,,,,,,,,,,,sub_266,2024-01-14_11h38.28.916,Reversal,2023.1.3,60.0356131208111,2,
1,exp3.png,exp4.png,,2,0,2,0,0,1,1,1,,,,,,,,,,,,,,,,,,,,,,,,,False,41,42,True,exp4.png,exp3.png,trial_right_image,-1,exp3.png,2,exp3.png,exp4.png,1,3,reversed,correct,0.031658953983457194,0,invalid_lose,348.1138015000033,26,,,,,,,,,,,,,,,,,,sub_266,2024-01-14_11h38.28.916,Reversal,2023.1.3,60.0356131208111,2,
2,exp1.png,exp2.png,,2,0,2,0,0,2,2,2,,,,,,,,,,,,,,,,,,,,,,,,,False,42,43,True,exp2.png,exp1.png,trial_left_image,1,exp2.png,2,exp1.png,exp2.png,0,2,non-reversed,incorrect,0.28152764352738735,0,valid_lose,352.8791627000028,26,,,,,,,,,,,,,,,,,,sub_266,2024-01-14_11h38.28.916,Reversal,2023.1.3,60.0356131208111,2,
3,exp3.png,exp4.png,,2,0,2,0,0,3,3,3,,,,,,,,,,,,,,,,,,,,,,,,,False,43,44,True,exp4.png,exp3.png,trial_left_image,1,exp4.png,2,exp3.png,exp4.png,0,4,reversed,incorrect,0.2261110562437343,1,invalid_win,358.1437843000167,27,,,,,,,,,,,,,,,,,,sub_266,2024-01-14_11h38.28.916,Reversal,2023.1.3,60.0356131208111,2,
4,exp1.png,exp2.png,,2,0,2,0,0,4,4,4,,,,,,,,,,,,,,,,,,,,,,,,,False,44,45,True,exp2.png,exp1.png,trial_right_image,-1,exp1.png,2,exp1.png,exp2.png,1,1,non-reversed,correct,0.8577304056820303,1,valid_win,362.00906929999474,28,,,,,,,,,,,,,,,,,,sub_266,2024-01-14_11h38.28.916,Reversal,2023.1.3,60.0356131208111,2,
5,exp3.png,exp4.png,,2,0,2,0,0,5,5,5,,,,,,,,,,,,,,,,,,,,,,,,,False,45,46,True,exp4.png,exp3.png,trial_right_image,-1,exp3.png,2,exp3.png,exp4.png,1,3,reversed,correct,0.8450044066539514,1,valid_win,366.6741408999951,29,,,,,,,,,,,,,,,,,,sub_266,2024-01-14_11h38.28.916,Reversal,2023.1.3,60.0356131208111,2,
6,exp1.png,exp2.png,,2,0,2,0,0,6,6,6,,,,,,,,,,,,,,,,,,,,,,,,,False,46,47,False,exp1.png,exp2.png,trial_left_image,1,exp1.png,2,exp1.png,exp2.png,1,1,non-reversed,correct,0.4261042911737505,1,valid_win,371.48967380000977,30,,,,,,,,,,,,,,,,,,sub_266,2024-01-14_11h38.28.916,Reversal,2023.1.3,60.0356131208111,2,
7,exp3.png,exp4.png,,2,0,2,0,0,7,7,7,,,,,,,,,,,,,,,,,,,,,,,,,False,47,48,True,exp4.png,exp3.png,trial_right_image,-1,exp3.png,2,exp3.png,exp4.png,1,3,reversed,correct,0.4218277412524164,1,valid_win,380.5196329000173,31,,,,,,,,,,,,,,,,,,sub_266,2024-01-14_11h38.28.916,Reversal,2023.1.3,60.0356131208111,2,
8,exp1.png,exp2.png,,2,0,2,0,0,8,8,8,,,,,,,,,,,,,,,,,,,,,,,,,False,48,49,False,exp1.png,exp2.png,trial_left_image,1,exp1.png,2,exp1.png,exp2.png,1,1,non-reversed,correct,0.5079589688685233,1,valid_win,385.3345530999941,32,,,,,,,,,,,,,,,,,,sub_266,2024-01-14_11h38.28.916,Reversal,2023.1.3,60.0356131208111,2,
9,exp3.png,exp4.png,,2,0,2,0,0,9,9,9,,,,,,,,,,,,,,,,,,,,,,,,,False,49,50,True,exp4.png,exp3.png,trial_left_image,1,exp4.png,2,exp3.png,exp4.png,0,4,reversed,incorrect,0.913367721788049,0,valid_lose,391.39916490000905,32,,,,,,,,,,,,,,,,,,sub_266,2024-01-14_11h38.28.916,Reversal,2023.1.3,60.0356131208111,2,
10,exp1.png,exp2.png,,2,0,2,0,0,10,10,10,,,,,,,,,,,,,,,,,,,,,,,,,False,50,51,False,exp1.png,exp2.png,trial_right_image,-1,exp2.png,2,exp1.png,exp2.png,0,2,non-reversed,incorrect,0.46781310974424195,0,valid_lose,395.91436399999657,32,,,,,,,,,,,,,,,,,,sub_266,2024-01-14_11h38.28.916,Reversal,2023.1.3,60.0356131208111,2,
11,exp3.png,exp4.png,,2,0,2,0,0,11,11,11,,,,,,,,,,,,,,,,,,,,,,,,,False,51,52,False,exp3.png,exp4.png,trial_right_image,-1,exp4.png,2,exp3.png,exp4.png,0,4,reversed,incorrect,0.8585460362554945,0,valid_lose,400.02939250000054,32,,,,,,,,,,,,,,,,,,sub_266,2024-01-14_11h38.28.916,Reversal,2023.1.3,60.0356131208111,2,
12,exp1.png,exp2.png,,2,0,2,0,0,12,12,12,,,,,,,,,,,,,,,,,,,,,,,,,False,52,53,True,exp2.png,exp1.png,trial_left_image,1,exp2.png,2,exp1.png,exp2.png,0,2,non-reversed,incorrect,0.9098378005464814,0,valid_lose,404.34530640000594,32,,,,,,,,,,,,,,,,,,sub_266,2024-01-14_11h38.28.916,Reversal,2023.1.3,60.0356131208111,2,
13,exp3.png,exp4.png,,2,0,2,0,0,13,13,13,,,,,,,,,,,,,,,,,,,,,,,,,False,53,54,False,exp3.png,exp4.png,trial_left_image,1,exp3.png,2,exp3.png,exp4.png,1,3,reversed,correct,0.7749388124497472,1,valid_win,408.5936237999995,33,,,,,,,,,,,,,,,,,,sub_266,2024-01-14_11h38.28.916,Reversal,2023.1.3,60.0356131208111,2,
14,exp1.png,exp2.png,,2,0,2,0,0,14,14,14,,,,,,,,,,,,,,,,,,,,,,,,,False,54,55,True,exp2.png,exp1.png,trial_right_image,-1,exp1.png,2,exp1.png,exp2.png,1,1,non-reversed,correct,0.09097498418270722,0,invalid_lose,413.89222919999156,33,,,,,,,,,,,,,,,,,,sub_266,2024-01-14_11h38.28.916,Reversal,2023.1.3,60.0356131208111,2,
15,exp3.png,exp4.png,,2,0,2,0,0,15,15,15,,,,,,,,,,,,,,,,,,,,,,,,,False,55,56,False,exp3.png,exp4.png,trial_left_image,1,exp3.png,2,exp3.png,exp4.png,1,3,reversed,correct,0.558799929209553,1,valid_win,417.30722000001697,34,,,,,,,,,,,,,,,,,,sub_266,2024-01-14_11h38.28.916,Reversal,2023.1.3,60.0356131208111,2,
16,exp1.png,exp2.png,,2,0,2,0,0,16,16,16,,,,,,,,,,,,,,,,,,,,,,,,,False,56,57,False,exp1.png,exp2.png,trial_left_image,1,exp1.png,2,exp1.png,exp2.png,1,1,non-reversed,correct,0.7620088578231242,1,valid_win,425.90504270000383,35,,,,,,,,,,,,,,,,,,sub_266,2024-01-14_11h38.28.916,Reversal,2023.1.3,60.0356131208111,2,
17,exp3.png,exp4.png,,2,0,2,0,0,17,17,17,,,,,,,,,,,,,,,,,,,,,,,,,False,57,58,False,exp3.png,exp4.png,trial_right_image,-1,exp4.png,2,exp3.png,exp4.png,0,4,reversed,incorrect,0.13389751509158654,1,invalid_win,431.5522697000124,36,,,,,,,,,,,,,,,,,,sub_266,2024-01-14_11h38.28.916,Reversal,2023.1.3,60.0356131208111,2,
18,exp1.png,exp2.png,,2,0,2,0,0,18,18,18,,,,,,,,,,,,,,,,,,,,,,,,,False,58,59,False,exp1.png,exp2.png,trial_right_image,-1,exp2.png,2,exp1.png,exp2.png,0,2,non-reversed,incorrect,0.1465008296997814,1,invalid_win,438.3664936000132,37,,,,,,,,,,,,,,,,,,sub_266,2024-01-14_11h38.28.916,Reversal,2023.1.3,60.0356131208111,2,
19,exp3.png,exp4.png,,2,0,2,0,0,19,19,19,,,,,,,,,,,,,,,,,,,,,,,,,False,59,60,True,exp4.png,exp3.png,trial_left_image,1,exp4.png,2,exp3.png,exp4.png,0,4,reversed,incorrect,0.9957711390895079,0,valid_lose,442.73171849999926,37,,,,,,,,,,,,,,,,,,sub_266,2024-01-14_11h38.28.916,Reversal,2023.1.3,60.0356131208111,2,
20,exp1.png,exp2.png,,2,0,2,0,0,20,20,20,,,,,,,,,,,,,,,,,,,,,,,,,True,,,,,,,,,,,,,,,,,,,,,,,,,,,,,,,,,,,,,,sub_266,2024-01-14_11h38.28.916,Reversal,2023.1.3,60.0356131208111,2,
,,,exp1.png,2,0,2,0,,,,,0,0,0,0,0,0,0,0,,,,,,,,,,,,,,,,,,,,,,,,,,,,,,,,,,,,,,553.1400926999922,41.0,41.0,2.7561068999930285,"[(41.0, 2.7561068999930285)]",,,,,,,,,,,,,sub_266,2024-01-14_11h38.28.916,Reversal,2023.1.3,60.0356131208111,2,
,,,exp2.png,2,0,2,0,,,,,0,0,0,0,0,1,1,1,,,,,,,,,,,,,,,,,,,,,,,,,,,,,,,,,,,,,,556.810793600016,,40.0,1.4290372999967076,"[(40.0, 1.4290372999967076)]",40.0,,,,,,,,,,,,sub_266,2024-01-14_11h38.28.916,Reversal,2023.1.3,60.0356131208111,2,
,,,exp3.png,2,0,2,0,,,,,0,0,0,0,0,2,2,2,,,,,,,,,,,,,,,,,,,,,,,,,,,,,,,,,,,,,,559.0434172000096,,36.0,2.04426580001018,"[(36.0, 2.04426580001018)]",,36.0,,,,,,,,,,,sub_266,2024-01-14_11h38.28.916,Reversal,2023.1.3,60.0356131208111,2,
,,,exp4.png,2,0,2,0,,,,,0,0,0,0,0,3,3,3,,,,,,,,,,,,,,,,,,,,,,,,,,,,,,,,,,,,,,561.9098083999997,,None,None,[],,,,,,,,,,,,,sub_266,2024-01-14_11h38.28.916,Reversal,2023.1.3,60.0356131208111,2,
0,exp1.png,exp2.png,,3,0,3,0,0,0,0,0,,,,,,,,,,,,,,,,,,,,,,,,,False,60,61,False,exp1.png,exp2.png,trial_left_image,1,exp1.png,2,exp1.png,exp2.png,1,1,non-reversed,correct,0.12382383927709317,0,invalid_lose,458.4930444000056,37,,,,,,,,,,,,,,,,,,sub_266,2024-01-14_11h38.28.916,Reversal,2023.1.3,60.0356131208111,2,
1,exp3.png,exp4.png,,3,0,3,0,0,1,1,1,,,,,,,,,,,,,,,,,,,,,,,,,False,61,62,True,exp4.png,exp3.png,trial_left_image,1,exp4.png,2,exp3.png,exp4.png,0,4,reversed,incorrect,0.7664395397951123,0,valid_lose,462.7750272999983,37,,,,,,,,,,,,,,,,,,sub_266,2024-01-14_11h38.28.916,Reversal,2023.1.3,60.0356131208111,2,
2,exp1.png,exp2.png,,3,0,3,0,0,2,2,2,,,,,,,,,,,,,,,,,,,,,,,,,False,62,63,True,exp2.png,exp1.png,trial_left_image,1,exp2.png,2,exp1.png,exp2.png,0,2,non-reversed,incorrect,0.5160929889752867,0,valid_lose,466.82362430001376,37,,,,,,,,,,,,,,,,,,sub_266,2024-01-14_11h38.28.916,Reversal,2023.1.3,60.0356131208111,2,
3,exp3.png,exp4.png,,3,0,3,0,0,3,3,3,,,,,,,,,,,,,,,,,,,,,,,,,False,63,64,True,exp4.png,exp3.png,trial_right_image,-1,exp3.png,2,exp3.png,exp4.png,1,3,reversed,correct,0.6764339766706653,1,valid_win,470.7055723000085,38,,,,,,,,,,,,,,,,,,sub_266,2024-01-14_11h38.28.916,Reversal,2023.1.3,60.0356131208111,2,
4,exp1.png,exp2.png,,3,0,3,0,0,4,4,4,,,,,,,,,,,,,,,,,,,,,,,,,False,64,65,True,exp2.png,exp1.png,trial_right_image,-1,exp1.png,2,exp1.png,exp2.png,1,1,non-reversed,correct,0.2004760643421989,0,invalid_lose,474.60431470000185,38,,,,,,,,,,,,,,,,,,sub_266,2024-01-14_11h38.28.916,Reversal,2023.1.3,60.0356131208111,2,
5,exp3.png,exp4.png,,3,0,3,0,0,5,5,5,,,,,,,,,,,,,,,,,,,,,,,,,False,65,66,False,exp3.png,exp4.png,trial_left_image,1,exp3.png,2,exp3.png,exp4.png,1,3,reversed,correct,0.5457512985628765,1,valid_win,478.68657439999515,39,,,,,,,,,,,,,,,,,,sub_266,2024-01-14_11h38.28.916,Reversal,2023.1.3,60.0356131208111,2,
6,exp1.png,exp2.png,,3,0,3,0,0,6,6,6,,,,,,,,,,,,,,,,,,,,,,,,,False,66,67,False,exp1.png,exp2.png,trial_right_image,-1,exp2.png,2,exp1.png,exp2.png,0,2,non-reversed,incorrect,0.5908613212111445,0,valid_lose,482.63539860001765,39,,,,,,,,,,,,,,,,,,sub_266,2024-01-14_11h38.28.916,Reversal,2023.1.3,60.0356131208111,2,
7,exp3.png,exp4.png,,3,0,3,0,0,7,7,7,,,,,,,,,,,,,,,,,,,,,,,,,False,67,68,False,exp3.png,exp4.png,trial_left_image,1,exp3.png,2,exp3.png,exp4.png,1,3,reversed,correct,0.5897733573461328,1,valid_win,486.6835465999902,40,,,,,,,,,,,,,,,,,,sub_266,2024-01-14_11h38.28.916,Reversal,2023.1.3,60.0356131208111,2,
8,exp1.png,exp2.png,,3,0,3,0,0,8,8,8,,,,,,,,,,,,,,,,,,,,,,,,,False,68,69,True,exp2.png,exp1.png,trial_left_image,1,exp2.png,2,exp1.png,exp2.png,0,2,non-reversed,incorrect,0.7910521965745109,0,valid_lose,490.7656663999951,40,,,,,,,,,,,,,,,,,,sub_266,2024-01-14_11h38.28.916,Reversal,2023.1.3,60.0356131208111,2,
9,exp3.png,exp4.png,,3,0,3,0,0,9,9,9,,,,,,,,,,,,,,,,,,,,,,,,,False,69,70,True,exp4.png,exp3.png,trial_right_image,-1,exp3.png,2,exp3.png,exp4.png,1,3,reversed,correct,0.5095224624097574,1,valid_win,494.89743199999793,41,,,,,,,,,,,,,,,,,,sub_266,2024-01-14_11h38.28.916,Reversal,2023.1.3,60.0356131208111,2,
10,exp1.png,exp2.png,,3,0,3,0,0,10,10,10,,,,,,,,,,,,,,,,,,,,,,,,,False,70,71,False,exp1.png,exp2.png,trial_left_image,1,exp1.png,2,exp1.png,exp2.png,1,1,non-reversed,correct,0.2345411288234911,0,invalid_lose,501.3788659000129,41,,,,,,,,,,,,,,,,,,sub_266,2024-01-14_11h38.28.916,Reversal,2023.1.3,60.0356131208111,2,
11,exp3.png,exp4.png,,3,0,3,0,0,11,11,11,,,,,,,,,,,,,,,,,,,,,,,,,False,71,72,True,exp4.png,exp3.png,trial_right_image,-1,exp3.png,2,exp3.png,exp4.png,1,3,reversed,correct,0.996853196314382,1,valid_win,506.04432410001755,42,,,,,,,,,,,,,,,,,,sub_266,2024-01-14_11h38.28.916,Reversal,2023.1.3,60.0356131208111,2,
12,exp1.png,exp2.png,,3,0,3,0,0,12,12,12,,,,,,,,,,,,,,,,,,,,,,,,,False,72,73,True,exp2.png,exp1.png,trial_right_image,-1,exp1.png,2,exp1.png,exp2.png,1,1,non-reversed,correct,0.798437234072372,1,valid_win,509.84244999999646,43,,,,,,,,,,,,,,,,,,sub_266,2024-01-14_11h38.28.916,Reversal,2023.1.3,60.0356131208111,2,
13,exp3.png,exp4.png,,3,0,3,0,0,13,13,13,,,,,,,,,,,,,,,,,,,,,,,,,False,73,74,False,exp3.png,exp4.png,trial_left_image,1,exp3.png,2,exp3.png,exp4.png,1,3,reversed,correct,0.6702060894744535,1,valid_win,513.7910161000036,44,,,,,,,,,,,,,,,,,,sub_266,2024-01-14_11h38.28.916,Reversal,2023.1.3,60.0356131208111,2,
14,exp1.png,exp2.png,,3,0,3,0,0,14,14,14,,,,,,,,,,,,,,,,,,,,,,,,,False,74,75,False,exp1.png,exp2.png,trial_left_image,1,exp1.png,2,exp1.png,exp2.png,1,1,non-reversed,correct,0.6102710488137867,1,valid_win,517.9727280999941,45,,,,,,,,,,,,,,,,,,sub_266,2024-01-14_11h38.28.916,Reversal,2023.1.3,60.0356131208111,2,
15,exp3.png,exp4.png,,3,0,3,0,0,15,15,15,,,,,,,,,,,,,,,,,,,,,,,,,False,75,76,True,exp4.png,exp3.png,trial_right_image,-1,exp3.png,2,exp3.png,exp4.png,1,3,reversed,correct,0.12148460559542451,0,invalid_lose,522.3716832000064,45,,,,,,,,,,,,,,,,,,sub_266,2024-01-14_11h38.28.916,Reversal,2023.1.3,60.0356131208111,2,
16,exp1.png,exp2.png,,3,0,3,0,0,16,16,16,,,,,,,,,,,,,,,,,,,,,,,,,False,76,77,True,exp2.png,exp1.png,trial_left_image,1,exp2.png,2,exp1.png,exp2.png,0,2,non-reversed,incorrect,0.5689069235809213,0,valid_lose,526.3869271000149,45,,,,,,,,,,,,,,,,,,sub_266,2024-01-14_11h38.28.916,Reversal,2023.1.3,60.0356131208111,2,
17,exp3.png,exp4.png,,3,0,3,0,0,17,17,17,,,,,,,,,,,,,,,,,,,,,,,,,False,77,78,False,exp3.png,exp4.png,trial_left_image,1,exp3.png,2,exp3.png,exp4.png,1,3,reversed,correct,0.6720001156384311,1,valid_win,531.0185270000075,46,,,,,,,,,,,,,,,,,,sub_266,2024-01-14_11h38.28.916,Reversal,2023.1.3,60.0356131208111,2,
18,exp1.png,exp2.png,,3,0,3,0,0,18,18,18,,,,,,,,,,,,,,,,,,,,,,,,,False,78,79,False,exp1.png,exp2.png,trial_left_image,1,exp1.png,2,exp1.png,exp2.png,1,1,non-reversed,correct,0.5343000405637502,1,valid_win,534.9338378999964,47,,,,,,,,,,,,,,,,,,sub_266,2024-01-14_11h38.28.916,Reversal,2023.1.3,60.0356131208111,2,
19,exp3.png,exp4.png,,3,0,3,0,0,19,19,19,,,,,,,,,,,,,,,,,,,,,,,,,False,79,80,False,exp3.png,exp4.png,trial_right_image,-1,exp4.png,2,exp3.png,exp4.png,0,4,reversed,incorrect,0.32467234668358236,0,valid_lose,538.8325885999948,47,,,,,,,,,,,,,,,,,,sub_266,2024-01-14_11h38.28.916,Reversal,2023.1.3,60.0356131208111,2,
20,exp1.png,exp2.png,,3,0,3,0,0,20,20,20,,,,,,,,,,,,,,,,,,,,,,,,,True,,,,,,,,,,,,,,,,,,,,,,,,,,,,,,,,,,,,,,sub_266,2024-01-14_11h38.28.916,Reversal,2023.1.3,60.0356131208111,2,
,,,exp1.png,3,0,3,0,,,,,0,0,0,0,0,0,0,0,,,,,,,,,,,,,,,,,,,,,,,,,,,,,,,,,,,,,,649.2475169000099,,None,None,[],,,,,,,,,,,,,sub_266,2024-01-14_11h38.28.916,Reversal,2023.1.3,60.0356131208111,2,
,,,exp2.png,3,0,3,0,,,,,0,0,0,0,0,1,1,1,,,,,,,,,,,,,,,,,,,,,,,,,,,,,,,,,,,,,,651.3133361999935,,55.0,1.245808899984695,"[(55.0, 1.245808899984695)]",55.0,,,,,,,,,,,,sub_266,2024-01-14_11h38.28.916,Reversal,2023.1.3,60.0356131208111,2,
,,,exp3.png,3,0,3,0,,,,,0,0,0,0,0,2,2,2,,,,,,,,,,,,,,,,,,,,,,,,,,,,,,,,,,,,,,653.3937815999961,,56.0,0.8121272999851499,"[(56.0, 0.8121272999851499)]",,56.0,,,,,,,,,,,sub_266,2024-01-14_11h38.28.916,Reversal,2023.1.3,60.0356131208111,2,
,,,exp4.png,3,0,3,0,,,,,0,0,0,0,0,3,3,3,,,,,,,,,,,,,,,,,,,,,,,,,,,,,,,,,,,,,,655.011339299992,,None,None,[],,,,,,,,,,,,,sub_266,2024-01-14_11h38.28.916,Reversal,2023.1.3,60.0356131208111,2,
0,exp1.png,exp2.png,,,,,,,,,,,,,,,,,,0,0,0,0,0,0,0,0,,,,,,,,,False,0,81,True,exp2.png,exp1.png,trial_right_image,-1,exp1.png,2,exp1.png,exp2.png,1,1,non-reversed,correct,0.5847820621716959,1,valid_win,552.2949239000154,48,,,,,,,,548.1707691999909,,,,,,,,,,sub_266,2024-01-14_11h38.28.916,Reversal,2023.1.3,60.0356131208111,2,
1,exp3.png,exp4.png,,,,,,,,,,,,,,,,,,0,0,0,0,0,1,1,1,,,,,,,,,False,1,82,True,exp4.png,exp3.png,trial_right_image,-1,exp3.png,2,exp4.png,exp3.png,1,3,reversed,incorrect,0.28033191477187647,0,valid_lose,556.2433015000133,48,,,,,,,,,,,,,,,,,,sub_266,2024-01-14_11h38.28.916,Reversal,2023.1.3,60.0356131208111,2,
2,exp1.png,exp2.png,,,,,,,,,,,,,,,,,,0,0,0,0,0,2,2,2,,,,,,,,,False,2,83,True,exp2.png,exp1.png,trial_left_image,1,exp2.png,2,exp1.png,exp2.png,0,2,non-reversed,incorrect,0.5428812906565641,0,valid_lose,562.3580928000156,48,,,,,,,,,,,,,,,,,,sub_266,2024-01-14_11h38.28.916,Reversal,2023.1.3,60.0356131208111,2,
3,exp3.png,exp4.png,,,,,,,,,,,,,,,,,,0,0,0,0,0,3,3,3,,,,,,,,,False,3,84,False,exp3.png,exp4.png,trial_left_image,1,exp3.png,2,exp4.png,exp3.png,1,3,reversed,incorrect,0.23677461471880346,1,invalid_win,568.8389384000038,49,,,,,,,,,,,,,,,,,,sub_266,2024-01-14_11h38.28.916,Reversal,2023.1.3,60.0356131208111,2,
4,exp1.png,exp2.png,,,,,,,,,,,,,,,,,,0,0,0,0,0,4,4,4,,,,,,,,,False,4,85,True,exp2.png,exp1.png,trial_right_image,-1,exp1.png,2,exp1.png,exp2.png,1,1,non-reversed,correct,0.9577144621703315,1,valid_win,573.6873947000131,50,,,,,,,,,,,,,,,,,,sub_266,2024-01-14_11h38.28.916,Reversal,2023.1.3,60.0356131208111,2,
5,exp3.png,exp4.png,,,,,,,,,,,,,,,,,,0,0,0,0,0,5,5,5,,,,,,,,,False,5,86,False,exp3.png,exp4.png,trial_left_image,1,exp3.png,2,exp4.png,exp3.png,1,3,reversed,incorrect,0.8300972309832918,0,valid_lose,578.4028626999934,50,,,,,,,,,,,,,,,,,,sub_266,2024-01-14_11h38.28.916,Reversal,2023.1.3,60.0356131208111,2,
6,exp1.png,exp2.png,,,,,,,,,,,,,,,,,,0,0,0,0,0,6,6,6,,,,,,,,,False,6,87,False,exp1.png,exp2.png,trial_right_image,-1,exp2.png,2,exp1.png,exp2.png,0,2,non-reversed,incorrect,0.12112426442946012,1,invalid_win,582.9846908000181,51,,,,,,,,,,,,,,,,,,sub_266,2024-01-14_11h38.28.916,Reversal,2023.1.3,60.0356131208111,2,
7,exp3.png,exp4.png,,,,,,,,,,,,,,,,,,0,0,0,0,0,7,7,7,,,,,,,,,False,7,88,False,exp3.png,exp4.png,trial_right_image,-1,exp4.png,2,exp4.png,exp3.png,0,4,reversed,correct,0.23573445402965532,0,invalid_lose,586.8521660999977,51,,,,,,,,,,,,,,,,,,sub_266,2024-01-14_11h38.28.916,Reversal,2023.1.3,60.0356131208111,2,
8,exp1.png,exp2.png,,,,,,,,,,,,,,,,,,0,0,0,0,0,8,8,8,,,,,,,,,False,8,89,True,exp2.png,exp1.png,trial_left_image,1,exp2.png,2,exp1.png,exp2.png,0,2,non-reversed,incorrect,0.06306491207470633,1,invalid_win,591.9647569000081,52,,,,,,,,,,,,,,,,,,sub_266,2024-01-14_11h38.28.916,Reversal,2023.1.3,60.0356131208111,2,
9,exp3.png,exp4.png,,,,,,,,,,,,,,,,,,0,0,0,0,0,9,9,9,,,,,,,,,False,9,90,False,exp3.png,exp4.png,trial_left_image,1,exp3.png,2,exp4.png,exp3.png,1,3,reversed,incorrect,0.8870786135011838,0,valid_lose,595.8796650000149,52,,,,,,,,,,,,,,,,,,sub_266,2024-01-14_11h38.28.916,Reversal,2023.1.3,60.0356131208111,2,
10,exp1.png,exp2.png,,,,,,,,,,,,,,,,,,0,0,0,0,0,10,10,10,,,,,,,,,False,10,91,False,exp1.png,exp2.png,trial_left_image,1,exp1.png,2,exp1.png,exp2.png,1,1,non-reversed,correct,0.462283235010165,1,valid_win,600.911791999999,53,,,,,,,,,,,,,,,,,,sub_266,2024-01-14_11h38.28.916,Reversal,2023.1.3,60.0356131208111,2,
11,exp3.png,exp4.png,,,,,,,,,,,,,,,,,,0,0,0,0,0,11,11,11,,,,,,,,,False,11,92,True,exp4.png,exp3.png,trial_right_image,-1,exp3.png,2,exp4.png,exp3.png,1,3,reversed,incorrect,0.42137724748869565,0,valid_lose,604.7267210000136,53,,,,,,,,,,,,,,,,,,sub_266,2024-01-14_11h38.28.916,Reversal,2023.1.3,60.0356131208111,2,
12,exp1.png,exp2.png,,,,,,,,,,,,,,,,,,0,0,0,0,0,12,12,12,,,,,,,,,False,12,93,False,exp1.png,exp2.png,trial_left_image,1,exp1.png,2,exp1.png,exp2.png,1,1,non-reversed,correct,0.5364333224041129,1,valid_win,608.9591165000165,54,,,,,,,,,,,,,,,,,,sub_266,2024-01-14_11h38.28.916,Reversal,2023.1.3,60.0356131208111,2,
13,exp3.png,exp4.png,,,,,,,,,,,,,,,,,,0,0,0,0,0,13,13,13,,,,,,,,,False,13,94,False,exp3.png,exp4.png,trial_left_image,1,exp3.png,2,exp4.png,exp3.png,1,3,reversed,incorrect,0.01972736868731295,1,invalid_win,612.791185900016,55,,,,,,,,,,,,,,,,,,sub_266,2024-01-14_11h38.28.916,Reversal,2023.1.3,60.0356131208111,2,
14,exp1.png,exp2.png,,,,,,,,,,,,,,,,,,0,0,0,0,0,14,14,14,,,,,,,,,False,14,95,True,exp2.png,exp1.png,trial_right_image,-1,exp1.png,2,exp1.png,exp2.png,1,1,non-reversed,correct,0.577976083137783,1,valid_win,616.9812119000126,56,,,,,,,,,,,,,,,,,,sub_266,2024-01-14_11h38.28.916,Reversal,2023.1.3,60.0356131208111,2,
15,exp3.png,exp4.png,,,,,,,,,,,,,,,,,,0,0,0,0,0,15,15,15,,,,,,,,,False,15,96,True,exp4.png,exp3.png,trial_left_image,1,exp4.png,2,exp4.png,exp3.png,0,4,reversed,correct,0.20483015380463154,0,invalid_lose,623.0537867000094,56,,,,,,,,,,,,,,,,,,sub_266,2024-01-14_11h38.28.916,Reversal,2023.1.3,60.0356131208111,2,
16,exp1.png,exp2.png,,,,,,,,,,,,,,,,,,0,0,0,0,0,16,16,16,,,,,,,,,False,16,97,True,exp2.png,exp1.png,trial_left_image,1,exp2.png,2,exp1.png,exp2.png,0,2,non-reversed,incorrect,0.8679828285547735,0,valid_lose,627.5190681999957,56,,,,,,,,,,,,,,,,,,sub_266,2024-01-14_11h38.28.916,Reversal,2023.1.3,60.0356131208111,2,
17,exp3.png,exp4.png,,,,,,,,,,,,,,,,,,0,0,0,0,0,17,17,17,,,,,,,,,False,17,98,True,exp4.png,exp3.png,trial_left_image,1,exp4.png,2,exp4.png,exp3.png,0,4,reversed,correct,0.6816618919932783,1,valid_win,631.3519113000075,57,,,,,,,,,,,,,,,,,,sub_266,2024-01-14_11h38.28.916,Reversal,2023.1.3,60.0356131208111,2,
18,exp1.png,exp2.png,,,,,,,,,,,,,,,,,,0,0,0,0,0,18,18,18,,,,,,,,,False,18,99,False,exp1.png,exp2.png,trial_left_image,1,exp1.png,2,exp1.png,exp2.png,1,1,non-reversed,correct,0.06581211952626953,0,invalid_lose,635.533554499998,57,,,,,,,,,,,,,,,,,,sub_266,2024-01-14_11h38.28.916,Reversal,2023.1.3,60.0356131208111,2,
19,exp3.png,exp4.png,,,,,,,,,,,,,,,,,,0,0,0,0,0,19,19,19,,,,,,,,,False,19,100,False,exp3.png,exp4.png,trial_right_image,-1,exp4.png,2,exp4.png,exp3.png,0,4,reversed,correct,0.8154941021623343,1,valid_win,639.6985169000109,58,,,,,,,,,,,,,,,,,,sub_266,2024-01-14_11h38.28.916,Reversal,2023.1.3,60.0356131208111,2,
20,exp1.png,exp2.png,,,,,,,,,,,,,,,,,,0,0,0,0,0,20,20,20,,,,,,,,,True,,,,,,,,,,,,,,,,,,,,,,,,,,,,,,,,,,,,,,sub_266,2024-01-14_11h38.28.916,Reversal,2023.1.3,60.0356131208111,2,
,,,exp1.png,,,,,,,,,,,,,,,,,0,0,0,0,,,,,0,0,0,0,0,0,0,0,,,,,,,,,,,,,,,,,,,,,,750.1113376000139,,None,None,[],,,,,,,,,,,,,sub_266,2024-01-14_11h38.28.916,Reversal,2023.1.3,60.0356131208111,2,
,,,exp2.png,,,,,,,,,,,,,,,,,0,0,0,0,,,,,0,0,0,0,0,1,1,1,,,,,,,,,,,,,,,,,,,,,,751.5856645000167,,None,None,[],,,,,,,,,,,,,sub_266,2024-01-14_11h38.28.916,Reversal,2023.1.3,60.0356131208111,2,
,,,exp3.png,,,,,,,,,,,,,,,,,0,0,0,0,,,,,0,0,0,0,0,2,2,2,,,,,,,,,,,,,,,,,,,,,,751.9985517000023,,None,None,[],,,,,,,,,,,,,sub_266,2024-01-14_11h38.28.916,Reversal,2023.1.3,60.0356131208111,2,
,,,exp4.png,,,,,,,,,,,,,,,,,0,0,0,0,,,,,0,0,0,0,0,3,3,3,,,,,,,,,,,,,,,,,,,,,,752.3632797000173,,None,None,[],,,,,,,,,,,,,sub_266,2024-01-14_11h38.28.916,Reversal,2023.1.3,60.0356131208111,2,
0,exp1.png,exp2.png,,,,,,,,,,,,,,,,,,1,0,1,0,0,0,0,0,,,,,,,,,False,20,101,True,exp2.png,exp1.png,trial_right_image,-1,exp1.png,2,exp1.png,exp2.png,1,1,non-reversed,correct,0.4899006560686383,1,valid_win,647.0126219000085,59,,,,,,,,,,,,,,,,,,sub_266,2024-01-14_11h38.28.916,Reversal,2023.1.3,60.0356131208111,2,
1,exp3.png,exp4.png,,,,,,,,,,,,,,,,,,1,0,1,0,0,1,1,1,,,,,,,,,False,21,102,False,exp3.png,exp4.png,trial_left_image,1,exp3.png,2,exp4.png,exp3.png,1,3,reversed,incorrect,0.8575242986006165,0,valid_lose,650.8777245999954,59,,,,,,,,,,,,,,,,,,sub_266,2024-01-14_11h38.28.916,Reversal,2023.1.3,60.0356131208111,2,
2,exp1.png,exp2.png,,,,,,,,,,,,,,,,,,1,0,1,0,0,2,2,2,,,,,,,,,False,22,103,False,exp1.png,exp2.png,trial_left_image,1,exp1.png,2,exp1.png,exp2.png,1,1,non-reversed,correct,0.9659129084052837,1,valid_win,654.8432182999968,60,,,,,,,,,,,,,,,,,,sub_266,2024-01-14_11h38.28.916,Reversal,2023.1.3,60.0356131208111,2,
3,exp3.png,exp4.png,,,,,,,,,,,,,,,,,,1,0,1,0,0,3,3,3,,,,,,,,,False,23,104,False,exp3.png,exp4.png,trial_right_image,-1,exp4.png,2,exp4.png,exp3.png,0,4,reversed,correct,0.32986547047264303,1,valid_win,658.9752016999992,61,,,,,,,,,,,,,,,,,,sub_266,2024-01-14_11h38.28.916,Reversal,2023.1.3,60.0356131208111,2,
4,exp1.png,exp2.png,,,,,,,,,,,,,,,,,,1,0,1,0,0,4,4,4,,,,,,,,,False,24,105,False,exp1.png,exp2.png,trial_right_image,-1,exp2.png,2,exp1.png,exp2.png,0,2,non-reversed,incorrect,0.019436630526120102,1,invalid_win,663.7069676000101,62,,,,,,,,,,,,,,,,,,sub_266,2024-01-14_11h38.28.916,Reversal,2023.1.3,60.0356131208111,2,
5,exp3.png,exp4.png,,,,,,,,,,,,,,,,,,1,0,1,0,0,5,5,5,,,,,,,,,False,25,106,False,exp3.png,exp4.png,trial_left_image,1,exp3.png,2,exp4.png,exp3.png,1,3,reversed,incorrect,0.36354284144177595,0,valid_lose,667.6741877000022,62,,,,,,,,,,,,,,,,,,sub_266,2024-01-14_11h38.28.916,Reversal,2023.1.3,60.0356131208111,2,
6,exp1.png,exp2.png,,,,,,,,,,,,,,,,,,1,0,1,0,0,6,6,6,,,,,,,,,False,26,107,True,exp2.png,exp1.png,trial_left_image,1,exp2.png,2,exp1.png,exp2.png,0,2,non-reversed,incorrect,0.9662798964171536,0,valid_lose,671.5041443000082,62,,,,,,,,,,,,,,,,,,sub_266,2024-01-14_11h38.28.916,Reversal,2023.1.3,60.0356131208111,2,
7,exp3.png,exp4.png,,,,,,,,,,,,,,,,,,1,0,1,0,0,7,7,7,,,,,,,,,False,27,108,False,exp3.png,exp4.png,trial_left_image,1,exp3.png,2,exp4.png,exp3.png,1,3,reversed,incorrect,0.4506489887720829,0,valid_lose,675.2863645000034,62,,,,,,,,,,,,,,,,,,sub_266,2024-01-14_11h38.28.916,Reversal,2023.1.3,60.0356131208111,2,
8,exp1.png,exp2.png,,,,,,,,,,,,,,,,,,1,0,1,0,0,8,8,8,,,,,,,,,False,28,109,False,exp1.png,exp2.png,trial_right_image,-1,exp2.png,2,exp1.png,exp2.png,0,2,non-reversed,incorrect,0.9936286074528239,0,valid_lose,679.3518056000175,62,,,,,,,,,,,,,,,,,,sub_266,2024-01-14_11h38.28.916,Reversal,2023.1.3,60.0356131208111,2,
9,exp3.png,exp4.png,,,,,,,,,,,,,,,,,,1,0,1,0,0,9,9,9,,,,,,,,,False,29,110,True,exp4.png,exp3.png,trial_left_image,1,exp4.png,2,exp4.png,exp3.png,0,4,reversed,correct,0.20533118712028087,0,invalid_lose,683.3668574000185,62,,,,,,,,,,,,,,,,,,sub_266,2024-01-14_11h38.28.916,Reversal,2023.1.3,60.0356131208111,2,
10,exp1.png,exp2.png,,,,,,,,,,,,,,,,,,1,0,1,0,0,10,10,10,,,,,,,,,False,30,111,True,exp2.png,exp1.png,trial_left_image,1,exp2.png,2,exp1.png,exp2.png,0,2,non-reversed,incorrect,0.09510993130265233,1,invalid_win,687.6674917000055,63,,,,,,,,,,,,,,,,,,sub_266,2024-01-14_11h38.28.916,Reversal,2023.1.3,60.0356131208111,2,
11,exp3.png,exp4.png,,,,,,,,,,,,,,,,,,1,0,1,0,0,11,11,11,,,,,,,,,False,31,112,True,exp4.png,exp3.png,trial_right_image,-1,exp3.png,2,exp4.png,exp3.png,1,3,reversed,incorrect,0.39228671534331205,0,valid_lose,692.6637859999901,63,,,,,,,,,,,,,,,,,,sub_266,2024-01-14_11h38.28.916,Reversal,2023.1.3,60.0356131208111,2,
12,exp1.png,exp2.png,,,,,,,,,,,,,,,,,,1,0,1,0,0,12,12,12,,,,,,,,,False,32,113,False,exp1.png,exp2.png,trial_right_image,-1,exp2.png,2,exp1.png,exp2.png,0,2,non-reversed,incorrect,0.05204997108814757,1,invalid_win,696.5457623999973,64,,,,,,,,,,,,,,,,,,sub_266,2024-01-14_11h38.28.916,Reversal,2023.1.3,60.0356131208111,2,
13,exp3.png,exp4.png,,,,,,,,,,,,,,,,,,1,0,1,0,0,13,13,13,,,,,,,,,False,33,114,False,exp3.png,exp4.png,trial_right_image,-1,exp4.png,2,exp4.png,exp3.png,0,4,reversed,correct,0.6319292019648043,1,valid_win,701.9775672999967,65,,,,,,,,,,,,,,,,,,sub_266,2024-01-14_11h38.28.916,Reversal,2023.1.3,60.0356131208111,2,
14,exp1.png,exp2.png,,,,,,,,,,,,,,,,,,1,0,1,0,0,14,14,14,,,,,,,,,False,34,115,True,exp2.png,exp1.png,trial_right_image,-1,exp1.png,2,exp1.png,exp2.png,1,1,non-reversed,correct,0.3886858962811439,1,valid_win,705.926078199991,66,,,,,,,,,,,,,,,,,,sub_266,2024-01-14_11h38.28.916,Reversal,2023.1.3,60.0356131208111,2,
15,exp3.png,exp4.png,,,,,,,,,,,,,,,,,,1,0,1,0,0,15,15,15,,,,,,,,,False,35,116,True,exp4.png,exp3.png,trial_left_image,1,exp4.png,2,exp4.png,exp3.png,0,4,reversed,correct,0.1939619976975111,0,invalid_lose,710.8914132000064,66,,,,,,,,,,,,,,,,,,sub_266,2024-01-14_11h38.28.916,Reversal,2023.1.3,60.0356131208111,2,
16,exp1.png,exp2.png,,,,,,,,,,,,,,,,,,1,0,1,0,0,16,16,16,,,,,,,,,False,36,117,True,exp2.png,exp1.png,trial_right_image,-1,exp1.png,2,exp1.png,exp2.png,1,1,non-reversed,correct,0.6001494924242085,1,valid_win,714.7070487000165,67,,,,,,,,,,,,,,,,,,sub_266,2024-01-14_11h38.28.916,Reversal,2023.1.3,60.0356131208111,2,
17,exp3.png,exp4.png,,,,,,,,,,,,,,,,,,1,0,1,0,0,17,17,17,,,,,,,,,False,37,118,True,exp4.png,exp3.png,trial_right_image,-1,exp3.png,2,exp4.png,exp3.png,1,3,reversed,incorrect,0.7065018452982667,0,valid_lose,718.5561257000081,67,,,,,,,,,,,,,,,,,,sub_266,2024-01-14_11h38.28.916,Reversal,2023.1.3,60.0356131208111,2,
18,exp1.png,exp2.png,,,,,,,,,,,,,,,,,,1,0,1,0,0,18,18,18,,,,,,,,,False,38,119,False,exp1.png,exp2.png,trial_left_image,1,exp1.png,2,exp1.png,exp2.png,1,1,non-reversed,correct,0.8019910136606453,1,valid_win,722.6202152000042,68,,,,,,,,,,,,,,,,,,sub_266,2024-01-14_11h38.28.916,Reversal,2023.1.3,60.0356131208111,2,
19,exp3.png,exp4.png,,,,,,,,,,,,,,,,,,1,0,1,0,0,19,19,19,,,,,,,,,False,39,120,True,exp4.png,exp3.png,trial_left_image,1,exp4.png,2,exp4.png,exp3.png,0,4,reversed,correct,0.9731129537625401,1,valid_win,726.5018828000175,69,,,,,,,,,,,,,,,,,,sub_266,2024-01-14_11h38.28.916,Reversal,2023.1.3,60.0356131208111,2,
20,exp1.png,exp2.png,,,,,,,,,,,,,,,,,,1,0,1,0,0,20,20,20,,,,,,,,,True,,,,,,,,,,,,,,,,,,,,,,,,,,,,,,,,,,,,,,sub_266,2024-01-14_11h38.28.916,Reversal,2023.1.3,60.0356131208111,2,
,,,exp1.png,,,,,,,,,,,,,,,,,1,0,1,0,,,,,0,0,0,0,0,0,0,0,,,,,,,,,,,,,,,,,,,,,,836.9283496999997,63.0,63.0,2.3537601999996696,"[(63.0, 2.3537601999996696)]",,,,,,,,,,,,,sub_266,2024-01-14_11h38.28.916,Reversal,2023.1.3,60.0356131208111,2,
,,,exp2.png,,,,,,,,,,,,,,,,,1,0,1,0,,,,,0,0,0,0,0,1,1,1,,,,,,,,,,,,,,,,,,,,,,840.2322706000123,,63.0,1.3523706000123639,"[(63.0, 1.3523706000123639)]",63.0,,,,,,,,,,,,sub_266,2024-01-14_11h38.28.916,Reversal,2023.1.3,60.0356131208111,2,
,,,exp3.png,,,,,,,,,,,,,,,,,1,0,1,0,,,,,0,0,0,0,0,2,2,2,,,,,,,,,,,,,,,,,,,,,,842.4481545000162,,64.0,1.2601709000009578,"[(64.0, 1.2601709000009578)]",,64.0,,,,,,,,,,,sub_266,2024-01-14_11h38.28.916,Reversal,2023.1.3,60.0356131208111,2,
,,,exp4.png,,,,,,,,,,,,,,,,,1,0,1,0,,,,,0,0,0,0,0,3,3,3,,,,,,,,,,,,,,,,,,,,,,844.5988753999991,,61.0,1.7447772999876179,"[(61.0, 1.7447772999876179)]",,,,61.0,,,,,,,,,sub_266,2024-01-14_11h38.28.916,Reversal,2023.1.3,60.0356131208111,2,
0,exp1.png,exp2.png,,,,,,,,,,,,,,,,,,2,0,2,0,0,0,0,0,,,,,,,,,False,40,121,False,exp1.png,exp2.png,trial_left_image,1,exp1.png,2,exp1.png,exp2.png,1,1,non-reversed,correct,0.8411578403050938,1,valid_win,741.6643215999939,70,,,,,,,,,,,,,,,,,,sub_266,2024-01-14_11h38.28.916,Reversal,2023.1.3,60.0356131208111,2,
1,exp3.png,exp4.png,,,,,,,,,,,,,,,,,,2,0,2,0,0,1,1,1,,,,,,,,,False,41,122,False,exp3.png,exp4.png,trial_right_image,-1,exp4.png,2,exp4.png,exp3.png,0,4,reversed,correct,0.021445749416085902,0,invalid_lose,745.4626272000023,70,,,,,,,,,,,,,,,,,,sub_266,2024-01-14_11h38.28.916,Reversal,2023.1.3,60.0356131208111,2,
2,exp1.png,exp2.png,,,,,,,,,,,,,,,,,,2,0,2,0,0,2,2,2,,,,,,,,,False,42,123,True,exp2.png,exp1.png,trial_left_image,1,exp2.png,2,exp1.png,exp2.png,0,2,non-reversed,incorrect,0.9981831599814939,0,valid_lose,752.8766026000085,70,,,,,,,,,,,,,,,,,,sub_266,2024-01-14_11h38.28.916,Reversal,2023.1.3,60.0356131208111,2,
3,exp3.png,exp4.png,,,,,,,,,,,,,,,,,,2,0,2,0,0,3,3,3,,,,,,,,,False,43,124,False,exp3.png,exp4.png,trial_left_image,1,exp3.png,2,exp4.png,exp3.png,1,3,reversed,incorrect,0.44440277654995985,0,valid_lose,756.9921352000092,70,,,,,,,,,,,,,,,,,,sub_266,2024-01-14_11h38.28.916,Reversal,2023.1.3,60.0356131208111,2,
4,exp1.png,exp2.png,,,,,,,,,,,,,,,,,,2,0,2,0,0,4,4,4,,,,,,,,,False,44,125,True,exp2.png,exp1.png,trial_left_image,1,exp2.png,2,exp1.png,exp2.png,0,2,non-reversed,incorrect,0.1895546467048066,1,invalid_win,760.8404194000177,71,,,,,,,,,,,,,,,,,,sub_266,2024-01-14_11h38.28.916,Reversal,2023.1.3,60.0356131208111,2,
5,exp3.png,exp4.png,,,,,,,,,,,,,,,,,,2,0,2,0,0,5,5,5,,,,,,,,,False,45,126,True,exp4.png,exp3.png,trial_left_image,1,exp4.png,2,exp4.png,exp3.png,0,4,reversed,correct,0.817084021275869,1,valid_win,764.7067612000101,72,,,,,,,,,,,,,,,,,,sub_266,2024-01-14_11h38.28.916,Reversal,2023.1.3,60.0356131208111,2,
6,exp1.png,exp2.png,,,,,,,,,,,,,,,,,,2,0,2,0,0,6,6,6,,,,,,,,,False,46,127,False,exp1.png,exp2.png,trial_right_image,-1,exp2.png,2,exp1.png,exp2.png,0,2,non-reversed,incorrect,0.20756694334880388,1,invalid_win,768.6782242000045,73,,,,,,,,,,,,,,,,,,sub_266,2024-01-14_11h38.28.916,Reversal,2023.1.3,60.0356131208111,2,
7,exp3.png,exp4.png,,,,,,,,,,,,,,,,,,2,0,2,0,0,7,7,7,,,,,,,,,False,47,128,True,exp4.png,exp3.png,trial_right_image,-1,exp3.png,2,exp4.png,exp3.png,1,3,reversed,incorrect,0.7540881730284793,0,valid_lose,772.6530645000166,73,,,,,,,,,,,,,,,,,,sub_266,2024-01-14_11h38.28.916,Reversal,2023.1.3,60.0356131208111,2,
8,exp1.png,exp2.png,,,,,,,,,,,,,,,,,,2,0,2,0,0,8,8,8,,,,,,,,,False,48,129,False,exp1.png,exp2.png,trial_left_image,1,exp1.png,2,exp1.png,exp2.png,1,1,non-reversed,correct,0.3021432950373907,1,valid_win,777.2188891000114,74,,,,,,,,,,,,,,,,,,sub_266,2024-01-14_11h38.28.916,Reversal,2023.1.3,60.0356131208111,2,
9,exp3.png,exp4.png,,,,,,,,,,,,,,,,,,2,0,2,0,0,9,9,9,,,,,,,,,False,49,130,False,exp3.png,exp4.png,trial_left_image,1,exp3.png,2,exp4.png,exp3.png,1,3,reversed,incorrect,0.5634460326850033,0,valid_lose,781.1504195000161,74,,,,,,,,,,,,,,,,,,sub_266,2024-01-14_11h38.28.916,Reversal,2023.1.3,60.0356131208111,2,
10,exp1.png,exp2.png,,,,,,,,,,,,,,,,,,2,0,2,0,0,10,10,10,,,,,,,,,False,50,131,False,exp1.png,exp2.png,trial_right_image,-1,exp2.png,2,exp1.png,exp2.png,0,2,non-reversed,incorrect,0.023853845829716724,1,invalid_win,785.2491511999979,75,,,,,,,,,,,,,,,,,,sub_266,2024-01-14_11h38.28.916,Reversal,2023.1.3,60.0356131208111,2,
11,exp3.png,exp4.png,,,,,,,,,,,,,,,,,,2,0,2,0,0,11,11,11,,,,,,,,,False,51,132,True,exp4.png,exp3.png,trial_right_image,-1,exp3.png,2,exp4.png,exp3.png,1,3,reversed,incorrect,0.10546247699676559,1,invalid_win,792.1468443000049,76,,,,,,,,,,,,,,,,,,sub_266,2024-01-14_11h38.28.916,Reversal,2023.1.3,60.0356131208111,2,
12,exp1.png,exp2.png,,,,,,,,,,,,,,,,,,2,0,2,0,0,12,12,12,,,,,,,,,False,52,133,False,exp1.png,exp2.png,trial_left_image,1,exp1.png,2,exp1.png,exp2.png,1,1,non-reversed,correct,0.898603477605475,1,valid_win,802.1601608000055,77,,,,,,,,,,,,,,,,,,sub_266,2024-01-14_11h38.28.916,Reversal,2023.1.3,60.0356131208111,2,
13,exp3.png,exp4.png,,,,,,,,,,,,,,,,,,2,0,2,0,0,13,13,13,,,,,,,,,False,53,134,False,exp3.png,exp4.png,trial_left_image,1,exp3.png,2,exp4.png,exp3.png,1,3,reversed,incorrect,0.9074912389125577,0,valid_lose,807.0951027999981,77,,,,,,,,,,,,,,,,,,sub_266,2024-01-14_11h38.28.916,Reversal,2023.1.3,60.0356131208111,2,
14,exp1.png,exp2.png,,,,,,,,,,,,,,,,,,2,0,2,0,0,14,14,14,,,,,,,,,False,54,135,False,exp1.png,exp2.png,trial_right_image,-1,exp2.png,2,exp1.png,exp2.png,0,2,non-reversed,incorrect,0.09358275038558028,1,invalid_win,811.4414486000023,78,,,,,,,,,,,,,,,,,,sub_266,2024-01-14_11h38.28.916,Reversal,2023.1.3,60.0356131208111,2,
15,exp3.png,exp4.png,,,,,,,,,,,,,,,,,,2,0,2,0,0,15,15,15,,,,,,,,,False,55,136,True,exp4.png,exp3.png,trial_left_image,1,exp4.png,2,exp4.png,exp3.png,0,4,reversed,correct,0.6571285386906057,1,valid_win,815.505530399998,79,,,,,,,,,,,,,,,,,,sub_266,2024-01-14_11h38.28.916,Reversal,2023.1.3,60.0356131208111,2,
16,exp1.png,exp2.png,,,,,,,,,,,,,,,,,,2,0,2,0,0,16,16,16,,,,,,,,,False,56,137,True,exp2.png,exp1.png,trial_left_image,1,exp2.png,2,exp1.png,exp2.png,0,2,non-reversed,incorrect,0.18591419337289228,1,invalid_win,819.5208586000081,80,,,,,,,,,,,,,,,,,,sub_266,2024-01-14_11h38.28.916,Reversal,2023.1.3,60.0356131208111,2,
17,exp3.png,exp4.png,,,,,,,,,,,,,,,,,,2,0,2,0,0,17,17,17,,,,,,,,,False,57,138,True,exp4.png,exp3.png,trial_left_image,1,exp4.png,2,exp4.png,exp3.png,0,4,reversed,correct,0.3247612181212809,1,valid_win,822.8028196000087,81,,,,,,,,,,,,,,,,,,sub_266,2024-01-14_11h38.28.916,Reversal,2023.1.3,60.0356131208111,2,
18,exp1.png,exp2.png,,,,,,,,,,,,,,,,,,2,0,2,0,0,18,18,18,,,,,,,,,False,58,139,True,exp2.png,exp1.png,trial_right_image,-1,exp1.png,2,exp1.png,exp2.png,1,1,non-reversed,correct,0.7966439350134866,1,valid_win,826.8682931000076,82,,,,,,,,,,,,,,,,,,sub_266,2024-01-14_11h38.28.916,Reversal,2023.1.3,60.0356131208111,2,
19,exp3.png,exp4.png,,,,,,,,,,,,,,,,,,2,0,2,0,0,19,19,19,,,,,,,,,False,59,140,True,exp4.png,exp3.png,trial_left_image,1,exp4.png,2,exp4.png,exp3.png,0,4,reversed,correct,0.631630143140475,1,valid_win,832.1836387999938,83,,,,,,,,,,,,,,,,,,sub_266,2024-01-14_11h38.28.916,Reversal,2023.1.3,60.0356131208111,2,
20,exp1.png,exp2.png,,,,,,,,,,,,,,,,,,2,0,2,0,0,20,20,20,,,,,,,,,True,,,,,,,,,,,,,,,,,,,,,,,,,,,,,,,,,,,,,,sub_266,2024-01-14_11h38.28.916,Reversal,2023.1.3,60.0356131208111,2,
,,,exp1.png,,,,,,,,,,,,,,,,,2,0,2,0,,,,,0,0,0,0,0,0,0,0,,,,,,,,,,,,,,,,,,,,,,942.5994613000075,,None,None,[],,,,,,,,,,,,,sub_266,2024-01-14_11h38.28.916,Reversal,2023.1.3,60.0356131208111,2,
,,,exp2.png,,,,,,,,,,,,,,,,,2,0,2,0,,,,,0,0,0,0,0,1,1,1,,,,,,,,,,,,,,,,,,,,,,947.1096477000101,,38.0,0.4178855000063777,"[(38.0, 0.4178855000063777)]",38.0,,,,,,,,,,,,sub_266,2024-01-14_11h38.28.916,Reversal,2023.1.3,60.0356131208111,2,
,,,exp3.png,,,,,,,,,,,,,,,,,2,0,2,0,,,,,0,0,0,0,0,2,2,2,,,,,,,,,,,,,,,,,,,,,,953.0462754000037,,None,None,[],,,,,,,,,,,,,sub_266,2024-01-14_11h38.28.916,Reversal,2023.1.3,60.0356131208111,2,
,,,exp4.png,,,,,,,,,,,,,,,,,2,0,2,0,,,,,0,0,0,0,0,3,3,3,,,,,,,,,,,,,,,,,,,,,,953.9229524999973,,49.0,6.310174799989909,"[(49.0, 6.310174799989909)]",,,,49.0,,,,,,,,,sub_266,2024-01-14_11h38.28.916,Reversal,2023.1.3,60.0356131208111,2,
,,,,,,,,,,,,,,,,,,,,,,,,,,,,,,,,,,,,,,,,,,,,,,,,,,,,,,,,83,,,,,,,,,,80,51,29,306.0999273000052,1,space,12.715557199990144,None,sub_266,2024-01-14_11h38.28.916,Reversal,2023.1.3,60.0356131208111,2,
