trial_index,trial_image1_file,trial_image2_file,image_file,learning_outer_loop.thisRepN,learning_outer_loop.thisTrialN,learning_outer_loop.thisN,learning_outer_loop.thisIndex,learning_inner_loop.thisRepN,learning_inner_loop.thisTrialN,learning_inner_loop.thisN,learning_inner_loop.thisIndex,learning_estimation_outer_loop.thisRepN,learning_estimation_outer_loop.thisTrialN,learning_estimation_outer_loop.thisN,learning_estimation_outer_loop.thisIndex,learning_estimation_inner_loop.thisRepN,learning_estimation_inner_loop.thisTrialN,learning_estimation_inner_loop.thisN,learning_estimation_inner_loop.thisIndex,reversal_outer_loop.thisRepN,reversal_outer_loop.thisTrialN,reversal_outer_loop.thisN,reversal_outer_loop.thisIndex,reversal_inner_loop.thisRepN,reversal_inner_loop.thisTrialN,reversal_inner_loop.thisN,reversal_inner_loop.thisIndex,reversal_estimation_outer_loop.thisRepN,reversal_estimation_outer_loop.thisTrialN,reversal_estimation_outer_loop.thisN,reversal_estimation_outer_loop.thisIndex,reversal_estimation_inner_loop.thisRepN,reversal_estimation_inner_loop.thisTrialN,reversal_estimation_inner_loop.thisN,reversal_estimation_inner_loop.thisIndex,skipped,total_trial_counter,trial_num,left_right_flip,left_image_file,right_image_file,clicked_stimulus_side,side,clicked_stimulus,version,high_prob_image_file,low_prob_image_file,choice_a,choice_b,pair_type,correct,trial_feedback_random,reward,trial_type,overall_time_after_trial,score,estimation_exp1.png,estimation_rating.response,estimation_rating.rt,estimation_rating.history,estimation_rating.started,estimation_rating.stopped,estimation_exp2.png,estimation_exp3.png,estimation_exp4.png,total_learning_time,total_correct,learning_correct,reversal_correct,total_reversal_time,extra_block,end_experiment.keys,end_experiment.rt,participant,date,expName,psychopyVersion,frameRate,ver,
0,exp1.png,exp2.png,,0,0,0,0,0,0,0,0,,,,,,,,,,,,,,,,,,,,,,,,,False,0,1,True,exp2.png,exp1.png,trial_left_image,1,exp2.png,2,exp1.png,exp2.png,0,2,non-reversed,incorrect,0.4845762749053354,0,valid_lose,9.830763599999955,0,,,,,,,,,,,,,,,,,,sub_346,2023-05-11_10h52.48.152,Reversal,2022.1.1,60.11020605164582,2,
1,exp3.png,exp4.png,,0,0,0,0,0,1,1,1,,,,,,,,,,,,,,,,,,,,,,,,,False,1,2,True,exp4.png,exp3.png,trial_right_image,-1,exp3.png,2,exp3.png,exp4.png,1,3,reversed,correct,0.8108855906414902,1,valid_win,24.627124199999344,1,,,,,,,,,,,,,,,,,,sub_346,2023-05-11_10h52.48.152,Reversal,2022.1.1,60.11020605164582,2,
2,exp1.png,exp2.png,,0,0,0,0,0,2,2,2,,,,,,,,,,,,,,,,,,,,,,,,,False,2,3,False,exp1.png,exp2.png,trial_left_image,1,exp1.png,2,exp1.png,exp2.png,1,1,non-reversed,correct,0.2936034184585766,1,valid_win,38.25878919999923,2,,,,,,,,,,,,,,,,,,sub_346,2023-05-11_10h52.48.152,Reversal,2022.1.1,60.11020605164582,2,
3,exp3.png,exp4.png,,0,0,0,0,0,3,3,3,,,,,,,,,,,,,,,,,,,,,,,,,False,3,4,False,exp3.png,exp4.png,trial_left_image,1,exp3.png,2,exp3.png,exp4.png,1,3,reversed,correct,0.31529291454238506,1,valid_win,46.090871499999594,3,,,,,,,,,,,,,,,,,,sub_346,2023-05-11_10h52.48.152,Reversal,2022.1.1,60.11020605164582,2,
4,exp1.png,exp2.png,,0,0,0,0,0,4,4,4,,,,,,,,,,,,,,,,,,,,,,,,,False,4,5,True,exp2.png,exp1.png,trial_right_image,-1,exp1.png,2,exp1.png,exp2.png,1,1,non-reversed,correct,0.09578251564600959,0,invalid_lose,51.6741820999996,3,,,,,,,,,,,,,,,,,,sub_346,2023-05-11_10h52.48.152,Reversal,2022.1.1,60.11020605164582,2,
5,exp3.png,exp4.png,,0,0,0,0,0,5,5,5,,,,,,,,,,,,,,,,,,,,,,,,,False,5,6,True,exp4.png,exp3.png,trial_left_image,1,exp4.png,2,exp3.png,exp4.png,0,4,reversed,incorrect,0.9921807949984129,0,valid_lose,62.53887859999941,3,,,,,,,,,,,,,,,,,,sub_346,2023-05-11_10h52.48.152,Reversal,2022.1.1,60.11020605164582,2,
6,exp1.png,exp2.png,,0,0,0,0,0,6,6,6,,,,,,,,,,,,,,,,,,,,,,,,,False,6,7,False,exp1.png,exp2.png,trial_right_image,-1,exp2.png,2,exp1.png,exp2.png,0,2,non-reversed,incorrect,0.46022865981150995,0,valid_lose,67.4892461999998,3,,,,,,,,,,,,,,,,,,sub_346,2023-05-11_10h52.48.152,Reversal,2022.1.1,60.11020605164582,2,
7,exp3.png,exp4.png,,0,0,0,0,0,7,7,7,,,,,,,,,,,,,,,,,,,,,,,,,False,7,8,False,exp3.png,exp4.png,trial_left_image,1,exp3.png,2,exp3.png,exp4.png,1,3,reversed,correct,0.6572392288231179,1,valid_win,78.0774720999998,4,,,,,,,,,,,,,,,,,,sub_346,2023-05-11_10h52.48.152,Reversal,2022.1.1,60.11020605164582,2,
8,exp1.png,exp2.png,,0,0,0,0,0,8,8,8,,,,,,,,,,,,,,,,,,,,,,,,,False,8,9,False,exp1.png,exp2.png,trial_left_image,1,exp1.png,2,exp1.png,exp2.png,1,1,non-reversed,correct,0.20454701416988685,0,invalid_lose,84.78609939999933,4,,,,,,,,,,,,,,,,,,sub_346,2023-05-11_10h52.48.152,Reversal,2022.1.1,60.11020605164582,2,
9,exp3.png,exp4.png,,0,0,0,0,0,9,9,9,,,,,,,,,,,,,,,,,,,,,,,,,False,9,10,True,exp4.png,exp3.png,trial_right_image,-1,exp3.png,2,exp3.png,exp4.png,1,3,reversed,correct,0.6757954831232964,1,valid_win,89.85242509999989,5,,,,,,,,,,,,,,,,,,sub_346,2023-05-11_10h52.48.152,Reversal,2022.1.1,60.11020605164582,2,
10,exp1.png,exp2.png,,0,0,0,0,0,10,10,10,,,,,,,,,,,,,,,,,,,,,,,,,False,10,11,False,exp1.png,exp2.png,trial_right_image,-1,exp2.png,2,exp1.png,exp2.png,0,2,non-reversed,incorrect,0.1927616099429409,1,invalid_win,95.58412159999989,6,,,,,,,,,,,,,,,,,,sub_346,2023-05-11_10h52.48.152,Reversal,2022.1.1,60.11020605164582,2,
11,exp3.png,exp4.png,,0,0,0,0,0,11,11,11,,,,,,,,,,,,,,,,,,,,,,,,,False,11,12,True,exp4.png,exp3.png,trial_right_image,-1,exp3.png,2,exp3.png,exp4.png,1,3,reversed,correct,0.8182503789570522,1,valid_win,104.65017739999985,7,,,,,,,,,,,,,,,,,,sub_346,2023-05-11_10h52.48.152,Reversal,2022.1.1,60.11020605164582,2,
12,exp1.png,exp2.png,,0,0,0,0,0,12,12,12,,,,,,,,,,,,,,,,,,,,,,,,,False,12,13,False,exp1.png,exp2.png,trial_left_image,1,exp1.png,2,exp1.png,exp2.png,1,1,non-reversed,correct,0.4595782560412438,1,valid_win,109.85081499999978,8,,,,,,,,,,,,,,,,,,sub_346,2023-05-11_10h52.48.152,Reversal,2022.1.1,60.11020605164582,2,
13,exp3.png,exp4.png,,0,0,0,0,0,13,13,13,,,,,,,,,,,,,,,,,,,,,,,,,False,13,14,False,exp3.png,exp4.png,trial_left_image,1,exp3.png,2,exp3.png,exp4.png,1,3,reversed,correct,0.41618920310987906,1,valid_win,116.64901439999994,9,,,,,,,,,,,,,,,,,,sub_346,2023-05-11_10h52.48.152,Reversal,2022.1.1,60.11020605164582,2,
14,exp1.png,exp2.png,,0,0,0,0,0,14,14,14,,,,,,,,,,,,,,,,,,,,,,,,,False,14,15,True,exp2.png,exp1.png,trial_right_image,-1,exp1.png,2,exp1.png,exp2.png,1,1,non-reversed,correct,0.3688458122745357,1,valid_win,121.68096249999962,10,,,,,,,,,,,,,,,,,,sub_346,2023-05-11_10h52.48.152,Reversal,2022.1.1,60.11020605164582,2,
15,exp3.png,exp4.png,,0,0,0,0,0,15,15,15,,,,,,,,,,,,,,,,,,,,,,,,,False,15,16,True,exp4.png,exp3.png,trial_right_image,-1,exp3.png,2,exp3.png,exp4.png,1,3,reversed,correct,0.2588565796254154,1,valid_win,126.84753419999925,11,,,,,,,,,,,,,,,,,,sub_346,2023-05-11_10h52.48.152,Reversal,2022.1.1,60.11020605164582,2,
16,exp1.png,exp2.png,,0,0,0,0,0,16,16,16,,,,,,,,,,,,,,,,,,,,,,,,,False,16,17,True,exp2.png,exp1.png,trial_right_image,-1,exp1.png,2,exp1.png,exp2.png,1,1,non-reversed,correct,0.84011306484306,1,valid_win,132.31355489999987,12,,,,,,,,,,,,,,,,,,sub_346,2023-05-11_10h52.48.152,Reversal,2022.1.1,60.11020605164582,2,
17,exp3.png,exp4.png,,0,0,0,0,0,17,17,17,,,,,,,,,,,,,,,,,,,,,,,,,False,17,18,False,exp3.png,exp4.png,trial_right_image,-1,exp4.png,2,exp3.png,exp4.png,0,4,reversed,incorrect,0.9984156505051308,0,valid_lose,137.6124847000001,12,,,,,,,,,,,,,,,,,,sub_346,2023-05-11_10h52.48.152,Reversal,2022.1.1,60.11020605164582,2,
18,exp1.png,exp2.png,,0,0,0,0,0,18,18,18,,,,,,,,,,,,,,,,,,,,,,,,,False,18,19,False,exp1.png,exp2.png,trial_left_image,1,exp1.png,2,exp1.png,exp2.png,1,1,non-reversed,correct,0.5531251370752112,1,valid_win,142.97903439999936,13,,,,,,,,,,,,,,,,,,sub_346,2023-05-11_10h52.48.152,Reversal,2022.1.1,60.11020605164582,2,
19,exp3.png,exp4.png,,0,0,0,0,0,19,19,19,,,,,,,,,,,,,,,,,,,,,,,,,False,19,20,True,exp4.png,exp3.png,trial_left_image,1,exp4.png,2,exp3.png,exp4.png,0,4,reversed,incorrect,0.07893000542752004,1,invalid_win,149.5769008999996,14,,,,,,,,,,,,,,,,,,sub_346,2023-05-11_10h52.48.152,Reversal,2022.1.1,60.11020605164582,2,
20,exp1.png,exp2.png,,0,0,0,0,0,20,20,20,,,,,,,,,,,,,,,,,,,,,,,,,True,,,,,,,,,,,,,,,,,,,,,,,,,,,,,,,,,,,,,,sub_346,2023-05-11_10h52.48.152,Reversal,2022.1.1,60.11020605164582,2,
,,,exp1.png,0,0,0,0,,,,,0,0,0,0,0,0,0,0,,,,,,,,,,,,,,,,,,,,,,,,,,,,,,,,,,,,,,100.0,100.0,8.97938350000004,"[(100.0, 8.97938350000004)]",275.8840280000004,None,,,,,,,,,,,,sub_346,2023-05-11_10h52.48.152,Reversal,2022.1.1,60.11020605164582,2,
,,,exp2.png,0,0,0,0,,,,,0,0,0,0,0,1,1,1,,,,,,,,,,,,,,,,,,,,,,,,,,,,,,,,,,,,,,,87.0,4.110854900000049,"[(87.0, 4.110854900000049)]",286.3186432000002,None,87.0,,,,,,,,,,,sub_346,2023-05-11_10h52.48.152,Reversal,2022.1.1,60.11020605164582,2,
,,,exp3.png,0,0,0,0,,,,,0,0,0,0,0,2,2,2,,,,,,,,,,,,,,,,,,,,,,,,,,,,,,,,,,,,,,,1.0,2.157504699999663,"[(1.0, 2.157504699999663)]",292.02087440000014,None,,1.0,,,,,,,,,,sub_346,2023-05-11_10h52.48.152,Reversal,2022.1.1,60.11020605164582,2,
,,,exp4.png,0,0,0,0,,,,,0,0,0,0,0,3,3,3,,,,,,,,,,,,,,,,,,,,,,,,,,,,,,,,,,,,,,,95.0,3.708346800000072,"[(95.0, 3.708346800000072)]",295.3524352000004,None,,,95.0,,,,,,,,,sub_346,2023-05-11_10h52.48.152,Reversal,2022.1.1,60.11020605164582,2,
0,exp1.png,exp2.png,,1,0,1,0,0,0,0,0,,,,,,,,,,,,,,,,,,,,,,,,,False,20,21,True,exp2.png,exp1.png,trial_right_image,-1,exp1.png,2,exp1.png,exp2.png,1,1,non-reversed,correct,0.3011845491214341,1,valid_win,180.52452079999966,15,,,,,,,,,,,,,,,,,,sub_346,2023-05-11_10h52.48.152,Reversal,2022.1.1,60.11020605164582,2,
1,exp3.png,exp4.png,,1,0,1,0,0,1,1,1,,,,,,,,,,,,,,,,,,,,,,,,,False,21,22,True,exp4.png,exp3.png,trial_left_image,1,exp4.png,2,exp3.png,exp4.png,0,4,reversed,incorrect,0.6778431589926609,0,valid_lose,187.07347089999985,15,,,,,,,,,,,,,,,,,,sub_346,2023-05-11_10h52.48.152,Reversal,2022.1.1,60.11020605164582,2,
2,exp1.png,exp2.png,,1,0,1,0,0,2,2,2,,,,,,,,,,,,,,,,,,,,,,,,,False,22,23,True,exp2.png,exp1.png,trial_right_image,-1,exp1.png,2,exp1.png,exp2.png,1,1,non-reversed,correct,0.1448676441772031,0,invalid_lose,193.68832289999955,15,,,,,,,,,,,,,,,,,,sub_346,2023-05-11_10h52.48.152,Reversal,2022.1.1,60.11020605164582,2,
3,exp3.png,exp4.png,,1,0,1,0,0,3,3,3,,,,,,,,,,,,,,,,,,,,,,,,,False,23,24,False,exp3.png,exp4.png,trial_right_image,-1,exp4.png,2,exp3.png,exp4.png,0,4,reversed,incorrect,0.105444866009208,1,invalid_win,199.38778999999977,16,,,,,,,,,,,,,,,,,,sub_346,2023-05-11_10h52.48.152,Reversal,2022.1.1,60.11020605164582,2,
4,exp1.png,exp2.png,,1,0,1,0,0,4,4,4,,,,,,,,,,,,,,,,,,,,,,,,,False,24,25,True,exp2.png,exp1.png,trial_left_image,1,exp2.png,2,exp1.png,exp2.png,0,2,non-reversed,incorrect,0.9846336829015667,0,valid_lose,207.37064929999997,16,,,,,,,,,,,,,,,,,,sub_346,2023-05-11_10h52.48.152,Reversal,2022.1.1,60.11020605164582,2,
5,exp3.png,exp4.png,,1,0,1,0,0,5,5,5,,,,,,,,,,,,,,,,,,,,,,,,,False,25,26,True,exp4.png,exp3.png,trial_left_image,1,exp4.png,2,exp3.png,exp4.png,0,4,reversed,incorrect,0.7872461638660735,0,valid_lose,214.13650309999957,16,,,,,,,,,,,,,,,,,,sub_346,2023-05-11_10h52.48.152,Reversal,2022.1.1,60.11020605164582,2,
6,exp1.png,exp2.png,,1,0,1,0,0,6,6,6,,,,,,,,,,,,,,,,,,,,,,,,,False,26,27,False,exp1.png,exp2.png,trial_right_image,-1,exp2.png,2,exp1.png,exp2.png,0,2,non-reversed,incorrect,0.325547389309671,0,valid_lose,219.80239279999932,16,,,,,,,,,,,,,,,,,,sub_346,2023-05-11_10h52.48.152,Reversal,2022.1.1,60.11020605164582,2,
7,exp3.png,exp4.png,,1,0,1,0,0,7,7,7,,,,,,,,,,,,,,,,,,,,,,,,,False,27,28,True,exp4.png,exp3.png,trial_right_image,-1,exp3.png,2,exp3.png,exp4.png,1,3,reversed,correct,0.7223210405686487,1,valid_win,227.15057519999937,17,,,,,,,,,,,,,,,,,,sub_346,2023-05-11_10h52.48.152,Reversal,2022.1.1,60.11020605164582,2,
8,exp1.png,exp2.png,,1,0,1,0,0,8,8,8,,,,,,,,,,,,,,,,,,,,,,,,,False,28,29,False,exp1.png,exp2.png,trial_left_image,1,exp1.png,2,exp1.png,exp2.png,1,1,non-reversed,correct,0.10433600759093287,0,invalid_lose,234.4502623999997,17,,,,,,,,,,,,,,,,,,sub_346,2023-05-11_10h52.48.152,Reversal,2022.1.1,60.11020605164582,2,
9,exp3.png,exp4.png,,1,0,1,0,0,9,9,9,,,,,,,,,,,,,,,,,,,,,,,,,False,29,30,False,exp3.png,exp4.png,trial_right_image,-1,exp4.png,2,exp3.png,exp4.png,0,4,reversed,incorrect,0.699566899509626,0,valid_lose,241.0992766999998,17,,,,,,,,,,,,,,,,,,sub_346,2023-05-11_10h52.48.152,Reversal,2022.1.1,60.11020605164582,2,
10,exp1.png,exp2.png,,1,0,1,0,0,10,10,10,,,,,,,,,,,,,,,,,,,,,,,,,False,30,31,False,exp1.png,exp2.png,trial_right_image,-1,exp2.png,2,exp1.png,exp2.png,0,2,non-reversed,incorrect,0.5410311049785693,0,valid_lose,248.9316775999996,17,,,,,,,,,,,,,,,,,,sub_346,2023-05-11_10h52.48.152,Reversal,2022.1.1,60.11020605164582,2,
11,exp3.png,exp4.png,,1,0,1,0,0,11,11,11,,,,,,,,,,,,,,,,,,,,,,,,,False,31,32,False,exp3.png,exp4.png,trial_left_image,1,exp3.png,2,exp3.png,exp4.png,1,3,reversed,correct,0.022069576744879416,0,invalid_lose,254.05121959999997,17,,,,,,,,,,,,,,,,,,sub_346,2023-05-11_10h52.48.152,Reversal,2022.1.1,60.11020605164582,2,
12,exp1.png,exp2.png,,1,0,1,0,0,12,12,12,,,,,,,,,,,,,,,,,,,,,,,,,False,32,33,False,exp1.png,exp2.png,trial_right_image,-1,exp2.png,2,exp1.png,exp2.png,0,2,non-reversed,incorrect,0.7641998761745337,0,valid_lose,259.28126840000004,17,,,,,,,,,,,,,,,,,,sub_346,2023-05-11_10h52.48.152,Reversal,2022.1.1,60.11020605164582,2,
13,exp3.png,exp4.png,,1,0,1,0,0,13,13,13,,,,,,,,,,,,,,,,,,,,,,,,,False,33,34,False,exp3.png,exp4.png,trial_left_image,1,exp3.png,2,exp3.png,exp4.png,1,3,reversed,correct,0.015685433839764618,0,invalid_lose,268.0120436999996,17,,,,,,,,,,,,,,,,,,sub_346,2023-05-11_10h52.48.152,Reversal,2022.1.1,60.11020605164582,2,
14,exp1.png,exp2.png,,1,0,1,0,0,14,14,14,,,,,,,,,,,,,,,,,,,,,,,,,False,34,35,True,exp2.png,exp1.png,trial_right_image,-1,exp1.png,2,exp1.png,exp2.png,1,1,non-reversed,correct,0.18963498637652143,0,invalid_lose,273.09682879999946,17,,,,,,,,,,,,,,,,,,sub_346,2023-05-11_10h52.48.152,Reversal,2022.1.1,60.11020605164582,2,
15,exp3.png,exp4.png,,1,0,1,0,0,15,15,15,,,,,,,,,,,,,,,,,,,,,,,,,False,35,36,True,exp4.png,exp3.png,trial_right_image,-1,exp3.png,2,exp3.png,exp4.png,1,3,reversed,correct,0.33178111328015103,1,valid_win,278.3439927999998,18,,,,,,,,,,,,,,,,,,sub_346,2023-05-11_10h52.48.152,Reversal,2022.1.1,60.11020605164582,2,
16,exp1.png,exp2.png,,1,0,1,0,0,16,16,16,,,,,,,,,,,,,,,,,,,,,,,,,False,36,37,True,exp2.png,exp1.png,trial_right_image,-1,exp1.png,2,exp1.png,exp2.png,1,1,non-reversed,correct,0.8845438211570795,1,valid_win,290.0760898999997,19,,,,,,,,,,,,,,,,,,sub_346,2023-05-11_10h52.48.152,Reversal,2022.1.1,60.11020605164582,2,
17,exp3.png,exp4.png,,1,0,1,0,0,17,17,17,,,,,,,,,,,,,,,,,,,,,,,,,False,37,38,False,exp3.png,exp4.png,trial_right_image,-1,exp4.png,2,exp3.png,exp4.png,0,4,reversed,incorrect,0.18962299297595508,1,invalid_win,298.4084892000001,20,,,,,,,,,,,,,,,,,,sub_346,2023-05-11_10h52.48.152,Reversal,2022.1.1,60.11020605164582,2,
18,exp1.png,exp2.png,,1,0,1,0,0,18,18,18,,,,,,,,,,,,,,,,,,,,,,,,,False,38,39,False,exp1.png,exp2.png,trial_right_image,-1,exp2.png,2,exp1.png,exp2.png,0,2,non-reversed,incorrect,0.9779183435898574,0,valid_lose,303.40767629999937,20,,,,,,,,,,,,,,,,,,sub_346,2023-05-11_10h52.48.152,Reversal,2022.1.1,60.11020605164582,2,
19,exp3.png,exp4.png,,1,0,1,0,0,19,19,19,,,,,,,,,,,,,,,,,,,,,,,,,False,39,40,True,exp4.png,exp3.png,trial_left_image,1,exp4.png,2,exp3.png,exp4.png,0,4,reversed,incorrect,0.2504627988589423,0,valid_lose,310.2402382999999,20,,,,,,,,,,,,,,,,,,sub_346,2023-05-11_10h52.48.152,Reversal,2022.1.1,60.11020605164582,2,
20,exp1.png,exp2.png,,1,0,1,0,0,20,20,20,,,,,,,,,,,,,,,,,,,,,,,,,True,,,,,,,,,,,,,,,,,,,,,,,,,,,,,,,,,,,,,,sub_346,2023-05-11_10h52.48.152,Reversal,2022.1.1,60.11020605164582,2,
,,,exp1.png,1,0,1,0,,,,,0,0,0,0,0,0,0,0,,,,,,,,,,,,,,,,,,,,,,,,,,,,,,,,,,,,,,100.0,100.0,7.997741600000154,"[(100.0, 7.997741600000154)]",436.56648659999973,None,,,,,,,,,,,,sub_346,2023-05-11_10h52.48.152,Reversal,2022.1.1,60.11020605164582,2,
,,,exp2.png,1,0,1,0,,,,,0,0,0,0,0,1,1,1,,,,,,,,,,,,,,,,,,,,,,,,,,,,,,,,,,,,,,,50.0,None,[],445.95323160000044,None,,,,,,,,,,,,sub_346,2023-05-11_10h52.48.152,Reversal,2022.1.1,60.11020605164582,2,
,,,exp3.png,1,0,1,0,,,,,0,0,0,0,0,2,2,2,,,,,,,,,,,,,,,,,,,,,,,,,,,,,,,,,,,,,,,50.0,None,[],448.1827272999999,None,,,,,,,,,,,,sub_346,2023-05-11_10h52.48.152,Reversal,2022.1.1,60.11020605164582,2,
,,,exp4.png,1,0,1,0,,,,,0,0,0,0,0,3,3,3,,,,,,,,,,,,,,,,,,,,,,,,,,,,,,,,,,,,,,,62.0,4.127464799999871,"[(62.0, 4.127464799999871)]",449.7785719000003,None,,,62.0,,,,,,,,,sub_346,2023-05-11_10h52.48.152,Reversal,2022.1.1,60.11020605164582,2,
0,exp1.png,exp2.png,,2,0,2,0,0,0,0,0,,,,,,,,,,,,,,,,,,,,,,,,,False,40,41,False,exp1.png,exp2.png,trial_right_image,-1,exp2.png,2,exp1.png,exp2.png,0,2,non-reversed,incorrect,0.4339779743478288,0,valid_lose,337.76680119999946,20,,,,,,,,,,,,,,,,,,sub_346,2023-05-11_10h52.48.152,Reversal,2022.1.1,60.11020605164582,2,
1,exp3.png,exp4.png,,2,0,2,0,0,1,1,1,,,,,,,,,,,,,,,,,,,,,,,,,False,41,42,False,exp3.png,exp4.png,trial_left_image,1,exp3.png,2,exp3.png,exp4.png,1,3,reversed,correct,0.983845735455135,1,valid_win,345.0023523,21,,,,,,,,,,,,,,,,,,sub_346,2023-05-11_10h52.48.152,Reversal,2022.1.1,60.11020605164582,2,
2,exp1.png,exp2.png,,2,0,2,0,0,2,2,2,,,,,,,,,,,,,,,,,,,,,,,,,False,42,43,False,exp1.png,exp2.png,trial_left_image,1,exp1.png,2,exp1.png,exp2.png,1,1,non-reversed,correct,0.9679924968067636,1,valid_win,353.00848289999976,22,,,,,,,,,,,,,,,,,,sub_346,2023-05-11_10h52.48.152,Reversal,2022.1.1,60.11020605164582,2,
3,exp3.png,exp4.png,,2,0,2,0,0,3,3,3,,,,,,,,,,,,,,,,,,,,,,,,,False,43,44,True,exp4.png,exp3.png,trial_right_image,-1,exp3.png,2,exp3.png,exp4.png,1,3,reversed,correct,0.11457911980111313,0,invalid_lose,367.0490652999997,22,,,,,,,,,,,,,,,,,,sub_346,2023-05-11_10h52.48.152,Reversal,2022.1.1,60.11020605164582,2,
4,exp1.png,exp2.png,,2,0,2,0,0,4,4,4,,,,,,,,,,,,,,,,,,,,,,,,,False,44,45,False,exp1.png,exp2.png,trial_left_image,1,exp1.png,2,exp1.png,exp2.png,1,1,non-reversed,correct,0.12795992661207245,0,invalid_lose,374.4324031999995,22,,,,,,,,,,,,,,,,,,sub_346,2023-05-11_10h52.48.152,Reversal,2022.1.1,60.11020605164582,2,
5,exp3.png,exp4.png,,2,0,2,0,0,5,5,5,,,,,,,,,,,,,,,,,,,,,,,,,False,45,46,True,exp4.png,exp3.png,trial_left_image,1,exp4.png,2,exp3.png,exp4.png,0,4,reversed,incorrect,0.7317707052438935,0,valid_lose,378.91425209999943,22,,,,,,,,,,,,,,,,,,sub_346,2023-05-11_10h52.48.152,Reversal,2022.1.1,60.11020605164582,2,
6,exp1.png,exp2.png,,2,0,2,0,0,6,6,6,,,,,,,,,,,,,,,,,,,,,,,,,False,46,47,True,exp2.png,exp1.png,trial_right_image,-1,exp1.png,2,exp1.png,exp2.png,1,1,non-reversed,correct,0.6596212880029582,1,valid_win,383.83102039999994,23,,,,,,,,,,,,,,,,,,sub_346,2023-05-11_10h52.48.152,Reversal,2022.1.1,60.11020605164582,2,
7,exp3.png,exp4.png,,2,0,2,0,0,7,7,7,,,,,,,,,,,,,,,,,,,,,,,,,False,47,48,False,exp3.png,exp4.png,trial_right_image,-1,exp4.png,2,exp3.png,exp4.png,0,4,reversed,incorrect,0.5069111091718744,0,valid_lose,388.34647199999927,23,,,,,,,,,,,,,,,,,,sub_346,2023-05-11_10h52.48.152,Reversal,2022.1.1,60.11020605164582,2,
8,exp1.png,exp2.png,,2,0,2,0,0,8,8,8,,,,,,,,,,,,,,,,,,,,,,,,,False,48,49,True,exp2.png,exp1.png,trial_right_image,-1,exp1.png,2,exp1.png,exp2.png,1,1,non-reversed,correct,0.7728592827823968,1,valid_win,393.64667049999935,24,,,,,,,,,,,,,,,,,,sub_346,2023-05-11_10h52.48.152,Reversal,2022.1.1,60.11020605164582,2,
9,exp3.png,exp4.png,,2,0,2,0,0,9,9,9,,,,,,,,,,,,,,,,,,,,,,,,,False,49,50,False,exp3.png,exp4.png,trial_left_image,1,exp3.png,2,exp3.png,exp4.png,1,3,reversed,correct,0.6663951171544028,1,valid_win,397.45395310000004,25,,,,,,,,,,,,,,,,,,sub_346,2023-05-11_10h52.48.152,Reversal,2022.1.1,60.11020605164582,2,
10,exp1.png,exp2.png,,2,0,2,0,0,10,10,10,,,,,,,,,,,,,,,,,,,,,,,,,False,50,51,False,exp1.png,exp2.png,trial_right_image,-1,exp2.png,2,exp1.png,exp2.png,0,2,non-reversed,incorrect,0.5644396796499813,0,valid_lose,401.8949997999998,25,,,,,,,,,,,,,,,,,,sub_346,2023-05-11_10h52.48.152,Reversal,2022.1.1,60.11020605164582,2,
11,exp3.png,exp4.png,,2,0,2,0,0,11,11,11,,,,,,,,,,,,,,,,,,,,,,,,,False,51,52,True,exp4.png,exp3.png,trial_left_image,1,exp4.png,2,exp3.png,exp4.png,0,4,reversed,incorrect,0.5010449503579149,0,valid_lose,406.2113473999998,25,,,,,,,,,,,,,,,,,,sub_346,2023-05-11_10h52.48.152,Reversal,2022.1.1,60.11020605164582,2,
12,exp1.png,exp2.png,,2,0,2,0,0,12,12,12,,,,,,,,,,,,,,,,,,,,,,,,,False,52,53,False,exp1.png,exp2.png,trial_right_image,-1,exp2.png,2,exp1.png,exp2.png,0,2,non-reversed,incorrect,0.5014564458670706,0,valid_lose,410.39593719999993,25,,,,,,,,,,,,,,,,,,sub_346,2023-05-11_10h52.48.152,Reversal,2022.1.1,60.11020605164582,2,
13,exp3.png,exp4.png,,2,0,2,0,0,13,13,13,,,,,,,,,,,,,,,,,,,,,,,,,False,53,54,True,exp4.png,exp3.png,trial_right_image,-1,exp3.png,2,exp3.png,exp4.png,1,3,reversed,correct,0.40305898628869996,1,valid_win,414.8445382,26,,,,,,,,,,,,,,,,,,sub_346,2023-05-11_10h52.48.152,Reversal,2022.1.1,60.11020605164582,2,
14,exp1.png,exp2.png,,2,0,2,0,0,14,14,14,,,,,,,,,,,,,,,,,,,,,,,,,False,54,55,True,exp2.png,exp1.png,trial_right_image,-1,exp1.png,2,exp1.png,exp2.png,1,1,non-reversed,correct,0.7192074504567506,1,valid_win,419.27601759999925,27,,,,,,,,,,,,,,,,,,sub_346,2023-05-11_10h52.48.152,Reversal,2022.1.1,60.11020605164582,2,
15,exp3.png,exp4.png,,2,0,2,0,0,15,15,15,,,,,,,,,,,,,,,,,,,,,,,,,False,55,56,False,exp3.png,exp4.png,trial_right_image,-1,exp4.png,2,exp3.png,exp4.png,0,4,reversed,incorrect,0.7889837005773702,0,valid_lose,423.65890899999977,27,,,,,,,,,,,,,,,,,,sub_346,2023-05-11_10h52.48.152,Reversal,2022.1.1,60.11020605164582,2,
16,exp1.png,exp2.png,,2,0,2,0,0,16,16,16,,,,,,,,,,,,,,,,,,,,,,,,,False,56,57,True,exp2.png,exp1.png,trial_left_image,1,exp2.png,2,exp1.png,exp2.png,0,2,non-reversed,incorrect,0.8172739437927508,0,valid_lose,428.0084257999997,27,,,,,,,,,,,,,,,,,,sub_346,2023-05-11_10h52.48.152,Reversal,2022.1.1,60.11020605164582,2,
17,exp3.png,exp4.png,,2,0,2,0,0,17,17,17,,,,,,,,,,,,,,,,,,,,,,,,,False,57,58,False,exp3.png,exp4.png,trial_left_image,1,exp3.png,2,exp3.png,exp4.png,1,3,reversed,correct,0.5918523213763345,1,valid_win,433.5410839999995,28,,,,,,,,,,,,,,,,,,sub_346,2023-05-11_10h52.48.152,Reversal,2022.1.1,60.11020605164582,2,
18,exp1.png,exp2.png,,2,0,2,0,0,18,18,18,,,,,,,,,,,,,,,,,,,,,,,,,False,58,59,True,exp2.png,exp1.png,trial_right_image,-1,exp1.png,2,exp1.png,exp2.png,1,1,non-reversed,correct,0.5146500443809305,1,valid_win,440.1240966999994,29,,,,,,,,,,,,,,,,,,sub_346,2023-05-11_10h52.48.152,Reversal,2022.1.1,60.11020605164582,2,
19,exp3.png,exp4.png,,2,0,2,0,0,19,19,19,,,,,,,,,,,,,,,,,,,,,,,,,False,59,60,True,exp4.png,exp3.png,trial_right_image,-1,exp3.png,2,exp3.png,exp4.png,1,3,reversed,correct,0.6850725546153467,1,valid_win,444.35562949999985,30,,,,,,,,,,,,,,,,,,sub_346,2023-05-11_10h52.48.152,Reversal,2022.1.1,60.11020605164582,2,
20,exp1.png,exp2.png,,2,0,2,0,0,20,20,20,,,,,,,,,,,,,,,,,,,,,,,,,True,,,,,,,,,,,,,,,,,,,,,,,,,,,,,,,,,,,,,,sub_346,2023-05-11_10h52.48.152,Reversal,2022.1.1,60.11020605164582,2,
,,,exp1.png,2,0,2,0,,,,,0,0,0,0,0,0,0,0,,,,,,,,,,,,,,,,,,,,,,,,,,,,,,,,,,,,,,,50.0,None,[],570.6756347,None,,,,,,,,,,,,sub_346,2023-05-11_10h52.48.152,Reversal,2022.1.1,60.11020605164582,2,
,,,exp2.png,2,0,2,0,,,,,0,0,0,0,0,1,1,1,,,,,,,,,,,,,,,,,,,,,,,,,,,,,,,,,,,,,,,50.0,None,[],575.0396008999996,None,,,,,,,,,,,,sub_346,2023-05-11_10h52.48.152,Reversal,2022.1.1,60.11020605164582,2,
,,,exp3.png,2,0,2,0,,,,,0,0,0,0,0,2,2,2,,,,,,,,,,,,,,,,,,,,,,,,,,,,,,,,,,,,,,,34.0,0.787645700000212,"[(34.0, 0.787645700000212)]",577.0861377000001,None,,34.0,,,,,,,,,,sub_346,2023-05-11_10h52.48.152,Reversal,2022.1.1,60.11020605164582,2,
,,,exp4.png,2,0,2,0,,,,,0,0,0,0,0,3,3,3,,,,,,,,,,,,,,,,,,,,,,,,,,,,,,,,,,,,,,,95.0,1.3234853000003568,"[(95.0, 1.3234853000003568)]",579.7860473999999,None,,,95.0,,,,,,,,,sub_346,2023-05-11_10h52.48.152,Reversal,2022.1.1,60.11020605164582,2,
0,exp1.png,exp2.png,,3,0,3,0,0,0,0,0,,,,,,,,,,,,,,,,,,,,,,,,,False,60,61,False,exp1.png,exp2.png,trial_left_image,1,exp1.png,2,exp1.png,exp2.png,1,1,non-reversed,correct,0.5405929932132205,1,valid_win,461.10407419999956,31,,,,,,,,,,,,,,,,,,sub_346,2023-05-11_10h52.48.152,Reversal,2022.1.1,60.11020605164582,2,
1,exp3.png,exp4.png,,3,0,3,0,0,1,1,1,,,,,,,,,,,,,,,,,,,,,,,,,False,61,62,True,exp4.png,exp3.png,trial_left_image,1,exp4.png,2,exp3.png,exp4.png,0,4,reversed,incorrect,0.7677837895780499,0,valid_lose,466.21965099999943,31,,,,,,,,,,,,,,,,,,sub_346,2023-05-11_10h52.48.152,Reversal,2022.1.1,60.11020605164582,2,
2,exp1.png,exp2.png,,3,0,3,0,0,2,2,2,,,,,,,,,,,,,,,,,,,,,,,,,False,62,63,False,exp1.png,exp2.png,trial_right_image,-1,exp2.png,2,exp1.png,exp2.png,0,2,non-reversed,incorrect,0.4738075123444677,0,valid_lose,472.0200568,31,,,,,,,,,,,,,,,,,,sub_346,2023-05-11_10h52.48.152,Reversal,2022.1.1,60.11020605164582,2,
3,exp3.png,exp4.png,,3,0,3,0,0,3,3,3,,,,,,,,,,,,,,,,,,,,,,,,,False,63,64,True,exp4.png,exp3.png,trial_right_image,-1,exp3.png,2,exp3.png,exp4.png,1,3,reversed,correct,0.957961289360654,1,valid_win,476.4685222999997,32,,,,,,,,,,,,,,,,,,sub_346,2023-05-11_10h52.48.152,Reversal,2022.1.1,60.11020605164582,2,
4,exp1.png,exp2.png,,3,0,3,0,0,4,4,4,,,,,,,,,,,,,,,,,,,,,,,,,False,64,65,False,exp1.png,exp2.png,trial_left_image,1,exp1.png,2,exp1.png,exp2.png,1,1,non-reversed,correct,0.45422209192021124,1,valid_win,482.70119479999994,33,,,,,,,,,,,,,,,,,,sub_346,2023-05-11_10h52.48.152,Reversal,2022.1.1,60.11020605164582,2,
5,exp3.png,exp4.png,,3,0,3,0,0,5,5,5,,,,,,,,,,,,,,,,,,,,,,,,,False,65,66,False,exp3.png,exp4.png,trial_left_image,1,exp3.png,2,exp3.png,exp4.png,1,3,reversed,correct,0.7867399648411201,1,valid_win,487.15205849999984,34,,,,,,,,,,,,,,,,,,sub_346,2023-05-11_10h52.48.152,Reversal,2022.1.1,60.11020605164582,2,
6,exp1.png,exp2.png,,3,0,3,0,0,6,6,6,,,,,,,,,,,,,,,,,,,,,,,,,False,66,67,False,exp1.png,exp2.png,trial_left_image,1,exp1.png,2,exp1.png,exp2.png,1,1,non-reversed,correct,0.4077986878031016,1,valid_win,492.0170970999998,35,,,,,,,,,,,,,,,,,,sub_346,2023-05-11_10h52.48.152,Reversal,2022.1.1,60.11020605164582,2,
7,exp3.png,exp4.png,,3,0,3,0,0,7,7,7,,,,,,,,,,,,,,,,,,,,,,,,,False,67,68,False,exp3.png,exp4.png,trial_left_image,1,exp3.png,2,exp3.png,exp4.png,1,3,reversed,correct,0.7986894933670684,1,valid_win,496.71599069999957,36,,,,,,,,,,,,,,,,,,sub_346,2023-05-11_10h52.48.152,Reversal,2022.1.1,60.11020605164582,2,
8,exp1.png,exp2.png,,3,0,3,0,0,8,8,8,,,,,,,,,,,,,,,,,,,,,,,,,False,68,69,True,exp2.png,exp1.png,trial_left_image,1,exp2.png,2,exp1.png,exp2.png,0,2,non-reversed,incorrect,0.6408553012861606,0,valid_lose,501.56541259999995,36,,,,,,,,,,,,,,,,,,sub_346,2023-05-11_10h52.48.152,Reversal,2022.1.1,60.11020605164582,2,
9,exp3.png,exp4.png,,3,0,3,0,0,9,9,9,,,,,,,,,,,,,,,,,,,,,,,,,False,69,70,True,exp4.png,exp3.png,trial_right_image,-1,exp3.png,2,exp3.png,exp4.png,1,3,reversed,correct,0.2573304935152756,1,valid_win,508.74760499999957,37,,,,,,,,,,,,,,,,,,sub_346,2023-05-11_10h52.48.152,Reversal,2022.1.1,60.11020605164582,2,
10,exp1.png,exp2.png,,3,0,3,0,0,10,10,10,,,,,,,,,,,,,,,,,,,,,,,,,False,70,71,True,exp2.png,exp1.png,trial_right_image,-1,exp1.png,2,exp1.png,exp2.png,1,1,non-reversed,correct,0.7462232680057934,1,valid_win,513.1975518999998,38,,,,,,,,,,,,,,,,,,sub_346,2023-05-11_10h52.48.152,Reversal,2022.1.1,60.11020605164582,2,
11,exp3.png,exp4.png,,3,0,3,0,0,11,11,11,,,,,,,,,,,,,,,,,,,,,,,,,False,71,72,False,exp3.png,exp4.png,trial_right_image,-1,exp4.png,2,exp3.png,exp4.png,0,4,reversed,incorrect,0.6627638725356156,0,valid_lose,517.5976221999999,38,,,,,,,,,,,,,,,,,,sub_346,2023-05-11_10h52.48.152,Reversal,2022.1.1,60.11020605164582,2,
12,exp1.png,exp2.png,,3,0,3,0,0,12,12,12,,,,,,,,,,,,,,,,,,,,,,,,,False,72,73,True,exp2.png,exp1.png,trial_left_image,1,exp2.png,2,exp1.png,exp2.png,0,2,non-reversed,incorrect,0.4154463688339609,0,valid_lose,523.0294466999994,38,,,,,,,,,,,,,,,,,,sub_346,2023-05-11_10h52.48.152,Reversal,2022.1.1,60.11020605164582,2,
13,exp3.png,exp4.png,,3,0,3,0,0,13,13,13,,,,,,,,,,,,,,,,,,,,,,,,,False,73,74,False,exp3.png,exp4.png,trial_right_image,-1,exp4.png,2,exp3.png,exp4.png,0,4,reversed,incorrect,0.8592950958051462,0,valid_lose,527.1623319999999,38,,,,,,,,,,,,,,,,,,sub_346,2023-05-11_10h52.48.152,Reversal,2022.1.1,60.11020605164582,2,
14,exp1.png,exp2.png,,3,0,3,0,0,14,14,14,,,,,,,,,,,,,,,,,,,,,,,,,False,74,75,True,exp2.png,exp1.png,trial_left_image,1,exp2.png,2,exp1.png,exp2.png,0,2,non-reversed,incorrect,0.7409713186339788,0,valid_lose,531.5949442000001,38,,,,,,,,,,,,,,,,,,sub_346,2023-05-11_10h52.48.152,Reversal,2022.1.1,60.11020605164582,2,
15,exp3.png,exp4.png,,3,0,3,0,0,15,15,15,,,,,,,,,,,,,,,,,,,,,,,,,False,75,76,True,exp4.png,exp3.png,trial_right_image,-1,exp3.png,2,exp3.png,exp4.png,1,3,reversed,correct,0.5813450478365221,1,valid_win,535.7604363,39,,,,,,,,,,,,,,,,,,sub_346,2023-05-11_10h52.48.152,Reversal,2022.1.1,60.11020605164582,2,
16,exp1.png,exp2.png,,3,0,3,0,0,16,16,16,,,,,,,,,,,,,,,,,,,,,,,,,False,76,77,False,exp1.png,exp2.png,trial_right_image,-1,exp2.png,2,exp1.png,exp2.png,0,2,non-reversed,incorrect,0.45766719616809926,0,valid_lose,539.9948369999993,39,,,,,,,,,,,,,,,,,,sub_346,2023-05-11_10h52.48.152,Reversal,2022.1.1,60.11020605164582,2,
17,exp3.png,exp4.png,,3,0,3,0,0,17,17,17,,,,,,,,,,,,,,,,,,,,,,,,,False,77,78,False,exp3.png,exp4.png,trial_right_image,-1,exp4.png,2,exp3.png,exp4.png,0,4,reversed,incorrect,0.07943388577682109,1,invalid_win,544.1433766999999,40,,,,,,,,,,,,,,,,,,sub_346,2023-05-11_10h52.48.152,Reversal,2022.1.1,60.11020605164582,2,
18,exp1.png,exp2.png,,3,0,3,0,0,18,18,18,,,,,,,,,,,,,,,,,,,,,,,,,False,78,79,True,exp2.png,exp1.png,trial_right_image,-1,exp1.png,2,exp1.png,exp2.png,1,1,non-reversed,correct,0.12176199116094022,0,invalid_lose,550.0422781999996,40,,,,,,,,,,,,,,,,,,sub_346,2023-05-11_10h52.48.152,Reversal,2022.1.1,60.11020605164582,2,
19,exp3.png,exp4.png,,3,0,3,0,0,19,19,19,,,,,,,,,,,,,,,,,,,,,,,,,False,79,80,True,exp4.png,exp3.png,trial_left_image,1,exp4.png,2,exp3.png,exp4.png,0,4,reversed,incorrect,0.003430131684893034,1,invalid_win,571.1578552000001,41,,,,,,,,,,,,,,,,,,sub_346,2023-05-11_10h52.48.152,Reversal,2022.1.1,60.11020605164582,2,
20,exp1.png,exp2.png,,3,0,3,0,0,20,20,20,,,,,,,,,,,,,,,,,,,,,,,,,True,,,,,,,,,,,,,,,,,,,,,,,,,,,,,,,,,,,,,,sub_346,2023-05-11_10h52.48.152,Reversal,2022.1.1,60.11020605164582,2,
,,,exp1.png,3,0,3,0,,,,,0,0,0,0,0,0,0,0,,,,,,,,,,,,,,,,,,,,,,,,,,,,,,,,,,,,,,88.0,88.0,2.1945739000002504,"[(88.0, 2.1945739000002504)]",697.5118259000001,None,,,,,,,,,,,,sub_346,2023-05-11_10h52.48.152,Reversal,2022.1.1,60.11020605164582,2,
,,,exp2.png,3,0,3,0,,,,,0,0,0,0,0,1,1,1,,,,,,,,,,,,,,,,,,,,,,,,,,,,,,,,,,,,,,,100.0,2.0126031999998304,"[(100.0, 2.0126031999998304)]",700.8976418000002,None,100.0,,,,,,,,,,,sub_346,2023-05-11_10h52.48.152,Reversal,2022.1.1,60.11020605164582,2,
,,,exp3.png,3,0,3,0,,,,,0,0,0,0,0,2,2,2,,,,,,,,,,,,,,,,,,,,,,,,,,,,,,,,,,,,,,,50.0,None,[],708.2942455000002,None,,,,,,,,,,,,sub_346,2023-05-11_10h52.48.152,Reversal,2022.1.1,60.11020605164582,2,
,,,exp4.png,3,0,3,0,,,,,0,0,0,0,0,3,3,3,,,,,,,,,,,,,,,,,,,,,,,,,,,,,,,,,,,,,,,100.0,2.4745874000000185,"[(100.0, 2.4745874000000185)]",715.7998893000004,None,,,100.0,,,,,,,,,sub_346,2023-05-11_10h52.48.152,Reversal,2022.1.1,60.11020605164582,2,
0,exp1.png,exp2.png,,,,,,,,,,,,,,,,,,0,0,0,0,0,0,0,0,,,,,,,,,False,0,81,False,exp1.png,exp2.png,trial_left_image,1,exp1.png,2,exp1.png,exp2.png,1,1,non-reversed,correct,0.5948114668062183,1,valid_win,599.4373787999994,42,,,,,,,,,,596.4057488999997,,,,,,,,sub_346,2023-05-11_10h52.48.152,Reversal,2022.1.1,60.11020605164582,2,
1,exp3.png,exp4.png,,,,,,,,,,,,,,,,,,0,0,0,0,0,1,1,1,,,,,,,,,False,1,82,False,exp3.png,exp4.png,trial_left_image,1,exp3.png,2,exp4.png,exp3.png,1,3,reversed,incorrect,0.936043632601616,0,valid_lose,603.8382819999997,42,,,,,,,,,,,,,,,,,,sub_346,2023-05-11_10h52.48.152,Reversal,2022.1.1,60.11020605164582,2,
2,exp1.png,exp2.png,,,,,,,,,,,,,,,,,,0,0,0,0,0,2,2,2,,,,,,,,,False,2,83,False,exp1.png,exp2.png,trial_right_image,-1,exp2.png,2,exp1.png,exp2.png,0,2,non-reversed,incorrect,0.4597470322878444,0,valid_lose,608.4035418999993,42,,,,,,,,,,,,,,,,,,sub_346,2023-05-11_10h52.48.152,Reversal,2022.1.1,60.11020605164582,2,
3,exp3.png,exp4.png,,,,,,,,,,,,,,,,,,0,0,0,0,0,3,3,3,,,,,,,,,False,3,84,True,exp4.png,exp3.png,trial_left_image,1,exp4.png,2,exp4.png,exp3.png,0,4,reversed,correct,0.0013860252141510987,0,invalid_lose,612.5527466999993,42,,,,,,,,,,,,,,,,,,sub_346,2023-05-11_10h52.48.152,Reversal,2022.1.1,60.11020605164582,2,
4,exp1.png,exp2.png,,,,,,,,,,,,,,,,,,0,0,0,0,0,4,4,4,,,,,,,,,False,4,85,True,exp2.png,exp1.png,trial_right_image,-1,exp1.png,2,exp1.png,exp2.png,1,1,non-reversed,correct,0.770990606883336,1,valid_win,617.019714,43,,,,,,,,,,,,,,,,,,sub_346,2023-05-11_10h52.48.152,Reversal,2022.1.1,60.11020605164582,2,
5,exp3.png,exp4.png,,,,,,,,,,,,,,,,,,0,0,0,0,0,5,5,5,,,,,,,,,False,5,86,True,exp4.png,exp3.png,trial_right_image,-1,exp3.png,2,exp4.png,exp3.png,1,3,reversed,incorrect,0.7044058267318741,0,valid_lose,627.2010628999997,43,,,,,,,,,,,,,,,,,,sub_346,2023-05-11_10h52.48.152,Reversal,2022.1.1,60.11020605164582,2,
6,exp1.png,exp2.png,,,,,,,,,,,,,,,,,,0,0,0,0,0,6,6,6,,,,,,,,,False,6,87,False,exp1.png,exp2.png,trial_left_image,1,exp1.png,2,exp1.png,exp2.png,1,1,non-reversed,correct,0.8695422313730918,1,valid_win,632.1196323999993,44,,,,,,,,,,,,,,,,,,sub_346,2023-05-11_10h52.48.152,Reversal,2022.1.1,60.11020605164582,2,
7,exp3.png,exp4.png,,,,,,,,,,,,,,,,,,0,0,0,0,0,7,7,7,,,,,,,,,False,7,88,True,exp4.png,exp3.png,trial_right_image,-1,exp3.png,2,exp4.png,exp3.png,1,3,reversed,incorrect,0.8394209547851822,0,valid_lose,636.4345288999993,44,,,,,,,,,,,,,,,,,,sub_346,2023-05-11_10h52.48.152,Reversal,2022.1.1,60.11020605164582,2,
8,exp1.png,exp2.png,,,,,,,,,,,,,,,,,,0,0,0,0,0,8,8,8,,,,,,,,,False,8,89,False,exp1.png,exp2.png,trial_left_image,1,exp1.png,2,exp1.png,exp2.png,1,1,non-reversed,correct,0.8251599138367759,1,valid_win,640.7323281999998,45,,,,,,,,,,,,,,,,,,sub_346,2023-05-11_10h52.48.152,Reversal,2022.1.1,60.11020605164582,2,
9,exp3.png,exp4.png,,,,,,,,,,,,,,,,,,0,0,0,0,0,9,9,9,,,,,,,,,False,9,90,False,exp3.png,exp4.png,trial_right_image,-1,exp4.png,2,exp4.png,exp3.png,0,4,reversed,correct,0.7776953552106943,1,valid_win,646.1167097999996,46,,,,,,,,,,,,,,,,,,sub_346,2023-05-11_10h52.48.152,Reversal,2022.1.1,60.11020605164582,2,
10,exp1.png,exp2.png,,,,,,,,,,,,,,,,,,0,0,0,0,0,10,10,10,,,,,,,,,False,10,91,False,exp1.png,exp2.png,trial_right_image,-1,exp2.png,2,exp1.png,exp2.png,0,2,non-reversed,incorrect,0.49480852986633095,0,valid_lose,650.3977979000001,46,,,,,,,,,,,,,,,,,,sub_346,2023-05-11_10h52.48.152,Reversal,2022.1.1,60.11020605164582,2,
11,exp3.png,exp4.png,,,,,,,,,,,,,,,,,,0,0,0,0,0,11,11,11,,,,,,,,,False,11,92,True,exp4.png,exp3.png,trial_right_image,-1,exp3.png,2,exp4.png,exp3.png,1,3,reversed,incorrect,0.7125703883891941,0,valid_lose,654.6145084,46,,,,,,,,,,,,,,,,,,sub_346,2023-05-11_10h52.48.152,Reversal,2022.1.1,60.11020605164582,2,
12,exp1.png,exp2.png,,,,,,,,,,,,,,,,,,0,0,0,0,0,12,12,12,,,,,,,,,False,12,93,True,exp2.png,exp1.png,trial_left_image,1,exp2.png,2,exp1.png,exp2.png,0,2,non-reversed,incorrect,0.48412828310442013,0,valid_lose,658.8475388999996,46,,,,,,,,,,,,,,,,,,sub_346,2023-05-11_10h52.48.152,Reversal,2022.1.1,60.11020605164582,2,
13,exp3.png,exp4.png,,,,,,,,,,,,,,,,,,0,0,0,0,0,13,13,13,,,,,,,,,False,13,94,True,exp4.png,exp3.png,trial_right_image,-1,exp3.png,2,exp4.png,exp3.png,1,3,reversed,incorrect,0.3444619591128202,0,valid_lose,663.1968002999993,46,,,,,,,,,,,,,,,,,,sub_346,2023-05-11_10h52.48.152,Reversal,2022.1.1,60.11020605164582,2,
14,exp1.png,exp2.png,,,,,,,,,,,,,,,,,,0,0,0,0,0,14,14,14,,,,,,,,,False,14,95,False,exp1.png,exp2.png,trial_left_image,1,exp1.png,2,exp1.png,exp2.png,1,1,non-reversed,correct,0.4976266844539684,1,valid_win,667.5475595999997,47,,,,,,,,,,,,,,,,,,sub_346,2023-05-11_10h52.48.152,Reversal,2022.1.1,60.11020605164582,2,
15,exp3.png,exp4.png,,,,,,,,,,,,,,,,,,0,0,0,0,0,15,15,15,,,,,,,,,False,15,96,True,exp4.png,exp3.png,trial_right_image,-1,exp3.png,2,exp4.png,exp3.png,1,3,reversed,incorrect,0.6564585708288224,0,valid_lose,678.6273501999995,47,,,,,,,,,,,,,,,,,,sub_346,2023-05-11_10h52.48.152,Reversal,2022.1.1,60.11020605164582,2,
16,exp1.png,exp2.png,,,,,,,,,,,,,,,,,,0,0,0,0,0,16,16,16,,,,,,,,,False,16,97,False,exp1.png,exp2.png,trial_right_image,-1,exp2.png,2,exp1.png,exp2.png,0,2,non-reversed,incorrect,0.8949112110717986,0,valid_lose,682.8768387,47,,,,,,,,,,,,,,,,,,sub_346,2023-05-11_10h52.48.152,Reversal,2022.1.1,60.11020605164582,2,
17,exp3.png,exp4.png,,,,,,,,,,,,,,,,,,0,0,0,0,0,17,17,17,,,,,,,,,False,17,98,True,exp4.png,exp3.png,trial_left_image,1,exp4.png,2,exp4.png,exp3.png,0,4,reversed,correct,0.9632314211668521,1,valid_win,687.5432244999993,48,,,,,,,,,,,,,,,,,,sub_346,2023-05-11_10h52.48.152,Reversal,2022.1.1,60.11020605164582,2,
18,exp1.png,exp2.png,,,,,,,,,,,,,,,,,,0,0,0,0,0,18,18,18,,,,,,,,,False,18,99,False,exp1.png,exp2.png,trial_right_image,-1,exp2.png,2,exp1.png,exp2.png,0,2,non-reversed,incorrect,0.673715762480187,0,valid_lose,699.2923242999996,48,,,,,,,,,,,,,,,,,,sub_346,2023-05-11_10h52.48.152,Reversal,2022.1.1,60.11020605164582,2,
19,exp3.png,exp4.png,,,,,,,,,,,,,,,,,,0,0,0,0,0,19,19,19,,,,,,,,,False,19,100,True,exp4.png,exp3.png,trial_left_image,1,exp4.png,2,exp4.png,exp3.png,0,4,reversed,correct,0.7526847216814856,1,valid_win,703.6246504000001,49,,,,,,,,,,,,,,,,,,sub_346,2023-05-11_10h52.48.152,Reversal,2022.1.1,60.11020605164582,2,
20,exp1.png,exp2.png,,,,,,,,,,,,,,,,,,0,0,0,0,0,20,20,20,,,,,,,,,True,,,,,,,,,,,,,,,,,,,,,,,,,,,,,,,,,,,,,,sub_346,2023-05-11_10h52.48.152,Reversal,2022.1.1,60.11020605164582,2,
,,,exp1.png,,,,,,,,,,,,,,,,,0,0,0,0,,,,,0,0,0,0,0,0,0,0,,,,,,,,,,,,,,,,,,,,,,86.0,86.0,2.2558146999999735,"[(86.0, 2.2558146999999735)]",829.9462514999996,None,,,,,,,,,,,,sub_346,2023-05-11_10h52.48.152,Reversal,2022.1.1,60.11020605164582,2,
,,,exp2.png,,,,,,,,,,,,,,,,,0,0,0,0,,,,,0,0,0,0,0,1,1,1,,,,,,,,,,,,,,,,,,,,,,,83.0,1.1580450999999812,"[(83.0, 1.1580450999999812)]",833.4352079,None,83.0,,,,,,,,,,,sub_346,2023-05-11_10h52.48.152,Reversal,2022.1.1,60.11020605164582,2,
,,,exp3.png,,,,,,,,,,,,,,,,,0,0,0,0,,,,,0,0,0,0,0,2,2,2,,,,,,,,,,,,,,,,,,,,,,,50.0,None,[],835.2703266999997,None,,,,,,,,,,,,sub_346,2023-05-11_10h52.48.152,Reversal,2022.1.1,60.11020605164582,2,
,,,exp4.png,,,,,,,,,,,,,,,,,0,0,0,0,,,,,0,0,0,0,0,3,3,3,,,,,,,,,,,,,,,,,,,,,,,88.0,0.9222055000000182,"[(88.0, 0.9222055000000182)]",835.7385125000001,None,,,88.0,,,,,,,,,sub_346,2023-05-11_10h52.48.152,Reversal,2022.1.1,60.11020605164582,2,
0,exp1.png,exp2.png,,,,,,,,,,,,,,,,,,1,0,1,0,0,0,0,0,,,,,,,,,False,20,101,True,exp2.png,exp1.png,trial_right_image,-1,exp1.png,2,exp1.png,exp2.png,1,1,non-reversed,correct,0.48939792013234196,1,valid_win,715.6560086999998,50,,,,,,,,,,,,,,,,,,sub_346,2023-05-11_10h52.48.152,Reversal,2022.1.1,60.11020605164582,2,
1,exp3.png,exp4.png,,,,,,,,,,,,,,,,,,1,0,1,0,0,1,1,1,,,,,,,,,False,21,102,False,exp3.png,exp4.png,trial_right_image,-1,exp4.png,2,exp4.png,exp3.png,0,4,reversed,correct,0.4190407294674826,1,valid_win,720.0721678,51,,,,,,,,,,,,,,,,,,sub_346,2023-05-11_10h52.48.152,Reversal,2022.1.1,60.11020605164582,2,
2,exp1.png,exp2.png,,,,,,,,,,,,,,,,,,1,0,1,0,0,2,2,2,,,,,,,,,False,22,103,False,exp1.png,exp2.png,trial_right_image,-1,exp2.png,2,exp1.png,exp2.png,0,2,non-reversed,incorrect,0.8007917563051749,0,valid_lose,724.5396074999999,51,,,,,,,,,,,,,,,,,,sub_346,2023-05-11_10h52.48.152,Reversal,2022.1.1,60.11020605164582,2,
3,exp3.png,exp4.png,,,,,,,,,,,,,,,,,,1,0,1,0,0,3,3,3,,,,,,,,,False,23,104,False,exp3.png,exp4.png,trial_left_image,1,exp3.png,2,exp4.png,exp3.png,1,3,reversed,incorrect,0.8835903965126167,0,valid_lose,728.8090320000001,51,,,,,,,,,,,,,,,,,,sub_346,2023-05-11_10h52.48.152,Reversal,2022.1.1,60.11020605164582,2,
4,exp1.png,exp2.png,,,,,,,,,,,,,,,,,,1,0,1,0,0,4,4,4,,,,,,,,,False,24,105,True,exp2.png,exp1.png,trial_right_image,-1,exp1.png,2,exp1.png,exp2.png,1,1,non-reversed,correct,0.9672344163284619,1,valid_win,732.9882613,52,,,,,,,,,,,,,,,,,,sub_346,2023-05-11_10h52.48.152,Reversal,2022.1.1,60.11020605164582,2,
5,exp3.png,exp4.png,,,,,,,,,,,,,,,,,,1,0,1,0,0,5,5,5,,,,,,,,,False,25,106,False,exp3.png,exp4.png,trial_right_image,-1,exp4.png,2,exp4.png,exp3.png,0,4,reversed,correct,0.1149126706323611,0,invalid_lose,737.2209720999999,52,,,,,,,,,,,,,,,,,,sub_346,2023-05-11_10h52.48.152,Reversal,2022.1.1,60.11020605164582,2,
6,exp1.png,exp2.png,,,,,,,,,,,,,,,,,,1,0,1,0,0,6,6,6,,,,,,,,,False,26,107,False,exp1.png,exp2.png,trial_left_image,1,exp1.png,2,exp1.png,exp2.png,1,1,non-reversed,correct,0.9093127542092986,1,valid_win,741.4365395999994,53,,,,,,,,,,,,,,,,,,sub_346,2023-05-11_10h52.48.152,Reversal,2022.1.1,60.11020605164582,2,
7,exp3.png,exp4.png,,,,,,,,,,,,,,,,,,1,0,1,0,0,7,7,7,,,,,,,,,False,27,108,False,exp3.png,exp4.png,trial_right_image,-1,exp4.png,2,exp4.png,exp3.png,0,4,reversed,correct,0.740976902995056,1,valid_win,745.7206014999992,54,,,,,,,,,,,,,,,,,,sub_346,2023-05-11_10h52.48.152,Reversal,2022.1.1,60.11020605164582,2,
8,exp1.png,exp2.png,,,,,,,,,,,,,,,,,,1,0,1,0,0,8,8,8,,,,,,,,,False,28,109,True,exp2.png,exp1.png,trial_right_image,-1,exp1.png,2,exp1.png,exp2.png,1,1,non-reversed,correct,0.04492243963221565,0,invalid_lose,750.0356323999995,54,,,,,,,,,,,,,,,,,,sub_346,2023-05-11_10h52.48.152,Reversal,2022.1.1,60.11020605164582,2,
9,exp3.png,exp4.png,,,,,,,,,,,,,,,,,,1,0,1,0,0,9,9,9,,,,,,,,,False,29,110,False,exp3.png,exp4.png,trial_left_image,1,exp3.png,2,exp4.png,exp3.png,1,3,reversed,incorrect,0.3835764842350383,0,valid_lose,754.6520173999997,54,,,,,,,,,,,,,,,,,,sub_346,2023-05-11_10h52.48.152,Reversal,2022.1.1,60.11020605164582,2,
10,exp1.png,exp2.png,,,,,,,,,,,,,,,,,,1,0,1,0,0,10,10,10,,,,,,,,,False,30,111,True,exp2.png,exp1.png,trial_right_image,-1,exp1.png,2,exp1.png,exp2.png,1,1,non-reversed,correct,0.45703360706179863,1,valid_win,758.4595294000001,55,,,,,,,,,,,,,,,,,,sub_346,2023-05-11_10h52.48.152,Reversal,2022.1.1,60.11020605164582,2,
11,exp3.png,exp4.png,,,,,,,,,,,,,,,,,,1,0,1,0,0,11,11,11,,,,,,,,,False,31,112,False,exp3.png,exp4.png,trial_left_image,1,exp3.png,2,exp4.png,exp3.png,1,3,reversed,incorrect,0.19942967353033958,1,invalid_win,762.8170733999996,56,,,,,,,,,,,,,,,,,,sub_346,2023-05-11_10h52.48.152,Reversal,2022.1.1,60.11020605164582,2,
12,exp1.png,exp2.png,,,,,,,,,,,,,,,,,,1,0,1,0,0,12,12,12,,,,,,,,,False,32,113,True,exp2.png,exp1.png,trial_left_image,1,exp2.png,2,exp1.png,exp2.png,0,2,non-reversed,incorrect,0.7108651947402939,0,valid_lose,767.2824212999994,56,,,,,,,,,,,,,,,,,,sub_346,2023-05-11_10h52.48.152,Reversal,2022.1.1,60.11020605164582,2,
13,exp3.png,exp4.png,,,,,,,,,,,,,,,,,,1,0,1,0,0,13,13,13,,,,,,,,,False,33,114,True,exp4.png,exp3.png,trial_right_image,-1,exp3.png,2,exp4.png,exp3.png,1,3,reversed,incorrect,0.9314233973575943,0,valid_lose,771.3997506999995,56,,,,,,,,,,,,,,,,,,sub_346,2023-05-11_10h52.48.152,Reversal,2022.1.1,60.11020605164582,2,
14,exp1.png,exp2.png,,,,,,,,,,,,,,,,,,1,0,1,0,0,14,14,14,,,,,,,,,False,34,115,True,exp2.png,exp1.png,trial_left_image,1,exp2.png,2,exp1.png,exp2.png,0,2,non-reversed,incorrect,0.18201570893417807,1,invalid_win,775.6815732999994,57,,,,,,,,,,,,,,,,,,sub_346,2023-05-11_10h52.48.152,Reversal,2022.1.1,60.11020605164582,2,
15,exp3.png,exp4.png,,,,,,,,,,,,,,,,,,1,0,1,0,0,15,15,15,,,,,,,,,False,35,116,True,exp4.png,exp3.png,trial_right_image,-1,exp3.png,2,exp4.png,exp3.png,1,3,reversed,incorrect,0.3911592462107195,0,valid_lose,779.8982137999992,57,,,,,,,,,,,,,,,,,,sub_346,2023-05-11_10h52.48.152,Reversal,2022.1.1,60.11020605164582,2,
16,exp1.png,exp2.png,,,,,,,,,,,,,,,,,,1,0,1,0,0,16,16,16,,,,,,,,,False,36,117,False,exp1.png,exp2.png,trial_left_image,1,exp1.png,2,exp1.png,exp2.png,1,1,non-reversed,correct,0.8800925218556257,1,valid_win,784.3140161000001,58,,,,,,,,,,,,,,,,,,sub_346,2023-05-11_10h52.48.152,Reversal,2022.1.1,60.11020605164582,2,
17,exp3.png,exp4.png,,,,,,,,,,,,,,,,,,1,0,1,0,0,17,17,17,,,,,,,,,False,37,118,False,exp3.png,exp4.png,trial_right_image,-1,exp4.png,2,exp4.png,exp3.png,0,4,reversed,correct,0.7132682384481311,1,valid_win,788.4978943999995,59,,,,,,,,,,,,,,,,,,sub_346,2023-05-11_10h52.48.152,Reversal,2022.1.1,60.11020605164582,2,
18,exp1.png,exp2.png,,,,,,,,,,,,,,,,,,1,0,1,0,0,18,18,18,,,,,,,,,False,38,119,True,exp2.png,exp1.png,trial_right_image,-1,exp1.png,2,exp1.png,exp2.png,1,1,non-reversed,correct,0.70808381257641,1,valid_win,792.9800176999997,60,,,,,,,,,,,,,,,,,,sub_346,2023-05-11_10h52.48.152,Reversal,2022.1.1,60.11020605164582,2,
19,exp3.png,exp4.png,,,,,,,,,,,,,,,,,,1,0,1,0,0,19,19,19,,,,,,,,,False,39,120,True,exp4.png,exp3.png,trial_right_image,-1,exp3.png,2,exp4.png,exp3.png,1,3,reversed,incorrect,0.563789555475024,0,valid_lose,797.1952336999993,60,,,,,,,,,,,,,,,,,,sub_346,2023-05-11_10h52.48.152,Reversal,2022.1.1,60.11020605164582,2,
20,exp1.png,exp2.png,,,,,,,,,,,,,,,,,,1,0,1,0,0,20,20,20,,,,,,,,,True,,,,,,,,,,,,,,,,,,,,,,,,,,,,,,,,,,,,,,sub_346,2023-05-11_10h52.48.152,Reversal,2022.1.1,60.11020605164582,2,
,,,exp1.png,,,,,,,,,,,,,,,,,1,0,1,0,,,,,0,0,0,0,0,0,0,0,,,,,,,,,,,,,,,,,,,,,,82.0,82.0,2.899282299999868,"[(82.0, 2.899282299999868)]",923.5230846000004,None,,,,,,,,,,,,sub_346,2023-05-11_10h52.48.152,Reversal,2022.1.1,60.11020605164582,2,
,,,exp2.png,,,,,,,,,,,,,,,,,1,0,1,0,,,,,0,0,0,0,0,1,1,1,,,,,,,,,,,,,,,,,,,,,,,100.0,2.174738700000489,"[(100.0, 2.174738700000489)]",927.7074482999997,None,100.0,,,,,,,,,,,sub_346,2023-05-11_10h52.48.152,Reversal,2022.1.1,60.11020605164582,2,
,,,exp3.png,,,,,,,,,,,,,,,,,1,0,1,0,,,,,0,0,0,0,0,2,2,2,,,,,,,,,,,,,,,,,,,,,,,100.0,1.686883399999715,"[(100.0, 1.686883399999715)]",930.9772349000004,None,,100.0,,,,,,,,,,sub_346,2023-05-11_10h52.48.152,Reversal,2022.1.1,60.11020605164582,2,
,,,exp4.png,,,,,,,,,,,,,,,,,1,0,1,0,,,,,0,0,0,0,0,3,3,3,,,,,,,,,,,,,,,,,,,,,,,100.0,1.737489099999948,"[(100.0, 1.737489099999948)]",933.8422082999996,None,,,100.0,,,,,,,,,sub_346,2023-05-11_10h52.48.152,Reversal,2022.1.1,60.11020605164582,2,
0,exp1.png,exp2.png,,,,,,,,,,,,,,,,,,2,0,2,0,0,0,0,0,,,,,,,,,False,40,121,True,exp2.png,exp1.png,trial_right_image,-1,exp1.png,2,exp1.png,exp2.png,1,1,non-reversed,correct,0.9586137316158164,1,valid_win,814.8444563999992,61,,,,,,,,,,,,,,,,,,sub_346,2023-05-11_10h52.48.152,Reversal,2022.1.1,60.11020605164582,2,
1,exp3.png,exp4.png,,,,,,,,,,,,,,,,,,2,0,2,0,0,1,1,1,,,,,,,,,False,41,122,False,exp3.png,exp4.png,trial_left_image,1,exp3.png,2,exp4.png,exp3.png,1,3,reversed,incorrect,0.9969485207694948,0,valid_lose,820.6258241999994,61,,,,,,,,,,,,,,,,,,sub_346,2023-05-11_10h52.48.152,Reversal,2022.1.1,60.11020605164582,2,
2,exp1.png,exp2.png,,,,,,,,,,,,,,,,,,2,0,2,0,0,2,2,2,,,,,,,,,False,42,123,True,exp2.png,exp1.png,trial_right_image,-1,exp1.png,2,exp1.png,exp2.png,1,1,non-reversed,correct,0.21926697741195567,0,invalid_lose,825.0934883999998,61,,,,,,,,,,,,,,,,,,sub_346,2023-05-11_10h52.48.152,Reversal,2022.1.1,60.11020605164582,2,
3,exp3.png,exp4.png,,,,,,,,,,,,,,,,,,2,0,2,0,0,3,3,3,,,,,,,,,False,43,124,False,exp3.png,exp4.png,trial_right_image,-1,exp4.png,2,exp4.png,exp3.png,0,4,reversed,correct,0.28029347256902615,1,valid_win,845.4898895999995,62,,,,,,,,,,,,,,,,,,sub_346,2023-05-11_10h52.48.152,Reversal,2022.1.1,60.11020605164582,2,
4,exp1.png,exp2.png,,,,,,,,,,,,,,,,,,2,0,2,0,0,4,4,4,,,,,,,,,False,44,125,False,exp1.png,exp2.png,trial_right_image,-1,exp2.png,2,exp1.png,exp2.png,0,2,non-reversed,incorrect,0.4248312882486055,0,valid_lose,849.7886183999999,62,,,,,,,,,,,,,,,,,,sub_346,2023-05-11_10h52.48.152,Reversal,2022.1.1,60.11020605164582,2,
5,exp3.png,exp4.png,,,,,,,,,,,,,,,,,,2,0,2,0,0,5,5,5,,,,,,,,,False,45,126,False,exp3.png,exp4.png,trial_left_image,1,exp3.png,2,exp4.png,exp3.png,1,3,reversed,incorrect,0.7534803856494782,0,valid_lose,853.9388924999994,62,,,,,,,,,,,,,,,,,,sub_346,2023-05-11_10h52.48.152,Reversal,2022.1.1,60.11020605164582,2,
6,exp1.png,exp2.png,,,,,,,,,,,,,,,,,,2,0,2,0,0,6,6,6,,,,,,,,,False,46,127,False,exp1.png,exp2.png,trial_right_image,-1,exp2.png,2,exp1.png,exp2.png,0,2,non-reversed,incorrect,0.7742365318568554,0,valid_lose,858.0377890999998,62,,,,,,,,,,,,,,,,,,sub_346,2023-05-11_10h52.48.152,Reversal,2022.1.1,60.11020605164582,2,
7,exp3.png,exp4.png,,,,,,,,,,,,,,,,,,2,0,2,0,0,7,7,7,,,,,,,,,False,47,128,True,exp4.png,exp3.png,trial_left_image,1,exp4.png,2,exp4.png,exp3.png,0,4,reversed,correct,0.672177156675558,1,valid_win,862.1538266999996,63,,,,,,,,,,,,,,,,,,sub_346,2023-05-11_10h52.48.152,Reversal,2022.1.1,60.11020605164582,2,
8,exp1.png,exp2.png,,,,,,,,,,,,,,,,,,2,0,2,0,0,8,8,8,,,,,,,,,False,48,129,False,exp1.png,exp2.png,trial_right_image,-1,exp2.png,2,exp1.png,exp2.png,0,2,non-reversed,incorrect,0.3405484380739119,0,valid_lose,866.4382734999999,63,,,,,,,,,,,,,,,,,,sub_346,2023-05-11_10h52.48.152,Reversal,2022.1.1,60.11020605164582,2,
9,exp3.png,exp4.png,,,,,,,,,,,,,,,,,,2,0,2,0,0,9,9,9,,,,,,,,,False,49,130,True,exp4.png,exp3.png,trial_left_image,1,exp4.png,2,exp4.png,exp3.png,0,4,reversed,correct,0.025437926166878455,0,invalid_lose,870.4863184999995,63,,,,,,,,,,,,,,,,,,sub_346,2023-05-11_10h52.48.152,Reversal,2022.1.1,60.11020605164582,2,
10,exp1.png,exp2.png,,,,,,,,,,,,,,,,,,2,0,2,0,0,10,10,10,,,,,,,,,False,50,131,True,exp2.png,exp1.png,trial_right_image,-1,exp1.png,2,exp1.png,exp2.png,1,1,non-reversed,correct,0.850863481137027,1,valid_win,874.6186622999994,64,,,,,,,,,,,,,,,,,,sub_346,2023-05-11_10h52.48.152,Reversal,2022.1.1,60.11020605164582,2,
11,exp3.png,exp4.png,,,,,,,,,,,,,,,,,,2,0,2,0,0,11,11,11,,,,,,,,,False,51,132,False,exp3.png,exp4.png,trial_left_image,1,exp3.png,2,exp4.png,exp3.png,1,3,reversed,incorrect,0.6006740757099323,0,valid_lose,878.6852240999997,64,,,,,,,,,,,,,,,,,,sub_346,2023-05-11_10h52.48.152,Reversal,2022.1.1,60.11020605164582,2,
12,exp1.png,exp2.png,,,,,,,,,,,,,,,,,,2,0,2,0,0,12,12,12,,,,,,,,,False,52,133,True,exp2.png,exp1.png,trial_right_image,-1,exp1.png,2,exp1.png,exp2.png,1,1,non-reversed,correct,0.04211544125454625,0,invalid_lose,883.5847074999992,64,,,,,,,,,,,,,,,,,,sub_346,2023-05-11_10h52.48.152,Reversal,2022.1.1,60.11020605164582,2,
13,exp3.png,exp4.png,,,,,,,,,,,,,,,,,,2,0,2,0,0,13,13,13,,,,,,,,,False,53,134,True,exp4.png,exp3.png,trial_right_image,-1,exp3.png,2,exp4.png,exp3.png,1,3,reversed,incorrect,0.39158886478604327,0,valid_lose,887.6673954999997,64,,,,,,,,,,,,,,,,,,sub_346,2023-05-11_10h52.48.152,Reversal,2022.1.1,60.11020605164582,2,
14,exp1.png,exp2.png,,,,,,,,,,,,,,,,,,2,0,2,0,0,14,14,14,,,,,,,,,False,54,135,False,exp1.png,exp2.png,trial_right_image,-1,exp2.png,2,exp1.png,exp2.png,0,2,non-reversed,incorrect,0.723114431560913,0,valid_lose,891.7169120999997,64,,,,,,,,,,,,,,,,,,sub_346,2023-05-11_10h52.48.152,Reversal,2022.1.1,60.11020605164582,2,
15,exp3.png,exp4.png,,,,,,,,,,,,,,,,,,2,0,2,0,0,15,15,15,,,,,,,,,False,55,136,True,exp4.png,exp3.png,trial_left_image,1,exp4.png,2,exp4.png,exp3.png,0,4,reversed,correct,0.9165428678426379,1,valid_win,895.8834024999996,65,,,,,,,,,,,,,,,,,,sub_346,2023-05-11_10h52.48.152,Reversal,2022.1.1,60.11020605164582,2,
16,exp1.png,exp2.png,,,,,,,,,,,,,,,,,,2,0,2,0,0,16,16,16,,,,,,,,,False,56,137,True,exp2.png,exp1.png,trial_right_image,-1,exp1.png,2,exp1.png,exp2.png,1,1,non-reversed,correct,0.9767057299652756,1,valid_win,900.2149474999997,66,,,,,,,,,,,,,,,,,,sub_346,2023-05-11_10h52.48.152,Reversal,2022.1.1,60.11020605164582,2,
17,exp3.png,exp4.png,,,,,,,,,,,,,,,,,,2,0,2,0,0,17,17,17,,,,,,,,,False,57,138,False,exp3.png,exp4.png,trial_right_image,-1,exp4.png,2,exp4.png,exp3.png,0,4,reversed,correct,0.7831244284974989,1,valid_win,904.4150701999997,67,,,,,,,,,,,,,,,,,,sub_346,2023-05-11_10h52.48.152,Reversal,2022.1.1,60.11020605164582,2,
18,exp1.png,exp2.png,,,,,,,,,,,,,,,,,,2,0,2,0,0,18,18,18,,,,,,,,,False,58,139,False,exp1.png,exp2.png,trial_left_image,1,exp1.png,2,exp1.png,exp2.png,1,1,non-reversed,correct,0.688544090879358,1,valid_win,908.4811913999993,68,,,,,,,,,,,,,,,,,,sub_346,2023-05-11_10h52.48.152,Reversal,2022.1.1,60.11020605164582,2,
19,exp3.png,exp4.png,,,,,,,,,,,,,,,,,,2,0,2,0,0,19,19,19,,,,,,,,,False,59,140,True,exp4.png,exp3.png,trial_left_image,1,exp4.png,2,exp4.png,exp3.png,0,4,reversed,correct,0.9334585963702084,1,valid_win,913.9802319999999,69,,,,,,,,,,,,,,,,,,sub_346,2023-05-11_10h52.48.152,Reversal,2022.1.1,60.11020605164582,2,
20,exp1.png,exp2.png,,,,,,,,,,,,,,,,,,2,0,2,0,0,20,20,20,,,,,,,,,True,,,,,,,,,,,,,,,,,,,,,,,,,,,,,,,,,,,,,,sub_346,2023-05-11_10h52.48.152,Reversal,2022.1.1,60.11020605164582,2,
,,,exp1.png,,,,,,,,,,,,,,,,,2,0,2,0,,,,,0,0,0,0,0,0,0,0,,,,,,,,,,,,,,,,,,,,,,,50.0,None,[],1040.3042920999997,None,,,,,,,,,,,,sub_346,2023-05-11_10h52.48.152,Reversal,2022.1.1,60.11020605164582,2,
,,,exp2.png,,,,,,,,,,,,,,,,,2,0,2,0,,,,,0,0,0,0,0,1,1,1,,,,,,,,,,,,,,,,,,,,,,,73.0,1.4547880999998597,"[(73.0, 1.4547880999998597)]",1047.5563531999996,None,73.0,,,,,,,,,,,sub_346,2023-05-11_10h52.48.152,Reversal,2022.1.1,60.11020605164582,2,
,,,exp3.png,,,,,,,,,,,,,,,,,2,0,2,0,,,,,0,0,0,0,0,2,2,2,,,,,,,,,,,,,,,,,,,,,,,98.0,1.7280750999998418,"[(98.0, 1.7280750999998418)]",1050.5832153000001,None,,98.0,,,,,,,,,,sub_346,2023-05-11_10h52.48.152,Reversal,2022.1.1,60.11020605164582,2,
,,,exp4.png,,,,,,,,,,,,,,,,,2,0,2,0,,,,,0,0,0,0,0,3,3,3,,,,,,,,,,,,,,,,,,,,,,,100.0,1.637554199999613,"[(100.0, 1.637554199999613)]",1053.7766352999997,None,,,100.0,,,,,,,,,sub_346,2023-05-11_10h52.48.152,Reversal,2022.1.1,60.11020605164582,2,
,,,,,,,,,,,,,,,,,,,,,,,,,,,,,,,,,,,,,,,,,,,,,,,,,,,,,,,,69,,,,,,,,,,,77,45,32,336.66911139999957,1,space,16.42331969999941,sub_346,2023-05-11_10h52.48.152,Reversal,2022.1.1,60.11020605164582,2,
