trial_index,trial_image1_file,trial_image2_file,image_file,learning_outer_loop.thisRepN,learning_outer_loop.thisTrialN,learning_outer_loop.thisN,learning_outer_loop.thisIndex,learning_inner_loop.thisRepN,learning_inner_loop.thisTrialN,learning_inner_loop.thisN,learning_inner_loop.thisIndex,learning_estimation_outer_loop.thisRepN,learning_estimation_outer_loop.thisTrialN,learning_estimation_outer_loop.thisN,learning_estimation_outer_loop.thisIndex,learning_estimation_inner_loop.thisRepN,learning_estimation_inner_loop.thisTrialN,learning_estimation_inner_loop.thisN,learning_estimation_inner_loop.thisIndex,reversal_outer_loop.thisRepN,reversal_outer_loop.thisTrialN,reversal_outer_loop.thisN,reversal_outer_loop.thisIndex,reversal_inner_loop.thisRepN,reversal_inner_loop.thisTrialN,reversal_inner_loop.thisN,reversal_inner_loop.thisIndex,reversal_estimation_outer_loop.thisRepN,reversal_estimation_outer_loop.thisTrialN,reversal_estimation_outer_loop.thisN,reversal_estimation_outer_loop.thisIndex,reversal_estimation_inner_loop.thisRepN,reversal_estimation_inner_loop.thisTrialN,reversal_estimation_inner_loop.thisN,reversal_estimation_inner_loop.thisIndex,skipped,total_trial_counter,trial_num,left_right_flip,left_image_file,right_image_file,clicked_stimulus_side,side,clicked_stimulus,version,high_prob_image_file,low_prob_image_file,choice_a,choice_b,pair_type,correct,trial_feedback_random,reward,trial_type,overall_time_after_trial,score,estimation_exp1.png,estimation_rating.response,estimation_rating.rt,estimation_rating.history,estimation_rating.started,estimation_rating.stopped,estimation_exp2.png,estimation_exp3.png,estimation_exp4.png,total_learning_time,total_correct,learning_correct,reversal_correct,total_reversal_time,extra_block,participant,date,expName,psychopyVersion,frameRate,ver,
0,exp1.png,exp2.png,,0,0,0,0,0,0,0,0,,,,,,,,,,,,,,,,,,,,,,,,,False,0,1,False,exp1.png,exp2.png,trial_right_image,-1,exp2.png,2,exp1.png,exp2.png,0,2,non-reversed,incorrect,0.5928623241439017,0,valid_lose,10.950748699717224,0,,,,,,,,,,,,,,,,sub_118,2023-04-07_11h47.38.818,Reversal,2022.1.2,60.04581478826242,2,
1,exp3.png,exp4.png,,0,0,0,0,0,1,1,1,,,,,,,,,,,,,,,,,,,,,,,,,False,1,2,False,exp3.png,exp4.png,trial_left_image,1,exp3.png,2,exp3.png,exp4.png,1,3,reversed,correct,0.056231769934472986,0,invalid_lose,17.683728800155222,0,,,,,,,,,,,,,,,,sub_118,2023-04-07_11h47.38.818,Reversal,2022.1.2,60.04581478826242,2,
2,exp1.png,exp2.png,,0,0,0,0,0,2,2,2,,,,,,,,,,,,,,,,,,,,,,,,,False,2,3,True,exp2.png,exp1.png,trial_left_image,1,exp2.png,2,exp1.png,exp2.png,0,2,non-reversed,incorrect,0.5180065612972392,0,valid_lose,24.417050999589264,0,,,,,,,,,,,,,,,,sub_118,2023-04-07_11h47.38.818,Reversal,2022.1.2,60.04581478826242,2,
3,exp3.png,exp4.png,,0,0,0,0,0,3,3,3,,,,,,,,,,,,,,,,,,,,,,,,,False,3,4,False,exp3.png,exp4.png,trial_right_image,-1,exp4.png,2,exp3.png,exp4.png,0,4,reversed,incorrect,0.7297397569947229,0,valid_lose,30.76674639992416,0,,,,,,,,,,,,,,,,sub_118,2023-04-07_11h47.38.818,Reversal,2022.1.2,60.04581478826242,2,
4,exp1.png,exp2.png,,0,0,0,0,0,4,4,4,,,,,,,,,,,,,,,,,,,,,,,,,False,4,5,False,exp1.png,exp2.png,trial_left_image,1,exp1.png,2,exp1.png,exp2.png,1,1,non-reversed,correct,0.4951869790622301,1,valid_win,37.7164717996493,1,,,,,,,,,,,,,,,,sub_118,2023-04-07_11h47.38.818,Reversal,2022.1.2,60.04581478826242,2,
5,exp3.png,exp4.png,,0,0,0,0,0,5,5,5,,,,,,,,,,,,,,,,,,,,,,,,,False,5,6,True,exp4.png,exp3.png,trial_left_image,1,exp4.png,2,exp3.png,exp4.png,0,4,reversed,incorrect,0.10874107558516577,1,invalid_win,52.017493300139904,2,,,,,,,,,,,,,,,,sub_118,2023-04-07_11h47.38.818,Reversal,2022.1.2,60.04581478826242,2,
6,exp1.png,exp2.png,,0,0,0,0,0,6,6,6,,,,,,,,,,,,,,,,,,,,,,,,,False,6,7,True,exp2.png,exp1.png,trial_right_image,-1,exp1.png,2,exp1.png,exp2.png,1,1,non-reversed,correct,0.6651641093850634,1,valid_win,58.35120919998735,3,,,,,,,,,,,,,,,,sub_118,2023-04-07_11h47.38.818,Reversal,2022.1.2,60.04581478826242,2,
7,exp3.png,exp4.png,,0,0,0,0,0,7,7,7,,,,,,,,,,,,,,,,,,,,,,,,,False,7,8,True,exp4.png,exp3.png,trial_left_image,1,exp4.png,2,exp3.png,exp4.png,0,4,reversed,incorrect,0.4083406511009051,0,valid_lose,64.06768149975687,3,,,,,,,,,,,,,,,,sub_118,2023-04-07_11h47.38.818,Reversal,2022.1.2,60.04581478826242,2,
8,exp1.png,exp2.png,,0,0,0,0,0,8,8,8,,,,,,,,,,,,,,,,,,,,,,,,,False,8,9,True,exp2.png,exp1.png,trial_right_image,-1,exp1.png,2,exp1.png,exp2.png,1,1,non-reversed,correct,0.7388342663208014,1,valid_win,69.01617489941418,4,,,,,,,,,,,,,,,,sub_118,2023-04-07_11h47.38.818,Reversal,2022.1.2,60.04581478826242,2,
9,exp3.png,exp4.png,,0,0,0,0,0,9,9,9,,,,,,,,,,,,,,,,,,,,,,,,,False,9,10,True,exp4.png,exp3.png,trial_right_image,-1,exp3.png,2,exp3.png,exp4.png,1,3,reversed,correct,0.24459370044947293,0,invalid_lose,73.68263870012015,4,,,,,,,,,,,,,,,,sub_118,2023-04-07_11h47.38.818,Reversal,2022.1.2,60.04581478826242,2,
10,exp1.png,exp2.png,,0,0,0,0,0,10,10,10,,,,,,,,,,,,,,,,,,,,,,,,,False,10,11,False,exp1.png,exp2.png,trial_left_image,1,exp1.png,2,exp1.png,exp2.png,1,1,non-reversed,correct,0.986571113487819,1,valid_win,79.13251089956611,5,,,,,,,,,,,,,,,,sub_118,2023-04-07_11h47.38.818,Reversal,2022.1.2,60.04581478826242,2,
11,exp3.png,exp4.png,,0,0,0,0,0,11,11,11,,,,,,,,,,,,,,,,,,,,,,,,,False,11,12,False,exp3.png,exp4.png,trial_left_image,1,exp3.png,2,exp3.png,exp4.png,1,3,reversed,correct,0.173513997355229,0,invalid_lose,84.61609499994665,5,,,,,,,,,,,,,,,,sub_118,2023-04-07_11h47.38.818,Reversal,2022.1.2,60.04581478826242,2,
12,exp1.png,exp2.png,,0,0,0,0,0,12,12,12,,,,,,,,,,,,,,,,,,,,,,,,,False,12,13,False,exp1.png,exp2.png,trial_left_image,1,exp1.png,2,exp1.png,exp2.png,1,1,non-reversed,correct,0.44700461272014946,1,valid_win,89.51580139994621,6,,,,,,,,,,,,,,,,sub_118,2023-04-07_11h47.38.818,Reversal,2022.1.2,60.04581478826242,2,
13,exp3.png,exp4.png,,0,0,0,0,0,13,13,13,,,,,,,,,,,,,,,,,,,,,,,,,False,13,14,True,exp4.png,exp3.png,trial_right_image,-1,exp3.png,2,exp3.png,exp4.png,1,3,reversed,correct,0.8636255748216297,1,valid_win,94.96599639952183,7,,,,,,,,,,,,,,,,sub_118,2023-04-07_11h47.38.818,Reversal,2022.1.2,60.04581478826242,2,
14,exp1.png,exp2.png,,0,0,0,0,0,14,14,14,,,,,,,,,,,,,,,,,,,,,,,,,False,14,15,False,exp1.png,exp2.png,trial_left_image,1,exp1.png,2,exp1.png,exp2.png,1,1,non-reversed,correct,0.12211364344616982,0,invalid_lose,99.74932779930532,7,,,,,,,,,,,,,,,,sub_118,2023-04-07_11h47.38.818,Reversal,2022.1.2,60.04581478826242,2,
15,exp3.png,exp4.png,,0,0,0,0,0,15,15,15,,,,,,,,,,,,,,,,,,,,,,,,,False,15,16,True,exp4.png,exp3.png,trial_right_image,-1,exp3.png,2,exp3.png,exp4.png,1,3,reversed,correct,0.7117744545281163,1,valid_win,106.03210810013115,8,,,,,,,,,,,,,,,,sub_118,2023-04-07_11h47.38.818,Reversal,2022.1.2,60.04581478826242,2,
16,exp1.png,exp2.png,,0,0,0,0,0,16,16,16,,,,,,,,,,,,,,,,,,,,,,,,,False,16,17,False,exp1.png,exp2.png,trial_right_image,-1,exp2.png,2,exp1.png,exp2.png,0,2,non-reversed,incorrect,0.12446958987484247,1,invalid_win,111.11578790005296,9,,,,,,,,,,,,,,,,sub_118,2023-04-07_11h47.38.818,Reversal,2022.1.2,60.04581478826242,2,
17,exp3.png,exp4.png,,0,0,0,0,0,17,17,17,,,,,,,,,,,,,,,,,,,,,,,,,False,17,18,True,exp4.png,exp3.png,trial_right_image,-1,exp3.png,2,exp3.png,exp4.png,1,3,reversed,correct,0.35217398351296214,1,valid_win,116.26587220001966,10,,,,,,,,,,,,,,,,sub_118,2023-04-07_11h47.38.818,Reversal,2022.1.2,60.04581478826242,2,
18,exp1.png,exp2.png,,0,0,0,0,0,18,18,18,,,,,,,,,,,,,,,,,,,,,,,,,False,18,19,False,exp1.png,exp2.png,trial_right_image,-1,exp2.png,2,exp1.png,exp2.png,0,2,non-reversed,incorrect,0.25676816190389107,0,valid_lose,120.88178529962897,10,,,,,,,,,,,,,,,,sub_118,2023-04-07_11h47.38.818,Reversal,2022.1.2,60.04581478826242,2,
19,exp3.png,exp4.png,,0,0,0,0,0,19,19,19,,,,,,,,,,,,,,,,,,,,,,,,,False,19,20,True,exp4.png,exp3.png,trial_right_image,-1,exp3.png,2,exp3.png,exp4.png,1,3,reversed,correct,0.5168018339727758,1,valid_win,130.1668325997889,11,,,,,,,,,,,,,,,,sub_118,2023-04-07_11h47.38.818,Reversal,2022.1.2,60.04581478826242,2,
20,exp1.png,exp2.png,,0,0,0,0,0,20,20,20,,,,,,,,,,,,,,,,,,,,,,,,,True,,,,,,,,,,,,,,,,,,,,,,,,,,,,,,,,,,,,sub_118,2023-04-07_11h47.38.818,Reversal,2022.1.2,60.04581478826242,2,
,,,exp1.png,0,0,0,0,,,,,0,0,0,0,0,0,0,0,,,,,,,,,,,,,,,,,,,,,,,,,,,,,,,,,,,,,,81.0,81.0,11.200729800388217,"[(81.0, 5.633641600608826), (85.0, 10.333157400600612), (81.0, 11.200729800388217)]",215.6735958000645,None,,,,,,,,,,sub_118,2023-04-07_11h47.38.818,Reversal,2022.1.2,60.04581478826242,2,
,,,exp2.png,0,0,0,0,,,,,0,0,0,0,0,1,1,1,,,,,,,,,,,,,,,,,,,,,,,,,,,,,,,,,,,,,,,22.0,3.233537499792874,"[(22.0, 3.233537499792874)]",227.97410690039396,None,22.0,,,,,,,,,sub_118,2023-04-07_11h47.38.818,Reversal,2022.1.2,60.04581478826242,2,
,,,exp3.png,0,0,0,0,,,,,0,0,0,0,0,2,2,2,,,,,,,,,,,,,,,,,,,,,,,,,,,,,,,,,,,,,,,73.0,4.150821699760854,"[(73.0, 4.150821699760854)]",232.1474852003157,None,,73.0,,,,,,,,sub_118,2023-04-07_11h47.38.818,Reversal,2022.1.2,60.04581478826242,2,
,,,exp4.png,0,0,0,0,,,,,0,0,0,0,0,3,3,3,,,,,,,,,,,,,,,,,,,,,,,,,,,,,,,,,,,,,,,25.0,4.234415600076318,"[(25.0, 4.234415600076318)]",237.31959340069443,None,,,25.0,,,,,,,sub_118,2023-04-07_11h47.38.818,Reversal,2022.1.2,60.04581478826242,2,
0,exp1.png,exp2.png,,1,0,1,0,0,0,0,0,,,,,,,,,,,,,,,,,,,,,,,,,False,20,21,False,exp1.png,exp2.png,trial_left_image,1,exp1.png,2,exp1.png,exp2.png,1,1,non-reversed,correct,0.3483937196503474,1,valid_win,161.98098849970847,12,,,,,,,,,,,,,,,,sub_118,2023-04-07_11h47.38.818,Reversal,2022.1.2,60.04581478826242,2,
1,exp3.png,exp4.png,,1,0,1,0,0,1,1,1,,,,,,,,,,,,,,,,,,,,,,,,,False,21,22,False,exp3.png,exp4.png,trial_left_image,1,exp3.png,2,exp3.png,exp4.png,1,3,reversed,correct,0.46761266136130997,1,valid_win,167.4474256997928,13,,,,,,,,,,,,,,,,sub_118,2023-04-07_11h47.38.818,Reversal,2022.1.2,60.04581478826242,2,
2,exp1.png,exp2.png,,1,0,1,0,0,2,2,2,,,,,,,,,,,,,,,,,,,,,,,,,False,22,23,True,exp2.png,exp1.png,trial_right_image,-1,exp1.png,2,exp1.png,exp2.png,1,1,non-reversed,correct,0.20344417688181127,0,invalid_lose,171.96408839989454,13,,,,,,,,,,,,,,,,sub_118,2023-04-07_11h47.38.818,Reversal,2022.1.2,60.04581478826242,2,
3,exp3.png,exp4.png,,1,0,1,0,0,3,3,3,,,,,,,,,,,,,,,,,,,,,,,,,False,23,24,True,exp4.png,exp3.png,trial_right_image,-1,exp3.png,2,exp3.png,exp4.png,1,3,reversed,correct,0.3893198948032627,1,valid_win,177.4307049997151,14,,,,,,,,,,,,,,,,sub_118,2023-04-07_11h47.38.818,Reversal,2022.1.2,60.04581478826242,2,
4,exp1.png,exp2.png,,1,0,1,0,0,4,4,4,,,,,,,,,,,,,,,,,,,,,,,,,False,24,25,False,exp1.png,exp2.png,trial_right_image,-1,exp2.png,2,exp1.png,exp2.png,0,2,non-reversed,incorrect,0.7626554736242102,0,valid_lose,182.18092139996588,14,,,,,,,,,,,,,,,,sub_118,2023-04-07_11h47.38.818,Reversal,2022.1.2,60.04581478826242,2,
5,exp3.png,exp4.png,,1,0,1,0,0,5,5,5,,,,,,,,,,,,,,,,,,,,,,,,,False,25,26,False,exp3.png,exp4.png,trial_right_image,-1,exp4.png,2,exp3.png,exp4.png,0,4,reversed,incorrect,0.8667339912287828,0,valid_lose,186.86389879975468,14,,,,,,,,,,,,,,,,sub_118,2023-04-07_11h47.38.818,Reversal,2022.1.2,60.04581478826242,2,
6,exp1.png,exp2.png,,1,0,1,0,0,6,6,6,,,,,,,,,,,,,,,,,,,,,,,,,False,26,27,True,exp2.png,exp1.png,trial_right_image,-1,exp1.png,2,exp1.png,exp2.png,1,1,non-reversed,correct,0.20036388530871352,0,invalid_lose,191.31417469959706,14,,,,,,,,,,,,,,,,sub_118,2023-04-07_11h47.38.818,Reversal,2022.1.2,60.04581478826242,2,
7,exp3.png,exp4.png,,1,0,1,0,0,7,7,7,,,,,,,,,,,,,,,,,,,,,,,,,False,27,28,True,exp4.png,exp3.png,trial_left_image,1,exp4.png,2,exp3.png,exp4.png,0,4,reversed,incorrect,0.5824487783946535,0,valid_lose,196.51366929989308,14,,,,,,,,,,,,,,,,sub_118,2023-04-07_11h47.38.818,Reversal,2022.1.2,60.04581478826242,2,
8,exp1.png,exp2.png,,1,0,1,0,0,8,8,8,,,,,,,,,,,,,,,,,,,,,,,,,False,28,29,False,exp1.png,exp2.png,trial_right_image,-1,exp2.png,2,exp1.png,exp2.png,0,2,non-reversed,incorrect,0.7136573496675366,0,valid_lose,201.14711549971253,14,,,,,,,,,,,,,,,,sub_118,2023-04-07_11h47.38.818,Reversal,2022.1.2,60.04581478826242,2,
9,exp3.png,exp4.png,,1,0,1,0,0,9,9,9,,,,,,,,,,,,,,,,,,,,,,,,,False,29,30,True,exp4.png,exp3.png,trial_right_image,-1,exp3.png,2,exp3.png,exp4.png,1,3,reversed,correct,0.4304564738705169,1,valid_win,209.53007349930704,15,,,,,,,,,,,,,,,,sub_118,2023-04-07_11h47.38.818,Reversal,2022.1.2,60.04581478826242,2,
10,exp1.png,exp2.png,,1,0,1,0,0,10,10,10,,,,,,,,,,,,,,,,,,,,,,,,,False,30,31,True,exp2.png,exp1.png,trial_left_image,1,exp2.png,2,exp1.png,exp2.png,0,2,non-reversed,incorrect,0.27924886340209454,0,valid_lose,215.14855099935085,15,,,,,,,,,,,,,,,,sub_118,2023-04-07_11h47.38.818,Reversal,2022.1.2,60.04581478826242,2,
11,exp3.png,exp4.png,,1,0,1,0,0,11,11,11,,,,,,,,,,,,,,,,,,,,,,,,,False,31,32,True,exp4.png,exp3.png,trial_right_image,-1,exp3.png,2,exp3.png,exp4.png,1,3,reversed,correct,0.6770923247822715,1,valid_win,220.39671329967678,16,,,,,,,,,,,,,,,,sub_118,2023-04-07_11h47.38.818,Reversal,2022.1.2,60.04581478826242,2,
12,exp1.png,exp2.png,,1,0,1,0,0,12,12,12,,,,,,,,,,,,,,,,,,,,,,,,,False,32,33,False,exp1.png,exp2.png,trial_left_image,1,exp1.png,2,exp1.png,exp2.png,1,1,non-reversed,correct,0.435633857032919,1,valid_win,224.8968985993415,17,,,,,,,,,,,,,,,,sub_118,2023-04-07_11h47.38.818,Reversal,2022.1.2,60.04581478826242,2,
13,exp3.png,exp4.png,,1,0,1,0,0,13,13,13,,,,,,,,,,,,,,,,,,,,,,,,,False,33,34,False,exp3.png,exp4.png,trial_left_image,1,exp3.png,2,exp3.png,exp4.png,1,3,reversed,correct,0.09218288063691404,0,invalid_lose,230.02978189941496,17,,,,,,,,,,,,,,,,sub_118,2023-04-07_11h47.38.818,Reversal,2022.1.2,60.04581478826242,2,
14,exp1.png,exp2.png,,1,0,1,0,0,14,14,14,,,,,,,,,,,,,,,,,,,,,,,,,False,34,35,False,exp1.png,exp2.png,trial_left_image,1,exp1.png,2,exp1.png,exp2.png,1,1,non-reversed,correct,0.30840849317103236,1,valid_win,234.9464269997552,18,,,,,,,,,,,,,,,,sub_118,2023-04-07_11h47.38.818,Reversal,2022.1.2,60.04581478826242,2,
15,exp3.png,exp4.png,,1,0,1,0,0,15,15,15,,,,,,,,,,,,,,,,,,,,,,,,,False,35,36,False,exp3.png,exp4.png,trial_right_image,-1,exp4.png,2,exp3.png,exp4.png,0,4,reversed,incorrect,0.18529958870394347,1,invalid_win,241.013096999377,19,,,,,,,,,,,,,,,,sub_118,2023-04-07_11h47.38.818,Reversal,2022.1.2,60.04581478826242,2,
16,exp1.png,exp2.png,,1,0,1,0,0,16,16,16,,,,,,,,,,,,,,,,,,,,,,,,,False,36,37,True,exp2.png,exp1.png,trial_right_image,-1,exp1.png,2,exp1.png,exp2.png,1,1,non-reversed,correct,0.19095212156246044,0,invalid_lose,245.49623849987984,19,,,,,,,,,,,,,,,,sub_118,2023-04-07_11h47.38.818,Reversal,2022.1.2,60.04581478826242,2,
17,exp3.png,exp4.png,,1,0,1,0,0,17,17,17,,,,,,,,,,,,,,,,,,,,,,,,,False,37,38,True,exp4.png,exp3.png,trial_left_image,1,exp4.png,2,exp3.png,exp4.png,0,4,reversed,incorrect,0.555755810589484,0,valid_lose,250.2298895996064,19,,,,,,,,,,,,,,,,sub_118,2023-04-07_11h47.38.818,Reversal,2022.1.2,60.04581478826242,2,
18,exp1.png,exp2.png,,1,0,1,0,0,18,18,18,,,,,,,,,,,,,,,,,,,,,,,,,False,38,39,True,exp2.png,exp1.png,trial_right_image,-1,exp1.png,2,exp1.png,exp2.png,1,1,non-reversed,correct,0.06853799196308097,0,invalid_lose,255.04614649992436,19,,,,,,,,,,,,,,,,sub_118,2023-04-07_11h47.38.818,Reversal,2022.1.2,60.04581478826242,2,
19,exp3.png,exp4.png,,1,0,1,0,0,19,19,19,,,,,,,,,,,,,,,,,,,,,,,,,False,39,40,False,exp3.png,exp4.png,trial_left_image,1,exp3.png,2,exp3.png,exp4.png,1,3,reversed,correct,0.38566778160282655,1,valid_win,260.1460903994739,20,,,,,,,,,,,,,,,,sub_118,2023-04-07_11h47.38.818,Reversal,2022.1.2,60.04581478826242,2,
20,exp1.png,exp2.png,,1,0,1,0,0,20,20,20,,,,,,,,,,,,,,,,,,,,,,,,,True,,,,,,,,,,,,,,,,,,,,,,,,,,,,,,,,,,,,sub_118,2023-04-07_11h47.38.818,Reversal,2022.1.2,60.04581478826242,2,
,,,exp1.png,1,0,1,0,,,,,0,0,0,0,0,0,0,0,,,,,,,,,,,,,,,,,,,,,,,,,,,,,,,,,,,,,,66.0,66.0,2.700241000391543,"[(66.0, 2.700241000391543)]",345.69246980082244,None,,,,,,,,,,sub_118,2023-04-07_11h47.38.818,Reversal,2022.1.2,60.04581478826242,2,
,,,exp2.png,1,0,1,0,,,,,0,0,0,0,0,1,1,1,,,,,,,,,,,,,,,,,,,,,,,,,,,,,,,,,,,,,,,44.0,2.0014263996854424,"[(44.0, 2.0014263996854424)]",350.37755970004946,None,44.0,,,,,,,,,sub_118,2023-04-07_11h47.38.818,Reversal,2022.1.2,60.04581478826242,2,
,,,exp3.png,1,0,1,0,,,,,0,0,0,0,0,2,2,2,,,,,,,,,,,,,,,,,,,,,,,,,,,,,,,,,,,,,,,76.0,3.768404300324619,"[(70.0, 3.185341499745846), (76.0, 3.768404300324619)]",353.2961458005011,None,,76.0,,,,,,,,sub_118,2023-04-07_11h47.38.818,Reversal,2022.1.2,60.04581478826242,2,
,,,exp4.png,1,0,1,0,,,,,0,0,0,0,0,3,3,3,,,,,,,,,,,,,,,,,,,,,,,,,,,,,,,,,,,,,,,25.0,1.718576899729669,"[(25.0, 1.718576899729669)]",358.0828903000802,None,,,25.0,,,,,,,sub_118,2023-04-07_11h47.38.818,Reversal,2022.1.2,60.04581478826242,2,
0,exp1.png,exp2.png,,2,0,2,0,0,0,0,0,,,,,,,,,,,,,,,,,,,,,,,,,False,40,41,True,exp2.png,exp1.png,trial_right_image,-1,exp1.png,2,exp1.png,exp2.png,1,1,non-reversed,correct,0.5381650474138862,1,valid_win,282.32900199946016,21,,,,,,,,,,,,,,,,sub_118,2023-04-07_11h47.38.818,Reversal,2022.1.2,60.04581478826242,2,
1,exp3.png,exp4.png,,2,0,2,0,0,1,1,1,,,,,,,,,,,,,,,,,,,,,,,,,False,41,42,True,exp4.png,exp3.png,trial_left_image,1,exp4.png,2,exp3.png,exp4.png,0,4,reversed,incorrect,0.6151615188890052,0,valid_lose,286.74574219994247,21,,,,,,,,,,,,,,,,sub_118,2023-04-07_11h47.38.818,Reversal,2022.1.2,60.04581478826242,2,
2,exp1.png,exp2.png,,2,0,2,0,0,2,2,2,,,,,,,,,,,,,,,,,,,,,,,,,False,42,43,False,exp1.png,exp2.png,trial_left_image,1,exp1.png,2,exp1.png,exp2.png,1,1,non-reversed,correct,0.9428722952338215,1,valid_win,290.86212399974465,22,,,,,,,,,,,,,,,,sub_118,2023-04-07_11h47.38.818,Reversal,2022.1.2,60.04581478826242,2,
3,exp3.png,exp4.png,,2,0,2,0,0,3,3,3,,,,,,,,,,,,,,,,,,,,,,,,,False,43,44,False,exp3.png,exp4.png,trial_left_image,1,exp3.png,2,exp3.png,exp4.png,1,3,reversed,correct,0.042719741692557545,0,invalid_lose,295.5968987001106,22,,,,,,,,,,,,,,,,sub_118,2023-04-07_11h47.38.818,Reversal,2022.1.2,60.04581478826242,2,
4,exp1.png,exp2.png,,2,0,2,0,0,4,4,4,,,,,,,,,,,,,,,,,,,,,,,,,False,44,45,False,exp1.png,exp2.png,trial_left_image,1,exp1.png,2,exp1.png,exp2.png,1,1,non-reversed,correct,0.08988937468270419,0,invalid_lose,300.23024499975145,22,,,,,,,,,,,,,,,,sub_118,2023-04-07_11h47.38.818,Reversal,2022.1.2,60.04581478826242,2,
5,exp3.png,exp4.png,,2,0,2,0,0,5,5,5,,,,,,,,,,,,,,,,,,,,,,,,,False,45,46,True,exp4.png,exp3.png,trial_right_image,-1,exp3.png,2,exp3.png,exp4.png,1,3,reversed,correct,0.9810672774182649,1,valid_win,304.51304979994893,23,,,,,,,,,,,,,,,,sub_118,2023-04-07_11h47.38.818,Reversal,2022.1.2,60.04581478826242,2,
6,exp1.png,exp2.png,,2,0,2,0,0,6,6,6,,,,,,,,,,,,,,,,,,,,,,,,,False,46,47,False,exp1.png,exp2.png,trial_right_image,-1,exp2.png,2,exp1.png,exp2.png,0,2,non-reversed,incorrect,0.6485965791992709,0,valid_lose,309.21314950007945,23,,,,,,,,,,,,,,,,sub_118,2023-04-07_11h47.38.818,Reversal,2022.1.2,60.04581478826242,2,
7,exp3.png,exp4.png,,2,0,2,0,0,7,7,7,,,,,,,,,,,,,,,,,,,,,,,,,False,47,48,True,exp4.png,exp3.png,trial_right_image,-1,exp3.png,2,exp3.png,exp4.png,1,3,reversed,correct,0.7786626580051053,1,valid_win,315.6130723999813,24,,,,,,,,,,,,,,,,sub_118,2023-04-07_11h47.38.818,Reversal,2022.1.2,60.04581478826242,2,
8,exp1.png,exp2.png,,2,0,2,0,0,8,8,8,,,,,,,,,,,,,,,,,,,,,,,,,False,48,49,False,exp1.png,exp2.png,trial_left_image,1,exp1.png,2,exp1.png,exp2.png,1,1,non-reversed,correct,0.3938106629226513,1,valid_win,323.72936499956995,25,,,,,,,,,,,,,,,,sub_118,2023-04-07_11h47.38.818,Reversal,2022.1.2,60.04581478826242,2,
9,exp3.png,exp4.png,,2,0,2,0,0,9,9,9,,,,,,,,,,,,,,,,,,,,,,,,,False,49,50,True,exp4.png,exp3.png,trial_right_image,-1,exp3.png,2,exp3.png,exp4.png,1,3,reversed,correct,0.47765192619213925,1,valid_win,328.529426000081,26,,,,,,,,,,,,,,,,sub_118,2023-04-07_11h47.38.818,Reversal,2022.1.2,60.04581478826242,2,
10,exp1.png,exp2.png,,2,0,2,0,0,10,10,10,,,,,,,,,,,,,,,,,,,,,,,,,False,50,51,False,exp1.png,exp2.png,trial_left_image,1,exp1.png,2,exp1.png,exp2.png,1,1,non-reversed,correct,0.7914339907514928,1,valid_win,333.19608080014586,27,,,,,,,,,,,,,,,,sub_118,2023-04-07_11h47.38.818,Reversal,2022.1.2,60.04581478826242,2,
11,exp3.png,exp4.png,,2,0,2,0,0,11,11,11,,,,,,,,,,,,,,,,,,,,,,,,,False,51,52,True,exp4.png,exp3.png,trial_right_image,-1,exp3.png,2,exp3.png,exp4.png,1,3,reversed,correct,0.22730330682959177,0,invalid_lose,337.8459238996729,27,,,,,,,,,,,,,,,,sub_118,2023-04-07_11h47.38.818,Reversal,2022.1.2,60.04581478826242,2,
12,exp1.png,exp2.png,,2,0,2,0,0,12,12,12,,,,,,,,,,,,,,,,,,,,,,,,,False,52,53,True,exp2.png,exp1.png,trial_right_image,-1,exp1.png,2,exp1.png,exp2.png,1,1,non-reversed,correct,0.8490277434583338,1,valid_win,349.8618542999029,28,,,,,,,,,,,,,,,,sub_118,2023-04-07_11h47.38.818,Reversal,2022.1.2,60.04581478826242,2,
13,exp3.png,exp4.png,,2,0,2,0,0,13,13,13,,,,,,,,,,,,,,,,,,,,,,,,,False,53,54,False,exp3.png,exp4.png,trial_left_image,1,exp3.png,2,exp3.png,exp4.png,1,3,reversed,correct,0.14156383600200728,0,invalid_lose,355.111262999475,28,,,,,,,,,,,,,,,,sub_118,2023-04-07_11h47.38.818,Reversal,2022.1.2,60.04581478826242,2,
14,exp1.png,exp2.png,,2,0,2,0,0,14,14,14,,,,,,,,,,,,,,,,,,,,,,,,,False,54,55,False,exp1.png,exp2.png,trial_left_image,1,exp1.png,2,exp1.png,exp2.png,1,1,non-reversed,correct,0.29983987378831556,1,valid_win,360.427352999337,29,,,,,,,,,,,,,,,,sub_118,2023-04-07_11h47.38.818,Reversal,2022.1.2,60.04581478826242,2,
15,exp3.png,exp4.png,,2,0,2,0,0,15,15,15,,,,,,,,,,,,,,,,,,,,,,,,,False,55,56,False,exp3.png,exp4.png,trial_left_image,1,exp3.png,2,exp3.png,exp4.png,1,3,reversed,correct,0.019482763944353443,0,invalid_lose,365.36076719965786,29,,,,,,,,,,,,,,,,sub_118,2023-04-07_11h47.38.818,Reversal,2022.1.2,60.04581478826242,2,
16,exp1.png,exp2.png,,2,0,2,0,0,16,16,16,,,,,,,,,,,,,,,,,,,,,,,,,False,56,57,True,exp2.png,exp1.png,trial_right_image,-1,exp1.png,2,exp1.png,exp2.png,1,1,non-reversed,correct,0.7507478119285319,1,valid_win,370.19443069957197,30,,,,,,,,,,,,,,,,sub_118,2023-04-07_11h47.38.818,Reversal,2022.1.2,60.04581478826242,2,
17,exp3.png,exp4.png,,2,0,2,0,0,17,17,17,,,,,,,,,,,,,,,,,,,,,,,,,False,57,58,True,exp4.png,exp3.png,trial_left_image,1,exp4.png,2,exp3.png,exp4.png,0,4,reversed,incorrect,0.32833318558537683,0,valid_lose,375.2112221997231,30,,,,,,,,,,,,,,,,sub_118,2023-04-07_11h47.38.818,Reversal,2022.1.2,60.04581478826242,2,
18,exp1.png,exp2.png,,2,0,2,0,0,18,18,18,,,,,,,,,,,,,,,,,,,,,,,,,False,58,59,True,exp2.png,exp1.png,trial_right_image,-1,exp1.png,2,exp1.png,exp2.png,1,1,non-reversed,correct,0.060349150997247136,0,invalid_lose,379.5938280997798,30,,,,,,,,,,,,,,,,sub_118,2023-04-07_11h47.38.818,Reversal,2022.1.2,60.04581478826242,2,
19,exp3.png,exp4.png,,2,0,2,0,0,19,19,19,,,,,,,,,,,,,,,,,,,,,,,,,False,59,60,False,exp3.png,exp4.png,trial_left_image,1,exp3.png,2,exp3.png,exp4.png,1,3,reversed,correct,0.3374478115151258,1,valid_win,384.4439202994108,31,,,,,,,,,,,,,,,,sub_118,2023-04-07_11h47.38.818,Reversal,2022.1.2,60.04581478826242,2,
20,exp1.png,exp2.png,,2,0,2,0,0,20,20,20,,,,,,,,,,,,,,,,,,,,,,,,,True,,,,,,,,,,,,,,,,,,,,,,,,,,,,,,,,,,,,sub_118,2023-04-07_11h47.38.818,Reversal,2022.1.2,60.04581478826242,2,
,,,exp1.png,2,0,2,0,,,,,0,0,0,0,0,0,0,0,,,,,,,,,,,,,,,,,,,,,,,,,,,,,,,,,,,,,,79.0,79.0,3.569916700012982,"[(79.0, 3.569916700012982)]",469.94276280049235,None,,,,,,,,,,sub_118,2023-04-07_11h47.38.818,Reversal,2022.1.2,60.04581478826242,2,
,,,exp2.png,2,0,2,0,,,,,0,0,0,0,0,1,1,1,,,,,,,,,,,,,,,,,,,,,,,,,,,,,,,,,,,,,,,50.0,None,[],476.12553209997714,None,,,,,,,,,,sub_118,2023-04-07_11h47.38.818,Reversal,2022.1.2,60.04581478826242,2,
,,,exp3.png,2,0,2,0,,,,,0,0,0,0,0,2,2,2,,,,,,,,,,,,,,,,,,,,,,,,,,,,,,,,,,,,,,,50.0,None,[],479.81767760030925,None,,,,,,,,,,sub_118,2023-04-07_11h47.38.818,Reversal,2022.1.2,60.04581478826242,2,
,,,exp4.png,2,0,2,0,,,,,0,0,0,0,0,3,3,3,,,,,,,,,,,,,,,,,,,,,,,,,,,,,,,,,,,,,,,31.0,5.39996249973774,"[(40.0, 0.5656966995447874), (31.0, 5.39996249973774)]",480.36581740062684,None,,,31.0,,,,,,,sub_118,2023-04-07_11h47.38.818,Reversal,2022.1.2,60.04581478826242,2,
0,exp1.png,exp2.png,,,,,,,,,,,,,,,,,,0,0,0,0,0,0,0,0,,,,,,,,,False,0,61,False,exp1.png,exp2.png,trial_left_image,1,exp1.png,2,exp1.png,exp2.png,1,1,non-reversed,correct,0.3132564025159107,1,valid_win,406.95994979981333,32,,,,,,,,,,403.64372539985925,,,,,,sub_118,2023-04-07_11h47.38.818,Reversal,2022.1.2,60.04581478826242,2,
1,exp3.png,exp4.png,,,,,,,,,,,,,,,,,,0,0,0,0,0,1,1,1,,,,,,,,,False,1,62,False,exp3.png,exp4.png,trial_left_image,1,exp3.png,2,exp4.png,exp3.png,1,3,reversed,incorrect,0.12735135395489272,1,invalid_win,411.8764830995351,33,,,,,,,,,,,,,,,,sub_118,2023-04-07_11h47.38.818,Reversal,2022.1.2,60.04581478826242,2,
2,exp1.png,exp2.png,,,,,,,,,,,,,,,,,,0,0,0,0,0,2,2,2,,,,,,,,,False,2,63,False,exp1.png,exp2.png,trial_left_image,1,exp1.png,2,exp1.png,exp2.png,1,1,non-reversed,correct,0.9360798489377206,1,valid_win,416.51011069957167,34,,,,,,,,,,,,,,,,sub_118,2023-04-07_11h47.38.818,Reversal,2022.1.2,60.04581478826242,2,
3,exp3.png,exp4.png,,,,,,,,,,,,,,,,,,0,0,0,0,0,3,3,3,,,,,,,,,False,3,64,False,exp3.png,exp4.png,trial_right_image,-1,exp4.png,2,exp4.png,exp3.png,0,4,reversed,correct,0.3069356416307846,1,valid_win,421.2762567996979,35,,,,,,,,,,,,,,,,sub_118,2023-04-07_11h47.38.818,Reversal,2022.1.2,60.04581478826242,2,
4,exp1.png,exp2.png,,,,,,,,,,,,,,,,,,0,0,0,0,0,4,4,4,,,,,,,,,False,4,65,True,exp2.png,exp1.png,trial_right_image,-1,exp1.png,2,exp1.png,exp2.png,1,1,non-reversed,correct,0.5718052219638482,1,valid_win,425.9264731993899,36,,,,,,,,,,,,,,,,sub_118,2023-04-07_11h47.38.818,Reversal,2022.1.2,60.04581478826242,2,
5,exp3.png,exp4.png,,,,,,,,,,,,,,,,,,0,0,0,0,0,5,5,5,,,,,,,,,False,5,66,True,exp4.png,exp3.png,trial_left_image,1,exp4.png,2,exp4.png,exp3.png,0,4,reversed,correct,0.36653612565465765,1,valid_win,430.3930487995967,37,,,,,,,,,,,,,,,,sub_118,2023-04-07_11h47.38.818,Reversal,2022.1.2,60.04581478826242,2,
6,exp1.png,exp2.png,,,,,,,,,,,,,,,,,,0,0,0,0,0,6,6,6,,,,,,,,,False,6,67,True,exp2.png,exp1.png,trial_right_image,-1,exp1.png,2,exp1.png,exp2.png,1,1,non-reversed,correct,0.780550562059083,1,valid_win,435.3762114997953,38,,,,,,,,,,,,,,,,sub_118,2023-04-07_11h47.38.818,Reversal,2022.1.2,60.04581478826242,2,
7,exp3.png,exp4.png,,,,,,,,,,,,,,,,,,0,0,0,0,0,7,7,7,,,,,,,,,False,7,68,True,exp4.png,exp3.png,trial_left_image,1,exp4.png,2,exp4.png,exp3.png,0,4,reversed,correct,0.46019682070014845,1,valid_win,439.60970039945096,39,,,,,,,,,,,,,,,,sub_118,2023-04-07_11h47.38.818,Reversal,2022.1.2,60.04581478826242,2,
8,exp1.png,exp2.png,,,,,,,,,,,,,,,,,,0,0,0,0,0,8,8,8,,,,,,,,,False,8,69,True,exp2.png,exp1.png,trial_right_image,-1,exp1.png,2,exp1.png,exp2.png,1,1,non-reversed,correct,0.7114527749011887,1,valid_win,443.87698549963534,40,,,,,,,,,,,,,,,,sub_118,2023-04-07_11h47.38.818,Reversal,2022.1.2,60.04581478826242,2,
9,exp3.png,exp4.png,,,,,,,,,,,,,,,,,,0,0,0,0,0,9,9,9,,,,,,,,,False,9,70,True,exp4.png,exp3.png,trial_left_image,1,exp4.png,2,exp4.png,exp3.png,0,4,reversed,correct,0.6800843745907402,1,valid_win,448.02620229963213,41,,,,,,,,,,,,,,,,sub_118,2023-04-07_11h47.38.818,Reversal,2022.1.2,60.04581478826242,2,
10,exp1.png,exp2.png,,,,,,,,,,,,,,,,,,0,0,0,0,0,10,10,10,,,,,,,,,False,10,71,False,exp1.png,exp2.png,trial_left_image,1,exp1.png,2,exp1.png,exp2.png,1,1,non-reversed,correct,0.07014538487754562,0,invalid_lose,452.45903349947184,41,,,,,,,,,,,,,,,,sub_118,2023-04-07_11h47.38.818,Reversal,2022.1.2,60.04581478826242,2,
11,exp3.png,exp4.png,,,,,,,,,,,,,,,,,,0,0,0,0,0,11,11,11,,,,,,,,,False,11,72,False,exp3.png,exp4.png,trial_left_image,1,exp3.png,2,exp4.png,exp3.png,1,3,reversed,incorrect,0.8123829399612462,0,valid_lose,457.5093994997442,41,,,,,,,,,,,,,,,,sub_118,2023-04-07_11h47.38.818,Reversal,2022.1.2,60.04581478826242,2,
12,exp1.png,exp2.png,,,,,,,,,,,,,,,,,,0,0,0,0,0,12,12,12,,,,,,,,,False,12,73,False,exp1.png,exp2.png,trial_left_image,1,exp1.png,2,exp1.png,exp2.png,1,1,non-reversed,correct,0.08483556505381118,0,invalid_lose,461.8756464999169,41,,,,,,,,,,,,,,,,sub_118,2023-04-07_11h47.38.818,Reversal,2022.1.2,60.04581478826242,2,
13,exp3.png,exp4.png,,,,,,,,,,,,,,,,,,0,0,0,0,0,13,13,13,,,,,,,,,False,13,74,False,exp3.png,exp4.png,trial_left_image,1,exp3.png,2,exp4.png,exp3.png,1,3,reversed,incorrect,0.6357722190621885,0,valid_lose,466.4590787999332,41,,,,,,,,,,,,,,,,sub_118,2023-04-07_11h47.38.818,Reversal,2022.1.2,60.04581478826242,2,
14,exp1.png,exp2.png,,,,,,,,,,,,,,,,,,0,0,0,0,0,14,14,14,,,,,,,,,False,14,75,False,exp1.png,exp2.png,trial_right_image,-1,exp2.png,2,exp1.png,exp2.png,0,2,non-reversed,incorrect,0.26298790507458836,0,valid_lose,471.4758236994967,41,,,,,,,,,,,,,,,,sub_118,2023-04-07_11h47.38.818,Reversal,2022.1.2,60.04581478826242,2,
15,exp3.png,exp4.png,,,,,,,,,,,,,,,,,,0,0,0,0,0,15,15,15,,,,,,,,,False,15,76,True,exp4.png,exp3.png,trial_right_image,-1,exp3.png,2,exp4.png,exp3.png,1,3,reversed,incorrect,0.5385071592311405,0,valid_lose,478.82605549972504,41,,,,,,,,,,,,,,,,sub_118,2023-04-07_11h47.38.818,Reversal,2022.1.2,60.04581478826242,2,
16,exp1.png,exp2.png,,,,,,,,,,,,,,,,,,0,0,0,0,0,16,16,16,,,,,,,,,False,16,77,True,exp2.png,exp1.png,trial_right_image,-1,exp1.png,2,exp1.png,exp2.png,1,1,non-reversed,correct,0.21036030748659829,0,invalid_lose,483.4089113995433,41,,,,,,,,,,,,,,,,sub_118,2023-04-07_11h47.38.818,Reversal,2022.1.2,60.04581478826242,2,
17,exp3.png,exp4.png,,,,,,,,,,,,,,,,,,0,0,0,0,0,17,17,17,,,,,,,,,False,17,78,True,exp4.png,exp3.png,trial_left_image,1,exp4.png,2,exp4.png,exp3.png,0,4,reversed,correct,0.6276108607531161,1,valid_win,488.19244359992445,42,,,,,,,,,,,,,,,,sub_118,2023-04-07_11h47.38.818,Reversal,2022.1.2,60.04581478826242,2,
18,exp1.png,exp2.png,,,,,,,,,,,,,,,,,,0,0,0,0,0,18,18,18,,,,,,,,,False,18,79,True,exp2.png,exp1.png,trial_left_image,1,exp2.png,2,exp1.png,exp2.png,0,2,non-reversed,incorrect,0.4698587320149298,0,valid_lose,493.39171750005335,42,,,,,,,,,,,,,,,,sub_118,2023-04-07_11h47.38.818,Reversal,2022.1.2,60.04581478826242,2,
19,exp3.png,exp4.png,,,,,,,,,,,,,,,,,,0,0,0,0,0,19,19,19,,,,,,,,,False,19,80,False,exp3.png,exp4.png,trial_right_image,-1,exp4.png,2,exp4.png,exp3.png,0,4,reversed,correct,0.05459159108025091,0,invalid_lose,498.57486589998007,42,,,,,,,,,,,,,,,,sub_118,2023-04-07_11h47.38.818,Reversal,2022.1.2,60.04581478826242,2,
20,exp1.png,exp2.png,,,,,,,,,,,,,,,,,,0,0,0,0,0,20,20,20,,,,,,,,,True,,,,,,,,,,,,,,,,,,,,,,,,,,,,,,,,,,,,sub_118,2023-04-07_11h47.38.818,Reversal,2022.1.2,60.04581478826242,2,
,,,exp1.png,,,,,,,,,,,,,,,,,0,0,0,0,,,,,0,0,0,0,0,0,0,0,,,,,,,,,,,,,,,,,,,,,,83.0,83.0,2.407702699303627,"[(83.0, 2.407702699303627)]",584.0563334999606,None,,,,,,,,,,sub_118,2023-04-07_11h47.38.818,Reversal,2022.1.2,60.04581478826242,2,
,,,exp2.png,,,,,,,,,,,,,,,,,0,0,0,0,,,,,0,0,0,0,0,1,1,1,,,,,,,,,,,,,,,,,,,,,,,21.0,1.834294400177896,"[(21.0, 1.834294400177896)]",587.457884600386,None,21.0,,,,,,,,,sub_118,2023-04-07_11h47.38.818,Reversal,2022.1.2,60.04581478826242,2,
,,,exp3.png,,,,,,,,,,,,,,,,,0,0,0,0,,,,,0,0,0,0,0,2,2,2,,,,,,,,,,,,,,,,,,,,,,,23.0,2.0832991003990173,"[(23.0, 2.0832991003990173)]",590.3133439002559,None,,23.0,,,,,,,,sub_118,2023-04-07_11h47.38.818,Reversal,2022.1.2,60.04581478826242,2,
,,,exp4.png,,,,,,,,,,,,,,,,,0,0,0,0,,,,,0,0,0,0,0,3,3,3,,,,,,,,,,,,,,,,,,,,,,,83.0,1.2517082002013922,"[(83.0, 1.2517082002013922)]",593.2762869000435,None,,,83.0,,,,,,,sub_118,2023-04-07_11h47.38.818,Reversal,2022.1.2,60.04581478826242,2,
0,exp1.png,exp2.png,,,,,,,,,,,,,,,,,,1,0,1,0,0,0,0,0,,,,,,,,,False,20,81,False,exp1.png,exp2.png,trial_left_image,1,exp1.png,2,exp1.png,exp2.png,1,1,non-reversed,correct,0.17397656572029851,0,invalid_lose,514.7414552997798,42,,,,,,,,,,,,,,,,sub_118,2023-04-07_11h47.38.818,Reversal,2022.1.2,60.04581478826242,2,
1,exp3.png,exp4.png,,,,,,,,,,,,,,,,,,1,0,1,0,0,1,1,1,,,,,,,,,False,21,82,False,exp3.png,exp4.png,trial_left_image,1,exp3.png,2,exp4.png,exp3.png,1,3,reversed,incorrect,0.0513308766744468,1,invalid_win,519.5914229992777,43,,,,,,,,,,,,,,,,sub_118,2023-04-07_11h47.38.818,Reversal,2022.1.2,60.04581478826242,2,
2,exp1.png,exp2.png,,,,,,,,,,,,,,,,,,1,0,1,0,0,2,2,2,,,,,,,,,False,22,83,True,exp2.png,exp1.png,trial_right_image,-1,exp1.png,2,exp1.png,exp2.png,1,1,non-reversed,correct,0.4236403352995104,1,valid_win,525.2916353000328,44,,,,,,,,,,,,,,,,sub_118,2023-04-07_11h47.38.818,Reversal,2022.1.2,60.04581478826242,2,
3,exp3.png,exp4.png,,,,,,,,,,,,,,,,,,1,0,1,0,0,3,3,3,,,,,,,,,False,23,84,False,exp3.png,exp4.png,trial_left_image,1,exp3.png,2,exp4.png,exp3.png,1,3,reversed,incorrect,0.6085336621171068,0,valid_lose,529.4414243996143,44,,,,,,,,,,,,,,,,sub_118,2023-04-07_11h47.38.818,Reversal,2022.1.2,60.04581478826242,2,
4,exp1.png,exp2.png,,,,,,,,,,,,,,,,,,1,0,1,0,0,4,4,4,,,,,,,,,False,24,85,True,exp2.png,exp1.png,trial_right_image,-1,exp1.png,2,exp1.png,exp2.png,1,1,non-reversed,correct,0.17050194209782044,0,invalid_lose,533.991319200024,44,,,,,,,,,,,,,,,,sub_118,2023-04-07_11h47.38.818,Reversal,2022.1.2,60.04581478826242,2,
5,exp3.png,exp4.png,,,,,,,,,,,,,,,,,,1,0,1,0,0,5,5,5,,,,,,,,,False,25,86,False,exp3.png,exp4.png,trial_left_image,1,exp3.png,2,exp4.png,exp3.png,1,3,reversed,incorrect,0.3750137160001029,0,valid_lose,540.4243220994249,44,,,,,,,,,,,,,,,,sub_118,2023-04-07_11h47.38.818,Reversal,2022.1.2,60.04581478826242,2,
6,exp1.png,exp2.png,,,,,,,,,,,,,,,,,,1,0,1,0,0,6,6,6,,,,,,,,,False,26,87,True,exp2.png,exp1.png,trial_left_image,1,exp2.png,2,exp1.png,exp2.png,0,2,non-reversed,incorrect,0.48274137841592113,0,valid_lose,545.1243661995977,44,,,,,,,,,,,,,,,,sub_118,2023-04-07_11h47.38.818,Reversal,2022.1.2,60.04581478826242,2,
7,exp3.png,exp4.png,,,,,,,,,,,,,,,,,,1,0,1,0,0,7,7,7,,,,,,,,,False,27,88,True,exp4.png,exp3.png,trial_left_image,1,exp4.png,2,exp4.png,exp3.png,0,4,reversed,correct,0.7925078184634341,1,valid_win,550.2595997992903,45,,,,,,,,,,,,,,,,sub_118,2023-04-07_11h47.38.818,Reversal,2022.1.2,60.04581478826242,2,
8,exp1.png,exp2.png,,,,,,,,,,,,,,,,,,1,0,1,0,0,8,8,8,,,,,,,,,False,28,89,True,exp2.png,exp1.png,trial_right_image,-1,exp1.png,2,exp1.png,exp2.png,1,1,non-reversed,correct,0.3829728627876241,1,valid_win,556.1909638000652,46,,,,,,,,,,,,,,,,sub_118,2023-04-07_11h47.38.818,Reversal,2022.1.2,60.04581478826242,2,
9,exp3.png,exp4.png,,,,,,,,,,,,,,,,,,1,0,1,0,0,9,9,9,,,,,,,,,False,29,90,False,exp3.png,exp4.png,trial_right_image,-1,exp4.png,2,exp4.png,exp3.png,0,4,reversed,correct,0.7600201469844649,1,valid_win,560.4905709000304,47,,,,,,,,,,,,,,,,sub_118,2023-04-07_11h47.38.818,Reversal,2022.1.2,60.04581478826242,2,
10,exp1.png,exp2.png,,,,,,,,,,,,,,,,,,1,0,1,0,0,10,10,10,,,,,,,,,False,30,91,False,exp1.png,exp2.png,trial_left_image,1,exp1.png,2,exp1.png,exp2.png,1,1,non-reversed,correct,0.7365148756186587,1,valid_win,564.7405489999801,48,,,,,,,,,,,,,,,,sub_118,2023-04-07_11h47.38.818,Reversal,2022.1.2,60.04581478826242,2,
11,exp3.png,exp4.png,,,,,,,,,,,,,,,,,,1,0,1,0,0,11,11,11,,,,,,,,,False,31,92,True,exp4.png,exp3.png,trial_left_image,1,exp4.png,2,exp4.png,exp3.png,0,4,reversed,correct,0.0066403468784621555,0,invalid_lose,568.9737064000219,48,,,,,,,,,,,,,,,,sub_118,2023-04-07_11h47.38.818,Reversal,2022.1.2,60.04581478826242,2,
12,exp1.png,exp2.png,,,,,,,,,,,,,,,,,,1,0,1,0,0,12,12,12,,,,,,,,,False,32,93,True,exp2.png,exp1.png,trial_right_image,-1,exp1.png,2,exp1.png,exp2.png,1,1,non-reversed,correct,0.47954531212142737,1,valid_win,574.2069937000051,49,,,,,,,,,,,,,,,,sub_118,2023-04-07_11h47.38.818,Reversal,2022.1.2,60.04581478826242,2,
13,exp3.png,exp4.png,,,,,,,,,,,,,,,,,,1,0,1,0,0,13,13,13,,,,,,,,,False,33,94,True,exp4.png,exp3.png,trial_right_image,-1,exp3.png,2,exp4.png,exp3.png,1,3,reversed,incorrect,0.20631457087790395,1,invalid_win,578.4237182997167,50,,,,,,,,,,,,,,,,sub_118,2023-04-07_11h47.38.818,Reversal,2022.1.2,60.04581478826242,2,
14,exp1.png,exp2.png,,,,,,,,,,,,,,,,,,1,0,1,0,0,14,14,14,,,,,,,,,False,34,95,False,exp1.png,exp2.png,trial_left_image,1,exp1.png,2,exp1.png,exp2.png,1,1,non-reversed,correct,0.71363451145392,1,valid_win,582.8571339994669,51,,,,,,,,,,,,,,,,sub_118,2023-04-07_11h47.38.818,Reversal,2022.1.2,60.04581478826242,2,
15,exp3.png,exp4.png,,,,,,,,,,,,,,,,,,1,0,1,0,0,15,15,15,,,,,,,,,False,35,96,False,exp3.png,exp4.png,trial_left_image,1,exp3.png,2,exp4.png,exp3.png,1,3,reversed,incorrect,0.5881479179347238,0,valid_lose,586.940257399343,51,,,,,,,,,,,,,,,,sub_118,2023-04-07_11h47.38.818,Reversal,2022.1.2,60.04581478826242,2,
16,exp1.png,exp2.png,,,,,,,,,,,,,,,,,,1,0,1,0,0,16,16,16,,,,,,,,,False,36,97,False,exp1.png,exp2.png,trial_left_image,1,exp1.png,2,exp1.png,exp2.png,1,1,non-reversed,correct,0.5437370885887498,1,valid_win,591.8734262995422,52,,,,,,,,,,,,,,,,sub_118,2023-04-07_11h47.38.818,Reversal,2022.1.2,60.04581478826242,2,
17,exp3.png,exp4.png,,,,,,,,,,,,,,,,,,1,0,1,0,0,17,17,17,,,,,,,,,False,37,98,True,exp4.png,exp3.png,trial_right_image,-1,exp3.png,2,exp4.png,exp3.png,1,3,reversed,incorrect,0.5766615199558383,0,valid_lose,596.3072151001543,52,,,,,,,,,,,,,,,,sub_118,2023-04-07_11h47.38.818,Reversal,2022.1.2,60.04581478826242,2,
18,exp1.png,exp2.png,,,,,,,,,,,,,,,,,,1,0,1,0,0,18,18,18,,,,,,,,,False,38,99,False,exp1.png,exp2.png,trial_left_image,1,exp1.png,2,exp1.png,exp2.png,1,1,non-reversed,correct,0.14943982483861085,0,invalid_lose,600.6231642998755,52,,,,,,,,,,,,,,,,sub_118,2023-04-07_11h47.38.818,Reversal,2022.1.2,60.04581478826242,2,
19,exp3.png,exp4.png,,,,,,,,,,,,,,,,,,1,0,1,0,0,19,19,19,,,,,,,,,False,39,100,True,exp4.png,exp3.png,trial_left_image,1,exp4.png,2,exp4.png,exp3.png,0,4,reversed,correct,0.2477375373427514,0,invalid_lose,605.0398352993652,52,,,,,,,,,,,,,,,,sub_118,2023-04-07_11h47.38.818,Reversal,2022.1.2,60.04581478826242,2,
20,exp1.png,exp2.png,,,,,,,,,,,,,,,,,,1,0,1,0,0,20,20,20,,,,,,,,,True,,,,,,,,,,,,,,,,,,,,,,,,,,,,,,,,,,,,sub_118,2023-04-07_11h47.38.818,Reversal,2022.1.2,60.04581478826242,2,
,,,exp1.png,,,,,,,,,,,,,,,,,1,0,1,0,,,,,0,0,0,0,0,0,0,0,,,,,,,,,,,,,,,,,,,,,,85.0,85.0,2.488701299764216,"[(85.0, 2.488701299764216)]",690.5204652007669,None,,,,,,,,,,sub_118,2023-04-07_11h47.38.818,Reversal,2022.1.2,60.04581478826242,2,
,,,exp2.png,,,,,,,,,,,,,,,,,1,0,1,0,,,,,0,0,0,0,0,1,1,1,,,,,,,,,,,,,,,,,,,,,,,14.0,2.101257799193263,"[(14.0, 2.101257799193263)]",693.9244754007086,None,14.0,,,,,,,,,sub_118,2023-04-07_11h47.38.818,Reversal,2022.1.2,60.04581478826242,2,
,,,exp3.png,,,,,,,,,,,,,,,,,1,0,1,0,,,,,0,0,0,0,0,2,2,2,,,,,,,,,,,,,,,,,,,,,,,35.0,3.267060300335288,"[(55.0, 2.3163245003670454), (35.0, 3.267060300335288)]",697.0900753000751,None,,35.0,,,,,,,,sub_118,2023-04-07_11h47.38.818,Reversal,2022.1.2,60.04581478826242,2,
,,,exp4.png,,,,,,,,,,,,,,,,,1,0,1,0,,,,,0,0,0,0,0,3,3,3,,,,,,,,,,,,,,,,,,,,,,,78.0,1.0502489004284143,"[(78.0, 1.0502489004284143)]",701.2098727999255,None,,,78.0,,,,,,,sub_118,2023-04-07_11h47.38.818,Reversal,2022.1.2,60.04581478826242,2,
0,exp1.png,exp2.png,,,,,,,,,,,,,,,,,,2,0,2,0,0,0,0,0,,,,,,,,,False,40,101,True,exp2.png,exp1.png,trial_right_image,-1,exp1.png,2,exp1.png,exp2.png,1,1,non-reversed,correct,0.12700472676183594,0,invalid_lose,622.256622299552,52,,,,,,,,,,,,,,,,sub_118,2023-04-07_11h47.38.818,Reversal,2022.1.2,60.04581478826242,2,
1,exp3.png,exp4.png,,,,,,,,,,,,,,,,,,2,0,2,0,0,1,1,1,,,,,,,,,False,41,102,False,exp3.png,exp4.png,trial_left_image,1,exp3.png,2,exp4.png,exp3.png,1,3,reversed,incorrect,0.6547137548945623,0,valid_lose,627.2227932997048,52,,,,,,,,,,,,,,,,sub_118,2023-04-07_11h47.38.818,Reversal,2022.1.2,60.04581478826242,2,
2,exp1.png,exp2.png,,,,,,,,,,,,,,,,,,2,0,2,0,0,2,2,2,,,,,,,,,False,42,103,False,exp1.png,exp2.png,trial_right_image,-1,exp2.png,2,exp1.png,exp2.png,0,2,non-reversed,incorrect,0.25965535898286485,0,valid_lose,632.275920599699,52,,,,,,,,,,,,,,,,sub_118,2023-04-07_11h47.38.818,Reversal,2022.1.2,60.04581478826242,2,
3,exp3.png,exp4.png,,,,,,,,,,,,,,,,,,2,0,2,0,0,3,3,3,,,,,,,,,False,43,104,False,exp3.png,exp4.png,trial_right_image,-1,exp4.png,2,exp4.png,exp3.png,0,4,reversed,correct,0.30138763269238134,1,valid_win,636.572543299757,53,,,,,,,,,,,,,,,,sub_118,2023-04-07_11h47.38.818,Reversal,2022.1.2,60.04581478826242,2,
4,exp1.png,exp2.png,,,,,,,,,,,,,,,,,,2,0,2,0,0,4,4,4,,,,,,,,,False,44,105,False,exp1.png,exp2.png,trial_left_image,1,exp1.png,2,exp1.png,exp2.png,1,1,non-reversed,correct,0.48662039724025175,1,valid_win,641.0058979997411,54,,,,,,,,,,,,,,,,sub_118,2023-04-07_11h47.38.818,Reversal,2022.1.2,60.04581478826242,2,
5,exp3.png,exp4.png,,,,,,,,,,,,,,,,,,2,0,2,0,0,5,5,5,,,,,,,,,False,45,106,True,exp4.png,exp3.png,trial_left_image,1,exp4.png,2,exp4.png,exp3.png,0,4,reversed,correct,0.3100161513306291,1,valid_win,647.3390512997285,55,,,,,,,,,,,,,,,,sub_118,2023-04-07_11h47.38.818,Reversal,2022.1.2,60.04581478826242,2,
6,exp1.png,exp2.png,,,,,,,,,,,,,,,,,,2,0,2,0,0,6,6,6,,,,,,,,,False,46,107,False,exp1.png,exp2.png,trial_left_image,1,exp1.png,2,exp1.png,exp2.png,1,1,non-reversed,correct,0.16266267883565466,0,invalid_lose,652.7888794997707,55,,,,,,,,,,,,,,,,sub_118,2023-04-07_11h47.38.818,Reversal,2022.1.2,60.04581478826242,2,
7,exp3.png,exp4.png,,,,,,,,,,,,,,,,,,2,0,2,0,0,7,7,7,,,,,,,,,False,47,108,True,exp4.png,exp3.png,trial_left_image,1,exp4.png,2,exp4.png,exp3.png,0,4,reversed,correct,0.9022787264142773,1,valid_win,657.0386980995536,56,,,,,,,,,,,,,,,,sub_118,2023-04-07_11h47.38.818,Reversal,2022.1.2,60.04581478826242,2,
8,exp1.png,exp2.png,,,,,,,,,,,,,,,,,,2,0,2,0,0,8,8,8,,,,,,,,,False,48,109,True,exp2.png,exp1.png,trial_right_image,-1,exp1.png,2,exp1.png,exp2.png,1,1,non-reversed,correct,0.05621656662701524,0,invalid_lose,661.4061864996329,56,,,,,,,,,,,,,,,,sub_118,2023-04-07_11h47.38.818,Reversal,2022.1.2,60.04581478826242,2,
9,exp3.png,exp4.png,,,,,,,,,,,,,,,,,,2,0,2,0,0,9,9,9,,,,,,,,,False,49,110,False,exp3.png,exp4.png,trial_left_image,1,exp3.png,2,exp4.png,exp3.png,1,3,reversed,incorrect,0.25624871801332616,0,valid_lose,665.5059014996514,56,,,,,,,,,,,,,,,,sub_118,2023-04-07_11h47.38.818,Reversal,2022.1.2,60.04581478826242,2,
10,exp1.png,exp2.png,,,,,,,,,,,,,,,,,,2,0,2,0,0,10,10,10,,,,,,,,,False,50,111,True,exp2.png,exp1.png,trial_right_image,-1,exp1.png,2,exp1.png,exp2.png,1,1,non-reversed,correct,0.1706840630731875,0,invalid_lose,669.9553455999121,56,,,,,,,,,,,,,,,,sub_118,2023-04-07_11h47.38.818,Reversal,2022.1.2,60.04581478826242,2,
11,exp3.png,exp4.png,,,,,,,,,,,,,,,,,,2,0,2,0,0,11,11,11,,,,,,,,,False,51,112,False,exp3.png,exp4.png,trial_right_image,-1,exp4.png,2,exp4.png,exp3.png,0,4,reversed,correct,0.14968351131235225,0,invalid_lose,674.4721989994869,56,,,,,,,,,,,,,,,,sub_118,2023-04-07_11h47.38.818,Reversal,2022.1.2,60.04581478826242,2,
12,exp1.png,exp2.png,,,,,,,,,,,,,,,,,,2,0,2,0,0,12,12,12,,,,,,,,,False,52,113,True,exp2.png,exp1.png,trial_left_image,1,exp2.png,2,exp1.png,exp2.png,0,2,non-reversed,incorrect,0.5880833973381102,0,valid_lose,678.7718019001186,56,,,,,,,,,,,,,,,,sub_118,2023-04-07_11h47.38.818,Reversal,2022.1.2,60.04581478826242,2,
13,exp3.png,exp4.png,,,,,,,,,,,,,,,,,,2,0,2,0,0,13,13,13,,,,,,,,,False,53,114,True,exp4.png,exp3.png,trial_left_image,1,exp4.png,2,exp4.png,exp3.png,0,4,reversed,correct,0.9902834674374902,1,valid_win,683.1228588996455,57,,,,,,,,,,,,,,,,sub_118,2023-04-07_11h47.38.818,Reversal,2022.1.2,60.04581478826242,2,
14,exp1.png,exp2.png,,,,,,,,,,,,,,,,,,2,0,2,0,0,14,14,14,,,,,,,,,False,54,115,True,exp2.png,exp1.png,trial_right_image,-1,exp1.png,2,exp1.png,exp2.png,1,1,non-reversed,correct,0.839932572772218,1,valid_win,687.4882968999445,58,,,,,,,,,,,,,,,,sub_118,2023-04-07_11h47.38.818,Reversal,2022.1.2,60.04581478826242,2,
15,exp3.png,exp4.png,,,,,,,,,,,,,,,,,,2,0,2,0,0,15,15,15,,,,,,,,,False,55,116,False,exp3.png,exp4.png,trial_right_image,-1,exp4.png,2,exp4.png,exp3.png,0,4,reversed,correct,0.1533128586434669,0,invalid_lose,692.4382234998047,58,,,,,,,,,,,,,,,,sub_118,2023-04-07_11h47.38.818,Reversal,2022.1.2,60.04581478826242,2,
16,exp1.png,exp2.png,,,,,,,,,,,,,,,,,,2,0,2,0,0,16,16,16,,,,,,,,,False,56,117,True,exp2.png,exp1.png,trial_right_image,-1,exp1.png,2,exp1.png,exp2.png,1,1,non-reversed,correct,0.6518253972627959,1,valid_win,697.0218146992847,59,,,,,,,,,,,,,,,,sub_118,2023-04-07_11h47.38.818,Reversal,2022.1.2,60.04581478826242,2,
17,exp3.png,exp4.png,,,,,,,,,,,,,,,,,,2,0,2,0,0,17,17,17,,,,,,,,,False,57,118,False,exp3.png,exp4.png,trial_left_image,1,exp3.png,2,exp4.png,exp3.png,1,3,reversed,incorrect,0.19960715945718077,1,invalid_win,701.7213081000373,60,,,,,,,,,,,,,,,,sub_118,2023-04-07_11h47.38.818,Reversal,2022.1.2,60.04581478826242,2,
18,exp1.png,exp2.png,,,,,,,,,,,,,,,,,,2,0,2,0,0,18,18,18,,,,,,,,,False,58,119,True,exp2.png,exp1.png,trial_right_image,-1,exp1.png,2,exp1.png,exp2.png,1,1,non-reversed,correct,0.7550413664922684,1,valid_win,706.5046598995104,61,,,,,,,,,,,,,,,,sub_118,2023-04-07_11h47.38.818,Reversal,2022.1.2,60.04581478826242,2,
19,exp3.png,exp4.png,,,,,,,,,,,,,,,,,,2,0,2,0,0,19,19,19,,,,,,,,,False,59,120,False,exp3.png,exp4.png,trial_left_image,1,exp3.png,2,exp4.png,exp3.png,1,3,reversed,incorrect,0.6606074399608743,0,valid_lose,710.5379796000198,61,,,,,,,,,,,,,,,,sub_118,2023-04-07_11h47.38.818,Reversal,2022.1.2,60.04581478826242,2,
20,exp1.png,exp2.png,,,,,,,,,,,,,,,,,,2,0,2,0,0,20,20,20,,,,,,,,,True,,,,,,,,,,,,,,,,,,,,,,,,,,,,,,,,,,,,sub_118,2023-04-07_11h47.38.818,Reversal,2022.1.2,60.04581478826242,2,
,,,exp1.png,,,,,,,,,,,,,,,,,2,0,2,0,,,,,0,0,0,0,0,0,0,0,,,,,,,,,,,,,,,,,,,,,,72.0,72.0,1.8252233006060123,"[(72.0, 1.8252233006060123)]",796.0327115999535,None,,,,,,,,,,sub_118,2023-04-07_11h47.38.818,Reversal,2022.1.2,60.04581478826242,2,
,,,exp2.png,,,,,,,,,,,,,,,,,2,0,2,0,,,,,0,0,0,0,0,1,1,1,,,,,,,,,,,,,,,,,,,,,,,25.0,1.0856424001976848,"[(25.0, 1.0856424001976848)]",798.7045135004446,None,25.0,,,,,,,,,sub_118,2023-04-07_11h47.38.818,Reversal,2022.1.2,60.04581478826242,2,
,,,exp3.png,,,,,,,,,,,,,,,,,2,0,2,0,,,,,0,0,0,0,0,2,2,2,,,,,,,,,,,,,,,,,,,,,,,62.0,2.884305300191045,"[(62.0, 2.884305300191045)]",800.687925000675,None,,62.0,,,,,,,,sub_118,2023-04-07_11h47.38.818,Reversal,2022.1.2,60.04581478826242,2,
,,,exp4.png,,,,,,,,,,,,,,,,,2,0,2,0,,,,,0,0,0,0,0,3,3,3,,,,,,,,,,,,,,,,,,,,,,,38.0,1.2671165997162461,"[(38.0, 1.2671165997162461)]",804.4899395005777,None,,,38.0,,,,,,,sub_118,2023-04-07_11h47.38.818,Reversal,2022.1.2,60.04581478826242,2,
,,,,,,,,,,,,,,,,,,,,,,,,,,,,,,,,,,,,,,,,,,,,,,,,,,,,,,,,61,,,,,,,,,,,84,43,41,319.89511949941516,0,,,,,,,
