trial_index,trial_image1_file,trial_image2_file,image_file,learning_outer_loop.thisRepN,learning_outer_loop.thisTrialN,learning_outer_loop.thisN,learning_outer_loop.thisIndex,learning_inner_loop.thisRepN,learning_inner_loop.thisTrialN,learning_inner_loop.thisN,learning_inner_loop.thisIndex,learning_estimation_outer_loop.thisRepN,learning_estimation_outer_loop.thisTrialN,learning_estimation_outer_loop.thisN,learning_estimation_outer_loop.thisIndex,learning_estimation_inner_loop.thisRepN,learning_estimation_inner_loop.thisTrialN,learning_estimation_inner_loop.thisN,learning_estimation_inner_loop.thisIndex,reversal_outer_loop.thisRepN,reversal_outer_loop.thisTrialN,reversal_outer_loop.thisN,reversal_outer_loop.thisIndex,reversal_inner_loop.thisRepN,reversal_inner_loop.thisTrialN,reversal_inner_loop.thisN,reversal_inner_loop.thisIndex,reversal_estimation_outer_loop.thisRepN,reversal_estimation_outer_loop.thisTrialN,reversal_estimation_outer_loop.thisN,reversal_estimation_outer_loop.thisIndex,reversal_estimation_inner_loop.thisRepN,reversal_estimation_inner_loop.thisTrialN,reversal_estimation_inner_loop.thisN,reversal_estimation_inner_loop.thisIndex,skipped,total_trial_counter,trial_num,left_right_flip,left_image_file,right_image_file,clicked_stimulus_side,side,clicked_stimulus,version,high_prob_image_file,low_prob_image_file,choice_a,choice_b,pair_type,correct,trial_feedback_random,reward,trial_type,overall_time_after_trial,score,estimation_rating.started,estimation_rating.response,estimation_rating.rt,estimation_rating.history,estimation_exp1.png,total_learning_time,total_correct,learning_correct,reversal_correct,total_reversal_time,extra_block,end_experiment.keys,end_experiment.rt,end_experiment.duration,participant,date,expName,psychopyVersion,frameRate,ver,
0,exp1.png,exp2.png,,0,0,0,0,0,0,0,0,,,,,,,,,,,,,,,,,,,,,,,,,True,,,,,,,,,,,,,,,,,,,,,,,,,,,,,,,,,,,sub_450,2024-03-24_10h23.41.686,Reversal,2023.1.3,59.86980711579947,2,
1,exp3.png,exp4.png,,0,0,0,0,0,1,1,1,,,,,,,,,,,,,,,,,,,,,,,,,False,0,1,True,exp4.png,exp3.png,trial_right_image,-1,exp3.png,2,exp3.png,exp4.png,1,3,reversed,correct,0.41317468910214583,1,valid_win,4.84677040000679,1,,,,,,,,,,,,,,,sub_450,2024-03-24_10h23.41.686,Reversal,2023.1.3,59.86980711579947,2,
2,exp1.png,exp2.png,,0,0,0,0,0,2,2,2,,,,,,,,,,,,,,,,,,,,,,,,,False,1,2,True,exp2.png,exp1.png,trial_left_image,1,exp2.png,2,exp1.png,exp2.png,0,2,non-reversed,incorrect,0.9819287610375005,0,valid_lose,9.995252199994866,1,,,,,,,,,,,,,,,sub_450,2024-03-24_10h23.41.686,Reversal,2023.1.3,59.86980711579947,2,
3,exp3.png,exp4.png,,0,0,0,0,0,3,3,3,,,,,,,,,,,,,,,,,,,,,,,,,False,2,3,False,exp3.png,exp4.png,trial_right_image,-1,exp4.png,2,exp3.png,exp4.png,0,4,reversed,incorrect,0.96528311538311,0,valid_lose,14.393863000004785,1,,,,,,,,,,,,,,,sub_450,2024-03-24_10h23.41.686,Reversal,2023.1.3,59.86980711579947,2,
4,exp1.png,exp2.png,,0,0,0,0,0,4,4,4,,,,,,,,,,,,,,,,,,,,,,,,,False,3,4,True,exp2.png,exp1.png,trial_right_image,-1,exp1.png,2,exp1.png,exp2.png,1,1,non-reversed,correct,0.26397548676190086,1,valid_win,18.72561449999921,2,,,,,,,,,,,,,,,sub_450,2024-03-24_10h23.41.686,Reversal,2023.1.3,59.86980711579947,2,
5,exp3.png,exp4.png,,0,0,0,0,0,5,5,5,,,,,,,,,,,,,,,,,,,,,,,,,False,4,5,False,exp3.png,exp4.png,trial_left_image,1,exp3.png,2,exp3.png,exp4.png,1,3,reversed,correct,0.6452053969216427,1,valid_win,26.923102000000654,3,,,,,,,,,,,,,,,sub_450,2024-03-24_10h23.41.686,Reversal,2023.1.3,59.86980711579947,2,
6,exp1.png,exp2.png,,0,0,0,0,0,6,6,6,,,,,,,,,,,,,,,,,,,,,,,,,False,5,6,False,exp1.png,exp2.png,trial_right_image,-1,exp2.png,2,exp1.png,exp2.png,0,2,non-reversed,incorrect,0.9786638269050408,0,valid_lose,31.77128270000685,3,,,,,,,,,,,,,,,sub_450,2024-03-24_10h23.41.686,Reversal,2023.1.3,59.86980711579947,2,
7,exp3.png,exp4.png,,0,0,0,0,0,7,7,7,,,,,,,,,,,,,,,,,,,,,,,,,False,6,7,False,exp3.png,exp4.png,trial_right_image,-1,exp4.png,2,exp3.png,exp4.png,0,4,reversed,incorrect,0.10773325544782864,1,invalid_win,35.703247600002214,4,,,,,,,,,,,,,,,sub_450,2024-03-24_10h23.41.686,Reversal,2023.1.3,59.86980711579947,2,
8,exp1.png,exp2.png,,0,0,0,0,0,8,8,8,,,,,,,,,,,,,,,,,,,,,,,,,False,7,8,False,exp1.png,exp2.png,trial_left_image,1,exp1.png,2,exp1.png,exp2.png,1,1,non-reversed,correct,0.41385132799717717,1,valid_win,39.701843199989526,5,,,,,,,,,,,,,,,sub_450,2024-03-24_10h23.41.686,Reversal,2023.1.3,59.86980711579947,2,
9,exp3.png,exp4.png,,0,0,0,0,0,9,9,9,,,,,,,,,,,,,,,,,,,,,,,,,False,8,9,False,exp3.png,exp4.png,trial_left_image,1,exp3.png,2,exp3.png,exp4.png,1,3,reversed,correct,0.24949445595325515,0,invalid_lose,43.55045820001396,5,,,,,,,,,,,,,,,sub_450,2024-03-24_10h23.41.686,Reversal,2023.1.3,59.86980711579947,2,
10,exp1.png,exp2.png,,0,0,0,0,0,10,10,10,,,,,,,,,,,,,,,,,,,,,,,,,False,9,10,False,exp1.png,exp2.png,trial_right_image,-1,exp2.png,2,exp1.png,exp2.png,0,2,non-reversed,incorrect,0.703833103421671,0,valid_lose,47.3993269999919,5,,,,,,,,,,,,,,,sub_450,2024-03-24_10h23.41.686,Reversal,2023.1.3,59.86980711579947,2,
11,exp3.png,exp4.png,,0,0,0,0,0,11,11,11,,,,,,,,,,,,,,,,,,,,,,,,,False,10,11,False,exp3.png,exp4.png,trial_left_image,1,exp3.png,2,exp3.png,exp4.png,1,3,reversed,correct,0.808760008190308,1,valid_win,51.414905799989356,6,,,,,,,,,,,,,,,sub_450,2024-03-24_10h23.41.686,Reversal,2023.1.3,59.86980711579947,2,
12,exp1.png,exp2.png,,0,0,0,0,0,12,12,12,,,,,,,,,,,,,,,,,,,,,,,,,False,11,12,True,exp2.png,exp1.png,trial_right_image,-1,exp1.png,2,exp1.png,exp2.png,1,1,non-reversed,correct,0.16975931609851147,0,invalid_lose,55.346381500014104,6,,,,,,,,,,,,,,,sub_450,2024-03-24_10h23.41.686,Reversal,2023.1.3,59.86980711579947,2,
13,exp3.png,exp4.png,,0,0,0,0,0,13,13,13,,,,,,,,,,,,,,,,,,,,,,,,,False,12,13,True,exp4.png,exp3.png,trial_left_image,1,exp4.png,2,exp3.png,exp4.png,0,4,reversed,incorrect,0.07581403292161848,1,invalid_win,59.32843260001391,7,,,,,,,,,,,,,,,sub_450,2024-03-24_10h23.41.686,Reversal,2023.1.3,59.86980711579947,2,
14,exp1.png,exp2.png,,0,0,0,0,0,14,14,14,,,,,,,,,,,,,,,,,,,,,,,,,False,13,14,True,exp2.png,exp1.png,trial_right_image,-1,exp1.png,2,exp1.png,exp2.png,1,1,non-reversed,correct,0.7137228828698676,1,valid_win,63.19378490000963,8,,,,,,,,,,,,,,,sub_450,2024-03-24_10h23.41.686,Reversal,2023.1.3,59.86980711579947,2,
15,exp3.png,exp4.png,,0,0,0,0,0,15,15,15,,,,,,,,,,,,,,,,,,,,,,,,,False,14,15,True,exp4.png,exp3.png,trial_right_image,-1,exp3.png,2,exp3.png,exp4.png,1,3,reversed,correct,0.40694135579272794,1,valid_win,67.1609763999877,9,,,,,,,,,,,,,,,sub_450,2024-03-24_10h23.41.686,Reversal,2023.1.3,59.86980711579947,2,
16,exp1.png,exp2.png,,0,0,0,0,0,16,16,16,,,,,,,,,,,,,,,,,,,,,,,,,False,15,16,False,exp1.png,exp2.png,trial_left_image,1,exp1.png,2,exp1.png,exp2.png,1,1,non-reversed,correct,0.8163654388374839,1,valid_win,71.19106509999256,10,,,,,,,,,,,,,,,sub_450,2024-03-24_10h23.41.686,Reversal,2023.1.3,59.86980711579947,2,
17,exp3.png,exp4.png,,0,0,0,0,0,17,17,17,,,,,,,,,,,,,,,,,,,,,,,,,False,16,17,True,exp4.png,exp3.png,trial_right_image,-1,exp3.png,2,exp3.png,exp4.png,1,3,reversed,correct,0.1668674305994544,0,invalid_lose,75.0068797999993,10,,,,,,,,,,,,,,,sub_450,2024-03-24_10h23.41.686,Reversal,2023.1.3,59.86980711579947,2,
18,exp1.png,exp2.png,,0,0,0,0,0,18,18,18,,,,,,,,,,,,,,,,,,,,,,,,,False,17,18,True,exp2.png,exp1.png,trial_right_image,-1,exp1.png,2,exp1.png,exp2.png,1,1,non-reversed,correct,0.3634696952954386,1,valid_win,79.75493460000143,11,,,,,,,,,,,,,,,sub_450,2024-03-24_10h23.41.686,Reversal,2023.1.3,59.86980711579947,2,
19,exp3.png,exp4.png,,0,0,0,0,0,19,19,19,,,,,,,,,,,,,,,,,,,,,,,,,False,18,19,True,exp4.png,exp3.png,trial_right_image,-1,exp3.png,2,exp3.png,exp4.png,1,3,reversed,correct,0.8072141627607131,1,valid_win,83.72051499999361,12,,,,,,,,,,,,,,,sub_450,2024-03-24_10h23.41.686,Reversal,2023.1.3,59.86980711579947,2,
20,exp1.png,exp2.png,,0,0,0,0,0,20,20,20,,,,,,,,,,,,,,,,,,,,,,,,,False,19,20,False,exp1.png,exp2.png,trial_left_image,1,exp1.png,2,exp1.png,exp2.png,1,1,non-reversed,correct,0.19688902596894275,0,invalid_lose,88.38556170000811,12,,,,,,,,,,,,,,,sub_450,2024-03-24_10h23.41.686,Reversal,2023.1.3,59.86980711579947,2,
,,,exp1.png,0,0,0,0,,,,,0,0,0,0,0,0,0,0,,,,,,,,,,,,,,,,,,,,,,,,,,,,,,,,,,,,,,164.92815880000126,None,None,[],,,,,,,,,,,sub_450,2024-03-24_10h23.41.686,Reversal,2023.1.3,59.86980711579947,2,
,,,exp2.png,0,0,0,0,,,,,0,0,0,0,0,1,1,1,,,,,,,,,,,,,,,,,,,,,,,,,,,,,,,,,,,,,,175.33258410001872,None,None,[],,,,,,,,,,,sub_450,2024-03-24_10h23.41.686,Reversal,2023.1.3,59.86980711579947,2,
,,,exp3.png,0,0,0,0,,,,,0,0,0,0,0,2,2,2,,,,,,,,,,,,,,,,,,,,,,,,,,,,,,,,,,,,,,179.74483500001952,None,None,[],,,,,,,,,,,sub_450,2024-03-24_10h23.41.686,Reversal,2023.1.3,59.86980711579947,2,
,,,exp4.png,0,0,0,0,,,,,0,0,0,0,0,3,3,3,,,,,,,,,,,,,,,,,,,,,,,,,,,,,,,,,,,,,,183.56149300001562,None,None,[],,,,,,,,,,,sub_450,2024-03-24_10h23.41.686,Reversal,2023.1.3,59.86980711579947,2,
0,exp1.png,exp2.png,,1,0,1,0,0,0,0,0,,,,,,,,,,,,,,,,,,,,,,,,,True,,,,,,,,,,,,,,,,,,,,,,,,,,,,,,,,,,,sub_450,2024-03-24_10h23.41.686,Reversal,2023.1.3,59.86980711579947,2,
1,exp3.png,exp4.png,,1,0,1,0,0,1,1,1,,,,,,,,,,,,,,,,,,,,,,,,,False,20,21,False,exp3.png,exp4.png,trial_right_image,-1,exp4.png,2,exp3.png,exp4.png,0,4,reversed,incorrect,0.9657224275691022,0,valid_lose,115.30947810001089,12,,,,,,,,,,,,,,,sub_450,2024-03-24_10h23.41.686,Reversal,2023.1.3,59.86980711579947,2,
2,exp1.png,exp2.png,,1,0,1,0,0,2,2,2,,,,,,,,,,,,,,,,,,,,,,,,,False,21,22,False,exp1.png,exp2.png,trial_left_image,1,exp1.png,2,exp1.png,exp2.png,1,1,non-reversed,correct,0.32006872182258395,1,valid_win,119.42476669998723,13,,,,,,,,,,,,,,,sub_450,2024-03-24_10h23.41.686,Reversal,2023.1.3,59.86980711579947,2,
3,exp3.png,exp4.png,,1,0,1,0,0,3,3,3,,,,,,,,,,,,,,,,,,,,,,,,,False,22,23,False,exp3.png,exp4.png,trial_right_image,-1,exp4.png,2,exp3.png,exp4.png,0,4,reversed,incorrect,0.7290647534131433,0,valid_lose,123.44047160001355,13,,,,,,,,,,,,,,,sub_450,2024-03-24_10h23.41.686,Reversal,2023.1.3,59.86980711579947,2,
4,exp1.png,exp2.png,,1,0,1,0,0,4,4,4,,,,,,,,,,,,,,,,,,,,,,,,,False,23,24,False,exp1.png,exp2.png,trial_left_image,1,exp1.png,2,exp1.png,exp2.png,1,1,non-reversed,correct,0.9880978117935549,1,valid_win,127.63869809999596,14,,,,,,,,,,,,,,,sub_450,2024-03-24_10h23.41.686,Reversal,2023.1.3,59.86980711579947,2,
5,exp3.png,exp4.png,,1,0,1,0,0,5,5,5,,,,,,,,,,,,,,,,,,,,,,,,,False,24,25,True,exp4.png,exp3.png,trial_right_image,-1,exp3.png,2,exp3.png,exp4.png,1,3,reversed,correct,0.14535376650990506,0,invalid_lose,131.47100359998876,14,,,,,,,,,,,,,,,sub_450,2024-03-24_10h23.41.686,Reversal,2023.1.3,59.86980711579947,2,
6,exp1.png,exp2.png,,1,0,1,0,0,6,6,6,,,,,,,,,,,,,,,,,,,,,,,,,False,25,26,True,exp2.png,exp1.png,trial_right_image,-1,exp1.png,2,exp1.png,exp2.png,1,1,non-reversed,correct,0.24207591281547958,0,invalid_lose,135.2721826999914,14,,,,,,,,,,,,,,,sub_450,2024-03-24_10h23.41.686,Reversal,2023.1.3,59.86980711579947,2,
7,exp3.png,exp4.png,,1,0,1,0,0,7,7,7,,,,,,,,,,,,,,,,,,,,,,,,,False,26,27,False,exp3.png,exp4.png,trial_left_image,1,exp3.png,2,exp3.png,exp4.png,1,3,reversed,correct,0.34411153678911366,1,valid_win,139.18504250000115,15,,,,,,,,,,,,,,,sub_450,2024-03-24_10h23.41.686,Reversal,2023.1.3,59.86980711579947,2,
8,exp1.png,exp2.png,,1,0,1,0,0,8,8,8,,,,,,,,,,,,,,,,,,,,,,,,,False,27,28,True,exp2.png,exp1.png,trial_right_image,-1,exp1.png,2,exp1.png,exp2.png,1,1,non-reversed,correct,0.4940759562567064,1,valid_win,143.00015229999553,16,,,,,,,,,,,,,,,sub_450,2024-03-24_10h23.41.686,Reversal,2023.1.3,59.86980711579947,2,
9,exp3.png,exp4.png,,1,0,1,0,0,9,9,9,,,,,,,,,,,,,,,,,,,,,,,,,False,28,29,True,exp4.png,exp3.png,trial_right_image,-1,exp3.png,2,exp3.png,exp4.png,1,3,reversed,correct,0.040300679342912926,0,invalid_lose,147.19895749998977,16,,,,,,,,,,,,,,,sub_450,2024-03-24_10h23.41.686,Reversal,2023.1.3,59.86980711579947,2,
10,exp1.png,exp2.png,,1,0,1,0,0,10,10,10,,,,,,,,,,,,,,,,,,,,,,,,,False,29,30,True,exp2.png,exp1.png,trial_left_image,1,exp2.png,2,exp1.png,exp2.png,0,2,non-reversed,incorrect,0.5491311193346243,0,valid_lose,151.31425890000537,16,,,,,,,,,,,,,,,sub_450,2024-03-24_10h23.41.686,Reversal,2023.1.3,59.86980711579947,2,
11,exp3.png,exp4.png,,1,0,1,0,0,11,11,11,,,,,,,,,,,,,,,,,,,,,,,,,False,30,31,False,exp3.png,exp4.png,trial_right_image,-1,exp4.png,2,exp3.png,exp4.png,0,4,reversed,incorrect,0.06561711309050311,1,invalid_win,155.22909949999303,17,,,,,,,,,,,,,,,sub_450,2024-03-24_10h23.41.686,Reversal,2023.1.3,59.86980711579947,2,
12,exp1.png,exp2.png,,1,0,1,0,0,12,12,12,,,,,,,,,,,,,,,,,,,,,,,,,False,31,32,True,exp2.png,exp1.png,trial_right_image,-1,exp1.png,2,exp1.png,exp2.png,1,1,non-reversed,correct,0.38281725739145345,1,valid_win,159.19451480000862,18,,,,,,,,,,,,,,,sub_450,2024-03-24_10h23.41.686,Reversal,2023.1.3,59.86980711579947,2,
13,exp3.png,exp4.png,,1,0,1,0,0,13,13,13,,,,,,,,,,,,,,,,,,,,,,,,,False,32,33,False,exp3.png,exp4.png,trial_right_image,-1,exp4.png,2,exp3.png,exp4.png,0,4,reversed,incorrect,0.22369619805280094,1,invalid_win,163.0767441999924,19,,,,,,,,,,,,,,,sub_450,2024-03-24_10h23.41.686,Reversal,2023.1.3,59.86980711579947,2,
14,exp1.png,exp2.png,,1,0,1,0,0,14,14,14,,,,,,,,,,,,,,,,,,,,,,,,,False,33,34,True,exp2.png,exp1.png,trial_right_image,-1,exp1.png,2,exp1.png,exp2.png,1,1,non-reversed,correct,0.5178791460763614,1,valid_win,166.9417092000076,20,,,,,,,,,,,,,,,sub_450,2024-03-24_10h23.41.686,Reversal,2023.1.3,59.86980711579947,2,
15,exp3.png,exp4.png,,1,0,1,0,0,15,15,15,,,,,,,,,,,,,,,,,,,,,,,,,False,34,35,False,exp3.png,exp4.png,trial_right_image,-1,exp4.png,2,exp3.png,exp4.png,0,4,reversed,incorrect,0.991899003652967,0,valid_lose,170.80779140000232,20,,,,,,,,,,,,,,,sub_450,2024-03-24_10h23.41.686,Reversal,2023.1.3,59.86980711579947,2,
16,exp1.png,exp2.png,,1,0,1,0,0,16,16,16,,,,,,,,,,,,,,,,,,,,,,,,,False,35,36,True,exp2.png,exp1.png,trial_left_image,1,exp2.png,2,exp1.png,exp2.png,0,2,non-reversed,incorrect,0.16591686480030587,1,invalid_win,174.6894914000004,21,,,,,,,,,,,,,,,sub_450,2024-03-24_10h23.41.686,Reversal,2023.1.3,59.86980711579947,2,
17,exp3.png,exp4.png,,1,0,1,0,0,17,17,17,,,,,,,,,,,,,,,,,,,,,,,,,False,36,37,False,exp3.png,exp4.png,trial_left_image,1,exp3.png,2,exp3.png,exp4.png,1,3,reversed,correct,0.9360544799821606,1,valid_win,178.4548982999986,22,,,,,,,,,,,,,,,sub_450,2024-03-24_10h23.41.686,Reversal,2023.1.3,59.86980711579947,2,
18,exp1.png,exp2.png,,1,0,1,0,0,18,18,18,,,,,,,,,,,,,,,,,,,,,,,,,False,37,38,False,exp1.png,exp2.png,trial_left_image,1,exp1.png,2,exp1.png,exp2.png,1,1,non-reversed,correct,0.8934985894819283,1,valid_win,182.30354900000384,23,,,,,,,,,,,,,,,sub_450,2024-03-24_10h23.41.686,Reversal,2023.1.3,59.86980711579947,2,
19,exp3.png,exp4.png,,1,0,1,0,0,19,19,19,,,,,,,,,,,,,,,,,,,,,,,,,False,38,39,True,exp4.png,exp3.png,trial_right_image,-1,exp3.png,2,exp3.png,exp4.png,1,3,reversed,correct,0.5951380476544318,1,valid_win,186.1687183000031,24,,,,,,,,,,,,,,,sub_450,2024-03-24_10h23.41.686,Reversal,2023.1.3,59.86980711579947,2,
20,exp1.png,exp2.png,,1,0,1,0,0,20,20,20,,,,,,,,,,,,,,,,,,,,,,,,,False,39,40,True,exp2.png,exp1.png,trial_right_image,-1,exp1.png,2,exp1.png,exp2.png,1,1,non-reversed,correct,0.0005079367886940966,0,invalid_lose,190.0511778999935,24,,,,,,,,,,,,,,,sub_450,2024-03-24_10h23.41.686,Reversal,2023.1.3,59.86980711579947,2,
,,,exp1.png,1,0,1,0,,,,,0,0,0,0,0,0,0,0,,,,,,,,,,,,,,,,,,,,,,,,,,,,,,,,,,,,,,266.59095929999603,51.0,10.269300400017528,"[(51.0, 10.269300400017528)]",51.0,,,,,,,,,,sub_450,2024-03-24_10h23.41.686,Reversal,2023.1.3,59.86980711579947,2,
,,,exp2.png,1,0,1,0,,,,,0,0,0,0,0,1,1,1,,,,,,,,,,,,,,,,,,,,,,,,,,,,,,,,,,,,,,278.12949779999326,None,None,[],,,,,,,,,,,sub_450,2024-03-24_10h23.41.686,Reversal,2023.1.3,59.86980711579947,2,
,,,exp3.png,1,0,1,0,,,,,0,0,0,0,0,2,2,2,,,,,,,,,,,,,,,,,,,,,,,,,,,,,,,,,,,,,,281.2938569000107,None,None,[],,,,,,,,,,,sub_450,2024-03-24_10h23.41.686,Reversal,2023.1.3,59.86980711579947,2,
,,,exp4.png,1,0,1,0,,,,,0,0,0,0,0,3,3,3,,,,,,,,,,,,,,,,,,,,,,,,,,,,,,,,,,,,,,282.6782116999966,None,None,[],,,,,,,,,,,sub_450,2024-03-24_10h23.41.686,Reversal,2023.1.3,59.86980711579947,2,
0,exp1.png,exp2.png,,2,0,2,0,0,0,0,0,,,,,,,,,,,,,,,,,,,,,,,,,True,,,,,,,,,,,,,,,,,,,,,,,,,,,,,,,,,,,sub_450,2024-03-24_10h23.41.686,Reversal,2023.1.3,59.86980711579947,2,
1,exp3.png,exp4.png,,2,0,2,0,0,1,1,1,,,,,,,,,,,,,,,,,,,,,,,,,False,40,41,False,exp3.png,exp4.png,trial_left_image,1,exp3.png,2,exp3.png,exp4.png,1,3,reversed,correct,0.2956228470249953,1,valid_win,211.9933572000009,25,,,,,,,,,,,,,,,sub_450,2024-03-24_10h23.41.686,Reversal,2023.1.3,59.86980711579947,2,
2,exp1.png,exp2.png,,2,0,2,0,0,2,2,2,,,,,,,,,,,,,,,,,,,,,,,,,False,41,42,True,exp2.png,exp1.png,trial_right_image,-1,exp1.png,2,exp1.png,exp2.png,1,1,non-reversed,correct,0.3236754627436613,1,valid_win,215.84208490001038,26,,,,,,,,,,,,,,,sub_450,2024-03-24_10h23.41.686,Reversal,2023.1.3,59.86980711579947,2,
3,exp3.png,exp4.png,,2,0,2,0,0,3,3,3,,,,,,,,,,,,,,,,,,,,,,,,,False,42,43,False,exp3.png,exp4.png,trial_left_image,1,exp3.png,2,exp3.png,exp4.png,1,3,reversed,correct,0.7456174746743369,1,valid_win,219.707459199999,27,,,,,,,,,,,,,,,sub_450,2024-03-24_10h23.41.686,Reversal,2023.1.3,59.86980711579947,2,
4,exp1.png,exp2.png,,2,0,2,0,0,4,4,4,,,,,,,,,,,,,,,,,,,,,,,,,False,43,44,False,exp1.png,exp2.png,trial_right_image,-1,exp2.png,2,exp1.png,exp2.png,0,2,non-reversed,incorrect,0.20571814126827115,1,invalid_win,223.64029440001468,28,,,,,,,,,,,,,,,sub_450,2024-03-24_10h23.41.686,Reversal,2023.1.3,59.86980711579947,2,
5,exp3.png,exp4.png,,2,0,2,0,0,5,5,5,,,,,,,,,,,,,,,,,,,,,,,,,False,44,45,True,exp4.png,exp3.png,trial_left_image,1,exp4.png,2,exp3.png,exp4.png,0,4,reversed,incorrect,0.697821547160529,0,valid_lose,227.4716141000099,28,,,,,,,,,,,,,,,sub_450,2024-03-24_10h23.41.686,Reversal,2023.1.3,59.86980711579947,2,
6,exp1.png,exp2.png,,2,0,2,0,0,6,6,6,,,,,,,,,,,,,,,,,,,,,,,,,False,45,46,True,exp2.png,exp1.png,trial_right_image,-1,exp1.png,2,exp1.png,exp2.png,1,1,non-reversed,correct,0.3726482089565166,1,valid_win,231.2532682000019,29,,,,,,,,,,,,,,,sub_450,2024-03-24_10h23.41.686,Reversal,2023.1.3,59.86980711579947,2,
7,exp3.png,exp4.png,,2,0,2,0,0,7,7,7,,,,,,,,,,,,,,,,,,,,,,,,,False,46,47,False,exp3.png,exp4.png,trial_right_image,-1,exp4.png,2,exp3.png,exp4.png,0,4,reversed,incorrect,0.05270977513007846,1,invalid_win,235.16891690000193,30,,,,,,,,,,,,,,,sub_450,2024-03-24_10h23.41.686,Reversal,2023.1.3,59.86980711579947,2,
8,exp1.png,exp2.png,,2,0,2,0,0,8,8,8,,,,,,,,,,,,,,,,,,,,,,,,,False,47,48,True,exp2.png,exp1.png,trial_right_image,-1,exp1.png,2,exp1.png,exp2.png,1,1,non-reversed,correct,0.07338049238346844,0,invalid_lose,238.95085250001284,30,,,,,,,,,,,,,,,sub_450,2024-03-24_10h23.41.686,Reversal,2023.1.3,59.86980711579947,2,
9,exp3.png,exp4.png,,2,0,2,0,0,9,9,9,,,,,,,,,,,,,,,,,,,,,,,,,False,48,49,True,exp4.png,exp3.png,trial_left_image,1,exp4.png,2,exp3.png,exp4.png,0,4,reversed,incorrect,0.4174250500755411,0,valid_lose,242.89970350000658,30,,,,,,,,,,,,,,,sub_450,2024-03-24_10h23.41.686,Reversal,2023.1.3,59.86980711579947,2,
10,exp1.png,exp2.png,,2,0,2,0,0,10,10,10,,,,,,,,,,,,,,,,,,,,,,,,,False,49,50,True,exp2.png,exp1.png,trial_right_image,-1,exp1.png,2,exp1.png,exp2.png,1,1,non-reversed,correct,0.8354998885451987,1,valid_win,246.86582440001075,31,,,,,,,,,,,,,,,sub_450,2024-03-24_10h23.41.686,Reversal,2023.1.3,59.86980711579947,2,
11,exp3.png,exp4.png,,2,0,2,0,0,11,11,11,,,,,,,,,,,,,,,,,,,,,,,,,False,50,51,True,exp4.png,exp3.png,trial_right_image,-1,exp3.png,2,exp3.png,exp4.png,1,3,reversed,correct,0.7268666870687333,1,valid_win,250.65003660001094,32,,,,,,,,,,,,,,,sub_450,2024-03-24_10h23.41.686,Reversal,2023.1.3,59.86980711579947,2,
12,exp1.png,exp2.png,,2,0,2,0,0,12,12,12,,,,,,,,,,,,,,,,,,,,,,,,,False,51,52,False,exp1.png,exp2.png,trial_right_image,-1,exp2.png,2,exp1.png,exp2.png,0,2,non-reversed,incorrect,0.7024761135435851,0,valid_lose,254.47944640001515,32,,,,,,,,,,,,,,,sub_450,2024-03-24_10h23.41.686,Reversal,2023.1.3,59.86980711579947,2,
13,exp3.png,exp4.png,,2,0,2,0,0,13,13,13,,,,,,,,,,,,,,,,,,,,,,,,,False,52,53,True,exp4.png,exp3.png,trial_right_image,-1,exp3.png,2,exp3.png,exp4.png,1,3,reversed,correct,0.48381337454185147,1,valid_win,258.24408689999836,33,,,,,,,,,,,,,,,sub_450,2024-03-24_10h23.41.686,Reversal,2023.1.3,59.86980711579947,2,
14,exp1.png,exp2.png,,2,0,2,0,0,14,14,14,,,,,,,,,,,,,,,,,,,,,,,,,False,53,54,True,exp2.png,exp1.png,trial_left_image,1,exp2.png,2,exp1.png,exp2.png,0,2,non-reversed,incorrect,0.592212586638413,0,valid_lose,262.2261684999976,33,,,,,,,,,,,,,,,sub_450,2024-03-24_10h23.41.686,Reversal,2023.1.3,59.86980711579947,2,
15,exp3.png,exp4.png,,2,0,2,0,0,15,15,15,,,,,,,,,,,,,,,,,,,,,,,,,False,54,55,False,exp3.png,exp4.png,trial_left_image,1,exp3.png,2,exp3.png,exp4.png,1,3,reversed,correct,0.9132149653032604,1,valid_win,266.02521819999674,34,,,,,,,,,,,,,,,sub_450,2024-03-24_10h23.41.686,Reversal,2023.1.3,59.86980711579947,2,
16,exp1.png,exp2.png,,2,0,2,0,0,16,16,16,,,,,,,,,,,,,,,,,,,,,,,,,False,55,56,False,exp1.png,exp2.png,trial_left_image,1,exp1.png,2,exp1.png,exp2.png,1,1,non-reversed,correct,0.15869040589908767,0,invalid_lose,269.97370400000364,34,,,,,,,,,,,,,,,sub_450,2024-03-24_10h23.41.686,Reversal,2023.1.3,59.86980711579947,2,
17,exp3.png,exp4.png,,2,0,2,0,0,17,17,17,,,,,,,,,,,,,,,,,,,,,,,,,False,56,57,False,exp3.png,exp4.png,trial_right_image,-1,exp4.png,2,exp3.png,exp4.png,0,4,reversed,incorrect,0.13719992653462876,1,invalid_win,273.82223449999583,35,,,,,,,,,,,,,,,sub_450,2024-03-24_10h23.41.686,Reversal,2023.1.3,59.86980711579947,2,
18,exp1.png,exp2.png,,2,0,2,0,0,18,18,18,,,,,,,,,,,,,,,,,,,,,,,,,False,57,58,True,exp2.png,exp1.png,trial_left_image,1,exp2.png,2,exp1.png,exp2.png,0,2,non-reversed,incorrect,0.04948469714471082,1,invalid_win,277.68828639999265,36,,,,,,,,,,,,,,,sub_450,2024-03-24_10h23.41.686,Reversal,2023.1.3,59.86980711579947,2,
19,exp3.png,exp4.png,,2,0,2,0,0,19,19,19,,,,,,,,,,,,,,,,,,,,,,,,,False,58,59,False,exp3.png,exp4.png,trial_right_image,-1,exp4.png,2,exp3.png,exp4.png,0,4,reversed,incorrect,0.8339240387327096,0,valid_lose,281.4366433999967,36,,,,,,,,,,,,,,,sub_450,2024-03-24_10h23.41.686,Reversal,2023.1.3,59.86980711579947,2,
20,exp1.png,exp2.png,,2,0,2,0,0,20,20,20,,,,,,,,,,,,,,,,,,,,,,,,,False,59,60,False,exp1.png,exp2.png,trial_left_image,1,exp1.png,2,exp1.png,exp2.png,1,1,non-reversed,correct,0.474822709363785,1,valid_win,285.40177470000344,37,,,,,,,,,,,,,,,sub_450,2024-03-24_10h23.41.686,Reversal,2023.1.3,59.86980711579947,2,
,,,exp1.png,2,0,2,0,,,,,0,0,0,0,0,0,0,0,,,,,,,,,,,,,,,,,,,,,,,,,,,,,,,,,,,,,,361.9515737000038,None,None,[],,,,,,,,,,,sub_450,2024-03-24_10h23.41.686,Reversal,2023.1.3,59.86980711579947,2,
,,,exp2.png,2,0,2,0,,,,,0,0,0,0,0,1,1,1,,,,,,,,,,,,,,,,,,,,,,,,,,,,,,,,,,,,,,366.1799685000151,None,None,[],,,,,,,,,,,sub_450,2024-03-24_10h23.41.686,Reversal,2023.1.3,59.86980711579947,2,
,,,exp3.png,2,0,2,0,,,,,0,0,0,0,0,2,2,2,,,,,,,,,,,,,,,,,,,,,,,,,,,,,,,,,,,,,,367.3978967000148,None,None,[],,,,,,,,,,,sub_450,2024-03-24_10h23.41.686,Reversal,2023.1.3,59.86980711579947,2,
,,,exp4.png,2,0,2,0,,,,,0,0,0,0,0,3,3,3,,,,,,,,,,,,,,,,,,,,,,,,,,,,,,,,,,,,,,368.6159539000073,None,None,[],,,,,,,,,,,sub_450,2024-03-24_10h23.41.686,Reversal,2023.1.3,59.86980711579947,2,
0,exp1.png,exp2.png,,3,0,3,0,0,0,0,0,,,,,,,,,,,,,,,,,,,,,,,,,True,,,,,,,,,,,,,,,,,,,,,,,,,,,,,,,,,,,sub_450,2024-03-24_10h23.41.686,Reversal,2023.1.3,59.86980711579947,2,
1,exp3.png,exp4.png,,3,0,3,0,0,1,1,1,,,,,,,,,,,,,,,,,,,,,,,,,False,60,61,True,exp4.png,exp3.png,trial_left_image,1,exp4.png,2,exp3.png,exp4.png,0,4,reversed,incorrect,0.4166035894517115,0,valid_lose,298.09762449999107,37,,,,,,,,,,,,,,,sub_450,2024-03-24_10h23.41.686,Reversal,2023.1.3,59.86980711579947,2,
2,exp1.png,exp2.png,,3,0,3,0,0,2,2,2,,,,,,,,,,,,,,,,,,,,,,,,,False,61,62,False,exp1.png,exp2.png,trial_right_image,-1,exp2.png,2,exp1.png,exp2.png,0,2,non-reversed,incorrect,0.6309312676298859,0,valid_lose,301.9127665999986,37,,,,,,,,,,,,,,,sub_450,2024-03-24_10h23.41.686,Reversal,2023.1.3,59.86980711579947,2,
3,exp3.png,exp4.png,,3,0,3,0,0,3,3,3,,,,,,,,,,,,,,,,,,,,,,,,,False,62,63,False,exp3.png,exp4.png,trial_right_image,-1,exp4.png,2,exp3.png,exp4.png,0,4,reversed,incorrect,0.37801975364343043,0,valid_lose,305.6952056000009,37,,,,,,,,,,,,,,,sub_450,2024-03-24_10h23.41.686,Reversal,2023.1.3,59.86980711579947,2,
4,exp1.png,exp2.png,,3,0,3,0,0,4,4,4,,,,,,,,,,,,,,,,,,,,,,,,,False,63,64,True,exp2.png,exp1.png,trial_right_image,-1,exp1.png,2,exp1.png,exp2.png,1,1,non-reversed,correct,0.026411798886179283,0,invalid_lose,309.4770998999884,37,,,,,,,,,,,,,,,sub_450,2024-03-24_10h23.41.686,Reversal,2023.1.3,59.86980711579947,2,
5,exp3.png,exp4.png,,3,0,3,0,0,5,5,5,,,,,,,,,,,,,,,,,,,,,,,,,False,64,65,False,exp3.png,exp4.png,trial_left_image,1,exp3.png,2,exp3.png,exp4.png,1,3,reversed,correct,0.532082319821264,1,valid_win,313.3423569999868,38,,,,,,,,,,,,,,,sub_450,2024-03-24_10h23.41.686,Reversal,2023.1.3,59.86980711579947,2,
6,exp1.png,exp2.png,,3,0,3,0,0,6,6,6,,,,,,,,,,,,,,,,,,,,,,,,,False,65,66,True,exp2.png,exp1.png,trial_left_image,1,exp2.png,2,exp1.png,exp2.png,0,2,non-reversed,incorrect,0.15232896386712447,1,invalid_win,317.1415146999934,39,,,,,,,,,,,,,,,sub_450,2024-03-24_10h23.41.686,Reversal,2023.1.3,59.86980711579947,2,
7,exp3.png,exp4.png,,3,0,3,0,0,7,7,7,,,,,,,,,,,,,,,,,,,,,,,,,False,66,67,False,exp3.png,exp4.png,trial_left_image,1,exp3.png,2,exp3.png,exp4.png,1,3,reversed,correct,0.23039791489703598,0,invalid_lose,321.02312410000013,39,,,,,,,,,,,,,,,sub_450,2024-03-24_10h23.41.686,Reversal,2023.1.3,59.86980711579947,2,
8,exp1.png,exp2.png,,3,0,3,0,0,8,8,8,,,,,,,,,,,,,,,,,,,,,,,,,False,67,68,False,exp1.png,exp2.png,trial_right_image,-1,exp2.png,2,exp1.png,exp2.png,0,2,non-reversed,incorrect,0.9154995363811791,0,valid_lose,324.8227218000102,39,,,,,,,,,,,,,,,sub_450,2024-03-24_10h23.41.686,Reversal,2023.1.3,59.86980711579947,2,
9,exp3.png,exp4.png,,3,0,3,0,0,9,9,9,,,,,,,,,,,,,,,,,,,,,,,,,False,68,69,True,exp4.png,exp3.png,trial_right_image,-1,exp3.png,2,exp3.png,exp4.png,1,3,reversed,correct,0.34571552787772997,1,valid_win,328.60381249999045,40,,,,,,,,,,,,,,,sub_450,2024-03-24_10h23.41.686,Reversal,2023.1.3,59.86980711579947,2,
10,exp1.png,exp2.png,,3,0,3,0,0,10,10,10,,,,,,,,,,,,,,,,,,,,,,,,,False,69,70,False,exp1.png,exp2.png,trial_left_image,1,exp1.png,2,exp1.png,exp2.png,1,1,non-reversed,correct,0.47337510781222225,1,valid_win,332.61944969999604,41,,,,,,,,,,,,,,,sub_450,2024-03-24_10h23.41.686,Reversal,2023.1.3,59.86980711579947,2,
11,exp3.png,exp4.png,,3,0,3,0,0,11,11,11,,,,,,,,,,,,,,,,,,,,,,,,,False,70,71,True,exp4.png,exp3.png,trial_right_image,-1,exp3.png,2,exp3.png,exp4.png,1,3,reversed,correct,0.8479351730326126,1,valid_win,336.5677258000069,42,,,,,,,,,,,,,,,sub_450,2024-03-24_10h23.41.686,Reversal,2023.1.3,59.86980711579947,2,
12,exp1.png,exp2.png,,3,0,3,0,0,12,12,12,,,,,,,,,,,,,,,,,,,,,,,,,False,71,72,True,exp2.png,exp1.png,trial_left_image,1,exp2.png,2,exp1.png,exp2.png,0,2,non-reversed,incorrect,0.6233445883057013,0,valid_lose,340.46650149999186,42,,,,,,,,,,,,,,,sub_450,2024-03-24_10h23.41.686,Reversal,2023.1.3,59.86980711579947,2,
13,exp3.png,exp4.png,,3,0,3,0,0,13,13,13,,,,,,,,,,,,,,,,,,,,,,,,,False,72,73,True,exp4.png,exp3.png,trial_right_image,-1,exp3.png,2,exp3.png,exp4.png,1,3,reversed,correct,0.21567030191287884,0,invalid_lose,344.2317036000022,42,,,,,,,,,,,,,,,sub_450,2024-03-24_10h23.41.686,Reversal,2023.1.3,59.86980711579947,2,
14,exp1.png,exp2.png,,3,0,3,0,0,14,14,14,,,,,,,,,,,,,,,,,,,,,,,,,False,73,74,True,exp2.png,exp1.png,trial_right_image,-1,exp1.png,2,exp1.png,exp2.png,1,1,non-reversed,correct,0.7218723569826071,1,valid_win,348.14751919999253,43,,,,,,,,,,,,,,,sub_450,2024-03-24_10h23.41.686,Reversal,2023.1.3,59.86980711579947,2,
15,exp3.png,exp4.png,,3,0,3,0,0,15,15,15,,,,,,,,,,,,,,,,,,,,,,,,,False,74,75,False,exp3.png,exp4.png,trial_left_image,1,exp3.png,2,exp3.png,exp4.png,1,3,reversed,correct,0.7147448741417005,1,valid_win,352.04606610001065,44,,,,,,,,,,,,,,,sub_450,2024-03-24_10h23.41.686,Reversal,2023.1.3,59.86980711579947,2,
16,exp1.png,exp2.png,,3,0,3,0,0,16,16,16,,,,,,,,,,,,,,,,,,,,,,,,,False,75,76,False,exp1.png,exp2.png,trial_right_image,-1,exp2.png,2,exp1.png,exp2.png,0,2,non-reversed,incorrect,0.9448686761535685,0,valid_lose,355.87817549999454,44,,,,,,,,,,,,,,,sub_450,2024-03-24_10h23.41.686,Reversal,2023.1.3,59.86980711579947,2,
17,exp3.png,exp4.png,,3,0,3,0,0,17,17,17,,,,,,,,,,,,,,,,,,,,,,,,,False,76,77,True,exp4.png,exp3.png,trial_right_image,-1,exp3.png,2,exp3.png,exp4.png,1,3,reversed,correct,0.13482335294426373,0,invalid_lose,359.65997169999173,44,,,,,,,,,,,,,,,sub_450,2024-03-24_10h23.41.686,Reversal,2023.1.3,59.86980711579947,2,
18,exp1.png,exp2.png,,3,0,3,0,0,18,18,18,,,,,,,,,,,,,,,,,,,,,,,,,False,77,78,False,exp1.png,exp2.png,trial_left_image,1,exp1.png,2,exp1.png,exp2.png,1,1,non-reversed,correct,0.40888521449945714,1,valid_win,363.4423914999934,45,,,,,,,,,,,,,,,sub_450,2024-03-24_10h23.41.686,Reversal,2023.1.3,59.86980711579947,2,
19,exp3.png,exp4.png,,3,0,3,0,0,19,19,19,,,,,,,,,,,,,,,,,,,,,,,,,False,78,79,True,exp4.png,exp3.png,trial_left_image,1,exp4.png,2,exp3.png,exp4.png,0,4,reversed,incorrect,0.8538512759342399,0,valid_lose,367.8071054999891,45,,,,,,,,,,,,,,,sub_450,2024-03-24_10h23.41.686,Reversal,2023.1.3,59.86980711579947,2,
20,exp1.png,exp2.png,,3,0,3,0,0,20,20,20,,,,,,,,,,,,,,,,,,,,,,,,,False,79,80,False,exp1.png,exp2.png,trial_right_image,-1,exp2.png,2,exp1.png,exp2.png,0,2,non-reversed,incorrect,0.019966554960574645,1,invalid_win,371.72240229998715,46,,,,,,,,,,,,,,,sub_450,2024-03-24_10h23.41.686,Reversal,2023.1.3,59.86980711579947,2,
,,,exp1.png,3,0,3,0,,,,,0,0,0,0,0,0,0,0,,,,,,,,,,,,,,,,,,,,,,,,,,,,,,,,,,,,,,448.2582063000009,None,None,[],,,,,,,,,,,sub_450,2024-03-24_10h23.41.686,Reversal,2023.1.3,59.86980711579947,2,
,,,exp2.png,3,0,3,0,,,,,0,0,0,0,0,1,1,1,,,,,,,,,,,,,,,,,,,,,,,,,,,,,,,,,,,,,,451.50414279999677,None,None,[],,,,,,,,,,,sub_450,2024-03-24_10h23.41.686,Reversal,2023.1.3,59.86980711579947,2,
,,,exp3.png,3,0,3,0,,,,,0,0,0,0,0,2,2,2,,,,,,,,,,,,,,,,,,,,,,,,,,,,,,,,,,,,,,452.07532110001193,None,None,[],,,,,,,,,,,sub_450,2024-03-24_10h23.41.686,Reversal,2023.1.3,59.86980711579947,2,
,,,exp4.png,3,0,3,0,,,,,0,0,0,0,0,3,3,3,,,,,,,,,,,,,,,,,,,,,,,,,,,,,,,,,,,,,,452.53716639999766,None,None,[],,,,,,,,,,,sub_450,2024-03-24_10h23.41.686,Reversal,2023.1.3,59.86980711579947,2,
0,exp1.png,exp2.png,,,,,,,,,,,,,,,,,,0,0,0,0,0,0,0,0,,,,,,,,,True,,,,,,,,,,,,,,,,,,,,,,,,,,,,,,,,,,,sub_450,2024-03-24_10h23.41.686,Reversal,2023.1.3,59.86980711579947,2,
1,exp3.png,exp4.png,,,,,,,,,,,,,,,,,,0,0,0,0,0,1,1,1,,,,,,,,,False,0,81,True,exp4.png,exp3.png,trial_left_image,1,exp4.png,2,exp4.png,exp3.png,0,4,reversed,correct,0.5159528356810168,1,valid_win,381.419246800011,47,,,,,,379.58620700001484,,,,,,,,,sub_450,2024-03-24_10h23.41.686,Reversal,2023.1.3,59.86980711579947,2,
2,exp1.png,exp2.png,,,,,,,,,,,,,,,,,,0,0,0,0,0,2,2,2,,,,,,,,,False,1,82,False,exp1.png,exp2.png,trial_left_image,1,exp1.png,2,exp1.png,exp2.png,1,1,non-reversed,correct,0.981754075047211,1,valid_win,385.2345587000018,48,,,,,,,,,,,,,,,sub_450,2024-03-24_10h23.41.686,Reversal,2023.1.3,59.86980711579947,2,
3,exp3.png,exp4.png,,,,,,,,,,,,,,,,,,0,0,0,0,0,3,3,3,,,,,,,,,False,2,83,True,exp4.png,exp3.png,trial_right_image,-1,exp3.png,2,exp4.png,exp3.png,1,3,reversed,incorrect,0.5046826966985185,0,valid_lose,389.0004077999911,48,,,,,,,,,,,,,,,sub_450,2024-03-24_10h23.41.686,Reversal,2023.1.3,59.86980711579947,2,
4,exp1.png,exp2.png,,,,,,,,,,,,,,,,,,0,0,0,0,0,4,4,4,,,,,,,,,False,3,84,True,exp2.png,exp1.png,trial_left_image,1,exp2.png,2,exp1.png,exp2.png,0,2,non-reversed,incorrect,0.11239634417566602,1,invalid_win,393.03212230000645,49,,,,,,,,,,,,,,,sub_450,2024-03-24_10h23.41.686,Reversal,2023.1.3,59.86980711579947,2,
5,exp3.png,exp4.png,,,,,,,,,,,,,,,,,,0,0,0,0,0,5,5,5,,,,,,,,,False,4,85,False,exp3.png,exp4.png,trial_right_image,-1,exp4.png,2,exp4.png,exp3.png,0,4,reversed,correct,0.5012310949817158,1,valid_win,396.86421229998814,50,,,,,,,,,,,,,,,sub_450,2024-03-24_10h23.41.686,Reversal,2023.1.3,59.86980711579947,2,
6,exp1.png,exp2.png,,,,,,,,,,,,,,,,,,0,0,0,0,0,6,6,6,,,,,,,,,False,5,86,False,exp1.png,exp2.png,trial_left_image,1,exp1.png,2,exp1.png,exp2.png,1,1,non-reversed,correct,0.768024355839063,1,valid_win,400.680474599998,51,,,,,,,,,,,,,,,sub_450,2024-03-24_10h23.41.686,Reversal,2023.1.3,59.86980711579947,2,
7,exp3.png,exp4.png,,,,,,,,,,,,,,,,,,0,0,0,0,0,7,7,7,,,,,,,,,False,6,87,False,exp3.png,exp4.png,trial_right_image,-1,exp4.png,2,exp4.png,exp3.png,0,4,reversed,correct,0.5886386493606528,1,valid_win,404.711605199991,52,,,,,,,,,,,,,,,sub_450,2024-03-24_10h23.41.686,Reversal,2023.1.3,59.86980711579947,2,
8,exp1.png,exp2.png,,,,,,,,,,,,,,,,,,0,0,0,0,0,8,8,8,,,,,,,,,False,7,88,False,exp1.png,exp2.png,trial_left_image,1,exp1.png,2,exp1.png,exp2.png,1,1,non-reversed,correct,0.7695543510397209,1,valid_win,408.6602808999887,53,,,,,,,,,,,,,,,sub_450,2024-03-24_10h23.41.686,Reversal,2023.1.3,59.86980711579947,2,
9,exp3.png,exp4.png,,,,,,,,,,,,,,,,,,0,0,0,0,0,9,9,9,,,,,,,,,False,8,89,True,exp4.png,exp3.png,trial_right_image,-1,exp3.png,2,exp4.png,exp3.png,1,3,reversed,incorrect,0.4663678071811298,0,valid_lose,412.3926640000136,53,,,,,,,,,,,,,,,sub_450,2024-03-24_10h23.41.686,Reversal,2023.1.3,59.86980711579947,2,
10,exp1.png,exp2.png,,,,,,,,,,,,,,,,,,0,0,0,0,0,10,10,10,,,,,,,,,False,9,90,False,exp1.png,exp2.png,trial_left_image,1,exp1.png,2,exp1.png,exp2.png,1,1,non-reversed,correct,0.22084778524592708,0,invalid_lose,416.32391880001524,53,,,,,,,,,,,,,,,sub_450,2024-03-24_10h23.41.686,Reversal,2023.1.3,59.86980711579947,2,
11,exp3.png,exp4.png,,,,,,,,,,,,,,,,,,0,0,0,0,0,11,11,11,,,,,,,,,False,10,91,True,exp4.png,exp3.png,trial_right_image,-1,exp3.png,2,exp4.png,exp3.png,1,3,reversed,incorrect,0.25720456662812075,0,valid_lose,420.20628519999445,53,,,,,,,,,,,,,,,sub_450,2024-03-24_10h23.41.686,Reversal,2023.1.3,59.86980711579947,2,
12,exp1.png,exp2.png,,,,,,,,,,,,,,,,,,0,0,0,0,0,12,12,12,,,,,,,,,False,11,92,True,exp2.png,exp1.png,trial_right_image,-1,exp1.png,2,exp1.png,exp2.png,1,1,non-reversed,correct,0.24347302081911737,0,invalid_lose,424.05458130000625,53,,,,,,,,,,,,,,,sub_450,2024-03-24_10h23.41.686,Reversal,2023.1.3,59.86980711579947,2,
13,exp3.png,exp4.png,,,,,,,,,,,,,,,,,,0,0,0,0,0,13,13,13,,,,,,,,,False,12,93,False,exp3.png,exp4.png,trial_right_image,-1,exp4.png,2,exp4.png,exp3.png,0,4,reversed,correct,0.11262622803994349,0,invalid_lose,427.33716550000827,53,,,,,,,,,,,,,,,sub_450,2024-03-24_10h23.41.686,Reversal,2023.1.3,59.86980711579947,2,
14,exp1.png,exp2.png,,,,,,,,,,,,,,,,,,0,0,0,0,0,14,14,14,,,,,,,,,False,13,94,True,exp2.png,exp1.png,trial_right_image,-1,exp1.png,2,exp1.png,exp2.png,1,1,non-reversed,correct,0.7134506245313446,1,valid_win,431.3860752999899,54,,,,,,,,,,,,,,,sub_450,2024-03-24_10h23.41.686,Reversal,2023.1.3,59.86980711579947,2,
15,exp3.png,exp4.png,,,,,,,,,,,,,,,,,,0,0,0,0,0,15,15,15,,,,,,,,,False,14,95,False,exp3.png,exp4.png,trial_left_image,1,exp3.png,2,exp4.png,exp3.png,1,3,reversed,incorrect,0.49131895251684166,0,valid_lose,435.23419059999287,54,,,,,,,,,,,,,,,sub_450,2024-03-24_10h23.41.686,Reversal,2023.1.3,59.86980711579947,2,
16,exp1.png,exp2.png,,,,,,,,,,,,,,,,,,0,0,0,0,0,16,16,16,,,,,,,,,False,15,96,True,exp2.png,exp1.png,trial_right_image,-1,exp1.png,2,exp1.png,exp2.png,1,1,non-reversed,correct,0.3345636179261531,1,valid_win,439.06664780000574,55,,,,,,,,,,,,,,,sub_450,2024-03-24_10h23.41.686,Reversal,2023.1.3,59.86980711579947,2,
17,exp3.png,exp4.png,,,,,,,,,,,,,,,,,,0,0,0,0,0,17,17,17,,,,,,,,,False,16,97,False,exp3.png,exp4.png,trial_right_image,-1,exp4.png,2,exp4.png,exp3.png,0,4,reversed,correct,0.6963973167327344,1,valid_win,443.53154220001306,56,,,,,,,,,,,,,,,sub_450,2024-03-24_10h23.41.686,Reversal,2023.1.3,59.86980711579947,2,
18,exp1.png,exp2.png,,,,,,,,,,,,,,,,,,0,0,0,0,0,18,18,18,,,,,,,,,False,17,98,True,exp2.png,exp1.png,trial_right_image,-1,exp1.png,2,exp1.png,exp2.png,1,1,non-reversed,correct,0.09156286806785818,0,invalid_lose,447.5638295999961,56,,,,,,,,,,,,,,,sub_450,2024-03-24_10h23.41.686,Reversal,2023.1.3,59.86980711579947,2,
19,exp3.png,exp4.png,,,,,,,,,,,,,,,,,,0,0,0,0,0,19,19,19,,,,,,,,,False,18,99,False,exp3.png,exp4.png,trial_left_image,1,exp3.png,2,exp4.png,exp3.png,1,3,reversed,incorrect,0.4853873915971283,0,valid_lose,451.57907599999453,56,,,,,,,,,,,,,,,sub_450,2024-03-24_10h23.41.686,Reversal,2023.1.3,59.86980711579947,2,
20,exp1.png,exp2.png,,,,,,,,,,,,,,,,,,0,0,0,0,0,20,20,20,,,,,,,,,False,19,100,True,exp2.png,exp1.png,trial_right_image,-1,exp1.png,2,exp1.png,exp2.png,1,1,non-reversed,correct,0.23158238179325175,0,invalid_lose,455.4440872000123,56,,,,,,,,,,,,,,,sub_450,2024-03-24_10h23.41.686,Reversal,2023.1.3,59.86980711579947,2,
,,,exp1.png,,,,,,,,,,,,,,,,,0,0,0,0,,,,,0,0,0,0,0,0,0,0,,,,,,,,,,,,,,,,,,,,,,531.9934343000059,None,None,[],,,,,,,,,,,sub_450,2024-03-24_10h23.41.686,Reversal,2023.1.3,59.86980711579947,2,
,,,exp2.png,,,,,,,,,,,,,,,,,0,0,0,0,,,,,0,0,0,0,0,1,1,1,,,,,,,,,,,,,,,,,,,,,,534.158070400008,None,None,[],,,,,,,,,,,sub_450,2024-03-24_10h23.41.686,Reversal,2023.1.3,59.86980711579947,2,
,,,exp3.png,,,,,,,,,,,,,,,,,0,0,0,0,,,,,0,0,0,0,0,2,2,2,,,,,,,,,,,,,,,,,,,,,,535.0589432000124,None,None,[],,,,,,,,,,,sub_450,2024-03-24_10h23.41.686,Reversal,2023.1.3,59.86980711579947,2,
,,,exp4.png,,,,,,,,,,,,,,,,,0,0,0,0,,,,,0,0,0,0,0,3,3,3,,,,,,,,,,,,,,,,,,,,,,535.9103058000037,None,None,[],,,,,,,,,,,sub_450,2024-03-24_10h23.41.686,Reversal,2023.1.3,59.86980711579947,2,
0,exp1.png,exp2.png,,,,,,,,,,,,,,,,,,1,0,1,0,0,0,0,0,,,,,,,,,True,,,,,,,,,,,,,,,,,,,,,,,,,,,,,,,,,,,sub_450,2024-03-24_10h23.41.686,Reversal,2023.1.3,59.86980711579947,2,
1,exp3.png,exp4.png,,,,,,,,,,,,,,,,,,1,0,1,0,0,1,1,1,,,,,,,,,False,20,101,False,exp3.png,exp4.png,trial_left_image,1,exp3.png,2,exp4.png,exp3.png,1,3,reversed,incorrect,0.5924648600234581,0,valid_lose,464.72403559999657,56,,,,,,,,,,,,,,,sub_450,2024-03-24_10h23.41.686,Reversal,2023.1.3,59.86980711579947,2,
2,exp1.png,exp2.png,,,,,,,,,,,,,,,,,,1,0,1,0,0,2,2,2,,,,,,,,,False,21,102,False,exp1.png,exp2.png,trial_right_image,-1,exp2.png,2,exp1.png,exp2.png,0,2,non-reversed,incorrect,0.8451656750429263,0,valid_lose,468.60637289998704,56,,,,,,,,,,,,,,,sub_450,2024-03-24_10h23.41.686,Reversal,2023.1.3,59.86980711579947,2,
3,exp3.png,exp4.png,,,,,,,,,,,,,,,,,,1,0,1,0,0,3,3,3,,,,,,,,,False,22,103,True,exp4.png,exp3.png,trial_left_image,1,exp4.png,2,exp4.png,exp3.png,0,4,reversed,correct,0.1876704935717981,0,invalid_lose,472.4575419999892,56,,,,,,,,,,,,,,,sub_450,2024-03-24_10h23.41.686,Reversal,2023.1.3,59.86980711579947,2,
4,exp1.png,exp2.png,,,,,,,,,,,,,,,,,,1,0,1,0,0,4,4,4,,,,,,,,,False,23,104,False,exp1.png,exp2.png,trial_right_image,-1,exp2.png,2,exp1.png,exp2.png,0,2,non-reversed,incorrect,0.678264106254658,0,valid_lose,476.2703870999976,56,,,,,,,,,,,,,,,sub_450,2024-03-24_10h23.41.686,Reversal,2023.1.3,59.86980711579947,2,
5,exp3.png,exp4.png,,,,,,,,,,,,,,,,,,1,0,1,0,0,5,5,5,,,,,,,,,False,24,105,True,exp4.png,exp3.png,trial_right_image,-1,exp3.png,2,exp4.png,exp3.png,1,3,reversed,incorrect,0.743808644215167,0,valid_lose,480.15264169999864,56,,,,,,,,,,,,,,,sub_450,2024-03-24_10h23.41.686,Reversal,2023.1.3,59.86980711579947,2,
6,exp1.png,exp2.png,,,,,,,,,,,,,,,,,,1,0,1,0,0,6,6,6,,,,,,,,,False,25,106,True,exp2.png,exp1.png,trial_left_image,1,exp2.png,2,exp1.png,exp2.png,0,2,non-reversed,incorrect,0.5813689365723477,0,valid_lose,483.9675312000036,56,,,,,,,,,,,,,,,sub_450,2024-03-24_10h23.41.686,Reversal,2023.1.3,59.86980711579947,2,
7,exp3.png,exp4.png,,,,,,,,,,,,,,,,,,1,0,1,0,0,7,7,7,,,,,,,,,False,26,107,False,exp3.png,exp4.png,trial_right_image,-1,exp4.png,2,exp4.png,exp3.png,0,4,reversed,correct,0.14262701946388812,0,invalid_lose,487.7830629000091,56,,,,,,,,,,,,,,,sub_450,2024-03-24_10h23.41.686,Reversal,2023.1.3,59.86980711579947,2,
8,exp1.png,exp2.png,,,,,,,,,,,,,,,,,,1,0,1,0,0,8,8,8,,,,,,,,,False,27,108,False,exp1.png,exp2.png,trial_left_image,1,exp1.png,2,exp1.png,exp2.png,1,1,non-reversed,correct,0.7413767711744275,1,valid_win,491.79855430001044,57,,,,,,,,,,,,,,,sub_450,2024-03-24_10h23.41.686,Reversal,2023.1.3,59.86980711579947,2,
9,exp3.png,exp4.png,,,,,,,,,,,,,,,,,,1,0,1,0,0,9,9,9,,,,,,,,,False,28,109,False,exp3.png,exp4.png,trial_left_image,1,exp3.png,2,exp4.png,exp3.png,1,3,reversed,incorrect,0.7529173335587022,0,valid_lose,495.6972084000008,57,,,,,,,,,,,,,,,sub_450,2024-03-24_10h23.41.686,Reversal,2023.1.3,59.86980711579947,2,
10,exp1.png,exp2.png,,,,,,,,,,,,,,,,,,1,0,1,0,0,10,10,10,,,,,,,,,False,29,110,False,exp1.png,exp2.png,trial_right_image,-1,exp2.png,2,exp1.png,exp2.png,0,2,non-reversed,incorrect,0.4786692686995315,0,valid_lose,499.56246290000854,57,,,,,,,,,,,,,,,sub_450,2024-03-24_10h23.41.686,Reversal,2023.1.3,59.86980711579947,2,
11,exp3.png,exp4.png,,,,,,,,,,,,,,,,,,1,0,1,0,0,11,11,11,,,,,,,,,False,30,111,True,exp4.png,exp3.png,trial_left_image,1,exp4.png,2,exp4.png,exp3.png,0,4,reversed,correct,0.3165924039467892,1,valid_win,503.4613447000156,58,,,,,,,,,,,,,,,sub_450,2024-03-24_10h23.41.686,Reversal,2023.1.3,59.86980711579947,2,
12,exp1.png,exp2.png,,,,,,,,,,,,,,,,,,1,0,1,0,0,12,12,12,,,,,,,,,False,31,112,True,exp2.png,exp1.png,trial_right_image,-1,exp1.png,2,exp1.png,exp2.png,1,1,non-reversed,correct,0.03087284429770254,0,invalid_lose,507.3598035000032,58,,,,,,,,,,,,,,,sub_450,2024-03-24_10h23.41.686,Reversal,2023.1.3,59.86980711579947,2,
13,exp3.png,exp4.png,,,,,,,,,,,,,,,,,,1,0,1,0,0,13,13,13,,,,,,,,,False,32,113,True,exp4.png,exp3.png,trial_left_image,1,exp4.png,2,exp4.png,exp3.png,0,4,reversed,correct,0.30254962982849787,1,valid_win,511.5088109000062,59,,,,,,,,,,,,,,,sub_450,2024-03-24_10h23.41.686,Reversal,2023.1.3,59.86980711579947,2,
14,exp1.png,exp2.png,,,,,,,,,,,,,,,,,,1,0,1,0,0,14,14,14,,,,,,,,,False,33,114,True,exp2.png,exp1.png,trial_right_image,-1,exp1.png,2,exp1.png,exp2.png,1,1,non-reversed,correct,0.8499454212354179,1,valid_win,515.3736984000134,60,,,,,,,,,,,,,,,sub_450,2024-03-24_10h23.41.686,Reversal,2023.1.3,59.86980711579947,2,
15,exp3.png,exp4.png,,,,,,,,,,,,,,,,,,1,0,1,0,0,15,15,15,,,,,,,,,False,34,115,True,exp4.png,exp3.png,trial_left_image,1,exp4.png,2,exp4.png,exp3.png,0,4,reversed,correct,0.28528789813968325,1,valid_win,519.5225821000058,61,,,,,,,,,,,,,,,sub_450,2024-03-24_10h23.41.686,Reversal,2023.1.3,59.86980711579947,2,
16,exp1.png,exp2.png,,,,,,,,,,,,,,,,,,1,0,1,0,0,16,16,16,,,,,,,,,False,35,116,False,exp1.png,exp2.png,trial_left_image,1,exp1.png,2,exp1.png,exp2.png,1,1,non-reversed,correct,0.10224916974406517,0,invalid_lose,523.3209459999925,61,,,,,,,,,,,,,,,sub_450,2024-03-24_10h23.41.686,Reversal,2023.1.3,59.86980711579947,2,
17,exp3.png,exp4.png,,,,,,,,,,,,,,,,,,1,0,1,0,0,17,17,17,,,,,,,,,False,36,117,False,exp3.png,exp4.png,trial_right_image,-1,exp4.png,2,exp4.png,exp3.png,0,4,reversed,correct,0.6628015526651984,1,valid_win,527.2697203000134,62,,,,,,,,,,,,,,,sub_450,2024-03-24_10h23.41.686,Reversal,2023.1.3,59.86980711579947,2,
18,exp1.png,exp2.png,,,,,,,,,,,,,,,,,,1,0,1,0,0,18,18,18,,,,,,,,,False,37,118,False,exp1.png,exp2.png,trial_left_image,1,exp1.png,2,exp1.png,exp2.png,1,1,non-reversed,correct,0.06587723480836016,0,invalid_lose,531.7683632000117,62,,,,,,,,,,,,,,,sub_450,2024-03-24_10h23.41.686,Reversal,2023.1.3,59.86980711579947,2,
19,exp3.png,exp4.png,,,,,,,,,,,,,,,,,,1,0,1,0,0,19,19,19,,,,,,,,,False,38,119,True,exp4.png,exp3.png,trial_right_image,-1,exp3.png,2,exp4.png,exp3.png,1,3,reversed,incorrect,0.8342107286012775,0,valid_lose,535.6835628999979,62,,,,,,,,,,,,,,,sub_450,2024-03-24_10h23.41.686,Reversal,2023.1.3,59.86980711579947,2,
20,exp1.png,exp2.png,,,,,,,,,,,,,,,,,,1,0,1,0,0,20,20,20,,,,,,,,,False,39,120,True,exp2.png,exp1.png,trial_left_image,1,exp2.png,2,exp1.png,exp2.png,0,2,non-reversed,incorrect,0.6688942881179831,0,valid_lose,539.6659533999918,62,,,,,,,,,,,,,,,sub_450,2024-03-24_10h23.41.686,Reversal,2023.1.3,59.86980711579947,2,
,,,exp1.png,,,,,,,,,,,,,,,,,1,0,1,0,,,,,0,0,0,0,0,0,0,0,,,,,,,,,,,,,,,,,,,,,,616.209798099997,None,None,[],,,,,,,,,,,sub_450,2024-03-24_10h23.41.686,Reversal,2023.1.3,59.86980711579947,2,
,,,exp2.png,,,,,,,,,,,,,,,,,1,0,1,0,,,,,0,0,0,0,0,1,1,1,,,,,,,,,,,,,,,,,,,,,,617.9190394000034,None,None,[],,,,,,,,,,,sub_450,2024-03-24_10h23.41.686,Reversal,2023.1.3,59.86980711579947,2,
,,,exp3.png,,,,,,,,,,,,,,,,,1,0,1,0,,,,,0,0,0,0,0,2,2,2,,,,,,,,,,,,,,,,,,,,,,618.384349400003,None,None,[],,,,,,,,,,,sub_450,2024-03-24_10h23.41.686,Reversal,2023.1.3,59.86980711579947,2,
,,,exp4.png,,,,,,,,,,,,,,,,,1,0,1,0,,,,,0,0,0,0,0,3,3,3,,,,,,,,,,,,,,,,,,,,,,619.3372157000122,None,None,[],,,,,,,,,,,sub_450,2024-03-24_10h23.41.686,Reversal,2023.1.3,59.86980711579947,2,
0,exp1.png,exp2.png,,,,,,,,,,,,,,,,,,2,0,2,0,0,0,0,0,,,,,,,,,True,,,,,,,,,,,,,,,,,,,,,,,,,,,,,,,,,,,sub_450,2024-03-24_10h23.41.686,Reversal,2023.1.3,59.86980711579947,2,
1,exp3.png,exp4.png,,,,,,,,,,,,,,,,,,2,0,2,0,0,1,1,1,,,,,,,,,False,40,121,True,exp4.png,exp3.png,trial_left_image,1,exp4.png,2,exp4.png,exp3.png,0,4,reversed,correct,0.40994467206047014,1,valid_win,548.0792599999986,63,,,,,,,,,,,,,,,sub_450,2024-03-24_10h23.41.686,Reversal,2023.1.3,59.86980711579947,2,
2,exp1.png,exp2.png,,,,,,,,,,,,,,,,,,2,0,2,0,0,2,2,2,,,,,,,,,False,41,122,False,exp1.png,exp2.png,trial_left_image,1,exp1.png,2,exp1.png,exp2.png,1,1,non-reversed,correct,0.26699389186737044,1,valid_win,551.8446328999999,64,,,,,,,,,,,,,,,sub_450,2024-03-24_10h23.41.686,Reversal,2023.1.3,59.86980711579947,2,
3,exp3.png,exp4.png,,,,,,,,,,,,,,,,,,2,0,2,0,0,3,3,3,,,,,,,,,False,42,123,False,exp3.png,exp4.png,trial_right_image,-1,exp4.png,2,exp4.png,exp3.png,0,4,reversed,correct,0.005464885427477473,0,invalid_lose,555.6603245000006,64,,,,,,,,,,,,,,,sub_450,2024-03-24_10h23.41.686,Reversal,2023.1.3,59.86980711579947,2,
4,exp1.png,exp2.png,,,,,,,,,,,,,,,,,,2,0,2,0,0,4,4,4,,,,,,,,,False,43,124,False,exp1.png,exp2.png,trial_left_image,1,exp1.png,2,exp1.png,exp2.png,1,1,non-reversed,correct,0.2132427580043461,0,invalid_lose,559.6088255000068,64,,,,,,,,,,,,,,,sub_450,2024-03-24_10h23.41.686,Reversal,2023.1.3,59.86980711579947,2,
5,exp3.png,exp4.png,,,,,,,,,,,,,,,,,,2,0,2,0,0,5,5,5,,,,,,,,,False,44,125,True,exp4.png,exp3.png,trial_right_image,-1,exp3.png,2,exp4.png,exp3.png,1,3,reversed,incorrect,0.17518395138409493,1,invalid_win,563.3405685999896,65,,,,,,,,,,,,,,,sub_450,2024-03-24_10h23.41.686,Reversal,2023.1.3,59.86980711579947,2,
6,exp1.png,exp2.png,,,,,,,,,,,,,,,,,,2,0,2,0,0,6,6,6,,,,,,,,,False,45,126,True,exp2.png,exp1.png,trial_right_image,-1,exp1.png,2,exp1.png,exp2.png,1,1,non-reversed,correct,0.822546516269969,1,valid_win,567.1731834000093,66,,,,,,,,,,,,,,,sub_450,2024-03-24_10h23.41.686,Reversal,2023.1.3,59.86980711579947,2,
7,exp3.png,exp4.png,,,,,,,,,,,,,,,,,,2,0,2,0,0,7,7,7,,,,,,,,,False,46,127,False,exp3.png,exp4.png,trial_right_image,-1,exp4.png,2,exp4.png,exp3.png,0,4,reversed,correct,0.08023114457521052,0,invalid_lose,570.9713106999989,66,,,,,,,,,,,,,,,sub_450,2024-03-24_10h23.41.686,Reversal,2023.1.3,59.86980711579947,2,
8,exp1.png,exp2.png,,,,,,,,,,,,,,,,,,2,0,2,0,0,8,8,8,,,,,,,,,False,47,128,True,exp2.png,exp1.png,trial_right_image,-1,exp1.png,2,exp1.png,exp2.png,1,1,non-reversed,correct,0.6915346417624986,1,valid_win,574.9033114000049,67,,,,,,,,,,,,,,,sub_450,2024-03-24_10h23.41.686,Reversal,2023.1.3,59.86980711579947,2,
9,exp3.png,exp4.png,,,,,,,,,,,,,,,,,,2,0,2,0,0,9,9,9,,,,,,,,,False,48,129,True,exp4.png,exp3.png,trial_left_image,1,exp4.png,2,exp4.png,exp3.png,0,4,reversed,correct,0.7464128670601616,1,valid_win,578.8357953999948,68,,,,,,,,,,,,,,,sub_450,2024-03-24_10h23.41.686,Reversal,2023.1.3,59.86980711579947,2,
10,exp1.png,exp2.png,,,,,,,,,,,,,,,,,,2,0,2,0,0,10,10,10,,,,,,,,,False,49,130,False,exp1.png,exp2.png,trial_right_image,-1,exp2.png,2,exp1.png,exp2.png,0,2,non-reversed,incorrect,0.1801876810577422,1,invalid_win,582.6344473999925,69,,,,,,,,,,,,,,,sub_450,2024-03-24_10h23.41.686,Reversal,2023.1.3,59.86980711579947,2,
11,exp3.png,exp4.png,,,,,,,,,,,,,,,,,,2,0,2,0,0,11,11,11,,,,,,,,,False,50,131,True,exp4.png,exp3.png,trial_left_image,1,exp4.png,2,exp4.png,exp3.png,0,4,reversed,correct,0.7976933475133322,1,valid_win,586.5669167999877,70,,,,,,,,,,,,,,,sub_450,2024-03-24_10h23.41.686,Reversal,2023.1.3,59.86980711579947,2,
12,exp1.png,exp2.png,,,,,,,,,,,,,,,,,,2,0,2,0,0,12,12,12,,,,,,,,,False,51,132,True,exp2.png,exp1.png,trial_right_image,-1,exp1.png,2,exp1.png,exp2.png,1,1,non-reversed,correct,0.2671672594995903,1,valid_win,590.4482417000108,71,,,,,,,,,,,,,,,sub_450,2024-03-24_10h23.41.686,Reversal,2023.1.3,59.86980711579947,2,
13,exp3.png,exp4.png,,,,,,,,,,,,,,,,,,2,0,2,0,0,13,13,13,,,,,,,,,False,52,133,True,exp4.png,exp3.png,trial_left_image,1,exp4.png,2,exp4.png,exp3.png,0,4,reversed,correct,0.1815898266753554,0,invalid_lose,594.5136377000017,71,,,,,,,,,,,,,,,sub_450,2024-03-24_10h23.41.686,Reversal,2023.1.3,59.86980711579947,2,
14,exp1.png,exp2.png,,,,,,,,,,,,,,,,,,2,0,2,0,0,14,14,14,,,,,,,,,False,53,134,True,exp2.png,exp1.png,trial_right_image,-1,exp1.png,2,exp1.png,exp2.png,1,1,non-reversed,correct,0.7579558121244357,1,valid_win,597.9622898999951,72,,,,,,,,,,,,,,,sub_450,2024-03-24_10h23.41.686,Reversal,2023.1.3,59.86980711579947,2,
15,exp3.png,exp4.png,,,,,,,,,,,,,,,,,,2,0,2,0,0,15,15,15,,,,,,,,,False,54,135,True,exp4.png,exp3.png,trial_right_image,-1,exp3.png,2,exp4.png,exp3.png,1,3,reversed,incorrect,0.5158286916528217,0,valid_lose,601.7277213000052,72,,,,,,,,,,,,,,,sub_450,2024-03-24_10h23.41.686,Reversal,2023.1.3,59.86980711579947,2,
16,exp1.png,exp2.png,,,,,,,,,,,,,,,,,,2,0,2,0,0,16,16,16,,,,,,,,,False,55,136,False,exp1.png,exp2.png,trial_left_image,1,exp1.png,2,exp1.png,exp2.png,1,1,non-reversed,correct,0.7056986780257467,1,valid_win,605.6602424000157,73,,,,,,,,,,,,,,,sub_450,2024-03-24_10h23.41.686,Reversal,2023.1.3,59.86980711579947,2,
17,exp3.png,exp4.png,,,,,,,,,,,,,,,,,,2,0,2,0,0,17,17,17,,,,,,,,,False,56,137,False,exp3.png,exp4.png,trial_left_image,1,exp3.png,2,exp4.png,exp3.png,1,3,reversed,incorrect,0.33463891751948527,0,valid_lose,609.5254907000053,73,,,,,,,,,,,,,,,sub_450,2024-03-24_10h23.41.686,Reversal,2023.1.3,59.86980711579947,2,
18,exp1.png,exp2.png,,,,,,,,,,,,,,,,,,2,0,2,0,0,18,18,18,,,,,,,,,False,57,138,False,exp1.png,exp2.png,trial_right_image,-1,exp2.png,2,exp1.png,exp2.png,0,2,non-reversed,incorrect,0.9173666713542731,0,valid_lose,613.4238951000152,73,,,,,,,,,,,,,,,sub_450,2024-03-24_10h23.41.686,Reversal,2023.1.3,59.86980711579947,2,
19,exp3.png,exp4.png,,,,,,,,,,,,,,,,,,2,0,2,0,0,19,19,19,,,,,,,,,False,58,139,False,exp3.png,exp4.png,trial_left_image,1,exp3.png,2,exp4.png,exp3.png,1,3,reversed,incorrect,0.3171927739947309,0,valid_lose,617.2061743999948,73,,,,,,,,,,,,,,,sub_450,2024-03-24_10h23.41.686,Reversal,2023.1.3,59.86980711579947,2,
20,exp1.png,exp2.png,,,,,,,,,,,,,,,,,,2,0,2,0,0,20,20,20,,,,,,,,,False,59,140,False,exp1.png,exp2.png,trial_left_image,1,exp1.png,2,exp1.png,exp2.png,1,1,non-reversed,correct,0.3507207271408985,1,valid_win,620.9877994999988,74,,,,,,,,,,,,,,,sub_450,2024-03-24_10h23.41.686,Reversal,2023.1.3,59.86980711579947,2,
,,,exp1.png,,,,,,,,,,,,,,,,,2,0,2,0,,,,,0,0,0,0,0,0,0,0,,,,,,,,,,,,,,,,,,,,,,697.5320613000076,None,None,[],,,,,,,,,,,sub_450,2024-03-24_10h23.41.686,Reversal,2023.1.3,59.86980711579947,2,
,,,exp2.png,,,,,,,,,,,,,,,,,2,0,2,0,,,,,0,0,0,0,0,1,1,1,,,,,,,,,,,,,,,,,,,,,,698.9201508999977,None,None,[],,,,,,,,,,,sub_450,2024-03-24_10h23.41.686,Reversal,2023.1.3,59.86980711579947,2,
,,,exp3.png,,,,,,,,,,,,,,,,,2,0,2,0,,,,,0,0,0,0,0,2,2,2,,,,,,,,,,,,,,,,,,,,,,699.3852848999959,None,None,[],,,,,,,,,,,sub_450,2024-03-24_10h23.41.686,Reversal,2023.1.3,59.86980711579947,2,
,,,exp4.png,,,,,,,,,,,,,,,,,2,0,2,0,,,,,0,0,0,0,0,3,3,3,,,,,,,,,,,,,,,,,,,,,,700.4170642000099,None,None,[],,,,,,,,,,,sub_450,2024-03-24_10h23.41.686,Reversal,2023.1.3,59.86980711579947,2,
,,,,,,,,,,,,,,,,,,,,,,,,,,,,,,,,,,,,,,,,,,,,,,,,,,,,,,,,74,,,,,,,88,49,39,247.5340752999764,1,space,110.83076289997553,None,sub_450,2024-03-24_10h23.41.686,Reversal,2023.1.3,59.86980711579947,2,
