trial_index,trial_image1_file,trial_image2_file,image_file,learning_outer_loop.thisRepN,learning_outer_loop.thisTrialN,learning_outer_loop.thisN,learning_outer_loop.thisIndex,learning_inner_loop.thisRepN,learning_inner_loop.thisTrialN,learning_inner_loop.thisN,learning_inner_loop.thisIndex,learning_estimation_outer_loop.thisRepN,learning_estimation_outer_loop.thisTrialN,learning_estimation_outer_loop.thisN,learning_estimation_outer_loop.thisIndex,learning_estimation_inner_loop.thisRepN,learning_estimation_inner_loop.thisTrialN,learning_estimation_inner_loop.thisN,learning_estimation_inner_loop.thisIndex,reversal_outer_loop.thisRepN,reversal_outer_loop.thisTrialN,reversal_outer_loop.thisN,reversal_outer_loop.thisIndex,reversal_inner_loop.thisRepN,reversal_inner_loop.thisTrialN,reversal_inner_loop.thisN,reversal_inner_loop.thisIndex,reversal_estimation_outer_loop.thisRepN,reversal_estimation_outer_loop.thisTrialN,reversal_estimation_outer_loop.thisN,reversal_estimation_outer_loop.thisIndex,reversal_estimation_inner_loop.thisRepN,reversal_estimation_inner_loop.thisTrialN,reversal_estimation_inner_loop.thisN,reversal_estimation_inner_loop.thisIndex,skipped,total_trial_counter,trial_num,left_right_flip,left_image_file,right_image_file,clicked_stimulus_side,side,clicked_stimulus,version,high_prob_image_file,low_prob_image_file,choice_a,choice_b,pair_type,correct,trial_feedback_random,reward,trial_type,overall_time_after_trial,score,estimation_exp1.png,estimation_rating.response,estimation_rating.rt,estimation_rating.history,estimation_rating.started,estimation_rating.stopped,estimation_exp2.png,estimation_exp3.png,estimation_exp4.png,total_learning_time,total_correct,learning_correct,reversal_correct,total_reversal_time,extra_block,participant,date,expName,psychopyVersion,frameRate,ver,
0,exp1.png,exp2.png,,0,0,0,0,0,0,0,0,,,,,,,,,,,,,,,,,,,,,,,,,False,0,1,True,exp2.png,exp1.png,trial_left_image,1,exp2.png,4,exp2.png,exp1.png,1,1,non-reversed,correct,0.0007739471868187797,0,invalid_lose,6.1332799999800045,0,,,,,,,,,,,,,,,,sub_168,2022-09-14_14h11.26.743,Reversal,2022.1.2,60.03312627622874,4,
1,exp3.png,exp4.png,,0,0,0,0,0,1,1,1,,,,,,,,,,,,,,,,,,,,,,,,,False,1,2,False,exp3.png,exp4.png,trial_left_image,1,exp3.png,4,exp4.png,exp3.png,0,4,reversed,incorrect,0.6070707990488904,0,valid_lose,19.21611739997752,0,,,,,,,,,,,,,,,,sub_168,2022-09-14_14h11.26.743,Reversal,2022.1.2,60.03312627622874,4,
2,exp1.png,exp2.png,,0,0,0,0,0,2,2,2,,,,,,,,,,,,,,,,,,,,,,,,,False,2,3,False,exp1.png,exp2.png,trial_right_image,-1,exp2.png,4,exp2.png,exp1.png,1,1,non-reversed,correct,0.26187069813034347,1,valid_win,38.599302299990086,1,,,,,,,,,,,,,,,,sub_168,2022-09-14_14h11.26.743,Reversal,2022.1.2,60.03312627622874,4,
3,exp3.png,exp4.png,,0,0,0,0,0,3,3,3,,,,,,,,,,,,,,,,,,,,,,,,,False,3,4,True,exp4.png,exp3.png,trial_right_image,-1,exp3.png,4,exp4.png,exp3.png,0,4,reversed,incorrect,0.41192299864744153,0,valid_lose,46.299270399991656,1,,,,,,,,,,,,,,,,sub_168,2022-09-14_14h11.26.743,Reversal,2022.1.2,60.03312627622874,4,
4,exp1.png,exp2.png,,0,0,0,0,0,4,4,4,,,,,,,,,,,,,,,,,,,,,,,,,False,4,5,False,exp1.png,exp2.png,trial_left_image,1,exp1.png,4,exp2.png,exp1.png,0,2,non-reversed,incorrect,0.31468619456558544,0,valid_lose,56.03236469998956,1,,,,,,,,,,,,,,,,sub_168,2022-09-14_14h11.26.743,Reversal,2022.1.2,60.03312627622874,4,
5,exp3.png,exp4.png,,0,0,0,0,0,5,5,5,,,,,,,,,,,,,,,,,,,,,,,,,False,5,6,True,exp4.png,exp3.png,trial_left_image,1,exp4.png,4,exp4.png,exp3.png,1,3,reversed,correct,0.3446130089732439,1,valid_win,70.48156169999857,2,,,,,,,,,,,,,,,,sub_168,2022-09-14_14h11.26.743,Reversal,2022.1.2,60.03312627622874,4,
6,exp1.png,exp2.png,,0,0,0,0,0,6,6,6,,,,,,,,,,,,,,,,,,,,,,,,,False,6,7,False,exp1.png,exp2.png,trial_right_image,-1,exp2.png,4,exp2.png,exp1.png,1,1,non-reversed,correct,0.8516434275294167,1,valid_win,75.81561979997787,3,,,,,,,,,,,,,,,,sub_168,2022-09-14_14h11.26.743,Reversal,2022.1.2,60.03312627622874,4,
7,exp3.png,exp4.png,,0,0,0,0,0,7,7,7,,,,,,,,,,,,,,,,,,,,,,,,,False,7,8,False,exp3.png,exp4.png,trial_left_image,1,exp3.png,4,exp4.png,exp3.png,0,4,reversed,incorrect,0.7828531216326097,0,valid_lose,81.89860519999638,3,,,,,,,,,,,,,,,,sub_168,2022-09-14_14h11.26.743,Reversal,2022.1.2,60.03312627622874,4,
8,exp1.png,exp2.png,,0,0,0,0,0,8,8,8,,,,,,,,,,,,,,,,,,,,,,,,,False,8,9,True,exp2.png,exp1.png,trial_left_image,1,exp2.png,4,exp2.png,exp1.png,1,1,non-reversed,correct,0.4474465097577849,1,valid_win,87.7653773999773,4,,,,,,,,,,,,,,,,sub_168,2022-09-14_14h11.26.743,Reversal,2022.1.2,60.03312627622874,4,
9,exp3.png,exp4.png,,0,0,0,0,0,9,9,9,,,,,,,,,,,,,,,,,,,,,,,,,False,9,10,False,exp3.png,exp4.png,trial_right_image,-1,exp4.png,4,exp4.png,exp3.png,1,3,reversed,correct,0.029121749145500808,0,invalid_lose,94.09824309998658,4,,,,,,,,,,,,,,,,sub_168,2022-09-14_14h11.26.743,Reversal,2022.1.2,60.03312627622874,4,
10,exp1.png,exp2.png,,0,0,0,0,0,10,10,10,,,,,,,,,,,,,,,,,,,,,,,,,False,10,11,False,exp1.png,exp2.png,trial_right_image,-1,exp2.png,4,exp2.png,exp1.png,1,1,non-reversed,correct,0.9780100183264419,1,valid_win,100.6145772000018,5,,,,,,,,,,,,,,,,sub_168,2022-09-14_14h11.26.743,Reversal,2022.1.2,60.03312627622874,4,
11,exp3.png,exp4.png,,0,0,0,0,0,11,11,11,,,,,,,,,,,,,,,,,,,,,,,,,False,11,12,True,exp4.png,exp3.png,trial_left_image,1,exp4.png,4,exp4.png,exp3.png,1,3,reversed,correct,0.2675330428754842,1,valid_win,110.58170509999036,6,,,,,,,,,,,,,,,,sub_168,2022-09-14_14h11.26.743,Reversal,2022.1.2,60.03312627622874,4,
12,exp1.png,exp2.png,,0,0,0,0,0,12,12,12,,,,,,,,,,,,,,,,,,,,,,,,,False,12,13,True,exp2.png,exp1.png,trial_left_image,1,exp2.png,4,exp2.png,exp1.png,1,1,non-reversed,correct,0.28122480499226443,1,valid_win,116.31481469998835,7,,,,,,,,,,,,,,,,sub_168,2022-09-14_14h11.26.743,Reversal,2022.1.2,60.03312627622874,4,
13,exp3.png,exp4.png,,0,0,0,0,0,13,13,13,,,,,,,,,,,,,,,,,,,,,,,,,False,13,14,False,exp3.png,exp4.png,trial_right_image,-1,exp4.png,4,exp4.png,exp3.png,1,3,reversed,correct,0.6334457753031029,1,valid_win,124.24843399997917,8,,,,,,,,,,,,,,,,sub_168,2022-09-14_14h11.26.743,Reversal,2022.1.2,60.03312627622874,4,
14,exp1.png,exp2.png,,0,0,0,0,0,14,14,14,,,,,,,,,,,,,,,,,,,,,,,,,False,14,15,False,exp1.png,exp2.png,trial_right_image,-1,exp2.png,4,exp2.png,exp1.png,1,1,non-reversed,correct,0.019498668122141516,0,invalid_lose,129.54738239999278,8,,,,,,,,,,,,,,,,sub_168,2022-09-14_14h11.26.743,Reversal,2022.1.2,60.03312627622874,4,
15,exp3.png,exp4.png,,0,0,0,0,0,15,15,15,,,,,,,,,,,,,,,,,,,,,,,,,False,15,16,True,exp4.png,exp3.png,trial_left_image,1,exp4.png,4,exp4.png,exp3.png,1,3,reversed,correct,0.744711893414928,1,valid_win,135.18094269998255,9,,,,,,,,,,,,,,,,sub_168,2022-09-14_14h11.26.743,Reversal,2022.1.2,60.03312627622874,4,
16,exp1.png,exp2.png,,0,0,0,0,0,16,16,16,,,,,,,,,,,,,,,,,,,,,,,,,False,16,17,True,exp2.png,exp1.png,trial_left_image,1,exp2.png,4,exp2.png,exp1.png,1,1,non-reversed,correct,0.9397556775554886,1,valid_win,140.4979073999857,10,,,,,,,,,,,,,,,,sub_168,2022-09-14_14h11.26.743,Reversal,2022.1.2,60.03312627622874,4,
17,exp3.png,exp4.png,,0,0,0,0,0,17,17,17,,,,,,,,,,,,,,,,,,,,,,,,,False,17,18,True,exp4.png,exp3.png,trial_left_image,1,exp4.png,4,exp4.png,exp3.png,1,3,reversed,correct,0.7457168142709852,1,valid_win,146.8807908000017,11,,,,,,,,,,,,,,,,sub_168,2022-09-14_14h11.26.743,Reversal,2022.1.2,60.03312627622874,4,
18,exp1.png,exp2.png,,0,0,0,0,0,18,18,18,,,,,,,,,,,,,,,,,,,,,,,,,False,18,19,True,exp2.png,exp1.png,trial_left_image,1,exp2.png,4,exp2.png,exp1.png,1,1,non-reversed,correct,0.13473863521683294,0,invalid_lose,152.0144811999926,11,,,,,,,,,,,,,,,,sub_168,2022-09-14_14h11.26.743,Reversal,2022.1.2,60.03312627622874,4,
19,exp3.png,exp4.png,,0,0,0,0,0,19,19,19,,,,,,,,,,,,,,,,,,,,,,,,,False,19,20,False,exp3.png,exp4.png,trial_left_image,1,exp3.png,4,exp4.png,exp3.png,0,4,reversed,incorrect,0.12180468138347433,1,invalid_win,161.4473575000011,12,,,,,,,,,,,,,,,,sub_168,2022-09-14_14h11.26.743,Reversal,2022.1.2,60.03312627622874,4,
20,exp1.png,exp2.png,,0,0,0,0,0,20,20,20,,,,,,,,,,,,,,,,,,,,,,,,,True,,,,,,,,,,,,,,,,,,,,,,,,,,,,,,,,,,,,sub_168,2022-09-14_14h11.26.743,Reversal,2022.1.2,60.03312627622874,4,
,,,exp1.png,0,0,0,0,,,,,0,0,0,0,0,0,0,0,,,,,,,,,,,,,,,,,,,,,,,,,,,,,,,,,,,,,,5.0,5.0,8.753106099989964,"[(5.0, 8.753106099989964)]",364.52779429999646,None,,,,,,,,,,sub_168,2022-09-14_14h11.26.743,Reversal,2022.1.2,60.03312627622874,4,
,,,exp2.png,0,0,0,0,,,,,0,0,0,0,0,1,1,1,,,,,,,,,,,,,,,,,,,,,,,,,,,,,,,,,,,,,,,50.0,6.533225500024855,"[(75.0, 3.20314770002733), (52.0, 5.76665210002102), (50.0, 6.533225500024855)]",374.7707559999835,None,50.0,,,,,,,,,sub_168,2022-09-14_14h11.26.743,Reversal,2022.1.2,60.03312627622874,4,
,,,exp3.png,0,0,0,0,,,,,0,0,0,0,0,2,2,2,,,,,,,,,,,,,,,,,,,,,,,,,,,,,,,,,,,,,,,52.0,7.735089399997378,"[(52.0, 7.735089399997378)]",382.4216351000068,None,,52.0,,,,,,,,sub_168,2022-09-14_14h11.26.743,Reversal,2022.1.2,60.03312627622874,4,
,,,exp4.png,0,0,0,0,,,,,0,0,0,0,0,3,3,3,,,,,,,,,,,,,,,,,,,,,,,,,,,,,,,,,,,,,,,100.0,3.667315200000303,"[(100.0, 3.667315200000303)]",391.1224605999887,None,,,100.0,,,,,,,sub_168,2022-09-14_14h11.26.743,Reversal,2022.1.2,60.03312627622874,4,
0,exp1.png,exp2.png,,1,0,1,0,0,0,0,0,,,,,,,,,,,,,,,,,,,,,,,,,False,20,21,False,exp1.png,exp2.png,trial_left_image,1,exp1.png,4,exp2.png,exp1.png,0,2,non-reversed,incorrect,0.22524946606801155,1,invalid_win,200.8128753999772,13,,,,,,,,,,,,,,,,sub_168,2022-09-14_14h11.26.743,Reversal,2022.1.2,60.03312627622874,4,
1,exp3.png,exp4.png,,1,0,1,0,0,1,1,1,,,,,,,,,,,,,,,,,,,,,,,,,False,21,22,True,exp4.png,exp3.png,trial_left_image,1,exp4.png,4,exp4.png,exp3.png,1,3,reversed,correct,0.032652057254369926,0,invalid_lose,207.09681580000324,13,,,,,,,,,,,,,,,,sub_168,2022-09-14_14h11.26.743,Reversal,2022.1.2,60.03312627622874,4,
2,exp1.png,exp2.png,,1,0,1,0,0,2,2,2,,,,,,,,,,,,,,,,,,,,,,,,,False,22,23,True,exp2.png,exp1.png,trial_right_image,-1,exp1.png,4,exp2.png,exp1.png,0,2,non-reversed,incorrect,0.5363814231661482,0,valid_lose,214.37939839999308,13,,,,,,,,,,,,,,,,sub_168,2022-09-14_14h11.26.743,Reversal,2022.1.2,60.03312627622874,4,
3,exp3.png,exp4.png,,1,0,1,0,0,3,3,3,,,,,,,,,,,,,,,,,,,,,,,,,False,23,24,True,exp4.png,exp3.png,trial_right_image,-1,exp3.png,4,exp4.png,exp3.png,0,4,reversed,incorrect,0.4965475865131217,0,valid_lose,226.5296973999939,13,,,,,,,,,,,,,,,,sub_168,2022-09-14_14h11.26.743,Reversal,2022.1.2,60.03312627622874,4,
4,exp1.png,exp2.png,,1,0,1,0,0,4,4,4,,,,,,,,,,,,,,,,,,,,,,,,,False,24,25,False,exp1.png,exp2.png,trial_right_image,-1,exp2.png,4,exp2.png,exp1.png,1,1,non-reversed,correct,0.6396962058040424,1,valid_win,235.82956909999484,14,,,,,,,,,,,,,,,,sub_168,2022-09-14_14h11.26.743,Reversal,2022.1.2,60.03312627622874,4,
5,exp3.png,exp4.png,,1,0,1,0,0,5,5,5,,,,,,,,,,,,,,,,,,,,,,,,,False,25,26,False,exp3.png,exp4.png,trial_right_image,-1,exp4.png,4,exp4.png,exp3.png,1,3,reversed,correct,0.921439776931905,1,valid_win,241.99564919999102,15,,,,,,,,,,,,,,,,sub_168,2022-09-14_14h11.26.743,Reversal,2022.1.2,60.03312627622874,4,
6,exp1.png,exp2.png,,1,0,1,0,0,6,6,6,,,,,,,,,,,,,,,,,,,,,,,,,False,26,27,False,exp1.png,exp2.png,trial_right_image,-1,exp2.png,4,exp2.png,exp1.png,1,1,non-reversed,correct,0.8419628297722969,1,valid_win,247.44631899998058,16,,,,,,,,,,,,,,,,sub_168,2022-09-14_14h11.26.743,Reversal,2022.1.2,60.03312627622874,4,
7,exp3.png,exp4.png,,1,0,1,0,0,7,7,7,,,,,,,,,,,,,,,,,,,,,,,,,False,27,28,True,exp4.png,exp3.png,trial_left_image,1,exp4.png,4,exp4.png,exp3.png,1,3,reversed,correct,0.1665339252083129,0,invalid_lose,257.82848659998854,16,,,,,,,,,,,,,,,,sub_168,2022-09-14_14h11.26.743,Reversal,2022.1.2,60.03312627622874,4,
8,exp1.png,exp2.png,,1,0,1,0,0,8,8,8,,,,,,,,,,,,,,,,,,,,,,,,,False,28,29,True,exp2.png,exp1.png,trial_left_image,1,exp2.png,4,exp2.png,exp1.png,1,1,non-reversed,correct,0.15188487154455232,0,invalid_lose,263.7285326999845,16,,,,,,,,,,,,,,,,sub_168,2022-09-14_14h11.26.743,Reversal,2022.1.2,60.03312627622874,4,
9,exp3.png,exp4.png,,1,0,1,0,0,9,9,9,,,,,,,,,,,,,,,,,,,,,,,,,False,29,30,False,exp3.png,exp4.png,trial_right_image,-1,exp4.png,4,exp4.png,exp3.png,1,3,reversed,correct,0.7997860064706526,1,valid_win,271.279005999997,17,,,,,,,,,,,,,,,,sub_168,2022-09-14_14h11.26.743,Reversal,2022.1.2,60.03312627622874,4,
10,exp1.png,exp2.png,,1,0,1,0,0,10,10,10,,,,,,,,,,,,,,,,,,,,,,,,,False,30,31,True,exp2.png,exp1.png,trial_left_image,1,exp2.png,4,exp2.png,exp1.png,1,1,non-reversed,correct,0.560077764989446,1,valid_win,276.2621500999958,18,,,,,,,,,,,,,,,,sub_168,2022-09-14_14h11.26.743,Reversal,2022.1.2,60.03312627622874,4,
11,exp3.png,exp4.png,,1,0,1,0,0,11,11,11,,,,,,,,,,,,,,,,,,,,,,,,,False,31,32,True,exp4.png,exp3.png,trial_right_image,-1,exp3.png,4,exp4.png,exp3.png,0,4,reversed,incorrect,0.08992004173760104,1,invalid_win,280.74532699998235,19,,,,,,,,,,,,,,,,sub_168,2022-09-14_14h11.26.743,Reversal,2022.1.2,60.03312627622874,4,
12,exp1.png,exp2.png,,1,0,1,0,0,12,12,12,,,,,,,,,,,,,,,,,,,,,,,,,False,32,33,False,exp1.png,exp2.png,trial_right_image,-1,exp2.png,4,exp2.png,exp1.png,1,1,non-reversed,correct,0.3757360849107252,1,valid_win,285.2277761999867,20,,,,,,,,,,,,,,,,sub_168,2022-09-14_14h11.26.743,Reversal,2022.1.2,60.03312627622874,4,
13,exp3.png,exp4.png,,1,0,1,0,0,13,13,13,,,,,,,,,,,,,,,,,,,,,,,,,False,33,34,True,exp4.png,exp3.png,trial_right_image,-1,exp3.png,4,exp4.png,exp3.png,0,4,reversed,incorrect,0.9790993361168082,0,valid_lose,292.24480279997806,20,,,,,,,,,,,,,,,,sub_168,2022-09-14_14h11.26.743,Reversal,2022.1.2,60.03312627622874,4,
14,exp1.png,exp2.png,,1,0,1,0,0,14,14,14,,,,,,,,,,,,,,,,,,,,,,,,,False,34,35,True,exp2.png,exp1.png,trial_left_image,1,exp2.png,4,exp2.png,exp1.png,1,1,non-reversed,correct,0.03385740118625569,0,invalid_lose,296.49418779998086,20,,,,,,,,,,,,,,,,sub_168,2022-09-14_14h11.26.743,Reversal,2022.1.2,60.03312627622874,4,
15,exp3.png,exp4.png,,1,0,1,0,0,15,15,15,,,,,,,,,,,,,,,,,,,,,,,,,False,35,36,False,exp3.png,exp4.png,trial_left_image,1,exp3.png,4,exp4.png,exp3.png,0,4,reversed,incorrect,0.27758957793004935,0,valid_lose,304.0597652999859,20,,,,,,,,,,,,,,,,sub_168,2022-09-14_14h11.26.743,Reversal,2022.1.2,60.03312627622874,4,
16,exp1.png,exp2.png,,1,0,1,0,0,16,16,16,,,,,,,,,,,,,,,,,,,,,,,,,False,36,37,False,exp1.png,exp2.png,trial_left_image,1,exp1.png,4,exp2.png,exp1.png,0,2,non-reversed,incorrect,0.5600037878480488,0,valid_lose,322.9605959999899,20,,,,,,,,,,,,,,,,sub_168,2022-09-14_14h11.26.743,Reversal,2022.1.2,60.03312627622874,4,
17,exp3.png,exp4.png,,1,0,1,0,0,17,17,17,,,,,,,,,,,,,,,,,,,,,,,,,False,37,38,False,exp3.png,exp4.png,trial_left_image,1,exp3.png,4,exp4.png,exp3.png,0,4,reversed,incorrect,0.7954104876494741,0,valid_lose,328.66236439999193,20,,,,,,,,,,,,,,,,sub_168,2022-09-14_14h11.26.743,Reversal,2022.1.2,60.03312627622874,4,
18,exp1.png,exp2.png,,1,0,1,0,0,18,18,18,,,,,,,,,,,,,,,,,,,,,,,,,False,38,39,True,exp2.png,exp1.png,trial_left_image,1,exp2.png,4,exp2.png,exp1.png,1,1,non-reversed,correct,0.5860830014776063,1,valid_win,334.12731599999825,21,,,,,,,,,,,,,,,,sub_168,2022-09-14_14h11.26.743,Reversal,2022.1.2,60.03312627622874,4,
19,exp3.png,exp4.png,,1,0,1,0,0,19,19,19,,,,,,,,,,,,,,,,,,,,,,,,,False,39,40,False,exp3.png,exp4.png,trial_right_image,-1,exp4.png,4,exp4.png,exp3.png,1,3,reversed,correct,0.5392757887995981,1,valid_win,339.8937904999766,22,,,,,,,,,,,,,,,,sub_168,2022-09-14_14h11.26.743,Reversal,2022.1.2,60.03312627622874,4,
20,exp1.png,exp2.png,,1,0,1,0,0,20,20,20,,,,,,,,,,,,,,,,,,,,,,,,,True,,,,,,,,,,,,,,,,,,,,,,,,,,,,,,,,,,,,sub_168,2022-09-14_14h11.26.743,Reversal,2022.1.2,60.03312627622874,4,
,,,exp1.png,1,0,1,0,,,,,0,0,0,0,0,0,0,0,,,,,,,,,,,,,,,,,,,,,,,,,,,,,,,,,,,,,,5.0,5.0,2.8401293999922927,"[(5.0, 2.8401293999922927)]",542.9640999999829,None,,,,,,,,,,sub_168,2022-09-14_14h11.26.743,Reversal,2022.1.2,60.03312627622874,4,
,,,exp2.png,1,0,1,0,,,,,0,0,0,0,0,1,1,1,,,,,,,,,,,,,,,,,,,,,,,,,,,,,,,,,,,,,,,50.0,None,[],547.1339196999907,None,,,,,,,,,,sub_168,2022-09-14_14h11.26.743,Reversal,2022.1.2,60.03312627622874,4,
,,,exp3.png,1,0,1,0,,,,,0,0,0,0,0,2,2,2,,,,,,,,,,,,,,,,,,,,,,,,,,,,,,,,,,,,,,,50.0,None,[],550.3177201999933,None,,,,,,,,,,sub_168,2022-09-14_14h11.26.743,Reversal,2022.1.2,60.03312627622874,4,
,,,exp4.png,1,0,1,0,,,,,0,0,0,0,0,3,3,3,,,,,,,,,,,,,,,,,,,,,,,,,,,,,,,,,,,,,,,50.0,None,[],553.9568169999984,None,,,,,,,,,,sub_168,2022-09-14_14h11.26.743,Reversal,2022.1.2,60.03312627622874,4,
0,exp1.png,exp2.png,,2,0,2,0,0,0,0,0,,,,,,,,,,,,,,,,,,,,,,,,,False,40,41,True,exp2.png,exp1.png,trial_left_image,1,exp2.png,4,exp2.png,exp1.png,1,1,non-reversed,correct,0.7305974130705754,1,valid_win,356.3270048999984,23,,,,,,,,,,,,,,,,sub_168,2022-09-14_14h11.26.743,Reversal,2022.1.2,60.03312627622874,4,
1,exp3.png,exp4.png,,2,0,2,0,0,1,1,1,,,,,,,,,,,,,,,,,,,,,,,,,False,41,42,True,exp4.png,exp3.png,trial_right_image,-1,exp3.png,4,exp4.png,exp3.png,0,4,reversed,incorrect,0.8230315681106157,0,valid_lose,364.7272735000006,23,,,,,,,,,,,,,,,,sub_168,2022-09-14_14h11.26.743,Reversal,2022.1.2,60.03312627622874,4,
2,exp1.png,exp2.png,,2,0,2,0,0,2,2,2,,,,,,,,,,,,,,,,,,,,,,,,,False,42,43,False,exp1.png,exp2.png,trial_right_image,-1,exp2.png,4,exp2.png,exp1.png,1,1,non-reversed,correct,0.494998428939575,1,valid_win,370.22575309997774,24,,,,,,,,,,,,,,,,sub_168,2022-09-14_14h11.26.743,Reversal,2022.1.2,60.03312627622874,4,
3,exp3.png,exp4.png,,2,0,2,0,0,3,3,3,,,,,,,,,,,,,,,,,,,,,,,,,False,43,44,True,exp4.png,exp3.png,trial_left_image,1,exp4.png,4,exp4.png,exp3.png,1,3,reversed,correct,0.44441813409277087,1,valid_win,380.7602062999795,25,,,,,,,,,,,,,,,,sub_168,2022-09-14_14h11.26.743,Reversal,2022.1.2,60.03312627622874,4,
4,exp1.png,exp2.png,,2,0,2,0,0,4,4,4,,,,,,,,,,,,,,,,,,,,,,,,,False,44,45,False,exp1.png,exp2.png,trial_right_image,-1,exp2.png,4,exp2.png,exp1.png,1,1,non-reversed,correct,0.5843039281432595,1,valid_win,385.32660299999407,26,,,,,,,,,,,,,,,,sub_168,2022-09-14_14h11.26.743,Reversal,2022.1.2,60.03312627622874,4,
5,exp3.png,exp4.png,,2,0,2,0,0,5,5,5,,,,,,,,,,,,,,,,,,,,,,,,,False,45,46,False,exp3.png,exp4.png,trial_right_image,-1,exp4.png,4,exp4.png,exp3.png,1,3,reversed,correct,0.32892440768003595,1,valid_win,392.3767923999985,27,,,,,,,,,,,,,,,,sub_168,2022-09-14_14h11.26.743,Reversal,2022.1.2,60.03312627622874,4,
6,exp1.png,exp2.png,,2,0,2,0,0,6,6,6,,,,,,,,,,,,,,,,,,,,,,,,,False,46,47,True,exp2.png,exp1.png,trial_left_image,1,exp2.png,4,exp2.png,exp1.png,1,1,non-reversed,correct,0.20706176816455535,0,invalid_lose,396.8764796000032,27,,,,,,,,,,,,,,,,sub_168,2022-09-14_14h11.26.743,Reversal,2022.1.2,60.03312627622874,4,
7,exp3.png,exp4.png,,2,0,2,0,0,7,7,7,,,,,,,,,,,,,,,,,,,,,,,,,False,47,48,True,exp4.png,exp3.png,trial_right_image,-1,exp3.png,4,exp4.png,exp3.png,0,4,reversed,incorrect,0.19969287844363892,1,invalid_win,401.7934664999775,28,,,,,,,,,,,,,,,,sub_168,2022-09-14_14h11.26.743,Reversal,2022.1.2,60.03312627622874,4,
8,exp1.png,exp2.png,,2,0,2,0,0,8,8,8,,,,,,,,,,,,,,,,,,,,,,,,,False,48,49,True,exp2.png,exp1.png,trial_right_image,-1,exp1.png,4,exp2.png,exp1.png,0,2,non-reversed,incorrect,0.47547597147554144,0,valid_lose,406.19345289998455,28,,,,,,,,,,,,,,,,sub_168,2022-09-14_14h11.26.743,Reversal,2022.1.2,60.03312627622874,4,
9,exp3.png,exp4.png,,2,0,2,0,0,9,9,9,,,,,,,,,,,,,,,,,,,,,,,,,False,49,50,False,exp3.png,exp4.png,trial_right_image,-1,exp4.png,4,exp4.png,exp3.png,1,3,reversed,correct,0.19615175654105843,0,invalid_lose,411.22637809999287,28,,,,,,,,,,,,,,,,sub_168,2022-09-14_14h11.26.743,Reversal,2022.1.2,60.03312627622874,4,
10,exp1.png,exp2.png,,2,0,2,0,0,10,10,10,,,,,,,,,,,,,,,,,,,,,,,,,False,50,51,False,exp1.png,exp2.png,trial_right_image,-1,exp2.png,4,exp2.png,exp1.png,1,1,non-reversed,correct,0.4271756434821904,1,valid_win,416.1762114999874,29,,,,,,,,,,,,,,,,sub_168,2022-09-14_14h11.26.743,Reversal,2022.1.2,60.03312627622874,4,
11,exp3.png,exp4.png,,2,0,2,0,0,11,11,11,,,,,,,,,,,,,,,,,,,,,,,,,False,51,52,True,exp4.png,exp3.png,trial_left_image,1,exp4.png,4,exp4.png,exp3.png,1,3,reversed,correct,0.5995389550425692,1,valid_win,421.8423062999791,30,,,,,,,,,,,,,,,,sub_168,2022-09-14_14h11.26.743,Reversal,2022.1.2,60.03312627622874,4,
12,exp1.png,exp2.png,,2,0,2,0,0,12,12,12,,,,,,,,,,,,,,,,,,,,,,,,,False,52,53,True,exp2.png,exp1.png,trial_left_image,1,exp2.png,4,exp2.png,exp1.png,1,1,non-reversed,correct,0.6384226627788679,1,valid_win,427.95923439998296,31,,,,,,,,,,,,,,,,sub_168,2022-09-14_14h11.26.743,Reversal,2022.1.2,60.03312627622874,4,
13,exp3.png,exp4.png,,2,0,2,0,0,13,13,13,,,,,,,,,,,,,,,,,,,,,,,,,False,53,54,False,exp3.png,exp4.png,trial_left_image,1,exp3.png,4,exp4.png,exp3.png,0,4,reversed,incorrect,0.0885820307252998,1,invalid_win,436.1591344999906,32,,,,,,,,,,,,,,,,sub_168,2022-09-14_14h11.26.743,Reversal,2022.1.2,60.03312627622874,4,
14,exp1.png,exp2.png,,2,0,2,0,0,14,14,14,,,,,,,,,,,,,,,,,,,,,,,,,False,54,55,False,exp1.png,exp2.png,trial_left_image,1,exp1.png,4,exp2.png,exp1.png,0,2,non-reversed,incorrect,0.4001050398339112,0,valid_lose,441.5921707999951,32,,,,,,,,,,,,,,,,sub_168,2022-09-14_14h11.26.743,Reversal,2022.1.2,60.03312627622874,4,
15,exp3.png,exp4.png,,2,0,2,0,0,15,15,15,,,,,,,,,,,,,,,,,,,,,,,,,False,55,56,False,exp3.png,exp4.png,trial_left_image,1,exp3.png,4,exp4.png,exp3.png,0,4,reversed,incorrect,0.28750044713169876,0,valid_lose,446.44219239999074,32,,,,,,,,,,,,,,,,sub_168,2022-09-14_14h11.26.743,Reversal,2022.1.2,60.03312627622874,4,
16,exp1.png,exp2.png,,2,0,2,0,0,16,16,16,,,,,,,,,,,,,,,,,,,,,,,,,False,56,57,True,exp2.png,exp1.png,trial_left_image,1,exp2.png,4,exp2.png,exp1.png,1,1,non-reversed,correct,0.031057613924079575,0,invalid_lose,451.37563999998383,32,,,,,,,,,,,,,,,,sub_168,2022-09-14_14h11.26.743,Reversal,2022.1.2,60.03312627622874,4,
17,exp3.png,exp4.png,,2,0,2,0,0,17,17,17,,,,,,,,,,,,,,,,,,,,,,,,,False,57,58,False,exp3.png,exp4.png,trial_left_image,1,exp3.png,4,exp4.png,exp3.png,0,4,reversed,incorrect,0.5224805622806832,0,valid_lose,456.85889179998776,32,,,,,,,,,,,,,,,,sub_168,2022-09-14_14h11.26.743,Reversal,2022.1.2,60.03312627622874,4,
18,exp1.png,exp2.png,,2,0,2,0,0,18,18,18,,,,,,,,,,,,,,,,,,,,,,,,,False,58,59,False,exp1.png,exp2.png,trial_right_image,-1,exp2.png,4,exp2.png,exp1.png,1,1,non-reversed,correct,0.7038560183736902,1,valid_win,463.9751467999886,33,,,,,,,,,,,,,,,,sub_168,2022-09-14_14h11.26.743,Reversal,2022.1.2,60.03312627622874,4,
19,exp3.png,exp4.png,,2,0,2,0,0,19,19,19,,,,,,,,,,,,,,,,,,,,,,,,,False,59,60,True,exp4.png,exp3.png,trial_right_image,-1,exp3.png,4,exp4.png,exp3.png,0,4,reversed,incorrect,0.9432929920408558,0,valid_lose,470.19155399999,33,,,,,,,,,,,,,,,,sub_168,2022-09-14_14h11.26.743,Reversal,2022.1.2,60.03312627622874,4,
20,exp1.png,exp2.png,,2,0,2,0,0,20,20,20,,,,,,,,,,,,,,,,,,,,,,,,,True,,,,,,,,,,,,,,,,,,,,,,,,,,,,,,,,,,,,sub_168,2022-09-14_14h11.26.743,Reversal,2022.1.2,60.03312627622874,4,
,,,exp1.png,2,0,2,0,,,,,0,0,0,0,0,0,0,0,,,,,,,,,,,,,,,,,,,,,,,,,,,,,,,,,,,,,,,50.0,None,[],673.2644929999951,None,,,,,,,,,,sub_168,2022-09-14_14h11.26.743,Reversal,2022.1.2,60.03312627622874,4,
,,,exp2.png,2,0,2,0,,,,,0,0,0,0,0,1,1,1,,,,,,,,,,,,,,,,,,,,,,,,,,,,,,,,,,,,,,,50.0,None,[],676.9840666000091,None,,,,,,,,,,sub_168,2022-09-14_14h11.26.743,Reversal,2022.1.2,60.03312627622874,4,
,,,exp3.png,2,0,2,0,,,,,0,0,0,0,0,2,2,2,,,,,,,,,,,,,,,,,,,,,,,,,,,,,,,,,,,,,,,50.0,None,[],677.9321248999913,None,,,,,,,,,,sub_168,2022-09-14_14h11.26.743,Reversal,2022.1.2,60.03312627622874,4,
,,,exp4.png,2,0,2,0,,,,,0,0,0,0,0,3,3,3,,,,,,,,,,,,,,,,,,,,,,,,,,,,,,,,,,,,,,,50.0,None,[],678.8501955000102,None,,,,,,,,,,sub_168,2022-09-14_14h11.26.743,Reversal,2022.1.2,60.03312627622874,4,
0,exp1.png,exp2.png,,3,0,3,0,0,0,0,0,,,,,,,,,,,,,,,,,,,,,,,,,False,60,61,False,exp1.png,exp2.png,trial_right_image,-1,exp2.png,4,exp2.png,exp1.png,1,1,non-reversed,correct,0.3755186577101747,1,valid_win,482.32493429997703,34,,,,,,,,,,,,,,,,sub_168,2022-09-14_14h11.26.743,Reversal,2022.1.2,60.03312627622874,4,
1,exp3.png,exp4.png,,3,0,3,0,0,1,1,1,,,,,,,,,,,,,,,,,,,,,,,,,False,61,62,False,exp3.png,exp4.png,trial_right_image,-1,exp4.png,4,exp4.png,exp3.png,1,3,reversed,correct,0.2534453112252616,1,valid_win,487.5748762000003,35,,,,,,,,,,,,,,,,sub_168,2022-09-14_14h11.26.743,Reversal,2022.1.2,60.03312627622874,4,
2,exp1.png,exp2.png,,3,0,3,0,0,2,2,2,,,,,,,,,,,,,,,,,,,,,,,,,False,62,63,False,exp1.png,exp2.png,trial_right_image,-1,exp2.png,4,exp2.png,exp1.png,1,1,non-reversed,correct,0.7718770613661116,1,valid_win,494.04155520000495,36,,,,,,,,,,,,,,,,sub_168,2022-09-14_14h11.26.743,Reversal,2022.1.2,60.03312627622874,4,
3,exp3.png,exp4.png,,3,0,3,0,0,3,3,3,,,,,,,,,,,,,,,,,,,,,,,,,False,63,64,False,exp3.png,exp4.png,trial_left_image,1,exp3.png,4,exp4.png,exp3.png,0,4,reversed,incorrect,0.4356019038545501,0,valid_lose,499.7082167000044,36,,,,,,,,,,,,,,,,sub_168,2022-09-14_14h11.26.743,Reversal,2022.1.2,60.03312627622874,4,
4,exp1.png,exp2.png,,3,0,3,0,0,4,4,4,,,,,,,,,,,,,,,,,,,,,,,,,False,64,65,False,exp1.png,exp2.png,trial_left_image,1,exp1.png,4,exp2.png,exp1.png,0,2,non-reversed,incorrect,0.11827176346480228,1,invalid_win,505.92384509998374,37,,,,,,,,,,,,,,,,sub_168,2022-09-14_14h11.26.743,Reversal,2022.1.2,60.03312627622874,4,
5,exp3.png,exp4.png,,3,0,3,0,0,5,5,5,,,,,,,,,,,,,,,,,,,,,,,,,False,65,66,True,exp4.png,exp3.png,trial_left_image,1,exp4.png,4,exp4.png,exp3.png,1,3,reversed,correct,0.5867716121087951,1,valid_win,513.1756094000011,38,,,,,,,,,,,,,,,,sub_168,2022-09-14_14h11.26.743,Reversal,2022.1.2,60.03312627622874,4,
6,exp1.png,exp2.png,,3,0,3,0,0,6,6,6,,,,,,,,,,,,,,,,,,,,,,,,,False,66,67,True,exp2.png,exp1.png,trial_right_image,-1,exp1.png,4,exp2.png,exp1.png,0,2,non-reversed,incorrect,0.8747695408066111,0,valid_lose,518.0402342999878,38,,,,,,,,,,,,,,,,sub_168,2022-09-14_14h11.26.743,Reversal,2022.1.2,60.03312627622874,4,
7,exp3.png,exp4.png,,3,0,3,0,0,7,7,7,,,,,,,,,,,,,,,,,,,,,,,,,False,67,68,True,exp4.png,exp3.png,trial_right_image,-1,exp3.png,4,exp4.png,exp3.png,0,4,reversed,incorrect,0.6415498078286681,0,valid_lose,523.5576602999936,38,,,,,,,,,,,,,,,,sub_168,2022-09-14_14h11.26.743,Reversal,2022.1.2,60.03312627622874,4,
8,exp1.png,exp2.png,,3,0,3,0,0,8,8,8,,,,,,,,,,,,,,,,,,,,,,,,,False,68,69,True,exp2.png,exp1.png,trial_left_image,1,exp2.png,4,exp2.png,exp1.png,1,1,non-reversed,correct,0.837222479891314,1,valid_win,528.9569502999948,39,,,,,,,,,,,,,,,,sub_168,2022-09-14_14h11.26.743,Reversal,2022.1.2,60.03312627622874,4,
9,exp3.png,exp4.png,,3,0,3,0,0,9,9,9,,,,,,,,,,,,,,,,,,,,,,,,,False,69,70,True,exp4.png,exp3.png,trial_right_image,-1,exp3.png,4,exp4.png,exp3.png,0,4,reversed,incorrect,0.6964079391977841,0,valid_lose,542.1233213999949,39,,,,,,,,,,,,,,,,sub_168,2022-09-14_14h11.26.743,Reversal,2022.1.2,60.03312627622874,4,
10,exp1.png,exp2.png,,3,0,3,0,0,10,10,10,,,,,,,,,,,,,,,,,,,,,,,,,False,70,71,True,exp2.png,exp1.png,trial_left_image,1,exp2.png,4,exp2.png,exp1.png,1,1,non-reversed,correct,0.5418940671189042,1,valid_win,549.9904167999921,40,,,,,,,,,,,,,,,,sub_168,2022-09-14_14h11.26.743,Reversal,2022.1.2,60.03312627622874,4,
11,exp3.png,exp4.png,,3,0,3,0,0,11,11,11,,,,,,,,,,,,,,,,,,,,,,,,,False,71,72,False,exp3.png,exp4.png,trial_left_image,1,exp3.png,4,exp4.png,exp3.png,0,4,reversed,incorrect,0.9570428976560834,0,valid_lose,554.8567422000051,40,,,,,,,,,,,,,,,,sub_168,2022-09-14_14h11.26.743,Reversal,2022.1.2,60.03312627622874,4,
12,exp1.png,exp2.png,,3,0,3,0,0,12,12,12,,,,,,,,,,,,,,,,,,,,,,,,,False,72,73,True,exp2.png,exp1.png,trial_left_image,1,exp2.png,4,exp2.png,exp1.png,1,1,non-reversed,correct,0.6106719736718661,1,valid_win,559.3401583999803,41,,,,,,,,,,,,,,,,sub_168,2022-09-14_14h11.26.743,Reversal,2022.1.2,60.03312627622874,4,
13,exp3.png,exp4.png,,3,0,3,0,0,13,13,13,,,,,,,,,,,,,,,,,,,,,,,,,False,73,74,True,exp4.png,exp3.png,trial_right_image,-1,exp3.png,4,exp4.png,exp3.png,0,4,reversed,incorrect,0.7325265393164588,0,valid_lose,564.339998099982,41,,,,,,,,,,,,,,,,sub_168,2022-09-14_14h11.26.743,Reversal,2022.1.2,60.03312627622874,4,
14,exp1.png,exp2.png,,3,0,3,0,0,14,14,14,,,,,,,,,,,,,,,,,,,,,,,,,False,74,75,False,exp1.png,exp2.png,trial_right_image,-1,exp2.png,4,exp2.png,exp1.png,1,1,non-reversed,correct,0.3578251251982495,1,valid_win,568.9224464999861,42,,,,,,,,,,,,,,,,sub_168,2022-09-14_14h11.26.743,Reversal,2022.1.2,60.03312627622874,4,
15,exp3.png,exp4.png,,3,0,3,0,0,15,15,15,,,,,,,,,,,,,,,,,,,,,,,,,False,75,76,True,exp4.png,exp3.png,trial_right_image,-1,exp3.png,4,exp4.png,exp3.png,0,4,reversed,incorrect,0.7997141097074115,0,valid_lose,574.2058942999865,42,,,,,,,,,,,,,,,,sub_168,2022-09-14_14h11.26.743,Reversal,2022.1.2,60.03312627622874,4,
16,exp1.png,exp2.png,,3,0,3,0,0,16,16,16,,,,,,,,,,,,,,,,,,,,,,,,,False,76,77,False,exp1.png,exp2.png,trial_right_image,-1,exp2.png,4,exp2.png,exp1.png,1,1,non-reversed,correct,0.2863309760473375,1,valid_win,578.5731456999783,43,,,,,,,,,,,,,,,,sub_168,2022-09-14_14h11.26.743,Reversal,2022.1.2,60.03312627622874,4,
17,exp3.png,exp4.png,,3,0,3,0,0,17,17,17,,,,,,,,,,,,,,,,,,,,,,,,,False,77,78,False,exp3.png,exp4.png,trial_left_image,1,exp3.png,4,exp4.png,exp3.png,0,4,reversed,incorrect,0.3714502307200027,0,valid_lose,601.9228328999889,43,,,,,,,,,,,,,,,,sub_168,2022-09-14_14h11.26.743,Reversal,2022.1.2,60.03312627622874,4,
18,exp1.png,exp2.png,,3,0,3,0,0,18,18,18,,,,,,,,,,,,,,,,,,,,,,,,,False,78,79,False,exp1.png,exp2.png,trial_right_image,-1,exp2.png,4,exp2.png,exp1.png,1,1,non-reversed,correct,0.21127229192820707,0,invalid_lose,607.2392090999929,43,,,,,,,,,,,,,,,,sub_168,2022-09-14_14h11.26.743,Reversal,2022.1.2,60.03312627622874,4,
19,exp3.png,exp4.png,,3,0,3,0,0,19,19,19,,,,,,,,,,,,,,,,,,,,,,,,,False,79,80,True,exp4.png,exp3.png,trial_left_image,1,exp4.png,4,exp4.png,exp3.png,1,3,reversed,correct,0.854156448304482,1,valid_win,620.1390937999822,44,,,,,,,,,,,,,,,,sub_168,2022-09-14_14h11.26.743,Reversal,2022.1.2,60.03312627622874,4,
20,exp1.png,exp2.png,,3,0,3,0,0,20,20,20,,,,,,,,,,,,,,,,,,,,,,,,,True,,,,,,,,,,,,,,,,,,,,,,,,,,,,,,,,,,,,sub_168,2022-09-14_14h11.26.743,Reversal,2022.1.2,60.03312627622874,4,
,,,exp1.png,3,0,3,0,,,,,0,0,0,0,0,0,0,0,,,,,,,,,,,,,,,,,,,,,,,,,,,,,,,,,,,,,,1.0,1.0,3.7867945000180043,"[(17.0, 2.871283400018001), (1.0, 3.7867945000180043)]",823.2317982999957,None,,,,,,,,,,sub_168,2022-09-14_14h11.26.743,Reversal,2022.1.2,60.03312627622874,4,
,,,exp2.png,3,0,3,0,,,,,0,0,0,0,0,1,1,1,,,,,,,,,,,,,,,,,,,,,,,,,,,,,,,,,,,,,,,50.0,None,[],828.212280799984,None,,,,,,,,,,sub_168,2022-09-14_14h11.26.743,Reversal,2022.1.2,60.03312627622874,4,
,,,exp3.png,3,0,3,0,,,,,0,0,0,0,0,2,2,2,,,,,,,,,,,,,,,,,,,,,,,,,,,,,,,,,,,,,,,100.0,3.01578350001364,"[(100.0, 3.01578350001364)]",833.0139553000045,None,,100.0,,,,,,,,sub_168,2022-09-14_14h11.26.743,Reversal,2022.1.2,60.03312627622874,4,
,,,exp4.png,3,0,3,0,,,,,0,0,0,0,0,3,3,3,,,,,,,,,,,,,,,,,,,,,,,,,,,,,,,,,,,,,,,50.0,None,[],837.045833799988,None,,,,,,,,,,sub_168,2022-09-14_14h11.26.743,Reversal,2022.1.2,60.03312627622874,4,
0,exp1.png,exp2.png,,,,,,,,,,,,,,,,,,0,0,0,0,0,0,0,0,,,,,,,,,False,0,81,True,exp2.png,exp1.png,trial_left_image,1,exp2.png,4,exp2.png,exp1.png,1,1,non-reversed,correct,0.9446304446017114,1,valid_win,641.8385840999836,45,,,,,,,,,,639.2787316000031,,,,,,sub_168,2022-09-14_14h11.26.743,Reversal,2022.1.2,60.03312627622874,4,
1,exp3.png,exp4.png,,,,,,,,,,,,,,,,,,0,0,0,0,0,1,1,1,,,,,,,,,False,1,82,False,exp3.png,exp4.png,trial_left_image,1,exp3.png,4,exp3.png,exp4.png,0,4,reversed,correct,0.8208317470557808,1,valid_win,647.9388420000032,46,,,,,,,,,,,,,,,,sub_168,2022-09-14_14h11.26.743,Reversal,2022.1.2,60.03312627622874,4,
2,exp1.png,exp2.png,,,,,,,,,,,,,,,,,,0,0,0,0,0,2,2,2,,,,,,,,,False,2,83,False,exp1.png,exp2.png,trial_left_image,1,exp1.png,4,exp2.png,exp1.png,0,2,non-reversed,incorrect,0.5871482222118357,0,valid_lose,656.3553195999993,46,,,,,,,,,,,,,,,,sub_168,2022-09-14_14h11.26.743,Reversal,2022.1.2,60.03312627622874,4,
3,exp3.png,exp4.png,,,,,,,,,,,,,,,,,,0,0,0,0,0,3,3,3,,,,,,,,,False,3,84,True,exp4.png,exp3.png,trial_left_image,1,exp4.png,4,exp3.png,exp4.png,1,3,reversed,incorrect,0.7132212683322382,0,valid_lose,666.2714241999784,46,,,,,,,,,,,,,,,,sub_168,2022-09-14_14h11.26.743,Reversal,2022.1.2,60.03312627622874,4,
4,exp1.png,exp2.png,,,,,,,,,,,,,,,,,,0,0,0,0,0,4,4,4,,,,,,,,,False,4,85,True,exp2.png,exp1.png,trial_right_image,-1,exp1.png,4,exp2.png,exp1.png,0,2,non-reversed,incorrect,0.9295846662978666,0,valid_lose,672.4043624000042,46,,,,,,,,,,,,,,,,sub_168,2022-09-14_14h11.26.743,Reversal,2022.1.2,60.03312627622874,4,
5,exp3.png,exp4.png,,,,,,,,,,,,,,,,,,0,0,0,0,0,5,5,5,,,,,,,,,False,5,86,True,exp4.png,exp3.png,trial_right_image,-1,exp3.png,4,exp3.png,exp4.png,0,4,reversed,correct,0.010703584950419787,0,invalid_lose,695.9711846999999,46,,,,,,,,,,,,,,,,sub_168,2022-09-14_14h11.26.743,Reversal,2022.1.2,60.03312627622874,4,
6,exp1.png,exp2.png,,,,,,,,,,,,,,,,,,0,0,0,0,0,6,6,6,,,,,,,,,False,6,87,False,exp1.png,exp2.png,trial_right_image,-1,exp2.png,4,exp2.png,exp1.png,1,1,non-reversed,correct,0.9067651222058052,1,valid_win,701.3868645000039,47,,,,,,,,,,,,,,,,sub_168,2022-09-14_14h11.26.743,Reversal,2022.1.2,60.03312627622874,4,
7,exp3.png,exp4.png,,,,,,,,,,,,,,,,,,0,0,0,0,0,7,7,7,,,,,,,,,False,7,88,False,exp3.png,exp4.png,trial_left_image,1,exp3.png,4,exp3.png,exp4.png,0,4,reversed,correct,0.3069837478949098,1,valid_win,708.0707101000007,48,,,,,,,,,,,,,,,,sub_168,2022-09-14_14h11.26.743,Reversal,2022.1.2,60.03312627622874,4,
8,exp1.png,exp2.png,,,,,,,,,,,,,,,,,,0,0,0,0,0,8,8,8,,,,,,,,,False,8,89,False,exp1.png,exp2.png,trial_right_image,-1,exp2.png,4,exp2.png,exp1.png,1,1,non-reversed,correct,0.15020594729574643,0,invalid_lose,713.137293799984,48,,,,,,,,,,,,,,,,sub_168,2022-09-14_14h11.26.743,Reversal,2022.1.2,60.03312627622874,4,
9,exp3.png,exp4.png,,,,,,,,,,,,,,,,,,0,0,0,0,0,9,9,9,,,,,,,,,False,9,90,True,exp4.png,exp3.png,trial_right_image,-1,exp3.png,4,exp3.png,exp4.png,0,4,reversed,correct,0.4198725663324363,1,valid_win,719.5537837999873,49,,,,,,,,,,,,,,,,sub_168,2022-09-14_14h11.26.743,Reversal,2022.1.2,60.03312627622874,4,
10,exp1.png,exp2.png,,,,,,,,,,,,,,,,,,0,0,0,0,0,10,10,10,,,,,,,,,False,10,91,True,exp2.png,exp1.png,trial_left_image,1,exp2.png,4,exp2.png,exp1.png,1,1,non-reversed,correct,0.5083556617795586,1,valid_win,725.4204311999783,50,,,,,,,,,,,,,,,,sub_168,2022-09-14_14h11.26.743,Reversal,2022.1.2,60.03312627622874,4,
11,exp3.png,exp4.png,,,,,,,,,,,,,,,,,,0,0,0,0,0,11,11,11,,,,,,,,,False,11,92,False,exp3.png,exp4.png,trial_right_image,-1,exp4.png,4,exp3.png,exp4.png,1,3,reversed,incorrect,0.7264791088057416,0,valid_lose,735.6534039999824,50,,,,,,,,,,,,,,,,sub_168,2022-09-14_14h11.26.743,Reversal,2022.1.2,60.03312627622874,4,
12,exp1.png,exp2.png,,,,,,,,,,,,,,,,,,0,0,0,0,0,12,12,12,,,,,,,,,False,12,93,True,exp2.png,exp1.png,trial_left_image,1,exp2.png,4,exp2.png,exp1.png,1,1,non-reversed,correct,0.1533684000025931,0,invalid_lose,740.220448099979,50,,,,,,,,,,,,,,,,sub_168,2022-09-14_14h11.26.743,Reversal,2022.1.2,60.03312627622874,4,
13,exp3.png,exp4.png,,,,,,,,,,,,,,,,,,0,0,0,0,0,13,13,13,,,,,,,,,False,13,94,False,exp3.png,exp4.png,trial_left_image,1,exp3.png,4,exp3.png,exp4.png,0,4,reversed,correct,0.5068924628763641,1,valid_win,746.8529378999956,51,,,,,,,,,,,,,,,,sub_168,2022-09-14_14h11.26.743,Reversal,2022.1.2,60.03312627622874,4,
14,exp1.png,exp2.png,,,,,,,,,,,,,,,,,,0,0,0,0,0,14,14,14,,,,,,,,,False,14,95,True,exp2.png,exp1.png,trial_left_image,1,exp2.png,4,exp2.png,exp1.png,1,1,non-reversed,correct,0.43420905399932275,1,valid_win,751.3201146999781,52,,,,,,,,,,,,,,,,sub_168,2022-09-14_14h11.26.743,Reversal,2022.1.2,60.03312627622874,4,
15,exp3.png,exp4.png,,,,,,,,,,,,,,,,,,0,0,0,0,0,15,15,15,,,,,,,,,False,15,96,False,exp3.png,exp4.png,trial_left_image,1,exp3.png,4,exp3.png,exp4.png,0,4,reversed,correct,0.02173837976830928,0,invalid_lose,756.2696193000011,52,,,,,,,,,,,,,,,,sub_168,2022-09-14_14h11.26.743,Reversal,2022.1.2,60.03312627622874,4,
16,exp1.png,exp2.png,,,,,,,,,,,,,,,,,,0,0,0,0,0,16,16,16,,,,,,,,,False,16,97,False,exp1.png,exp2.png,trial_right_image,-1,exp2.png,4,exp2.png,exp1.png,1,1,non-reversed,correct,0.004556206818040587,0,invalid_lose,764.552992699988,52,,,,,,,,,,,,,,,,sub_168,2022-09-14_14h11.26.743,Reversal,2022.1.2,60.03312627622874,4,
17,exp3.png,exp4.png,,,,,,,,,,,,,,,,,,0,0,0,0,0,17,17,17,,,,,,,,,False,17,98,True,exp4.png,exp3.png,trial_right_image,-1,exp3.png,4,exp3.png,exp4.png,0,4,reversed,correct,0.5087989762712483,1,valid_win,770.6362863999966,53,,,,,,,,,,,,,,,,sub_168,2022-09-14_14h11.26.743,Reversal,2022.1.2,60.03312627622874,4,
18,exp1.png,exp2.png,,,,,,,,,,,,,,,,,,0,0,0,0,0,18,18,18,,,,,,,,,False,18,99,False,exp1.png,exp2.png,trial_right_image,-1,exp2.png,4,exp2.png,exp1.png,1,1,non-reversed,correct,0.33081896954695,1,valid_win,776.5691321000049,54,,,,,,,,,,,,,,,,sub_168,2022-09-14_14h11.26.743,Reversal,2022.1.2,60.03312627622874,4,
19,exp3.png,exp4.png,,,,,,,,,,,,,,,,,,0,0,0,0,0,19,19,19,,,,,,,,,False,19,100,True,exp4.png,exp3.png,trial_right_image,-1,exp3.png,4,exp3.png,exp4.png,0,4,reversed,correct,0.7911907805039909,1,valid_win,792.1023202999786,55,,,,,,,,,,,,,,,,sub_168,2022-09-14_14h11.26.743,Reversal,2022.1.2,60.03312627622874,4,
20,exp1.png,exp2.png,,,,,,,,,,,,,,,,,,0,0,0,0,0,20,20,20,,,,,,,,,True,,,,,,,,,,,,,,,,,,,,,,,,,,,,,,,,,,,,sub_168,2022-09-14_14h11.26.743,Reversal,2022.1.2,60.03312627622874,4,
,,,exp1.png,,,,,,,,,,,,,,,,,0,0,0,0,,,,,0,0,0,0,0,0,0,0,,,,,,,,,,,,,,,,,,,,,,,50.0,None,[],995.1992265000008,None,,,,,,,,,,sub_168,2022-09-14_14h11.26.743,Reversal,2022.1.2,60.03312627622874,4,
,,,exp2.png,,,,,,,,,,,,,,,,,0,0,0,0,,,,,0,0,0,0,0,1,1,1,,,,,,,,,,,,,,,,,,,,,,,50.0,None,[],1003.1931133999897,None,,,,,,,,,,sub_168,2022-09-14_14h11.26.743,Reversal,2022.1.2,60.03312627622874,4,
,,,exp3.png,,,,,,,,,,,,,,,,,0,0,0,0,,,,,0,0,0,0,0,2,2,2,,,,,,,,,,,,,,,,,,,,,,,50.0,None,[],1011.8971742999856,None,,,,,,,,,,sub_168,2022-09-14_14h11.26.743,Reversal,2022.1.2,60.03312627622874,4,
,,,exp4.png,,,,,,,,,,,,,,,,,0,0,0,0,,,,,0,0,0,0,0,3,3,3,,,,,,,,,,,,,,,,,,,,,,,50.0,None,[],1012.678024199995,None,,,,,,,,,,sub_168,2022-09-14_14h11.26.743,Reversal,2022.1.2,60.03312627622874,4,
0,exp1.png,exp2.png,,,,,,,,,,,,,,,,,,1,0,1,0,0,0,0,0,,,,,,,,,False,20,101,True,exp2.png,exp1.png,trial_left_image,1,exp2.png,4,exp2.png,exp1.png,1,1,non-reversed,correct,0.5051037486050062,1,valid_win,815.1856796999928,56,,,,,,,,,,,,,,,,sub_168,2022-09-14_14h11.26.743,Reversal,2022.1.2,60.03312627622874,4,
1,exp3.png,exp4.png,,,,,,,,,,,,,,,,,,1,0,1,0,0,1,1,1,,,,,,,,,False,21,102,True,exp4.png,exp3.png,trial_right_image,-1,exp3.png,4,exp3.png,exp4.png,0,4,reversed,correct,0.7879133266442924,1,valid_win,821.0526937999821,57,,,,,,,,,,,,,,,,sub_168,2022-09-14_14h11.26.743,Reversal,2022.1.2,60.03312627622874,4,
2,exp1.png,exp2.png,,,,,,,,,,,,,,,,,,1,0,1,0,0,2,2,2,,,,,,,,,False,22,103,False,exp1.png,exp2.png,trial_right_image,-1,exp2.png,4,exp2.png,exp1.png,1,1,non-reversed,correct,0.02303982100902291,0,invalid_lose,825.8689570999995,57,,,,,,,,,,,,,,,,sub_168,2022-09-14_14h11.26.743,Reversal,2022.1.2,60.03312627622874,4,
3,exp3.png,exp4.png,,,,,,,,,,,,,,,,,,1,0,1,0,0,3,3,3,,,,,,,,,False,23,104,False,exp3.png,exp4.png,trial_left_image,1,exp3.png,4,exp3.png,exp4.png,0,4,reversed,correct,0.45635268346212265,1,valid_win,830.8351073999947,58,,,,,,,,,,,,,,,,sub_168,2022-09-14_14h11.26.743,Reversal,2022.1.2,60.03312627622874,4,
4,exp1.png,exp2.png,,,,,,,,,,,,,,,,,,1,0,1,0,0,4,4,4,,,,,,,,,False,24,105,False,exp1.png,exp2.png,trial_right_image,-1,exp2.png,4,exp2.png,exp1.png,1,1,non-reversed,correct,0.27000238974442214,1,valid_win,839.2854420999938,59,,,,,,,,,,,,,,,,sub_168,2022-09-14_14h11.26.743,Reversal,2022.1.2,60.03312627622874,4,
5,exp3.png,exp4.png,,,,,,,,,,,,,,,,,,1,0,1,0,0,5,5,5,,,,,,,,,False,25,106,True,exp4.png,exp3.png,trial_right_image,-1,exp3.png,4,exp3.png,exp4.png,0,4,reversed,correct,0.567005448567354,1,valid_win,844.3185189999931,60,,,,,,,,,,,,,,,,sub_168,2022-09-14_14h11.26.743,Reversal,2022.1.2,60.03312627622874,4,
6,exp1.png,exp2.png,,,,,,,,,,,,,,,,,,1,0,1,0,0,6,6,6,,,,,,,,,False,26,107,False,exp1.png,exp2.png,trial_left_image,1,exp1.png,4,exp2.png,exp1.png,0,2,non-reversed,incorrect,0.5784815282872935,0,valid_lose,852.4516637999914,60,,,,,,,,,,,,,,,,sub_168,2022-09-14_14h11.26.743,Reversal,2022.1.2,60.03312627622874,4,
7,exp3.png,exp4.png,,,,,,,,,,,,,,,,,,1,0,1,0,0,7,7,7,,,,,,,,,False,27,108,True,exp4.png,exp3.png,trial_right_image,-1,exp3.png,4,exp3.png,exp4.png,0,4,reversed,correct,0.6198669287037759,1,valid_win,862.6510926999908,61,,,,,,,,,,,,,,,,sub_168,2022-09-14_14h11.26.743,Reversal,2022.1.2,60.03312627622874,4,
8,exp1.png,exp2.png,,,,,,,,,,,,,,,,,,1,0,1,0,0,8,8,8,,,,,,,,,False,28,109,True,exp2.png,exp1.png,trial_left_image,1,exp2.png,4,exp2.png,exp1.png,1,1,non-reversed,correct,0.7705379960625255,1,valid_win,868.718071499985,62,,,,,,,,,,,,,,,,sub_168,2022-09-14_14h11.26.743,Reversal,2022.1.2,60.03312627622874,4,
9,exp3.png,exp4.png,,,,,,,,,,,,,,,,,,1,0,1,0,0,9,9,9,,,,,,,,,False,29,110,True,exp4.png,exp3.png,trial_left_image,1,exp4.png,4,exp3.png,exp4.png,1,3,reversed,incorrect,0.8283948535335457,0,valid_lose,882.933929699997,62,,,,,,,,,,,,,,,,sub_168,2022-09-14_14h11.26.743,Reversal,2022.1.2,60.03312627622874,4,
10,exp1.png,exp2.png,,,,,,,,,,,,,,,,,,1,0,1,0,0,10,10,10,,,,,,,,,False,30,111,True,exp2.png,exp1.png,trial_right_image,-1,exp1.png,4,exp2.png,exp1.png,0,2,non-reversed,incorrect,0.32979750575261113,0,valid_lose,891.8679039999843,62,,,,,,,,,,,,,,,,sub_168,2022-09-14_14h11.26.743,Reversal,2022.1.2,60.03312627622874,4,
11,exp3.png,exp4.png,,,,,,,,,,,,,,,,,,1,0,1,0,0,11,11,11,,,,,,,,,False,31,112,False,exp3.png,exp4.png,trial_left_image,1,exp3.png,4,exp3.png,exp4.png,0,4,reversed,correct,0.45908875318201936,1,valid_win,896.784097900003,63,,,,,,,,,,,,,,,,sub_168,2022-09-14_14h11.26.743,Reversal,2022.1.2,60.03312627622874,4,
12,exp1.png,exp2.png,,,,,,,,,,,,,,,,,,1,0,1,0,0,12,12,12,,,,,,,,,False,32,113,True,exp2.png,exp1.png,trial_left_image,1,exp2.png,4,exp2.png,exp1.png,1,1,non-reversed,correct,0.2923260491509385,1,valid_win,901.3339481999865,64,,,,,,,,,,,,,,,,sub_168,2022-09-14_14h11.26.743,Reversal,2022.1.2,60.03312627622874,4,
13,exp3.png,exp4.png,,,,,,,,,,,,,,,,,,1,0,1,0,0,13,13,13,,,,,,,,,False,33,114,False,exp3.png,exp4.png,trial_left_image,1,exp3.png,4,exp3.png,exp4.png,0,4,reversed,correct,0.13690600437007294,0,invalid_lose,905.4494802999834,64,,,,,,,,,,,,,,,,sub_168,2022-09-14_14h11.26.743,Reversal,2022.1.2,60.03312627622874,4,
14,exp1.png,exp2.png,,,,,,,,,,,,,,,,,,1,0,1,0,0,14,14,14,,,,,,,,,False,34,115,False,exp1.png,exp2.png,trial_left_image,1,exp1.png,4,exp2.png,exp1.png,0,2,non-reversed,incorrect,0.01300798438981754,1,invalid_win,911.1007105000026,65,,,,,,,,,,,,,,,,sub_168,2022-09-14_14h11.26.743,Reversal,2022.1.2,60.03312627622874,4,
15,exp3.png,exp4.png,,,,,,,,,,,,,,,,,,1,0,1,0,0,15,15,15,,,,,,,,,False,35,116,False,exp3.png,exp4.png,trial_left_image,1,exp3.png,4,exp3.png,exp4.png,0,4,reversed,correct,0.49398728160026817,1,valid_win,916.0500769999926,66,,,,,,,,,,,,,,,,sub_168,2022-09-14_14h11.26.743,Reversal,2022.1.2,60.03312627622874,4,
16,exp1.png,exp2.png,,,,,,,,,,,,,,,,,,1,0,1,0,0,16,16,16,,,,,,,,,False,36,117,True,exp2.png,exp1.png,trial_left_image,1,exp2.png,4,exp2.png,exp1.png,1,1,non-reversed,correct,0.40679876399085824,1,valid_win,920.8672123999859,67,,,,,,,,,,,,,,,,sub_168,2022-09-14_14h11.26.743,Reversal,2022.1.2,60.03312627622874,4,
17,exp3.png,exp4.png,,,,,,,,,,,,,,,,,,1,0,1,0,0,17,17,17,,,,,,,,,False,37,118,False,exp3.png,exp4.png,trial_left_image,1,exp3.png,4,exp3.png,exp4.png,0,4,reversed,correct,0.43607169756217756,1,valid_win,926.6169692999974,68,,,,,,,,,,,,,,,,sub_168,2022-09-14_14h11.26.743,Reversal,2022.1.2,60.03312627622874,4,
18,exp1.png,exp2.png,,,,,,,,,,,,,,,,,,1,0,1,0,0,18,18,18,,,,,,,,,False,38,119,False,exp1.png,exp2.png,trial_right_image,-1,exp2.png,4,exp2.png,exp1.png,1,1,non-reversed,correct,0.585629815033017,1,valid_win,933.833166299999,69,,,,,,,,,,,,,,,,sub_168,2022-09-14_14h11.26.743,Reversal,2022.1.2,60.03312627622874,4,
19,exp3.png,exp4.png,,,,,,,,,,,,,,,,,,1,0,1,0,0,19,19,19,,,,,,,,,False,39,120,True,exp4.png,exp3.png,trial_right_image,-1,exp3.png,4,exp3.png,exp4.png,0,4,reversed,correct,0.6739429163588989,1,valid_win,939.3163913000026,70,,,,,,,,,,,,,,,,sub_168,2022-09-14_14h11.26.743,Reversal,2022.1.2,60.03312627622874,4,
20,exp1.png,exp2.png,,,,,,,,,,,,,,,,,,1,0,1,0,0,20,20,20,,,,,,,,,True,,,,,,,,,,,,,,,,,,,,,,,,,,,,,,,,,,,,sub_168,2022-09-14_14h11.26.743,Reversal,2022.1.2,60.03312627622874,4,
,,,exp1.png,,,,,,,,,,,,,,,,,1,0,1,0,,,,,0,0,0,0,0,0,0,0,,,,,,,,,,,,,,,,,,,,,,1.0,1.0,2.569862100004684,"[(23.0, 1.7874231000023428), (1.0, 2.569862100004684)]",1142.3762370999902,None,,,,,,,,,,sub_168,2022-09-14_14h11.26.743,Reversal,2022.1.2,60.03312627622874,4,
,,,exp2.png,,,,,,,,,,,,,,,,,1,0,1,0,,,,,0,0,0,0,0,1,1,1,,,,,,,,,,,,,,,,,,,,,,,50.0,None,[],1145.5112030000018,None,,,,,,,,,,sub_168,2022-09-14_14h11.26.743,Reversal,2022.1.2,60.03312627622874,4,
,,,exp3.png,,,,,,,,,,,,,,,,,1,0,1,0,,,,,0,0,0,0,0,2,2,2,,,,,,,,,,,,,,,,,,,,,,,100.0,1.3642509000201244,"[(100.0, 1.3642509000201244)]",1145.9584392999823,None,,100.0,,,,,,,,sub_168,2022-09-14_14h11.26.743,Reversal,2022.1.2,60.03312627622874,4,
,,,exp4.png,,,,,,,,,,,,,,,,,1,0,1,0,,,,,0,0,0,0,0,3,3,3,,,,,,,,,,,,,,,,,,,,,,,50.0,None,[],1148.4084967999952,None,,,,,,,,,,sub_168,2022-09-14_14h11.26.743,Reversal,2022.1.2,60.03312627622874,4,
0,exp1.png,exp2.png,,,,,,,,,,,,,,,,,,2,0,2,0,0,0,0,0,,,,,,,,,False,40,121,False,exp1.png,exp2.png,trial_right_image,-1,exp2.png,4,exp2.png,exp1.png,1,1,non-reversed,correct,0.6885971130685357,1,valid_win,953.0163388999936,71,,,,,,,,,,,,,,,,sub_168,2022-09-14_14h11.26.743,Reversal,2022.1.2,60.03312627622874,4,
1,exp3.png,exp4.png,,,,,,,,,,,,,,,,,,2,0,2,0,0,1,1,1,,,,,,,,,False,41,122,True,exp4.png,exp3.png,trial_right_image,-1,exp3.png,4,exp3.png,exp4.png,0,4,reversed,correct,0.08571083974083549,0,invalid_lose,957.566041299986,71,,,,,,,,,,,,,,,,sub_168,2022-09-14_14h11.26.743,Reversal,2022.1.2,60.03312627622874,4,
2,exp1.png,exp2.png,,,,,,,,,,,,,,,,,,2,0,2,0,0,2,2,2,,,,,,,,,False,42,123,False,exp1.png,exp2.png,trial_right_image,-1,exp2.png,4,exp2.png,exp1.png,1,1,non-reversed,correct,0.4421807568540588,1,valid_win,962.5827126999793,72,,,,,,,,,,,,,,,,sub_168,2022-09-14_14h11.26.743,Reversal,2022.1.2,60.03312627622874,4,
3,exp3.png,exp4.png,,,,,,,,,,,,,,,,,,2,0,2,0,0,3,3,3,,,,,,,,,False,43,124,True,exp4.png,exp3.png,trial_left_image,1,exp4.png,4,exp3.png,exp4.png,1,3,reversed,incorrect,0.16067419277930028,1,invalid_win,966.8496476,73,,,,,,,,,,,,,,,,sub_168,2022-09-14_14h11.26.743,Reversal,2022.1.2,60.03312627622874,4,
4,exp1.png,exp2.png,,,,,,,,,,,,,,,,,,2,0,2,0,0,4,4,4,,,,,,,,,False,44,125,False,exp1.png,exp2.png,trial_right_image,-1,exp2.png,4,exp2.png,exp1.png,1,1,non-reversed,correct,0.7623254536122775,1,valid_win,971.4825676000037,74,,,,,,,,,,,,,,,,sub_168,2022-09-14_14h11.26.743,Reversal,2022.1.2,60.03312627622874,4,
5,exp3.png,exp4.png,,,,,,,,,,,,,,,,,,2,0,2,0,0,5,5,5,,,,,,,,,False,45,126,False,exp3.png,exp4.png,trial_left_image,1,exp3.png,4,exp3.png,exp4.png,0,4,reversed,correct,0.5801028600029043,1,valid_win,975.9994890999806,75,,,,,,,,,,,,,,,,sub_168,2022-09-14_14h11.26.743,Reversal,2022.1.2,60.03312627622874,4,
6,exp1.png,exp2.png,,,,,,,,,,,,,,,,,,2,0,2,0,0,6,6,6,,,,,,,,,False,46,127,True,exp2.png,exp1.png,trial_right_image,-1,exp1.png,4,exp2.png,exp1.png,0,2,non-reversed,incorrect,0.4386333858999155,0,valid_lose,980.8981594999786,75,,,,,,,,,,,,,,,,sub_168,2022-09-14_14h11.26.743,Reversal,2022.1.2,60.03312627622874,4,
7,exp3.png,exp4.png,,,,,,,,,,,,,,,,,,2,0,2,0,0,7,7,7,,,,,,,,,False,47,128,False,exp3.png,exp4.png,trial_left_image,1,exp3.png,4,exp3.png,exp4.png,0,4,reversed,correct,0.6785932197632133,1,valid_win,985.6662218999991,76,,,,,,,,,,,,,,,,sub_168,2022-09-14_14h11.26.743,Reversal,2022.1.2,60.03312627622874,4,
8,exp1.png,exp2.png,,,,,,,,,,,,,,,,,,2,0,2,0,0,8,8,8,,,,,,,,,False,48,129,False,exp1.png,exp2.png,trial_right_image,-1,exp2.png,4,exp2.png,exp1.png,1,1,non-reversed,correct,0.9649182946947884,1,valid_win,990.565434899996,77,,,,,,,,,,,,,,,,sub_168,2022-09-14_14h11.26.743,Reversal,2022.1.2,60.03312627622874,4,
9,exp3.png,exp4.png,,,,,,,,,,,,,,,,,,2,0,2,0,0,9,9,9,,,,,,,,,False,49,130,True,exp4.png,exp3.png,trial_right_image,-1,exp3.png,4,exp3.png,exp4.png,0,4,reversed,correct,0.8752185383758292,1,valid_win,995.565013799991,78,,,,,,,,,,,,,,,,sub_168,2022-09-14_14h11.26.743,Reversal,2022.1.2,60.03312627622874,4,
10,exp1.png,exp2.png,,,,,,,,,,,,,,,,,,2,0,2,0,0,10,10,10,,,,,,,,,False,50,131,True,exp2.png,exp1.png,trial_left_image,1,exp2.png,4,exp2.png,exp1.png,1,1,non-reversed,correct,0.7712332972758569,1,valid_win,1001.915569499979,79,,,,,,,,,,,,,,,,sub_168,2022-09-14_14h11.26.743,Reversal,2022.1.2,60.03312627622874,4,
11,exp3.png,exp4.png,,,,,,,,,,,,,,,,,,2,0,2,0,0,11,11,11,,,,,,,,,False,51,132,True,exp4.png,exp3.png,trial_right_image,-1,exp3.png,4,exp3.png,exp4.png,0,4,reversed,correct,0.29469679051899866,1,valid_win,1006.7822481000039,80,,,,,,,,,,,,,,,,sub_168,2022-09-14_14h11.26.743,Reversal,2022.1.2,60.03312627622874,4,
12,exp1.png,exp2.png,,,,,,,,,,,,,,,,,,2,0,2,0,0,12,12,12,,,,,,,,,False,52,133,False,exp1.png,exp2.png,trial_left_image,1,exp1.png,4,exp2.png,exp1.png,0,2,non-reversed,incorrect,0.6696437433043372,0,valid_lose,1012.1492475999985,80,,,,,,,,,,,,,,,,sub_168,2022-09-14_14h11.26.743,Reversal,2022.1.2,60.03312627622874,4,
13,exp3.png,exp4.png,,,,,,,,,,,,,,,,,,2,0,2,0,0,13,13,13,,,,,,,,,False,53,134,False,exp3.png,exp4.png,trial_left_image,1,exp3.png,4,exp3.png,exp4.png,0,4,reversed,correct,0.4170272309582964,1,valid_win,1017.1821851999848,81,,,,,,,,,,,,,,,,sub_168,2022-09-14_14h11.26.743,Reversal,2022.1.2,60.03312627622874,4,
14,exp1.png,exp2.png,,,,,,,,,,,,,,,,,,2,0,2,0,0,14,14,14,,,,,,,,,False,54,135,True,exp2.png,exp1.png,trial_left_image,1,exp2.png,4,exp2.png,exp1.png,1,1,non-reversed,correct,0.5421371896366256,1,valid_win,1021.9985147999832,82,,,,,,,,,,,,,,,,sub_168,2022-09-14_14h11.26.743,Reversal,2022.1.2,60.03312627622874,4,
15,exp3.png,exp4.png,,,,,,,,,,,,,,,,,,2,0,2,0,0,15,15,15,,,,,,,,,False,55,136,False,exp3.png,exp4.png,trial_left_image,1,exp3.png,4,exp3.png,exp4.png,0,4,reversed,correct,0.8826138780242755,1,valid_win,1026.8985092999937,83,,,,,,,,,,,,,,,,sub_168,2022-09-14_14h11.26.743,Reversal,2022.1.2,60.03312627622874,4,
16,exp1.png,exp2.png,,,,,,,,,,,,,,,,,,2,0,2,0,0,16,16,16,,,,,,,,,False,56,137,False,exp1.png,exp2.png,trial_right_image,-1,exp2.png,4,exp2.png,exp1.png,1,1,non-reversed,correct,0.6069319909947514,1,valid_win,1031.315303099982,84,,,,,,,,,,,,,,,,sub_168,2022-09-14_14h11.26.743,Reversal,2022.1.2,60.03312627622874,4,
17,exp3.png,exp4.png,,,,,,,,,,,,,,,,,,2,0,2,0,0,17,17,17,,,,,,,,,False,57,138,True,exp4.png,exp3.png,trial_right_image,-1,exp3.png,4,exp3.png,exp4.png,0,4,reversed,correct,0.2075419263495739,0,invalid_lose,1036.0483800999937,84,,,,,,,,,,,,,,,,sub_168,2022-09-14_14h11.26.743,Reversal,2022.1.2,60.03312627622874,4,
18,exp1.png,exp2.png,,,,,,,,,,,,,,,,,,2,0,2,0,0,18,18,18,,,,,,,,,False,58,139,True,exp2.png,exp1.png,trial_left_image,1,exp2.png,4,exp2.png,exp1.png,1,1,non-reversed,correct,0.19366297696530743,0,invalid_lose,1040.4488414999796,84,,,,,,,,,,,,,,,,sub_168,2022-09-14_14h11.26.743,Reversal,2022.1.2,60.03312627622874,4,
19,exp3.png,exp4.png,,,,,,,,,,,,,,,,,,2,0,2,0,0,19,19,19,,,,,,,,,False,59,140,True,exp4.png,exp3.png,trial_right_image,-1,exp3.png,4,exp3.png,exp4.png,0,4,reversed,correct,0.9641608106617136,1,valid_win,1048.3299058999983,85,,,,,,,,,,,,,,,,sub_168,2022-09-14_14h11.26.743,Reversal,2022.1.2,60.03312627622874,4,
20,exp1.png,exp2.png,,,,,,,,,,,,,,,,,,2,0,2,0,0,20,20,20,,,,,,,,,True,,,,,,,,,,,,,,,,,,,,,,,,,,,,,,,,,,,,sub_168,2022-09-14_14h11.26.743,Reversal,2022.1.2,60.03312627622874,4,
,,,exp1.png,,,,,,,,,,,,,,,,,2,0,2,0,,,,,0,0,0,0,0,0,0,0,,,,,,,,,,,,,,,,,,,,,,23.0,23.0,8.198595800000476,"[(1.0, 3.414155899983598), (35.0, 7.097154599992791), (23.0, 8.198595800000476)]",1251.4145531000104,None,,,,,,,,,,sub_168,2022-09-14_14h11.26.743,Reversal,2022.1.2,60.03312627622874,4,
,,,exp2.png,,,,,,,,,,,,,,,,,2,0,2,0,,,,,0,0,0,0,0,1,1,1,,,,,,,,,,,,,,,,,,,,,,,77.0,3.049503400019603,"[(77.0, 3.049503400019603)]",1260.4899460999877,None,77.0,,,,,,,,,sub_168,2022-09-14_14h11.26.743,Reversal,2022.1.2,60.03312627622874,4,
,,,exp3.png,,,,,,,,,,,,,,,,,2,0,2,0,,,,,0,0,0,0,0,2,2,2,,,,,,,,,,,,,,,,,,,,,,,50.0,None,[],1264.5541769999836,None,,,,,,,,,,sub_168,2022-09-14_14h11.26.743,Reversal,2022.1.2,60.03312627622874,4,
,,,exp4.png,,,,,,,,,,,,,,,,,2,0,2,0,,,,,0,0,0,0,0,3,3,3,,,,,,,,,,,,,,,,,,,,,,,50.0,None,[],1267.7391061999951,None,,,,,,,,,,sub_168,2022-09-14_14h11.26.743,Reversal,2022.1.2,60.03312627622874,4,
,,,,,,,,,,,,,,,,,,,,,,,,,,,,,,,,,,,,,,,,,,,,,,,,,,,,,,,,85,,,,,,,,,,,99,50,49,429.70738739997614,1,,,,,,,
