trial_index,trial_image1_file,trial_image2_file,image_file,learning_outer_loop.thisRepN,learning_outer_loop.thisTrialN,learning_outer_loop.thisN,learning_outer_loop.thisIndex,learning_inner_loop.thisRepN,learning_inner_loop.thisTrialN,learning_inner_loop.thisN,learning_inner_loop.thisIndex,learning_estimation_outer_loop.thisRepN,learning_estimation_outer_loop.thisTrialN,learning_estimation_outer_loop.thisN,learning_estimation_outer_loop.thisIndex,learning_estimation_inner_loop.thisRepN,learning_estimation_inner_loop.thisTrialN,learning_estimation_inner_loop.thisN,learning_estimation_inner_loop.thisIndex,reversal_outer_loop.thisRepN,reversal_outer_loop.thisTrialN,reversal_outer_loop.thisN,reversal_outer_loop.thisIndex,reversal_inner_loop.thisRepN,reversal_inner_loop.thisTrialN,reversal_inner_loop.thisN,reversal_inner_loop.thisIndex,reversal_estimation_outer_loop.thisRepN,reversal_estimation_outer_loop.thisTrialN,reversal_estimation_outer_loop.thisN,reversal_estimation_outer_loop.thisIndex,reversal_estimation_inner_loop.thisRepN,reversal_estimation_inner_loop.thisTrialN,reversal_estimation_inner_loop.thisN,reversal_estimation_inner_loop.thisIndex,skipped,total_trial_counter,trial_num,left_right_flip,left_image_file,right_image_file,clicked_stimulus_side,side,clicked_stimulus,version,high_prob_image_file,low_prob_image_file,choice_a,choice_b,pair_type,correct,trial_feedback_random,reward,trial_type,overall_time_after_trial,score,estimation_rating.started,estimation_exp1.png,estimation_rating.response,estimation_rating.rt,estimation_rating.history,estimation_exp2.png,estimation_exp3.png,estimation_exp4.png,total_learning_time,total_correct,learning_correct,reversal_correct,total_reversal_time,extra_block,end_experiment.keys,end_experiment.rt,end_experiment.duration,participant,date,expName,psychopyVersion,frameRate,ver,
0,exp1.png,exp2.png,,0,0,0,0,0,0,0,0,,,,,,,,,,,,,,,,,,,,,,,,,True,,,,,,,,,,,,,,,,,,,,,,,,,,,,,,,,,,,,,,sub_458,2024-01-29_10h30.57.475,Reversal,2023.1.3,59.987750501150806,2,
1,exp3.png,exp4.png,,0,0,0,0,0,1,1,1,,,,,,,,,,,,,,,,,,,,,,,,,False,0,1,True,exp4.png,exp3.png,trial_left_image,1,exp4.png,2,exp3.png,exp4.png,0,4,reversed,incorrect,0.9921429020518454,0,valid_lose,22.14054980000037,0,,,,,,,,,,,,,,,,,,sub_458,2024-01-29_10h30.57.475,Reversal,2023.1.3,59.987750501150806,2,
2,exp1.png,exp2.png,,0,0,0,0,0,2,2,2,,,,,,,,,,,,,,,,,,,,,,,,,False,1,2,False,exp1.png,exp2.png,trial_right_image,-1,exp2.png,2,exp1.png,exp2.png,0,2,non-reversed,incorrect,0.02198660130082808,1,invalid_win,37.20243800000026,1,,,,,,,,,,,,,,,,,,sub_458,2024-01-29_10h30.57.475,Reversal,2023.1.3,59.987750501150806,2,
3,exp3.png,exp4.png,,0,0,0,0,0,3,3,3,,,,,,,,,,,,,,,,,,,,,,,,,False,2,3,False,exp3.png,exp4.png,trial_left_image,1,exp3.png,2,exp3.png,exp4.png,1,3,reversed,correct,0.6691469620810354,1,valid_win,46.93286050000006,2,,,,,,,,,,,,,,,,,,sub_458,2024-01-29_10h30.57.475,Reversal,2023.1.3,59.987750501150806,2,
4,exp1.png,exp2.png,,0,0,0,0,0,4,4,4,,,,,,,,,,,,,,,,,,,,,,,,,False,3,4,True,exp2.png,exp1.png,trial_left_image,1,exp2.png,2,exp1.png,exp2.png,0,2,non-reversed,incorrect,0.46280420443420234,0,valid_lose,55.58161480000035,2,,,,,,,,,,,,,,,,,,sub_458,2024-01-29_10h30.57.475,Reversal,2023.1.3,59.987750501150806,2,
5,exp3.png,exp4.png,,0,0,0,0,0,5,5,5,,,,,,,,,,,,,,,,,,,,,,,,,False,4,5,False,exp3.png,exp4.png,trial_right_image,-1,exp4.png,2,exp3.png,exp4.png,0,4,reversed,incorrect,0.14280539873602827,1,invalid_win,64.36010979999992,3,,,,,,,,,,,,,,,,,,sub_458,2024-01-29_10h30.57.475,Reversal,2023.1.3,59.987750501150806,2,
6,exp1.png,exp2.png,,0,0,0,0,0,6,6,6,,,,,,,,,,,,,,,,,,,,,,,,,False,5,6,False,exp1.png,exp2.png,trial_right_image,-1,exp2.png,2,exp1.png,exp2.png,0,2,non-reversed,incorrect,0.22664548189073352,1,invalid_win,76.48922990000028,4,,,,,,,,,,,,,,,,,,sub_458,2024-01-29_10h30.57.475,Reversal,2023.1.3,59.987750501150806,2,
7,exp3.png,exp4.png,,0,0,0,0,0,7,7,7,,,,,,,,,,,,,,,,,,,,,,,,,False,6,7,False,exp3.png,exp4.png,trial_right_image,-1,exp4.png,2,exp3.png,exp4.png,0,4,reversed,incorrect,0.13047270622274154,1,invalid_win,84.35356020000017,5,,,,,,,,,,,,,,,,,,sub_458,2024-01-29_10h30.57.475,Reversal,2023.1.3,59.987750501150806,2,
8,exp1.png,exp2.png,,0,0,0,0,0,8,8,8,,,,,,,,,,,,,,,,,,,,,,,,,False,7,8,False,exp1.png,exp2.png,trial_left_image,1,exp1.png,2,exp1.png,exp2.png,1,1,non-reversed,correct,0.1102049996327169,0,invalid_lose,91.28433170000062,5,,,,,,,,,,,,,,,,,,sub_458,2024-01-29_10h30.57.475,Reversal,2023.1.3,59.987750501150806,2,
9,exp3.png,exp4.png,,0,0,0,0,0,9,9,9,,,,,,,,,,,,,,,,,,,,,,,,,False,8,9,True,exp4.png,exp3.png,trial_left_image,1,exp4.png,2,exp3.png,exp4.png,0,4,reversed,incorrect,0.4658907814209645,0,valid_lose,103.8636690000003,5,,,,,,,,,,,,,,,,,,sub_458,2024-01-29_10h30.57.475,Reversal,2023.1.3,59.987750501150806,2,
10,exp1.png,exp2.png,,0,0,0,0,0,10,10,10,,,,,,,,,,,,,,,,,,,,,,,,,False,9,10,False,exp1.png,exp2.png,trial_left_image,1,exp1.png,2,exp1.png,exp2.png,1,1,non-reversed,correct,0.21693058194138481,0,invalid_lose,111.5269315000005,5,,,,,,,,,,,,,,,,,,sub_458,2024-01-29_10h30.57.475,Reversal,2023.1.3,59.987750501150806,2,
11,exp3.png,exp4.png,,0,0,0,0,0,11,11,11,,,,,,,,,,,,,,,,,,,,,,,,,False,10,11,False,exp3.png,exp4.png,trial_right_image,-1,exp4.png,2,exp3.png,exp4.png,0,4,reversed,incorrect,0.5212377704149068,0,valid_lose,118.60852840000007,5,,,,,,,,,,,,,,,,,,sub_458,2024-01-29_10h30.57.475,Reversal,2023.1.3,59.987750501150806,2,
12,exp1.png,exp2.png,,0,0,0,0,0,12,12,12,,,,,,,,,,,,,,,,,,,,,,,,,False,11,12,True,exp2.png,exp1.png,trial_left_image,1,exp2.png,2,exp1.png,exp2.png,0,2,non-reversed,incorrect,0.1474854031930627,1,invalid_win,125.03990429999976,6,,,,,,,,,,,,,,,,,,sub_458,2024-01-29_10h30.57.475,Reversal,2023.1.3,59.987750501150806,2,
13,exp3.png,exp4.png,,0,0,0,0,0,13,13,13,,,,,,,,,,,,,,,,,,,,,,,,,False,12,13,False,exp3.png,exp4.png,trial_left_image,1,exp3.png,2,exp3.png,exp4.png,1,3,reversed,correct,0.8932923416306151,1,valid_win,132.53672460000053,7,,,,,,,,,,,,,,,,,,sub_458,2024-01-29_10h30.57.475,Reversal,2023.1.3,59.987750501150806,2,
14,exp1.png,exp2.png,,0,0,0,0,0,14,14,14,,,,,,,,,,,,,,,,,,,,,,,,,False,13,14,False,exp1.png,exp2.png,trial_right_image,-1,exp2.png,2,exp1.png,exp2.png,0,2,non-reversed,incorrect,0.4801910084600248,0,valid_lose,142.35005509999974,7,,,,,,,,,,,,,,,,,,sub_458,2024-01-29_10h30.57.475,Reversal,2023.1.3,59.987750501150806,2,
15,exp3.png,exp4.png,,0,0,0,0,0,15,15,15,,,,,,,,,,,,,,,,,,,,,,,,,False,14,15,True,exp4.png,exp3.png,trial_right_image,-1,exp3.png,2,exp3.png,exp4.png,1,3,reversed,correct,0.6993725851768119,1,valid_win,149.0144504,8,,,,,,,,,,,,,,,,,,sub_458,2024-01-29_10h30.57.475,Reversal,2023.1.3,59.987750501150806,2,
16,exp1.png,exp2.png,,0,0,0,0,0,16,16,16,,,,,,,,,,,,,,,,,,,,,,,,,False,15,16,True,exp2.png,exp1.png,trial_left_image,1,exp2.png,2,exp1.png,exp2.png,0,2,non-reversed,incorrect,0.5069224360335656,0,valid_lose,160.94394879999982,8,,,,,,,,,,,,,,,,,,sub_458,2024-01-29_10h30.57.475,Reversal,2023.1.3,59.987750501150806,2,
17,exp3.png,exp4.png,,0,0,0,0,0,17,17,17,,,,,,,,,,,,,,,,,,,,,,,,,False,16,17,True,exp4.png,exp3.png,trial_left_image,1,exp4.png,2,exp3.png,exp4.png,0,4,reversed,incorrect,0.9916414874987318,0,valid_lose,169.1583953999998,8,,,,,,,,,,,,,,,,,,sub_458,2024-01-29_10h30.57.475,Reversal,2023.1.3,59.987750501150806,2,
18,exp1.png,exp2.png,,0,0,0,0,0,18,18,18,,,,,,,,,,,,,,,,,,,,,,,,,False,17,18,True,exp2.png,exp1.png,trial_right_image,-1,exp1.png,2,exp1.png,exp2.png,1,1,non-reversed,correct,0.6741210331651223,1,valid_win,178.17134030000034,9,,,,,,,,,,,,,,,,,,sub_458,2024-01-29_10h30.57.475,Reversal,2023.1.3,59.987750501150806,2,
19,exp3.png,exp4.png,,0,0,0,0,0,19,19,19,,,,,,,,,,,,,,,,,,,,,,,,,False,18,19,True,exp4.png,exp3.png,trial_left_image,1,exp4.png,2,exp3.png,exp4.png,0,4,reversed,incorrect,0.9935292750283833,0,valid_lose,192.23345680000057,9,,,,,,,,,,,,,,,,,,sub_458,2024-01-29_10h30.57.475,Reversal,2023.1.3,59.987750501150806,2,
20,exp1.png,exp2.png,,0,0,0,0,0,20,20,20,,,,,,,,,,,,,,,,,,,,,,,,,False,19,20,True,exp2.png,exp1.png,trial_right_image,-1,exp1.png,2,exp1.png,exp2.png,1,1,non-reversed,correct,0.2811312540042692,1,valid_win,203.77946820000034,10,,,,,,,,,,,,,,,,,,sub_458,2024-01-29_10h30.57.475,Reversal,2023.1.3,59.987750501150806,2,
,,,exp1.png,0,0,0,0,,,,,0,0,0,0,0,0,0,0,,,,,,,,,,,,,,,,,,,,,,,,,,,,,,,,,,,,,,329.7800107000003,100.0,100.0,12.606507899999997,"[(100.0, 12.606507899999997)]",,,,,,,,,,,,,sub_458,2024-01-29_10h30.57.475,Reversal,2023.1.3,59.987750501150806,2,
,,,exp2.png,0,0,0,0,,,,,0,0,0,0,0,1,1,1,,,,,,,,,,,,,,,,,,,,,,,,,,,,,,,,,,,,,,343.85449190000054,,1.0,4.372795000000224,"[(1.0, 4.372795000000224)]",1.0,,,,,,,,,,,,sub_458,2024-01-29_10h30.57.475,Reversal,2023.1.3,59.987750501150806,2,
,,,exp3.png,0,0,0,0,,,,,0,0,0,0,0,2,2,2,,,,,,,,,,,,,,,,,,,,,,,,,,,,,,,,,,,,,,350.31332230000044,,4.0,8.30914440000015,"[(4.0, 8.30914440000015)]",,4.0,,,,,,,,,,,sub_458,2024-01-29_10h30.57.475,Reversal,2023.1.3,59.987750501150806,2,
,,,exp4.png,0,0,0,0,,,,,0,0,0,0,0,3,3,3,,,,,,,,,,,,,,,,,,,,,,,,,,,,,,,,,,,,,,359.8608890000005,,1.0,6.126789599999938,"[(1.0, 6.126789599999938)]",,,1.0,,,,,,,,,,sub_458,2024-01-29_10h30.57.475,Reversal,2023.1.3,59.987750501150806,2,
0,exp1.png,exp2.png,,1,0,1,0,0,0,0,0,,,,,,,,,,,,,,,,,,,,,,,,,True,,,,,,,,,,,,,,,,,,,,,,,,,,,,,,,,,,,,,,sub_458,2024-01-29_10h30.57.475,Reversal,2023.1.3,59.987750501150806,2,
1,exp3.png,exp4.png,,1,0,1,0,0,1,1,1,,,,,,,,,,,,,,,,,,,,,,,,,False,20,21,True,exp4.png,exp3.png,trial_right_image,-1,exp3.png,2,exp3.png,exp4.png,1,3,reversed,correct,0.037764141076806146,0,invalid_lose,271.2068016000003,10,,,,,,,,,,,,,,,,,,sub_458,2024-01-29_10h30.57.475,Reversal,2023.1.3,59.987750501150806,2,
2,exp1.png,exp2.png,,1,0,1,0,0,2,2,2,,,,,,,,,,,,,,,,,,,,,,,,,False,21,22,False,exp1.png,exp2.png,trial_left_image,1,exp1.png,2,exp1.png,exp2.png,1,1,non-reversed,correct,0.13785333553945422,0,invalid_lose,285.7185963000002,10,,,,,,,,,,,,,,,,,,sub_458,2024-01-29_10h30.57.475,Reversal,2023.1.3,59.987750501150806,2,
3,exp3.png,exp4.png,,1,0,1,0,0,3,3,3,,,,,,,,,,,,,,,,,,,,,,,,,False,22,23,False,exp3.png,exp4.png,trial_right_image,-1,exp4.png,2,exp3.png,exp4.png,0,4,reversed,incorrect,0.7061411598832789,0,valid_lose,303.2128155999999,10,,,,,,,,,,,,,,,,,,sub_458,2024-01-29_10h30.57.475,Reversal,2023.1.3,59.987750501150806,2,
4,exp1.png,exp2.png,,1,0,1,0,0,4,4,4,,,,,,,,,,,,,,,,,,,,,,,,,False,23,24,False,exp1.png,exp2.png,trial_left_image,1,exp1.png,2,exp1.png,exp2.png,1,1,non-reversed,correct,0.23428010463050952,0,invalid_lose,310.72654779999993,10,,,,,,,,,,,,,,,,,,sub_458,2024-01-29_10h30.57.475,Reversal,2023.1.3,59.987750501150806,2,
5,exp3.png,exp4.png,,1,0,1,0,0,5,5,5,,,,,,,,,,,,,,,,,,,,,,,,,False,24,25,False,exp3.png,exp4.png,trial_right_image,-1,exp4.png,2,exp3.png,exp4.png,0,4,reversed,incorrect,0.9267385025788176,0,valid_lose,321.9232100999998,10,,,,,,,,,,,,,,,,,,sub_458,2024-01-29_10h30.57.475,Reversal,2023.1.3,59.987750501150806,2,
6,exp1.png,exp2.png,,1,0,1,0,0,6,6,6,,,,,,,,,,,,,,,,,,,,,,,,,False,25,26,False,exp1.png,exp2.png,trial_left_image,1,exp1.png,2,exp1.png,exp2.png,1,1,non-reversed,correct,0.296905935066206,1,valid_win,331.4362264000001,11,,,,,,,,,,,,,,,,,,sub_458,2024-01-29_10h30.57.475,Reversal,2023.1.3,59.987750501150806,2,
7,exp3.png,exp4.png,,1,0,1,0,0,7,7,7,,,,,,,,,,,,,,,,,,,,,,,,,False,26,27,False,exp3.png,exp4.png,trial_right_image,-1,exp4.png,2,exp3.png,exp4.png,0,4,reversed,incorrect,0.5279872514459845,0,valid_lose,355.2456560999999,11,,,,,,,,,,,,,,,,,,sub_458,2024-01-29_10h30.57.475,Reversal,2023.1.3,59.987750501150806,2,
8,exp1.png,exp2.png,,1,0,1,0,0,8,8,8,,,,,,,,,,,,,,,,,,,,,,,,,False,27,28,True,exp2.png,exp1.png,trial_right_image,-1,exp1.png,2,exp1.png,exp2.png,1,1,non-reversed,correct,0.13851367591735275,0,invalid_lose,363.30916119999983,11,,,,,,,,,,,,,,,,,,sub_458,2024-01-29_10h30.57.475,Reversal,2023.1.3,59.987750501150806,2,
9,exp3.png,exp4.png,,1,0,1,0,0,9,9,9,,,,,,,,,,,,,,,,,,,,,,,,,False,28,29,False,exp3.png,exp4.png,trial_right_image,-1,exp4.png,2,exp3.png,exp4.png,0,4,reversed,incorrect,0.5847634048732258,0,valid_lose,372.8558284999999,11,,,,,,,,,,,,,,,,,,sub_458,2024-01-29_10h30.57.475,Reversal,2023.1.3,59.987750501150806,2,
10,exp1.png,exp2.png,,1,0,1,0,0,10,10,10,,,,,,,,,,,,,,,,,,,,,,,,,False,29,30,True,exp2.png,exp1.png,trial_right_image,-1,exp1.png,2,exp1.png,exp2.png,1,1,non-reversed,correct,0.28455024640301474,1,valid_win,380.18651730000056,12,,,,,,,,,,,,,,,,,,sub_458,2024-01-29_10h30.57.475,Reversal,2023.1.3,59.987750501150806,2,
11,exp3.png,exp4.png,,1,0,1,0,0,11,11,11,,,,,,,,,,,,,,,,,,,,,,,,,False,30,31,True,exp4.png,exp3.png,trial_left_image,1,exp4.png,2,exp3.png,exp4.png,0,4,reversed,incorrect,0.9020669840329809,0,valid_lose,397.4807599000005,12,,,,,,,,,,,,,,,,,,sub_458,2024-01-29_10h30.57.475,Reversal,2023.1.3,59.987750501150806,2,
12,exp1.png,exp2.png,,1,0,1,0,0,12,12,12,,,,,,,,,,,,,,,,,,,,,,,,,False,31,32,True,exp2.png,exp1.png,trial_right_image,-1,exp1.png,2,exp1.png,exp2.png,1,1,non-reversed,correct,0.10963173131223314,0,invalid_lose,405.5780267,12,,,,,,,,,,,,,,,,,,sub_458,2024-01-29_10h30.57.475,Reversal,2023.1.3,59.987750501150806,2,
13,exp3.png,exp4.png,,1,0,1,0,0,13,13,13,,,,,,,,,,,,,,,,,,,,,,,,,False,32,33,True,exp4.png,exp3.png,trial_right_image,-1,exp3.png,2,exp3.png,exp4.png,1,3,reversed,correct,0.22201857200193043,0,invalid_lose,419.19011730000057,12,,,,,,,,,,,,,,,,,,sub_458,2024-01-29_10h30.57.475,Reversal,2023.1.3,59.987750501150806,2,
14,exp1.png,exp2.png,,1,0,1,0,0,14,14,14,,,,,,,,,,,,,,,,,,,,,,,,,False,33,34,False,exp1.png,exp2.png,trial_left_image,1,exp1.png,2,exp1.png,exp2.png,1,1,non-reversed,correct,0.5761027972639575,1,valid_win,428.35405230000015,13,,,,,,,,,,,,,,,,,,sub_458,2024-01-29_10h30.57.475,Reversal,2023.1.3,59.987750501150806,2,
15,exp3.png,exp4.png,,1,0,1,0,0,15,15,15,,,,,,,,,,,,,,,,,,,,,,,,,False,34,35,True,exp4.png,exp3.png,trial_left_image,1,exp4.png,2,exp3.png,exp4.png,0,4,reversed,incorrect,0.389728311333131,0,valid_lose,448.99664269999994,13,,,,,,,,,,,,,,,,,,sub_458,2024-01-29_10h30.57.475,Reversal,2023.1.3,59.987750501150806,2,
16,exp1.png,exp2.png,,1,0,1,0,0,16,16,16,,,,,,,,,,,,,,,,,,,,,,,,,False,35,36,True,exp2.png,exp1.png,trial_right_image,-1,exp1.png,2,exp1.png,exp2.png,1,1,non-reversed,correct,0.5723321711331019,1,valid_win,459.0600470999998,14,,,,,,,,,,,,,,,,,,sub_458,2024-01-29_10h30.57.475,Reversal,2023.1.3,59.987750501150806,2,
17,exp3.png,exp4.png,,1,0,1,0,0,17,17,17,,,,,,,,,,,,,,,,,,,,,,,,,False,36,37,False,exp3.png,exp4.png,trial_right_image,-1,exp4.png,2,exp3.png,exp4.png,0,4,reversed,incorrect,0.2618759826215289,0,valid_lose,478.5534004000001,14,,,,,,,,,,,,,,,,,,sub_458,2024-01-29_10h30.57.475,Reversal,2023.1.3,59.987750501150806,2,
18,exp1.png,exp2.png,,1,0,1,0,0,18,18,18,,,,,,,,,,,,,,,,,,,,,,,,,False,37,38,True,exp2.png,exp1.png,trial_right_image,-1,exp1.png,2,exp1.png,exp2.png,1,1,non-reversed,correct,0.6518140421971703,1,valid_win,487.2838384000006,15,,,,,,,,,,,,,,,,,,sub_458,2024-01-29_10h30.57.475,Reversal,2023.1.3,59.987750501150806,2,
19,exp3.png,exp4.png,,1,0,1,0,0,19,19,19,,,,,,,,,,,,,,,,,,,,,,,,,False,38,39,False,exp3.png,exp4.png,trial_right_image,-1,exp4.png,2,exp3.png,exp4.png,0,4,reversed,incorrect,0.9379521328270042,0,valid_lose,500.6293260000002,15,,,,,,,,,,,,,,,,,,sub_458,2024-01-29_10h30.57.475,Reversal,2023.1.3,59.987750501150806,2,
20,exp1.png,exp2.png,,1,0,1,0,0,20,20,20,,,,,,,,,,,,,,,,,,,,,,,,,False,39,40,True,exp2.png,exp1.png,trial_right_image,-1,exp1.png,2,exp1.png,exp2.png,1,1,non-reversed,correct,0.6360335606127269,1,valid_win,507.69410100000005,16,,,,,,,,,,,,,,,,,,sub_458,2024-01-29_10h30.57.475,Reversal,2023.1.3,59.987750501150806,2,
,,,exp1.png,1,0,1,0,,,,,0,0,0,0,0,0,0,0,,,,,,,,,,,,,,,,,,,,,,,,,,,,,,,,,,,,,,633.6968466999997,100.0,100.0,7.482132800000727,"[(93.0, 6.499868200000492), (100.0, 7.482132800000727)]",,,,,,,,,,,,,sub_458,2024-01-29_10h30.57.475,Reversal,2023.1.3,59.987750501150806,2,
,,,exp2.png,1,0,1,0,,,,,0,0,0,0,0,1,1,1,,,,,,,,,,,,,,,,,,,,,,,,,,,,,,,,,,,,,,642.2328610000004,,1.0,2.508956699999544,"[(1.0, 2.508956699999544)]",1.0,,,,,,,,,,,,sub_458,2024-01-29_10h30.57.475,Reversal,2023.1.3,59.987750501150806,2,
,,,exp3.png,1,0,1,0,,,,,0,0,0,0,0,2,2,2,,,,,,,,,,,,,,,,,,,,,,,,,,,,,,,,,,,,,,645.8664232000001,,1.0,2.2086785999999847,"[(1.0, 2.2086785999999847)]",,1.0,,,,,,,,,,,sub_458,2024-01-29_10h30.57.475,Reversal,2023.1.3,59.987750501150806,2,
,,,exp4.png,1,0,1,0,,,,,0,0,0,0,0,3,3,3,,,,,,,,,,,,,,,,,,,,,,,,,,,,,,,,,,,,,,649.2311841999999,,1.0,4.14308710000023,"[(1.0, 4.14308710000023)]",,,1.0,,,,,,,,,,sub_458,2024-01-29_10h30.57.475,Reversal,2023.1.3,59.987750501150806,2,
0,exp1.png,exp2.png,,2,0,2,0,0,0,0,0,,,,,,,,,,,,,,,,,,,,,,,,,True,,,,,,,,,,,,,,,,,,,,,,,,,,,,,,,,,,,,,,sub_458,2024-01-29_10h30.57.475,Reversal,2023.1.3,59.987750501150806,2,
1,exp3.png,exp4.png,,2,0,2,0,0,1,1,1,,,,,,,,,,,,,,,,,,,,,,,,,False,40,41,True,exp4.png,exp3.png,trial_left_image,1,exp4.png,2,exp3.png,exp4.png,0,4,reversed,incorrect,0.46862166715807585,0,valid_lose,543.1148035000006,16,,,,,,,,,,,,,,,,,,sub_458,2024-01-29_10h30.57.475,Reversal,2023.1.3,59.987750501150806,2,
2,exp1.png,exp2.png,,2,0,2,0,0,2,2,2,,,,,,,,,,,,,,,,,,,,,,,,,False,41,42,True,exp2.png,exp1.png,trial_right_image,-1,exp1.png,2,exp1.png,exp2.png,1,1,non-reversed,correct,0.21301941869006213,0,invalid_lose,548.8632790000001,16,,,,,,,,,,,,,,,,,,sub_458,2024-01-29_10h30.57.475,Reversal,2023.1.3,59.987750501150806,2,
3,exp3.png,exp4.png,,2,0,2,0,0,3,3,3,,,,,,,,,,,,,,,,,,,,,,,,,False,42,43,True,exp4.png,exp3.png,trial_right_image,-1,exp3.png,2,exp3.png,exp4.png,1,3,reversed,correct,0.9111803077860532,1,valid_win,560.7421105000003,17,,,,,,,,,,,,,,,,,,sub_458,2024-01-29_10h30.57.475,Reversal,2023.1.3,59.987750501150806,2,
4,exp1.png,exp2.png,,2,0,2,0,0,4,4,4,,,,,,,,,,,,,,,,,,,,,,,,,False,43,44,False,exp1.png,exp2.png,trial_left_image,1,exp1.png,2,exp1.png,exp2.png,1,1,non-reversed,correct,0.1342924218157605,0,invalid_lose,569.1065773,17,,,,,,,,,,,,,,,,,,sub_458,2024-01-29_10h30.57.475,Reversal,2023.1.3,59.987750501150806,2,
5,exp3.png,exp4.png,,2,0,2,0,0,5,5,5,,,,,,,,,,,,,,,,,,,,,,,,,False,44,45,False,exp3.png,exp4.png,trial_right_image,-1,exp4.png,2,exp3.png,exp4.png,0,4,reversed,incorrect,0.7857166339712055,0,valid_lose,590.6990173000004,17,,,,,,,,,,,,,,,,,,sub_458,2024-01-29_10h30.57.475,Reversal,2023.1.3,59.987750501150806,2,
6,exp1.png,exp2.png,,2,0,2,0,0,6,6,6,,,,,,,,,,,,,,,,,,,,,,,,,False,45,46,True,exp2.png,exp1.png,trial_right_image,-1,exp1.png,2,exp1.png,exp2.png,1,1,non-reversed,correct,0.225529281299794,0,invalid_lose,601.8950431000003,17,,,,,,,,,,,,,,,,,,sub_458,2024-01-29_10h30.57.475,Reversal,2023.1.3,59.987750501150806,2,
7,exp3.png,exp4.png,,2,0,2,0,0,7,7,7,,,,,,,,,,,,,,,,,,,,,,,,,False,46,47,True,exp4.png,exp3.png,trial_right_image,-1,exp3.png,2,exp3.png,exp4.png,1,3,reversed,correct,0.35737278442419274,1,valid_win,609.1601199000006,18,,,,,,,,,,,,,,,,,,sub_458,2024-01-29_10h30.57.475,Reversal,2023.1.3,59.987750501150806,2,
8,exp1.png,exp2.png,,2,0,2,0,0,8,8,8,,,,,,,,,,,,,,,,,,,,,,,,,False,47,48,False,exp1.png,exp2.png,trial_right_image,-1,exp2.png,2,exp1.png,exp2.png,0,2,non-reversed,incorrect,0.891344651201933,0,valid_lose,615.6408429000003,18,,,,,,,,,,,,,,,,,,sub_458,2024-01-29_10h30.57.475,Reversal,2023.1.3,59.987750501150806,2,
9,exp3.png,exp4.png,,2,0,2,0,0,9,9,9,,,,,,,,,,,,,,,,,,,,,,,,,False,48,49,False,exp3.png,exp4.png,trial_left_image,1,exp3.png,2,exp3.png,exp4.png,1,3,reversed,correct,0.5650062986469012,1,valid_win,630.0356728000006,19,,,,,,,,,,,,,,,,,,sub_458,2024-01-29_10h30.57.475,Reversal,2023.1.3,59.987750501150806,2,
10,exp1.png,exp2.png,,2,0,2,0,0,10,10,10,,,,,,,,,,,,,,,,,,,,,,,,,False,49,50,False,exp1.png,exp2.png,trial_left_image,1,exp1.png,2,exp1.png,exp2.png,1,1,non-reversed,correct,0.6456286662145574,1,valid_win,646.1302265000004,20,,,,,,,,,,,,,,,,,,sub_458,2024-01-29_10h30.57.475,Reversal,2023.1.3,59.987750501150806,2,
11,exp3.png,exp4.png,,2,0,2,0,0,11,11,11,,,,,,,,,,,,,,,,,,,,,,,,,False,50,51,False,exp3.png,exp4.png,trial_left_image,1,exp3.png,2,exp3.png,exp4.png,1,3,reversed,correct,0.21505878746787,0,invalid_lose,659.3431123,20,,,,,,,,,,,,,,,,,,sub_458,2024-01-29_10h30.57.475,Reversal,2023.1.3,59.987750501150806,2,
12,exp1.png,exp2.png,,2,0,2,0,0,12,12,12,,,,,,,,,,,,,,,,,,,,,,,,,False,51,52,False,exp1.png,exp2.png,trial_left_image,1,exp1.png,2,exp1.png,exp2.png,1,1,non-reversed,correct,0.8070690899379025,1,valid_win,670.0219447999998,21,,,,,,,,,,,,,,,,,,sub_458,2024-01-29_10h30.57.475,Reversal,2023.1.3,59.987750501150806,2,
13,exp3.png,exp4.png,,2,0,2,0,0,13,13,13,,,,,,,,,,,,,,,,,,,,,,,,,False,52,53,True,exp4.png,exp3.png,trial_right_image,-1,exp3.png,2,exp3.png,exp4.png,1,3,reversed,correct,0.7764829095412602,1,valid_win,682.9680362999998,22,,,,,,,,,,,,,,,,,,sub_458,2024-01-29_10h30.57.475,Reversal,2023.1.3,59.987750501150806,2,
14,exp1.png,exp2.png,,2,0,2,0,0,14,14,14,,,,,,,,,,,,,,,,,,,,,,,,,False,53,54,False,exp1.png,exp2.png,trial_left_image,1,exp1.png,2,exp1.png,exp2.png,1,1,non-reversed,correct,0.7149704873851443,1,valid_win,691.8148965,23,,,,,,,,,,,,,,,,,,sub_458,2024-01-29_10h30.57.475,Reversal,2023.1.3,59.987750501150806,2,
15,exp3.png,exp4.png,,2,0,2,0,0,15,15,15,,,,,,,,,,,,,,,,,,,,,,,,,False,54,55,False,exp3.png,exp4.png,trial_left_image,1,exp3.png,2,exp3.png,exp4.png,1,3,reversed,correct,0.19451321421186762,0,invalid_lose,704.7108328000004,23,,,,,,,,,,,,,,,,,,sub_458,2024-01-29_10h30.57.475,Reversal,2023.1.3,59.987750501150806,2,
16,exp1.png,exp2.png,,2,0,2,0,0,16,16,16,,,,,,,,,,,,,,,,,,,,,,,,,False,55,56,True,exp2.png,exp1.png,trial_right_image,-1,exp1.png,2,exp1.png,exp2.png,1,1,non-reversed,correct,0.6718608431968711,1,valid_win,712.9576524000004,24,,,,,,,,,,,,,,,,,,sub_458,2024-01-29_10h30.57.475,Reversal,2023.1.3,59.987750501150806,2,
17,exp3.png,exp4.png,,2,0,2,0,0,17,17,17,,,,,,,,,,,,,,,,,,,,,,,,,False,56,57,False,exp3.png,exp4.png,trial_left_image,1,exp3.png,2,exp3.png,exp4.png,1,3,reversed,correct,0.09018303333831323,0,invalid_lose,720.5050273000006,24,,,,,,,,,,,,,,,,,,sub_458,2024-01-29_10h30.57.475,Reversal,2023.1.3,59.987750501150806,2,
18,exp1.png,exp2.png,,2,0,2,0,0,18,18,18,,,,,,,,,,,,,,,,,,,,,,,,,False,57,58,True,exp2.png,exp1.png,trial_right_image,-1,exp1.png,2,exp1.png,exp2.png,1,1,non-reversed,correct,0.909061287988373,1,valid_win,726.5694719000003,25,,,,,,,,,,,,,,,,,,sub_458,2024-01-29_10h30.57.475,Reversal,2023.1.3,59.987750501150806,2,
19,exp3.png,exp4.png,,2,0,2,0,0,19,19,19,,,,,,,,,,,,,,,,,,,,,,,,,False,58,59,True,exp4.png,exp3.png,trial_left_image,1,exp4.png,2,exp3.png,exp4.png,0,4,reversed,incorrect,0.43000046856139007,0,valid_lose,738.5154115000005,25,,,,,,,,,,,,,,,,,,sub_458,2024-01-29_10h30.57.475,Reversal,2023.1.3,59.987750501150806,2,
20,exp1.png,exp2.png,,2,0,2,0,0,20,20,20,,,,,,,,,,,,,,,,,,,,,,,,,False,59,60,True,exp2.png,exp1.png,trial_right_image,-1,exp1.png,2,exp1.png,exp2.png,1,1,non-reversed,correct,0.4545031542682224,1,valid_win,748.0122229999997,26,,,,,,,,,,,,,,,,,,sub_458,2024-01-29_10h30.57.475,Reversal,2023.1.3,59.987750501150806,2,
,,,exp1.png,2,0,2,0,,,,,0,0,0,0,0,0,0,0,,,,,,,,,,,,,,,,,,,,,,,,,,,,,,,,,,,,,,874.0107245999998,100.0,100.0,4.10526899999968,"[(100.0, 4.10526899999968)]",,,,,,,,,,,,,sub_458,2024-01-29_10h30.57.475,Reversal,2023.1.3,59.987750501150806,2,
,,,exp2.png,2,0,2,0,,,,,0,0,0,0,0,1,1,1,,,,,,,,,,,,,,,,,,,,,,,,,,,,,,,,,,,,,,879.5023615999999,,1.0,6.001175899999907,"[(1.0, 6.001175899999907)]",1.0,,,,,,,,,,,,sub_458,2024-01-29_10h30.57.475,Reversal,2023.1.3,59.987750501150806,2,
,,,exp3.png,2,0,2,0,,,,,0,0,0,0,0,2,2,2,,,,,,,,,,,,,,,,,,,,,,,,,,,,,,,,,,,,,,886.7176309000006,,26.0,7.5741588000000775,"[(26.0, 7.5741588000000775)]",,26.0,,,,,,,,,,,sub_458,2024-01-29_10h30.57.475,Reversal,2023.1.3,59.987750501150806,2,
,,,exp4.png,2,0,2,0,,,,,0,0,0,0,0,3,3,3,,,,,,,,,,,,,,,,,,,,,,,,,,,,,,,,,,,,,,895.2635135999999,,35.0,8.342554399999244,"[(35.0, 8.342554399999244)]",,,35.0,,,,,,,,,,sub_458,2024-01-29_10h30.57.475,Reversal,2023.1.3,59.987750501150806,2,
0,exp1.png,exp2.png,,,,,,,,,,,,,,,,,,0,0,0,0,0,0,0,0,,,,,,,,,True,,,,,,,,,,,,,,,,,,,,,,,,,,,,,,,,,,,,,,sub_458,2024-01-29_10h30.57.475,Reversal,2023.1.3,59.987750501150806,2,
1,exp3.png,exp4.png,,,,,,,,,,,,,,,,,,0,0,0,0,0,1,1,1,,,,,,,,,False,0,61,True,exp4.png,exp3.png,trial_left_image,1,exp4.png,2,exp4.png,exp3.png,0,4,reversed,correct,0.7992703893913519,1,valid_win,786.2827441999998,27,,,,,,,,,781.1890856999999,,,,,,,,,sub_458,2024-01-29_10h30.57.475,Reversal,2023.1.3,59.987750501150806,2,
2,exp1.png,exp2.png,,,,,,,,,,,,,,,,,,0,0,0,0,0,2,2,2,,,,,,,,,False,1,62,True,exp2.png,exp1.png,trial_right_image,-1,exp1.png,2,exp1.png,exp2.png,1,1,non-reversed,correct,0.41737807401560767,1,valid_win,794.3133311000001,28,,,,,,,,,,,,,,,,,,sub_458,2024-01-29_10h30.57.475,Reversal,2023.1.3,59.987750501150806,2,
3,exp3.png,exp4.png,,,,,,,,,,,,,,,,,,0,0,0,0,0,3,3,3,,,,,,,,,False,2,63,False,exp3.png,exp4.png,trial_right_image,-1,exp4.png,2,exp4.png,exp3.png,0,4,reversed,correct,0.15638645380443805,0,invalid_lose,802.2777722000001,28,,,,,,,,,,,,,,,,,,sub_458,2024-01-29_10h30.57.475,Reversal,2023.1.3,59.987750501150806,2,
4,exp1.png,exp2.png,,,,,,,,,,,,,,,,,,0,0,0,0,0,4,4,4,,,,,,,,,False,3,64,True,exp2.png,exp1.png,trial_right_image,-1,exp1.png,2,exp1.png,exp2.png,1,1,non-reversed,correct,0.5855827684600561,1,valid_win,808.7919472000003,29,,,,,,,,,,,,,,,,,,sub_458,2024-01-29_10h30.57.475,Reversal,2023.1.3,59.987750501150806,2,
5,exp3.png,exp4.png,,,,,,,,,,,,,,,,,,0,0,0,0,0,5,5,5,,,,,,,,,False,4,65,False,exp3.png,exp4.png,trial_right_image,-1,exp4.png,2,exp4.png,exp3.png,0,4,reversed,correct,0.7674884507318637,1,valid_win,826.0031387999998,30,,,,,,,,,,,,,,,,,,sub_458,2024-01-29_10h30.57.475,Reversal,2023.1.3,59.987750501150806,2,
6,exp1.png,exp2.png,,,,,,,,,,,,,,,,,,0,0,0,0,0,6,6,6,,,,,,,,,False,5,66,False,exp1.png,exp2.png,trial_left_image,1,exp1.png,2,exp1.png,exp2.png,1,1,non-reversed,correct,0.9077965811715871,1,valid_win,833.8507546999999,31,,,,,,,,,,,,,,,,,,sub_458,2024-01-29_10h30.57.475,Reversal,2023.1.3,59.987750501150806,2,
7,exp3.png,exp4.png,,,,,,,,,,,,,,,,,,0,0,0,0,0,7,7,7,,,,,,,,,False,6,67,False,exp3.png,exp4.png,trial_right_image,-1,exp4.png,2,exp4.png,exp3.png,0,4,reversed,correct,0.9896379993010823,1,valid_win,846.8290594999999,32,,,,,,,,,,,,,,,,,,sub_458,2024-01-29_10h30.57.475,Reversal,2023.1.3,59.987750501150806,2,
8,exp1.png,exp2.png,,,,,,,,,,,,,,,,,,0,0,0,0,0,8,8,8,,,,,,,,,False,7,68,True,exp2.png,exp1.png,trial_right_image,-1,exp1.png,2,exp1.png,exp2.png,1,1,non-reversed,correct,0.7348518925434345,1,valid_win,853.2935314000006,33,,,,,,,,,,,,,,,,,,sub_458,2024-01-29_10h30.57.475,Reversal,2023.1.3,59.987750501150806,2,
9,exp3.png,exp4.png,,,,,,,,,,,,,,,,,,0,0,0,0,0,9,9,9,,,,,,,,,False,8,69,True,exp4.png,exp3.png,trial_left_image,1,exp4.png,2,exp4.png,exp3.png,0,4,reversed,correct,0.05296466171490266,0,invalid_lose,861.0745525000002,33,,,,,,,,,,,,,,,,,,sub_458,2024-01-29_10h30.57.475,Reversal,2023.1.3,59.987750501150806,2,
10,exp1.png,exp2.png,,,,,,,,,,,,,,,,,,0,0,0,0,0,10,10,10,,,,,,,,,False,9,70,True,exp2.png,exp1.png,trial_right_image,-1,exp1.png,2,exp1.png,exp2.png,1,1,non-reversed,correct,0.4905227241935206,1,valid_win,869.4049615000004,34,,,,,,,,,,,,,,,,,,sub_458,2024-01-29_10h30.57.475,Reversal,2023.1.3,59.987750501150806,2,
11,exp3.png,exp4.png,,,,,,,,,,,,,,,,,,0,0,0,0,0,11,11,11,,,,,,,,,False,10,71,False,exp3.png,exp4.png,trial_right_image,-1,exp4.png,2,exp4.png,exp3.png,0,4,reversed,correct,0.027585504671394534,0,invalid_lose,881.1846296000003,34,,,,,,,,,,,,,,,,,,sub_458,2024-01-29_10h30.57.475,Reversal,2023.1.3,59.987750501150806,2,
12,exp1.png,exp2.png,,,,,,,,,,,,,,,,,,0,0,0,0,0,12,12,12,,,,,,,,,False,11,72,True,exp2.png,exp1.png,trial_right_image,-1,exp1.png,2,exp1.png,exp2.png,1,1,non-reversed,correct,0.3711345605208546,1,valid_win,891.5306104000001,35,,,,,,,,,,,,,,,,,,sub_458,2024-01-29_10h30.57.475,Reversal,2023.1.3,59.987750501150806,2,
13,exp3.png,exp4.png,,,,,,,,,,,,,,,,,,0,0,0,0,0,13,13,13,,,,,,,,,False,12,73,True,exp4.png,exp3.png,trial_left_image,1,exp4.png,2,exp4.png,exp3.png,0,4,reversed,correct,0.8791422635884903,1,valid_win,899.4784285000005,36,,,,,,,,,,,,,,,,,,sub_458,2024-01-29_10h30.57.475,Reversal,2023.1.3,59.987750501150806,2,
14,exp1.png,exp2.png,,,,,,,,,,,,,,,,,,0,0,0,0,0,14,14,14,,,,,,,,,False,13,74,False,exp1.png,exp2.png,trial_left_image,1,exp1.png,2,exp1.png,exp2.png,1,1,non-reversed,correct,0.4741197191919613,1,valid_win,906.4256305999997,37,,,,,,,,,,,,,,,,,,sub_458,2024-01-29_10h30.57.475,Reversal,2023.1.3,59.987750501150806,2,
15,exp3.png,exp4.png,,,,,,,,,,,,,,,,,,0,0,0,0,0,15,15,15,,,,,,,,,False,14,75,True,exp4.png,exp3.png,trial_left_image,1,exp4.png,2,exp4.png,exp3.png,0,4,reversed,correct,0.12527744482532743,0,invalid_lose,930.8006632000006,37,,,,,,,,,,,,,,,,,,sub_458,2024-01-29_10h30.57.475,Reversal,2023.1.3,59.987750501150806,2,
16,exp1.png,exp2.png,,,,,,,,,,,,,,,,,,0,0,0,0,0,16,16,16,,,,,,,,,False,15,76,False,exp1.png,exp2.png,trial_left_image,1,exp1.png,2,exp1.png,exp2.png,1,1,non-reversed,correct,0.15471061266470443,0,invalid_lose,945.4457873000001,37,,,,,,,,,,,,,,,,,,sub_458,2024-01-29_10h30.57.475,Reversal,2023.1.3,59.987750501150806,2,
17,exp3.png,exp4.png,,,,,,,,,,,,,,,,,,0,0,0,0,0,17,17,17,,,,,,,,,False,16,77,False,exp3.png,exp4.png,trial_right_image,-1,exp4.png,2,exp4.png,exp3.png,0,4,reversed,correct,0.4563638490568027,1,valid_win,954.7594571999998,38,,,,,,,,,,,,,,,,,,sub_458,2024-01-29_10h30.57.475,Reversal,2023.1.3,59.987750501150806,2,
18,exp1.png,exp2.png,,,,,,,,,,,,,,,,,,0,0,0,0,0,18,18,18,,,,,,,,,False,17,78,False,exp1.png,exp2.png,trial_left_image,1,exp1.png,2,exp1.png,exp2.png,1,1,non-reversed,correct,0.4454769360721489,1,valid_win,976.4854067000006,39,,,,,,,,,,,,,,,,,,sub_458,2024-01-29_10h30.57.475,Reversal,2023.1.3,59.987750501150806,2,
19,exp3.png,exp4.png,,,,,,,,,,,,,,,,,,0,0,0,0,0,19,19,19,,,,,,,,,False,18,79,True,exp4.png,exp3.png,trial_right_image,-1,exp3.png,2,exp4.png,exp3.png,1,3,reversed,incorrect,0.7284020114655504,0,valid_lose,984.2993952000006,39,,,,,,,,,,,,,,,,,,sub_458,2024-01-29_10h30.57.475,Reversal,2023.1.3,59.987750501150806,2,
20,exp1.png,exp2.png,,,,,,,,,,,,,,,,,,0,0,0,0,0,20,20,20,,,,,,,,,False,19,80,False,exp1.png,exp2.png,trial_left_image,1,exp1.png,2,exp1.png,exp2.png,1,1,non-reversed,correct,0.9738100844482684,1,valid_win,992.0636733000001,40,,,,,,,,,,,,,,,,,,sub_458,2024-01-29_10h30.57.475,Reversal,2023.1.3,59.987750501150806,2,
,,,exp1.png,,,,,,,,,,,,,,,,,0,0,0,0,,,,,0,0,0,0,0,0,0,0,,,,,,,,,,,,,,,,,,,,,,1118.0603479000001,91.0,91.0,6.139977499999986,"[(91.0, 6.139977499999986)]",,,,,,,,,,,,,sub_458,2024-01-29_10h30.57.475,Reversal,2023.1.3,59.987750501150806,2,
,,,exp2.png,,,,,,,,,,,,,,,,,0,0,0,0,,,,,0,0,0,0,0,1,1,1,,,,,,,,,,,,,,,,,,,,,,1125.2866758999999,,39.0,3.1762223999994603,"[(39.0, 3.1762223999994603)]",39.0,,,,,,,,,,,,sub_458,2024-01-29_10h30.57.475,Reversal,2023.1.3,59.987750501150806,2,
,,,exp3.png,,,,,,,,,,,,,,,,,0,0,0,0,,,,,0,0,0,0,0,2,2,2,,,,,,,,,,,,,,,,,,,,,,1129.368762,,38.0,2.4765889000000243,"[(38.0, 2.4765889000000243)]",,38.0,,,,,,,,,,,sub_458,2024-01-29_10h30.57.475,Reversal,2023.1.3,59.987750501150806,2,
,,,exp4.png,,,,,,,,,,,,,,,,,0,0,0,0,,,,,0,0,0,0,0,3,3,3,,,,,,,,,,,,,,,,,,,,,,1132.8006194,,66.0,3.5429172000003746,"[(66.0, 3.5429172000003746)]",,,66.0,,,,,,,,,,sub_458,2024-01-29_10h30.57.475,Reversal,2023.1.3,59.987750501150806,2,
0,exp1.png,exp2.png,,,,,,,,,,,,,,,,,,1,0,1,0,0,0,0,0,,,,,,,,,True,,,,,,,,,,,,,,,,,,,,,,,,,,,,,,,,,,,,,,sub_458,2024-01-29_10h30.57.475,Reversal,2023.1.3,59.987750501150806,2,
1,exp3.png,exp4.png,,,,,,,,,,,,,,,,,,1,0,1,0,0,1,1,1,,,,,,,,,False,20,81,True,exp4.png,exp3.png,trial_left_image,1,exp4.png,2,exp4.png,exp3.png,0,4,reversed,correct,0.47907463837333586,1,valid_win,1025.8683863000006,41,,,,,,,,,,,,,,,,,,sub_458,2024-01-29_10h30.57.475,Reversal,2023.1.3,59.987750501150806,2,
2,exp1.png,exp2.png,,,,,,,,,,,,,,,,,,1,0,1,0,0,2,2,2,,,,,,,,,False,21,82,True,exp2.png,exp1.png,trial_right_image,-1,exp1.png,2,exp1.png,exp2.png,1,1,non-reversed,correct,0.0011353109857050736,0,invalid_lose,1033.2664368000005,41,,,,,,,,,,,,,,,,,,sub_458,2024-01-29_10h30.57.475,Reversal,2023.1.3,59.987750501150806,2,
3,exp3.png,exp4.png,,,,,,,,,,,,,,,,,,1,0,1,0,0,3,3,3,,,,,,,,,False,22,83,False,exp3.png,exp4.png,trial_right_image,-1,exp4.png,2,exp4.png,exp3.png,0,4,reversed,correct,0.3261738896586842,1,valid_win,1043.2129710999998,42,,,,,,,,,,,,,,,,,,sub_458,2024-01-29_10h30.57.475,Reversal,2023.1.3,59.987750501150806,2,
4,exp1.png,exp2.png,,,,,,,,,,,,,,,,,,1,0,1,0,0,4,4,4,,,,,,,,,False,23,84,False,exp1.png,exp2.png,trial_left_image,1,exp1.png,2,exp1.png,exp2.png,1,1,non-reversed,correct,0.24945456673392152,0,invalid_lose,1052.926458,42,,,,,,,,,,,,,,,,,,sub_458,2024-01-29_10h30.57.475,Reversal,2023.1.3,59.987750501150806,2,
5,exp3.png,exp4.png,,,,,,,,,,,,,,,,,,1,0,1,0,0,5,5,5,,,,,,,,,False,24,85,False,exp3.png,exp4.png,trial_right_image,-1,exp4.png,2,exp4.png,exp3.png,0,4,reversed,correct,0.7701312831348156,1,valid_win,1063.5226506999998,43,,,,,,,,,,,,,,,,,,sub_458,2024-01-29_10h30.57.475,Reversal,2023.1.3,59.987750501150806,2,
6,exp1.png,exp2.png,,,,,,,,,,,,,,,,,,1,0,1,0,0,6,6,6,,,,,,,,,False,25,86,True,exp2.png,exp1.png,trial_right_image,-1,exp1.png,2,exp1.png,exp2.png,1,1,non-reversed,correct,0.34596957428029607,1,valid_win,1072.3030725999997,44,,,,,,,,,,,,,,,,,,sub_458,2024-01-29_10h30.57.475,Reversal,2023.1.3,59.987750501150806,2,
7,exp3.png,exp4.png,,,,,,,,,,,,,,,,,,1,0,1,0,0,7,7,7,,,,,,,,,False,26,87,True,exp4.png,exp3.png,trial_right_image,-1,exp3.png,2,exp4.png,exp3.png,1,3,reversed,incorrect,0.14800448013339917,1,invalid_win,1085.8982643999998,45,,,,,,,,,,,,,,,,,,sub_458,2024-01-29_10h30.57.475,Reversal,2023.1.3,59.987750501150806,2,
8,exp1.png,exp2.png,,,,,,,,,,,,,,,,,,1,0,1,0,0,8,8,8,,,,,,,,,False,27,88,True,exp2.png,exp1.png,trial_right_image,-1,exp1.png,2,exp1.png,exp2.png,1,1,non-reversed,correct,0.15969886053773152,0,invalid_lose,1093.2467828,45,,,,,,,,,,,,,,,,,,sub_458,2024-01-29_10h30.57.475,Reversal,2023.1.3,59.987750501150806,2,
9,exp3.png,exp4.png,,,,,,,,,,,,,,,,,,1,0,1,0,0,9,9,9,,,,,,,,,False,28,89,False,exp3.png,exp4.png,trial_right_image,-1,exp4.png,2,exp4.png,exp3.png,0,4,reversed,correct,0.8341734665437656,1,valid_win,1104.9924171000002,46,,,,,,,,,,,,,,,,,,sub_458,2024-01-29_10h30.57.475,Reversal,2023.1.3,59.987750501150806,2,
10,exp1.png,exp2.png,,,,,,,,,,,,,,,,,,1,0,1,0,0,10,10,10,,,,,,,,,False,29,90,False,exp1.png,exp2.png,trial_left_image,1,exp1.png,2,exp1.png,exp2.png,1,1,non-reversed,correct,0.9733345775808605,1,valid_win,1112.7727599,47,,,,,,,,,,,,,,,,,,sub_458,2024-01-29_10h30.57.475,Reversal,2023.1.3,59.987750501150806,2,
11,exp3.png,exp4.png,,,,,,,,,,,,,,,,,,1,0,1,0,0,11,11,11,,,,,,,,,False,30,91,True,exp4.png,exp3.png,trial_left_image,1,exp4.png,2,exp4.png,exp3.png,0,4,reversed,correct,0.7535998085025872,1,valid_win,1125.1023319000005,48,,,,,,,,,,,,,,,,,,sub_458,2024-01-29_10h30.57.475,Reversal,2023.1.3,59.987750501150806,2,
12,exp1.png,exp2.png,,,,,,,,,,,,,,,,,,1,0,1,0,0,12,12,12,,,,,,,,,False,31,92,False,exp1.png,exp2.png,trial_left_image,1,exp1.png,2,exp1.png,exp2.png,1,1,non-reversed,correct,0.4087986667370156,1,valid_win,1132.6992643000003,49,,,,,,,,,,,,,,,,,,sub_458,2024-01-29_10h30.57.475,Reversal,2023.1.3,59.987750501150806,2,
13,exp3.png,exp4.png,,,,,,,,,,,,,,,,,,1,0,1,0,0,13,13,13,,,,,,,,,False,32,93,False,exp3.png,exp4.png,trial_right_image,-1,exp4.png,2,exp4.png,exp3.png,0,4,reversed,correct,0.9656744302634839,1,valid_win,1143.5287975,50,,,,,,,,,,,,,,,,,,sub_458,2024-01-29_10h30.57.475,Reversal,2023.1.3,59.987750501150806,2,
14,exp1.png,exp2.png,,,,,,,,,,,,,,,,,,1,0,1,0,0,14,14,14,,,,,,,,,False,33,94,True,exp2.png,exp1.png,trial_right_image,-1,exp1.png,2,exp1.png,exp2.png,1,1,non-reversed,correct,0.08677687663086486,0,invalid_lose,1150.0601486000005,50,,,,,,,,,,,,,,,,,,sub_458,2024-01-29_10h30.57.475,Reversal,2023.1.3,59.987750501150806,2,
15,exp3.png,exp4.png,,,,,,,,,,,,,,,,,,1,0,1,0,0,15,15,15,,,,,,,,,False,34,95,True,exp4.png,exp3.png,trial_left_image,1,exp4.png,2,exp4.png,exp3.png,0,4,reversed,correct,0.9810269849631477,1,valid_win,1156.4576710000001,51,,,,,,,,,,,,,,,,,,sub_458,2024-01-29_10h30.57.475,Reversal,2023.1.3,59.987750501150806,2,
16,exp1.png,exp2.png,,,,,,,,,,,,,,,,,,1,0,1,0,0,16,16,16,,,,,,,,,False,35,96,False,exp1.png,exp2.png,trial_left_image,1,exp1.png,2,exp1.png,exp2.png,1,1,non-reversed,correct,0.6263445083124768,1,valid_win,1165.6713836999998,52,,,,,,,,,,,,,,,,,,sub_458,2024-01-29_10h30.57.475,Reversal,2023.1.3,59.987750501150806,2,
17,exp3.png,exp4.png,,,,,,,,,,,,,,,,,,1,0,1,0,0,17,17,17,,,,,,,,,False,36,97,True,exp4.png,exp3.png,trial_left_image,1,exp4.png,2,exp4.png,exp3.png,0,4,reversed,correct,0.8309370045534842,1,valid_win,1172.6859031000004,53,,,,,,,,,,,,,,,,,,sub_458,2024-01-29_10h30.57.475,Reversal,2023.1.3,59.987750501150806,2,
18,exp1.png,exp2.png,,,,,,,,,,,,,,,,,,1,0,1,0,0,18,18,18,,,,,,,,,False,37,98,False,exp1.png,exp2.png,trial_left_image,1,exp1.png,2,exp1.png,exp2.png,1,1,non-reversed,correct,0.9892764435521144,1,valid_win,1180.9327881999998,54,,,,,,,,,,,,,,,,,,sub_458,2024-01-29_10h30.57.475,Reversal,2023.1.3,59.987750501150806,2,
19,exp3.png,exp4.png,,,,,,,,,,,,,,,,,,1,0,1,0,0,19,19,19,,,,,,,,,False,38,99,False,exp3.png,exp4.png,trial_right_image,-1,exp4.png,2,exp4.png,exp3.png,0,4,reversed,correct,0.9199303122505066,1,valid_win,1189.9631211000005,55,,,,,,,,,,,,,,,,,,sub_458,2024-01-29_10h30.57.475,Reversal,2023.1.3,59.987750501150806,2,
20,exp1.png,exp2.png,,,,,,,,,,,,,,,,,,1,0,1,0,0,20,20,20,,,,,,,,,False,39,100,True,exp2.png,exp1.png,trial_right_image,-1,exp1.png,2,exp1.png,exp2.png,1,1,non-reversed,correct,0.07846623449895529,0,invalid_lose,1196.8446236999998,55,,,,,,,,,,,,,,,,,,sub_458,2024-01-29_10h30.57.475,Reversal,2023.1.3,59.987750501150806,2,
,,,exp1.png,,,,,,,,,,,,,,,,,1,0,1,0,,,,,0,0,0,0,0,0,0,0,,,,,,,,,,,,,,,,,,,,,,1322.8524273000003,36.0,36.0,4.7942823000003045,"[(36.0, 4.7942823000003045)]",,,,,,,,,,,,,sub_458,2024-01-29_10h30.57.475,Reversal,2023.1.3,59.987750501150806,2,
,,,exp2.png,,,,,,,,,,,,,,,,,1,0,1,0,,,,,0,0,0,0,0,1,1,1,,,,,,,,,,,,,,,,,,,,,,1328.5989114000004,,32.0,2.1489917999997488,"[(32.0, 2.1489917999997488)]",32.0,,,,,,,,,,,,sub_458,2024-01-29_10h30.57.475,Reversal,2023.1.3,59.987750501150806,2,
,,,exp3.png,,,,,,,,,,,,,,,,,1,0,1,0,,,,,0,0,0,0,0,2,2,2,,,,,,,,,,,,,,,,,,,,,,1331.6811150000003,,32.0,2.361565100000007,"[(32.0, 2.361565100000007)]",,32.0,,,,,,,,,,,sub_458,2024-01-29_10h30.57.475,Reversal,2023.1.3,59.987750501150806,2,
,,,exp4.png,,,,,,,,,,,,,,,,,1,0,1,0,,,,,0,0,0,0,0,3,3,3,,,,,,,,,,,,,,,,,,,,,,1334.9642009,,70.0,1.8286779999998544,"[(70.0, 1.8286779999998544)]",,,70.0,,,,,,,,,,sub_458,2024-01-29_10h30.57.475,Reversal,2023.1.3,59.987750501150806,2,
0,exp1.png,exp2.png,,,,,,,,,,,,,,,,,,2,0,2,0,0,0,0,0,,,,,,,,,True,,,,,,,,,,,,,,,,,,,,,,,,,,,,,,,,,,,,,,sub_458,2024-01-29_10h30.57.475,Reversal,2023.1.3,59.987750501150806,2,
1,exp3.png,exp4.png,,,,,,,,,,,,,,,,,,2,0,2,0,0,1,1,1,,,,,,,,,False,40,101,True,exp4.png,exp3.png,trial_left_image,1,exp4.png,2,exp4.png,exp3.png,0,4,reversed,correct,0.5172082280402834,1,valid_win,1219.4534912,56,,,,,,,,,,,,,,,,,,sub_458,2024-01-29_10h30.57.475,Reversal,2023.1.3,59.987750501150806,2,
2,exp1.png,exp2.png,,,,,,,,,,,,,,,,,,2,0,2,0,0,2,2,2,,,,,,,,,False,41,102,False,exp1.png,exp2.png,trial_left_image,1,exp1.png,2,exp1.png,exp2.png,1,1,non-reversed,correct,0.5969530470035118,1,valid_win,1228.0003622000004,57,,,,,,,,,,,,,,,,,,sub_458,2024-01-29_10h30.57.475,Reversal,2023.1.3,59.987750501150806,2,
3,exp3.png,exp4.png,,,,,,,,,,,,,,,,,,2,0,2,0,0,3,3,3,,,,,,,,,False,42,103,True,exp4.png,exp3.png,trial_left_image,1,exp4.png,2,exp4.png,exp3.png,0,4,reversed,correct,0.3856296235406361,1,valid_win,1234.1484504,58,,,,,,,,,,,,,,,,,,sub_458,2024-01-29_10h30.57.475,Reversal,2023.1.3,59.987750501150806,2,
4,exp1.png,exp2.png,,,,,,,,,,,,,,,,,,2,0,2,0,0,4,4,4,,,,,,,,,False,43,104,True,exp2.png,exp1.png,trial_right_image,-1,exp1.png,2,exp1.png,exp2.png,1,1,non-reversed,correct,0.24030684779590916,0,invalid_lose,1239.5299114,58,,,,,,,,,,,,,,,,,,sub_458,2024-01-29_10h30.57.475,Reversal,2023.1.3,59.987750501150806,2,
5,exp3.png,exp4.png,,,,,,,,,,,,,,,,,,2,0,2,0,0,5,5,5,,,,,,,,,False,44,105,True,exp4.png,exp3.png,trial_left_image,1,exp4.png,2,exp4.png,exp3.png,0,4,reversed,correct,0.27796642187515597,1,valid_win,1247.1940505000002,59,,,,,,,,,,,,,,,,,,sub_458,2024-01-29_10h30.57.475,Reversal,2023.1.3,59.987750501150806,2,
6,exp1.png,exp2.png,,,,,,,,,,,,,,,,,,2,0,2,0,0,6,6,6,,,,,,,,,False,45,106,False,exp1.png,exp2.png,trial_left_image,1,exp1.png,2,exp1.png,exp2.png,1,1,non-reversed,correct,0.23037643153878917,0,invalid_lose,1254.1917998,59,,,,,,,,,,,,,,,,,,sub_458,2024-01-29_10h30.57.475,Reversal,2023.1.3,59.987750501150806,2,
7,exp3.png,exp4.png,,,,,,,,,,,,,,,,,,2,0,2,0,0,7,7,7,,,,,,,,,False,46,107,True,exp4.png,exp3.png,trial_right_image,-1,exp3.png,2,exp4.png,exp3.png,1,3,reversed,incorrect,0.005870274087828142,1,invalid_win,1262.4054494000002,60,,,,,,,,,,,,,,,,,,sub_458,2024-01-29_10h30.57.475,Reversal,2023.1.3,59.987750501150806,2,
8,exp1.png,exp2.png,,,,,,,,,,,,,,,,,,2,0,2,0,0,8,8,8,,,,,,,,,False,47,108,False,exp1.png,exp2.png,trial_left_image,1,exp1.png,2,exp1.png,exp2.png,1,1,non-reversed,correct,0.7943240829856322,1,valid_win,1269.0534662999999,61,,,,,,,,,,,,,,,,,,sub_458,2024-01-29_10h30.57.475,Reversal,2023.1.3,59.987750501150806,2,
9,exp3.png,exp4.png,,,,,,,,,,,,,,,,,,2,0,2,0,0,9,9,9,,,,,,,,,False,48,109,False,exp3.png,exp4.png,trial_right_image,-1,exp4.png,2,exp4.png,exp3.png,0,4,reversed,correct,0.7437269829814159,1,valid_win,1275.9348627,62,,,,,,,,,,,,,,,,,,sub_458,2024-01-29_10h30.57.475,Reversal,2023.1.3,59.987750501150806,2,
10,exp1.png,exp2.png,,,,,,,,,,,,,,,,,,2,0,2,0,0,10,10,10,,,,,,,,,False,49,110,False,exp1.png,exp2.png,trial_left_image,1,exp1.png,2,exp1.png,exp2.png,1,1,non-reversed,correct,0.8377598540479299,1,valid_win,1283.698899,63,,,,,,,,,,,,,,,,,,sub_458,2024-01-29_10h30.57.475,Reversal,2023.1.3,59.987750501150806,2,
11,exp3.png,exp4.png,,,,,,,,,,,,,,,,,,2,0,2,0,0,11,11,11,,,,,,,,,False,50,111,True,exp4.png,exp3.png,trial_left_image,1,exp4.png,2,exp4.png,exp3.png,0,4,reversed,correct,0.33160949309998156,1,valid_win,1291.3624119000006,64,,,,,,,,,,,,,,,,,,sub_458,2024-01-29_10h30.57.475,Reversal,2023.1.3,59.987750501150806,2,
12,exp1.png,exp2.png,,,,,,,,,,,,,,,,,,2,0,2,0,0,12,12,12,,,,,,,,,False,51,112,True,exp2.png,exp1.png,trial_right_image,-1,exp1.png,2,exp1.png,exp2.png,1,1,non-reversed,correct,0.9650091346416422,1,valid_win,1297.9274086000005,65,,,,,,,,,,,,,,,,,,sub_458,2024-01-29_10h30.57.475,Reversal,2023.1.3,59.987750501150806,2,
13,exp3.png,exp4.png,,,,,,,,,,,,,,,,,,2,0,2,0,0,13,13,13,,,,,,,,,False,52,113,False,exp3.png,exp4.png,trial_right_image,-1,exp4.png,2,exp4.png,exp3.png,0,4,reversed,correct,0.31765983904385475,1,valid_win,1305.4246852000006,66,,,,,,,,,,,,,,,,,,sub_458,2024-01-29_10h30.57.475,Reversal,2023.1.3,59.987750501150806,2,
14,exp1.png,exp2.png,,,,,,,,,,,,,,,,,,2,0,2,0,0,14,14,14,,,,,,,,,False,53,114,False,exp1.png,exp2.png,trial_left_image,1,exp1.png,2,exp1.png,exp2.png,1,1,non-reversed,correct,0.39516219159391164,1,valid_win,1314.8708742999997,67,,,,,,,,,,,,,,,,,,sub_458,2024-01-29_10h30.57.475,Reversal,2023.1.3,59.987750501150806,2,
15,exp3.png,exp4.png,,,,,,,,,,,,,,,,,,2,0,2,0,0,15,15,15,,,,,,,,,False,54,115,False,exp3.png,exp4.png,trial_right_image,-1,exp4.png,2,exp4.png,exp3.png,0,4,reversed,correct,0.7416424081212575,1,valid_win,1324.3344711999998,68,,,,,,,,,,,,,,,,,,sub_458,2024-01-29_10h30.57.475,Reversal,2023.1.3,59.987750501150806,2,
16,exp1.png,exp2.png,,,,,,,,,,,,,,,,,,2,0,2,0,0,16,16,16,,,,,,,,,False,55,116,True,exp2.png,exp1.png,trial_right_image,-1,exp1.png,2,exp1.png,exp2.png,1,1,non-reversed,correct,0.4377825697846939,1,valid_win,1332.1656033,69,,,,,,,,,,,,,,,,,,sub_458,2024-01-29_10h30.57.475,Reversal,2023.1.3,59.987750501150806,2,
17,exp3.png,exp4.png,,,,,,,,,,,,,,,,,,2,0,2,0,0,17,17,17,,,,,,,,,False,56,117,False,exp3.png,exp4.png,trial_right_image,-1,exp4.png,2,exp4.png,exp3.png,0,4,reversed,correct,0.06919663740989168,0,invalid_lose,1337.7799694000005,69,,,,,,,,,,,,,,,,,,sub_458,2024-01-29_10h30.57.475,Reversal,2023.1.3,59.987750501150806,2,
18,exp1.png,exp2.png,,,,,,,,,,,,,,,,,,2,0,2,0,0,18,18,18,,,,,,,,,False,57,118,False,exp1.png,exp2.png,trial_left_image,1,exp1.png,2,exp1.png,exp2.png,1,1,non-reversed,correct,0.085265719243374,0,invalid_lose,1343.6113247000003,69,,,,,,,,,,,,,,,,,,sub_458,2024-01-29_10h30.57.475,Reversal,2023.1.3,59.987750501150806,2,
19,exp3.png,exp4.png,,,,,,,,,,,,,,,,,,2,0,2,0,0,19,19,19,,,,,,,,,False,58,119,True,exp4.png,exp3.png,trial_right_image,-1,exp3.png,2,exp4.png,exp3.png,1,3,reversed,incorrect,0.9258301583143363,0,valid_lose,1349.5929449000005,69,,,,,,,,,,,,,,,,,,sub_458,2024-01-29_10h30.57.475,Reversal,2023.1.3,59.987750501150806,2,
20,exp1.png,exp2.png,,,,,,,,,,,,,,,,,,2,0,2,0,0,20,20,20,,,,,,,,,False,59,120,True,exp2.png,exp1.png,trial_right_image,-1,exp1.png,2,exp1.png,exp2.png,1,1,non-reversed,correct,0.8187185262924016,1,valid_win,1355.2432838000004,70,,,,,,,,,,,,,,,,,,sub_458,2024-01-29_10h30.57.475,Reversal,2023.1.3,59.987750501150806,2,
,,,exp1.png,,,,,,,,,,,,,,,,,2,0,2,0,,,,,0,0,0,0,0,0,0,0,,,,,,,,,,,,,,,,,,,,,,1481.2434389,60.0,60.0,4.203322800000024,"[(60.0, 4.203322800000024)]",,,,,,,,,,,,,sub_458,2024-01-29_10h30.57.475,Reversal,2023.1.3,59.987750501150806,2,
,,,exp2.png,,,,,,,,,,,,,,,,,2,0,2,0,,,,,0,0,0,0,0,1,1,1,,,,,,,,,,,,,,,,,,,,,,1486.4294838000005,,36.0,3.4097733999997217,"[(36.0, 3.4097733999997217)]",36.0,,,,,,,,,,,,sub_458,2024-01-29_10h30.57.475,Reversal,2023.1.3,59.987750501150806,2,
,,,exp3.png,,,,,,,,,,,,,,,,,2,0,2,0,,,,,0,0,0,0,0,2,2,2,,,,,,,,,,,,,,,,,,,,,,1490.8786802000004,,39.0,2.0620437999996284,"[(39.0, 2.0620437999996284)]",,39.0,,,,,,,,,,,sub_458,2024-01-29_10h30.57.475,Reversal,2023.1.3,59.987750501150806,2,
,,,exp4.png,,,,,,,,,,,,,,,,,2,0,2,0,,,,,0,0,0,0,0,3,3,3,,,,,,,,,,,,,,,,,,,,,,1493.9932717000002,,78.0,2.127397100000053,"[(78.0, 2.127397100000053)]",,,78.0,,,,,,,,,,sub_458,2024-01-29_10h30.57.475,Reversal,2023.1.3,59.987750501150806,2,
,,,,,,,,,,,,,,,,,,,,,,,,,,,,,,,,,,,,,,,,,,,,,,,,,,,,,,,,70,,,,,,,,,,91,35,56,593.0133450000003,0,space,39.703307400000085,None,sub_458,2024-01-29_10h30.57.475,Reversal,2023.1.3,59.987750501150806,2,
