trial_index,trial_image1_file,trial_image2_file,image_file,learning_outer_loop.thisRepN,learning_outer_loop.thisTrialN,learning_outer_loop.thisN,learning_outer_loop.thisIndex,learning_inner_loop.thisRepN,learning_inner_loop.thisTrialN,learning_inner_loop.thisN,learning_inner_loop.thisIndex,learning_estimation_outer_loop.thisRepN,learning_estimation_outer_loop.thisTrialN,learning_estimation_outer_loop.thisN,learning_estimation_outer_loop.thisIndex,learning_estimation_inner_loop.thisRepN,learning_estimation_inner_loop.thisTrialN,learning_estimation_inner_loop.thisN,learning_estimation_inner_loop.thisIndex,reversal_outer_loop.thisRepN,reversal_outer_loop.thisTrialN,reversal_outer_loop.thisN,reversal_outer_loop.thisIndex,reversal_inner_loop.thisRepN,reversal_inner_loop.thisTrialN,reversal_inner_loop.thisN,reversal_inner_loop.thisIndex,reversal_estimation_outer_loop.thisRepN,reversal_estimation_outer_loop.thisTrialN,reversal_estimation_outer_loop.thisN,reversal_estimation_outer_loop.thisIndex,reversal_estimation_inner_loop.thisRepN,reversal_estimation_inner_loop.thisTrialN,reversal_estimation_inner_loop.thisN,reversal_estimation_inner_loop.thisIndex,skipped,total_trial_counter,trial_num,left_right_flip,left_image_file,right_image_file,clicked_stimulus_side,side,clicked_stimulus,version,high_prob_image_file,low_prob_image_file,choice_a,choice_b,pair_type,correct,trial_feedback_random,reward,trial_type,overall_time_after_trial,score,estimation_rating.started,estimation_exp1.png,estimation_rating.response,estimation_rating.rt,estimation_rating.history,estimation_exp3.png,estimation_exp4.png,total_learning_time,estimation_exp2.png,total_correct,learning_correct,reversal_correct,total_reversal_time,extra_block,participant,date,expName,psychopyVersion,frameRate,ver,
0,exp1.png,exp2.png,,0,0,0,0,0,0,0,0,,,,,,,,,,,,,,,,,,,,,,,,,True,,,,,,,,,,,,,,,,,,,,,,,,,,,,,,,,,,,sub_672,2024-04-02_11h23.38.800,Reversal,2023.1.3,60.01017772613849,4,
1,exp3.png,exp4.png,,0,0,0,0,0,1,1,1,,,,,,,,,,,,,,,,,,,,,,,,,False,0,1,True,exp4.png,exp3.png,trial_right_image,-1,exp3.png,4,exp4.png,exp3.png,0,4,reversed,incorrect,0.47395785757773,0,valid_lose,5.629705699999249,0,,,,,,,,,,,,,,,sub_672,2024-04-02_11h23.38.800,Reversal,2023.1.3,60.01017772613849,4,
2,exp1.png,exp2.png,,0,0,0,0,0,2,2,2,,,,,,,,,,,,,,,,,,,,,,,,,False,1,2,False,exp1.png,exp2.png,trial_left_image,1,exp1.png,4,exp2.png,exp1.png,0,2,non-reversed,incorrect,0.38012926725732543,0,valid_lose,12.093363699999827,0,,,,,,,,,,,,,,,sub_672,2024-04-02_11h23.38.800,Reversal,2023.1.3,60.01017772613849,4,
3,exp3.png,exp4.png,,0,0,0,0,0,3,3,3,,,,,,,,,,,,,,,,,,,,,,,,,False,2,3,True,exp4.png,exp3.png,trial_left_image,1,exp4.png,4,exp4.png,exp3.png,1,3,reversed,correct,0.7236711879702227,1,valid_win,18.39190149999922,1,,,,,,,,,,,,,,,sub_672,2024-04-02_11h23.38.800,Reversal,2023.1.3,60.01017772613849,4,
4,exp1.png,exp2.png,,0,0,0,0,0,4,4,4,,,,,,,,,,,,,,,,,,,,,,,,,False,3,4,True,exp2.png,exp1.png,trial_right_image,-1,exp1.png,4,exp2.png,exp1.png,0,2,non-reversed,incorrect,0.578491765311599,0,valid_lose,25.988996999999472,1,,,,,,,,,,,,,,,sub_672,2024-04-02_11h23.38.800,Reversal,2023.1.3,60.01017772613849,4,
5,exp3.png,exp4.png,,0,0,0,0,0,5,5,5,,,,,,,,,,,,,,,,,,,,,,,,,False,4,5,True,exp4.png,exp3.png,trial_left_image,1,exp4.png,4,exp4.png,exp3.png,1,3,reversed,correct,0.395230772820066,1,valid_win,30.70388819999971,2,,,,,,,,,,,,,,,sub_672,2024-04-02_11h23.38.800,Reversal,2023.1.3,60.01017772613849,4,
6,exp1.png,exp2.png,,0,0,0,0,0,6,6,6,,,,,,,,,,,,,,,,,,,,,,,,,False,5,6,True,exp2.png,exp1.png,trial_left_image,1,exp2.png,4,exp2.png,exp1.png,1,1,non-reversed,correct,0.05264496290065923,0,invalid_lose,35.58562339999935,2,,,,,,,,,,,,,,,sub_672,2024-04-02_11h23.38.800,Reversal,2023.1.3,60.01017772613849,4,
7,exp3.png,exp4.png,,0,0,0,0,0,7,7,7,,,,,,,,,,,,,,,,,,,,,,,,,False,6,7,True,exp4.png,exp3.png,trial_left_image,1,exp4.png,4,exp4.png,exp3.png,1,3,reversed,correct,0.9066898081298885,1,valid_win,41.533390300000065,3,,,,,,,,,,,,,,,sub_672,2024-04-02_11h23.38.800,Reversal,2023.1.3,60.01017772613849,4,
8,exp1.png,exp2.png,,0,0,0,0,0,8,8,8,,,,,,,,,,,,,,,,,,,,,,,,,False,7,8,False,exp1.png,exp2.png,trial_right_image,-1,exp2.png,4,exp2.png,exp1.png,1,1,non-reversed,correct,0.8278876042020774,1,valid_win,46.96597239999937,4,,,,,,,,,,,,,,,sub_672,2024-04-02_11h23.38.800,Reversal,2023.1.3,60.01017772613849,4,
9,exp3.png,exp4.png,,0,0,0,0,0,9,9,9,,,,,,,,,,,,,,,,,,,,,,,,,False,8,9,False,exp3.png,exp4.png,trial_left_image,1,exp3.png,4,exp4.png,exp3.png,0,4,reversed,incorrect,0.1763010774900987,1,invalid_win,51.563866499999676,5,,,,,,,,,,,,,,,sub_672,2024-04-02_11h23.38.800,Reversal,2023.1.3,60.01017772613849,4,
10,exp1.png,exp2.png,,0,0,0,0,0,10,10,10,,,,,,,,,,,,,,,,,,,,,,,,,False,9,10,False,exp1.png,exp2.png,trial_right_image,-1,exp2.png,4,exp2.png,exp1.png,1,1,non-reversed,correct,0.7566740776531564,1,valid_win,56.02885079999942,6,,,,,,,,,,,,,,,sub_672,2024-04-02_11h23.38.800,Reversal,2023.1.3,60.01017772613849,4,
11,exp3.png,exp4.png,,0,0,0,0,0,11,11,11,,,,,,,,,,,,,,,,,,,,,,,,,False,10,11,False,exp3.png,exp4.png,trial_left_image,1,exp3.png,4,exp4.png,exp3.png,0,4,reversed,incorrect,0.9941253119797616,0,valid_lose,60.2609438999998,6,,,,,,,,,,,,,,,sub_672,2024-04-02_11h23.38.800,Reversal,2023.1.3,60.01017772613849,4,
12,exp1.png,exp2.png,,0,0,0,0,0,12,12,12,,,,,,,,,,,,,,,,,,,,,,,,,False,11,12,True,exp2.png,exp1.png,trial_left_image,1,exp2.png,4,exp2.png,exp1.png,1,1,non-reversed,correct,0.2403621706578195,0,invalid_lose,64.79240279999976,6,,,,,,,,,,,,,,,sub_672,2024-04-02_11h23.38.800,Reversal,2023.1.3,60.01017772613849,4,
13,exp3.png,exp4.png,,0,0,0,0,0,13,13,13,,,,,,,,,,,,,,,,,,,,,,,,,False,12,13,True,exp4.png,exp3.png,trial_right_image,-1,exp3.png,4,exp4.png,exp3.png,0,4,reversed,incorrect,0.3179626002384538,0,valid_lose,69.04111509999984,6,,,,,,,,,,,,,,,sub_672,2024-04-02_11h23.38.800,Reversal,2023.1.3,60.01017772613849,4,
14,exp1.png,exp2.png,,0,0,0,0,0,14,14,14,,,,,,,,,,,,,,,,,,,,,,,,,False,13,14,False,exp1.png,exp2.png,trial_left_image,1,exp1.png,4,exp2.png,exp1.png,0,2,non-reversed,incorrect,0.799553918266395,0,valid_lose,73.43919659999938,6,,,,,,,,,,,,,,,sub_672,2024-04-02_11h23.38.800,Reversal,2023.1.3,60.01017772613849,4,
15,exp3.png,exp4.png,,0,0,0,0,0,15,15,15,,,,,,,,,,,,,,,,,,,,,,,,,False,14,15,False,exp3.png,exp4.png,trial_right_image,-1,exp4.png,4,exp4.png,exp3.png,1,3,reversed,correct,0.9666034356556263,1,valid_win,78.23808719999943,7,,,,,,,,,,,,,,,sub_672,2024-04-02_11h23.38.800,Reversal,2023.1.3,60.01017772613849,4,
16,exp1.png,exp2.png,,0,0,0,0,0,16,16,16,,,,,,,,,,,,,,,,,,,,,,,,,False,15,16,False,exp1.png,exp2.png,trial_right_image,-1,exp2.png,4,exp2.png,exp1.png,1,1,non-reversed,correct,0.20230027811604856,0,invalid_lose,82.51957749999929,7,,,,,,,,,,,,,,,sub_672,2024-04-02_11h23.38.800,Reversal,2023.1.3,60.01017772613849,4,
17,exp3.png,exp4.png,,0,0,0,0,0,17,17,17,,,,,,,,,,,,,,,,,,,,,,,,,False,16,17,True,exp4.png,exp3.png,trial_right_image,-1,exp3.png,4,exp4.png,exp3.png,0,4,reversed,incorrect,0.9813994376944256,0,valid_lose,87.05129539999962,7,,,,,,,,,,,,,,,sub_672,2024-04-02_11h23.38.800,Reversal,2023.1.3,60.01017772613849,4,
18,exp1.png,exp2.png,,0,0,0,0,0,18,18,18,,,,,,,,,,,,,,,,,,,,,,,,,False,17,18,False,exp1.png,exp2.png,trial_left_image,1,exp1.png,4,exp2.png,exp1.png,0,2,non-reversed,incorrect,0.7218632932127137,0,valid_lose,91.11678630000006,7,,,,,,,,,,,,,,,sub_672,2024-04-02_11h23.38.800,Reversal,2023.1.3,60.01017772613849,4,
19,exp3.png,exp4.png,,0,0,0,0,0,19,19,19,,,,,,,,,,,,,,,,,,,,,,,,,False,18,19,False,exp3.png,exp4.png,trial_right_image,-1,exp4.png,4,exp4.png,exp3.png,1,3,reversed,correct,0.29345793959233946,1,valid_win,96.3151484,8,,,,,,,,,,,,,,,sub_672,2024-04-02_11h23.38.800,Reversal,2023.1.3,60.01017772613849,4,
20,exp1.png,exp2.png,,0,0,0,0,0,20,20,20,,,,,,,,,,,,,,,,,,,,,,,,,False,19,20,True,exp2.png,exp1.png,trial_right_image,-1,exp1.png,4,exp2.png,exp1.png,0,2,non-reversed,incorrect,0.6523526682379238,0,valid_lose,100.68074789999991,8,,,,,,,,,,,,,,,sub_672,2024-04-02_11h23.38.800,Reversal,2023.1.3,60.01017772613849,4,
,,,exp1.png,0,0,0,0,,,,,0,0,0,0,0,0,0,0,,,,,,,,,,,,,,,,,,,,,,,,,,,,,,,,,,,,,,227.56685039999957,97.0,97.0,19.286617599999772,"[(72.0, 15.756756299999324), (93.0, 18.553499899999224), (97.0, 19.286617599999772)]",,,,,,,,,,sub_672,2024-04-02_11h23.38.800,Reversal,2023.1.3,60.01017772613849,4,
,,,exp2.png,0,0,0,0,,,,,0,0,0,0,0,1,1,1,,,,,,,,,,,,,,,,,,,,,,,,,,,,,,,,,,,,,,248.65483009999934,,None,None,[],,,,,,,,,,sub_672,2024-04-02_11h23.38.800,Reversal,2023.1.3,60.01017772613849,4,
,,,exp3.png,0,0,0,0,,,,,0,0,0,0,0,2,2,2,,,,,,,,,,,,,,,,,,,,,,,,,,,,,,,,,,,,,,258.56474629999957,,100.0,8.992691000000377,"[(100.0, 8.992691000000377)]",100.0,,,,,,,,,sub_672,2024-04-02_11h23.38.800,Reversal,2023.1.3,60.01017772613849,4,
,,,exp4.png,0,0,0,0,,,,,0,0,0,0,0,3,3,3,,,,,,,,,,,,,,,,,,,,,,,,,,,,,,,,,,,,,,270.3125614999999,,100.0,31.666165499999806,"[(49.0, 23.203968099999656), (100.0, 31.666165499999806)]",,100.0,,,,,,,,sub_672,2024-04-02_11h23.38.800,Reversal,2023.1.3,60.01017772613849,4,
0,exp1.png,exp2.png,,1,0,1,0,0,0,0,0,,,,,,,,,,,,,,,,,,,,,,,,,True,,,,,,,,,,,,,,,,,,,,,,,,,,,,,,,,,,,sub_672,2024-04-02_11h23.38.800,Reversal,2023.1.3,60.01017772613849,4,
1,exp3.png,exp4.png,,1,0,1,0,0,1,1,1,,,,,,,,,,,,,,,,,,,,,,,,,False,20,21,True,exp4.png,exp3.png,trial_left_image,1,exp4.png,4,exp4.png,exp3.png,1,3,reversed,correct,0.11252468173061336,0,invalid_lose,183.95200339999974,8,,,,,,,,,,,,,,,sub_672,2024-04-02_11h23.38.800,Reversal,2023.1.3,60.01017772613849,4,
2,exp1.png,exp2.png,,1,0,1,0,0,2,2,2,,,,,,,,,,,,,,,,,,,,,,,,,False,21,22,False,exp1.png,exp2.png,trial_right_image,-1,exp2.png,4,exp2.png,exp1.png,1,1,non-reversed,correct,0.24772083637199782,0,invalid_lose,188.03401469999972,8,,,,,,,,,,,,,,,sub_672,2024-04-02_11h23.38.800,Reversal,2023.1.3,60.01017772613849,4,
3,exp3.png,exp4.png,,1,0,1,0,0,3,3,3,,,,,,,,,,,,,,,,,,,,,,,,,False,22,23,False,exp3.png,exp4.png,trial_left_image,1,exp3.png,4,exp4.png,exp3.png,0,4,reversed,incorrect,0.7958039491372846,0,valid_lose,192.18245129999923,8,,,,,,,,,,,,,,,sub_672,2024-04-02_11h23.38.800,Reversal,2023.1.3,60.01017772613849,4,
4,exp1.png,exp2.png,,1,0,1,0,0,4,4,4,,,,,,,,,,,,,,,,,,,,,,,,,False,23,24,False,exp1.png,exp2.png,trial_left_image,1,exp1.png,4,exp2.png,exp1.png,0,2,non-reversed,incorrect,0.5207189617764106,0,valid_lose,196.2145462999997,8,,,,,,,,,,,,,,,sub_672,2024-04-02_11h23.38.800,Reversal,2023.1.3,60.01017772613849,4,
5,exp3.png,exp4.png,,1,0,1,0,0,5,5,5,,,,,,,,,,,,,,,,,,,,,,,,,False,24,25,True,exp4.png,exp3.png,trial_right_image,-1,exp3.png,4,exp4.png,exp3.png,0,4,reversed,incorrect,0.3840201335328517,0,valid_lose,200.39638039999954,8,,,,,,,,,,,,,,,sub_672,2024-04-02_11h23.38.800,Reversal,2023.1.3,60.01017772613849,4,
6,exp1.png,exp2.png,,1,0,1,0,0,6,6,6,,,,,,,,,,,,,,,,,,,,,,,,,False,25,26,True,exp2.png,exp1.png,trial_left_image,1,exp2.png,4,exp2.png,exp1.png,1,1,non-reversed,correct,0.25937271874547374,1,valid_win,204.72815209999953,9,,,,,,,,,,,,,,,sub_672,2024-04-02_11h23.38.800,Reversal,2023.1.3,60.01017772613849,4,
7,exp3.png,exp4.png,,1,0,1,0,0,7,7,7,,,,,,,,,,,,,,,,,,,,,,,,,False,26,27,False,exp3.png,exp4.png,trial_left_image,1,exp3.png,4,exp4.png,exp3.png,0,4,reversed,incorrect,0.39751280908436626,0,valid_lose,209.26014979999945,9,,,,,,,,,,,,,,,sub_672,2024-04-02_11h23.38.800,Reversal,2023.1.3,60.01017772613849,4,
8,exp1.png,exp2.png,,1,0,1,0,0,8,8,8,,,,,,,,,,,,,,,,,,,,,,,,,False,27,28,False,exp1.png,exp2.png,trial_left_image,1,exp1.png,4,exp2.png,exp1.png,0,2,non-reversed,incorrect,0.03655936872419563,1,invalid_win,214.17510319999928,10,,,,,,,,,,,,,,,sub_672,2024-04-02_11h23.38.800,Reversal,2023.1.3,60.01017772613849,4,
9,exp3.png,exp4.png,,1,0,1,0,0,9,9,9,,,,,,,,,,,,,,,,,,,,,,,,,False,28,29,True,exp4.png,exp3.png,trial_right_image,-1,exp3.png,4,exp4.png,exp3.png,0,4,reversed,incorrect,0.4685360334295826,0,valid_lose,219.6565688999999,10,,,,,,,,,,,,,,,sub_672,2024-04-02_11h23.38.800,Reversal,2023.1.3,60.01017772613849,4,
10,exp1.png,exp2.png,,1,0,1,0,0,10,10,10,,,,,,,,,,,,,,,,,,,,,,,,,False,29,30,False,exp1.png,exp2.png,trial_left_image,1,exp1.png,4,exp2.png,exp1.png,0,2,non-reversed,incorrect,0.03258686946127176,1,invalid_win,224.43840509999973,11,,,,,,,,,,,,,,,sub_672,2024-04-02_11h23.38.800,Reversal,2023.1.3,60.01017772613849,4,
11,exp3.png,exp4.png,,1,0,1,0,0,11,11,11,,,,,,,,,,,,,,,,,,,,,,,,,False,30,31,False,exp3.png,exp4.png,trial_left_image,1,exp3.png,4,exp4.png,exp3.png,0,4,reversed,incorrect,0.047467646583660206,1,invalid_win,229.32012200000008,12,,,,,,,,,,,,,,,sub_672,2024-04-02_11h23.38.800,Reversal,2023.1.3,60.01017772613849,4,
12,exp1.png,exp2.png,,1,0,1,0,0,12,12,12,,,,,,,,,,,,,,,,,,,,,,,,,False,31,32,False,exp1.png,exp2.png,trial_left_image,1,exp1.png,4,exp2.png,exp1.png,0,2,non-reversed,incorrect,0.10609720859412108,1,invalid_win,233.65164109999932,13,,,,,,,,,,,,,,,sub_672,2024-04-02_11h23.38.800,Reversal,2023.1.3,60.01017772613849,4,
13,exp3.png,exp4.png,,1,0,1,0,0,13,13,13,,,,,,,,,,,,,,,,,,,,,,,,,False,32,33,True,exp4.png,exp3.png,trial_left_image,1,exp4.png,4,exp4.png,exp3.png,1,3,reversed,correct,0.2139927008079211,0,invalid_lose,237.7171959999996,13,,,,,,,,,,,,,,,sub_672,2024-04-02_11h23.38.800,Reversal,2023.1.3,60.01017772613849,4,
14,exp1.png,exp2.png,,1,0,1,0,0,14,14,14,,,,,,,,,,,,,,,,,,,,,,,,,False,33,34,False,exp1.png,exp2.png,trial_right_image,-1,exp2.png,4,exp2.png,exp1.png,1,1,non-reversed,correct,0.8518683720780861,1,valid_win,241.78232799999932,14,,,,,,,,,,,,,,,sub_672,2024-04-02_11h23.38.800,Reversal,2023.1.3,60.01017772613849,4,
15,exp3.png,exp4.png,,1,0,1,0,0,15,15,15,,,,,,,,,,,,,,,,,,,,,,,,,False,34,35,True,exp4.png,exp3.png,trial_right_image,-1,exp3.png,4,exp4.png,exp3.png,0,4,reversed,incorrect,0.4573404138376591,0,valid_lose,245.96457349999946,14,,,,,,,,,,,,,,,sub_672,2024-04-02_11h23.38.800,Reversal,2023.1.3,60.01017772613849,4,
16,exp1.png,exp2.png,,1,0,1,0,0,16,16,16,,,,,,,,,,,,,,,,,,,,,,,,,False,35,36,True,exp2.png,exp1.png,trial_left_image,1,exp2.png,4,exp2.png,exp1.png,1,1,non-reversed,correct,0.5145174714110587,1,valid_win,249.9660015999998,15,,,,,,,,,,,,,,,sub_672,2024-04-02_11h23.38.800,Reversal,2023.1.3,60.01017772613849,4,
17,exp3.png,exp4.png,,1,0,1,0,0,17,17,17,,,,,,,,,,,,,,,,,,,,,,,,,False,36,37,False,exp3.png,exp4.png,trial_left_image,1,exp3.png,4,exp4.png,exp3.png,0,4,reversed,incorrect,0.40778996212801655,0,valid_lose,254.9445722999999,15,,,,,,,,,,,,,,,sub_672,2024-04-02_11h23.38.800,Reversal,2023.1.3,60.01017772613849,4,
18,exp1.png,exp2.png,,1,0,1,0,0,18,18,18,,,,,,,,,,,,,,,,,,,,,,,,,False,37,38,True,exp2.png,exp1.png,trial_right_image,-1,exp1.png,4,exp2.png,exp1.png,0,2,non-reversed,incorrect,0.4161527466705409,0,valid_lose,258.97648779999963,15,,,,,,,,,,,,,,,sub_672,2024-04-02_11h23.38.800,Reversal,2023.1.3,60.01017772613849,4,
19,exp3.png,exp4.png,,1,0,1,0,0,19,19,19,,,,,,,,,,,,,,,,,,,,,,,,,False,38,39,True,exp4.png,exp3.png,trial_left_image,1,exp4.png,4,exp4.png,exp3.png,1,3,reversed,correct,0.05847388323074498,0,invalid_lose,263.0251187999993,15,,,,,,,,,,,,,,,sub_672,2024-04-02_11h23.38.800,Reversal,2023.1.3,60.01017772613849,4,
20,exp1.png,exp2.png,,1,0,1,0,0,20,20,20,,,,,,,,,,,,,,,,,,,,,,,,,False,39,40,True,exp2.png,exp1.png,trial_left_image,1,exp2.png,4,exp2.png,exp1.png,1,1,non-reversed,correct,0.5575575738080414,1,valid_win,267.02368169999954,16,,,,,,,,,,,,,,,sub_672,2024-04-02_11h23.38.800,Reversal,2023.1.3,60.01017772613849,4,
,,,exp1.png,1,0,1,0,,,,,0,0,0,0,0,0,0,0,,,,,,,,,,,,,,,,,,,,,,,,,,,,,,,,,,,,,,393.9149688999996,100.0,100.0,6.949780299999475,"[(100.0, 6.949780299999475)]",,,,,,,,,,sub_672,2024-04-02_11h23.38.800,Reversal,2023.1.3,60.01017772613849,4,
,,,exp2.png,1,0,1,0,,,,,0,0,0,0,0,1,1,1,,,,,,,,,,,,,,,,,,,,,,,,,,,,,,,,,,,,,,405.41652479999993,,None,None,[],,,,,,,,,,sub_672,2024-04-02_11h23.38.800,Reversal,2023.1.3,60.01017772613849,4,
,,,exp3.png,1,0,1,0,,,,,0,0,0,0,0,2,2,2,,,,,,,,,,,,,,,,,,,,,,,,,,,,,,,,,,,,,,409.1147159000002,,None,None,[],,,,,,,,,,sub_672,2024-04-02_11h23.38.800,Reversal,2023.1.3,60.01017772613849,4,
,,,exp4.png,1,0,1,0,,,,,0,0,0,0,0,3,3,3,,,,,,,,,,,,,,,,,,,,,,,,,,,,,,,,,,,,,,412.3299046000002,,None,None,[],,,,,,,,,,sub_672,2024-04-02_11h23.38.800,Reversal,2023.1.3,60.01017772613849,4,
0,exp1.png,exp2.png,,2,0,2,0,0,0,0,0,,,,,,,,,,,,,,,,,,,,,,,,,True,,,,,,,,,,,,,,,,,,,,,,,,,,,,,,,,,,,sub_672,2024-04-02_11h23.38.800,Reversal,2023.1.3,60.01017772613849,4,
1,exp3.png,exp4.png,,2,0,2,0,0,1,1,1,,,,,,,,,,,,,,,,,,,,,,,,,False,40,41,False,exp3.png,exp4.png,trial_left_image,1,exp3.png,4,exp4.png,exp3.png,0,4,reversed,incorrect,0.7761229504134245,0,valid_lose,296.04747249999946,16,,,,,,,,,,,,,,,sub_672,2024-04-02_11h23.38.800,Reversal,2023.1.3,60.01017772613849,4,
2,exp1.png,exp2.png,,2,0,2,0,0,2,2,2,,,,,,,,,,,,,,,,,,,,,,,,,False,41,42,False,exp1.png,exp2.png,trial_right_image,-1,exp2.png,4,exp2.png,exp1.png,1,1,non-reversed,correct,0.7740316490429442,1,valid_win,300.0624504999996,17,,,,,,,,,,,,,,,sub_672,2024-04-02_11h23.38.800,Reversal,2023.1.3,60.01017772613849,4,
3,exp3.png,exp4.png,,2,0,2,0,0,3,3,3,,,,,,,,,,,,,,,,,,,,,,,,,False,42,43,True,exp4.png,exp3.png,trial_right_image,-1,exp3.png,4,exp4.png,exp3.png,0,4,reversed,incorrect,0.24162254382910886,1,invalid_win,304.1779188999999,18,,,,,,,,,,,,,,,sub_672,2024-04-02_11h23.38.800,Reversal,2023.1.3,60.01017772613849,4,
4,exp1.png,exp2.png,,2,0,2,0,0,4,4,4,,,,,,,,,,,,,,,,,,,,,,,,,False,43,44,False,exp1.png,exp2.png,trial_right_image,-1,exp2.png,4,exp2.png,exp1.png,1,1,non-reversed,correct,0.7294673984586576,1,valid_win,308.6428348999998,19,,,,,,,,,,,,,,,sub_672,2024-04-02_11h23.38.800,Reversal,2023.1.3,60.01017772613849,4,
5,exp3.png,exp4.png,,2,0,2,0,0,5,5,5,,,,,,,,,,,,,,,,,,,,,,,,,False,44,45,False,exp3.png,exp4.png,trial_right_image,-1,exp4.png,4,exp4.png,exp3.png,1,3,reversed,correct,0.14519116255899955,0,invalid_lose,312.7248835999999,19,,,,,,,,,,,,,,,sub_672,2024-04-02_11h23.38.800,Reversal,2023.1.3,60.01017772613849,4,
6,exp1.png,exp2.png,,2,0,2,0,0,6,6,6,,,,,,,,,,,,,,,,,,,,,,,,,False,45,46,False,exp1.png,exp2.png,trial_left_image,1,exp1.png,4,exp2.png,exp1.png,0,2,non-reversed,incorrect,0.2671100061537507,0,valid_lose,316.9068193999992,19,,,,,,,,,,,,,,,sub_672,2024-04-02_11h23.38.800,Reversal,2023.1.3,60.01017772613849,4,
7,exp3.png,exp4.png,,2,0,2,0,0,7,7,7,,,,,,,,,,,,,,,,,,,,,,,,,False,46,47,True,exp4.png,exp3.png,trial_left_image,1,exp4.png,4,exp4.png,exp3.png,1,3,reversed,correct,0.9429569195051636,1,valid_win,321.20594319999964,20,,,,,,,,,,,,,,,sub_672,2024-04-02_11h23.38.800,Reversal,2023.1.3,60.01017772613849,4,
8,exp1.png,exp2.png,,2,0,2,0,0,8,8,8,,,,,,,,,,,,,,,,,,,,,,,,,False,47,48,True,exp2.png,exp1.png,trial_left_image,1,exp2.png,4,exp2.png,exp1.png,1,1,non-reversed,correct,0.6750146393361345,1,valid_win,325.33748919999925,21,,,,,,,,,,,,,,,sub_672,2024-04-02_11h23.38.800,Reversal,2023.1.3,60.01017772613849,4,
9,exp3.png,exp4.png,,2,0,2,0,0,9,9,9,,,,,,,,,,,,,,,,,,,,,,,,,False,48,49,True,exp4.png,exp3.png,trial_left_image,1,exp4.png,4,exp4.png,exp3.png,1,3,reversed,correct,0.8628586120481064,1,valid_win,330.00248529999953,22,,,,,,,,,,,,,,,sub_672,2024-04-02_11h23.38.800,Reversal,2023.1.3,60.01017772613849,4,
10,exp1.png,exp2.png,,2,0,2,0,0,10,10,10,,,,,,,,,,,,,,,,,,,,,,,,,False,49,50,True,exp2.png,exp1.png,trial_left_image,1,exp2.png,4,exp2.png,exp1.png,1,1,non-reversed,correct,0.5729376752413815,1,valid_win,334.5349340999992,23,,,,,,,,,,,,,,,sub_672,2024-04-02_11h23.38.800,Reversal,2023.1.3,60.01017772613849,4,
11,exp3.png,exp4.png,,2,0,2,0,0,11,11,11,,,,,,,,,,,,,,,,,,,,,,,,,False,50,51,False,exp3.png,exp4.png,trial_left_image,1,exp3.png,4,exp4.png,exp3.png,0,4,reversed,incorrect,0.483782271977219,0,valid_lose,338.49956199999997,23,,,,,,,,,,,,,,,sub_672,2024-04-02_11h23.38.800,Reversal,2023.1.3,60.01017772613849,4,
12,exp1.png,exp2.png,,2,0,2,0,0,12,12,12,,,,,,,,,,,,,,,,,,,,,,,,,False,51,52,True,exp2.png,exp1.png,trial_right_image,-1,exp1.png,4,exp2.png,exp1.png,0,2,non-reversed,incorrect,0.2186162059874852,1,invalid_win,342.66505959999995,24,,,,,,,,,,,,,,,sub_672,2024-04-02_11h23.38.800,Reversal,2023.1.3,60.01017772613849,4,
13,exp3.png,exp4.png,,2,0,2,0,0,13,13,13,,,,,,,,,,,,,,,,,,,,,,,,,False,52,53,True,exp4.png,exp3.png,trial_right_image,-1,exp3.png,4,exp4.png,exp3.png,0,4,reversed,incorrect,0.6732075926829975,0,valid_lose,346.66381889999957,24,,,,,,,,,,,,,,,sub_672,2024-04-02_11h23.38.800,Reversal,2023.1.3,60.01017772613849,4,
14,exp1.png,exp2.png,,2,0,2,0,0,14,14,14,,,,,,,,,,,,,,,,,,,,,,,,,False,53,54,True,exp2.png,exp1.png,trial_left_image,1,exp2.png,4,exp2.png,exp1.png,1,1,non-reversed,correct,0.7373236171558017,1,valid_win,351.36193099999946,25,,,,,,,,,,,,,,,sub_672,2024-04-02_11h23.38.800,Reversal,2023.1.3,60.01017772613849,4,
15,exp3.png,exp4.png,,2,0,2,0,0,15,15,15,,,,,,,,,,,,,,,,,,,,,,,,,False,54,55,True,exp4.png,exp3.png,trial_left_image,1,exp4.png,4,exp4.png,exp3.png,1,3,reversed,correct,0.0827848193742079,0,invalid_lose,355.3270459999994,25,,,,,,,,,,,,,,,sub_672,2024-04-02_11h23.38.800,Reversal,2023.1.3,60.01017772613849,4,
16,exp1.png,exp2.png,,2,0,2,0,0,16,16,16,,,,,,,,,,,,,,,,,,,,,,,,,False,55,56,False,exp1.png,exp2.png,trial_right_image,-1,exp2.png,4,exp2.png,exp1.png,1,1,non-reversed,correct,0.8742901474382069,1,valid_win,359.44224510000004,26,,,,,,,,,,,,,,,sub_672,2024-04-02_11h23.38.800,Reversal,2023.1.3,60.01017772613849,4,
17,exp3.png,exp4.png,,2,0,2,0,0,17,17,17,,,,,,,,,,,,,,,,,,,,,,,,,False,56,57,False,exp3.png,exp4.png,trial_right_image,-1,exp4.png,4,exp4.png,exp3.png,1,3,reversed,correct,0.4258583027868631,1,valid_win,364.2409668999999,27,,,,,,,,,,,,,,,sub_672,2024-04-02_11h23.38.800,Reversal,2023.1.3,60.01017772613849,4,
18,exp1.png,exp2.png,,2,0,2,0,0,18,18,18,,,,,,,,,,,,,,,,,,,,,,,,,False,57,58,False,exp1.png,exp2.png,trial_right_image,-1,exp2.png,4,exp2.png,exp1.png,1,1,non-reversed,correct,0.7775946628120713,1,valid_win,368.43924100000004,28,,,,,,,,,,,,,,,sub_672,2024-04-02_11h23.38.800,Reversal,2023.1.3,60.01017772613849,4,
19,exp3.png,exp4.png,,2,0,2,0,0,19,19,19,,,,,,,,,,,,,,,,,,,,,,,,,False,58,59,False,exp3.png,exp4.png,trial_right_image,-1,exp4.png,4,exp4.png,exp3.png,1,3,reversed,correct,0.4270480733349651,1,valid_win,372.5216682999999,29,,,,,,,,,,,,,,,sub_672,2024-04-02_11h23.38.800,Reversal,2023.1.3,60.01017772613849,4,
20,exp1.png,exp2.png,,2,0,2,0,0,20,20,20,,,,,,,,,,,,,,,,,,,,,,,,,False,59,60,True,exp2.png,exp1.png,trial_right_image,-1,exp1.png,4,exp2.png,exp1.png,0,2,non-reversed,incorrect,0.602901119541138,0,valid_lose,376.85322949999954,29,,,,,,,,,,,,,,,sub_672,2024-04-02_11h23.38.800,Reversal,2023.1.3,60.01017772613849,4,
,,,exp1.png,2,0,2,0,,,,,0,0,0,0,0,0,0,0,,,,,,,,,,,,,,,,,,,,,,,,,,,,,,,,,,,,,,503.73759939999945,100.0,100.0,5.572693300000537,"[(53.0, 4.224098400000003), (100.0, 5.572693300000537)]",,,,,,,,,,sub_672,2024-04-02_11h23.38.800,Reversal,2023.1.3,60.01017772613849,4,
,,,exp2.png,2,0,2,0,,,,,0,0,0,0,0,1,1,1,,,,,,,,,,,,,,,,,,,,,,,,,,,,,,,,,,,,,,510.67888799999946,,None,None,[],,,,,,,,,,sub_672,2024-04-02_11h23.38.800,Reversal,2023.1.3,60.01017772613849,4,
,,,exp3.png,2,0,2,0,,,,,0,0,0,0,0,2,2,2,,,,,,,,,,,,,,,,,,,,,,,,,,,,,,,,,,,,,,513.5285184999993,,100.0,2.460845800000243,"[(90.0, 1.4273986000007426), (100.0, 2.460845800000243)]",100.0,,,,,,,,,sub_672,2024-04-02_11h23.38.800,Reversal,2023.1.3,60.01017772613849,4,
,,,exp4.png,2,0,2,0,,,,,0,0,0,0,0,3,3,3,,,,,,,,,,,,,,,,,,,,,,,,,,,,,,,,,,,,,,517.5281080999994,,None,None,[],,,,,,,,,,sub_672,2024-04-02_11h23.38.800,Reversal,2023.1.3,60.01017772613849,4,
0,exp1.png,exp2.png,,3,0,3,0,0,0,0,0,,,,,,,,,,,,,,,,,,,,,,,,,True,,,,,,,,,,,,,,,,,,,,,,,,,,,,,,,,,,,sub_672,2024-04-02_11h23.38.800,Reversal,2023.1.3,60.01017772613849,4,
1,exp3.png,exp4.png,,3,0,3,0,0,1,1,1,,,,,,,,,,,,,,,,,,,,,,,,,False,60,61,True,exp4.png,exp3.png,trial_right_image,-1,exp3.png,4,exp4.png,exp3.png,0,4,reversed,incorrect,0.23877188080056133,1,invalid_win,397.8626205999999,30,,,,,,,,,,,,,,,sub_672,2024-04-02_11h23.38.800,Reversal,2023.1.3,60.01017772613849,4,
2,exp1.png,exp2.png,,3,0,3,0,0,2,2,2,,,,,,,,,,,,,,,,,,,,,,,,,False,61,62,True,exp2.png,exp1.png,trial_right_image,-1,exp1.png,4,exp2.png,exp1.png,0,2,non-reversed,incorrect,0.25869660599649835,0,valid_lose,401.99437989999933,30,,,,,,,,,,,,,,,sub_672,2024-04-02_11h23.38.800,Reversal,2023.1.3,60.01017772613849,4,
3,exp3.png,exp4.png,,3,0,3,0,0,3,3,3,,,,,,,,,,,,,,,,,,,,,,,,,False,62,63,True,exp4.png,exp3.png,trial_left_image,1,exp4.png,4,exp4.png,exp3.png,1,3,reversed,correct,0.7287384934050096,1,valid_win,406.21011089999956,31,,,,,,,,,,,,,,,sub_672,2024-04-02_11h23.38.800,Reversal,2023.1.3,60.01017772613849,4,
4,exp1.png,exp2.png,,3,0,3,0,0,4,4,4,,,,,,,,,,,,,,,,,,,,,,,,,False,63,64,False,exp1.png,exp2.png,trial_left_image,1,exp1.png,4,exp2.png,exp1.png,0,2,non-reversed,incorrect,0.6980387489138252,0,valid_lose,410.6582497999998,31,,,,,,,,,,,,,,,sub_672,2024-04-02_11h23.38.800,Reversal,2023.1.3,60.01017772613849,4,
5,exp3.png,exp4.png,,3,0,3,0,0,5,5,5,,,,,,,,,,,,,,,,,,,,,,,,,False,64,65,True,exp4.png,exp3.png,trial_right_image,-1,exp3.png,4,exp4.png,exp3.png,0,4,reversed,incorrect,0.003969354042675954,1,invalid_win,414.6236036,32,,,,,,,,,,,,,,,sub_672,2024-04-02_11h23.38.800,Reversal,2023.1.3,60.01017772613849,4,
6,exp1.png,exp2.png,,3,0,3,0,0,6,6,6,,,,,,,,,,,,,,,,,,,,,,,,,False,65,66,False,exp1.png,exp2.png,trial_right_image,-1,exp2.png,4,exp2.png,exp1.png,1,1,non-reversed,correct,0.5965239526004665,1,valid_win,418.68896330000007,33,,,,,,,,,,,,,,,sub_672,2024-04-02_11h23.38.800,Reversal,2023.1.3,60.01017772613849,4,
7,exp3.png,exp4.png,,3,0,3,0,0,7,7,7,,,,,,,,,,,,,,,,,,,,,,,,,False,66,67,True,exp4.png,exp3.png,trial_right_image,-1,exp3.png,4,exp4.png,exp3.png,0,4,reversed,incorrect,0.25800210913943045,0,valid_lose,422.7543648999999,33,,,,,,,,,,,,,,,sub_672,2024-04-02_11h23.38.800,Reversal,2023.1.3,60.01017772613849,4,
8,exp1.png,exp2.png,,3,0,3,0,0,8,8,8,,,,,,,,,,,,,,,,,,,,,,,,,False,67,68,False,exp1.png,exp2.png,trial_left_image,1,exp1.png,4,exp2.png,exp1.png,0,2,non-reversed,incorrect,0.567762594957921,0,valid_lose,426.9526175000001,33,,,,,,,,,,,,,,,sub_672,2024-04-02_11h23.38.800,Reversal,2023.1.3,60.01017772613849,4,
9,exp3.png,exp4.png,,3,0,3,0,0,9,9,9,,,,,,,,,,,,,,,,,,,,,,,,,False,68,69,False,exp3.png,exp4.png,trial_left_image,1,exp3.png,4,exp4.png,exp3.png,0,4,reversed,incorrect,0.7609950039710112,0,valid_lose,431.05101339999965,33,,,,,,,,,,,,,,,sub_672,2024-04-02_11h23.38.800,Reversal,2023.1.3,60.01017772613849,4,
10,exp1.png,exp2.png,,3,0,3,0,0,10,10,10,,,,,,,,,,,,,,,,,,,,,,,,,False,69,70,False,exp1.png,exp2.png,trial_right_image,-1,exp2.png,4,exp2.png,exp1.png,1,1,non-reversed,correct,0.2627977832642482,1,valid_win,435.1833345999994,34,,,,,,,,,,,,,,,sub_672,2024-04-02_11h23.38.800,Reversal,2023.1.3,60.01017772613849,4,
11,exp3.png,exp4.png,,3,0,3,0,0,11,11,11,,,,,,,,,,,,,,,,,,,,,,,,,False,70,71,True,exp4.png,exp3.png,trial_right_image,-1,exp3.png,4,exp4.png,exp3.png,0,4,reversed,incorrect,0.24879353295181428,1,invalid_win,439.26536880000003,35,,,,,,,,,,,,,,,sub_672,2024-04-02_11h23.38.800,Reversal,2023.1.3,60.01017772613849,4,
12,exp1.png,exp2.png,,3,0,3,0,0,12,12,12,,,,,,,,,,,,,,,,,,,,,,,,,False,71,72,True,exp2.png,exp1.png,trial_right_image,-1,exp1.png,4,exp2.png,exp1.png,0,2,non-reversed,incorrect,0.7959706502707273,0,valid_lose,443.28053869999985,35,,,,,,,,,,,,,,,sub_672,2024-04-02_11h23.38.800,Reversal,2023.1.3,60.01017772613849,4,
13,exp3.png,exp4.png,,3,0,3,0,0,13,13,13,,,,,,,,,,,,,,,,,,,,,,,,,False,72,73,False,exp3.png,exp4.png,trial_left_image,1,exp3.png,4,exp4.png,exp3.png,0,4,reversed,incorrect,0.8955584326969928,0,valid_lose,447.3124425999995,35,,,,,,,,,,,,,,,sub_672,2024-04-02_11h23.38.800,Reversal,2023.1.3,60.01017772613849,4,
14,exp1.png,exp2.png,,3,0,3,0,0,14,14,14,,,,,,,,,,,,,,,,,,,,,,,,,False,73,74,True,exp2.png,exp1.png,trial_right_image,-1,exp1.png,4,exp2.png,exp1.png,0,2,non-reversed,incorrect,0.789240963201578,0,valid_lose,451.6278738000001,35,,,,,,,,,,,,,,,sub_672,2024-04-02_11h23.38.800,Reversal,2023.1.3,60.01017772613849,4,
15,exp3.png,exp4.png,,3,0,3,0,0,15,15,15,,,,,,,,,,,,,,,,,,,,,,,,,False,74,75,True,exp4.png,exp3.png,trial_right_image,-1,exp3.png,4,exp4.png,exp3.png,0,4,reversed,incorrect,0.2923928491808806,0,valid_lose,457.0757407000001,35,,,,,,,,,,,,,,,sub_672,2024-04-02_11h23.38.800,Reversal,2023.1.3,60.01017772613849,4,
16,exp1.png,exp2.png,,3,0,3,0,0,16,16,16,,,,,,,,,,,,,,,,,,,,,,,,,False,75,76,False,exp1.png,exp2.png,trial_left_image,1,exp1.png,4,exp2.png,exp1.png,0,2,non-reversed,incorrect,0.7917573857192715,0,valid_lose,461.57473859999936,35,,,,,,,,,,,,,,,sub_672,2024-04-02_11h23.38.800,Reversal,2023.1.3,60.01017772613849,4,
17,exp3.png,exp4.png,,3,0,3,0,0,17,17,17,,,,,,,,,,,,,,,,,,,,,,,,,False,76,77,False,exp3.png,exp4.png,trial_right_image,-1,exp4.png,4,exp4.png,exp3.png,1,3,reversed,correct,0.11605155514969467,0,invalid_lose,465.5732582999999,35,,,,,,,,,,,,,,,sub_672,2024-04-02_11h23.38.800,Reversal,2023.1.3,60.01017772613849,4,
18,exp1.png,exp2.png,,3,0,3,0,0,18,18,18,,,,,,,,,,,,,,,,,,,,,,,,,False,77,78,False,exp1.png,exp2.png,trial_left_image,1,exp1.png,4,exp2.png,exp1.png,0,2,non-reversed,incorrect,0.8926635685522778,0,valid_lose,469.85498969999935,35,,,,,,,,,,,,,,,sub_672,2024-04-02_11h23.38.800,Reversal,2023.1.3,60.01017772613849,4,
19,exp3.png,exp4.png,,3,0,3,0,0,19,19,19,,,,,,,,,,,,,,,,,,,,,,,,,False,78,79,False,exp3.png,exp4.png,trial_right_image,-1,exp4.png,4,exp4.png,exp3.png,1,3,reversed,correct,0.08203358695190843,0,invalid_lose,473.93666679999933,35,,,,,,,,,,,,,,,sub_672,2024-04-02_11h23.38.800,Reversal,2023.1.3,60.01017772613849,4,
20,exp1.png,exp2.png,,3,0,3,0,0,20,20,20,,,,,,,,,,,,,,,,,,,,,,,,,False,79,80,True,exp2.png,exp1.png,trial_right_image,-1,exp1.png,4,exp2.png,exp1.png,0,2,non-reversed,incorrect,0.14401950077028658,1,invalid_win,478.00248699999975,36,,,,,,,,,,,,,,,sub_672,2024-04-02_11h23.38.800,Reversal,2023.1.3,60.01017772613849,4,
,,,exp1.png,3,0,3,0,,,,,0,0,0,0,0,0,0,0,,,,,,,,,,,,,,,,,,,,,,,,,,,,,,,,,,,,,,604.8874625999997,97.0,97.0,4.620777499999349,"[(97.0, 4.620777499999349)]",,,,,,,,,,sub_672,2024-04-02_11h23.38.800,Reversal,2023.1.3,60.01017772613849,4,
,,,exp2.png,3,0,3,0,,,,,0,0,0,0,0,1,1,1,,,,,,,,,,,,,,,,,,,,,,,,,,,,,,,,,,,,,,611.3633507999994,,None,None,[],,,,,,,,,,sub_672,2024-04-02_11h23.38.800,Reversal,2023.1.3,60.01017772613849,4,
,,,exp3.png,3,0,3,0,,,,,0,0,0,0,0,2,2,2,,,,,,,,,,,,,,,,,,,,,,,,,,,,,,,,,,,,,,613.6774667999998,,97.0,2.011679700000059,"[(97.0, 2.011679700000059)]",97.0,,,,,,,,,sub_672,2024-04-02_11h23.38.800,Reversal,2023.1.3,60.01017772613849,4,
,,,exp4.png,3,0,3,0,,,,,0,0,0,0,0,3,3,3,,,,,,,,,,,,,,,,,,,,,,,,,,,,,,,,,,,,,,617.0102966999993,,None,None,[],,,,,,,,,,sub_672,2024-04-02_11h23.38.800,Reversal,2023.1.3,60.01017772613849,4,
0,exp1.png,exp2.png,,,,,,,,,,,,,,,,,,0,0,0,0,0,0,0,0,,,,,,,,,True,,,,,,,,,,,,,,,,,,,,,,,,,,,,,,,,,,,sub_672,2024-04-02_11h23.38.800,Reversal,2023.1.3,60.01017772613849,4,
1,exp3.png,exp4.png,,,,,,,,,,,,,,,,,,0,0,0,0,0,1,1,1,,,,,,,,,False,0,81,True,exp4.png,exp3.png,trial_left_image,1,exp4.png,4,exp3.png,exp4.png,1,3,reversed,incorrect,0.24266841251650761,1,invalid_win,497.2954149999996,37,,,,,,,,494.4408184999993,,,,,,,sub_672,2024-04-02_11h23.38.800,Reversal,2023.1.3,60.01017772613849,4,
2,exp1.png,exp2.png,,,,,,,,,,,,,,,,,,0,0,0,0,0,2,2,2,,,,,,,,,False,1,82,False,exp1.png,exp2.png,trial_left_image,1,exp1.png,4,exp2.png,exp1.png,0,2,non-reversed,incorrect,0.9509732461559898,0,valid_lose,501.29420369999934,37,,,,,,,,,,,,,,,sub_672,2024-04-02_11h23.38.800,Reversal,2023.1.3,60.01017772613849,4,
3,exp3.png,exp4.png,,,,,,,,,,,,,,,,,,0,0,0,0,0,3,3,3,,,,,,,,,False,2,83,False,exp3.png,exp4.png,trial_right_image,-1,exp4.png,4,exp3.png,exp4.png,1,3,reversed,incorrect,0.3929445804855852,0,valid_lose,505.3593949999995,37,,,,,,,,,,,,,,,sub_672,2024-04-02_11h23.38.800,Reversal,2023.1.3,60.01017772613849,4,
4,exp1.png,exp2.png,,,,,,,,,,,,,,,,,,0,0,0,0,0,4,4,4,,,,,,,,,False,3,84,True,exp2.png,exp1.png,trial_right_image,-1,exp1.png,4,exp2.png,exp1.png,0,2,non-reversed,incorrect,0.703088391053788,0,valid_lose,509.4250175999996,37,,,,,,,,,,,,,,,sub_672,2024-04-02_11h23.38.800,Reversal,2023.1.3,60.01017772613849,4,
5,exp3.png,exp4.png,,,,,,,,,,,,,,,,,,0,0,0,0,0,5,5,5,,,,,,,,,False,4,85,True,exp4.png,exp3.png,trial_left_image,1,exp4.png,4,exp3.png,exp4.png,1,3,reversed,incorrect,0.1389766618867857,1,invalid_win,513.5403108,38,,,,,,,,,,,,,,,sub_672,2024-04-02_11h23.38.800,Reversal,2023.1.3,60.01017772613849,4,
6,exp1.png,exp2.png,,,,,,,,,,,,,,,,,,0,0,0,0,0,6,6,6,,,,,,,,,False,5,86,False,exp1.png,exp2.png,trial_left_image,1,exp1.png,4,exp2.png,exp1.png,0,2,non-reversed,incorrect,0.8128248897303606,0,valid_lose,517.5054145999993,38,,,,,,,,,,,,,,,sub_672,2024-04-02_11h23.38.800,Reversal,2023.1.3,60.01017772613849,4,
7,exp3.png,exp4.png,,,,,,,,,,,,,,,,,,0,0,0,0,0,7,7,7,,,,,,,,,False,6,87,True,exp4.png,exp3.png,trial_right_image,-1,exp3.png,4,exp3.png,exp4.png,0,4,reversed,correct,0.02917856203827418,0,invalid_lose,521.5704311,38,,,,,,,,,,,,,,,sub_672,2024-04-02_11h23.38.800,Reversal,2023.1.3,60.01017772613849,4,
8,exp1.png,exp2.png,,,,,,,,,,,,,,,,,,0,0,0,0,0,8,8,8,,,,,,,,,False,7,88,True,exp2.png,exp1.png,trial_right_image,-1,exp1.png,4,exp2.png,exp1.png,0,2,non-reversed,incorrect,0.22537020030292554,1,invalid_win,525.6193783999997,39,,,,,,,,,,,,,,,sub_672,2024-04-02_11h23.38.800,Reversal,2023.1.3,60.01017772613849,4,
9,exp3.png,exp4.png,,,,,,,,,,,,,,,,,,0,0,0,0,0,9,9,9,,,,,,,,,False,8,89,False,exp3.png,exp4.png,trial_right_image,-1,exp4.png,4,exp3.png,exp4.png,1,3,reversed,incorrect,0.5961062082402669,0,valid_lose,529.6682430999999,39,,,,,,,,,,,,,,,sub_672,2024-04-02_11h23.38.800,Reversal,2023.1.3,60.01017772613849,4,
10,exp1.png,exp2.png,,,,,,,,,,,,,,,,,,0,0,0,0,0,10,10,10,,,,,,,,,False,9,90,True,exp2.png,exp1.png,trial_right_image,-1,exp1.png,4,exp2.png,exp1.png,0,2,non-reversed,incorrect,0.8464138935026788,0,valid_lose,533.682933,39,,,,,,,,,,,,,,,sub_672,2024-04-02_11h23.38.800,Reversal,2023.1.3,60.01017772613849,4,
11,exp3.png,exp4.png,,,,,,,,,,,,,,,,,,0,0,0,0,0,11,11,11,,,,,,,,,False,10,91,True,exp4.png,exp3.png,trial_left_image,1,exp4.png,4,exp3.png,exp4.png,1,3,reversed,incorrect,0.42766362115355183,0,valid_lose,537.8149835999993,39,,,,,,,,,,,,,,,sub_672,2024-04-02_11h23.38.800,Reversal,2023.1.3,60.01017772613849,4,
12,exp1.png,exp2.png,,,,,,,,,,,,,,,,,,0,0,0,0,0,12,12,12,,,,,,,,,False,11,92,True,exp2.png,exp1.png,trial_left_image,1,exp2.png,4,exp2.png,exp1.png,1,1,non-reversed,correct,0.31934466654396776,1,valid_win,541.9302359999992,40,,,,,,,,,,,,,,,sub_672,2024-04-02_11h23.38.800,Reversal,2023.1.3,60.01017772613849,4,
13,exp3.png,exp4.png,,,,,,,,,,,,,,,,,,0,0,0,0,0,13,13,13,,,,,,,,,False,12,93,False,exp3.png,exp4.png,trial_left_image,1,exp3.png,4,exp3.png,exp4.png,0,4,reversed,correct,0.6866966144861897,1,valid_win,546.1288208999995,41,,,,,,,,,,,,,,,sub_672,2024-04-02_11h23.38.800,Reversal,2023.1.3,60.01017772613849,4,
14,exp1.png,exp2.png,,,,,,,,,,,,,,,,,,0,0,0,0,0,14,14,14,,,,,,,,,False,13,94,False,exp1.png,exp2.png,trial_left_image,1,exp1.png,4,exp2.png,exp1.png,0,2,non-reversed,incorrect,0.5205095447322949,0,valid_lose,550.1941695999994,41,,,,,,,,,,,,,,,sub_672,2024-04-02_11h23.38.800,Reversal,2023.1.3,60.01017772613849,4,
15,exp3.png,exp4.png,,,,,,,,,,,,,,,,,,0,0,0,0,0,15,15,15,,,,,,,,,False,14,95,False,exp3.png,exp4.png,trial_right_image,-1,exp4.png,4,exp3.png,exp4.png,1,3,reversed,incorrect,0.9361042707175917,0,valid_lose,554.4430626999992,41,,,,,,,,,,,,,,,sub_672,2024-04-02_11h23.38.800,Reversal,2023.1.3,60.01017772613849,4,
16,exp1.png,exp2.png,,,,,,,,,,,,,,,,,,0,0,0,0,0,16,16,16,,,,,,,,,False,15,96,True,exp2.png,exp1.png,trial_right_image,-1,exp1.png,4,exp2.png,exp1.png,0,2,non-reversed,incorrect,0.23068574228157346,1,invalid_win,558.4580219,42,,,,,,,,,,,,,,,sub_672,2024-04-02_11h23.38.800,Reversal,2023.1.3,60.01017772613849,4,
17,exp3.png,exp4.png,,,,,,,,,,,,,,,,,,0,0,0,0,0,17,17,17,,,,,,,,,False,16,97,False,exp3.png,exp4.png,trial_right_image,-1,exp4.png,4,exp3.png,exp4.png,1,3,reversed,incorrect,0.14411396522051523,1,invalid_win,562.7738180999995,43,,,,,,,,,,,,,,,sub_672,2024-04-02_11h23.38.800,Reversal,2023.1.3,60.01017772613849,4,
18,exp1.png,exp2.png,,,,,,,,,,,,,,,,,,0,0,0,0,0,18,18,18,,,,,,,,,False,17,98,False,exp1.png,exp2.png,trial_right_image,-1,exp2.png,4,exp2.png,exp1.png,1,1,non-reversed,correct,0.4575274451057333,1,valid_win,566.9224234999992,44,,,,,,,,,,,,,,,sub_672,2024-04-02_11h23.38.800,Reversal,2023.1.3,60.01017772613849,4,
19,exp3.png,exp4.png,,,,,,,,,,,,,,,,,,0,0,0,0,0,19,19,19,,,,,,,,,False,18,99,True,exp4.png,exp3.png,trial_right_image,-1,exp3.png,4,exp3.png,exp4.png,0,4,reversed,correct,0.20037705377479476,0,invalid_lose,571.0541493999999,44,,,,,,,,,,,,,,,sub_672,2024-04-02_11h23.38.800,Reversal,2023.1.3,60.01017772613849,4,
20,exp1.png,exp2.png,,,,,,,,,,,,,,,,,,0,0,0,0,0,20,20,20,,,,,,,,,False,19,100,False,exp1.png,exp2.png,trial_left_image,1,exp1.png,4,exp2.png,exp1.png,0,2,non-reversed,incorrect,0.6354908144644918,0,valid_lose,574.8057949999993,44,,,,,,,,,,,,,,,sub_672,2024-04-02_11h23.38.800,Reversal,2023.1.3,60.01017772613849,4,
,,,exp1.png,,,,,,,,,,,,,,,,,0,0,0,0,,,,,0,0,0,0,0,0,0,0,,,,,,,,,,,,,,,,,,,,,,701.6920130999997,100.0,100.0,4.682239200000367,"[(95.0, 3.7828700000000026), (100.0, 4.682239200000367)]",,,,,,,,,,sub_672,2024-04-02_11h23.38.800,Reversal,2023.1.3,60.01017772613849,4,
,,,exp2.png,,,,,,,,,,,,,,,,,0,0,0,0,,,,,0,0,0,0,0,1,1,1,,,,,,,,,,,,,,,,,,,,,,707.9621662999998,,94.0,1.8616971000001286,"[(94.0, 1.8616971000001286)]",,,,94.0,,,,,,sub_672,2024-04-02_11h23.38.800,Reversal,2023.1.3,60.01017772613849,4,
,,,exp3.png,,,,,,,,,,,,,,,,,0,0,0,0,,,,,0,0,0,0,0,2,2,2,,,,,,,,,,,,,,,,,,,,,,711.8762079999997,,100.0,2.4803977999999915,"[(100.0, 2.4803977999999915)]",100.0,,,,,,,,,sub_672,2024-04-02_11h23.38.800,Reversal,2023.1.3,60.01017772613849,4,
,,,exp4.png,,,,,,,,,,,,,,,,,0,0,0,0,,,,,0,0,0,0,0,3,3,3,,,,,,,,,,,,,,,,,,,,,,716.7935315999994,,None,None,[],,,,,,,,,,sub_672,2024-04-02_11h23.38.800,Reversal,2023.1.3,60.01017772613849,4,
0,exp1.png,exp2.png,,,,,,,,,,,,,,,,,,1,0,1,0,0,0,0,0,,,,,,,,,True,,,,,,,,,,,,,,,,,,,,,,,,,,,,,,,,,,,sub_672,2024-04-02_11h23.38.800,Reversal,2023.1.3,60.01017772613849,4,
1,exp3.png,exp4.png,,,,,,,,,,,,,,,,,,1,0,1,0,0,1,1,1,,,,,,,,,False,20,101,False,exp3.png,exp4.png,trial_right_image,-1,exp4.png,4,exp3.png,exp4.png,1,3,reversed,incorrect,0.3008650184410093,0,valid_lose,595.9620919999998,44,,,,,,,,,,,,,,,sub_672,2024-04-02_11h23.38.800,Reversal,2023.1.3,60.01017772613849,4,
2,exp1.png,exp2.png,,,,,,,,,,,,,,,,,,1,0,1,0,0,2,2,2,,,,,,,,,False,21,102,False,exp1.png,exp2.png,trial_right_image,-1,exp2.png,4,exp2.png,exp1.png,1,1,non-reversed,correct,0.1701061958726956,0,invalid_lose,600.8437193,44,,,,,,,,,,,,,,,sub_672,2024-04-02_11h23.38.800,Reversal,2023.1.3,60.01017772613849,4,
3,exp3.png,exp4.png,,,,,,,,,,,,,,,,,,1,0,1,0,0,3,3,3,,,,,,,,,False,22,103,True,exp4.png,exp3.png,trial_left_image,1,exp4.png,4,exp3.png,exp4.png,1,3,reversed,incorrect,0.2820502898493207,0,valid_lose,604.8590598999999,44,,,,,,,,,,,,,,,sub_672,2024-04-02_11h23.38.800,Reversal,2023.1.3,60.01017772613849,4,
4,exp1.png,exp2.png,,,,,,,,,,,,,,,,,,1,0,1,0,0,4,4,4,,,,,,,,,False,23,104,False,exp1.png,exp2.png,trial_left_image,1,exp1.png,4,exp2.png,exp1.png,0,2,non-reversed,incorrect,0.9545677454275662,0,valid_lose,608.8742122999993,44,,,,,,,,,,,,,,,sub_672,2024-04-02_11h23.38.800,Reversal,2023.1.3,60.01017772613849,4,
5,exp3.png,exp4.png,,,,,,,,,,,,,,,,,,1,0,1,0,0,5,5,5,,,,,,,,,False,24,105,False,exp3.png,exp4.png,trial_right_image,-1,exp4.png,4,exp3.png,exp4.png,1,3,reversed,incorrect,0.9240654091266598,0,valid_lose,612.9228435999994,44,,,,,,,,,,,,,,,sub_672,2024-04-02_11h23.38.800,Reversal,2023.1.3,60.01017772613849,4,
6,exp1.png,exp2.png,,,,,,,,,,,,,,,,,,1,0,1,0,0,6,6,6,,,,,,,,,False,25,106,True,exp2.png,exp1.png,trial_right_image,-1,exp1.png,4,exp2.png,exp1.png,0,2,non-reversed,incorrect,0.6656352645641073,0,valid_lose,616.9052922999999,44,,,,,,,,,,,,,,,sub_672,2024-04-02_11h23.38.800,Reversal,2023.1.3,60.01017772613849,4,
7,exp3.png,exp4.png,,,,,,,,,,,,,,,,,,1,0,1,0,0,7,7,7,,,,,,,,,False,26,107,False,exp3.png,exp4.png,trial_right_image,-1,exp4.png,4,exp3.png,exp4.png,1,3,reversed,incorrect,0.35297089993141306,0,valid_lose,621.5534484999998,44,,,,,,,,,,,,,,,sub_672,2024-04-02_11h23.38.800,Reversal,2023.1.3,60.01017772613849,4,
8,exp1.png,exp2.png,,,,,,,,,,,,,,,,,,1,0,1,0,0,8,8,8,,,,,,,,,False,27,108,True,exp2.png,exp1.png,trial_left_image,1,exp2.png,4,exp2.png,exp1.png,1,1,non-reversed,correct,0.8670169858401431,1,valid_win,625.6357898999995,45,,,,,,,,,,,,,,,sub_672,2024-04-02_11h23.38.800,Reversal,2023.1.3,60.01017772613849,4,
9,exp3.png,exp4.png,,,,,,,,,,,,,,,,,,1,0,1,0,0,9,9,9,,,,,,,,,False,28,109,True,exp4.png,exp3.png,trial_left_image,1,exp4.png,4,exp3.png,exp4.png,1,3,reversed,incorrect,0.12472542470342418,1,invalid_win,629.9007066999993,46,,,,,,,,,,,,,,,sub_672,2024-04-02_11h23.38.800,Reversal,2023.1.3,60.01017772613849,4,
10,exp1.png,exp2.png,,,,,,,,,,,,,,,,,,1,0,1,0,0,10,10,10,,,,,,,,,False,29,110,False,exp1.png,exp2.png,trial_left_image,1,exp1.png,4,exp2.png,exp1.png,0,2,non-reversed,incorrect,0.6436901499463055,0,valid_lose,634.0489004000001,46,,,,,,,,,,,,,,,sub_672,2024-04-02_11h23.38.800,Reversal,2023.1.3,60.01017772613849,4,
11,exp3.png,exp4.png,,,,,,,,,,,,,,,,,,1,0,1,0,0,11,11,11,,,,,,,,,False,30,111,False,exp3.png,exp4.png,trial_left_image,1,exp3.png,4,exp3.png,exp4.png,0,4,reversed,correct,0.34990446240480133,1,valid_win,638.7810159999999,47,,,,,,,,,,,,,,,sub_672,2024-04-02_11h23.38.800,Reversal,2023.1.3,60.01017772613849,4,
12,exp1.png,exp2.png,,,,,,,,,,,,,,,,,,1,0,1,0,0,12,12,12,,,,,,,,,False,31,112,False,exp1.png,exp2.png,trial_left_image,1,exp1.png,4,exp2.png,exp1.png,0,2,non-reversed,incorrect,0.5688192035270604,0,valid_lose,642.9801938999999,47,,,,,,,,,,,,,,,sub_672,2024-04-02_11h23.38.800,Reversal,2023.1.3,60.01017772613849,4,
13,exp3.png,exp4.png,,,,,,,,,,,,,,,,,,1,0,1,0,0,13,13,13,,,,,,,,,False,32,113,True,exp4.png,exp3.png,trial_right_image,-1,exp3.png,4,exp3.png,exp4.png,0,4,reversed,correct,0.1124178264904776,0,invalid_lose,647.0950441999994,47,,,,,,,,,,,,,,,sub_672,2024-04-02_11h23.38.800,Reversal,2023.1.3,60.01017772613849,4,
14,exp1.png,exp2.png,,,,,,,,,,,,,,,,,,1,0,1,0,0,14,14,14,,,,,,,,,False,33,114,True,exp2.png,exp1.png,trial_right_image,-1,exp1.png,4,exp2.png,exp1.png,0,2,non-reversed,incorrect,0.34953471490066745,0,valid_lose,651.143352,47,,,,,,,,,,,,,,,sub_672,2024-04-02_11h23.38.800,Reversal,2023.1.3,60.01017772613849,4,
15,exp3.png,exp4.png,,,,,,,,,,,,,,,,,,1,0,1,0,0,15,15,15,,,,,,,,,False,34,115,True,exp4.png,exp3.png,trial_left_image,1,exp4.png,4,exp3.png,exp4.png,1,3,reversed,incorrect,0.13391681668018474,1,invalid_win,655.1918246999994,48,,,,,,,,,,,,,,,sub_672,2024-04-02_11h23.38.800,Reversal,2023.1.3,60.01017772613849,4,
16,exp1.png,exp2.png,,,,,,,,,,,,,,,,,,1,0,1,0,0,16,16,16,,,,,,,,,False,35,116,True,exp2.png,exp1.png,trial_left_image,1,exp2.png,4,exp2.png,exp1.png,1,1,non-reversed,correct,0.5407408762438827,1,valid_win,659.3240820999999,49,,,,,,,,,,,,,,,sub_672,2024-04-02_11h23.38.800,Reversal,2023.1.3,60.01017772613849,4,
17,exp3.png,exp4.png,,,,,,,,,,,,,,,,,,1,0,1,0,0,17,17,17,,,,,,,,,False,36,117,True,exp4.png,exp3.png,trial_left_image,1,exp4.png,4,exp3.png,exp4.png,1,3,reversed,incorrect,0.504279964195265,0,valid_lose,663.372214,49,,,,,,,,,,,,,,,sub_672,2024-04-02_11h23.38.800,Reversal,2023.1.3,60.01017772613849,4,
18,exp1.png,exp2.png,,,,,,,,,,,,,,,,,,1,0,1,0,0,18,18,18,,,,,,,,,False,37,118,False,exp1.png,exp2.png,trial_right_image,-1,exp2.png,4,exp2.png,exp1.png,1,1,non-reversed,correct,0.653622271490738,1,valid_win,667.5378133999993,50,,,,,,,,,,,,,,,sub_672,2024-04-02_11h23.38.800,Reversal,2023.1.3,60.01017772613849,4,
19,exp3.png,exp4.png,,,,,,,,,,,,,,,,,,1,0,1,0,0,19,19,19,,,,,,,,,False,38,119,False,exp3.png,exp4.png,trial_right_image,-1,exp4.png,4,exp3.png,exp4.png,1,3,reversed,incorrect,0.12864041508209678,1,invalid_win,671.6028618,51,,,,,,,,,,,,,,,sub_672,2024-04-02_11h23.38.800,Reversal,2023.1.3,60.01017772613849,4,
20,exp1.png,exp2.png,,,,,,,,,,,,,,,,,,1,0,1,0,0,20,20,20,,,,,,,,,False,39,120,True,exp2.png,exp1.png,trial_right_image,-1,exp1.png,4,exp2.png,exp1.png,0,2,non-reversed,incorrect,0.2097788896577516,1,invalid_win,675.7184244999999,52,,,,,,,,,,,,,,,sub_672,2024-04-02_11h23.38.800,Reversal,2023.1.3,60.01017772613849,4,
,,,exp1.png,,,,,,,,,,,,,,,,,1,0,1,0,,,,,0,0,0,0,0,0,0,0,,,,,,,,,,,,,,,,,,,,,,802.6070745999996,100.0,100.0,3.670207500000288,"[(100.0, 3.670207500000288)]",,,,,,,,,,sub_672,2024-04-02_11h23.38.800,Reversal,2023.1.3,60.01017772613849,4,
,,,exp2.png,,,,,,,,,,,,,,,,,1,0,1,0,,,,,0,0,0,0,0,1,1,1,,,,,,,,,,,,,,,,,,,,,,808.0630202000002,,100.0,2.4931729999998424,"[(81.0, 1.65898019999986), (100.0, 2.4931729999998424)]",,,,100.0,,,,,,sub_672,2024-04-02_11h23.38.800,Reversal,2023.1.3,60.01017772613849,4,
,,,exp3.png,,,,,,,,,,,,,,,,,1,0,1,0,,,,,0,0,0,0,0,2,2,2,,,,,,,,,,,,,,,,,,,,,,811.8765647999999,,100.0,3.1782008000000133,"[(100.0, 1.6880609999998342), (100.0, 3.1782008000000133)]",100.0,,,,,,,,,sub_672,2024-04-02_11h23.38.800,Reversal,2023.1.3,60.01017772613849,4,
,,,exp4.png,,,,,,,,,,,,,,,,,1,0,1,0,,,,,0,0,0,0,0,3,3,3,,,,,,,,,,,,,,,,,,,,,,816.526089,,100.0,1.961642899999788,"[(100.0, 1.961642899999788)]",,100.0,,,,,,,,sub_672,2024-04-02_11h23.38.800,Reversal,2023.1.3,60.01017772613849,4,
0,exp1.png,exp2.png,,,,,,,,,,,,,,,,,,2,0,2,0,0,0,0,0,,,,,,,,,True,,,,,,,,,,,,,,,,,,,,,,,,,,,,,,,,,,,sub_672,2024-04-02_11h23.38.800,Reversal,2023.1.3,60.01017772613849,4,
1,exp3.png,exp4.png,,,,,,,,,,,,,,,,,,2,0,2,0,0,1,1,1,,,,,,,,,False,40,121,True,exp4.png,exp3.png,trial_left_image,1,exp4.png,4,exp3.png,exp4.png,1,3,reversed,incorrect,0.06984119092936103,1,invalid_win,700.9931553999995,53,,,,,,,,,,,,,,,sub_672,2024-04-02_11h23.38.800,Reversal,2023.1.3,60.01017772613849,4,
2,exp1.png,exp2.png,,,,,,,,,,,,,,,,,,2,0,2,0,0,2,2,2,,,,,,,,,False,41,122,False,exp1.png,exp2.png,trial_left_image,1,exp1.png,4,exp2.png,exp1.png,0,2,non-reversed,incorrect,0.40305965636496865,0,valid_lose,705.1417291999996,53,,,,,,,,,,,,,,,sub_672,2024-04-02_11h23.38.800,Reversal,2023.1.3,60.01017772613849,4,
3,exp3.png,exp4.png,,,,,,,,,,,,,,,,,,2,0,2,0,0,3,3,3,,,,,,,,,False,42,123,False,exp3.png,exp4.png,trial_right_image,-1,exp4.png,4,exp3.png,exp4.png,1,3,reversed,incorrect,0.24186540095256637,1,invalid_win,709.2074595999993,54,,,,,,,,,,,,,,,sub_672,2024-04-02_11h23.38.800,Reversal,2023.1.3,60.01017772613849,4,
4,exp1.png,exp2.png,,,,,,,,,,,,,,,,,,2,0,2,0,0,4,4,4,,,,,,,,,False,43,124,False,exp1.png,exp2.png,trial_right_image,-1,exp2.png,4,exp2.png,exp1.png,1,1,non-reversed,correct,0.5808991695282649,1,valid_win,713.2558721999994,55,,,,,,,,,,,,,,,sub_672,2024-04-02_11h23.38.800,Reversal,2023.1.3,60.01017772613849,4,
5,exp3.png,exp4.png,,,,,,,,,,,,,,,,,,2,0,2,0,0,5,5,5,,,,,,,,,False,44,125,True,exp4.png,exp3.png,trial_right_image,-1,exp3.png,4,exp3.png,exp4.png,0,4,reversed,correct,0.7259944117753105,1,valid_win,717.2874965999999,56,,,,,,,,,,,,,,,sub_672,2024-04-02_11h23.38.800,Reversal,2023.1.3,60.01017772613849,4,
6,exp1.png,exp2.png,,,,,,,,,,,,,,,,,,2,0,2,0,0,6,6,6,,,,,,,,,False,45,126,True,exp2.png,exp1.png,trial_right_image,-1,exp1.png,4,exp2.png,exp1.png,0,2,non-reversed,incorrect,0.7105276986337433,0,valid_lose,721.4362781,56,,,,,,,,,,,,,,,sub_672,2024-04-02_11h23.38.800,Reversal,2023.1.3,60.01017772613849,4,
7,exp3.png,exp4.png,,,,,,,,,,,,,,,,,,2,0,2,0,0,7,7,7,,,,,,,,,False,46,127,False,exp3.png,exp4.png,trial_left_image,1,exp3.png,4,exp3.png,exp4.png,0,4,reversed,correct,0.039636472209360396,0,invalid_lose,725.5516785,56,,,,,,,,,,,,,,,sub_672,2024-04-02_11h23.38.800,Reversal,2023.1.3,60.01017772613849,4,
8,exp1.png,exp2.png,,,,,,,,,,,,,,,,,,2,0,2,0,0,8,8,8,,,,,,,,,False,47,128,True,exp2.png,exp1.png,trial_left_image,1,exp2.png,4,exp2.png,exp1.png,1,1,non-reversed,correct,0.9203388854511709,1,valid_win,729.5836204999996,57,,,,,,,,,,,,,,,sub_672,2024-04-02_11h23.38.800,Reversal,2023.1.3,60.01017772613849,4,
9,exp3.png,exp4.png,,,,,,,,,,,,,,,,,,2,0,2,0,0,9,9,9,,,,,,,,,False,48,129,False,exp3.png,exp4.png,trial_left_image,1,exp3.png,4,exp3.png,exp4.png,0,4,reversed,correct,0.8135183271138489,1,valid_win,733.6818337999994,58,,,,,,,,,,,,,,,sub_672,2024-04-02_11h23.38.800,Reversal,2023.1.3,60.01017772613849,4,
10,exp1.png,exp2.png,,,,,,,,,,,,,,,,,,2,0,2,0,0,10,10,10,,,,,,,,,False,49,130,False,exp1.png,exp2.png,trial_left_image,1,exp1.png,4,exp2.png,exp1.png,0,2,non-reversed,incorrect,0.10866614048226131,1,invalid_win,737.8636678999992,59,,,,,,,,,,,,,,,sub_672,2024-04-02_11h23.38.800,Reversal,2023.1.3,60.01017772613849,4,
11,exp3.png,exp4.png,,,,,,,,,,,,,,,,,,2,0,2,0,0,11,11,11,,,,,,,,,False,50,131,True,exp4.png,exp3.png,trial_left_image,1,exp4.png,4,exp3.png,exp4.png,1,3,reversed,incorrect,0.45982573183502085,0,valid_lose,741.9958976999997,59,,,,,,,,,,,,,,,sub_672,2024-04-02_11h23.38.800,Reversal,2023.1.3,60.01017772613849,4,
12,exp1.png,exp2.png,,,,,,,,,,,,,,,,,,2,0,2,0,0,12,12,12,,,,,,,,,False,51,132,False,exp1.png,exp2.png,trial_right_image,-1,exp2.png,4,exp2.png,exp1.png,1,1,non-reversed,correct,0.3039470483405601,1,valid_win,746.1781907999994,60,,,,,,,,,,,,,,,sub_672,2024-04-02_11h23.38.800,Reversal,2023.1.3,60.01017772613849,4,
13,exp3.png,exp4.png,,,,,,,,,,,,,,,,,,2,0,2,0,0,13,13,13,,,,,,,,,False,52,133,True,exp4.png,exp3.png,trial_right_image,-1,exp3.png,4,exp3.png,exp4.png,0,4,reversed,correct,0.517165833872677,1,valid_win,750.3264945999999,61,,,,,,,,,,,,,,,sub_672,2024-04-02_11h23.38.800,Reversal,2023.1.3,60.01017772613849,4,
14,exp1.png,exp2.png,,,,,,,,,,,,,,,,,,2,0,2,0,0,14,14,14,,,,,,,,,False,53,134,False,exp1.png,exp2.png,trial_right_image,-1,exp2.png,4,exp2.png,exp1.png,1,1,non-reversed,correct,0.543275129362241,1,valid_win,754.6083356999998,62,,,,,,,,,,,,,,,sub_672,2024-04-02_11h23.38.800,Reversal,2023.1.3,60.01017772613849,4,
15,exp3.png,exp4.png,,,,,,,,,,,,,,,,,,2,0,2,0,0,15,15,15,,,,,,,,,False,54,135,False,exp3.png,exp4.png,trial_right_image,-1,exp4.png,4,exp3.png,exp4.png,1,3,reversed,incorrect,0.0487375917768299,1,invalid_win,758.7068694999998,63,,,,,,,,,,,,,,,sub_672,2024-04-02_11h23.38.800,Reversal,2023.1.3,60.01017772613849,4,
16,exp1.png,exp2.png,,,,,,,,,,,,,,,,,,2,0,2,0,0,16,16,16,,,,,,,,,False,55,136,True,exp2.png,exp1.png,trial_right_image,-1,exp1.png,4,exp2.png,exp1.png,0,2,non-reversed,incorrect,0.3457561389978179,0,valid_lose,763.0054915999999,63,,,,,,,,,,,,,,,sub_672,2024-04-02_11h23.38.800,Reversal,2023.1.3,60.01017772613849,4,
17,exp3.png,exp4.png,,,,,,,,,,,,,,,,,,2,0,2,0,0,17,17,17,,,,,,,,,False,56,137,True,exp4.png,exp3.png,trial_left_image,1,exp4.png,4,exp3.png,exp4.png,1,3,reversed,incorrect,0.46802166543960866,0,valid_lose,767.2041359999994,63,,,,,,,,,,,,,,,sub_672,2024-04-02_11h23.38.800,Reversal,2023.1.3,60.01017772613849,4,
18,exp1.png,exp2.png,,,,,,,,,,,,,,,,,,2,0,2,0,0,18,18,18,,,,,,,,,False,57,138,False,exp1.png,exp2.png,trial_left_image,1,exp1.png,4,exp2.png,exp1.png,0,2,non-reversed,incorrect,0.2140818808838324,1,invalid_win,771.3530962999994,64,,,,,,,,,,,,,,,sub_672,2024-04-02_11h23.38.800,Reversal,2023.1.3,60.01017772613849,4,
19,exp3.png,exp4.png,,,,,,,,,,,,,,,,,,2,0,2,0,0,19,19,19,,,,,,,,,False,58,139,True,exp4.png,exp3.png,trial_left_image,1,exp4.png,4,exp3.png,exp4.png,1,3,reversed,incorrect,0.45423841364723383,0,valid_lose,775.4015307999998,64,,,,,,,,,,,,,,,sub_672,2024-04-02_11h23.38.800,Reversal,2023.1.3,60.01017772613849,4,
20,exp1.png,exp2.png,,,,,,,,,,,,,,,,,,2,0,2,0,0,20,20,20,,,,,,,,,False,59,140,True,exp2.png,exp1.png,trial_right_image,-1,exp1.png,4,exp2.png,exp1.png,0,2,non-reversed,incorrect,0.2405559365984814,1,invalid_win,779.4501364999996,65,,,,,,,,,,,,,,,sub_672,2024-04-02_11h23.38.800,Reversal,2023.1.3,60.01017772613849,4,
,,,exp1.png,,,,,,,,,,,,,,,,,2,0,2,0,,,,,0,0,0,0,0,0,0,0,,,,,,,,,,,,,,,,,,,,,,906.3324598999998,100.0,100.0,2.9398304000005737,"[(100.0, 2.9398304000005737)]",,,,,,,,,,sub_672,2024-04-02_11h23.38.800,Reversal,2023.1.3,60.01017772613849,4,
,,,exp2.png,,,,,,,,,,,,,,,,,2,0,2,0,,,,,0,0,0,0,0,1,1,1,,,,,,,,,,,,,,,,,,,,,,910.9122662,,100.0,3.8757525000000896,"[(100.0, 3.8757525000000896)]",,,,100.0,,,,,,sub_672,2024-04-02_11h23.38.800,Reversal,2023.1.3,60.01017772613849,4,
,,,exp3.png,,,,,,,,,,,,,,,,,2,0,2,0,,,,,0,0,0,0,0,2,2,2,,,,,,,,,,,,,,,,,,,,,,916.1081321000001,,100.0,3.394253400000707,"[(100.0, 2.8273890000000392), (100.0, 3.394253400000707)]",100.0,,,,,,,,,sub_672,2024-04-02_11h23.38.800,Reversal,2023.1.3,60.01017772613849,4,
,,,exp4.png,,,,,,,,,,,,,,,,,2,0,2,0,,,,,0,0,0,0,0,3,3,3,,,,,,,,,,,,,,,,,,,,,,920.6568608999996,,None,None,[],,,,,,,,,,sub_672,2024-04-02_11h23.38.800,Reversal,2023.1.3,60.01017772613849,4,
,,,,,,,,,,,,,,,,,,,,,,,,,,,,,,,,,,,,,,,,,,,,,,,,,,,,,,,,65,,,,,,,,,,55,36,19,304.48669659999996,1,,,,,,,
