trial_index,trial_image1_file,trial_image2_file,image_file,learning_outer_loop.thisRepN,learning_outer_loop.thisTrialN,learning_outer_loop.thisN,learning_outer_loop.thisIndex,learning_inner_loop.thisRepN,learning_inner_loop.thisTrialN,learning_inner_loop.thisN,learning_inner_loop.thisIndex,learning_estimation_outer_loop.thisRepN,learning_estimation_outer_loop.thisTrialN,learning_estimation_outer_loop.thisN,learning_estimation_outer_loop.thisIndex,learning_estimation_inner_loop.thisRepN,learning_estimation_inner_loop.thisTrialN,learning_estimation_inner_loop.thisN,learning_estimation_inner_loop.thisIndex,reversal_outer_loop.thisRepN,reversal_outer_loop.thisTrialN,reversal_outer_loop.thisN,reversal_outer_loop.thisIndex,reversal_inner_loop.thisRepN,reversal_inner_loop.thisTrialN,reversal_inner_loop.thisN,reversal_inner_loop.thisIndex,reversal_estimation_outer_loop.thisRepN,reversal_estimation_outer_loop.thisTrialN,reversal_estimation_outer_loop.thisN,reversal_estimation_outer_loop.thisIndex,reversal_estimation_inner_loop.thisRepN,reversal_estimation_inner_loop.thisTrialN,reversal_estimation_inner_loop.thisN,reversal_estimation_inner_loop.thisIndex,skipped,total_trial_counter,trial_num,left_right_flip,left_image_file,right_image_file,clicked_stimulus_side,side,clicked_stimulus,version,high_prob_image_file,low_prob_image_file,choice_a,choice_b,pair_type,correct,trial_feedback_random,reward,trial_type,overall_time_after_trial,score,estimation_rating.started,estimation_rating.response,estimation_rating.rt,estimation_rating.history,estimation_exp2.png,estimation_exp4.png,estimation_exp1.png,estimation_exp3.png,total_learning_time,total_correct,learning_correct,reversal_correct,total_reversal_time,extra_block,participant,date,expName,psychopyVersion,frameRate,ver,
0,exp1.png,exp2.png,,0,0,0,0,0,0,0,0,,,,,,,,,,,,,,,,,,,,,,,,,False,0,1,True,exp2.png,exp1.png,trial_right_image,-1,exp1.png,3,exp2.png,exp1.png,0,4,reversed,incorrect,0.8296354270430486,0,valid_lose,11.951343400000042,0,,,,,,,,,,,,,,,sub_683,2024-05-05_11h02.27.433,Reversal,2023.1.3,60.279746246370124,3,
1,exp3.png,exp4.png,,0,0,0,0,0,1,1,1,,,,,,,,,,,,,,,,,,,,,,,,,False,1,2,True,exp4.png,exp3.png,trial_left_image,1,exp4.png,3,exp4.png,exp3.png,1,1,non-reversed,correct,0.572763747286944,1,valid_win,21.592161800000213,1,,,,,,,,,,,,,,,sub_683,2024-05-05_11h02.27.433,Reversal,2023.1.3,60.279746246370124,3,
2,exp1.png,exp2.png,,0,0,0,0,0,2,2,2,,,,,,,,,,,,,,,,,,,,,,,,,False,2,3,False,exp1.png,exp2.png,trial_left_image,1,exp1.png,3,exp2.png,exp1.png,0,4,reversed,incorrect,0.7526515254856854,0,valid_lose,29.123025100000632,1,,,,,,,,,,,,,,,sub_683,2024-05-05_11h02.27.433,Reversal,2023.1.3,60.279746246370124,3,
3,exp3.png,exp4.png,,0,0,0,0,0,3,3,3,,,,,,,,,,,,,,,,,,,,,,,,,False,3,4,True,exp4.png,exp3.png,trial_left_image,1,exp4.png,3,exp4.png,exp3.png,1,1,non-reversed,correct,0.15357419197375177,0,invalid_lose,38.93516980000004,1,,,,,,,,,,,,,,,sub_683,2024-05-05_11h02.27.433,Reversal,2023.1.3,60.279746246370124,3,
4,exp1.png,exp2.png,,0,0,0,0,0,4,4,4,,,,,,,,,,,,,,,,,,,,,,,,,False,4,5,False,exp1.png,exp2.png,trial_left_image,1,exp1.png,3,exp2.png,exp1.png,0,4,reversed,incorrect,0.27757333837428755,0,valid_lose,45.94974960000036,1,,,,,,,,,,,,,,,sub_683,2024-05-05_11h02.27.433,Reversal,2023.1.3,60.279746246370124,3,
5,exp3.png,exp4.png,,0,0,0,0,0,5,5,5,,,,,,,,,,,,,,,,,,,,,,,,,False,5,6,True,exp4.png,exp3.png,trial_right_image,-1,exp3.png,3,exp4.png,exp3.png,0,2,non-reversed,incorrect,0.31912119688382024,0,valid_lose,51.68150330000026,1,,,,,,,,,,,,,,,sub_683,2024-05-05_11h02.27.433,Reversal,2023.1.3,60.279746246370124,3,
6,exp1.png,exp2.png,,0,0,0,0,0,6,6,6,,,,,,,,,,,,,,,,,,,,,,,,,False,6,7,True,exp2.png,exp1.png,trial_right_image,-1,exp1.png,3,exp2.png,exp1.png,0,4,reversed,incorrect,0.7266248470784866,0,valid_lose,56.28004260000034,1,,,,,,,,,,,,,,,sub_683,2024-05-05_11h02.27.433,Reversal,2023.1.3,60.279746246370124,3,
7,exp3.png,exp4.png,,0,0,0,0,0,7,7,7,,,,,,,,,,,,,,,,,,,,,,,,,False,7,8,True,exp4.png,exp3.png,trial_left_image,1,exp4.png,3,exp4.png,exp3.png,1,1,non-reversed,correct,0.23717721558204286,0,invalid_lose,63.1445334,1,,,,,,,,,,,,,,,sub_683,2024-05-05_11h02.27.433,Reversal,2023.1.3,60.279746246370124,3,
8,exp1.png,exp2.png,,0,0,0,0,0,8,8,8,,,,,,,,,,,,,,,,,,,,,,,,,False,8,9,True,exp2.png,exp1.png,trial_left_image,1,exp2.png,3,exp2.png,exp1.png,1,3,reversed,correct,0.7595136961851635,1,valid_win,69.99188400000003,2,,,,,,,,,,,,,,,sub_683,2024-05-05_11h02.27.433,Reversal,2023.1.3,60.279746246370124,3,
9,exp3.png,exp4.png,,0,0,0,0,0,9,9,9,,,,,,,,,,,,,,,,,,,,,,,,,False,9,10,False,exp3.png,exp4.png,trial_right_image,-1,exp4.png,3,exp4.png,exp3.png,1,1,non-reversed,correct,0.6715249833521928,1,valid_win,76.37280570000075,3,,,,,,,,,,,,,,,sub_683,2024-05-05_11h02.27.433,Reversal,2023.1.3,60.279746246370124,3,
10,exp1.png,exp2.png,,0,0,0,0,0,10,10,10,,,,,,,,,,,,,,,,,,,,,,,,,False,10,11,False,exp1.png,exp2.png,trial_left_image,1,exp1.png,3,exp2.png,exp1.png,0,4,reversed,incorrect,0.0637444597129776,1,invalid_win,82.95396150000033,4,,,,,,,,,,,,,,,sub_683,2024-05-05_11h02.27.433,Reversal,2023.1.3,60.279746246370124,3,
11,exp3.png,exp4.png,,0,0,0,0,0,11,11,11,,,,,,,,,,,,,,,,,,,,,,,,,False,11,12,True,exp4.png,exp3.png,trial_left_image,1,exp4.png,3,exp4.png,exp3.png,1,1,non-reversed,correct,0.5097748824731484,1,valid_win,91.05122410000058,5,,,,,,,,,,,,,,,sub_683,2024-05-05_11h02.27.433,Reversal,2023.1.3,60.279746246370124,3,
12,exp1.png,exp2.png,,0,0,0,0,0,12,12,12,,,,,,,,,,,,,,,,,,,,,,,,,False,12,13,True,exp2.png,exp1.png,trial_right_image,-1,exp1.png,3,exp2.png,exp1.png,0,4,reversed,incorrect,0.4877597184401604,0,valid_lose,96.33352640000066,5,,,,,,,,,,,,,,,sub_683,2024-05-05_11h02.27.433,Reversal,2023.1.3,60.279746246370124,3,
13,exp3.png,exp4.png,,0,0,0,0,0,13,13,13,,,,,,,,,,,,,,,,,,,,,,,,,False,13,14,False,exp3.png,exp4.png,trial_right_image,-1,exp4.png,3,exp4.png,exp3.png,1,1,non-reversed,correct,0.8386501513909805,1,valid_win,101.26437960000021,6,,,,,,,,,,,,,,,sub_683,2024-05-05_11h02.27.433,Reversal,2023.1.3,60.279746246370124,3,
14,exp1.png,exp2.png,,0,0,0,0,0,14,14,14,,,,,,,,,,,,,,,,,,,,,,,,,False,14,15,False,exp1.png,exp2.png,trial_left_image,1,exp1.png,3,exp2.png,exp1.png,0,4,reversed,incorrect,0.2917866978513681,0,valid_lose,110.26188850000017,6,,,,,,,,,,,,,,,sub_683,2024-05-05_11h02.27.433,Reversal,2023.1.3,60.279746246370124,3,
15,exp3.png,exp4.png,,0,0,0,0,0,15,15,15,,,,,,,,,,,,,,,,,,,,,,,,,False,15,16,False,exp3.png,exp4.png,trial_left_image,1,exp3.png,3,exp4.png,exp3.png,0,2,non-reversed,incorrect,0.24436589261392383,1,invalid_win,115.45977050000056,7,,,,,,,,,,,,,,,sub_683,2024-05-05_11h02.27.433,Reversal,2023.1.3,60.279746246370124,3,
16,exp1.png,exp2.png,,0,0,0,0,0,16,16,16,,,,,,,,,,,,,,,,,,,,,,,,,False,16,17,False,exp1.png,exp2.png,trial_right_image,-1,exp2.png,3,exp2.png,exp1.png,1,3,reversed,correct,0.781334382604945,1,valid_win,121.25748340000064,8,,,,,,,,,,,,,,,sub_683,2024-05-05_11h02.27.433,Reversal,2023.1.3,60.279746246370124,3,
17,exp3.png,exp4.png,,0,0,0,0,0,17,17,17,,,,,,,,,,,,,,,,,,,,,,,,,False,17,18,True,exp4.png,exp3.png,trial_right_image,-1,exp3.png,3,exp4.png,exp3.png,0,2,non-reversed,incorrect,0.02879015312879507,1,invalid_win,126.37248210000052,9,,,,,,,,,,,,,,,sub_683,2024-05-05_11h02.27.433,Reversal,2023.1.3,60.279746246370124,3,
18,exp1.png,exp2.png,,0,0,0,0,0,18,18,18,,,,,,,,,,,,,,,,,,,,,,,,,False,18,19,False,exp1.png,exp2.png,trial_left_image,1,exp1.png,3,exp2.png,exp1.png,0,4,reversed,incorrect,0.818045927297339,0,valid_lose,131.18754660000013,9,,,,,,,,,,,,,,,sub_683,2024-05-05_11h02.27.433,Reversal,2023.1.3,60.279746246370124,3,
19,exp3.png,exp4.png,,0,0,0,0,0,19,19,19,,,,,,,,,,,,,,,,,,,,,,,,,False,19,20,False,exp3.png,exp4.png,trial_left_image,1,exp3.png,3,exp4.png,exp3.png,0,2,non-reversed,incorrect,0.28342995636140367,0,valid_lose,136.51910680000037,9,,,,,,,,,,,,,,,sub_683,2024-05-05_11h02.27.433,Reversal,2023.1.3,60.279746246370124,3,
20,exp1.png,exp2.png,,0,0,0,0,0,20,20,20,,,,,,,,,,,,,,,,,,,,,,,,,True,,,,,,,,,,,,,,,,,,,,,,,,,,,,,,,,,,,sub_683,2024-05-05_11h02.27.433,Reversal,2023.1.3,60.279746246370124,3,
,,,exp1.png,0,0,0,0,,,,,0,0,0,0,0,0,0,0,,,,,,,,,,,,,,,,,,,,,,,,,,,,,,,,,,,,,,340.44327760000033,None,None,[],,,,,,,,,,,sub_683,2024-05-05_11h02.27.433,Reversal,2023.1.3,60.279746246370124,3,
,,,exp2.png,0,0,0,0,,,,,0,0,0,0,0,1,1,1,,,,,,,,,,,,,,,,,,,,,,,,,,,,,,,,,,,,,,353.49805060000017,51.0,5.354923300000337,"[(52.0, 3.1059000000004744), (51.0, 5.354923300000337)]",51.0,,,,,,,,,,sub_683,2024-05-05_11h02.27.433,Reversal,2023.1.3,60.279746246370124,3,
,,,exp3.png,0,0,0,0,,,,,0,0,0,0,0,2,2,2,,,,,,,,,,,,,,,,,,,,,,,,,,,,,,,,,,,,,,360.0737465000002,None,None,[],,,,,,,,,,,sub_683,2024-05-05_11h02.27.433,Reversal,2023.1.3,60.279746246370124,3,
,,,exp4.png,0,0,0,0,,,,,0,0,0,0,0,3,3,3,,,,,,,,,,,,,,,,,,,,,,,,,,,,,,,,,,,,,,362.50700010000037,70.0,6.959259100000054,"[(70.0, 6.959259100000054)]",,70.0,,,,,,,,,sub_683,2024-05-05_11h02.27.433,Reversal,2023.1.3,60.279746246370124,3,
0,exp1.png,exp2.png,,1,0,1,0,0,0,0,0,,,,,,,,,,,,,,,,,,,,,,,,,False,20,21,False,exp1.png,exp2.png,trial_right_image,-1,exp2.png,3,exp2.png,exp1.png,1,3,reversed,correct,0.755487885924633,1,valid_win,174.63956080000025,10,,,,,,,,,,,,,,,sub_683,2024-05-05_11h02.27.433,Reversal,2023.1.3,60.279746246370124,3,
1,exp3.png,exp4.png,,1,0,1,0,0,1,1,1,,,,,,,,,,,,,,,,,,,,,,,,,False,21,22,True,exp4.png,exp3.png,trial_right_image,-1,exp3.png,3,exp4.png,exp3.png,0,2,non-reversed,incorrect,0.030401333722382295,1,invalid_win,182.67085399999996,11,,,,,,,,,,,,,,,sub_683,2024-05-05_11h02.27.433,Reversal,2023.1.3,60.279746246370124,3,
2,exp1.png,exp2.png,,1,0,1,0,0,2,2,2,,,,,,,,,,,,,,,,,,,,,,,,,False,22,23,True,exp2.png,exp1.png,trial_right_image,-1,exp1.png,3,exp2.png,exp1.png,0,4,reversed,incorrect,0.3382423110823456,0,valid_lose,189.36778330000016,11,,,,,,,,,,,,,,,sub_683,2024-05-05_11h02.27.433,Reversal,2023.1.3,60.279746246370124,3,
3,exp3.png,exp4.png,,1,0,1,0,0,3,3,3,,,,,,,,,,,,,,,,,,,,,,,,,False,23,24,False,exp3.png,exp4.png,trial_left_image,1,exp3.png,3,exp4.png,exp3.png,0,2,non-reversed,incorrect,0.4580749897447699,0,valid_lose,195.83255009999993,11,,,,,,,,,,,,,,,sub_683,2024-05-05_11h02.27.433,Reversal,2023.1.3,60.279746246370124,3,
4,exp1.png,exp2.png,,1,0,1,0,0,4,4,4,,,,,,,,,,,,,,,,,,,,,,,,,False,24,25,True,exp2.png,exp1.png,trial_left_image,1,exp2.png,3,exp2.png,exp1.png,1,3,reversed,correct,0.3326315759156543,1,valid_win,202.38024170000062,12,,,,,,,,,,,,,,,sub_683,2024-05-05_11h02.27.433,Reversal,2023.1.3,60.279746246370124,3,
5,exp3.png,exp4.png,,1,0,1,0,0,5,5,5,,,,,,,,,,,,,,,,,,,,,,,,,False,25,26,True,exp4.png,exp3.png,trial_left_image,1,exp4.png,3,exp4.png,exp3.png,1,1,non-reversed,correct,0.5463927538506363,1,valid_win,206.99491390000003,13,,,,,,,,,,,,,,,sub_683,2024-05-05_11h02.27.433,Reversal,2023.1.3,60.279746246370124,3,
6,exp1.png,exp2.png,,1,0,1,0,0,6,6,6,,,,,,,,,,,,,,,,,,,,,,,,,False,26,27,False,exp1.png,exp2.png,trial_right_image,-1,exp2.png,3,exp2.png,exp1.png,1,3,reversed,correct,0.44357058565921503,1,valid_win,211.64330810000047,14,,,,,,,,,,,,,,,sub_683,2024-05-05_11h02.27.433,Reversal,2023.1.3,60.279746246370124,3,
7,exp3.png,exp4.png,,1,0,1,0,0,7,7,7,,,,,,,,,,,,,,,,,,,,,,,,,False,27,28,False,exp3.png,exp4.png,trial_right_image,-1,exp4.png,3,exp4.png,exp3.png,1,1,non-reversed,correct,0.19807397712308072,0,invalid_lose,216.2422421000001,14,,,,,,,,,,,,,,,sub_683,2024-05-05_11h02.27.433,Reversal,2023.1.3,60.279746246370124,3,
8,exp1.png,exp2.png,,1,0,1,0,0,8,8,8,,,,,,,,,,,,,,,,,,,,,,,,,False,28,29,False,exp1.png,exp2.png,trial_left_image,1,exp1.png,3,exp2.png,exp1.png,0,4,reversed,incorrect,0.5498653322351527,0,valid_lose,222.1403162000006,14,,,,,,,,,,,,,,,sub_683,2024-05-05_11h02.27.433,Reversal,2023.1.3,60.279746246370124,3,
9,exp3.png,exp4.png,,1,0,1,0,0,9,9,9,,,,,,,,,,,,,,,,,,,,,,,,,False,29,30,True,exp4.png,exp3.png,trial_left_image,1,exp4.png,3,exp4.png,exp3.png,1,1,non-reversed,correct,0.33815656250387405,1,valid_win,227.53825730000062,15,,,,,,,,,,,,,,,sub_683,2024-05-05_11h02.27.433,Reversal,2023.1.3,60.279746246370124,3,
10,exp1.png,exp2.png,,1,0,1,0,0,10,10,10,,,,,,,,,,,,,,,,,,,,,,,,,False,30,31,False,exp1.png,exp2.png,trial_left_image,1,exp1.png,3,exp2.png,exp1.png,0,4,reversed,incorrect,0.5352685559161885,0,valid_lose,234.15250510000078,15,,,,,,,,,,,,,,,sub_683,2024-05-05_11h02.27.433,Reversal,2023.1.3,60.279746246370124,3,
11,exp3.png,exp4.png,,1,0,1,0,0,11,11,11,,,,,,,,,,,,,,,,,,,,,,,,,False,31,32,True,exp4.png,exp3.png,trial_right_image,-1,exp3.png,3,exp4.png,exp3.png,0,2,non-reversed,incorrect,0.0055202438823767075,1,invalid_win,239.63429990000077,16,,,,,,,,,,,,,,,sub_683,2024-05-05_11h02.27.433,Reversal,2023.1.3,60.279746246370124,3,
12,exp1.png,exp2.png,,1,0,1,0,0,12,12,12,,,,,,,,,,,,,,,,,,,,,,,,,False,32,33,False,exp1.png,exp2.png,trial_right_image,-1,exp2.png,3,exp2.png,exp1.png,1,3,reversed,correct,0.0365717504737344,0,invalid_lose,245.21577500000058,16,,,,,,,,,,,,,,,sub_683,2024-05-05_11h02.27.433,Reversal,2023.1.3,60.279746246370124,3,
13,exp3.png,exp4.png,,1,0,1,0,0,13,13,13,,,,,,,,,,,,,,,,,,,,,,,,,False,33,34,True,exp4.png,exp3.png,trial_left_image,1,exp4.png,3,exp4.png,exp3.png,1,1,non-reversed,correct,0.48077920665859686,1,valid_win,251.72978930000045,17,,,,,,,,,,,,,,,sub_683,2024-05-05_11h02.27.433,Reversal,2023.1.3,60.279746246370124,3,
14,exp1.png,exp2.png,,1,0,1,0,0,14,14,14,,,,,,,,,,,,,,,,,,,,,,,,,False,34,35,False,exp1.png,exp2.png,trial_left_image,1,exp1.png,3,exp2.png,exp1.png,0,4,reversed,incorrect,0.6216743330702066,0,valid_lose,262.17643410000073,17,,,,,,,,,,,,,,,sub_683,2024-05-05_11h02.27.433,Reversal,2023.1.3,60.279746246370124,3,
15,exp3.png,exp4.png,,1,0,1,0,0,15,15,15,,,,,,,,,,,,,,,,,,,,,,,,,False,35,36,True,exp4.png,exp3.png,trial_left_image,1,exp4.png,3,exp4.png,exp3.png,1,1,non-reversed,correct,0.04164137215096686,0,invalid_lose,270.74051640000016,17,,,,,,,,,,,,,,,sub_683,2024-05-05_11h02.27.433,Reversal,2023.1.3,60.279746246370124,3,
16,exp1.png,exp2.png,,1,0,1,0,0,16,16,16,,,,,,,,,,,,,,,,,,,,,,,,,False,36,37,False,exp1.png,exp2.png,trial_right_image,-1,exp2.png,3,exp2.png,exp1.png,1,3,reversed,correct,0.8920156117278893,1,valid_win,275.5216110000001,18,,,,,,,,,,,,,,,sub_683,2024-05-05_11h02.27.433,Reversal,2023.1.3,60.279746246370124,3,
17,exp3.png,exp4.png,,1,0,1,0,0,17,17,17,,,,,,,,,,,,,,,,,,,,,,,,,False,37,38,True,exp4.png,exp3.png,trial_right_image,-1,exp3.png,3,exp4.png,exp3.png,0,2,non-reversed,incorrect,0.6622022004462288,0,valid_lose,280.72003570000015,18,,,,,,,,,,,,,,,sub_683,2024-05-05_11h02.27.433,Reversal,2023.1.3,60.279746246370124,3,
18,exp1.png,exp2.png,,1,0,1,0,0,18,18,18,,,,,,,,,,,,,,,,,,,,,,,,,False,38,39,False,exp1.png,exp2.png,trial_left_image,1,exp1.png,3,exp2.png,exp1.png,0,4,reversed,incorrect,0.10313558402874456,1,invalid_win,285.80159020000065,19,,,,,,,,,,,,,,,sub_683,2024-05-05_11h02.27.433,Reversal,2023.1.3,60.279746246370124,3,
19,exp3.png,exp4.png,,1,0,1,0,0,19,19,19,,,,,,,,,,,,,,,,,,,,,,,,,False,39,40,True,exp4.png,exp3.png,trial_left_image,1,exp4.png,3,exp4.png,exp3.png,1,1,non-reversed,correct,0.410813329729129,1,valid_win,290.41698369999995,20,,,,,,,,,,,,,,,sub_683,2024-05-05_11h02.27.433,Reversal,2023.1.3,60.279746246370124,3,
20,exp1.png,exp2.png,,1,0,1,0,0,20,20,20,,,,,,,,,,,,,,,,,,,,,,,,,True,,,,,,,,,,,,,,,,,,,,,,,,,,,,,,,,,,,sub_683,2024-05-05_11h02.27.433,Reversal,2023.1.3,60.279746246370124,3,
,,,exp1.png,1,0,1,0,,,,,0,0,0,0,0,0,0,0,,,,,,,,,,,,,,,,,,,,,,,,,,,,,,,,,,,,,,494.2961428000008,56.0,3.615655599999627,"[(56.0, 3.615655599999627)]",,,56.0,,,,,,,,sub_683,2024-05-05_11h02.27.433,Reversal,2023.1.3,60.279746246370124,3,
,,,exp2.png,1,0,1,0,,,,,0,0,0,0,0,1,1,1,,,,,,,,,,,,,,,,,,,,,,,,,,,,,,,,,,,,,,499.1937123000007,None,None,[],,,,,,,,,,,sub_683,2024-05-05_11h02.27.433,Reversal,2023.1.3,60.279746246370124,3,
,,,exp3.png,1,0,1,0,,,,,0,0,0,0,0,2,2,2,,,,,,,,,,,,,,,,,,,,,,,,,,,,,,,,,,,,,,501.6604629000003,55.0,1.9106682000001456,"[(55.0, 1.9106682000001456)]",,,,55.0,,,,,,,sub_683,2024-05-05_11h02.27.433,Reversal,2023.1.3,60.279746246370124,3,
,,,exp4.png,1,0,1,0,,,,,0,0,0,0,0,3,3,3,,,,,,,,,,,,,,,,,,,,,,,,,,,,,,,,,,,,,,504.5253609000001,None,None,[],,,,,,,,,,,sub_683,2024-05-05_11h02.27.433,Reversal,2023.1.3,60.279746246370124,3,
0,exp1.png,exp2.png,,2,0,2,0,0,0,0,0,,,,,,,,,,,,,,,,,,,,,,,,,False,40,41,False,exp1.png,exp2.png,trial_left_image,1,exp1.png,3,exp2.png,exp1.png,0,4,reversed,incorrect,0.8762885687024862,0,valid_lose,309.2275797000002,20,,,,,,,,,,,,,,,sub_683,2024-05-05_11h02.27.433,Reversal,2023.1.3,60.279746246370124,3,
1,exp3.png,exp4.png,,2,0,2,0,0,1,1,1,,,,,,,,,,,,,,,,,,,,,,,,,False,41,42,False,exp3.png,exp4.png,trial_right_image,-1,exp4.png,3,exp4.png,exp3.png,1,1,non-reversed,correct,0.3732273380772523,1,valid_win,313.6256843000001,21,,,,,,,,,,,,,,,sub_683,2024-05-05_11h02.27.433,Reversal,2023.1.3,60.279746246370124,3,
2,exp1.png,exp2.png,,2,0,2,0,0,2,2,2,,,,,,,,,,,,,,,,,,,,,,,,,False,42,43,True,exp2.png,exp1.png,trial_right_image,-1,exp1.png,3,exp2.png,exp1.png,0,4,reversed,incorrect,0.8693696159774017,0,valid_lose,318.9237266,21,,,,,,,,,,,,,,,sub_683,2024-05-05_11h02.27.433,Reversal,2023.1.3,60.279746246370124,3,
3,exp3.png,exp4.png,,2,0,2,0,0,3,3,3,,,,,,,,,,,,,,,,,,,,,,,,,False,43,44,True,exp4.png,exp3.png,trial_left_image,1,exp4.png,3,exp4.png,exp3.png,1,1,non-reversed,correct,0.8519979415797491,1,valid_win,324.10525120000057,22,,,,,,,,,,,,,,,sub_683,2024-05-05_11h02.27.433,Reversal,2023.1.3,60.279746246370124,3,
4,exp1.png,exp2.png,,2,0,2,0,0,4,4,4,,,,,,,,,,,,,,,,,,,,,,,,,False,44,45,False,exp1.png,exp2.png,trial_left_image,1,exp1.png,3,exp2.png,exp1.png,0,4,reversed,incorrect,0.8345972773480228,0,valid_lose,330.25338360000023,22,,,,,,,,,,,,,,,sub_683,2024-05-05_11h02.27.433,Reversal,2023.1.3,60.279746246370124,3,
5,exp3.png,exp4.png,,2,0,2,0,0,5,5,5,,,,,,,,,,,,,,,,,,,,,,,,,False,45,46,False,exp3.png,exp4.png,trial_right_image,-1,exp4.png,3,exp4.png,exp3.png,1,1,non-reversed,correct,0.3936760801736202,1,valid_win,334.43561339999997,23,,,,,,,,,,,,,,,sub_683,2024-05-05_11h02.27.433,Reversal,2023.1.3,60.279746246370124,3,
6,exp1.png,exp2.png,,2,0,2,0,0,6,6,6,,,,,,,,,,,,,,,,,,,,,,,,,False,46,47,True,exp2.png,exp1.png,trial_right_image,-1,exp1.png,3,exp2.png,exp1.png,0,4,reversed,incorrect,0.08693327560058295,1,invalid_win,339.94991970000046,24,,,,,,,,,,,,,,,sub_683,2024-05-05_11h02.27.433,Reversal,2023.1.3,60.279746246370124,3,
7,exp3.png,exp4.png,,2,0,2,0,0,7,7,7,,,,,,,,,,,,,,,,,,,,,,,,,False,47,48,False,exp3.png,exp4.png,trial_right_image,-1,exp4.png,3,exp4.png,exp3.png,1,1,non-reversed,correct,0.4188374999080937,1,valid_win,346.3980988000003,25,,,,,,,,,,,,,,,sub_683,2024-05-05_11h02.27.433,Reversal,2023.1.3,60.279746246370124,3,
8,exp1.png,exp2.png,,2,0,2,0,0,8,8,8,,,,,,,,,,,,,,,,,,,,,,,,,False,48,49,False,exp1.png,exp2.png,trial_left_image,1,exp1.png,3,exp2.png,exp1.png,0,4,reversed,incorrect,0.8150126533187716,0,valid_lose,352.21282410000003,25,,,,,,,,,,,,,,,sub_683,2024-05-05_11h02.27.433,Reversal,2023.1.3,60.279746246370124,3,
9,exp3.png,exp4.png,,2,0,2,0,0,9,9,9,,,,,,,,,,,,,,,,,,,,,,,,,False,49,50,True,exp4.png,exp3.png,trial_right_image,-1,exp3.png,3,exp4.png,exp3.png,0,2,non-reversed,incorrect,0.4723202214856591,0,valid_lose,356.82776250000006,25,,,,,,,,,,,,,,,sub_683,2024-05-05_11h02.27.433,Reversal,2023.1.3,60.279746246370124,3,
10,exp1.png,exp2.png,,2,0,2,0,0,10,10,10,,,,,,,,,,,,,,,,,,,,,,,,,False,50,51,False,exp1.png,exp2.png,trial_left_image,1,exp1.png,3,exp2.png,exp1.png,0,4,reversed,incorrect,0.5075844299902965,0,valid_lose,361.8760957000004,25,,,,,,,,,,,,,,,sub_683,2024-05-05_11h02.27.433,Reversal,2023.1.3,60.279746246370124,3,
11,exp3.png,exp4.png,,2,0,2,0,0,11,11,11,,,,,,,,,,,,,,,,,,,,,,,,,False,51,52,True,exp4.png,exp3.png,trial_right_image,-1,exp3.png,3,exp4.png,exp3.png,0,2,non-reversed,incorrect,0.6518963962290248,0,valid_lose,368.2574795999999,25,,,,,,,,,,,,,,,sub_683,2024-05-05_11h02.27.433,Reversal,2023.1.3,60.279746246370124,3,
12,exp1.png,exp2.png,,2,0,2,0,0,12,12,12,,,,,,,,,,,,,,,,,,,,,,,,,False,52,53,True,exp2.png,exp1.png,trial_left_image,1,exp2.png,3,exp2.png,exp1.png,1,3,reversed,correct,0.8590806126936449,1,valid_win,374.9047638000002,26,,,,,,,,,,,,,,,sub_683,2024-05-05_11h02.27.433,Reversal,2023.1.3,60.279746246370124,3,
13,exp3.png,exp4.png,,2,0,2,0,0,13,13,13,,,,,,,,,,,,,,,,,,,,,,,,,False,53,54,False,exp3.png,exp4.png,trial_left_image,1,exp3.png,3,exp4.png,exp3.png,0,2,non-reversed,incorrect,0.020826754853169427,1,invalid_win,382.2355247000005,27,,,,,,,,,,,,,,,sub_683,2024-05-05_11h02.27.433,Reversal,2023.1.3,60.279746246370124,3,
14,exp1.png,exp2.png,,2,0,2,0,0,14,14,14,,,,,,,,,,,,,,,,,,,,,,,,,False,54,55,False,exp1.png,exp2.png,trial_left_image,1,exp1.png,3,exp2.png,exp1.png,0,4,reversed,incorrect,0.08855674897983845,1,invalid_win,387.40064260000054,28,,,,,,,,,,,,,,,sub_683,2024-05-05_11h02.27.433,Reversal,2023.1.3,60.279746246370124,3,
15,exp3.png,exp4.png,,2,0,2,0,0,15,15,15,,,,,,,,,,,,,,,,,,,,,,,,,False,55,56,True,exp4.png,exp3.png,trial_left_image,1,exp4.png,3,exp4.png,exp3.png,1,1,non-reversed,correct,0.7489072329086398,1,valid_win,392.2324066000001,29,,,,,,,,,,,,,,,sub_683,2024-05-05_11h02.27.433,Reversal,2023.1.3,60.279746246370124,3,
16,exp1.png,exp2.png,,2,0,2,0,0,16,16,16,,,,,,,,,,,,,,,,,,,,,,,,,False,56,57,True,exp2.png,exp1.png,trial_left_image,1,exp2.png,3,exp2.png,exp1.png,1,3,reversed,correct,0.19494477142451927,0,invalid_lose,398.1968661000001,29,,,,,,,,,,,,,,,sub_683,2024-05-05_11h02.27.433,Reversal,2023.1.3,60.279746246370124,3,
17,exp3.png,exp4.png,,2,0,2,0,0,17,17,17,,,,,,,,,,,,,,,,,,,,,,,,,False,57,58,False,exp3.png,exp4.png,trial_right_image,-1,exp4.png,3,exp4.png,exp3.png,1,1,non-reversed,correct,0.22629350841779738,0,invalid_lose,403.0950620000003,29,,,,,,,,,,,,,,,sub_683,2024-05-05_11h02.27.433,Reversal,2023.1.3,60.279746246370124,3,
18,exp1.png,exp2.png,,2,0,2,0,0,18,18,18,,,,,,,,,,,,,,,,,,,,,,,,,False,58,59,True,exp2.png,exp1.png,trial_right_image,-1,exp1.png,3,exp2.png,exp1.png,0,4,reversed,incorrect,0.018088949975699764,1,invalid_win,412.4594858999999,30,,,,,,,,,,,,,,,sub_683,2024-05-05_11h02.27.433,Reversal,2023.1.3,60.279746246370124,3,
19,exp3.png,exp4.png,,2,0,2,0,0,19,19,19,,,,,,,,,,,,,,,,,,,,,,,,,False,59,60,True,exp4.png,exp3.png,trial_right_image,-1,exp3.png,3,exp4.png,exp3.png,0,2,non-reversed,incorrect,0.1727746482533753,1,invalid_win,419.25624620000053,31,,,,,,,,,,,,,,,sub_683,2024-05-05_11h02.27.433,Reversal,2023.1.3,60.279746246370124,3,
20,exp1.png,exp2.png,,2,0,2,0,0,20,20,20,,,,,,,,,,,,,,,,,,,,,,,,,True,,,,,,,,,,,,,,,,,,,,,,,,,,,,,,,,,,,sub_683,2024-05-05_11h02.27.433,Reversal,2023.1.3,60.279746246370124,3,
,,,exp1.png,2,0,2,0,,,,,0,0,0,0,0,0,0,0,,,,,,,,,,,,,,,,,,,,,,,,,,,,,,,,,,,,,,623.1442199000003,58.0,2.673779700000523,"[(58.0, 2.673779700000523)]",,,58.0,,,,,,,,sub_683,2024-05-05_11h02.27.433,Reversal,2023.1.3,60.279746246370124,3,
,,,exp2.png,2,0,2,0,,,,,0,0,0,0,0,1,1,1,,,,,,,,,,,,,,,,,,,,,,,,,,,,,,,,,,,,,,626.8833756000004,None,None,[],,,,,,,,,,,sub_683,2024-05-05_11h02.27.433,Reversal,2023.1.3,60.279746246370124,3,
,,,exp3.png,2,0,2,0,,,,,0,0,0,0,0,2,2,2,,,,,,,,,,,,,,,,,,,,,,,,,,,,,,,,,,,,,,629.5836380000001,56.0,1.8945346000000427,"[(56.0, 1.8945346000000427)]",,,,56.0,,,,,,,sub_683,2024-05-05_11h02.27.433,Reversal,2023.1.3,60.279746246370124,3,
,,,exp4.png,2,0,2,0,,,,,0,0,0,0,0,3,3,3,,,,,,,,,,,,,,,,,,,,,,,,,,,,,,,,,,,,,,632.4816828000003,55.0,1.7274202999997215,"[(55.0, 1.7274202999997215)]",,55.0,,,,,,,,,sub_683,2024-05-05_11h02.27.433,Reversal,2023.1.3,60.279746246370124,3,
0,exp1.png,exp2.png,,3,0,3,0,0,0,0,0,,,,,,,,,,,,,,,,,,,,,,,,,False,60,61,True,exp2.png,exp1.png,trial_left_image,1,exp2.png,3,exp2.png,exp1.png,1,3,reversed,correct,0.9247501647235424,1,valid_win,439.58277720000024,32,,,,,,,,,,,,,,,sub_683,2024-05-05_11h02.27.433,Reversal,2023.1.3,60.279746246370124,3,
1,exp3.png,exp4.png,,3,0,3,0,0,1,1,1,,,,,,,,,,,,,,,,,,,,,,,,,False,61,62,True,exp4.png,exp3.png,trial_left_image,1,exp4.png,3,exp4.png,exp3.png,1,1,non-reversed,correct,0.5447396484387542,1,valid_win,444.63092060000054,33,,,,,,,,,,,,,,,sub_683,2024-05-05_11h02.27.433,Reversal,2023.1.3,60.279746246370124,3,
2,exp1.png,exp2.png,,3,0,3,0,0,2,2,2,,,,,,,,,,,,,,,,,,,,,,,,,False,62,63,True,exp2.png,exp1.png,trial_left_image,1,exp2.png,3,exp2.png,exp1.png,1,3,reversed,correct,0.9406475340763801,1,valid_win,449.82960550000007,34,,,,,,,,,,,,,,,sub_683,2024-05-05_11h02.27.433,Reversal,2023.1.3,60.279746246370124,3,
3,exp3.png,exp4.png,,3,0,3,0,0,3,3,3,,,,,,,,,,,,,,,,,,,,,,,,,False,63,64,False,exp3.png,exp4.png,trial_right_image,-1,exp4.png,3,exp4.png,exp3.png,1,1,non-reversed,correct,0.9217993573542205,1,valid_win,455.6609004000002,35,,,,,,,,,,,,,,,sub_683,2024-05-05_11h02.27.433,Reversal,2023.1.3,60.279746246370124,3,
4,exp1.png,exp2.png,,3,0,3,0,0,4,4,4,,,,,,,,,,,,,,,,,,,,,,,,,False,64,65,True,exp2.png,exp1.png,trial_right_image,-1,exp1.png,3,exp2.png,exp1.png,0,4,reversed,incorrect,0.856173979739642,0,valid_lose,462.9580321000003,35,,,,,,,,,,,,,,,sub_683,2024-05-05_11h02.27.433,Reversal,2023.1.3,60.279746246370124,3,
5,exp3.png,exp4.png,,3,0,3,0,0,5,5,5,,,,,,,,,,,,,,,,,,,,,,,,,False,65,66,False,exp3.png,exp4.png,trial_right_image,-1,exp4.png,3,exp4.png,exp3.png,1,1,non-reversed,correct,0.46548540853972364,1,valid_win,468.4561647999999,36,,,,,,,,,,,,,,,sub_683,2024-05-05_11h02.27.433,Reversal,2023.1.3,60.279746246370124,3,
6,exp1.png,exp2.png,,3,0,3,0,0,6,6,6,,,,,,,,,,,,,,,,,,,,,,,,,False,66,67,False,exp1.png,exp2.png,trial_right_image,-1,exp2.png,3,exp2.png,exp1.png,1,3,reversed,correct,0.15345031308284784,0,invalid_lose,473.68762510000033,36,,,,,,,,,,,,,,,sub_683,2024-05-05_11h02.27.433,Reversal,2023.1.3,60.279746246370124,3,
7,exp3.png,exp4.png,,3,0,3,0,0,7,7,7,,,,,,,,,,,,,,,,,,,,,,,,,False,67,68,True,exp4.png,exp3.png,trial_left_image,1,exp4.png,3,exp4.png,exp3.png,1,1,non-reversed,correct,0.13137236559843635,0,invalid_lose,479.68629730000066,36,,,,,,,,,,,,,,,sub_683,2024-05-05_11h02.27.433,Reversal,2023.1.3,60.279746246370124,3,
8,exp1.png,exp2.png,,3,0,3,0,0,8,8,8,,,,,,,,,,,,,,,,,,,,,,,,,False,68,69,True,exp2.png,exp1.png,trial_right_image,-1,exp1.png,3,exp2.png,exp1.png,0,4,reversed,incorrect,0.21503007398955343,1,invalid_win,485.4173854999999,37,,,,,,,,,,,,,,,sub_683,2024-05-05_11h02.27.433,Reversal,2023.1.3,60.279746246370124,3,
9,exp3.png,exp4.png,,3,0,3,0,0,9,9,9,,,,,,,,,,,,,,,,,,,,,,,,,False,69,70,True,exp4.png,exp3.png,trial_right_image,-1,exp3.png,3,exp4.png,exp3.png,0,2,non-reversed,incorrect,0.898985616572862,0,valid_lose,494.01454600000034,37,,,,,,,,,,,,,,,sub_683,2024-05-05_11h02.27.433,Reversal,2023.1.3,60.279746246370124,3,
10,exp1.png,exp2.png,,3,0,3,0,0,10,10,10,,,,,,,,,,,,,,,,,,,,,,,,,False,70,71,False,exp1.png,exp2.png,trial_left_image,1,exp1.png,3,exp2.png,exp1.png,0,4,reversed,incorrect,0.04430387571471517,1,invalid_win,499.19613860000027,38,,,,,,,,,,,,,,,sub_683,2024-05-05_11h02.27.433,Reversal,2023.1.3,60.279746246370124,3,
11,exp3.png,exp4.png,,3,0,3,0,0,11,11,11,,,,,,,,,,,,,,,,,,,,,,,,,False,71,72,True,exp4.png,exp3.png,trial_left_image,1,exp4.png,3,exp4.png,exp3.png,1,1,non-reversed,correct,0.24073146219528707,0,invalid_lose,506.1935954999999,38,,,,,,,,,,,,,,,sub_683,2024-05-05_11h02.27.433,Reversal,2023.1.3,60.279746246370124,3,
12,exp1.png,exp2.png,,3,0,3,0,0,12,12,12,,,,,,,,,,,,,,,,,,,,,,,,,False,72,73,False,exp1.png,exp2.png,trial_right_image,-1,exp2.png,3,exp2.png,exp1.png,1,3,reversed,correct,0.8270030457372709,1,valid_win,512.5080233000008,39,,,,,,,,,,,,,,,sub_683,2024-05-05_11h02.27.433,Reversal,2023.1.3,60.279746246370124,3,
13,exp3.png,exp4.png,,3,0,3,0,0,13,13,13,,,,,,,,,,,,,,,,,,,,,,,,,False,73,74,False,exp3.png,exp4.png,trial_right_image,-1,exp4.png,3,exp4.png,exp3.png,1,1,non-reversed,correct,0.5665623417066084,1,valid_win,523.1209701000007,40,,,,,,,,,,,,,,,sub_683,2024-05-05_11h02.27.433,Reversal,2023.1.3,60.279746246370124,3,
14,exp1.png,exp2.png,,3,0,3,0,0,14,14,14,,,,,,,,,,,,,,,,,,,,,,,,,False,74,75,False,exp1.png,exp2.png,trial_right_image,-1,exp2.png,3,exp2.png,exp1.png,1,3,reversed,correct,0.9797327697375857,1,valid_win,527.8362362000007,41,,,,,,,,,,,,,,,sub_683,2024-05-05_11h02.27.433,Reversal,2023.1.3,60.279746246370124,3,
15,exp3.png,exp4.png,,3,0,3,0,0,15,15,15,,,,,,,,,,,,,,,,,,,,,,,,,False,75,76,False,exp3.png,exp4.png,trial_right_image,-1,exp4.png,3,exp4.png,exp3.png,1,1,non-reversed,correct,0.7645119937668698,1,valid_win,533.7845078,42,,,,,,,,,,,,,,,sub_683,2024-05-05_11h02.27.433,Reversal,2023.1.3,60.279746246370124,3,
16,exp1.png,exp2.png,,3,0,3,0,0,16,16,16,,,,,,,,,,,,,,,,,,,,,,,,,False,76,77,True,exp2.png,exp1.png,trial_left_image,1,exp2.png,3,exp2.png,exp1.png,1,3,reversed,correct,0.4745244444921697,1,valid_win,543.597917,43,,,,,,,,,,,,,,,sub_683,2024-05-05_11h02.27.433,Reversal,2023.1.3,60.279746246370124,3,
17,exp3.png,exp4.png,,3,0,3,0,0,17,17,17,,,,,,,,,,,,,,,,,,,,,,,,,False,77,78,False,exp3.png,exp4.png,trial_right_image,-1,exp4.png,3,exp4.png,exp3.png,1,1,non-reversed,correct,0.032904260325959056,0,invalid_lose,548.2795190000006,43,,,,,,,,,,,,,,,sub_683,2024-05-05_11h02.27.433,Reversal,2023.1.3,60.279746246370124,3,
18,exp1.png,exp2.png,,3,0,3,0,0,18,18,18,,,,,,,,,,,,,,,,,,,,,,,,,False,78,79,False,exp1.png,exp2.png,trial_right_image,-1,exp2.png,3,exp2.png,exp1.png,1,3,reversed,correct,0.20628720213364915,0,invalid_lose,554.6772730000002,43,,,,,,,,,,,,,,,sub_683,2024-05-05_11h02.27.433,Reversal,2023.1.3,60.279746246370124,3,
19,exp3.png,exp4.png,,3,0,3,0,0,19,19,19,,,,,,,,,,,,,,,,,,,,,,,,,False,79,80,True,exp4.png,exp3.png,trial_left_image,1,exp4.png,3,exp4.png,exp3.png,1,1,non-reversed,correct,0.3834897767837634,1,valid_win,559.2927792999999,44,,,,,,,,,,,,,,,sub_683,2024-05-05_11h02.27.433,Reversal,2023.1.3,60.279746246370124,3,
20,exp1.png,exp2.png,,3,0,3,0,0,20,20,20,,,,,,,,,,,,,,,,,,,,,,,,,True,,,,,,,,,,,,,,,,,,,,,,,,,,,,,,,,,,,sub_683,2024-05-05_11h02.27.433,Reversal,2023.1.3,60.279746246370124,3,
,,,exp1.png,3,0,3,0,,,,,0,0,0,0,0,0,0,0,,,,,,,,,,,,,,,,,,,,,,,,,,,,,,,,,,,,,,763.1711452000009,59.0,2.481911500000024,"[(59.0, 2.481911500000024)]",,,59.0,,,,,,,,sub_683,2024-05-05_11h02.27.433,Reversal,2023.1.3,60.279746246370124,3,
,,,exp2.png,3,0,3,0,,,,,0,0,0,0,0,1,1,1,,,,,,,,,,,,,,,,,,,,,,,,,,,,,,,,,,,,,,766.7863303000004,None,None,[],,,,,,,,,,,sub_683,2024-05-05_11h02.27.433,Reversal,2023.1.3,60.279746246370124,3,
,,,exp3.png,3,0,3,0,,,,,0,0,0,0,0,2,2,2,,,,,,,,,,,,,,,,,,,,,,,,,,,,,,,,,,,,,,769.2862867000003,None,None,[],,,,,,,,,,,sub_683,2024-05-05_11h02.27.433,Reversal,2023.1.3,60.279746246370124,3,
,,,exp4.png,3,0,3,0,,,,,0,0,0,0,0,3,3,3,,,,,,,,,,,,,,,,,,,,,,,,,,,,,,,,,,,,,,771.8525176000003,55.0,1.5955958000004102,"[(55.0, 1.5955958000004102)]",,55.0,,,,,,,,,sub_683,2024-05-05_11h02.27.433,Reversal,2023.1.3,60.279746246370124,3,
0,exp1.png,exp2.png,,,,,,,,,,,,,,,,,,0,0,0,0,0,0,0,0,,,,,,,,,False,0,81,True,exp2.png,exp1.png,trial_left_image,1,exp2.png,3,exp1.png,exp2.png,1,3,reversed,incorrect,0.2896465167133597,0,valid_lose,576.1051723,44,,,,,,,,,573.0146536000002,,,,,,sub_683,2024-05-05_11h02.27.433,Reversal,2023.1.3,60.279746246370124,3,
1,exp3.png,exp4.png,,,,,,,,,,,,,,,,,,0,0,0,0,0,1,1,1,,,,,,,,,False,1,82,False,exp3.png,exp4.png,trial_left_image,1,exp3.png,3,exp4.png,exp3.png,0,2,non-reversed,incorrect,0.9522928450079905,0,valid_lose,584.2671,44,,,,,,,,,,,,,,,sub_683,2024-05-05_11h02.27.433,Reversal,2023.1.3,60.279746246370124,3,
2,exp1.png,exp2.png,,,,,,,,,,,,,,,,,,0,0,0,0,0,2,2,2,,,,,,,,,False,2,83,False,exp1.png,exp2.png,trial_left_image,1,exp1.png,3,exp1.png,exp2.png,0,4,reversed,correct,0.4742951547657005,1,valid_win,589.9316923000006,45,,,,,,,,,,,,,,,sub_683,2024-05-05_11h02.27.433,Reversal,2023.1.3,60.279746246370124,3,
3,exp3.png,exp4.png,,,,,,,,,,,,,,,,,,0,0,0,0,0,3,3,3,,,,,,,,,False,3,84,True,exp4.png,exp3.png,trial_right_image,-1,exp3.png,3,exp4.png,exp3.png,0,2,non-reversed,incorrect,0.42874813241216725,0,valid_lose,594.8303831000003,45,,,,,,,,,,,,,,,sub_683,2024-05-05_11h02.27.433,Reversal,2023.1.3,60.279746246370124,3,
4,exp1.png,exp2.png,,,,,,,,,,,,,,,,,,0,0,0,0,0,4,4,4,,,,,,,,,False,4,85,True,exp2.png,exp1.png,trial_right_image,-1,exp1.png,3,exp1.png,exp2.png,0,4,reversed,correct,0.9904195196093782,1,valid_win,599.5961770000004,46,,,,,,,,,,,,,,,sub_683,2024-05-05_11h02.27.433,Reversal,2023.1.3,60.279746246370124,3,
5,exp3.png,exp4.png,,,,,,,,,,,,,,,,,,0,0,0,0,0,5,5,5,,,,,,,,,False,5,86,False,exp3.png,exp4.png,trial_right_image,-1,exp4.png,3,exp4.png,exp3.png,1,1,non-reversed,correct,0.6926469526786986,1,valid_win,605.1933502000002,47,,,,,,,,,,,,,,,sub_683,2024-05-05_11h02.27.433,Reversal,2023.1.3,60.279746246370124,3,
6,exp1.png,exp2.png,,,,,,,,,,,,,,,,,,0,0,0,0,0,6,6,6,,,,,,,,,False,6,87,False,exp1.png,exp2.png,trial_left_image,1,exp1.png,3,exp1.png,exp2.png,0,4,reversed,correct,0.6251280777375167,1,valid_win,611.1245225000002,48,,,,,,,,,,,,,,,sub_683,2024-05-05_11h02.27.433,Reversal,2023.1.3,60.279746246370124,3,
7,exp3.png,exp4.png,,,,,,,,,,,,,,,,,,0,0,0,0,0,7,7,7,,,,,,,,,False,7,88,True,exp4.png,exp3.png,trial_left_image,1,exp4.png,3,exp4.png,exp3.png,1,1,non-reversed,correct,0.8307172704733066,1,valid_win,621.1379915000007,49,,,,,,,,,,,,,,,sub_683,2024-05-05_11h02.27.433,Reversal,2023.1.3,60.279746246370124,3,
8,exp1.png,exp2.png,,,,,,,,,,,,,,,,,,0,0,0,0,0,8,8,8,,,,,,,,,False,8,89,False,exp1.png,exp2.png,trial_left_image,1,exp1.png,3,exp1.png,exp2.png,0,4,reversed,correct,0.025115175880406015,0,invalid_lose,625.8198761000003,49,,,,,,,,,,,,,,,sub_683,2024-05-05_11h02.27.433,Reversal,2023.1.3,60.279746246370124,3,
9,exp3.png,exp4.png,,,,,,,,,,,,,,,,,,0,0,0,0,0,9,9,9,,,,,,,,,False,9,90,False,exp3.png,exp4.png,trial_right_image,-1,exp4.png,3,exp4.png,exp3.png,1,1,non-reversed,correct,0.2808664603983494,1,valid_win,631.0514354000006,50,,,,,,,,,,,,,,,sub_683,2024-05-05_11h02.27.433,Reversal,2023.1.3,60.279746246370124,3,
10,exp1.png,exp2.png,,,,,,,,,,,,,,,,,,0,0,0,0,0,10,10,10,,,,,,,,,False,10,91,False,exp1.png,exp2.png,trial_left_image,1,exp1.png,3,exp1.png,exp2.png,0,4,reversed,correct,0.26114580643755103,1,valid_win,636.6492793000007,51,,,,,,,,,,,,,,,sub_683,2024-05-05_11h02.27.433,Reversal,2023.1.3,60.279746246370124,3,
11,exp3.png,exp4.png,,,,,,,,,,,,,,,,,,0,0,0,0,0,11,11,11,,,,,,,,,False,11,92,True,exp4.png,exp3.png,trial_left_image,1,exp4.png,3,exp4.png,exp3.png,1,1,non-reversed,correct,0.7918646255917932,1,valid_win,641.2814075000006,52,,,,,,,,,,,,,,,sub_683,2024-05-05_11h02.27.433,Reversal,2023.1.3,60.279746246370124,3,
12,exp1.png,exp2.png,,,,,,,,,,,,,,,,,,0,0,0,0,0,12,12,12,,,,,,,,,False,12,93,True,exp2.png,exp1.png,trial_left_image,1,exp2.png,3,exp1.png,exp2.png,1,3,reversed,incorrect,0.2859674233169919,0,valid_lose,649.4117893000002,52,,,,,,,,,,,,,,,sub_683,2024-05-05_11h02.27.433,Reversal,2023.1.3,60.279746246370124,3,
13,exp3.png,exp4.png,,,,,,,,,,,,,,,,,,0,0,0,0,0,13,13,13,,,,,,,,,False,13,94,True,exp4.png,exp3.png,trial_left_image,1,exp4.png,3,exp4.png,exp3.png,1,1,non-reversed,correct,0.413063344696068,1,valid_win,655.0429952000004,53,,,,,,,,,,,,,,,sub_683,2024-05-05_11h02.27.433,Reversal,2023.1.3,60.279746246370124,3,
14,exp1.png,exp2.png,,,,,,,,,,,,,,,,,,0,0,0,0,0,14,14,14,,,,,,,,,False,14,95,True,exp2.png,exp1.png,trial_right_image,-1,exp1.png,3,exp1.png,exp2.png,0,4,reversed,correct,0.9279273721707257,1,valid_win,660.5411254,54,,,,,,,,,,,,,,,sub_683,2024-05-05_11h02.27.433,Reversal,2023.1.3,60.279746246370124,3,
15,exp3.png,exp4.png,,,,,,,,,,,,,,,,,,0,0,0,0,0,15,15,15,,,,,,,,,False,15,96,False,exp3.png,exp4.png,trial_right_image,-1,exp4.png,3,exp4.png,exp3.png,1,1,non-reversed,correct,0.254752883681849,1,valid_win,665.2401477000003,55,,,,,,,,,,,,,,,sub_683,2024-05-05_11h02.27.433,Reversal,2023.1.3,60.279746246370124,3,
16,exp1.png,exp2.png,,,,,,,,,,,,,,,,,,0,0,0,0,0,16,16,16,,,,,,,,,False,16,97,False,exp1.png,exp2.png,trial_left_image,1,exp1.png,3,exp1.png,exp2.png,0,4,reversed,correct,0.5210673365794375,1,valid_win,673.0202763000007,56,,,,,,,,,,,,,,,sub_683,2024-05-05_11h02.27.433,Reversal,2023.1.3,60.279746246370124,3,
17,exp3.png,exp4.png,,,,,,,,,,,,,,,,,,0,0,0,0,0,17,17,17,,,,,,,,,False,17,98,False,exp3.png,exp4.png,trial_right_image,-1,exp4.png,3,exp4.png,exp3.png,1,1,non-reversed,correct,0.5598613284802694,1,valid_win,677.5688313,57,,,,,,,,,,,,,,,sub_683,2024-05-05_11h02.27.433,Reversal,2023.1.3,60.279746246370124,3,
18,exp1.png,exp2.png,,,,,,,,,,,,,,,,,,0,0,0,0,0,18,18,18,,,,,,,,,False,18,99,True,exp2.png,exp1.png,trial_right_image,-1,exp1.png,3,exp1.png,exp2.png,0,4,reversed,correct,0.874065348014408,1,valid_win,683.13328,58,,,,,,,,,,,,,,,sub_683,2024-05-05_11h02.27.433,Reversal,2023.1.3,60.279746246370124,3,
19,exp3.png,exp4.png,,,,,,,,,,,,,,,,,,0,0,0,0,0,19,19,19,,,,,,,,,False,19,100,True,exp4.png,exp3.png,trial_left_image,1,exp4.png,3,exp4.png,exp3.png,1,1,non-reversed,correct,0.9585581439123944,1,valid_win,688.1314534000003,59,,,,,,,,,,,,,,,sub_683,2024-05-05_11h02.27.433,Reversal,2023.1.3,60.279746246370124,3,
20,exp1.png,exp2.png,,,,,,,,,,,,,,,,,,0,0,0,0,0,20,20,20,,,,,,,,,True,,,,,,,,,,,,,,,,,,,,,,,,,,,,,,,,,,,sub_683,2024-05-05_11h02.27.433,Reversal,2023.1.3,60.279746246370124,3,
,,,exp1.png,,,,,,,,,,,,,,,,,0,0,0,0,,,,,0,0,0,0,0,0,0,0,,,,,,,,,,,,,,,,,,,,,,892.0185565000002,69.0,2.323798800000077,"[(69.0, 2.323798800000077)]",,,69.0,,,,,,,,sub_683,2024-05-05_11h02.27.433,Reversal,2023.1.3,60.279746246370124,3,
,,,exp2.png,,,,,,,,,,,,,,,,,0,0,0,0,,,,,0,0,0,0,0,1,1,1,,,,,,,,,,,,,,,,,,,,,,896.0316387000003,60.0,5.844101100000444,"[(60.0, 5.844101100000444)]",60.0,,,,,,,,,,sub_683,2024-05-05_11h02.27.433,Reversal,2023.1.3,60.279746246370124,3,
,,,exp3.png,,,,,,,,,,,,,,,,,0,0,0,0,,,,,0,0,0,0,0,2,2,2,,,,,,,,,,,,,,,,,,,,,,903.1069663000007,None,None,[],,,,,,,,,,,sub_683,2024-05-05_11h02.27.433,Reversal,2023.1.3,60.279746246370124,3,
,,,exp4.png,,,,,,,,,,,,,,,,,0,0,0,0,,,,,0,0,0,0,0,3,3,3,,,,,,,,,,,,,,,,,,,,,,909.7888531000008,57.0,4.792056899999807,"[(57.0, 4.792056899999807)]",,57.0,,,,,,,,,sub_683,2024-05-05_11h02.27.433,Reversal,2023.1.3,60.279746246370124,3,
0,exp1.png,exp2.png,,,,,,,,,,,,,,,,,,1,0,1,0,0,0,0,0,,,,,,,,,False,20,101,True,exp2.png,exp1.png,trial_left_image,1,exp2.png,3,exp1.png,exp2.png,1,3,reversed,incorrect,0.4419527658707795,0,valid_lose,716.9053991000001,59,,,,,,,,,,,,,,,sub_683,2024-05-05_11h02.27.433,Reversal,2023.1.3,60.279746246370124,3,
1,exp3.png,exp4.png,,,,,,,,,,,,,,,,,,1,0,1,0,0,1,1,1,,,,,,,,,False,21,102,False,exp3.png,exp4.png,trial_right_image,-1,exp4.png,3,exp4.png,exp3.png,1,1,non-reversed,correct,0.97349727871299,1,valid_win,722.8865001000004,60,,,,,,,,,,,,,,,sub_683,2024-05-05_11h02.27.433,Reversal,2023.1.3,60.279746246370124,3,
2,exp1.png,exp2.png,,,,,,,,,,,,,,,,,,1,0,1,0,0,2,2,2,,,,,,,,,False,22,103,False,exp1.png,exp2.png,trial_left_image,1,exp1.png,3,exp1.png,exp2.png,0,4,reversed,correct,0.57908273562236,1,valid_win,729.1175932000006,61,,,,,,,,,,,,,,,sub_683,2024-05-05_11h02.27.433,Reversal,2023.1.3,60.279746246370124,3,
3,exp3.png,exp4.png,,,,,,,,,,,,,,,,,,1,0,1,0,0,3,3,3,,,,,,,,,False,23,104,True,exp4.png,exp3.png,trial_left_image,1,exp4.png,3,exp4.png,exp3.png,1,1,non-reversed,correct,0.42667691842038424,1,valid_win,735.7988335,62,,,,,,,,,,,,,,,sub_683,2024-05-05_11h02.27.433,Reversal,2023.1.3,60.279746246370124,3,
4,exp1.png,exp2.png,,,,,,,,,,,,,,,,,,1,0,1,0,0,4,4,4,,,,,,,,,False,24,105,True,exp2.png,exp1.png,trial_right_image,-1,exp1.png,3,exp1.png,exp2.png,0,4,reversed,correct,0.4901678050430158,1,valid_win,741.8304510000007,63,,,,,,,,,,,,,,,sub_683,2024-05-05_11h02.27.433,Reversal,2023.1.3,60.279746246370124,3,
5,exp3.png,exp4.png,,,,,,,,,,,,,,,,,,1,0,1,0,0,5,5,5,,,,,,,,,False,25,106,True,exp4.png,exp3.png,trial_left_image,1,exp4.png,3,exp4.png,exp3.png,1,1,non-reversed,correct,0.9883398642454289,1,valid_win,747.2790402999999,64,,,,,,,,,,,,,,,sub_683,2024-05-05_11h02.27.433,Reversal,2023.1.3,60.279746246370124,3,
6,exp1.png,exp2.png,,,,,,,,,,,,,,,,,,1,0,1,0,0,6,6,6,,,,,,,,,False,26,107,False,exp1.png,exp2.png,trial_left_image,1,exp1.png,3,exp1.png,exp2.png,0,4,reversed,correct,0.6292777080190549,1,valid_win,752.6100943000001,65,,,,,,,,,,,,,,,sub_683,2024-05-05_11h02.27.433,Reversal,2023.1.3,60.279746246370124,3,
7,exp3.png,exp4.png,,,,,,,,,,,,,,,,,,1,0,1,0,0,7,7,7,,,,,,,,,False,27,108,False,exp3.png,exp4.png,trial_right_image,-1,exp4.png,3,exp4.png,exp3.png,1,1,non-reversed,correct,0.2929714329330696,1,valid_win,758.3578991000004,66,,,,,,,,,,,,,,,sub_683,2024-05-05_11h02.27.433,Reversal,2023.1.3,60.279746246370124,3,
8,exp1.png,exp2.png,,,,,,,,,,,,,,,,,,1,0,1,0,0,8,8,8,,,,,,,,,False,28,109,False,exp1.png,exp2.png,trial_left_image,1,exp1.png,3,exp1.png,exp2.png,0,4,reversed,correct,0.3054697645402742,1,valid_win,764.0395664000007,67,,,,,,,,,,,,,,,sub_683,2024-05-05_11h02.27.433,Reversal,2023.1.3,60.279746246370124,3,
9,exp3.png,exp4.png,,,,,,,,,,,,,,,,,,1,0,1,0,0,9,9,9,,,,,,,,,False,29,110,False,exp3.png,exp4.png,trial_right_image,-1,exp4.png,3,exp4.png,exp3.png,1,1,non-reversed,correct,0.2617218683792255,1,valid_win,769.1877344000004,68,,,,,,,,,,,,,,,sub_683,2024-05-05_11h02.27.433,Reversal,2023.1.3,60.279746246370124,3,
10,exp1.png,exp2.png,,,,,,,,,,,,,,,,,,1,0,1,0,0,10,10,10,,,,,,,,,False,30,111,False,exp1.png,exp2.png,trial_left_image,1,exp1.png,3,exp1.png,exp2.png,0,4,reversed,correct,0.8946606678986065,1,valid_win,774.2856171000003,69,,,,,,,,,,,,,,,sub_683,2024-05-05_11h02.27.433,Reversal,2023.1.3,60.279746246370124,3,
11,exp3.png,exp4.png,,,,,,,,,,,,,,,,,,1,0,1,0,0,11,11,11,,,,,,,,,False,31,112,True,exp4.png,exp3.png,trial_left_image,1,exp4.png,3,exp4.png,exp3.png,1,1,non-reversed,correct,0.1910362914811421,0,invalid_lose,779.7008535000004,69,,,,,,,,,,,,,,,sub_683,2024-05-05_11h02.27.433,Reversal,2023.1.3,60.279746246370124,3,
12,exp1.png,exp2.png,,,,,,,,,,,,,,,,,,1,0,1,0,0,12,12,12,,,,,,,,,False,32,113,True,exp2.png,exp1.png,trial_right_image,-1,exp1.png,3,exp1.png,exp2.png,0,4,reversed,correct,0.7168201604853529,1,valid_win,786.5982920000006,70,,,,,,,,,,,,,,,sub_683,2024-05-05_11h02.27.433,Reversal,2023.1.3,60.279746246370124,3,
13,exp3.png,exp4.png,,,,,,,,,,,,,,,,,,1,0,1,0,0,13,13,13,,,,,,,,,False,33,114,False,exp3.png,exp4.png,trial_right_image,-1,exp4.png,3,exp4.png,exp3.png,1,1,non-reversed,correct,0.8487786736034028,1,valid_win,793.1295070000006,71,,,,,,,,,,,,,,,sub_683,2024-05-05_11h02.27.433,Reversal,2023.1.3,60.279746246370124,3,
14,exp1.png,exp2.png,,,,,,,,,,,,,,,,,,1,0,1,0,0,14,14,14,,,,,,,,,False,34,115,False,exp1.png,exp2.png,trial_left_image,1,exp1.png,3,exp1.png,exp2.png,0,4,reversed,correct,0.8805711012967435,1,valid_win,798.5440289000007,72,,,,,,,,,,,,,,,sub_683,2024-05-05_11h02.27.433,Reversal,2023.1.3,60.279746246370124,3,
15,exp3.png,exp4.png,,,,,,,,,,,,,,,,,,1,0,1,0,0,15,15,15,,,,,,,,,False,35,116,True,exp4.png,exp3.png,trial_left_image,1,exp4.png,3,exp4.png,exp3.png,1,1,non-reversed,correct,0.40222703202060994,1,valid_win,804.9420127000003,73,,,,,,,,,,,,,,,sub_683,2024-05-05_11h02.27.433,Reversal,2023.1.3,60.279746246370124,3,
16,exp1.png,exp2.png,,,,,,,,,,,,,,,,,,1,0,1,0,0,16,16,16,,,,,,,,,False,36,117,True,exp2.png,exp1.png,trial_right_image,-1,exp1.png,3,exp1.png,exp2.png,0,4,reversed,correct,0.8434346198782985,1,valid_win,810.3567821000006,74,,,,,,,,,,,,,,,sub_683,2024-05-05_11h02.27.433,Reversal,2023.1.3,60.279746246370124,3,
17,exp3.png,exp4.png,,,,,,,,,,,,,,,,,,1,0,1,0,0,17,17,17,,,,,,,,,False,37,118,True,exp4.png,exp3.png,trial_left_image,1,exp4.png,3,exp4.png,exp3.png,1,1,non-reversed,correct,0.16251099367947253,0,invalid_lose,817.2711552999999,74,,,,,,,,,,,,,,,sub_683,2024-05-05_11h02.27.433,Reversal,2023.1.3,60.279746246370124,3,
18,exp1.png,exp2.png,,,,,,,,,,,,,,,,,,1,0,1,0,0,18,18,18,,,,,,,,,False,38,119,False,exp1.png,exp2.png,trial_left_image,1,exp1.png,3,exp1.png,exp2.png,0,4,reversed,correct,0.021689760724456386,0,invalid_lose,822.6037810000007,74,,,,,,,,,,,,,,,sub_683,2024-05-05_11h02.27.433,Reversal,2023.1.3,60.279746246370124,3,
19,exp3.png,exp4.png,,,,,,,,,,,,,,,,,,1,0,1,0,0,19,19,19,,,,,,,,,False,39,120,True,exp4.png,exp3.png,trial_left_image,1,exp4.png,3,exp4.png,exp3.png,1,1,non-reversed,correct,0.9495607004413407,1,valid_win,828.5339569000007,75,,,,,,,,,,,,,,,sub_683,2024-05-05_11h02.27.433,Reversal,2023.1.3,60.279746246370124,3,
20,exp1.png,exp2.png,,,,,,,,,,,,,,,,,,1,0,1,0,0,20,20,20,,,,,,,,,True,,,,,,,,,,,,,,,,,,,,,,,,,,,,,,,,,,,sub_683,2024-05-05_11h02.27.433,Reversal,2023.1.3,60.279746246370124,3,
,,,exp1.png,,,,,,,,,,,,,,,,,1,0,1,0,,,,,0,0,0,0,0,0,0,0,,,,,,,,,,,,,,,,,,,,,,1032.4098159000005,62.0,5.370856199999253,"[(62.0, 5.370856199999253)]",,,62.0,,,,,,,,sub_683,2024-05-05_11h02.27.433,Reversal,2023.1.3,60.279746246370124,3,
,,,exp2.png,,,,,,,,,,,,,,,,,1,0,1,0,,,,,0,0,0,0,0,1,1,1,,,,,,,,,,,,,,,,,,,,,,1039.1602730000004,59.0,4.926586300000054,"[(66.0, 3.4598636000000624), (59.0, 4.926586300000054)]",59.0,,,,,,,,,,sub_683,2024-05-05_11h02.27.433,Reversal,2023.1.3,60.279746246370124,3,
,,,exp3.png,,,,,,,,,,,,,,,,,1,0,1,0,,,,,0,0,0,0,0,2,2,2,,,,,,,,,,,,,,,,,,,,,,1045.041921,54.0,3.3947885000006863,"[(54.0, 3.3947885000006863)]",,,,54.0,,,,,,,sub_683,2024-05-05_11h02.27.433,Reversal,2023.1.3,60.279746246370124,3,
,,,exp4.png,,,,,,,,,,,,,,,,,1,0,1,0,,,,,0,0,0,0,0,3,3,3,,,,,,,,,,,,,,,,,,,,,,1049.3912306000002,63.0,6.357724299999973,"[(63.0, 6.357724299999973)]",,63.0,,,,,,,,,sub_683,2024-05-05_11h02.27.433,Reversal,2023.1.3,60.279746246370124,3,
0,exp1.png,exp2.png,,,,,,,,,,,,,,,,,,2,0,2,0,0,0,0,0,,,,,,,,,False,40,121,False,exp1.png,exp2.png,trial_left_image,1,exp1.png,3,exp1.png,exp2.png,0,4,reversed,correct,0.35213997839311106,1,valid_win,858.6739434000001,76,,,,,,,,,,,,,,,sub_683,2024-05-05_11h02.27.433,Reversal,2023.1.3,60.279746246370124,3,
1,exp3.png,exp4.png,,,,,,,,,,,,,,,,,,2,0,2,0,0,1,1,1,,,,,,,,,False,41,122,True,exp4.png,exp3.png,trial_left_image,1,exp4.png,3,exp4.png,exp3.png,1,1,non-reversed,correct,0.6470655543608539,1,valid_win,868.1209023000001,77,,,,,,,,,,,,,,,sub_683,2024-05-05_11h02.27.433,Reversal,2023.1.3,60.279746246370124,3,
2,exp1.png,exp2.png,,,,,,,,,,,,,,,,,,2,0,2,0,0,2,2,2,,,,,,,,,False,42,123,False,exp1.png,exp2.png,trial_left_image,1,exp1.png,3,exp1.png,exp2.png,0,4,reversed,correct,0.34203184618513993,1,valid_win,873.3024108,78,,,,,,,,,,,,,,,sub_683,2024-05-05_11h02.27.433,Reversal,2023.1.3,60.279746246370124,3,
3,exp3.png,exp4.png,,,,,,,,,,,,,,,,,,2,0,2,0,0,3,3,3,,,,,,,,,False,43,124,False,exp3.png,exp4.png,trial_right_image,-1,exp4.png,3,exp4.png,exp3.png,1,1,non-reversed,correct,0.8213143917743048,1,valid_win,885.4146477000004,79,,,,,,,,,,,,,,,sub_683,2024-05-05_11h02.27.433,Reversal,2023.1.3,60.279746246370124,3,
4,exp1.png,exp2.png,,,,,,,,,,,,,,,,,,2,0,2,0,0,4,4,4,,,,,,,,,False,44,125,True,exp2.png,exp1.png,trial_right_image,-1,exp1.png,3,exp1.png,exp2.png,0,4,reversed,correct,0.7409067779769334,1,valid_win,890.2964621000001,80,,,,,,,,,,,,,,,sub_683,2024-05-05_11h02.27.433,Reversal,2023.1.3,60.279746246370124,3,
5,exp3.png,exp4.png,,,,,,,,,,,,,,,,,,2,0,2,0,0,5,5,5,,,,,,,,,False,45,126,False,exp3.png,exp4.png,trial_right_image,-1,exp4.png,3,exp4.png,exp3.png,1,1,non-reversed,correct,0.8167467196712155,1,valid_win,897.7608365000006,81,,,,,,,,,,,,,,,sub_683,2024-05-05_11h02.27.433,Reversal,2023.1.3,60.279746246370124,3,
6,exp1.png,exp2.png,,,,,,,,,,,,,,,,,,2,0,2,0,0,6,6,6,,,,,,,,,False,46,127,True,exp2.png,exp1.png,trial_right_image,-1,exp1.png,3,exp1.png,exp2.png,0,4,reversed,correct,0.1944511668789599,0,invalid_lose,902.7925433999999,81,,,,,,,,,,,,,,,sub_683,2024-05-05_11h02.27.433,Reversal,2023.1.3,60.279746246370124,3,
7,exp3.png,exp4.png,,,,,,,,,,,,,,,,,,2,0,2,0,0,7,7,7,,,,,,,,,False,47,128,True,exp4.png,exp3.png,trial_left_image,1,exp4.png,3,exp4.png,exp3.png,1,1,non-reversed,correct,0.6950033727788937,1,valid_win,912.9055797000001,82,,,,,,,,,,,,,,,sub_683,2024-05-05_11h02.27.433,Reversal,2023.1.3,60.279746246370124,3,
8,exp1.png,exp2.png,,,,,,,,,,,,,,,,,,2,0,2,0,0,8,8,8,,,,,,,,,False,48,129,False,exp1.png,exp2.png,trial_left_image,1,exp1.png,3,exp1.png,exp2.png,0,4,reversed,correct,0.6936768168919577,1,valid_win,918.4366921000001,83,,,,,,,,,,,,,,,sub_683,2024-05-05_11h02.27.433,Reversal,2023.1.3,60.279746246370124,3,
9,exp3.png,exp4.png,,,,,,,,,,,,,,,,,,2,0,2,0,0,9,9,9,,,,,,,,,False,49,130,True,exp4.png,exp3.png,trial_left_image,1,exp4.png,3,exp4.png,exp3.png,1,1,non-reversed,correct,0.0727576344866192,0,invalid_lose,924.6678351999999,83,,,,,,,,,,,,,,,sub_683,2024-05-05_11h02.27.433,Reversal,2023.1.3,60.279746246370124,3,
10,exp1.png,exp2.png,,,,,,,,,,,,,,,,,,2,0,2,0,0,10,10,10,,,,,,,,,False,50,131,False,exp1.png,exp2.png,trial_left_image,1,exp1.png,3,exp1.png,exp2.png,0,4,reversed,correct,0.3119360888472772,1,valid_win,929.8666765000007,84,,,,,,,,,,,,,,,sub_683,2024-05-05_11h02.27.433,Reversal,2023.1.3,60.279746246370124,3,
11,exp3.png,exp4.png,,,,,,,,,,,,,,,,,,2,0,2,0,0,11,11,11,,,,,,,,,False,51,132,True,exp4.png,exp3.png,trial_right_image,-1,exp3.png,3,exp4.png,exp3.png,0,2,non-reversed,incorrect,0.19791751438330418,1,invalid_win,936.0977825,85,,,,,,,,,,,,,,,sub_683,2024-05-05_11h02.27.433,Reversal,2023.1.3,60.279746246370124,3,
12,exp1.png,exp2.png,,,,,,,,,,,,,,,,,,2,0,2,0,0,12,12,12,,,,,,,,,False,52,133,False,exp1.png,exp2.png,trial_left_image,1,exp1.png,3,exp1.png,exp2.png,0,4,reversed,correct,0.44087934149672614,1,valid_win,941.3625522000002,86,,,,,,,,,,,,,,,sub_683,2024-05-05_11h02.27.433,Reversal,2023.1.3,60.279746246370124,3,
13,exp3.png,exp4.png,,,,,,,,,,,,,,,,,,2,0,2,0,0,13,13,13,,,,,,,,,False,53,134,True,exp4.png,exp3.png,trial_right_image,-1,exp3.png,3,exp4.png,exp3.png,0,2,non-reversed,incorrect,0.9142674266217684,0,valid_lose,947.1104410000007,86,,,,,,,,,,,,,,,sub_683,2024-05-05_11h02.27.433,Reversal,2023.1.3,60.279746246370124,3,
14,exp1.png,exp2.png,,,,,,,,,,,,,,,,,,2,0,2,0,0,14,14,14,,,,,,,,,False,54,135,True,exp2.png,exp1.png,trial_right_image,-1,exp1.png,3,exp1.png,exp2.png,0,4,reversed,correct,0.6547280742522746,1,valid_win,952.0588146,87,,,,,,,,,,,,,,,sub_683,2024-05-05_11h02.27.433,Reversal,2023.1.3,60.279746246370124,3,
15,exp3.png,exp4.png,,,,,,,,,,,,,,,,,,2,0,2,0,0,15,15,15,,,,,,,,,False,55,136,True,exp4.png,exp3.png,trial_left_image,1,exp4.png,3,exp4.png,exp3.png,1,1,non-reversed,correct,0.5734953620355542,1,valid_win,957.7736649000008,88,,,,,,,,,,,,,,,sub_683,2024-05-05_11h02.27.433,Reversal,2023.1.3,60.279746246370124,3,
16,exp1.png,exp2.png,,,,,,,,,,,,,,,,,,2,0,2,0,0,16,16,16,,,,,,,,,False,56,137,False,exp1.png,exp2.png,trial_left_image,1,exp1.png,3,exp1.png,exp2.png,0,4,reversed,correct,0.10649882698206181,0,invalid_lose,963.1717225000002,88,,,,,,,,,,,,,,,sub_683,2024-05-05_11h02.27.433,Reversal,2023.1.3,60.279746246370124,3,
17,exp3.png,exp4.png,,,,,,,,,,,,,,,,,,2,0,2,0,0,17,17,17,,,,,,,,,False,57,138,True,exp4.png,exp3.png,trial_left_image,1,exp4.png,3,exp4.png,exp3.png,1,1,non-reversed,correct,0.4760832030000076,1,valid_win,969.0032762000001,89,,,,,,,,,,,,,,,sub_683,2024-05-05_11h02.27.433,Reversal,2023.1.3,60.279746246370124,3,
18,exp1.png,exp2.png,,,,,,,,,,,,,,,,,,2,0,2,0,0,18,18,18,,,,,,,,,False,58,139,False,exp1.png,exp2.png,trial_left_image,1,exp1.png,3,exp1.png,exp2.png,0,4,reversed,correct,0.5403770138713411,1,valid_win,974.4342628000004,90,,,,,,,,,,,,,,,sub_683,2024-05-05_11h02.27.433,Reversal,2023.1.3,60.279746246370124,3,
19,exp3.png,exp4.png,,,,,,,,,,,,,,,,,,2,0,2,0,0,19,19,19,,,,,,,,,False,59,140,False,exp3.png,exp4.png,trial_right_image,-1,exp4.png,3,exp4.png,exp3.png,1,1,non-reversed,correct,0.10592332878061894,0,invalid_lose,979.8829140000007,90,,,,,,,,,,,,,,,sub_683,2024-05-05_11h02.27.433,Reversal,2023.1.3,60.279746246370124,3,
20,exp1.png,exp2.png,,,,,,,,,,,,,,,,,,2,0,2,0,0,20,20,20,,,,,,,,,True,,,,,,,,,,,,,,,,,,,,,,,,,,,,,,,,,,,sub_683,2024-05-05_11h02.27.433,Reversal,2023.1.3,60.279746246370124,3,
,,,exp1.png,,,,,,,,,,,,,,,,,2,0,2,0,,,,,0,0,0,0,0,0,0,0,,,,,,,,,,,,,,,,,,,,,,1183.7614946000003,76.0,3.19744879999962,"[(76.0, 3.19744879999962)]",,,76.0,,,,,,,,sub_683,2024-05-05_11h02.27.433,Reversal,2023.1.3,60.279746246370124,3,
,,,exp2.png,,,,,,,,,,,,,,,,,2,0,2,0,,,,,0,0,0,0,0,1,1,1,,,,,,,,,,,,,,,,,,,,,,1188.0093026000004,31.0,8.075440900000103,"[(36.0, 6.884526800000458), (31.0, 8.075440900000103)]",31.0,,,,,,,,,,sub_683,2024-05-05_11h02.27.433,Reversal,2023.1.3,60.279746246370124,3,
,,,exp3.png,,,,,,,,,,,,,,,,,2,0,2,0,,,,,0,0,0,0,0,2,2,2,,,,,,,,,,,,,,,,,,,,,,1197.1913917000002,21.0,4.958459299999959,"[(21.0, 4.958459299999959)]",,,,21.0,,,,,,,sub_683,2024-05-05_11h02.27.433,Reversal,2023.1.3,60.279746246370124,3,
,,,exp4.png,,,,,,,,,,,,,,,,,2,0,2,0,,,,,0,0,0,0,0,3,3,3,,,,,,,,,,,,,,,,,,,,,,1203.2740482000008,73.0,2.5442363000001933,"[(73.0, 2.5442363000001933)]",,73.0,,,,,,,,,sub_683,2024-05-05_11h02.27.433,Reversal,2023.1.3,60.279746246370124,3,
,,,,,,,,,,,,,,,,,,,,,,,,,,,,,,,,,,,,,,,,,,,,,,,,,,,,,,,,90,,,,,,,,,,96,43,53,432.66047179999987,1,,,,,,,
