trial_index,trial_image1_file,trial_image2_file,image_file,learning_outer_loop.thisRepN,learning_outer_loop.thisTrialN,learning_outer_loop.thisN,learning_outer_loop.thisIndex,learning_inner_loop.thisRepN,learning_inner_loop.thisTrialN,learning_inner_loop.thisN,learning_inner_loop.thisIndex,learning_estimation_outer_loop.thisRepN,learning_estimation_outer_loop.thisTrialN,learning_estimation_outer_loop.thisN,learning_estimation_outer_loop.thisIndex,learning_estimation_inner_loop.thisRepN,learning_estimation_inner_loop.thisTrialN,learning_estimation_inner_loop.thisN,learning_estimation_inner_loop.thisIndex,reversal_outer_loop.thisRepN,reversal_outer_loop.thisTrialN,reversal_outer_loop.thisN,reversal_outer_loop.thisIndex,reversal_inner_loop.thisRepN,reversal_inner_loop.thisTrialN,reversal_inner_loop.thisN,reversal_inner_loop.thisIndex,reversal_estimation_outer_loop.thisRepN,reversal_estimation_outer_loop.thisTrialN,reversal_estimation_outer_loop.thisN,reversal_estimation_outer_loop.thisIndex,reversal_estimation_inner_loop.thisRepN,reversal_estimation_inner_loop.thisTrialN,reversal_estimation_inner_loop.thisN,reversal_estimation_inner_loop.thisIndex,skipped,total_trial_counter,trial_num,left_right_flip,left_image_file,right_image_file,clicked_stimulus_side,side,clicked_stimulus,version,high_prob_image_file,low_prob_image_file,choice_a,choice_b,pair_type,correct,trial_feedback_random,reward,trial_type,overall_time_after_trial,score,estimation_rating.started,estimation_exp1.png,estimation_rating.response,estimation_rating.rt,estimation_rating.history,estimation_exp2.png,estimation_exp3.png,estimation_exp4.png,total_learning_time,total_correct,learning_correct,reversal_correct,total_reversal_time,extra_block,participant,date,expName,psychopyVersion,frameRate,ver,
0,exp1.png,exp2.png,,0,0,0,0,0,0,0,0,,,,,,,,,,,,,,,,,,,,,,,,,True,,,,,,,,,,,,,,,,,,,,,,,,,,,,,,,,,,,sub_914,2024-06-16_11h25.00.565,Reversal,2023.1.3,59.88515225501888,2,
1,exp3.png,exp4.png,,0,0,0,0,0,1,1,1,,,,,,,,,,,,,,,,,,,,,,,,,False,0,1,True,exp4.png,exp3.png,trial_right_image,-1,exp3.png,2,exp3.png,exp4.png,1,3,reversed,correct,0.5411142946372847,1,valid_win,6.81298199999992,1,,,,,,,,,,,,,,,sub_914,2024-06-16_11h25.00.565,Reversal,2023.1.3,59.88515225501888,2,
2,exp1.png,exp2.png,,0,0,0,0,0,2,2,2,,,,,,,,,,,,,,,,,,,,,,,,,False,1,2,True,exp2.png,exp1.png,trial_right_image,-1,exp1.png,2,exp1.png,exp2.png,1,1,non-reversed,correct,0.4634192476110167,1,valid_win,12.360764000000017,2,,,,,,,,,,,,,,,sub_914,2024-06-16_11h25.00.565,Reversal,2023.1.3,59.88515225501888,2,
3,exp3.png,exp4.png,,0,0,0,0,0,3,3,3,,,,,,,,,,,,,,,,,,,,,,,,,False,2,3,True,exp4.png,exp3.png,trial_right_image,-1,exp3.png,2,exp3.png,exp4.png,1,3,reversed,correct,0.2771752340797883,1,valid_win,19.192220700000007,3,,,,,,,,,,,,,,,sub_914,2024-06-16_11h25.00.565,Reversal,2023.1.3,59.88515225501888,2,
4,exp1.png,exp2.png,,0,0,0,0,0,4,4,4,,,,,,,,,,,,,,,,,,,,,,,,,False,3,4,True,exp2.png,exp1.png,trial_left_image,1,exp2.png,2,exp1.png,exp2.png,0,2,non-reversed,incorrect,0.6267881454041322,0,valid_lose,24.140135099999952,3,,,,,,,,,,,,,,,sub_914,2024-06-16_11h25.00.565,Reversal,2023.1.3,59.88515225501888,2,
5,exp3.png,exp4.png,,0,0,0,0,0,5,5,5,,,,,,,,,,,,,,,,,,,,,,,,,False,4,5,False,exp3.png,exp4.png,trial_left_image,1,exp3.png,2,exp3.png,exp4.png,1,3,reversed,correct,0.2407207274586003,0,invalid_lose,30.43785200000002,3,,,,,,,,,,,,,,,sub_914,2024-06-16_11h25.00.565,Reversal,2023.1.3,59.88515225501888,2,
6,exp1.png,exp2.png,,0,0,0,0,0,6,6,6,,,,,,,,,,,,,,,,,,,,,,,,,False,5,6,False,exp1.png,exp2.png,trial_right_image,-1,exp2.png,2,exp1.png,exp2.png,0,2,non-reversed,incorrect,0.7286737345580695,0,valid_lose,34.486906999999974,3,,,,,,,,,,,,,,,sub_914,2024-06-16_11h25.00.565,Reversal,2023.1.3,59.88515225501888,2,
7,exp3.png,exp4.png,,0,0,0,0,0,7,7,7,,,,,,,,,,,,,,,,,,,,,,,,,False,6,7,False,exp3.png,exp4.png,trial_right_image,-1,exp4.png,2,exp3.png,exp4.png,0,4,reversed,incorrect,0.2615550413513861,0,valid_lose,41.15103090000002,3,,,,,,,,,,,,,,,sub_914,2024-06-16_11h25.00.565,Reversal,2023.1.3,59.88515225501888,2,
8,exp1.png,exp2.png,,0,0,0,0,0,8,8,8,,,,,,,,,,,,,,,,,,,,,,,,,False,7,8,False,exp1.png,exp2.png,trial_left_image,1,exp1.png,2,exp1.png,exp2.png,1,1,non-reversed,correct,0.5061210514229948,1,valid_win,45.98567009999988,4,,,,,,,,,,,,,,,sub_914,2024-06-16_11h25.00.565,Reversal,2023.1.3,59.88515225501888,2,
9,exp3.png,exp4.png,,0,0,0,0,0,9,9,9,,,,,,,,,,,,,,,,,,,,,,,,,False,8,9,False,exp3.png,exp4.png,trial_left_image,1,exp3.png,2,exp3.png,exp4.png,1,3,reversed,correct,0.8801392928932901,1,valid_win,52.46385190000001,5,,,,,,,,,,,,,,,sub_914,2024-06-16_11h25.00.565,Reversal,2023.1.3,59.88515225501888,2,
10,exp1.png,exp2.png,,0,0,0,0,0,10,10,10,,,,,,,,,,,,,,,,,,,,,,,,,False,9,10,True,exp2.png,exp1.png,trial_right_image,-1,exp1.png,2,exp1.png,exp2.png,1,1,non-reversed,correct,0.20525699503681138,0,invalid_lose,57.11296719999996,5,,,,,,,,,,,,,,,sub_914,2024-06-16_11h25.00.565,Reversal,2023.1.3,59.88515225501888,2,
11,exp3.png,exp4.png,,0,0,0,0,0,11,11,11,,,,,,,,,,,,,,,,,,,,,,,,,False,10,11,False,exp3.png,exp4.png,trial_left_image,1,exp3.png,2,exp3.png,exp4.png,1,3,reversed,correct,0.20837535741107482,0,invalid_lose,61.27782939999997,5,,,,,,,,,,,,,,,sub_914,2024-06-16_11h25.00.565,Reversal,2023.1.3,59.88515225501888,2,
12,exp1.png,exp2.png,,0,0,0,0,0,12,12,12,,,,,,,,,,,,,,,,,,,,,,,,,False,11,12,True,exp2.png,exp1.png,trial_right_image,-1,exp1.png,2,exp1.png,exp2.png,1,1,non-reversed,correct,0.3468582026865791,1,valid_win,65.44285239999999,6,,,,,,,,,,,,,,,sub_914,2024-06-16_11h25.00.565,Reversal,2023.1.3,59.88515225501888,2,
13,exp3.png,exp4.png,,0,0,0,0,0,13,13,13,,,,,,,,,,,,,,,,,,,,,,,,,False,12,13,False,exp3.png,exp4.png,trial_left_image,1,exp3.png,2,exp3.png,exp4.png,1,3,reversed,correct,0.6478025294396711,1,valid_win,70.67449959999999,7,,,,,,,,,,,,,,,sub_914,2024-06-16_11h25.00.565,Reversal,2023.1.3,59.88515225501888,2,
14,exp1.png,exp2.png,,0,0,0,0,0,14,14,14,,,,,,,,,,,,,,,,,,,,,,,,,False,13,14,False,exp1.png,exp2.png,trial_left_image,1,exp1.png,2,exp1.png,exp2.png,1,1,non-reversed,correct,0.22610623446998235,0,invalid_lose,75.78951669999992,7,,,,,,,,,,,,,,,sub_914,2024-06-16_11h25.00.565,Reversal,2023.1.3,59.88515225501888,2,
15,exp3.png,exp4.png,,0,0,0,0,0,15,15,15,,,,,,,,,,,,,,,,,,,,,,,,,False,14,15,False,exp3.png,exp4.png,trial_right_image,-1,exp4.png,2,exp3.png,exp4.png,0,4,reversed,incorrect,0.6507138120871125,0,valid_lose,83.08710210000004,7,,,,,,,,,,,,,,,sub_914,2024-06-16_11h25.00.565,Reversal,2023.1.3,59.88515225501888,2,
16,exp1.png,exp2.png,,0,0,0,0,0,16,16,16,,,,,,,,,,,,,,,,,,,,,,,,,False,15,16,False,exp1.png,exp2.png,trial_right_image,-1,exp2.png,2,exp1.png,exp2.png,0,2,non-reversed,incorrect,0.43893242700360147,0,valid_lose,89.55168230000004,7,,,,,,,,,,,,,,,sub_914,2024-06-16_11h25.00.565,Reversal,2023.1.3,59.88515225501888,2,
17,exp3.png,exp4.png,,0,0,0,0,0,17,17,17,,,,,,,,,,,,,,,,,,,,,,,,,False,16,17,True,exp4.png,exp3.png,trial_right_image,-1,exp3.png,2,exp3.png,exp4.png,1,3,reversed,correct,0.8257531623180268,1,valid_win,99.3813717999999,8,,,,,,,,,,,,,,,sub_914,2024-06-16_11h25.00.565,Reversal,2023.1.3,59.88515225501888,2,
18,exp1.png,exp2.png,,0,0,0,0,0,18,18,18,,,,,,,,,,,,,,,,,,,,,,,,,False,17,18,True,exp2.png,exp1.png,trial_right_image,-1,exp1.png,2,exp1.png,exp2.png,1,1,non-reversed,correct,0.7386709141788271,1,valid_win,104.76300360000005,9,,,,,,,,,,,,,,,sub_914,2024-06-16_11h25.00.565,Reversal,2023.1.3,59.88515225501888,2,
19,exp3.png,exp4.png,,0,0,0,0,0,19,19,19,,,,,,,,,,,,,,,,,,,,,,,,,False,18,19,True,exp4.png,exp3.png,trial_left_image,1,exp4.png,2,exp3.png,exp4.png,0,4,reversed,incorrect,0.5908401670794777,0,valid_lose,112.69383069999981,9,,,,,,,,,,,,,,,sub_914,2024-06-16_11h25.00.565,Reversal,2023.1.3,59.88515225501888,2,
20,exp1.png,exp2.png,,0,0,0,0,0,20,20,20,,,,,,,,,,,,,,,,,,,,,,,,,False,19,20,True,exp2.png,exp1.png,trial_right_image,-1,exp1.png,2,exp1.png,exp2.png,1,1,non-reversed,correct,0.4921588852433302,1,valid_win,117.47542249999992,10,,,,,,,,,,,,,,,sub_914,2024-06-16_11h25.00.565,Reversal,2023.1.3,59.88515225501888,2,
,,,exp1.png,0,0,0,0,,,,,0,0,0,0,0,0,0,0,,,,,,,,,,,,,,,,,,,,,,,,,,,,,,,,,,,,,,191.9880438,74.0,74.0,7.745606399999815,"[(74.0, 7.745606399999815)]",,,,,,,,,,sub_914,2024-06-16_11h25.00.565,Reversal,2023.1.3,59.88515225501888,2,
,,,exp2.png,0,0,0,0,,,,,0,0,0,0,0,1,1,1,,,,,,,,,,,,,,,,,,,,,,,,,,,,,,,,,,,,,,202.01479729999983,,35.0,3.7424535000000105,"[(35.0, 3.7424535000000105)]",35.0,,,,,,,,,sub_914,2024-06-16_11h25.00.565,Reversal,2023.1.3,59.88515225501888,2,
,,,exp3.png,0,0,0,0,,,,,0,0,0,0,0,2,2,2,,,,,,,,,,,,,,,,,,,,,,,,,,,,,,,,,,,,,,207.95903719999978,,49.0,4.944866100000127,"[(36.0, 3.545711300000221), (49.0, 4.944866100000127)]",,49.0,,,,,,,,sub_914,2024-06-16_11h25.00.565,Reversal,2023.1.3,59.88515225501888,2,
,,,exp4.png,0,0,0,0,,,,,0,0,0,0,0,3,3,3,,,,,,,,,,,,,,,,,,,,,,,,,,,,,,,,,,,,,,214.67316849999997,,61.0,3.262498399999913,"[(61.0, 3.262498399999913)]",,,61.0,,,,,,,sub_914,2024-06-16_11h25.00.565,Reversal,2023.1.3,59.88515225501888,2,
0,exp1.png,exp2.png,,1,0,1,0,0,0,0,0,,,,,,,,,,,,,,,,,,,,,,,,,True,,,,,,,,,,,,,,,,,,,,,,,,,,,,,,,,,,,sub_914,2024-06-16_11h25.00.565,Reversal,2023.1.3,59.88515225501888,2,
1,exp3.png,exp4.png,,1,0,1,0,0,1,1,1,,,,,,,,,,,,,,,,,,,,,,,,,False,20,21,False,exp3.png,exp4.png,trial_right_image,-1,exp4.png,2,exp3.png,exp4.png,0,4,reversed,incorrect,0.4128211919945075,0,valid_lose,150.81403139999998,10,,,,,,,,,,,,,,,sub_914,2024-06-16_11h25.00.565,Reversal,2023.1.3,59.88515225501888,2,
2,exp1.png,exp2.png,,1,0,1,0,0,2,2,2,,,,,,,,,,,,,,,,,,,,,,,,,False,21,22,False,exp1.png,exp2.png,trial_left_image,1,exp1.png,2,exp1.png,exp2.png,1,1,non-reversed,correct,0.2762113097515356,1,valid_win,156.84556689999977,11,,,,,,,,,,,,,,,sub_914,2024-06-16_11h25.00.565,Reversal,2023.1.3,59.88515225501888,2,
3,exp3.png,exp4.png,,1,0,1,0,0,3,3,3,,,,,,,,,,,,,,,,,,,,,,,,,False,22,23,False,exp3.png,exp4.png,trial_right_image,-1,exp4.png,2,exp3.png,exp4.png,0,4,reversed,incorrect,0.017836599650966622,1,invalid_win,163.02746980000006,12,,,,,,,,,,,,,,,sub_914,2024-06-16_11h25.00.565,Reversal,2023.1.3,59.88515225501888,2,
4,exp1.png,exp2.png,,1,0,1,0,0,4,4,4,,,,,,,,,,,,,,,,,,,,,,,,,False,23,24,True,exp2.png,exp1.png,trial_left_image,1,exp2.png,2,exp1.png,exp2.png,0,2,non-reversed,incorrect,0.7354472290355558,0,valid_lose,169.37415440000018,12,,,,,,,,,,,,,,,sub_914,2024-06-16_11h25.00.565,Reversal,2023.1.3,59.88515225501888,2,
5,exp3.png,exp4.png,,1,0,1,0,0,5,5,5,,,,,,,,,,,,,,,,,,,,,,,,,False,24,25,False,exp3.png,exp4.png,trial_right_image,-1,exp4.png,2,exp3.png,exp4.png,0,4,reversed,incorrect,0.6177414119009541,0,valid_lose,175.12283700000012,12,,,,,,,,,,,,,,,sub_914,2024-06-16_11h25.00.565,Reversal,2023.1.3,59.88515225501888,2,
6,exp1.png,exp2.png,,1,0,1,0,0,6,6,6,,,,,,,,,,,,,,,,,,,,,,,,,False,25,26,True,exp2.png,exp1.png,trial_right_image,-1,exp1.png,2,exp1.png,exp2.png,1,1,non-reversed,correct,0.2998315660629981,1,valid_win,181.23739499999988,13,,,,,,,,,,,,,,,sub_914,2024-06-16_11h25.00.565,Reversal,2023.1.3,59.88515225501888,2,
7,exp3.png,exp4.png,,1,0,1,0,0,7,7,7,,,,,,,,,,,,,,,,,,,,,,,,,False,26,27,True,exp4.png,exp3.png,trial_left_image,1,exp4.png,2,exp3.png,exp4.png,0,4,reversed,incorrect,0.18541020833858635,1,invalid_win,188.0679607999998,14,,,,,,,,,,,,,,,sub_914,2024-06-16_11h25.00.565,Reversal,2023.1.3,59.88515225501888,2,
8,exp1.png,exp2.png,,1,0,1,0,0,8,8,8,,,,,,,,,,,,,,,,,,,,,,,,,False,27,28,True,exp2.png,exp1.png,trial_right_image,-1,exp1.png,2,exp1.png,exp2.png,1,1,non-reversed,correct,0.10147193652269937,0,invalid_lose,193.53357709999977,14,,,,,,,,,,,,,,,sub_914,2024-06-16_11h25.00.565,Reversal,2023.1.3,59.88515225501888,2,
9,exp3.png,exp4.png,,1,0,1,0,0,9,9,9,,,,,,,,,,,,,,,,,,,,,,,,,False,28,29,True,exp4.png,exp3.png,trial_left_image,1,exp4.png,2,exp3.png,exp4.png,0,4,reversed,incorrect,0.8797334292116236,0,valid_lose,201.14898870000002,14,,,,,,,,,,,,,,,sub_914,2024-06-16_11h25.00.565,Reversal,2023.1.3,59.88515225501888,2,
10,exp1.png,exp2.png,,1,0,1,0,0,10,10,10,,,,,,,,,,,,,,,,,,,,,,,,,False,29,30,True,exp2.png,exp1.png,trial_right_image,-1,exp1.png,2,exp1.png,exp2.png,1,1,non-reversed,correct,0.030624938733560314,0,invalid_lose,207.2452781999998,14,,,,,,,,,,,,,,,sub_914,2024-06-16_11h25.00.565,Reversal,2023.1.3,59.88515225501888,2,
11,exp3.png,exp4.png,,1,0,1,0,0,11,11,11,,,,,,,,,,,,,,,,,,,,,,,,,False,30,31,False,exp3.png,exp4.png,trial_right_image,-1,exp4.png,2,exp3.png,exp4.png,0,4,reversed,incorrect,0.3812537462501727,0,valid_lose,212.12650800000006,14,,,,,,,,,,,,,,,sub_914,2024-06-16_11h25.00.565,Reversal,2023.1.3,59.88515225501888,2,
12,exp1.png,exp2.png,,1,0,1,0,0,12,12,12,,,,,,,,,,,,,,,,,,,,,,,,,False,31,32,False,exp1.png,exp2.png,trial_left_image,1,exp1.png,2,exp1.png,exp2.png,1,1,non-reversed,correct,0.9081444833210146,1,valid_win,218.50882620000016,15,,,,,,,,,,,,,,,sub_914,2024-06-16_11h25.00.565,Reversal,2023.1.3,59.88515225501888,2,
13,exp3.png,exp4.png,,1,0,1,0,0,13,13,13,,,,,,,,,,,,,,,,,,,,,,,,,False,32,33,False,exp3.png,exp4.png,trial_right_image,-1,exp4.png,2,exp3.png,exp4.png,0,4,reversed,incorrect,0.4022533520454803,0,valid_lose,223.78962100000012,15,,,,,,,,,,,,,,,sub_914,2024-06-16_11h25.00.565,Reversal,2023.1.3,59.88515225501888,2,
14,exp1.png,exp2.png,,1,0,1,0,0,14,14,14,,,,,,,,,,,,,,,,,,,,,,,,,False,33,34,False,exp1.png,exp2.png,trial_left_image,1,exp1.png,2,exp1.png,exp2.png,1,1,non-reversed,correct,0.6307415328795776,1,valid_win,229.95510020000006,16,,,,,,,,,,,,,,,sub_914,2024-06-16_11h25.00.565,Reversal,2023.1.3,59.88515225501888,2,
15,exp3.png,exp4.png,,1,0,1,0,0,15,15,15,,,,,,,,,,,,,,,,,,,,,,,,,False,34,35,True,exp4.png,exp3.png,trial_left_image,1,exp4.png,2,exp3.png,exp4.png,0,4,reversed,incorrect,0.27591692789901057,0,valid_lose,239.9851228,16,,,,,,,,,,,,,,,sub_914,2024-06-16_11h25.00.565,Reversal,2023.1.3,59.88515225501888,2,
16,exp1.png,exp2.png,,1,0,1,0,0,16,16,16,,,,,,,,,,,,,,,,,,,,,,,,,False,35,36,False,exp1.png,exp2.png,trial_left_image,1,exp1.png,2,exp1.png,exp2.png,1,1,non-reversed,correct,0.13344110515556862,0,invalid_lose,245.28256010000018,16,,,,,,,,,,,,,,,sub_914,2024-06-16_11h25.00.565,Reversal,2023.1.3,59.88515225501888,2,
17,exp3.png,exp4.png,,1,0,1,0,0,17,17,17,,,,,,,,,,,,,,,,,,,,,,,,,False,36,37,True,exp4.png,exp3.png,trial_right_image,-1,exp3.png,2,exp3.png,exp4.png,1,3,reversed,correct,0.04850147319582043,0,invalid_lose,250.23041480000006,16,,,,,,,,,,,,,,,sub_914,2024-06-16_11h25.00.565,Reversal,2023.1.3,59.88515225501888,2,
18,exp1.png,exp2.png,,1,0,1,0,0,18,18,18,,,,,,,,,,,,,,,,,,,,,,,,,False,37,38,True,exp2.png,exp1.png,trial_right_image,-1,exp1.png,2,exp1.png,exp2.png,1,1,non-reversed,correct,0.5980698260414252,1,valid_win,254.7788962000002,17,,,,,,,,,,,,,,,sub_914,2024-06-16_11h25.00.565,Reversal,2023.1.3,59.88515225501888,2,
19,exp3.png,exp4.png,,1,0,1,0,0,19,19,19,,,,,,,,,,,,,,,,,,,,,,,,,False,38,39,True,exp4.png,exp3.png,trial_right_image,-1,exp3.png,2,exp3.png,exp4.png,1,3,reversed,correct,0.2143589287729709,0,invalid_lose,259.6606129999998,17,,,,,,,,,,,,,,,sub_914,2024-06-16_11h25.00.565,Reversal,2023.1.3,59.88515225501888,2,
20,exp1.png,exp2.png,,1,0,1,0,0,20,20,20,,,,,,,,,,,,,,,,,,,,,,,,,False,39,40,False,exp1.png,exp2.png,trial_right_image,-1,exp2.png,2,exp1.png,exp2.png,0,2,non-reversed,incorrect,0.6020219719200904,0,valid_lose,264.5758610999999,17,,,,,,,,,,,,,,,sub_914,2024-06-16_11h25.00.565,Reversal,2023.1.3,59.88515225501888,2,
,,,exp1.png,1,0,1,0,,,,,0,0,0,0,0,0,0,0,,,,,,,,,,,,,,,,,,,,,,,,,,,,,,,,,,,,,,339.08697949999987,,None,None,[],,,,,,,,,,sub_914,2024-06-16_11h25.00.565,Reversal,2023.1.3,59.88515225501888,2,
,,,exp2.png,1,0,1,0,,,,,0,0,0,0,0,1,1,1,,,,,,,,,,,,,,,,,,,,,,,,,,,,,,,,,,,,,,342.9808632999998,,24.0,2.8257290999999896,"[(24.0, 2.8257290999999896)]",24.0,,,,,,,,,sub_914,2024-06-16_11h25.00.565,Reversal,2023.1.3,59.88515225501888,2,
,,,exp3.png,1,0,1,0,,,,,0,0,0,0,0,2,2,2,,,,,,,,,,,,,,,,,,,,,,,,,,,,,,,,,,,,,,346.7647305999999,,57.0,4.792111200000363,"[(57.0, 4.792111200000363)]",,57.0,,,,,,,,sub_914,2024-06-16_11h25.00.565,Reversal,2023.1.3,59.88515225501888,2,
,,,exp4.png,1,0,1,0,,,,,0,0,0,0,0,3,3,3,,,,,,,,,,,,,,,,,,,,,,,,,,,,,,,,,,,,,,352.3791001999998,,None,None,[],,,,,,,,,,sub_914,2024-06-16_11h25.00.565,Reversal,2023.1.3,59.88515225501888,2,
0,exp1.png,exp2.png,,2,0,2,0,0,0,0,0,,,,,,,,,,,,,,,,,,,,,,,,,True,,,,,,,,,,,,,,,,,,,,,,,,,,,,,,,,,,,sub_914,2024-06-16_11h25.00.565,Reversal,2023.1.3,59.88515225501888,2,
1,exp3.png,exp4.png,,2,0,2,0,0,1,1,1,,,,,,,,,,,,,,,,,,,,,,,,,False,40,41,True,exp4.png,exp3.png,trial_left_image,1,exp4.png,2,exp3.png,exp4.png,0,4,reversed,incorrect,0.02351472121673326,1,invalid_win,287.1036007,18,,,,,,,,,,,,,,,sub_914,2024-06-16_11h25.00.565,Reversal,2023.1.3,59.88515225501888,2,
2,exp1.png,exp2.png,,2,0,2,0,0,2,2,2,,,,,,,,,,,,,,,,,,,,,,,,,False,41,42,False,exp1.png,exp2.png,trial_left_image,1,exp1.png,2,exp1.png,exp2.png,1,1,non-reversed,correct,0.39944221983292394,1,valid_win,292.5495493000001,19,,,,,,,,,,,,,,,sub_914,2024-06-16_11h25.00.565,Reversal,2023.1.3,59.88515225501888,2,
3,exp3.png,exp4.png,,2,0,2,0,0,3,3,3,,,,,,,,,,,,,,,,,,,,,,,,,False,42,43,False,exp3.png,exp4.png,trial_left_image,1,exp3.png,2,exp3.png,exp4.png,1,3,reversed,correct,0.43973119994165677,1,valid_win,298.4140497000001,20,,,,,,,,,,,,,,,sub_914,2024-06-16_11h25.00.565,Reversal,2023.1.3,59.88515225501888,2,
4,exp1.png,exp2.png,,2,0,2,0,0,4,4,4,,,,,,,,,,,,,,,,,,,,,,,,,False,43,44,True,exp2.png,exp1.png,trial_right_image,-1,exp1.png,2,exp1.png,exp2.png,1,1,non-reversed,correct,0.9932954524629009,1,valid_win,304.5454315999998,21,,,,,,,,,,,,,,,sub_914,2024-06-16_11h25.00.565,Reversal,2023.1.3,59.88515225501888,2,
5,exp3.png,exp4.png,,2,0,2,0,0,5,5,5,,,,,,,,,,,,,,,,,,,,,,,,,False,44,45,True,exp4.png,exp3.png,trial_left_image,1,exp4.png,2,exp3.png,exp4.png,0,4,reversed,incorrect,0.6285036146843328,0,valid_lose,310.1932368,21,,,,,,,,,,,,,,,sub_914,2024-06-16_11h25.00.565,Reversal,2023.1.3,59.88515225501888,2,
6,exp1.png,exp2.png,,2,0,2,0,0,6,6,6,,,,,,,,,,,,,,,,,,,,,,,,,False,45,46,True,exp2.png,exp1.png,trial_right_image,-1,exp1.png,2,exp1.png,exp2.png,1,1,non-reversed,correct,0.39997822252345183,1,valid_win,314.7087340999999,22,,,,,,,,,,,,,,,sub_914,2024-06-16_11h25.00.565,Reversal,2023.1.3,59.88515225501888,2,
7,exp3.png,exp4.png,,2,0,2,0,0,7,7,7,,,,,,,,,,,,,,,,,,,,,,,,,False,46,47,False,exp3.png,exp4.png,trial_right_image,-1,exp4.png,2,exp3.png,exp4.png,0,4,reversed,incorrect,0.43084217370906686,0,valid_lose,319.8078321999999,22,,,,,,,,,,,,,,,sub_914,2024-06-16_11h25.00.565,Reversal,2023.1.3,59.88515225501888,2,
8,exp1.png,exp2.png,,2,0,2,0,0,8,8,8,,,,,,,,,,,,,,,,,,,,,,,,,False,47,48,True,exp2.png,exp1.png,trial_right_image,-1,exp1.png,2,exp1.png,exp2.png,1,1,non-reversed,correct,0.2866135296852803,1,valid_win,329.4705037000001,23,,,,,,,,,,,,,,,sub_914,2024-06-16_11h25.00.565,Reversal,2023.1.3,59.88515225501888,2,
9,exp3.png,exp4.png,,2,0,2,0,0,9,9,9,,,,,,,,,,,,,,,,,,,,,,,,,False,48,49,False,exp3.png,exp4.png,trial_left_image,1,exp3.png,2,exp3.png,exp4.png,1,3,reversed,correct,0.9639650588815915,1,valid_win,335.98515470000007,24,,,,,,,,,,,,,,,sub_914,2024-06-16_11h25.00.565,Reversal,2023.1.3,59.88515225501888,2,
10,exp1.png,exp2.png,,2,0,2,0,0,10,10,10,,,,,,,,,,,,,,,,,,,,,,,,,False,49,50,False,exp1.png,exp2.png,trial_right_image,-1,exp2.png,2,exp1.png,exp2.png,0,2,non-reversed,incorrect,0.6860450204159275,0,valid_lose,342.6998339999998,24,,,,,,,,,,,,,,,sub_914,2024-06-16_11h25.00.565,Reversal,2023.1.3,59.88515225501888,2,
11,exp3.png,exp4.png,,2,0,2,0,0,11,11,11,,,,,,,,,,,,,,,,,,,,,,,,,False,50,51,False,exp3.png,exp4.png,trial_left_image,1,exp3.png,2,exp3.png,exp4.png,1,3,reversed,correct,0.8566498408109675,1,valid_win,353.5291288000001,25,,,,,,,,,,,,,,,sub_914,2024-06-16_11h25.00.565,Reversal,2023.1.3,59.88515225501888,2,
12,exp1.png,exp2.png,,2,0,2,0,0,12,12,12,,,,,,,,,,,,,,,,,,,,,,,,,False,51,52,False,exp1.png,exp2.png,trial_left_image,1,exp1.png,2,exp1.png,exp2.png,1,1,non-reversed,correct,0.5337345164235661,1,valid_win,359.84421559999987,26,,,,,,,,,,,,,,,sub_914,2024-06-16_11h25.00.565,Reversal,2023.1.3,59.88515225501888,2,
13,exp3.png,exp4.png,,2,0,2,0,0,13,13,13,,,,,,,,,,,,,,,,,,,,,,,,,False,52,53,False,exp3.png,exp4.png,trial_left_image,1,exp3.png,2,exp3.png,exp4.png,1,3,reversed,correct,0.7769001450324399,1,valid_win,365.49185980000016,27,,,,,,,,,,,,,,,sub_914,2024-06-16_11h25.00.565,Reversal,2023.1.3,59.88515225501888,2,
14,exp1.png,exp2.png,,2,0,2,0,0,14,14,14,,,,,,,,,,,,,,,,,,,,,,,,,False,53,54,True,exp2.png,exp1.png,trial_right_image,-1,exp1.png,2,exp1.png,exp2.png,1,1,non-reversed,correct,0.8208130530738234,1,valid_win,372.12289380000016,28,,,,,,,,,,,,,,,sub_914,2024-06-16_11h25.00.565,Reversal,2023.1.3,59.88515225501888,2,
15,exp3.png,exp4.png,,2,0,2,0,0,15,15,15,,,,,,,,,,,,,,,,,,,,,,,,,False,54,55,True,exp4.png,exp3.png,trial_right_image,-1,exp3.png,2,exp3.png,exp4.png,1,3,reversed,correct,0.9061505927651305,1,valid_win,376.8046046000002,29,,,,,,,,,,,,,,,sub_914,2024-06-16_11h25.00.565,Reversal,2023.1.3,59.88515225501888,2,
16,exp1.png,exp2.png,,2,0,2,0,0,16,16,16,,,,,,,,,,,,,,,,,,,,,,,,,False,55,56,True,exp2.png,exp1.png,trial_right_image,-1,exp1.png,2,exp1.png,exp2.png,1,1,non-reversed,correct,0.8637264809766856,1,valid_win,381.1531044000001,30,,,,,,,,,,,,,,,sub_914,2024-06-16_11h25.00.565,Reversal,2023.1.3,59.88515225501888,2,
17,exp3.png,exp4.png,,2,0,2,0,0,17,17,17,,,,,,,,,,,,,,,,,,,,,,,,,False,56,57,True,exp4.png,exp3.png,trial_right_image,-1,exp3.png,2,exp3.png,exp4.png,1,3,reversed,correct,0.48548491039944053,1,valid_win,385.9676554,31,,,,,,,,,,,,,,,sub_914,2024-06-16_11h25.00.565,Reversal,2023.1.3,59.88515225501888,2,
18,exp1.png,exp2.png,,2,0,2,0,0,18,18,18,,,,,,,,,,,,,,,,,,,,,,,,,False,57,58,False,exp1.png,exp2.png,trial_left_image,1,exp1.png,2,exp1.png,exp2.png,1,1,non-reversed,correct,0.9623224063583858,1,valid_win,390.26673479999977,32,,,,,,,,,,,,,,,sub_914,2024-06-16_11h25.00.565,Reversal,2023.1.3,59.88515225501888,2,
19,exp3.png,exp4.png,,2,0,2,0,0,19,19,19,,,,,,,,,,,,,,,,,,,,,,,,,False,58,59,False,exp3.png,exp4.png,trial_left_image,1,exp3.png,2,exp3.png,exp4.png,1,3,reversed,correct,0.39013090631727765,1,valid_win,394.63245440000014,33,,,,,,,,,,,,,,,sub_914,2024-06-16_11h25.00.565,Reversal,2023.1.3,59.88515225501888,2,
20,exp1.png,exp2.png,,2,0,2,0,0,20,20,20,,,,,,,,,,,,,,,,,,,,,,,,,False,59,60,True,exp2.png,exp1.png,trial_right_image,-1,exp1.png,2,exp1.png,exp2.png,1,1,non-reversed,correct,0.3314836297274143,1,valid_win,399.54716269999994,34,,,,,,,,,,,,,,,sub_914,2024-06-16_11h25.00.565,Reversal,2023.1.3,59.88515225501888,2,
,,,exp1.png,2,0,2,0,,,,,0,0,0,0,0,0,0,0,,,,,,,,,,,,,,,,,,,,,,,,,,,,,,,,,,,,,,474.0569980999999,100.0,100.0,2.6074286000002758,"[(100.0, 2.6074286000002758)]",,,,,,,,,,sub_914,2024-06-16_11h25.00.565,Reversal,2023.1.3,59.88515225501888,2,
,,,exp2.png,2,0,2,0,,,,,0,0,0,0,0,1,1,1,,,,,,,,,,,,,,,,,,,,,,,,,,,,,,,,,,,,,,478.23685209999985,,1.0,3.1122041999997236,"[(1.0, 3.1122041999997236)]",1.0,,,,,,,,,sub_914,2024-06-16_11h25.00.565,Reversal,2023.1.3,59.88515225501888,2,
,,,exp3.png,2,0,2,0,,,,,0,0,0,0,0,2,2,2,,,,,,,,,,,,,,,,,,,,,,,,,,,,,,,,,,,,,,482.46739879999996,,100.0,3.294348500000069,"[(100.0, 3.294348500000069)]",,100.0,,,,,,,,sub_914,2024-06-16_11h25.00.565,Reversal,2023.1.3,59.88515225501888,2,
,,,exp4.png,2,0,2,0,,,,,0,0,0,0,0,3,3,3,,,,,,,,,,,,,,,,,,,,,,,,,,,,,,,,,,,,,,486.7822415999999,,1.0,1.595858700000008,"[(1.0, 1.595858700000008)]",,,1.0,,,,,,,sub_914,2024-06-16_11h25.00.565,Reversal,2023.1.3,59.88515225501888,2,
0,exp1.png,exp2.png,,,,,,,,,,,,,,,,,,0,0,0,0,0,0,0,0,,,,,,,,,True,,,,,,,,,,,,,,,,,,,,,,,,,,,,,,,,,,,sub_914,2024-06-16_11h25.00.565,Reversal,2023.1.3,59.88515225501888,2,
1,exp3.png,exp4.png,,,,,,,,,,,,,,,,,,0,0,0,0,0,1,1,1,,,,,,,,,False,0,61,False,exp3.png,exp4.png,trial_left_image,1,exp3.png,2,exp4.png,exp3.png,1,3,reversed,incorrect,0.006546045706150583,1,invalid_win,420.4730213,35,,,,,,,,,417.6487377000001,,,,,,sub_914,2024-06-16_11h25.00.565,Reversal,2023.1.3,59.88515225501888,2,
2,exp1.png,exp2.png,,,,,,,,,,,,,,,,,,0,0,0,0,0,2,2,2,,,,,,,,,False,1,62,True,exp2.png,exp1.png,trial_right_image,-1,exp1.png,2,exp1.png,exp2.png,1,1,non-reversed,correct,0.4038887064310007,1,valid_win,424.82153140000014,36,,,,,,,,,,,,,,,sub_914,2024-06-16_11h25.00.565,Reversal,2023.1.3,59.88515225501888,2,
3,exp3.png,exp4.png,,,,,,,,,,,,,,,,,,0,0,0,0,0,3,3,3,,,,,,,,,False,2,63,True,exp4.png,exp3.png,trial_right_image,-1,exp3.png,2,exp4.png,exp3.png,1,3,reversed,incorrect,0.19568730047699567,1,invalid_win,429.46990029999984,37,,,,,,,,,,,,,,,sub_914,2024-06-16_11h25.00.565,Reversal,2023.1.3,59.88515225501888,2,
4,exp1.png,exp2.png,,,,,,,,,,,,,,,,,,0,0,0,0,0,4,4,4,,,,,,,,,False,3,64,False,exp1.png,exp2.png,trial_left_image,1,exp1.png,2,exp1.png,exp2.png,1,1,non-reversed,correct,0.25264241234818474,1,valid_win,433.61854089999974,38,,,,,,,,,,,,,,,sub_914,2024-06-16_11h25.00.565,Reversal,2023.1.3,59.88515225501888,2,
5,exp3.png,exp4.png,,,,,,,,,,,,,,,,,,0,0,0,0,0,5,5,5,,,,,,,,,False,4,65,False,exp3.png,exp4.png,trial_left_image,1,exp3.png,2,exp4.png,exp3.png,1,3,reversed,incorrect,0.11917620742551804,1,invalid_win,438.0000991999998,39,,,,,,,,,,,,,,,sub_914,2024-06-16_11h25.00.565,Reversal,2023.1.3,59.88515225501888,2,
6,exp1.png,exp2.png,,,,,,,,,,,,,,,,,,0,0,0,0,0,6,6,6,,,,,,,,,False,5,66,True,exp2.png,exp1.png,trial_right_image,-1,exp1.png,2,exp1.png,exp2.png,1,1,non-reversed,correct,0.8451430091509976,1,valid_win,441.9989422000001,40,,,,,,,,,,,,,,,sub_914,2024-06-16_11h25.00.565,Reversal,2023.1.3,59.88515225501888,2,
7,exp3.png,exp4.png,,,,,,,,,,,,,,,,,,0,0,0,0,0,7,7,7,,,,,,,,,False,6,67,True,exp4.png,exp3.png,trial_right_image,-1,exp3.png,2,exp4.png,exp3.png,1,3,reversed,incorrect,0.72113577145331,0,valid_lose,447.0471273999999,40,,,,,,,,,,,,,,,sub_914,2024-06-16_11h25.00.565,Reversal,2023.1.3,59.88515225501888,2,
8,exp1.png,exp2.png,,,,,,,,,,,,,,,,,,0,0,0,0,0,8,8,8,,,,,,,,,False,7,68,True,exp2.png,exp1.png,trial_right_image,-1,exp1.png,2,exp1.png,exp2.png,1,1,non-reversed,correct,0.23242747508393002,0,invalid_lose,451.41287099999977,40,,,,,,,,,,,,,,,sub_914,2024-06-16_11h25.00.565,Reversal,2023.1.3,59.88515225501888,2,
9,exp3.png,exp4.png,,,,,,,,,,,,,,,,,,0,0,0,0,0,9,9,9,,,,,,,,,False,8,69,False,exp3.png,exp4.png,trial_left_image,1,exp3.png,2,exp4.png,exp3.png,1,3,reversed,incorrect,0.3046027283309243,0,valid_lose,456.41064819999997,40,,,,,,,,,,,,,,,sub_914,2024-06-16_11h25.00.565,Reversal,2023.1.3,59.88515225501888,2,
10,exp1.png,exp2.png,,,,,,,,,,,,,,,,,,0,0,0,0,0,10,10,10,,,,,,,,,False,9,70,False,exp1.png,exp2.png,trial_right_image,-1,exp2.png,2,exp1.png,exp2.png,0,2,non-reversed,incorrect,0.5881366983185069,0,valid_lose,461.9595415000001,40,,,,,,,,,,,,,,,sub_914,2024-06-16_11h25.00.565,Reversal,2023.1.3,59.88515225501888,2,
11,exp3.png,exp4.png,,,,,,,,,,,,,,,,,,0,0,0,0,0,11,11,11,,,,,,,,,False,10,71,True,exp4.png,exp3.png,trial_left_image,1,exp4.png,2,exp4.png,exp3.png,0,4,reversed,correct,0.1286731560310449,0,invalid_lose,467.84005460000003,40,,,,,,,,,,,,,,,sub_914,2024-06-16_11h25.00.565,Reversal,2023.1.3,59.88515225501888,2,
12,exp1.png,exp2.png,,,,,,,,,,,,,,,,,,0,0,0,0,0,12,12,12,,,,,,,,,False,11,72,False,exp1.png,exp2.png,trial_left_image,1,exp1.png,2,exp1.png,exp2.png,1,1,non-reversed,correct,0.503236940534478,1,valid_win,472.3729516000001,41,,,,,,,,,,,,,,,sub_914,2024-06-16_11h25.00.565,Reversal,2023.1.3,59.88515225501888,2,
13,exp3.png,exp4.png,,,,,,,,,,,,,,,,,,0,0,0,0,0,13,13,13,,,,,,,,,False,12,73,False,exp3.png,exp4.png,trial_left_image,1,exp3.png,2,exp4.png,exp3.png,1,3,reversed,incorrect,0.6350490203242057,0,valid_lose,477.55364780000014,41,,,,,,,,,,,,,,,sub_914,2024-06-16_11h25.00.565,Reversal,2023.1.3,59.88515225501888,2,
14,exp1.png,exp2.png,,,,,,,,,,,,,,,,,,0,0,0,0,0,14,14,14,,,,,,,,,False,13,74,True,exp2.png,exp1.png,trial_right_image,-1,exp1.png,2,exp1.png,exp2.png,1,1,non-reversed,correct,0.4028046826649505,1,valid_win,482.2021566000001,42,,,,,,,,,,,,,,,sub_914,2024-06-16_11h25.00.565,Reversal,2023.1.3,59.88515225501888,2,
15,exp3.png,exp4.png,,,,,,,,,,,,,,,,,,0,0,0,0,0,15,15,15,,,,,,,,,False,14,75,False,exp3.png,exp4.png,trial_right_image,-1,exp4.png,2,exp4.png,exp3.png,0,4,reversed,correct,0.18596852659965835,0,invalid_lose,486.81706359999976,42,,,,,,,,,,,,,,,sub_914,2024-06-16_11h25.00.565,Reversal,2023.1.3,59.88515225501888,2,
16,exp1.png,exp2.png,,,,,,,,,,,,,,,,,,0,0,0,0,0,16,16,16,,,,,,,,,False,15,76,True,exp2.png,exp1.png,trial_right_image,-1,exp1.png,2,exp1.png,exp2.png,1,1,non-reversed,correct,0.35819314482575637,1,valid_win,490.9490889000001,43,,,,,,,,,,,,,,,sub_914,2024-06-16_11h25.00.565,Reversal,2023.1.3,59.88515225501888,2,
17,exp3.png,exp4.png,,,,,,,,,,,,,,,,,,0,0,0,0,0,17,17,17,,,,,,,,,False,16,77,False,exp3.png,exp4.png,trial_left_image,1,exp3.png,2,exp4.png,exp3.png,1,3,reversed,incorrect,0.49390854431614617,0,valid_lose,496.2474500000001,43,,,,,,,,,,,,,,,sub_914,2024-06-16_11h25.00.565,Reversal,2023.1.3,59.88515225501888,2,
18,exp1.png,exp2.png,,,,,,,,,,,,,,,,,,0,0,0,0,0,18,18,18,,,,,,,,,False,17,78,False,exp1.png,exp2.png,trial_left_image,1,exp1.png,2,exp1.png,exp2.png,1,1,non-reversed,correct,0.7389555899333745,1,valid_win,500.7955933999999,44,,,,,,,,,,,,,,,sub_914,2024-06-16_11h25.00.565,Reversal,2023.1.3,59.88515225501888,2,
19,exp3.png,exp4.png,,,,,,,,,,,,,,,,,,0,0,0,0,0,19,19,19,,,,,,,,,False,18,79,True,exp4.png,exp3.png,trial_right_image,-1,exp3.png,2,exp4.png,exp3.png,1,3,reversed,incorrect,0.22971053932503593,1,invalid_win,505.3613363000002,45,,,,,,,,,,,,,,,sub_914,2024-06-16_11h25.00.565,Reversal,2023.1.3,59.88515225501888,2,
20,exp1.png,exp2.png,,,,,,,,,,,,,,,,,,0,0,0,0,0,20,20,20,,,,,,,,,False,19,80,True,exp2.png,exp1.png,trial_right_image,-1,exp1.png,2,exp1.png,exp2.png,1,1,non-reversed,correct,0.7720535264608326,1,valid_win,510.00941309999985,46,,,,,,,,,,,,,,,sub_914,2024-06-16_11h25.00.565,Reversal,2023.1.3,59.88515225501888,2,
,,,exp1.png,,,,,,,,,,,,,,,,,0,0,0,0,,,,,0,0,0,0,0,0,0,0,,,,,,,,,,,,,,,,,,,,,,584.5309646000001,100.0,100.0,5.099373099999866,"[(94.0, 4.16367850000006), (100.0, 5.099373099999866)]",,,,,,,,,,sub_914,2024-06-16_11h25.00.565,Reversal,2023.1.3,59.88515225501888,2,
,,,exp2.png,,,,,,,,,,,,,,,,,0,0,0,0,,,,,0,0,0,0,0,1,1,1,,,,,,,,,,,,,,,,,,,,,,590.6481346,,1.0,2.0439142000000174,"[(1.0, 2.0439142000000174)]",1.0,,,,,,,,,sub_914,2024-06-16_11h25.00.565,Reversal,2023.1.3,59.88515225501888,2,
,,,exp3.png,,,,,,,,,,,,,,,,,0,0,0,0,,,,,0,0,0,0,0,2,2,2,,,,,,,,,,,,,,,,,,,,,,593.7630558999999,,None,None,[],,,,,,,,,,sub_914,2024-06-16_11h25.00.565,Reversal,2023.1.3,59.88515225501888,2,
,,,exp4.png,,,,,,,,,,,,,,,,,0,0,0,0,,,,,0,0,0,0,0,3,3,3,,,,,,,,,,,,,,,,,,,,,,595.4628054,,32.0,2.3596418000001904,"[(32.0, 2.3596418000001904)]",,,32.0,,,,,,,sub_914,2024-06-16_11h25.00.565,Reversal,2023.1.3,59.88515225501888,2,
0,exp1.png,exp2.png,,,,,,,,,,,,,,,,,,1,0,1,0,0,0,0,0,,,,,,,,,True,,,,,,,,,,,,,,,,,,,,,,,,,,,,,,,,,,,sub_914,2024-06-16_11h25.00.565,Reversal,2023.1.3,59.88515225501888,2,
1,exp3.png,exp4.png,,,,,,,,,,,,,,,,,,1,0,1,0,0,1,1,1,,,,,,,,,False,20,81,True,exp4.png,exp3.png,trial_right_image,-1,exp3.png,2,exp4.png,exp3.png,1,3,reversed,incorrect,0.7439303660370417,0,valid_lose,529.8026803999999,46,,,,,,,,,,,,,,,sub_914,2024-06-16_11h25.00.565,Reversal,2023.1.3,59.88515225501888,2,
2,exp1.png,exp2.png,,,,,,,,,,,,,,,,,,1,0,1,0,0,2,2,2,,,,,,,,,False,21,82,True,exp2.png,exp1.png,trial_right_image,-1,exp1.png,2,exp1.png,exp2.png,1,1,non-reversed,correct,0.9015302567296967,1,valid_win,534.9507133999998,47,,,,,,,,,,,,,,,sub_914,2024-06-16_11h25.00.565,Reversal,2023.1.3,59.88515225501888,2,
3,exp3.png,exp4.png,,,,,,,,,,,,,,,,,,1,0,1,0,0,3,3,3,,,,,,,,,False,22,83,True,exp4.png,exp3.png,trial_left_image,1,exp4.png,2,exp4.png,exp3.png,0,4,reversed,correct,0.8999855995087195,1,valid_win,539.7659949000001,48,,,,,,,,,,,,,,,sub_914,2024-06-16_11h25.00.565,Reversal,2023.1.3,59.88515225501888,2,
4,exp1.png,exp2.png,,,,,,,,,,,,,,,,,,1,0,1,0,0,4,4,4,,,,,,,,,False,23,84,True,exp2.png,exp1.png,trial_right_image,-1,exp1.png,2,exp1.png,exp2.png,1,1,non-reversed,correct,0.3163717963463345,1,valid_win,543.764586,49,,,,,,,,,,,,,,,sub_914,2024-06-16_11h25.00.565,Reversal,2023.1.3,59.88515225501888,2,
5,exp3.png,exp4.png,,,,,,,,,,,,,,,,,,1,0,1,0,0,5,5,5,,,,,,,,,False,24,85,False,exp3.png,exp4.png,trial_right_image,-1,exp4.png,2,exp4.png,exp3.png,0,4,reversed,correct,0.4571561054060024,1,valid_win,548.0308693999998,50,,,,,,,,,,,,,,,sub_914,2024-06-16_11h25.00.565,Reversal,2023.1.3,59.88515225501888,2,
6,exp1.png,exp2.png,,,,,,,,,,,,,,,,,,1,0,1,0,0,6,6,6,,,,,,,,,False,25,86,True,exp2.png,exp1.png,trial_right_image,-1,exp1.png,2,exp1.png,exp2.png,1,1,non-reversed,correct,0.23552791086884695,0,invalid_lose,552.3285348000002,50,,,,,,,,,,,,,,,sub_914,2024-06-16_11h25.00.565,Reversal,2023.1.3,59.88515225501888,2,
7,exp3.png,exp4.png,,,,,,,,,,,,,,,,,,1,0,1,0,0,7,7,7,,,,,,,,,False,26,87,True,exp4.png,exp3.png,trial_left_image,1,exp4.png,2,exp4.png,exp3.png,0,4,reversed,correct,0.05465003936088364,0,invalid_lose,556.7444747000002,50,,,,,,,,,,,,,,,sub_914,2024-06-16_11h25.00.565,Reversal,2023.1.3,59.88515225501888,2,
8,exp1.png,exp2.png,,,,,,,,,,,,,,,,,,1,0,1,0,0,8,8,8,,,,,,,,,False,27,88,True,exp2.png,exp1.png,trial_right_image,-1,exp1.png,2,exp1.png,exp2.png,1,1,non-reversed,correct,0.050476755835914044,0,invalid_lose,560.9420140999998,50,,,,,,,,,,,,,,,sub_914,2024-06-16_11h25.00.565,Reversal,2023.1.3,59.88515225501888,2,
9,exp3.png,exp4.png,,,,,,,,,,,,,,,,,,1,0,1,0,0,9,9,9,,,,,,,,,False,28,89,False,exp3.png,exp4.png,trial_left_image,1,exp3.png,2,exp4.png,exp3.png,1,3,reversed,incorrect,0.2921244301024952,0,valid_lose,565.2237483000001,50,,,,,,,,,,,,,,,sub_914,2024-06-16_11h25.00.565,Reversal,2023.1.3,59.88515225501888,2,
10,exp1.png,exp2.png,,,,,,,,,,,,,,,,,,1,0,1,0,0,10,10,10,,,,,,,,,False,29,90,False,exp1.png,exp2.png,trial_right_image,-1,exp2.png,2,exp1.png,exp2.png,0,2,non-reversed,incorrect,0.4824487372885241,0,valid_lose,569.2731099,50,,,,,,,,,,,,,,,sub_914,2024-06-16_11h25.00.565,Reversal,2023.1.3,59.88515225501888,2,
11,exp3.png,exp4.png,,,,,,,,,,,,,,,,,,1,0,1,0,0,11,11,11,,,,,,,,,False,30,91,False,exp3.png,exp4.png,trial_left_image,1,exp3.png,2,exp4.png,exp3.png,1,3,reversed,incorrect,0.7012566694884581,0,valid_lose,574.6549437000001,50,,,,,,,,,,,,,,,sub_914,2024-06-16_11h25.00.565,Reversal,2023.1.3,59.88515225501888,2,
12,exp1.png,exp2.png,,,,,,,,,,,,,,,,,,1,0,1,0,0,12,12,12,,,,,,,,,False,31,92,True,exp2.png,exp1.png,trial_right_image,-1,exp1.png,2,exp1.png,exp2.png,1,1,non-reversed,correct,0.30837669947018054,1,valid_win,578.6047571000001,51,,,,,,,,,,,,,,,sub_914,2024-06-16_11h25.00.565,Reversal,2023.1.3,59.88515225501888,2,
13,exp3.png,exp4.png,,,,,,,,,,,,,,,,,,1,0,1,0,0,13,13,13,,,,,,,,,False,32,93,False,exp3.png,exp4.png,trial_left_image,1,exp3.png,2,exp4.png,exp3.png,1,3,reversed,incorrect,0.7444283532783341,0,valid_lose,582.8349672000002,51,,,,,,,,,,,,,,,sub_914,2024-06-16_11h25.00.565,Reversal,2023.1.3,59.88515225501888,2,
14,exp1.png,exp2.png,,,,,,,,,,,,,,,,,,1,0,1,0,0,14,14,14,,,,,,,,,False,33,94,False,exp1.png,exp2.png,trial_left_image,1,exp1.png,2,exp1.png,exp2.png,1,1,non-reversed,correct,0.15619677757976813,0,invalid_lose,587.1331290999999,51,,,,,,,,,,,,,,,sub_914,2024-06-16_11h25.00.565,Reversal,2023.1.3,59.88515225501888,2,
15,exp3.png,exp4.png,,,,,,,,,,,,,,,,,,1,0,1,0,0,15,15,15,,,,,,,,,False,34,95,True,exp4.png,exp3.png,trial_right_image,-1,exp3.png,2,exp4.png,exp3.png,1,3,reversed,incorrect,0.7198511558293578,0,valid_lose,595.0812471000002,51,,,,,,,,,,,,,,,sub_914,2024-06-16_11h25.00.565,Reversal,2023.1.3,59.88515225501888,2,
16,exp1.png,exp2.png,,,,,,,,,,,,,,,,,,1,0,1,0,0,16,16,16,,,,,,,,,False,35,96,True,exp2.png,exp1.png,trial_right_image,-1,exp1.png,2,exp1.png,exp2.png,1,1,non-reversed,correct,0.7743242638219872,1,valid_win,599.8789810000001,52,,,,,,,,,,,,,,,sub_914,2024-06-16_11h25.00.565,Reversal,2023.1.3,59.88515225501888,2,
17,exp3.png,exp4.png,,,,,,,,,,,,,,,,,,1,0,1,0,0,17,17,17,,,,,,,,,False,36,97,False,exp3.png,exp4.png,trial_left_image,1,exp3.png,2,exp4.png,exp3.png,1,3,reversed,incorrect,0.4685378843982789,0,valid_lose,604.8605973000001,52,,,,,,,,,,,,,,,sub_914,2024-06-16_11h25.00.565,Reversal,2023.1.3,59.88515225501888,2,
18,exp1.png,exp2.png,,,,,,,,,,,,,,,,,,1,0,1,0,0,18,18,18,,,,,,,,,False,37,98,False,exp1.png,exp2.png,trial_left_image,1,exp1.png,2,exp1.png,exp2.png,1,1,non-reversed,correct,0.6617955176754673,1,valid_win,609.4256585,53,,,,,,,,,,,,,,,sub_914,2024-06-16_11h25.00.565,Reversal,2023.1.3,59.88515225501888,2,
19,exp3.png,exp4.png,,,,,,,,,,,,,,,,,,1,0,1,0,0,19,19,19,,,,,,,,,False,38,99,False,exp3.png,exp4.png,trial_right_image,-1,exp4.png,2,exp4.png,exp3.png,0,4,reversed,correct,0.6901210172788301,1,valid_win,613.4911706,54,,,,,,,,,,,,,,,sub_914,2024-06-16_11h25.00.565,Reversal,2023.1.3,59.88515225501888,2,
20,exp1.png,exp2.png,,,,,,,,,,,,,,,,,,1,0,1,0,0,20,20,20,,,,,,,,,False,39,100,False,exp1.png,exp2.png,trial_left_image,1,exp1.png,2,exp1.png,exp2.png,1,1,non-reversed,correct,0.8760403367301491,1,valid_win,617.7898542,55,,,,,,,,,,,,,,,sub_914,2024-06-16_11h25.00.565,Reversal,2023.1.3,59.88515225501888,2,
,,,exp1.png,,,,,,,,,,,,,,,,,1,0,1,0,,,,,0,0,0,0,0,0,0,0,,,,,,,,,,,,,,,,,,,,,,692.3012718999998,79.0,79.0,3.0732606000001397,"[(79.0, 3.0732606000001397)]",,,,,,,,,,sub_914,2024-06-16_11h25.00.565,Reversal,2023.1.3,59.88515225501888,2,
,,,exp2.png,,,,,,,,,,,,,,,,,1,0,1,0,,,,,0,0,0,0,0,1,1,1,,,,,,,,,,,,,,,,,,,,,,696.4819889999999,,36.0,3.1103039999998146,"[(36.0, 3.1103039999998146)]",36.0,,,,,,,,,sub_914,2024-06-16_11h25.00.565,Reversal,2023.1.3,59.88515225501888,2,
,,,exp3.png,,,,,,,,,,,,,,,,,1,0,1,0,,,,,0,0,0,0,0,2,2,2,,,,,,,,,,,,,,,,,,,,,,700.4605825999997,,None,None,[],,,,,,,,,,sub_914,2024-06-16_11h25.00.565,Reversal,2023.1.3,59.88515225501888,2,
,,,exp4.png,,,,,,,,,,,,,,,,,1,0,1,0,,,,,0,0,0,0,0,3,3,3,,,,,,,,,,,,,,,,,,,,,,702.6767052999999,,None,None,[],,,,,,,,,,sub_914,2024-06-16_11h25.00.565,Reversal,2023.1.3,59.88515225501888,2,
0,exp1.png,exp2.png,,,,,,,,,,,,,,,,,,2,0,2,0,0,0,0,0,,,,,,,,,True,,,,,,,,,,,,,,,,,,,,,,,,,,,,,,,,,,,sub_914,2024-06-16_11h25.00.565,Reversal,2023.1.3,59.88515225501888,2,
1,exp3.png,exp4.png,,,,,,,,,,,,,,,,,,2,0,2,0,0,1,1,1,,,,,,,,,False,40,101,True,exp4.png,exp3.png,trial_right_image,-1,exp3.png,2,exp4.png,exp3.png,1,3,reversed,incorrect,0.07588326927906897,1,invalid_win,634.1508313000002,56,,,,,,,,,,,,,,,sub_914,2024-06-16_11h25.00.565,Reversal,2023.1.3,59.88515225501888,2,
2,exp1.png,exp2.png,,,,,,,,,,,,,,,,,,2,0,2,0,0,2,2,2,,,,,,,,,False,41,102,True,exp2.png,exp1.png,trial_right_image,-1,exp1.png,2,exp1.png,exp2.png,1,1,non-reversed,correct,0.6553072405358391,1,valid_win,638.3162395000002,57,,,,,,,,,,,,,,,sub_914,2024-06-16_11h25.00.565,Reversal,2023.1.3,59.88515225501888,2,
3,exp3.png,exp4.png,,,,,,,,,,,,,,,,,,2,0,2,0,0,3,3,3,,,,,,,,,False,42,103,False,exp3.png,exp4.png,trial_left_image,1,exp3.png,2,exp4.png,exp3.png,1,3,reversed,incorrect,0.5248798676897106,0,valid_lose,642.3980177999999,57,,,,,,,,,,,,,,,sub_914,2024-06-16_11h25.00.565,Reversal,2023.1.3,59.88515225501888,2,
4,exp1.png,exp2.png,,,,,,,,,,,,,,,,,,2,0,2,0,0,4,4,4,,,,,,,,,False,43,104,True,exp2.png,exp1.png,trial_right_image,-1,exp1.png,2,exp1.png,exp2.png,1,1,non-reversed,correct,0.3903725932989157,1,valid_win,646.6801103,58,,,,,,,,,,,,,,,sub_914,2024-06-16_11h25.00.565,Reversal,2023.1.3,59.88515225501888,2,
5,exp3.png,exp4.png,,,,,,,,,,,,,,,,,,2,0,2,0,0,5,5,5,,,,,,,,,False,44,105,True,exp4.png,exp3.png,trial_right_image,-1,exp3.png,2,exp4.png,exp3.png,1,3,reversed,incorrect,0.4861108895149828,0,valid_lose,650.7615680000001,58,,,,,,,,,,,,,,,sub_914,2024-06-16_11h25.00.565,Reversal,2023.1.3,59.88515225501888,2,
6,exp1.png,exp2.png,,,,,,,,,,,,,,,,,,2,0,2,0,0,6,6,6,,,,,,,,,False,45,106,True,exp2.png,exp1.png,trial_right_image,-1,exp1.png,2,exp1.png,exp2.png,1,1,non-reversed,correct,0.6193472698743658,1,valid_win,654.7441114000001,59,,,,,,,,,,,,,,,sub_914,2024-06-16_11h25.00.565,Reversal,2023.1.3,59.88515225501888,2,
7,exp3.png,exp4.png,,,,,,,,,,,,,,,,,,2,0,2,0,0,7,7,7,,,,,,,,,False,46,107,True,exp4.png,exp3.png,trial_left_image,1,exp4.png,2,exp4.png,exp3.png,0,4,reversed,correct,0.31929816501436314,1,valid_win,660.6090547000001,60,,,,,,,,,,,,,,,sub_914,2024-06-16_11h25.00.565,Reversal,2023.1.3,59.88515225501888,2,
8,exp1.png,exp2.png,,,,,,,,,,,,,,,,,,2,0,2,0,0,8,8,8,,,,,,,,,False,47,108,False,exp1.png,exp2.png,trial_left_image,1,exp1.png,2,exp1.png,exp2.png,1,1,non-reversed,correct,0.20824211161265205,0,invalid_lose,665.0237768999998,60,,,,,,,,,,,,,,,sub_914,2024-06-16_11h25.00.565,Reversal,2023.1.3,59.88515225501888,2,
9,exp3.png,exp4.png,,,,,,,,,,,,,,,,,,2,0,2,0,0,9,9,9,,,,,,,,,False,48,109,True,exp4.png,exp3.png,trial_left_image,1,exp4.png,2,exp4.png,exp3.png,0,4,reversed,correct,0.7413049561805546,1,valid_win,670.5556150999998,61,,,,,,,,,,,,,,,sub_914,2024-06-16_11h25.00.565,Reversal,2023.1.3,59.88515225501888,2,
10,exp1.png,exp2.png,,,,,,,,,,,,,,,,,,2,0,2,0,0,10,10,10,,,,,,,,,False,49,110,False,exp1.png,exp2.png,trial_right_image,-1,exp2.png,2,exp1.png,exp2.png,0,2,non-reversed,incorrect,0.36906704329297335,0,valid_lose,675.4868330000002,61,,,,,,,,,,,,,,,sub_914,2024-06-16_11h25.00.565,Reversal,2023.1.3,59.88515225501888,2,
11,exp3.png,exp4.png,,,,,,,,,,,,,,,,,,2,0,2,0,0,11,11,11,,,,,,,,,False,50,111,False,exp3.png,exp4.png,trial_left_image,1,exp3.png,2,exp4.png,exp3.png,1,3,reversed,incorrect,0.8975142695484392,0,valid_lose,681.4015345,61,,,,,,,,,,,,,,,sub_914,2024-06-16_11h25.00.565,Reversal,2023.1.3,59.88515225501888,2,
12,exp1.png,exp2.png,,,,,,,,,,,,,,,,,,2,0,2,0,0,12,12,12,,,,,,,,,False,51,112,False,exp1.png,exp2.png,trial_left_image,1,exp1.png,2,exp1.png,exp2.png,1,1,non-reversed,correct,0.7515225169303447,1,valid_win,686.5001851,62,,,,,,,,,,,,,,,sub_914,2024-06-16_11h25.00.565,Reversal,2023.1.3,59.88515225501888,2,
13,exp3.png,exp4.png,,,,,,,,,,,,,,,,,,2,0,2,0,0,13,13,13,,,,,,,,,False,52,113,False,exp3.png,exp4.png,trial_left_image,1,exp3.png,2,exp4.png,exp3.png,1,3,reversed,incorrect,0.3593533464118306,0,valid_lose,690.7153003999999,62,,,,,,,,,,,,,,,sub_914,2024-06-16_11h25.00.565,Reversal,2023.1.3,59.88515225501888,2,
14,exp1.png,exp2.png,,,,,,,,,,,,,,,,,,2,0,2,0,0,14,14,14,,,,,,,,,False,53,114,False,exp1.png,exp2.png,trial_left_image,1,exp1.png,2,exp1.png,exp2.png,1,1,non-reversed,correct,0.44096352093936964,1,valid_win,694.9632616000001,63,,,,,,,,,,,,,,,sub_914,2024-06-16_11h25.00.565,Reversal,2023.1.3,59.88515225501888,2,
15,exp3.png,exp4.png,,,,,,,,,,,,,,,,,,2,0,2,0,0,15,15,15,,,,,,,,,False,54,115,False,exp3.png,exp4.png,trial_left_image,1,exp3.png,2,exp4.png,exp3.png,1,3,reversed,incorrect,0.9820743015287527,0,valid_lose,699.3285140999999,63,,,,,,,,,,,,,,,sub_914,2024-06-16_11h25.00.565,Reversal,2023.1.3,59.88515225501888,2,
16,exp1.png,exp2.png,,,,,,,,,,,,,,,,,,2,0,2,0,0,16,16,16,,,,,,,,,False,55,116,True,exp2.png,exp1.png,trial_right_image,-1,exp1.png,2,exp1.png,exp2.png,1,1,non-reversed,correct,0.5969866586696962,1,valid_win,704.7104725000002,64,,,,,,,,,,,,,,,sub_914,2024-06-16_11h25.00.565,Reversal,2023.1.3,59.88515225501888,2,
17,exp3.png,exp4.png,,,,,,,,,,,,,,,,,,2,0,2,0,0,17,17,17,,,,,,,,,False,56,117,True,exp4.png,exp3.png,trial_left_image,1,exp4.png,2,exp4.png,exp3.png,0,4,reversed,correct,0.20760967191386726,0,invalid_lose,709.5921111,64,,,,,,,,,,,,,,,sub_914,2024-06-16_11h25.00.565,Reversal,2023.1.3,59.88515225501888,2,
18,exp1.png,exp2.png,,,,,,,,,,,,,,,,,,2,0,2,0,0,18,18,18,,,,,,,,,False,57,118,True,exp2.png,exp1.png,trial_right_image,-1,exp1.png,2,exp1.png,exp2.png,1,1,non-reversed,correct,0.14301676567276034,0,invalid_lose,713.6248352999999,64,,,,,,,,,,,,,,,sub_914,2024-06-16_11h25.00.565,Reversal,2023.1.3,59.88515225501888,2,
19,exp3.png,exp4.png,,,,,,,,,,,,,,,,,,2,0,2,0,0,19,19,19,,,,,,,,,False,58,119,False,exp3.png,exp4.png,trial_left_image,1,exp3.png,2,exp4.png,exp3.png,1,3,reversed,incorrect,0.1090990772874133,1,invalid_win,717.6393001999998,65,,,,,,,,,,,,,,,sub_914,2024-06-16_11h25.00.565,Reversal,2023.1.3,59.88515225501888,2,
20,exp1.png,exp2.png,,,,,,,,,,,,,,,,,,2,0,2,0,0,20,20,20,,,,,,,,,False,59,120,False,exp1.png,exp2.png,trial_left_image,1,exp1.png,2,exp1.png,exp2.png,1,1,non-reversed,correct,0.9536949312418389,1,valid_win,721.9712191000001,66,,,,,,,,,,,,,,,sub_914,2024-06-16_11h25.00.565,Reversal,2023.1.3,59.88515225501888,2,
,,,exp1.png,,,,,,,,,,,,,,,,,2,0,2,0,,,,,0,0,0,0,0,0,0,0,,,,,,,,,,,,,,,,,,,,,,796.4856614999999,,None,None,[],,,,,,,,,,sub_914,2024-06-16_11h25.00.565,Reversal,2023.1.3,59.88515225501888,2,
,,,exp2.png,,,,,,,,,,,,,,,,,2,0,2,0,,,,,0,0,0,0,0,1,1,1,,,,,,,,,,,,,,,,,,,,,,798.8775931999999,,None,None,[],,,,,,,,,,sub_914,2024-06-16_11h25.00.565,Reversal,2023.1.3,59.88515225501888,2,
,,,exp3.png,,,,,,,,,,,,,,,,,2,0,2,0,,,,,0,0,0,0,0,2,2,2,,,,,,,,,,,,,,,,,,,,,,801.5429091999999,,None,None,[],,,,,,,,,,sub_914,2024-06-16_11h25.00.565,Reversal,2023.1.3,59.88515225501888,2,
,,,exp4.png,,,,,,,,,,,,,,,,,2,0,2,0,,,,,0,0,0,0,0,3,3,3,,,,,,,,,,,,,,,,,,,,,,802.9082641999998,,None,None,[],,,,,,,,,,sub_914,2024-06-16_11h25.00.565,Reversal,2023.1.3,59.88515225501888,2,
,,,,,,,,,,,,,,,,,,,,,,,,,,,,,,,,,,,,,,,,,,,,,,,,,,,,,,,,66,,,,,,,,,,76,40,36,314.1706082999999,0,,,,,,,
