trial_index,trial_image1_file,trial_image2_file,image_file,learning_outer_loop.thisRepN,learning_outer_loop.thisTrialN,learning_outer_loop.thisN,learning_outer_loop.thisIndex,learning_inner_loop.thisRepN,learning_inner_loop.thisTrialN,learning_inner_loop.thisN,learning_inner_loop.thisIndex,learning_estimation_outer_loop.thisRepN,learning_estimation_outer_loop.thisTrialN,learning_estimation_outer_loop.thisN,learning_estimation_outer_loop.thisIndex,learning_estimation_inner_loop.thisRepN,learning_estimation_inner_loop.thisTrialN,learning_estimation_inner_loop.thisN,learning_estimation_inner_loop.thisIndex,reversal_outer_loop.thisRepN,reversal_outer_loop.thisTrialN,reversal_outer_loop.thisN,reversal_outer_loop.thisIndex,reversal_inner_loop.thisRepN,reversal_inner_loop.thisTrialN,reversal_inner_loop.thisN,reversal_inner_loop.thisIndex,reversal_estimation_outer_loop.thisRepN,reversal_estimation_outer_loop.thisTrialN,reversal_estimation_outer_loop.thisN,reversal_estimation_outer_loop.thisIndex,reversal_estimation_inner_loop.thisRepN,reversal_estimation_inner_loop.thisTrialN,reversal_estimation_inner_loop.thisN,reversal_estimation_inner_loop.thisIndex,skipped,total_trial_counter,trial_num,left_right_flip,left_image_file,right_image_file,clicked_stimulus_side,side,clicked_stimulus,version,high_prob_image_file,low_prob_image_file,choice_a,choice_b,pair_type,correct,trial_feedback_random,reward,trial_type,overall_time_after_trial,score,estimation_rating.started,estimation_exp1.png,estimation_rating.response,estimation_rating.rt,estimation_rating.history,estimation_exp2.png,estimation_exp3.png,estimation_exp4.png,total_learning_time,total_correct,learning_correct,reversal_correct,total_reversal_time,extra_block,participant,date,expName,psychopyVersion,frameRate,ver,
0,exp1.png,exp2.png,,0,0,0,0,0,0,0,0,,,,,,,,,,,,,,,,,,,,,,,,,False,0,1,True,exp2.png,exp1.png,trial_right_image,-1,exp1.png,2,exp1.png,exp2.png,1,1,non-reversed,correct,0.31817466498190106,1,valid_win,4.980439399999341,1,,,,,,,,,,,,,,,sub_406,2023-08-15_10h02.32.038,Reversal,2023.1.3,60.02148769255332,2,
1,exp3.png,exp4.png,,0,0,0,0,0,1,1,1,,,,,,,,,,,,,,,,,,,,,,,,,False,1,2,True,exp4.png,exp3.png,trial_left_image,1,exp4.png,2,exp3.png,exp4.png,0,4,reversed,incorrect,0.7044600616193658,0,valid_lose,12.127784799999972,1,,,,,,,,,,,,,,,sub_406,2023-08-15_10h02.32.038,Reversal,2023.1.3,60.02148769255332,2,
2,exp1.png,exp2.png,,0,0,0,0,0,2,2,2,,,,,,,,,,,,,,,,,,,,,,,,,False,2,3,False,exp1.png,exp2.png,trial_right_image,-1,exp2.png,2,exp1.png,exp2.png,0,2,non-reversed,incorrect,0.052550906398610264,1,invalid_win,18.092583900000136,2,,,,,,,,,,,,,,,sub_406,2023-08-15_10h02.32.038,Reversal,2023.1.3,60.02148769255332,2,
3,exp3.png,exp4.png,,0,0,0,0,0,3,3,3,,,,,,,,,,,,,,,,,,,,,,,,,False,3,4,False,exp3.png,exp4.png,trial_left_image,1,exp3.png,2,exp3.png,exp4.png,1,3,reversed,correct,0.839311538826297,1,valid_win,25.0898815999999,3,,,,,,,,,,,,,,,sub_406,2023-08-15_10h02.32.038,Reversal,2023.1.3,60.02148769255332,2,
4,exp1.png,exp2.png,,0,0,0,0,0,4,4,4,,,,,,,,,,,,,,,,,,,,,,,,,False,4,5,True,exp2.png,exp1.png,trial_left_image,1,exp2.png,2,exp1.png,exp2.png,0,2,non-reversed,incorrect,0.9884901800128948,0,valid_lose,32.787900100000115,3,,,,,,,,,,,,,,,sub_406,2023-08-15_10h02.32.038,Reversal,2023.1.3,60.02148769255332,2,
5,exp3.png,exp4.png,,0,0,0,0,0,5,5,5,,,,,,,,,,,,,,,,,,,,,,,,,False,5,6,False,exp3.png,exp4.png,trial_right_image,-1,exp4.png,2,exp3.png,exp4.png,0,4,reversed,incorrect,0.4765231093268433,0,valid_lose,39.86896449999949,3,,,,,,,,,,,,,,,sub_406,2023-08-15_10h02.32.038,Reversal,2023.1.3,60.02148769255332,2,
6,exp1.png,exp2.png,,0,0,0,0,0,6,6,6,,,,,,,,,,,,,,,,,,,,,,,,,False,6,7,False,exp1.png,exp2.png,trial_left_image,1,exp1.png,2,exp1.png,exp2.png,1,1,non-reversed,correct,0.42103399819780096,1,valid_win,48.032783099999506,4,,,,,,,,,,,,,,,sub_406,2023-08-15_10h02.32.038,Reversal,2023.1.3,60.02148769255332,2,
7,exp3.png,exp4.png,,0,0,0,0,0,7,7,7,,,,,,,,,,,,,,,,,,,,,,,,,False,7,8,False,exp3.png,exp4.png,trial_left_image,1,exp3.png,2,exp3.png,exp4.png,1,3,reversed,correct,0.7482571841192219,1,valid_win,56.2963835999999,5,,,,,,,,,,,,,,,sub_406,2023-08-15_10h02.32.038,Reversal,2023.1.3,60.02148769255332,2,
8,exp1.png,exp2.png,,0,0,0,0,0,8,8,8,,,,,,,,,,,,,,,,,,,,,,,,,False,8,9,False,exp1.png,exp2.png,trial_right_image,-1,exp2.png,2,exp1.png,exp2.png,0,2,non-reversed,incorrect,0.3574601897825985,0,valid_lose,62.394784699999946,5,,,,,,,,,,,,,,,sub_406,2023-08-15_10h02.32.038,Reversal,2023.1.3,60.02148769255332,2,
9,exp3.png,exp4.png,,0,0,0,0,0,9,9,9,,,,,,,,,,,,,,,,,,,,,,,,,False,9,10,True,exp4.png,exp3.png,trial_left_image,1,exp4.png,2,exp3.png,exp4.png,0,4,reversed,incorrect,0.9868380830503732,0,valid_lose,68.04205850000017,5,,,,,,,,,,,,,,,sub_406,2023-08-15_10h02.32.038,Reversal,2023.1.3,60.02148769255332,2,
10,exp1.png,exp2.png,,0,0,0,0,0,10,10,10,,,,,,,,,,,,,,,,,,,,,,,,,False,10,11,False,exp1.png,exp2.png,trial_right_image,-1,exp2.png,2,exp1.png,exp2.png,0,2,non-reversed,incorrect,0.0037521838175331723,1,invalid_win,77.9887807999994,6,,,,,,,,,,,,,,,sub_406,2023-08-15_10h02.32.038,Reversal,2023.1.3,60.02148769255332,2,
11,exp3.png,exp4.png,,0,0,0,0,0,11,11,11,,,,,,,,,,,,,,,,,,,,,,,,,False,11,12,True,exp4.png,exp3.png,trial_left_image,1,exp4.png,2,exp3.png,exp4.png,0,4,reversed,incorrect,0.12849218967747233,1,invalid_win,87.28631179999957,7,,,,,,,,,,,,,,,sub_406,2023-08-15_10h02.32.038,Reversal,2023.1.3,60.02148769255332,2,
12,exp1.png,exp2.png,,0,0,0,0,0,12,12,12,,,,,,,,,,,,,,,,,,,,,,,,,False,12,13,False,exp1.png,exp2.png,trial_right_image,-1,exp2.png,2,exp1.png,exp2.png,0,2,non-reversed,incorrect,0.06271316372983937,1,invalid_win,93.38355159999992,8,,,,,,,,,,,,,,,sub_406,2023-08-15_10h02.32.038,Reversal,2023.1.3,60.02148769255332,2,
13,exp3.png,exp4.png,,0,0,0,0,0,13,13,13,,,,,,,,,,,,,,,,,,,,,,,,,False,13,14,True,exp4.png,exp3.png,trial_right_image,-1,exp3.png,2,exp3.png,exp4.png,1,3,reversed,correct,0.20974382297004235,0,invalid_lose,104.69654499999979,8,,,,,,,,,,,,,,,sub_406,2023-08-15_10h02.32.038,Reversal,2023.1.3,60.02148769255332,2,
14,exp1.png,exp2.png,,0,0,0,0,0,14,14,14,,,,,,,,,,,,,,,,,,,,,,,,,False,14,15,True,exp2.png,exp1.png,trial_left_image,1,exp2.png,2,exp1.png,exp2.png,0,2,non-reversed,incorrect,0.31186740808773983,0,valid_lose,113.57685479999964,8,,,,,,,,,,,,,,,sub_406,2023-08-15_10h02.32.038,Reversal,2023.1.3,60.02148769255332,2,
15,exp3.png,exp4.png,,0,0,0,0,0,15,15,15,,,,,,,,,,,,,,,,,,,,,,,,,False,15,16,True,exp4.png,exp3.png,trial_right_image,-1,exp3.png,2,exp3.png,exp4.png,1,3,reversed,correct,0.06554285634355594,0,invalid_lose,121.0085027999994,8,,,,,,,,,,,,,,,sub_406,2023-08-15_10h02.32.038,Reversal,2023.1.3,60.02148769255332,2,
16,exp1.png,exp2.png,,0,0,0,0,0,16,16,16,,,,,,,,,,,,,,,,,,,,,,,,,False,16,17,False,exp1.png,exp2.png,trial_right_image,-1,exp2.png,2,exp1.png,exp2.png,0,2,non-reversed,incorrect,0.354204515962076,0,valid_lose,129.1056893999994,8,,,,,,,,,,,,,,,sub_406,2023-08-15_10h02.32.038,Reversal,2023.1.3,60.02148769255332,2,
17,exp3.png,exp4.png,,0,0,0,0,0,17,17,17,,,,,,,,,,,,,,,,,,,,,,,,,False,17,18,False,exp3.png,exp4.png,trial_right_image,-1,exp4.png,2,exp3.png,exp4.png,0,4,reversed,incorrect,0.6527381237124261,0,valid_lose,138.23543659999996,8,,,,,,,,,,,,,,,sub_406,2023-08-15_10h02.32.038,Reversal,2023.1.3,60.02148769255332,2,
18,exp1.png,exp2.png,,0,0,0,0,0,18,18,18,,,,,,,,,,,,,,,,,,,,,,,,,False,18,19,True,exp2.png,exp1.png,trial_left_image,1,exp2.png,2,exp1.png,exp2.png,0,2,non-reversed,incorrect,0.20625024762889566,1,invalid_win,145.6498191999999,9,,,,,,,,,,,,,,,sub_406,2023-08-15_10h02.32.038,Reversal,2023.1.3,60.02148769255332,2,
19,exp3.png,exp4.png,,0,0,0,0,0,19,19,19,,,,,,,,,,,,,,,,,,,,,,,,,False,19,20,True,exp4.png,exp3.png,trial_left_image,1,exp4.png,2,exp3.png,exp4.png,0,4,reversed,incorrect,0.03860650086227613,1,invalid_win,155.64657439999974,10,,,,,,,,,,,,,,,sub_406,2023-08-15_10h02.32.038,Reversal,2023.1.3,60.02148769255332,2,
20,exp1.png,exp2.png,,0,0,0,0,0,20,20,20,,,,,,,,,,,,,,,,,,,,,,,,,True,,,,,,,,,,,,,,,,,,,,,,,,,,,,,,,,,,,sub_406,2023-08-15_10h02.32.038,Reversal,2023.1.3,60.02148769255332,2,
,,,exp1.png,0,0,0,0,,,,,0,0,0,0,0,0,0,0,,,,,,,,,,,,,,,,,,,,,,,,,,,,,,,,,,,,,,234.11741470000015,68.0,68.0,12.669967900000302,"[(68.0, 12.669967900000302)]",,,,,,,,,,sub_406,2023-08-15_10h02.32.038,Reversal,2023.1.3,60.02148769255332,2,
,,,exp2.png,0,0,0,0,,,,,0,0,0,0,0,1,1,1,,,,,,,,,,,,,,,,,,,,,,,,,,,,,,,,,,,,,,247.59936259999995,,99.0,7.590365200000633,"[(99.0, 7.590365200000633)]",99.0,,,,,,,,,sub_406,2023-08-15_10h02.32.038,Reversal,2023.1.3,60.02148769255332,2,
,,,exp3.png,0,0,0,0,,,,,0,0,0,0,0,2,2,2,,,,,,,,,,,,,,,,,,,,,,,,,,,,,,,,,,,,,,256.4070549999997,,75.0,4.544489999999314,"[(75.0, 4.544489999999314)]",,75.0,,,,,,,,sub_406,2023-08-15_10h02.32.038,Reversal,2023.1.3,60.02148769255332,2,
,,,exp4.png,0,0,0,0,,,,,0,0,0,0,0,3,3,3,,,,,,,,,,,,,,,,,,,,,,,,,,,,,,,,,,,,,,261.8226166000004,,97.0,2.1276605000002746,"[(97.0, 2.1276605000002746)]",,,97.0,,,,,,,sub_406,2023-08-15_10h02.32.038,Reversal,2023.1.3,60.02148769255332,2,
0,exp1.png,exp2.png,,1,0,1,0,0,0,0,0,,,,,,,,,,,,,,,,,,,,,,,,,False,20,21,False,exp1.png,exp2.png,trial_right_image,-1,exp2.png,2,exp1.png,exp2.png,0,2,non-reversed,incorrect,0.5001974912656107,0,valid_lose,195.91603810000015,10,,,,,,,,,,,,,,,sub_406,2023-08-15_10h02.32.038,Reversal,2023.1.3,60.02148769255332,2,
1,exp3.png,exp4.png,,1,0,1,0,0,1,1,1,,,,,,,,,,,,,,,,,,,,,,,,,False,21,22,False,exp3.png,exp4.png,trial_left_image,1,exp3.png,2,exp3.png,exp4.png,1,3,reversed,correct,0.48041971528685123,1,valid_win,202.53067889999966,11,,,,,,,,,,,,,,,sub_406,2023-08-15_10h02.32.038,Reversal,2023.1.3,60.02148769255332,2,
2,exp1.png,exp2.png,,1,0,1,0,0,2,2,2,,,,,,,,,,,,,,,,,,,,,,,,,False,22,23,False,exp1.png,exp2.png,trial_right_image,-1,exp2.png,2,exp1.png,exp2.png,0,2,non-reversed,incorrect,0.631401527157605,0,valid_lose,207.22831270000006,11,,,,,,,,,,,,,,,sub_406,2023-08-15_10h02.32.038,Reversal,2023.1.3,60.02148769255332,2,
3,exp3.png,exp4.png,,1,0,1,0,0,3,3,3,,,,,,,,,,,,,,,,,,,,,,,,,False,23,24,True,exp4.png,exp3.png,trial_right_image,-1,exp3.png,2,exp3.png,exp4.png,1,3,reversed,correct,0.5600080574005417,1,valid_win,214.0434048999996,12,,,,,,,,,,,,,,,sub_406,2023-08-15_10h02.32.038,Reversal,2023.1.3,60.02148769255332,2,
4,exp1.png,exp2.png,,1,0,1,0,0,4,4,4,,,,,,,,,,,,,,,,,,,,,,,,,False,24,25,True,exp2.png,exp1.png,trial_left_image,1,exp2.png,2,exp1.png,exp2.png,0,2,non-reversed,incorrect,0.5791124742026634,0,valid_lose,222.9242553999993,12,,,,,,,,,,,,,,,sub_406,2023-08-15_10h02.32.038,Reversal,2023.1.3,60.02148769255332,2,
5,exp3.png,exp4.png,,1,0,1,0,0,5,5,5,,,,,,,,,,,,,,,,,,,,,,,,,False,25,26,False,exp3.png,exp4.png,trial_right_image,-1,exp4.png,2,exp3.png,exp4.png,0,4,reversed,incorrect,0.5028017896676739,0,valid_lose,228.5716967999997,12,,,,,,,,,,,,,,,sub_406,2023-08-15_10h02.32.038,Reversal,2023.1.3,60.02148769255332,2,
6,exp1.png,exp2.png,,1,0,1,0,0,6,6,6,,,,,,,,,,,,,,,,,,,,,,,,,False,26,27,True,exp2.png,exp1.png,trial_right_image,-1,exp1.png,2,exp1.png,exp2.png,1,1,non-reversed,correct,0.7450655765303436,1,valid_win,234.50283020000006,13,,,,,,,,,,,,,,,sub_406,2023-08-15_10h02.32.038,Reversal,2023.1.3,60.02148769255332,2,
7,exp3.png,exp4.png,,1,0,1,0,0,7,7,7,,,,,,,,,,,,,,,,,,,,,,,,,False,27,28,True,exp4.png,exp3.png,trial_left_image,1,exp4.png,2,exp3.png,exp4.png,0,4,reversed,incorrect,0.6758962687974251,0,valid_lose,239.48505229999955,13,,,,,,,,,,,,,,,sub_406,2023-08-15_10h02.32.038,Reversal,2023.1.3,60.02148769255332,2,
8,exp1.png,exp2.png,,1,0,1,0,0,8,8,8,,,,,,,,,,,,,,,,,,,,,,,,,False,28,29,True,exp2.png,exp1.png,trial_right_image,-1,exp1.png,2,exp1.png,exp2.png,1,1,non-reversed,correct,0.052886112309636024,0,invalid_lose,245.58214899999984,13,,,,,,,,,,,,,,,sub_406,2023-08-15_10h02.32.038,Reversal,2023.1.3,60.02148769255332,2,
9,exp3.png,exp4.png,,1,0,1,0,0,9,9,9,,,,,,,,,,,,,,,,,,,,,,,,,False,29,30,False,exp3.png,exp4.png,trial_right_image,-1,exp4.png,2,exp3.png,exp4.png,0,4,reversed,incorrect,0.505087689864156,0,valid_lose,252.8800709999996,13,,,,,,,,,,,,,,,sub_406,2023-08-15_10h02.32.038,Reversal,2023.1.3,60.02148769255332,2,
10,exp1.png,exp2.png,,1,0,1,0,0,10,10,10,,,,,,,,,,,,,,,,,,,,,,,,,False,30,31,False,exp1.png,exp2.png,trial_left_image,1,exp1.png,2,exp1.png,exp2.png,1,1,non-reversed,correct,0.6559551806478133,1,valid_win,257.16162649999933,14,,,,,,,,,,,,,,,sub_406,2023-08-15_10h02.32.038,Reversal,2023.1.3,60.02148769255332,2,
11,exp3.png,exp4.png,,1,0,1,0,0,11,11,11,,,,,,,,,,,,,,,,,,,,,,,,,False,31,32,True,exp4.png,exp3.png,trial_right_image,-1,exp3.png,2,exp3.png,exp4.png,1,3,reversed,correct,0.7155512890793136,1,valid_win,262.2100958000001,15,,,,,,,,,,,,,,,sub_406,2023-08-15_10h02.32.038,Reversal,2023.1.3,60.02148769255332,2,
12,exp1.png,exp2.png,,1,0,1,0,0,12,12,12,,,,,,,,,,,,,,,,,,,,,,,,,False,32,33,False,exp1.png,exp2.png,trial_right_image,-1,exp2.png,2,exp1.png,exp2.png,0,2,non-reversed,incorrect,0.04150655250908142,1,invalid_win,267.3254116999997,16,,,,,,,,,,,,,,,sub_406,2023-08-15_10h02.32.038,Reversal,2023.1.3,60.02148769255332,2,
13,exp3.png,exp4.png,,1,0,1,0,0,13,13,13,,,,,,,,,,,,,,,,,,,,,,,,,False,33,34,False,exp3.png,exp4.png,trial_left_image,1,exp3.png,2,exp3.png,exp4.png,1,3,reversed,correct,0.6376653497409596,1,valid_win,273.25631089999933,17,,,,,,,,,,,,,,,sub_406,2023-08-15_10h02.32.038,Reversal,2023.1.3,60.02148769255332,2,
14,exp1.png,exp2.png,,1,0,1,0,0,14,14,14,,,,,,,,,,,,,,,,,,,,,,,,,False,34,35,True,exp2.png,exp1.png,trial_right_image,-1,exp1.png,2,exp1.png,exp2.png,1,1,non-reversed,correct,0.5090201412528411,1,valid_win,278.20475350000015,18,,,,,,,,,,,,,,,sub_406,2023-08-15_10h02.32.038,Reversal,2023.1.3,60.02148769255332,2,
15,exp3.png,exp4.png,,1,0,1,0,0,15,15,15,,,,,,,,,,,,,,,,,,,,,,,,,False,35,36,True,exp4.png,exp3.png,trial_left_image,1,exp4.png,2,exp3.png,exp4.png,0,4,reversed,incorrect,0.7016088391650738,0,valid_lose,284.20284399999946,18,,,,,,,,,,,,,,,sub_406,2023-08-15_10h02.32.038,Reversal,2023.1.3,60.02148769255332,2,
16,exp1.png,exp2.png,,1,0,1,0,0,16,16,16,,,,,,,,,,,,,,,,,,,,,,,,,False,36,37,False,exp1.png,exp2.png,trial_right_image,-1,exp2.png,2,exp1.png,exp2.png,0,2,non-reversed,incorrect,0.05944894423366898,1,invalid_win,290.967001,19,,,,,,,,,,,,,,,sub_406,2023-08-15_10h02.32.038,Reversal,2023.1.3,60.02148769255332,2,
17,exp3.png,exp4.png,,1,0,1,0,0,17,17,17,,,,,,,,,,,,,,,,,,,,,,,,,False,37,38,True,exp4.png,exp3.png,trial_left_image,1,exp4.png,2,exp3.png,exp4.png,0,4,reversed,incorrect,0.6603646342688481,0,valid_lose,296.7652271999996,19,,,,,,,,,,,,,,,sub_406,2023-08-15_10h02.32.038,Reversal,2023.1.3,60.02148769255332,2,
18,exp1.png,exp2.png,,1,0,1,0,0,18,18,18,,,,,,,,,,,,,,,,,,,,,,,,,False,38,39,True,exp2.png,exp1.png,trial_right_image,-1,exp1.png,2,exp1.png,exp2.png,1,1,non-reversed,correct,0.6775436814754716,1,valid_win,301.0971161999996,20,,,,,,,,,,,,,,,sub_406,2023-08-15_10h02.32.038,Reversal,2023.1.3,60.02148769255332,2,
19,exp3.png,exp4.png,,1,0,1,0,0,19,19,19,,,,,,,,,,,,,,,,,,,,,,,,,False,39,40,False,exp3.png,exp4.png,trial_right_image,-1,exp4.png,2,exp3.png,exp4.png,0,4,reversed,incorrect,0.5884900828712816,0,valid_lose,306.67869059999975,20,,,,,,,,,,,,,,,sub_406,2023-08-15_10h02.32.038,Reversal,2023.1.3,60.02148769255332,2,
20,exp1.png,exp2.png,,1,0,1,0,0,20,20,20,,,,,,,,,,,,,,,,,,,,,,,,,True,,,,,,,,,,,,,,,,,,,,,,,,,,,,,,,,,,,sub_406,2023-08-15_10h02.32.038,Reversal,2023.1.3,60.02148769255332,2,
,,,exp1.png,1,0,1,0,,,,,0,0,0,0,0,0,0,0,,,,,,,,,,,,,,,,,,,,,,,,,,,,,,,,,,,,,,385.15009180000015,97.0,97.0,4.26380109999991,"[(97.0, 4.26380109999991)]",,,,,,,,,,sub_406,2023-08-15_10h02.32.038,Reversal,2023.1.3,60.02148769255332,2,
,,,exp2.png,1,0,1,0,,,,,0,0,0,0,0,1,1,1,,,,,,,,,,,,,,,,,,,,,,,,,,,,,,,,,,,,,,390.46177850000004,,None,None,[],,,,,,,,,,sub_406,2023-08-15_10h02.32.038,Reversal,2023.1.3,60.02148769255332,2,
,,,exp3.png,1,0,1,0,,,,,0,0,0,0,0,2,2,2,,,,,,,,,,,,,,,,,,,,,,,,,,,,,,,,,,,,,,393.42800780000016,,None,None,[],,,,,,,,,,sub_406,2023-08-15_10h02.32.038,Reversal,2023.1.3,60.02148769255332,2,
,,,exp4.png,1,0,1,0,,,,,0,0,0,0,0,3,3,3,,,,,,,,,,,,,,,,,,,,,,,,,,,,,,,,,,,,,,395.65821549999964,,78.0,1.411269899999752,"[(78.0, 1.411269899999752)]",,,78.0,,,,,,,sub_406,2023-08-15_10h02.32.038,Reversal,2023.1.3,60.02148769255332,2,
0,exp1.png,exp2.png,,2,0,2,0,0,0,0,0,,,,,,,,,,,,,,,,,,,,,,,,,False,40,41,True,exp2.png,exp1.png,trial_right_image,-1,exp1.png,2,exp1.png,exp2.png,1,1,non-reversed,correct,0.4047251609661813,1,valid_win,327.8382950999994,21,,,,,,,,,,,,,,,sub_406,2023-08-15_10h02.32.038,Reversal,2023.1.3,60.02148769255332,2,
1,exp3.png,exp4.png,,2,0,2,0,0,1,1,1,,,,,,,,,,,,,,,,,,,,,,,,,False,41,42,True,exp4.png,exp3.png,trial_right_image,-1,exp3.png,2,exp3.png,exp4.png,1,3,reversed,correct,0.5612783900041306,1,valid_win,334.8021896,22,,,,,,,,,,,,,,,sub_406,2023-08-15_10h02.32.038,Reversal,2023.1.3,60.02148769255332,2,
2,exp1.png,exp2.png,,2,0,2,0,0,2,2,2,,,,,,,,,,,,,,,,,,,,,,,,,False,42,43,True,exp2.png,exp1.png,trial_left_image,1,exp2.png,2,exp1.png,exp2.png,0,2,non-reversed,incorrect,0.2074490572976423,1,invalid_win,341.88311989999966,23,,,,,,,,,,,,,,,sub_406,2023-08-15_10h02.32.038,Reversal,2023.1.3,60.02148769255332,2,
3,exp3.png,exp4.png,,2,0,2,0,0,3,3,3,,,,,,,,,,,,,,,,,,,,,,,,,False,43,44,True,exp4.png,exp3.png,trial_right_image,-1,exp3.png,2,exp3.png,exp4.png,1,3,reversed,correct,0.9749172060472837,1,valid_win,346.58181369999966,24,,,,,,,,,,,,,,,sub_406,2023-08-15_10h02.32.038,Reversal,2023.1.3,60.02148769255332,2,
4,exp1.png,exp2.png,,2,0,2,0,0,4,4,4,,,,,,,,,,,,,,,,,,,,,,,,,False,44,45,False,exp1.png,exp2.png,trial_left_image,1,exp1.png,2,exp1.png,exp2.png,1,1,non-reversed,correct,0.1442048136567261,0,invalid_lose,353.9799658000002,24,,,,,,,,,,,,,,,sub_406,2023-08-15_10h02.32.038,Reversal,2023.1.3,60.02148769255332,2,
5,exp3.png,exp4.png,,2,0,2,0,0,5,5,5,,,,,,,,,,,,,,,,,,,,,,,,,False,45,46,False,exp3.png,exp4.png,trial_right_image,-1,exp4.png,2,exp3.png,exp4.png,0,4,reversed,incorrect,0.1305023913538369,1,invalid_win,359.6610375,25,,,,,,,,,,,,,,,sub_406,2023-08-15_10h02.32.038,Reversal,2023.1.3,60.02148769255332,2,
6,exp1.png,exp2.png,,2,0,2,0,0,6,6,6,,,,,,,,,,,,,,,,,,,,,,,,,False,46,47,False,exp1.png,exp2.png,trial_right_image,-1,exp2.png,2,exp1.png,exp2.png,0,2,non-reversed,incorrect,0.8958125964102222,0,valid_lose,365.60852759999943,25,,,,,,,,,,,,,,,sub_406,2023-08-15_10h02.32.038,Reversal,2023.1.3,60.02148769255332,2,
7,exp3.png,exp4.png,,2,0,2,0,0,7,7,7,,,,,,,,,,,,,,,,,,,,,,,,,False,47,48,True,exp4.png,exp3.png,trial_left_image,1,exp4.png,2,exp3.png,exp4.png,0,4,reversed,incorrect,0.757755975819589,0,valid_lose,371.6063088000001,25,,,,,,,,,,,,,,,sub_406,2023-08-15_10h02.32.038,Reversal,2023.1.3,60.02148769255332,2,
8,exp1.png,exp2.png,,2,0,2,0,0,8,8,8,,,,,,,,,,,,,,,,,,,,,,,,,False,48,49,True,exp2.png,exp1.png,trial_left_image,1,exp2.png,2,exp1.png,exp2.png,0,2,non-reversed,incorrect,0.03881404368271113,1,invalid_win,377.43816179999976,26,,,,,,,,,,,,,,,sub_406,2023-08-15_10h02.32.038,Reversal,2023.1.3,60.02148769255332,2,
9,exp3.png,exp4.png,,2,0,2,0,0,9,9,9,,,,,,,,,,,,,,,,,,,,,,,,,False,49,50,False,exp3.png,exp4.png,trial_right_image,-1,exp4.png,2,exp3.png,exp4.png,0,4,reversed,incorrect,0.5312135173753623,0,valid_lose,382.4694419999996,26,,,,,,,,,,,,,,,sub_406,2023-08-15_10h02.32.038,Reversal,2023.1.3,60.02148769255332,2,
10,exp1.png,exp2.png,,2,0,2,0,0,10,10,10,,,,,,,,,,,,,,,,,,,,,,,,,False,50,51,True,exp2.png,exp1.png,trial_right_image,-1,exp1.png,2,exp1.png,exp2.png,1,1,non-reversed,correct,0.7732292329685416,1,valid_win,389.9011952999999,27,,,,,,,,,,,,,,,sub_406,2023-08-15_10h02.32.038,Reversal,2023.1.3,60.02148769255332,2,
11,exp3.png,exp4.png,,2,0,2,0,0,11,11,11,,,,,,,,,,,,,,,,,,,,,,,,,False,51,52,False,exp3.png,exp4.png,trial_right_image,-1,exp4.png,2,exp3.png,exp4.png,0,4,reversed,incorrect,0.36411574613519027,0,valid_lose,396.11482720000004,27,,,,,,,,,,,,,,,sub_406,2023-08-15_10h02.32.038,Reversal,2023.1.3,60.02148769255332,2,
12,exp1.png,exp2.png,,2,0,2,0,0,12,12,12,,,,,,,,,,,,,,,,,,,,,,,,,False,52,53,False,exp1.png,exp2.png,trial_right_image,-1,exp2.png,2,exp1.png,exp2.png,0,2,non-reversed,incorrect,0.08714649375398309,1,invalid_win,403.2453236000001,28,,,,,,,,,,,,,,,sub_406,2023-08-15_10h02.32.038,Reversal,2023.1.3,60.02148769255332,2,
13,exp3.png,exp4.png,,2,0,2,0,0,13,13,13,,,,,,,,,,,,,,,,,,,,,,,,,False,53,54,True,exp4.png,exp3.png,trial_right_image,-1,exp3.png,2,exp3.png,exp4.png,1,3,reversed,correct,0.5919962729967811,1,valid_win,411.9100080999997,29,,,,,,,,,,,,,,,sub_406,2023-08-15_10h02.32.038,Reversal,2023.1.3,60.02148769255332,2,
14,exp1.png,exp2.png,,2,0,2,0,0,14,14,14,,,,,,,,,,,,,,,,,,,,,,,,,False,54,55,False,exp1.png,exp2.png,trial_left_image,1,exp1.png,2,exp1.png,exp2.png,1,1,non-reversed,correct,0.6836465285861688,1,valid_win,416.7078739999997,30,,,,,,,,,,,,,,,sub_406,2023-08-15_10h02.32.038,Reversal,2023.1.3,60.02148769255332,2,
15,exp3.png,exp4.png,,2,0,2,0,0,15,15,15,,,,,,,,,,,,,,,,,,,,,,,,,False,55,56,False,exp3.png,exp4.png,trial_right_image,-1,exp4.png,2,exp3.png,exp4.png,0,4,reversed,incorrect,0.46623043117153695,0,valid_lose,421.62253539999983,30,,,,,,,,,,,,,,,sub_406,2023-08-15_10h02.32.038,Reversal,2023.1.3,60.02148769255332,2,
16,exp1.png,exp2.png,,2,0,2,0,0,16,16,16,,,,,,,,,,,,,,,,,,,,,,,,,False,56,57,True,exp2.png,exp1.png,trial_right_image,-1,exp1.png,2,exp1.png,exp2.png,1,1,non-reversed,correct,0.6500419573791043,1,valid_win,426.68771599999945,31,,,,,,,,,,,,,,,sub_406,2023-08-15_10h02.32.038,Reversal,2023.1.3,60.02148769255332,2,
17,exp3.png,exp4.png,,2,0,2,0,0,17,17,17,,,,,,,,,,,,,,,,,,,,,,,,,False,57,58,False,exp3.png,exp4.png,trial_left_image,1,exp3.png,2,exp3.png,exp4.png,1,3,reversed,correct,0.045839494756716115,0,invalid_lose,433.3187930999993,31,,,,,,,,,,,,,,,sub_406,2023-08-15_10h02.32.038,Reversal,2023.1.3,60.02148769255332,2,
18,exp1.png,exp2.png,,2,0,2,0,0,18,18,18,,,,,,,,,,,,,,,,,,,,,,,,,False,58,59,False,exp1.png,exp2.png,trial_right_image,-1,exp2.png,2,exp1.png,exp2.png,0,2,non-reversed,incorrect,0.679323906847225,0,valid_lose,438.0504221000001,31,,,,,,,,,,,,,,,sub_406,2023-08-15_10h02.32.038,Reversal,2023.1.3,60.02148769255332,2,
19,exp3.png,exp4.png,,2,0,2,0,0,19,19,19,,,,,,,,,,,,,,,,,,,,,,,,,False,59,60,True,exp4.png,exp3.png,trial_left_image,1,exp4.png,2,exp3.png,exp4.png,0,4,reversed,incorrect,0.6775957322515448,0,valid_lose,442.6160769999997,31,,,,,,,,,,,,,,,sub_406,2023-08-15_10h02.32.038,Reversal,2023.1.3,60.02148769255332,2,
20,exp1.png,exp2.png,,2,0,2,0,0,20,20,20,,,,,,,,,,,,,,,,,,,,,,,,,True,,,,,,,,,,,,,,,,,,,,,,,,,,,,,,,,,,,sub_406,2023-08-15_10h02.32.038,Reversal,2023.1.3,60.02148769255332,2,
,,,exp1.png,2,0,2,0,,,,,0,0,0,0,0,0,0,0,,,,,,,,,,,,,,,,,,,,,,,,,,,,,,,,,,,,,,521.0973260000001,81.0,81.0,2.1366388000005827,"[(81.0, 2.1366388000005827)]",,,,,,,,,,sub_406,2023-08-15_10h02.32.038,Reversal,2023.1.3,60.02148769255332,2,
,,,exp2.png,2,0,2,0,,,,,0,0,0,0,0,1,1,1,,,,,,,,,,,,,,,,,,,,,,,,,,,,,,,,,,,,,,524.1157024000004,,78.0,1.7109000999998898,"[(78.0, 1.7109000999998898)]",78.0,,,,,,,,,sub_406,2023-08-15_10h02.32.038,Reversal,2023.1.3,60.02148769255332,2,
,,,exp3.png,2,0,2,0,,,,,0,0,0,0,0,2,2,2,,,,,,,,,,,,,,,,,,,,,,,,,,,,,,,,,,,,,,526.6336171000003,,76.0,1.010568400000011,"[(76.0, 1.010568400000011)]",,76.0,,,,,,,,sub_406,2023-08-15_10h02.32.038,Reversal,2023.1.3,60.02148769255332,2,
,,,exp4.png,2,0,2,0,,,,,0,0,0,0,0,3,3,3,,,,,,,,,,,,,,,,,,,,,,,,,,,,,,,,,,,,,,528.4638457000001,,53.0,2.2440923999993174,"[(39.0, 1.2103188000000955), (53.0, 2.2440923999993174)]",,,53.0,,,,,,,sub_406,2023-08-15_10h02.32.038,Reversal,2023.1.3,60.02148769255332,2,
0,exp1.png,exp2.png,,3,0,3,0,0,0,0,0,,,,,,,,,,,,,,,,,,,,,,,,,False,60,61,False,exp1.png,exp2.png,trial_right_image,-1,exp2.png,2,exp1.png,exp2.png,0,2,non-reversed,incorrect,0.2955091191802188,0,valid_lose,458.7768914999997,31,,,,,,,,,,,,,,,sub_406,2023-08-15_10h02.32.038,Reversal,2023.1.3,60.02148769255332,2,
1,exp3.png,exp4.png,,3,0,3,0,0,1,1,1,,,,,,,,,,,,,,,,,,,,,,,,,False,61,62,False,exp3.png,exp4.png,trial_left_image,1,exp3.png,2,exp3.png,exp4.png,1,3,reversed,correct,0.03961602712522705,0,invalid_lose,463.05961690000004,31,,,,,,,,,,,,,,,sub_406,2023-08-15_10h02.32.038,Reversal,2023.1.3,60.02148769255332,2,
2,exp1.png,exp2.png,,3,0,3,0,0,2,2,2,,,,,,,,,,,,,,,,,,,,,,,,,False,62,63,True,exp2.png,exp1.png,trial_left_image,1,exp2.png,2,exp1.png,exp2.png,0,2,non-reversed,incorrect,0.9376878905813543,0,valid_lose,467.9903698999997,31,,,,,,,,,,,,,,,sub_406,2023-08-15_10h02.32.038,Reversal,2023.1.3,60.02148769255332,2,
3,exp3.png,exp4.png,,3,0,3,0,0,3,3,3,,,,,,,,,,,,,,,,,,,,,,,,,False,63,64,True,exp4.png,exp3.png,trial_right_image,-1,exp3.png,2,exp3.png,exp4.png,1,3,reversed,correct,0.3165018806031733,1,valid_win,472.3723911999996,32,,,,,,,,,,,,,,,sub_406,2023-08-15_10h02.32.038,Reversal,2023.1.3,60.02148769255332,2,
4,exp1.png,exp2.png,,3,0,3,0,0,4,4,4,,,,,,,,,,,,,,,,,,,,,,,,,False,64,65,False,exp1.png,exp2.png,trial_right_image,-1,exp2.png,2,exp1.png,exp2.png,0,2,non-reversed,incorrect,0.9668394134117089,0,valid_lose,477.3371387999996,32,,,,,,,,,,,,,,,sub_406,2023-08-15_10h02.32.038,Reversal,2023.1.3,60.02148769255332,2,
5,exp3.png,exp4.png,,3,0,3,0,0,5,5,5,,,,,,,,,,,,,,,,,,,,,,,,,False,65,66,True,exp4.png,exp3.png,trial_left_image,1,exp4.png,2,exp3.png,exp4.png,0,4,reversed,incorrect,0.6722220361362234,0,valid_lose,483.0352411999993,32,,,,,,,,,,,,,,,sub_406,2023-08-15_10h02.32.038,Reversal,2023.1.3,60.02148769255332,2,
6,exp1.png,exp2.png,,3,0,3,0,0,6,6,6,,,,,,,,,,,,,,,,,,,,,,,,,False,66,67,True,exp2.png,exp1.png,trial_right_image,-1,exp1.png,2,exp1.png,exp2.png,1,1,non-reversed,correct,0.24904129767226613,0,invalid_lose,487.21705380000003,32,,,,,,,,,,,,,,,sub_406,2023-08-15_10h02.32.038,Reversal,2023.1.3,60.02148769255332,2,
7,exp3.png,exp4.png,,3,0,3,0,0,7,7,7,,,,,,,,,,,,,,,,,,,,,,,,,False,67,68,False,exp3.png,exp4.png,trial_right_image,-1,exp4.png,2,exp3.png,exp4.png,0,4,reversed,incorrect,0.5085727684680599,0,valid_lose,491.53286409999964,32,,,,,,,,,,,,,,,sub_406,2023-08-15_10h02.32.038,Reversal,2023.1.3,60.02148769255332,2,
8,exp1.png,exp2.png,,3,0,3,0,0,8,8,8,,,,,,,,,,,,,,,,,,,,,,,,,False,68,69,True,exp2.png,exp1.png,trial_right_image,-1,exp1.png,2,exp1.png,exp2.png,1,1,non-reversed,correct,0.5786167536425963,1,valid_win,496.54748870000003,33,,,,,,,,,,,,,,,sub_406,2023-08-15_10h02.32.038,Reversal,2023.1.3,60.02148769255332,2,
9,exp3.png,exp4.png,,3,0,3,0,0,9,9,9,,,,,,,,,,,,,,,,,,,,,,,,,False,69,70,False,exp3.png,exp4.png,trial_left_image,1,exp3.png,2,exp3.png,exp4.png,1,3,reversed,correct,0.8699995156325506,1,valid_win,501.22949789999984,34,,,,,,,,,,,,,,,sub_406,2023-08-15_10h02.32.038,Reversal,2023.1.3,60.02148769255332,2,
10,exp1.png,exp2.png,,3,0,3,0,0,10,10,10,,,,,,,,,,,,,,,,,,,,,,,,,False,70,71,True,exp2.png,exp1.png,trial_left_image,1,exp2.png,2,exp1.png,exp2.png,0,2,non-reversed,incorrect,0.40332372671061434,0,valid_lose,505.81139259999964,34,,,,,,,,,,,,,,,sub_406,2023-08-15_10h02.32.038,Reversal,2023.1.3,60.02148769255332,2,
11,exp3.png,exp4.png,,3,0,3,0,0,11,11,11,,,,,,,,,,,,,,,,,,,,,,,,,False,71,72,False,exp3.png,exp4.png,trial_left_image,1,exp3.png,2,exp3.png,exp4.png,1,3,reversed,correct,0.580784592441822,1,valid_win,511.7591575999995,35,,,,,,,,,,,,,,,sub_406,2023-08-15_10h02.32.038,Reversal,2023.1.3,60.02148769255332,2,
12,exp1.png,exp2.png,,3,0,3,0,0,12,12,12,,,,,,,,,,,,,,,,,,,,,,,,,False,72,73,False,exp1.png,exp2.png,trial_right_image,-1,exp2.png,2,exp1.png,exp2.png,0,2,non-reversed,incorrect,0.7442636345396044,0,valid_lose,516.2908038999994,35,,,,,,,,,,,,,,,sub_406,2023-08-15_10h02.32.038,Reversal,2023.1.3,60.02148769255332,2,
13,exp3.png,exp4.png,,3,0,3,0,0,13,13,13,,,,,,,,,,,,,,,,,,,,,,,,,False,73,74,True,exp4.png,exp3.png,trial_right_image,-1,exp3.png,2,exp3.png,exp4.png,1,3,reversed,correct,0.2926634357982818,1,valid_win,523.4549460999997,36,,,,,,,,,,,,,,,sub_406,2023-08-15_10h02.32.038,Reversal,2023.1.3,60.02148769255332,2,
14,exp1.png,exp2.png,,3,0,3,0,0,14,14,14,,,,,,,,,,,,,,,,,,,,,,,,,False,74,75,False,exp1.png,exp2.png,trial_right_image,-1,exp2.png,2,exp1.png,exp2.png,0,2,non-reversed,incorrect,0.0902024763053424,1,invalid_win,528.6031949999997,37,,,,,,,,,,,,,,,sub_406,2023-08-15_10h02.32.038,Reversal,2023.1.3,60.02148769255332,2,
15,exp3.png,exp4.png,,3,0,3,0,0,15,15,15,,,,,,,,,,,,,,,,,,,,,,,,,False,75,76,False,exp3.png,exp4.png,trial_left_image,1,exp3.png,2,exp3.png,exp4.png,1,3,reversed,correct,0.9935600854243709,1,valid_win,534.7346017999998,38,,,,,,,,,,,,,,,sub_406,2023-08-15_10h02.32.038,Reversal,2023.1.3,60.02148769255332,2,
16,exp1.png,exp2.png,,3,0,3,0,0,16,16,16,,,,,,,,,,,,,,,,,,,,,,,,,False,76,77,True,exp2.png,exp1.png,trial_left_image,1,exp2.png,2,exp1.png,exp2.png,0,2,non-reversed,incorrect,0.6897597648871876,0,valid_lose,541.7662671999997,38,,,,,,,,,,,,,,,sub_406,2023-08-15_10h02.32.038,Reversal,2023.1.3,60.02148769255332,2,
17,exp3.png,exp4.png,,3,0,3,0,0,17,17,17,,,,,,,,,,,,,,,,,,,,,,,,,False,77,78,True,exp4.png,exp3.png,trial_right_image,-1,exp3.png,2,exp3.png,exp4.png,1,3,reversed,correct,0.17391674480257957,0,invalid_lose,546.8470842999996,38,,,,,,,,,,,,,,,sub_406,2023-08-15_10h02.32.038,Reversal,2023.1.3,60.02148769255332,2,
18,exp1.png,exp2.png,,3,0,3,0,0,18,18,18,,,,,,,,,,,,,,,,,,,,,,,,,False,78,79,False,exp1.png,exp2.png,trial_right_image,-1,exp2.png,2,exp1.png,exp2.png,0,2,non-reversed,incorrect,0.9368610521595921,0,valid_lose,553.5114328999998,38,,,,,,,,,,,,,,,sub_406,2023-08-15_10h02.32.038,Reversal,2023.1.3,60.02148769255332,2,
19,exp3.png,exp4.png,,3,0,3,0,0,19,19,19,,,,,,,,,,,,,,,,,,,,,,,,,False,79,80,True,exp4.png,exp3.png,trial_right_image,-1,exp3.png,2,exp3.png,exp4.png,1,3,reversed,correct,0.7080788137667505,1,valid_win,559.4926639999994,39,,,,,,,,,,,,,,,sub_406,2023-08-15_10h02.32.038,Reversal,2023.1.3,60.02148769255332,2,
20,exp1.png,exp2.png,,3,0,3,0,0,20,20,20,,,,,,,,,,,,,,,,,,,,,,,,,True,,,,,,,,,,,,,,,,,,,,,,,,,,,,,,,,,,,sub_406,2023-08-15_10h02.32.038,Reversal,2023.1.3,60.02148769255332,2,
,,,exp1.png,3,0,3,0,,,,,0,0,0,0,0,0,0,0,,,,,,,,,,,,,,,,,,,,,,,,,,,,,,,,,,,,,,637.9753432999996,76.0,76.0,2.0338832000006732,"[(76.0, 2.0338832000006732)]",,,,,,,,,,sub_406,2023-08-15_10h02.32.038,Reversal,2023.1.3,60.02148769255332,2,
,,,exp2.png,3,0,3,0,,,,,0,0,0,0,0,1,1,1,,,,,,,,,,,,,,,,,,,,,,,,,,,,,,,,,,,,,,640.9097485000002,,46.0,1.277890700000171,"[(46.0, 1.277890700000171)]",46.0,,,,,,,,,sub_406,2023-08-15_10h02.32.038,Reversal,2023.1.3,60.02148769255332,2,
,,,exp3.png,3,0,3,0,,,,,0,0,0,0,0,2,2,2,,,,,,,,,,,,,,,,,,,,,,,,,,,,,,,,,,,,,,642.9416773000003,,79.0,1.1446784999998272,"[(79.0, 1.1446784999998272)]",,79.0,,,,,,,,sub_406,2023-08-15_10h02.32.038,Reversal,2023.1.3,60.02148769255332,2,
,,,exp4.png,3,0,3,0,,,,,0,0,0,0,0,3,3,3,,,,,,,,,,,,,,,,,,,,,,,,,,,,,,,,,,,,,,644.8430533000001,,80.0,1.1610514000003604,"[(80.0, 1.1610514000003604)]",,,80.0,,,,,,,sub_406,2023-08-15_10h02.32.038,Reversal,2023.1.3,60.02148769255332,2,
0,exp1.png,exp2.png,,,,,,,,,,,,,,,,,,0,0,0,0,0,0,0,0,,,,,,,,,False,0,81,False,exp1.png,exp2.png,trial_right_image,-1,exp2.png,2,exp1.png,exp2.png,0,2,non-reversed,incorrect,0.04622223003639414,1,invalid_win,573.6215864999995,40,,,,,,,,,570.8635510999993,,,,,,sub_406,2023-08-15_10h02.32.038,Reversal,2023.1.3,60.02148769255332,2,
1,exp3.png,exp4.png,,,,,,,,,,,,,,,,,,0,0,0,0,0,1,1,1,,,,,,,,,False,1,82,False,exp3.png,exp4.png,trial_right_image,-1,exp4.png,2,exp4.png,exp3.png,0,4,reversed,correct,0.11354948033121648,0,invalid_lose,580.2024265999999,40,,,,,,,,,,,,,,,sub_406,2023-08-15_10h02.32.038,Reversal,2023.1.3,60.02148769255332,2,
2,exp1.png,exp2.png,,,,,,,,,,,,,,,,,,0,0,0,0,0,2,2,2,,,,,,,,,False,2,83,False,exp1.png,exp2.png,trial_left_image,1,exp1.png,2,exp1.png,exp2.png,1,1,non-reversed,correct,0.3091191923904596,1,valid_win,585.2009103999999,41,,,,,,,,,,,,,,,sub_406,2023-08-15_10h02.32.038,Reversal,2023.1.3,60.02148769255332,2,
3,exp3.png,exp4.png,,,,,,,,,,,,,,,,,,0,0,0,0,0,3,3,3,,,,,,,,,False,3,84,False,exp3.png,exp4.png,trial_right_image,-1,exp4.png,2,exp4.png,exp3.png,0,4,reversed,correct,0.5025044188763809,1,valid_win,589.9996961999996,42,,,,,,,,,,,,,,,sub_406,2023-08-15_10h02.32.038,Reversal,2023.1.3,60.02148769255332,2,
4,exp1.png,exp2.png,,,,,,,,,,,,,,,,,,0,0,0,0,0,4,4,4,,,,,,,,,False,4,85,True,exp2.png,exp1.png,trial_left_image,1,exp2.png,2,exp1.png,exp2.png,0,2,non-reversed,incorrect,0.7678802925604139,0,valid_lose,597.3299038999994,42,,,,,,,,,,,,,,,sub_406,2023-08-15_10h02.32.038,Reversal,2023.1.3,60.02148769255332,2,
5,exp3.png,exp4.png,,,,,,,,,,,,,,,,,,0,0,0,0,0,5,5,5,,,,,,,,,False,5,86,True,exp4.png,exp3.png,trial_right_image,-1,exp3.png,2,exp4.png,exp3.png,1,3,reversed,incorrect,0.4496578443212047,0,valid_lose,601.8120928999997,42,,,,,,,,,,,,,,,sub_406,2023-08-15_10h02.32.038,Reversal,2023.1.3,60.02148769255332,2,
6,exp1.png,exp2.png,,,,,,,,,,,,,,,,,,0,0,0,0,0,6,6,6,,,,,,,,,False,6,87,False,exp1.png,exp2.png,trial_right_image,-1,exp2.png,2,exp1.png,exp2.png,0,2,non-reversed,incorrect,0.9027879156793612,0,valid_lose,605.8936551999996,42,,,,,,,,,,,,,,,sub_406,2023-08-15_10h02.32.038,Reversal,2023.1.3,60.02148769255332,2,
7,exp3.png,exp4.png,,,,,,,,,,,,,,,,,,0,0,0,0,0,7,7,7,,,,,,,,,False,7,88,False,exp3.png,exp4.png,trial_left_image,1,exp3.png,2,exp4.png,exp3.png,1,3,reversed,incorrect,0.9018323984312206,0,valid_lose,611.0420952999993,42,,,,,,,,,,,,,,,sub_406,2023-08-15_10h02.32.038,Reversal,2023.1.3,60.02148769255332,2,
8,exp1.png,exp2.png,,,,,,,,,,,,,,,,,,0,0,0,0,0,8,8,8,,,,,,,,,False,8,89,True,exp2.png,exp1.png,trial_right_image,-1,exp1.png,2,exp1.png,exp2.png,1,1,non-reversed,correct,0.4259521091803896,1,valid_win,614.8911446000002,43,,,,,,,,,,,,,,,sub_406,2023-08-15_10h02.32.038,Reversal,2023.1.3,60.02148769255332,2,
9,exp3.png,exp4.png,,,,,,,,,,,,,,,,,,0,0,0,0,0,9,9,9,,,,,,,,,False,9,90,True,exp4.png,exp3.png,trial_right_image,-1,exp3.png,2,exp4.png,exp3.png,1,3,reversed,incorrect,0.3209971887049763,0,valid_lose,619.0397069,43,,,,,,,,,,,,,,,sub_406,2023-08-15_10h02.32.038,Reversal,2023.1.3,60.02148769255332,2,
10,exp1.png,exp2.png,,,,,,,,,,,,,,,,,,0,0,0,0,0,10,10,10,,,,,,,,,False,10,91,True,exp2.png,exp1.png,trial_left_image,1,exp2.png,2,exp1.png,exp2.png,0,2,non-reversed,incorrect,0.5224126291663457,0,valid_lose,623.1563535999994,43,,,,,,,,,,,,,,,sub_406,2023-08-15_10h02.32.038,Reversal,2023.1.3,60.02148769255332,2,
11,exp3.png,exp4.png,,,,,,,,,,,,,,,,,,0,0,0,0,0,11,11,11,,,,,,,,,False,11,92,True,exp4.png,exp3.png,trial_right_image,-1,exp3.png,2,exp4.png,exp3.png,1,3,reversed,incorrect,0.3580238369495651,0,valid_lose,628.4859446999999,43,,,,,,,,,,,,,,,sub_406,2023-08-15_10h02.32.038,Reversal,2023.1.3,60.02148769255332,2,
12,exp1.png,exp2.png,,,,,,,,,,,,,,,,,,0,0,0,0,0,12,12,12,,,,,,,,,False,12,93,False,exp1.png,exp2.png,trial_right_image,-1,exp2.png,2,exp1.png,exp2.png,0,2,non-reversed,incorrect,0.7875556939103531,0,valid_lose,636.0003321999993,43,,,,,,,,,,,,,,,sub_406,2023-08-15_10h02.32.038,Reversal,2023.1.3,60.02148769255332,2,
13,exp3.png,exp4.png,,,,,,,,,,,,,,,,,,0,0,0,0,0,13,13,13,,,,,,,,,False,13,94,False,exp3.png,exp4.png,trial_right_image,-1,exp4.png,2,exp4.png,exp3.png,0,4,reversed,correct,0.2749285232670562,1,valid_win,641.8509172999993,44,,,,,,,,,,,,,,,sub_406,2023-08-15_10h02.32.038,Reversal,2023.1.3,60.02148769255332,2,
14,exp1.png,exp2.png,,,,,,,,,,,,,,,,,,0,0,0,0,0,14,14,14,,,,,,,,,False,14,95,True,exp2.png,exp1.png,trial_left_image,1,exp2.png,2,exp1.png,exp2.png,0,2,non-reversed,incorrect,0.11320830118576275,1,invalid_win,647.8130818999998,45,,,,,,,,,,,,,,,sub_406,2023-08-15_10h02.32.038,Reversal,2023.1.3,60.02148769255332,2,
15,exp3.png,exp4.png,,,,,,,,,,,,,,,,,,0,0,0,0,0,15,15,15,,,,,,,,,False,15,96,True,exp4.png,exp3.png,trial_right_image,-1,exp3.png,2,exp4.png,exp3.png,1,3,reversed,incorrect,0.32706605080338536,0,valid_lose,653.5114144999998,45,,,,,,,,,,,,,,,sub_406,2023-08-15_10h02.32.038,Reversal,2023.1.3,60.02148769255332,2,
16,exp1.png,exp2.png,,,,,,,,,,,,,,,,,,0,0,0,0,0,16,16,16,,,,,,,,,False,16,97,False,exp1.png,exp2.png,trial_right_image,-1,exp2.png,2,exp1.png,exp2.png,0,2,non-reversed,incorrect,0.29072485759840183,0,valid_lose,657.6930274999995,45,,,,,,,,,,,,,,,sub_406,2023-08-15_10h02.32.038,Reversal,2023.1.3,60.02148769255332,2,
17,exp3.png,exp4.png,,,,,,,,,,,,,,,,,,0,0,0,0,0,17,17,17,,,,,,,,,False,17,98,False,exp3.png,exp4.png,trial_right_image,-1,exp4.png,2,exp4.png,exp3.png,0,4,reversed,correct,0.1941074240155739,0,invalid_lose,663.8572494999999,45,,,,,,,,,,,,,,,sub_406,2023-08-15_10h02.32.038,Reversal,2023.1.3,60.02148769255332,2,
18,exp1.png,exp2.png,,,,,,,,,,,,,,,,,,0,0,0,0,0,18,18,18,,,,,,,,,False,18,99,True,exp2.png,exp1.png,trial_right_image,-1,exp1.png,2,exp1.png,exp2.png,1,1,non-reversed,correct,0.4911565776666571,1,valid_win,669.7228882999998,46,,,,,,,,,,,,,,,sub_406,2023-08-15_10h02.32.038,Reversal,2023.1.3,60.02148769255332,2,
19,exp3.png,exp4.png,,,,,,,,,,,,,,,,,,0,0,0,0,0,19,19,19,,,,,,,,,False,19,100,True,exp4.png,exp3.png,trial_left_image,1,exp4.png,2,exp4.png,exp3.png,0,4,reversed,correct,0.1927404476337623,0,invalid_lose,674.1373777999997,46,,,,,,,,,,,,,,,sub_406,2023-08-15_10h02.32.038,Reversal,2023.1.3,60.02148769255332,2,
20,exp1.png,exp2.png,,,,,,,,,,,,,,,,,,0,0,0,0,0,20,20,20,,,,,,,,,True,,,,,,,,,,,,,,,,,,,,,,,,,,,,,,,,,,,sub_406,2023-08-15_10h02.32.038,Reversal,2023.1.3,60.02148769255332,2,
,,,exp1.png,,,,,,,,,,,,,,,,,0,0,0,0,,,,,0,0,0,0,0,0,0,0,,,,,,,,,,,,,,,,,,,,,,752.6127059999999,73.0,73.0,1.6600711000000956,"[(73.0, 1.6600711000000956)]",,,,,,,,,,sub_406,2023-08-15_10h02.32.038,Reversal,2023.1.3,60.02148769255332,2,
,,,exp2.png,,,,,,,,,,,,,,,,,0,0,0,0,,,,,0,0,0,0,0,1,1,1,,,,,,,,,,,,,,,,,,,,,,755.0687177999998,,68.0,1.3789378999999826,"[(68.0, 1.3789378999999826)]",68.0,,,,,,,,,sub_406,2023-08-15_10h02.32.038,Reversal,2023.1.3,60.02148769255332,2,
,,,exp3.png,,,,,,,,,,,,,,,,,0,0,0,0,,,,,0,0,0,0,0,2,2,2,,,,,,,,,,,,,,,,,,,,,,757.3520384000003,,36.0,1.1777443000000858,"[(36.0, 1.1777443000000858)]",,36.0,,,,,,,,sub_406,2023-08-15_10h02.32.038,Reversal,2023.1.3,60.02148769255332,2,
,,,exp4.png,,,,,,,,,,,,,,,,,0,0,0,0,,,,,0,0,0,0,0,3,3,3,,,,,,,,,,,,,,,,,,,,,,759.2859243000003,,78.0,1.1442683000004763,"[(78.0, 1.1442683000004763)]",,,78.0,,,,,,,sub_406,2023-08-15_10h02.32.038,Reversal,2023.1.3,60.02148769255332,2,
0,exp1.png,exp2.png,,,,,,,,,,,,,,,,,,1,0,1,0,0,0,0,0,,,,,,,,,False,20,101,True,exp2.png,exp1.png,trial_right_image,-1,exp1.png,2,exp1.png,exp2.png,1,1,non-reversed,correct,0.8623837525449763,1,valid_win,688.2992641999999,47,,,,,,,,,,,,,,,sub_406,2023-08-15_10h02.32.038,Reversal,2023.1.3,60.02148769255332,2,
1,exp3.png,exp4.png,,,,,,,,,,,,,,,,,,1,0,1,0,0,1,1,1,,,,,,,,,False,21,102,True,exp4.png,exp3.png,trial_left_image,1,exp4.png,2,exp4.png,exp3.png,0,4,reversed,correct,0.27832246066178534,1,valid_win,693.5643718000001,48,,,,,,,,,,,,,,,sub_406,2023-08-15_10h02.32.038,Reversal,2023.1.3,60.02148769255332,2,
2,exp1.png,exp2.png,,,,,,,,,,,,,,,,,,1,0,1,0,0,2,2,2,,,,,,,,,False,22,103,True,exp2.png,exp1.png,trial_right_image,-1,exp1.png,2,exp1.png,exp2.png,1,1,non-reversed,correct,0.8512908705391683,1,valid_win,697.7293812999997,49,,,,,,,,,,,,,,,sub_406,2023-08-15_10h02.32.038,Reversal,2023.1.3,60.02148769255332,2,
3,exp3.png,exp4.png,,,,,,,,,,,,,,,,,,1,0,1,0,0,3,3,3,,,,,,,,,False,23,104,True,exp4.png,exp3.png,trial_left_image,1,exp4.png,2,exp4.png,exp3.png,0,4,reversed,correct,0.9605221878509862,1,valid_win,702.3113360999996,50,,,,,,,,,,,,,,,sub_406,2023-08-15_10h02.32.038,Reversal,2023.1.3,60.02148769255332,2,
4,exp1.png,exp2.png,,,,,,,,,,,,,,,,,,1,0,1,0,0,4,4,4,,,,,,,,,False,24,105,True,exp2.png,exp1.png,trial_right_image,-1,exp1.png,2,exp1.png,exp2.png,1,1,non-reversed,correct,0.7688884117603835,1,valid_win,707.5930431999996,51,,,,,,,,,,,,,,,sub_406,2023-08-15_10h02.32.038,Reversal,2023.1.3,60.02148769255332,2,
5,exp3.png,exp4.png,,,,,,,,,,,,,,,,,,1,0,1,0,0,5,5,5,,,,,,,,,False,25,106,True,exp4.png,exp3.png,trial_left_image,1,exp4.png,2,exp4.png,exp3.png,0,4,reversed,correct,0.7544229962358049,1,valid_win,712.9743960999995,52,,,,,,,,,,,,,,,sub_406,2023-08-15_10h02.32.038,Reversal,2023.1.3,60.02148769255332,2,
6,exp1.png,exp2.png,,,,,,,,,,,,,,,,,,1,0,1,0,0,6,6,6,,,,,,,,,False,26,107,True,exp2.png,exp1.png,trial_left_image,1,exp2.png,2,exp1.png,exp2.png,0,2,non-reversed,incorrect,0.25571740296537127,0,valid_lose,720.8052118999994,52,,,,,,,,,,,,,,,sub_406,2023-08-15_10h02.32.038,Reversal,2023.1.3,60.02148769255332,2,
7,exp3.png,exp4.png,,,,,,,,,,,,,,,,,,1,0,1,0,0,7,7,7,,,,,,,,,False,27,108,True,exp4.png,exp3.png,trial_left_image,1,exp4.png,2,exp4.png,exp3.png,0,4,reversed,correct,0.42493133852494924,1,valid_win,727.2195889999994,53,,,,,,,,,,,,,,,sub_406,2023-08-15_10h02.32.038,Reversal,2023.1.3,60.02148769255332,2,
8,exp1.png,exp2.png,,,,,,,,,,,,,,,,,,1,0,1,0,0,8,8,8,,,,,,,,,False,28,109,True,exp2.png,exp1.png,trial_right_image,-1,exp1.png,2,exp1.png,exp2.png,1,1,non-reversed,correct,0.12060477806493919,0,invalid_lose,731.8676141999995,53,,,,,,,,,,,,,,,sub_406,2023-08-15_10h02.32.038,Reversal,2023.1.3,60.02148769255332,2,
9,exp3.png,exp4.png,,,,,,,,,,,,,,,,,,1,0,1,0,0,9,9,9,,,,,,,,,False,29,110,False,exp3.png,exp4.png,trial_left_image,1,exp3.png,2,exp4.png,exp3.png,1,3,reversed,incorrect,0.3196618843347604,0,valid_lose,736.9665391999997,53,,,,,,,,,,,,,,,sub_406,2023-08-15_10h02.32.038,Reversal,2023.1.3,60.02148769255332,2,
10,exp1.png,exp2.png,,,,,,,,,,,,,,,,,,1,0,1,0,0,10,10,10,,,,,,,,,False,30,111,False,exp1.png,exp2.png,trial_left_image,1,exp1.png,2,exp1.png,exp2.png,1,1,non-reversed,correct,0.4737807780942771,1,valid_win,742.1309658,54,,,,,,,,,,,,,,,sub_406,2023-08-15_10h02.32.038,Reversal,2023.1.3,60.02148769255332,2,
11,exp3.png,exp4.png,,,,,,,,,,,,,,,,,,1,0,1,0,0,11,11,11,,,,,,,,,False,31,112,False,exp3.png,exp4.png,trial_right_image,-1,exp4.png,2,exp4.png,exp3.png,0,4,reversed,correct,0.30451586405092346,1,valid_win,748.9122922999995,55,,,,,,,,,,,,,,,sub_406,2023-08-15_10h02.32.038,Reversal,2023.1.3,60.02148769255332,2,
12,exp1.png,exp2.png,,,,,,,,,,,,,,,,,,1,0,1,0,0,12,12,12,,,,,,,,,False,32,113,True,exp2.png,exp1.png,trial_left_image,1,exp2.png,2,exp1.png,exp2.png,0,2,non-reversed,incorrect,0.004521779913491897,1,invalid_win,753.3770675999995,56,,,,,,,,,,,,,,,sub_406,2023-08-15_10h02.32.038,Reversal,2023.1.3,60.02148769255332,2,
13,exp3.png,exp4.png,,,,,,,,,,,,,,,,,,1,0,1,0,0,13,13,13,,,,,,,,,False,33,114,False,exp3.png,exp4.png,trial_right_image,-1,exp4.png,2,exp4.png,exp3.png,0,4,reversed,correct,0.8026228756561279,1,valid_win,757.8590176999996,57,,,,,,,,,,,,,,,sub_406,2023-08-15_10h02.32.038,Reversal,2023.1.3,60.02148769255332,2,
14,exp1.png,exp2.png,,,,,,,,,,,,,,,,,,1,0,1,0,0,14,14,14,,,,,,,,,False,34,115,False,exp1.png,exp2.png,trial_left_image,1,exp1.png,2,exp1.png,exp2.png,1,1,non-reversed,correct,0.3335673447944826,1,valid_win,762.7744881999997,58,,,,,,,,,,,,,,,sub_406,2023-08-15_10h02.32.038,Reversal,2023.1.3,60.02148769255332,2,
15,exp3.png,exp4.png,,,,,,,,,,,,,,,,,,1,0,1,0,0,15,15,15,,,,,,,,,False,35,116,False,exp3.png,exp4.png,trial_right_image,-1,exp4.png,2,exp4.png,exp3.png,0,4,reversed,correct,0.9357395178966773,1,valid_win,767.5729064999996,59,,,,,,,,,,,,,,,sub_406,2023-08-15_10h02.32.038,Reversal,2023.1.3,60.02148769255332,2,
16,exp1.png,exp2.png,,,,,,,,,,,,,,,,,,1,0,1,0,0,16,16,16,,,,,,,,,False,36,117,False,exp1.png,exp2.png,trial_left_image,1,exp1.png,2,exp1.png,exp2.png,1,1,non-reversed,correct,0.2163489334506602,0,invalid_lose,772.9542100999997,59,,,,,,,,,,,,,,,sub_406,2023-08-15_10h02.32.038,Reversal,2023.1.3,60.02148769255332,2,
17,exp3.png,exp4.png,,,,,,,,,,,,,,,,,,1,0,1,0,0,17,17,17,,,,,,,,,False,37,118,False,exp3.png,exp4.png,trial_right_image,-1,exp4.png,2,exp4.png,exp3.png,0,4,reversed,correct,0.19268040470598724,0,invalid_lose,777.5353918000001,59,,,,,,,,,,,,,,,sub_406,2023-08-15_10h02.32.038,Reversal,2023.1.3,60.02148769255332,2,
18,exp1.png,exp2.png,,,,,,,,,,,,,,,,,,1,0,1,0,0,18,18,18,,,,,,,,,False,38,119,False,exp1.png,exp2.png,trial_left_image,1,exp1.png,2,exp1.png,exp2.png,1,1,non-reversed,correct,0.10889330395283758,0,invalid_lose,783.4839510000002,59,,,,,,,,,,,,,,,sub_406,2023-08-15_10h02.32.038,Reversal,2023.1.3,60.02148769255332,2,
19,exp3.png,exp4.png,,,,,,,,,,,,,,,,,,1,0,1,0,0,19,19,19,,,,,,,,,False,39,120,False,exp3.png,exp4.png,trial_right_image,-1,exp4.png,2,exp4.png,exp3.png,0,4,reversed,correct,0.8235753785890594,1,valid_win,787.4158348999999,60,,,,,,,,,,,,,,,sub_406,2023-08-15_10h02.32.038,Reversal,2023.1.3,60.02148769255332,2,
20,exp1.png,exp2.png,,,,,,,,,,,,,,,,,,1,0,1,0,0,20,20,20,,,,,,,,,True,,,,,,,,,,,,,,,,,,,,,,,,,,,,,,,,,,,sub_406,2023-08-15_10h02.32.038,Reversal,2023.1.3,60.02148769255332,2,
,,,exp1.png,,,,,,,,,,,,,,,,,1,0,1,0,,,,,0,0,0,0,0,0,0,0,,,,,,,,,,,,,,,,,,,,,,865.8945820999998,75.0,75.0,1.3871275000001333,"[(75.0, 1.3871275000001333)]",,,,,,,,,,sub_406,2023-08-15_10h02.32.038,Reversal,2023.1.3,60.02148769255332,2,
,,,exp2.png,,,,,,,,,,,,,,,,,1,0,1,0,,,,,0,0,0,0,0,1,1,1,,,,,,,,,,,,,,,,,,,,,,868.0008868000004,,92.0,1.3089952999998786,"[(92.0, 1.3089952999998786)]",92.0,,,,,,,,,sub_406,2023-08-15_10h02.32.038,Reversal,2023.1.3,60.02148769255332,2,
,,,exp3.png,,,,,,,,,,,,,,,,,1,0,1,0,,,,,0,0,0,0,0,2,2,2,,,,,,,,,,,,,,,,,,,,,,870.1666531000001,,73.0,0.9623660999995991,"[(73.0, 0.9623660999995991)]",,73.0,,,,,,,,sub_406,2023-08-15_10h02.32.038,Reversal,2023.1.3,60.02148769255332,2,
,,,exp4.png,,,,,,,,,,,,,,,,,1,0,1,0,,,,,0,0,0,0,0,3,3,3,,,,,,,,,,,,,,,,,,,,,,871.7953508999999,,41.0,0.862417600000299,"[(41.0, 0.862417600000299)]",,,41.0,,,,,,,sub_406,2023-08-15_10h02.32.038,Reversal,2023.1.3,60.02148769255332,2,
0,exp1.png,exp2.png,,,,,,,,,,,,,,,,,,2,0,2,0,0,0,0,0,,,,,,,,,False,40,121,False,exp1.png,exp2.png,trial_right_image,-1,exp2.png,2,exp1.png,exp2.png,0,2,non-reversed,incorrect,0.48449961411644593,0,valid_lose,800.6277792999999,60,,,,,,,,,,,,,,,sub_406,2023-08-15_10h02.32.038,Reversal,2023.1.3,60.02148769255332,2,
1,exp3.png,exp4.png,,,,,,,,,,,,,,,,,,2,0,2,0,0,1,1,1,,,,,,,,,False,41,122,True,exp4.png,exp3.png,trial_left_image,1,exp4.png,2,exp4.png,exp3.png,0,4,reversed,correct,0.4534374566815208,1,valid_win,806.8426985999995,61,,,,,,,,,,,,,,,sub_406,2023-08-15_10h02.32.038,Reversal,2023.1.3,60.02148769255332,2,
2,exp1.png,exp2.png,,,,,,,,,,,,,,,,,,2,0,2,0,0,2,2,2,,,,,,,,,False,42,123,False,exp1.png,exp2.png,trial_right_image,-1,exp2.png,2,exp1.png,exp2.png,0,2,non-reversed,incorrect,0.9464802802331853,0,valid_lose,811.5911387999995,61,,,,,,,,,,,,,,,sub_406,2023-08-15_10h02.32.038,Reversal,2023.1.3,60.02148769255332,2,
3,exp3.png,exp4.png,,,,,,,,,,,,,,,,,,2,0,2,0,0,3,3,3,,,,,,,,,False,43,124,True,exp4.png,exp3.png,trial_left_image,1,exp4.png,2,exp4.png,exp3.png,0,4,reversed,correct,0.8132686800653586,1,valid_win,816.3725547999993,62,,,,,,,,,,,,,,,sub_406,2023-08-15_10h02.32.038,Reversal,2023.1.3,60.02148769255332,2,
4,exp1.png,exp2.png,,,,,,,,,,,,,,,,,,2,0,2,0,0,4,4,4,,,,,,,,,False,44,125,False,exp1.png,exp2.png,trial_right_image,-1,exp2.png,2,exp1.png,exp2.png,0,2,non-reversed,incorrect,0.7233862933099467,0,valid_lose,820.4713873999999,62,,,,,,,,,,,,,,,sub_406,2023-08-15_10h02.32.038,Reversal,2023.1.3,60.02148769255332,2,
5,exp3.png,exp4.png,,,,,,,,,,,,,,,,,,2,0,2,0,0,5,5,5,,,,,,,,,False,45,126,False,exp3.png,exp4.png,trial_right_image,-1,exp4.png,2,exp4.png,exp3.png,0,4,reversed,correct,0.18154560248120255,0,invalid_lose,825.4194319999997,62,,,,,,,,,,,,,,,sub_406,2023-08-15_10h02.32.038,Reversal,2023.1.3,60.02148769255332,2,
6,exp1.png,exp2.png,,,,,,,,,,,,,,,,,,2,0,2,0,0,6,6,6,,,,,,,,,False,46,127,False,exp1.png,exp2.png,trial_left_image,1,exp1.png,2,exp1.png,exp2.png,1,1,non-reversed,correct,0.47059266233276653,1,valid_win,830.0015936999998,63,,,,,,,,,,,,,,,sub_406,2023-08-15_10h02.32.038,Reversal,2023.1.3,60.02148769255332,2,
7,exp3.png,exp4.png,,,,,,,,,,,,,,,,,,2,0,2,0,0,7,7,7,,,,,,,,,False,47,128,True,exp4.png,exp3.png,trial_right_image,-1,exp3.png,2,exp4.png,exp3.png,1,3,reversed,incorrect,0.45113512576181536,0,valid_lose,834.9000620999996,63,,,,,,,,,,,,,,,sub_406,2023-08-15_10h02.32.038,Reversal,2023.1.3,60.02148769255332,2,
8,exp1.png,exp2.png,,,,,,,,,,,,,,,,,,2,0,2,0,0,8,8,8,,,,,,,,,False,48,129,False,exp1.png,exp2.png,trial_right_image,-1,exp2.png,2,exp1.png,exp2.png,0,2,non-reversed,incorrect,0.12959895032292457,1,invalid_win,839.4984250999996,64,,,,,,,,,,,,,,,sub_406,2023-08-15_10h02.32.038,Reversal,2023.1.3,60.02148769255332,2,
9,exp3.png,exp4.png,,,,,,,,,,,,,,,,,,2,0,2,0,0,9,9,9,,,,,,,,,False,49,130,True,exp4.png,exp3.png,trial_right_image,-1,exp3.png,2,exp4.png,exp3.png,1,3,reversed,incorrect,0.12378023241028324,1,invalid_win,843.5306240999998,65,,,,,,,,,,,,,,,sub_406,2023-08-15_10h02.32.038,Reversal,2023.1.3,60.02148769255332,2,
10,exp1.png,exp2.png,,,,,,,,,,,,,,,,,,2,0,2,0,0,10,10,10,,,,,,,,,False,50,131,False,exp1.png,exp2.png,trial_right_image,-1,exp2.png,2,exp1.png,exp2.png,0,2,non-reversed,incorrect,0.20638035449412828,1,invalid_win,847.7452796999996,66,,,,,,,,,,,,,,,sub_406,2023-08-15_10h02.32.038,Reversal,2023.1.3,60.02148769255332,2,
11,exp3.png,exp4.png,,,,,,,,,,,,,,,,,,2,0,2,0,0,11,11,11,,,,,,,,,False,51,132,True,exp4.png,exp3.png,trial_left_image,1,exp4.png,2,exp4.png,exp3.png,0,4,reversed,correct,0.2113815066362238,0,invalid_lose,852.3110452000001,66,,,,,,,,,,,,,,,sub_406,2023-08-15_10h02.32.038,Reversal,2023.1.3,60.02148769255332,2,
12,exp1.png,exp2.png,,,,,,,,,,,,,,,,,,2,0,2,0,0,12,12,12,,,,,,,,,False,52,133,False,exp1.png,exp2.png,trial_right_image,-1,exp2.png,2,exp1.png,exp2.png,0,2,non-reversed,incorrect,0.4413484017702489,0,valid_lose,856.5759553999997,66,,,,,,,,,,,,,,,sub_406,2023-08-15_10h02.32.038,Reversal,2023.1.3,60.02148769255332,2,
13,exp3.png,exp4.png,,,,,,,,,,,,,,,,,,2,0,2,0,0,13,13,13,,,,,,,,,False,53,134,False,exp3.png,exp4.png,trial_left_image,1,exp3.png,2,exp4.png,exp3.png,1,3,reversed,incorrect,0.15736855982282383,1,invalid_win,861.0407400999993,67,,,,,,,,,,,,,,,sub_406,2023-08-15_10h02.32.038,Reversal,2023.1.3,60.02148769255332,2,
14,exp1.png,exp2.png,,,,,,,,,,,,,,,,,,2,0,2,0,0,14,14,14,,,,,,,,,False,54,135,True,exp2.png,exp1.png,trial_right_image,-1,exp1.png,2,exp1.png,exp2.png,1,1,non-reversed,correct,0.5077022300926762,1,valid_win,865.1393747000002,68,,,,,,,,,,,,,,,sub_406,2023-08-15_10h02.32.038,Reversal,2023.1.3,60.02148769255332,2,
15,exp3.png,exp4.png,,,,,,,,,,,,,,,,,,2,0,2,0,0,15,15,15,,,,,,,,,False,55,136,True,exp4.png,exp3.png,trial_right_image,-1,exp3.png,2,exp4.png,exp3.png,1,3,reversed,incorrect,0.09255069230145241,1,invalid_win,871.1052420999995,69,,,,,,,,,,,,,,,sub_406,2023-08-15_10h02.32.038,Reversal,2023.1.3,60.02148769255332,2,
16,exp1.png,exp2.png,,,,,,,,,,,,,,,,,,2,0,2,0,0,16,16,16,,,,,,,,,False,56,137,True,exp2.png,exp1.png,trial_right_image,-1,exp1.png,2,exp1.png,exp2.png,1,1,non-reversed,correct,0.6962915198994332,1,valid_win,877.0685599999997,70,,,,,,,,,,,,,,,sub_406,2023-08-15_10h02.32.038,Reversal,2023.1.3,60.02148769255332,2,
17,exp3.png,exp4.png,,,,,,,,,,,,,,,,,,2,0,2,0,0,17,17,17,,,,,,,,,False,57,138,True,exp4.png,exp3.png,trial_left_image,1,exp4.png,2,exp4.png,exp3.png,0,4,reversed,correct,0.2145900914441119,0,invalid_lose,882.4171830999994,70,,,,,,,,,,,,,,,sub_406,2023-08-15_10h02.32.038,Reversal,2023.1.3,60.02148769255332,2,
18,exp1.png,exp2.png,,,,,,,,,,,,,,,,,,2,0,2,0,0,18,18,18,,,,,,,,,False,58,139,True,exp2.png,exp1.png,trial_right_image,-1,exp1.png,2,exp1.png,exp2.png,1,1,non-reversed,correct,0.33279432300200085,1,valid_win,886.9820825999996,71,,,,,,,,,,,,,,,sub_406,2023-08-15_10h02.32.038,Reversal,2023.1.3,60.02148769255332,2,
19,exp3.png,exp4.png,,,,,,,,,,,,,,,,,,2,0,2,0,0,19,19,19,,,,,,,,,False,59,140,False,exp3.png,exp4.png,trial_left_image,1,exp3.png,2,exp4.png,exp3.png,1,3,reversed,incorrect,0.5189045983015258,0,valid_lose,892.3636442999996,71,,,,,,,,,,,,,,,sub_406,2023-08-15_10h02.32.038,Reversal,2023.1.3,60.02148769255332,2,
20,exp1.png,exp2.png,,,,,,,,,,,,,,,,,,2,0,2,0,0,20,20,20,,,,,,,,,True,,,,,,,,,,,,,,,,,,,,,,,,,,,,,,,,,,,sub_406,2023-08-15_10h02.32.038,Reversal,2023.1.3,60.02148769255332,2,
,,,exp1.png,,,,,,,,,,,,,,,,,2,0,2,0,,,,,0,0,0,0,0,0,0,0,,,,,,,,,,,,,,,,,,,,,,970.8430813000004,90.0,90.0,1.8898275000001377,"[(90.0, 1.8898275000001377)]",,,,,,,,,,sub_406,2023-08-15_10h02.32.038,Reversal,2023.1.3,60.02148769255332,2,
,,,exp2.png,,,,,,,,,,,,,,,,,2,0,2,0,,,,,0,0,0,0,0,1,1,1,,,,,,,,,,,,,,,,,,,,,,973.5802936999999,,75.0,1.2107077999999092,"[(75.0, 1.2107077999999092)]",75.0,,,,,,,,,sub_406,2023-08-15_10h02.32.038,Reversal,2023.1.3,60.02148769255332,2,
,,,exp3.png,,,,,,,,,,,,,,,,,2,0,2,0,,,,,0,0,0,0,0,2,2,2,,,,,,,,,,,,,,,,,,,,,,975.5448964999996,,70.0,1.2279355000000578,"[(70.0, 1.2279355000000578)]",,70.0,,,,,,,,sub_406,2023-08-15_10h02.32.038,Reversal,2023.1.3,60.02148769255332,2,
,,,exp4.png,,,,,,,,,,,,,,,,,2,0,2,0,,,,,0,0,0,0,0,3,3,3,,,,,,,,,,,,,,,,,,,,,,977.4795371,,87.0,1.2435214999995878,"[(87.0, 1.2435214999995878)]",,,87.0,,,,,,,sub_406,2023-08-15_10h02.32.038,Reversal,2023.1.3,60.02148769255332,2,
,,,,,,,,,,,,,,,,,,,,,,,,,,,,,,,,,,,,,,,,,,,,,,,,,,,,,,,,71,,,,,,,,,,68,34,34,332.6972572000004,1,,,,,,,
