trial_index,trial_image1_file,trial_image2_file,image_file,learning_outer_loop.thisRepN,learning_outer_loop.thisTrialN,learning_outer_loop.thisN,learning_outer_loop.thisIndex,learning_inner_loop.thisRepN,learning_inner_loop.thisTrialN,learning_inner_loop.thisN,learning_inner_loop.thisIndex,learning_estimation_outer_loop.thisRepN,learning_estimation_outer_loop.thisTrialN,learning_estimation_outer_loop.thisN,learning_estimation_outer_loop.thisIndex,learning_estimation_inner_loop.thisRepN,learning_estimation_inner_loop.thisTrialN,learning_estimation_inner_loop.thisN,learning_estimation_inner_loop.thisIndex,reversal_outer_loop.thisRepN,reversal_outer_loop.thisTrialN,reversal_outer_loop.thisN,reversal_outer_loop.thisIndex,reversal_inner_loop.thisRepN,reversal_inner_loop.thisTrialN,reversal_inner_loop.thisN,reversal_inner_loop.thisIndex,reversal_estimation_outer_loop.thisRepN,reversal_estimation_outer_loop.thisTrialN,reversal_estimation_outer_loop.thisN,reversal_estimation_outer_loop.thisIndex,reversal_estimation_inner_loop.thisRepN,reversal_estimation_inner_loop.thisTrialN,reversal_estimation_inner_loop.thisN,reversal_estimation_inner_loop.thisIndex,skipped,total_trial_counter,trial_num,left_right_flip,left_image_file,right_image_file,clicked_stimulus_side,side,clicked_stimulus,version,high_prob_image_file,low_prob_image_file,choice_a,choice_b,pair_type,correct,trial_feedback_random,reward,trial_type,overall_time_after_trial,score,estimation_rating.started,estimation_exp1.png,estimation_rating.response,estimation_rating.rt,estimation_rating.history,estimation_exp2.png,estimation_exp3.png,estimation_exp4.png,total_learning_time,total_correct,learning_correct,reversal_correct,total_reversal_time,extra_block,participant,date,expName,psychopyVersion,frameRate,ver,
0,exp1.png,exp2.png,,0,0,0,0,0,0,0,0,,,,,,,,,,,,,,,,,,,,,,,,,False,0,1,False,exp1.png,exp2.png,trial_left_image,1,exp1.png,1,exp1.png,exp2.png,1,3,reversed,correct,0.9472329275346439,1,valid_win,2.4811454999999967,1,,,,,,,,,,,,,,,sub_981,2024-11-03_12h22.32.320,Reversal,2023.1.3,59.97285628523747,1,
1,exp3.png,exp4.png,,0,0,0,0,0,1,1,1,,,,,,,,,,,,,,,,,,,,,,,,,False,1,2,True,exp4.png,exp3.png,trial_right_image,-1,exp3.png,1,exp3.png,exp4.png,1,1,non-reversed,correct,0.4586166860072427,1,valid_win,7.112825500000014,2,,,,,,,,,,,,,,,sub_981,2024-11-03_12h22.32.320,Reversal,2023.1.3,59.97285628523747,1,
2,exp1.png,exp2.png,,0,0,0,0,0,2,2,2,,,,,,,,,,,,,,,,,,,,,,,,,False,2,3,False,exp1.png,exp2.png,trial_left_image,1,exp1.png,1,exp1.png,exp2.png,1,3,reversed,correct,0.5743149809309319,1,valid_win,11.611182899999989,3,,,,,,,,,,,,,,,sub_981,2024-11-03_12h22.32.320,Reversal,2023.1.3,59.97285628523747,1,
3,exp3.png,exp4.png,,0,0,0,0,0,3,3,3,,,,,,,,,,,,,,,,,,,,,,,,,False,3,4,False,exp3.png,exp4.png,trial_left_image,1,exp3.png,1,exp3.png,exp4.png,1,1,non-reversed,correct,0.27778640049329484,1,valid_win,16.192907500000018,4,,,,,,,,,,,,,,,sub_981,2024-11-03_12h22.32.320,Reversal,2023.1.3,59.97285628523747,1,
4,exp1.png,exp2.png,,0,0,0,0,0,4,4,4,,,,,,,,,,,,,,,,,,,,,,,,,False,4,5,True,exp2.png,exp1.png,trial_right_image,-1,exp1.png,1,exp1.png,exp2.png,1,3,reversed,correct,0.742232756305788,1,valid_win,20.708414000000033,5,,,,,,,,,,,,,,,sub_981,2024-11-03_12h22.32.320,Reversal,2023.1.3,59.97285628523747,1,
5,exp3.png,exp4.png,,0,0,0,0,0,5,5,5,,,,,,,,,,,,,,,,,,,,,,,,,False,5,6,True,exp4.png,exp3.png,trial_right_image,-1,exp3.png,1,exp3.png,exp4.png,1,1,non-reversed,correct,0.027739357883742266,0,invalid_lose,25.17395589999998,5,,,,,,,,,,,,,,,sub_981,2024-11-03_12h22.32.320,Reversal,2023.1.3,59.97285628523747,1,
6,exp1.png,exp2.png,,0,0,0,0,0,6,6,6,,,,,,,,,,,,,,,,,,,,,,,,,False,6,7,False,exp1.png,exp2.png,trial_left_image,1,exp1.png,1,exp1.png,exp2.png,1,3,reversed,correct,0.4228948673549051,1,valid_win,29.605285699999996,6,,,,,,,,,,,,,,,sub_981,2024-11-03_12h22.32.320,Reversal,2023.1.3,59.97285628523747,1,
7,exp3.png,exp4.png,,0,0,0,0,0,7,7,7,,,,,,,,,,,,,,,,,,,,,,,,,False,7,8,True,exp4.png,exp3.png,trial_right_image,-1,exp3.png,1,exp3.png,exp4.png,1,1,non-reversed,correct,0.47776791102668914,1,valid_win,34.23724039999999,7,,,,,,,,,,,,,,,sub_981,2024-11-03_12h22.32.320,Reversal,2023.1.3,59.97285628523747,1,
8,exp1.png,exp2.png,,0,0,0,0,0,8,8,8,,,,,,,,,,,,,,,,,,,,,,,,,False,8,9,False,exp1.png,exp2.png,trial_left_image,1,exp1.png,1,exp1.png,exp2.png,1,3,reversed,correct,0.7559290055499063,1,valid_win,38.819150399999984,8,,,,,,,,,,,,,,,sub_981,2024-11-03_12h22.32.320,Reversal,2023.1.3,59.97285628523747,1,
9,exp3.png,exp4.png,,0,0,0,0,0,9,9,9,,,,,,,,,,,,,,,,,,,,,,,,,False,9,10,True,exp4.png,exp3.png,trial_right_image,-1,exp3.png,1,exp3.png,exp4.png,1,1,non-reversed,correct,0.18962383544042094,0,invalid_lose,43.21749230000003,8,,,,,,,,,,,,,,,sub_981,2024-11-03_12h22.32.320,Reversal,2023.1.3,59.97285628523747,1,
10,exp1.png,exp2.png,,0,0,0,0,0,10,10,10,,,,,,,,,,,,,,,,,,,,,,,,,False,10,11,False,exp1.png,exp2.png,trial_left_image,1,exp1.png,1,exp1.png,exp2.png,1,3,reversed,correct,0.6258162633827469,1,valid_win,47.78212220000003,9,,,,,,,,,,,,,,,sub_981,2024-11-03_12h22.32.320,Reversal,2023.1.3,59.97285628523747,1,
11,exp3.png,exp4.png,,0,0,0,0,0,11,11,11,,,,,,,,,,,,,,,,,,,,,,,,,False,11,12,True,exp4.png,exp3.png,trial_left_image,1,exp4.png,1,exp3.png,exp4.png,0,2,non-reversed,incorrect,0.7517634728420107,0,valid_lose,52.49805310000002,9,,,,,,,,,,,,,,,sub_981,2024-11-03_12h22.32.320,Reversal,2023.1.3,59.97285628523747,1,
12,exp1.png,exp2.png,,0,0,0,0,0,12,12,12,,,,,,,,,,,,,,,,,,,,,,,,,False,12,13,True,exp2.png,exp1.png,trial_right_image,-1,exp1.png,1,exp1.png,exp2.png,1,3,reversed,correct,0.6555340471128409,1,valid_win,57.246282200000024,10,,,,,,,,,,,,,,,sub_981,2024-11-03_12h22.32.320,Reversal,2023.1.3,59.97285628523747,1,
13,exp3.png,exp4.png,,0,0,0,0,0,13,13,13,,,,,,,,,,,,,,,,,,,,,,,,,False,13,14,True,exp4.png,exp3.png,trial_left_image,1,exp4.png,1,exp3.png,exp4.png,0,2,non-reversed,incorrect,0.49043877209573505,0,valid_lose,61.64492709999999,10,,,,,,,,,,,,,,,sub_981,2024-11-03_12h22.32.320,Reversal,2023.1.3,59.97285628523747,1,
14,exp1.png,exp2.png,,0,0,0,0,0,14,14,14,,,,,,,,,,,,,,,,,,,,,,,,,False,14,15,True,exp2.png,exp1.png,trial_right_image,-1,exp1.png,1,exp1.png,exp2.png,1,3,reversed,correct,0.9886228883269683,1,valid_win,66.1096942,11,,,,,,,,,,,,,,,sub_981,2024-11-03_12h22.32.320,Reversal,2023.1.3,59.97285628523747,1,
15,exp3.png,exp4.png,,0,0,0,0,0,15,15,15,,,,,,,,,,,,,,,,,,,,,,,,,False,15,16,False,exp3.png,exp4.png,trial_left_image,1,exp3.png,1,exp3.png,exp4.png,1,1,non-reversed,correct,0.9396678148430891,1,valid_win,70.4913483,12,,,,,,,,,,,,,,,sub_981,2024-11-03_12h22.32.320,Reversal,2023.1.3,59.97285628523747,1,
16,exp1.png,exp2.png,,0,0,0,0,0,16,16,16,,,,,,,,,,,,,,,,,,,,,,,,,False,16,17,False,exp1.png,exp2.png,trial_left_image,1,exp1.png,1,exp1.png,exp2.png,1,3,reversed,correct,0.9236734992784073,1,valid_win,75.17320580000003,13,,,,,,,,,,,,,,,sub_981,2024-11-03_12h22.32.320,Reversal,2023.1.3,59.97285628523747,1,
17,exp3.png,exp4.png,,0,0,0,0,0,17,17,17,,,,,,,,,,,,,,,,,,,,,,,,,False,17,18,True,exp4.png,exp3.png,trial_right_image,-1,exp3.png,1,exp3.png,exp4.png,1,1,non-reversed,correct,0.6049613067420481,1,valid_win,80.08835680000001,14,,,,,,,,,,,,,,,sub_981,2024-11-03_12h22.32.320,Reversal,2023.1.3,59.97285628523747,1,
18,exp1.png,exp2.png,,0,0,0,0,0,18,18,18,,,,,,,,,,,,,,,,,,,,,,,,,False,18,19,False,exp1.png,exp2.png,trial_left_image,1,exp1.png,1,exp1.png,exp2.png,1,3,reversed,correct,0.15646127241414332,0,invalid_lose,84.6533092,14,,,,,,,,,,,,,,,sub_981,2024-11-03_12h22.32.320,Reversal,2023.1.3,59.97285628523747,1,
19,exp3.png,exp4.png,,0,0,0,0,0,19,19,19,,,,,,,,,,,,,,,,,,,,,,,,,False,19,20,False,exp3.png,exp4.png,trial_left_image,1,exp3.png,1,exp3.png,exp4.png,1,1,non-reversed,correct,0.26868679489541025,1,valid_win,89.1352492,15,,,,,,,,,,,,,,,sub_981,2024-11-03_12h22.32.320,Reversal,2023.1.3,59.97285628523747,1,
20,exp1.png,exp2.png,,0,0,0,0,0,20,20,20,,,,,,,,,,,,,,,,,,,,,,,,,True,,,,,,,,,,,,,,,,,,,,,,,,,,,,,,,,,,,sub_981,2024-11-03_12h22.32.320,Reversal,2023.1.3,59.97285628523747,1,
,,,exp1.png,0,0,0,0,,,,,0,0,0,0,0,0,0,0,,,,,,,,,,,,,,,,,,,,,,,,,,,,,,,,,,,,,,144.86185100000003,88.0,88.0,7.143698700000016,"[(88.0, 7.143698700000016)]",,,,,,,,,,sub_981,2024-11-03_12h22.32.320,Reversal,2023.1.3,59.97285628523747,1,
,,,exp2.png,0,0,0,0,,,,,0,0,0,0,0,1,1,1,,,,,,,,,,,,,,,,,,,,,,,,,,,,,,,,,,,,,,153.9814059,,9.0,3.174151600000016,"[(9.0, 3.174151600000016)]",9.0,,,,,,,,,sub_981,2024-11-03_12h22.32.320,Reversal,2023.1.3,59.97285628523747,1,
,,,exp3.png,0,0,0,0,,,,,0,0,0,0,0,2,2,2,,,,,,,,,,,,,,,,,,,,,,,,,,,,,,,,,,,,,,158.91120700000002,,72.0,5.159436400000004,"[(71.0, 1.8776081999999974), (68.0, 4.17619830000001), (72.0, 5.159436400000004)]",,72.0,,,,,,,,sub_981,2024-11-03_12h22.32.320,Reversal,2023.1.3,59.97285628523747,1,
,,,exp4.png,0,0,0,0,,,,,0,0,0,0,0,3,3,3,,,,,,,,,,,,,,,,,,,,,,,,,,,,,,,,,,,,,,165.59717980000002,,31.0,1.5237672000000089,"[(31.0, 1.5237672000000089)]",,,31.0,,,,,,,sub_981,2024-11-03_12h22.32.320,Reversal,2023.1.3,59.97285628523747,1,
0,exp1.png,exp2.png,,1,0,1,0,0,0,0,0,,,,,,,,,,,,,,,,,,,,,,,,,False,20,21,False,exp1.png,exp2.png,trial_left_image,1,exp1.png,1,exp1.png,exp2.png,1,3,reversed,correct,0.5864539505698615,1,valid_win,118.37541580000001,16,,,,,,,,,,,,,,,sub_981,2024-11-03_12h22.32.320,Reversal,2023.1.3,59.97285628523747,1,
1,exp3.png,exp4.png,,1,0,1,0,0,1,1,1,,,,,,,,,,,,,,,,,,,,,,,,,False,21,22,True,exp4.png,exp3.png,trial_right_image,-1,exp3.png,1,exp3.png,exp4.png,1,1,non-reversed,correct,0.8019454781979419,1,valid_win,122.69057410000002,17,,,,,,,,,,,,,,,sub_981,2024-11-03_12h22.32.320,Reversal,2023.1.3,59.97285628523747,1,
2,exp1.png,exp2.png,,1,0,1,0,0,2,2,2,,,,,,,,,,,,,,,,,,,,,,,,,False,22,23,True,exp2.png,exp1.png,trial_right_image,-1,exp1.png,1,exp1.png,exp2.png,1,3,reversed,correct,0.5753943056877893,1,valid_win,126.97219750000002,18,,,,,,,,,,,,,,,sub_981,2024-11-03_12h22.32.320,Reversal,2023.1.3,59.97285628523747,1,
3,exp3.png,exp4.png,,1,0,1,0,0,3,3,3,,,,,,,,,,,,,,,,,,,,,,,,,False,23,24,False,exp3.png,exp4.png,trial_left_image,1,exp3.png,1,exp3.png,exp4.png,1,1,non-reversed,correct,0.1083609908777785,0,invalid_lose,131.2207835,18,,,,,,,,,,,,,,,sub_981,2024-11-03_12h22.32.320,Reversal,2023.1.3,59.97285628523747,1,
4,exp1.png,exp2.png,,1,0,1,0,0,4,4,4,,,,,,,,,,,,,,,,,,,,,,,,,False,24,25,False,exp1.png,exp2.png,trial_left_image,1,exp1.png,1,exp1.png,exp2.png,1,3,reversed,correct,0.4872828034149378,1,valid_win,135.7525674,19,,,,,,,,,,,,,,,sub_981,2024-11-03_12h22.32.320,Reversal,2023.1.3,59.97285628523747,1,
5,exp3.png,exp4.png,,1,0,1,0,0,5,5,5,,,,,,,,,,,,,,,,,,,,,,,,,False,25,26,True,exp4.png,exp3.png,trial_right_image,-1,exp3.png,1,exp3.png,exp4.png,1,1,non-reversed,correct,0.050928164172012624,0,invalid_lose,140.01775290000003,19,,,,,,,,,,,,,,,sub_981,2024-11-03_12h22.32.320,Reversal,2023.1.3,59.97285628523747,1,
6,exp1.png,exp2.png,,1,0,1,0,0,6,6,6,,,,,,,,,,,,,,,,,,,,,,,,,False,26,27,False,exp1.png,exp2.png,trial_left_image,1,exp1.png,1,exp1.png,exp2.png,1,3,reversed,correct,0.6065925325026654,1,valid_win,144.2497941,20,,,,,,,,,,,,,,,sub_981,2024-11-03_12h22.32.320,Reversal,2023.1.3,59.97285628523747,1,
7,exp3.png,exp4.png,,1,0,1,0,0,7,7,7,,,,,,,,,,,,,,,,,,,,,,,,,False,27,28,True,exp4.png,exp3.png,trial_right_image,-1,exp3.png,1,exp3.png,exp4.png,1,1,non-reversed,correct,0.9766548940678592,1,valid_win,148.73134860000002,21,,,,,,,,,,,,,,,sub_981,2024-11-03_12h22.32.320,Reversal,2023.1.3,59.97285628523747,1,
8,exp1.png,exp2.png,,1,0,1,0,0,8,8,8,,,,,,,,,,,,,,,,,,,,,,,,,False,28,29,False,exp1.png,exp2.png,trial_left_image,1,exp1.png,1,exp1.png,exp2.png,1,3,reversed,correct,0.6832189168686403,1,valid_win,153.04704560000002,22,,,,,,,,,,,,,,,sub_981,2024-11-03_12h22.32.320,Reversal,2023.1.3,59.97285628523747,1,
9,exp3.png,exp4.png,,1,0,1,0,0,9,9,9,,,,,,,,,,,,,,,,,,,,,,,,,False,29,30,False,exp3.png,exp4.png,trial_left_image,1,exp3.png,1,exp3.png,exp4.png,1,1,non-reversed,correct,0.9182682438360151,1,valid_win,157.4456638,23,,,,,,,,,,,,,,,sub_981,2024-11-03_12h22.32.320,Reversal,2023.1.3,59.97285628523747,1,
10,exp1.png,exp2.png,,1,0,1,0,0,10,10,10,,,,,,,,,,,,,,,,,,,,,,,,,False,30,31,False,exp1.png,exp2.png,trial_left_image,1,exp1.png,1,exp1.png,exp2.png,1,3,reversed,correct,0.3641940192525738,1,valid_win,162.0101905,24,,,,,,,,,,,,,,,sub_981,2024-11-03_12h22.32.320,Reversal,2023.1.3,59.97285628523747,1,
11,exp3.png,exp4.png,,1,0,1,0,0,11,11,11,,,,,,,,,,,,,,,,,,,,,,,,,False,31,32,True,exp4.png,exp3.png,trial_right_image,-1,exp3.png,1,exp3.png,exp4.png,1,1,non-reversed,correct,0.8155545773143413,1,valid_win,166.84212010000002,25,,,,,,,,,,,,,,,sub_981,2024-11-03_12h22.32.320,Reversal,2023.1.3,59.97285628523747,1,
12,exp1.png,exp2.png,,1,0,1,0,0,12,12,12,,,,,,,,,,,,,,,,,,,,,,,,,False,32,33,True,exp2.png,exp1.png,trial_right_image,-1,exp1.png,1,exp1.png,exp2.png,1,3,reversed,correct,0.26560255362255647,1,valid_win,171.290449,26,,,,,,,,,,,,,,,sub_981,2024-11-03_12h22.32.320,Reversal,2023.1.3,59.97285628523747,1,
13,exp3.png,exp4.png,,1,0,1,0,0,13,13,13,,,,,,,,,,,,,,,,,,,,,,,,,False,33,34,False,exp3.png,exp4.png,trial_right_image,-1,exp4.png,1,exp3.png,exp4.png,0,2,non-reversed,incorrect,0.00021711090017395573,1,invalid_win,175.6389399,27,,,,,,,,,,,,,,,sub_981,2024-11-03_12h22.32.320,Reversal,2023.1.3,59.97285628523747,1,
14,exp1.png,exp2.png,,1,0,1,0,0,14,14,14,,,,,,,,,,,,,,,,,,,,,,,,,False,34,35,False,exp1.png,exp2.png,trial_left_image,1,exp1.png,1,exp1.png,exp2.png,1,3,reversed,correct,0.35295506297599877,1,valid_win,180.43745090000002,28,,,,,,,,,,,,,,,sub_981,2024-11-03_12h22.32.320,Reversal,2023.1.3,59.97285628523747,1,
15,exp3.png,exp4.png,,1,0,1,0,0,15,15,15,,,,,,,,,,,,,,,,,,,,,,,,,False,35,36,True,exp4.png,exp3.png,trial_left_image,1,exp4.png,1,exp3.png,exp4.png,0,2,non-reversed,incorrect,0.5690017950471077,0,valid_lose,185.00295830000002,28,,,,,,,,,,,,,,,sub_981,2024-11-03_12h22.32.320,Reversal,2023.1.3,59.97285628523747,1,
16,exp1.png,exp2.png,,1,0,1,0,0,16,16,16,,,,,,,,,,,,,,,,,,,,,,,,,False,36,37,True,exp2.png,exp1.png,trial_right_image,-1,exp1.png,1,exp1.png,exp2.png,1,3,reversed,correct,0.8396607312480574,1,valid_win,189.6010997,29,,,,,,,,,,,,,,,sub_981,2024-11-03_12h22.32.320,Reversal,2023.1.3,59.97285628523747,1,
17,exp3.png,exp4.png,,1,0,1,0,0,17,17,17,,,,,,,,,,,,,,,,,,,,,,,,,False,37,38,True,exp4.png,exp3.png,trial_right_image,-1,exp3.png,1,exp3.png,exp4.png,1,1,non-reversed,correct,0.36696611397182455,1,valid_win,194.39927780000002,30,,,,,,,,,,,,,,,sub_981,2024-11-03_12h22.32.320,Reversal,2023.1.3,59.97285628523747,1,
18,exp1.png,exp2.png,,1,0,1,0,0,18,18,18,,,,,,,,,,,,,,,,,,,,,,,,,False,38,39,False,exp1.png,exp2.png,trial_left_image,1,exp1.png,1,exp1.png,exp2.png,1,3,reversed,correct,0.09738011410059155,0,invalid_lose,198.7479559,30,,,,,,,,,,,,,,,sub_981,2024-11-03_12h22.32.320,Reversal,2023.1.3,59.97285628523747,1,
19,exp3.png,exp4.png,,1,0,1,0,0,19,19,19,,,,,,,,,,,,,,,,,,,,,,,,,False,39,40,True,exp4.png,exp3.png,trial_right_image,-1,exp3.png,1,exp3.png,exp4.png,1,1,non-reversed,correct,0.09936886393048161,0,invalid_lose,203.09640520000002,30,,,,,,,,,,,,,,,sub_981,2024-11-03_12h22.32.320,Reversal,2023.1.3,59.97285628523747,1,
20,exp1.png,exp2.png,,1,0,1,0,0,20,20,20,,,,,,,,,,,,,,,,,,,,,,,,,True,,,,,,,,,,,,,,,,,,,,,,,,,,,,,,,,,,,sub_981,2024-11-03_12h22.32.320,Reversal,2023.1.3,59.97285628523747,1,
,,,exp1.png,1,0,1,0,,,,,0,0,0,0,0,0,0,0,,,,,,,,,,,,,,,,,,,,,,,,,,,,,,,,,,,,,,258.8338645,92.0,92.0,6.879841499999998,"[(92.0, 6.879841499999998)]",,,,,,,,,,sub_981,2024-11-03_12h22.32.320,Reversal,2023.1.3,59.97285628523747,1,
,,,exp2.png,1,0,1,0,,,,,0,0,0,0,0,1,1,1,,,,,,,,,,,,,,,,,,,,,,,,,,,,,,,,,,,,,,266.95817780000004,,9.0,2.691658200000006,"[(9.0, 2.691658200000006)]",9.0,,,,,,,,,sub_981,2024-11-03_12h22.32.320,Reversal,2023.1.3,59.97285628523747,1,
,,,exp3.png,1,0,1,0,,,,,0,0,0,0,0,2,2,2,,,,,,,,,,,,,,,,,,,,,,,,,,,,,,,,,,,,,,272.0898273,,63.0,3.2427602000000206,"[(63.0, 3.2427602000000206)]",,63.0,,,,,,,,sub_981,2024-11-03_12h22.32.320,Reversal,2023.1.3,59.97285628523747,1,
,,,exp4.png,1,0,1,0,,,,,0,0,0,0,0,3,3,3,,,,,,,,,,,,,,,,,,,,,,,,,,,,,,,,,,,,,,276.9037498,,36.0,1.1943489000000227,"[(36.0, 1.1943489000000227)]",,,36.0,,,,,,,sub_981,2024-11-03_12h22.32.320,Reversal,2023.1.3,59.97285628523747,1,
0,exp1.png,exp2.png,,2,0,2,0,0,0,0,0,,,,,,,,,,,,,,,,,,,,,,,,,False,40,41,True,exp2.png,exp1.png,trial_right_image,-1,exp1.png,1,exp1.png,exp2.png,1,3,reversed,correct,0.6340612969719135,1,valid_win,229.30414299999998,31,,,,,,,,,,,,,,,sub_981,2024-11-03_12h22.32.320,Reversal,2023.1.3,59.97285628523747,1,
1,exp3.png,exp4.png,,2,0,2,0,0,1,1,1,,,,,,,,,,,,,,,,,,,,,,,,,False,41,42,False,exp3.png,exp4.png,trial_left_image,1,exp3.png,1,exp3.png,exp4.png,1,1,non-reversed,correct,0.16703606062496035,0,invalid_lose,233.7028882,31,,,,,,,,,,,,,,,sub_981,2024-11-03_12h22.32.320,Reversal,2023.1.3,59.97285628523747,1,
2,exp1.png,exp2.png,,2,0,2,0,0,2,2,2,,,,,,,,,,,,,,,,,,,,,,,,,False,42,43,True,exp2.png,exp1.png,trial_right_image,-1,exp1.png,1,exp1.png,exp2.png,1,3,reversed,correct,0.0932975257679054,0,invalid_lose,238.2010968,31,,,,,,,,,,,,,,,sub_981,2024-11-03_12h22.32.320,Reversal,2023.1.3,59.97285628523747,1,
3,exp3.png,exp4.png,,2,0,2,0,0,3,3,3,,,,,,,,,,,,,,,,,,,,,,,,,False,43,44,False,exp3.png,exp4.png,trial_left_image,1,exp3.png,1,exp3.png,exp4.png,1,1,non-reversed,correct,0.9983880569017257,1,valid_win,242.98305030000003,32,,,,,,,,,,,,,,,sub_981,2024-11-03_12h22.32.320,Reversal,2023.1.3,59.97285628523747,1,
4,exp1.png,exp2.png,,2,0,2,0,0,4,4,4,,,,,,,,,,,,,,,,,,,,,,,,,False,44,45,False,exp1.png,exp2.png,trial_left_image,1,exp1.png,1,exp1.png,exp2.png,1,3,reversed,correct,0.259113272305888,1,valid_win,247.3483489,33,,,,,,,,,,,,,,,sub_981,2024-11-03_12h22.32.320,Reversal,2023.1.3,59.97285628523747,1,
5,exp3.png,exp4.png,,2,0,2,0,0,5,5,5,,,,,,,,,,,,,,,,,,,,,,,,,False,45,46,False,exp3.png,exp4.png,trial_left_image,1,exp3.png,1,exp3.png,exp4.png,1,1,non-reversed,correct,0.8373932991465984,1,valid_win,251.6798815,34,,,,,,,,,,,,,,,sub_981,2024-11-03_12h22.32.320,Reversal,2023.1.3,59.97285628523747,1,
6,exp1.png,exp2.png,,2,0,2,0,0,6,6,6,,,,,,,,,,,,,,,,,,,,,,,,,False,46,47,True,exp2.png,exp1.png,trial_right_image,-1,exp1.png,1,exp1.png,exp2.png,1,3,reversed,correct,0.29587235241005383,1,valid_win,256.52863609999997,35,,,,,,,,,,,,,,,sub_981,2024-11-03_12h22.32.320,Reversal,2023.1.3,59.97285628523747,1,
7,exp3.png,exp4.png,,2,0,2,0,0,7,7,7,,,,,,,,,,,,,,,,,,,,,,,,,False,47,48,True,exp4.png,exp3.png,trial_right_image,-1,exp3.png,1,exp3.png,exp4.png,1,1,non-reversed,correct,0.8532152935041735,1,valid_win,261.04384160000006,36,,,,,,,,,,,,,,,sub_981,2024-11-03_12h22.32.320,Reversal,2023.1.3,59.97285628523747,1,
8,exp1.png,exp2.png,,2,0,2,0,0,8,8,8,,,,,,,,,,,,,,,,,,,,,,,,,False,48,49,False,exp1.png,exp2.png,trial_left_image,1,exp1.png,1,exp1.png,exp2.png,1,3,reversed,correct,0.7547637732959831,1,valid_win,265.79183550000005,37,,,,,,,,,,,,,,,sub_981,2024-11-03_12h22.32.320,Reversal,2023.1.3,59.97285628523747,1,
9,exp3.png,exp4.png,,2,0,2,0,0,9,9,9,,,,,,,,,,,,,,,,,,,,,,,,,False,49,50,False,exp3.png,exp4.png,trial_left_image,1,exp3.png,1,exp3.png,exp4.png,1,1,non-reversed,correct,0.6453195991081817,1,valid_win,270.04027640000004,38,,,,,,,,,,,,,,,sub_981,2024-11-03_12h22.32.320,Reversal,2023.1.3,59.97285628523747,1,
10,exp1.png,exp2.png,,2,0,2,0,0,10,10,10,,,,,,,,,,,,,,,,,,,,,,,,,False,50,51,True,exp2.png,exp1.png,trial_right_image,-1,exp1.png,1,exp1.png,exp2.png,1,3,reversed,correct,0.35245751865027175,1,valid_win,274.3387395000001,39,,,,,,,,,,,,,,,sub_981,2024-11-03_12h22.32.320,Reversal,2023.1.3,59.97285628523747,1,
11,exp3.png,exp4.png,,2,0,2,0,0,11,11,11,,,,,,,,,,,,,,,,,,,,,,,,,False,51,52,True,exp4.png,exp3.png,trial_right_image,-1,exp3.png,1,exp3.png,exp4.png,1,1,non-reversed,correct,0.9649186506695817,1,valid_win,278.6373351000001,40,,,,,,,,,,,,,,,sub_981,2024-11-03_12h22.32.320,Reversal,2023.1.3,59.97285628523747,1,
12,exp1.png,exp2.png,,2,0,2,0,0,12,12,12,,,,,,,,,,,,,,,,,,,,,,,,,False,52,53,True,exp2.png,exp1.png,trial_right_image,-1,exp1.png,1,exp1.png,exp2.png,1,3,reversed,correct,0.16990618208076602,0,invalid_lose,283.1195956,40,,,,,,,,,,,,,,,sub_981,2024-11-03_12h22.32.320,Reversal,2023.1.3,59.97285628523747,1,
13,exp3.png,exp4.png,,2,0,2,0,0,13,13,13,,,,,,,,,,,,,,,,,,,,,,,,,False,53,54,False,exp3.png,exp4.png,trial_left_image,1,exp3.png,1,exp3.png,exp4.png,1,1,non-reversed,correct,0.8703862244041868,1,valid_win,287.451239,41,,,,,,,,,,,,,,,sub_981,2024-11-03_12h22.32.320,Reversal,2023.1.3,59.97285628523747,1,
14,exp1.png,exp2.png,,2,0,2,0,0,14,14,14,,,,,,,,,,,,,,,,,,,,,,,,,False,54,55,True,exp2.png,exp1.png,trial_right_image,-1,exp1.png,1,exp1.png,exp2.png,1,3,reversed,correct,0.024399872829251268,0,invalid_lose,291.8829905,41,,,,,,,,,,,,,,,sub_981,2024-11-03_12h22.32.320,Reversal,2023.1.3,59.97285628523747,1,
15,exp3.png,exp4.png,,2,0,2,0,0,15,15,15,,,,,,,,,,,,,,,,,,,,,,,,,False,55,56,False,exp3.png,exp4.png,trial_left_image,1,exp3.png,1,exp3.png,exp4.png,1,1,non-reversed,correct,0.7262751199230455,1,valid_win,296.3813878000001,42,,,,,,,,,,,,,,,sub_981,2024-11-03_12h22.32.320,Reversal,2023.1.3,59.97285628523747,1,
16,exp1.png,exp2.png,,2,0,2,0,0,16,16,16,,,,,,,,,,,,,,,,,,,,,,,,,False,56,57,False,exp1.png,exp2.png,trial_left_image,1,exp1.png,1,exp1.png,exp2.png,1,3,reversed,correct,0.2540885747141486,1,valid_win,300.8135959,43,,,,,,,,,,,,,,,sub_981,2024-11-03_12h22.32.320,Reversal,2023.1.3,59.97285628523747,1,
17,exp3.png,exp4.png,,2,0,2,0,0,17,17,17,,,,,,,,,,,,,,,,,,,,,,,,,False,57,58,True,exp4.png,exp3.png,trial_right_image,-1,exp3.png,1,exp3.png,exp4.png,1,1,non-reversed,correct,0.6627775640987288,1,valid_win,305.3953289,44,,,,,,,,,,,,,,,sub_981,2024-11-03_12h22.32.320,Reversal,2023.1.3,59.97285628523747,1,
18,exp1.png,exp2.png,,2,0,2,0,0,18,18,18,,,,,,,,,,,,,,,,,,,,,,,,,False,58,59,True,exp2.png,exp1.png,trial_right_image,-1,exp1.png,1,exp1.png,exp2.png,1,3,reversed,correct,0.7717082283456269,1,valid_win,310.41007590000004,45,,,,,,,,,,,,,,,sub_981,2024-11-03_12h22.32.320,Reversal,2023.1.3,59.97285628523747,1,
19,exp3.png,exp4.png,,2,0,2,0,0,19,19,19,,,,,,,,,,,,,,,,,,,,,,,,,False,59,60,False,exp3.png,exp4.png,trial_left_image,1,exp3.png,1,exp3.png,exp4.png,1,1,non-reversed,correct,0.5443319952140961,1,valid_win,314.97535990000006,46,,,,,,,,,,,,,,,sub_981,2024-11-03_12h22.32.320,Reversal,2023.1.3,59.97285628523747,1,
20,exp1.png,exp2.png,,2,0,2,0,0,20,20,20,,,,,,,,,,,,,,,,,,,,,,,,,True,,,,,,,,,,,,,,,,,,,,,,,,,,,,,,,,,,,sub_981,2024-11-03_12h22.32.320,Reversal,2023.1.3,59.97285628523747,1,
,,,exp1.png,2,0,2,0,,,,,0,0,0,0,0,0,0,0,,,,,,,,,,,,,,,,,,,,,,,,,,,,,,,,,,,,,,370.707989,81.0,81.0,5.276545700000042,"[(81.0, 5.276545700000042)]",,,,,,,,,,sub_981,2024-11-03_12h22.32.320,Reversal,2023.1.3,59.97285628523747,1,
,,,exp2.png,2,0,2,0,,,,,0,0,0,0,0,1,1,1,,,,,,,,,,,,,,,,,,,,,,,,,,,,,,,,,,,,,,377.36925180000003,,17.0,2.2114205999999967,"[(17.0, 2.2114205999999967)]",17.0,,,,,,,,,sub_981,2024-11-03_12h22.32.320,Reversal,2023.1.3,59.97285628523747,1,
,,,exp3.png,2,0,2,0,,,,,0,0,0,0,0,2,2,2,,,,,,,,,,,,,,,,,,,,,,,,,,,,,,,,,,,,,,381.23512700000003,,88.0,8.208320699999945,"[(87.0, 4.259671000000026), (88.0, 8.208320699999945)]",,88.0,,,,,,,,sub_981,2024-11-03_12h22.32.320,Reversal,2023.1.3,59.97285628523747,1,
,,,exp4.png,2,0,2,0,,,,,0,0,0,0,0,3,3,3,,,,,,,,,,,,,,,,,,,,,,,,,,,,,,,,,,,,,,390.9650004,,11.0,2.1599370000000135,"[(11.0, 2.1599370000000135)]",,,11.0,,,,,,,sub_981,2024-11-03_12h22.32.320,Reversal,2023.1.3,59.97285628523747,1,
0,exp1.png,exp2.png,,,,,,,,,,,,,,,,,,0,0,0,0,0,0,0,0,,,,,,,,,False,0,61,True,exp2.png,exp1.png,trial_right_image,-1,exp1.png,1,exp2.png,exp1.png,1,3,reversed,incorrect,0.7397783120012805,0,valid_lose,344.01581540000006,46,,,,,,,,,341.94668750000005,,,,,,sub_981,2024-11-03_12h22.32.320,Reversal,2023.1.3,59.97285628523747,1,
1,exp3.png,exp4.png,,,,,,,,,,,,,,,,,,0,0,0,0,0,1,1,1,,,,,,,,,False,1,62,False,exp3.png,exp4.png,trial_left_image,1,exp3.png,1,exp3.png,exp4.png,1,1,non-reversed,correct,0.33714341482593013,1,valid_win,348.2641421000001,47,,,,,,,,,,,,,,,sub_981,2024-11-03_12h22.32.320,Reversal,2023.1.3,59.97285628523747,1,
2,exp1.png,exp2.png,,,,,,,,,,,,,,,,,,0,0,0,0,0,2,2,2,,,,,,,,,False,2,63,True,exp2.png,exp1.png,trial_right_image,-1,exp1.png,1,exp2.png,exp1.png,1,3,reversed,incorrect,0.8178079330600665,0,valid_lose,352.429167,47,,,,,,,,,,,,,,,sub_981,2024-11-03_12h22.32.320,Reversal,2023.1.3,59.97285628523747,1,
3,exp3.png,exp4.png,,,,,,,,,,,,,,,,,,0,0,0,0,0,3,3,3,,,,,,,,,False,3,64,False,exp3.png,exp4.png,trial_left_image,1,exp3.png,1,exp3.png,exp4.png,1,1,non-reversed,correct,0.3904256609590705,1,valid_win,356.7280757000001,48,,,,,,,,,,,,,,,sub_981,2024-11-03_12h22.32.320,Reversal,2023.1.3,59.97285628523747,1,
4,exp1.png,exp2.png,,,,,,,,,,,,,,,,,,0,0,0,0,0,4,4,4,,,,,,,,,False,4,65,True,exp2.png,exp1.png,trial_left_image,1,exp2.png,1,exp2.png,exp1.png,0,4,reversed,correct,0.9118997871121656,1,valid_win,361.14282460000004,49,,,,,,,,,,,,,,,sub_981,2024-11-03_12h22.32.320,Reversal,2023.1.3,59.97285628523747,1,
5,exp3.png,exp4.png,,,,,,,,,,,,,,,,,,0,0,0,0,0,5,5,5,,,,,,,,,False,5,66,False,exp3.png,exp4.png,trial_left_image,1,exp3.png,1,exp3.png,exp4.png,1,1,non-reversed,correct,0.05925686878359704,0,invalid_lose,365.59210070000006,49,,,,,,,,,,,,,,,sub_981,2024-11-03_12h22.32.320,Reversal,2023.1.3,59.97285628523747,1,
6,exp1.png,exp2.png,,,,,,,,,,,,,,,,,,0,0,0,0,0,6,6,6,,,,,,,,,False,6,67,False,exp1.png,exp2.png,trial_right_image,-1,exp2.png,1,exp2.png,exp1.png,0,4,reversed,correct,0.2617911799740186,1,valid_win,370.15634750000004,50,,,,,,,,,,,,,,,sub_981,2024-11-03_12h22.32.320,Reversal,2023.1.3,59.97285628523747,1,
7,exp3.png,exp4.png,,,,,,,,,,,,,,,,,,0,0,0,0,0,7,7,7,,,,,,,,,False,7,68,False,exp3.png,exp4.png,trial_left_image,1,exp3.png,1,exp3.png,exp4.png,1,1,non-reversed,correct,0.18178827900326056,0,invalid_lose,374.65508550000004,50,,,,,,,,,,,,,,,sub_981,2024-11-03_12h22.32.320,Reversal,2023.1.3,59.97285628523747,1,
8,exp1.png,exp2.png,,,,,,,,,,,,,,,,,,0,0,0,0,0,8,8,8,,,,,,,,,False,8,69,True,exp2.png,exp1.png,trial_left_image,1,exp2.png,1,exp2.png,exp1.png,0,4,reversed,correct,0.24185946531886382,0,invalid_lose,378.8704895000001,50,,,,,,,,,,,,,,,sub_981,2024-11-03_12h22.32.320,Reversal,2023.1.3,59.97285628523747,1,
9,exp3.png,exp4.png,,,,,,,,,,,,,,,,,,0,0,0,0,0,9,9,9,,,,,,,,,False,9,70,False,exp3.png,exp4.png,trial_left_image,1,exp3.png,1,exp3.png,exp4.png,1,1,non-reversed,correct,0.9610407531666063,1,valid_win,383.0355796,51,,,,,,,,,,,,,,,sub_981,2024-11-03_12h22.32.320,Reversal,2023.1.3,59.97285628523747,1,
10,exp1.png,exp2.png,,,,,,,,,,,,,,,,,,0,0,0,0,0,10,10,10,,,,,,,,,False,10,71,True,exp2.png,exp1.png,trial_left_image,1,exp2.png,1,exp2.png,exp1.png,0,4,reversed,correct,0.16806156269054295,0,invalid_lose,387.4674024000001,51,,,,,,,,,,,,,,,sub_981,2024-11-03_12h22.32.320,Reversal,2023.1.3,59.97285628523747,1,
11,exp3.png,exp4.png,,,,,,,,,,,,,,,,,,0,0,0,0,0,11,11,11,,,,,,,,,False,11,72,True,exp4.png,exp3.png,trial_right_image,-1,exp3.png,1,exp3.png,exp4.png,1,1,non-reversed,correct,0.9222591171124339,1,valid_win,391.84894040000006,52,,,,,,,,,,,,,,,sub_981,2024-11-03_12h22.32.320,Reversal,2023.1.3,59.97285628523747,1,
12,exp1.png,exp2.png,,,,,,,,,,,,,,,,,,0,0,0,0,0,12,12,12,,,,,,,,,False,12,73,False,exp1.png,exp2.png,trial_left_image,1,exp1.png,1,exp2.png,exp1.png,1,3,reversed,incorrect,0.41287686243628896,0,valid_lose,396.09749940000006,52,,,,,,,,,,,,,,,sub_981,2024-11-03_12h22.32.320,Reversal,2023.1.3,59.97285628523747,1,
13,exp3.png,exp4.png,,,,,,,,,,,,,,,,,,0,0,0,0,0,13,13,13,,,,,,,,,False,13,74,False,exp3.png,exp4.png,trial_left_image,1,exp3.png,1,exp3.png,exp4.png,1,1,non-reversed,correct,0.11708356163875444,0,invalid_lose,400.47972990000005,52,,,,,,,,,,,,,,,sub_981,2024-11-03_12h22.32.320,Reversal,2023.1.3,59.97285628523747,1,
14,exp1.png,exp2.png,,,,,,,,,,,,,,,,,,0,0,0,0,0,14,14,14,,,,,,,,,False,14,75,True,exp2.png,exp1.png,trial_right_image,-1,exp1.png,1,exp2.png,exp1.png,1,3,reversed,incorrect,0.3510923692325164,0,valid_lose,405.0446846,52,,,,,,,,,,,,,,,sub_981,2024-11-03_12h22.32.320,Reversal,2023.1.3,59.97285628523747,1,
15,exp3.png,exp4.png,,,,,,,,,,,,,,,,,,0,0,0,0,0,15,15,15,,,,,,,,,False,15,76,False,exp3.png,exp4.png,trial_left_image,1,exp3.png,1,exp3.png,exp4.png,1,1,non-reversed,correct,0.9732366418593729,1,valid_win,409.77649770000005,53,,,,,,,,,,,,,,,sub_981,2024-11-03_12h22.32.320,Reversal,2023.1.3,59.97285628523747,1,
16,exp1.png,exp2.png,,,,,,,,,,,,,,,,,,0,0,0,0,0,16,16,16,,,,,,,,,False,16,77,True,exp2.png,exp1.png,trial_right_image,-1,exp1.png,1,exp2.png,exp1.png,1,3,reversed,incorrect,0.313589530684766,0,valid_lose,414.2592032,53,,,,,,,,,,,,,,,sub_981,2024-11-03_12h22.32.320,Reversal,2023.1.3,59.97285628523747,1,
17,exp3.png,exp4.png,,,,,,,,,,,,,,,,,,0,0,0,0,0,17,17,17,,,,,,,,,False,17,78,False,exp3.png,exp4.png,trial_left_image,1,exp3.png,1,exp3.png,exp4.png,1,1,non-reversed,correct,0.4627054580073333,1,valid_win,418.6901904,54,,,,,,,,,,,,,,,sub_981,2024-11-03_12h22.32.320,Reversal,2023.1.3,59.97285628523747,1,
18,exp1.png,exp2.png,,,,,,,,,,,,,,,,,,0,0,0,0,0,18,18,18,,,,,,,,,False,18,79,True,exp2.png,exp1.png,trial_left_image,1,exp2.png,1,exp2.png,exp1.png,0,4,reversed,correct,0.6257133709261699,1,valid_win,422.97163680000006,55,,,,,,,,,,,,,,,sub_981,2024-11-03_12h22.32.320,Reversal,2023.1.3,59.97285628523747,1,
19,exp3.png,exp4.png,,,,,,,,,,,,,,,,,,0,0,0,0,0,19,19,19,,,,,,,,,False,19,80,True,exp4.png,exp3.png,trial_right_image,-1,exp3.png,1,exp3.png,exp4.png,1,1,non-reversed,correct,0.3600743882107512,1,valid_win,427.5204292000001,56,,,,,,,,,,,,,,,sub_981,2024-11-03_12h22.32.320,Reversal,2023.1.3,59.97285628523747,1,
20,exp1.png,exp2.png,,,,,,,,,,,,,,,,,,0,0,0,0,0,20,20,20,,,,,,,,,True,,,,,,,,,,,,,,,,,,,,,,,,,,,,,,,,,,,sub_981,2024-11-03_12h22.32.320,Reversal,2023.1.3,59.97285628523747,1,
,,,exp1.png,,,,,,,,,,,,,,,,,0,0,0,0,,,,,0,0,0,0,0,0,0,0,,,,,,,,,,,,,,,,,,,,,,483.25098820000005,31.0,31.0,4.998086699999931,"[(31.0, 4.998086699999931)]",,,,,,,,,,sub_981,2024-11-03_12h22.32.320,Reversal,2023.1.3,59.97285628523747,1,
,,,exp2.png,,,,,,,,,,,,,,,,,0,0,0,0,,,,,0,0,0,0,0,1,1,1,,,,,,,,,,,,,,,,,,,,,,491.549401,,66.0,1.2435623000000078,"[(66.0, 1.2435623000000078)]",66.0,,,,,,,,,sub_981,2024-11-03_12h22.32.320,Reversal,2023.1.3,59.97285628523747,1,
,,,exp3.png,,,,,,,,,,,,,,,,,0,0,0,0,,,,,0,0,0,0,0,2,2,2,,,,,,,,,,,,,,,,,,,,,,494.7165857,,21.0,2.2445843000000423,"[(21.0, 2.2445843000000423)]",,21.0,,,,,,,,sub_981,2024-11-03_12h22.32.320,Reversal,2023.1.3,59.97285628523747,1,
,,,exp4.png,,,,,,,,,,,,,,,,,0,0,0,0,,,,,0,0,0,0,0,3,3,3,,,,,,,,,,,,,,,,,,,,,,498.51258900000005,,18.0,8.341238900000008,"[(18.0, 8.341238900000008)]",,,18.0,,,,,,,sub_981,2024-11-03_12h22.32.320,Reversal,2023.1.3,59.97285628523747,1,
0,exp1.png,exp2.png,,,,,,,,,,,,,,,,,,1,0,1,0,0,0,0,0,,,,,,,,,False,20,81,False,exp1.png,exp2.png,trial_left_image,1,exp1.png,1,exp2.png,exp1.png,1,3,reversed,incorrect,0.5045812175375249,0,valid_lose,459.5096499,56,,,,,,,,,,,,,,,sub_981,2024-11-03_12h22.32.320,Reversal,2023.1.3,59.97285628523747,1,
1,exp3.png,exp4.png,,,,,,,,,,,,,,,,,,1,0,1,0,0,1,1,1,,,,,,,,,False,21,82,True,exp4.png,exp3.png,trial_right_image,-1,exp3.png,1,exp3.png,exp4.png,1,1,non-reversed,correct,0.9701719977394437,1,valid_win,463.8250032000001,57,,,,,,,,,,,,,,,sub_981,2024-11-03_12h22.32.320,Reversal,2023.1.3,59.97285628523747,1,
2,exp1.png,exp2.png,,,,,,,,,,,,,,,,,,1,0,1,0,0,2,2,2,,,,,,,,,False,22,83,False,exp1.png,exp2.png,trial_right_image,-1,exp2.png,1,exp2.png,exp1.png,0,4,reversed,correct,0.23871558366396695,0,invalid_lose,467.9733947000001,57,,,,,,,,,,,,,,,sub_981,2024-11-03_12h22.32.320,Reversal,2023.1.3,59.97285628523747,1,
3,exp3.png,exp4.png,,,,,,,,,,,,,,,,,,1,0,1,0,0,3,3,3,,,,,,,,,False,23,84,False,exp3.png,exp4.png,trial_left_image,1,exp3.png,1,exp3.png,exp4.png,1,1,non-reversed,correct,0.5489017685365409,1,valid_win,472.2553094,58,,,,,,,,,,,,,,,sub_981,2024-11-03_12h22.32.320,Reversal,2023.1.3,59.97285628523747,1,
4,exp1.png,exp2.png,,,,,,,,,,,,,,,,,,1,0,1,0,0,4,4,4,,,,,,,,,False,24,85,False,exp1.png,exp2.png,trial_right_image,-1,exp2.png,1,exp2.png,exp1.png,0,4,reversed,correct,0.5545271670636934,1,valid_win,476.6538627,59,,,,,,,,,,,,,,,sub_981,2024-11-03_12h22.32.320,Reversal,2023.1.3,59.97285628523747,1,
5,exp3.png,exp4.png,,,,,,,,,,,,,,,,,,1,0,1,0,0,5,5,5,,,,,,,,,False,25,86,False,exp3.png,exp4.png,trial_left_image,1,exp3.png,1,exp3.png,exp4.png,1,1,non-reversed,correct,0.8384198669967596,1,valid_win,480.9024165000001,60,,,,,,,,,,,,,,,sub_981,2024-11-03_12h22.32.320,Reversal,2023.1.3,59.97285628523747,1,
6,exp1.png,exp2.png,,,,,,,,,,,,,,,,,,1,0,1,0,0,6,6,6,,,,,,,,,False,26,87,True,exp2.png,exp1.png,trial_left_image,1,exp2.png,1,exp2.png,exp1.png,0,4,reversed,correct,0.2769954659800825,1,valid_win,485.7174057000001,61,,,,,,,,,,,,,,,sub_981,2024-11-03_12h22.32.320,Reversal,2023.1.3,59.97285628523747,1,
7,exp3.png,exp4.png,,,,,,,,,,,,,,,,,,1,0,1,0,0,7,7,7,,,,,,,,,False,27,88,True,exp4.png,exp3.png,trial_right_image,-1,exp3.png,1,exp3.png,exp4.png,1,1,non-reversed,correct,0.36930460576847857,1,valid_win,490.01593060000005,62,,,,,,,,,,,,,,,sub_981,2024-11-03_12h22.32.320,Reversal,2023.1.3,59.97285628523747,1,
8,exp1.png,exp2.png,,,,,,,,,,,,,,,,,,1,0,1,0,0,8,8,8,,,,,,,,,False,28,89,False,exp1.png,exp2.png,trial_right_image,-1,exp2.png,1,exp2.png,exp1.png,0,4,reversed,correct,0.5073162725525987,1,valid_win,494.3144615,63,,,,,,,,,,,,,,,sub_981,2024-11-03_12h22.32.320,Reversal,2023.1.3,59.97285628523747,1,
9,exp3.png,exp4.png,,,,,,,,,,,,,,,,,,1,0,1,0,0,9,9,9,,,,,,,,,False,29,90,False,exp3.png,exp4.png,trial_left_image,1,exp3.png,1,exp3.png,exp4.png,1,1,non-reversed,correct,0.7351434328898211,1,valid_win,498.8293520000001,64,,,,,,,,,,,,,,,sub_981,2024-11-03_12h22.32.320,Reversal,2023.1.3,59.97285628523747,1,
10,exp1.png,exp2.png,,,,,,,,,,,,,,,,,,1,0,1,0,0,10,10,10,,,,,,,,,False,30,91,False,exp1.png,exp2.png,trial_right_image,-1,exp2.png,1,exp2.png,exp1.png,0,4,reversed,correct,0.9595664167440918,1,valid_win,503.5285589,65,,,,,,,,,,,,,,,sub_981,2024-11-03_12h22.32.320,Reversal,2023.1.3,59.97285628523747,1,
11,exp3.png,exp4.png,,,,,,,,,,,,,,,,,,1,0,1,0,0,11,11,11,,,,,,,,,False,31,92,True,exp4.png,exp3.png,trial_right_image,-1,exp3.png,1,exp3.png,exp4.png,1,1,non-reversed,correct,0.952580265954961,1,valid_win,508.2267861,66,,,,,,,,,,,,,,,sub_981,2024-11-03_12h22.32.320,Reversal,2023.1.3,59.97285628523747,1,
12,exp1.png,exp2.png,,,,,,,,,,,,,,,,,,1,0,1,0,0,12,12,12,,,,,,,,,False,32,93,True,exp2.png,exp1.png,trial_left_image,1,exp2.png,1,exp2.png,exp1.png,0,4,reversed,correct,0.27252666344367793,1,valid_win,512.475675,67,,,,,,,,,,,,,,,sub_981,2024-11-03_12h22.32.320,Reversal,2023.1.3,59.97285628523747,1,
13,exp3.png,exp4.png,,,,,,,,,,,,,,,,,,1,0,1,0,0,13,13,13,,,,,,,,,False,33,94,True,exp4.png,exp3.png,trial_right_image,-1,exp3.png,1,exp3.png,exp4.png,1,1,non-reversed,correct,0.31234322181328145,1,valid_win,516.9567536000001,68,,,,,,,,,,,,,,,sub_981,2024-11-03_12h22.32.320,Reversal,2023.1.3,59.97285628523747,1,
14,exp1.png,exp2.png,,,,,,,,,,,,,,,,,,1,0,1,0,0,14,14,14,,,,,,,,,False,34,95,True,exp2.png,exp1.png,trial_left_image,1,exp2.png,1,exp2.png,exp1.png,0,4,reversed,correct,0.6376190247025351,1,valid_win,521.2390176,69,,,,,,,,,,,,,,,sub_981,2024-11-03_12h22.32.320,Reversal,2023.1.3,59.97285628523747,1,
15,exp3.png,exp4.png,,,,,,,,,,,,,,,,,,1,0,1,0,0,15,15,15,,,,,,,,,False,35,96,True,exp4.png,exp3.png,trial_right_image,-1,exp3.png,1,exp3.png,exp4.png,1,1,non-reversed,correct,0.6484186104567944,1,valid_win,525.654322,70,,,,,,,,,,,,,,,sub_981,2024-11-03_12h22.32.320,Reversal,2023.1.3,59.97285628523747,1,
16,exp1.png,exp2.png,,,,,,,,,,,,,,,,,,1,0,1,0,0,16,16,16,,,,,,,,,False,36,97,True,exp2.png,exp1.png,trial_left_image,1,exp2.png,1,exp2.png,exp1.png,0,4,reversed,correct,0.772402218629144,1,valid_win,530.318766,71,,,,,,,,,,,,,,,sub_981,2024-11-03_12h22.32.320,Reversal,2023.1.3,59.97285628523747,1,
17,exp3.png,exp4.png,,,,,,,,,,,,,,,,,,1,0,1,0,0,17,17,17,,,,,,,,,False,37,98,True,exp4.png,exp3.png,trial_right_image,-1,exp3.png,1,exp3.png,exp4.png,1,1,non-reversed,correct,0.3719616803694509,1,valid_win,534.8007434,72,,,,,,,,,,,,,,,sub_981,2024-11-03_12h22.32.320,Reversal,2023.1.3,59.97285628523747,1,
18,exp1.png,exp2.png,,,,,,,,,,,,,,,,,,1,0,1,0,0,18,18,18,,,,,,,,,False,38,99,False,exp1.png,exp2.png,trial_right_image,-1,exp2.png,1,exp2.png,exp1.png,0,4,reversed,correct,0.8756362407782364,1,valid_win,539.3989881,73,,,,,,,,,,,,,,,sub_981,2024-11-03_12h22.32.320,Reversal,2023.1.3,59.97285628523747,1,
19,exp3.png,exp4.png,,,,,,,,,,,,,,,,,,1,0,1,0,0,19,19,19,,,,,,,,,False,39,100,False,exp3.png,exp4.png,trial_left_image,1,exp3.png,1,exp3.png,exp4.png,1,1,non-reversed,correct,0.04783611031666413,0,invalid_lose,543.7478940000001,73,,,,,,,,,,,,,,,sub_981,2024-11-03_12h22.32.320,Reversal,2023.1.3,59.97285628523747,1,
20,exp1.png,exp2.png,,,,,,,,,,,,,,,,,,1,0,1,0,0,20,20,20,,,,,,,,,True,,,,,,,,,,,,,,,,,,,,,,,,,,,,,,,,,,,sub_981,2024-11-03_12h22.32.320,Reversal,2023.1.3,59.97285628523747,1,
,,,exp1.png,,,,,,,,,,,,,,,,,1,0,1,0,,,,,0,0,0,0,0,0,0,0,,,,,,,,,,,,,,,,,,,,,,599.4778287,12.0,12.0,7.079612399999974,"[(12.0, 7.079612399999974)]",,,,,,,,,,sub_981,2024-11-03_12h22.32.320,Reversal,2023.1.3,59.97285628523747,1,
,,,exp2.png,,,,,,,,,,,,,,,,,1,0,1,0,,,,,0,0,0,0,0,1,1,1,,,,,,,,,,,,,,,,,,,,,,607.8436077,,89.0,2.944648700000016,"[(91.0, 1.8604827999999998), (89.0, 2.944648700000016)]",89.0,,,,,,,,,sub_981,2024-11-03_12h22.32.320,Reversal,2023.1.3,59.97285628523747,1,
,,,exp3.png,,,,,,,,,,,,,,,,,1,0,1,0,,,,,0,0,0,0,0,2,2,2,,,,,,,,,,,,,,,,,,,,,,612.2769806,,90.0,2.19056779999994,"[(90.0, 2.19056779999994)]",,90.0,,,,,,,,sub_981,2024-11-03_12h22.32.320,Reversal,2023.1.3,59.97285628523747,1,
,,,exp4.png,,,,,,,,,,,,,,,,,1,0,1,0,,,,,0,0,0,0,0,3,3,3,,,,,,,,,,,,,,,,,,,,,,616.1150286000001,,16.0,1.7434507000000394,"[(16.0, 1.7434507000000394)]",,,16.0,,,,,,,sub_981,2024-11-03_12h22.32.320,Reversal,2023.1.3,59.97285628523747,1,
0,exp1.png,exp2.png,,,,,,,,,,,,,,,,,,2,0,2,0,0,0,0,0,,,,,,,,,False,40,101,False,exp1.png,exp2.png,trial_right_image,-1,exp2.png,1,exp2.png,exp1.png,0,4,reversed,correct,0.8757116609277555,1,valid_win,569.0558415,74,,,,,,,,,,,,,,,sub_981,2024-11-03_12h22.32.320,Reversal,2023.1.3,59.97285628523747,1,
1,exp3.png,exp4.png,,,,,,,,,,,,,,,,,,2,0,2,0,0,1,1,1,,,,,,,,,False,41,102,True,exp4.png,exp3.png,trial_right_image,-1,exp3.png,1,exp3.png,exp4.png,1,1,non-reversed,correct,0.3725555485737986,1,valid_win,573.5212505000001,75,,,,,,,,,,,,,,,sub_981,2024-11-03_12h22.32.320,Reversal,2023.1.3,59.97285628523747,1,
2,exp1.png,exp2.png,,,,,,,,,,,,,,,,,,2,0,2,0,0,2,2,2,,,,,,,,,False,42,103,True,exp2.png,exp1.png,trial_left_image,1,exp2.png,1,exp2.png,exp1.png,0,4,reversed,correct,0.11442185965891549,0,invalid_lose,578.1869596,75,,,,,,,,,,,,,,,sub_981,2024-11-03_12h22.32.320,Reversal,2023.1.3,59.97285628523747,1,
3,exp3.png,exp4.png,,,,,,,,,,,,,,,,,,2,0,2,0,0,3,3,3,,,,,,,,,False,43,104,True,exp4.png,exp3.png,trial_right_image,-1,exp3.png,1,exp3.png,exp4.png,1,1,non-reversed,correct,0.30348463566074746,1,valid_win,582.4678378,76,,,,,,,,,,,,,,,sub_981,2024-11-03_12h22.32.320,Reversal,2023.1.3,59.97285628523747,1,
4,exp1.png,exp2.png,,,,,,,,,,,,,,,,,,2,0,2,0,0,4,4,4,,,,,,,,,False,44,105,True,exp2.png,exp1.png,trial_left_image,1,exp2.png,1,exp2.png,exp1.png,0,4,reversed,correct,0.3360184018171114,1,valid_win,587.2332984000001,77,,,,,,,,,,,,,,,sub_981,2024-11-03_12h22.32.320,Reversal,2023.1.3,59.97285628523747,1,
5,exp3.png,exp4.png,,,,,,,,,,,,,,,,,,2,0,2,0,0,5,5,5,,,,,,,,,False,45,106,True,exp4.png,exp3.png,trial_right_image,-1,exp3.png,1,exp3.png,exp4.png,1,1,non-reversed,correct,0.21710783069803508,0,invalid_lose,591.4983792,77,,,,,,,,,,,,,,,sub_981,2024-11-03_12h22.32.320,Reversal,2023.1.3,59.97285628523747,1,
6,exp1.png,exp2.png,,,,,,,,,,,,,,,,,,2,0,2,0,0,6,6,6,,,,,,,,,False,46,107,False,exp1.png,exp2.png,trial_right_image,-1,exp2.png,1,exp2.png,exp1.png,0,4,reversed,correct,0.2982681962703536,1,valid_win,595.6469511,78,,,,,,,,,,,,,,,sub_981,2024-11-03_12h22.32.320,Reversal,2023.1.3,59.97285628523747,1,
7,exp3.png,exp4.png,,,,,,,,,,,,,,,,,,2,0,2,0,0,7,7,7,,,,,,,,,False,47,108,True,exp4.png,exp3.png,trial_right_image,-1,exp3.png,1,exp3.png,exp4.png,1,1,non-reversed,correct,0.4972728807631087,1,valid_win,600.0787624000001,79,,,,,,,,,,,,,,,sub_981,2024-11-03_12h22.32.320,Reversal,2023.1.3,59.97285628523747,1,
8,exp1.png,exp2.png,,,,,,,,,,,,,,,,,,2,0,2,0,0,8,8,8,,,,,,,,,False,48,109,True,exp2.png,exp1.png,trial_left_image,1,exp2.png,1,exp2.png,exp1.png,0,4,reversed,correct,0.9644823297721415,1,valid_win,604.7609283,80,,,,,,,,,,,,,,,sub_981,2024-11-03_12h22.32.320,Reversal,2023.1.3,59.97285628523747,1,
9,exp3.png,exp4.png,,,,,,,,,,,,,,,,,,2,0,2,0,0,9,9,9,,,,,,,,,False,49,110,False,exp3.png,exp4.png,trial_left_image,1,exp3.png,1,exp3.png,exp4.png,1,1,non-reversed,correct,0.03433394878446683,0,invalid_lose,609.2588403000001,80,,,,,,,,,,,,,,,sub_981,2024-11-03_12h22.32.320,Reversal,2023.1.3,59.97285628523747,1,
10,exp1.png,exp2.png,,,,,,,,,,,,,,,,,,2,0,2,0,0,10,10,10,,,,,,,,,False,50,111,False,exp1.png,exp2.png,trial_right_image,-1,exp2.png,1,exp2.png,exp1.png,0,4,reversed,correct,0.020691371090458377,0,invalid_lose,613.7410054000001,80,,,,,,,,,,,,,,,sub_981,2024-11-03_12h22.32.320,Reversal,2023.1.3,59.97285628523747,1,
11,exp3.png,exp4.png,,,,,,,,,,,,,,,,,,2,0,2,0,0,11,11,11,,,,,,,,,False,51,112,False,exp3.png,exp4.png,trial_left_image,1,exp3.png,1,exp3.png,exp4.png,1,1,non-reversed,correct,0.22211509799456852,0,invalid_lose,618.0395787,80,,,,,,,,,,,,,,,sub_981,2024-11-03_12h22.32.320,Reversal,2023.1.3,59.97285628523747,1,
12,exp1.png,exp2.png,,,,,,,,,,,,,,,,,,2,0,2,0,0,12,12,12,,,,,,,,,False,52,113,True,exp2.png,exp1.png,trial_left_image,1,exp2.png,1,exp2.png,exp1.png,0,4,reversed,correct,0.7837881278244874,1,valid_win,622.5708981,81,,,,,,,,,,,,,,,sub_981,2024-11-03_12h22.32.320,Reversal,2023.1.3,59.97285628523747,1,
13,exp3.png,exp4.png,,,,,,,,,,,,,,,,,,2,0,2,0,0,13,13,13,,,,,,,,,False,53,114,True,exp4.png,exp3.png,trial_right_image,-1,exp3.png,1,exp3.png,exp4.png,1,1,non-reversed,correct,0.11647692581681712,0,invalid_lose,627.4032391000001,81,,,,,,,,,,,,,,,sub_981,2024-11-03_12h22.32.320,Reversal,2023.1.3,59.97285628523747,1,
14,exp1.png,exp2.png,,,,,,,,,,,,,,,,,,2,0,2,0,0,14,14,14,,,,,,,,,False,54,115,False,exp1.png,exp2.png,trial_right_image,-1,exp2.png,1,exp2.png,exp1.png,0,4,reversed,correct,0.0912439846456774,0,invalid_lose,631.6685977000001,81,,,,,,,,,,,,,,,sub_981,2024-11-03_12h22.32.320,Reversal,2023.1.3,59.97285628523747,1,
15,exp3.png,exp4.png,,,,,,,,,,,,,,,,,,2,0,2,0,0,15,15,15,,,,,,,,,False,55,116,False,exp3.png,exp4.png,trial_left_image,1,exp3.png,1,exp3.png,exp4.png,1,1,non-reversed,correct,0.4045774541483462,1,valid_win,636.2330829,82,,,,,,,,,,,,,,,sub_981,2024-11-03_12h22.32.320,Reversal,2023.1.3,59.97285628523747,1,
16,exp1.png,exp2.png,,,,,,,,,,,,,,,,,,2,0,2,0,0,16,16,16,,,,,,,,,False,56,117,False,exp1.png,exp2.png,trial_right_image,-1,exp2.png,1,exp2.png,exp1.png,0,4,reversed,correct,0.9494299143817859,1,valid_win,640.681369,83,,,,,,,,,,,,,,,sub_981,2024-11-03_12h22.32.320,Reversal,2023.1.3,59.97285628523747,1,
17,exp3.png,exp4.png,,,,,,,,,,,,,,,,,,2,0,2,0,0,17,17,17,,,,,,,,,False,57,118,True,exp4.png,exp3.png,trial_right_image,-1,exp3.png,1,exp3.png,exp4.png,1,1,non-reversed,correct,0.06023859410140242,0,invalid_lose,645.0300972,83,,,,,,,,,,,,,,,sub_981,2024-11-03_12h22.32.320,Reversal,2023.1.3,59.97285628523747,1,
18,exp1.png,exp2.png,,,,,,,,,,,,,,,,,,2,0,2,0,0,18,18,18,,,,,,,,,False,58,119,False,exp1.png,exp2.png,trial_right_image,-1,exp2.png,1,exp2.png,exp1.png,0,4,reversed,correct,0.9440289108581594,1,valid_win,649.5784955,84,,,,,,,,,,,,,,,sub_981,2024-11-03_12h22.32.320,Reversal,2023.1.3,59.97285628523747,1,
19,exp3.png,exp4.png,,,,,,,,,,,,,,,,,,2,0,2,0,0,19,19,19,,,,,,,,,False,59,120,False,exp3.png,exp4.png,trial_left_image,1,exp3.png,1,exp3.png,exp4.png,1,1,non-reversed,correct,0.8844405984433976,1,valid_win,654.2438839,85,,,,,,,,,,,,,,,sub_981,2024-11-03_12h22.32.320,Reversal,2023.1.3,59.97285628523747,1,
20,exp1.png,exp2.png,,,,,,,,,,,,,,,,,,2,0,2,0,0,20,20,20,,,,,,,,,True,,,,,,,,,,,,,,,,,,,,,,,,,,,,,,,,,,,sub_981,2024-11-03_12h22.32.320,Reversal,2023.1.3,59.97285628523747,1,
,,,exp1.png,,,,,,,,,,,,,,,,,2,0,2,0,,,,,0,0,0,0,0,0,0,0,,,,,,,,,,,,,,,,,,,,,,709.9761833,39.0,39.0,6.176620599999978,"[(39.0, 6.176620599999978)]",,,,,,,,,,sub_981,2024-11-03_12h22.32.320,Reversal,2023.1.3,59.97285628523747,1,
,,,exp2.png,,,,,,,,,,,,,,,,,2,0,2,0,,,,,0,0,0,0,0,1,1,1,,,,,,,,,,,,,,,,,,,,,,718.1036511,,61.0,1.135576799999967,"[(61.0, 1.135576799999967)]",61.0,,,,,,,,,sub_981,2024-11-03_12h22.32.320,Reversal,2023.1.3,59.97285628523747,1,
,,,exp3.png,,,,,,,,,,,,,,,,,2,0,2,0,,,,,0,0,0,0,0,2,2,2,,,,,,,,,,,,,,,,,,,,,,720.9274051,,62.0,1.9035645999999815,"[(62.0, 1.9035645999999815)]",,62.0,,,,,,,,sub_981,2024-11-03_12h22.32.320,Reversal,2023.1.3,59.97285628523747,1,
,,,exp4.png,,,,,,,,,,,,,,,,,2,0,2,0,,,,,0,0,0,0,0,3,3,3,,,,,,,,,,,,,,,,,,,,,,724.1183874000001,,38.0,2.228141199999982,"[(36.0, 1.1794274999999743), (38.0, 2.228141199999982)]",,,38.0,,,,,,,sub_981,2024-11-03_12h22.32.320,Reversal,2023.1.3,59.97285628523747,1,
,,,,,,,,,,,,,,,,,,,,,,,,,,,,,,,,,,,,,,,,,,,,,,,,,,,,,,,,85,,,,,,,,,,110,56,54,332.44266619999996,0,,,,,,,
