trial_index,trial_image1_file,trial_image2_file,image_file,learning_outer_loop.thisRepN,learning_outer_loop.thisTrialN,learning_outer_loop.thisN,learning_outer_loop.thisIndex,learning_inner_loop.thisRepN,learning_inner_loop.thisTrialN,learning_inner_loop.thisN,learning_inner_loop.thisIndex,learning_estimation_outer_loop.thisRepN,learning_estimation_outer_loop.thisTrialN,learning_estimation_outer_loop.thisN,learning_estimation_outer_loop.thisIndex,learning_estimation_inner_loop.thisRepN,learning_estimation_inner_loop.thisTrialN,learning_estimation_inner_loop.thisN,learning_estimation_inner_loop.thisIndex,reversal_outer_loop.thisRepN,reversal_outer_loop.thisTrialN,reversal_outer_loop.thisN,reversal_outer_loop.thisIndex,reversal_inner_loop.thisRepN,reversal_inner_loop.thisTrialN,reversal_inner_loop.thisN,reversal_inner_loop.thisIndex,reversal_estimation_outer_loop.thisRepN,reversal_estimation_outer_loop.thisTrialN,reversal_estimation_outer_loop.thisN,reversal_estimation_outer_loop.thisIndex,reversal_estimation_inner_loop.thisRepN,reversal_estimation_inner_loop.thisTrialN,reversal_estimation_inner_loop.thisN,reversal_estimation_inner_loop.thisIndex,skipped,total_trial_counter,trial_num,left_right_flip,left_image_file,right_image_file,clicked_stimulus_side,side,clicked_stimulus,version,high_prob_image_file,low_prob_image_file,choice_a,choice_b,pair_type,correct,trial_feedback_random,reward,trial_type,overall_time_after_trial,score,estimation_exp1.png,estimation_rating.response,estimation_rating.rt,estimation_rating.history,estimation_rating.started,estimation_rating.stopped,estimation_exp2.png,estimation_exp3.png,estimation_exp4.png,total_learning_time,total_correct,learning_correct,reversal_correct,total_reversal_time,extra_block,participant,date,expName,psychopyVersion,frameRate,ver,
0,exp1.png,exp2.png,,0,0,0,0,0,0,0,0,,,,,,,,,,,,,,,,,,,,,,,,,True,,,,,,,,,,,,,,,,,,,,,,,,,,,,,,,,,,,,sub_270,2023-04-02_19h14.23.829,Reversal,2022.1.2,60.06247686283477,2,
1,exp3.png,exp4.png,,0,0,0,0,0,1,1,1,,,,,,,,,,,,,,,,,,,,,,,,,False,0,1,False,exp3.png,exp4.png,trial_left_image,1,exp3.png,2,exp3.png,exp4.png,1,3,reversed,correct,0.3206291432261106,1,valid_win,6.400105100125074,1,,,,,,,,,,,,,,,,sub_270,2023-04-02_19h14.23.829,Reversal,2022.1.2,60.06247686283477,2,
2,exp1.png,exp2.png,,0,0,0,0,0,2,2,2,,,,,,,,,,,,,,,,,,,,,,,,,False,1,2,False,exp1.png,exp2.png,trial_left_image,1,exp1.png,2,exp1.png,exp2.png,1,1,non-reversed,correct,0.2979988779885987,1,valid_win,11.782953100278974,2,,,,,,,,,,,,,,,,sub_270,2023-04-02_19h14.23.829,Reversal,2022.1.2,60.06247686283477,2,
3,exp3.png,exp4.png,,0,0,0,0,0,3,3,3,,,,,,,,,,,,,,,,,,,,,,,,,False,2,3,True,exp4.png,exp3.png,trial_right_image,-1,exp3.png,2,exp3.png,exp4.png,1,3,reversed,correct,0.06326697582259311,0,invalid_lose,16.93280449975282,2,,,,,,,,,,,,,,,,sub_270,2023-04-02_19h14.23.829,Reversal,2022.1.2,60.06247686283477,2,
4,exp1.png,exp2.png,,0,0,0,0,0,4,4,4,,,,,,,,,,,,,,,,,,,,,,,,,False,3,4,True,exp2.png,exp1.png,trial_right_image,-1,exp1.png,2,exp1.png,exp2.png,1,1,non-reversed,correct,0.509027356746723,1,valid_win,22.100073600187898,3,,,,,,,,,,,,,,,,sub_270,2023-04-02_19h14.23.829,Reversal,2022.1.2,60.06247686283477,2,
5,exp3.png,exp4.png,,0,0,0,0,0,5,5,5,,,,,,,,,,,,,,,,,,,,,,,,,False,4,5,True,exp4.png,exp3.png,trial_left_image,1,exp4.png,2,exp3.png,exp4.png,0,4,reversed,incorrect,0.15457383111839584,1,invalid_win,26.8003612998873,4,,,,,,,,,,,,,,,,sub_270,2023-04-02_19h14.23.829,Reversal,2022.1.2,60.06247686283477,2,
6,exp1.png,exp2.png,,0,0,0,0,0,6,6,6,,,,,,,,,,,,,,,,,,,,,,,,,False,5,6,True,exp2.png,exp1.png,trial_right_image,-1,exp1.png,2,exp1.png,exp2.png,1,1,non-reversed,correct,0.35963307283802104,1,valid_win,31.299994700588286,5,,,,,,,,,,,,,,,,sub_270,2023-04-02_19h14.23.829,Reversal,2022.1.2,60.06247686283477,2,
7,exp3.png,exp4.png,,0,0,0,0,0,7,7,7,,,,,,,,,,,,,,,,,,,,,,,,,False,6,7,False,exp3.png,exp4.png,trial_right_image,-1,exp4.png,2,exp3.png,exp4.png,0,4,reversed,incorrect,0.7071736786991781,0,valid_lose,36.81653659977019,5,,,,,,,,,,,,,,,,sub_270,2023-04-02_19h14.23.829,Reversal,2022.1.2,60.06247686283477,2,
8,exp1.png,exp2.png,,0,0,0,0,0,8,8,8,,,,,,,,,,,,,,,,,,,,,,,,,False,7,8,True,exp2.png,exp1.png,trial_right_image,-1,exp1.png,2,exp1.png,exp2.png,1,1,non-reversed,correct,0.24359410236472023,0,invalid_lose,41.58310170006007,5,,,,,,,,,,,,,,,,sub_270,2023-04-02_19h14.23.829,Reversal,2022.1.2,60.06247686283477,2,
9,exp3.png,exp4.png,,0,0,0,0,0,9,9,9,,,,,,,,,,,,,,,,,,,,,,,,,False,8,9,True,exp4.png,exp3.png,trial_left_image,1,exp4.png,2,exp3.png,exp4.png,0,4,reversed,incorrect,0.28439540974997,0,valid_lose,46.083079100586474,5,,,,,,,,,,,,,,,,sub_270,2023-04-02_19h14.23.829,Reversal,2022.1.2,60.06247686283477,2,
10,exp1.png,exp2.png,,0,0,0,0,0,10,10,10,,,,,,,,,,,,,,,,,,,,,,,,,False,9,10,False,exp1.png,exp2.png,trial_left_image,1,exp1.png,2,exp1.png,exp2.png,1,1,non-reversed,correct,0.9209279128362944,1,valid_win,50.94922079984099,6,,,,,,,,,,,,,,,,sub_270,2023-04-02_19h14.23.829,Reversal,2022.1.2,60.06247686283477,2,
11,exp3.png,exp4.png,,0,0,0,0,0,11,11,11,,,,,,,,,,,,,,,,,,,,,,,,,False,10,11,True,exp4.png,exp3.png,trial_left_image,1,exp4.png,2,exp3.png,exp4.png,0,4,reversed,incorrect,0.5949731087005793,0,valid_lose,55.549928800202906,6,,,,,,,,,,,,,,,,sub_270,2023-04-02_19h14.23.829,Reversal,2022.1.2,60.06247686283477,2,
12,exp1.png,exp2.png,,0,0,0,0,0,12,12,12,,,,,,,,,,,,,,,,,,,,,,,,,False,11,12,False,exp1.png,exp2.png,trial_left_image,1,exp1.png,2,exp1.png,exp2.png,1,1,non-reversed,correct,0.3722104620211173,1,valid_win,60.032709600403905,7,,,,,,,,,,,,,,,,sub_270,2023-04-02_19h14.23.829,Reversal,2022.1.2,60.06247686283477,2,
13,exp3.png,exp4.png,,0,0,0,0,0,13,13,13,,,,,,,,,,,,,,,,,,,,,,,,,False,12,13,True,exp4.png,exp3.png,trial_left_image,1,exp4.png,2,exp3.png,exp4.png,0,4,reversed,incorrect,0.015832948300414262,1,invalid_win,65.11588629987091,8,,,,,,,,,,,,,,,,sub_270,2023-04-02_19h14.23.829,Reversal,2022.1.2,60.06247686283477,2,
14,exp1.png,exp2.png,,0,0,0,0,0,14,14,14,,,,,,,,,,,,,,,,,,,,,,,,,False,13,14,False,exp1.png,exp2.png,trial_left_image,1,exp1.png,2,exp1.png,exp2.png,1,1,non-reversed,correct,0.40757006572299426,1,valid_win,70.01596190035343,9,,,,,,,,,,,,,,,,sub_270,2023-04-02_19h14.23.829,Reversal,2022.1.2,60.06247686283477,2,
15,exp3.png,exp4.png,,0,0,0,0,0,15,15,15,,,,,,,,,,,,,,,,,,,,,,,,,False,14,15,False,exp3.png,exp4.png,trial_left_image,1,exp3.png,2,exp3.png,exp4.png,1,3,reversed,correct,0.6852240092161361,1,valid_win,75.03249750006944,10,,,,,,,,,,,,,,,,sub_270,2023-04-02_19h14.23.829,Reversal,2022.1.2,60.06247686283477,2,
16,exp1.png,exp2.png,,0,0,0,0,0,16,16,16,,,,,,,,,,,,,,,,,,,,,,,,,False,15,16,False,exp1.png,exp2.png,trial_left_image,1,exp1.png,2,exp1.png,exp2.png,1,1,non-reversed,correct,0.18602971849337002,0,invalid_lose,79.89859730005264,10,,,,,,,,,,,,,,,,sub_270,2023-04-02_19h14.23.829,Reversal,2022.1.2,60.06247686283477,2,
17,exp3.png,exp4.png,,0,0,0,0,0,17,17,17,,,,,,,,,,,,,,,,,,,,,,,,,False,16,17,True,exp4.png,exp3.png,trial_left_image,1,exp4.png,2,exp3.png,exp4.png,0,4,reversed,incorrect,0.15383346686479415,1,invalid_win,85.24893630016595,11,,,,,,,,,,,,,,,,sub_270,2023-04-02_19h14.23.829,Reversal,2022.1.2,60.06247686283477,2,
18,exp1.png,exp2.png,,0,0,0,0,0,18,18,18,,,,,,,,,,,,,,,,,,,,,,,,,False,17,18,True,exp2.png,exp1.png,trial_right_image,-1,exp1.png,2,exp1.png,exp2.png,1,1,non-reversed,correct,0.5237444619139957,1,valid_win,89.86486590001732,12,,,,,,,,,,,,,,,,sub_270,2023-04-02_19h14.23.829,Reversal,2022.1.2,60.06247686283477,2,
19,exp3.png,exp4.png,,0,0,0,0,0,19,19,19,,,,,,,,,,,,,,,,,,,,,,,,,False,18,19,False,exp3.png,exp4.png,trial_right_image,-1,exp4.png,2,exp3.png,exp4.png,0,4,reversed,incorrect,0.7437899086211932,0,valid_lose,94.71512740012258,12,,,,,,,,,,,,,,,,sub_270,2023-04-02_19h14.23.829,Reversal,2022.1.2,60.06247686283477,2,
20,exp1.png,exp2.png,,0,0,0,0,0,20,20,20,,,,,,,,,,,,,,,,,,,,,,,,,False,19,20,False,exp1.png,exp2.png,trial_left_image,1,exp1.png,2,exp1.png,exp2.png,1,1,non-reversed,correct,0.7096837524572994,1,valid_win,99.21495349984616,13,,,,,,,,,,,,,,,,sub_270,2023-04-02_19h14.23.829,Reversal,2022.1.2,60.06247686283477,2,
,,,exp1.png,0,0,0,0,,,,,0,0,0,0,0,0,0,0,,,,,,,,,,,,,,,,,,,,,,,,,,,,,,,,,,,,,,83.0,83.0,18.973488400690258,"[(83.0, 18.973488400690258)]",167.84725029952824,None,,,,,,,,,,sub_270,2023-04-02_19h14.23.829,Reversal,2022.1.2,60.06247686283477,2,
,,,exp2.png,0,0,0,0,,,,,0,0,0,0,0,1,1,1,,,,,,,,,,,,,,,,,,,,,,,,,,,,,,,,,,,,,,,30.0,7.532887400127947,"[(30.0, 7.532887400127947)]",188.01490389928222,None,30.0,,,,,,,,,sub_270,2023-04-02_19h14.23.829,Reversal,2022.1.2,60.06247686283477,2,
,,,exp3.png,0,0,0,0,,,,,0,0,0,0,0,2,2,2,,,,,,,,,,,,,,,,,,,,,,,,,,,,,,,,,,,,,,,27.0,3.035080999135971,"[(27.0, 3.035080999135971)]",197.375511999242,None,,27.0,,,,,,,,sub_270,2023-04-02_19h14.23.829,Reversal,2022.1.2,60.06247686283477,2,
,,,exp4.png,0,0,0,0,,,,,0,0,0,0,0,3,3,3,,,,,,,,,,,,,,,,,,,,,,,,,,,,,,,,,,,,,,,33.0,2.0502031994983554,"[(33.0, 2.0502031994983554)]",201.27509679924697,None,,,33.0,,,,,,,sub_270,2023-04-02_19h14.23.829,Reversal,2022.1.2,60.06247686283477,2,
0,exp1.png,exp2.png,,1,0,1,0,0,0,0,0,,,,,,,,,,,,,,,,,,,,,,,,,True,,,,,,,,,,,,,,,,,,,,,,,,,,,,,,,,,,,,sub_270,2023-04-02_19h14.23.829,Reversal,2022.1.2,60.06247686283477,2,
1,exp3.png,exp4.png,,1,0,1,0,0,1,1,1,,,,,,,,,,,,,,,,,,,,,,,,,False,20,21,True,exp4.png,exp3.png,trial_left_image,1,exp4.png,2,exp3.png,exp4.png,0,4,reversed,incorrect,0.21377463804466612,1,invalid_win,140.73074130062014,14,,,,,,,,,,,,,,,,sub_270,2023-04-02_19h14.23.829,Reversal,2022.1.2,60.06247686283477,2,
2,exp1.png,exp2.png,,1,0,1,0,0,2,2,2,,,,,,,,,,,,,,,,,,,,,,,,,False,21,22,True,exp2.png,exp1.png,trial_right_image,-1,exp1.png,2,exp1.png,exp2.png,1,1,non-reversed,correct,0.26742054960452055,1,valid_win,145.26405740063637,15,,,,,,,,,,,,,,,,sub_270,2023-04-02_19h14.23.829,Reversal,2022.1.2,60.06247686283477,2,
3,exp3.png,exp4.png,,1,0,1,0,0,3,3,3,,,,,,,,,,,,,,,,,,,,,,,,,False,22,23,False,exp3.png,exp4.png,trial_left_image,1,exp3.png,2,exp3.png,exp4.png,1,3,reversed,correct,0.8362693196835312,1,valid_win,149.94738689996302,16,,,,,,,,,,,,,,,,sub_270,2023-04-02_19h14.23.829,Reversal,2022.1.2,60.06247686283477,2,
4,exp1.png,exp2.png,,1,0,1,0,0,4,4,4,,,,,,,,,,,,,,,,,,,,,,,,,False,23,24,True,exp2.png,exp1.png,trial_right_image,-1,exp1.png,2,exp1.png,exp2.png,1,1,non-reversed,correct,0.5326211697233265,1,valid_win,154.4474908001721,17,,,,,,,,,,,,,,,,sub_270,2023-04-02_19h14.23.829,Reversal,2022.1.2,60.06247686283477,2,
5,exp3.png,exp4.png,,1,0,1,0,0,5,5,5,,,,,,,,,,,,,,,,,,,,,,,,,False,24,25,False,exp3.png,exp4.png,trial_left_image,1,exp3.png,2,exp3.png,exp4.png,1,3,reversed,correct,0.28491662779896154,1,valid_win,159.18068089988083,18,,,,,,,,,,,,,,,,sub_270,2023-04-02_19h14.23.829,Reversal,2022.1.2,60.06247686283477,2,
6,exp1.png,exp2.png,,1,0,1,0,0,6,6,6,,,,,,,,,,,,,,,,,,,,,,,,,False,25,26,False,exp1.png,exp2.png,trial_left_image,1,exp1.png,2,exp1.png,exp2.png,1,1,non-reversed,correct,0.20007560901431531,0,invalid_lose,164.01394200045615,18,,,,,,,,,,,,,,,,sub_270,2023-04-02_19h14.23.829,Reversal,2022.1.2,60.06247686283477,2,
7,exp3.png,exp4.png,,1,0,1,0,0,7,7,7,,,,,,,,,,,,,,,,,,,,,,,,,False,26,27,True,exp4.png,exp3.png,trial_left_image,1,exp4.png,2,exp3.png,exp4.png,0,4,reversed,incorrect,0.7281528445999137,0,valid_lose,168.5969781000167,18,,,,,,,,,,,,,,,,sub_270,2023-04-02_19h14.23.829,Reversal,2022.1.2,60.06247686283477,2,
8,exp1.png,exp2.png,,1,0,1,0,0,8,8,8,,,,,,,,,,,,,,,,,,,,,,,,,False,27,28,False,exp1.png,exp2.png,trial_right_image,-1,exp2.png,2,exp1.png,exp2.png,0,2,non-reversed,incorrect,0.7455300401663444,0,valid_lose,173.4301116000861,18,,,,,,,,,,,,,,,,sub_270,2023-04-02_19h14.23.829,Reversal,2022.1.2,60.06247686283477,2,
9,exp3.png,exp4.png,,1,0,1,0,0,9,9,9,,,,,,,,,,,,,,,,,,,,,,,,,False,28,29,False,exp3.png,exp4.png,trial_left_image,1,exp3.png,2,exp3.png,exp4.png,1,3,reversed,correct,0.5480629421418424,1,valid_win,178.59705880004913,19,,,,,,,,,,,,,,,,sub_270,2023-04-02_19h14.23.829,Reversal,2022.1.2,60.06247686283477,2,
10,exp1.png,exp2.png,,1,0,1,0,0,10,10,10,,,,,,,,,,,,,,,,,,,,,,,,,False,29,30,True,exp2.png,exp1.png,trial_right_image,-1,exp1.png,2,exp1.png,exp2.png,1,1,non-reversed,correct,0.9347081513316295,1,valid_win,183.36421020049602,20,,,,,,,,,,,,,,,,sub_270,2023-04-02_19h14.23.829,Reversal,2022.1.2,60.06247686283477,2,
11,exp3.png,exp4.png,,1,0,1,0,0,11,11,11,,,,,,,,,,,,,,,,,,,,,,,,,False,30,31,True,exp4.png,exp3.png,trial_left_image,1,exp4.png,2,exp3.png,exp4.png,0,4,reversed,incorrect,0.004925879196919891,1,invalid_win,187.9132965998724,21,,,,,,,,,,,,,,,,sub_270,2023-04-02_19h14.23.829,Reversal,2022.1.2,60.06247686283477,2,
12,exp1.png,exp2.png,,1,0,1,0,0,12,12,12,,,,,,,,,,,,,,,,,,,,,,,,,False,31,32,True,exp2.png,exp1.png,trial_right_image,-1,exp1.png,2,exp1.png,exp2.png,1,1,non-reversed,correct,0.3276234328141321,1,valid_win,192.46306250058115,22,,,,,,,,,,,,,,,,sub_270,2023-04-02_19h14.23.829,Reversal,2022.1.2,60.06247686283477,2,
13,exp3.png,exp4.png,,1,0,1,0,0,13,13,13,,,,,,,,,,,,,,,,,,,,,,,,,False,32,33,True,exp4.png,exp3.png,trial_right_image,-1,exp3.png,2,exp3.png,exp4.png,1,3,reversed,correct,0.4456719378610803,1,valid_win,197.06357740052044,23,,,,,,,,,,,,,,,,sub_270,2023-04-02_19h14.23.829,Reversal,2022.1.2,60.06247686283477,2,
14,exp1.png,exp2.png,,1,0,1,0,0,14,14,14,,,,,,,,,,,,,,,,,,,,,,,,,False,33,34,False,exp1.png,exp2.png,trial_left_image,1,exp1.png,2,exp1.png,exp2.png,1,1,non-reversed,correct,0.20576747162346964,0,invalid_lose,201.74623399972916,23,,,,,,,,,,,,,,,,sub_270,2023-04-02_19h14.23.829,Reversal,2022.1.2,60.06247686283477,2,
15,exp3.png,exp4.png,,1,0,1,0,0,15,15,15,,,,,,,,,,,,,,,,,,,,,,,,,False,34,35,False,exp3.png,exp4.png,trial_right_image,-1,exp4.png,2,exp3.png,exp4.png,0,4,reversed,incorrect,0.17067820070056194,1,invalid_win,206.46325619984418,24,,,,,,,,,,,,,,,,sub_270,2023-04-02_19h14.23.829,Reversal,2022.1.2,60.06247686283477,2,
16,exp1.png,exp2.png,,1,0,1,0,0,16,16,16,,,,,,,,,,,,,,,,,,,,,,,,,False,35,36,False,exp1.png,exp2.png,trial_left_image,1,exp1.png,2,exp1.png,exp2.png,1,1,non-reversed,correct,0.19189235936486015,0,invalid_lose,211.046659800224,24,,,,,,,,,,,,,,,,sub_270,2023-04-02_19h14.23.829,Reversal,2022.1.2,60.06247686283477,2,
17,exp3.png,exp4.png,,1,0,1,0,0,17,17,17,,,,,,,,,,,,,,,,,,,,,,,,,False,36,37,False,exp3.png,exp4.png,trial_right_image,-1,exp4.png,2,exp3.png,exp4.png,0,4,reversed,incorrect,0.4680464078139306,0,valid_lose,215.61311469972134,24,,,,,,,,,,,,,,,,sub_270,2023-04-02_19h14.23.829,Reversal,2022.1.2,60.06247686283477,2,
18,exp1.png,exp2.png,,1,0,1,0,0,18,18,18,,,,,,,,,,,,,,,,,,,,,,,,,False,37,38,False,exp1.png,exp2.png,trial_left_image,1,exp1.png,2,exp1.png,exp2.png,1,1,non-reversed,correct,0.9529704605851075,1,valid_win,220.04686640016735,25,,,,,,,,,,,,,,,,sub_270,2023-04-02_19h14.23.829,Reversal,2022.1.2,60.06247686283477,2,
19,exp3.png,exp4.png,,1,0,1,0,0,19,19,19,,,,,,,,,,,,,,,,,,,,,,,,,False,38,39,True,exp4.png,exp3.png,trial_left_image,1,exp4.png,2,exp3.png,exp4.png,0,4,reversed,incorrect,0.9452846383962434,0,valid_lose,224.72993789985776,25,,,,,,,,,,,,,,,,sub_270,2023-04-02_19h14.23.829,Reversal,2022.1.2,60.06247686283477,2,
20,exp1.png,exp2.png,,1,0,1,0,0,20,20,20,,,,,,,,,,,,,,,,,,,,,,,,,False,39,40,True,exp2.png,exp1.png,trial_right_image,-1,exp1.png,2,exp1.png,exp2.png,1,1,non-reversed,correct,0.06654958762972596,0,invalid_lose,229.5129394000396,25,,,,,,,,,,,,,,,,sub_270,2023-04-02_19h14.23.829,Reversal,2022.1.2,60.06247686283477,2,
,,,exp1.png,1,0,1,0,,,,,0,0,0,0,0,0,0,0,,,,,,,,,,,,,,,,,,,,,,,,,,,,,,,,,,,,,,73.0,73.0,3.3105972995981574,"[(73.0, 3.3105972995981574)]",298.13029459957033,None,,,,,,,,,,sub_270,2023-04-02_19h14.23.829,Reversal,2022.1.2,60.06247686283477,2,
,,,exp2.png,1,0,1,0,,,,,0,0,0,0,0,1,1,1,,,,,,,,,,,,,,,,,,,,,,,,,,,,,,,,,,,,,,,54.0,5.35114479996264,"[(54.0, 5.35114479996264)]",302.52297349926084,None,54.0,,,,,,,,,sub_270,2023-04-02_19h14.23.829,Reversal,2022.1.2,60.06247686283477,2,
,,,exp3.png,1,0,1,0,,,,,0,0,0,0,0,2,2,2,,,,,,,,,,,,,,,,,,,,,,,,,,,,,,,,,,,,,,,44.0,2.5472273994237185,"[(44.0, 2.5472273994237185)]",308.74563649948686,None,,44.0,,,,,,,,sub_270,2023-04-02_19h14.23.829,Reversal,2022.1.2,60.06247686283477,2,
,,,exp4.png,1,0,1,0,,,,,0,0,0,0,0,3,3,3,,,,,,,,,,,,,,,,,,,,,,,,,,,,,,,,,,,,,,,37.0,4.084324400871992,"[(37.0, 4.084324400871992)]",312.05666929949075,None,,,37.0,,,,,,,sub_270,2023-04-02_19h14.23.829,Reversal,2022.1.2,60.06247686283477,2,
0,exp1.png,exp2.png,,2,0,2,0,0,0,0,0,,,,,,,,,,,,,,,,,,,,,,,,,True,,,,,,,,,,,,,,,,,,,,,,,,,,,,,,,,,,,,sub_270,2023-04-02_19h14.23.829,Reversal,2022.1.2,60.06247686283477,2,
1,exp3.png,exp4.png,,2,0,2,0,0,1,1,1,,,,,,,,,,,,,,,,,,,,,,,,,False,40,41,True,exp4.png,exp3.png,trial_left_image,1,exp4.png,2,exp3.png,exp4.png,0,4,reversed,incorrect,0.8927174272541525,0,valid_lose,253.61228390038013,25,,,,,,,,,,,,,,,,sub_270,2023-04-02_19h14.23.829,Reversal,2022.1.2,60.06247686283477,2,
2,exp1.png,exp2.png,,2,0,2,0,0,2,2,2,,,,,,,,,,,,,,,,,,,,,,,,,False,41,42,False,exp1.png,exp2.png,trial_left_image,1,exp1.png,2,exp1.png,exp2.png,1,1,non-reversed,correct,0.8644072660041261,1,valid_win,258.2457052003592,26,,,,,,,,,,,,,,,,sub_270,2023-04-02_19h14.23.829,Reversal,2022.1.2,60.06247686283477,2,
3,exp3.png,exp4.png,,2,0,2,0,0,3,3,3,,,,,,,,,,,,,,,,,,,,,,,,,False,42,43,True,exp4.png,exp3.png,trial_left_image,1,exp4.png,2,exp3.png,exp4.png,0,4,reversed,incorrect,0.32358330540075275,0,valid_lose,262.8289093999192,26,,,,,,,,,,,,,,,,sub_270,2023-04-02_19h14.23.829,Reversal,2022.1.2,60.06247686283477,2,
4,exp1.png,exp2.png,,2,0,2,0,0,4,4,4,,,,,,,,,,,,,,,,,,,,,,,,,False,43,44,False,exp1.png,exp2.png,trial_left_image,1,exp1.png,2,exp1.png,exp2.png,1,1,non-reversed,correct,0.27542712335113917,1,valid_win,267.42849349975586,27,,,,,,,,,,,,,,,,sub_270,2023-04-02_19h14.23.829,Reversal,2022.1.2,60.06247686283477,2,
5,exp3.png,exp4.png,,2,0,2,0,0,5,5,5,,,,,,,,,,,,,,,,,,,,,,,,,False,44,45,False,exp3.png,exp4.png,trial_left_image,1,exp3.png,2,exp3.png,exp4.png,1,3,reversed,correct,0.21191717312057612,0,invalid_lose,272.12853110022843,27,,,,,,,,,,,,,,,,sub_270,2023-04-02_19h14.23.829,Reversal,2022.1.2,60.06247686283477,2,
6,exp1.png,exp2.png,,2,0,2,0,0,6,6,6,,,,,,,,,,,,,,,,,,,,,,,,,False,45,46,True,exp2.png,exp1.png,trial_right_image,-1,exp1.png,2,exp1.png,exp2.png,1,1,non-reversed,correct,0.7503104867845602,1,valid_win,276.66147780045867,28,,,,,,,,,,,,,,,,sub_270,2023-04-02_19h14.23.829,Reversal,2022.1.2,60.06247686283477,2,
7,exp3.png,exp4.png,,2,0,2,0,0,7,7,7,,,,,,,,,,,,,,,,,,,,,,,,,False,46,47,True,exp4.png,exp3.png,trial_right_image,-1,exp3.png,2,exp3.png,exp4.png,1,3,reversed,correct,0.45275132252097183,1,valid_win,281.19587310031056,29,,,,,,,,,,,,,,,,sub_270,2023-04-02_19h14.23.829,Reversal,2022.1.2,60.06247686283477,2,
8,exp1.png,exp2.png,,2,0,2,0,0,8,8,8,,,,,,,,,,,,,,,,,,,,,,,,,False,47,48,False,exp1.png,exp2.png,trial_left_image,1,exp1.png,2,exp1.png,exp2.png,1,1,non-reversed,correct,0.7642361610326407,1,valid_win,286.09509120043367,30,,,,,,,,,,,,,,,,sub_270,2023-04-02_19h14.23.829,Reversal,2022.1.2,60.06247686283477,2,
9,exp3.png,exp4.png,,2,0,2,0,0,9,9,9,,,,,,,,,,,,,,,,,,,,,,,,,False,48,49,False,exp3.png,exp4.png,trial_right_image,-1,exp4.png,2,exp3.png,exp4.png,0,4,reversed,incorrect,0.49193626689566106,0,valid_lose,291.028170700185,30,,,,,,,,,,,,,,,,sub_270,2023-04-02_19h14.23.829,Reversal,2022.1.2,60.06247686283477,2,
10,exp1.png,exp2.png,,2,0,2,0,0,10,10,10,,,,,,,,,,,,,,,,,,,,,,,,,False,49,50,False,exp1.png,exp2.png,trial_left_image,1,exp1.png,2,exp1.png,exp2.png,1,1,non-reversed,correct,0.9269663839485581,1,valid_win,295.4612015997991,31,,,,,,,,,,,,,,,,sub_270,2023-04-02_19h14.23.829,Reversal,2022.1.2,60.06247686283477,2,
11,exp3.png,exp4.png,,2,0,2,0,0,11,11,11,,,,,,,,,,,,,,,,,,,,,,,,,False,50,51,True,exp4.png,exp3.png,trial_right_image,-1,exp3.png,2,exp3.png,exp4.png,1,3,reversed,correct,0.14818715102545243,0,invalid_lose,299.7946824999526,31,,,,,,,,,,,,,,,,sub_270,2023-04-02_19h14.23.829,Reversal,2022.1.2,60.06247686283477,2,
12,exp1.png,exp2.png,,2,0,2,0,0,12,12,12,,,,,,,,,,,,,,,,,,,,,,,,,False,51,52,True,exp2.png,exp1.png,trial_right_image,-1,exp1.png,2,exp1.png,exp2.png,1,1,non-reversed,correct,0.34684819292072777,1,valid_win,304.26138889975846,32,,,,,,,,,,,,,,,,sub_270,2023-04-02_19h14.23.829,Reversal,2022.1.2,60.06247686283477,2,
13,exp3.png,exp4.png,,2,0,2,0,0,13,13,13,,,,,,,,,,,,,,,,,,,,,,,,,False,52,53,False,exp3.png,exp4.png,trial_left_image,1,exp3.png,2,exp3.png,exp4.png,1,3,reversed,correct,0.07983208819851517,0,invalid_lose,308.9786406001076,32,,,,,,,,,,,,,,,,sub_270,2023-04-02_19h14.23.829,Reversal,2022.1.2,60.06247686283477,2,
14,exp1.png,exp2.png,,2,0,2,0,0,14,14,14,,,,,,,,,,,,,,,,,,,,,,,,,False,53,54,False,exp1.png,exp2.png,trial_left_image,1,exp1.png,2,exp1.png,exp2.png,1,1,non-reversed,correct,0.39651399150497335,1,valid_win,313.51084600016475,33,,,,,,,,,,,,,,,,sub_270,2023-04-02_19h14.23.829,Reversal,2022.1.2,60.06247686283477,2,
15,exp3.png,exp4.png,,2,0,2,0,0,15,15,15,,,,,,,,,,,,,,,,,,,,,,,,,False,54,55,False,exp3.png,exp4.png,trial_right_image,-1,exp4.png,2,exp3.png,exp4.png,0,4,reversed,incorrect,0.6830675656258682,0,valid_lose,318.02805970050395,33,,,,,,,,,,,,,,,,sub_270,2023-04-02_19h14.23.829,Reversal,2022.1.2,60.06247686283477,2,
16,exp1.png,exp2.png,,2,0,2,0,0,16,16,16,,,,,,,,,,,,,,,,,,,,,,,,,False,55,56,True,exp2.png,exp1.png,trial_right_image,-1,exp1.png,2,exp1.png,exp2.png,1,1,non-reversed,correct,0.976826868628299,1,valid_win,322.39438650012016,34,,,,,,,,,,,,,,,,sub_270,2023-04-02_19h14.23.829,Reversal,2022.1.2,60.06247686283477,2,
17,exp3.png,exp4.png,,2,0,2,0,0,17,17,17,,,,,,,,,,,,,,,,,,,,,,,,,False,56,57,True,exp4.png,exp3.png,trial_right_image,-1,exp3.png,2,exp3.png,exp4.png,1,3,reversed,correct,0.7157409742248125,1,valid_win,326.81149599980563,35,,,,,,,,,,,,,,,,sub_270,2023-04-02_19h14.23.829,Reversal,2022.1.2,60.06247686283477,2,
18,exp1.png,exp2.png,,2,0,2,0,0,18,18,18,,,,,,,,,,,,,,,,,,,,,,,,,False,57,58,True,exp2.png,exp1.png,trial_right_image,-1,exp1.png,2,exp1.png,exp2.png,1,1,non-reversed,correct,0.10895529059935483,0,invalid_lose,331.0606626998633,35,,,,,,,,,,,,,,,,sub_270,2023-04-02_19h14.23.829,Reversal,2022.1.2,60.06247686283477,2,
19,exp3.png,exp4.png,,2,0,2,0,0,19,19,19,,,,,,,,,,,,,,,,,,,,,,,,,False,58,59,False,exp3.png,exp4.png,trial_left_image,1,exp3.png,2,exp3.png,exp4.png,1,3,reversed,correct,0.009738606588792886,0,invalid_lose,335.6446762997657,35,,,,,,,,,,,,,,,,sub_270,2023-04-02_19h14.23.829,Reversal,2022.1.2,60.06247686283477,2,
20,exp1.png,exp2.png,,2,0,2,0,0,20,20,20,,,,,,,,,,,,,,,,,,,,,,,,,False,59,60,True,exp2.png,exp1.png,trial_right_image,-1,exp1.png,2,exp1.png,exp2.png,1,1,non-reversed,correct,0.16906810089566282,0,invalid_lose,339.7276832005009,35,,,,,,,,,,,,,,,,sub_270,2023-04-02_19h14.23.829,Reversal,2022.1.2,60.06247686283477,2,
,,,exp1.png,2,0,2,0,,,,,0,0,0,0,0,0,0,0,,,,,,,,,,,,,,,,,,,,,,,,,,,,,,,,,,,,,,83.0,83.0,2.5314164999872446,"[(83.0, 2.5314164999872446)]",408.35742919985205,None,,,,,,,,,,sub_270,2023-04-02_19h14.23.829,Reversal,2022.1.2,60.06247686283477,2,
,,,exp2.png,2,0,2,0,,,,,0,0,0,0,0,1,1,1,,,,,,,,,,,,,,,,,,,,,,,,,,,,,,,,,,,,,,,72.0,1.4021231001242995,"[(72.0, 1.4021231001242995)]",411.7541064992547,None,72.0,,,,,,,,,sub_270,2023-04-02_19h14.23.829,Reversal,2022.1.2,60.06247686283477,2,
,,,exp3.png,2,0,2,0,,,,,0,0,0,0,0,2,2,2,,,,,,,,,,,,,,,,,,,,,,,,,,,,,,,,,,,,,,,25.0,2.9678955003619194,"[(25.0, 2.9678955003619194)]",413.9719984997064,None,,25.0,,,,,,,,sub_270,2023-04-02_19h14.23.829,Reversal,2022.1.2,60.06247686283477,2,
,,,exp4.png,2,0,2,0,,,,,0,0,0,0,0,3,3,3,,,,,,,,,,,,,,,,,,,,,,,,,,,,,,,,,,,,,,,10.0,1.381603100337088,"[(10.0, 1.381603100337088)]",418.5918759992346,None,,,10.0,,,,,,,sub_270,2023-04-02_19h14.23.829,Reversal,2022.1.2,60.06247686283477,2,
0,exp1.png,exp2.png,,3,0,3,0,0,0,0,0,,,,,,,,,,,,,,,,,,,,,,,,,True,,,,,,,,,,,,,,,,,,,,,,,,,,,,,,,,,,,,sub_270,2023-04-02_19h14.23.829,Reversal,2022.1.2,60.06247686283477,2,
1,exp3.png,exp4.png,,3,0,3,0,0,1,1,1,,,,,,,,,,,,,,,,,,,,,,,,,False,60,61,False,exp3.png,exp4.png,trial_left_image,1,exp3.png,2,exp3.png,exp4.png,1,3,reversed,correct,0.20044828493859113,0,invalid_lose,356.8441302003339,35,,,,,,,,,,,,,,,,sub_270,2023-04-02_19h14.23.829,Reversal,2022.1.2,60.06247686283477,2,
2,exp1.png,exp2.png,,3,0,3,0,0,2,2,2,,,,,,,,,,,,,,,,,,,,,,,,,False,61,62,True,exp2.png,exp1.png,trial_right_image,-1,exp1.png,2,exp1.png,exp2.png,1,1,non-reversed,correct,0.02362879314696631,0,invalid_lose,360.8604281004518,35,,,,,,,,,,,,,,,,sub_270,2023-04-02_19h14.23.829,Reversal,2022.1.2,60.06247686283477,2,
3,exp3.png,exp4.png,,3,0,3,0,0,3,3,3,,,,,,,,,,,,,,,,,,,,,,,,,False,62,63,True,exp4.png,exp3.png,trial_left_image,1,exp4.png,2,exp3.png,exp4.png,0,4,reversed,incorrect,0.1347731595779209,1,invalid_win,365.51065000053495,36,,,,,,,,,,,,,,,,sub_270,2023-04-02_19h14.23.829,Reversal,2022.1.2,60.06247686283477,2,
4,exp1.png,exp2.png,,3,0,3,0,0,4,4,4,,,,,,,,,,,,,,,,,,,,,,,,,False,63,64,True,exp2.png,exp1.png,trial_right_image,-1,exp1.png,2,exp1.png,exp2.png,1,1,non-reversed,correct,0.8036379952143334,1,valid_win,369.8100404003635,37,,,,,,,,,,,,,,,,sub_270,2023-04-02_19h14.23.829,Reversal,2022.1.2,60.06247686283477,2,
5,exp3.png,exp4.png,,3,0,3,0,0,5,5,5,,,,,,,,,,,,,,,,,,,,,,,,,False,64,65,False,exp3.png,exp4.png,trial_right_image,-1,exp4.png,2,exp3.png,exp4.png,0,4,reversed,incorrect,0.927870166771745,0,valid_lose,374.0601924005896,37,,,,,,,,,,,,,,,,sub_270,2023-04-02_19h14.23.829,Reversal,2022.1.2,60.06247686283477,2,
6,exp1.png,exp2.png,,3,0,3,0,0,6,6,6,,,,,,,,,,,,,,,,,,,,,,,,,False,65,66,False,exp1.png,exp2.png,trial_left_image,1,exp1.png,2,exp1.png,exp2.png,1,1,non-reversed,correct,0.5578395271466174,1,valid_win,378.29380550049245,38,,,,,,,,,,,,,,,,sub_270,2023-04-02_19h14.23.829,Reversal,2022.1.2,60.06247686283477,2,
7,exp3.png,exp4.png,,3,0,3,0,0,7,7,7,,,,,,,,,,,,,,,,,,,,,,,,,False,66,67,True,exp4.png,exp3.png,trial_left_image,1,exp4.png,2,exp3.png,exp4.png,0,4,reversed,incorrect,0.3643233583775146,0,valid_lose,382.9763428000733,38,,,,,,,,,,,,,,,,sub_270,2023-04-02_19h14.23.829,Reversal,2022.1.2,60.06247686283477,2,
8,exp1.png,exp2.png,,3,0,3,0,0,8,8,8,,,,,,,,,,,,,,,,,,,,,,,,,False,67,68,True,exp2.png,exp1.png,trial_right_image,-1,exp1.png,2,exp1.png,exp2.png,1,1,non-reversed,correct,0.3998018385214597,1,valid_win,387.0104077998549,39,,,,,,,,,,,,,,,,sub_270,2023-04-02_19h14.23.829,Reversal,2022.1.2,60.06247686283477,2,
9,exp3.png,exp4.png,,3,0,3,0,0,9,9,9,,,,,,,,,,,,,,,,,,,,,,,,,False,68,69,False,exp3.png,exp4.png,trial_left_image,1,exp3.png,2,exp3.png,exp4.png,1,3,reversed,correct,0.21240018363001267,0,invalid_lose,391.35966890025884,39,,,,,,,,,,,,,,,,sub_270,2023-04-02_19h14.23.829,Reversal,2022.1.2,60.06247686283477,2,
10,exp1.png,exp2.png,,3,0,3,0,0,10,10,10,,,,,,,,,,,,,,,,,,,,,,,,,False,69,70,True,exp2.png,exp1.png,trial_right_image,-1,exp1.png,2,exp1.png,exp2.png,1,1,non-reversed,correct,0.3629506314603763,1,valid_win,395.57616200018674,40,,,,,,,,,,,,,,,,sub_270,2023-04-02_19h14.23.829,Reversal,2022.1.2,60.06247686283477,2,
11,exp3.png,exp4.png,,3,0,3,0,0,11,11,11,,,,,,,,,,,,,,,,,,,,,,,,,False,70,71,False,exp3.png,exp4.png,trial_right_image,-1,exp4.png,2,exp3.png,exp4.png,0,4,reversed,incorrect,0.8289373356318673,0,valid_lose,399.8929839003831,40,,,,,,,,,,,,,,,,sub_270,2023-04-02_19h14.23.829,Reversal,2022.1.2,60.06247686283477,2,
12,exp1.png,exp2.png,,3,0,3,0,0,12,12,12,,,,,,,,,,,,,,,,,,,,,,,,,False,71,72,True,exp2.png,exp1.png,trial_right_image,-1,exp1.png,2,exp1.png,exp2.png,1,1,non-reversed,correct,0.00252118390601086,0,invalid_lose,403.99346979986876,40,,,,,,,,,,,,,,,,sub_270,2023-04-02_19h14.23.829,Reversal,2022.1.2,60.06247686283477,2,
13,exp3.png,exp4.png,,3,0,3,0,0,13,13,13,,,,,,,,,,,,,,,,,,,,,,,,,False,72,73,True,exp4.png,exp3.png,trial_left_image,1,exp4.png,2,exp3.png,exp4.png,0,4,reversed,incorrect,0.17584101976289623,1,invalid_win,408.17573599983007,41,,,,,,,,,,,,,,,,sub_270,2023-04-02_19h14.23.829,Reversal,2022.1.2,60.06247686283477,2,
14,exp1.png,exp2.png,,3,0,3,0,0,14,14,14,,,,,,,,,,,,,,,,,,,,,,,,,False,73,74,False,exp1.png,exp2.png,trial_left_image,1,exp1.png,2,exp1.png,exp2.png,1,1,non-reversed,correct,0.9661306387596359,1,valid_win,412.4430109001696,42,,,,,,,,,,,,,,,,sub_270,2023-04-02_19h14.23.829,Reversal,2022.1.2,60.06247686283477,2,
15,exp3.png,exp4.png,,3,0,3,0,0,15,15,15,,,,,,,,,,,,,,,,,,,,,,,,,False,74,75,False,exp3.png,exp4.png,trial_right_image,-1,exp4.png,2,exp3.png,exp4.png,0,4,reversed,incorrect,0.9620356604406975,0,valid_lose,416.72600730042905,42,,,,,,,,,,,,,,,,sub_270,2023-04-02_19h14.23.829,Reversal,2022.1.2,60.06247686283477,2,
16,exp1.png,exp2.png,,3,0,3,0,0,16,16,16,,,,,,,,,,,,,,,,,,,,,,,,,False,75,76,True,exp2.png,exp1.png,trial_right_image,-1,exp1.png,2,exp1.png,exp2.png,1,1,non-reversed,correct,0.936708927189526,1,valid_win,420.87581430003047,43,,,,,,,,,,,,,,,,sub_270,2023-04-02_19h14.23.829,Reversal,2022.1.2,60.06247686283477,2,
17,exp3.png,exp4.png,,3,0,3,0,0,17,17,17,,,,,,,,,,,,,,,,,,,,,,,,,False,76,77,False,exp3.png,exp4.png,trial_right_image,-1,exp4.png,2,exp3.png,exp4.png,0,4,reversed,incorrect,0.3631172524261167,0,valid_lose,424.95914490055293,43,,,,,,,,,,,,,,,,sub_270,2023-04-02_19h14.23.829,Reversal,2022.1.2,60.06247686283477,2,
18,exp1.png,exp2.png,,3,0,3,0,0,18,18,18,,,,,,,,,,,,,,,,,,,,,,,,,False,77,78,False,exp1.png,exp2.png,trial_left_image,1,exp1.png,2,exp1.png,exp2.png,1,1,non-reversed,correct,0.23354516024101424,0,invalid_lose,429.0765308998525,43,,,,,,,,,,,,,,,,sub_270,2023-04-02_19h14.23.829,Reversal,2022.1.2,60.06247686283477,2,
19,exp3.png,exp4.png,,3,0,3,0,0,19,19,19,,,,,,,,,,,,,,,,,,,,,,,,,False,78,79,True,exp4.png,exp3.png,trial_right_image,-1,exp3.png,2,exp3.png,exp4.png,1,3,reversed,correct,0.48513719334961347,1,valid_win,433.42604549974203,44,,,,,,,,,,,,,,,,sub_270,2023-04-02_19h14.23.829,Reversal,2022.1.2,60.06247686283477,2,
20,exp1.png,exp2.png,,3,0,3,0,0,20,20,20,,,,,,,,,,,,,,,,,,,,,,,,,False,79,80,False,exp1.png,exp2.png,trial_left_image,1,exp1.png,2,exp1.png,exp2.png,1,1,non-reversed,correct,0.03198782061687444,0,invalid_lose,437.8253637999296,44,,,,,,,,,,,,,,,,sub_270,2023-04-02_19h14.23.829,Reversal,2022.1.2,60.06247686283477,2,
,,,exp1.png,3,0,3,0,,,,,0,0,0,0,0,0,0,0,,,,,,,,,,,,,,,,,,,,,,,,,,,,,,,,,,,,,,84.0,84.0,2.579525100067258,"[(84.0, 2.579525100067258)]",506.4579826993868,None,,,,,,,,,,sub_270,2023-04-02_19h14.23.829,Reversal,2022.1.2,60.06247686283477,2,
,,,exp2.png,3,0,3,0,,,,,0,0,0,0,0,1,1,1,,,,,,,,,,,,,,,,,,,,,,,,,,,,,,,,,,,,,,,57.0,2.1014353996142745,"[(57.0, 2.1014353996142745)]",510.0181970000267,None,57.0,,,,,,,,,sub_270,2023-04-02_19h14.23.829,Reversal,2022.1.2,60.06247686283477,2,
,,,exp3.png,3,0,3,0,,,,,0,0,0,0,0,2,2,2,,,,,,,,,,,,,,,,,,,,,,,,,,,,,,,,,,,,,,,14.0,4.701677500270307,"[(14.0, 4.701677500270307)]",512.8187817996368,None,,14.0,,,,,,,,sub_270,2023-04-02_19h14.23.829,Reversal,2022.1.2,60.06247686283477,2,
,,,exp4.png,3,0,3,0,,,,,0,0,0,0,0,3,3,3,,,,,,,,,,,,,,,,,,,,,,,,,,,,,,,,,,,,,,,26.0,1.633131899870932,"[(26.0, 1.633131899870932)]",518.372780399397,None,,,26.0,,,,,,,sub_270,2023-04-02_19h14.23.829,Reversal,2022.1.2,60.06247686283477,2,
0,exp1.png,exp2.png,,,,,,,,,,,,,,,,,,0,0,0,0,0,0,0,0,,,,,,,,,True,,,,,,,,,,,,,,,,,,,,,,,,,,,,,,,,,,,,sub_270,2023-04-02_19h14.23.829,Reversal,2022.1.2,60.06247686283477,2,
1,exp3.png,exp4.png,,,,,,,,,,,,,,,,,,0,0,0,0,0,1,1,1,,,,,,,,,False,0,81,True,exp4.png,exp3.png,trial_left_image,1,exp4.png,2,exp4.png,exp3.png,0,4,reversed,correct,0.17488650997024602,0,invalid_lose,456.92544919997454,44,,,,,,,,,,454.8518954999745,,,,,,sub_270,2023-04-02_19h14.23.829,Reversal,2022.1.2,60.06247686283477,2,
2,exp1.png,exp2.png,,,,,,,,,,,,,,,,,,0,0,0,0,0,2,2,2,,,,,,,,,False,1,82,False,exp1.png,exp2.png,trial_left_image,1,exp1.png,2,exp1.png,exp2.png,1,1,non-reversed,correct,0.8821879130080492,1,valid_win,461.041410099715,45,,,,,,,,,,,,,,,,sub_270,2023-04-02_19h14.23.829,Reversal,2022.1.2,60.06247686283477,2,
3,exp3.png,exp4.png,,,,,,,,,,,,,,,,,,0,0,0,0,0,3,3,3,,,,,,,,,False,2,83,False,exp3.png,exp4.png,trial_left_image,1,exp3.png,2,exp4.png,exp3.png,1,3,reversed,incorrect,0.1006323680617055,1,invalid_win,465.3255742006004,46,,,,,,,,,,,,,,,,sub_270,2023-04-02_19h14.23.829,Reversal,2022.1.2,60.06247686283477,2,
4,exp1.png,exp2.png,,,,,,,,,,,,,,,,,,0,0,0,0,0,4,4,4,,,,,,,,,False,3,84,False,exp1.png,exp2.png,trial_left_image,1,exp1.png,2,exp1.png,exp2.png,1,1,non-reversed,correct,0.47493776360495044,1,valid_win,469.7087449003011,47,,,,,,,,,,,,,,,,sub_270,2023-04-02_19h14.23.829,Reversal,2022.1.2,60.06247686283477,2,
5,exp3.png,exp4.png,,,,,,,,,,,,,,,,,,0,0,0,0,0,5,5,5,,,,,,,,,False,4,85,True,exp4.png,exp3.png,trial_right_image,-1,exp3.png,2,exp4.png,exp3.png,1,3,reversed,incorrect,0.7234164523703353,0,valid_lose,474.25893680006266,47,,,,,,,,,,,,,,,,sub_270,2023-04-02_19h14.23.829,Reversal,2022.1.2,60.06247686283477,2,
6,exp1.png,exp2.png,,,,,,,,,,,,,,,,,,0,0,0,0,0,6,6,6,,,,,,,,,False,5,86,False,exp1.png,exp2.png,trial_left_image,1,exp1.png,2,exp1.png,exp2.png,1,1,non-reversed,correct,0.07413909720120693,0,invalid_lose,478.7249182006344,47,,,,,,,,,,,,,,,,sub_270,2023-04-02_19h14.23.829,Reversal,2022.1.2,60.06247686283477,2,
7,exp3.png,exp4.png,,,,,,,,,,,,,,,,,,0,0,0,0,0,7,7,7,,,,,,,,,False,6,87,True,exp4.png,exp3.png,trial_right_image,-1,exp3.png,2,exp4.png,exp3.png,1,3,reversed,incorrect,0.019762042739293384,1,invalid_win,482.7243884000927,48,,,,,,,,,,,,,,,,sub_270,2023-04-02_19h14.23.829,Reversal,2022.1.2,60.06247686283477,2,
8,exp1.png,exp2.png,,,,,,,,,,,,,,,,,,0,0,0,0,0,8,8,8,,,,,,,,,False,7,88,True,exp2.png,exp1.png,trial_right_image,-1,exp1.png,2,exp1.png,exp2.png,1,1,non-reversed,correct,0.7296389693559723,1,valid_win,486.89154870063066,49,,,,,,,,,,,,,,,,sub_270,2023-04-02_19h14.23.829,Reversal,2022.1.2,60.06247686283477,2,
9,exp3.png,exp4.png,,,,,,,,,,,,,,,,,,0,0,0,0,0,9,9,9,,,,,,,,,False,8,89,False,exp3.png,exp4.png,trial_left_image,1,exp3.png,2,exp4.png,exp3.png,1,3,reversed,incorrect,0.6547751496282141,0,valid_lose,491.70854070037603,49,,,,,,,,,,,,,,,,sub_270,2023-04-02_19h14.23.829,Reversal,2022.1.2,60.06247686283477,2,
10,exp1.png,exp2.png,,,,,,,,,,,,,,,,,,0,0,0,0,0,10,10,10,,,,,,,,,False,9,90,True,exp2.png,exp1.png,trial_right_image,-1,exp1.png,2,exp1.png,exp2.png,1,1,non-reversed,correct,0.9722968502398425,1,valid_win,495.57451810035855,50,,,,,,,,,,,,,,,,sub_270,2023-04-02_19h14.23.829,Reversal,2022.1.2,60.06247686283477,2,
11,exp3.png,exp4.png,,,,,,,,,,,,,,,,,,0,0,0,0,0,11,11,11,,,,,,,,,False,10,91,True,exp4.png,exp3.png,trial_left_image,1,exp4.png,2,exp4.png,exp3.png,0,4,reversed,correct,0.11198645090196391,0,invalid_lose,499.90831730049103,50,,,,,,,,,,,,,,,,sub_270,2023-04-02_19h14.23.829,Reversal,2022.1.2,60.06247686283477,2,
12,exp1.png,exp2.png,,,,,,,,,,,,,,,,,,0,0,0,0,0,12,12,12,,,,,,,,,False,11,92,True,exp2.png,exp1.png,trial_left_image,1,exp2.png,2,exp1.png,exp2.png,0,2,non-reversed,incorrect,0.31106093660931333,0,valid_lose,504.1417266000062,50,,,,,,,,,,,,,,,,sub_270,2023-04-02_19h14.23.829,Reversal,2022.1.2,60.06247686283477,2,
13,exp3.png,exp4.png,,,,,,,,,,,,,,,,,,0,0,0,0,0,13,13,13,,,,,,,,,False,12,93,False,exp3.png,exp4.png,trial_right_image,-1,exp4.png,2,exp4.png,exp3.png,0,4,reversed,correct,0.25412501070082116,1,valid_win,508.9248556001112,51,,,,,,,,,,,,,,,,sub_270,2023-04-02_19h14.23.829,Reversal,2022.1.2,60.06247686283477,2,
14,exp1.png,exp2.png,,,,,,,,,,,,,,,,,,0,0,0,0,0,14,14,14,,,,,,,,,False,13,94,True,exp2.png,exp1.png,trial_right_image,-1,exp1.png,2,exp1.png,exp2.png,1,1,non-reversed,correct,0.6899034919976261,1,valid_win,513.7079869005829,52,,,,,,,,,,,,,,,,sub_270,2023-04-02_19h14.23.829,Reversal,2022.1.2,60.06247686283477,2,
15,exp3.png,exp4.png,,,,,,,,,,,,,,,,,,0,0,0,0,0,15,15,15,,,,,,,,,False,14,95,False,exp3.png,exp4.png,trial_right_image,-1,exp4.png,2,exp4.png,exp3.png,0,4,reversed,correct,0.24371727985454905,0,invalid_lose,517.9408058002591,52,,,,,,,,,,,,,,,,sub_270,2023-04-02_19h14.23.829,Reversal,2022.1.2,60.06247686283477,2,
16,exp1.png,exp2.png,,,,,,,,,,,,,,,,,,0,0,0,0,0,16,16,16,,,,,,,,,False,15,96,True,exp2.png,exp1.png,trial_right_image,-1,exp1.png,2,exp1.png,exp2.png,1,1,non-reversed,correct,0.21217135302851098,0,invalid_lose,522.757604200393,52,,,,,,,,,,,,,,,,sub_270,2023-04-02_19h14.23.829,Reversal,2022.1.2,60.06247686283477,2,
17,exp3.png,exp4.png,,,,,,,,,,,,,,,,,,0,0,0,0,0,17,17,17,,,,,,,,,False,16,97,False,exp3.png,exp4.png,trial_left_image,1,exp3.png,2,exp4.png,exp3.png,1,3,reversed,incorrect,0.45899818694530525,0,valid_lose,527.2578575005755,52,,,,,,,,,,,,,,,,sub_270,2023-04-02_19h14.23.829,Reversal,2022.1.2,60.06247686283477,2,
18,exp1.png,exp2.png,,,,,,,,,,,,,,,,,,0,0,0,0,0,18,18,18,,,,,,,,,False,17,98,True,exp2.png,exp1.png,trial_right_image,-1,exp1.png,2,exp1.png,exp2.png,1,1,non-reversed,correct,0.7194936783917928,1,valid_win,531.1908608004451,53,,,,,,,,,,,,,,,,sub_270,2023-04-02_19h14.23.829,Reversal,2022.1.2,60.06247686283477,2,
19,exp3.png,exp4.png,,,,,,,,,,,,,,,,,,0,0,0,0,0,19,19,19,,,,,,,,,False,18,99,False,exp3.png,exp4.png,trial_left_image,1,exp3.png,2,exp4.png,exp3.png,1,3,reversed,incorrect,0.6556466893063899,0,valid_lose,535.3409762000665,53,,,,,,,,,,,,,,,,sub_270,2023-04-02_19h14.23.829,Reversal,2022.1.2,60.06247686283477,2,
20,exp1.png,exp2.png,,,,,,,,,,,,,,,,,,0,0,0,0,0,20,20,20,,,,,,,,,False,19,100,False,exp1.png,exp2.png,trial_left_image,1,exp1.png,2,exp1.png,exp2.png,1,1,non-reversed,correct,0.7535695250988905,1,valid_win,539.5405991999432,54,,,,,,,,,,,,,,,,sub_270,2023-04-02_19h14.23.829,Reversal,2022.1.2,60.06247686283477,2,
,,,exp1.png,,,,,,,,,,,,,,,,,0,0,0,0,,,,,0,0,0,0,0,0,0,0,,,,,,,,,,,,,,,,,,,,,,89.0,89.0,2.1458829008042812,"[(89.0, 2.1458829008042812)]",608.1737838992849,None,,,,,,,,,,sub_270,2023-04-02_19h14.23.829,Reversal,2022.1.2,60.06247686283477,2,
,,,exp2.png,,,,,,,,,,,,,,,,,0,0,0,0,,,,,0,0,0,0,0,1,1,1,,,,,,,,,,,,,,,,,,,,,,,14.0,1.518036499619484,"[(14.0, 1.518036499619484)]",611.2175202993676,None,14.0,,,,,,,,,sub_270,2023-04-02_19h14.23.829,Reversal,2022.1.2,60.06247686283477,2,
,,,exp3.png,,,,,,,,,,,,,,,,,0,0,0,0,,,,,0,0,0,0,0,2,2,2,,,,,,,,,,,,,,,,,,,,,,,16.0,2.3692198004573584,"[(16.0, 2.3692198004573584)]",613.5657645994797,None,,16.0,,,,,,,,sub_270,2023-04-02_19h14.23.829,Reversal,2022.1.2,60.06247686283477,2,
,,,exp4.png,,,,,,,,,,,,,,,,,0,0,0,0,,,,,0,0,0,0,0,3,3,3,,,,,,,,,,,,,,,,,,,,,,,13.0,1.5663870004937053,"[(13.0, 1.5663870004937053)]",616.818173199892,None,,,13.0,,,,,,,sub_270,2023-04-02_19h14.23.829,Reversal,2022.1.2,60.06247686283477,2,
0,exp1.png,exp2.png,,,,,,,,,,,,,,,,,,1,0,1,0,0,0,0,0,,,,,,,,,True,,,,,,,,,,,,,,,,,,,,,,,,,,,,,,,,,,,,sub_270,2023-04-02_19h14.23.829,Reversal,2022.1.2,60.06247686283477,2,
1,exp3.png,exp4.png,,,,,,,,,,,,,,,,,,1,0,1,0,0,1,1,1,,,,,,,,,False,20,101,False,exp3.png,exp4.png,trial_left_image,1,exp3.png,2,exp4.png,exp3.png,1,3,reversed,incorrect,0.9310306246455567,0,valid_lose,556.223584599793,54,,,,,,,,,,,,,,,,sub_270,2023-04-02_19h14.23.829,Reversal,2022.1.2,60.06247686283477,2,
2,exp1.png,exp2.png,,,,,,,,,,,,,,,,,,1,0,1,0,0,2,2,2,,,,,,,,,False,21,102,False,exp1.png,exp2.png,trial_left_image,1,exp1.png,2,exp1.png,exp2.png,1,1,non-reversed,correct,0.6535889142363597,1,valid_win,560.3568232003599,55,,,,,,,,,,,,,,,,sub_270,2023-04-02_19h14.23.829,Reversal,2022.1.2,60.06247686283477,2,
3,exp3.png,exp4.png,,,,,,,,,,,,,,,,,,1,0,1,0,0,3,3,3,,,,,,,,,False,22,103,False,exp3.png,exp4.png,trial_left_image,1,exp3.png,2,exp4.png,exp3.png,1,3,reversed,incorrect,0.916273314360157,0,valid_lose,564.3067378997803,55,,,,,,,,,,,,,,,,sub_270,2023-04-02_19h14.23.829,Reversal,2022.1.2,60.06247686283477,2,
4,exp1.png,exp2.png,,,,,,,,,,,,,,,,,,1,0,1,0,0,4,4,4,,,,,,,,,False,23,104,False,exp1.png,exp2.png,trial_left_image,1,exp1.png,2,exp1.png,exp2.png,1,1,non-reversed,correct,0.2543075004218993,1,valid_win,568.3732336005196,56,,,,,,,,,,,,,,,,sub_270,2023-04-02_19h14.23.829,Reversal,2022.1.2,60.06247686283477,2,
5,exp3.png,exp4.png,,,,,,,,,,,,,,,,,,1,0,1,0,0,5,5,5,,,,,,,,,False,24,105,True,exp4.png,exp3.png,trial_left_image,1,exp4.png,2,exp4.png,exp3.png,0,4,reversed,correct,0.8729947693593465,1,valid_win,572.3566763000563,57,,,,,,,,,,,,,,,,sub_270,2023-04-02_19h14.23.829,Reversal,2022.1.2,60.06247686283477,2,
6,exp1.png,exp2.png,,,,,,,,,,,,,,,,,,1,0,1,0,0,6,6,6,,,,,,,,,False,25,106,False,exp1.png,exp2.png,trial_left_image,1,exp1.png,2,exp1.png,exp2.png,1,1,non-reversed,correct,0.6257320103486439,1,valid_win,576.9403979005292,58,,,,,,,,,,,,,,,,sub_270,2023-04-02_19h14.23.829,Reversal,2022.1.2,60.06247686283477,2,
7,exp3.png,exp4.png,,,,,,,,,,,,,,,,,,1,0,1,0,0,7,7,7,,,,,,,,,False,26,107,False,exp3.png,exp4.png,trial_right_image,-1,exp4.png,2,exp4.png,exp3.png,0,4,reversed,correct,0.06320168204356114,0,invalid_lose,581.773578800261,58,,,,,,,,,,,,,,,,sub_270,2023-04-02_19h14.23.829,Reversal,2022.1.2,60.06247686283477,2,
8,exp1.png,exp2.png,,,,,,,,,,,,,,,,,,1,0,1,0,0,8,8,8,,,,,,,,,False,27,108,True,exp2.png,exp1.png,trial_right_image,-1,exp1.png,2,exp1.png,exp2.png,1,1,non-reversed,correct,0.9497656654594296,1,valid_win,585.8229040997103,59,,,,,,,,,,,,,,,,sub_270,2023-04-02_19h14.23.829,Reversal,2022.1.2,60.06247686283477,2,
9,exp3.png,exp4.png,,,,,,,,,,,,,,,,,,1,0,1,0,0,9,9,9,,,,,,,,,False,28,109,False,exp3.png,exp4.png,trial_right_image,-1,exp4.png,2,exp4.png,exp3.png,0,4,reversed,correct,0.41881269983024905,1,valid_win,590.2568698003888,60,,,,,,,,,,,,,,,,sub_270,2023-04-02_19h14.23.829,Reversal,2022.1.2,60.06247686283477,2,
10,exp1.png,exp2.png,,,,,,,,,,,,,,,,,,1,0,1,0,0,10,10,10,,,,,,,,,False,29,110,True,exp2.png,exp1.png,trial_right_image,-1,exp1.png,2,exp1.png,exp2.png,1,1,non-reversed,correct,0.9799018648907687,1,valid_win,594.6565078003332,61,,,,,,,,,,,,,,,,sub_270,2023-04-02_19h14.23.829,Reversal,2022.1.2,60.06247686283477,2,
11,exp3.png,exp4.png,,,,,,,,,,,,,,,,,,1,0,1,0,0,11,11,11,,,,,,,,,False,30,111,True,exp4.png,exp3.png,trial_left_image,1,exp4.png,2,exp4.png,exp3.png,0,4,reversed,correct,0.6481200049701145,1,valid_win,599.7391637004912,62,,,,,,,,,,,,,,,,sub_270,2023-04-02_19h14.23.829,Reversal,2022.1.2,60.06247686283477,2,
12,exp1.png,exp2.png,,,,,,,,,,,,,,,,,,1,0,1,0,0,12,12,12,,,,,,,,,False,31,112,False,exp1.png,exp2.png,trial_left_image,1,exp1.png,2,exp1.png,exp2.png,1,1,non-reversed,correct,0.86150966896582,1,valid_win,604.2888045003638,63,,,,,,,,,,,,,,,,sub_270,2023-04-02_19h14.23.829,Reversal,2022.1.2,60.06247686283477,2,
13,exp3.png,exp4.png,,,,,,,,,,,,,,,,,,1,0,1,0,0,13,13,13,,,,,,,,,False,32,113,True,exp4.png,exp3.png,trial_right_image,-1,exp3.png,2,exp4.png,exp3.png,1,3,reversed,incorrect,0.5020897525893111,0,valid_lose,609.6228985004127,63,,,,,,,,,,,,,,,,sub_270,2023-04-02_19h14.23.829,Reversal,2022.1.2,60.06247686283477,2,
14,exp1.png,exp2.png,,,,,,,,,,,,,,,,,,1,0,1,0,0,14,14,14,,,,,,,,,False,33,114,True,exp2.png,exp1.png,trial_right_image,-1,exp1.png,2,exp1.png,exp2.png,1,1,non-reversed,correct,0.6903222991583596,1,valid_win,613.7894176999107,64,,,,,,,,,,,,,,,,sub_270,2023-04-02_19h14.23.829,Reversal,2022.1.2,60.06247686283477,2,
15,exp3.png,exp4.png,,,,,,,,,,,,,,,,,,1,0,1,0,0,15,15,15,,,,,,,,,False,34,115,True,exp4.png,exp3.png,trial_left_image,1,exp4.png,2,exp4.png,exp3.png,0,4,reversed,correct,0.9110995826180215,1,valid_win,618.4892273005098,65,,,,,,,,,,,,,,,,sub_270,2023-04-02_19h14.23.829,Reversal,2022.1.2,60.06247686283477,2,
16,exp1.png,exp2.png,,,,,,,,,,,,,,,,,,1,0,1,0,0,16,16,16,,,,,,,,,False,35,116,False,exp1.png,exp2.png,trial_left_image,1,exp1.png,2,exp1.png,exp2.png,1,1,non-reversed,correct,0.5767076934155312,1,valid_win,623.055656700395,66,,,,,,,,,,,,,,,,sub_270,2023-04-02_19h14.23.829,Reversal,2022.1.2,60.06247686283477,2,
17,exp3.png,exp4.png,,,,,,,,,,,,,,,,,,1,0,1,0,0,17,17,17,,,,,,,,,False,36,117,True,exp4.png,exp3.png,trial_left_image,1,exp4.png,2,exp4.png,exp3.png,0,4,reversed,correct,0.07796601806688552,0,invalid_lose,627.4223116002977,66,,,,,,,,,,,,,,,,sub_270,2023-04-02_19h14.23.829,Reversal,2022.1.2,60.06247686283477,2,
18,exp1.png,exp2.png,,,,,,,,,,,,,,,,,,1,0,1,0,0,18,18,18,,,,,,,,,False,37,118,False,exp1.png,exp2.png,trial_left_image,1,exp1.png,2,exp1.png,exp2.png,1,1,non-reversed,correct,0.6091863128147634,1,valid_win,631.489231900312,67,,,,,,,,,,,,,,,,sub_270,2023-04-02_19h14.23.829,Reversal,2022.1.2,60.06247686283477,2,
19,exp3.png,exp4.png,,,,,,,,,,,,,,,,,,1,0,1,0,0,19,19,19,,,,,,,,,False,38,119,True,exp4.png,exp3.png,trial_right_image,-1,exp3.png,2,exp4.png,exp3.png,1,3,reversed,incorrect,0.17478186150628394,1,invalid_win,635.5724057005718,68,,,,,,,,,,,,,,,,sub_270,2023-04-02_19h14.23.829,Reversal,2022.1.2,60.06247686283477,2,
20,exp1.png,exp2.png,,,,,,,,,,,,,,,,,,1,0,1,0,0,20,20,20,,,,,,,,,False,39,120,True,exp2.png,exp1.png,trial_right_image,-1,exp1.png,2,exp1.png,exp2.png,1,1,non-reversed,correct,0.6232862164430776,1,valid_win,641.5224521998316,69,,,,,,,,,,,,,,,,sub_270,2023-04-02_19h14.23.829,Reversal,2022.1.2,60.06247686283477,2,
,,,exp1.png,,,,,,,,,,,,,,,,,1,0,1,0,,,,,0,0,0,0,0,0,0,0,,,,,,,,,,,,,,,,,,,,,,90.0,90.0,1.8952299002557993,"[(90.0, 1.8952299002557993)]",710.1397033995017,None,,,,,,,,,,sub_270,2023-04-02_19h14.23.829,Reversal,2022.1.2,60.06247686283477,2,
,,,exp2.png,,,,,,,,,,,,,,,,,1,0,1,0,,,,,0,0,0,0,0,1,1,1,,,,,,,,,,,,,,,,,,,,,,,50.0,None,[],712.572739799507,None,,,,,,,,,,sub_270,2023-04-02_19h14.23.829,Reversal,2022.1.2,60.06247686283477,2,
,,,exp3.png,,,,,,,,,,,,,,,,,1,0,1,0,,,,,0,0,0,0,0,2,2,2,,,,,,,,,,,,,,,,,,,,,,,15.0,2.2353673996403813,"[(15.0, 2.2353673996403813)]",713.0152749996632,None,,15.0,,,,,,,,sub_270,2023-04-02_19h14.23.829,Reversal,2022.1.2,60.06247686283477,2,
,,,exp4.png,,,,,,,,,,,,,,,,,1,0,1,0,,,,,0,0,0,0,0,3,3,3,,,,,,,,,,,,,,,,,,,,,,,32.0,1.149091800674796,"[(32.0, 1.149091800674796)]",716.1518031992018,None,,,32.0,,,,,,,sub_270,2023-04-02_19h14.23.829,Reversal,2022.1.2,60.06247686283477,2,
0,exp1.png,exp2.png,,,,,,,,,,,,,,,,,,2,0,2,0,0,0,0,0,,,,,,,,,True,,,,,,,,,,,,,,,,,,,,,,,,,,,,,,,,,,,,sub_270,2023-04-02_19h14.23.829,Reversal,2022.1.2,60.06247686283477,2,
1,exp3.png,exp4.png,,,,,,,,,,,,,,,,,,2,0,2,0,0,1,1,1,,,,,,,,,False,40,121,False,exp3.png,exp4.png,trial_right_image,-1,exp4.png,2,exp4.png,exp3.png,0,4,reversed,correct,0.24812724181464074,0,invalid_lose,654.0553673999384,69,,,,,,,,,,,,,,,,sub_270,2023-04-02_19h14.23.829,Reversal,2022.1.2,60.06247686283477,2,
2,exp1.png,exp2.png,,,,,,,,,,,,,,,,,,2,0,2,0,0,2,2,2,,,,,,,,,False,41,122,True,exp2.png,exp1.png,trial_right_image,-1,exp1.png,2,exp1.png,exp2.png,1,1,non-reversed,correct,0.4684615765244201,1,valid_win,658.0388010004535,70,,,,,,,,,,,,,,,,sub_270,2023-04-02_19h14.23.829,Reversal,2022.1.2,60.06247686283477,2,
3,exp3.png,exp4.png,,,,,,,,,,,,,,,,,,2,0,2,0,0,3,3,3,,,,,,,,,False,42,123,False,exp3.png,exp4.png,trial_right_image,-1,exp4.png,2,exp4.png,exp3.png,0,4,reversed,correct,0.05788691959465386,0,invalid_lose,662.304599000141,70,,,,,,,,,,,,,,,,sub_270,2023-04-02_19h14.23.829,Reversal,2022.1.2,60.06247686283477,2,
4,exp1.png,exp2.png,,,,,,,,,,,,,,,,,,2,0,2,0,0,4,4,4,,,,,,,,,False,43,124,False,exp1.png,exp2.png,trial_left_image,1,exp1.png,2,exp1.png,exp2.png,1,1,non-reversed,correct,0.9445658765880143,1,valid_win,666.4216304998845,71,,,,,,,,,,,,,,,,sub_270,2023-04-02_19h14.23.829,Reversal,2022.1.2,60.06247686283477,2,
5,exp3.png,exp4.png,,,,,,,,,,,,,,,,,,2,0,2,0,0,5,5,5,,,,,,,,,False,44,125,True,exp4.png,exp3.png,trial_left_image,1,exp4.png,2,exp4.png,exp3.png,0,4,reversed,correct,0.5183844235294618,1,valid_win,670.4883316997439,72,,,,,,,,,,,,,,,,sub_270,2023-04-02_19h14.23.829,Reversal,2022.1.2,60.06247686283477,2,
6,exp1.png,exp2.png,,,,,,,,,,,,,,,,,,2,0,2,0,0,6,6,6,,,,,,,,,False,45,126,True,exp2.png,exp1.png,trial_right_image,-1,exp1.png,2,exp1.png,exp2.png,1,1,non-reversed,correct,0.31709874127416926,1,valid_win,675.3552091000602,73,,,,,,,,,,,,,,,,sub_270,2023-04-02_19h14.23.829,Reversal,2022.1.2,60.06247686283477,2,
7,exp3.png,exp4.png,,,,,,,,,,,,,,,,,,2,0,2,0,0,7,7,7,,,,,,,,,False,46,127,False,exp3.png,exp4.png,trial_right_image,-1,exp4.png,2,exp4.png,exp3.png,0,4,reversed,correct,0.7384620782547417,1,valid_win,680.704622999765,74,,,,,,,,,,,,,,,,sub_270,2023-04-02_19h14.23.829,Reversal,2022.1.2,60.06247686283477,2,
8,exp1.png,exp2.png,,,,,,,,,,,,,,,,,,2,0,2,0,0,8,8,8,,,,,,,,,False,47,128,True,exp2.png,exp1.png,trial_right_image,-1,exp1.png,2,exp1.png,exp2.png,1,1,non-reversed,correct,0.126314145135775,0,invalid_lose,685.4550929004326,74,,,,,,,,,,,,,,,,sub_270,2023-04-02_19h14.23.829,Reversal,2022.1.2,60.06247686283477,2,
9,exp3.png,exp4.png,,,,,,,,,,,,,,,,,,2,0,2,0,0,9,9,9,,,,,,,,,False,48,129,False,exp3.png,exp4.png,trial_right_image,-1,exp4.png,2,exp4.png,exp3.png,0,4,reversed,correct,0.1852107687699851,0,invalid_lose,689.58794509992,74,,,,,,,,,,,,,,,,sub_270,2023-04-02_19h14.23.829,Reversal,2022.1.2,60.06247686283477,2,
10,exp1.png,exp2.png,,,,,,,,,,,,,,,,,,2,0,2,0,0,10,10,10,,,,,,,,,False,49,130,False,exp1.png,exp2.png,trial_left_image,1,exp1.png,2,exp1.png,exp2.png,1,1,non-reversed,correct,0.02255139385054028,0,invalid_lose,697.037772600539,74,,,,,,,,,,,,,,,,sub_270,2023-04-02_19h14.23.829,Reversal,2022.1.2,60.06247686283477,2,
11,exp3.png,exp4.png,,,,,,,,,,,,,,,,,,2,0,2,0,0,11,11,11,,,,,,,,,False,50,131,True,exp4.png,exp3.png,trial_left_image,1,exp4.png,2,exp4.png,exp3.png,0,4,reversed,correct,0.19813056745598456,0,invalid_lose,701.3048219997436,74,,,,,,,,,,,,,,,,sub_270,2023-04-02_19h14.23.829,Reversal,2022.1.2,60.06247686283477,2,
12,exp1.png,exp2.png,,,,,,,,,,,,,,,,,,2,0,2,0,0,12,12,12,,,,,,,,,False,51,132,False,exp1.png,exp2.png,trial_left_image,1,exp1.png,2,exp1.png,exp2.png,1,1,non-reversed,correct,0.7644384729248249,1,valid_win,705.4046080000699,75,,,,,,,,,,,,,,,,sub_270,2023-04-02_19h14.23.829,Reversal,2022.1.2,60.06247686283477,2,
13,exp3.png,exp4.png,,,,,,,,,,,,,,,,,,2,0,2,0,0,13,13,13,,,,,,,,,False,52,133,True,exp4.png,exp3.png,trial_left_image,1,exp4.png,2,exp4.png,exp3.png,0,4,reversed,correct,0.7895574168732894,1,valid_win,709.8544445997104,76,,,,,,,,,,,,,,,,sub_270,2023-04-02_19h14.23.829,Reversal,2022.1.2,60.06247686283477,2,
14,exp1.png,exp2.png,,,,,,,,,,,,,,,,,,2,0,2,0,0,14,14,14,,,,,,,,,False,53,134,True,exp2.png,exp1.png,trial_right_image,-1,exp1.png,2,exp1.png,exp2.png,1,1,non-reversed,correct,0.7613487656367129,1,valid_win,713.7881001001224,77,,,,,,,,,,,,,,,,sub_270,2023-04-02_19h14.23.829,Reversal,2022.1.2,60.06247686283477,2,
15,exp3.png,exp4.png,,,,,,,,,,,,,,,,,,2,0,2,0,0,15,15,15,,,,,,,,,False,54,135,True,exp4.png,exp3.png,trial_left_image,1,exp4.png,2,exp4.png,exp3.png,0,4,reversed,correct,0.9363917424675884,1,valid_win,718.0212128004059,78,,,,,,,,,,,,,,,,sub_270,2023-04-02_19h14.23.829,Reversal,2022.1.2,60.06247686283477,2,
16,exp1.png,exp2.png,,,,,,,,,,,,,,,,,,2,0,2,0,0,16,16,16,,,,,,,,,False,55,136,True,exp2.png,exp1.png,trial_right_image,-1,exp1.png,2,exp1.png,exp2.png,1,1,non-reversed,correct,0.08776290686744426,0,invalid_lose,721.970362899825,78,,,,,,,,,,,,,,,,sub_270,2023-04-02_19h14.23.829,Reversal,2022.1.2,60.06247686283477,2,
17,exp3.png,exp4.png,,,,,,,,,,,,,,,,,,2,0,2,0,0,17,17,17,,,,,,,,,False,56,137,False,exp3.png,exp4.png,trial_right_image,-1,exp4.png,2,exp4.png,exp3.png,0,4,reversed,correct,0.24061091243230293,0,invalid_lose,726.1037362003699,78,,,,,,,,,,,,,,,,sub_270,2023-04-02_19h14.23.829,Reversal,2022.1.2,60.06247686283477,2,
18,exp1.png,exp2.png,,,,,,,,,,,,,,,,,,2,0,2,0,0,18,18,18,,,,,,,,,False,57,138,True,exp2.png,exp1.png,trial_right_image,-1,exp1.png,2,exp1.png,exp2.png,1,1,non-reversed,correct,0.6875016448212936,1,valid_win,730.2542888000607,79,,,,,,,,,,,,,,,,sub_270,2023-04-02_19h14.23.829,Reversal,2022.1.2,60.06247686283477,2,
19,exp3.png,exp4.png,,,,,,,,,,,,,,,,,,2,0,2,0,0,19,19,19,,,,,,,,,False,58,139,False,exp3.png,exp4.png,trial_right_image,-1,exp4.png,2,exp4.png,exp3.png,0,4,reversed,correct,0.5918057937576588,1,valid_win,734.8376435004175,80,,,,,,,,,,,,,,,,sub_270,2023-04-02_19h14.23.829,Reversal,2022.1.2,60.06247686283477,2,
20,exp1.png,exp2.png,,,,,,,,,,,,,,,,,,2,0,2,0,0,20,20,20,,,,,,,,,False,59,140,False,exp1.png,exp2.png,trial_right_image,-1,exp2.png,2,exp1.png,exp2.png,0,2,non-reversed,incorrect,0.7180854006063352,0,valid_lose,738.787231400609,80,,,,,,,,,,,,,,,,sub_270,2023-04-02_19h14.23.829,Reversal,2022.1.2,60.06247686283477,2,
,,,exp1.png,,,,,,,,,,,,,,,,,2,0,2,0,,,,,0,0,0,0,0,0,0,0,,,,,,,,,,,,,,,,,,,,,,89.0,89.0,1.7308786995708942,"[(89.0, 1.7308786995708942)]",807.417803899385,None,,,,,,,,,,sub_270,2023-04-02_19h14.23.829,Reversal,2022.1.2,60.06247686283477,2,
,,,exp2.png,,,,,,,,,,,,,,,,,2,0,2,0,,,,,0,0,0,0,0,1,1,1,,,,,,,,,,,,,,,,,,,,,,,12.0,2.901800500229001,"[(12.0, 2.901800500229001)]",810.0797143997625,None,12.0,,,,,,,,,sub_270,2023-04-02_19h14.23.829,Reversal,2022.1.2,60.06247686283477,2,
,,,exp3.png,,,,,,,,,,,,,,,,,2,0,2,0,,,,,0,0,0,0,0,2,2,2,,,,,,,,,,,,,,,,,,,,,,,17.0,3.5524760000407696,"[(17.0, 3.5524760000407696)]",813.8631394999102,None,,17.0,,,,,,,,sub_270,2023-04-02_19h14.23.829,Reversal,2022.1.2,60.06247686283477,2,
,,,exp4.png,,,,,,,,,,,,,,,,,2,0,2,0,,,,,0,0,0,0,0,3,3,3,,,,,,,,,,,,,,,,,,,,,,,66.0,1.6670653000473976,"[(66.0, 1.6670653000473976)]",818.3330576000735,None,,,66.0,,,,,,,sub_270,2023-04-02_19h14.23.829,Reversal,2022.1.2,60.06247686283477,2,
,,,,,,,,,,,,,,,,,,,,,,,,,,,,,,,,,,,,,,,,,,,,,,,,,,,,,,,,80,,,,,,,,,,,103,55,48,300.06928340066224,1,,,,,,,
