trial_index,trial_image1_file,trial_image2_file,image_file,learning_outer_loop.thisRepN,learning_outer_loop.thisTrialN,learning_outer_loop.thisN,learning_outer_loop.thisIndex,learning_inner_loop.thisRepN,learning_inner_loop.thisTrialN,learning_inner_loop.thisN,learning_inner_loop.thisIndex,learning_estimation_outer_loop.thisRepN,learning_estimation_outer_loop.thisTrialN,learning_estimation_outer_loop.thisN,learning_estimation_outer_loop.thisIndex,learning_estimation_inner_loop.thisRepN,learning_estimation_inner_loop.thisTrialN,learning_estimation_inner_loop.thisN,learning_estimation_inner_loop.thisIndex,reversal_outer_loop.thisRepN,reversal_outer_loop.thisTrialN,reversal_outer_loop.thisN,reversal_outer_loop.thisIndex,reversal_inner_loop.thisRepN,reversal_inner_loop.thisTrialN,reversal_inner_loop.thisN,reversal_inner_loop.thisIndex,reversal_estimation_outer_loop.thisRepN,reversal_estimation_outer_loop.thisTrialN,reversal_estimation_outer_loop.thisN,reversal_estimation_outer_loop.thisIndex,reversal_estimation_inner_loop.thisRepN,reversal_estimation_inner_loop.thisTrialN,reversal_estimation_inner_loop.thisN,reversal_estimation_inner_loop.thisIndex,skipped,total_trial_counter,trial_num,left_right_flip,left_image_file,right_image_file,clicked_stimulus_side,side,clicked_stimulus,version,high_prob_image_file,low_prob_image_file,choice_a,choice_b,pair_type,correct,trial_feedback_random,reward,trial_type,overall_time_after_trial,score,estimation_exp1.png,estimation_rating.response,estimation_rating.rt,estimation_rating.history,estimation_rating.started,estimation_rating.stopped,estimation_exp2.png,estimation_exp4.png,estimation_exp3.png,total_learning_time,total_correct,learning_correct,reversal_correct,total_reversal_time,extra_block,end_experiment.keys,end_experiment.rt,participant,date,expName,psychopyVersion,frameRate,ver,
0,exp1.png,exp2.png,,0,0,0,0,0,0,0,0,,,,,,,,,,,,,,,,,,,,,,,,,True,,,,,,,,,,,,,,,,,,,,,,,,,,,,,,,,,,,,,,sub_089,2022-09-19_19h14.58.137,Reversal,2022.1.2,60.03056757413398,1,
1,exp3.png,exp4.png,,0,0,0,0,0,1,1,1,,,,,,,,,,,,,,,,,,,,,,,,,False,0,1,False,exp3.png,exp4.png,trial_right_image,-1,exp4.png,1,exp3.png,exp4.png,0,2,non-reversed,incorrect,0.6460510702447051,0,valid_lose,4.317386099952273,0,,,,,,,,,,,,,,,,,,sub_089,2022-09-19_19h14.58.137,Reversal,2022.1.2,60.03056757413398,1,
2,exp1.png,exp2.png,,0,0,0,0,0,2,2,2,,,,,,,,,,,,,,,,,,,,,,,,,False,1,2,False,exp1.png,exp2.png,trial_right_image,-1,exp2.png,1,exp1.png,exp2.png,0,4,reversed,incorrect,0.5158804066469815,0,valid_lose,12.150526199955493,0,,,,,,,,,,,,,,,,,,sub_089,2022-09-19_19h14.58.137,Reversal,2022.1.2,60.03056757413398,1,
3,exp3.png,exp4.png,,0,0,0,0,0,3,3,3,,,,,,,,,,,,,,,,,,,,,,,,,False,2,3,True,exp4.png,exp3.png,trial_left_image,1,exp4.png,1,exp3.png,exp4.png,0,2,non-reversed,incorrect,0.7224117628845492,0,valid_lose,28.50007079995703,0,,,,,,,,,,,,,,,,,,sub_089,2022-09-19_19h14.58.137,Reversal,2022.1.2,60.03056757413398,1,
4,exp1.png,exp2.png,,0,0,0,0,0,4,4,4,,,,,,,,,,,,,,,,,,,,,,,,,False,3,4,False,exp1.png,exp2.png,trial_left_image,1,exp1.png,1,exp1.png,exp2.png,1,3,reversed,correct,0.45734927249473145,1,valid_win,34.783700600033626,1,,,,,,,,,,,,,,,,,,sub_089,2022-09-19_19h14.58.137,Reversal,2022.1.2,60.03056757413398,1,
5,exp3.png,exp4.png,,0,0,0,0,0,5,5,5,,,,,,,,,,,,,,,,,,,,,,,,,False,4,5,True,exp4.png,exp3.png,trial_right_image,-1,exp3.png,1,exp3.png,exp4.png,1,1,non-reversed,correct,0.747394715542428,1,valid_win,39.83309299999382,2,,,,,,,,,,,,,,,,,,sub_089,2022-09-19_19h14.58.137,Reversal,2022.1.2,60.03056757413398,1,
6,exp1.png,exp2.png,,0,0,0,0,0,6,6,6,,,,,,,,,,,,,,,,,,,,,,,,,False,5,6,False,exp1.png,exp2.png,trial_left_image,1,exp1.png,1,exp1.png,exp2.png,1,3,reversed,correct,0.6747492949866682,1,valid_win,47.25029779993929,3,,,,,,,,,,,,,,,,,,sub_089,2022-09-19_19h14.58.137,Reversal,2022.1.2,60.03056757413398,1,
7,exp3.png,exp4.png,,0,0,0,0,0,7,7,7,,,,,,,,,,,,,,,,,,,,,,,,,False,6,7,False,exp3.png,exp4.png,trial_right_image,-1,exp4.png,1,exp3.png,exp4.png,0,2,non-reversed,incorrect,0.677766340412285,0,valid_lose,52.54941289999988,3,,,,,,,,,,,,,,,,,,sub_089,2022-09-19_19h14.58.137,Reversal,2022.1.2,60.03056757413398,1,
8,exp1.png,exp2.png,,0,0,0,0,0,8,8,8,,,,,,,,,,,,,,,,,,,,,,,,,False,7,8,True,exp2.png,exp1.png,trial_right_image,-1,exp1.png,1,exp1.png,exp2.png,1,3,reversed,correct,0.4706662561463769,1,valid_win,58.63298090000171,4,,,,,,,,,,,,,,,,,,sub_089,2022-09-19_19h14.58.137,Reversal,2022.1.2,60.03056757413398,1,
9,exp3.png,exp4.png,,0,0,0,0,0,9,9,9,,,,,,,,,,,,,,,,,,,,,,,,,False,8,9,True,exp4.png,exp3.png,trial_right_image,-1,exp3.png,1,exp3.png,exp4.png,1,1,non-reversed,correct,0.9653400477059364,1,valid_win,64.85013759997673,5,,,,,,,,,,,,,,,,,,sub_089,2022-09-19_19h14.58.137,Reversal,2022.1.2,60.03056757413398,1,
10,exp1.png,exp2.png,,0,0,0,0,0,10,10,10,,,,,,,,,,,,,,,,,,,,,,,,,False,9,10,True,exp2.png,exp1.png,trial_left_image,1,exp2.png,1,exp1.png,exp2.png,0,4,reversed,incorrect,0.502494196639148,0,valid_lose,72.48242170002777,5,,,,,,,,,,,,,,,,,,sub_089,2022-09-19_19h14.58.137,Reversal,2022.1.2,60.03056757413398,1,
11,exp3.png,exp4.png,,0,0,0,0,0,11,11,11,,,,,,,,,,,,,,,,,,,,,,,,,False,10,11,True,exp4.png,exp3.png,trial_right_image,-1,exp3.png,1,exp3.png,exp4.png,1,1,non-reversed,correct,0.25462124047289114,1,valid_win,77.66590239992365,6,,,,,,,,,,,,,,,,,,sub_089,2022-09-19_19h14.58.137,Reversal,2022.1.2,60.03056757413398,1,
12,exp1.png,exp2.png,,0,0,0,0,0,12,12,12,,,,,,,,,,,,,,,,,,,,,,,,,False,11,12,False,exp1.png,exp2.png,trial_left_image,1,exp1.png,1,exp1.png,exp2.png,1,3,reversed,correct,0.6720548912604762,1,valid_win,83.96624640002847,7,,,,,,,,,,,,,,,,,,sub_089,2022-09-19_19h14.58.137,Reversal,2022.1.2,60.03056757413398,1,
13,exp3.png,exp4.png,,0,0,0,0,0,13,13,13,,,,,,,,,,,,,,,,,,,,,,,,,False,12,13,False,exp3.png,exp4.png,trial_left_image,1,exp3.png,1,exp3.png,exp4.png,1,1,non-reversed,correct,0.783235462440517,1,valid_win,89.43218170001637,8,,,,,,,,,,,,,,,,,,sub_089,2022-09-19_19h14.58.137,Reversal,2022.1.2,60.03056757413398,1,
14,exp1.png,exp2.png,,0,0,0,0,0,14,14,14,,,,,,,,,,,,,,,,,,,,,,,,,False,13,14,True,exp2.png,exp1.png,trial_left_image,1,exp2.png,1,exp1.png,exp2.png,0,4,reversed,incorrect,0.17474733575404655,1,invalid_win,94.11510169995017,9,,,,,,,,,,,,,,,,,,sub_089,2022-09-19_19h14.58.137,Reversal,2022.1.2,60.03056757413398,1,
15,exp3.png,exp4.png,,0,0,0,0,0,15,15,15,,,,,,,,,,,,,,,,,,,,,,,,,False,14,15,False,exp3.png,exp4.png,trial_right_image,-1,exp4.png,1,exp3.png,exp4.png,0,2,non-reversed,incorrect,0.4180337295974057,0,valid_lose,98.84877769998275,9,,,,,,,,,,,,,,,,,,sub_089,2022-09-19_19h14.58.137,Reversal,2022.1.2,60.03056757413398,1,
16,exp1.png,exp2.png,,0,0,0,0,0,16,16,16,,,,,,,,,,,,,,,,,,,,,,,,,False,15,16,True,exp2.png,exp1.png,trial_right_image,-1,exp1.png,1,exp1.png,exp2.png,1,3,reversed,correct,0.23990375499116046,0,invalid_lose,103.71509770001285,9,,,,,,,,,,,,,,,,,,sub_089,2022-09-19_19h14.58.137,Reversal,2022.1.2,60.03056757413398,1,
17,exp3.png,exp4.png,,0,0,0,0,0,17,17,17,,,,,,,,,,,,,,,,,,,,,,,,,False,16,17,False,exp3.png,exp4.png,trial_right_image,-1,exp4.png,1,exp3.png,exp4.png,0,2,non-reversed,incorrect,0.3728013269007311,0,valid_lose,108.73198489996139,9,,,,,,,,,,,,,,,,,,sub_089,2022-09-19_19h14.58.137,Reversal,2022.1.2,60.03056757413398,1,
18,exp1.png,exp2.png,,0,0,0,0,0,18,18,18,,,,,,,,,,,,,,,,,,,,,,,,,False,17,18,False,exp1.png,exp2.png,trial_right_image,-1,exp2.png,1,exp1.png,exp2.png,0,4,reversed,incorrect,0.5871699009167094,0,valid_lose,115.78224700002465,9,,,,,,,,,,,,,,,,,,sub_089,2022-09-19_19h14.58.137,Reversal,2022.1.2,60.03056757413398,1,
19,exp3.png,exp4.png,,0,0,0,0,0,19,19,19,,,,,,,,,,,,,,,,,,,,,,,,,False,18,19,True,exp4.png,exp3.png,trial_right_image,-1,exp3.png,1,exp3.png,exp4.png,1,1,non-reversed,correct,0.760721810140494,1,valid_win,121.04861619998701,10,,,,,,,,,,,,,,,,,,sub_089,2022-09-19_19h14.58.137,Reversal,2022.1.2,60.03056757413398,1,
20,exp1.png,exp2.png,,0,0,0,0,0,20,20,20,,,,,,,,,,,,,,,,,,,,,,,,,False,19,20,True,exp2.png,exp1.png,trial_right_image,-1,exp1.png,1,exp1.png,exp2.png,1,3,reversed,correct,0.6113289102814937,1,valid_win,128.03147709998302,11,,,,,,,,,,,,,,,,,,sub_089,2022-09-19_19h14.58.137,Reversal,2022.1.2,60.03056757413398,1,
,,,exp1.png,0,0,0,0,,,,,0,0,0,0,0,0,0,0,,,,,,,,,,,,,,,,,,,,,,,,,,,,,,,,,,,,,,71.0,71.0,17.722850600024685,"[(71.0, 17.722850600024685)]",234.1831477000378,None,,,,,,,,,,,,sub_089,2022-09-19_19h14.58.137,Reversal,2022.1.2,60.03056757413398,1,
,,,exp2.png,0,0,0,0,,,,,0,0,0,0,0,1,1,1,,,,,,,,,,,,,,,,,,,,,,,,,,,,,,,,,,,,,,,24.0,4.926653000060469,"[(24.0, 4.926653000060469)]",253.7948174000485,None,24.0,,,,,,,,,,,sub_089,2022-09-19_19h14.58.137,Reversal,2022.1.2,60.03056757413398,1,
,,,exp3.png,0,0,0,0,,,,,0,0,0,0,0,2,2,2,,,,,,,,,,,,,,,,,,,,,,,,,,,,,,,,,,,,,,,50.0,None,[],260.0986774000339,None,,,,,,,,,,,,sub_089,2022-09-19_19h14.58.137,Reversal,2022.1.2,60.03056757413398,1,
,,,exp4.png,0,0,0,0,,,,,0,0,0,0,0,3,3,3,,,,,,,,,,,,,,,,,,,,,,,,,,,,,,,,,,,,,,,62.0,3.383750299923122,"[(62.0, 3.383750299923122)]",267.16638750000857,None,,62.0,,,,,,,,,,sub_089,2022-09-19_19h14.58.137,Reversal,2022.1.2,60.03056757413398,1,
0,exp1.png,exp2.png,,1,0,1,0,0,0,0,0,,,,,,,,,,,,,,,,,,,,,,,,,True,,,,,,,,,,,,,,,,,,,,,,,,,,,,,,,,,,,,,,sub_089,2022-09-19_19h14.58.137,Reversal,2022.1.2,60.03056757413398,1,
1,exp3.png,exp4.png,,1,0,1,0,0,1,1,1,,,,,,,,,,,,,,,,,,,,,,,,,False,20,21,True,exp4.png,exp3.png,trial_right_image,-1,exp3.png,1,exp3.png,exp4.png,1,1,non-reversed,correct,0.9824873599555105,1,valid_win,173.74723919993266,12,,,,,,,,,,,,,,,,,,sub_089,2022-09-19_19h14.58.137,Reversal,2022.1.2,60.03056757413398,1,
2,exp1.png,exp2.png,,1,0,1,0,0,2,2,2,,,,,,,,,,,,,,,,,,,,,,,,,False,21,22,True,exp2.png,exp1.png,trial_right_image,-1,exp1.png,1,exp1.png,exp2.png,1,3,reversed,correct,0.958189844582445,1,valid_win,179.5134782999521,13,,,,,,,,,,,,,,,,,,sub_089,2022-09-19_19h14.58.137,Reversal,2022.1.2,60.03056757413398,1,
3,exp3.png,exp4.png,,1,0,1,0,0,3,3,3,,,,,,,,,,,,,,,,,,,,,,,,,False,22,23,True,exp4.png,exp3.png,trial_right_image,-1,exp3.png,1,exp3.png,exp4.png,1,1,non-reversed,correct,0.312862589419311,1,valid_win,184.48041229997762,14,,,,,,,,,,,,,,,,,,sub_089,2022-09-19_19h14.58.137,Reversal,2022.1.2,60.03056757413398,1,
4,exp1.png,exp2.png,,1,0,1,0,0,4,4,4,,,,,,,,,,,,,,,,,,,,,,,,,False,23,24,True,exp2.png,exp1.png,trial_right_image,-1,exp1.png,1,exp1.png,exp2.png,1,3,reversed,correct,0.46236086188132397,1,valid_win,190.58039559994359,15,,,,,,,,,,,,,,,,,,sub_089,2022-09-19_19h14.58.137,Reversal,2022.1.2,60.03056757413398,1,
5,exp3.png,exp4.png,,1,0,1,0,0,5,5,5,,,,,,,,,,,,,,,,,,,,,,,,,False,24,25,True,exp4.png,exp3.png,trial_left_image,1,exp4.png,1,exp3.png,exp4.png,0,2,non-reversed,incorrect,0.6883713851061866,0,valid_lose,195.1133727999404,15,,,,,,,,,,,,,,,,,,sub_089,2022-09-19_19h14.58.137,Reversal,2022.1.2,60.03056757413398,1,
6,exp1.png,exp2.png,,1,0,1,0,0,6,6,6,,,,,,,,,,,,,,,,,,,,,,,,,False,25,26,False,exp1.png,exp2.png,trial_right_image,-1,exp2.png,1,exp1.png,exp2.png,0,4,reversed,incorrect,0.3204932090879732,0,valid_lose,200.19690949993674,15,,,,,,,,,,,,,,,,,,sub_089,2022-09-19_19h14.58.137,Reversal,2022.1.2,60.03056757413398,1,
7,exp3.png,exp4.png,,1,0,1,0,0,7,7,7,,,,,,,,,,,,,,,,,,,,,,,,,False,26,27,True,exp4.png,exp3.png,trial_right_image,-1,exp3.png,1,exp3.png,exp4.png,1,1,non-reversed,correct,0.5034042258829396,1,valid_win,204.59666779998224,16,,,,,,,,,,,,,,,,,,sub_089,2022-09-19_19h14.58.137,Reversal,2022.1.2,60.03056757413398,1,
8,exp1.png,exp2.png,,1,0,1,0,0,8,8,8,,,,,,,,,,,,,,,,,,,,,,,,,False,27,28,False,exp1.png,exp2.png,trial_left_image,1,exp1.png,1,exp1.png,exp2.png,1,3,reversed,correct,0.3172298160672118,1,valid_win,209.346892499947,17,,,,,,,,,,,,,,,,,,sub_089,2022-09-19_19h14.58.137,Reversal,2022.1.2,60.03056757413398,1,
9,exp3.png,exp4.png,,1,0,1,0,0,9,9,9,,,,,,,,,,,,,,,,,,,,,,,,,False,28,29,True,exp4.png,exp3.png,trial_right_image,-1,exp3.png,1,exp3.png,exp4.png,1,1,non-reversed,correct,0.10107011047558345,0,invalid_lose,213.7135353999911,17,,,,,,,,,,,,,,,,,,sub_089,2022-09-19_19h14.58.137,Reversal,2022.1.2,60.03056757413398,1,
10,exp1.png,exp2.png,,1,0,1,0,0,10,10,10,,,,,,,,,,,,,,,,,,,,,,,,,False,29,30,True,exp2.png,exp1.png,trial_right_image,-1,exp1.png,1,exp1.png,exp2.png,1,3,reversed,correct,0.6239545697713098,1,valid_win,219.71346280002035,18,,,,,,,,,,,,,,,,,,sub_089,2022-09-19_19h14.58.137,Reversal,2022.1.2,60.03056757413398,1,
11,exp3.png,exp4.png,,1,0,1,0,0,11,11,11,,,,,,,,,,,,,,,,,,,,,,,,,False,30,31,False,exp3.png,exp4.png,trial_right_image,-1,exp4.png,1,exp3.png,exp4.png,0,2,non-reversed,incorrect,0.6155788805192308,0,valid_lose,224.79693620000035,18,,,,,,,,,,,,,,,,,,sub_089,2022-09-19_19h14.58.137,Reversal,2022.1.2,60.03056757413398,1,
12,exp1.png,exp2.png,,1,0,1,0,0,12,12,12,,,,,,,,,,,,,,,,,,,,,,,,,False,31,32,False,exp1.png,exp2.png,trial_left_image,1,exp1.png,1,exp1.png,exp2.png,1,3,reversed,correct,0.9849530446763332,1,valid_win,231.97945009998512,19,,,,,,,,,,,,,,,,,,sub_089,2022-09-19_19h14.58.137,Reversal,2022.1.2,60.03056757413398,1,
13,exp3.png,exp4.png,,1,0,1,0,0,13,13,13,,,,,,,,,,,,,,,,,,,,,,,,,False,32,33,False,exp3.png,exp4.png,trial_right_image,-1,exp4.png,1,exp3.png,exp4.png,0,2,non-reversed,incorrect,0.1842620294000069,1,invalid_win,238.01262669998687,20,,,,,,,,,,,,,,,,,,sub_089,2022-09-19_19h14.58.137,Reversal,2022.1.2,60.03056757413398,1,
14,exp1.png,exp2.png,,1,0,1,0,0,14,14,14,,,,,,,,,,,,,,,,,,,,,,,,,False,33,34,True,exp2.png,exp1.png,trial_right_image,-1,exp1.png,1,exp1.png,exp2.png,1,3,reversed,correct,0.8210453414493653,1,valid_win,246.06291969993617,21,,,,,,,,,,,,,,,,,,sub_089,2022-09-19_19h14.58.137,Reversal,2022.1.2,60.03056757413398,1,
15,exp3.png,exp4.png,,1,0,1,0,0,15,15,15,,,,,,,,,,,,,,,,,,,,,,,,,False,34,35,False,exp3.png,exp4.png,trial_left_image,1,exp3.png,1,exp3.png,exp4.png,1,1,non-reversed,correct,0.9029962160596474,1,valid_win,251.3129793999251,22,,,,,,,,,,,,,,,,,,sub_089,2022-09-19_19h14.58.137,Reversal,2022.1.2,60.03056757413398,1,
16,exp1.png,exp2.png,,1,0,1,0,0,16,16,16,,,,,,,,,,,,,,,,,,,,,,,,,False,35,36,False,exp1.png,exp2.png,trial_right_image,-1,exp2.png,1,exp1.png,exp2.png,0,4,reversed,incorrect,0.19543568860556315,1,invalid_win,257.9294108999893,23,,,,,,,,,,,,,,,,,,sub_089,2022-09-19_19h14.58.137,Reversal,2022.1.2,60.03056757413398,1,
17,exp3.png,exp4.png,,1,0,1,0,0,17,17,17,,,,,,,,,,,,,,,,,,,,,,,,,False,36,37,True,exp4.png,exp3.png,trial_right_image,-1,exp3.png,1,exp3.png,exp4.png,1,1,non-reversed,correct,0.39645996369674186,1,valid_win,263.91213199996855,24,,,,,,,,,,,,,,,,,,sub_089,2022-09-19_19h14.58.137,Reversal,2022.1.2,60.03056757413398,1,
18,exp1.png,exp2.png,,1,0,1,0,0,18,18,18,,,,,,,,,,,,,,,,,,,,,,,,,False,37,38,False,exp1.png,exp2.png,trial_left_image,1,exp1.png,1,exp1.png,exp2.png,1,3,reversed,correct,0.850471203142553,1,valid_win,269.8126260000281,25,,,,,,,,,,,,,,,,,,sub_089,2022-09-19_19h14.58.137,Reversal,2022.1.2,60.03056757413398,1,
19,exp3.png,exp4.png,,1,0,1,0,0,19,19,19,,,,,,,,,,,,,,,,,,,,,,,,,False,38,39,False,exp3.png,exp4.png,trial_right_image,-1,exp4.png,1,exp3.png,exp4.png,0,2,non-reversed,incorrect,0.9317252365134113,0,valid_lose,275.37938449997455,25,,,,,,,,,,,,,,,,,,sub_089,2022-09-19_19h14.58.137,Reversal,2022.1.2,60.03056757413398,1,
20,exp1.png,exp2.png,,1,0,1,0,0,20,20,20,,,,,,,,,,,,,,,,,,,,,,,,,False,39,40,False,exp1.png,exp2.png,trial_left_image,1,exp1.png,1,exp1.png,exp2.png,1,3,reversed,correct,0.46986947954307234,1,valid_win,279.995643000002,26,,,,,,,,,,,,,,,,,,sub_089,2022-09-19_19h14.58.137,Reversal,2022.1.2,60.03056757413398,1,
,,,exp1.png,1,0,1,0,,,,,0,0,0,0,0,0,0,0,,,,,,,,,,,,,,,,,,,,,,,,,,,,,,,,,,,,,,65.0,65.0,5.198612099979073,"[(65.0, 5.198612099979073)]",386.1487032000441,None,,,,,,,,,,,,sub_089,2022-09-19_19h14.58.137,Reversal,2022.1.2,60.03056757413398,1,
,,,exp2.png,1,0,1,0,,,,,0,0,0,0,0,1,1,1,,,,,,,,,,,,,,,,,,,,,,,,,,,,,,,,,,,,,,,24.0,3.6179525000043213,"[(24.0, 3.6179525000043213)]",392.19404930004384,None,24.0,,,,,,,,,,,sub_089,2022-09-19_19h14.58.137,Reversal,2022.1.2,60.03056757413398,1,
,,,exp3.png,1,0,1,0,,,,,0,0,0,0,0,2,2,2,,,,,,,,,,,,,,,,,,,,,,,,,,,,,,,,,,,,,,,77.0,4.884016399970278,"[(63.0, 3.6522911000065506), (77.0, 4.884016399970278)]",396.9111311000306,None,,,77.0,,,,,,,,,sub_089,2022-09-19_19h14.58.137,Reversal,2022.1.2,60.03056757413398,1,
,,,exp4.png,1,0,1,0,,,,,0,0,0,0,0,3,3,3,,,,,,,,,,,,,,,,,,,,,,,,,,,,,,,,,,,,,,,37.0,3.5673454999923706,"[(37.0, 3.5673454999923706)]",402.7480432000011,None,,37.0,,,,,,,,,,sub_089,2022-09-19_19h14.58.137,Reversal,2022.1.2,60.03056757413398,1,
0,exp1.png,exp2.png,,2,0,2,0,0,0,0,0,,,,,,,,,,,,,,,,,,,,,,,,,True,,,,,,,,,,,,,,,,,,,,,,,,,,,,,,,,,,,,,,sub_089,2022-09-19_19h14.58.137,Reversal,2022.1.2,60.03056757413398,1,
1,exp3.png,exp4.png,,2,0,2,0,0,1,1,1,,,,,,,,,,,,,,,,,,,,,,,,,False,40,41,True,exp4.png,exp3.png,trial_right_image,-1,exp3.png,1,exp3.png,exp4.png,1,1,non-reversed,correct,0.7921120081056282,1,valid_win,307.8615572999697,27,,,,,,,,,,,,,,,,,,sub_089,2022-09-19_19h14.58.137,Reversal,2022.1.2,60.03056757413398,1,
2,exp1.png,exp2.png,,2,0,2,0,0,2,2,2,,,,,,,,,,,,,,,,,,,,,,,,,False,41,42,False,exp1.png,exp2.png,trial_left_image,1,exp1.png,1,exp1.png,exp2.png,1,3,reversed,correct,0.14026339505426455,0,invalid_lose,313.37853300001007,27,,,,,,,,,,,,,,,,,,sub_089,2022-09-19_19h14.58.137,Reversal,2022.1.2,60.03056757413398,1,
3,exp3.png,exp4.png,,2,0,2,0,0,3,3,3,,,,,,,,,,,,,,,,,,,,,,,,,False,42,43,True,exp4.png,exp3.png,trial_left_image,1,exp4.png,1,exp3.png,exp4.png,0,2,non-reversed,incorrect,0.4231662286575534,0,valid_lose,318.5444641999202,27,,,,,,,,,,,,,,,,,,sub_089,2022-09-19_19h14.58.137,Reversal,2022.1.2,60.03056757413398,1,
4,exp1.png,exp2.png,,2,0,2,0,0,4,4,4,,,,,,,,,,,,,,,,,,,,,,,,,False,43,44,True,exp2.png,exp1.png,trial_right_image,-1,exp1.png,1,exp1.png,exp2.png,1,3,reversed,correct,0.9833074994027773,1,valid_win,323.87793720001355,28,,,,,,,,,,,,,,,,,,sub_089,2022-09-19_19h14.58.137,Reversal,2022.1.2,60.03056757413398,1,
5,exp3.png,exp4.png,,2,0,2,0,0,5,5,5,,,,,,,,,,,,,,,,,,,,,,,,,False,44,45,True,exp4.png,exp3.png,trial_left_image,1,exp4.png,1,exp3.png,exp4.png,0,2,non-reversed,incorrect,0.9461992190324787,0,valid_lose,328.9611912999535,28,,,,,,,,,,,,,,,,,,sub_089,2022-09-19_19h14.58.137,Reversal,2022.1.2,60.03056757413398,1,
6,exp1.png,exp2.png,,2,0,2,0,0,6,6,6,,,,,,,,,,,,,,,,,,,,,,,,,False,45,46,True,exp2.png,exp1.png,trial_right_image,-1,exp1.png,1,exp1.png,exp2.png,1,3,reversed,correct,0.6058934875956855,1,valid_win,333.7441639000317,29,,,,,,,,,,,,,,,,,,sub_089,2022-09-19_19h14.58.137,Reversal,2022.1.2,60.03056757413398,1,
7,exp3.png,exp4.png,,2,0,2,0,0,7,7,7,,,,,,,,,,,,,,,,,,,,,,,,,False,46,47,False,exp3.png,exp4.png,trial_left_image,1,exp3.png,1,exp3.png,exp4.png,1,1,non-reversed,correct,0.8557338832645232,1,valid_win,339.29450570000336,30,,,,,,,,,,,,,,,,,,sub_089,2022-09-19_19h14.58.137,Reversal,2022.1.2,60.03056757413398,1,
8,exp1.png,exp2.png,,2,0,2,0,0,8,8,8,,,,,,,,,,,,,,,,,,,,,,,,,False,47,48,False,exp1.png,exp2.png,trial_left_image,1,exp1.png,1,exp1.png,exp2.png,1,3,reversed,correct,0.15366168887461018,0,invalid_lose,344.0272417999804,30,,,,,,,,,,,,,,,,,,sub_089,2022-09-19_19h14.58.137,Reversal,2022.1.2,60.03056757413398,1,
9,exp3.png,exp4.png,,2,0,2,0,0,9,9,9,,,,,,,,,,,,,,,,,,,,,,,,,False,48,49,True,exp4.png,exp3.png,trial_right_image,-1,exp3.png,1,exp3.png,exp4.png,1,1,non-reversed,correct,0.1566126035632488,0,invalid_lose,349.0940647999523,30,,,,,,,,,,,,,,,,,,sub_089,2022-09-19_19h14.58.137,Reversal,2022.1.2,60.03056757413398,1,
10,exp1.png,exp2.png,,2,0,2,0,0,10,10,10,,,,,,,,,,,,,,,,,,,,,,,,,False,49,50,True,exp2.png,exp1.png,trial_right_image,-1,exp1.png,1,exp1.png,exp2.png,1,3,reversed,correct,0.6513069556161615,1,valid_win,353.7609572999645,31,,,,,,,,,,,,,,,,,,sub_089,2022-09-19_19h14.58.137,Reversal,2022.1.2,60.03056757413398,1,
11,exp3.png,exp4.png,,2,0,2,0,0,11,11,11,,,,,,,,,,,,,,,,,,,,,,,,,False,50,51,True,exp4.png,exp3.png,trial_left_image,1,exp4.png,1,exp3.png,exp4.png,0,2,non-reversed,incorrect,0.7744677908855176,0,valid_lose,358.4110554999206,31,,,,,,,,,,,,,,,,,,sub_089,2022-09-19_19h14.58.137,Reversal,2022.1.2,60.03056757413398,1,
12,exp1.png,exp2.png,,2,0,2,0,0,12,12,12,,,,,,,,,,,,,,,,,,,,,,,,,False,51,52,False,exp1.png,exp2.png,trial_right_image,-1,exp2.png,1,exp1.png,exp2.png,0,4,reversed,incorrect,0.985149383993774,0,valid_lose,362.82766099995933,31,,,,,,,,,,,,,,,,,,sub_089,2022-09-19_19h14.58.137,Reversal,2022.1.2,60.03056757413398,1,
13,exp3.png,exp4.png,,2,0,2,0,0,13,13,13,,,,,,,,,,,,,,,,,,,,,,,,,False,52,53,True,exp4.png,exp3.png,trial_right_image,-1,exp3.png,1,exp3.png,exp4.png,1,1,non-reversed,correct,0.9118719360650044,1,valid_win,367.5936747000087,32,,,,,,,,,,,,,,,,,,sub_089,2022-09-19_19h14.58.137,Reversal,2022.1.2,60.03056757413398,1,
14,exp1.png,exp2.png,,2,0,2,0,0,14,14,14,,,,,,,,,,,,,,,,,,,,,,,,,False,53,54,False,exp1.png,exp2.png,trial_left_image,1,exp1.png,1,exp1.png,exp2.png,1,3,reversed,correct,0.5522955929958838,1,valid_win,372.4772601999575,33,,,,,,,,,,,,,,,,,,sub_089,2022-09-19_19h14.58.137,Reversal,2022.1.2,60.03056757413398,1,
15,exp3.png,exp4.png,,2,0,2,0,0,15,15,15,,,,,,,,,,,,,,,,,,,,,,,,,False,54,55,True,exp4.png,exp3.png,trial_right_image,-1,exp3.png,1,exp3.png,exp4.png,1,1,non-reversed,correct,0.7386898991551976,1,valid_win,376.45950019999873,34,,,,,,,,,,,,,,,,,,sub_089,2022-09-19_19h14.58.137,Reversal,2022.1.2,60.03056757413398,1,
16,exp1.png,exp2.png,,2,0,2,0,0,16,16,16,,,,,,,,,,,,,,,,,,,,,,,,,False,55,56,False,exp1.png,exp2.png,trial_left_image,1,exp1.png,1,exp1.png,exp2.png,1,3,reversed,correct,0.6272506024065523,1,valid_win,381.1098866999382,35,,,,,,,,,,,,,,,,,,sub_089,2022-09-19_19h14.58.137,Reversal,2022.1.2,60.03056757413398,1,
17,exp3.png,exp4.png,,2,0,2,0,0,17,17,17,,,,,,,,,,,,,,,,,,,,,,,,,False,56,57,False,exp3.png,exp4.png,trial_left_image,1,exp3.png,1,exp3.png,exp4.png,1,1,non-reversed,correct,0.6809357638005734,1,valid_win,385.6267757000169,36,,,,,,,,,,,,,,,,,,sub_089,2022-09-19_19h14.58.137,Reversal,2022.1.2,60.03056757413398,1,
18,exp1.png,exp2.png,,2,0,2,0,0,18,18,18,,,,,,,,,,,,,,,,,,,,,,,,,False,57,58,False,exp1.png,exp2.png,trial_left_image,1,exp1.png,1,exp1.png,exp2.png,1,3,reversed,correct,0.2586780948180617,1,valid_win,390.3431886000326,37,,,,,,,,,,,,,,,,,,sub_089,2022-09-19_19h14.58.137,Reversal,2022.1.2,60.03056757413398,1,
19,exp3.png,exp4.png,,2,0,2,0,0,19,19,19,,,,,,,,,,,,,,,,,,,,,,,,,False,58,59,False,exp3.png,exp4.png,trial_left_image,1,exp3.png,1,exp3.png,exp4.png,1,1,non-reversed,correct,0.7044018509544242,1,valid_win,395.0432549000252,38,,,,,,,,,,,,,,,,,,sub_089,2022-09-19_19h14.58.137,Reversal,2022.1.2,60.03056757413398,1,
20,exp1.png,exp2.png,,2,0,2,0,0,20,20,20,,,,,,,,,,,,,,,,,,,,,,,,,False,59,60,False,exp1.png,exp2.png,trial_left_image,1,exp1.png,1,exp1.png,exp2.png,1,3,reversed,correct,0.6863263777922867,1,valid_win,399.5764751000097,39,,,,,,,,,,,,,,,,,,sub_089,2022-09-19_19h14.58.137,Reversal,2022.1.2,60.03056757413398,1,
,,,exp1.png,2,0,2,0,,,,,0,0,0,0,0,0,0,0,,,,,,,,,,,,,,,,,,,,,,,,,,,,,,,,,,,,,,95.0,95.0,3.147880799951963,"[(95.0, 3.147880799951963)]",505.7174199000001,None,,,,,,,,,,,,sub_089,2022-09-19_19h14.58.137,Reversal,2022.1.2,60.03056757413398,1,
,,,exp2.png,2,0,2,0,,,,,0,0,0,0,0,1,1,1,,,,,,,,,,,,,,,,,,,,,,,,,,,,,,,,,,,,,,,10.0,2.1335053000366315,"[(10.0, 2.1335053000366315)]",511.2092573000118,None,10.0,,,,,,,,,,,sub_089,2022-09-19_19h14.58.137,Reversal,2022.1.2,60.03056757413398,1,
,,,exp3.png,2,0,2,0,,,,,0,0,0,0,0,2,2,2,,,,,,,,,,,,,,,,,,,,,,,,,,,,,,,,,,,,,,,85.0,2.400327399955131,"[(85.0, 2.400327399955131)]",514.8091118000448,None,,,85.0,,,,,,,,,sub_089,2022-09-19_19h14.58.137,Reversal,2022.1.2,60.03056757413398,1,
,,,exp4.png,2,0,2,0,,,,,0,0,0,0,0,3,3,3,,,,,,,,,,,,,,,,,,,,,,,,,,,,,,,,,,,,,,,30.0,1.9854209999321029,"[(30.0, 1.9854209999321029)]",518.3923898000503,None,,30.0,,,,,,,,,,sub_089,2022-09-19_19h14.58.137,Reversal,2022.1.2,60.03056757413398,1,
0,exp1.png,exp2.png,,,,,,,,,,,,,,,,,,0,0,0,0,0,0,0,0,,,,,,,,,True,,,,,,,,,,,,,,,,,,,,,,,,,,,,,,,,,,,,,,sub_089,2022-09-19_19h14.58.137,Reversal,2022.1.2,60.03056757413398,1,
1,exp3.png,exp4.png,,,,,,,,,,,,,,,,,,0,0,0,0,0,1,1,1,,,,,,,,,False,0,61,True,exp4.png,exp3.png,trial_right_image,-1,exp3.png,1,exp3.png,exp4.png,1,1,non-reversed,correct,0.5019631252740931,1,valid_win,420.3432110999711,40,,,,,,,,,,417.82612099999096,,,,,,,,sub_089,2022-09-19_19h14.58.137,Reversal,2022.1.2,60.03056757413398,1,
2,exp1.png,exp2.png,,,,,,,,,,,,,,,,,,0,0,0,0,0,2,2,2,,,,,,,,,False,1,62,True,exp2.png,exp1.png,trial_right_image,-1,exp1.png,1,exp2.png,exp1.png,1,3,reversed,incorrect,0.0212388103127662,1,invalid_win,424.80923549993895,41,,,,,,,,,,,,,,,,,,sub_089,2022-09-19_19h14.58.137,Reversal,2022.1.2,60.03056757413398,1,
3,exp3.png,exp4.png,,,,,,,,,,,,,,,,,,0,0,0,0,0,3,3,3,,,,,,,,,False,2,63,False,exp3.png,exp4.png,trial_left_image,1,exp3.png,1,exp3.png,exp4.png,1,1,non-reversed,correct,0.8864433727429301,1,valid_win,429.6092807999812,42,,,,,,,,,,,,,,,,,,sub_089,2022-09-19_19h14.58.137,Reversal,2022.1.2,60.03056757413398,1,
4,exp1.png,exp2.png,,,,,,,,,,,,,,,,,,0,0,0,0,0,4,4,4,,,,,,,,,False,3,64,False,exp1.png,exp2.png,trial_left_image,1,exp1.png,1,exp2.png,exp1.png,1,3,reversed,incorrect,0.9859121990266039,0,valid_lose,434.0092502000043,42,,,,,,,,,,,,,,,,,,sub_089,2022-09-19_19h14.58.137,Reversal,2022.1.2,60.03056757413398,1,
5,exp3.png,exp4.png,,,,,,,,,,,,,,,,,,0,0,0,0,0,5,5,5,,,,,,,,,False,4,65,False,exp3.png,exp4.png,trial_right_image,-1,exp4.png,1,exp3.png,exp4.png,0,2,non-reversed,incorrect,0.40046800303562013,0,valid_lose,438.29279829992447,42,,,,,,,,,,,,,,,,,,sub_089,2022-09-19_19h14.58.137,Reversal,2022.1.2,60.03056757413398,1,
6,exp1.png,exp2.png,,,,,,,,,,,,,,,,,,0,0,0,0,0,6,6,6,,,,,,,,,False,5,66,True,exp2.png,exp1.png,trial_right_image,-1,exp1.png,1,exp2.png,exp1.png,1,3,reversed,incorrect,0.5699258097206962,0,valid_lose,442.625666399952,42,,,,,,,,,,,,,,,,,,sub_089,2022-09-19_19h14.58.137,Reversal,2022.1.2,60.03056757413398,1,
7,exp3.png,exp4.png,,,,,,,,,,,,,,,,,,0,0,0,0,0,7,7,7,,,,,,,,,False,6,67,False,exp3.png,exp4.png,trial_right_image,-1,exp4.png,1,exp3.png,exp4.png,0,2,non-reversed,incorrect,0.5783662204085954,0,valid_lose,447.6588652000064,42,,,,,,,,,,,,,,,,,,sub_089,2022-09-19_19h14.58.137,Reversal,2022.1.2,60.03056757413398,1,
8,exp1.png,exp2.png,,,,,,,,,,,,,,,,,,0,0,0,0,0,8,8,8,,,,,,,,,False,7,68,True,exp2.png,exp1.png,trial_right_image,-1,exp1.png,1,exp2.png,exp1.png,1,3,reversed,incorrect,0.09261103060144649,1,invalid_win,452.19238299992867,43,,,,,,,,,,,,,,,,,,sub_089,2022-09-19_19h14.58.137,Reversal,2022.1.2,60.03056757413398,1,
9,exp3.png,exp4.png,,,,,,,,,,,,,,,,,,0,0,0,0,0,9,9,9,,,,,,,,,False,8,69,False,exp3.png,exp4.png,trial_left_image,1,exp3.png,1,exp3.png,exp4.png,1,1,non-reversed,correct,0.8512428005287217,1,valid_win,456.8757989000296,44,,,,,,,,,,,,,,,,,,sub_089,2022-09-19_19h14.58.137,Reversal,2022.1.2,60.03056757413398,1,
10,exp1.png,exp2.png,,,,,,,,,,,,,,,,,,0,0,0,0,0,10,10,10,,,,,,,,,False,9,70,True,exp2.png,exp1.png,trial_right_image,-1,exp1.png,1,exp2.png,exp1.png,1,3,reversed,incorrect,0.07218006538302668,1,invalid_win,461.1588868999388,45,,,,,,,,,,,,,,,,,,sub_089,2022-09-19_19h14.58.137,Reversal,2022.1.2,60.03056757413398,1,
11,exp3.png,exp4.png,,,,,,,,,,,,,,,,,,0,0,0,0,0,11,11,11,,,,,,,,,False,10,71,False,exp3.png,exp4.png,trial_left_image,1,exp3.png,1,exp3.png,exp4.png,1,1,non-reversed,correct,0.7681836609392727,1,valid_win,465.35936469992157,46,,,,,,,,,,,,,,,,,,sub_089,2022-09-19_19h14.58.137,Reversal,2022.1.2,60.03056757413398,1,
12,exp1.png,exp2.png,,,,,,,,,,,,,,,,,,0,0,0,0,0,12,12,12,,,,,,,,,False,11,72,False,exp1.png,exp2.png,trial_left_image,1,exp1.png,1,exp2.png,exp1.png,1,3,reversed,incorrect,0.7430045447306058,0,valid_lose,469.85850059997756,46,,,,,,,,,,,,,,,,,,sub_089,2022-09-19_19h14.58.137,Reversal,2022.1.2,60.03056757413398,1,
13,exp3.png,exp4.png,,,,,,,,,,,,,,,,,,0,0,0,0,0,13,13,13,,,,,,,,,False,12,73,True,exp4.png,exp3.png,trial_right_image,-1,exp3.png,1,exp3.png,exp4.png,1,1,non-reversed,correct,0.44507984950339485,1,valid_win,474.25895899999887,47,,,,,,,,,,,,,,,,,,sub_089,2022-09-19_19h14.58.137,Reversal,2022.1.2,60.03056757413398,1,
14,exp1.png,exp2.png,,,,,,,,,,,,,,,,,,0,0,0,0,0,14,14,14,,,,,,,,,False,13,74,True,exp2.png,exp1.png,trial_right_image,-1,exp1.png,1,exp2.png,exp1.png,1,3,reversed,incorrect,0.532121491450014,0,valid_lose,478.6257192000048,47,,,,,,,,,,,,,,,,,,sub_089,2022-09-19_19h14.58.137,Reversal,2022.1.2,60.03056757413398,1,
15,exp3.png,exp4.png,,,,,,,,,,,,,,,,,,0,0,0,0,0,15,15,15,,,,,,,,,False,14,75,True,exp4.png,exp3.png,trial_right_image,-1,exp3.png,1,exp3.png,exp4.png,1,1,non-reversed,correct,0.4966285455843754,1,valid_win,482.9764427000191,48,,,,,,,,,,,,,,,,,,sub_089,2022-09-19_19h14.58.137,Reversal,2022.1.2,60.03056757413398,1,
16,exp1.png,exp2.png,,,,,,,,,,,,,,,,,,0,0,0,0,0,16,16,16,,,,,,,,,False,15,76,False,exp1.png,exp2.png,trial_left_image,1,exp1.png,1,exp2.png,exp1.png,1,3,reversed,incorrect,0.41892468452809983,0,valid_lose,487.5588687999407,48,,,,,,,,,,,,,,,,,,sub_089,2022-09-19_19h14.58.137,Reversal,2022.1.2,60.03056757413398,1,
17,exp3.png,exp4.png,,,,,,,,,,,,,,,,,,0,0,0,0,0,17,17,17,,,,,,,,,False,16,77,False,exp3.png,exp4.png,trial_right_image,-1,exp4.png,1,exp3.png,exp4.png,0,2,non-reversed,incorrect,0.6304008666064175,0,valid_lose,492.2414616999449,48,,,,,,,,,,,,,,,,,,sub_089,2022-09-19_19h14.58.137,Reversal,2022.1.2,60.03056757413398,1,
18,exp1.png,exp2.png,,,,,,,,,,,,,,,,,,0,0,0,0,0,18,18,18,,,,,,,,,False,17,78,False,exp1.png,exp2.png,trial_left_image,1,exp1.png,1,exp2.png,exp1.png,1,3,reversed,incorrect,0.9585735458486468,0,valid_lose,496.85860949999187,48,,,,,,,,,,,,,,,,,,sub_089,2022-09-19_19h14.58.137,Reversal,2022.1.2,60.03056757413398,1,
19,exp3.png,exp4.png,,,,,,,,,,,,,,,,,,0,0,0,0,0,19,19,19,,,,,,,,,False,18,79,True,exp4.png,exp3.png,trial_right_image,-1,exp3.png,1,exp3.png,exp4.png,1,1,non-reversed,correct,0.7510483617068792,1,valid_win,501.3081761000212,49,,,,,,,,,,,,,,,,,,sub_089,2022-09-19_19h14.58.137,Reversal,2022.1.2,60.03056757413398,1,
20,exp1.png,exp2.png,,,,,,,,,,,,,,,,,,0,0,0,0,0,20,20,20,,,,,,,,,False,19,80,True,exp2.png,exp1.png,trial_right_image,-1,exp1.png,1,exp2.png,exp1.png,1,3,reversed,incorrect,0.3089911608079753,0,valid_lose,505.7248859999236,49,,,,,,,,,,,,,,,,,,sub_089,2022-09-19_19h14.58.137,Reversal,2022.1.2,60.03056757413398,1,
,,,exp1.png,,,,,,,,,,,,,,,,,0,0,0,0,,,,,0,0,0,0,0,0,0,0,,,,,,,,,,,,,,,,,,,,,,,50.0,None,[],611.8800235000672,None,,,,,,,,,,,,sub_089,2022-09-19_19h14.58.137,Reversal,2022.1.2,60.03056757413398,1,
,,,exp2.png,,,,,,,,,,,,,,,,,0,0,0,0,,,,,0,0,0,0,0,1,1,1,,,,,,,,,,,,,,,,,,,,,,,50.0,None,[],615.4902682000538,None,,,,,,,,,,,,sub_089,2022-09-19_19h14.58.137,Reversal,2022.1.2,60.03056757413398,1,
,,,exp3.png,,,,,,,,,,,,,,,,,0,0,0,0,,,,,0,0,0,0,0,2,2,2,,,,,,,,,,,,,,,,,,,,,,,50.0,None,[],616.8731375000207,None,,,,,,,,,,,,sub_089,2022-09-19_19h14.58.137,Reversal,2022.1.2,60.03056757413398,1,
,,,exp4.png,,,,,,,,,,,,,,,,,0,0,0,0,,,,,0,0,0,0,0,3,3,3,,,,,,,,,,,,,,,,,,,,,,,50.0,None,[],618.273691700073,None,,,,,,,,,,,,sub_089,2022-09-19_19h14.58.137,Reversal,2022.1.2,60.03056757413398,1,
0,exp1.png,exp2.png,,,,,,,,,,,,,,,,,,1,0,1,0,0,0,0,0,,,,,,,,,True,,,,,,,,,,,,,,,,,,,,,,,,,,,,,,,,,,,,,,sub_089,2022-09-19_19h14.58.137,Reversal,2022.1.2,60.03056757413398,1,
1,exp3.png,exp4.png,,,,,,,,,,,,,,,,,,1,0,1,0,0,1,1,1,,,,,,,,,False,20,81,True,exp4.png,exp3.png,trial_right_image,-1,exp3.png,1,exp3.png,exp4.png,1,1,non-reversed,correct,0.3451789049376125,1,valid_win,518.5580451999558,50,,,,,,,,,,,,,,,,,,sub_089,2022-09-19_19h14.58.137,Reversal,2022.1.2,60.03056757413398,1,
2,exp1.png,exp2.png,,,,,,,,,,,,,,,,,,1,0,1,0,0,2,2,2,,,,,,,,,False,21,82,True,exp2.png,exp1.png,trial_right_image,-1,exp1.png,1,exp2.png,exp1.png,1,3,reversed,incorrect,0.287537696708121,0,valid_lose,522.7244997000089,50,,,,,,,,,,,,,,,,,,sub_089,2022-09-19_19h14.58.137,Reversal,2022.1.2,60.03056757413398,1,
3,exp3.png,exp4.png,,,,,,,,,,,,,,,,,,1,0,1,0,0,3,3,3,,,,,,,,,False,22,83,False,exp3.png,exp4.png,trial_right_image,-1,exp4.png,1,exp3.png,exp4.png,0,2,non-reversed,incorrect,0.32042931591512414,0,valid_lose,527.2910841000266,50,,,,,,,,,,,,,,,,,,sub_089,2022-09-19_19h14.58.137,Reversal,2022.1.2,60.03056757413398,1,
4,exp1.png,exp2.png,,,,,,,,,,,,,,,,,,1,0,1,0,0,4,4,4,,,,,,,,,False,23,84,False,exp1.png,exp2.png,trial_left_image,1,exp1.png,1,exp2.png,exp1.png,1,3,reversed,incorrect,0.24120814309141203,1,invalid_win,531.7245814999333,51,,,,,,,,,,,,,,,,,,sub_089,2022-09-19_19h14.58.137,Reversal,2022.1.2,60.03056757413398,1,
5,exp3.png,exp4.png,,,,,,,,,,,,,,,,,,1,0,1,0,0,5,5,5,,,,,,,,,False,24,85,True,exp4.png,exp3.png,trial_right_image,-1,exp3.png,1,exp3.png,exp4.png,1,1,non-reversed,correct,0.4776484586919787,1,valid_win,536.5245315999491,52,,,,,,,,,,,,,,,,,,sub_089,2022-09-19_19h14.58.137,Reversal,2022.1.2,60.03056757413398,1,
6,exp1.png,exp2.png,,,,,,,,,,,,,,,,,,1,0,1,0,0,6,6,6,,,,,,,,,False,25,86,True,exp2.png,exp1.png,trial_right_image,-1,exp1.png,1,exp2.png,exp1.png,1,3,reversed,incorrect,0.9931987879767191,0,valid_lose,541.2239728999557,52,,,,,,,,,,,,,,,,,,sub_089,2022-09-19_19h14.58.137,Reversal,2022.1.2,60.03056757413398,1,
7,exp3.png,exp4.png,,,,,,,,,,,,,,,,,,1,0,1,0,0,7,7,7,,,,,,,,,False,26,87,False,exp3.png,exp4.png,trial_left_image,1,exp3.png,1,exp3.png,exp4.png,1,1,non-reversed,correct,0.04445126419209289,0,invalid_lose,545.7739673999604,52,,,,,,,,,,,,,,,,,,sub_089,2022-09-19_19h14.58.137,Reversal,2022.1.2,60.03056757413398,1,
8,exp1.png,exp2.png,,,,,,,,,,,,,,,,,,1,0,1,0,0,8,8,8,,,,,,,,,False,27,88,True,exp2.png,exp1.png,trial_right_image,-1,exp1.png,1,exp2.png,exp1.png,1,3,reversed,incorrect,0.9184235706516264,0,valid_lose,550.5578909999458,52,,,,,,,,,,,,,,,,,,sub_089,2022-09-19_19h14.58.137,Reversal,2022.1.2,60.03056757413398,1,
9,exp3.png,exp4.png,,,,,,,,,,,,,,,,,,1,0,1,0,0,9,9,9,,,,,,,,,False,28,89,True,exp4.png,exp3.png,trial_left_image,1,exp4.png,1,exp3.png,exp4.png,0,2,non-reversed,incorrect,0.44371648730136914,0,valid_lose,555.0567216000054,52,,,,,,,,,,,,,,,,,,sub_089,2022-09-19_19h14.58.137,Reversal,2022.1.2,60.03056757413398,1,
10,exp1.png,exp2.png,,,,,,,,,,,,,,,,,,1,0,1,0,0,10,10,10,,,,,,,,,False,29,90,True,exp2.png,exp1.png,trial_right_image,-1,exp1.png,1,exp2.png,exp1.png,1,3,reversed,incorrect,0.21164733984073136,1,invalid_win,559.4404173999792,53,,,,,,,,,,,,,,,,,,sub_089,2022-09-19_19h14.58.137,Reversal,2022.1.2,60.03056757413398,1,
11,exp3.png,exp4.png,,,,,,,,,,,,,,,,,,1,0,1,0,0,11,11,11,,,,,,,,,False,30,91,False,exp3.png,exp4.png,trial_left_image,1,exp3.png,1,exp3.png,exp4.png,1,1,non-reversed,correct,0.6142644388815193,1,valid_win,563.9069331999635,54,,,,,,,,,,,,,,,,,,sub_089,2022-09-19_19h14.58.137,Reversal,2022.1.2,60.03056757413398,1,
12,exp1.png,exp2.png,,,,,,,,,,,,,,,,,,1,0,1,0,0,12,12,12,,,,,,,,,False,31,92,False,exp1.png,exp2.png,trial_left_image,1,exp1.png,1,exp2.png,exp1.png,1,3,reversed,incorrect,0.14235669866202716,1,invalid_win,568.4906799999299,55,,,,,,,,,,,,,,,,,,sub_089,2022-09-19_19h14.58.137,Reversal,2022.1.2,60.03056757413398,1,
13,exp3.png,exp4.png,,,,,,,,,,,,,,,,,,1,0,1,0,0,13,13,13,,,,,,,,,False,32,93,False,exp3.png,exp4.png,trial_left_image,1,exp3.png,1,exp3.png,exp4.png,1,1,non-reversed,correct,0.760124421271958,1,valid_win,572.8905440999661,56,,,,,,,,,,,,,,,,,,sub_089,2022-09-19_19h14.58.137,Reversal,2022.1.2,60.03056757413398,1,
14,exp1.png,exp2.png,,,,,,,,,,,,,,,,,,1,0,1,0,0,14,14,14,,,,,,,,,False,33,94,False,exp1.png,exp2.png,trial_left_image,1,exp1.png,1,exp2.png,exp1.png,1,3,reversed,incorrect,0.24101116922205057,1,invalid_win,577.3733490000013,57,,,,,,,,,,,,,,,,,,sub_089,2022-09-19_19h14.58.137,Reversal,2022.1.2,60.03056757413398,1,
15,exp3.png,exp4.png,,,,,,,,,,,,,,,,,,1,0,1,0,0,15,15,15,,,,,,,,,False,34,95,False,exp3.png,exp4.png,trial_left_image,1,exp3.png,1,exp3.png,exp4.png,1,1,non-reversed,correct,0.04470182549624302,0,invalid_lose,581.5902670000214,57,,,,,,,,,,,,,,,,,,sub_089,2022-09-19_19h14.58.137,Reversal,2022.1.2,60.03056757413398,1,
16,exp1.png,exp2.png,,,,,,,,,,,,,,,,,,1,0,1,0,0,16,16,16,,,,,,,,,False,35,96,True,exp2.png,exp1.png,trial_left_image,1,exp2.png,1,exp2.png,exp1.png,0,4,reversed,correct,0.43883901708770046,1,valid_win,586.2901809000177,58,,,,,,,,,,,,,,,,,,sub_089,2022-09-19_19h14.58.137,Reversal,2022.1.2,60.03056757413398,1,
17,exp3.png,exp4.png,,,,,,,,,,,,,,,,,,1,0,1,0,0,17,17,17,,,,,,,,,False,36,97,True,exp4.png,exp3.png,trial_left_image,1,exp4.png,1,exp3.png,exp4.png,0,2,non-reversed,incorrect,0.9762275850612452,0,valid_lose,590.4233933999203,58,,,,,,,,,,,,,,,,,,sub_089,2022-09-19_19h14.58.137,Reversal,2022.1.2,60.03056757413398,1,
18,exp1.png,exp2.png,,,,,,,,,,,,,,,,,,1,0,1,0,0,18,18,18,,,,,,,,,False,37,98,True,exp2.png,exp1.png,trial_right_image,-1,exp1.png,1,exp2.png,exp1.png,1,3,reversed,incorrect,0.5791542830441964,0,valid_lose,594.8562683999771,58,,,,,,,,,,,,,,,,,,sub_089,2022-09-19_19h14.58.137,Reversal,2022.1.2,60.03056757413398,1,
19,exp3.png,exp4.png,,,,,,,,,,,,,,,,,,1,0,1,0,0,19,19,19,,,,,,,,,False,38,99,False,exp3.png,exp4.png,trial_left_image,1,exp3.png,1,exp3.png,exp4.png,1,1,non-reversed,correct,0.7490666244404296,1,valid_win,599.1399956999812,59,,,,,,,,,,,,,,,,,,sub_089,2022-09-19_19h14.58.137,Reversal,2022.1.2,60.03056757413398,1,
20,exp1.png,exp2.png,,,,,,,,,,,,,,,,,,1,0,1,0,0,20,20,20,,,,,,,,,False,39,100,False,exp1.png,exp2.png,trial_left_image,1,exp1.png,1,exp2.png,exp1.png,1,3,reversed,incorrect,0.30638694059752114,0,valid_lose,603.3894809000194,59,,,,,,,,,,,,,,,,,,sub_089,2022-09-19_19h14.58.137,Reversal,2022.1.2,60.03056757413398,1,
,,,exp1.png,,,,,,,,,,,,,,,,,1,0,1,0,,,,,0,0,0,0,0,0,0,0,,,,,,,,,,,,,,,,,,,,,,,50.0,None,[],709.5461461000377,None,,,,,,,,,,,,sub_089,2022-09-19_19h14.58.137,Reversal,2022.1.2,60.03056757413398,1,
,,,exp2.png,,,,,,,,,,,,,,,,,1,0,1,0,,,,,0,0,0,0,0,1,1,1,,,,,,,,,,,,,,,,,,,,,,,50.0,None,[],713.6902092000237,None,,,,,,,,,,,,sub_089,2022-09-19_19h14.58.137,Reversal,2022.1.2,60.03056757413398,1,
,,,exp3.png,,,,,,,,,,,,,,,,,1,0,1,0,,,,,0,0,0,0,0,2,2,2,,,,,,,,,,,,,,,,,,,,,,,50.0,None,[],714.7040197000606,None,,,,,,,,,,,,sub_089,2022-09-19_19h14.58.137,Reversal,2022.1.2,60.03056757413398,1,
,,,exp4.png,,,,,,,,,,,,,,,,,1,0,1,0,,,,,0,0,0,0,0,3,3,3,,,,,,,,,,,,,,,,,,,,,,,50.0,None,[],715.5732990000397,None,,,,,,,,,,,,sub_089,2022-09-19_19h14.58.137,Reversal,2022.1.2,60.03056757413398,1,
0,exp1.png,exp2.png,,,,,,,,,,,,,,,,,,2,0,2,0,0,0,0,0,,,,,,,,,True,,,,,,,,,,,,,,,,,,,,,,,,,,,,,,,,,,,,,,sub_089,2022-09-19_19h14.58.137,Reversal,2022.1.2,60.03056757413398,1,
1,exp3.png,exp4.png,,,,,,,,,,,,,,,,,,2,0,2,0,0,1,1,1,,,,,,,,,False,40,101,True,exp4.png,exp3.png,trial_right_image,-1,exp3.png,1,exp3.png,exp4.png,1,1,non-reversed,correct,0.2924288204252109,1,valid_win,615.2894194999244,60,,,,,,,,,,,,,,,,,,sub_089,2022-09-19_19h14.58.137,Reversal,2022.1.2,60.03056757413398,1,
2,exp1.png,exp2.png,,,,,,,,,,,,,,,,,,2,0,2,0,0,2,2,2,,,,,,,,,False,41,102,True,exp2.png,exp1.png,trial_right_image,-1,exp1.png,1,exp2.png,exp1.png,1,3,reversed,incorrect,0.08385049826940416,1,invalid_win,621.6559683999512,61,,,,,,,,,,,,,,,,,,sub_089,2022-09-19_19h14.58.137,Reversal,2022.1.2,60.03056757413398,1,
3,exp3.png,exp4.png,,,,,,,,,,,,,,,,,,2,0,2,0,0,3,3,3,,,,,,,,,False,42,103,False,exp3.png,exp4.png,trial_left_image,1,exp3.png,1,exp3.png,exp4.png,1,1,non-reversed,correct,0.49443244980718715,1,valid_win,626.1059500999982,62,,,,,,,,,,,,,,,,,,sub_089,2022-09-19_19h14.58.137,Reversal,2022.1.2,60.03056757413398,1,
4,exp1.png,exp2.png,,,,,,,,,,,,,,,,,,2,0,2,0,0,4,4,4,,,,,,,,,False,43,104,True,exp2.png,exp1.png,trial_right_image,-1,exp1.png,1,exp2.png,exp1.png,1,3,reversed,incorrect,0.13932306244196035,1,invalid_win,630.5061046000337,63,,,,,,,,,,,,,,,,,,sub_089,2022-09-19_19h14.58.137,Reversal,2022.1.2,60.03056757413398,1,
5,exp3.png,exp4.png,,,,,,,,,,,,,,,,,,2,0,2,0,0,5,5,5,,,,,,,,,False,44,105,False,exp3.png,exp4.png,trial_left_image,1,exp3.png,1,exp3.png,exp4.png,1,1,non-reversed,correct,0.9342069872306018,1,valid_win,635.0726043999894,64,,,,,,,,,,,,,,,,,,sub_089,2022-09-19_19h14.58.137,Reversal,2022.1.2,60.03056757413398,1,
6,exp1.png,exp2.png,,,,,,,,,,,,,,,,,,2,0,2,0,0,6,6,6,,,,,,,,,False,45,106,True,exp2.png,exp1.png,trial_right_image,-1,exp1.png,1,exp2.png,exp1.png,1,3,reversed,incorrect,0.1044446857377096,1,invalid_win,639.5723577999743,65,,,,,,,,,,,,,,,,,,sub_089,2022-09-19_19h14.58.137,Reversal,2022.1.2,60.03056757413398,1,
7,exp3.png,exp4.png,,,,,,,,,,,,,,,,,,2,0,2,0,0,7,7,7,,,,,,,,,False,46,107,True,exp4.png,exp3.png,trial_right_image,-1,exp3.png,1,exp3.png,exp4.png,1,1,non-reversed,correct,0.6550098208820022,1,valid_win,643.9721197999315,66,,,,,,,,,,,,,,,,,,sub_089,2022-09-19_19h14.58.137,Reversal,2022.1.2,60.03056757413398,1,
8,exp1.png,exp2.png,,,,,,,,,,,,,,,,,,2,0,2,0,0,8,8,8,,,,,,,,,False,47,108,True,exp2.png,exp1.png,trial_right_image,-1,exp1.png,1,exp2.png,exp1.png,1,3,reversed,incorrect,0.12163098860823884,1,invalid_win,648.3054415999213,67,,,,,,,,,,,,,,,,,,sub_089,2022-09-19_19h14.58.137,Reversal,2022.1.2,60.03056757413398,1,
9,exp3.png,exp4.png,,,,,,,,,,,,,,,,,,2,0,2,0,0,9,9,9,,,,,,,,,False,48,109,False,exp3.png,exp4.png,trial_left_image,1,exp3.png,1,exp3.png,exp4.png,1,1,non-reversed,correct,0.22452983260706227,0,invalid_lose,653.7218458999414,67,,,,,,,,,,,,,,,,,,sub_089,2022-09-19_19h14.58.137,Reversal,2022.1.2,60.03056757413398,1,
10,exp1.png,exp2.png,,,,,,,,,,,,,,,,,,2,0,2,0,0,10,10,10,,,,,,,,,False,49,110,True,exp2.png,exp1.png,trial_right_image,-1,exp1.png,1,exp2.png,exp1.png,1,3,reversed,incorrect,0.944949125091629,0,valid_lose,658.2051625000313,67,,,,,,,,,,,,,,,,,,sub_089,2022-09-19_19h14.58.137,Reversal,2022.1.2,60.03056757413398,1,
11,exp3.png,exp4.png,,,,,,,,,,,,,,,,,,2,0,2,0,0,11,11,11,,,,,,,,,False,50,111,True,exp4.png,exp3.png,trial_left_image,1,exp4.png,1,exp3.png,exp4.png,0,2,non-reversed,incorrect,0.18307755535365888,1,invalid_win,662.5220053999219,68,,,,,,,,,,,,,,,,,,sub_089,2022-09-19_19h14.58.137,Reversal,2022.1.2,60.03056757413398,1,
12,exp1.png,exp2.png,,,,,,,,,,,,,,,,,,2,0,2,0,0,12,12,12,,,,,,,,,False,51,112,False,exp1.png,exp2.png,trial_right_image,-1,exp2.png,1,exp2.png,exp1.png,0,4,reversed,correct,0.5066358244220105,1,valid_win,667.3890632999828,69,,,,,,,,,,,,,,,,,,sub_089,2022-09-19_19h14.58.137,Reversal,2022.1.2,60.03056757413398,1,
13,exp3.png,exp4.png,,,,,,,,,,,,,,,,,,2,0,2,0,0,13,13,13,,,,,,,,,False,52,113,True,exp4.png,exp3.png,trial_right_image,-1,exp3.png,1,exp3.png,exp4.png,1,1,non-reversed,correct,0.5874174375954823,1,valid_win,671.8557183999801,70,,,,,,,,,,,,,,,,,,sub_089,2022-09-19_19h14.58.137,Reversal,2022.1.2,60.03056757413398,1,
14,exp1.png,exp2.png,,,,,,,,,,,,,,,,,,2,0,2,0,0,14,14,14,,,,,,,,,False,53,114,False,exp1.png,exp2.png,trial_left_image,1,exp1.png,1,exp2.png,exp1.png,1,3,reversed,incorrect,0.9756413577310743,0,valid_lose,676.3886474999599,70,,,,,,,,,,,,,,,,,,sub_089,2022-09-19_19h14.58.137,Reversal,2022.1.2,60.03056757413398,1,
15,exp3.png,exp4.png,,,,,,,,,,,,,,,,,,2,0,2,0,0,15,15,15,,,,,,,,,False,54,115,False,exp3.png,exp4.png,trial_left_image,1,exp3.png,1,exp3.png,exp4.png,1,1,non-reversed,correct,0.2920812376343791,1,valid_win,681.3885121999774,71,,,,,,,,,,,,,,,,,,sub_089,2022-09-19_19h14.58.137,Reversal,2022.1.2,60.03056757413398,1,
16,exp1.png,exp2.png,,,,,,,,,,,,,,,,,,2,0,2,0,0,16,16,16,,,,,,,,,False,55,116,False,exp1.png,exp2.png,trial_left_image,1,exp1.png,1,exp2.png,exp1.png,1,3,reversed,incorrect,0.6797698505833805,0,valid_lose,685.7219010000117,71,,,,,,,,,,,,,,,,,,sub_089,2022-09-19_19h14.58.137,Reversal,2022.1.2,60.03056757413398,1,
17,exp3.png,exp4.png,,,,,,,,,,,,,,,,,,2,0,2,0,0,17,17,17,,,,,,,,,False,56,117,True,exp4.png,exp3.png,trial_right_image,-1,exp3.png,1,exp3.png,exp4.png,1,1,non-reversed,correct,0.07498159873037691,0,invalid_lose,690.07164739992,71,,,,,,,,,,,,,,,,,,sub_089,2022-09-19_19h14.58.137,Reversal,2022.1.2,60.03056757413398,1,
18,exp1.png,exp2.png,,,,,,,,,,,,,,,,,,2,0,2,0,0,18,18,18,,,,,,,,,False,57,118,False,exp1.png,exp2.png,trial_right_image,-1,exp2.png,1,exp2.png,exp1.png,0,4,reversed,correct,0.3455770572143463,1,valid_win,694.6717278999276,72,,,,,,,,,,,,,,,,,,sub_089,2022-09-19_19h14.58.137,Reversal,2022.1.2,60.03056757413398,1,
19,exp3.png,exp4.png,,,,,,,,,,,,,,,,,,2,0,2,0,0,19,19,19,,,,,,,,,False,58,119,False,exp3.png,exp4.png,trial_right_image,-1,exp4.png,1,exp3.png,exp4.png,0,2,non-reversed,incorrect,0.9327643676113615,0,valid_lose,700.0541034999769,72,,,,,,,,,,,,,,,,,,sub_089,2022-09-19_19h14.58.137,Reversal,2022.1.2,60.03056757413398,1,
20,exp1.png,exp2.png,,,,,,,,,,,,,,,,,,2,0,2,0,0,20,20,20,,,,,,,,,False,59,120,False,exp1.png,exp2.png,trial_left_image,1,exp1.png,1,exp2.png,exp1.png,1,3,reversed,incorrect,0.8906413638759796,0,valid_lose,704.7548125999747,72,,,,,,,,,,,,,,,,,,sub_089,2022-09-19_19h14.58.137,Reversal,2022.1.2,60.03056757413398,1,
,,,exp1.png,,,,,,,,,,,,,,,,,2,0,2,0,,,,,0,0,0,0,0,0,0,0,,,,,,,,,,,,,,,,,,,,,,94.0,94.0,5.097915899939835,"[(94.0, 5.097915899939835)]",810.8915111999959,None,,,,,,,,,,,,sub_089,2022-09-19_19h14.58.137,Reversal,2022.1.2,60.03056757413398,1,
,,,exp2.png,,,,,,,,,,,,,,,,,2,0,2,0,,,,,0,0,0,0,0,1,1,1,,,,,,,,,,,,,,,,,,,,,,,4.0,1.9006099000107497,"[(4.0, 1.9006099000107497)]",817.0375333999982,None,4.0,,,,,,,,,,,sub_089,2022-09-19_19h14.58.137,Reversal,2022.1.2,60.03056757413398,1,
,,,exp3.png,,,,,,,,,,,,,,,,,2,0,2,0,,,,,0,0,0,0,0,2,2,2,,,,,,,,,,,,,,,,,,,,,,,61.0,3.1357328000012785,"[(61.0, 3.1357328000012785)]",820.2860210000072,None,,,61.0,,,,,,,,,sub_089,2022-09-19_19h14.58.137,Reversal,2022.1.2,60.03056757413398,1,
,,,exp4.png,,,,,,,,,,,,,,,,,2,0,2,0,,,,,0,0,0,0,0,3,3,3,,,,,,,,,,,,,,,,,,,,,,,45.0,1.468586399918422,"[(45.0, 1.468586399918422)]",824.2191920999903,None,,45.0,,,,,,,,,,sub_089,2022-09-19_19h14.58.137,Reversal,2022.1.2,60.03056757413398,1,
,,,,,,,,,,,,,,,,,,,,,,,,,,,,,,,,,,,,,,,,,,,,,,,,,,,,,,,,72,,,,,,,,,,,66,41,25,305.07967699994333,0,space,66.88522209995426,sub_089,2022-09-19_19h14.58.137,Reversal,2022.1.2,60.03056757413398,1,
