trial_index,trial_image1_file,trial_image2_file,image_file,learning_outer_loop.thisRepN,learning_outer_loop.thisTrialN,learning_outer_loop.thisN,learning_outer_loop.thisIndex,learning_inner_loop.thisRepN,learning_inner_loop.thisTrialN,learning_inner_loop.thisN,learning_inner_loop.thisIndex,learning_estimation_outer_loop.thisRepN,learning_estimation_outer_loop.thisTrialN,learning_estimation_outer_loop.thisN,learning_estimation_outer_loop.thisIndex,learning_estimation_inner_loop.thisRepN,learning_estimation_inner_loop.thisTrialN,learning_estimation_inner_loop.thisN,learning_estimation_inner_loop.thisIndex,reversal_outer_loop.thisRepN,reversal_outer_loop.thisTrialN,reversal_outer_loop.thisN,reversal_outer_loop.thisIndex,reversal_inner_loop.thisRepN,reversal_inner_loop.thisTrialN,reversal_inner_loop.thisN,reversal_inner_loop.thisIndex,reversal_estimation_outer_loop.thisRepN,reversal_estimation_outer_loop.thisTrialN,reversal_estimation_outer_loop.thisN,reversal_estimation_outer_loop.thisIndex,reversal_estimation_inner_loop.thisRepN,reversal_estimation_inner_loop.thisTrialN,reversal_estimation_inner_loop.thisN,reversal_estimation_inner_loop.thisIndex,skipped,total_trial_counter,trial_num,left_right_flip,left_image_file,right_image_file,clicked_stimulus_side,side,clicked_stimulus,version,high_prob_image_file,low_prob_image_file,choice_a,choice_b,pair_type,correct,trial_feedback_random,reward,trial_type,overall_time_after_trial,score,estimation_rating.started,estimation_exp1.png,estimation_rating.response,estimation_rating.rt,estimation_rating.history,estimation_exp2.png,estimation_exp3.png,estimation_exp4.png,total_learning_time,total_correct,learning_correct,reversal_correct,total_reversal_time,extra_block,participant,date,expName,psychopyVersion,frameRate,ver,
0,exp1.png,exp2.png,,0,0,0,0,0,0,0,0,,,,,,,,,,,,,,,,,,,,,,,,,True,,,,,,,,,,,,,,,,,,,,,,,,,,,,,,,,,,,sub_795,2024-02-18_15h36.50.376,Reversal,2023.1.3,60.09485371703692,3,
1,exp3.png,exp4.png,,0,0,0,0,0,1,1,1,,,,,,,,,,,,,,,,,,,,,,,,,False,0,1,False,exp3.png,exp4.png,trial_right_image,-1,exp4.png,3,exp4.png,exp3.png,1,1,non-reversed,correct,0.7108770505129604,1,valid_win,8.843641499999649,1,,,,,,,,,,,,,,,sub_795,2024-02-18_15h36.50.376,Reversal,2023.1.3,60.09485371703692,3,
2,exp1.png,exp2.png,,0,0,0,0,0,2,2,2,,,,,,,,,,,,,,,,,,,,,,,,,False,1,2,False,exp1.png,exp2.png,trial_right_image,-1,exp2.png,3,exp2.png,exp1.png,1,3,reversed,correct,0.7570552305003728,1,valid_win,17.608919299998888,2,,,,,,,,,,,,,,,sub_795,2024-02-18_15h36.50.376,Reversal,2023.1.3,60.09485371703692,3,
3,exp3.png,exp4.png,,0,0,0,0,0,3,3,3,,,,,,,,,,,,,,,,,,,,,,,,,False,2,3,False,exp3.png,exp4.png,trial_right_image,-1,exp4.png,3,exp4.png,exp3.png,1,1,non-reversed,correct,0.9354308796710376,1,valid_win,23.24116789999971,3,,,,,,,,,,,,,,,sub_795,2024-02-18_15h36.50.376,Reversal,2023.1.3,60.09485371703692,3,
4,exp1.png,exp2.png,,0,0,0,0,0,4,4,4,,,,,,,,,,,,,,,,,,,,,,,,,False,3,4,True,exp2.png,exp1.png,trial_left_image,1,exp2.png,3,exp2.png,exp1.png,1,3,reversed,correct,0.6555025597169293,1,valid_win,28.20335519999935,4,,,,,,,,,,,,,,,sub_795,2024-02-18_15h36.50.376,Reversal,2023.1.3,60.09485371703692,3,
5,exp3.png,exp4.png,,0,0,0,0,0,5,5,5,,,,,,,,,,,,,,,,,,,,,,,,,False,4,5,False,exp3.png,exp4.png,trial_right_image,-1,exp4.png,3,exp4.png,exp3.png,1,1,non-reversed,correct,0.5419736202063873,1,valid_win,32.6685422999999,5,,,,,,,,,,,,,,,sub_795,2024-02-18_15h36.50.376,Reversal,2023.1.3,60.09485371703692,3,
6,exp1.png,exp2.png,,0,0,0,0,0,6,6,6,,,,,,,,,,,,,,,,,,,,,,,,,False,5,6,True,exp2.png,exp1.png,trial_left_image,1,exp2.png,3,exp2.png,exp1.png,1,3,reversed,correct,0.5541864706678976,1,valid_win,38.84989459999997,6,,,,,,,,,,,,,,,sub_795,2024-02-18_15h36.50.376,Reversal,2023.1.3,60.09485371703692,3,
7,exp3.png,exp4.png,,0,0,0,0,0,7,7,7,,,,,,,,,,,,,,,,,,,,,,,,,False,6,7,False,exp3.png,exp4.png,trial_right_image,-1,exp4.png,3,exp4.png,exp3.png,1,1,non-reversed,correct,0.7813940984459217,1,valid_win,43.14794149999943,7,,,,,,,,,,,,,,,sub_795,2024-02-18_15h36.50.376,Reversal,2023.1.3,60.09485371703692,3,
8,exp1.png,exp2.png,,0,0,0,0,0,8,8,8,,,,,,,,,,,,,,,,,,,,,,,,,False,7,8,True,exp2.png,exp1.png,trial_left_image,1,exp2.png,3,exp2.png,exp1.png,1,3,reversed,correct,0.6874299992328284,1,valid_win,47.61308269999972,8,,,,,,,,,,,,,,,sub_795,2024-02-18_15h36.50.376,Reversal,2023.1.3,60.09485371703692,3,
9,exp3.png,exp4.png,,0,0,0,0,0,9,9,9,,,,,,,,,,,,,,,,,,,,,,,,,False,8,9,False,exp3.png,exp4.png,trial_right_image,-1,exp4.png,3,exp4.png,exp3.png,1,1,non-reversed,correct,0.6722343959368583,1,valid_win,51.595219399998314,9,,,,,,,,,,,,,,,sub_795,2024-02-18_15h36.50.376,Reversal,2023.1.3,60.09485371703692,3,
10,exp1.png,exp2.png,,0,0,0,0,0,10,10,10,,,,,,,,,,,,,,,,,,,,,,,,,False,9,10,True,exp2.png,exp1.png,trial_left_image,1,exp2.png,3,exp2.png,exp1.png,1,3,reversed,correct,0.8170325370406364,1,valid_win,55.79407699999865,10,,,,,,,,,,,,,,,sub_795,2024-02-18_15h36.50.376,Reversal,2023.1.3,60.09485371703692,3,
11,exp3.png,exp4.png,,0,0,0,0,0,11,11,11,,,,,,,,,,,,,,,,,,,,,,,,,False,10,11,False,exp3.png,exp4.png,trial_right_image,-1,exp4.png,3,exp4.png,exp3.png,1,1,non-reversed,correct,0.3808771991702601,1,valid_win,60.8920124999986,11,,,,,,,,,,,,,,,sub_795,2024-02-18_15h36.50.376,Reversal,2023.1.3,60.09485371703692,3,
12,exp1.png,exp2.png,,0,0,0,0,0,12,12,12,,,,,,,,,,,,,,,,,,,,,,,,,False,11,12,True,exp2.png,exp1.png,trial_left_image,1,exp2.png,3,exp2.png,exp1.png,1,3,reversed,correct,0.5919058846832148,1,valid_win,65.0076670999988,12,,,,,,,,,,,,,,,sub_795,2024-02-18_15h36.50.376,Reversal,2023.1.3,60.09485371703692,3,
13,exp3.png,exp4.png,,0,0,0,0,0,13,13,13,,,,,,,,,,,,,,,,,,,,,,,,,False,12,13,True,exp4.png,exp3.png,trial_left_image,1,exp4.png,3,exp4.png,exp3.png,1,1,non-reversed,correct,0.03422682736908744,0,invalid_lose,69.1891259999993,12,,,,,,,,,,,,,,,sub_795,2024-02-18_15h36.50.376,Reversal,2023.1.3,60.09485371703692,3,
14,exp1.png,exp2.png,,0,0,0,0,0,14,14,14,,,,,,,,,,,,,,,,,,,,,,,,,False,13,14,True,exp2.png,exp1.png,trial_left_image,1,exp2.png,3,exp2.png,exp1.png,1,3,reversed,correct,0.12344440484225316,0,invalid_lose,75.42039599999953,12,,,,,,,,,,,,,,,sub_795,2024-02-18_15h36.50.376,Reversal,2023.1.3,60.09485371703692,3,
15,exp3.png,exp4.png,,0,0,0,0,0,15,15,15,,,,,,,,,,,,,,,,,,,,,,,,,False,14,15,True,exp4.png,exp3.png,trial_left_image,1,exp4.png,3,exp4.png,exp3.png,1,1,non-reversed,correct,0.25786172428406906,1,valid_win,79.51931859999968,13,,,,,,,,,,,,,,,sub_795,2024-02-18_15h36.50.376,Reversal,2023.1.3,60.09485371703692,3,
16,exp1.png,exp2.png,,0,0,0,0,0,16,16,16,,,,,,,,,,,,,,,,,,,,,,,,,False,15,16,False,exp1.png,exp2.png,trial_right_image,-1,exp2.png,3,exp2.png,exp1.png,1,3,reversed,correct,0.9306066981818152,1,valid_win,84.28387619999921,14,,,,,,,,,,,,,,,sub_795,2024-02-18_15h36.50.376,Reversal,2023.1.3,60.09485371703692,3,
17,exp3.png,exp4.png,,0,0,0,0,0,17,17,17,,,,,,,,,,,,,,,,,,,,,,,,,False,16,17,False,exp3.png,exp4.png,trial_right_image,-1,exp4.png,3,exp4.png,exp3.png,1,1,non-reversed,correct,0.444816956662624,1,valid_win,89.64897399999973,15,,,,,,,,,,,,,,,sub_795,2024-02-18_15h36.50.376,Reversal,2023.1.3,60.09485371703692,3,
18,exp1.png,exp2.png,,0,0,0,0,0,18,18,18,,,,,,,,,,,,,,,,,,,,,,,,,False,17,18,True,exp2.png,exp1.png,trial_left_image,1,exp2.png,3,exp2.png,exp1.png,1,3,reversed,correct,0.5397558205444488,1,valid_win,96.6643955999989,16,,,,,,,,,,,,,,,sub_795,2024-02-18_15h36.50.376,Reversal,2023.1.3,60.09485371703692,3,
19,exp3.png,exp4.png,,0,0,0,0,0,19,19,19,,,,,,,,,,,,,,,,,,,,,,,,,False,18,19,False,exp3.png,exp4.png,trial_right_image,-1,exp4.png,3,exp4.png,exp3.png,1,1,non-reversed,correct,0.48214566768548583,1,valid_win,100.72885289999977,17,,,,,,,,,,,,,,,sub_795,2024-02-18_15h36.50.376,Reversal,2023.1.3,60.09485371703692,3,
20,exp1.png,exp2.png,,0,0,0,0,0,20,20,20,,,,,,,,,,,,,,,,,,,,,,,,,False,19,20,True,exp2.png,exp1.png,trial_left_image,1,exp2.png,3,exp2.png,exp1.png,1,3,reversed,correct,0.07297621983645863,0,invalid_lose,104.86081469999954,17,,,,,,,,,,,,,,,sub_795,2024-02-18_15h36.50.376,Reversal,2023.1.3,60.09485371703692,3,
,,,exp1.png,0,0,0,0,,,,,0,0,0,0,0,0,0,0,,,,,,,,,,,,,,,,,,,,,,,,,,,,,,,,,,,,,,183.1829719999996,20.0,20.0,19.097573799999736,"[(20.0, 19.097573799999736)]",,,,,,,,,,sub_795,2024-02-18_15h36.50.376,Reversal,2023.1.3,60.09485371703692,3,
,,,exp2.png,0,0,0,0,,,,,0,0,0,0,0,1,1,1,,,,,,,,,,,,,,,,,,,,,,,,,,,,,,,,,,,,,,203.44476660000055,,84.0,4.075612299999193,"[(84.0, 4.075612299999193)]",84.0,,,,,,,,,sub_795,2024-02-18_15h36.50.376,Reversal,2023.1.3,60.09485371703692,3,
,,,exp3.png,0,0,0,0,,,,,0,0,0,0,0,2,2,2,,,,,,,,,,,,,,,,,,,,,,,,,,,,,,,,,,,,,,208.54063410000072,,1.0,8.259343100000478,"[(1.0, 8.259343100000478)]",,1.0,,,,,,,,sub_795,2024-02-18_15h36.50.376,Reversal,2023.1.3,60.09485371703692,3,
,,,exp4.png,0,0,0,0,,,,,0,0,0,0,0,3,3,3,,,,,,,,,,,,,,,,,,,,,,,,,,,,,,,,,,,,,,218.3547638000009,,85.0,4.392231600000741,"[(85.0, 4.392231600000741)]",,,85.0,,,,,,,sub_795,2024-02-18_15h36.50.376,Reversal,2023.1.3,60.09485371703692,3,
0,exp1.png,exp2.png,,1,0,1,0,0,0,0,0,,,,,,,,,,,,,,,,,,,,,,,,,True,,,,,,,,,,,,,,,,,,,,,,,,,,,,,,,,,,,sub_795,2024-02-18_15h36.50.376,Reversal,2023.1.3,60.09485371703692,3,
1,exp3.png,exp4.png,,1,0,1,0,0,1,1,1,,,,,,,,,,,,,,,,,,,,,,,,,False,20,21,False,exp3.png,exp4.png,trial_left_image,1,exp3.png,3,exp4.png,exp3.png,0,2,non-reversed,incorrect,0.5334858192913223,0,valid_lose,152.14440939999986,17,,,,,,,,,,,,,,,sub_795,2024-02-18_15h36.50.376,Reversal,2023.1.3,60.09485371703692,3,
2,exp1.png,exp2.png,,1,0,1,0,0,2,2,2,,,,,,,,,,,,,,,,,,,,,,,,,False,21,22,True,exp2.png,exp1.png,trial_left_image,1,exp2.png,3,exp2.png,exp1.png,1,3,reversed,correct,0.37606721170386503,1,valid_win,157.42671059999884,18,,,,,,,,,,,,,,,sub_795,2024-02-18_15h36.50.376,Reversal,2023.1.3,60.09485371703692,3,
3,exp3.png,exp4.png,,1,0,1,0,0,3,3,3,,,,,,,,,,,,,,,,,,,,,,,,,False,22,23,False,exp3.png,exp4.png,trial_right_image,-1,exp4.png,3,exp4.png,exp3.png,1,1,non-reversed,correct,0.22490661044953586,0,invalid_lose,162.62396649999937,18,,,,,,,,,,,,,,,sub_795,2024-02-18_15h36.50.376,Reversal,2023.1.3,60.09485371703692,3,
4,exp1.png,exp2.png,,1,0,1,0,0,4,4,4,,,,,,,,,,,,,,,,,,,,,,,,,False,23,24,True,exp2.png,exp1.png,trial_left_image,1,exp2.png,3,exp2.png,exp1.png,1,3,reversed,correct,0.5892710120297794,1,valid_win,168.70579980000002,19,,,,,,,,,,,,,,,sub_795,2024-02-18_15h36.50.376,Reversal,2023.1.3,60.09485371703692,3,
5,exp3.png,exp4.png,,1,0,1,0,0,5,5,5,,,,,,,,,,,,,,,,,,,,,,,,,False,24,25,True,exp4.png,exp3.png,trial_right_image,-1,exp3.png,3,exp4.png,exp3.png,0,2,non-reversed,incorrect,0.12374911627546947,1,invalid_win,173.7370108999985,20,,,,,,,,,,,,,,,sub_795,2024-02-18_15h36.50.376,Reversal,2023.1.3,60.09485371703692,3,
6,exp1.png,exp2.png,,1,0,1,0,0,6,6,6,,,,,,,,,,,,,,,,,,,,,,,,,False,25,26,True,exp2.png,exp1.png,trial_left_image,1,exp2.png,3,exp2.png,exp1.png,1,3,reversed,correct,0.945811965028239,1,valid_win,178.46867849999944,21,,,,,,,,,,,,,,,sub_795,2024-02-18_15h36.50.376,Reversal,2023.1.3,60.09485371703692,3,
7,exp3.png,exp4.png,,1,0,1,0,0,7,7,7,,,,,,,,,,,,,,,,,,,,,,,,,False,26,27,True,exp4.png,exp3.png,trial_right_image,-1,exp3.png,3,exp4.png,exp3.png,0,2,non-reversed,incorrect,0.45172120643106173,0,valid_lose,183.25077769999916,21,,,,,,,,,,,,,,,sub_795,2024-02-18_15h36.50.376,Reversal,2023.1.3,60.09485371703692,3,
8,exp1.png,exp2.png,,1,0,1,0,0,8,8,8,,,,,,,,,,,,,,,,,,,,,,,,,False,27,28,True,exp2.png,exp1.png,trial_left_image,1,exp2.png,3,exp2.png,exp1.png,1,3,reversed,correct,0.4859573519021111,1,valid_win,189.36536909999995,22,,,,,,,,,,,,,,,sub_795,2024-02-18_15h36.50.376,Reversal,2023.1.3,60.09485371703692,3,
9,exp3.png,exp4.png,,1,0,1,0,0,9,9,9,,,,,,,,,,,,,,,,,,,,,,,,,False,28,29,False,exp3.png,exp4.png,trial_left_image,1,exp3.png,3,exp4.png,exp3.png,0,2,non-reversed,incorrect,0.1759146786262964,1,invalid_win,196.7125445999991,23,,,,,,,,,,,,,,,sub_795,2024-02-18_15h36.50.376,Reversal,2023.1.3,60.09485371703692,3,
10,exp1.png,exp2.png,,1,0,1,0,0,10,10,10,,,,,,,,,,,,,,,,,,,,,,,,,False,29,30,True,exp2.png,exp1.png,trial_left_image,1,exp2.png,3,exp2.png,exp1.png,1,3,reversed,correct,0.8946291582111638,1,valid_win,201.9942745999997,24,,,,,,,,,,,,,,,sub_795,2024-02-18_15h36.50.376,Reversal,2023.1.3,60.09485371703692,3,
11,exp3.png,exp4.png,,1,0,1,0,0,11,11,11,,,,,,,,,,,,,,,,,,,,,,,,,False,30,31,False,exp3.png,exp4.png,trial_left_image,1,exp3.png,3,exp4.png,exp3.png,0,2,non-reversed,incorrect,0.5031181004142127,0,valid_lose,207.6921915999992,24,,,,,,,,,,,,,,,sub_795,2024-02-18_15h36.50.376,Reversal,2023.1.3,60.09485371703692,3,
12,exp1.png,exp2.png,,1,0,1,0,0,12,12,12,,,,,,,,,,,,,,,,,,,,,,,,,False,31,32,False,exp1.png,exp2.png,trial_right_image,-1,exp2.png,3,exp2.png,exp1.png,1,3,reversed,correct,0.7103404325596132,1,valid_win,212.54167059999963,25,,,,,,,,,,,,,,,sub_795,2024-02-18_15h36.50.376,Reversal,2023.1.3,60.09485371703692,3,
13,exp3.png,exp4.png,,1,0,1,0,0,13,13,13,,,,,,,,,,,,,,,,,,,,,,,,,False,32,33,False,exp3.png,exp4.png,trial_right_image,-1,exp4.png,3,exp4.png,exp3.png,1,1,non-reversed,correct,0.605025000535598,1,valid_win,216.68904029999976,26,,,,,,,,,,,,,,,sub_795,2024-02-18_15h36.50.376,Reversal,2023.1.3,60.09485371703692,3,
14,exp1.png,exp2.png,,1,0,1,0,0,14,14,14,,,,,,,,,,,,,,,,,,,,,,,,,False,33,34,False,exp1.png,exp2.png,trial_right_image,-1,exp2.png,3,exp2.png,exp1.png,1,3,reversed,correct,0.8432052485128695,1,valid_win,221.20417859999907,27,,,,,,,,,,,,,,,sub_795,2024-02-18_15h36.50.376,Reversal,2023.1.3,60.09485371703692,3,
15,exp3.png,exp4.png,,1,0,1,0,0,15,15,15,,,,,,,,,,,,,,,,,,,,,,,,,False,34,35,True,exp4.png,exp3.png,trial_right_image,-1,exp3.png,3,exp4.png,exp3.png,0,2,non-reversed,incorrect,0.3090142265326359,0,valid_lose,227.7523586999996,27,,,,,,,,,,,,,,,sub_795,2024-02-18_15h36.50.376,Reversal,2023.1.3,60.09485371703692,3,
16,exp1.png,exp2.png,,1,0,1,0,0,16,16,16,,,,,,,,,,,,,,,,,,,,,,,,,False,35,36,False,exp1.png,exp2.png,trial_right_image,-1,exp2.png,3,exp2.png,exp1.png,1,3,reversed,correct,0.12065398950922668,0,invalid_lose,235.1494262999986,27,,,,,,,,,,,,,,,sub_795,2024-02-18_15h36.50.376,Reversal,2023.1.3,60.09485371703692,3,
17,exp3.png,exp4.png,,1,0,1,0,0,17,17,17,,,,,,,,,,,,,,,,,,,,,,,,,False,36,37,False,exp3.png,exp4.png,trial_right_image,-1,exp4.png,3,exp4.png,exp3.png,1,1,non-reversed,correct,0.6471145923958468,1,valid_win,240.63087949999863,28,,,,,,,,,,,,,,,sub_795,2024-02-18_15h36.50.376,Reversal,2023.1.3,60.09485371703692,3,
18,exp1.png,exp2.png,,1,0,1,0,0,18,18,18,,,,,,,,,,,,,,,,,,,,,,,,,False,37,38,False,exp1.png,exp2.png,trial_left_image,1,exp1.png,3,exp2.png,exp1.png,0,4,reversed,incorrect,0.3173971706997677,0,valid_lose,246.0635104999983,28,,,,,,,,,,,,,,,sub_795,2024-02-18_15h36.50.376,Reversal,2023.1.3,60.09485371703692,3,
19,exp3.png,exp4.png,,1,0,1,0,0,19,19,19,,,,,,,,,,,,,,,,,,,,,,,,,False,38,39,True,exp4.png,exp3.png,trial_right_image,-1,exp3.png,3,exp4.png,exp3.png,0,2,non-reversed,incorrect,0.2993052580981428,0,valid_lose,252.4936775999995,28,,,,,,,,,,,,,,,sub_795,2024-02-18_15h36.50.376,Reversal,2023.1.3,60.09485371703692,3,
20,exp1.png,exp2.png,,1,0,1,0,0,20,20,20,,,,,,,,,,,,,,,,,,,,,,,,,False,39,40,True,exp2.png,exp1.png,trial_left_image,1,exp2.png,3,exp2.png,exp1.png,1,3,reversed,correct,0.018237608968655672,0,invalid_lose,257.54229159999886,28,,,,,,,,,,,,,,,sub_795,2024-02-18_15h36.50.376,Reversal,2023.1.3,60.09485371703692,3,
,,,exp1.png,1,0,1,0,,,,,0,0,0,0,0,0,0,0,,,,,,,,,,,,,,,,,,,,,,,,,,,,,,,,,,,,,,335.88588900000013,,None,None,[],,,,,,,,,,sub_795,2024-02-18_15h36.50.376,Reversal,2023.1.3,60.09485371703692,3,
,,,exp2.png,1,0,1,0,,,,,0,0,0,0,0,1,1,1,,,,,,,,,,,,,,,,,,,,,,,,,,,,,,,,,,,,,,339.3611551999993,,None,None,[],,,,,,,,,,sub_795,2024-02-18_15h36.50.376,Reversal,2023.1.3,60.09485371703692,3,
,,,exp3.png,1,0,1,0,,,,,0,0,0,0,0,2,2,2,,,,,,,,,,,,,,,,,,,,,,,,,,,,,,,,,,,,,,341.2447775999999,,None,None,[],,,,,,,,,,sub_795,2024-02-18_15h36.50.376,Reversal,2023.1.3,60.09485371703692,3,
,,,exp4.png,1,0,1,0,,,,,0,0,0,0,0,3,3,3,,,,,,,,,,,,,,,,,,,,,,,,,,,,,,,,,,,,,,342.31223489999957,,None,None,[],,,,,,,,,,sub_795,2024-02-18_15h36.50.376,Reversal,2023.1.3,60.09485371703692,3,
0,exp1.png,exp2.png,,2,0,2,0,0,0,0,0,,,,,,,,,,,,,,,,,,,,,,,,,True,,,,,,,,,,,,,,,,,,,,,,,,,,,,,,,,,,,sub_795,2024-02-18_15h36.50.376,Reversal,2023.1.3,60.09485371703692,3,
1,exp3.png,exp4.png,,2,0,2,0,0,1,1,1,,,,,,,,,,,,,,,,,,,,,,,,,False,40,41,False,exp3.png,exp4.png,trial_right_image,-1,exp4.png,3,exp4.png,exp3.png,1,1,non-reversed,correct,0.13873411636439648,0,invalid_lose,273.3031265999998,28,,,,,,,,,,,,,,,sub_795,2024-02-18_15h36.50.376,Reversal,2023.1.3,60.09485371703692,3,
2,exp1.png,exp2.png,,2,0,2,0,0,2,2,2,,,,,,,,,,,,,,,,,,,,,,,,,False,41,42,False,exp1.png,exp2.png,trial_right_image,-1,exp2.png,3,exp2.png,exp1.png,1,3,reversed,correct,0.0010506456279832932,0,invalid_lose,277.71854539999913,28,,,,,,,,,,,,,,,sub_795,2024-02-18_15h36.50.376,Reversal,2023.1.3,60.09485371703692,3,
3,exp3.png,exp4.png,,2,0,2,0,0,3,3,3,,,,,,,,,,,,,,,,,,,,,,,,,False,42,43,False,exp3.png,exp4.png,trial_left_image,1,exp3.png,3,exp4.png,exp3.png,0,2,non-reversed,incorrect,0.7332104513279143,0,valid_lose,282.6024024999988,28,,,,,,,,,,,,,,,sub_795,2024-02-18_15h36.50.376,Reversal,2023.1.3,60.09485371703692,3,
4,exp1.png,exp2.png,,2,0,2,0,0,4,4,4,,,,,,,,,,,,,,,,,,,,,,,,,False,43,44,True,exp2.png,exp1.png,trial_left_image,1,exp2.png,3,exp2.png,exp1.png,1,3,reversed,correct,0.03696608987376804,0,invalid_lose,286.3656577999991,28,,,,,,,,,,,,,,,sub_795,2024-02-18_15h36.50.376,Reversal,2023.1.3,60.09485371703692,3,
5,exp3.png,exp4.png,,2,0,2,0,0,5,5,5,,,,,,,,,,,,,,,,,,,,,,,,,False,44,45,True,exp4.png,exp3.png,trial_left_image,1,exp4.png,3,exp4.png,exp3.png,1,1,non-reversed,correct,0.8064456096145051,1,valid_win,290.1309507999995,29,,,,,,,,,,,,,,,sub_795,2024-02-18_15h36.50.376,Reversal,2023.1.3,60.09485371703692,3,
6,exp1.png,exp2.png,,2,0,2,0,0,6,6,6,,,,,,,,,,,,,,,,,,,,,,,,,False,45,46,True,exp2.png,exp1.png,trial_left_image,1,exp2.png,3,exp2.png,exp1.png,1,3,reversed,correct,0.340653039047081,1,valid_win,294.729379299999,30,,,,,,,,,,,,,,,sub_795,2024-02-18_15h36.50.376,Reversal,2023.1.3,60.09485371703692,3,
7,exp3.png,exp4.png,,2,0,2,0,0,7,7,7,,,,,,,,,,,,,,,,,,,,,,,,,False,46,47,False,exp3.png,exp4.png,trial_right_image,-1,exp4.png,3,exp4.png,exp3.png,1,1,non-reversed,correct,0.558956913396904,1,valid_win,299.3465615999994,31,,,,,,,,,,,,,,,sub_795,2024-02-18_15h36.50.376,Reversal,2023.1.3,60.09485371703692,3,
8,exp1.png,exp2.png,,2,0,2,0,0,8,8,8,,,,,,,,,,,,,,,,,,,,,,,,,False,47,48,False,exp1.png,exp2.png,trial_right_image,-1,exp2.png,3,exp2.png,exp1.png,1,3,reversed,correct,0.992820345497326,1,valid_win,303.2597397999998,32,,,,,,,,,,,,,,,sub_795,2024-02-18_15h36.50.376,Reversal,2023.1.3,60.09485371703692,3,
9,exp3.png,exp4.png,,2,0,2,0,0,9,9,9,,,,,,,,,,,,,,,,,,,,,,,,,False,48,49,True,exp4.png,exp3.png,trial_right_image,-1,exp3.png,3,exp4.png,exp3.png,0,2,non-reversed,incorrect,0.0013076368303154284,1,invalid_win,308.10821849999957,33,,,,,,,,,,,,,,,sub_795,2024-02-18_15h36.50.376,Reversal,2023.1.3,60.09485371703692,3,
10,exp1.png,exp2.png,,2,0,2,0,0,10,10,10,,,,,,,,,,,,,,,,,,,,,,,,,False,49,50,False,exp1.png,exp2.png,trial_left_image,1,exp1.png,3,exp2.png,exp1.png,0,4,reversed,incorrect,0.7620967409765965,0,valid_lose,313.92342649999955,33,,,,,,,,,,,,,,,sub_795,2024-02-18_15h36.50.376,Reversal,2023.1.3,60.09485371703692,3,
11,exp3.png,exp4.png,,2,0,2,0,0,11,11,11,,,,,,,,,,,,,,,,,,,,,,,,,False,50,51,True,exp4.png,exp3.png,trial_right_image,-1,exp3.png,3,exp4.png,exp3.png,0,2,non-reversed,incorrect,0.4165357296339972,0,valid_lose,320.18756009999925,33,,,,,,,,,,,,,,,sub_795,2024-02-18_15h36.50.376,Reversal,2023.1.3,60.09485371703692,3,
12,exp1.png,exp2.png,,2,0,2,0,0,12,12,12,,,,,,,,,,,,,,,,,,,,,,,,,False,51,52,True,exp2.png,exp1.png,trial_left_image,1,exp2.png,3,exp2.png,exp1.png,1,3,reversed,correct,0.8408437168433334,1,valid_win,324.8699551999998,34,,,,,,,,,,,,,,,sub_795,2024-02-18_15h36.50.376,Reversal,2023.1.3,60.09485371703692,3,
13,exp3.png,exp4.png,,2,0,2,0,0,13,13,13,,,,,,,,,,,,,,,,,,,,,,,,,False,52,53,True,exp4.png,exp3.png,trial_right_image,-1,exp3.png,3,exp4.png,exp3.png,0,2,non-reversed,incorrect,0.3166538196708496,0,valid_lose,329.9518135999988,34,,,,,,,,,,,,,,,sub_795,2024-02-18_15h36.50.376,Reversal,2023.1.3,60.09485371703692,3,
14,exp1.png,exp2.png,,2,0,2,0,0,14,14,14,,,,,,,,,,,,,,,,,,,,,,,,,False,53,54,False,exp1.png,exp2.png,trial_right_image,-1,exp2.png,3,exp2.png,exp1.png,1,3,reversed,correct,0.5503264376244872,1,valid_win,335.2992308999983,35,,,,,,,,,,,,,,,sub_795,2024-02-18_15h36.50.376,Reversal,2023.1.3,60.09485371703692,3,
15,exp3.png,exp4.png,,2,0,2,0,0,15,15,15,,,,,,,,,,,,,,,,,,,,,,,,,False,54,55,True,exp4.png,exp3.png,trial_left_image,1,exp4.png,3,exp4.png,exp3.png,1,1,non-reversed,correct,0.06575981096353878,0,invalid_lose,340.380701099999,35,,,,,,,,,,,,,,,sub_795,2024-02-18_15h36.50.376,Reversal,2023.1.3,60.09485371703692,3,
16,exp1.png,exp2.png,,2,0,2,0,0,16,16,16,,,,,,,,,,,,,,,,,,,,,,,,,False,55,56,True,exp2.png,exp1.png,trial_left_image,1,exp2.png,3,exp2.png,exp1.png,1,3,reversed,correct,0.9700307925042261,1,valid_win,348.3453273999985,36,,,,,,,,,,,,,,,sub_795,2024-02-18_15h36.50.376,Reversal,2023.1.3,60.09485371703692,3,
17,exp3.png,exp4.png,,2,0,2,0,0,17,17,17,,,,,,,,,,,,,,,,,,,,,,,,,False,56,57,True,exp4.png,exp3.png,trial_right_image,-1,exp3.png,3,exp4.png,exp3.png,0,2,non-reversed,incorrect,0.848410100446358,0,valid_lose,353.3095240999992,36,,,,,,,,,,,,,,,sub_795,2024-02-18_15h36.50.376,Reversal,2023.1.3,60.09485371703692,3,
18,exp1.png,exp2.png,,2,0,2,0,0,18,18,18,,,,,,,,,,,,,,,,,,,,,,,,,False,57,58,False,exp1.png,exp2.png,trial_right_image,-1,exp2.png,3,exp2.png,exp1.png,1,3,reversed,correct,0.7372848738092929,1,valid_win,358.9908540999986,37,,,,,,,,,,,,,,,sub_795,2024-02-18_15h36.50.376,Reversal,2023.1.3,60.09485371703692,3,
19,exp3.png,exp4.png,,2,0,2,0,0,19,19,19,,,,,,,,,,,,,,,,,,,,,,,,,False,58,59,False,exp3.png,exp4.png,trial_left_image,1,exp3.png,3,exp4.png,exp3.png,0,2,non-reversed,incorrect,0.7484623038003053,0,valid_lose,364.5226245999984,37,,,,,,,,,,,,,,,sub_795,2024-02-18_15h36.50.376,Reversal,2023.1.3,60.09485371703692,3,
20,exp1.png,exp2.png,,2,0,2,0,0,20,20,20,,,,,,,,,,,,,,,,,,,,,,,,,False,59,60,False,exp1.png,exp2.png,trial_right_image,-1,exp2.png,3,exp2.png,exp1.png,1,3,reversed,correct,0.15301715708117325,0,invalid_lose,369.7708098999992,37,,,,,,,,,,,,,,,sub_795,2024-02-18_15h36.50.376,Reversal,2023.1.3,60.09485371703692,3,
,,,exp1.png,2,0,2,0,,,,,0,0,0,0,0,0,0,0,,,,,,,,,,,,,,,,,,,,,,,,,,,,,,,,,,,,,,448.0944081000007,,None,None,[],,,,,,,,,,sub_795,2024-02-18_15h36.50.376,Reversal,2023.1.3,60.09485371703692,3,
,,,exp2.png,2,0,2,0,,,,,0,0,0,0,0,1,1,1,,,,,,,,,,,,,,,,,,,,,,,,,,,,,,,,,,,,,,450.4251878999994,,None,None,[],,,,,,,,,,sub_795,2024-02-18_15h36.50.376,Reversal,2023.1.3,60.09485371703692,3,
,,,exp3.png,2,0,2,0,,,,,0,0,0,0,0,2,2,2,,,,,,,,,,,,,,,,,,,,,,,,,,,,,,,,,,,,,,451.36240110000017,,None,None,[],,,,,,,,,,sub_795,2024-02-18_15h36.50.376,Reversal,2023.1.3,60.09485371703692,3,
,,,exp4.png,2,0,2,0,,,,,0,0,0,0,0,3,3,3,,,,,,,,,,,,,,,,,,,,,,,,,,,,,,,,,,,,,,452.2231459000004,,None,None,[],,,,,,,,,,sub_795,2024-02-18_15h36.50.376,Reversal,2023.1.3,60.09485371703692,3,
0,exp1.png,exp2.png,,3,0,3,0,0,0,0,0,,,,,,,,,,,,,,,,,,,,,,,,,True,,,,,,,,,,,,,,,,,,,,,,,,,,,,,,,,,,,sub_795,2024-02-18_15h36.50.376,Reversal,2023.1.3,60.09485371703692,3,
1,exp3.png,exp4.png,,3,0,3,0,0,1,1,1,,,,,,,,,,,,,,,,,,,,,,,,,False,60,61,False,exp3.png,exp4.png,trial_left_image,1,exp3.png,3,exp4.png,exp3.png,0,2,non-reversed,incorrect,0.27978361270598406,0,valid_lose,380.00078739999844,37,,,,,,,,,,,,,,,sub_795,2024-02-18_15h36.50.376,Reversal,2023.1.3,60.09485371703692,3,
2,exp1.png,exp2.png,,3,0,3,0,0,2,2,2,,,,,,,,,,,,,,,,,,,,,,,,,False,61,62,False,exp1.png,exp2.png,trial_right_image,-1,exp2.png,3,exp2.png,exp1.png,1,3,reversed,correct,0.8138821945769824,1,valid_win,386.131772499999,38,,,,,,,,,,,,,,,sub_795,2024-02-18_15h36.50.376,Reversal,2023.1.3,60.09485371703692,3,
3,exp3.png,exp4.png,,3,0,3,0,0,3,3,3,,,,,,,,,,,,,,,,,,,,,,,,,False,62,63,True,exp4.png,exp3.png,trial_left_image,1,exp4.png,3,exp4.png,exp3.png,1,1,non-reversed,correct,0.10486535850597145,0,invalid_lose,393.8458163999985,38,,,,,,,,,,,,,,,sub_795,2024-02-18_15h36.50.376,Reversal,2023.1.3,60.09485371703692,3,
4,exp1.png,exp2.png,,3,0,3,0,0,4,4,4,,,,,,,,,,,,,,,,,,,,,,,,,False,63,64,False,exp1.png,exp2.png,trial_right_image,-1,exp2.png,3,exp2.png,exp1.png,1,3,reversed,correct,0.6565860419879146,1,valid_win,397.95927889999984,39,,,,,,,,,,,,,,,sub_795,2024-02-18_15h36.50.376,Reversal,2023.1.3,60.09485371703692,3,
5,exp3.png,exp4.png,,3,0,3,0,0,5,5,5,,,,,,,,,,,,,,,,,,,,,,,,,False,64,65,False,exp3.png,exp4.png,trial_right_image,-1,exp4.png,3,exp4.png,exp3.png,1,1,non-reversed,correct,0.5265654898015112,1,valid_win,403.7096942999997,40,,,,,,,,,,,,,,,sub_795,2024-02-18_15h36.50.376,Reversal,2023.1.3,60.09485371703692,3,
6,exp1.png,exp2.png,,3,0,3,0,0,6,6,6,,,,,,,,,,,,,,,,,,,,,,,,,False,65,66,True,exp2.png,exp1.png,trial_left_image,1,exp2.png,3,exp2.png,exp1.png,1,3,reversed,correct,0.8227470827514152,1,valid_win,408.7247338999987,41,,,,,,,,,,,,,,,sub_795,2024-02-18_15h36.50.376,Reversal,2023.1.3,60.09485371703692,3,
7,exp3.png,exp4.png,,3,0,3,0,0,7,7,7,,,,,,,,,,,,,,,,,,,,,,,,,False,66,67,False,exp3.png,exp4.png,trial_right_image,-1,exp4.png,3,exp4.png,exp3.png,1,1,non-reversed,correct,0.5830029860547885,1,valid_win,416.8716928999984,42,,,,,,,,,,,,,,,sub_795,2024-02-18_15h36.50.376,Reversal,2023.1.3,60.09485371703692,3,
8,exp1.png,exp2.png,,3,0,3,0,0,8,8,8,,,,,,,,,,,,,,,,,,,,,,,,,False,67,68,True,exp2.png,exp1.png,trial_left_image,1,exp2.png,3,exp2.png,exp1.png,1,3,reversed,correct,0.6905765088019448,1,valid_win,422.2195775,43,,,,,,,,,,,,,,,sub_795,2024-02-18_15h36.50.376,Reversal,2023.1.3,60.09485371703692,3,
9,exp3.png,exp4.png,,3,0,3,0,0,9,9,9,,,,,,,,,,,,,,,,,,,,,,,,,False,68,69,True,exp4.png,exp3.png,trial_right_image,-1,exp3.png,3,exp4.png,exp3.png,0,2,non-reversed,incorrect,0.36101046766526135,0,valid_lose,428.68425149999894,43,,,,,,,,,,,,,,,sub_795,2024-02-18_15h36.50.376,Reversal,2023.1.3,60.09485371703692,3,
10,exp1.png,exp2.png,,3,0,3,0,0,10,10,10,,,,,,,,,,,,,,,,,,,,,,,,,False,69,70,True,exp2.png,exp1.png,trial_left_image,1,exp2.png,3,exp2.png,exp1.png,1,3,reversed,correct,0.12323993811941947,0,invalid_lose,433.45201429999906,43,,,,,,,,,,,,,,,sub_795,2024-02-18_15h36.50.376,Reversal,2023.1.3,60.09485371703692,3,
11,exp3.png,exp4.png,,3,0,3,0,0,11,11,11,,,,,,,,,,,,,,,,,,,,,,,,,False,70,71,True,exp4.png,exp3.png,trial_left_image,1,exp4.png,3,exp4.png,exp3.png,1,1,non-reversed,correct,0.17344711650449263,0,invalid_lose,438.7642844999991,43,,,,,,,,,,,,,,,sub_795,2024-02-18_15h36.50.376,Reversal,2023.1.3,60.09485371703692,3,
12,exp1.png,exp2.png,,3,0,3,0,0,12,12,12,,,,,,,,,,,,,,,,,,,,,,,,,False,71,72,True,exp2.png,exp1.png,trial_right_image,-1,exp1.png,3,exp2.png,exp1.png,0,4,reversed,incorrect,0.25692786693953384,0,valid_lose,443.59559959999933,43,,,,,,,,,,,,,,,sub_795,2024-02-18_15h36.50.376,Reversal,2023.1.3,60.09485371703692,3,
13,exp3.png,exp4.png,,3,0,3,0,0,13,13,13,,,,,,,,,,,,,,,,,,,,,,,,,False,72,73,False,exp3.png,exp4.png,trial_left_image,1,exp3.png,3,exp4.png,exp3.png,0,2,non-reversed,incorrect,0.847226382395864,0,valid_lose,447.42755299999953,43,,,,,,,,,,,,,,,sub_795,2024-02-18_15h36.50.376,Reversal,2023.1.3,60.09485371703692,3,
14,exp1.png,exp2.png,,3,0,3,0,0,14,14,14,,,,,,,,,,,,,,,,,,,,,,,,,False,73,74,False,exp1.png,exp2.png,trial_left_image,1,exp1.png,3,exp2.png,exp1.png,0,4,reversed,incorrect,0.9264038974957837,0,valid_lose,451.1262177999997,43,,,,,,,,,,,,,,,sub_795,2024-02-18_15h36.50.376,Reversal,2023.1.3,60.09485371703692,3,
15,exp3.png,exp4.png,,3,0,3,0,0,15,15,15,,,,,,,,,,,,,,,,,,,,,,,,,False,74,75,True,exp4.png,exp3.png,trial_right_image,-1,exp3.png,3,exp4.png,exp3.png,0,2,non-reversed,incorrect,0.026665887500446073,1,invalid_win,454.22583269999996,44,,,,,,,,,,,,,,,sub_795,2024-02-18_15h36.50.376,Reversal,2023.1.3,60.09485371703692,3,
16,exp1.png,exp2.png,,3,0,3,0,0,16,16,16,,,,,,,,,,,,,,,,,,,,,,,,,False,75,76,True,exp2.png,exp1.png,trial_left_image,1,exp2.png,3,exp2.png,exp1.png,1,3,reversed,correct,0.787906350388921,1,valid_win,459.5902841999996,45,,,,,,,,,,,,,,,sub_795,2024-02-18_15h36.50.376,Reversal,2023.1.3,60.09485371703692,3,
17,exp3.png,exp4.png,,3,0,3,0,0,17,17,17,,,,,,,,,,,,,,,,,,,,,,,,,False,76,77,False,exp3.png,exp4.png,trial_right_image,-1,exp4.png,3,exp4.png,exp3.png,1,1,non-reversed,correct,0.5706346840454776,1,valid_win,465.4069733999986,46,,,,,,,,,,,,,,,sub_795,2024-02-18_15h36.50.376,Reversal,2023.1.3,60.09485371703692,3,
18,exp1.png,exp2.png,,3,0,3,0,0,18,18,18,,,,,,,,,,,,,,,,,,,,,,,,,False,77,78,True,exp2.png,exp1.png,trial_left_image,1,exp2.png,3,exp2.png,exp1.png,1,3,reversed,correct,0.9895612026266672,1,valid_win,470.4698907999991,47,,,,,,,,,,,,,,,sub_795,2024-02-18_15h36.50.376,Reversal,2023.1.3,60.09485371703692,3,
19,exp3.png,exp4.png,,3,0,3,0,0,19,19,19,,,,,,,,,,,,,,,,,,,,,,,,,False,78,79,False,exp3.png,exp4.png,trial_right_image,-1,exp4.png,3,exp4.png,exp3.png,1,1,non-reversed,correct,0.6762463087150116,1,valid_win,474.70316549999916,48,,,,,,,,,,,,,,,sub_795,2024-02-18_15h36.50.376,Reversal,2023.1.3,60.09485371703692,3,
20,exp1.png,exp2.png,,3,0,3,0,0,20,20,20,,,,,,,,,,,,,,,,,,,,,,,,,False,79,80,False,exp1.png,exp2.png,trial_right_image,-1,exp2.png,3,exp2.png,exp1.png,1,3,reversed,correct,0.4116442033766733,1,valid_win,479.1332707999991,49,,,,,,,,,,,,,,,sub_795,2024-02-18_15h36.50.376,Reversal,2023.1.3,60.09485371703692,3,
,,,exp1.png,3,0,3,0,,,,,0,0,0,0,0,0,0,0,,,,,,,,,,,,,,,,,,,,,,,,,,,,,,,,,,,,,,557.4708266999996,,None,None,[],,,,,,,,,,sub_795,2024-02-18_15h36.50.376,Reversal,2023.1.3,60.09485371703692,3,
,,,exp2.png,3,0,3,0,,,,,0,0,0,0,0,1,1,1,,,,,,,,,,,,,,,,,,,,,,,,,,,,,,,,,,,,,,559.8255476000004,,None,None,[],,,,,,,,,,sub_795,2024-02-18_15h36.50.376,Reversal,2023.1.3,60.09485371703692,3,
,,,exp3.png,3,0,3,0,,,,,0,0,0,0,0,2,2,2,,,,,,,,,,,,,,,,,,,,,,,,,,,,,,,,,,,,,,560.2159039999997,,None,None,[],,,,,,,,,,sub_795,2024-02-18_15h36.50.376,Reversal,2023.1.3,60.09485371703692,3,
,,,exp4.png,3,0,3,0,,,,,0,0,0,0,0,3,3,3,,,,,,,,,,,,,,,,,,,,,,,,,,,,,,,,,,,,,,560.6992884000001,,None,None,[],,,,,,,,,,sub_795,2024-02-18_15h36.50.376,Reversal,2023.1.3,60.09485371703692,3,
0,exp1.png,exp2.png,,,,,,,,,,,,,,,,,,0,0,0,0,0,0,0,0,,,,,,,,,True,,,,,,,,,,,,,,,,,,,,,,,,,,,,,,,,,,,sub_795,2024-02-18_15h36.50.376,Reversal,2023.1.3,60.09485371703692,3,
1,exp3.png,exp4.png,,,,,,,,,,,,,,,,,,0,0,0,0,0,1,1,1,,,,,,,,,False,0,81,True,exp4.png,exp3.png,trial_left_image,1,exp4.png,3,exp4.png,exp3.png,1,1,non-reversed,correct,0.8173271727349289,1,valid_win,490.27989499999967,50,,,,,,,,,485.4401525999983,,,,,,sub_795,2024-02-18_15h36.50.376,Reversal,2023.1.3,60.09485371703692,3,
2,exp1.png,exp2.png,,,,,,,,,,,,,,,,,,0,0,0,0,0,2,2,2,,,,,,,,,False,1,82,False,exp1.png,exp2.png,trial_right_image,-1,exp2.png,3,exp1.png,exp2.png,1,3,reversed,incorrect,0.9526473399086234,0,valid_lose,494.9801669999997,50,,,,,,,,,,,,,,,sub_795,2024-02-18_15h36.50.376,Reversal,2023.1.3,60.09485371703692,3,
3,exp3.png,exp4.png,,,,,,,,,,,,,,,,,,0,0,0,0,0,3,3,3,,,,,,,,,False,2,83,True,exp4.png,exp3.png,trial_left_image,1,exp4.png,3,exp4.png,exp3.png,1,1,non-reversed,correct,0.28309329155313145,1,valid_win,500.19317339999907,51,,,,,,,,,,,,,,,sub_795,2024-02-18_15h36.50.376,Reversal,2023.1.3,60.09485371703692,3,
4,exp1.png,exp2.png,,,,,,,,,,,,,,,,,,0,0,0,0,0,4,4,4,,,,,,,,,False,3,84,True,exp2.png,exp1.png,trial_left_image,1,exp2.png,3,exp1.png,exp2.png,1,3,reversed,incorrect,0.34872021317758783,0,valid_lose,505.1413524999989,51,,,,,,,,,,,,,,,sub_795,2024-02-18_15h36.50.376,Reversal,2023.1.3,60.09485371703692,3,
5,exp3.png,exp4.png,,,,,,,,,,,,,,,,,,0,0,0,0,0,5,5,5,,,,,,,,,False,4,85,False,exp3.png,exp4.png,trial_right_image,-1,exp4.png,3,exp4.png,exp3.png,1,1,non-reversed,correct,0.33868786349909386,1,valid_win,509.3565860999988,52,,,,,,,,,,,,,,,sub_795,2024-02-18_15h36.50.376,Reversal,2023.1.3,60.09485371703692,3,
6,exp1.png,exp2.png,,,,,,,,,,,,,,,,,,0,0,0,0,0,6,6,6,,,,,,,,,False,5,86,True,exp2.png,exp1.png,trial_left_image,1,exp2.png,3,exp1.png,exp2.png,1,3,reversed,incorrect,0.7719046339458417,0,valid_lose,516.0546342999987,52,,,,,,,,,,,,,,,sub_795,2024-02-18_15h36.50.376,Reversal,2023.1.3,60.09485371703692,3,
7,exp3.png,exp4.png,,,,,,,,,,,,,,,,,,0,0,0,0,0,7,7,7,,,,,,,,,False,6,87,False,exp3.png,exp4.png,trial_right_image,-1,exp4.png,3,exp4.png,exp3.png,1,1,non-reversed,correct,0.6289926827290362,1,valid_win,521.0857287999988,53,,,,,,,,,,,,,,,sub_795,2024-02-18_15h36.50.376,Reversal,2023.1.3,60.09485371703692,3,
8,exp1.png,exp2.png,,,,,,,,,,,,,,,,,,0,0,0,0,0,8,8,8,,,,,,,,,False,7,88,True,exp2.png,exp1.png,trial_right_image,-1,exp1.png,3,exp1.png,exp2.png,0,4,reversed,correct,0.44431219710561176,1,valid_win,525.2346468999986,54,,,,,,,,,,,,,,,sub_795,2024-02-18_15h36.50.376,Reversal,2023.1.3,60.09485371703692,3,
9,exp3.png,exp4.png,,,,,,,,,,,,,,,,,,0,0,0,0,0,9,9,9,,,,,,,,,False,8,89,True,exp4.png,exp3.png,trial_left_image,1,exp4.png,3,exp4.png,exp3.png,1,1,non-reversed,correct,0.38726009754550395,1,valid_win,530.0827891999998,55,,,,,,,,,,,,,,,sub_795,2024-02-18_15h36.50.376,Reversal,2023.1.3,60.09485371703692,3,
10,exp1.png,exp2.png,,,,,,,,,,,,,,,,,,0,0,0,0,0,10,10,10,,,,,,,,,False,9,90,False,exp1.png,exp2.png,trial_right_image,-1,exp2.png,3,exp1.png,exp2.png,1,3,reversed,incorrect,0.7291120482591256,0,valid_lose,535.4480245999985,55,,,,,,,,,,,,,,,sub_795,2024-02-18_15h36.50.376,Reversal,2023.1.3,60.09485371703692,3,
11,exp3.png,exp4.png,,,,,,,,,,,,,,,,,,0,0,0,0,0,11,11,11,,,,,,,,,False,10,91,True,exp4.png,exp3.png,trial_right_image,-1,exp3.png,3,exp4.png,exp3.png,0,2,non-reversed,incorrect,0.10665245283973934,1,invalid_win,540.7962546999988,56,,,,,,,,,,,,,,,sub_795,2024-02-18_15h36.50.376,Reversal,2023.1.3,60.09485371703692,3,
12,exp1.png,exp2.png,,,,,,,,,,,,,,,,,,0,0,0,0,0,12,12,12,,,,,,,,,False,11,92,False,exp1.png,exp2.png,trial_right_image,-1,exp2.png,3,exp1.png,exp2.png,1,3,reversed,incorrect,0.06868145175709084,1,invalid_win,544.7617885999989,57,,,,,,,,,,,,,,,sub_795,2024-02-18_15h36.50.376,Reversal,2023.1.3,60.09485371703692,3,
13,exp3.png,exp4.png,,,,,,,,,,,,,,,,,,0,0,0,0,0,13,13,13,,,,,,,,,False,12,93,False,exp3.png,exp4.png,trial_left_image,1,exp3.png,3,exp4.png,exp3.png,0,2,non-reversed,incorrect,0.6827114615935678,0,valid_lose,549.3433389999991,57,,,,,,,,,,,,,,,sub_795,2024-02-18_15h36.50.376,Reversal,2023.1.3,60.09485371703692,3,
14,exp1.png,exp2.png,,,,,,,,,,,,,,,,,,0,0,0,0,0,14,14,14,,,,,,,,,False,13,94,True,exp2.png,exp1.png,trial_right_image,-1,exp1.png,3,exp1.png,exp2.png,0,4,reversed,correct,0.2845771091674074,1,valid_win,553.9585681999997,58,,,,,,,,,,,,,,,sub_795,2024-02-18_15h36.50.376,Reversal,2023.1.3,60.09485371703692,3,
15,exp3.png,exp4.png,,,,,,,,,,,,,,,,,,0,0,0,0,0,15,15,15,,,,,,,,,False,14,95,True,exp4.png,exp3.png,trial_left_image,1,exp4.png,3,exp4.png,exp3.png,1,1,non-reversed,correct,0.35352514561795334,1,valid_win,559.0566261999993,59,,,,,,,,,,,,,,,sub_795,2024-02-18_15h36.50.376,Reversal,2023.1.3,60.09485371703692,3,
16,exp1.png,exp2.png,,,,,,,,,,,,,,,,,,0,0,0,0,0,16,16,16,,,,,,,,,False,15,96,False,exp1.png,exp2.png,trial_right_image,-1,exp2.png,3,exp1.png,exp2.png,1,3,reversed,incorrect,0.8126020798392445,0,valid_lose,562.9892481999996,59,,,,,,,,,,,,,,,sub_795,2024-02-18_15h36.50.376,Reversal,2023.1.3,60.09485371703692,3,
17,exp3.png,exp4.png,,,,,,,,,,,,,,,,,,0,0,0,0,0,17,17,17,,,,,,,,,False,16,97,False,exp3.png,exp4.png,trial_right_image,-1,exp4.png,3,exp4.png,exp3.png,1,1,non-reversed,correct,0.11524671379484164,0,invalid_lose,567.8535577999992,59,,,,,,,,,,,,,,,sub_795,2024-02-18_15h36.50.376,Reversal,2023.1.3,60.09485371703692,3,
18,exp1.png,exp2.png,,,,,,,,,,,,,,,,,,0,0,0,0,0,18,18,18,,,,,,,,,False,17,98,True,exp2.png,exp1.png,trial_right_image,-1,exp1.png,3,exp1.png,exp2.png,0,4,reversed,correct,0.8622493792681333,1,valid_win,571.9353652999998,60,,,,,,,,,,,,,,,sub_795,2024-02-18_15h36.50.376,Reversal,2023.1.3,60.09485371703692,3,
19,exp3.png,exp4.png,,,,,,,,,,,,,,,,,,0,0,0,0,0,19,19,19,,,,,,,,,False,18,99,False,exp3.png,exp4.png,trial_right_image,-1,exp4.png,3,exp4.png,exp3.png,1,1,non-reversed,correct,0.9972444761334216,1,valid_win,575.7679337999998,61,,,,,,,,,,,,,,,sub_795,2024-02-18_15h36.50.376,Reversal,2023.1.3,60.09485371703692,3,
20,exp1.png,exp2.png,,,,,,,,,,,,,,,,,,0,0,0,0,0,20,20,20,,,,,,,,,False,19,100,False,exp1.png,exp2.png,trial_right_image,-1,exp2.png,3,exp1.png,exp2.png,1,3,reversed,incorrect,0.461040029157317,0,valid_lose,580.4826520999995,61,,,,,,,,,,,,,,,sub_795,2024-02-18_15h36.50.376,Reversal,2023.1.3,60.09485371703692,3,
,,,exp1.png,,,,,,,,,,,,,,,,,0,0,0,0,,,,,0,0,0,0,0,0,0,0,,,,,,,,,,,,,,,,,,,,,,658.8121261999995,,None,None,[],,,,,,,,,,sub_795,2024-02-18_15h36.50.376,Reversal,2023.1.3,60.09485371703692,3,
,,,exp2.png,,,,,,,,,,,,,,,,,0,0,0,0,,,,,0,0,0,0,0,1,1,1,,,,,,,,,,,,,,,,,,,,,,660.7215213999998,,None,None,[],,,,,,,,,,sub_795,2024-02-18_15h36.50.376,Reversal,2023.1.3,60.09485371703692,3,
,,,exp3.png,,,,,,,,,,,,,,,,,0,0,0,0,,,,,0,0,0,0,0,2,2,2,,,,,,,,,,,,,,,,,,,,,,661.0557197000007,,None,None,[],,,,,,,,,,sub_795,2024-02-18_15h36.50.376,Reversal,2023.1.3,60.09485371703692,3,
,,,exp4.png,,,,,,,,,,,,,,,,,0,0,0,0,,,,,0,0,0,0,0,3,3,3,,,,,,,,,,,,,,,,,,,,,,661.3813199999995,,None,None,[],,,,,,,,,,sub_795,2024-02-18_15h36.50.376,Reversal,2023.1.3,60.09485371703692,3,
0,exp1.png,exp2.png,,,,,,,,,,,,,,,,,,1,0,1,0,0,0,0,0,,,,,,,,,True,,,,,,,,,,,,,,,,,,,,,,,,,,,,,,,,,,,sub_795,2024-02-18_15h36.50.376,Reversal,2023.1.3,60.09485371703692,3,
1,exp3.png,exp4.png,,,,,,,,,,,,,,,,,,1,0,1,0,0,1,1,1,,,,,,,,,False,20,101,True,exp4.png,exp3.png,trial_left_image,1,exp4.png,3,exp4.png,exp3.png,1,1,non-reversed,correct,0.3418404197641287,1,valid_win,588.1297326999993,62,,,,,,,,,,,,,,,sub_795,2024-02-18_15h36.50.376,Reversal,2023.1.3,60.09485371703692,3,
2,exp1.png,exp2.png,,,,,,,,,,,,,,,,,,1,0,1,0,0,2,2,2,,,,,,,,,False,21,102,True,exp2.png,exp1.png,trial_left_image,1,exp2.png,3,exp1.png,exp2.png,1,3,reversed,incorrect,0.6992276025788607,0,valid_lose,593.1281064999985,62,,,,,,,,,,,,,,,sub_795,2024-02-18_15h36.50.376,Reversal,2023.1.3,60.09485371703692,3,
3,exp3.png,exp4.png,,,,,,,,,,,,,,,,,,1,0,1,0,0,3,3,3,,,,,,,,,False,22,103,True,exp4.png,exp3.png,trial_right_image,-1,exp3.png,3,exp4.png,exp3.png,0,2,non-reversed,incorrect,0.039256541988443194,1,invalid_win,597.7939067999996,63,,,,,,,,,,,,,,,sub_795,2024-02-18_15h36.50.376,Reversal,2023.1.3,60.09485371703692,3,
4,exp1.png,exp2.png,,,,,,,,,,,,,,,,,,1,0,1,0,0,4,4,4,,,,,,,,,False,23,104,False,exp1.png,exp2.png,trial_right_image,-1,exp2.png,3,exp1.png,exp2.png,1,3,reversed,incorrect,0.1696672039577568,1,invalid_win,603.6914825999993,64,,,,,,,,,,,,,,,sub_795,2024-02-18_15h36.50.376,Reversal,2023.1.3,60.09485371703692,3,
5,exp3.png,exp4.png,,,,,,,,,,,,,,,,,,1,0,1,0,0,5,5,5,,,,,,,,,False,24,105,False,exp3.png,exp4.png,trial_right_image,-1,exp4.png,3,exp4.png,exp3.png,1,1,non-reversed,correct,0.5944757157310521,1,valid_win,609.1795903999991,65,,,,,,,,,,,,,,,sub_795,2024-02-18_15h36.50.376,Reversal,2023.1.3,60.09485371703692,3,
6,exp1.png,exp2.png,,,,,,,,,,,,,,,,,,1,0,1,0,0,6,6,6,,,,,,,,,False,25,106,True,exp2.png,exp1.png,trial_right_image,-1,exp1.png,3,exp1.png,exp2.png,0,4,reversed,correct,0.22777580806354825,0,invalid_lose,613.5550547999992,65,,,,,,,,,,,,,,,sub_795,2024-02-18_15h36.50.376,Reversal,2023.1.3,60.09485371703692,3,
7,exp3.png,exp4.png,,,,,,,,,,,,,,,,,,1,0,1,0,0,7,7,7,,,,,,,,,False,26,107,True,exp4.png,exp3.png,trial_right_image,-1,exp3.png,3,exp4.png,exp3.png,0,2,non-reversed,incorrect,0.8094961821412813,0,valid_lose,618.2364120999991,65,,,,,,,,,,,,,,,sub_795,2024-02-18_15h36.50.376,Reversal,2023.1.3,60.09485371703692,3,
8,exp1.png,exp2.png,,,,,,,,,,,,,,,,,,1,0,1,0,0,8,8,8,,,,,,,,,False,27,108,False,exp1.png,exp2.png,trial_right_image,-1,exp2.png,3,exp1.png,exp2.png,1,3,reversed,incorrect,0.28174199401724553,0,valid_lose,629.8003687,65,,,,,,,,,,,,,,,sub_795,2024-02-18_15h36.50.376,Reversal,2023.1.3,60.09485371703692,3,
9,exp3.png,exp4.png,,,,,,,,,,,,,,,,,,1,0,1,0,0,9,9,9,,,,,,,,,False,28,109,True,exp4.png,exp3.png,trial_right_image,-1,exp3.png,3,exp4.png,exp3.png,0,2,non-reversed,incorrect,0.6334063145735298,0,valid_lose,636.3472203999991,65,,,,,,,,,,,,,,,sub_795,2024-02-18_15h36.50.376,Reversal,2023.1.3,60.09485371703692,3,
10,exp1.png,exp2.png,,,,,,,,,,,,,,,,,,1,0,1,0,0,10,10,10,,,,,,,,,False,29,110,False,exp1.png,exp2.png,trial_right_image,-1,exp2.png,3,exp1.png,exp2.png,1,3,reversed,incorrect,0.21689592536898983,1,invalid_win,642.4447982999991,66,,,,,,,,,,,,,,,sub_795,2024-02-18_15h36.50.376,Reversal,2023.1.3,60.09485371703692,3,
11,exp3.png,exp4.png,,,,,,,,,,,,,,,,,,1,0,1,0,0,11,11,11,,,,,,,,,False,30,111,False,exp3.png,exp4.png,trial_left_image,1,exp3.png,3,exp4.png,exp3.png,0,2,non-reversed,incorrect,0.8726445167142224,0,valid_lose,647.6271677999994,66,,,,,,,,,,,,,,,sub_795,2024-02-18_15h36.50.376,Reversal,2023.1.3,60.09485371703692,3,
12,exp1.png,exp2.png,,,,,,,,,,,,,,,,,,1,0,1,0,0,12,12,12,,,,,,,,,False,31,112,False,exp1.png,exp2.png,trial_right_image,-1,exp2.png,3,exp1.png,exp2.png,1,3,reversed,incorrect,0.38094914797121704,0,valid_lose,652.3416232999989,66,,,,,,,,,,,,,,,sub_795,2024-02-18_15h36.50.376,Reversal,2023.1.3,60.09485371703692,3,
13,exp3.png,exp4.png,,,,,,,,,,,,,,,,,,1,0,1,0,0,13,13,13,,,,,,,,,False,32,113,True,exp4.png,exp3.png,trial_right_image,-1,exp3.png,3,exp4.png,exp3.png,0,2,non-reversed,incorrect,0.11553042593871121,1,invalid_win,656.1565099,67,,,,,,,,,,,,,,,sub_795,2024-02-18_15h36.50.376,Reversal,2023.1.3,60.09485371703692,3,
14,exp1.png,exp2.png,,,,,,,,,,,,,,,,,,1,0,1,0,0,14,14,14,,,,,,,,,False,33,114,True,exp2.png,exp1.png,trial_left_image,1,exp2.png,3,exp1.png,exp2.png,1,3,reversed,incorrect,0.35485294427456193,0,valid_lose,661.3053081999988,67,,,,,,,,,,,,,,,sub_795,2024-02-18_15h36.50.376,Reversal,2023.1.3,60.09485371703692,3,
15,exp3.png,exp4.png,,,,,,,,,,,,,,,,,,1,0,1,0,0,15,15,15,,,,,,,,,False,34,115,True,exp4.png,exp3.png,trial_right_image,-1,exp3.png,3,exp4.png,exp3.png,0,2,non-reversed,incorrect,0.9355326697018975,0,valid_lose,665.3555362999996,67,,,,,,,,,,,,,,,sub_795,2024-02-18_15h36.50.376,Reversal,2023.1.3,60.09485371703692,3,
16,exp1.png,exp2.png,,,,,,,,,,,,,,,,,,1,0,1,0,0,16,16,16,,,,,,,,,False,35,116,False,exp1.png,exp2.png,trial_right_image,-1,exp2.png,3,exp1.png,exp2.png,1,3,reversed,incorrect,0.10771919054758117,1,invalid_win,669.3190000999984,68,,,,,,,,,,,,,,,sub_795,2024-02-18_15h36.50.376,Reversal,2023.1.3,60.09485371703692,3,
17,exp3.png,exp4.png,,,,,,,,,,,,,,,,,,1,0,1,0,0,17,17,17,,,,,,,,,False,36,117,False,exp3.png,exp4.png,trial_left_image,1,exp3.png,3,exp4.png,exp3.png,0,2,non-reversed,incorrect,0.9979229803429382,0,valid_lose,673.4843512999996,68,,,,,,,,,,,,,,,sub_795,2024-02-18_15h36.50.376,Reversal,2023.1.3,60.09485371703692,3,
18,exp1.png,exp2.png,,,,,,,,,,,,,,,,,,1,0,1,0,0,18,18,18,,,,,,,,,False,37,118,False,exp1.png,exp2.png,trial_right_image,-1,exp2.png,3,exp1.png,exp2.png,1,3,reversed,incorrect,0.2641501649143916,0,valid_lose,677.7330281999984,68,,,,,,,,,,,,,,,sub_795,2024-02-18_15h36.50.376,Reversal,2023.1.3,60.09485371703692,3,
19,exp3.png,exp4.png,,,,,,,,,,,,,,,,,,1,0,1,0,0,19,19,19,,,,,,,,,False,38,119,True,exp4.png,exp3.png,trial_right_image,-1,exp3.png,3,exp4.png,exp3.png,0,2,non-reversed,incorrect,0.4818418975582698,0,valid_lose,681.5816952999994,68,,,,,,,,,,,,,,,sub_795,2024-02-18_15h36.50.376,Reversal,2023.1.3,60.09485371703692,3,
20,exp1.png,exp2.png,,,,,,,,,,,,,,,,,,1,0,1,0,0,20,20,20,,,,,,,,,False,39,120,False,exp1.png,exp2.png,trial_right_image,-1,exp2.png,3,exp1.png,exp2.png,1,3,reversed,incorrect,0.576187582561825,0,valid_lose,685.5135682,68,,,,,,,,,,,,,,,sub_795,2024-02-18_15h36.50.376,Reversal,2023.1.3,60.09485371703692,3,
,,,exp1.png,,,,,,,,,,,,,,,,,1,0,1,0,,,,,0,0,0,0,0,0,0,0,,,,,,,,,,,,,,,,,,,,,,763.8495439000008,,None,None,[],,,,,,,,,,sub_795,2024-02-18_15h36.50.376,Reversal,2023.1.3,60.09485371703692,3,
,,,exp2.png,,,,,,,,,,,,,,,,,1,0,1,0,,,,,0,0,0,0,0,1,1,1,,,,,,,,,,,,,,,,,,,,,,765.9846760999999,,None,None,[],,,,,,,,,,sub_795,2024-02-18_15h36.50.376,Reversal,2023.1.3,60.09485371703692,3,
,,,exp3.png,,,,,,,,,,,,,,,,,1,0,1,0,,,,,0,0,0,0,0,2,2,2,,,,,,,,,,,,,,,,,,,,,,766.3708495000001,,None,None,[],,,,,,,,,,sub_795,2024-02-18_15h36.50.376,Reversal,2023.1.3,60.09485371703692,3,
,,,exp4.png,,,,,,,,,,,,,,,,,1,0,1,0,,,,,0,0,0,0,0,3,3,3,,,,,,,,,,,,,,,,,,,,,,766.7555624999995,,None,None,[],,,,,,,,,,sub_795,2024-02-18_15h36.50.376,Reversal,2023.1.3,60.09485371703692,3,
0,exp1.png,exp2.png,,,,,,,,,,,,,,,,,,2,0,2,0,0,0,0,0,,,,,,,,,True,,,,,,,,,,,,,,,,,,,,,,,,,,,,,,,,,,,sub_795,2024-02-18_15h36.50.376,Reversal,2023.1.3,60.09485371703692,3,
1,exp3.png,exp4.png,,,,,,,,,,,,,,,,,,2,0,2,0,0,1,1,1,,,,,,,,,False,40,121,False,exp3.png,exp4.png,trial_right_image,-1,exp4.png,3,exp4.png,exp3.png,1,1,non-reversed,correct,0.27554137091493525,1,valid_win,698.6763370999997,69,,,,,,,,,,,,,,,sub_795,2024-02-18_15h36.50.376,Reversal,2023.1.3,60.09485371703692,3,
2,exp1.png,exp2.png,,,,,,,,,,,,,,,,,,2,0,2,0,0,2,2,2,,,,,,,,,False,41,122,False,exp1.png,exp2.png,trial_right_image,-1,exp2.png,3,exp1.png,exp2.png,1,3,reversed,incorrect,0.5891471340051267,0,valid_lose,703.1911994999991,69,,,,,,,,,,,,,,,sub_795,2024-02-18_15h36.50.376,Reversal,2023.1.3,60.09485371703692,3,
3,exp3.png,exp4.png,,,,,,,,,,,,,,,,,,2,0,2,0,0,3,3,3,,,,,,,,,False,42,123,False,exp3.png,exp4.png,trial_right_image,-1,exp4.png,3,exp4.png,exp3.png,1,1,non-reversed,correct,0.35306492356645813,1,valid_win,707.4064677999995,70,,,,,,,,,,,,,,,sub_795,2024-02-18_15h36.50.376,Reversal,2023.1.3,60.09485371703692,3,
4,exp1.png,exp2.png,,,,,,,,,,,,,,,,,,2,0,2,0,0,4,4,4,,,,,,,,,False,43,124,False,exp1.png,exp2.png,trial_right_image,-1,exp2.png,3,exp1.png,exp2.png,1,3,reversed,incorrect,0.5370933874188049,0,valid_lose,711.4215472999986,70,,,,,,,,,,,,,,,sub_795,2024-02-18_15h36.50.376,Reversal,2023.1.3,60.09485371703692,3,
5,exp3.png,exp4.png,,,,,,,,,,,,,,,,,,2,0,2,0,0,5,5,5,,,,,,,,,False,44,125,False,exp3.png,exp4.png,trial_left_image,1,exp3.png,3,exp4.png,exp3.png,0,2,non-reversed,incorrect,0.06308044564563497,1,invalid_win,716.3364206999995,71,,,,,,,,,,,,,,,sub_795,2024-02-18_15h36.50.376,Reversal,2023.1.3,60.09485371703692,3,
6,exp1.png,exp2.png,,,,,,,,,,,,,,,,,,2,0,2,0,0,6,6,6,,,,,,,,,False,45,126,True,exp2.png,exp1.png,trial_left_image,1,exp2.png,3,exp1.png,exp2.png,1,3,reversed,incorrect,0.6335363815755268,0,valid_lose,720.5855620999992,71,,,,,,,,,,,,,,,sub_795,2024-02-18_15h36.50.376,Reversal,2023.1.3,60.09485371703692,3,
7,exp3.png,exp4.png,,,,,,,,,,,,,,,,,,2,0,2,0,0,7,7,7,,,,,,,,,False,46,127,True,exp4.png,exp3.png,trial_left_image,1,exp4.png,3,exp4.png,exp3.png,1,1,non-reversed,correct,0.8003732433231668,1,valid_win,725.9001429,72,,,,,,,,,,,,,,,sub_795,2024-02-18_15h36.50.376,Reversal,2023.1.3,60.09485371703692,3,
8,exp1.png,exp2.png,,,,,,,,,,,,,,,,,,2,0,2,0,0,8,8,8,,,,,,,,,False,47,128,False,exp1.png,exp2.png,trial_right_image,-1,exp2.png,3,exp1.png,exp2.png,1,3,reversed,incorrect,0.2756205479678092,0,valid_lose,730.7314250999989,72,,,,,,,,,,,,,,,sub_795,2024-02-18_15h36.50.376,Reversal,2023.1.3,60.09485371703692,3,
9,exp3.png,exp4.png,,,,,,,,,,,,,,,,,,2,0,2,0,0,9,9,9,,,,,,,,,False,48,129,False,exp3.png,exp4.png,trial_left_image,1,exp3.png,3,exp4.png,exp3.png,0,2,non-reversed,incorrect,0.7397567936205851,0,valid_lose,735.4637014999989,72,,,,,,,,,,,,,,,sub_795,2024-02-18_15h36.50.376,Reversal,2023.1.3,60.09485371703692,3,
10,exp1.png,exp2.png,,,,,,,,,,,,,,,,,,2,0,2,0,0,10,10,10,,,,,,,,,False,49,130,True,exp2.png,exp1.png,trial_right_image,-1,exp1.png,3,exp1.png,exp2.png,0,4,reversed,correct,0.7579330108094369,1,valid_win,741.1446022,73,,,,,,,,,,,,,,,sub_795,2024-02-18_15h36.50.376,Reversal,2023.1.3,60.09485371703692,3,
11,exp3.png,exp4.png,,,,,,,,,,,,,,,,,,2,0,2,0,0,11,11,11,,,,,,,,,False,50,131,True,exp4.png,exp3.png,trial_right_image,-1,exp3.png,3,exp4.png,exp3.png,0,2,non-reversed,incorrect,0.105712356335256,1,invalid_win,746.6927736999987,74,,,,,,,,,,,,,,,sub_795,2024-02-18_15h36.50.376,Reversal,2023.1.3,60.09485371703692,3,
12,exp1.png,exp2.png,,,,,,,,,,,,,,,,,,2,0,2,0,0,12,12,12,,,,,,,,,False,51,132,True,exp2.png,exp1.png,trial_left_image,1,exp2.png,3,exp1.png,exp2.png,1,3,reversed,incorrect,0.6143415029812477,0,valid_lose,753.1740682999989,74,,,,,,,,,,,,,,,sub_795,2024-02-18_15h36.50.376,Reversal,2023.1.3,60.09485371703692,3,
13,exp3.png,exp4.png,,,,,,,,,,,,,,,,,,2,0,2,0,0,13,13,13,,,,,,,,,False,52,133,True,exp4.png,exp3.png,trial_left_image,1,exp4.png,3,exp4.png,exp3.png,1,1,non-reversed,correct,0.7255139495927478,1,valid_win,757.7582232999994,75,,,,,,,,,,,,,,,sub_795,2024-02-18_15h36.50.376,Reversal,2023.1.3,60.09485371703692,3,
14,exp1.png,exp2.png,,,,,,,,,,,,,,,,,,2,0,2,0,0,14,14,14,,,,,,,,,False,53,134,False,exp1.png,exp2.png,trial_right_image,-1,exp2.png,3,exp1.png,exp2.png,1,3,reversed,incorrect,0.9518862580767121,0,valid_lose,761.9040560999983,75,,,,,,,,,,,,,,,sub_795,2024-02-18_15h36.50.376,Reversal,2023.1.3,60.09485371703692,3,
15,exp3.png,exp4.png,,,,,,,,,,,,,,,,,,2,0,2,0,0,15,15,15,,,,,,,,,False,54,135,True,exp4.png,exp3.png,trial_right_image,-1,exp3.png,3,exp4.png,exp3.png,0,2,non-reversed,incorrect,0.13406974773798663,1,invalid_win,766.9529183999985,76,,,,,,,,,,,,,,,sub_795,2024-02-18_15h36.50.376,Reversal,2023.1.3,60.09485371703692,3,
16,exp1.png,exp2.png,,,,,,,,,,,,,,,,,,2,0,2,0,0,16,16,16,,,,,,,,,False,55,136,True,exp2.png,exp1.png,trial_left_image,1,exp2.png,3,exp1.png,exp2.png,1,3,reversed,incorrect,0.8631840394426424,0,valid_lose,772.3842193,76,,,,,,,,,,,,,,,sub_795,2024-02-18_15h36.50.376,Reversal,2023.1.3,60.09485371703692,3,
17,exp3.png,exp4.png,,,,,,,,,,,,,,,,,,2,0,2,0,0,17,17,17,,,,,,,,,False,56,137,False,exp3.png,exp4.png,trial_right_image,-1,exp4.png,3,exp4.png,exp3.png,1,1,non-reversed,correct,0.8072190034606943,1,valid_win,778.0988061999997,77,,,,,,,,,,,,,,,sub_795,2024-02-18_15h36.50.376,Reversal,2023.1.3,60.09485371703692,3,
18,exp1.png,exp2.png,,,,,,,,,,,,,,,,,,2,0,2,0,0,18,18,18,,,,,,,,,False,57,138,False,exp1.png,exp2.png,trial_right_image,-1,exp2.png,3,exp1.png,exp2.png,1,3,reversed,incorrect,0.8987313949498666,0,valid_lose,787.795457799999,77,,,,,,,,,,,,,,,sub_795,2024-02-18_15h36.50.376,Reversal,2023.1.3,60.09485371703692,3,
19,exp3.png,exp4.png,,,,,,,,,,,,,,,,,,2,0,2,0,0,19,19,19,,,,,,,,,False,58,139,True,exp4.png,exp3.png,trial_right_image,-1,exp3.png,3,exp4.png,exp3.png,0,2,non-reversed,incorrect,0.1208043995463105,1,invalid_win,792.5272649999988,78,,,,,,,,,,,,,,,sub_795,2024-02-18_15h36.50.376,Reversal,2023.1.3,60.09485371703692,3,
20,exp1.png,exp2.png,,,,,,,,,,,,,,,,,,2,0,2,0,0,20,20,20,,,,,,,,,False,59,140,True,exp2.png,exp1.png,trial_left_image,1,exp2.png,3,exp1.png,exp2.png,1,3,reversed,incorrect,0.6750301289762706,0,valid_lose,796.492680899999,78,,,,,,,,,,,,,,,sub_795,2024-02-18_15h36.50.376,Reversal,2023.1.3,60.09485371703692,3,
,,,exp1.png,,,,,,,,,,,,,,,,,2,0,2,0,,,,,0,0,0,0,0,0,0,0,,,,,,,,,,,,,,,,,,,,,,874.8203418999992,,None,None,[],,,,,,,,,,sub_795,2024-02-18_15h36.50.376,Reversal,2023.1.3,60.09485371703692,3,
,,,exp2.png,,,,,,,,,,,,,,,,,2,0,2,0,,,,,0,0,0,0,0,1,1,1,,,,,,,,,,,,,,,,,,,,,,876.4152187000009,,None,None,[],,,,,,,,,,sub_795,2024-02-18_15h36.50.376,Reversal,2023.1.3,60.09485371703692,3,
,,,exp3.png,,,,,,,,,,,,,,,,,2,0,2,0,,,,,0,0,0,0,0,2,2,2,,,,,,,,,,,,,,,,,,,,,,876.7472478999998,,None,None,[],,,,,,,,,,sub_795,2024-02-18_15h36.50.376,Reversal,2023.1.3,60.09485371703692,3,
,,,exp4.png,,,,,,,,,,,,,,,,,2,0,2,0,,,,,0,0,0,0,0,3,3,3,,,,,,,,,,,,,,,,,,,,,,877.2146175000007,,None,None,[],,,,,,,,,,sub_795,2024-02-18_15h36.50.376,Reversal,2023.1.3,60.09485371703692,3,
,,,,,,,,,,,,,,,,,,,,,,,,,,,,,,,,,,,,,,,,,,,,,,,,,,,,,,,,78,,,,,,,,,,79,59,20,316.45207180000034,1,,,,,,,
