trial_index,trial_image1_file,trial_image2_file,image_file,learning_outer_loop.thisRepN,learning_outer_loop.thisTrialN,learning_outer_loop.thisN,learning_outer_loop.thisIndex,learning_inner_loop.thisRepN,learning_inner_loop.thisTrialN,learning_inner_loop.thisN,learning_inner_loop.thisIndex,learning_estimation_outer_loop.thisRepN,learning_estimation_outer_loop.thisTrialN,learning_estimation_outer_loop.thisN,learning_estimation_outer_loop.thisIndex,learning_estimation_inner_loop.thisRepN,learning_estimation_inner_loop.thisTrialN,learning_estimation_inner_loop.thisN,learning_estimation_inner_loop.thisIndex,reversal_outer_loop.thisRepN,reversal_outer_loop.thisTrialN,reversal_outer_loop.thisN,reversal_outer_loop.thisIndex,reversal_inner_loop.thisRepN,reversal_inner_loop.thisTrialN,reversal_inner_loop.thisN,reversal_inner_loop.thisIndex,reversal_estimation_outer_loop.thisRepN,reversal_estimation_outer_loop.thisTrialN,reversal_estimation_outer_loop.thisN,reversal_estimation_outer_loop.thisIndex,reversal_estimation_inner_loop.thisRepN,reversal_estimation_inner_loop.thisTrialN,reversal_estimation_inner_loop.thisN,reversal_estimation_inner_loop.thisIndex,skipped,total_trial_counter,trial_num,left_right_flip,left_image_file,right_image_file,clicked_stimulus_side,side,clicked_stimulus,version,high_prob_image_file,low_prob_image_file,choice_a,choice_b,pair_type,correct,trial_feedback_random,reward,trial_type,overall_time_after_trial,score,estimation_rating.started,estimation_exp1.png,estimation_rating.response,estimation_rating.rt,estimation_rating.history,estimation_exp3.png,estimation_exp4.png,estimation_exp2.png,total_learning_time,total_correct,learning_correct,reversal_correct,total_reversal_time,extra_block,participant,date,expName,psychopyVersion,frameRate,ver,
0,exp1.png,exp2.png,,0,0,0,0,0,0,0,0,,,,,,,,,,,,,,,,,,,,,,,,,False,0,1,False,exp1.png,exp2.png,trial_right_image,-1,exp2.png,3,exp2.png,exp1.png,1,3,reversed,correct,0.08180391489865035,0,invalid_lose,3.344576000003144,0,,,,,,,,,,,,,,,sub_331,2023-08-21_10h46.53.323,Reversal,2023.1.3,60.13536470408257,3,
1,exp3.png,exp4.png,,0,0,0,0,0,1,1,1,,,,,,,,,,,,,,,,,,,,,,,,,False,1,2,False,exp3.png,exp4.png,trial_left_image,1,exp3.png,3,exp4.png,exp3.png,0,2,non-reversed,incorrect,0.6371091588122216,0,valid_lose,8.726351400007843,0,,,,,,,,,,,,,,,sub_331,2023-08-21_10h46.53.323,Reversal,2023.1.3,60.13536470408257,3,
2,exp1.png,exp2.png,,0,0,0,0,0,2,2,2,,,,,,,,,,,,,,,,,,,,,,,,,False,2,3,True,exp2.png,exp1.png,trial_left_image,1,exp2.png,3,exp2.png,exp1.png,1,3,reversed,correct,0.4873824735109472,1,valid_win,14.241294799998286,1,,,,,,,,,,,,,,,sub_331,2023-08-21_10h46.53.323,Reversal,2023.1.3,60.13536470408257,3,
3,exp3.png,exp4.png,,0,0,0,0,0,3,3,3,,,,,,,,,,,,,,,,,,,,,,,,,False,3,4,True,exp4.png,exp3.png,trial_left_image,1,exp4.png,3,exp4.png,exp3.png,1,1,non-reversed,correct,0.24045784097066392,0,invalid_lose,19.889299200003734,1,,,,,,,,,,,,,,,sub_331,2023-08-21_10h46.53.323,Reversal,2023.1.3,60.13536470408257,3,
4,exp1.png,exp2.png,,0,0,0,0,0,4,4,4,,,,,,,,,,,,,,,,,,,,,,,,,False,4,5,False,exp1.png,exp2.png,trial_right_image,-1,exp2.png,3,exp2.png,exp1.png,1,3,reversed,correct,0.2830908445588284,1,valid_win,24.95412930000748,2,,,,,,,,,,,,,,,sub_331,2023-08-21_10h46.53.323,Reversal,2023.1.3,60.13536470408257,3,
5,exp3.png,exp4.png,,0,0,0,0,0,5,5,5,,,,,,,,,,,,,,,,,,,,,,,,,False,5,6,False,exp3.png,exp4.png,trial_right_image,-1,exp4.png,3,exp4.png,exp3.png,1,1,non-reversed,correct,0.8128175043858002,1,valid_win,30.08555040000647,3,,,,,,,,,,,,,,,sub_331,2023-08-21_10h46.53.323,Reversal,2023.1.3,60.13536470408257,3,
6,exp1.png,exp2.png,,0,0,0,0,0,6,6,6,,,,,,,,,,,,,,,,,,,,,,,,,False,6,7,True,exp2.png,exp1.png,trial_left_image,1,exp2.png,3,exp2.png,exp1.png,1,3,reversed,correct,0.48156186804598544,1,valid_win,34.71772630000487,4,,,,,,,,,,,,,,,sub_331,2023-08-21_10h46.53.323,Reversal,2023.1.3,60.13536470408257,3,
7,exp3.png,exp4.png,,0,0,0,0,0,7,7,7,,,,,,,,,,,,,,,,,,,,,,,,,False,7,8,True,exp4.png,exp3.png,trial_left_image,1,exp4.png,3,exp4.png,exp3.png,1,1,non-reversed,correct,0.4383162214845796,1,valid_win,39.59946920000948,5,,,,,,,,,,,,,,,sub_331,2023-08-21_10h46.53.323,Reversal,2023.1.3,60.13536470408257,3,
8,exp1.png,exp2.png,,0,0,0,0,0,8,8,8,,,,,,,,,,,,,,,,,,,,,,,,,False,8,9,False,exp1.png,exp2.png,trial_right_image,-1,exp2.png,3,exp2.png,exp1.png,1,3,reversed,correct,0.13662176551888783,0,invalid_lose,44.76402480000979,5,,,,,,,,,,,,,,,sub_331,2023-08-21_10h46.53.323,Reversal,2023.1.3,60.13536470408257,3,
9,exp3.png,exp4.png,,0,0,0,0,0,9,9,9,,,,,,,,,,,,,,,,,,,,,,,,,False,9,10,False,exp3.png,exp4.png,trial_right_image,-1,exp4.png,3,exp4.png,exp3.png,1,1,non-reversed,correct,0.9131763971943001,1,valid_win,49.179132600009325,6,,,,,,,,,,,,,,,sub_331,2023-08-21_10h46.53.323,Reversal,2023.1.3,60.13536470408257,3,
10,exp1.png,exp2.png,,0,0,0,0,0,10,10,10,,,,,,,,,,,,,,,,,,,,,,,,,False,10,11,False,exp1.png,exp2.png,trial_right_image,-1,exp2.png,3,exp2.png,exp1.png,1,3,reversed,correct,0.24466189356367363,0,invalid_lose,53.77777899999637,6,,,,,,,,,,,,,,,sub_331,2023-08-21_10h46.53.323,Reversal,2023.1.3,60.13536470408257,3,
11,exp3.png,exp4.png,,0,0,0,0,0,11,11,11,,,,,,,,,,,,,,,,,,,,,,,,,False,11,12,True,exp4.png,exp3.png,trial_left_image,1,exp4.png,3,exp4.png,exp3.png,1,1,non-reversed,correct,0.4815819836182518,1,valid_win,58.476092900004005,7,,,,,,,,,,,,,,,sub_331,2023-08-21_10h46.53.323,Reversal,2023.1.3,60.13536470408257,3,
12,exp1.png,exp2.png,,0,0,0,0,0,12,12,12,,,,,,,,,,,,,,,,,,,,,,,,,False,12,13,False,exp1.png,exp2.png,trial_right_image,-1,exp2.png,3,exp2.png,exp1.png,1,3,reversed,correct,0.6446258706539247,1,valid_win,62.90827590000117,8,,,,,,,,,,,,,,,sub_331,2023-08-21_10h46.53.323,Reversal,2023.1.3,60.13536470408257,3,
13,exp3.png,exp4.png,,0,0,0,0,0,13,13,13,,,,,,,,,,,,,,,,,,,,,,,,,False,13,14,True,exp4.png,exp3.png,trial_left_image,1,exp4.png,3,exp4.png,exp3.png,1,1,non-reversed,correct,0.9242228464798851,1,valid_win,67.9734349000064,9,,,,,,,,,,,,,,,sub_331,2023-08-21_10h46.53.323,Reversal,2023.1.3,60.13536470408257,3,
14,exp1.png,exp2.png,,0,0,0,0,0,14,14,14,,,,,,,,,,,,,,,,,,,,,,,,,False,14,15,True,exp2.png,exp1.png,trial_left_image,1,exp2.png,3,exp2.png,exp1.png,1,3,reversed,correct,0.23143778303138562,0,invalid_lose,72.33790920001047,9,,,,,,,,,,,,,,,sub_331,2023-08-21_10h46.53.323,Reversal,2023.1.3,60.13536470408257,3,
15,exp3.png,exp4.png,,0,0,0,0,0,15,15,15,,,,,,,,,,,,,,,,,,,,,,,,,False,15,16,True,exp4.png,exp3.png,trial_left_image,1,exp4.png,3,exp4.png,exp3.png,1,1,non-reversed,correct,0.4193153348328381,1,valid_win,76.66990680000163,10,,,,,,,,,,,,,,,sub_331,2023-08-21_10h46.53.323,Reversal,2023.1.3,60.13536470408257,3,
16,exp1.png,exp2.png,,0,0,0,0,0,16,16,16,,,,,,,,,,,,,,,,,,,,,,,,,False,16,17,False,exp1.png,exp2.png,trial_right_image,-1,exp2.png,3,exp2.png,exp1.png,1,3,reversed,correct,0.7372352953441584,1,valid_win,81.28503199999977,11,,,,,,,,,,,,,,,sub_331,2023-08-21_10h46.53.323,Reversal,2023.1.3,60.13536470408257,3,
17,exp3.png,exp4.png,,0,0,0,0,0,17,17,17,,,,,,,,,,,,,,,,,,,,,,,,,False,17,18,True,exp4.png,exp3.png,trial_left_image,1,exp4.png,3,exp4.png,exp3.png,1,1,non-reversed,correct,0.10471421035882755,0,invalid_lose,86.08372280000185,11,,,,,,,,,,,,,,,sub_331,2023-08-21_10h46.53.323,Reversal,2023.1.3,60.13536470408257,3,
18,exp1.png,exp2.png,,0,0,0,0,0,18,18,18,,,,,,,,,,,,,,,,,,,,,,,,,False,18,19,False,exp1.png,exp2.png,trial_right_image,-1,exp2.png,3,exp2.png,exp1.png,1,3,reversed,correct,0.02349361557690821,0,invalid_lose,90.53247760000522,11,,,,,,,,,,,,,,,sub_331,2023-08-21_10h46.53.323,Reversal,2023.1.3,60.13536470408257,3,
19,exp3.png,exp4.png,,0,0,0,0,0,19,19,19,,,,,,,,,,,,,,,,,,,,,,,,,False,19,20,True,exp4.png,exp3.png,trial_right_image,-1,exp3.png,3,exp4.png,exp3.png,0,2,non-reversed,incorrect,0.966988959493099,0,valid_lose,94.6969650999963,11,,,,,,,,,,,,,,,sub_331,2023-08-21_10h46.53.323,Reversal,2023.1.3,60.13536470408257,3,
20,exp1.png,exp2.png,,0,0,0,0,0,20,20,20,,,,,,,,,,,,,,,,,,,,,,,,,True,,,,,,,,,,,,,,,,,,,,,,,,,,,,,,,,,,,sub_331,2023-08-21_10h46.53.323,Reversal,2023.1.3,60.13536470408257,3,
,,,exp1.png,0,0,0,0,,,,,0,0,0,0,0,0,0,0,,,,,,,,,,,,,,,,,,,,,,,,,,,,,,,,,,,,,,166.44777389999945,50.0,50.0,9.964078100005281,"[(50.0, 9.964078100005281)]",,,,,,,,,,sub_331,2023-08-21_10h46.53.323,Reversal,2023.1.3,60.13536470408257,3,
,,,exp2.png,0,0,0,0,,,,,0,0,0,0,0,1,1,1,,,,,,,,,,,,,,,,,,,,,,,,,,,,,,,,,,,,,,178.49774059999618,,None,None,[],,,,,,,,,,sub_331,2023-08-21_10h46.53.323,Reversal,2023.1.3,60.13536470408257,3,
,,,exp3.png,0,0,0,0,,,,,0,0,0,0,0,2,2,2,,,,,,,,,,,,,,,,,,,,,,,,,,,,,,,,,,,,,,180.81964299999527,,25.0,8.125882499996806,"[(25.0, 8.125882499996806)]",25.0,,,,,,,,,sub_331,2023-08-21_10h46.53.323,Reversal,2023.1.3,60.13536470408257,3,
,,,exp4.png,0,0,0,0,,,,,0,0,0,0,0,3,3,3,,,,,,,,,,,,,,,,,,,,,,,,,,,,,,,,,,,,,,190.56864589999896,,25.0,2.1595041999971727,"[(25.0, 2.1595041999971727)]",,25.0,,,,,,,,sub_331,2023-08-21_10h46.53.323,Reversal,2023.1.3,60.13536470408257,3,
0,exp1.png,exp2.png,,1,0,1,0,0,0,0,0,,,,,,,,,,,,,,,,,,,,,,,,,False,20,21,False,exp1.png,exp2.png,trial_right_image,-1,exp2.png,3,exp2.png,exp1.png,1,3,reversed,correct,0.9131896479125455,1,valid_win,129.25219880000805,12,,,,,,,,,,,,,,,sub_331,2023-08-21_10h46.53.323,Reversal,2023.1.3,60.13536470408257,3,
1,exp3.png,exp4.png,,1,0,1,0,0,1,1,1,,,,,,,,,,,,,,,,,,,,,,,,,False,21,22,False,exp3.png,exp4.png,trial_right_image,-1,exp4.png,3,exp4.png,exp3.png,1,1,non-reversed,correct,0.3829679232575661,1,valid_win,134.033829100008,13,,,,,,,,,,,,,,,sub_331,2023-08-21_10h46.53.323,Reversal,2023.1.3,60.13536470408257,3,
2,exp1.png,exp2.png,,1,0,1,0,0,2,2,2,,,,,,,,,,,,,,,,,,,,,,,,,False,22,23,True,exp2.png,exp1.png,trial_left_image,1,exp2.png,3,exp2.png,exp1.png,1,3,reversed,correct,0.25716574293953964,1,valid_win,138.91577570000663,14,,,,,,,,,,,,,,,sub_331,2023-08-21_10h46.53.323,Reversal,2023.1.3,60.13536470408257,3,
3,exp3.png,exp4.png,,1,0,1,0,0,3,3,3,,,,,,,,,,,,,,,,,,,,,,,,,False,23,24,False,exp3.png,exp4.png,trial_right_image,-1,exp4.png,3,exp4.png,exp3.png,1,1,non-reversed,correct,0.08436401213159161,0,invalid_lose,143.36405760000343,14,,,,,,,,,,,,,,,sub_331,2023-08-21_10h46.53.323,Reversal,2023.1.3,60.13536470408257,3,
4,exp1.png,exp2.png,,1,0,1,0,0,4,4,4,,,,,,,,,,,,,,,,,,,,,,,,,False,24,25,True,exp2.png,exp1.png,trial_left_image,1,exp2.png,3,exp2.png,exp1.png,1,3,reversed,correct,0.6213462861601625,1,valid_win,147.79594219999854,15,,,,,,,,,,,,,,,sub_331,2023-08-21_10h46.53.323,Reversal,2023.1.3,60.13536470408257,3,
5,exp3.png,exp4.png,,1,0,1,0,0,5,5,5,,,,,,,,,,,,,,,,,,,,,,,,,False,25,26,False,exp3.png,exp4.png,trial_right_image,-1,exp4.png,3,exp4.png,exp3.png,1,1,non-reversed,correct,0.04125871172247786,0,invalid_lose,151.86142860000837,15,,,,,,,,,,,,,,,sub_331,2023-08-21_10h46.53.323,Reversal,2023.1.3,60.13536470408257,3,
6,exp1.png,exp2.png,,1,0,1,0,0,6,6,6,,,,,,,,,,,,,,,,,,,,,,,,,False,26,27,False,exp1.png,exp2.png,trial_left_image,1,exp1.png,3,exp2.png,exp1.png,0,4,reversed,incorrect,0.440767360398705,0,valid_lose,156.25956430000952,15,,,,,,,,,,,,,,,sub_331,2023-08-21_10h46.53.323,Reversal,2023.1.3,60.13536470408257,3,
7,exp3.png,exp4.png,,1,0,1,0,0,7,7,7,,,,,,,,,,,,,,,,,,,,,,,,,False,27,28,True,exp4.png,exp3.png,trial_left_image,1,exp4.png,3,exp4.png,exp3.png,1,1,non-reversed,correct,0.12057861614792842,0,invalid_lose,160.8253698000044,15,,,,,,,,,,,,,,,sub_331,2023-08-21_10h46.53.323,Reversal,2023.1.3,60.13536470408257,3,
8,exp1.png,exp2.png,,1,0,1,0,0,8,8,8,,,,,,,,,,,,,,,,,,,,,,,,,False,28,29,False,exp1.png,exp2.png,trial_right_image,-1,exp2.png,3,exp2.png,exp1.png,1,3,reversed,correct,0.1586825600635513,0,invalid_lose,164.8733024000103,15,,,,,,,,,,,,,,,sub_331,2023-08-21_10h46.53.323,Reversal,2023.1.3,60.13536470408257,3,
9,exp3.png,exp4.png,,1,0,1,0,0,9,9,9,,,,,,,,,,,,,,,,,,,,,,,,,False,29,30,True,exp4.png,exp3.png,trial_right_image,-1,exp3.png,3,exp4.png,exp3.png,0,2,non-reversed,incorrect,0.16572604923890055,1,invalid_win,168.85558109999693,16,,,,,,,,,,,,,,,sub_331,2023-08-21_10h46.53.323,Reversal,2023.1.3,60.13536470408257,3,
10,exp1.png,exp2.png,,1,0,1,0,0,10,10,10,,,,,,,,,,,,,,,,,,,,,,,,,False,30,31,True,exp2.png,exp1.png,trial_right_image,-1,exp1.png,3,exp2.png,exp1.png,0,4,reversed,incorrect,0.6289217605543038,0,valid_lose,173.12076669999806,16,,,,,,,,,,,,,,,sub_331,2023-08-21_10h46.53.323,Reversal,2023.1.3,60.13536470408257,3,
11,exp3.png,exp4.png,,1,0,1,0,0,11,11,11,,,,,,,,,,,,,,,,,,,,,,,,,False,31,32,True,exp4.png,exp3.png,trial_right_image,-1,exp3.png,3,exp4.png,exp3.png,0,2,non-reversed,incorrect,0.4340902284693169,0,valid_lose,177.30254330000025,16,,,,,,,,,,,,,,,sub_331,2023-08-21_10h46.53.323,Reversal,2023.1.3,60.13536470408257,3,
12,exp1.png,exp2.png,,1,0,1,0,0,12,12,12,,,,,,,,,,,,,,,,,,,,,,,,,False,32,33,False,exp1.png,exp2.png,trial_right_image,-1,exp2.png,3,exp2.png,exp1.png,1,3,reversed,correct,0.11359476923647482,0,invalid_lose,181.73416910000378,16,,,,,,,,,,,,,,,sub_331,2023-08-21_10h46.53.323,Reversal,2023.1.3,60.13536470408257,3,
13,exp3.png,exp4.png,,1,0,1,0,0,13,13,13,,,,,,,,,,,,,,,,,,,,,,,,,False,33,34,False,exp3.png,exp4.png,trial_right_image,-1,exp4.png,3,exp4.png,exp3.png,1,1,non-reversed,correct,0.2630994707877057,1,valid_win,187.91602210000565,17,,,,,,,,,,,,,,,sub_331,2023-08-21_10h46.53.323,Reversal,2023.1.3,60.13536470408257,3,
14,exp1.png,exp2.png,,1,0,1,0,0,14,14,14,,,,,,,,,,,,,,,,,,,,,,,,,False,34,35,False,exp1.png,exp2.png,trial_right_image,-1,exp2.png,3,exp2.png,exp1.png,1,3,reversed,correct,0.6105904814031411,1,valid_win,192.9144540999987,18,,,,,,,,,,,,,,,sub_331,2023-08-21_10h46.53.323,Reversal,2023.1.3,60.13536470408257,3,
15,exp3.png,exp4.png,,1,0,1,0,0,15,15,15,,,,,,,,,,,,,,,,,,,,,,,,,False,35,36,True,exp4.png,exp3.png,trial_right_image,-1,exp3.png,3,exp4.png,exp3.png,0,2,non-reversed,incorrect,0.5459834392410451,0,valid_lose,198.92872239999997,18,,,,,,,,,,,,,,,sub_331,2023-08-21_10h46.53.323,Reversal,2023.1.3,60.13536470408257,3,
16,exp1.png,exp2.png,,1,0,1,0,0,16,16,16,,,,,,,,,,,,,,,,,,,,,,,,,False,36,37,True,exp2.png,exp1.png,trial_left_image,1,exp2.png,3,exp2.png,exp1.png,1,3,reversed,correct,0.3175224238480552,1,valid_win,203.42945480000344,19,,,,,,,,,,,,,,,sub_331,2023-08-21_10h46.53.323,Reversal,2023.1.3,60.13536470408257,3,
17,exp3.png,exp4.png,,1,0,1,0,0,17,17,17,,,,,,,,,,,,,,,,,,,,,,,,,False,37,38,True,exp4.png,exp3.png,trial_left_image,1,exp4.png,3,exp4.png,exp3.png,1,1,non-reversed,correct,0.641701639662419,1,valid_win,210.09148250000726,20,,,,,,,,,,,,,,,sub_331,2023-08-21_10h46.53.323,Reversal,2023.1.3,60.13536470408257,3,
18,exp1.png,exp2.png,,1,0,1,0,0,18,18,18,,,,,,,,,,,,,,,,,,,,,,,,,False,38,39,False,exp1.png,exp2.png,trial_right_image,-1,exp2.png,3,exp2.png,exp1.png,1,3,reversed,correct,0.8652741620360564,1,valid_win,215.72312059999967,21,,,,,,,,,,,,,,,sub_331,2023-08-21_10h46.53.323,Reversal,2023.1.3,60.13536470408257,3,
19,exp3.png,exp4.png,,1,0,1,0,0,19,19,19,,,,,,,,,,,,,,,,,,,,,,,,,False,39,40,True,exp4.png,exp3.png,trial_right_image,-1,exp3.png,3,exp4.png,exp3.png,0,2,non-reversed,incorrect,0.8392621560475049,0,valid_lose,219.988829599999,21,,,,,,,,,,,,,,,sub_331,2023-08-21_10h46.53.323,Reversal,2023.1.3,60.13536470408257,3,
20,exp1.png,exp2.png,,1,0,1,0,0,20,20,20,,,,,,,,,,,,,,,,,,,,,,,,,True,,,,,,,,,,,,,,,,,,,,,,,,,,,,,,,,,,,sub_331,2023-08-21_10h46.53.323,Reversal,2023.1.3,60.13536470408257,3,
,,,exp1.png,1,0,1,0,,,,,0,0,0,0,0,0,0,0,,,,,,,,,,,,,,,,,,,,,,,,,,,,,,,,,,,,,,291.7298761999991,24.0,24.0,4.351178099997924,"[(24.0, 4.351178099997924)]",,,,,,,,,,sub_331,2023-08-21_10h46.53.323,Reversal,2023.1.3,60.13536470408257,3,
,,,exp2.png,1,0,1,0,,,,,0,0,0,0,0,1,1,1,,,,,,,,,,,,,,,,,,,,,,,,,,,,,,,,,,,,,,297.2815327999997,,24.0,1.8779527000006055,"[(24.0, 1.8779527000006055)]",,,24.0,,,,,,,sub_331,2023-08-21_10h46.53.323,Reversal,2023.1.3,60.13536470408257,3,
,,,exp3.png,1,0,1,0,,,,,0,0,0,0,0,2,2,2,,,,,,,,,,,,,,,,,,,,,,,,,,,,,,,,,,,,,,300.2967099999951,,23.0,1.3949206000106642,"[(23.0, 1.3949206000106642)]",23.0,,,,,,,,,sub_331,2023-08-21_10h46.53.323,Reversal,2023.1.3,60.13536470408257,3,
,,,exp4.png,1,0,1,0,,,,,0,0,0,0,0,3,3,3,,,,,,,,,,,,,,,,,,,,,,,,,,,,,,,,,,,,,,302.92944510000234,,21.0,1.34481880000385,"[(21.0, 1.34481880000385)]",,21.0,,,,,,,,sub_331,2023-08-21_10h46.53.323,Reversal,2023.1.3,60.13536470408257,3,
0,exp1.png,exp2.png,,2,0,2,0,0,0,0,0,,,,,,,,,,,,,,,,,,,,,,,,,False,40,41,False,exp1.png,exp2.png,trial_right_image,-1,exp2.png,3,exp2.png,exp1.png,1,3,reversed,correct,0.11521763326892476,0,invalid_lose,238.5983569000091,21,,,,,,,,,,,,,,,sub_331,2023-08-21_10h46.53.323,Reversal,2023.1.3,60.13536470408257,3,
1,exp3.png,exp4.png,,2,0,2,0,0,1,1,1,,,,,,,,,,,,,,,,,,,,,,,,,False,41,42,True,exp4.png,exp3.png,trial_right_image,-1,exp3.png,3,exp4.png,exp3.png,0,2,non-reversed,incorrect,0.8220484873783049,0,valid_lose,242.8807133000082,21,,,,,,,,,,,,,,,sub_331,2023-08-21_10h46.53.323,Reversal,2023.1.3,60.13536470408257,3,
2,exp1.png,exp2.png,,2,0,2,0,0,2,2,2,,,,,,,,,,,,,,,,,,,,,,,,,False,42,43,False,exp1.png,exp2.png,trial_right_image,-1,exp2.png,3,exp2.png,exp1.png,1,3,reversed,correct,0.2382782239427521,0,invalid_lose,247.4793314999988,21,,,,,,,,,,,,,,,sub_331,2023-08-21_10h46.53.323,Reversal,2023.1.3,60.13536470408257,3,
3,exp3.png,exp4.png,,2,0,2,0,0,3,3,3,,,,,,,,,,,,,,,,,,,,,,,,,False,43,44,True,exp4.png,exp3.png,trial_left_image,1,exp4.png,3,exp4.png,exp3.png,1,1,non-reversed,correct,0.7298410956472215,1,valid_win,253.09389309999824,22,,,,,,,,,,,,,,,sub_331,2023-08-21_10h46.53.323,Reversal,2023.1.3,60.13536470408257,3,
4,exp1.png,exp2.png,,2,0,2,0,0,4,4,4,,,,,,,,,,,,,,,,,,,,,,,,,False,44,45,True,exp2.png,exp1.png,trial_right_image,-1,exp1.png,3,exp2.png,exp1.png,0,4,reversed,incorrect,0.39356262381598406,0,valid_lose,259.30879140000616,22,,,,,,,,,,,,,,,sub_331,2023-08-21_10h46.53.323,Reversal,2023.1.3,60.13536470408257,3,
5,exp3.png,exp4.png,,2,0,2,0,0,5,5,5,,,,,,,,,,,,,,,,,,,,,,,,,False,45,46,True,exp4.png,exp3.png,trial_left_image,1,exp4.png,3,exp4.png,exp3.png,1,1,non-reversed,correct,0.05619781947830882,0,invalid_lose,263.8901765000046,22,,,,,,,,,,,,,,,sub_331,2023-08-21_10h46.53.323,Reversal,2023.1.3,60.13536470408257,3,
6,exp1.png,exp2.png,,2,0,2,0,0,6,6,6,,,,,,,,,,,,,,,,,,,,,,,,,False,46,47,True,exp2.png,exp1.png,trial_left_image,1,exp2.png,3,exp2.png,exp1.png,1,3,reversed,correct,0.9123257968807393,1,valid_win,268.7050861000025,23,,,,,,,,,,,,,,,sub_331,2023-08-21_10h46.53.323,Reversal,2023.1.3,60.13536470408257,3,
7,exp3.png,exp4.png,,2,0,2,0,0,7,7,7,,,,,,,,,,,,,,,,,,,,,,,,,False,47,48,True,exp4.png,exp3.png,trial_left_image,1,exp4.png,3,exp4.png,exp3.png,1,1,non-reversed,correct,0.6343386837241516,1,valid_win,272.9869722000003,24,,,,,,,,,,,,,,,sub_331,2023-08-21_10h46.53.323,Reversal,2023.1.3,60.13536470408257,3,
8,exp1.png,exp2.png,,2,0,2,0,0,8,8,8,,,,,,,,,,,,,,,,,,,,,,,,,False,48,49,False,exp1.png,exp2.png,trial_right_image,-1,exp2.png,3,exp2.png,exp1.png,1,3,reversed,correct,0.143738893955626,0,invalid_lose,277.5685322000063,24,,,,,,,,,,,,,,,sub_331,2023-08-21_10h46.53.323,Reversal,2023.1.3,60.13536470408257,3,
9,exp3.png,exp4.png,,2,0,2,0,0,9,9,9,,,,,,,,,,,,,,,,,,,,,,,,,False,49,50,False,exp3.png,exp4.png,trial_right_image,-1,exp4.png,3,exp4.png,exp3.png,1,1,non-reversed,correct,0.059226488009195055,0,invalid_lose,281.96751790000417,24,,,,,,,,,,,,,,,sub_331,2023-08-21_10h46.53.323,Reversal,2023.1.3,60.13536470408257,3,
10,exp1.png,exp2.png,,2,0,2,0,0,10,10,10,,,,,,,,,,,,,,,,,,,,,,,,,False,50,51,False,exp1.png,exp2.png,trial_left_image,1,exp1.png,3,exp2.png,exp1.png,0,4,reversed,incorrect,0.27995023014978004,0,valid_lose,286.31570420000935,24,,,,,,,,,,,,,,,sub_331,2023-08-21_10h46.53.323,Reversal,2023.1.3,60.13536470408257,3,
11,exp3.png,exp4.png,,2,0,2,0,0,11,11,11,,,,,,,,,,,,,,,,,,,,,,,,,False,51,52,True,exp4.png,exp3.png,trial_right_image,-1,exp3.png,3,exp4.png,exp3.png,0,2,non-reversed,incorrect,0.6406471540765485,0,valid_lose,292.3306891000102,24,,,,,,,,,,,,,,,sub_331,2023-08-21_10h46.53.323,Reversal,2023.1.3,60.13536470408257,3,
12,exp1.png,exp2.png,,2,0,2,0,0,12,12,12,,,,,,,,,,,,,,,,,,,,,,,,,False,52,53,False,exp1.png,exp2.png,trial_right_image,-1,exp2.png,3,exp2.png,exp1.png,1,3,reversed,correct,0.7900730719761426,1,valid_win,296.69556320000265,25,,,,,,,,,,,,,,,sub_331,2023-08-21_10h46.53.323,Reversal,2023.1.3,60.13536470408257,3,
13,exp3.png,exp4.png,,2,0,2,0,0,13,13,13,,,,,,,,,,,,,,,,,,,,,,,,,False,53,54,False,exp3.png,exp4.png,trial_left_image,1,exp3.png,3,exp4.png,exp3.png,0,2,non-reversed,incorrect,0.21974671505135845,1,invalid_win,303.8269475999987,26,,,,,,,,,,,,,,,sub_331,2023-08-21_10h46.53.323,Reversal,2023.1.3,60.13536470408257,3,
14,exp1.png,exp2.png,,2,0,2,0,0,14,14,14,,,,,,,,,,,,,,,,,,,,,,,,,False,54,55,False,exp1.png,exp2.png,trial_right_image,-1,exp2.png,3,exp2.png,exp1.png,1,3,reversed,correct,0.2180542329275057,0,invalid_lose,308.1250967000087,26,,,,,,,,,,,,,,,sub_331,2023-08-21_10h46.53.323,Reversal,2023.1.3,60.13536470408257,3,
15,exp3.png,exp4.png,,2,0,2,0,0,15,15,15,,,,,,,,,,,,,,,,,,,,,,,,,False,55,56,False,exp3.png,exp4.png,trial_right_image,-1,exp4.png,3,exp4.png,exp3.png,1,1,non-reversed,correct,0.0463585237827403,0,invalid_lose,314.10645659999864,26,,,,,,,,,,,,,,,sub_331,2023-08-21_10h46.53.323,Reversal,2023.1.3,60.13536470408257,3,
16,exp1.png,exp2.png,,2,0,2,0,0,16,16,16,,,,,,,,,,,,,,,,,,,,,,,,,False,56,57,True,exp2.png,exp1.png,trial_right_image,-1,exp1.png,3,exp2.png,exp1.png,0,4,reversed,incorrect,0.4900440628099241,0,valid_lose,319.43771990000096,26,,,,,,,,,,,,,,,sub_331,2023-08-21_10h46.53.323,Reversal,2023.1.3,60.13536470408257,3,
17,exp3.png,exp4.png,,2,0,2,0,0,17,17,17,,,,,,,,,,,,,,,,,,,,,,,,,False,57,58,True,exp4.png,exp3.png,trial_left_image,1,exp4.png,3,exp4.png,exp3.png,1,1,non-reversed,correct,0.6180697670450384,1,valid_win,323.5697074000054,27,,,,,,,,,,,,,,,sub_331,2023-08-21_10h46.53.323,Reversal,2023.1.3,60.13536470408257,3,
18,exp1.png,exp2.png,,2,0,2,0,0,18,18,18,,,,,,,,,,,,,,,,,,,,,,,,,False,58,59,False,exp1.png,exp2.png,trial_left_image,1,exp1.png,3,exp2.png,exp1.png,0,4,reversed,incorrect,0.4134562447370226,0,valid_lose,328.21813370000746,27,,,,,,,,,,,,,,,sub_331,2023-08-21_10h46.53.323,Reversal,2023.1.3,60.13536470408257,3,
19,exp3.png,exp4.png,,2,0,2,0,0,19,19,19,,,,,,,,,,,,,,,,,,,,,,,,,False,59,60,True,exp4.png,exp3.png,trial_left_image,1,exp4.png,3,exp4.png,exp3.png,1,1,non-reversed,correct,0.6218478432923004,1,valid_win,333.44994420000876,28,,,,,,,,,,,,,,,sub_331,2023-08-21_10h46.53.323,Reversal,2023.1.3,60.13536470408257,3,
20,exp1.png,exp2.png,,2,0,2,0,0,20,20,20,,,,,,,,,,,,,,,,,,,,,,,,,True,,,,,,,,,,,,,,,,,,,,,,,,,,,,,,,,,,,sub_331,2023-08-21_10h46.53.323,Reversal,2023.1.3,60.13536470408257,3,
,,,exp1.png,2,0,2,0,,,,,0,0,0,0,0,0,0,0,,,,,,,,,,,,,,,,,,,,,,,,,,,,,,,,,,,,,,405.2016578000039,26.0,26.0,6.558694099992863,"[(26.0, 6.558694099992863)]",,,,,,,,,,sub_331,2023-08-21_10h46.53.323,Reversal,2023.1.3,60.13536470408257,3,
,,,exp2.png,2,0,2,0,,,,,0,0,0,0,0,1,1,1,,,,,,,,,,,,,,,,,,,,,,,,,,,,,,,,,,,,,,415.214378699995,,24.0,1.1940873999992618,"[(24.0, 1.1940873999992618)]",,,24.0,,,,,,,sub_331,2023-08-21_10h46.53.323,Reversal,2023.1.3,60.13536470408257,3,
,,,exp3.png,2,0,2,0,,,,,0,0,0,0,0,2,2,2,,,,,,,,,,,,,,,,,,,,,,,,,,,,,,,,,,,,,,417.39281279999705,,24.0,1.2117689000006067,"[(24.0, 1.2117689000006067)]",24.0,,,,,,,,,sub_331,2023-08-21_10h46.53.323,Reversal,2023.1.3,60.13536470408257,3,
,,,exp4.png,2,0,2,0,,,,,0,0,0,0,0,3,3,3,,,,,,,,,,,,,,,,,,,,,,,,,,,,,,,,,,,,,,419.655505600007,,23.0,0.9955531000014162,"[(23.0, 0.9955531000014162)]",,23.0,,,,,,,,sub_331,2023-08-21_10h46.53.323,Reversal,2023.1.3,60.13536470408257,3,
0,exp1.png,exp2.png,,3,0,3,0,0,0,0,0,,,,,,,,,,,,,,,,,,,,,,,,,False,60,61,True,exp2.png,exp1.png,trial_right_image,-1,exp1.png,3,exp2.png,exp1.png,0,4,reversed,incorrect,0.07241532503853665,1,invalid_win,355.1090455000085,29,,,,,,,,,,,,,,,sub_331,2023-08-21_10h46.53.323,Reversal,2023.1.3,60.13536470408257,3,
1,exp3.png,exp4.png,,3,0,3,0,0,1,1,1,,,,,,,,,,,,,,,,,,,,,,,,,False,61,62,True,exp4.png,exp3.png,trial_left_image,1,exp4.png,3,exp4.png,exp3.png,1,1,non-reversed,correct,0.4169194198659891,1,valid_win,360.2412825000065,30,,,,,,,,,,,,,,,sub_331,2023-08-21_10h46.53.323,Reversal,2023.1.3,60.13536470408257,3,
2,exp1.png,exp2.png,,3,0,3,0,0,2,2,2,,,,,,,,,,,,,,,,,,,,,,,,,False,62,63,True,exp2.png,exp1.png,trial_right_image,-1,exp1.png,3,exp2.png,exp1.png,0,4,reversed,incorrect,0.7869824685034776,0,valid_lose,364.8727862000087,30,,,,,,,,,,,,,,,sub_331,2023-08-21_10h46.53.323,Reversal,2023.1.3,60.13536470408257,3,
3,exp3.png,exp4.png,,3,0,3,0,0,3,3,3,,,,,,,,,,,,,,,,,,,,,,,,,False,63,64,True,exp4.png,exp3.png,trial_left_image,1,exp4.png,3,exp4.png,exp3.png,1,1,non-reversed,correct,0.21514210217639074,0,invalid_lose,369.0215248000022,30,,,,,,,,,,,,,,,sub_331,2023-08-21_10h46.53.323,Reversal,2023.1.3,60.13536470408257,3,
4,exp1.png,exp2.png,,3,0,3,0,0,4,4,4,,,,,,,,,,,,,,,,,,,,,,,,,False,64,65,True,exp2.png,exp1.png,trial_left_image,1,exp2.png,3,exp2.png,exp1.png,1,3,reversed,correct,0.2684779846481876,1,valid_win,373.1531013000058,31,,,,,,,,,,,,,,,sub_331,2023-08-21_10h46.53.323,Reversal,2023.1.3,60.13536470408257,3,
5,exp3.png,exp4.png,,3,0,3,0,0,5,5,5,,,,,,,,,,,,,,,,,,,,,,,,,False,65,66,False,exp3.png,exp4.png,trial_right_image,-1,exp4.png,3,exp4.png,exp3.png,1,1,non-reversed,correct,0.5304201120578453,1,valid_win,377.6847604000068,32,,,,,,,,,,,,,,,sub_331,2023-08-21_10h46.53.323,Reversal,2023.1.3,60.13536470408257,3,
6,exp1.png,exp2.png,,3,0,3,0,0,6,6,6,,,,,,,,,,,,,,,,,,,,,,,,,False,66,67,False,exp1.png,exp2.png,trial_right_image,-1,exp2.png,3,exp2.png,exp1.png,1,3,reversed,correct,0.25958593293303933,1,valid_win,382.63327639999625,33,,,,,,,,,,,,,,,sub_331,2023-08-21_10h46.53.323,Reversal,2023.1.3,60.13536470408257,3,
7,exp3.png,exp4.png,,3,0,3,0,0,7,7,7,,,,,,,,,,,,,,,,,,,,,,,,,False,67,68,True,exp4.png,exp3.png,trial_left_image,1,exp4.png,3,exp4.png,exp3.png,1,1,non-reversed,correct,0.39408731606782443,1,valid_win,387.4482786000008,34,,,,,,,,,,,,,,,sub_331,2023-08-21_10h46.53.323,Reversal,2023.1.3,60.13536470408257,3,
8,exp1.png,exp2.png,,3,0,3,0,0,8,8,8,,,,,,,,,,,,,,,,,,,,,,,,,False,68,69,True,exp2.png,exp1.png,trial_left_image,1,exp2.png,3,exp2.png,exp1.png,1,3,reversed,correct,0.7021203720578728,1,valid_win,392.2799354000017,35,,,,,,,,,,,,,,,sub_331,2023-08-21_10h46.53.323,Reversal,2023.1.3,60.13536470408257,3,
9,exp3.png,exp4.png,,3,0,3,0,0,9,9,9,,,,,,,,,,,,,,,,,,,,,,,,,False,69,70,False,exp3.png,exp4.png,trial_right_image,-1,exp4.png,3,exp4.png,exp3.png,1,1,non-reversed,correct,0.9470380405327795,1,valid_win,396.47881580000103,36,,,,,,,,,,,,,,,sub_331,2023-08-21_10h46.53.323,Reversal,2023.1.3,60.13536470408257,3,
10,exp1.png,exp2.png,,3,0,3,0,0,10,10,10,,,,,,,,,,,,,,,,,,,,,,,,,False,70,71,False,exp1.png,exp2.png,trial_right_image,-1,exp2.png,3,exp2.png,exp1.png,1,3,reversed,correct,0.5312547210094497,1,valid_win,401.01088000000163,37,,,,,,,,,,,,,,,sub_331,2023-08-21_10h46.53.323,Reversal,2023.1.3,60.13536470408257,3,
11,exp3.png,exp4.png,,3,0,3,0,0,11,11,11,,,,,,,,,,,,,,,,,,,,,,,,,False,71,72,False,exp3.png,exp4.png,trial_right_image,-1,exp4.png,3,exp4.png,exp3.png,1,1,non-reversed,correct,0.7073994754677789,1,valid_win,405.1759512999997,38,,,,,,,,,,,,,,,sub_331,2023-08-21_10h46.53.323,Reversal,2023.1.3,60.13536470408257,3,
12,exp1.png,exp2.png,,3,0,3,0,0,12,12,12,,,,,,,,,,,,,,,,,,,,,,,,,False,72,73,False,exp1.png,exp2.png,trial_right_image,-1,exp2.png,3,exp2.png,exp1.png,1,3,reversed,correct,0.7608765801082104,1,valid_win,409.3076335000078,39,,,,,,,,,,,,,,,sub_331,2023-08-21_10h46.53.323,Reversal,2023.1.3,60.13536470408257,3,
13,exp3.png,exp4.png,,3,0,3,0,0,13,13,13,,,,,,,,,,,,,,,,,,,,,,,,,False,73,74,False,exp3.png,exp4.png,trial_right_image,-1,exp4.png,3,exp4.png,exp3.png,1,1,non-reversed,correct,0.1265088180259729,0,invalid_lose,415.4720703000057,39,,,,,,,,,,,,,,,sub_331,2023-08-21_10h46.53.323,Reversal,2023.1.3,60.13536470408257,3,
14,exp1.png,exp2.png,,3,0,3,0,0,14,14,14,,,,,,,,,,,,,,,,,,,,,,,,,False,74,75,False,exp1.png,exp2.png,trial_right_image,-1,exp2.png,3,exp2.png,exp1.png,1,3,reversed,correct,0.6257844140850437,1,valid_win,421.8699273000093,40,,,,,,,,,,,,,,,sub_331,2023-08-21_10h46.53.323,Reversal,2023.1.3,60.13536470408257,3,
15,exp3.png,exp4.png,,3,0,3,0,0,15,15,15,,,,,,,,,,,,,,,,,,,,,,,,,False,75,76,False,exp3.png,exp4.png,trial_right_image,-1,exp4.png,3,exp4.png,exp3.png,1,1,non-reversed,correct,0.8034117164880304,1,valid_win,426.0687620000099,41,,,,,,,,,,,,,,,sub_331,2023-08-21_10h46.53.323,Reversal,2023.1.3,60.13536470408257,3,
16,exp1.png,exp2.png,,3,0,3,0,0,16,16,16,,,,,,,,,,,,,,,,,,,,,,,,,False,76,77,True,exp2.png,exp1.png,trial_left_image,1,exp2.png,3,exp2.png,exp1.png,1,3,reversed,correct,0.42949454015402255,1,valid_win,430.63362130000314,42,,,,,,,,,,,,,,,sub_331,2023-08-21_10h46.53.323,Reversal,2023.1.3,60.13536470408257,3,
17,exp3.png,exp4.png,,3,0,3,0,0,17,17,17,,,,,,,,,,,,,,,,,,,,,,,,,False,77,78,False,exp3.png,exp4.png,trial_right_image,-1,exp4.png,3,exp4.png,exp3.png,1,1,non-reversed,correct,0.8670866113169419,1,valid_win,435.94873430000735,43,,,,,,,,,,,,,,,sub_331,2023-08-21_10h46.53.323,Reversal,2023.1.3,60.13536470408257,3,
18,exp1.png,exp2.png,,3,0,3,0,0,18,18,18,,,,,,,,,,,,,,,,,,,,,,,,,False,78,79,True,exp2.png,exp1.png,trial_left_image,1,exp2.png,3,exp2.png,exp1.png,1,3,reversed,correct,0.6734815463425313,1,valid_win,440.5639474000054,44,,,,,,,,,,,,,,,sub_331,2023-08-21_10h46.53.323,Reversal,2023.1.3,60.13536470408257,3,
19,exp3.png,exp4.png,,3,0,3,0,0,19,19,19,,,,,,,,,,,,,,,,,,,,,,,,,False,79,80,True,exp4.png,exp3.png,trial_left_image,1,exp4.png,3,exp4.png,exp3.png,1,1,non-reversed,correct,0.34814168957983416,1,valid_win,445.1128793000098,45,,,,,,,,,,,,,,,sub_331,2023-08-21_10h46.53.323,Reversal,2023.1.3,60.13536470408257,3,
20,exp1.png,exp2.png,,3,0,3,0,0,20,20,20,,,,,,,,,,,,,,,,,,,,,,,,,True,,,,,,,,,,,,,,,,,,,,,,,,,,,,,,,,,,,sub_331,2023-08-21_10h46.53.323,Reversal,2023.1.3,60.13536470408257,3,
,,,exp1.png,3,0,3,0,,,,,0,0,0,0,0,0,0,0,,,,,,,,,,,,,,,,,,,,,,,,,,,,,,,,,,,,,,516.8716211999999,23.0,23.0,4.950712999998359,"[(23.0, 4.950712999998359)]",,,,,,,,,,sub_331,2023-08-21_10h46.53.323,Reversal,2023.1.3,60.13536470408257,3,
,,,exp2.png,3,0,3,0,,,,,0,0,0,0,0,1,1,1,,,,,,,,,,,,,,,,,,,,,,,,,,,,,,,,,,,,,,523.056494599994,,78.0,2.1104925999970874,"[(78.0, 2.1104925999970874)]",,,78.0,,,,,,,sub_331,2023-08-21_10h46.53.323,Reversal,2023.1.3,60.13536470408257,3,
,,,exp3.png,3,0,3,0,,,,,0,0,0,0,0,2,2,2,,,,,,,,,,,,,,,,,,,,,,,,,,,,,,,,,,,,,,526.3206358000025,,24.0,1.494108699989738,"[(24.0, 1.494108699989738)]",24.0,,,,,,,,,sub_331,2023-08-21_10h46.53.323,Reversal,2023.1.3,60.13536470408257,3,
,,,exp4.png,3,0,3,0,,,,,0,0,0,0,0,3,3,3,,,,,,,,,,,,,,,,,,,,,,,,,,,,,,,,,,,,,,528.9519360999984,,73.0,1.3122395999962464,"[(73.0, 1.3122395999962464)]",,73.0,,,,,,,,sub_331,2023-08-21_10h46.53.323,Reversal,2023.1.3,60.13536470408257,3,
0,exp1.png,exp2.png,,,,,,,,,,,,,,,,,,0,0,0,0,0,0,0,0,,,,,,,,,False,0,81,False,exp1.png,exp2.png,trial_right_image,-1,exp2.png,3,exp1.png,exp2.png,1,3,reversed,incorrect,0.1586076175219493,1,invalid_win,464.3222539999988,46,,,,,,,,,462.08191619999707,,,,,,sub_331,2023-08-21_10h46.53.323,Reversal,2023.1.3,60.13536470408257,3,
1,exp3.png,exp4.png,,,,,,,,,,,,,,,,,,0,0,0,0,0,1,1,1,,,,,,,,,False,1,82,True,exp4.png,exp3.png,trial_left_image,1,exp4.png,3,exp4.png,exp3.png,1,1,non-reversed,correct,0.5657318025667628,1,valid_win,468.82102970000415,47,,,,,,,,,,,,,,,sub_331,2023-08-21_10h46.53.323,Reversal,2023.1.3,60.13536470408257,3,
2,exp1.png,exp2.png,,,,,,,,,,,,,,,,,,0,0,0,0,0,2,2,2,,,,,,,,,False,2,83,True,exp2.png,exp1.png,trial_left_image,1,exp2.png,3,exp1.png,exp2.png,1,3,reversed,incorrect,0.36024374747148213,0,valid_lose,473.40258480000193,47,,,,,,,,,,,,,,,sub_331,2023-08-21_10h46.53.323,Reversal,2023.1.3,60.13536470408257,3,
3,exp3.png,exp4.png,,,,,,,,,,,,,,,,,,0,0,0,0,0,3,3,3,,,,,,,,,False,3,84,False,exp3.png,exp4.png,trial_right_image,-1,exp4.png,3,exp4.png,exp3.png,1,1,non-reversed,correct,0.26159398350718444,1,valid_win,477.834440000006,48,,,,,,,,,,,,,,,sub_331,2023-08-21_10h46.53.323,Reversal,2023.1.3,60.13536470408257,3,
4,exp1.png,exp2.png,,,,,,,,,,,,,,,,,,0,0,0,0,0,4,4,4,,,,,,,,,False,4,85,False,exp1.png,exp2.png,trial_right_image,-1,exp2.png,3,exp1.png,exp2.png,1,3,reversed,incorrect,0.7388749253985434,0,valid_lose,482.31628700000874,48,,,,,,,,,,,,,,,sub_331,2023-08-21_10h46.53.323,Reversal,2023.1.3,60.13536470408257,3,
5,exp3.png,exp4.png,,,,,,,,,,,,,,,,,,0,0,0,0,0,5,5,5,,,,,,,,,False,5,86,True,exp4.png,exp3.png,trial_left_image,1,exp4.png,3,exp4.png,exp3.png,1,1,non-reversed,correct,0.547588803465212,1,valid_win,486.6646369000082,49,,,,,,,,,,,,,,,sub_331,2023-08-21_10h46.53.323,Reversal,2023.1.3,60.13536470408257,3,
6,exp1.png,exp2.png,,,,,,,,,,,,,,,,,,0,0,0,0,0,6,6,6,,,,,,,,,False,6,87,True,exp2.png,exp1.png,trial_left_image,1,exp2.png,3,exp1.png,exp2.png,1,3,reversed,incorrect,0.3992057931106059,0,valid_lose,491.3799774000072,49,,,,,,,,,,,,,,,sub_331,2023-08-21_10h46.53.323,Reversal,2023.1.3,60.13536470408257,3,
7,exp3.png,exp4.png,,,,,,,,,,,,,,,,,,0,0,0,0,0,7,7,7,,,,,,,,,False,7,88,True,exp4.png,exp3.png,trial_left_image,1,exp4.png,3,exp4.png,exp3.png,1,1,non-reversed,correct,0.3690991320017729,1,valid_win,495.69489830000384,50,,,,,,,,,,,,,,,sub_331,2023-08-21_10h46.53.323,Reversal,2023.1.3,60.13536470408257,3,
8,exp1.png,exp2.png,,,,,,,,,,,,,,,,,,0,0,0,0,0,8,8,8,,,,,,,,,False,8,89,False,exp1.png,exp2.png,trial_right_image,-1,exp2.png,3,exp1.png,exp2.png,1,3,reversed,incorrect,0.5520918230485636,0,valid_lose,500.21038810000755,50,,,,,,,,,,,,,,,sub_331,2023-08-21_10h46.53.323,Reversal,2023.1.3,60.13536470408257,3,
9,exp3.png,exp4.png,,,,,,,,,,,,,,,,,,0,0,0,0,0,9,9,9,,,,,,,,,False,9,90,True,exp4.png,exp3.png,trial_right_image,-1,exp3.png,3,exp4.png,exp3.png,0,2,non-reversed,incorrect,0.878800484850572,0,valid_lose,504.2421856000001,50,,,,,,,,,,,,,,,sub_331,2023-08-21_10h46.53.323,Reversal,2023.1.3,60.13536470408257,3,
10,exp1.png,exp2.png,,,,,,,,,,,,,,,,,,0,0,0,0,0,10,10,10,,,,,,,,,False,10,91,False,exp1.png,exp2.png,trial_left_image,1,exp1.png,3,exp1.png,exp2.png,0,4,reversed,correct,0.822013171631172,1,valid_win,508.7740107999998,51,,,,,,,,,,,,,,,sub_331,2023-08-21_10h46.53.323,Reversal,2023.1.3,60.13536470408257,3,
11,exp3.png,exp4.png,,,,,,,,,,,,,,,,,,0,0,0,0,0,11,11,11,,,,,,,,,False,11,92,True,exp4.png,exp3.png,trial_left_image,1,exp4.png,3,exp4.png,exp3.png,1,1,non-reversed,correct,0.5051233276373768,1,valid_win,513.1225190999976,52,,,,,,,,,,,,,,,sub_331,2023-08-21_10h46.53.323,Reversal,2023.1.3,60.13536470408257,3,
12,exp1.png,exp2.png,,,,,,,,,,,,,,,,,,0,0,0,0,0,12,12,12,,,,,,,,,False,12,93,True,exp2.png,exp1.png,trial_right_image,-1,exp1.png,3,exp1.png,exp2.png,0,4,reversed,correct,0.5998579501812253,1,valid_win,517.3046669000032,53,,,,,,,,,,,,,,,sub_331,2023-08-21_10h46.53.323,Reversal,2023.1.3,60.13536470408257,3,
13,exp3.png,exp4.png,,,,,,,,,,,,,,,,,,0,0,0,0,0,13,13,13,,,,,,,,,False,13,94,False,exp3.png,exp4.png,trial_right_image,-1,exp4.png,3,exp4.png,exp3.png,1,1,non-reversed,correct,0.6498496379565888,1,valid_win,521.5039876000083,54,,,,,,,,,,,,,,,sub_331,2023-08-21_10h46.53.323,Reversal,2023.1.3,60.13536470408257,3,
14,exp1.png,exp2.png,,,,,,,,,,,,,,,,,,0,0,0,0,0,14,14,14,,,,,,,,,False,14,95,True,exp2.png,exp1.png,trial_right_image,-1,exp1.png,3,exp1.png,exp2.png,0,4,reversed,correct,0.5170228740969807,1,valid_win,526.9181855000061,55,,,,,,,,,,,,,,,sub_331,2023-08-21_10h46.53.323,Reversal,2023.1.3,60.13536470408257,3,
15,exp3.png,exp4.png,,,,,,,,,,,,,,,,,,0,0,0,0,0,15,15,15,,,,,,,,,False,15,96,False,exp3.png,exp4.png,trial_right_image,-1,exp4.png,3,exp4.png,exp3.png,1,1,non-reversed,correct,0.746021920472059,1,valid_win,530.9832456000004,56,,,,,,,,,,,,,,,sub_331,2023-08-21_10h46.53.323,Reversal,2023.1.3,60.13536470408257,3,
16,exp1.png,exp2.png,,,,,,,,,,,,,,,,,,0,0,0,0,0,16,16,16,,,,,,,,,False,16,97,True,exp2.png,exp1.png,trial_right_image,-1,exp1.png,3,exp1.png,exp2.png,0,4,reversed,correct,0.39578077663064826,1,valid_win,535.6316840000072,57,,,,,,,,,,,,,,,sub_331,2023-08-21_10h46.53.323,Reversal,2023.1.3,60.13536470408257,3,
17,exp3.png,exp4.png,,,,,,,,,,,,,,,,,,0,0,0,0,0,17,17,17,,,,,,,,,False,17,98,False,exp3.png,exp4.png,trial_right_image,-1,exp4.png,3,exp4.png,exp3.png,1,1,non-reversed,correct,0.017299765514769527,0,invalid_lose,539.7302330000093,57,,,,,,,,,,,,,,,sub_331,2023-08-21_10h46.53.323,Reversal,2023.1.3,60.13536470408257,3,
18,exp1.png,exp2.png,,,,,,,,,,,,,,,,,,0,0,0,0,0,18,18,18,,,,,,,,,False,18,99,False,exp1.png,exp2.png,trial_left_image,1,exp1.png,3,exp1.png,exp2.png,0,4,reversed,correct,0.5414174541749006,1,valid_win,544.5286229000048,58,,,,,,,,,,,,,,,sub_331,2023-08-21_10h46.53.323,Reversal,2023.1.3,60.13536470408257,3,
19,exp3.png,exp4.png,,,,,,,,,,,,,,,,,,0,0,0,0,0,19,19,19,,,,,,,,,False,19,100,False,exp3.png,exp4.png,trial_right_image,-1,exp4.png,3,exp4.png,exp3.png,1,1,non-reversed,correct,0.1525333599793487,0,invalid_lose,549.3436753999995,58,,,,,,,,,,,,,,,sub_331,2023-08-21_10h46.53.323,Reversal,2023.1.3,60.13536470408257,3,
20,exp1.png,exp2.png,,,,,,,,,,,,,,,,,,0,0,0,0,0,20,20,20,,,,,,,,,True,,,,,,,,,,,,,,,,,,,,,,,,,,,,,,,,,,,sub_331,2023-08-21_10h46.53.323,Reversal,2023.1.3,60.13536470408257,3,
,,,exp1.png,,,,,,,,,,,,,,,,,0,0,0,0,,,,,0,0,0,0,0,0,0,0,,,,,,,,,,,,,,,,,,,,,,621.0893286000064,78.0,78.0,7.661091399990255,"[(78.0, 7.661091399990255)]",,,,,,,,,,sub_331,2023-08-21_10h46.53.323,Reversal,2023.1.3,60.13536470408257,3,
,,,exp2.png,,,,,,,,,,,,,,,,,0,0,0,0,,,,,0,0,0,0,0,1,1,1,,,,,,,,,,,,,,,,,,,,,,629.8711681999994,,24.0,1.2274099000060232,"[(24.0, 1.2274099000060232)]",,,24.0,,,,,,,sub_331,2023-08-21_10h46.53.323,Reversal,2023.1.3,60.13536470408257,3,
,,,exp3.png,,,,,,,,,,,,,,,,,0,0,0,0,,,,,0,0,0,0,0,2,2,2,,,,,,,,,,,,,,,,,,,,,,632.436928199997,,24.0,2.194571600004565,"[(24.0, 2.194571600004565)]",24.0,,,,,,,,,sub_331,2023-08-21_10h46.53.323,Reversal,2023.1.3,60.13536470408257,3,
,,,exp4.png,,,,,,,,,,,,,,,,,0,0,0,0,,,,,0,0,0,0,0,3,3,3,,,,,,,,,,,,,,,,,,,,,,636.2185032999987,,73.0,2.392835600010585,"[(72.0, 1.0108102000085637), (73.0, 2.392835600010585)]",,73.0,,,,,,,,sub_331,2023-08-21_10h46.53.323,Reversal,2023.1.3,60.13536470408257,3,
0,exp1.png,exp2.png,,,,,,,,,,,,,,,,,,1,0,1,0,0,0,0,0,,,,,,,,,False,20,101,False,exp1.png,exp2.png,trial_right_image,-1,exp2.png,3,exp1.png,exp2.png,1,3,reversed,incorrect,0.3987032064483188,0,valid_lose,573.7520745000074,58,,,,,,,,,,,,,,,sub_331,2023-08-21_10h46.53.323,Reversal,2023.1.3,60.13536470408257,3,
1,exp3.png,exp4.png,,,,,,,,,,,,,,,,,,1,0,1,0,0,1,1,1,,,,,,,,,False,21,102,True,exp4.png,exp3.png,trial_left_image,1,exp4.png,3,exp4.png,exp3.png,1,1,non-reversed,correct,0.7319234953688644,1,valid_win,577.9175920999987,59,,,,,,,,,,,,,,,sub_331,2023-08-21_10h46.53.323,Reversal,2023.1.3,60.13536470408257,3,
2,exp1.png,exp2.png,,,,,,,,,,,,,,,,,,1,0,1,0,0,2,2,2,,,,,,,,,False,22,103,True,exp2.png,exp1.png,trial_right_image,-1,exp1.png,3,exp1.png,exp2.png,0,4,reversed,correct,0.49889582241675867,1,valid_win,584.248439700008,60,,,,,,,,,,,,,,,sub_331,2023-08-21_10h46.53.323,Reversal,2023.1.3,60.13536470408257,3,
3,exp3.png,exp4.png,,,,,,,,,,,,,,,,,,1,0,1,0,0,3,3,3,,,,,,,,,False,23,104,False,exp3.png,exp4.png,trial_right_image,-1,exp4.png,3,exp4.png,exp3.png,1,1,non-reversed,correct,0.196400490865845,0,invalid_lose,588.2967865999963,60,,,,,,,,,,,,,,,sub_331,2023-08-21_10h46.53.323,Reversal,2023.1.3,60.13536470408257,3,
4,exp1.png,exp2.png,,,,,,,,,,,,,,,,,,1,0,1,0,0,4,4,4,,,,,,,,,False,24,105,False,exp1.png,exp2.png,trial_left_image,1,exp1.png,3,exp1.png,exp2.png,0,4,reversed,correct,0.8855348721261587,1,valid_win,592.4624616000074,61,,,,,,,,,,,,,,,sub_331,2023-08-21_10h46.53.323,Reversal,2023.1.3,60.13536470408257,3,
5,exp3.png,exp4.png,,,,,,,,,,,,,,,,,,1,0,1,0,0,5,5,5,,,,,,,,,False,25,106,True,exp4.png,exp3.png,trial_left_image,1,exp4.png,3,exp4.png,exp3.png,1,1,non-reversed,correct,0.8675954635596779,1,valid_win,597.6274617000017,62,,,,,,,,,,,,,,,sub_331,2023-08-21_10h46.53.323,Reversal,2023.1.3,60.13536470408257,3,
6,exp1.png,exp2.png,,,,,,,,,,,,,,,,,,1,0,1,0,0,6,6,6,,,,,,,,,False,26,107,True,exp2.png,exp1.png,trial_right_image,-1,exp1.png,3,exp1.png,exp2.png,0,4,reversed,correct,0.8690581734811142,1,valid_win,601.9922627000051,63,,,,,,,,,,,,,,,sub_331,2023-08-21_10h46.53.323,Reversal,2023.1.3,60.13536470408257,3,
7,exp3.png,exp4.png,,,,,,,,,,,,,,,,,,1,0,1,0,0,7,7,7,,,,,,,,,False,27,108,True,exp4.png,exp3.png,trial_left_image,1,exp4.png,3,exp4.png,exp3.png,1,1,non-reversed,correct,0.42873100282806464,1,valid_win,606.0912971000071,64,,,,,,,,,,,,,,,sub_331,2023-08-21_10h46.53.323,Reversal,2023.1.3,60.13536470408257,3,
8,exp1.png,exp2.png,,,,,,,,,,,,,,,,,,1,0,1,0,0,8,8,8,,,,,,,,,False,28,109,False,exp1.png,exp2.png,trial_left_image,1,exp1.png,3,exp1.png,exp2.png,0,4,reversed,correct,0.8056139360451455,1,valid_win,610.356091499998,65,,,,,,,,,,,,,,,sub_331,2023-08-21_10h46.53.323,Reversal,2023.1.3,60.13536470408257,3,
9,exp3.png,exp4.png,,,,,,,,,,,,,,,,,,1,0,1,0,0,9,9,9,,,,,,,,,False,29,110,True,exp4.png,exp3.png,trial_left_image,1,exp4.png,3,exp4.png,exp3.png,1,1,non-reversed,correct,0.639110252526301,1,valid_win,614.7882219000021,66,,,,,,,,,,,,,,,sub_331,2023-08-21_10h46.53.323,Reversal,2023.1.3,60.13536470408257,3,
10,exp1.png,exp2.png,,,,,,,,,,,,,,,,,,1,0,1,0,0,10,10,10,,,,,,,,,False,30,111,True,exp2.png,exp1.png,trial_right_image,-1,exp1.png,3,exp1.png,exp2.png,0,4,reversed,correct,0.5965513504175474,1,valid_win,620.6527462000086,67,,,,,,,,,,,,,,,sub_331,2023-08-21_10h46.53.323,Reversal,2023.1.3,60.13536470408257,3,
11,exp3.png,exp4.png,,,,,,,,,,,,,,,,,,1,0,1,0,0,11,11,11,,,,,,,,,False,31,112,True,exp4.png,exp3.png,trial_left_image,1,exp4.png,3,exp4.png,exp3.png,1,1,non-reversed,correct,0.12191783942665935,0,invalid_lose,624.9845616000093,67,,,,,,,,,,,,,,,sub_331,2023-08-21_10h46.53.323,Reversal,2023.1.3,60.13536470408257,3,
12,exp1.png,exp2.png,,,,,,,,,,,,,,,,,,1,0,1,0,0,12,12,12,,,,,,,,,False,32,113,False,exp1.png,exp2.png,trial_left_image,1,exp1.png,3,exp1.png,exp2.png,0,4,reversed,correct,0.9114463713391435,1,valid_win,629.9833380000055,68,,,,,,,,,,,,,,,sub_331,2023-08-21_10h46.53.323,Reversal,2023.1.3,60.13536470408257,3,
13,exp3.png,exp4.png,,,,,,,,,,,,,,,,,,1,0,1,0,0,13,13,13,,,,,,,,,False,33,114,False,exp3.png,exp4.png,trial_right_image,-1,exp4.png,3,exp4.png,exp3.png,1,1,non-reversed,correct,0.8369534449846829,1,valid_win,634.2313042000023,69,,,,,,,,,,,,,,,sub_331,2023-08-21_10h46.53.323,Reversal,2023.1.3,60.13536470408257,3,
14,exp1.png,exp2.png,,,,,,,,,,,,,,,,,,1,0,1,0,0,14,14,14,,,,,,,,,False,34,115,True,exp2.png,exp1.png,trial_right_image,-1,exp1.png,3,exp1.png,exp2.png,0,4,reversed,correct,0.5746530774678088,1,valid_win,639.6130189000105,70,,,,,,,,,,,,,,,sub_331,2023-08-21_10h46.53.323,Reversal,2023.1.3,60.13536470408257,3,
15,exp3.png,exp4.png,,,,,,,,,,,,,,,,,,1,0,1,0,0,15,15,15,,,,,,,,,False,35,116,False,exp3.png,exp4.png,trial_right_image,-1,exp4.png,3,exp4.png,exp3.png,1,1,non-reversed,correct,0.7616736092681391,1,valid_win,643.7786844000075,71,,,,,,,,,,,,,,,sub_331,2023-08-21_10h46.53.323,Reversal,2023.1.3,60.13536470408257,3,
16,exp1.png,exp2.png,,,,,,,,,,,,,,,,,,1,0,1,0,0,16,16,16,,,,,,,,,False,36,117,False,exp1.png,exp2.png,trial_left_image,1,exp1.png,3,exp1.png,exp2.png,0,4,reversed,correct,0.9038749773756475,1,valid_win,648.3600470000092,72,,,,,,,,,,,,,,,sub_331,2023-08-21_10h46.53.323,Reversal,2023.1.3,60.13536470408257,3,
17,exp3.png,exp4.png,,,,,,,,,,,,,,,,,,1,0,1,0,0,17,17,17,,,,,,,,,False,37,118,True,exp4.png,exp3.png,trial_left_image,1,exp4.png,3,exp4.png,exp3.png,1,1,non-reversed,correct,0.21542149712046188,0,invalid_lose,652.5755180999986,72,,,,,,,,,,,,,,,sub_331,2023-08-21_10h46.53.323,Reversal,2023.1.3,60.13536470408257,3,
18,exp1.png,exp2.png,,,,,,,,,,,,,,,,,,1,0,1,0,0,18,18,18,,,,,,,,,False,38,119,False,exp1.png,exp2.png,trial_left_image,1,exp1.png,3,exp1.png,exp2.png,0,4,reversed,correct,0.5921724288873897,1,valid_win,656.7072486000106,73,,,,,,,,,,,,,,,sub_331,2023-08-21_10h46.53.323,Reversal,2023.1.3,60.13536470408257,3,
19,exp3.png,exp4.png,,,,,,,,,,,,,,,,,,1,0,1,0,0,19,19,19,,,,,,,,,False,39,120,False,exp3.png,exp4.png,trial_right_image,-1,exp4.png,3,exp4.png,exp3.png,1,1,non-reversed,correct,0.5619893363376198,1,valid_win,662.5557257000037,74,,,,,,,,,,,,,,,sub_331,2023-08-21_10h46.53.323,Reversal,2023.1.3,60.13536470408257,3,
20,exp1.png,exp2.png,,,,,,,,,,,,,,,,,,1,0,1,0,0,20,20,20,,,,,,,,,True,,,,,,,,,,,,,,,,,,,,,,,,,,,,,,,,,,,sub_331,2023-08-21_10h46.53.323,Reversal,2023.1.3,60.13536470408257,3,
,,,exp1.png,,,,,,,,,,,,,,,,,1,0,1,0,,,,,0,0,0,0,0,0,0,0,,,,,,,,,,,,,,,,,,,,,,734.3075941999996,78.0,78.0,2.358132499997737,"[(78.0, 2.358132499997737)]",,,,,,,,,,sub_331,2023-08-21_10h46.53.323,Reversal,2023.1.3,60.13536470408257,3,
,,,exp2.png,,,,,,,,,,,,,,,,,1,0,1,0,,,,,0,0,0,0,0,1,1,1,,,,,,,,,,,,,,,,,,,,,,737.5989405,,77.0,1.4606555000063963,"[(77.0, 1.4606555000063963)]",,,77.0,,,,,,,sub_331,2023-08-21_10h46.53.323,Reversal,2023.1.3,60.13536470408257,3,
,,,exp3.png,,,,,,,,,,,,,,,,,1,0,1,0,,,,,0,0,0,0,0,2,2,2,,,,,,,,,,,,,,,,,,,,,,740.0310523999942,,76.0,1.0935477999883005,"[(76.0, 1.0935477999883005)]",76.0,,,,,,,,,sub_331,2023-08-21_10h46.53.323,Reversal,2023.1.3,60.13536470408257,3,
,,,exp4.png,,,,,,,,,,,,,,,,,1,0,1,0,,,,,0,0,0,0,0,3,3,3,,,,,,,,,,,,,,,,,,,,,,742.0633304000075,,79.0,1.0956302999984473,"[(79.0, 1.0956302999984473)]",,79.0,,,,,,,,sub_331,2023-08-21_10h46.53.323,Reversal,2023.1.3,60.13536470408257,3,
0,exp1.png,exp2.png,,,,,,,,,,,,,,,,,,2,0,2,0,0,0,0,0,,,,,,,,,False,40,121,False,exp1.png,exp2.png,trial_left_image,1,exp1.png,3,exp1.png,exp2.png,0,4,reversed,correct,0.6310837876630861,1,valid_win,677.3338099000102,75,,,,,,,,,,,,,,,sub_331,2023-08-21_10h46.53.323,Reversal,2023.1.3,60.13536470408257,3,
1,exp3.png,exp4.png,,,,,,,,,,,,,,,,,,2,0,2,0,0,1,1,1,,,,,,,,,False,41,122,True,exp4.png,exp3.png,trial_left_image,1,exp4.png,3,exp4.png,exp3.png,1,1,non-reversed,correct,0.9282256785349755,1,valid_win,681.7654900000052,76,,,,,,,,,,,,,,,sub_331,2023-08-21_10h46.53.323,Reversal,2023.1.3,60.13536470408257,3,
2,exp1.png,exp2.png,,,,,,,,,,,,,,,,,,2,0,2,0,0,2,2,2,,,,,,,,,False,42,123,True,exp2.png,exp1.png,trial_right_image,-1,exp1.png,3,exp1.png,exp2.png,0,4,reversed,correct,0.11261787791940381,0,invalid_lose,686.3974656000064,76,,,,,,,,,,,,,,,sub_331,2023-08-21_10h46.53.323,Reversal,2023.1.3,60.13536470408257,3,
3,exp3.png,exp4.png,,,,,,,,,,,,,,,,,,2,0,2,0,0,3,3,3,,,,,,,,,False,43,124,False,exp3.png,exp4.png,trial_right_image,-1,exp4.png,3,exp4.png,exp3.png,1,1,non-reversed,correct,0.48920564646773557,1,valid_win,691.9285339000053,77,,,,,,,,,,,,,,,sub_331,2023-08-21_10h46.53.323,Reversal,2023.1.3,60.13536470408257,3,
4,exp1.png,exp2.png,,,,,,,,,,,,,,,,,,2,0,2,0,0,4,4,4,,,,,,,,,False,44,125,True,exp2.png,exp1.png,trial_right_image,-1,exp1.png,3,exp1.png,exp2.png,0,4,reversed,correct,0.1850870077461818,0,invalid_lose,695.9607351000013,77,,,,,,,,,,,,,,,sub_331,2023-08-21_10h46.53.323,Reversal,2023.1.3,60.13536470408257,3,
5,exp3.png,exp4.png,,,,,,,,,,,,,,,,,,2,0,2,0,0,5,5,5,,,,,,,,,False,45,126,False,exp3.png,exp4.png,trial_right_image,-1,exp4.png,3,exp4.png,exp3.png,1,1,non-reversed,correct,0.08202323068880613,0,invalid_lose,701.6923811000015,77,,,,,,,,,,,,,,,sub_331,2023-08-21_10h46.53.323,Reversal,2023.1.3,60.13536470408257,3,
6,exp1.png,exp2.png,,,,,,,,,,,,,,,,,,2,0,2,0,0,6,6,6,,,,,,,,,False,46,127,False,exp1.png,exp2.png,trial_right_image,-1,exp2.png,3,exp1.png,exp2.png,1,3,reversed,incorrect,0.4218148812328374,0,valid_lose,705.8579213000048,77,,,,,,,,,,,,,,,sub_331,2023-08-21_10h46.53.323,Reversal,2023.1.3,60.13536470408257,3,
7,exp3.png,exp4.png,,,,,,,,,,,,,,,,,,2,0,2,0,0,7,7,7,,,,,,,,,False,47,128,False,exp3.png,exp4.png,trial_left_image,1,exp3.png,3,exp4.png,exp3.png,0,2,non-reversed,incorrect,0.17265147935894942,1,invalid_win,710.2394267000054,78,,,,,,,,,,,,,,,sub_331,2023-08-21_10h46.53.323,Reversal,2023.1.3,60.13536470408257,3,
8,exp1.png,exp2.png,,,,,,,,,,,,,,,,,,2,0,2,0,0,8,8,8,,,,,,,,,False,48,129,True,exp2.png,exp1.png,trial_left_image,1,exp2.png,3,exp1.png,exp2.png,1,3,reversed,incorrect,0.14233241734144553,1,invalid_win,714.5211738000071,79,,,,,,,,,,,,,,,sub_331,2023-08-21_10h46.53.323,Reversal,2023.1.3,60.13536470408257,3,
9,exp3.png,exp4.png,,,,,,,,,,,,,,,,,,2,0,2,0,0,9,9,9,,,,,,,,,False,49,130,False,exp3.png,exp4.png,trial_left_image,1,exp3.png,3,exp4.png,exp3.png,0,2,non-reversed,incorrect,0.49886015547081597,0,valid_lose,719.6525264000084,79,,,,,,,,,,,,,,,sub_331,2023-08-21_10h46.53.323,Reversal,2023.1.3,60.13536470408257,3,
10,exp1.png,exp2.png,,,,,,,,,,,,,,,,,,2,0,2,0,0,10,10,10,,,,,,,,,False,50,131,False,exp1.png,exp2.png,trial_right_image,-1,exp2.png,3,exp1.png,exp2.png,1,3,reversed,incorrect,0.051512230043221696,1,invalid_win,724.2845036000072,80,,,,,,,,,,,,,,,sub_331,2023-08-21_10h46.53.323,Reversal,2023.1.3,60.13536470408257,3,
11,exp3.png,exp4.png,,,,,,,,,,,,,,,,,,2,0,2,0,0,11,11,11,,,,,,,,,False,51,132,False,exp3.png,exp4.png,trial_right_image,-1,exp4.png,3,exp4.png,exp3.png,1,1,non-reversed,correct,0.33098119052574926,1,valid_win,728.3328410999966,81,,,,,,,,,,,,,,,sub_331,2023-08-21_10h46.53.323,Reversal,2023.1.3,60.13536470408257,3,
12,exp1.png,exp2.png,,,,,,,,,,,,,,,,,,2,0,2,0,0,12,12,12,,,,,,,,,False,52,133,True,exp2.png,exp1.png,trial_left_image,1,exp2.png,3,exp1.png,exp2.png,1,3,reversed,incorrect,0.6119226083544901,0,valid_lose,732.4981398000091,81,,,,,,,,,,,,,,,sub_331,2023-08-21_10h46.53.323,Reversal,2023.1.3,60.13536470408257,3,
13,exp3.png,exp4.png,,,,,,,,,,,,,,,,,,2,0,2,0,0,13,13,13,,,,,,,,,False,53,134,True,exp4.png,exp3.png,trial_left_image,1,exp4.png,3,exp4.png,exp3.png,1,1,non-reversed,correct,0.7984879638834844,1,valid_win,736.5467627000035,82,,,,,,,,,,,,,,,sub_331,2023-08-21_10h46.53.323,Reversal,2023.1.3,60.13536470408257,3,
14,exp1.png,exp2.png,,,,,,,,,,,,,,,,,,2,0,2,0,0,14,14,14,,,,,,,,,False,54,135,True,exp2.png,exp1.png,trial_right_image,-1,exp1.png,3,exp1.png,exp2.png,0,4,reversed,correct,0.07959156314914362,0,invalid_lose,741.4451766999991,82,,,,,,,,,,,,,,,sub_331,2023-08-21_10h46.53.323,Reversal,2023.1.3,60.13536470408257,3,
15,exp3.png,exp4.png,,,,,,,,,,,,,,,,,,2,0,2,0,0,15,15,15,,,,,,,,,False,55,136,True,exp4.png,exp3.png,trial_left_image,1,exp4.png,3,exp4.png,exp3.png,1,1,non-reversed,correct,0.13282516192161054,0,invalid_lose,745.6774535000004,82,,,,,,,,,,,,,,,sub_331,2023-08-21_10h46.53.323,Reversal,2023.1.3,60.13536470408257,3,
16,exp1.png,exp2.png,,,,,,,,,,,,,,,,,,2,0,2,0,0,16,16,16,,,,,,,,,False,56,137,False,exp1.png,exp2.png,trial_right_image,-1,exp2.png,3,exp1.png,exp2.png,1,3,reversed,incorrect,0.5327001980166864,0,valid_lose,749.9928399000055,82,,,,,,,,,,,,,,,sub_331,2023-08-21_10h46.53.323,Reversal,2023.1.3,60.13536470408257,3,
17,exp3.png,exp4.png,,,,,,,,,,,,,,,,,,2,0,2,0,0,17,17,17,,,,,,,,,False,57,138,True,exp4.png,exp3.png,trial_right_image,-1,exp3.png,3,exp4.png,exp3.png,0,2,non-reversed,incorrect,0.2782115347046864,0,valid_lose,754.1911518999987,82,,,,,,,,,,,,,,,sub_331,2023-08-21_10h46.53.323,Reversal,2023.1.3,60.13536470408257,3,
18,exp1.png,exp2.png,,,,,,,,,,,,,,,,,,2,0,2,0,0,18,18,18,,,,,,,,,False,58,139,False,exp1.png,exp2.png,trial_left_image,1,exp1.png,3,exp1.png,exp2.png,0,4,reversed,correct,0.56003673761353,1,valid_win,758.756592500009,83,,,,,,,,,,,,,,,sub_331,2023-08-21_10h46.53.323,Reversal,2023.1.3,60.13536470408257,3,
19,exp3.png,exp4.png,,,,,,,,,,,,,,,,,,2,0,2,0,0,19,19,19,,,,,,,,,False,59,140,True,exp4.png,exp3.png,trial_left_image,1,exp4.png,3,exp4.png,exp3.png,1,1,non-reversed,correct,0.823809982849147,1,valid_win,762.8047704000055,84,,,,,,,,,,,,,,,sub_331,2023-08-21_10h46.53.323,Reversal,2023.1.3,60.13536470408257,3,
20,exp1.png,exp2.png,,,,,,,,,,,,,,,,,,2,0,2,0,0,20,20,20,,,,,,,,,True,,,,,,,,,,,,,,,,,,,,,,,,,,,,,,,,,,,sub_331,2023-08-21_10h46.53.323,Reversal,2023.1.3,60.13536470408257,3,
,,,exp1.png,,,,,,,,,,,,,,,,,2,0,2,0,,,,,0,0,0,0,0,0,0,0,,,,,,,,,,,,,,,,,,,,,,834.5578443999984,76.0,76.0,9.134813700002269,"[(76.0, 9.134813700002269)]",,,,,,,,,,sub_331,2023-08-21_10h46.53.323,Reversal,2023.1.3,60.13536470408257,3,
,,,exp2.png,,,,,,,,,,,,,,,,,2,0,2,0,,,,,0,0,0,0,0,1,1,1,,,,,,,,,,,,,,,,,,,,,,844.6142736000038,,80.0,1.1948063999880105,"[(80.0, 1.1948063999880105)]",,,80.0,,,,,,,sub_331,2023-08-21_10h46.53.323,Reversal,2023.1.3,60.13536470408257,3,
,,,exp3.png,,,,,,,,,,,,,,,,,2,0,2,0,,,,,0,0,0,0,0,2,2,2,,,,,,,,,,,,,,,,,,,,,,846.7959433000069,,79.0,1.0281302999937907,"[(79.0, 1.0281302999937907)]",79.0,,,,,,,,,sub_331,2023-08-21_10h46.53.323,Reversal,2023.1.3,60.13536470408257,3,
,,,exp4.png,,,,,,,,,,,,,,,,,2,0,2,0,,,,,0,0,0,0,0,3,3,3,,,,,,,,,,,,,,,,,,,,,,848.8461899999966,,76.0,0.7937136999971699,"[(76.0, 0.7937136999971699)]",,76.0,,,,,,,,sub_331,2023-08-21_10h46.53.323,Reversal,2023.1.3,60.13536470408257,3,
,,,,,,,,,,,,,,,,,,,,,,,,,,,,,,,,,,,,,,,,,,,,,,,,,,,,,,,,84,,,,,,,,,,108,63,45,319.3177657000051,1,,,,,,,
