trial_index,trial_image1_file,trial_image2_file,image_file,learning_outer_loop.thisRepN,learning_outer_loop.thisTrialN,learning_outer_loop.thisN,learning_outer_loop.thisIndex,learning_inner_loop.thisRepN,learning_inner_loop.thisTrialN,learning_inner_loop.thisN,learning_inner_loop.thisIndex,learning_estimation_outer_loop.thisRepN,learning_estimation_outer_loop.thisTrialN,learning_estimation_outer_loop.thisN,learning_estimation_outer_loop.thisIndex,learning_estimation_inner_loop.thisRepN,learning_estimation_inner_loop.thisTrialN,learning_estimation_inner_loop.thisN,learning_estimation_inner_loop.thisIndex,reversal_outer_loop.thisRepN,reversal_outer_loop.thisTrialN,reversal_outer_loop.thisN,reversal_outer_loop.thisIndex,reversal_inner_loop.thisRepN,reversal_inner_loop.thisTrialN,reversal_inner_loop.thisN,reversal_inner_loop.thisIndex,reversal_estimation_outer_loop.thisRepN,reversal_estimation_outer_loop.thisTrialN,reversal_estimation_outer_loop.thisN,reversal_estimation_outer_loop.thisIndex,reversal_estimation_inner_loop.thisRepN,reversal_estimation_inner_loop.thisTrialN,reversal_estimation_inner_loop.thisN,reversal_estimation_inner_loop.thisIndex,skipped,total_trial_counter,trial_num,left_right_flip,left_image_file,right_image_file,clicked_stimulus_side,side,clicked_stimulus,version,high_prob_image_file,low_prob_image_file,choice_a,choice_b,pair_type,correct,trial_feedback_random,reward,trial_type,overall_time_after_trial,score,estimation_exp1.png,estimation_rating.response,estimation_rating.rt,estimation_rating.history,estimation_rating.started,estimation_rating.stopped,estimation_exp2.png,estimation_exp3.png,estimation_exp4.png,total_learning_time,total_correct,learning_correct,reversal_correct,total_reversal_time,extra_block,participant,date,expName,psychopyVersion,frameRate,ver,
0,exp1.png,exp2.png,,0,0,0,0,0,0,0,0,,,,,,,,,,,,,,,,,,,,,,,,,False,0,1,True,exp2.png,exp1.png,trial_right_image,-1,exp1.png,4,exp2.png,exp1.png,0,2,non-reversed,incorrect,0.38865044599070986,0,valid_lose,5.7142525999997815,0,,,,,,,,,,,,,,,,sub_120,2022-08-23_16h01.06.286,Reversal,2022.1.1,60.116204623565174,4,
1,exp3.png,exp4.png,,0,0,0,0,0,1,1,1,,,,,,,,,,,,,,,,,,,,,,,,,False,1,2,True,exp4.png,exp3.png,trial_right_image,-1,exp3.png,4,exp4.png,exp3.png,0,4,reversed,incorrect,0.039892078936816344,1,invalid_win,13.446400899999844,1,,,,,,,,,,,,,,,,sub_120,2022-08-23_16h01.06.286,Reversal,2022.1.1,60.116204623565174,4,
2,exp1.png,exp2.png,,0,0,0,0,0,2,2,2,,,,,,,,,,,,,,,,,,,,,,,,,False,2,3,False,exp1.png,exp2.png,trial_right_image,-1,exp2.png,4,exp2.png,exp1.png,1,1,non-reversed,correct,0.8615374442538487,1,valid_win,20.646267899999657,2,,,,,,,,,,,,,,,,sub_120,2022-08-23_16h01.06.286,Reversal,2022.1.1,60.116204623565174,4,
3,exp3.png,exp4.png,,0,0,0,0,0,3,3,3,,,,,,,,,,,,,,,,,,,,,,,,,False,3,4,True,exp4.png,exp3.png,trial_left_image,1,exp4.png,4,exp4.png,exp3.png,1,3,reversed,correct,0.4802494092082725,1,valid_win,27.746799499999725,3,,,,,,,,,,,,,,,,sub_120,2022-08-23_16h01.06.286,Reversal,2022.1.1,60.116204623565174,4,
4,exp1.png,exp2.png,,0,0,0,0,0,4,4,4,,,,,,,,,,,,,,,,,,,,,,,,,False,4,5,False,exp1.png,exp2.png,trial_right_image,-1,exp2.png,4,exp2.png,exp1.png,1,1,non-reversed,correct,0.26299040457456824,1,valid_win,34.44514009999966,4,,,,,,,,,,,,,,,,sub_120,2022-08-23_16h01.06.286,Reversal,2022.1.1,60.116204623565174,4,
5,exp3.png,exp4.png,,0,0,0,0,0,5,5,5,,,,,,,,,,,,,,,,,,,,,,,,,False,5,6,False,exp3.png,exp4.png,trial_right_image,-1,exp4.png,4,exp4.png,exp3.png,1,3,reversed,correct,0.8766409716099568,1,valid_win,40.17653799999971,5,,,,,,,,,,,,,,,,sub_120,2022-08-23_16h01.06.286,Reversal,2022.1.1,60.116204623565174,4,
6,exp1.png,exp2.png,,0,0,0,0,0,6,6,6,,,,,,,,,,,,,,,,,,,,,,,,,False,6,7,False,exp1.png,exp2.png,trial_right_image,-1,exp2.png,4,exp2.png,exp1.png,1,1,non-reversed,correct,0.48159228071714244,1,valid_win,45.14142679999986,6,,,,,,,,,,,,,,,,sub_120,2022-08-23_16h01.06.286,Reversal,2022.1.1,60.116204623565174,4,
7,exp3.png,exp4.png,,0,0,0,0,0,7,7,7,,,,,,,,,,,,,,,,,,,,,,,,,False,7,8,False,exp3.png,exp4.png,trial_right_image,-1,exp4.png,4,exp4.png,exp3.png,1,3,reversed,correct,0.670227830856256,1,valid_win,50.291427699999986,7,,,,,,,,,,,,,,,,sub_120,2022-08-23_16h01.06.286,Reversal,2022.1.1,60.116204623565174,4,
8,exp1.png,exp2.png,,0,0,0,0,0,8,8,8,,,,,,,,,,,,,,,,,,,,,,,,,False,8,9,True,exp2.png,exp1.png,trial_left_image,1,exp2.png,4,exp2.png,exp1.png,1,1,non-reversed,correct,0.919431479844624,1,valid_win,55.34061699999984,8,,,,,,,,,,,,,,,,sub_120,2022-08-23_16h01.06.286,Reversal,2022.1.1,60.116204623565174,4,
9,exp3.png,exp4.png,,0,0,0,0,0,9,9,9,,,,,,,,,,,,,,,,,,,,,,,,,False,9,10,True,exp4.png,exp3.png,trial_left_image,1,exp4.png,4,exp4.png,exp3.png,1,3,reversed,correct,0.46208612702709906,1,valid_win,60.040147499999875,9,,,,,,,,,,,,,,,,sub_120,2022-08-23_16h01.06.286,Reversal,2022.1.1,60.116204623565174,4,
10,exp1.png,exp2.png,,0,0,0,0,0,10,10,10,,,,,,,,,,,,,,,,,,,,,,,,,False,10,11,True,exp2.png,exp1.png,trial_left_image,1,exp2.png,4,exp2.png,exp1.png,1,1,non-reversed,correct,0.4749618192438143,1,valid_win,64.85627879999993,10,,,,,,,,,,,,,,,,sub_120,2022-08-23_16h01.06.286,Reversal,2022.1.1,60.116204623565174,4,
11,exp3.png,exp4.png,,0,0,0,0,0,11,11,11,,,,,,,,,,,,,,,,,,,,,,,,,False,11,12,True,exp4.png,exp3.png,trial_left_image,1,exp4.png,4,exp4.png,exp3.png,1,3,reversed,correct,0.9111244472607337,1,valid_win,69.55582340000001,11,,,,,,,,,,,,,,,,sub_120,2022-08-23_16h01.06.286,Reversal,2022.1.1,60.116204623565174,4,
12,exp1.png,exp2.png,,0,0,0,0,0,12,12,12,,,,,,,,,,,,,,,,,,,,,,,,,False,12,13,False,exp1.png,exp2.png,trial_right_image,-1,exp2.png,4,exp2.png,exp1.png,1,1,non-reversed,correct,0.7421259975390228,1,valid_win,74.07168950000005,12,,,,,,,,,,,,,,,,sub_120,2022-08-23_16h01.06.286,Reversal,2022.1.1,60.116204623565174,4,
13,exp3.png,exp4.png,,0,0,0,0,0,13,13,13,,,,,,,,,,,,,,,,,,,,,,,,,False,13,14,True,exp4.png,exp3.png,trial_left_image,1,exp4.png,4,exp4.png,exp3.png,1,3,reversed,correct,0.5530101426642747,1,valid_win,78.77295959999992,13,,,,,,,,,,,,,,,,sub_120,2022-08-23_16h01.06.286,Reversal,2022.1.1,60.116204623565174,4,
14,exp1.png,exp2.png,,0,0,0,0,0,14,14,14,,,,,,,,,,,,,,,,,,,,,,,,,False,14,15,False,exp1.png,exp2.png,trial_right_image,-1,exp2.png,4,exp2.png,exp1.png,1,1,non-reversed,correct,0.8951242837294526,1,valid_win,83.43733599999996,14,,,,,,,,,,,,,,,,sub_120,2022-08-23_16h01.06.286,Reversal,2022.1.1,60.116204623565174,4,
15,exp3.png,exp4.png,,0,0,0,0,0,15,15,15,,,,,,,,,,,,,,,,,,,,,,,,,False,15,16,False,exp3.png,exp4.png,trial_right_image,-1,exp4.png,4,exp4.png,exp3.png,1,3,reversed,correct,0.04350330513358369,0,invalid_lose,87.97119479999992,14,,,,,,,,,,,,,,,,sub_120,2022-08-23_16h01.06.286,Reversal,2022.1.1,60.116204623565174,4,
16,exp1.png,exp2.png,,0,0,0,0,0,16,16,16,,,,,,,,,,,,,,,,,,,,,,,,,False,16,17,False,exp1.png,exp2.png,trial_left_image,1,exp1.png,4,exp2.png,exp1.png,0,2,non-reversed,incorrect,0.6149089383042007,0,valid_lose,93.77066729999979,14,,,,,,,,,,,,,,,,sub_120,2022-08-23_16h01.06.286,Reversal,2022.1.1,60.116204623565174,4,
17,exp3.png,exp4.png,,0,0,0,0,0,17,17,17,,,,,,,,,,,,,,,,,,,,,,,,,False,17,18,True,exp4.png,exp3.png,trial_left_image,1,exp4.png,4,exp4.png,exp3.png,1,3,reversed,correct,0.904786833824661,1,valid_win,99.42071069999974,15,,,,,,,,,,,,,,,,sub_120,2022-08-23_16h01.06.286,Reversal,2022.1.1,60.116204623565174,4,
18,exp1.png,exp2.png,,0,0,0,0,0,18,18,18,,,,,,,,,,,,,,,,,,,,,,,,,False,18,19,False,exp1.png,exp2.png,trial_right_image,-1,exp2.png,4,exp2.png,exp1.png,1,1,non-reversed,correct,0.7743658887009978,1,valid_win,103.95142279999982,16,,,,,,,,,,,,,,,,sub_120,2022-08-23_16h01.06.286,Reversal,2022.1.1,60.116204623565174,4,
19,exp3.png,exp4.png,,0,0,0,0,0,19,19,19,,,,,,,,,,,,,,,,,,,,,,,,,False,19,20,True,exp4.png,exp3.png,trial_left_image,1,exp4.png,4,exp4.png,exp3.png,1,3,reversed,correct,0.8417854862354098,1,valid_win,108.96824399999969,17,,,,,,,,,,,,,,,,sub_120,2022-08-23_16h01.06.286,Reversal,2022.1.1,60.116204623565174,4,
20,exp1.png,exp2.png,,0,0,0,0,0,20,20,20,,,,,,,,,,,,,,,,,,,,,,,,,True,,,,,,,,,,,,,,,,,,,,,,,,,,,,,,,,,,,,sub_120,2022-08-23_16h01.06.286,Reversal,2022.1.1,60.116204623565174,4,
,,,exp1.png,0,0,0,0,,,,,0,0,0,0,0,0,0,0,,,,,,,,,,,,,,,,,,,,,,,,,,,,,,,,,,,,,,3.0,3.0,9.399214000000029,"[(3.0, 9.399214000000029)]",231.45699819999982,None,,,,,,,,,,sub_120,2022-08-23_16h01.06.286,Reversal,2022.1.1,60.116204623565174,4,
,,,exp2.png,0,0,0,0,,,,,0,0,0,0,0,1,1,1,,,,,,,,,,,,,,,,,,,,,,,,,,,,,,,,,,,,,,,95.0,7.658144999999877,"[(96.0, 6.173667800000203), (95.0, 7.658144999999877)]",242.61368749999974,None,95.0,,,,,,,,,sub_120,2022-08-23_16h01.06.286,Reversal,2022.1.1,60.116204623565174,4,
,,,exp3.png,0,0,0,0,,,,,0,0,0,0,0,2,2,2,,,,,,,,,,,,,,,,,,,,,,,,,,,,,,,,,,,,,,,6.0,6.356795599999714,"[(6.0, 6.356795599999714)]",251.5917905999995,None,,6.0,,,,,,,,sub_120,2022-08-23_16h01.06.286,Reversal,2022.1.1,60.116204623565174,4,
,,,exp4.png,0,0,0,0,,,,,0,0,0,0,0,3,3,3,,,,,,,,,,,,,,,,,,,,,,,,,,,,,,,,,,,,,,,95.0,4.552535900000294,"[(95.0, 4.552535900000294)]",259.2623401000001,None,,,95.0,,,,,,,sub_120,2022-08-23_16h01.06.286,Reversal,2022.1.1,60.116204623565174,4,
0,exp1.png,exp2.png,,1,0,1,0,0,0,0,0,,,,,,,,,,,,,,,,,,,,,,,,,False,20,21,True,exp2.png,exp1.png,trial_left_image,1,exp2.png,4,exp2.png,exp1.png,1,1,non-reversed,correct,0.9830978279066483,1,valid_win,148.5790093999999,18,,,,,,,,,,,,,,,,sub_120,2022-08-23_16h01.06.286,Reversal,2022.1.1,60.116204623565174,4,
1,exp3.png,exp4.png,,1,0,1,0,0,1,1,1,,,,,,,,,,,,,,,,,,,,,,,,,False,21,22,True,exp4.png,exp3.png,trial_left_image,1,exp4.png,4,exp4.png,exp3.png,1,3,reversed,correct,0.27596554113219773,1,valid_win,153.26134869999942,19,,,,,,,,,,,,,,,,sub_120,2022-08-23_16h01.06.286,Reversal,2022.1.1,60.116204623565174,4,
2,exp1.png,exp2.png,,1,0,1,0,0,2,2,2,,,,,,,,,,,,,,,,,,,,,,,,,False,22,23,True,exp2.png,exp1.png,trial_left_image,1,exp2.png,4,exp2.png,exp1.png,1,1,non-reversed,correct,0.0888306770528432,0,invalid_lose,158.19431049999957,19,,,,,,,,,,,,,,,,sub_120,2022-08-23_16h01.06.286,Reversal,2022.1.1,60.116204623565174,4,
3,exp3.png,exp4.png,,1,0,1,0,0,3,3,3,,,,,,,,,,,,,,,,,,,,,,,,,False,23,24,False,exp3.png,exp4.png,trial_right_image,-1,exp4.png,4,exp4.png,exp3.png,1,3,reversed,correct,0.2833793947865768,1,valid_win,163.49391030000015,20,,,,,,,,,,,,,,,,sub_120,2022-08-23_16h01.06.286,Reversal,2022.1.1,60.116204623565174,4,
4,exp1.png,exp2.png,,1,0,1,0,0,4,4,4,,,,,,,,,,,,,,,,,,,,,,,,,False,24,25,False,exp1.png,exp2.png,trial_left_image,1,exp1.png,4,exp2.png,exp1.png,0,2,non-reversed,incorrect,0.26080469560246167,0,valid_lose,168.26069280000002,20,,,,,,,,,,,,,,,,sub_120,2022-08-23_16h01.06.286,Reversal,2022.1.1,60.116204623565174,4,
5,exp3.png,exp4.png,,1,0,1,0,0,5,5,5,,,,,,,,,,,,,,,,,,,,,,,,,False,25,26,True,exp4.png,exp3.png,trial_left_image,1,exp4.png,4,exp4.png,exp3.png,1,3,reversed,correct,0.648999572599281,1,valid_win,174.14228709999998,21,,,,,,,,,,,,,,,,sub_120,2022-08-23_16h01.06.286,Reversal,2022.1.1,60.116204623565174,4,
6,exp1.png,exp2.png,,1,0,1,0,0,6,6,6,,,,,,,,,,,,,,,,,,,,,,,,,False,26,27,True,exp2.png,exp1.png,trial_left_image,1,exp2.png,4,exp2.png,exp1.png,1,1,non-reversed,correct,0.7585116778857415,1,valid_win,180.12493349999977,22,,,,,,,,,,,,,,,,sub_120,2022-08-23_16h01.06.286,Reversal,2022.1.1,60.116204623565174,4,
7,exp3.png,exp4.png,,1,0,1,0,0,7,7,7,,,,,,,,,,,,,,,,,,,,,,,,,False,27,28,False,exp3.png,exp4.png,trial_right_image,-1,exp4.png,4,exp4.png,exp3.png,1,3,reversed,correct,0.48480534213681004,1,valid_win,187.14354119999962,23,,,,,,,,,,,,,,,,sub_120,2022-08-23_16h01.06.286,Reversal,2022.1.1,60.116204623565174,4,
8,exp1.png,exp2.png,,1,0,1,0,0,8,8,8,,,,,,,,,,,,,,,,,,,,,,,,,False,28,29,True,exp2.png,exp1.png,trial_left_image,1,exp2.png,4,exp2.png,exp1.png,1,1,non-reversed,correct,0.8855540566315594,1,valid_win,194.3077976999998,24,,,,,,,,,,,,,,,,sub_120,2022-08-23_16h01.06.286,Reversal,2022.1.1,60.116204623565174,4,
9,exp3.png,exp4.png,,1,0,1,0,0,9,9,9,,,,,,,,,,,,,,,,,,,,,,,,,False,29,30,False,exp3.png,exp4.png,trial_right_image,-1,exp4.png,4,exp4.png,exp3.png,1,3,reversed,correct,0.9349280893310018,1,valid_win,199.67285649999985,25,,,,,,,,,,,,,,,,sub_120,2022-08-23_16h01.06.286,Reversal,2022.1.1,60.116204623565174,4,
10,exp1.png,exp2.png,,1,0,1,0,0,10,10,10,,,,,,,,,,,,,,,,,,,,,,,,,False,30,31,False,exp1.png,exp2.png,trial_left_image,1,exp1.png,4,exp2.png,exp1.png,0,2,non-reversed,incorrect,0.2684239277151933,0,valid_lose,205.42183969999996,25,,,,,,,,,,,,,,,,sub_120,2022-08-23_16h01.06.286,Reversal,2022.1.1,60.116204623565174,4,
11,exp3.png,exp4.png,,1,0,1,0,0,11,11,11,,,,,,,,,,,,,,,,,,,,,,,,,False,31,32,True,exp4.png,exp3.png,trial_left_image,1,exp4.png,4,exp4.png,exp3.png,1,3,reversed,correct,0.7464133745733255,1,valid_win,212.4226547000003,26,,,,,,,,,,,,,,,,sub_120,2022-08-23_16h01.06.286,Reversal,2022.1.1,60.116204623565174,4,
12,exp1.png,exp2.png,,1,0,1,0,0,12,12,12,,,,,,,,,,,,,,,,,,,,,,,,,False,32,33,False,exp1.png,exp2.png,trial_right_image,-1,exp2.png,4,exp2.png,exp1.png,1,1,non-reversed,correct,0.7676749162426145,1,valid_win,217.95377679999956,27,,,,,,,,,,,,,,,,sub_120,2022-08-23_16h01.06.286,Reversal,2022.1.1,60.116204623565174,4,
13,exp3.png,exp4.png,,1,0,1,0,0,13,13,13,,,,,,,,,,,,,,,,,,,,,,,,,False,33,34,True,exp4.png,exp3.png,trial_right_image,-1,exp3.png,4,exp4.png,exp3.png,0,4,reversed,incorrect,0.776480537627769,0,valid_lose,224.68612929999972,27,,,,,,,,,,,,,,,,sub_120,2022-08-23_16h01.06.286,Reversal,2022.1.1,60.116204623565174,4,
14,exp1.png,exp2.png,,1,0,1,0,0,14,14,14,,,,,,,,,,,,,,,,,,,,,,,,,False,34,35,False,exp1.png,exp2.png,trial_left_image,1,exp1.png,4,exp2.png,exp1.png,0,2,non-reversed,incorrect,0.5457282036644105,0,valid_lose,230.40179859999944,27,,,,,,,,,,,,,,,,sub_120,2022-08-23_16h01.06.286,Reversal,2022.1.1,60.116204623565174,4,
15,exp3.png,exp4.png,,1,0,1,0,0,15,15,15,,,,,,,,,,,,,,,,,,,,,,,,,False,35,36,True,exp4.png,exp3.png,trial_left_image,1,exp4.png,4,exp4.png,exp3.png,1,3,reversed,correct,0.7759241617549285,1,valid_win,235.56988239999964,28,,,,,,,,,,,,,,,,sub_120,2022-08-23_16h01.06.286,Reversal,2022.1.1,60.116204623565174,4,
16,exp1.png,exp2.png,,1,0,1,0,0,16,16,16,,,,,,,,,,,,,,,,,,,,,,,,,False,36,37,False,exp1.png,exp2.png,trial_right_image,-1,exp2.png,4,exp2.png,exp1.png,1,1,non-reversed,correct,0.12001218507183731,0,invalid_lose,240.95112070000005,28,,,,,,,,,,,,,,,,sub_120,2022-08-23_16h01.06.286,Reversal,2022.1.1,60.116204623565174,4,
17,exp3.png,exp4.png,,1,0,1,0,0,17,17,17,,,,,,,,,,,,,,,,,,,,,,,,,False,37,38,False,exp3.png,exp4.png,trial_right_image,-1,exp4.png,4,exp4.png,exp3.png,1,3,reversed,correct,0.3878160406401451,1,valid_win,246.33255119999967,29,,,,,,,,,,,,,,,,sub_120,2022-08-23_16h01.06.286,Reversal,2022.1.1,60.116204623565174,4,
18,exp1.png,exp2.png,,1,0,1,0,0,18,18,18,,,,,,,,,,,,,,,,,,,,,,,,,False,38,39,True,exp2.png,exp1.png,trial_left_image,1,exp2.png,4,exp2.png,exp1.png,1,1,non-reversed,correct,0.862068207878427,1,valid_win,252.4659641000003,30,,,,,,,,,,,,,,,,sub_120,2022-08-23_16h01.06.286,Reversal,2022.1.1,60.116204623565174,4,
19,exp3.png,exp4.png,,1,0,1,0,0,19,19,19,,,,,,,,,,,,,,,,,,,,,,,,,False,39,40,False,exp3.png,exp4.png,trial_right_image,-1,exp4.png,4,exp4.png,exp3.png,1,3,reversed,correct,0.010699183903017273,0,invalid_lose,257.48276099999975,30,,,,,,,,,,,,,,,,sub_120,2022-08-23_16h01.06.286,Reversal,2022.1.1,60.116204623565174,4,
20,exp1.png,exp2.png,,1,0,1,0,0,20,20,20,,,,,,,,,,,,,,,,,,,,,,,,,True,,,,,,,,,,,,,,,,,,,,,,,,,,,,,,,,,,,,sub_120,2022-08-23_16h01.06.286,Reversal,2022.1.1,60.116204623565174,4,
,,,exp1.png,1,0,1,0,,,,,0,0,0,0,0,0,0,0,,,,,,,,,,,,,,,,,,,,,,,,,,,,,,,,,,,,,,6.0,6.0,8.604402900000423,"[(6.0, 8.604402900000423)]",379.9676079000001,None,,,,,,,,,,sub_120,2022-08-23_16h01.06.286,Reversal,2022.1.1,60.116204623565174,4,
,,,exp2.png,1,0,1,0,,,,,0,0,0,0,0,1,1,1,,,,,,,,,,,,,,,,,,,,,,,,,,,,,,,,,,,,,,,96.0,7.168522099999791,"[(96.0, 3.4019777999992584), (96.0, 7.168522099999791)]",390.0116866999997,None,96.0,,,,,,,,,sub_120,2022-08-23_16h01.06.286,Reversal,2022.1.1,60.116204623565174,4,
,,,exp3.png,1,0,1,0,,,,,0,0,0,0,0,2,2,2,,,,,,,,,,,,,,,,,,,,,,,,,,,,,,,,,,,,,,,20.0,5.687727300000006,"[(20.0, 5.687727300000006)]",398.35826129999987,None,,20.0,,,,,,,,sub_120,2022-08-23_16h01.06.286,Reversal,2022.1.1,60.116204623565174,4,
,,,exp4.png,1,0,1,0,,,,,0,0,0,0,0,3,3,3,,,,,,,,,,,,,,,,,,,,,,,,,,,,,,,,,,,,,,,94.0,2.841596700000082,"[(94.0, 2.841596700000082)]",405.22105009999996,None,,,94.0,,,,,,,sub_120,2022-08-23_16h01.06.286,Reversal,2022.1.1,60.116204623565174,4,
0,exp1.png,exp2.png,,2,0,2,0,0,0,0,0,,,,,,,,,,,,,,,,,,,,,,,,,False,40,41,False,exp1.png,exp2.png,trial_right_image,-1,exp2.png,4,exp2.png,exp1.png,1,1,non-reversed,correct,0.22306753059158213,0,invalid_lose,293.90954869999996,30,,,,,,,,,,,,,,,,sub_120,2022-08-23_16h01.06.286,Reversal,2022.1.1,60.116204623565174,4,
1,exp3.png,exp4.png,,2,0,2,0,0,1,1,1,,,,,,,,,,,,,,,,,,,,,,,,,False,41,42,True,exp4.png,exp3.png,trial_left_image,1,exp4.png,4,exp4.png,exp3.png,1,3,reversed,correct,0.6617080296426896,1,valid_win,299.42656990000023,31,,,,,,,,,,,,,,,,sub_120,2022-08-23_16h01.06.286,Reversal,2022.1.1,60.116204623565174,4,
2,exp1.png,exp2.png,,2,0,2,0,0,2,2,2,,,,,,,,,,,,,,,,,,,,,,,,,False,42,43,False,exp1.png,exp2.png,trial_right_image,-1,exp2.png,4,exp2.png,exp1.png,1,1,non-reversed,correct,0.33732020967512455,1,valid_win,305.0420591999996,32,,,,,,,,,,,,,,,,sub_120,2022-08-23_16h01.06.286,Reversal,2022.1.1,60.116204623565174,4,
3,exp3.png,exp4.png,,2,0,2,0,0,3,3,3,,,,,,,,,,,,,,,,,,,,,,,,,False,43,44,False,exp3.png,exp4.png,trial_left_image,1,exp3.png,4,exp4.png,exp3.png,0,4,reversed,incorrect,0.3437676074642212,0,valid_lose,310.2409051999998,32,,,,,,,,,,,,,,,,sub_120,2022-08-23_16h01.06.286,Reversal,2022.1.1,60.116204623565174,4,
4,exp1.png,exp2.png,,2,0,2,0,0,4,4,4,,,,,,,,,,,,,,,,,,,,,,,,,False,44,45,False,exp1.png,exp2.png,trial_right_image,-1,exp2.png,4,exp2.png,exp1.png,1,1,non-reversed,correct,0.16307668696528066,0,invalid_lose,314.84183970000004,32,,,,,,,,,,,,,,,,sub_120,2022-08-23_16h01.06.286,Reversal,2022.1.1,60.116204623565174,4,
5,exp3.png,exp4.png,,2,0,2,0,0,5,5,5,,,,,,,,,,,,,,,,,,,,,,,,,False,45,46,True,exp4.png,exp3.png,trial_left_image,1,exp4.png,4,exp4.png,exp3.png,1,3,reversed,correct,0.813225617406629,1,valid_win,320.5067181999998,33,,,,,,,,,,,,,,,,sub_120,2022-08-23_16h01.06.286,Reversal,2022.1.1,60.116204623565174,4,
6,exp1.png,exp2.png,,2,0,2,0,0,6,6,6,,,,,,,,,,,,,,,,,,,,,,,,,False,46,47,True,exp2.png,exp1.png,trial_left_image,1,exp2.png,4,exp2.png,exp1.png,1,1,non-reversed,correct,0.788852902361747,1,valid_win,325.2060901,34,,,,,,,,,,,,,,,,sub_120,2022-08-23_16h01.06.286,Reversal,2022.1.1,60.116204623565174,4,
7,exp3.png,exp4.png,,2,0,2,0,0,7,7,7,,,,,,,,,,,,,,,,,,,,,,,,,False,47,48,True,exp4.png,exp3.png,trial_left_image,1,exp4.png,4,exp4.png,exp3.png,1,3,reversed,correct,0.6563352354878802,1,valid_win,332.9729371999997,35,,,,,,,,,,,,,,,,sub_120,2022-08-23_16h01.06.286,Reversal,2022.1.1,60.116204623565174,4,
8,exp1.png,exp2.png,,2,0,2,0,0,8,8,8,,,,,,,,,,,,,,,,,,,,,,,,,False,48,49,False,exp1.png,exp2.png,trial_right_image,-1,exp2.png,4,exp2.png,exp1.png,1,1,non-reversed,correct,0.6727622584609185,1,valid_win,338.5222478999999,36,,,,,,,,,,,,,,,,sub_120,2022-08-23_16h01.06.286,Reversal,2022.1.1,60.116204623565174,4,
9,exp3.png,exp4.png,,2,0,2,0,0,9,9,9,,,,,,,,,,,,,,,,,,,,,,,,,False,49,50,True,exp4.png,exp3.png,trial_left_image,1,exp4.png,4,exp4.png,exp3.png,1,3,reversed,correct,0.4591590724297261,1,valid_win,345.0370184999997,37,,,,,,,,,,,,,,,,sub_120,2022-08-23_16h01.06.286,Reversal,2022.1.1,60.116204623565174,4,
10,exp1.png,exp2.png,,2,0,2,0,0,10,10,10,,,,,,,,,,,,,,,,,,,,,,,,,False,50,51,False,exp1.png,exp2.png,trial_right_image,-1,exp2.png,4,exp2.png,exp1.png,1,1,non-reversed,correct,0.1933907352362758,0,invalid_lose,350.6390601999997,37,,,,,,,,,,,,,,,,sub_120,2022-08-23_16h01.06.286,Reversal,2022.1.1,60.116204623565174,4,
11,exp3.png,exp4.png,,2,0,2,0,0,11,11,11,,,,,,,,,,,,,,,,,,,,,,,,,False,51,52,True,exp4.png,exp3.png,trial_left_image,1,exp4.png,4,exp4.png,exp3.png,1,3,reversed,correct,0.9370929744313415,1,valid_win,356.50167869999996,38,,,,,,,,,,,,,,,,sub_120,2022-08-23_16h01.06.286,Reversal,2022.1.1,60.116204623565174,4,
12,exp1.png,exp2.png,,2,0,2,0,0,12,12,12,,,,,,,,,,,,,,,,,,,,,,,,,False,52,53,True,exp2.png,exp1.png,trial_left_image,1,exp2.png,4,exp2.png,exp1.png,1,1,non-reversed,correct,0.6648403074162811,1,valid_win,361.61852619999945,39,,,,,,,,,,,,,,,,sub_120,2022-08-23_16h01.06.286,Reversal,2022.1.1,60.116204623565174,4,
13,exp3.png,exp4.png,,2,0,2,0,0,13,13,13,,,,,,,,,,,,,,,,,,,,,,,,,False,53,54,False,exp3.png,exp4.png,trial_left_image,1,exp3.png,4,exp4.png,exp3.png,0,4,reversed,incorrect,0.1945341863567015,1,invalid_win,369.5516536,40,,,,,,,,,,,,,,,,sub_120,2022-08-23_16h01.06.286,Reversal,2022.1.1,60.116204623565174,4,
14,exp1.png,exp2.png,,2,0,2,0,0,14,14,14,,,,,,,,,,,,,,,,,,,,,,,,,False,54,55,True,exp2.png,exp1.png,trial_left_image,1,exp2.png,4,exp2.png,exp1.png,1,1,non-reversed,correct,0.5456958032643886,1,valid_win,375.8823090000001,41,,,,,,,,,,,,,,,,sub_120,2022-08-23_16h01.06.286,Reversal,2022.1.1,60.116204623565174,4,
15,exp3.png,exp4.png,,2,0,2,0,0,15,15,15,,,,,,,,,,,,,,,,,,,,,,,,,False,55,56,True,exp4.png,exp3.png,trial_right_image,-1,exp3.png,4,exp4.png,exp3.png,0,4,reversed,incorrect,0.7429381347564529,0,valid_lose,381.14980849999984,41,,,,,,,,,,,,,,,,sub_120,2022-08-23_16h01.06.286,Reversal,2022.1.1,60.116204623565174,4,
16,exp1.png,exp2.png,,2,0,2,0,0,16,16,16,,,,,,,,,,,,,,,,,,,,,,,,,False,56,57,True,exp2.png,exp1.png,trial_left_image,1,exp2.png,4,exp2.png,exp1.png,1,1,non-reversed,correct,0.9251882767083902,1,valid_win,386.5997137999998,42,,,,,,,,,,,,,,,,sub_120,2022-08-23_16h01.06.286,Reversal,2022.1.1,60.116204623565174,4,
17,exp3.png,exp4.png,,2,0,2,0,0,17,17,17,,,,,,,,,,,,,,,,,,,,,,,,,False,57,58,False,exp3.png,exp4.png,trial_left_image,1,exp3.png,4,exp4.png,exp3.png,0,4,reversed,incorrect,0.03789910065877178,1,invalid_win,393.21420590000025,43,,,,,,,,,,,,,,,,sub_120,2022-08-23_16h01.06.286,Reversal,2022.1.1,60.116204623565174,4,
18,exp1.png,exp2.png,,2,0,2,0,0,18,18,18,,,,,,,,,,,,,,,,,,,,,,,,,False,58,59,False,exp1.png,exp2.png,trial_right_image,-1,exp2.png,4,exp2.png,exp1.png,1,1,non-reversed,correct,0.7997997231442388,1,valid_win,398.1974755999995,44,,,,,,,,,,,,,,,,sub_120,2022-08-23_16h01.06.286,Reversal,2022.1.1,60.116204623565174,4,
19,exp3.png,exp4.png,,2,0,2,0,0,19,19,19,,,,,,,,,,,,,,,,,,,,,,,,,False,59,60,False,exp3.png,exp4.png,trial_left_image,1,exp3.png,4,exp4.png,exp3.png,0,4,reversed,incorrect,0.7458655274475833,0,valid_lose,403.8293074999997,44,,,,,,,,,,,,,,,,sub_120,2022-08-23_16h01.06.286,Reversal,2022.1.1,60.116204623565174,4,
20,exp1.png,exp2.png,,2,0,2,0,0,20,20,20,,,,,,,,,,,,,,,,,,,,,,,,,True,,,,,,,,,,,,,,,,,,,,,,,,,,,,,,,,,,,,sub_120,2022-08-23_16h01.06.286,Reversal,2022.1.1,60.116204623565174,4,
,,,exp1.png,2,0,2,0,,,,,0,0,0,0,0,0,0,0,,,,,,,,,,,,,,,,,,,,,,,,,,,,,,,,,,,,,,1.0,1.0,8.811534999999822,"[(6.0, 4.944818899999518), (1.0, 8.811534999999822)]",526.3238200999995,None,,,,,,,,,,sub_120,2022-08-23_16h01.06.286,Reversal,2022.1.1,60.116204623565174,4,
,,,exp2.png,2,0,2,0,,,,,0,0,0,0,0,1,1,1,,,,,,,,,,,,,,,,,,,,,,,,,,,,,,,,,,,,,,,96.0,7.057506699999976,"[(96.0, 7.057506699999976)]",536.4862082999998,None,96.0,,,,,,,,,sub_120,2022-08-23_16h01.06.286,Reversal,2022.1.1,60.116204623565174,4,
,,,exp3.png,2,0,2,0,,,,,0,0,0,0,0,2,2,2,,,,,,,,,,,,,,,,,,,,,,,,,,,,,,,,,,,,,,,31.0,4.203597799999443,"[(31.0, 4.203597799999443)]",544.7747141,None,,31.0,,,,,,,,sub_120,2022-08-23_16h01.06.286,Reversal,2022.1.1,60.116204623565174,4,
,,,exp4.png,2,0,2,0,,,,,0,0,0,0,0,3,3,3,,,,,,,,,,,,,,,,,,,,,,,,,,,,,,,,,,,,,,,95.0,4.571470699999736,"[(95.0, 4.571470699999736)]",550.9740535000001,None,,,95.0,,,,,,,sub_120,2022-08-23_16h01.06.286,Reversal,2022.1.1,60.116204623565174,4,
0,exp1.png,exp2.png,,3,0,3,0,0,0,0,0,,,,,,,,,,,,,,,,,,,,,,,,,False,60,61,True,exp2.png,exp1.png,trial_left_image,1,exp2.png,4,exp2.png,exp1.png,1,1,non-reversed,correct,0.7222824231559912,1,valid_win,441.00775060000024,45,,,,,,,,,,,,,,,,sub_120,2022-08-23_16h01.06.286,Reversal,2022.1.1,60.116204623565174,4,
1,exp3.png,exp4.png,,3,0,3,0,0,1,1,1,,,,,,,,,,,,,,,,,,,,,,,,,False,61,62,False,exp3.png,exp4.png,trial_left_image,1,exp3.png,4,exp4.png,exp3.png,0,4,reversed,incorrect,0.4836924418470041,0,valid_lose,450.9900445999997,45,,,,,,,,,,,,,,,,sub_120,2022-08-23_16h01.06.286,Reversal,2022.1.1,60.116204623565174,4,
2,exp1.png,exp2.png,,3,0,3,0,0,2,2,2,,,,,,,,,,,,,,,,,,,,,,,,,False,62,63,True,exp2.png,exp1.png,trial_left_image,1,exp2.png,4,exp2.png,exp1.png,1,1,non-reversed,correct,0.6502227004179072,1,valid_win,456.1725286999995,46,,,,,,,,,,,,,,,,sub_120,2022-08-23_16h01.06.286,Reversal,2022.1.1,60.116204623565174,4,
3,exp3.png,exp4.png,,3,0,3,0,0,3,3,3,,,,,,,,,,,,,,,,,,,,,,,,,False,63,64,False,exp3.png,exp4.png,trial_left_image,1,exp3.png,4,exp4.png,exp3.png,0,4,reversed,incorrect,0.9967966492404419,0,valid_lose,461.9056802,46,,,,,,,,,,,,,,,,sub_120,2022-08-23_16h01.06.286,Reversal,2022.1.1,60.116204623565174,4,
4,exp1.png,exp2.png,,3,0,3,0,0,4,4,4,,,,,,,,,,,,,,,,,,,,,,,,,False,64,65,False,exp1.png,exp2.png,trial_right_image,-1,exp2.png,4,exp2.png,exp1.png,1,1,non-reversed,correct,0.80634217735849,1,valid_win,466.4055824000002,47,,,,,,,,,,,,,,,,sub_120,2022-08-23_16h01.06.286,Reversal,2022.1.1,60.116204623565174,4,
5,exp3.png,exp4.png,,3,0,3,0,0,5,5,5,,,,,,,,,,,,,,,,,,,,,,,,,False,65,66,False,exp3.png,exp4.png,trial_right_image,-1,exp4.png,4,exp4.png,exp3.png,1,3,reversed,correct,0.17614049613516602,0,invalid_lose,471.62208210000017,47,,,,,,,,,,,,,,,,sub_120,2022-08-23_16h01.06.286,Reversal,2022.1.1,60.116204623565174,4,
6,exp1.png,exp2.png,,3,0,3,0,0,6,6,6,,,,,,,,,,,,,,,,,,,,,,,,,False,66,67,False,exp1.png,exp2.png,trial_right_image,-1,exp2.png,4,exp2.png,exp1.png,1,1,non-reversed,correct,0.5500792766717574,1,valid_win,476.83595959999957,48,,,,,,,,,,,,,,,,sub_120,2022-08-23_16h01.06.286,Reversal,2022.1.1,60.116204623565174,4,
7,exp3.png,exp4.png,,3,0,3,0,0,7,7,7,,,,,,,,,,,,,,,,,,,,,,,,,False,67,68,False,exp3.png,exp4.png,trial_left_image,1,exp3.png,4,exp4.png,exp3.png,0,4,reversed,incorrect,0.5331785538092998,0,valid_lose,483.2546963,48,,,,,,,,,,,,,,,,sub_120,2022-08-23_16h01.06.286,Reversal,2022.1.1,60.116204623565174,4,
8,exp1.png,exp2.png,,3,0,3,0,0,8,8,8,,,,,,,,,,,,,,,,,,,,,,,,,False,68,69,True,exp2.png,exp1.png,trial_left_image,1,exp2.png,4,exp2.png,exp1.png,1,1,non-reversed,correct,0.7746609652783079,1,valid_win,488.2349165999999,49,,,,,,,,,,,,,,,,sub_120,2022-08-23_16h01.06.286,Reversal,2022.1.1,60.116204623565174,4,
9,exp3.png,exp4.png,,3,0,3,0,0,9,9,9,,,,,,,,,,,,,,,,,,,,,,,,,False,69,70,True,exp4.png,exp3.png,trial_left_image,1,exp4.png,4,exp4.png,exp3.png,1,3,reversed,correct,0.6397966024123559,1,valid_win,497.9504308999999,50,,,,,,,,,,,,,,,,sub_120,2022-08-23_16h01.06.286,Reversal,2022.1.1,60.116204623565174,4,
10,exp1.png,exp2.png,,3,0,3,0,0,10,10,10,,,,,,,,,,,,,,,,,,,,,,,,,False,70,71,False,exp1.png,exp2.png,trial_right_image,-1,exp2.png,4,exp2.png,exp1.png,1,1,non-reversed,correct,0.7485869201150834,1,valid_win,503.3669718999995,51,,,,,,,,,,,,,,,,sub_120,2022-08-23_16h01.06.286,Reversal,2022.1.1,60.116204623565174,4,
11,exp3.png,exp4.png,,3,0,3,0,0,11,11,11,,,,,,,,,,,,,,,,,,,,,,,,,False,71,72,True,exp4.png,exp3.png,trial_right_image,-1,exp3.png,4,exp4.png,exp3.png,0,4,reversed,incorrect,0.708856212974394,0,valid_lose,508.7159717999998,51,,,,,,,,,,,,,,,,sub_120,2022-08-23_16h01.06.286,Reversal,2022.1.1,60.116204623565174,4,
12,exp1.png,exp2.png,,3,0,3,0,0,12,12,12,,,,,,,,,,,,,,,,,,,,,,,,,False,72,73,True,exp2.png,exp1.png,trial_left_image,1,exp2.png,4,exp2.png,exp1.png,1,1,non-reversed,correct,0.014736300845163974,0,invalid_lose,513.9319954999996,51,,,,,,,,,,,,,,,,sub_120,2022-08-23_16h01.06.286,Reversal,2022.1.1,60.116204623565174,4,
13,exp3.png,exp4.png,,3,0,3,0,0,13,13,13,,,,,,,,,,,,,,,,,,,,,,,,,False,73,74,False,exp3.png,exp4.png,trial_right_image,-1,exp4.png,4,exp4.png,exp3.png,1,3,reversed,correct,0.6997719807393356,1,valid_win,518.5991100999995,52,,,,,,,,,,,,,,,,sub_120,2022-08-23_16h01.06.286,Reversal,2022.1.1,60.116204623565174,4,
14,exp1.png,exp2.png,,3,0,3,0,0,14,14,14,,,,,,,,,,,,,,,,,,,,,,,,,False,74,75,True,exp2.png,exp1.png,trial_left_image,1,exp2.png,4,exp2.png,exp1.png,1,1,non-reversed,correct,0.9071890565888645,1,valid_win,523.4805856999997,53,,,,,,,,,,,,,,,,sub_120,2022-08-23_16h01.06.286,Reversal,2022.1.1,60.116204623565174,4,
15,exp3.png,exp4.png,,3,0,3,0,0,15,15,15,,,,,,,,,,,,,,,,,,,,,,,,,False,75,76,False,exp3.png,exp4.png,trial_right_image,-1,exp4.png,4,exp4.png,exp3.png,1,3,reversed,correct,0.36750484460361577,1,valid_win,528.7291633999998,54,,,,,,,,,,,,,,,,sub_120,2022-08-23_16h01.06.286,Reversal,2022.1.1,60.116204623565174,4,
16,exp1.png,exp2.png,,3,0,3,0,0,16,16,16,,,,,,,,,,,,,,,,,,,,,,,,,False,76,77,True,exp2.png,exp1.png,trial_left_image,1,exp2.png,4,exp2.png,exp1.png,1,1,non-reversed,correct,0.5033925064645017,1,valid_win,533.8126993999999,55,,,,,,,,,,,,,,,,sub_120,2022-08-23_16h01.06.286,Reversal,2022.1.1,60.116204623565174,4,
17,exp3.png,exp4.png,,3,0,3,0,0,17,17,17,,,,,,,,,,,,,,,,,,,,,,,,,False,77,78,True,exp4.png,exp3.png,trial_right_image,-1,exp3.png,4,exp4.png,exp3.png,0,4,reversed,incorrect,0.8648026362792608,0,valid_lose,540.3605941999999,55,,,,,,,,,,,,,,,,sub_120,2022-08-23_16h01.06.286,Reversal,2022.1.1,60.116204623565174,4,
18,exp1.png,exp2.png,,3,0,3,0,0,18,18,18,,,,,,,,,,,,,,,,,,,,,,,,,False,78,79,True,exp2.png,exp1.png,trial_left_image,1,exp2.png,4,exp2.png,exp1.png,1,1,non-reversed,correct,0.5397889005102806,1,valid_win,545.8450235999994,56,,,,,,,,,,,,,,,,sub_120,2022-08-23_16h01.06.286,Reversal,2022.1.1,60.116204623565174,4,
19,exp3.png,exp4.png,,3,0,3,0,0,19,19,19,,,,,,,,,,,,,,,,,,,,,,,,,False,79,80,False,exp3.png,exp4.png,trial_right_image,-1,exp4.png,4,exp4.png,exp3.png,1,3,reversed,correct,0.2916758881109448,1,valid_win,551.4771412999994,57,,,,,,,,,,,,,,,,sub_120,2022-08-23_16h01.06.286,Reversal,2022.1.1,60.116204623565174,4,
20,exp1.png,exp2.png,,3,0,3,0,0,20,20,20,,,,,,,,,,,,,,,,,,,,,,,,,True,,,,,,,,,,,,,,,,,,,,,,,,,,,,,,,,,,,,sub_120,2022-08-23_16h01.06.286,Reversal,2022.1.1,60.116204623565174,4,
,,,exp1.png,3,0,3,0,,,,,0,0,0,0,0,0,0,0,,,,,,,,,,,,,,,,,,,,,,,,,,,,,,,,,,,,,,1.0,1.0,2.507033699999738,"[(1.0, 2.507033699999738)]",673.9593783999999,None,,,,,,,,,,sub_120,2022-08-23_16h01.06.286,Reversal,2022.1.1,60.116204623565174,4,
,,,exp2.png,3,0,3,0,,,,,0,0,0,0,0,1,1,1,,,,,,,,,,,,,,,,,,,,,,,,,,,,,,,,,,,,,,,100.0,3.2896592999995846,"[(100.0, 3.2896592999995846)]",677.8688424000002,None,100.0,,,,,,,,,sub_120,2022-08-23_16h01.06.286,Reversal,2022.1.1,60.116204623565174,4,
,,,exp3.png,3,0,3,0,,,,,0,0,0,0,0,2,2,2,,,,,,,,,,,,,,,,,,,,,,,,,,,,,,,,,,,,,,,51.0,6.821106800000052,"[(14.0, 4.1548657000003), (51.0, 6.821106800000052)]",682.3542297000004,None,,51.0,,,,,,,,sub_120,2022-08-23_16h01.06.286,Reversal,2022.1.1,60.116204623565174,4,
,,,exp4.png,3,0,3,0,,,,,0,0,0,0,0,3,3,3,,,,,,,,,,,,,,,,,,,,,,,,,,,,,,,,,,,,,,,50.0,None,[],690.2054122,None,,,,,,,,,,sub_120,2022-08-23_16h01.06.286,Reversal,2022.1.1,60.116204623565174,4,
0,exp1.png,exp2.png,,,,,,,,,,,,,,,,,,0,0,0,0,0,0,0,0,,,,,,,,,False,0,81,True,exp2.png,exp1.png,trial_left_image,1,exp2.png,4,exp2.png,exp1.png,1,1,non-reversed,correct,0.3424544947996737,1,valid_win,578.5425125999996,58,,,,,,,,,,572.7121474999999,,,,,,sub_120,2022-08-23_16h01.06.286,Reversal,2022.1.1,60.116204623565174,4,
1,exp3.png,exp4.png,,,,,,,,,,,,,,,,,,0,0,0,0,0,1,1,1,,,,,,,,,False,1,82,True,exp4.png,exp3.png,trial_right_image,-1,exp3.png,4,exp3.png,exp4.png,0,4,reversed,correct,0.2077099959283648,0,invalid_lose,584.9227213999998,58,,,,,,,,,,,,,,,,sub_120,2022-08-23_16h01.06.286,Reversal,2022.1.1,60.116204623565174,4,
2,exp1.png,exp2.png,,,,,,,,,,,,,,,,,,0,0,0,0,0,2,2,2,,,,,,,,,False,2,83,False,exp1.png,exp2.png,trial_right_image,-1,exp2.png,4,exp2.png,exp1.png,1,1,non-reversed,correct,0.5173541820405654,1,valid_win,589.7550260000003,59,,,,,,,,,,,,,,,,sub_120,2022-08-23_16h01.06.286,Reversal,2022.1.1,60.116204623565174,4,
3,exp3.png,exp4.png,,,,,,,,,,,,,,,,,,0,0,0,0,0,3,3,3,,,,,,,,,False,3,84,True,exp4.png,exp3.png,trial_left_image,1,exp4.png,4,exp3.png,exp4.png,1,3,reversed,incorrect,0.6897232427135008,0,valid_lose,596.0213896999999,59,,,,,,,,,,,,,,,,sub_120,2022-08-23_16h01.06.286,Reversal,2022.1.1,60.116204623565174,4,
4,exp1.png,exp2.png,,,,,,,,,,,,,,,,,,0,0,0,0,0,4,4,4,,,,,,,,,False,4,85,False,exp1.png,exp2.png,trial_right_image,-1,exp2.png,4,exp2.png,exp1.png,1,1,non-reversed,correct,0.6008905229364206,1,valid_win,601.6036596999998,60,,,,,,,,,,,,,,,,sub_120,2022-08-23_16h01.06.286,Reversal,2022.1.1,60.116204623565174,4,
5,exp3.png,exp4.png,,,,,,,,,,,,,,,,,,0,0,0,0,0,5,5,5,,,,,,,,,False,5,86,False,exp3.png,exp4.png,trial_right_image,-1,exp4.png,4,exp3.png,exp4.png,1,3,reversed,incorrect,0.33682974561921375,0,valid_lose,606.7030989999998,60,,,,,,,,,,,,,,,,sub_120,2022-08-23_16h01.06.286,Reversal,2022.1.1,60.116204623565174,4,
6,exp1.png,exp2.png,,,,,,,,,,,,,,,,,,0,0,0,0,0,6,6,6,,,,,,,,,False,6,87,False,exp1.png,exp2.png,trial_right_image,-1,exp2.png,4,exp2.png,exp1.png,1,1,non-reversed,correct,0.5991259829270434,1,valid_win,612.0689889,61,,,,,,,,,,,,,,,,sub_120,2022-08-23_16h01.06.286,Reversal,2022.1.1,60.116204623565174,4,
7,exp3.png,exp4.png,,,,,,,,,,,,,,,,,,0,0,0,0,0,7,7,7,,,,,,,,,False,7,88,True,exp4.png,exp3.png,trial_left_image,1,exp4.png,4,exp3.png,exp4.png,1,3,reversed,incorrect,0.05878179497514169,1,invalid_win,619.3023870000002,62,,,,,,,,,,,,,,,,sub_120,2022-08-23_16h01.06.286,Reversal,2022.1.1,60.116204623565174,4,
8,exp1.png,exp2.png,,,,,,,,,,,,,,,,,,0,0,0,0,0,8,8,8,,,,,,,,,False,8,89,False,exp1.png,exp2.png,trial_right_image,-1,exp2.png,4,exp2.png,exp1.png,1,1,non-reversed,correct,0.7671795141207156,1,valid_win,624.0343996999995,63,,,,,,,,,,,,,,,,sub_120,2022-08-23_16h01.06.286,Reversal,2022.1.1,60.116204623565174,4,
9,exp3.png,exp4.png,,,,,,,,,,,,,,,,,,0,0,0,0,0,9,9,9,,,,,,,,,False,9,90,True,exp4.png,exp3.png,trial_left_image,1,exp4.png,4,exp3.png,exp4.png,1,3,reversed,incorrect,0.7157549500375534,0,valid_lose,629.3500736000001,63,,,,,,,,,,,,,,,,sub_120,2022-08-23_16h01.06.286,Reversal,2022.1.1,60.116204623565174,4,
10,exp1.png,exp2.png,,,,,,,,,,,,,,,,,,0,0,0,0,0,10,10,10,,,,,,,,,False,10,91,True,exp2.png,exp1.png,trial_left_image,1,exp2.png,4,exp2.png,exp1.png,1,1,non-reversed,correct,0.628620758514298,1,valid_win,634.2336290999997,64,,,,,,,,,,,,,,,,sub_120,2022-08-23_16h01.06.286,Reversal,2022.1.1,60.116204623565174,4,
11,exp3.png,exp4.png,,,,,,,,,,,,,,,,,,0,0,0,0,0,11,11,11,,,,,,,,,False,11,92,True,exp4.png,exp3.png,trial_left_image,1,exp4.png,4,exp3.png,exp4.png,1,3,reversed,incorrect,0.19909698605751602,1,invalid_win,641.0323224999997,65,,,,,,,,,,,,,,,,sub_120,2022-08-23_16h01.06.286,Reversal,2022.1.1,60.116204623565174,4,
12,exp1.png,exp2.png,,,,,,,,,,,,,,,,,,0,0,0,0,0,12,12,12,,,,,,,,,False,12,93,False,exp1.png,exp2.png,trial_right_image,-1,exp2.png,4,exp2.png,exp1.png,1,1,non-reversed,correct,0.017414416564449198,0,invalid_lose,646.0641221999999,65,,,,,,,,,,,,,,,,sub_120,2022-08-23_16h01.06.286,Reversal,2022.1.1,60.116204623565174,4,
13,exp3.png,exp4.png,,,,,,,,,,,,,,,,,,0,0,0,0,0,13,13,13,,,,,,,,,False,13,94,True,exp4.png,exp3.png,trial_right_image,-1,exp3.png,4,exp3.png,exp4.png,0,4,reversed,correct,0.3359448582602498,1,valid_win,650.9151108000001,66,,,,,,,,,,,,,,,,sub_120,2022-08-23_16h01.06.286,Reversal,2022.1.1,60.116204623565174,4,
14,exp1.png,exp2.png,,,,,,,,,,,,,,,,,,0,0,0,0,0,14,14,14,,,,,,,,,False,14,95,False,exp1.png,exp2.png,trial_right_image,-1,exp2.png,4,exp2.png,exp1.png,1,1,non-reversed,correct,0.4260017838040635,1,valid_win,655.9978429999996,67,,,,,,,,,,,,,,,,sub_120,2022-08-23_16h01.06.286,Reversal,2022.1.1,60.116204623565174,4,
15,exp3.png,exp4.png,,,,,,,,,,,,,,,,,,0,0,0,0,0,15,15,15,,,,,,,,,False,15,96,False,exp3.png,exp4.png,trial_right_image,-1,exp4.png,4,exp3.png,exp4.png,1,3,reversed,incorrect,0.8493500678270156,0,valid_lose,660.8123608000001,67,,,,,,,,,,,,,,,,sub_120,2022-08-23_16h01.06.286,Reversal,2022.1.1,60.116204623565174,4,
16,exp1.png,exp2.png,,,,,,,,,,,,,,,,,,0,0,0,0,0,16,16,16,,,,,,,,,False,16,97,False,exp1.png,exp2.png,trial_right_image,-1,exp2.png,4,exp2.png,exp1.png,1,1,non-reversed,correct,0.9089275552393479,1,valid_win,665.8132034999994,68,,,,,,,,,,,,,,,,sub_120,2022-08-23_16h01.06.286,Reversal,2022.1.1,60.116204623565174,4,
17,exp3.png,exp4.png,,,,,,,,,,,,,,,,,,0,0,0,0,0,17,17,17,,,,,,,,,False,17,98,False,exp3.png,exp4.png,trial_right_image,-1,exp4.png,4,exp3.png,exp4.png,1,3,reversed,incorrect,0.5308238673549949,0,valid_lose,670.8607582999998,68,,,,,,,,,,,,,,,,sub_120,2022-08-23_16h01.06.286,Reversal,2022.1.1,60.116204623565174,4,
18,exp1.png,exp2.png,,,,,,,,,,,,,,,,,,0,0,0,0,0,18,18,18,,,,,,,,,False,18,99,True,exp2.png,exp1.png,trial_left_image,1,exp2.png,4,exp2.png,exp1.png,1,1,non-reversed,correct,0.3890330153248547,1,valid_win,676.26287,69,,,,,,,,,,,,,,,,sub_120,2022-08-23_16h01.06.286,Reversal,2022.1.1,60.116204623565174,4,
19,exp3.png,exp4.png,,,,,,,,,,,,,,,,,,0,0,0,0,0,19,19,19,,,,,,,,,False,19,100,True,exp4.png,exp3.png,trial_right_image,-1,exp3.png,4,exp3.png,exp4.png,0,4,reversed,correct,0.745529040685201,1,valid_win,680.8944725999995,70,,,,,,,,,,,,,,,,sub_120,2022-08-23_16h01.06.286,Reversal,2022.1.1,60.116204623565174,4,
20,exp1.png,exp2.png,,,,,,,,,,,,,,,,,,0,0,0,0,0,20,20,20,,,,,,,,,True,,,,,,,,,,,,,,,,,,,,,,,,,,,,,,,,,,,,sub_120,2022-08-23_16h01.06.286,Reversal,2022.1.1,60.116204623565174,4,
,,,exp1.png,,,,,,,,,,,,,,,,,0,0,0,0,,,,,0,0,0,0,0,0,0,0,,,,,,,,,,,,,,,,,,,,,,2.0,2.0,3.6142178999998578,"[(2.0, 3.6142178999998578)]",803.3880120000003,None,,,,,,,,,,sub_120,2022-08-23_16h01.06.286,Reversal,2022.1.1,60.116204623565174,4,
,,,exp2.png,,,,,,,,,,,,,,,,,0,0,0,0,,,,,0,0,0,0,0,1,1,1,,,,,,,,,,,,,,,,,,,,,,,100.0,2.8916513999993185,"[(100.0, 2.8916513999993185)]",808.3853522999998,None,100.0,,,,,,,,,sub_120,2022-08-23_16h01.06.286,Reversal,2022.1.1,60.116204623565174,4,
,,,exp3.png,,,,,,,,,,,,,,,,,0,0,0,0,,,,,0,0,0,0,0,2,2,2,,,,,,,,,,,,,,,,,,,,,,,50.0,None,[],812.4575814999998,None,,,,,,,,,,sub_120,2022-08-23_16h01.06.286,Reversal,2022.1.1,60.116204623565174,4,
,,,exp4.png,,,,,,,,,,,,,,,,,0,0,0,0,,,,,0,0,0,0,0,3,3,3,,,,,,,,,,,,,,,,,,,,,,,50.0,None,[],814.2418424999996,None,,,,,,,,,,sub_120,2022-08-23_16h01.06.286,Reversal,2022.1.1,60.116204623565174,4,
0,exp1.png,exp2.png,,,,,,,,,,,,,,,,,,1,0,1,0,0,0,0,0,,,,,,,,,False,20,101,False,exp1.png,exp2.png,trial_right_image,-1,exp2.png,4,exp2.png,exp1.png,1,1,non-reversed,correct,0.006437562563105792,0,invalid_lose,699.5748802000003,70,,,,,,,,,,,,,,,,sub_120,2022-08-23_16h01.06.286,Reversal,2022.1.1,60.116204623565174,4,
1,exp3.png,exp4.png,,,,,,,,,,,,,,,,,,1,0,1,0,0,1,1,1,,,,,,,,,False,21,102,False,exp3.png,exp4.png,trial_right_image,-1,exp4.png,4,exp3.png,exp4.png,1,3,reversed,incorrect,0.8763469653056725,0,valid_lose,706.2566222999999,70,,,,,,,,,,,,,,,,sub_120,2022-08-23_16h01.06.286,Reversal,2022.1.1,60.116204623565174,4,
2,exp1.png,exp2.png,,,,,,,,,,,,,,,,,,1,0,1,0,0,2,2,2,,,,,,,,,False,22,103,False,exp1.png,exp2.png,trial_right_image,-1,exp2.png,4,exp2.png,exp1.png,1,1,non-reversed,correct,0.533614563747317,1,valid_win,711.3079057,71,,,,,,,,,,,,,,,,sub_120,2022-08-23_16h01.06.286,Reversal,2022.1.1,60.116204623565174,4,
3,exp3.png,exp4.png,,,,,,,,,,,,,,,,,,1,0,1,0,0,3,3,3,,,,,,,,,False,23,104,False,exp3.png,exp4.png,trial_left_image,1,exp3.png,4,exp3.png,exp4.png,0,4,reversed,correct,0.16924082577271105,0,invalid_lose,716.3565729999996,71,,,,,,,,,,,,,,,,sub_120,2022-08-23_16h01.06.286,Reversal,2022.1.1,60.116204623565174,4,
4,exp1.png,exp2.png,,,,,,,,,,,,,,,,,,1,0,1,0,0,4,4,4,,,,,,,,,False,24,105,False,exp1.png,exp2.png,trial_left_image,1,exp1.png,4,exp2.png,exp1.png,0,2,non-reversed,incorrect,0.9135488200690994,0,valid_lose,721.7047927999997,71,,,,,,,,,,,,,,,,sub_120,2022-08-23_16h01.06.286,Reversal,2022.1.1,60.116204623565174,4,
5,exp3.png,exp4.png,,,,,,,,,,,,,,,,,,1,0,1,0,0,5,5,5,,,,,,,,,False,25,106,True,exp4.png,exp3.png,trial_left_image,1,exp4.png,4,exp3.png,exp4.png,1,3,reversed,incorrect,0.5586368162945655,0,valid_lose,727.9383140999994,71,,,,,,,,,,,,,,,,sub_120,2022-08-23_16h01.06.286,Reversal,2022.1.1,60.116204623565174,4,
6,exp1.png,exp2.png,,,,,,,,,,,,,,,,,,1,0,1,0,0,6,6,6,,,,,,,,,False,26,107,False,exp1.png,exp2.png,trial_right_image,-1,exp2.png,4,exp2.png,exp1.png,1,1,non-reversed,correct,0.050451932357668094,0,invalid_lose,732.9036608000001,71,,,,,,,,,,,,,,,,sub_120,2022-08-23_16h01.06.286,Reversal,2022.1.1,60.116204623565174,4,
7,exp3.png,exp4.png,,,,,,,,,,,,,,,,,,1,0,1,0,0,7,7,7,,,,,,,,,False,27,108,True,exp4.png,exp3.png,trial_right_image,-1,exp3.png,4,exp3.png,exp4.png,0,4,reversed,correct,0.5217779913572509,1,valid_win,739.7855285999999,72,,,,,,,,,,,,,,,,sub_120,2022-08-23_16h01.06.286,Reversal,2022.1.1,60.116204623565174,4,
8,exp1.png,exp2.png,,,,,,,,,,,,,,,,,,1,0,1,0,0,8,8,8,,,,,,,,,False,28,109,True,exp2.png,exp1.png,trial_left_image,1,exp2.png,4,exp2.png,exp1.png,1,1,non-reversed,correct,0.9799451817402339,1,valid_win,744.7184217999998,73,,,,,,,,,,,,,,,,sub_120,2022-08-23_16h01.06.286,Reversal,2022.1.1,60.116204623565174,4,
9,exp3.png,exp4.png,,,,,,,,,,,,,,,,,,1,0,1,0,0,9,9,9,,,,,,,,,False,29,110,True,exp4.png,exp3.png,trial_left_image,1,exp4.png,4,exp3.png,exp4.png,1,3,reversed,incorrect,0.8912497868636492,0,valid_lose,751.4177849000002,73,,,,,,,,,,,,,,,,sub_120,2022-08-23_16h01.06.286,Reversal,2022.1.1,60.116204623565174,4,
10,exp1.png,exp2.png,,,,,,,,,,,,,,,,,,1,0,1,0,0,10,10,10,,,,,,,,,False,30,111,False,exp1.png,exp2.png,trial_right_image,-1,exp2.png,4,exp2.png,exp1.png,1,1,non-reversed,correct,0.06957155724986286,0,invalid_lose,756.1003059,73,,,,,,,,,,,,,,,,sub_120,2022-08-23_16h01.06.286,Reversal,2022.1.1,60.116204623565174,4,
11,exp3.png,exp4.png,,,,,,,,,,,,,,,,,,1,0,1,0,0,11,11,11,,,,,,,,,False,31,112,False,exp3.png,exp4.png,trial_right_image,-1,exp4.png,4,exp3.png,exp4.png,1,3,reversed,incorrect,0.7251034985441189,0,valid_lose,761.4994092000002,73,,,,,,,,,,,,,,,,sub_120,2022-08-23_16h01.06.286,Reversal,2022.1.1,60.116204623565174,4,
12,exp1.png,exp2.png,,,,,,,,,,,,,,,,,,1,0,1,0,0,12,12,12,,,,,,,,,False,32,113,True,exp2.png,exp1.png,trial_right_image,-1,exp1.png,4,exp2.png,exp1.png,0,2,non-reversed,incorrect,0.125098489620047,1,invalid_win,766.0340061000002,74,,,,,,,,,,,,,,,,sub_120,2022-08-23_16h01.06.286,Reversal,2022.1.1,60.116204623565174,4,
13,exp3.png,exp4.png,,,,,,,,,,,,,,,,,,1,0,1,0,0,13,13,13,,,,,,,,,False,33,114,True,exp4.png,exp3.png,trial_right_image,-1,exp3.png,4,exp3.png,exp4.png,0,4,reversed,correct,0.9658457168660769,1,valid_win,770.8489210000002,75,,,,,,,,,,,,,,,,sub_120,2022-08-23_16h01.06.286,Reversal,2022.1.1,60.116204623565174,4,
14,exp1.png,exp2.png,,,,,,,,,,,,,,,,,,1,0,1,0,0,14,14,14,,,,,,,,,False,34,115,False,exp1.png,exp2.png,trial_right_image,-1,exp2.png,4,exp2.png,exp1.png,1,1,non-reversed,correct,0.0873585006443115,0,invalid_lose,775.0976061999995,75,,,,,,,,,,,,,,,,sub_120,2022-08-23_16h01.06.286,Reversal,2022.1.1,60.116204623565174,4,
15,exp3.png,exp4.png,,,,,,,,,,,,,,,,,,1,0,1,0,0,15,15,15,,,,,,,,,False,35,116,False,exp3.png,exp4.png,trial_right_image,-1,exp4.png,4,exp3.png,exp4.png,1,3,reversed,incorrect,0.6038083680255174,0,valid_lose,780.5641279999995,75,,,,,,,,,,,,,,,,sub_120,2022-08-23_16h01.06.286,Reversal,2022.1.1,60.116204623565174,4,
16,exp1.png,exp2.png,,,,,,,,,,,,,,,,,,1,0,1,0,0,16,16,16,,,,,,,,,False,36,117,True,exp2.png,exp1.png,trial_right_image,-1,exp1.png,4,exp2.png,exp1.png,0,2,non-reversed,incorrect,0.2747321588030508,0,valid_lose,784.7822510999999,75,,,,,,,,,,,,,,,,sub_120,2022-08-23_16h01.06.286,Reversal,2022.1.1,60.116204623565174,4,
17,exp3.png,exp4.png,,,,,,,,,,,,,,,,,,1,0,1,0,0,17,17,17,,,,,,,,,False,37,118,True,exp4.png,exp3.png,trial_right_image,-1,exp3.png,4,exp3.png,exp4.png,0,4,reversed,correct,0.14300699868841216,0,invalid_lose,788.9291523999996,75,,,,,,,,,,,,,,,,sub_120,2022-08-23_16h01.06.286,Reversal,2022.1.1,60.116204623565174,4,
18,exp1.png,exp2.png,,,,,,,,,,,,,,,,,,1,0,1,0,0,18,18,18,,,,,,,,,False,38,119,True,exp2.png,exp1.png,trial_left_image,1,exp2.png,4,exp2.png,exp1.png,1,1,non-reversed,correct,0.8512309104522996,1,valid_win,793.9118266999999,76,,,,,,,,,,,,,,,,sub_120,2022-08-23_16h01.06.286,Reversal,2022.1.1,60.116204623565174,4,
19,exp3.png,exp4.png,,,,,,,,,,,,,,,,,,1,0,1,0,0,19,19,19,,,,,,,,,False,39,120,True,exp4.png,exp3.png,trial_right_image,-1,exp3.png,4,exp3.png,exp4.png,0,4,reversed,correct,0.23495538511782843,0,invalid_lose,799.5441138000001,76,,,,,,,,,,,,,,,,sub_120,2022-08-23_16h01.06.286,Reversal,2022.1.1,60.116204623565174,4,
20,exp1.png,exp2.png,,,,,,,,,,,,,,,,,,1,0,1,0,0,20,20,20,,,,,,,,,True,,,,,,,,,,,,,,,,,,,,,,,,,,,,,,,,,,,,sub_120,2022-08-23_16h01.06.286,Reversal,2022.1.1,60.116204623565174,4,
,,,exp1.png,,,,,,,,,,,,,,,,,1,0,1,0,,,,,0,0,0,0,0,0,0,0,,,,,,,,,,,,,,,,,,,,,,,50.0,None,[],922.0350783000004,None,,,,,,,,,,sub_120,2022-08-23_16h01.06.286,Reversal,2022.1.1,60.116204623565174,4,
,,,exp2.png,,,,,,,,,,,,,,,,,1,0,1,0,,,,,0,0,0,0,0,1,1,1,,,,,,,,,,,,,,,,,,,,,,,50.0,None,[],929.1884945000002,None,,,,,,,,,,sub_120,2022-08-23_16h01.06.286,Reversal,2022.1.1,60.116204623565174,4,
,,,exp3.png,,,,,,,,,,,,,,,,,1,0,1,0,,,,,0,0,0,0,0,2,2,2,,,,,,,,,,,,,,,,,,,,,,,50.0,None,[],932.4861560999998,None,,,,,,,,,,sub_120,2022-08-23_16h01.06.286,Reversal,2022.1.1,60.116204623565174,4,
,,,exp4.png,,,,,,,,,,,,,,,,,1,0,1,0,,,,,0,0,0,0,0,3,3,3,,,,,,,,,,,,,,,,,,,,,,,50.0,None,[],933.9736873000002,None,,,,,,,,,,sub_120,2022-08-23_16h01.06.286,Reversal,2022.1.1,60.116204623565174,4,
0,exp1.png,exp2.png,,,,,,,,,,,,,,,,,,2,0,2,0,0,0,0,0,,,,,,,,,False,40,121,False,exp1.png,exp2.png,trial_right_image,-1,exp2.png,4,exp2.png,exp1.png,1,1,non-reversed,correct,0.707256590670602,1,valid_win,819.3088780000003,77,,,,,,,,,,,,,,,,sub_120,2022-08-23_16h01.06.286,Reversal,2022.1.1,60.116204623565174,4,
1,exp3.png,exp4.png,,,,,,,,,,,,,,,,,,2,0,2,0,0,1,1,1,,,,,,,,,False,41,122,True,exp4.png,exp3.png,trial_right_image,-1,exp3.png,4,exp3.png,exp4.png,0,4,reversed,correct,0.9811097306542982,1,valid_win,825.2753349999998,78,,,,,,,,,,,,,,,,sub_120,2022-08-23_16h01.06.286,Reversal,2022.1.1,60.116204623565174,4,
2,exp1.png,exp2.png,,,,,,,,,,,,,,,,,,2,0,2,0,0,2,2,2,,,,,,,,,False,42,123,False,exp1.png,exp2.png,trial_left_image,1,exp1.png,4,exp2.png,exp1.png,0,2,non-reversed,incorrect,0.23368875533618405,1,invalid_win,830.4903159,79,,,,,,,,,,,,,,,,sub_120,2022-08-23_16h01.06.286,Reversal,2022.1.1,60.116204623565174,4,
3,exp3.png,exp4.png,,,,,,,,,,,,,,,,,,2,0,2,0,0,3,3,3,,,,,,,,,False,43,124,False,exp3.png,exp4.png,trial_right_image,-1,exp4.png,4,exp3.png,exp4.png,1,3,reversed,incorrect,0.292705245559963,0,valid_lose,834.9391697999995,79,,,,,,,,,,,,,,,,sub_120,2022-08-23_16h01.06.286,Reversal,2022.1.1,60.116204623565174,4,
4,exp1.png,exp2.png,,,,,,,,,,,,,,,,,,2,0,2,0,0,4,4,4,,,,,,,,,False,44,125,True,exp2.png,exp1.png,trial_left_image,1,exp2.png,4,exp2.png,exp1.png,1,1,non-reversed,correct,0.7972350891041253,1,valid_win,840.3581170000002,80,,,,,,,,,,,,,,,,sub_120,2022-08-23_16h01.06.286,Reversal,2022.1.1,60.116204623565174,4,
5,exp3.png,exp4.png,,,,,,,,,,,,,,,,,,2,0,2,0,0,5,5,5,,,,,,,,,False,45,126,True,exp4.png,exp3.png,trial_right_image,-1,exp3.png,4,exp3.png,exp4.png,0,4,reversed,correct,0.7592764333724762,1,valid_win,846.0720068999995,81,,,,,,,,,,,,,,,,sub_120,2022-08-23_16h01.06.286,Reversal,2022.1.1,60.116204623565174,4,
6,exp1.png,exp2.png,,,,,,,,,,,,,,,,,,2,0,2,0,0,6,6,6,,,,,,,,,False,46,127,True,exp2.png,exp1.png,trial_right_image,-1,exp1.png,4,exp2.png,exp1.png,0,2,non-reversed,incorrect,0.7228900718693697,0,valid_lose,851.2388613999997,81,,,,,,,,,,,,,,,,sub_120,2022-08-23_16h01.06.286,Reversal,2022.1.1,60.116204623565174,4,
7,exp3.png,exp4.png,,,,,,,,,,,,,,,,,,2,0,2,0,0,7,7,7,,,,,,,,,False,47,128,True,exp4.png,exp3.png,trial_left_image,1,exp4.png,4,exp3.png,exp4.png,1,3,reversed,incorrect,0.7614088908194638,0,valid_lose,857.4366095,81,,,,,,,,,,,,,,,,sub_120,2022-08-23_16h01.06.286,Reversal,2022.1.1,60.116204623565174,4,
8,exp1.png,exp2.png,,,,,,,,,,,,,,,,,,2,0,2,0,0,8,8,8,,,,,,,,,False,48,129,False,exp1.png,exp2.png,trial_right_image,-1,exp2.png,4,exp2.png,exp1.png,1,1,non-reversed,correct,0.7074489376866869,1,valid_win,861.8035872999994,82,,,,,,,,,,,,,,,,sub_120,2022-08-23_16h01.06.286,Reversal,2022.1.1,60.116204623565174,4,
9,exp3.png,exp4.png,,,,,,,,,,,,,,,,,,2,0,2,0,0,9,9,9,,,,,,,,,False,49,130,True,exp4.png,exp3.png,trial_right_image,-1,exp3.png,4,exp3.png,exp4.png,0,4,reversed,correct,0.13945771761679382,0,invalid_lose,866.4358108000001,82,,,,,,,,,,,,,,,,sub_120,2022-08-23_16h01.06.286,Reversal,2022.1.1,60.116204623565174,4,
10,exp1.png,exp2.png,,,,,,,,,,,,,,,,,,2,0,2,0,0,10,10,10,,,,,,,,,False,50,131,True,exp2.png,exp1.png,trial_right_image,-1,exp1.png,4,exp2.png,exp1.png,0,2,non-reversed,incorrect,0.10886129834325853,1,invalid_win,870.6029842000003,83,,,,,,,,,,,,,,,,sub_120,2022-08-23_16h01.06.286,Reversal,2022.1.1,60.116204623565174,4,
11,exp3.png,exp4.png,,,,,,,,,,,,,,,,,,2,0,2,0,0,11,11,11,,,,,,,,,False,51,132,False,exp3.png,exp4.png,trial_right_image,-1,exp4.png,4,exp3.png,exp4.png,1,3,reversed,incorrect,0.7677721728807184,0,valid_lose,874.9364414999995,83,,,,,,,,,,,,,,,,sub_120,2022-08-23_16h01.06.286,Reversal,2022.1.1,60.116204623565174,4,
12,exp1.png,exp2.png,,,,,,,,,,,,,,,,,,2,0,2,0,0,12,12,12,,,,,,,,,False,52,133,False,exp1.png,exp2.png,trial_right_image,-1,exp2.png,4,exp2.png,exp1.png,1,1,non-reversed,correct,0.07894540829605301,0,invalid_lose,879.7514381999995,83,,,,,,,,,,,,,,,,sub_120,2022-08-23_16h01.06.286,Reversal,2022.1.1,60.116204623565174,4,
13,exp3.png,exp4.png,,,,,,,,,,,,,,,,,,2,0,2,0,0,13,13,13,,,,,,,,,False,53,134,False,exp3.png,exp4.png,trial_left_image,1,exp3.png,4,exp3.png,exp4.png,0,4,reversed,correct,0.0867258648811271,0,invalid_lose,887.2838502999998,83,,,,,,,,,,,,,,,,sub_120,2022-08-23_16h01.06.286,Reversal,2022.1.1,60.116204623565174,4,
14,exp1.png,exp2.png,,,,,,,,,,,,,,,,,,2,0,2,0,0,14,14,14,,,,,,,,,False,54,135,False,exp1.png,exp2.png,trial_left_image,1,exp1.png,4,exp2.png,exp1.png,0,2,non-reversed,incorrect,0.7509948214439474,0,valid_lose,893.3672798000002,83,,,,,,,,,,,,,,,,sub_120,2022-08-23_16h01.06.286,Reversal,2022.1.1,60.116204623565174,4,
15,exp3.png,exp4.png,,,,,,,,,,,,,,,,,,2,0,2,0,0,15,15,15,,,,,,,,,False,55,136,False,exp3.png,exp4.png,trial_right_image,-1,exp4.png,4,exp3.png,exp4.png,1,3,reversed,incorrect,0.4502916757678369,0,valid_lose,899.7322655000003,83,,,,,,,,,,,,,,,,sub_120,2022-08-23_16h01.06.286,Reversal,2022.1.1,60.116204623565174,4,
16,exp1.png,exp2.png,,,,,,,,,,,,,,,,,,2,0,2,0,0,16,16,16,,,,,,,,,False,56,137,True,exp2.png,exp1.png,trial_right_image,-1,exp1.png,4,exp2.png,exp1.png,0,2,non-reversed,incorrect,0.843670374814435,0,valid_lose,905.3642327000002,83,,,,,,,,,,,,,,,,sub_120,2022-08-23_16h01.06.286,Reversal,2022.1.1,60.116204623565174,4,
17,exp3.png,exp4.png,,,,,,,,,,,,,,,,,,2,0,2,0,0,17,17,17,,,,,,,,,False,57,138,True,exp4.png,exp3.png,trial_right_image,-1,exp3.png,4,exp3.png,exp4.png,0,4,reversed,correct,0.7838619549463551,1,valid_win,910.0143009999997,84,,,,,,,,,,,,,,,,sub_120,2022-08-23_16h01.06.286,Reversal,2022.1.1,60.116204623565174,4,
18,exp1.png,exp2.png,,,,,,,,,,,,,,,,,,2,0,2,0,0,18,18,18,,,,,,,,,False,58,139,False,exp1.png,exp2.png,trial_right_image,-1,exp2.png,4,exp2.png,exp1.png,1,1,non-reversed,correct,0.41549078235429915,1,valid_win,915.8803350000003,85,,,,,,,,,,,,,,,,sub_120,2022-08-23_16h01.06.286,Reversal,2022.1.1,60.116204623565174,4,
19,exp3.png,exp4.png,,,,,,,,,,,,,,,,,,2,0,2,0,0,19,19,19,,,,,,,,,False,59,140,True,exp4.png,exp3.png,trial_left_image,1,exp4.png,4,exp3.png,exp4.png,1,3,reversed,incorrect,0.7010657575454208,0,valid_lose,921.0304301000001,85,,,,,,,,,,,,,,,,sub_120,2022-08-23_16h01.06.286,Reversal,2022.1.1,60.116204623565174,4,
20,exp1.png,exp2.png,,,,,,,,,,,,,,,,,,2,0,2,0,0,20,20,20,,,,,,,,,True,,,,,,,,,,,,,,,,,,,,,,,,,,,,,,,,,,,,sub_120,2022-08-23_16h01.06.286,Reversal,2022.1.1,60.116204623565174,4,
,,,exp1.png,,,,,,,,,,,,,,,,,2,0,2,0,,,,,0,0,0,0,0,0,0,0,,,,,,,,,,,,,,,,,,,,,,,50.0,None,[],1043.5159545999995,None,,,,,,,,,,sub_120,2022-08-23_16h01.06.286,Reversal,2022.1.1,60.116204623565174,4,
,,,exp2.png,,,,,,,,,,,,,,,,,2,0,2,0,,,,,0,0,0,0,0,1,1,1,,,,,,,,,,,,,,,,,,,,,,,81.0,6.997650100000101,"[(86.0, 4.748066699999981), (81.0, 6.997650100000101)]",1048.5628804999997,None,81.0,,,,,,,,,sub_120,2022-08-23_16h01.06.286,Reversal,2022.1.1,60.116204623565174,4,
,,,exp3.png,,,,,,,,,,,,,,,,,2,0,2,0,,,,,0,0,0,0,0,2,2,2,,,,,,,,,,,,,,,,,,,,,,,29.0,3.868624499999896,"[(29.0, 3.868624499999896)]",1056.5769641999996,None,,29.0,,,,,,,,sub_120,2022-08-23_16h01.06.286,Reversal,2022.1.1,60.116204623565174,4,
,,,exp4.png,,,,,,,,,,,,,,,,,2,0,2,0,,,,,0,0,0,0,0,3,3,3,,,,,,,,,,,,,,,,,,,,,,,30.0,2.8425146999998105,"[(30.0, 2.8425146999998105)]",1061.5371140999996,None,,,30.0,,,,,,,sub_120,2022-08-23_16h01.06.286,Reversal,2022.1.1,60.116204623565174,4,
,,,,,,,,,,,,,,,,,,,,,,,,,,,,,,,,,,,,,,,,,,,,,,,,,,,,,,,,85,,,,,,,,,,,98,63,35,372.78137119999974,1,,,,,,,
