trial_index,trial_image1_file,trial_image2_file,image_file,learning_outer_loop.thisRepN,learning_outer_loop.thisTrialN,learning_outer_loop.thisN,learning_outer_loop.thisIndex,learning_inner_loop.thisRepN,learning_inner_loop.thisTrialN,learning_inner_loop.thisN,learning_inner_loop.thisIndex,learning_estimation_outer_loop.thisRepN,learning_estimation_outer_loop.thisTrialN,learning_estimation_outer_loop.thisN,learning_estimation_outer_loop.thisIndex,learning_estimation_inner_loop.thisRepN,learning_estimation_inner_loop.thisTrialN,learning_estimation_inner_loop.thisN,learning_estimation_inner_loop.thisIndex,reversal_outer_loop.thisRepN,reversal_outer_loop.thisTrialN,reversal_outer_loop.thisN,reversal_outer_loop.thisIndex,reversal_inner_loop.thisRepN,reversal_inner_loop.thisTrialN,reversal_inner_loop.thisN,reversal_inner_loop.thisIndex,reversal_estimation_outer_loop.thisRepN,reversal_estimation_outer_loop.thisTrialN,reversal_estimation_outer_loop.thisN,reversal_estimation_outer_loop.thisIndex,reversal_estimation_inner_loop.thisRepN,reversal_estimation_inner_loop.thisTrialN,reversal_estimation_inner_loop.thisN,reversal_estimation_inner_loop.thisIndex,skipped,total_trial_counter,trial_num,left_right_flip,left_image_file,right_image_file,clicked_stimulus_side,side,clicked_stimulus,version,high_prob_image_file,low_prob_image_file,choice_a,choice_b,pair_type,correct,trial_feedback_random,reward,trial_type,overall_time_after_trial,score,estimation_exp1.png,estimation_rating.response,estimation_rating.rt,estimation_rating.history,estimation_rating.started,estimation_rating.stopped,estimation_exp2.png,estimation_exp3.png,estimation_exp4.png,total_learning_time,total_correct,learning_correct,reversal_correct,total_reversal_time,extra_block,participant,date,expName,psychopyVersion,frameRate,ver,
0,exp1.png,exp2.png,,0,0,0,0,0,0,0,0,,,,,,,,,,,,,,,,,,,,,,,,,True,,,,,,,,,,,,,,,,,,,,,,,,,,,,,,,,,,,,sub_184,2022-11-14_17h36.25.046,Reversal,2022.1.2,60.06868262113095,4,
1,exp3.png,exp4.png,,0,0,0,0,0,1,1,1,,,,,,,,,,,,,,,,,,,,,,,,,False,0,1,True,exp4.png,exp3.png,trial_left_image,1,exp4.png,4,exp4.png,exp3.png,1,3,reversed,correct,0.004133672075242845,0,invalid_lose,5.3007625001482666,0,,,,,,,,,,,,,,,,sub_184,2022-11-14_17h36.25.046,Reversal,2022.1.2,60.06868262113095,4,
2,exp1.png,exp2.png,,0,0,0,0,0,2,2,2,,,,,,,,,,,,,,,,,,,,,,,,,False,1,2,False,exp1.png,exp2.png,trial_right_image,-1,exp2.png,4,exp2.png,exp1.png,1,1,non-reversed,correct,0.2061833411221612,0,invalid_lose,35.01527410000563,0,,,,,,,,,,,,,,,,sub_184,2022-11-14_17h36.25.046,Reversal,2022.1.2,60.06868262113095,4,
3,exp3.png,exp4.png,,0,0,0,0,0,3,3,3,,,,,,,,,,,,,,,,,,,,,,,,,False,2,3,False,exp3.png,exp4.png,trial_right_image,-1,exp4.png,4,exp4.png,exp3.png,1,3,reversed,correct,0.23631436724501476,0,invalid_lose,48.31636520009488,0,,,,,,,,,,,,,,,,sub_184,2022-11-14_17h36.25.046,Reversal,2022.1.2,60.06868262113095,4,
4,exp1.png,exp2.png,,0,0,0,0,0,4,4,4,,,,,,,,,,,,,,,,,,,,,,,,,False,3,4,False,exp1.png,exp2.png,trial_left_image,1,exp1.png,4,exp2.png,exp1.png,0,2,non-reversed,incorrect,0.5924818800776054,0,valid_lose,57.378870599903166,0,,,,,,,,,,,,,,,,sub_184,2022-11-14_17h36.25.046,Reversal,2022.1.2,60.06868262113095,4,
5,exp3.png,exp4.png,,0,0,0,0,0,5,5,5,,,,,,,,,,,,,,,,,,,,,,,,,False,4,5,True,exp4.png,exp3.png,trial_right_image,-1,exp3.png,4,exp4.png,exp3.png,0,4,reversed,incorrect,0.9548615059057456,0,valid_lose,68.53298419993371,0,,,,,,,,,,,,,,,,sub_184,2022-11-14_17h36.25.046,Reversal,2022.1.2,60.06868262113095,4,
6,exp1.png,exp2.png,,0,0,0,0,0,6,6,6,,,,,,,,,,,,,,,,,,,,,,,,,False,5,6,True,exp2.png,exp1.png,trial_left_image,1,exp2.png,4,exp2.png,exp1.png,1,1,non-reversed,correct,0.8110621662320605,1,valid_win,94.11545389983803,1,,,,,,,,,,,,,,,,sub_184,2022-11-14_17h36.25.046,Reversal,2022.1.2,60.06868262113095,4,
7,exp3.png,exp4.png,,0,0,0,0,0,7,7,7,,,,,,,,,,,,,,,,,,,,,,,,,False,6,7,False,exp3.png,exp4.png,trial_right_image,-1,exp4.png,4,exp4.png,exp3.png,1,3,reversed,correct,0.3838351371153055,1,valid_win,99.51521519990638,2,,,,,,,,,,,,,,,,sub_184,2022-11-14_17h36.25.046,Reversal,2022.1.2,60.06868262113095,4,
8,exp1.png,exp2.png,,0,0,0,0,0,8,8,8,,,,,,,,,,,,,,,,,,,,,,,,,False,7,8,False,exp1.png,exp2.png,trial_left_image,1,exp1.png,4,exp2.png,exp1.png,0,2,non-reversed,incorrect,0.41444222585289714,0,valid_lose,107.41516930004582,2,,,,,,,,,,,,,,,,sub_184,2022-11-14_17h36.25.046,Reversal,2022.1.2,60.06868262113095,4,
9,exp3.png,exp4.png,,0,0,0,0,0,9,9,9,,,,,,,,,,,,,,,,,,,,,,,,,False,8,9,True,exp4.png,exp3.png,trial_left_image,1,exp4.png,4,exp4.png,exp3.png,1,3,reversed,correct,0.36313251913329414,1,valid_win,112.61531329993159,3,,,,,,,,,,,,,,,,sub_184,2022-11-14_17h36.25.046,Reversal,2022.1.2,60.06868262113095,4,
10,exp1.png,exp2.png,,0,0,0,0,0,10,10,10,,,,,,,,,,,,,,,,,,,,,,,,,False,9,10,True,exp2.png,exp1.png,trial_right_image,-1,exp1.png,4,exp2.png,exp1.png,0,2,non-reversed,incorrect,0.28811266437344796,0,valid_lose,119.8471621000208,3,,,,,,,,,,,,,,,,sub_184,2022-11-14_17h36.25.046,Reversal,2022.1.2,60.06868262113095,4,
11,exp3.png,exp4.png,,0,0,0,0,0,11,11,11,,,,,,,,,,,,,,,,,,,,,,,,,False,10,11,False,exp3.png,exp4.png,trial_right_image,-1,exp4.png,4,exp4.png,exp3.png,1,3,reversed,correct,0.09307342243269101,0,invalid_lose,125.5313508999534,3,,,,,,,,,,,,,,,,sub_184,2022-11-14_17h36.25.046,Reversal,2022.1.2,60.06868262113095,4,
12,exp1.png,exp2.png,,0,0,0,0,0,12,12,12,,,,,,,,,,,,,,,,,,,,,,,,,False,11,12,False,exp1.png,exp2.png,trial_right_image,-1,exp2.png,4,exp2.png,exp1.png,1,1,non-reversed,correct,0.4029744298748842,1,valid_win,131.44728370010853,4,,,,,,,,,,,,,,,,sub_184,2022-11-14_17h36.25.046,Reversal,2022.1.2,60.06868262113095,4,
13,exp3.png,exp4.png,,0,0,0,0,0,13,13,13,,,,,,,,,,,,,,,,,,,,,,,,,False,12,13,True,exp4.png,exp3.png,trial_left_image,1,exp4.png,4,exp4.png,exp3.png,1,3,reversed,correct,0.5025760185014992,1,valid_win,136.91370660020038,5,,,,,,,,,,,,,,,,sub_184,2022-11-14_17h36.25.046,Reversal,2022.1.2,60.06868262113095,4,
14,exp1.png,exp2.png,,0,0,0,0,0,14,14,14,,,,,,,,,,,,,,,,,,,,,,,,,False,13,14,True,exp2.png,exp1.png,trial_left_image,1,exp2.png,4,exp2.png,exp1.png,1,1,non-reversed,correct,0.31434353544817806,1,valid_win,141.69716260023415,6,,,,,,,,,,,,,,,,sub_184,2022-11-14_17h36.25.046,Reversal,2022.1.2,60.06868262113095,4,
15,exp3.png,exp4.png,,0,0,0,0,0,15,15,15,,,,,,,,,,,,,,,,,,,,,,,,,False,14,15,False,exp3.png,exp4.png,trial_right_image,-1,exp4.png,4,exp4.png,exp3.png,1,3,reversed,correct,0.3654112623570064,1,valid_win,148.09667679993436,7,,,,,,,,,,,,,,,,sub_184,2022-11-14_17h36.25.046,Reversal,2022.1.2,60.06868262113095,4,
16,exp1.png,exp2.png,,0,0,0,0,0,16,16,16,,,,,,,,,,,,,,,,,,,,,,,,,False,15,16,True,exp2.png,exp1.png,trial_left_image,1,exp2.png,4,exp2.png,exp1.png,1,1,non-reversed,correct,0.06589246793684922,0,invalid_lose,152.78032220015302,7,,,,,,,,,,,,,,,,sub_184,2022-11-14_17h36.25.046,Reversal,2022.1.2,60.06868262113095,4,
17,exp3.png,exp4.png,,0,0,0,0,0,17,17,17,,,,,,,,,,,,,,,,,,,,,,,,,False,16,17,True,exp4.png,exp3.png,trial_right_image,-1,exp3.png,4,exp4.png,exp3.png,0,4,reversed,incorrect,0.7716338379527985,0,valid_lose,157.51306959986687,7,,,,,,,,,,,,,,,,sub_184,2022-11-14_17h36.25.046,Reversal,2022.1.2,60.06868262113095,4,
18,exp1.png,exp2.png,,0,0,0,0,0,18,18,18,,,,,,,,,,,,,,,,,,,,,,,,,False,17,18,False,exp1.png,exp2.png,trial_right_image,-1,exp2.png,4,exp2.png,exp1.png,1,1,non-reversed,correct,0.3855075063080414,1,valid_win,162.2471425998956,8,,,,,,,,,,,,,,,,sub_184,2022-11-14_17h36.25.046,Reversal,2022.1.2,60.06868262113095,4,
19,exp3.png,exp4.png,,0,0,0,0,0,19,19,19,,,,,,,,,,,,,,,,,,,,,,,,,False,18,19,True,exp4.png,exp3.png,trial_left_image,1,exp4.png,4,exp4.png,exp3.png,1,3,reversed,correct,0.5981732584280686,1,valid_win,167.82966950023547,9,,,,,,,,,,,,,,,,sub_184,2022-11-14_17h36.25.046,Reversal,2022.1.2,60.06868262113095,4,
20,exp1.png,exp2.png,,0,0,0,0,0,20,20,20,,,,,,,,,,,,,,,,,,,,,,,,,False,19,20,False,exp1.png,exp2.png,trial_right_image,-1,exp2.png,4,exp2.png,exp1.png,1,1,non-reversed,correct,0.9700675903626896,1,valid_win,173.09734620014206,10,,,,,,,,,,,,,,,,sub_184,2022-11-14_17h36.25.046,Reversal,2022.1.2,60.06868262113095,4,
,,,exp1.png,0,0,0,0,,,,,0,0,0,0,0,0,0,0,,,,,,,,,,,,,,,,,,,,,,,,,,,,,,,,,,,,,,1.0,1.0,12.988759199623019,"[(1.0, 12.988759199623019)]",242.885923799593,None,,,,,,,,,,sub_184,2022-11-14_17h36.25.046,Reversal,2022.1.2,60.06868262113095,4,
,,,exp2.png,0,0,0,0,,,,,0,0,0,0,0,1,1,1,,,,,,,,,,,,,,,,,,,,,,,,,,,,,,,,,,,,,,,100.0,2.764753299765289,"[(100.0, 2.764753299765289)]",257.24630439979956,None,100.0,,,,,,,,,sub_184,2022-11-14_17h36.25.046,Reversal,2022.1.2,60.06868262113095,4,
,,,exp3.png,0,0,0,0,,,,,0,0,0,0,0,2,2,2,,,,,,,,,,,,,,,,,,,,,,,,,,,,,,,,,,,,,,,3.0,3.7834402001462877,"[(3.0, 3.7834402001462877)]",261.0825930000283,None,,3.0,,,,,,,,sub_184,2022-11-14_17h36.25.046,Reversal,2022.1.2,60.06868262113095,4,
,,,exp4.png,0,0,0,0,,,,,0,0,0,0,0,3,3,3,,,,,,,,,,,,,,,,,,,,,,,,,,,,,,,,,,,,,,,100.0,1.5164075000211596,"[(100.0, 1.5164075000211596)]",265.82053239969537,None,,,100.0,,,,,,,sub_184,2022-11-14_17h36.25.046,Reversal,2022.1.2,60.06868262113095,4,
0,exp1.png,exp2.png,,1,0,1,0,0,0,0,0,,,,,,,,,,,,,,,,,,,,,,,,,True,,,,,,,,,,,,,,,,,,,,,,,,,,,,,,,,,,,,sub_184,2022-11-14_17h36.25.046,Reversal,2022.1.2,60.06868262113095,4,
1,exp3.png,exp4.png,,1,0,1,0,0,1,1,1,,,,,,,,,,,,,,,,,,,,,,,,,False,20,21,False,exp3.png,exp4.png,trial_right_image,-1,exp4.png,4,exp4.png,exp3.png,1,3,reversed,correct,0.08284508738179419,0,invalid_lose,204.76233999989927,10,,,,,,,,,,,,,,,,sub_184,2022-11-14_17h36.25.046,Reversal,2022.1.2,60.06868262113095,4,
2,exp1.png,exp2.png,,1,0,1,0,0,2,2,2,,,,,,,,,,,,,,,,,,,,,,,,,False,21,22,True,exp2.png,exp1.png,trial_left_image,1,exp2.png,4,exp2.png,exp1.png,1,1,non-reversed,correct,0.2593365618065099,1,valid_win,209.92885249992833,11,,,,,,,,,,,,,,,,sub_184,2022-11-14_17h36.25.046,Reversal,2022.1.2,60.06868262113095,4,
3,exp3.png,exp4.png,,1,0,1,0,0,3,3,3,,,,,,,,,,,,,,,,,,,,,,,,,False,22,23,False,exp3.png,exp4.png,trial_right_image,-1,exp4.png,4,exp4.png,exp3.png,1,3,reversed,correct,0.2031993107306166,0,invalid_lose,215.11175920022652,11,,,,,,,,,,,,,,,,sub_184,2022-11-14_17h36.25.046,Reversal,2022.1.2,60.06868262113095,4,
4,exp1.png,exp2.png,,1,0,1,0,0,4,4,4,,,,,,,,,,,,,,,,,,,,,,,,,False,23,24,True,exp2.png,exp1.png,trial_left_image,1,exp2.png,4,exp2.png,exp1.png,1,1,non-reversed,correct,0.013171048088160942,0,invalid_lose,220.19746679998934,11,,,,,,,,,,,,,,,,sub_184,2022-11-14_17h36.25.046,Reversal,2022.1.2,60.06868262113095,4,
5,exp3.png,exp4.png,,1,0,1,0,0,5,5,5,,,,,,,,,,,,,,,,,,,,,,,,,False,24,25,True,exp4.png,exp3.png,trial_left_image,1,exp4.png,4,exp4.png,exp3.png,1,3,reversed,correct,0.1894504671859224,0,invalid_lose,225.8958380999975,11,,,,,,,,,,,,,,,,sub_184,2022-11-14_17h36.25.046,Reversal,2022.1.2,60.06868262113095,4,
6,exp1.png,exp2.png,,1,0,1,0,0,6,6,6,,,,,,,,,,,,,,,,,,,,,,,,,False,25,26,True,exp2.png,exp1.png,trial_right_image,-1,exp1.png,4,exp2.png,exp1.png,0,2,non-reversed,incorrect,0.41645705736031446,0,valid_lose,230.2782382001169,11,,,,,,,,,,,,,,,,sub_184,2022-11-14_17h36.25.046,Reversal,2022.1.2,60.06868262113095,4,
7,exp3.png,exp4.png,,1,0,1,0,0,7,7,7,,,,,,,,,,,,,,,,,,,,,,,,,False,26,27,True,exp4.png,exp3.png,trial_right_image,-1,exp3.png,4,exp4.png,exp3.png,0,4,reversed,incorrect,0.5481246815061698,0,valid_lose,235.32836059993133,11,,,,,,,,,,,,,,,,sub_184,2022-11-14_17h36.25.046,Reversal,2022.1.2,60.06868262113095,4,
8,exp1.png,exp2.png,,1,0,1,0,0,8,8,8,,,,,,,,,,,,,,,,,,,,,,,,,False,27,28,False,exp1.png,exp2.png,trial_right_image,-1,exp2.png,4,exp2.png,exp1.png,1,1,non-reversed,correct,0.3115507856400733,1,valid_win,239.82882229983807,12,,,,,,,,,,,,,,,,sub_184,2022-11-14_17h36.25.046,Reversal,2022.1.2,60.06868262113095,4,
9,exp3.png,exp4.png,,1,0,1,0,0,9,9,9,,,,,,,,,,,,,,,,,,,,,,,,,False,28,29,False,exp3.png,exp4.png,trial_right_image,-1,exp4.png,4,exp4.png,exp3.png,1,3,reversed,correct,0.7820757980590936,1,valid_win,244.61118429992348,13,,,,,,,,,,,,,,,,sub_184,2022-11-14_17h36.25.046,Reversal,2022.1.2,60.06868262113095,4,
10,exp1.png,exp2.png,,1,0,1,0,0,10,10,10,,,,,,,,,,,,,,,,,,,,,,,,,False,29,30,False,exp1.png,exp2.png,trial_right_image,-1,exp2.png,4,exp2.png,exp1.png,1,1,non-reversed,correct,0.510598737181976,1,valid_win,249.71156219998375,14,,,,,,,,,,,,,,,,sub_184,2022-11-14_17h36.25.046,Reversal,2022.1.2,60.06868262113095,4,
11,exp3.png,exp4.png,,1,0,1,0,0,11,11,11,,,,,,,,,,,,,,,,,,,,,,,,,False,30,31,True,exp4.png,exp3.png,trial_left_image,1,exp4.png,4,exp4.png,exp3.png,1,3,reversed,correct,0.11874015110027336,0,invalid_lose,254.69468249985948,14,,,,,,,,,,,,,,,,sub_184,2022-11-14_17h36.25.046,Reversal,2022.1.2,60.06868262113095,4,
12,exp1.png,exp2.png,,1,0,1,0,0,12,12,12,,,,,,,,,,,,,,,,,,,,,,,,,False,31,32,False,exp1.png,exp2.png,trial_left_image,1,exp1.png,4,exp2.png,exp1.png,0,2,non-reversed,incorrect,0.47635092549329994,0,valid_lose,259.4113961001858,14,,,,,,,,,,,,,,,,sub_184,2022-11-14_17h36.25.046,Reversal,2022.1.2,60.06868262113095,4,
13,exp3.png,exp4.png,,1,0,1,0,0,13,13,13,,,,,,,,,,,,,,,,,,,,,,,,,False,32,33,False,exp3.png,exp4.png,trial_right_image,-1,exp4.png,4,exp4.png,exp3.png,1,3,reversed,correct,0.5051301708249571,1,valid_win,263.7281839000061,15,,,,,,,,,,,,,,,,sub_184,2022-11-14_17h36.25.046,Reversal,2022.1.2,60.06868262113095,4,
14,exp1.png,exp2.png,,1,0,1,0,0,14,14,14,,,,,,,,,,,,,,,,,,,,,,,,,False,33,34,True,exp2.png,exp1.png,trial_left_image,1,exp2.png,4,exp2.png,exp1.png,1,1,non-reversed,correct,0.670448825956527,1,valid_win,268.62819149997085,16,,,,,,,,,,,,,,,,sub_184,2022-11-14_17h36.25.046,Reversal,2022.1.2,60.06868262113095,4,
15,exp3.png,exp4.png,,1,0,1,0,0,15,15,15,,,,,,,,,,,,,,,,,,,,,,,,,False,34,35,False,exp3.png,exp4.png,trial_right_image,-1,exp4.png,4,exp4.png,exp3.png,1,3,reversed,correct,0.3735615794662249,1,valid_win,273.1615074002184,17,,,,,,,,,,,,,,,,sub_184,2022-11-14_17h36.25.046,Reversal,2022.1.2,60.06868262113095,4,
16,exp1.png,exp2.png,,1,0,1,0,0,16,16,16,,,,,,,,,,,,,,,,,,,,,,,,,False,35,36,False,exp1.png,exp2.png,trial_right_image,-1,exp2.png,4,exp2.png,exp1.png,1,1,non-reversed,correct,0.9371867147923814,1,valid_win,279.2609700001776,18,,,,,,,,,,,,,,,,sub_184,2022-11-14_17h36.25.046,Reversal,2022.1.2,60.06868262113095,4,
17,exp3.png,exp4.png,,1,0,1,0,0,17,17,17,,,,,,,,,,,,,,,,,,,,,,,,,False,36,37,True,exp4.png,exp3.png,trial_left_image,1,exp4.png,4,exp4.png,exp3.png,1,3,reversed,correct,0.47852651966328963,1,valid_win,284.39472030010074,19,,,,,,,,,,,,,,,,sub_184,2022-11-14_17h36.25.046,Reversal,2022.1.2,60.06868262113095,4,
18,exp1.png,exp2.png,,1,0,1,0,0,18,18,18,,,,,,,,,,,,,,,,,,,,,,,,,False,37,38,True,exp2.png,exp1.png,trial_left_image,1,exp2.png,4,exp2.png,exp1.png,1,1,non-reversed,correct,0.8113707158595028,1,valid_win,289.1108332001604,20,,,,,,,,,,,,,,,,sub_184,2022-11-14_17h36.25.046,Reversal,2022.1.2,60.06868262113095,4,
19,exp3.png,exp4.png,,1,0,1,0,0,19,19,19,,,,,,,,,,,,,,,,,,,,,,,,,False,38,39,False,exp3.png,exp4.png,trial_right_image,-1,exp4.png,4,exp4.png,exp3.png,1,3,reversed,correct,0.5996148644985158,1,valid_win,293.89469570014626,21,,,,,,,,,,,,,,,,sub_184,2022-11-14_17h36.25.046,Reversal,2022.1.2,60.06868262113095,4,
20,exp1.png,exp2.png,,1,0,1,0,0,20,20,20,,,,,,,,,,,,,,,,,,,,,,,,,False,39,40,True,exp2.png,exp1.png,trial_left_image,1,exp2.png,4,exp2.png,exp1.png,1,1,non-reversed,correct,0.4753963409047087,1,valid_win,298.66050639981404,22,,,,,,,,,,,,,,,,sub_184,2022-11-14_17h36.25.046,Reversal,2022.1.2,60.06868262113095,4,
,,,exp1.png,1,0,1,0,,,,,0,0,0,0,0,0,0,0,,,,,,,,,,,,,,,,,,,,,,,,,,,,,,,,,,,,,,7.0,7.0,3.5469780997373164,"[(7.0, 3.5469780997373164)]",368.43820769991726,None,,,,,,,,,,sub_184,2022-11-14_17h36.25.046,Reversal,2022.1.2,60.06868262113095,4,
,,,exp2.png,1,0,1,0,,,,,0,0,0,0,0,1,1,1,,,,,,,,,,,,,,,,,,,,,,,,,,,,,,,,,,,,,,,100.0,1.8169861999340355,"[(100.0, 1.8169861999340355)]",373.51410249993205,None,100.0,,,,,,,,,sub_184,2022-11-14_17h36.25.046,Reversal,2022.1.2,60.06868262113095,4,
,,,exp3.png,1,0,1,0,,,,,0,0,0,0,0,2,2,2,,,,,,,,,,,,,,,,,,,,,,,,,,,,,,,,,,,,,,,7.0,2.6827515000477433,"[(33.0, 1.4496305002830923), (7.0, 2.6827515000477433)]",377.0828495998867,None,,7.0,,,,,,,,sub_184,2022-11-14_17h36.25.046,Reversal,2022.1.2,60.06868262113095,4,
,,,exp4.png,1,0,1,0,,,,,0,0,0,0,0,3,3,3,,,,,,,,,,,,,,,,,,,,,,,,,,,,,,,,,,,,,,,100.0,1.7023963001556695,"[(100.0, 1.7023963001556695)]",380.74613829981536,None,,,100.0,,,,,,,sub_184,2022-11-14_17h36.25.046,Reversal,2022.1.2,60.06868262113095,4,
0,exp1.png,exp2.png,,2,0,2,0,0,0,0,0,,,,,,,,,,,,,,,,,,,,,,,,,True,,,,,,,,,,,,,,,,,,,,,,,,,,,,,,,,,,,,sub_184,2022-11-14_17h36.25.046,Reversal,2022.1.2,60.06868262113095,4,
1,exp3.png,exp4.png,,2,0,2,0,0,1,1,1,,,,,,,,,,,,,,,,,,,,,,,,,False,40,41,False,exp3.png,exp4.png,trial_right_image,-1,exp4.png,4,exp4.png,exp3.png,1,3,reversed,correct,0.23897650087360767,0,invalid_lose,319.710792100057,22,,,,,,,,,,,,,,,,sub_184,2022-11-14_17h36.25.046,Reversal,2022.1.2,60.06868262113095,4,
2,exp1.png,exp2.png,,2,0,2,0,0,2,2,2,,,,,,,,,,,,,,,,,,,,,,,,,False,41,42,False,exp1.png,exp2.png,trial_left_image,1,exp1.png,4,exp2.png,exp1.png,0,2,non-reversed,incorrect,0.5866158419861933,0,valid_lose,324.49335809983313,22,,,,,,,,,,,,,,,,sub_184,2022-11-14_17h36.25.046,Reversal,2022.1.2,60.06868262113095,4,
3,exp3.png,exp4.png,,2,0,2,0,0,3,3,3,,,,,,,,,,,,,,,,,,,,,,,,,False,42,43,True,exp4.png,exp3.png,trial_left_image,1,exp4.png,4,exp4.png,exp3.png,1,3,reversed,correct,0.8017548103340701,1,valid_win,328.8269462999888,23,,,,,,,,,,,,,,,,sub_184,2022-11-14_17h36.25.046,Reversal,2022.1.2,60.06868262113095,4,
4,exp1.png,exp2.png,,2,0,2,0,0,4,4,4,,,,,,,,,,,,,,,,,,,,,,,,,False,43,44,True,exp2.png,exp1.png,trial_left_image,1,exp2.png,4,exp2.png,exp1.png,1,1,non-reversed,correct,0.7319622979294368,1,valid_win,333.14355329982936,24,,,,,,,,,,,,,,,,sub_184,2022-11-14_17h36.25.046,Reversal,2022.1.2,60.06868262113095,4,
5,exp3.png,exp4.png,,2,0,2,0,0,5,5,5,,,,,,,,,,,,,,,,,,,,,,,,,False,44,45,True,exp4.png,exp3.png,trial_left_image,1,exp4.png,4,exp4.png,exp3.png,1,3,reversed,correct,0.3552689737853598,1,valid_win,337.6597905000672,25,,,,,,,,,,,,,,,,sub_184,2022-11-14_17h36.25.046,Reversal,2022.1.2,60.06868262113095,4,
6,exp1.png,exp2.png,,2,0,2,0,0,6,6,6,,,,,,,,,,,,,,,,,,,,,,,,,False,45,46,True,exp2.png,exp1.png,trial_left_image,1,exp2.png,4,exp2.png,exp1.png,1,1,non-reversed,correct,0.7683908909937893,1,valid_win,342.15970919979736,26,,,,,,,,,,,,,,,,sub_184,2022-11-14_17h36.25.046,Reversal,2022.1.2,60.06868262113095,4,
7,exp3.png,exp4.png,,2,0,2,0,0,7,7,7,,,,,,,,,,,,,,,,,,,,,,,,,False,46,47,False,exp3.png,exp4.png,trial_right_image,-1,exp4.png,4,exp4.png,exp3.png,1,3,reversed,correct,0.9991539470489441,1,valid_win,347.4103707000613,27,,,,,,,,,,,,,,,,sub_184,2022-11-14_17h36.25.046,Reversal,2022.1.2,60.06868262113095,4,
8,exp1.png,exp2.png,,2,0,2,0,0,8,8,8,,,,,,,,,,,,,,,,,,,,,,,,,False,47,48,False,exp1.png,exp2.png,trial_right_image,-1,exp2.png,4,exp2.png,exp1.png,1,1,non-reversed,correct,0.19159915492610236,0,invalid_lose,352.0928461002186,27,,,,,,,,,,,,,,,,sub_184,2022-11-14_17h36.25.046,Reversal,2022.1.2,60.06868262113095,4,
9,exp3.png,exp4.png,,2,0,2,0,0,9,9,9,,,,,,,,,,,,,,,,,,,,,,,,,False,48,49,False,exp3.png,exp4.png,trial_right_image,-1,exp4.png,4,exp4.png,exp3.png,1,3,reversed,correct,0.24022855680003008,0,invalid_lose,356.52640049997717,27,,,,,,,,,,,,,,,,sub_184,2022-11-14_17h36.25.046,Reversal,2022.1.2,60.06868262113095,4,
10,exp1.png,exp2.png,,2,0,2,0,0,10,10,10,,,,,,,,,,,,,,,,,,,,,,,,,False,49,50,True,exp2.png,exp1.png,trial_right_image,-1,exp1.png,4,exp2.png,exp1.png,0,2,non-reversed,incorrect,0.9706728318238311,0,valid_lose,360.9437859999016,27,,,,,,,,,,,,,,,,sub_184,2022-11-14_17h36.25.046,Reversal,2022.1.2,60.06868262113095,4,
11,exp3.png,exp4.png,,2,0,2,0,0,11,11,11,,,,,,,,,,,,,,,,,,,,,,,,,False,50,51,True,exp4.png,exp3.png,trial_left_image,1,exp4.png,4,exp4.png,exp3.png,1,3,reversed,correct,0.5359764015781966,1,valid_win,365.1764623997733,28,,,,,,,,,,,,,,,,sub_184,2022-11-14_17h36.25.046,Reversal,2022.1.2,60.06868262113095,4,
12,exp1.png,exp2.png,,2,0,2,0,0,12,12,12,,,,,,,,,,,,,,,,,,,,,,,,,False,51,52,True,exp2.png,exp1.png,trial_left_image,1,exp2.png,4,exp2.png,exp1.png,1,1,non-reversed,correct,0.21631953171713536,0,invalid_lose,369.6096688997932,28,,,,,,,,,,,,,,,,sub_184,2022-11-14_17h36.25.046,Reversal,2022.1.2,60.06868262113095,4,
13,exp3.png,exp4.png,,2,0,2,0,0,13,13,13,,,,,,,,,,,,,,,,,,,,,,,,,False,52,53,False,exp3.png,exp4.png,trial_right_image,-1,exp4.png,4,exp4.png,exp3.png,1,3,reversed,correct,0.8131273821180981,1,valid_win,374.0423930999823,29,,,,,,,,,,,,,,,,sub_184,2022-11-14_17h36.25.046,Reversal,2022.1.2,60.06868262113095,4,
14,exp1.png,exp2.png,,2,0,2,0,0,14,14,14,,,,,,,,,,,,,,,,,,,,,,,,,False,53,54,False,exp1.png,exp2.png,trial_right_image,-1,exp2.png,4,exp2.png,exp1.png,1,1,non-reversed,correct,0.7262257384441859,1,valid_win,379.1593484999612,30,,,,,,,,,,,,,,,,sub_184,2022-11-14_17h36.25.046,Reversal,2022.1.2,60.06868262113095,4,
15,exp3.png,exp4.png,,2,0,2,0,0,15,15,15,,,,,,,,,,,,,,,,,,,,,,,,,False,54,55,True,exp4.png,exp3.png,trial_left_image,1,exp4.png,4,exp4.png,exp3.png,1,3,reversed,correct,0.3266341171888234,1,valid_win,385.4756845999509,31,,,,,,,,,,,,,,,,sub_184,2022-11-14_17h36.25.046,Reversal,2022.1.2,60.06868262113095,4,
16,exp1.png,exp2.png,,2,0,2,0,0,16,16,16,,,,,,,,,,,,,,,,,,,,,,,,,False,55,56,True,exp2.png,exp1.png,trial_left_image,1,exp2.png,4,exp2.png,exp1.png,1,1,non-reversed,correct,0.5903440471428973,1,valid_win,392.6586107998155,32,,,,,,,,,,,,,,,,sub_184,2022-11-14_17h36.25.046,Reversal,2022.1.2,60.06868262113095,4,
17,exp3.png,exp4.png,,2,0,2,0,0,17,17,17,,,,,,,,,,,,,,,,,,,,,,,,,False,56,57,False,exp3.png,exp4.png,trial_right_image,-1,exp4.png,4,exp4.png,exp3.png,1,3,reversed,correct,0.30073660552571235,1,valid_win,397.1088797999546,33,,,,,,,,,,,,,,,,sub_184,2022-11-14_17h36.25.046,Reversal,2022.1.2,60.06868262113095,4,
18,exp1.png,exp2.png,,2,0,2,0,0,18,18,18,,,,,,,,,,,,,,,,,,,,,,,,,False,57,58,False,exp1.png,exp2.png,trial_right_image,-1,exp2.png,4,exp2.png,exp1.png,1,1,non-reversed,correct,0.8063786014358966,1,valid_win,401.7919927001931,34,,,,,,,,,,,,,,,,sub_184,2022-11-14_17h36.25.046,Reversal,2022.1.2,60.06868262113095,4,
19,exp3.png,exp4.png,,2,0,2,0,0,19,19,19,,,,,,,,,,,,,,,,,,,,,,,,,False,58,59,True,exp4.png,exp3.png,trial_left_image,1,exp4.png,4,exp4.png,exp3.png,1,3,reversed,correct,0.34440426094215937,1,valid_win,407.66123959980905,35,,,,,,,,,,,,,,,,sub_184,2022-11-14_17h36.25.046,Reversal,2022.1.2,60.06868262113095,4,
20,exp1.png,exp2.png,,2,0,2,0,0,20,20,20,,,,,,,,,,,,,,,,,,,,,,,,,False,59,60,False,exp1.png,exp2.png,trial_right_image,-1,exp2.png,4,exp2.png,exp1.png,1,1,non-reversed,correct,0.3226516682227707,1,valid_win,413.94218340003863,36,,,,,,,,,,,,,,,,sub_184,2022-11-14_17h36.25.046,Reversal,2022.1.2,60.06868262113095,4,
,,,exp1.png,2,0,2,0,,,,,0,0,0,0,0,0,0,0,,,,,,,,,,,,,,,,,,,,,,,,,,,,,,,,,,,,,,5.0,5.0,5.961805000435561,"[(5.0, 5.961805000435561)]",483.7182517996989,None,,,,,,,,,,sub_184,2022-11-14_17h36.25.046,Reversal,2022.1.2,60.06868262113095,4,
,,,exp2.png,2,0,2,0,,,,,0,0,0,0,0,1,1,1,,,,,,,,,,,,,,,,,,,,,,,,,,,,,,,,,,,,,,,100.0,2.9330288004130125,"[(87.0, 1.9671281999908388), (100.0, 2.9330288004130125)]",490.6478857998736,None,100.0,,,,,,,,,sub_184,2022-11-14_17h36.25.046,Reversal,2022.1.2,60.06868262113095,4,
,,,exp3.png,2,0,2,0,,,,,0,0,0,0,0,2,2,2,,,,,,,,,,,,,,,,,,,,,,,,,,,,,,,,,,,,,,,10.0,3.78190749976784,"[(10.0, 3.78190749976784)]",494.7020883997902,None,,10.0,,,,,,,,sub_184,2022-11-14_17h36.25.046,Reversal,2022.1.2,60.06868262113095,4,
,,,exp4.png,2,0,2,0,,,,,0,0,0,0,0,3,3,3,,,,,,,,,,,,,,,,,,,,,,,,,,,,,,,,,,,,,,,97.0,1.5669669001363218,"[(97.0, 1.5669669001363218)]",499.3849807996303,None,,,97.0,,,,,,,sub_184,2022-11-14_17h36.25.046,Reversal,2022.1.2,60.06868262113095,4,
0,exp1.png,exp2.png,,,,,,,,,,,,,,,,,,0,0,0,0,0,0,0,0,,,,,,,,,True,,,,,,,,,,,,,,,,,,,,,,,,,,,,,,,,,,,,sub_184,2022-11-14_17h36.25.046,Reversal,2022.1.2,60.06868262113095,4,
1,exp3.png,exp4.png,,,,,,,,,,,,,,,,,,0,0,0,0,0,1,1,1,,,,,,,,,False,0,61,False,exp3.png,exp4.png,trial_left_image,1,exp3.png,4,exp3.png,exp4.png,0,4,reversed,correct,0.482738942344783,1,valid_win,440.50800850009546,37,,,,,,,,,,434.86177620012313,,,,,,sub_184,2022-11-14_17h36.25.046,Reversal,2022.1.2,60.06868262113095,4,
2,exp1.png,exp2.png,,,,,,,,,,,,,,,,,,0,0,0,0,0,2,2,2,,,,,,,,,False,1,62,True,exp2.png,exp1.png,trial_left_image,1,exp2.png,4,exp2.png,exp1.png,1,1,non-reversed,correct,0.3315683494797165,1,valid_win,447.15816489979625,38,,,,,,,,,,,,,,,,sub_184,2022-11-14_17h36.25.046,Reversal,2022.1.2,60.06868262113095,4,
3,exp3.png,exp4.png,,,,,,,,,,,,,,,,,,0,0,0,0,0,3,3,3,,,,,,,,,False,2,63,True,exp4.png,exp3.png,trial_right_image,-1,exp3.png,4,exp3.png,exp4.png,0,4,reversed,correct,0.1529624615878915,0,invalid_lose,452.4748247000389,38,,,,,,,,,,,,,,,,sub_184,2022-11-14_17h36.25.046,Reversal,2022.1.2,60.06868262113095,4,
4,exp1.png,exp2.png,,,,,,,,,,,,,,,,,,0,0,0,0,0,4,4,4,,,,,,,,,False,3,64,False,exp1.png,exp2.png,trial_right_image,-1,exp2.png,4,exp2.png,exp1.png,1,1,non-reversed,correct,0.8057474283182343,1,valid_win,457.99126970022917,39,,,,,,,,,,,,,,,,sub_184,2022-11-14_17h36.25.046,Reversal,2022.1.2,60.06868262113095,4,
5,exp3.png,exp4.png,,,,,,,,,,,,,,,,,,0,0,0,0,0,5,5,5,,,,,,,,,False,4,65,True,exp4.png,exp3.png,trial_left_image,1,exp4.png,4,exp3.png,exp4.png,1,3,reversed,incorrect,0.7559509819560717,0,valid_lose,463.9579850998707,39,,,,,,,,,,,,,,,,sub_184,2022-11-14_17h36.25.046,Reversal,2022.1.2,60.06868262113095,4,
6,exp1.png,exp2.png,,,,,,,,,,,,,,,,,,0,0,0,0,0,6,6,6,,,,,,,,,False,5,66,True,exp2.png,exp1.png,trial_left_image,1,exp2.png,4,exp2.png,exp1.png,1,1,non-reversed,correct,0.9845240689685358,1,valid_win,469.3243630002253,40,,,,,,,,,,,,,,,,sub_184,2022-11-14_17h36.25.046,Reversal,2022.1.2,60.06868262113095,4,
7,exp3.png,exp4.png,,,,,,,,,,,,,,,,,,0,0,0,0,0,7,7,7,,,,,,,,,False,6,67,False,exp3.png,exp4.png,trial_left_image,1,exp3.png,4,exp3.png,exp4.png,0,4,reversed,correct,0.6092096168322506,1,valid_win,474.4245528001338,41,,,,,,,,,,,,,,,,sub_184,2022-11-14_17h36.25.046,Reversal,2022.1.2,60.06868262113095,4,
8,exp1.png,exp2.png,,,,,,,,,,,,,,,,,,0,0,0,0,0,8,8,8,,,,,,,,,False,7,68,True,exp2.png,exp1.png,trial_left_image,1,exp2.png,4,exp2.png,exp1.png,1,1,non-reversed,correct,0.7139989445072861,1,valid_win,479.4576877998188,42,,,,,,,,,,,,,,,,sub_184,2022-11-14_17h36.25.046,Reversal,2022.1.2,60.06868262113095,4,
9,exp3.png,exp4.png,,,,,,,,,,,,,,,,,,0,0,0,0,0,9,9,9,,,,,,,,,False,8,69,False,exp3.png,exp4.png,trial_left_image,1,exp3.png,4,exp3.png,exp4.png,0,4,reversed,correct,0.8224097557379866,1,valid_win,484.2572607002221,43,,,,,,,,,,,,,,,,sub_184,2022-11-14_17h36.25.046,Reversal,2022.1.2,60.06868262113095,4,
10,exp1.png,exp2.png,,,,,,,,,,,,,,,,,,0,0,0,0,0,10,10,10,,,,,,,,,False,9,70,True,exp2.png,exp1.png,trial_left_image,1,exp2.png,4,exp2.png,exp1.png,1,1,non-reversed,correct,0.0721327500988459,0,invalid_lose,489.3741731001064,43,,,,,,,,,,,,,,,,sub_184,2022-11-14_17h36.25.046,Reversal,2022.1.2,60.06868262113095,4,
11,exp3.png,exp4.png,,,,,,,,,,,,,,,,,,0,0,0,0,0,11,11,11,,,,,,,,,False,10,71,True,exp4.png,exp3.png,trial_right_image,-1,exp3.png,4,exp3.png,exp4.png,0,4,reversed,correct,0.020306633350839154,0,invalid_lose,494.85724670020863,43,,,,,,,,,,,,,,,,sub_184,2022-11-14_17h36.25.046,Reversal,2022.1.2,60.06868262113095,4,
12,exp1.png,exp2.png,,,,,,,,,,,,,,,,,,0,0,0,0,0,12,12,12,,,,,,,,,False,11,72,False,exp1.png,exp2.png,trial_right_image,-1,exp2.png,4,exp2.png,exp1.png,1,1,non-reversed,correct,0.8371189595046766,1,valid_win,500.39011309994385,44,,,,,,,,,,,,,,,,sub_184,2022-11-14_17h36.25.046,Reversal,2022.1.2,60.06868262113095,4,
13,exp3.png,exp4.png,,,,,,,,,,,,,,,,,,0,0,0,0,0,13,13,13,,,,,,,,,False,12,73,True,exp4.png,exp3.png,trial_right_image,-1,exp3.png,4,exp3.png,exp4.png,0,4,reversed,correct,0.17877569330134457,0,invalid_lose,505.55723740020767,44,,,,,,,,,,,,,,,,sub_184,2022-11-14_17h36.25.046,Reversal,2022.1.2,60.06868262113095,4,
14,exp1.png,exp2.png,,,,,,,,,,,,,,,,,,0,0,0,0,0,14,14,14,,,,,,,,,False,13,74,False,exp1.png,exp2.png,trial_right_image,-1,exp2.png,4,exp2.png,exp1.png,1,1,non-reversed,correct,0.07300373541503236,0,invalid_lose,511.0080884001218,44,,,,,,,,,,,,,,,,sub_184,2022-11-14_17h36.25.046,Reversal,2022.1.2,60.06868262113095,4,
15,exp3.png,exp4.png,,,,,,,,,,,,,,,,,,0,0,0,0,0,15,15,15,,,,,,,,,False,14,75,False,exp3.png,exp4.png,trial_left_image,1,exp3.png,4,exp3.png,exp4.png,0,4,reversed,correct,0.024510532024493603,0,invalid_lose,517.2736213002354,44,,,,,,,,,,,,,,,,sub_184,2022-11-14_17h36.25.046,Reversal,2022.1.2,60.06868262113095,4,
16,exp1.png,exp2.png,,,,,,,,,,,,,,,,,,0,0,0,0,0,16,16,16,,,,,,,,,False,15,76,False,exp1.png,exp2.png,trial_left_image,1,exp1.png,4,exp2.png,exp1.png,0,2,non-reversed,incorrect,0.35490213447642605,0,valid_lose,523.1570484000258,44,,,,,,,,,,,,,,,,sub_184,2022-11-14_17h36.25.046,Reversal,2022.1.2,60.06868262113095,4,
17,exp3.png,exp4.png,,,,,,,,,,,,,,,,,,0,0,0,0,0,17,17,17,,,,,,,,,False,16,77,True,exp4.png,exp3.png,trial_right_image,-1,exp3.png,4,exp3.png,exp4.png,0,4,reversed,correct,0.7336216823815073,1,valid_win,527.9567412999459,45,,,,,,,,,,,,,,,,sub_184,2022-11-14_17h36.25.046,Reversal,2022.1.2,60.06868262113095,4,
18,exp1.png,exp2.png,,,,,,,,,,,,,,,,,,0,0,0,0,0,18,18,18,,,,,,,,,False,17,78,True,exp2.png,exp1.png,trial_left_image,1,exp2.png,4,exp2.png,exp1.png,1,1,non-reversed,correct,0.2012557611348995,0,invalid_lose,532.8729673000053,45,,,,,,,,,,,,,,,,sub_184,2022-11-14_17h36.25.046,Reversal,2022.1.2,60.06868262113095,4,
19,exp3.png,exp4.png,,,,,,,,,,,,,,,,,,0,0,0,0,0,19,19,19,,,,,,,,,False,18,79,False,exp3.png,exp4.png,trial_left_image,1,exp3.png,4,exp3.png,exp4.png,0,4,reversed,correct,0.1223208553756675,0,invalid_lose,538.2564917001873,45,,,,,,,,,,,,,,,,sub_184,2022-11-14_17h36.25.046,Reversal,2022.1.2,60.06868262113095,4,
20,exp1.png,exp2.png,,,,,,,,,,,,,,,,,,0,0,0,0,0,20,20,20,,,,,,,,,False,19,80,False,exp1.png,exp2.png,trial_right_image,-1,exp2.png,4,exp2.png,exp1.png,1,1,non-reversed,correct,0.6597179172247317,1,valid_win,544.1733193998225,46,,,,,,,,,,,,,,,,sub_184,2022-11-14_17h36.25.046,Reversal,2022.1.2,60.06868262113095,4,
,,,exp1.png,,,,,,,,,,,,,,,,,0,0,0,0,,,,,0,0,0,0,0,0,0,0,,,,,,,,,,,,,,,,,,,,,,20.0,20.0,5.332562800031155,"[(20.0, 5.332562800031155)]",613.9616834996268,None,,,,,,,,,,sub_184,2022-11-14_17h36.25.046,Reversal,2022.1.2,60.06868262113095,4,
,,,exp2.png,,,,,,,,,,,,,,,,,0,0,0,0,,,,,0,0,0,0,0,1,1,1,,,,,,,,,,,,,,,,,,,,,,,98.0,1.4011324001476169,"[(98.0, 1.4011324001476169)]",620.1794493999332,None,98.0,,,,,,,,,sub_184,2022-11-14_17h36.25.046,Reversal,2022.1.2,60.06868262113095,4,
,,,exp3.png,,,,,,,,,,,,,,,,,0,0,0,0,,,,,0,0,0,0,0,2,2,2,,,,,,,,,,,,,,,,,,,,,,,96.0,2.933823300059885,"[(96.0, 2.933823300059885)]",622.5763441999443,None,,96.0,,,,,,,,sub_184,2022-11-14_17h36.25.046,Reversal,2022.1.2,60.06868262113095,4,
,,,exp4.png,,,,,,,,,,,,,,,,,0,0,0,0,,,,,0,0,0,0,0,3,3,3,,,,,,,,,,,,,,,,,,,,,,,25.0,2.8847518996335566,"[(25.0, 2.8847518996335566)]",627.2816403997131,None,,,25.0,,,,,,,sub_184,2022-11-14_17h36.25.046,Reversal,2022.1.2,60.06868262113095,4,
0,exp1.png,exp2.png,,,,,,,,,,,,,,,,,,1,0,1,0,0,0,0,0,,,,,,,,,True,,,,,,,,,,,,,,,,,,,,,,,,,,,,,,,,,,,,sub_184,2022-11-14_17h36.25.046,Reversal,2022.1.2,60.06868262113095,4,
1,exp3.png,exp4.png,,,,,,,,,,,,,,,,,,1,0,1,0,0,1,1,1,,,,,,,,,False,20,81,True,exp4.png,exp3.png,trial_right_image,-1,exp3.png,4,exp3.png,exp4.png,0,4,reversed,correct,0.07539545440622619,0,invalid_lose,566.4394490998238,46,,,,,,,,,,,,,,,,sub_184,2022-11-14_17h36.25.046,Reversal,2022.1.2,60.06868262113095,4,
2,exp1.png,exp2.png,,,,,,,,,,,,,,,,,,1,0,1,0,0,2,2,2,,,,,,,,,False,21,82,False,exp1.png,exp2.png,trial_right_image,-1,exp2.png,4,exp2.png,exp1.png,1,1,non-reversed,correct,0.5769579663360596,1,valid_win,571.9728941000067,47,,,,,,,,,,,,,,,,sub_184,2022-11-14_17h36.25.046,Reversal,2022.1.2,60.06868262113095,4,
3,exp3.png,exp4.png,,,,,,,,,,,,,,,,,,1,0,1,0,0,3,3,3,,,,,,,,,False,22,83,False,exp3.png,exp4.png,trial_left_image,1,exp3.png,4,exp3.png,exp4.png,0,4,reversed,correct,0.5223703084752972,1,valid_win,576.889161199797,48,,,,,,,,,,,,,,,,sub_184,2022-11-14_17h36.25.046,Reversal,2022.1.2,60.06868262113095,4,
4,exp1.png,exp2.png,,,,,,,,,,,,,,,,,,1,0,1,0,0,4,4,4,,,,,,,,,False,23,84,True,exp2.png,exp1.png,trial_left_image,1,exp2.png,4,exp2.png,exp1.png,1,1,non-reversed,correct,0.25550127822961244,1,valid_win,582.5220142998733,49,,,,,,,,,,,,,,,,sub_184,2022-11-14_17h36.25.046,Reversal,2022.1.2,60.06868262113095,4,
5,exp3.png,exp4.png,,,,,,,,,,,,,,,,,,1,0,1,0,0,5,5,5,,,,,,,,,False,24,85,False,exp3.png,exp4.png,trial_left_image,1,exp3.png,4,exp3.png,exp4.png,0,4,reversed,correct,0.26261084574190985,1,valid_win,587.5054008001462,50,,,,,,,,,,,,,,,,sub_184,2022-11-14_17h36.25.046,Reversal,2022.1.2,60.06868262113095,4,
6,exp1.png,exp2.png,,,,,,,,,,,,,,,,,,1,0,1,0,0,6,6,6,,,,,,,,,False,25,86,True,exp2.png,exp1.png,trial_left_image,1,exp2.png,4,exp2.png,exp1.png,1,1,non-reversed,correct,0.5038974236498223,1,valid_win,591.9219908998348,51,,,,,,,,,,,,,,,,sub_184,2022-11-14_17h36.25.046,Reversal,2022.1.2,60.06868262113095,4,
7,exp3.png,exp4.png,,,,,,,,,,,,,,,,,,1,0,1,0,0,7,7,7,,,,,,,,,False,26,87,True,exp4.png,exp3.png,trial_right_image,-1,exp3.png,4,exp3.png,exp4.png,0,4,reversed,correct,0.42113982729012356,1,valid_win,596.4221223997883,52,,,,,,,,,,,,,,,,sub_184,2022-11-14_17h36.25.046,Reversal,2022.1.2,60.06868262113095,4,
8,exp1.png,exp2.png,,,,,,,,,,,,,,,,,,1,0,1,0,0,8,8,8,,,,,,,,,False,27,88,False,exp1.png,exp2.png,trial_right_image,-1,exp2.png,4,exp2.png,exp1.png,1,1,non-reversed,correct,0.5262453769212339,1,valid_win,601.4886119998991,53,,,,,,,,,,,,,,,,sub_184,2022-11-14_17h36.25.046,Reversal,2022.1.2,60.06868262113095,4,
9,exp3.png,exp4.png,,,,,,,,,,,,,,,,,,1,0,1,0,0,9,9,9,,,,,,,,,False,28,89,True,exp4.png,exp3.png,trial_right_image,-1,exp3.png,4,exp3.png,exp4.png,0,4,reversed,correct,0.38022522769065104,1,valid_win,605.9888247000054,54,,,,,,,,,,,,,,,,sub_184,2022-11-14_17h36.25.046,Reversal,2022.1.2,60.06868262113095,4,
10,exp1.png,exp2.png,,,,,,,,,,,,,,,,,,1,0,1,0,0,10,10,10,,,,,,,,,False,29,90,True,exp2.png,exp1.png,trial_left_image,1,exp2.png,4,exp2.png,exp1.png,1,1,non-reversed,correct,0.03483272954959926,0,invalid_lose,611.0218735001981,54,,,,,,,,,,,,,,,,sub_184,2022-11-14_17h36.25.046,Reversal,2022.1.2,60.06868262113095,4,
11,exp3.png,exp4.png,,,,,,,,,,,,,,,,,,1,0,1,0,0,11,11,11,,,,,,,,,False,30,91,False,exp3.png,exp4.png,trial_left_image,1,exp3.png,4,exp3.png,exp4.png,0,4,reversed,correct,0.23248485437487065,0,invalid_lose,615.7883884999901,54,,,,,,,,,,,,,,,,sub_184,2022-11-14_17h36.25.046,Reversal,2022.1.2,60.06868262113095,4,
12,exp1.png,exp2.png,,,,,,,,,,,,,,,,,,1,0,1,0,0,12,12,12,,,,,,,,,False,31,92,False,exp1.png,exp2.png,trial_right_image,-1,exp2.png,4,exp2.png,exp1.png,1,1,non-reversed,correct,0.003275057860660513,0,invalid_lose,620.9052221998572,54,,,,,,,,,,,,,,,,sub_184,2022-11-14_17h36.25.046,Reversal,2022.1.2,60.06868262113095,4,
13,exp3.png,exp4.png,,,,,,,,,,,,,,,,,,1,0,1,0,0,13,13,13,,,,,,,,,False,32,93,True,exp4.png,exp3.png,trial_right_image,-1,exp3.png,4,exp3.png,exp4.png,0,4,reversed,correct,0.18111922725793572,0,invalid_lose,625.3714454001747,54,,,,,,,,,,,,,,,,sub_184,2022-11-14_17h36.25.046,Reversal,2022.1.2,60.06868262113095,4,
14,exp1.png,exp2.png,,,,,,,,,,,,,,,,,,1,0,1,0,0,14,14,14,,,,,,,,,False,33,94,True,exp2.png,exp1.png,trial_right_image,-1,exp1.png,4,exp2.png,exp1.png,0,2,non-reversed,incorrect,0.8410162104085057,0,valid_lose,630.6549566001631,54,,,,,,,,,,,,,,,,sub_184,2022-11-14_17h36.25.046,Reversal,2022.1.2,60.06868262113095,4,
15,exp3.png,exp4.png,,,,,,,,,,,,,,,,,,1,0,1,0,0,15,15,15,,,,,,,,,False,34,95,True,exp4.png,exp3.png,trial_right_image,-1,exp3.png,4,exp3.png,exp4.png,0,4,reversed,correct,0.2560581959554883,1,valid_win,636.4545297999866,55,,,,,,,,,,,,,,,,sub_184,2022-11-14_17h36.25.046,Reversal,2022.1.2,60.06868262113095,4,
16,exp1.png,exp2.png,,,,,,,,,,,,,,,,,,1,0,1,0,0,16,16,16,,,,,,,,,False,35,96,False,exp1.png,exp2.png,trial_right_image,-1,exp2.png,4,exp2.png,exp1.png,1,1,non-reversed,correct,0.2980617586411185,1,valid_win,642.6877704001963,56,,,,,,,,,,,,,,,,sub_184,2022-11-14_17h36.25.046,Reversal,2022.1.2,60.06868262113095,4,
17,exp3.png,exp4.png,,,,,,,,,,,,,,,,,,1,0,1,0,0,17,17,17,,,,,,,,,False,36,97,False,exp3.png,exp4.png,trial_left_image,1,exp3.png,4,exp3.png,exp4.png,0,4,reversed,correct,0.9485087572163443,1,valid_win,647.8375825998373,57,,,,,,,,,,,,,,,,sub_184,2022-11-14_17h36.25.046,Reversal,2022.1.2,60.06868262113095,4,
18,exp1.png,exp2.png,,,,,,,,,,,,,,,,,,1,0,1,0,0,18,18,18,,,,,,,,,False,37,98,True,exp2.png,exp1.png,trial_left_image,1,exp2.png,4,exp2.png,exp1.png,1,1,non-reversed,correct,0.24048511013774265,0,invalid_lose,653.1873828000389,57,,,,,,,,,,,,,,,,sub_184,2022-11-14_17h36.25.046,Reversal,2022.1.2,60.06868262113095,4,
19,exp3.png,exp4.png,,,,,,,,,,,,,,,,,,1,0,1,0,0,19,19,19,,,,,,,,,False,38,99,False,exp3.png,exp4.png,trial_left_image,1,exp3.png,4,exp3.png,exp4.png,0,4,reversed,correct,0.30236934162766904,1,valid_win,658.554350099992,58,,,,,,,,,,,,,,,,sub_184,2022-11-14_17h36.25.046,Reversal,2022.1.2,60.06868262113095,4,
20,exp1.png,exp2.png,,,,,,,,,,,,,,,,,,1,0,1,0,0,20,20,20,,,,,,,,,False,39,100,False,exp1.png,exp2.png,trial_right_image,-1,exp2.png,4,exp2.png,exp1.png,1,1,non-reversed,correct,0.6684945301307893,1,valid_win,665.153906499967,59,,,,,,,,,,,,,,,,sub_184,2022-11-14_17h36.25.046,Reversal,2022.1.2,60.06868262113095,4,
,,,exp1.png,,,,,,,,,,,,,,,,,1,0,1,0,,,,,0,0,0,0,0,0,0,0,,,,,,,,,,,,,,,,,,,,,,20.0,20.0,5.696325100027025,"[(20.0, 5.696325100027025)]",734.9480071999133,None,,,,,,,,,,sub_184,2022-11-14_17h36.25.046,Reversal,2022.1.2,60.06868262113095,4,
,,,exp2.png,,,,,,,,,,,,,,,,,1,0,1,0,,,,,0,0,0,0,0,1,1,1,,,,,,,,,,,,,,,,,,,,,,,95.0,1.8674172000028193,"[(95.0, 1.8674172000028193)]",741.5429932000116,None,95.0,,,,,,,,,sub_184,2022-11-14_17h36.25.046,Reversal,2022.1.2,60.06868262113095,4,
,,,exp3.png,,,,,,,,,,,,,,,,,1,0,1,0,,,,,0,0,0,0,0,2,2,2,,,,,,,,,,,,,,,,,,,,,,,96.0,1.7840841002762318,"[(96.0, 1.7840841002762318)]",744.3577271997929,None,,96.0,,,,,,,,sub_184,2022-11-14_17h36.25.046,Reversal,2022.1.2,60.06868262113095,4,
,,,exp4.png,,,,,,,,,,,,,,,,,1,0,1,0,,,,,0,0,0,0,0,3,3,3,,,,,,,,,,,,,,,,,,,,,,,12.0,2.8336891001090407,"[(12.0, 2.8336891001090407)]",747.2072588996962,None,,,12.0,,,,,,,sub_184,2022-11-14_17h36.25.046,Reversal,2022.1.2,60.06868262113095,4,
0,exp1.png,exp2.png,,,,,,,,,,,,,,,,,,2,0,2,0,0,0,0,0,,,,,,,,,True,,,,,,,,,,,,,,,,,,,,,,,,,,,,,,,,,,,,sub_184,2022-11-14_17h36.25.046,Reversal,2022.1.2,60.06868262113095,4,
1,exp3.png,exp4.png,,,,,,,,,,,,,,,,,,2,0,2,0,0,1,1,1,,,,,,,,,False,40,101,True,exp4.png,exp3.png,trial_right_image,-1,exp3.png,4,exp3.png,exp4.png,0,4,reversed,correct,0.5568957167926297,1,valid_win,686.2202051999047,60,,,,,,,,,,,,,,,,sub_184,2022-11-14_17h36.25.046,Reversal,2022.1.2,60.06868262113095,4,
2,exp1.png,exp2.png,,,,,,,,,,,,,,,,,,2,0,2,0,0,2,2,2,,,,,,,,,False,41,102,False,exp1.png,exp2.png,trial_right_image,-1,exp2.png,4,exp2.png,exp1.png,1,1,non-reversed,correct,0.784739717811112,1,valid_win,691.7703904998489,61,,,,,,,,,,,,,,,,sub_184,2022-11-14_17h36.25.046,Reversal,2022.1.2,60.06868262113095,4,
3,exp3.png,exp4.png,,,,,,,,,,,,,,,,,,2,0,2,0,0,3,3,3,,,,,,,,,False,42,103,False,exp3.png,exp4.png,trial_left_image,1,exp3.png,4,exp3.png,exp4.png,0,4,reversed,correct,0.18926553059195894,0,invalid_lose,696.5866224998608,61,,,,,,,,,,,,,,,,sub_184,2022-11-14_17h36.25.046,Reversal,2022.1.2,60.06868262113095,4,
4,exp1.png,exp2.png,,,,,,,,,,,,,,,,,,2,0,2,0,0,4,4,4,,,,,,,,,False,43,104,False,exp1.png,exp2.png,trial_right_image,-1,exp2.png,4,exp2.png,exp1.png,1,1,non-reversed,correct,0.6662346332936184,1,valid_win,703.053201999981,62,,,,,,,,,,,,,,,,sub_184,2022-11-14_17h36.25.046,Reversal,2022.1.2,60.06868262113095,4,
5,exp3.png,exp4.png,,,,,,,,,,,,,,,,,,2,0,2,0,0,5,5,5,,,,,,,,,False,44,105,True,exp4.png,exp3.png,trial_right_image,-1,exp3.png,4,exp3.png,exp4.png,0,4,reversed,correct,0.9953737865623042,1,valid_win,707.936321400106,63,,,,,,,,,,,,,,,,sub_184,2022-11-14_17h36.25.046,Reversal,2022.1.2,60.06868262113095,4,
6,exp1.png,exp2.png,,,,,,,,,,,,,,,,,,2,0,2,0,0,6,6,6,,,,,,,,,False,45,106,True,exp2.png,exp1.png,trial_left_image,1,exp2.png,4,exp2.png,exp1.png,1,1,non-reversed,correct,0.8615611052510896,1,valid_win,712.8376107998192,64,,,,,,,,,,,,,,,,sub_184,2022-11-14_17h36.25.046,Reversal,2022.1.2,60.06868262113095,4,
7,exp3.png,exp4.png,,,,,,,,,,,,,,,,,,2,0,2,0,0,7,7,7,,,,,,,,,False,46,107,False,exp3.png,exp4.png,trial_left_image,1,exp3.png,4,exp3.png,exp4.png,0,4,reversed,correct,0.1292133100297682,0,invalid_lose,718.2694590999745,64,,,,,,,,,,,,,,,,sub_184,2022-11-14_17h36.25.046,Reversal,2022.1.2,60.06868262113095,4,
8,exp1.png,exp2.png,,,,,,,,,,,,,,,,,,2,0,2,0,0,8,8,8,,,,,,,,,False,47,108,True,exp2.png,exp1.png,trial_left_image,1,exp2.png,4,exp2.png,exp1.png,1,1,non-reversed,correct,0.7406305866678939,1,valid_win,725.8029737002216,65,,,,,,,,,,,,,,,,sub_184,2022-11-14_17h36.25.046,Reversal,2022.1.2,60.06868262113095,4,
9,exp3.png,exp4.png,,,,,,,,,,,,,,,,,,2,0,2,0,0,9,9,9,,,,,,,,,False,48,109,True,exp4.png,exp3.png,trial_right_image,-1,exp3.png,4,exp3.png,exp4.png,0,4,reversed,correct,0.8691019372459783,1,valid_win,730.3697922998108,66,,,,,,,,,,,,,,,,sub_184,2022-11-14_17h36.25.046,Reversal,2022.1.2,60.06868262113095,4,
10,exp1.png,exp2.png,,,,,,,,,,,,,,,,,,2,0,2,0,0,10,10,10,,,,,,,,,False,49,110,True,exp2.png,exp1.png,trial_left_image,1,exp2.png,4,exp2.png,exp1.png,1,1,non-reversed,correct,0.6389448761161234,1,valid_win,736.2697991998866,67,,,,,,,,,,,,,,,,sub_184,2022-11-14_17h36.25.046,Reversal,2022.1.2,60.06868262113095,4,
11,exp3.png,exp4.png,,,,,,,,,,,,,,,,,,2,0,2,0,0,11,11,11,,,,,,,,,False,50,111,False,exp3.png,exp4.png,trial_left_image,1,exp3.png,4,exp3.png,exp4.png,0,4,reversed,correct,0.8861087537786856,1,valid_win,741.5858358000405,68,,,,,,,,,,,,,,,,sub_184,2022-11-14_17h36.25.046,Reversal,2022.1.2,60.06868262113095,4,
12,exp1.png,exp2.png,,,,,,,,,,,,,,,,,,2,0,2,0,0,12,12,12,,,,,,,,,False,51,112,False,exp1.png,exp2.png,trial_right_image,-1,exp2.png,4,exp2.png,exp1.png,1,1,non-reversed,correct,0.23479393768978252,0,invalid_lose,747.0523998998106,68,,,,,,,,,,,,,,,,sub_184,2022-11-14_17h36.25.046,Reversal,2022.1.2,60.06868262113095,4,
13,exp3.png,exp4.png,,,,,,,,,,,,,,,,,,2,0,2,0,0,13,13,13,,,,,,,,,False,52,113,True,exp4.png,exp3.png,trial_right_image,-1,exp3.png,4,exp3.png,exp4.png,0,4,reversed,correct,0.9030879082571022,1,valid_win,752.1688021002337,69,,,,,,,,,,,,,,,,sub_184,2022-11-14_17h36.25.046,Reversal,2022.1.2,60.06868262113095,4,
14,exp1.png,exp2.png,,,,,,,,,,,,,,,,,,2,0,2,0,0,14,14,14,,,,,,,,,False,53,114,True,exp2.png,exp1.png,trial_left_image,1,exp2.png,4,exp2.png,exp1.png,1,1,non-reversed,correct,0.48856774446780094,1,valid_win,757.5527400998399,70,,,,,,,,,,,,,,,,sub_184,2022-11-14_17h36.25.046,Reversal,2022.1.2,60.06868262113095,4,
15,exp3.png,exp4.png,,,,,,,,,,,,,,,,,,2,0,2,0,0,15,15,15,,,,,,,,,False,54,115,True,exp4.png,exp3.png,trial_right_image,-1,exp3.png,4,exp3.png,exp4.png,0,4,reversed,correct,0.31814532630676706,1,valid_win,762.1353266001679,71,,,,,,,,,,,,,,,,sub_184,2022-11-14_17h36.25.046,Reversal,2022.1.2,60.06868262113095,4,
16,exp1.png,exp2.png,,,,,,,,,,,,,,,,,,2,0,2,0,0,16,16,16,,,,,,,,,False,55,116,False,exp1.png,exp2.png,trial_right_image,-1,exp2.png,4,exp2.png,exp1.png,1,1,non-reversed,correct,0.20076880980362743,0,invalid_lose,767.5523753999732,71,,,,,,,,,,,,,,,,sub_184,2022-11-14_17h36.25.046,Reversal,2022.1.2,60.06868262113095,4,
17,exp3.png,exp4.png,,,,,,,,,,,,,,,,,,2,0,2,0,0,17,17,17,,,,,,,,,False,56,117,False,exp3.png,exp4.png,trial_left_image,1,exp3.png,4,exp3.png,exp4.png,0,4,reversed,correct,0.16500676343702536,0,invalid_lose,772.6354395002127,71,,,,,,,,,,,,,,,,sub_184,2022-11-14_17h36.25.046,Reversal,2022.1.2,60.06868262113095,4,
18,exp1.png,exp2.png,,,,,,,,,,,,,,,,,,2,0,2,0,0,18,18,18,,,,,,,,,False,57,118,False,exp1.png,exp2.png,trial_right_image,-1,exp2.png,4,exp2.png,exp1.png,1,1,non-reversed,correct,0.25371838992238993,1,valid_win,777.4018378998153,72,,,,,,,,,,,,,,,,sub_184,2022-11-14_17h36.25.046,Reversal,2022.1.2,60.06868262113095,4,
19,exp3.png,exp4.png,,,,,,,,,,,,,,,,,,2,0,2,0,0,19,19,19,,,,,,,,,False,58,119,True,exp4.png,exp3.png,trial_right_image,-1,exp3.png,4,exp3.png,exp4.png,0,4,reversed,correct,0.1576737180183112,0,invalid_lose,781.8354382999241,72,,,,,,,,,,,,,,,,sub_184,2022-11-14_17h36.25.046,Reversal,2022.1.2,60.06868262113095,4,
20,exp1.png,exp2.png,,,,,,,,,,,,,,,,,,2,0,2,0,0,20,20,20,,,,,,,,,False,59,120,False,exp1.png,exp2.png,trial_right_image,-1,exp2.png,4,exp2.png,exp1.png,1,1,non-reversed,correct,0.7845245887956405,1,valid_win,788.9193238001317,73,,,,,,,,,,,,,,,,sub_184,2022-11-14_17h36.25.046,Reversal,2022.1.2,60.06868262113095,4,
,,,exp1.png,,,,,,,,,,,,,,,,,2,0,2,0,,,,,0,0,0,0,0,0,0,0,,,,,,,,,,,,,,,,,,,,,,17.0,17.0,3.6292205997742712,"[(17.0, 3.6292205997742712)]",858.7130091995932,None,,,,,,,,,,sub_184,2022-11-14_17h36.25.046,Reversal,2022.1.2,60.06868262113095,4,
,,,exp2.png,,,,,,,,,,,,,,,,,2,0,2,0,,,,,0,0,0,0,0,1,1,1,,,,,,,,,,,,,,,,,,,,,,,98.0,2.848096000030637,"[(89.0, 1.7151780002750456), (98.0, 2.848096000030637)]",863.22879369976,None,98.0,,,,,,,,,sub_184,2022-11-14_17h36.25.046,Reversal,2022.1.2,60.06868262113095,4,
,,,exp3.png,,,,,,,,,,,,,,,,,2,0,2,0,,,,,0,0,0,0,0,2,2,2,,,,,,,,,,,,,,,,,,,,,,,100.0,1.885205500293523,"[(87.0, 1.1020332002080977), (100.0, 1.885205500293523)]",867.1550901997834,None,,100.0,,,,,,,,sub_184,2022-11-14_17h36.25.046,Reversal,2022.1.2,60.06868262113095,4,
,,,exp4.png,,,,,,,,,,,,,,,,,2,0,2,0,,,,,0,0,0,0,0,3,3,3,,,,,,,,,,,,,,,,,,,,,,,11.0,2.433929200284183,"[(11.0, 2.433929200284183)]",870.1385339996777,None,,,11.0,,,,,,,sub_184,2022-11-14_17h36.25.046,Reversal,2022.1.2,60.06868262113095,4,
,,,,,,,,,,,,,,,,,,,,,,,,,,,,,,,,,,,,,,,,,,,,,,,,,,,,,,,,73,,,,,,,,,,,107,50,57,371.257748299744,0,,,,,,,
