trial_index,trial_image1_file,trial_image2_file,image_file,learning_outer_loop.thisRepN,learning_outer_loop.thisTrialN,learning_outer_loop.thisN,learning_outer_loop.thisIndex,learning_inner_loop.thisRepN,learning_inner_loop.thisTrialN,learning_inner_loop.thisN,learning_inner_loop.thisIndex,learning_estimation_outer_loop.thisRepN,learning_estimation_outer_loop.thisTrialN,learning_estimation_outer_loop.thisN,learning_estimation_outer_loop.thisIndex,learning_estimation_inner_loop.thisRepN,learning_estimation_inner_loop.thisTrialN,learning_estimation_inner_loop.thisN,learning_estimation_inner_loop.thisIndex,reversal_outer_loop.thisRepN,reversal_outer_loop.thisTrialN,reversal_outer_loop.thisN,reversal_outer_loop.thisIndex,reversal_inner_loop.thisRepN,reversal_inner_loop.thisTrialN,reversal_inner_loop.thisN,reversal_inner_loop.thisIndex,reversal_estimation_outer_loop.thisRepN,reversal_estimation_outer_loop.thisTrialN,reversal_estimation_outer_loop.thisN,reversal_estimation_outer_loop.thisIndex,reversal_estimation_inner_loop.thisRepN,reversal_estimation_inner_loop.thisTrialN,reversal_estimation_inner_loop.thisN,reversal_estimation_inner_loop.thisIndex,skipped,total_trial_counter,trial_num,left_right_flip,left_image_file,right_image_file,clicked_stimulus_side,side,clicked_stimulus,version,high_prob_image_file,low_prob_image_file,choice_a,choice_b,pair_type,correct,trial_feedback_random,reward,trial_type,overall_time_after_trial,score,estimation_exp1.png,estimation_rating.response,estimation_rating.rt,estimation_rating.history,estimation_rating.started,estimation_rating.stopped,estimation_exp2.png,estimation_exp3.png,estimation_exp4.png,total_learning_time,total_correct,learning_correct,reversal_correct,total_reversal_time,extra_block,participant,date,expName,psychopyVersion,frameRate,ver,
0,exp1.png,exp2.png,,0,0,0,0,0,0,0,0,,,,,,,,,,,,,,,,,,,,,,,,,True,,,,,,,,,,,,,,,,,,,,,,,,,,,,,,,,,,,,sub_405,2023-09-28_10h42.23.728,Reversal,2022.1.2,59.97023077766166,1,
1,exp3.png,exp4.png,,0,0,0,0,0,1,1,1,,,,,,,,,,,,,,,,,,,,,,,,,False,0,1,False,exp3.png,exp4.png,trial_left_image,1,exp3.png,1,exp3.png,exp4.png,1,1,non-reversed,correct,0.12228037900742528,0,invalid_lose,3.0166731999997864,0,,,,,,,,,,,,,,,,sub_405,2023-09-28_10h42.23.728,Reversal,2022.1.2,59.97023077766166,1,
2,exp1.png,exp2.png,,0,0,0,0,0,2,2,2,,,,,,,,,,,,,,,,,,,,,,,,,False,1,2,True,exp2.png,exp1.png,trial_right_image,-1,exp1.png,1,exp1.png,exp2.png,1,3,reversed,correct,0.20477974215201222,0,invalid_lose,7.299331599999277,0,,,,,,,,,,,,,,,,sub_405,2023-09-28_10h42.23.728,Reversal,2022.1.2,59.97023077766166,1,
3,exp3.png,exp4.png,,0,0,0,0,0,3,3,3,,,,,,,,,,,,,,,,,,,,,,,,,False,2,3,False,exp3.png,exp4.png,trial_left_image,1,exp3.png,1,exp3.png,exp4.png,1,1,non-reversed,correct,0.4949989877323768,1,valid_win,11.383369600000151,1,,,,,,,,,,,,,,,,sub_405,2023-09-28_10h42.23.728,Reversal,2022.1.2,59.97023077766166,1,
4,exp1.png,exp2.png,,0,0,0,0,0,4,4,4,,,,,,,,,,,,,,,,,,,,,,,,,False,3,4,False,exp1.png,exp2.png,trial_right_image,-1,exp2.png,1,exp1.png,exp2.png,0,4,reversed,incorrect,0.4335418041612512,0,valid_lose,15.049676900000122,1,,,,,,,,,,,,,,,,sub_405,2023-09-28_10h42.23.728,Reversal,2022.1.2,59.97023077766166,1,
5,exp3.png,exp4.png,,0,0,0,0,0,5,5,5,,,,,,,,,,,,,,,,,,,,,,,,,False,4,5,True,exp4.png,exp3.png,trial_right_image,-1,exp3.png,1,exp3.png,exp4.png,1,1,non-reversed,correct,0.8466316500023462,1,valid_win,20.8169328999993,2,,,,,,,,,,,,,,,,sub_405,2023-09-28_10h42.23.728,Reversal,2022.1.2,59.97023077766166,1,
6,exp1.png,exp2.png,,0,0,0,0,0,6,6,6,,,,,,,,,,,,,,,,,,,,,,,,,False,5,6,True,exp2.png,exp1.png,trial_right_image,-1,exp1.png,1,exp1.png,exp2.png,1,3,reversed,correct,0.11997071430505868,0,invalid_lose,25.432989400000224,2,,,,,,,,,,,,,,,,sub_405,2023-09-28_10h42.23.728,Reversal,2022.1.2,59.97023077766166,1,
7,exp3.png,exp4.png,,0,0,0,0,0,7,7,7,,,,,,,,,,,,,,,,,,,,,,,,,False,6,7,False,exp3.png,exp4.png,trial_left_image,1,exp3.png,1,exp3.png,exp4.png,1,1,non-reversed,correct,0.8549072624672859,1,valid_win,30.14944149999974,3,,,,,,,,,,,,,,,,sub_405,2023-09-28_10h42.23.728,Reversal,2022.1.2,59.97023077766166,1,
8,exp1.png,exp2.png,,0,0,0,0,0,8,8,8,,,,,,,,,,,,,,,,,,,,,,,,,False,7,8,False,exp1.png,exp2.png,trial_left_image,1,exp1.png,1,exp1.png,exp2.png,1,3,reversed,correct,0.5680411266584247,1,valid_win,34.90009680000003,4,,,,,,,,,,,,,,,,sub_405,2023-09-28_10h42.23.728,Reversal,2022.1.2,59.97023077766166,1,
9,exp3.png,exp4.png,,0,0,0,0,0,9,9,9,,,,,,,,,,,,,,,,,,,,,,,,,False,8,9,True,exp4.png,exp3.png,trial_right_image,-1,exp3.png,1,exp3.png,exp4.png,1,1,non-reversed,correct,0.6688563737532289,1,valid_win,39.61590849999993,5,,,,,,,,,,,,,,,,sub_405,2023-09-28_10h42.23.728,Reversal,2022.1.2,59.97023077766166,1,
10,exp1.png,exp2.png,,0,0,0,0,0,10,10,10,,,,,,,,,,,,,,,,,,,,,,,,,False,9,10,True,exp2.png,exp1.png,trial_right_image,-1,exp1.png,1,exp1.png,exp2.png,1,3,reversed,correct,0.28484784367744276,1,valid_win,43.9655872000003,6,,,,,,,,,,,,,,,,sub_405,2023-09-28_10h42.23.728,Reversal,2022.1.2,59.97023077766166,1,
11,exp3.png,exp4.png,,0,0,0,0,0,11,11,11,,,,,,,,,,,,,,,,,,,,,,,,,False,10,11,True,exp4.png,exp3.png,trial_right_image,-1,exp3.png,1,exp3.png,exp4.png,1,1,non-reversed,correct,0.29231804945468276,1,valid_win,49.065754999999626,7,,,,,,,,,,,,,,,,sub_405,2023-09-28_10h42.23.728,Reversal,2022.1.2,59.97023077766166,1,
12,exp1.png,exp2.png,,0,0,0,0,0,12,12,12,,,,,,,,,,,,,,,,,,,,,,,,,False,11,12,False,exp1.png,exp2.png,trial_left_image,1,exp1.png,1,exp1.png,exp2.png,1,3,reversed,correct,0.02378830012168165,0,invalid_lose,53.6482632999996,7,,,,,,,,,,,,,,,,sub_405,2023-09-28_10h42.23.728,Reversal,2022.1.2,59.97023077766166,1,
13,exp3.png,exp4.png,,0,0,0,0,0,13,13,13,,,,,,,,,,,,,,,,,,,,,,,,,False,12,13,True,exp4.png,exp3.png,trial_right_image,-1,exp3.png,1,exp3.png,exp4.png,1,1,non-reversed,correct,0.024447784780855963,0,invalid_lose,58.3319948999997,7,,,,,,,,,,,,,,,,sub_405,2023-09-28_10h42.23.728,Reversal,2022.1.2,59.97023077766166,1,
14,exp1.png,exp2.png,,0,0,0,0,0,14,14,14,,,,,,,,,,,,,,,,,,,,,,,,,False,13,14,True,exp2.png,exp1.png,trial_right_image,-1,exp1.png,1,exp1.png,exp2.png,1,3,reversed,correct,0.27167990178255474,1,valid_win,62.71570950000023,8,,,,,,,,,,,,,,,,sub_405,2023-09-28_10h42.23.728,Reversal,2022.1.2,59.97023077766166,1,
15,exp3.png,exp4.png,,0,0,0,0,0,15,15,15,,,,,,,,,,,,,,,,,,,,,,,,,False,14,15,True,exp4.png,exp3.png,trial_right_image,-1,exp3.png,1,exp3.png,exp4.png,1,1,non-reversed,correct,0.9963495688677074,1,valid_win,68.28231899999992,9,,,,,,,,,,,,,,,,sub_405,2023-09-28_10h42.23.728,Reversal,2022.1.2,59.97023077766166,1,
16,exp1.png,exp2.png,,0,0,0,0,0,16,16,16,,,,,,,,,,,,,,,,,,,,,,,,,False,15,16,False,exp1.png,exp2.png,trial_left_image,1,exp1.png,1,exp1.png,exp2.png,1,3,reversed,correct,0.09063052945168737,0,invalid_lose,74.1989236999998,9,,,,,,,,,,,,,,,,sub_405,2023-09-28_10h42.23.728,Reversal,2022.1.2,59.97023077766166,1,
17,exp3.png,exp4.png,,0,0,0,0,0,17,17,17,,,,,,,,,,,,,,,,,,,,,,,,,False,16,17,False,exp3.png,exp4.png,trial_left_image,1,exp3.png,1,exp3.png,exp4.png,1,1,non-reversed,correct,0.24808763643502474,0,invalid_lose,80.01511299999947,9,,,,,,,,,,,,,,,,sub_405,2023-09-28_10h42.23.728,Reversal,2022.1.2,59.97023077766166,1,
18,exp1.png,exp2.png,,0,0,0,0,0,18,18,18,,,,,,,,,,,,,,,,,,,,,,,,,False,17,18,False,exp1.png,exp2.png,trial_left_image,1,exp1.png,1,exp1.png,exp2.png,1,3,reversed,correct,0.4160447873982702,1,valid_win,85.398186299999,10,,,,,,,,,,,,,,,,sub_405,2023-09-28_10h42.23.728,Reversal,2022.1.2,59.97023077766166,1,
19,exp3.png,exp4.png,,0,0,0,0,0,19,19,19,,,,,,,,,,,,,,,,,,,,,,,,,False,18,19,False,exp3.png,exp4.png,trial_left_image,1,exp3.png,1,exp3.png,exp4.png,1,1,non-reversed,correct,0.2079594479294542,0,invalid_lose,93.36496459999944,10,,,,,,,,,,,,,,,,sub_405,2023-09-28_10h42.23.728,Reversal,2022.1.2,59.97023077766166,1,
20,exp1.png,exp2.png,,0,0,0,0,0,20,20,20,,,,,,,,,,,,,,,,,,,,,,,,,False,19,20,True,exp2.png,exp1.png,trial_right_image,-1,exp1.png,1,exp1.png,exp2.png,1,3,reversed,correct,0.06682105125022697,0,invalid_lose,98.03257459999986,10,,,,,,,,,,,,,,,,sub_405,2023-09-28_10h42.23.728,Reversal,2022.1.2,59.97023077766166,1,
,,,exp1.png,0,0,0,0,,,,,0,0,0,0,0,0,0,0,,,,,,,,,,,,,,,,,,,,,,,,,,,,,,,,,,,,,,99.0,99.0,10.156774700000824,"[(99.0, 10.156774700000824)]",114.36855379999906,None,,,,,,,,,,sub_405,2023-09-28_10h42.23.728,Reversal,2022.1.2,59.97023077766166,1,
,,,exp2.png,0,0,0,0,,,,,0,0,0,0,0,1,1,1,,,,,,,,,,,,,,,,,,,,,,,,,,,,,,,,,,,,,,,2.0,8.701146999999764,"[(2.0, 8.701146999999764)]",126.27194289999898,None,2.0,,,,,,,,,sub_405,2023-09-28_10h42.23.728,Reversal,2022.1.2,59.97023077766166,1,
,,,exp3.png,0,0,0,0,,,,,0,0,0,0,0,2,2,2,,,,,,,,,,,,,,,,,,,,,,,,,,,,,,,,,,,,,,,98.0,3.884223299999576,"[(98.0, 3.884223299999576)]",136.35844279999947,None,,98.0,,,,,,,,sub_405,2023-09-28_10h42.23.728,Reversal,2022.1.2,59.97023077766166,1,
,,,exp4.png,0,0,0,0,,,,,0,0,0,0,0,3,3,3,,,,,,,,,,,,,,,,,,,,,,,,,,,,,,,,,,,,,,,97.0,5.350764700000582,"[(97.0, 5.350764700000582)]",141.63997039999958,None,,,97.0,,,,,,,sub_405,2023-09-28_10h42.23.728,Reversal,2022.1.2,59.97023077766166,1,
0,exp1.png,exp2.png,,1,0,1,0,0,0,0,0,,,,,,,,,,,,,,,,,,,,,,,,,True,,,,,,,,,,,,,,,,,,,,,,,,,,,,,,,,,,,,sub_405,2023-09-28_10h42.23.728,Reversal,2022.1.2,59.97023077766166,1,
1,exp3.png,exp4.png,,1,0,1,0,0,1,1,1,,,,,,,,,,,,,,,,,,,,,,,,,False,20,21,True,exp4.png,exp3.png,trial_right_image,-1,exp3.png,1,exp3.png,exp4.png,1,1,non-reversed,correct,0.7633631455910604,1,valid_win,139.7139473999996,11,,,,,,,,,,,,,,,,sub_405,2023-09-28_10h42.23.728,Reversal,2022.1.2,59.97023077766166,1,
2,exp1.png,exp2.png,,1,0,1,0,0,2,2,2,,,,,,,,,,,,,,,,,,,,,,,,,False,21,22,True,exp2.png,exp1.png,trial_right_image,-1,exp1.png,1,exp1.png,exp2.png,1,3,reversed,correct,0.8546932346529317,1,valid_win,146.3309606999992,12,,,,,,,,,,,,,,,,sub_405,2023-09-28_10h42.23.728,Reversal,2022.1.2,59.97023077766166,1,
3,exp3.png,exp4.png,,1,0,1,0,0,3,3,3,,,,,,,,,,,,,,,,,,,,,,,,,False,22,23,False,exp3.png,exp4.png,trial_left_image,1,exp3.png,1,exp3.png,exp4.png,1,1,non-reversed,correct,0.6269190084974519,1,valid_win,153.39780400000018,13,,,,,,,,,,,,,,,,sub_405,2023-09-28_10h42.23.728,Reversal,2022.1.2,59.97023077766166,1,
4,exp1.png,exp2.png,,1,0,1,0,0,4,4,4,,,,,,,,,,,,,,,,,,,,,,,,,False,23,24,True,exp2.png,exp1.png,trial_right_image,-1,exp1.png,1,exp1.png,exp2.png,1,3,reversed,correct,0.12034000856280491,0,invalid_lose,159.61355790000016,13,,,,,,,,,,,,,,,,sub_405,2023-09-28_10h42.23.728,Reversal,2022.1.2,59.97023077766166,1,
5,exp3.png,exp4.png,,1,0,1,0,0,5,5,5,,,,,,,,,,,,,,,,,,,,,,,,,False,24,25,False,exp3.png,exp4.png,trial_left_image,1,exp3.png,1,exp3.png,exp4.png,1,1,non-reversed,correct,0.4796199226601374,1,valid_win,164.56431340000017,14,,,,,,,,,,,,,,,,sub_405,2023-09-28_10h42.23.728,Reversal,2022.1.2,59.97023077766166,1,
6,exp1.png,exp2.png,,1,0,1,0,0,6,6,6,,,,,,,,,,,,,,,,,,,,,,,,,False,25,26,False,exp1.png,exp2.png,trial_right_image,-1,exp2.png,1,exp1.png,exp2.png,0,4,reversed,incorrect,0.5967217478010743,0,valid_lose,169.54754990000038,14,,,,,,,,,,,,,,,,sub_405,2023-09-28_10h42.23.728,Reversal,2022.1.2,59.97023077766166,1,
7,exp3.png,exp4.png,,1,0,1,0,0,7,7,7,,,,,,,,,,,,,,,,,,,,,,,,,False,26,27,False,exp3.png,exp4.png,trial_left_image,1,exp3.png,1,exp3.png,exp4.png,1,1,non-reversed,correct,0.5532195256947549,1,valid_win,174.23078170000008,15,,,,,,,,,,,,,,,,sub_405,2023-09-28_10h42.23.728,Reversal,2022.1.2,59.97023077766166,1,
8,exp1.png,exp2.png,,1,0,1,0,0,8,8,8,,,,,,,,,,,,,,,,,,,,,,,,,False,27,28,False,exp1.png,exp2.png,trial_left_image,1,exp1.png,1,exp1.png,exp2.png,1,3,reversed,correct,0.278062517582616,1,valid_win,178.91324609999901,16,,,,,,,,,,,,,,,,sub_405,2023-09-28_10h42.23.728,Reversal,2022.1.2,59.97023077766166,1,
9,exp3.png,exp4.png,,1,0,1,0,0,9,9,9,,,,,,,,,,,,,,,,,,,,,,,,,False,28,29,True,exp4.png,exp3.png,trial_right_image,-1,exp3.png,1,exp3.png,exp4.png,1,1,non-reversed,correct,0.9841028106242691,1,valid_win,183.9303201999992,17,,,,,,,,,,,,,,,,sub_405,2023-09-28_10h42.23.728,Reversal,2022.1.2,59.97023077766166,1,
10,exp1.png,exp2.png,,1,0,1,0,0,10,10,10,,,,,,,,,,,,,,,,,,,,,,,,,False,29,30,True,exp2.png,exp1.png,trial_right_image,-1,exp1.png,1,exp1.png,exp2.png,1,3,reversed,correct,0.7187916505712887,1,valid_win,188.4796521999997,18,,,,,,,,,,,,,,,,sub_405,2023-09-28_10h42.23.728,Reversal,2022.1.2,59.97023077766166,1,
11,exp3.png,exp4.png,,1,0,1,0,0,11,11,11,,,,,,,,,,,,,,,,,,,,,,,,,False,30,31,True,exp4.png,exp3.png,trial_right_image,-1,exp3.png,1,exp3.png,exp4.png,1,1,non-reversed,correct,0.993290094250256,1,valid_win,193.04656199999954,19,,,,,,,,,,,,,,,,sub_405,2023-09-28_10h42.23.728,Reversal,2022.1.2,59.97023077766166,1,
12,exp1.png,exp2.png,,1,0,1,0,0,12,12,12,,,,,,,,,,,,,,,,,,,,,,,,,False,31,32,False,exp1.png,exp2.png,trial_left_image,1,exp1.png,1,exp1.png,exp2.png,1,3,reversed,correct,0.916102831814536,1,valid_win,197.69682850000027,20,,,,,,,,,,,,,,,,sub_405,2023-09-28_10h42.23.728,Reversal,2022.1.2,59.97023077766166,1,
13,exp3.png,exp4.png,,1,0,1,0,0,13,13,13,,,,,,,,,,,,,,,,,,,,,,,,,False,32,33,True,exp4.png,exp3.png,trial_right_image,-1,exp3.png,1,exp3.png,exp4.png,1,1,non-reversed,correct,0.177034333766106,0,invalid_lose,202.36337830000048,20,,,,,,,,,,,,,,,,sub_405,2023-09-28_10h42.23.728,Reversal,2022.1.2,59.97023077766166,1,
14,exp1.png,exp2.png,,1,0,1,0,0,14,14,14,,,,,,,,,,,,,,,,,,,,,,,,,False,33,34,False,exp1.png,exp2.png,trial_left_image,1,exp1.png,1,exp1.png,exp2.png,1,3,reversed,correct,0.9446851489339378,1,valid_win,206.9963676999996,21,,,,,,,,,,,,,,,,sub_405,2023-09-28_10h42.23.728,Reversal,2022.1.2,59.97023077766166,1,
15,exp3.png,exp4.png,,1,0,1,0,0,15,15,15,,,,,,,,,,,,,,,,,,,,,,,,,False,34,35,True,exp4.png,exp3.png,trial_right_image,-1,exp3.png,1,exp3.png,exp4.png,1,1,non-reversed,correct,0.2888463676010222,1,valid_win,211.92909689999942,22,,,,,,,,,,,,,,,,sub_405,2023-09-28_10h42.23.728,Reversal,2022.1.2,59.97023077766166,1,
16,exp1.png,exp2.png,,1,0,1,0,0,16,16,16,,,,,,,,,,,,,,,,,,,,,,,,,False,35,36,False,exp1.png,exp2.png,trial_left_image,1,exp1.png,1,exp1.png,exp2.png,1,3,reversed,correct,0.9484602873457206,1,valid_win,216.4458150999999,23,,,,,,,,,,,,,,,,sub_405,2023-09-28_10h42.23.728,Reversal,2022.1.2,59.97023077766166,1,
17,exp3.png,exp4.png,,1,0,1,0,0,17,17,17,,,,,,,,,,,,,,,,,,,,,,,,,False,36,37,False,exp3.png,exp4.png,trial_left_image,1,exp3.png,1,exp3.png,exp4.png,1,1,non-reversed,correct,0.9660789819881412,1,valid_win,223.6630313000005,24,,,,,,,,,,,,,,,,sub_405,2023-09-28_10h42.23.728,Reversal,2022.1.2,59.97023077766166,1,
18,exp1.png,exp2.png,,1,0,1,0,0,18,18,18,,,,,,,,,,,,,,,,,,,,,,,,,False,37,38,False,exp1.png,exp2.png,trial_left_image,1,exp1.png,1,exp1.png,exp2.png,1,3,reversed,correct,0.08228115259035751,0,invalid_lose,228.0629188999992,24,,,,,,,,,,,,,,,,sub_405,2023-09-28_10h42.23.728,Reversal,2022.1.2,59.97023077766166,1,
19,exp3.png,exp4.png,,1,0,1,0,0,19,19,19,,,,,,,,,,,,,,,,,,,,,,,,,False,38,39,True,exp4.png,exp3.png,trial_right_image,-1,exp3.png,1,exp3.png,exp4.png,1,1,non-reversed,correct,0.3375344937513646,1,valid_win,232.46278019999954,25,,,,,,,,,,,,,,,,sub_405,2023-09-28_10h42.23.728,Reversal,2022.1.2,59.97023077766166,1,
20,exp1.png,exp2.png,,1,0,1,0,0,20,20,20,,,,,,,,,,,,,,,,,,,,,,,,,False,39,40,True,exp2.png,exp1.png,trial_right_image,-1,exp1.png,1,exp1.png,exp2.png,1,3,reversed,correct,0.7434457766507946,1,valid_win,236.94603950000055,26,,,,,,,,,,,,,,,,sub_405,2023-09-28_10h42.23.728,Reversal,2022.1.2,59.97023077766166,1,
,,,exp1.png,1,0,1,0,,,,,0,0,0,0,0,0,0,0,,,,,,,,,,,,,,,,,,,,,,,,,,,,,,,,,,,,,,98.0,98.0,3.6632591000015964,"[(98.0, 3.6632591000015964)]",253.3085312000003,None,,,,,,,,,,sub_405,2023-09-28_10h42.23.728,Reversal,2022.1.2,59.97023077766166,1,
,,,exp2.png,1,0,1,0,,,,,0,0,0,0,0,1,1,1,,,,,,,,,,,,,,,,,,,,,,,,,,,,,,,,,,,,,,,1.0,2.8637143000014476,"[(1.0, 2.8637143000014476)]",258.40552059999936,None,1.0,,,,,,,,,sub_405,2023-09-28_10h42.23.728,Reversal,2022.1.2,59.97023077766166,1,
,,,exp3.png,1,0,1,0,,,,,0,0,0,0,0,2,2,2,,,,,,,,,,,,,,,,,,,,,,,,,,,,,,,,,,,,,,,99.0,1.9976320999994641,"[(99.0, 1.9976320999994641)]",262.456297499999,None,,99.0,,,,,,,,sub_405,2023-09-28_10h42.23.728,Reversal,2022.1.2,59.97023077766166,1,
,,,exp4.png,1,0,1,0,,,,,0,0,0,0,0,3,3,3,,,,,,,,,,,,,,,,,,,,,,,,,,,,,,,,,,,,,,,1.0,2.6511566000008315,"[(1.0, 2.6511566000008315)]",265.66884409999875,None,,,1.0,,,,,,,sub_405,2023-09-28_10h42.23.728,Reversal,2022.1.2,59.97023077766166,1,
0,exp1.png,exp2.png,,2,0,2,0,0,0,0,0,,,,,,,,,,,,,,,,,,,,,,,,,True,,,,,,,,,,,,,,,,,,,,,,,,,,,,,,,,,,,,sub_405,2023-09-28_10h42.23.728,Reversal,2022.1.2,59.97023077766166,1,
1,exp3.png,exp4.png,,2,0,2,0,0,1,1,1,,,,,,,,,,,,,,,,,,,,,,,,,False,40,41,True,exp4.png,exp3.png,trial_right_image,-1,exp3.png,1,exp3.png,exp4.png,1,1,non-reversed,correct,0.49582654340534693,1,valid_win,258.4627793999989,27,,,,,,,,,,,,,,,,sub_405,2023-09-28_10h42.23.728,Reversal,2022.1.2,59.97023077766166,1,
2,exp1.png,exp2.png,,2,0,2,0,0,2,2,2,,,,,,,,,,,,,,,,,,,,,,,,,False,41,42,False,exp1.png,exp2.png,trial_left_image,1,exp1.png,1,exp1.png,exp2.png,1,3,reversed,correct,0.3616256880562695,1,valid_win,263.11237900000015,28,,,,,,,,,,,,,,,,sub_405,2023-09-28_10h42.23.728,Reversal,2022.1.2,59.97023077766166,1,
3,exp3.png,exp4.png,,2,0,2,0,0,3,3,3,,,,,,,,,,,,,,,,,,,,,,,,,False,42,43,True,exp4.png,exp3.png,trial_right_image,-1,exp3.png,1,exp3.png,exp4.png,1,1,non-reversed,correct,0.33897032477984745,1,valid_win,267.5120741999999,29,,,,,,,,,,,,,,,,sub_405,2023-09-28_10h42.23.728,Reversal,2022.1.2,59.97023077766166,1,
4,exp1.png,exp2.png,,2,0,2,0,0,4,4,4,,,,,,,,,,,,,,,,,,,,,,,,,False,43,44,True,exp2.png,exp1.png,trial_right_image,-1,exp1.png,1,exp1.png,exp2.png,1,3,reversed,correct,0.3457240459193621,1,valid_win,271.97919639999964,30,,,,,,,,,,,,,,,,sub_405,2023-09-28_10h42.23.728,Reversal,2022.1.2,59.97023077766166,1,
5,exp3.png,exp4.png,,2,0,2,0,0,5,5,5,,,,,,,,,,,,,,,,,,,,,,,,,False,44,45,False,exp3.png,exp4.png,trial_left_image,1,exp3.png,1,exp3.png,exp4.png,1,1,non-reversed,correct,0.5507538685708291,1,valid_win,276.5617750000001,31,,,,,,,,,,,,,,,,sub_405,2023-09-28_10h42.23.728,Reversal,2022.1.2,59.97023077766166,1,
6,exp1.png,exp2.png,,2,0,2,0,0,6,6,6,,,,,,,,,,,,,,,,,,,,,,,,,False,45,46,False,exp1.png,exp2.png,trial_left_image,1,exp1.png,1,exp1.png,exp2.png,1,3,reversed,correct,0.49372580673914523,1,valid_win,281.0782997999995,32,,,,,,,,,,,,,,,,sub_405,2023-09-28_10h42.23.728,Reversal,2022.1.2,59.97023077766166,1,
7,exp3.png,exp4.png,,2,0,2,0,0,7,7,7,,,,,,,,,,,,,,,,,,,,,,,,,False,46,47,True,exp4.png,exp3.png,trial_right_image,-1,exp3.png,1,exp3.png,exp4.png,1,1,non-reversed,correct,0.33584324446485025,1,valid_win,285.64542280000023,33,,,,,,,,,,,,,,,,sub_405,2023-09-28_10h42.23.728,Reversal,2022.1.2,59.97023077766166,1,
8,exp1.png,exp2.png,,2,0,2,0,0,8,8,8,,,,,,,,,,,,,,,,,,,,,,,,,False,47,48,True,exp2.png,exp1.png,trial_right_image,-1,exp1.png,1,exp1.png,exp2.png,1,3,reversed,correct,0.5231521211621106,1,valid_win,290.16123100000004,34,,,,,,,,,,,,,,,,sub_405,2023-09-28_10h42.23.728,Reversal,2022.1.2,59.97023077766166,1,
9,exp3.png,exp4.png,,2,0,2,0,0,9,9,9,,,,,,,,,,,,,,,,,,,,,,,,,False,48,49,True,exp4.png,exp3.png,trial_right_image,-1,exp3.png,1,exp3.png,exp4.png,1,1,non-reversed,correct,0.6047194506747062,1,valid_win,294.91203099999984,35,,,,,,,,,,,,,,,,sub_405,2023-09-28_10h42.23.728,Reversal,2022.1.2,59.97023077766166,1,
10,exp1.png,exp2.png,,2,0,2,0,0,10,10,10,,,,,,,,,,,,,,,,,,,,,,,,,False,49,50,False,exp1.png,exp2.png,trial_left_image,1,exp1.png,1,exp1.png,exp2.png,1,3,reversed,correct,0.5892681005119764,1,valid_win,299.42737339999985,36,,,,,,,,,,,,,,,,sub_405,2023-09-28_10h42.23.728,Reversal,2022.1.2,59.97023077766166,1,
11,exp3.png,exp4.png,,2,0,2,0,0,11,11,11,,,,,,,,,,,,,,,,,,,,,,,,,False,50,51,True,exp4.png,exp3.png,trial_left_image,1,exp4.png,1,exp3.png,exp4.png,0,2,non-reversed,incorrect,0.8541265083654929,0,valid_lose,304.1108973999999,36,,,,,,,,,,,,,,,,sub_405,2023-09-28_10h42.23.728,Reversal,2022.1.2,59.97023077766166,1,
12,exp1.png,exp2.png,,2,0,2,0,0,12,12,12,,,,,,,,,,,,,,,,,,,,,,,,,False,51,52,False,exp1.png,exp2.png,trial_left_image,1,exp1.png,1,exp1.png,exp2.png,1,3,reversed,correct,0.3434703311066717,1,valid_win,308.52765100000033,37,,,,,,,,,,,,,,,,sub_405,2023-09-28_10h42.23.728,Reversal,2022.1.2,59.97023077766166,1,
13,exp3.png,exp4.png,,2,0,2,0,0,13,13,13,,,,,,,,,,,,,,,,,,,,,,,,,False,52,53,False,exp3.png,exp4.png,trial_left_image,1,exp3.png,1,exp3.png,exp4.png,1,1,non-reversed,correct,0.034503425176930724,0,invalid_lose,313.12760870000056,37,,,,,,,,,,,,,,,,sub_405,2023-09-28_10h42.23.728,Reversal,2022.1.2,59.97023077766166,1,
14,exp1.png,exp2.png,,2,0,2,0,0,14,14,14,,,,,,,,,,,,,,,,,,,,,,,,,False,53,54,False,exp1.png,exp2.png,trial_left_image,1,exp1.png,1,exp1.png,exp2.png,1,3,reversed,correct,0.3189570462661052,1,valid_win,317.9940850999992,38,,,,,,,,,,,,,,,,sub_405,2023-09-28_10h42.23.728,Reversal,2022.1.2,59.97023077766166,1,
15,exp3.png,exp4.png,,2,0,2,0,0,15,15,15,,,,,,,,,,,,,,,,,,,,,,,,,False,54,55,False,exp3.png,exp4.png,trial_left_image,1,exp3.png,1,exp3.png,exp4.png,1,1,non-reversed,correct,0.19682947663209305,0,invalid_lose,322.64462640000056,38,,,,,,,,,,,,,,,,sub_405,2023-09-28_10h42.23.728,Reversal,2022.1.2,59.97023077766166,1,
16,exp1.png,exp2.png,,2,0,2,0,0,16,16,16,,,,,,,,,,,,,,,,,,,,,,,,,False,55,56,True,exp2.png,exp1.png,trial_right_image,-1,exp1.png,1,exp1.png,exp2.png,1,3,reversed,correct,0.8960587392138736,1,valid_win,327.4108221000006,39,,,,,,,,,,,,,,,,sub_405,2023-09-28_10h42.23.728,Reversal,2022.1.2,59.97023077766166,1,
17,exp3.png,exp4.png,,2,0,2,0,0,17,17,17,,,,,,,,,,,,,,,,,,,,,,,,,False,56,57,False,exp3.png,exp4.png,trial_left_image,1,exp3.png,1,exp3.png,exp4.png,1,1,non-reversed,correct,0.8753104810267011,1,valid_win,332.810856099999,40,,,,,,,,,,,,,,,,sub_405,2023-09-28_10h42.23.728,Reversal,2022.1.2,59.97023077766166,1,
18,exp1.png,exp2.png,,2,0,2,0,0,18,18,18,,,,,,,,,,,,,,,,,,,,,,,,,False,57,58,True,exp2.png,exp1.png,trial_right_image,-1,exp1.png,1,exp1.png,exp2.png,1,3,reversed,correct,0.49646248429505224,1,valid_win,337.62688179999896,41,,,,,,,,,,,,,,,,sub_405,2023-09-28_10h42.23.728,Reversal,2022.1.2,59.97023077766166,1,
19,exp3.png,exp4.png,,2,0,2,0,0,19,19,19,,,,,,,,,,,,,,,,,,,,,,,,,False,58,59,False,exp3.png,exp4.png,trial_left_image,1,exp3.png,1,exp3.png,exp4.png,1,1,non-reversed,correct,0.6457662655266057,1,valid_win,342.2104041999992,42,,,,,,,,,,,,,,,,sub_405,2023-09-28_10h42.23.728,Reversal,2022.1.2,59.97023077766166,1,
20,exp1.png,exp2.png,,2,0,2,0,0,20,20,20,,,,,,,,,,,,,,,,,,,,,,,,,False,59,60,True,exp2.png,exp1.png,trial_right_image,-1,exp1.png,1,exp1.png,exp2.png,1,3,reversed,correct,0.20831191103067614,0,invalid_lose,347.8603217999989,42,,,,,,,,,,,,,,,,sub_405,2023-09-28_10h42.23.728,Reversal,2022.1.2,59.97023077766166,1,
,,,exp1.png,2,0,2,0,,,,,0,0,0,0,0,0,0,0,,,,,,,,,,,,,,,,,,,,,,,,,,,,,,,,,,,,,,100.0,100.0,4.232263500000045,"[(100.0, 4.232263500000045)]",364.2054755999998,None,,,,,,,,,,sub_405,2023-09-28_10h42.23.728,Reversal,2022.1.2,59.97023077766166,1,
,,,exp2.png,2,0,2,0,,,,,0,0,0,0,0,1,1,1,,,,,,,,,,,,,,,,,,,,,,,,,,,,,,,,,,,,,,,98.0,2.796755600000324,"[(98.0, 2.796755600000324)]",370.18781339999987,None,98.0,,,,,,,,,sub_405,2023-09-28_10h42.23.728,Reversal,2022.1.2,59.97023077766166,1,
,,,exp3.png,2,0,2,0,,,,,0,0,0,0,0,2,2,2,,,,,,,,,,,,,,,,,,,,,,,,,,,,,,,,,,,,,,,100.0,2.0643493000006856,"[(100.0, 2.0643493000006856)]",374.30291279999983,None,,100.0,,,,,,,,sub_405,2023-09-28_10h42.23.728,Reversal,2022.1.2,59.97023077766166,1,
,,,exp4.png,2,0,2,0,,,,,0,0,0,0,0,3,3,3,,,,,,,,,,,,,,,,,,,,,,,,,,,,,,,,,,,,,,,2.0,4.369086999999126,"[(2.0, 4.369086999999126)]",377.19900419999976,None,,,2.0,,,,,,,sub_405,2023-09-28_10h42.23.728,Reversal,2022.1.2,59.97023077766166,1,
0,exp1.png,exp2.png,,,,,,,,,,,,,,,,,,0,0,0,0,0,0,0,0,,,,,,,,,True,,,,,,,,,,,,,,,,,,,,,,,,,,,,,,,,,,,,sub_405,2023-09-28_10h42.23.728,Reversal,2022.1.2,59.97023077766166,1,
1,exp3.png,exp4.png,,,,,,,,,,,,,,,,,,0,0,0,0,0,1,1,1,,,,,,,,,False,0,61,False,exp3.png,exp4.png,trial_left_image,1,exp3.png,1,exp3.png,exp4.png,1,1,non-reversed,correct,0.5514289650913223,1,valid_win,375.34389249999913,43,,,,,,,,,,369.02419120000013,,,,,,sub_405,2023-09-28_10h42.23.728,Reversal,2022.1.2,59.97023077766166,1,
2,exp1.png,exp2.png,,,,,,,,,,,,,,,,,,0,0,0,0,0,2,2,2,,,,,,,,,False,1,62,True,exp2.png,exp1.png,trial_right_image,-1,exp1.png,1,exp2.png,exp1.png,1,3,reversed,incorrect,0.4785369673335178,0,valid_lose,380.79369029999907,43,,,,,,,,,,,,,,,,sub_405,2023-09-28_10h42.23.728,Reversal,2022.1.2,59.97023077766166,1,
3,exp3.png,exp4.png,,,,,,,,,,,,,,,,,,0,0,0,0,0,3,3,3,,,,,,,,,False,2,63,False,exp3.png,exp4.png,trial_left_image,1,exp3.png,1,exp3.png,exp4.png,1,1,non-reversed,correct,0.6428368862885926,1,valid_win,385.509210799999,44,,,,,,,,,,,,,,,,sub_405,2023-09-28_10h42.23.728,Reversal,2022.1.2,59.97023077766166,1,
4,exp1.png,exp2.png,,,,,,,,,,,,,,,,,,0,0,0,0,0,4,4,4,,,,,,,,,False,3,64,True,exp2.png,exp1.png,trial_left_image,1,exp2.png,1,exp2.png,exp1.png,0,4,reversed,correct,0.6397184304104683,1,valid_win,391.8261062999991,45,,,,,,,,,,,,,,,,sub_405,2023-09-28_10h42.23.728,Reversal,2022.1.2,59.97023077766166,1,
5,exp3.png,exp4.png,,,,,,,,,,,,,,,,,,0,0,0,0,0,5,5,5,,,,,,,,,False,4,65,False,exp3.png,exp4.png,trial_left_image,1,exp3.png,1,exp3.png,exp4.png,1,1,non-reversed,correct,0.045465543691056265,0,invalid_lose,397.7425712999993,45,,,,,,,,,,,,,,,,sub_405,2023-09-28_10h42.23.728,Reversal,2022.1.2,59.97023077766166,1,
6,exp1.png,exp2.png,,,,,,,,,,,,,,,,,,0,0,0,0,0,6,6,6,,,,,,,,,False,5,66,False,exp1.png,exp2.png,trial_right_image,-1,exp2.png,1,exp2.png,exp1.png,0,4,reversed,correct,0.8931888361561884,1,valid_win,403.79254760000003,46,,,,,,,,,,,,,,,,sub_405,2023-09-28_10h42.23.728,Reversal,2022.1.2,59.97023077766166,1,
7,exp3.png,exp4.png,,,,,,,,,,,,,,,,,,0,0,0,0,0,7,7,7,,,,,,,,,False,6,67,True,exp4.png,exp3.png,trial_right_image,-1,exp3.png,1,exp3.png,exp4.png,1,1,non-reversed,correct,0.4708206445518641,1,valid_win,409.2257996999997,47,,,,,,,,,,,,,,,,sub_405,2023-09-28_10h42.23.728,Reversal,2022.1.2,59.97023077766166,1,
8,exp1.png,exp2.png,,,,,,,,,,,,,,,,,,0,0,0,0,0,8,8,8,,,,,,,,,False,7,68,True,exp2.png,exp1.png,trial_left_image,1,exp2.png,1,exp2.png,exp1.png,0,4,reversed,correct,0.8666300402735709,1,valid_win,415.1755988999994,48,,,,,,,,,,,,,,,,sub_405,2023-09-28_10h42.23.728,Reversal,2022.1.2,59.97023077766166,1,
9,exp3.png,exp4.png,,,,,,,,,,,,,,,,,,0,0,0,0,0,9,9,9,,,,,,,,,False,8,69,True,exp4.png,exp3.png,trial_right_image,-1,exp3.png,1,exp3.png,exp4.png,1,1,non-reversed,correct,0.21478391611765457,0,invalid_lose,420.2929757999991,48,,,,,,,,,,,,,,,,sub_405,2023-09-28_10h42.23.728,Reversal,2022.1.2,59.97023077766166,1,
10,exp1.png,exp2.png,,,,,,,,,,,,,,,,,,0,0,0,0,0,10,10,10,,,,,,,,,False,9,70,True,exp2.png,exp1.png,trial_left_image,1,exp2.png,1,exp2.png,exp1.png,0,4,reversed,correct,0.9213228604161535,1,valid_win,425.7089988000007,49,,,,,,,,,,,,,,,,sub_405,2023-09-28_10h42.23.728,Reversal,2022.1.2,59.97023077766166,1,
11,exp3.png,exp4.png,,,,,,,,,,,,,,,,,,0,0,0,0,0,11,11,11,,,,,,,,,False,10,71,False,exp3.png,exp4.png,trial_left_image,1,exp3.png,1,exp3.png,exp4.png,1,1,non-reversed,correct,0.4429121849889289,1,valid_win,431.9421256000005,50,,,,,,,,,,,,,,,,sub_405,2023-09-28_10h42.23.728,Reversal,2022.1.2,59.97023077766166,1,
12,exp1.png,exp2.png,,,,,,,,,,,,,,,,,,0,0,0,0,0,12,12,12,,,,,,,,,False,11,72,False,exp1.png,exp2.png,trial_right_image,-1,exp2.png,1,exp2.png,exp1.png,0,4,reversed,correct,0.4728150341406989,1,valid_win,436.8752511999992,51,,,,,,,,,,,,,,,,sub_405,2023-09-28_10h42.23.728,Reversal,2022.1.2,59.97023077766166,1,
13,exp3.png,exp4.png,,,,,,,,,,,,,,,,,,0,0,0,0,0,13,13,13,,,,,,,,,False,12,73,True,exp4.png,exp3.png,trial_right_image,-1,exp3.png,1,exp3.png,exp4.png,1,1,non-reversed,correct,0.4026571550558914,1,valid_win,441.90857739999956,52,,,,,,,,,,,,,,,,sub_405,2023-09-28_10h42.23.728,Reversal,2022.1.2,59.97023077766166,1,
14,exp1.png,exp2.png,,,,,,,,,,,,,,,,,,0,0,0,0,0,14,14,14,,,,,,,,,False,13,74,False,exp1.png,exp2.png,trial_right_image,-1,exp2.png,1,exp2.png,exp1.png,0,4,reversed,correct,0.2925610375487826,1,valid_win,446.8585385999995,53,,,,,,,,,,,,,,,,sub_405,2023-09-28_10h42.23.728,Reversal,2022.1.2,59.97023077766166,1,
15,exp3.png,exp4.png,,,,,,,,,,,,,,,,,,0,0,0,0,0,15,15,15,,,,,,,,,False,14,75,False,exp3.png,exp4.png,trial_left_image,1,exp3.png,1,exp3.png,exp4.png,1,1,non-reversed,correct,0.19259242348853478,0,invalid_lose,456.174846599999,53,,,,,,,,,,,,,,,,sub_405,2023-09-28_10h42.23.728,Reversal,2022.1.2,59.97023077766166,1,
16,exp1.png,exp2.png,,,,,,,,,,,,,,,,,,0,0,0,0,0,16,16,16,,,,,,,,,False,15,76,False,exp1.png,exp2.png,trial_right_image,-1,exp2.png,1,exp2.png,exp1.png,0,4,reversed,correct,0.6832131202797078,1,valid_win,461.3583080999997,54,,,,,,,,,,,,,,,,sub_405,2023-09-28_10h42.23.728,Reversal,2022.1.2,59.97023077766166,1,
17,exp3.png,exp4.png,,,,,,,,,,,,,,,,,,0,0,0,0,0,17,17,17,,,,,,,,,False,16,77,True,exp4.png,exp3.png,trial_right_image,-1,exp3.png,1,exp3.png,exp4.png,1,1,non-reversed,correct,0.30967497972673685,1,valid_win,466.49174180000045,55,,,,,,,,,,,,,,,,sub_405,2023-09-28_10h42.23.728,Reversal,2022.1.2,59.97023077766166,1,
18,exp1.png,exp2.png,,,,,,,,,,,,,,,,,,0,0,0,0,0,18,18,18,,,,,,,,,False,17,78,True,exp2.png,exp1.png,trial_left_image,1,exp2.png,1,exp2.png,exp1.png,0,4,reversed,correct,0.8838205730442422,1,valid_win,471.475441999999,56,,,,,,,,,,,,,,,,sub_405,2023-09-28_10h42.23.728,Reversal,2022.1.2,59.97023077766166,1,
19,exp3.png,exp4.png,,,,,,,,,,,,,,,,,,0,0,0,0,0,19,19,19,,,,,,,,,False,18,79,False,exp3.png,exp4.png,trial_left_image,1,exp3.png,1,exp3.png,exp4.png,1,1,non-reversed,correct,0.15626909683654955,0,invalid_lose,477.1079936999995,56,,,,,,,,,,,,,,,,sub_405,2023-09-28_10h42.23.728,Reversal,2022.1.2,59.97023077766166,1,
20,exp1.png,exp2.png,,,,,,,,,,,,,,,,,,0,0,0,0,0,20,20,20,,,,,,,,,False,19,80,True,exp2.png,exp1.png,trial_left_image,1,exp2.png,1,exp2.png,exp1.png,0,4,reversed,correct,0.11494454918927421,0,invalid_lose,481.9576918999992,56,,,,,,,,,,,,,,,,sub_405,2023-09-28_10h42.23.728,Reversal,2022.1.2,59.97023077766166,1,
,,,exp1.png,,,,,,,,,,,,,,,,,0,0,0,0,,,,,0,0,0,0,0,0,0,0,,,,,,,,,,,,,,,,,,,,,,100.0,100.0,3.8736824999996315,"[(100.0, 3.8736824999996315)]",498.29297509999924,None,,,,,,,,,,sub_405,2023-09-28_10h42.23.728,Reversal,2022.1.2,59.97023077766166,1,
,,,exp2.png,,,,,,,,,,,,,,,,,0,0,0,0,,,,,0,0,0,0,0,1,1,1,,,,,,,,,,,,,,,,,,,,,,,100.0,3.85380830000031,"[(100.0, 3.85380830000031)]",503.3626777999998,None,100.0,,,,,,,,,sub_405,2023-09-28_10h42.23.728,Reversal,2022.1.2,59.97023077766166,1,
,,,exp3.png,,,,,,,,,,,,,,,,,0,0,0,0,,,,,0,0,0,0,0,2,2,2,,,,,,,,,,,,,,,,,,,,,,,100.0,3.1170062999990478,"[(95.0, 1.699689999999464), (100.0, 3.1170062999990478)]",508.39954209999996,None,,100.0,,,,,,,,sub_405,2023-09-28_10h42.23.728,Reversal,2022.1.2,59.97023077766166,1,
,,,exp4.png,,,,,,,,,,,,,,,,,0,0,0,0,,,,,0,0,0,0,0,3,3,3,,,,,,,,,,,,,,,,,,,,,,,100.0,2.682098400000541,"[(100.0, 2.682098400000541)]",512.8157929999998,None,,,100.0,,,,,,,sub_405,2023-09-28_10h42.23.728,Reversal,2022.1.2,59.97023077766166,1,
0,exp1.png,exp2.png,,,,,,,,,,,,,,,,,,1,0,1,0,0,0,0,0,,,,,,,,,True,,,,,,,,,,,,,,,,,,,,,,,,,,,,,,,,,,,,sub_405,2023-09-28_10h42.23.728,Reversal,2022.1.2,59.97023077766166,1,
1,exp3.png,exp4.png,,,,,,,,,,,,,,,,,,1,0,1,0,0,1,1,1,,,,,,,,,False,20,81,False,exp3.png,exp4.png,trial_left_image,1,exp3.png,1,exp3.png,exp4.png,1,1,non-reversed,correct,0.7795736101472434,1,valid_win,507.10808709999947,57,,,,,,,,,,,,,,,,sub_405,2023-09-28_10h42.23.728,Reversal,2022.1.2,59.97023077766166,1,
2,exp1.png,exp2.png,,,,,,,,,,,,,,,,,,1,0,1,0,0,2,2,2,,,,,,,,,False,21,82,True,exp2.png,exp1.png,trial_left_image,1,exp2.png,1,exp2.png,exp1.png,0,4,reversed,correct,0.9910419169378916,1,valid_win,513.3069245999995,58,,,,,,,,,,,,,,,,sub_405,2023-09-28_10h42.23.728,Reversal,2022.1.2,59.97023077766166,1,
3,exp3.png,exp4.png,,,,,,,,,,,,,,,,,,1,0,1,0,0,3,3,3,,,,,,,,,False,22,83,True,exp4.png,exp3.png,trial_right_image,-1,exp3.png,1,exp3.png,exp4.png,1,1,non-reversed,correct,0.1687127361652172,0,invalid_lose,519.5737828000001,58,,,,,,,,,,,,,,,,sub_405,2023-09-28_10h42.23.728,Reversal,2022.1.2,59.97023077766166,1,
4,exp1.png,exp2.png,,,,,,,,,,,,,,,,,,1,0,1,0,0,4,4,4,,,,,,,,,False,23,84,False,exp1.png,exp2.png,trial_right_image,-1,exp2.png,1,exp2.png,exp1.png,0,4,reversed,correct,0.5262967737591282,1,valid_win,524.9568553999998,59,,,,,,,,,,,,,,,,sub_405,2023-09-28_10h42.23.728,Reversal,2022.1.2,59.97023077766166,1,
5,exp3.png,exp4.png,,,,,,,,,,,,,,,,,,1,0,1,0,0,5,5,5,,,,,,,,,False,24,85,False,exp3.png,exp4.png,trial_left_image,1,exp3.png,1,exp3.png,exp4.png,1,1,non-reversed,correct,0.09257360715624474,0,invalid_lose,530.1067750000002,59,,,,,,,,,,,,,,,,sub_405,2023-09-28_10h42.23.728,Reversal,2022.1.2,59.97023077766166,1,
6,exp1.png,exp2.png,,,,,,,,,,,,,,,,,,1,0,1,0,0,6,6,6,,,,,,,,,False,25,86,True,exp2.png,exp1.png,trial_left_image,1,exp2.png,1,exp2.png,exp1.png,0,4,reversed,correct,0.40528601326348457,1,valid_win,534.8235220000006,60,,,,,,,,,,,,,,,,sub_405,2023-09-28_10h42.23.728,Reversal,2022.1.2,59.97023077766166,1,
7,exp3.png,exp4.png,,,,,,,,,,,,,,,,,,1,0,1,0,0,7,7,7,,,,,,,,,False,26,87,True,exp4.png,exp3.png,trial_right_image,-1,exp3.png,1,exp3.png,exp4.png,1,1,non-reversed,correct,0.1495303202438184,0,invalid_lose,543.5575269000001,60,,,,,,,,,,,,,,,,sub_405,2023-09-28_10h42.23.728,Reversal,2022.1.2,59.97023077766166,1,
8,exp1.png,exp2.png,,,,,,,,,,,,,,,,,,1,0,1,0,0,8,8,8,,,,,,,,,False,27,88,True,exp2.png,exp1.png,trial_left_image,1,exp2.png,1,exp2.png,exp1.png,0,4,reversed,correct,0.129781430324439,0,invalid_lose,548.0399667999991,60,,,,,,,,,,,,,,,,sub_405,2023-09-28_10h42.23.728,Reversal,2022.1.2,59.97023077766166,1,
9,exp3.png,exp4.png,,,,,,,,,,,,,,,,,,1,0,1,0,0,9,9,9,,,,,,,,,False,28,89,True,exp4.png,exp3.png,trial_right_image,-1,exp3.png,1,exp3.png,exp4.png,1,1,non-reversed,correct,0.793413597059365,1,valid_win,553.2735443000001,61,,,,,,,,,,,,,,,,sub_405,2023-09-28_10h42.23.728,Reversal,2022.1.2,59.97023077766166,1,
10,exp1.png,exp2.png,,,,,,,,,,,,,,,,,,1,0,1,0,0,10,10,10,,,,,,,,,False,29,90,False,exp1.png,exp2.png,trial_right_image,-1,exp2.png,1,exp2.png,exp1.png,0,4,reversed,correct,0.022203695196277184,0,invalid_lose,558.3067606000004,61,,,,,,,,,,,,,,,,sub_405,2023-09-28_10h42.23.728,Reversal,2022.1.2,59.97023077766166,1,
11,exp3.png,exp4.png,,,,,,,,,,,,,,,,,,1,0,1,0,0,11,11,11,,,,,,,,,False,30,91,False,exp3.png,exp4.png,trial_left_image,1,exp3.png,1,exp3.png,exp4.png,1,1,non-reversed,correct,0.10407759348286383,0,invalid_lose,562.906304099999,61,,,,,,,,,,,,,,,,sub_405,2023-09-28_10h42.23.728,Reversal,2022.1.2,59.97023077766166,1,
12,exp1.png,exp2.png,,,,,,,,,,,,,,,,,,1,0,1,0,0,12,12,12,,,,,,,,,False,31,92,True,exp2.png,exp1.png,trial_left_image,1,exp2.png,1,exp2.png,exp1.png,0,4,reversed,correct,0.9196379328275125,1,valid_win,569.7895279000004,62,,,,,,,,,,,,,,,,sub_405,2023-09-28_10h42.23.728,Reversal,2022.1.2,59.97023077766166,1,
13,exp3.png,exp4.png,,,,,,,,,,,,,,,,,,1,0,1,0,0,13,13,13,,,,,,,,,False,32,93,True,exp4.png,exp3.png,trial_left_image,1,exp4.png,1,exp3.png,exp4.png,0,2,non-reversed,incorrect,0.3009246530242201,0,valid_lose,577.0727733999993,62,,,,,,,,,,,,,,,,sub_405,2023-09-28_10h42.23.728,Reversal,2022.1.2,59.97023077766166,1,
14,exp1.png,exp2.png,,,,,,,,,,,,,,,,,,1,0,1,0,0,14,14,14,,,,,,,,,False,33,94,True,exp2.png,exp1.png,trial_left_image,1,exp2.png,1,exp2.png,exp1.png,0,4,reversed,correct,0.7301170367222757,1,valid_win,582.9047326,63,,,,,,,,,,,,,,,,sub_405,2023-09-28_10h42.23.728,Reversal,2022.1.2,59.97023077766166,1,
15,exp3.png,exp4.png,,,,,,,,,,,,,,,,,,1,0,1,0,0,15,15,15,,,,,,,,,False,34,95,False,exp3.png,exp4.png,trial_left_image,1,exp3.png,1,exp3.png,exp4.png,1,1,non-reversed,correct,0.5234961635288019,1,valid_win,587.822714599999,64,,,,,,,,,,,,,,,,sub_405,2023-09-28_10h42.23.728,Reversal,2022.1.2,59.97023077766166,1,
16,exp1.png,exp2.png,,,,,,,,,,,,,,,,,,1,0,1,0,0,16,16,16,,,,,,,,,False,35,96,False,exp1.png,exp2.png,trial_right_image,-1,exp2.png,1,exp2.png,exp1.png,0,4,reversed,correct,0.18634479739319665,0,invalid_lose,593.0889743999996,64,,,,,,,,,,,,,,,,sub_405,2023-09-28_10h42.23.728,Reversal,2022.1.2,59.97023077766166,1,
17,exp3.png,exp4.png,,,,,,,,,,,,,,,,,,1,0,1,0,0,17,17,17,,,,,,,,,False,36,97,True,exp4.png,exp3.png,trial_right_image,-1,exp3.png,1,exp3.png,exp4.png,1,1,non-reversed,correct,0.7564936021435721,1,valid_win,598.6065271999996,65,,,,,,,,,,,,,,,,sub_405,2023-09-28_10h42.23.728,Reversal,2022.1.2,59.97023077766166,1,
18,exp1.png,exp2.png,,,,,,,,,,,,,,,,,,1,0,1,0,0,18,18,18,,,,,,,,,False,37,98,False,exp1.png,exp2.png,trial_left_image,1,exp1.png,1,exp2.png,exp1.png,1,3,reversed,incorrect,0.1638226075003255,1,invalid_win,604.0057569,66,,,,,,,,,,,,,,,,sub_405,2023-09-28_10h42.23.728,Reversal,2022.1.2,59.97023077766166,1,
19,exp3.png,exp4.png,,,,,,,,,,,,,,,,,,1,0,1,0,0,19,19,19,,,,,,,,,False,38,99,False,exp3.png,exp4.png,trial_left_image,1,exp3.png,1,exp3.png,exp4.png,1,1,non-reversed,correct,0.6774266490989075,1,valid_win,609.3061254999993,67,,,,,,,,,,,,,,,,sub_405,2023-09-28_10h42.23.728,Reversal,2022.1.2,59.97023077766166,1,
20,exp1.png,exp2.png,,,,,,,,,,,,,,,,,,1,0,1,0,0,20,20,20,,,,,,,,,False,39,100,False,exp1.png,exp2.png,trial_left_image,1,exp1.png,1,exp2.png,exp1.png,1,3,reversed,incorrect,0.2680811447434298,0,valid_lose,613.772089099999,67,,,,,,,,,,,,,,,,sub_405,2023-09-28_10h42.23.728,Reversal,2022.1.2,59.97023077766166,1,
,,,exp1.png,,,,,,,,,,,,,,,,,1,0,1,0,,,,,0,0,0,0,0,0,0,0,,,,,,,,,,,,,,,,,,,,,,1.0,1.0,4.214020299999902,"[(1.0, 4.214020299999902)]",630.1176655999989,None,,,,,,,,,,sub_405,2023-09-28_10h42.23.728,Reversal,2022.1.2,59.97023077766166,1,
,,,exp2.png,,,,,,,,,,,,,,,,,1,0,1,0,,,,,0,0,0,0,0,1,1,1,,,,,,,,,,,,,,,,,,,,,,,100.0,1.8004870000004303,"[(100.0, 1.8004870000004303)]",635.4948340999999,None,100.0,,,,,,,,,sub_405,2023-09-28_10h42.23.728,Reversal,2022.1.2,59.97023077766166,1,
,,,exp3.png,,,,,,,,,,,,,,,,,1,0,1,0,,,,,0,0,0,0,0,2,2,2,,,,,,,,,,,,,,,,,,,,,,,100.0,1.6331226000002061,"[(100.0, 1.6331226000002061)]",638.5138026999994,None,,100.0,,,,,,,,sub_405,2023-09-28_10h42.23.728,Reversal,2022.1.2,59.97023077766166,1,
,,,exp4.png,,,,,,,,,,,,,,,,,1,0,1,0,,,,,0,0,0,0,0,3,3,3,,,,,,,,,,,,,,,,,,,,,,,98.0,1.5845213000011427,"[(98.0, 1.5845213000011427)]",641.3441444,None,,,98.0,,,,,,,sub_405,2023-09-28_10h42.23.728,Reversal,2022.1.2,59.97023077766166,1,
0,exp1.png,exp2.png,,,,,,,,,,,,,,,,,,2,0,2,0,0,0,0,0,,,,,,,,,True,,,,,,,,,,,,,,,,,,,,,,,,,,,,,,,,,,,,sub_405,2023-09-28_10h42.23.728,Reversal,2022.1.2,59.97023077766166,1,
1,exp3.png,exp4.png,,,,,,,,,,,,,,,,,,2,0,2,0,0,1,1,1,,,,,,,,,False,40,101,True,exp4.png,exp3.png,trial_left_image,1,exp4.png,1,exp3.png,exp4.png,0,2,non-reversed,incorrect,0.18738411015608714,1,invalid_win,637.1222969999999,68,,,,,,,,,,,,,,,,sub_405,2023-09-28_10h42.23.728,Reversal,2022.1.2,59.97023077766166,1,
2,exp1.png,exp2.png,,,,,,,,,,,,,,,,,,2,0,2,0,0,2,2,2,,,,,,,,,False,41,102,False,exp1.png,exp2.png,trial_right_image,-1,exp2.png,1,exp2.png,exp1.png,0,4,reversed,correct,0.20694457638968355,0,invalid_lose,644.5547337999997,68,,,,,,,,,,,,,,,,sub_405,2023-09-28_10h42.23.728,Reversal,2022.1.2,59.97023077766166,1,
3,exp3.png,exp4.png,,,,,,,,,,,,,,,,,,2,0,2,0,0,3,3,3,,,,,,,,,False,42,103,False,exp3.png,exp4.png,trial_left_image,1,exp3.png,1,exp3.png,exp4.png,1,1,non-reversed,correct,0.2250484400598045,0,invalid_lose,650.754992799999,68,,,,,,,,,,,,,,,,sub_405,2023-09-28_10h42.23.728,Reversal,2022.1.2,59.97023077766166,1,
4,exp1.png,exp2.png,,,,,,,,,,,,,,,,,,2,0,2,0,0,4,4,4,,,,,,,,,False,43,104,True,exp2.png,exp1.png,trial_left_image,1,exp2.png,1,exp2.png,exp1.png,0,4,reversed,correct,0.589088432919448,1,valid_win,658.9044133000007,69,,,,,,,,,,,,,,,,sub_405,2023-09-28_10h42.23.728,Reversal,2022.1.2,59.97023077766166,1,
5,exp3.png,exp4.png,,,,,,,,,,,,,,,,,,2,0,2,0,0,5,5,5,,,,,,,,,False,44,105,True,exp4.png,exp3.png,trial_right_image,-1,exp3.png,1,exp3.png,exp4.png,1,1,non-reversed,correct,0.10555836348889414,0,invalid_lose,666.520647899999,69,,,,,,,,,,,,,,,,sub_405,2023-09-28_10h42.23.728,Reversal,2022.1.2,59.97023077766166,1,
6,exp1.png,exp2.png,,,,,,,,,,,,,,,,,,2,0,2,0,0,6,6,6,,,,,,,,,False,45,106,True,exp2.png,exp1.png,trial_left_image,1,exp2.png,1,exp2.png,exp1.png,0,4,reversed,correct,0.11356435385776653,0,invalid_lose,680.9048294000004,69,,,,,,,,,,,,,,,,sub_405,2023-09-28_10h42.23.728,Reversal,2022.1.2,59.97023077766166,1,
7,exp3.png,exp4.png,,,,,,,,,,,,,,,,,,2,0,2,0,0,7,7,7,,,,,,,,,False,46,107,True,exp4.png,exp3.png,trial_right_image,-1,exp3.png,1,exp3.png,exp4.png,1,1,non-reversed,correct,0.5209836140373731,1,valid_win,687.7374075000007,70,,,,,,,,,,,,,,,,sub_405,2023-09-28_10h42.23.728,Reversal,2022.1.2,59.97023077766166,1,
8,exp1.png,exp2.png,,,,,,,,,,,,,,,,,,2,0,2,0,0,8,8,8,,,,,,,,,False,47,108,False,exp1.png,exp2.png,trial_left_image,1,exp1.png,1,exp2.png,exp1.png,1,3,reversed,incorrect,0.578723279813702,0,valid_lose,694.6881615999991,70,,,,,,,,,,,,,,,,sub_405,2023-09-28_10h42.23.728,Reversal,2022.1.2,59.97023077766166,1,
9,exp3.png,exp4.png,,,,,,,,,,,,,,,,,,2,0,2,0,0,9,9,9,,,,,,,,,False,48,109,False,exp3.png,exp4.png,trial_left_image,1,exp3.png,1,exp3.png,exp4.png,1,1,non-reversed,correct,0.7591401944632025,1,valid_win,700.2703681000003,71,,,,,,,,,,,,,,,,sub_405,2023-09-28_10h42.23.728,Reversal,2022.1.2,59.97023077766166,1,
10,exp1.png,exp2.png,,,,,,,,,,,,,,,,,,2,0,2,0,0,10,10,10,,,,,,,,,False,49,110,False,exp1.png,exp2.png,trial_right_image,-1,exp2.png,1,exp2.png,exp1.png,0,4,reversed,correct,0.5839134957329,1,valid_win,706.4203818000005,72,,,,,,,,,,,,,,,,sub_405,2023-09-28_10h42.23.728,Reversal,2022.1.2,59.97023077766166,1,
11,exp3.png,exp4.png,,,,,,,,,,,,,,,,,,2,0,2,0,0,11,11,11,,,,,,,,,False,50,111,True,exp4.png,exp3.png,trial_right_image,-1,exp3.png,1,exp3.png,exp4.png,1,1,non-reversed,correct,0.46538277603518863,1,valid_win,713.7202849999994,73,,,,,,,,,,,,,,,,sub_405,2023-09-28_10h42.23.728,Reversal,2022.1.2,59.97023077766166,1,
12,exp1.png,exp2.png,,,,,,,,,,,,,,,,,,2,0,2,0,0,12,12,12,,,,,,,,,False,51,112,True,exp2.png,exp1.png,trial_left_image,1,exp2.png,1,exp2.png,exp1.png,0,4,reversed,correct,0.4091240442964621,1,valid_win,720.8870342999999,74,,,,,,,,,,,,,,,,sub_405,2023-09-28_10h42.23.728,Reversal,2022.1.2,59.97023077766166,1,
13,exp3.png,exp4.png,,,,,,,,,,,,,,,,,,2,0,2,0,0,13,13,13,,,,,,,,,False,52,113,False,exp3.png,exp4.png,trial_left_image,1,exp3.png,1,exp3.png,exp4.png,1,1,non-reversed,correct,0.26164990413924427,1,valid_win,726.5697834999992,75,,,,,,,,,,,,,,,,sub_405,2023-09-28_10h42.23.728,Reversal,2022.1.2,59.97023077766166,1,
14,exp1.png,exp2.png,,,,,,,,,,,,,,,,,,2,0,2,0,0,14,14,14,,,,,,,,,False,53,114,False,exp1.png,exp2.png,trial_right_image,-1,exp2.png,1,exp2.png,exp1.png,0,4,reversed,correct,0.9825373467334209,1,valid_win,733.2197565999995,76,,,,,,,,,,,,,,,,sub_405,2023-09-28_10h42.23.728,Reversal,2022.1.2,59.97023077766166,1,
15,exp3.png,exp4.png,,,,,,,,,,,,,,,,,,2,0,2,0,0,15,15,15,,,,,,,,,False,54,115,True,exp4.png,exp3.png,trial_right_image,-1,exp3.png,1,exp3.png,exp4.png,1,1,non-reversed,correct,0.33531842797021394,1,valid_win,739.1699742000001,77,,,,,,,,,,,,,,,,sub_405,2023-09-28_10h42.23.728,Reversal,2022.1.2,59.97023077766166,1,
16,exp1.png,exp2.png,,,,,,,,,,,,,,,,,,2,0,2,0,0,16,16,16,,,,,,,,,False,55,116,True,exp2.png,exp1.png,trial_left_image,1,exp2.png,1,exp2.png,exp1.png,0,4,reversed,correct,0.17459106499238497,0,invalid_lose,745.3203126999997,77,,,,,,,,,,,,,,,,sub_405,2023-09-28_10h42.23.728,Reversal,2022.1.2,59.97023077766166,1,
17,exp3.png,exp4.png,,,,,,,,,,,,,,,,,,2,0,2,0,0,17,17,17,,,,,,,,,False,56,117,False,exp3.png,exp4.png,trial_left_image,1,exp3.png,1,exp3.png,exp4.png,1,1,non-reversed,correct,0.7596087044717672,1,valid_win,750.7368150999991,78,,,,,,,,,,,,,,,,sub_405,2023-09-28_10h42.23.728,Reversal,2022.1.2,59.97023077766166,1,
18,exp1.png,exp2.png,,,,,,,,,,,,,,,,,,2,0,2,0,0,18,18,18,,,,,,,,,False,57,118,False,exp1.png,exp2.png,trial_right_image,-1,exp2.png,1,exp2.png,exp1.png,0,4,reversed,correct,0.007365211432053265,0,invalid_lose,755.3525981000003,78,,,,,,,,,,,,,,,,sub_405,2023-09-28_10h42.23.728,Reversal,2022.1.2,59.97023077766166,1,
19,exp3.png,exp4.png,,,,,,,,,,,,,,,,,,2,0,2,0,0,19,19,19,,,,,,,,,False,58,119,False,exp3.png,exp4.png,trial_left_image,1,exp3.png,1,exp3.png,exp4.png,1,1,non-reversed,correct,0.02761210164150285,0,invalid_lose,760.3367283999996,78,,,,,,,,,,,,,,,,sub_405,2023-09-28_10h42.23.728,Reversal,2022.1.2,59.97023077766166,1,
20,exp1.png,exp2.png,,,,,,,,,,,,,,,,,,2,0,2,0,0,20,20,20,,,,,,,,,False,59,120,True,exp2.png,exp1.png,trial_right_image,-1,exp1.png,1,exp2.png,exp1.png,1,3,reversed,incorrect,0.944568606932135,0,valid_lose,765.9192942999998,78,,,,,,,,,,,,,,,,sub_405,2023-09-28_10h42.23.728,Reversal,2022.1.2,59.97023077766166,1,
,,,exp1.png,,,,,,,,,,,,,,,,,2,0,2,0,,,,,0,0,0,0,0,0,0,0,,,,,,,,,,,,,,,,,,,,,,100.0,100.0,9.411723600000187,"[(100.0, 9.411723600000187)]",782.2498856999991,None,,,,,,,,,,sub_405,2023-09-28_10h42.23.728,Reversal,2022.1.2,59.97023077766166,1,
,,,exp2.png,,,,,,,,,,,,,,,,,2,0,2,0,,,,,0,0,0,0,0,1,1,1,,,,,,,,,,,,,,,,,,,,,,,50.0,None,[],792.4099802000001,None,,,,,,,,,,sub_405,2023-09-28_10h42.23.728,Reversal,2022.1.2,59.97023077766166,1,
,,,exp3.png,,,,,,,,,,,,,,,,,2,0,2,0,,,,,0,0,0,0,0,2,2,2,,,,,,,,,,,,,,,,,,,,,,,99.0,2.0196508999997604,"[(99.0, 2.0196508999997604)]",792.8578801000003,None,,99.0,,,,,,,,sub_405,2023-09-28_10h42.23.728,Reversal,2022.1.2,59.97023077766166,1,
,,,exp4.png,,,,,,,,,,,,,,,,,2,0,2,0,,,,,0,0,0,0,0,3,3,3,,,,,,,,,,,,,,,,,,,,,,,3.0,3.46672320000107,"[(3.0, 3.46672320000107)]",796.2759308999994,None,,,3.0,,,,,,,sub_405,2023-09-28_10h42.23.728,Reversal,2022.1.2,59.97023077766166,1,
,,,,,,,,,,,,,,,,,,,,,,,,,,,,,,,,,,,,,,,,,,,,,,,,,,,,,,,,78,,,,,,,,,,,110,57,53,418.07939459999943,0,,,,,,,
