trial_index,trial_image1_file,trial_image2_file,image_file,learning_outer_loop.thisRepN,learning_outer_loop.thisTrialN,learning_outer_loop.thisN,learning_outer_loop.thisIndex,learning_inner_loop.thisRepN,learning_inner_loop.thisTrialN,learning_inner_loop.thisN,learning_inner_loop.thisIndex,learning_estimation_outer_loop.thisRepN,learning_estimation_outer_loop.thisTrialN,learning_estimation_outer_loop.thisN,learning_estimation_outer_loop.thisIndex,learning_estimation_inner_loop.thisRepN,learning_estimation_inner_loop.thisTrialN,learning_estimation_inner_loop.thisN,learning_estimation_inner_loop.thisIndex,reversal_outer_loop.thisRepN,reversal_outer_loop.thisTrialN,reversal_outer_loop.thisN,reversal_outer_loop.thisIndex,reversal_inner_loop.thisRepN,reversal_inner_loop.thisTrialN,reversal_inner_loop.thisN,reversal_inner_loop.thisIndex,reversal_estimation_outer_loop.thisRepN,reversal_estimation_outer_loop.thisTrialN,reversal_estimation_outer_loop.thisN,reversal_estimation_outer_loop.thisIndex,reversal_estimation_inner_loop.thisRepN,reversal_estimation_inner_loop.thisTrialN,reversal_estimation_inner_loop.thisN,reversal_estimation_inner_loop.thisIndex,skipped,total_trial_counter,trial_num,left_right_flip,left_image_file,right_image_file,clicked_stimulus_side,side,clicked_stimulus,version,high_prob_image_file,low_prob_image_file,choice_a,choice_b,pair_type,correct,trial_feedback_random,reward,trial_type,overall_time_after_trial,score,estimation_exp1.png,estimation_rating.response,estimation_rating.rt,estimation_rating.history,estimation_rating.started,estimation_rating.stopped,estimation_exp2.png,estimation_exp3.png,estimation_exp4.png,total_learning_time,total_correct,learning_correct,reversal_correct,total_reversal_time,extra_block,participant,date,expName,psychopyVersion,frameRate,ver,
0,exp1.png,exp2.png,,0,0,0,0,0,0,0,0,,,,,,,,,,,,,,,,,,,,,,,,,False,0,1,False,exp1.png,exp2.png,trial_right_image,-1,exp2.png,4,exp2.png,exp1.png,1,1,non-reversed,correct,0.15710411027338378,0,invalid_lose,7.1009678998962045,0,,,,,,,,,,,,,,,,sub_164,2022-11-22_16h38.27.524,Reversal,2022.1.2,60.04296676663168,4,
1,exp3.png,exp4.png,,0,0,0,0,0,1,1,1,,,,,,,,,,,,,,,,,,,,,,,,,False,1,2,True,exp4.png,exp3.png,trial_right_image,-1,exp3.png,4,exp4.png,exp3.png,0,4,reversed,incorrect,0.6803959077606094,0,valid_lose,12.867136199958622,0,,,,,,,,,,,,,,,,sub_164,2022-11-22_16h38.27.524,Reversal,2022.1.2,60.04296676663168,4,
2,exp1.png,exp2.png,,0,0,0,0,0,2,2,2,,,,,,,,,,,,,,,,,,,,,,,,,False,2,3,False,exp1.png,exp2.png,trial_right_image,-1,exp2.png,4,exp2.png,exp1.png,1,1,non-reversed,correct,0.5305514530868439,1,valid_win,19.748927500098944,1,,,,,,,,,,,,,,,,sub_164,2022-11-22_16h38.27.524,Reversal,2022.1.2,60.04296676663168,4,
3,exp3.png,exp4.png,,0,0,0,0,0,3,3,3,,,,,,,,,,,,,,,,,,,,,,,,,False,3,4,True,exp4.png,exp3.png,trial_right_image,-1,exp3.png,4,exp4.png,exp3.png,0,4,reversed,incorrect,0.6141543335972938,0,valid_lose,43.31581480009481,1,,,,,,,,,,,,,,,,sub_164,2022-11-22_16h38.27.524,Reversal,2022.1.2,60.04296676663168,4,
4,exp1.png,exp2.png,,0,0,0,0,0,4,4,4,,,,,,,,,,,,,,,,,,,,,,,,,False,4,5,True,exp2.png,exp1.png,trial_left_image,1,exp2.png,4,exp2.png,exp1.png,1,1,non-reversed,correct,0.1534504266011486,0,invalid_lose,47.78211940033361,1,,,,,,,,,,,,,,,,sub_164,2022-11-22_16h38.27.524,Reversal,2022.1.2,60.04296676663168,4,
5,exp3.png,exp4.png,,0,0,0,0,0,5,5,5,,,,,,,,,,,,,,,,,,,,,,,,,False,5,6,True,exp4.png,exp3.png,trial_right_image,-1,exp3.png,4,exp4.png,exp3.png,0,4,reversed,incorrect,0.4237818016040905,0,valid_lose,52.165848300326616,1,,,,,,,,,,,,,,,,sub_164,2022-11-22_16h38.27.524,Reversal,2022.1.2,60.04296676663168,4,
6,exp1.png,exp2.png,,0,0,0,0,0,6,6,6,,,,,,,,,,,,,,,,,,,,,,,,,False,6,7,True,exp2.png,exp1.png,trial_right_image,-1,exp1.png,4,exp2.png,exp1.png,0,2,non-reversed,incorrect,0.7171969785542723,0,valid_lose,56.86581220012158,1,,,,,,,,,,,,,,,,sub_164,2022-11-22_16h38.27.524,Reversal,2022.1.2,60.04296676663168,4,
7,exp3.png,exp4.png,,0,0,0,0,0,7,7,7,,,,,,,,,,,,,,,,,,,,,,,,,False,7,8,False,exp3.png,exp4.png,trial_left_image,1,exp3.png,4,exp4.png,exp3.png,0,4,reversed,incorrect,0.7419791679049402,0,valid_lose,60.88167280005291,1,,,,,,,,,,,,,,,,sub_164,2022-11-22_16h38.27.524,Reversal,2022.1.2,60.04296676663168,4,
8,exp1.png,exp2.png,,0,0,0,0,0,8,8,8,,,,,,,,,,,,,,,,,,,,,,,,,False,8,9,False,exp1.png,exp2.png,trial_left_image,1,exp1.png,4,exp2.png,exp1.png,0,2,non-reversed,incorrect,0.29508331407989197,0,valid_lose,64.69873710023239,1,,,,,,,,,,,,,,,,sub_164,2022-11-22_16h38.27.524,Reversal,2022.1.2,60.04296676663168,4,
9,exp3.png,exp4.png,,0,0,0,0,0,9,9,9,,,,,,,,,,,,,,,,,,,,,,,,,False,9,10,True,exp4.png,exp3.png,trial_left_image,1,exp4.png,4,exp4.png,exp3.png,1,3,reversed,correct,0.6728394456399043,1,valid_win,69.09853029996157,2,,,,,,,,,,,,,,,,sub_164,2022-11-22_16h38.27.524,Reversal,2022.1.2,60.04296676663168,4,
10,exp1.png,exp2.png,,0,0,0,0,0,10,10,10,,,,,,,,,,,,,,,,,,,,,,,,,False,10,11,True,exp2.png,exp1.png,trial_left_image,1,exp2.png,4,exp2.png,exp1.png,1,1,non-reversed,correct,0.7733819566897726,1,valid_win,74.26508180005476,3,,,,,,,,,,,,,,,,sub_164,2022-11-22_16h38.27.524,Reversal,2022.1.2,60.04296676663168,4,
11,exp3.png,exp4.png,,0,0,0,0,0,11,11,11,,,,,,,,,,,,,,,,,,,,,,,,,False,11,12,False,exp3.png,exp4.png,trial_left_image,1,exp3.png,4,exp4.png,exp3.png,0,4,reversed,incorrect,0.4662217904374114,0,valid_lose,79.83212900022045,3,,,,,,,,,,,,,,,,sub_164,2022-11-22_16h38.27.524,Reversal,2022.1.2,60.04296676663168,4,
12,exp1.png,exp2.png,,0,0,0,0,0,12,12,12,,,,,,,,,,,,,,,,,,,,,,,,,False,12,13,True,exp2.png,exp1.png,trial_right_image,-1,exp1.png,4,exp2.png,exp1.png,0,2,non-reversed,incorrect,0.6114539241035898,0,valid_lose,83.68156270030886,3,,,,,,,,,,,,,,,,sub_164,2022-11-22_16h38.27.524,Reversal,2022.1.2,60.04296676663168,4,
13,exp3.png,exp4.png,,0,0,0,0,0,13,13,13,,,,,,,,,,,,,,,,,,,,,,,,,False,13,14,False,exp3.png,exp4.png,trial_left_image,1,exp3.png,4,exp4.png,exp3.png,0,4,reversed,incorrect,0.7772927440376232,0,valid_lose,89.36501329997554,3,,,,,,,,,,,,,,,,sub_164,2022-11-22_16h38.27.524,Reversal,2022.1.2,60.04296676663168,4,
14,exp1.png,exp2.png,,0,0,0,0,0,14,14,14,,,,,,,,,,,,,,,,,,,,,,,,,False,14,15,False,exp1.png,exp2.png,trial_right_image,-1,exp2.png,4,exp2.png,exp1.png,1,1,non-reversed,correct,0.49648242794058184,1,valid_win,93.6311101000756,4,,,,,,,,,,,,,,,,sub_164,2022-11-22_16h38.27.524,Reversal,2022.1.2,60.04296676663168,4,
15,exp3.png,exp4.png,,0,0,0,0,0,15,15,15,,,,,,,,,,,,,,,,,,,,,,,,,False,15,16,True,exp4.png,exp3.png,trial_right_image,-1,exp3.png,4,exp4.png,exp3.png,0,4,reversed,incorrect,0.5375682486116973,0,valid_lose,97.94789250008762,4,,,,,,,,,,,,,,,,sub_164,2022-11-22_16h38.27.524,Reversal,2022.1.2,60.04296676663168,4,
16,exp1.png,exp2.png,,0,0,0,0,0,16,16,16,,,,,,,,,,,,,,,,,,,,,,,,,False,16,17,False,exp1.png,exp2.png,trial_right_image,-1,exp2.png,4,exp2.png,exp1.png,1,1,non-reversed,correct,0.357792029807495,1,valid_win,103.08133460022509,5,,,,,,,,,,,,,,,,sub_164,2022-11-22_16h38.27.524,Reversal,2022.1.2,60.04296676663168,4,
17,exp3.png,exp4.png,,0,0,0,0,0,17,17,17,,,,,,,,,,,,,,,,,,,,,,,,,False,17,18,False,exp3.png,exp4.png,trial_left_image,1,exp3.png,4,exp4.png,exp3.png,0,4,reversed,incorrect,0.49915785851257777,0,valid_lose,107.81418139999732,5,,,,,,,,,,,,,,,,sub_164,2022-11-22_16h38.27.524,Reversal,2022.1.2,60.04296676663168,4,
18,exp1.png,exp2.png,,0,0,0,0,0,18,18,18,,,,,,,,,,,,,,,,,,,,,,,,,False,18,19,True,exp2.png,exp1.png,trial_right_image,-1,exp1.png,4,exp2.png,exp1.png,0,2,non-reversed,incorrect,0.5371959983201591,0,valid_lose,112.18197969999164,5,,,,,,,,,,,,,,,,sub_164,2022-11-22_16h38.27.524,Reversal,2022.1.2,60.04296676663168,4,
19,exp3.png,exp4.png,,0,0,0,0,0,19,19,19,,,,,,,,,,,,,,,,,,,,,,,,,False,19,20,False,exp3.png,exp4.png,trial_right_image,-1,exp4.png,4,exp4.png,exp3.png,1,3,reversed,correct,0.0423734810078481,0,invalid_lose,117.34726780001074,5,,,,,,,,,,,,,,,,sub_164,2022-11-22_16h38.27.524,Reversal,2022.1.2,60.04296676663168,4,
20,exp1.png,exp2.png,,0,0,0,0,0,20,20,20,,,,,,,,,,,,,,,,,,,,,,,,,True,,,,,,,,,,,,,,,,,,,,,,,,,,,,,,,,,,,,sub_164,2022-11-22_16h38.27.524,Reversal,2022.1.2,60.04296676663168,4,
,,,exp1.png,0,0,0,0,,,,,0,0,0,0,0,0,0,0,,,,,,,,,,,,,,,,,,,,,,,,,,,,,,,,,,,,,,71.0,71.0,11.517281299922615,"[(71.0, 11.517281299922615)]",195.0630307001993,None,,,,,,,,,,sub_164,2022-11-22_16h38.27.524,Reversal,2022.1.2,60.04296676663168,4,
,,,exp2.png,0,0,0,0,,,,,0,0,0,0,0,1,1,1,,,,,,,,,,,,,,,,,,,,,,,,,,,,,,,,,,,,,,,23.0,3.117245000321418,"[(23.0, 3.117245000321418)]",207.35872410004959,None,23.0,,,,,,,,,sub_164,2022-11-22_16h38.27.524,Reversal,2022.1.2,60.04296676663168,4,
,,,exp3.png,0,0,0,0,,,,,0,0,0,0,0,2,2,2,,,,,,,,,,,,,,,,,,,,,,,,,,,,,,,,,,,,,,,84.0,2.8513019997626543,"[(84.0, 2.8513019997626543)]",211.17052450031042,None,,84.0,,,,,,,,sub_164,2022-11-22_16h38.27.524,Reversal,2022.1.2,60.04296676663168,4,
,,,exp4.png,0,0,0,0,,,,,0,0,0,0,0,3,3,3,,,,,,,,,,,,,,,,,,,,,,,,,,,,,,,,,,,,,,,14.0,2.7173732998780906,"[(14.0, 2.7173732998780906)]",214.9242696003057,None,,,14.0,,,,,,,sub_164,2022-11-22_16h38.27.524,Reversal,2022.1.2,60.04296676663168,4,
0,exp1.png,exp2.png,,1,0,1,0,0,0,0,0,,,,,,,,,,,,,,,,,,,,,,,,,False,20,21,False,exp1.png,exp2.png,trial_left_image,1,exp1.png,4,exp2.png,exp1.png,0,2,non-reversed,incorrect,0.24425842265312792,1,invalid_win,146.4638543999754,6,,,,,,,,,,,,,,,,sub_164,2022-11-22_16h38.27.524,Reversal,2022.1.2,60.04296676663168,4,
1,exp3.png,exp4.png,,1,0,1,0,0,1,1,1,,,,,,,,,,,,,,,,,,,,,,,,,False,21,22,True,exp4.png,exp3.png,trial_left_image,1,exp4.png,4,exp4.png,exp3.png,1,3,reversed,correct,0.6744760523659528,1,valid_win,151.48030940024182,7,,,,,,,,,,,,,,,,sub_164,2022-11-22_16h38.27.524,Reversal,2022.1.2,60.04296676663168,4,
2,exp1.png,exp2.png,,1,0,1,0,0,2,2,2,,,,,,,,,,,,,,,,,,,,,,,,,False,22,23,True,exp2.png,exp1.png,trial_right_image,-1,exp1.png,4,exp2.png,exp1.png,0,2,non-reversed,incorrect,0.5380107126205835,0,valid_lose,155.92976030008867,7,,,,,,,,,,,,,,,,sub_164,2022-11-22_16h38.27.524,Reversal,2022.1.2,60.04296676663168,4,
3,exp3.png,exp4.png,,1,0,1,0,0,3,3,3,,,,,,,,,,,,,,,,,,,,,,,,,False,23,24,False,exp3.png,exp4.png,trial_left_image,1,exp3.png,4,exp4.png,exp3.png,0,4,reversed,incorrect,0.8712068383165409,0,valid_lose,161.3478234000504,7,,,,,,,,,,,,,,,,sub_164,2022-11-22_16h38.27.524,Reversal,2022.1.2,60.04296676663168,4,
4,exp1.png,exp2.png,,1,0,1,0,0,4,4,4,,,,,,,,,,,,,,,,,,,,,,,,,False,24,25,True,exp2.png,exp1.png,trial_left_image,1,exp2.png,4,exp2.png,exp1.png,1,1,non-reversed,correct,0.429918459893479,1,valid_win,165.41357740014791,8,,,,,,,,,,,,,,,,sub_164,2022-11-22_16h38.27.524,Reversal,2022.1.2,60.04296676663168,4,
5,exp3.png,exp4.png,,1,0,1,0,0,5,5,5,,,,,,,,,,,,,,,,,,,,,,,,,False,25,26,False,exp3.png,exp4.png,trial_right_image,-1,exp4.png,4,exp4.png,exp3.png,1,3,reversed,correct,0.4061720207701677,1,valid_win,170.14658180018887,9,,,,,,,,,,,,,,,,sub_164,2022-11-22_16h38.27.524,Reversal,2022.1.2,60.04296676663168,4,
6,exp1.png,exp2.png,,1,0,1,0,0,6,6,6,,,,,,,,,,,,,,,,,,,,,,,,,False,26,27,False,exp1.png,exp2.png,trial_right_image,-1,exp2.png,4,exp2.png,exp1.png,1,1,non-reversed,correct,0.49187530143277225,1,valid_win,174.21268239989877,10,,,,,,,,,,,,,,,,sub_164,2022-11-22_16h38.27.524,Reversal,2022.1.2,60.04296676663168,4,
7,exp3.png,exp4.png,,1,0,1,0,0,7,7,7,,,,,,,,,,,,,,,,,,,,,,,,,False,27,28,False,exp3.png,exp4.png,trial_left_image,1,exp3.png,4,exp4.png,exp3.png,0,4,reversed,incorrect,0.46849909150312574,0,valid_lose,178.06338849989697,10,,,,,,,,,,,,,,,,sub_164,2022-11-22_16h38.27.524,Reversal,2022.1.2,60.04296676663168,4,
8,exp1.png,exp2.png,,1,0,1,0,0,8,8,8,,,,,,,,,,,,,,,,,,,,,,,,,False,28,29,False,exp1.png,exp2.png,trial_right_image,-1,exp2.png,4,exp2.png,exp1.png,1,1,non-reversed,correct,0.8683407445818982,1,valid_win,181.82946070004255,11,,,,,,,,,,,,,,,,sub_164,2022-11-22_16h38.27.524,Reversal,2022.1.2,60.04296676663168,4,
9,exp3.png,exp4.png,,1,0,1,0,0,9,9,9,,,,,,,,,,,,,,,,,,,,,,,,,False,29,30,True,exp4.png,exp3.png,trial_left_image,1,exp4.png,4,exp4.png,exp3.png,1,3,reversed,correct,0.3624410102145228,1,valid_win,185.59623700007796,12,,,,,,,,,,,,,,,,sub_164,2022-11-22_16h38.27.524,Reversal,2022.1.2,60.04296676663168,4,
10,exp1.png,exp2.png,,1,0,1,0,0,10,10,10,,,,,,,,,,,,,,,,,,,,,,,,,False,30,31,True,exp2.png,exp1.png,trial_left_image,1,exp2.png,4,exp2.png,exp1.png,1,1,non-reversed,correct,0.6229933793150063,1,valid_win,189.41299970028922,13,,,,,,,,,,,,,,,,sub_164,2022-11-22_16h38.27.524,Reversal,2022.1.2,60.04296676663168,4,
11,exp3.png,exp4.png,,1,0,1,0,0,11,11,11,,,,,,,,,,,,,,,,,,,,,,,,,False,31,32,True,exp4.png,exp3.png,trial_left_image,1,exp4.png,4,exp4.png,exp3.png,1,3,reversed,correct,0.6373293537279239,1,valid_win,193.5295691001229,14,,,,,,,,,,,,,,,,sub_164,2022-11-22_16h38.27.524,Reversal,2022.1.2,60.04296676663168,4,
12,exp1.png,exp2.png,,1,0,1,0,0,12,12,12,,,,,,,,,,,,,,,,,,,,,,,,,False,32,33,True,exp2.png,exp1.png,trial_right_image,-1,exp1.png,4,exp2.png,exp1.png,0,2,non-reversed,incorrect,0.7512390370156622,0,valid_lose,197.4461340000853,14,,,,,,,,,,,,,,,,sub_164,2022-11-22_16h38.27.524,Reversal,2022.1.2,60.04296676663168,4,
13,exp3.png,exp4.png,,1,0,1,0,0,13,13,13,,,,,,,,,,,,,,,,,,,,,,,,,False,33,34,True,exp4.png,exp3.png,trial_right_image,-1,exp3.png,4,exp4.png,exp3.png,0,4,reversed,incorrect,0.6156156811345939,0,valid_lose,201.1792574999854,14,,,,,,,,,,,,,,,,sub_164,2022-11-22_16h38.27.524,Reversal,2022.1.2,60.04296676663168,4,
14,exp1.png,exp2.png,,1,0,1,0,0,14,14,14,,,,,,,,,,,,,,,,,,,,,,,,,False,34,35,True,exp2.png,exp1.png,trial_left_image,1,exp2.png,4,exp2.png,exp1.png,1,1,non-reversed,correct,0.17693328305163403,0,invalid_lose,204.9458691002801,14,,,,,,,,,,,,,,,,sub_164,2022-11-22_16h38.27.524,Reversal,2022.1.2,60.04296676663168,4,
15,exp3.png,exp4.png,,1,0,1,0,0,15,15,15,,,,,,,,,,,,,,,,,,,,,,,,,False,35,36,True,exp4.png,exp3.png,trial_right_image,-1,exp3.png,4,exp4.png,exp3.png,0,4,reversed,incorrect,0.8453787708562376,0,valid_lose,208.69586540013552,14,,,,,,,,,,,,,,,,sub_164,2022-11-22_16h38.27.524,Reversal,2022.1.2,60.04296676663168,4,
16,exp1.png,exp2.png,,1,0,1,0,0,16,16,16,,,,,,,,,,,,,,,,,,,,,,,,,False,36,37,False,exp1.png,exp2.png,trial_right_image,-1,exp2.png,4,exp2.png,exp1.png,1,1,non-reversed,correct,0.30553940973612137,1,valid_win,212.9455097001046,15,,,,,,,,,,,,,,,,sub_164,2022-11-22_16h38.27.524,Reversal,2022.1.2,60.04296676663168,4,
17,exp3.png,exp4.png,,1,0,1,0,0,17,17,17,,,,,,,,,,,,,,,,,,,,,,,,,False,37,38,False,exp3.png,exp4.png,trial_left_image,1,exp3.png,4,exp4.png,exp3.png,0,4,reversed,incorrect,0.18730092896518902,1,invalid_win,217.12930730031803,16,,,,,,,,,,,,,,,,sub_164,2022-11-22_16h38.27.524,Reversal,2022.1.2,60.04296676663168,4,
18,exp1.png,exp2.png,,1,0,1,0,0,18,18,18,,,,,,,,,,,,,,,,,,,,,,,,,False,38,39,False,exp1.png,exp2.png,trial_right_image,-1,exp2.png,4,exp2.png,exp1.png,1,1,non-reversed,correct,0.19148922485129383,0,invalid_lose,221.04569730022922,16,,,,,,,,,,,,,,,,sub_164,2022-11-22_16h38.27.524,Reversal,2022.1.2,60.04296676663168,4,
19,exp3.png,exp4.png,,1,0,1,0,0,19,19,19,,,,,,,,,,,,,,,,,,,,,,,,,False,39,40,False,exp3.png,exp4.png,trial_left_image,1,exp3.png,4,exp4.png,exp3.png,0,4,reversed,incorrect,0.6880190686127745,0,valid_lose,224.86241680011153,16,,,,,,,,,,,,,,,,sub_164,2022-11-22_16h38.27.524,Reversal,2022.1.2,60.04296676663168,4,
20,exp1.png,exp2.png,,1,0,1,0,0,20,20,20,,,,,,,,,,,,,,,,,,,,,,,,,True,,,,,,,,,,,,,,,,,,,,,,,,,,,,,,,,,,,,sub_164,2022-11-22_16h38.27.524,Reversal,2022.1.2,60.04296676663168,4,
,,,exp1.png,1,0,1,0,,,,,0,0,0,0,0,0,0,0,,,,,,,,,,,,,,,,,,,,,,,,,,,,,,,,,,,,,,92.0,92.0,2.0806873999536037,"[(92.0, 2.0806873999536037)]",302.5756721002981,None,,,,,,,,,,sub_164,2022-11-22_16h38.27.524,Reversal,2022.1.2,60.04296676663168,4,
,,,exp2.png,1,0,1,0,,,,,0,0,0,0,0,1,1,1,,,,,,,,,,,,,,,,,,,,,,,,,,,,,,,,,,,,,,,3.0,1.5166298002004623,"[(3.0, 1.5166298002004623)]",305.70290270028636,None,3.0,,,,,,,,,sub_164,2022-11-22_16h38.27.524,Reversal,2022.1.2,60.04296676663168,4,
,,,exp3.png,1,0,1,0,,,,,0,0,0,0,0,2,2,2,,,,,,,,,,,,,,,,,,,,,,,,,,,,,,,,,,,,,,,91.0,0.8853442003019154,"[(91.0, 0.8853442003019154)]",308.2353765000589,None,,91.0,,,,,,,,sub_164,2022-11-22_16h38.27.524,Reversal,2022.1.2,60.04296676663168,4,
,,,exp4.png,1,0,1,0,,,,,0,0,0,0,0,3,3,3,,,,,,,,,,,,,,,,,,,,,,,,,,,,,,,,,,,,,,,86.0,1.099622500129044,"[(86.0, 1.099622500129044)]",310.2873230003752,None,,,86.0,,,,,,,sub_164,2022-11-22_16h38.27.524,Reversal,2022.1.2,60.04296676663168,4,
0,exp1.png,exp2.png,,2,0,2,0,0,0,0,0,,,,,,,,,,,,,,,,,,,,,,,,,False,40,41,False,exp1.png,exp2.png,trial_right_image,-1,exp2.png,4,exp2.png,exp1.png,1,1,non-reversed,correct,0.4571108238032072,1,valid_win,238.5955485003069,17,,,,,,,,,,,,,,,,sub_164,2022-11-22_16h38.27.524,Reversal,2022.1.2,60.04296676663168,4,
1,exp3.png,exp4.png,,2,0,2,0,0,1,1,1,,,,,,,,,,,,,,,,,,,,,,,,,False,41,42,True,exp4.png,exp3.png,trial_right_image,-1,exp3.png,4,exp4.png,exp3.png,0,4,reversed,incorrect,0.998418765296154,0,valid_lose,242.64563070004806,17,,,,,,,,,,,,,,,,sub_164,2022-11-22_16h38.27.524,Reversal,2022.1.2,60.04296676663168,4,
2,exp1.png,exp2.png,,2,0,2,0,0,2,2,2,,,,,,,,,,,,,,,,,,,,,,,,,False,42,43,False,exp1.png,exp2.png,trial_right_image,-1,exp2.png,4,exp2.png,exp1.png,1,1,non-reversed,correct,0.6065187422127044,1,valid_win,246.4119493002072,18,,,,,,,,,,,,,,,,sub_164,2022-11-22_16h38.27.524,Reversal,2022.1.2,60.04296676663168,4,
3,exp3.png,exp4.png,,2,0,2,0,0,3,3,3,,,,,,,,,,,,,,,,,,,,,,,,,False,43,44,False,exp3.png,exp4.png,trial_left_image,1,exp3.png,4,exp4.png,exp3.png,0,4,reversed,incorrect,0.6010239423501101,0,valid_lose,250.6114910999313,18,,,,,,,,,,,,,,,,sub_164,2022-11-22_16h38.27.524,Reversal,2022.1.2,60.04296676663168,4,
4,exp1.png,exp2.png,,2,0,2,0,0,4,4,4,,,,,,,,,,,,,,,,,,,,,,,,,False,44,45,True,exp2.png,exp1.png,trial_right_image,-1,exp1.png,4,exp2.png,exp1.png,0,2,non-reversed,incorrect,0.2897915737400708,0,valid_lose,259.1451882002875,18,,,,,,,,,,,,,,,,sub_164,2022-11-22_16h38.27.524,Reversal,2022.1.2,60.04296676663168,4,
5,exp3.png,exp4.png,,2,0,2,0,0,5,5,5,,,,,,,,,,,,,,,,,,,,,,,,,False,45,46,False,exp3.png,exp4.png,trial_left_image,1,exp3.png,4,exp4.png,exp3.png,0,4,reversed,incorrect,0.6029513549218796,0,valid_lose,263.0453417003155,18,,,,,,,,,,,,,,,,sub_164,2022-11-22_16h38.27.524,Reversal,2022.1.2,60.04296676663168,4,
6,exp1.png,exp2.png,,2,0,2,0,0,6,6,6,,,,,,,,,,,,,,,,,,,,,,,,,False,46,47,False,exp1.png,exp2.png,trial_right_image,-1,exp2.png,4,exp2.png,exp1.png,1,1,non-reversed,correct,0.8355590627497566,1,valid_win,266.8949458003044,19,,,,,,,,,,,,,,,,sub_164,2022-11-22_16h38.27.524,Reversal,2022.1.2,60.04296676663168,4,
7,exp3.png,exp4.png,,2,0,2,0,0,7,7,7,,,,,,,,,,,,,,,,,,,,,,,,,False,47,48,True,exp4.png,exp3.png,trial_left_image,1,exp4.png,4,exp4.png,exp3.png,1,3,reversed,correct,0.037945237813725385,0,invalid_lose,270.8783350000158,19,,,,,,,,,,,,,,,,sub_164,2022-11-22_16h38.27.524,Reversal,2022.1.2,60.04296676663168,4,
8,exp1.png,exp2.png,,2,0,2,0,0,8,8,8,,,,,,,,,,,,,,,,,,,,,,,,,False,48,49,True,exp2.png,exp1.png,trial_right_image,-1,exp1.png,4,exp2.png,exp1.png,0,2,non-reversed,incorrect,0.9470523360730756,0,valid_lose,274.7280906001106,19,,,,,,,,,,,,,,,,sub_164,2022-11-22_16h38.27.524,Reversal,2022.1.2,60.04296676663168,4,
9,exp3.png,exp4.png,,2,0,2,0,0,9,9,9,,,,,,,,,,,,,,,,,,,,,,,,,False,49,50,False,exp3.png,exp4.png,trial_right_image,-1,exp4.png,4,exp4.png,exp3.png,1,3,reversed,correct,0.239740793928925,0,invalid_lose,278.6116710999049,19,,,,,,,,,,,,,,,,sub_164,2022-11-22_16h38.27.524,Reversal,2022.1.2,60.04296676663168,4,
10,exp1.png,exp2.png,,2,0,2,0,0,10,10,10,,,,,,,,,,,,,,,,,,,,,,,,,False,50,51,True,exp2.png,exp1.png,trial_right_image,-1,exp1.png,4,exp2.png,exp1.png,0,2,non-reversed,incorrect,0.42557472900443516,0,valid_lose,282.3775734002702,19,,,,,,,,,,,,,,,,sub_164,2022-11-22_16h38.27.524,Reversal,2022.1.2,60.04296676663168,4,
11,exp3.png,exp4.png,,2,0,2,0,0,11,11,11,,,,,,,,,,,,,,,,,,,,,,,,,False,51,52,True,exp4.png,exp3.png,trial_right_image,-1,exp3.png,4,exp4.png,exp3.png,0,4,reversed,incorrect,0.9908643356636636,0,valid_lose,286.1610484002158,19,,,,,,,,,,,,,,,,sub_164,2022-11-22_16h38.27.524,Reversal,2022.1.2,60.04296676663168,4,
12,exp1.png,exp2.png,,2,0,2,0,0,12,12,12,,,,,,,,,,,,,,,,,,,,,,,,,False,52,53,False,exp1.png,exp2.png,trial_left_image,1,exp1.png,4,exp2.png,exp1.png,0,2,non-reversed,incorrect,0.2096309503143926,1,invalid_win,289.944585100282,20,,,,,,,,,,,,,,,,sub_164,2022-11-22_16h38.27.524,Reversal,2022.1.2,60.04296676663168,4,
13,exp3.png,exp4.png,,2,0,2,0,0,13,13,13,,,,,,,,,,,,,,,,,,,,,,,,,False,53,54,True,exp4.png,exp3.png,trial_left_image,1,exp4.png,4,exp4.png,exp3.png,1,3,reversed,correct,0.7429579297313158,1,valid_win,294.14434379991144,21,,,,,,,,,,,,,,,,sub_164,2022-11-22_16h38.27.524,Reversal,2022.1.2,60.04296676663168,4,
14,exp1.png,exp2.png,,2,0,2,0,0,14,14,14,,,,,,,,,,,,,,,,,,,,,,,,,False,54,55,False,exp1.png,exp2.png,trial_left_image,1,exp1.png,4,exp2.png,exp1.png,0,2,non-reversed,incorrect,0.18118631796792684,1,invalid_win,297.99405470024794,22,,,,,,,,,,,,,,,,sub_164,2022-11-22_16h38.27.524,Reversal,2022.1.2,60.04296676663168,4,
15,exp3.png,exp4.png,,2,0,2,0,0,15,15,15,,,,,,,,,,,,,,,,,,,,,,,,,False,55,56,True,exp4.png,exp3.png,trial_left_image,1,exp4.png,4,exp4.png,exp3.png,1,3,reversed,correct,0.24548576400295974,0,invalid_lose,301.8276060000062,22,,,,,,,,,,,,,,,,sub_164,2022-11-22_16h38.27.524,Reversal,2022.1.2,60.04296676663168,4,
16,exp1.png,exp2.png,,2,0,2,0,0,16,16,16,,,,,,,,,,,,,,,,,,,,,,,,,False,56,57,True,exp2.png,exp1.png,trial_right_image,-1,exp1.png,4,exp2.png,exp1.png,0,2,non-reversed,incorrect,0.5169377071463434,0,valid_lose,305.6447479003109,22,,,,,,,,,,,,,,,,sub_164,2022-11-22_16h38.27.524,Reversal,2022.1.2,60.04296676663168,4,
17,exp3.png,exp4.png,,2,0,2,0,0,17,17,17,,,,,,,,,,,,,,,,,,,,,,,,,False,57,58,True,exp4.png,exp3.png,trial_left_image,1,exp4.png,4,exp4.png,exp3.png,1,3,reversed,correct,0.870959594021508,1,valid_win,309.37789270002395,23,,,,,,,,,,,,,,,,sub_164,2022-11-22_16h38.27.524,Reversal,2022.1.2,60.04296676663168,4,
18,exp1.png,exp2.png,,2,0,2,0,0,18,18,18,,,,,,,,,,,,,,,,,,,,,,,,,False,58,59,False,exp1.png,exp2.png,trial_left_image,1,exp1.png,4,exp2.png,exp1.png,0,2,non-reversed,incorrect,0.43596112755200345,0,valid_lose,313.2616758001968,23,,,,,,,,,,,,,,,,sub_164,2022-11-22_16h38.27.524,Reversal,2022.1.2,60.04296676663168,4,
19,exp3.png,exp4.png,,2,0,2,0,0,19,19,19,,,,,,,,,,,,,,,,,,,,,,,,,False,59,60,False,exp3.png,exp4.png,trial_right_image,-1,exp4.png,4,exp4.png,exp3.png,1,3,reversed,correct,0.9525414761851042,1,valid_win,317.1446911999956,24,,,,,,,,,,,,,,,,sub_164,2022-11-22_16h38.27.524,Reversal,2022.1.2,60.04296676663168,4,
20,exp1.png,exp2.png,,2,0,2,0,0,20,20,20,,,,,,,,,,,,,,,,,,,,,,,,,True,,,,,,,,,,,,,,,,,,,,,,,,,,,,,,,,,,,,sub_164,2022-11-22_16h38.27.524,Reversal,2022.1.2,60.04296676663168,4,
,,,exp1.png,2,0,2,0,,,,,0,0,0,0,0,0,0,0,,,,,,,,,,,,,,,,,,,,,,,,,,,,,,,,,,,,,,100.0,100.0,2.859547399915755,"[(87.0, 1.508103999774903), (100.0, 2.859547399915755)]",394.93914860021323,None,,,,,,,,,,sub_164,2022-11-22_16h38.27.524,Reversal,2022.1.2,60.04296676663168,4,
,,,exp2.png,2,0,2,0,,,,,0,0,0,0,0,1,1,1,,,,,,,,,,,,,,,,,,,,,,,,,,,,,,,,,,,,,,,4.0,2.4687715996988118,"[(4.0, 2.4687715996988118)]",398.8306544004008,None,4.0,,,,,,,,,sub_164,2022-11-22_16h38.27.524,Reversal,2022.1.2,60.04296676663168,4,
,,,exp3.png,2,0,2,0,,,,,0,0,0,0,0,2,2,2,,,,,,,,,,,,,,,,,,,,,,,,,,,,,,,,,,,,,,,50.0,None,[],402.37733490020037,None,,,,,,,,,,sub_164,2022-11-22_16h38.27.524,Reversal,2022.1.2,60.04296676663168,4,
,,,exp4.png,2,0,2,0,,,,,0,0,0,0,0,3,3,3,,,,,,,,,,,,,,,,,,,,,,,,,,,,,,,,,,,,,,,97.0,2.049264600034803,"[(97.0, 2.049264600034803)]",402.82020680001006,None,,,97.0,,,,,,,sub_164,2022-11-22_16h38.27.524,Reversal,2022.1.2,60.04296676663168,4,
0,exp1.png,exp2.png,,3,0,3,0,0,0,0,0,,,,,,,,,,,,,,,,,,,,,,,,,False,60,61,False,exp1.png,exp2.png,trial_left_image,1,exp1.png,4,exp2.png,exp1.png,0,2,non-reversed,incorrect,0.2661699868099733,0,valid_lose,333.41016589989886,24,,,,,,,,,,,,,,,,sub_164,2022-11-22_16h38.27.524,Reversal,2022.1.2,60.04296676663168,4,
1,exp3.png,exp4.png,,3,0,3,0,0,1,1,1,,,,,,,,,,,,,,,,,,,,,,,,,False,61,62,True,exp4.png,exp3.png,trial_right_image,-1,exp3.png,4,exp4.png,exp3.png,0,4,reversed,incorrect,0.08949019502332634,1,invalid_win,337.2933403002098,25,,,,,,,,,,,,,,,,sub_164,2022-11-22_16h38.27.524,Reversal,2022.1.2,60.04296676663168,4,
2,exp1.png,exp2.png,,3,0,3,0,0,2,2,2,,,,,,,,,,,,,,,,,,,,,,,,,False,62,63,True,exp2.png,exp1.png,trial_left_image,1,exp2.png,4,exp2.png,exp1.png,1,1,non-reversed,correct,0.8023165089430055,1,valid_win,341.3931873999536,26,,,,,,,,,,,,,,,,sub_164,2022-11-22_16h38.27.524,Reversal,2022.1.2,60.04296676663168,4,
3,exp3.png,exp4.png,,3,0,3,0,0,3,3,3,,,,,,,,,,,,,,,,,,,,,,,,,False,63,64,False,exp3.png,exp4.png,trial_left_image,1,exp3.png,4,exp4.png,exp3.png,0,4,reversed,incorrect,0.2588892245062654,0,valid_lose,345.2432504002936,26,,,,,,,,,,,,,,,,sub_164,2022-11-22_16h38.27.524,Reversal,2022.1.2,60.04296676663168,4,
4,exp1.png,exp2.png,,3,0,3,0,0,4,4,4,,,,,,,,,,,,,,,,,,,,,,,,,False,64,65,True,exp2.png,exp1.png,trial_right_image,-1,exp1.png,4,exp2.png,exp1.png,0,2,non-reversed,incorrect,0.9294427558511897,0,valid_lose,349.0605693999678,26,,,,,,,,,,,,,,,,sub_164,2022-11-22_16h38.27.524,Reversal,2022.1.2,60.04296676663168,4,
5,exp3.png,exp4.png,,3,0,3,0,0,5,5,5,,,,,,,,,,,,,,,,,,,,,,,,,False,65,66,True,exp4.png,exp3.png,trial_left_image,1,exp4.png,4,exp4.png,exp3.png,1,3,reversed,correct,0.3571589814666526,1,valid_win,352.97675130004063,27,,,,,,,,,,,,,,,,sub_164,2022-11-22_16h38.27.524,Reversal,2022.1.2,60.04296676663168,4,
6,exp1.png,exp2.png,,3,0,3,0,0,6,6,6,,,,,,,,,,,,,,,,,,,,,,,,,False,66,67,False,exp1.png,exp2.png,trial_left_image,1,exp1.png,4,exp2.png,exp1.png,0,2,non-reversed,incorrect,0.9811905241950953,0,valid_lose,356.9763628002256,27,,,,,,,,,,,,,,,,sub_164,2022-11-22_16h38.27.524,Reversal,2022.1.2,60.04296676663168,4,
7,exp3.png,exp4.png,,3,0,3,0,0,7,7,7,,,,,,,,,,,,,,,,,,,,,,,,,False,67,68,True,exp4.png,exp3.png,trial_right_image,-1,exp3.png,4,exp4.png,exp3.png,0,4,reversed,incorrect,0.5577855272497785,0,valid_lose,360.7596721001901,27,,,,,,,,,,,,,,,,sub_164,2022-11-22_16h38.27.524,Reversal,2022.1.2,60.04296676663168,4,
8,exp1.png,exp2.png,,3,0,3,0,0,8,8,8,,,,,,,,,,,,,,,,,,,,,,,,,False,68,69,False,exp1.png,exp2.png,trial_left_image,1,exp1.png,4,exp2.png,exp1.png,0,2,non-reversed,incorrect,0.9518234071897982,0,valid_lose,364.59332560002804,27,,,,,,,,,,,,,,,,sub_164,2022-11-22_16h38.27.524,Reversal,2022.1.2,60.04296676663168,4,
9,exp3.png,exp4.png,,3,0,3,0,0,9,9,9,,,,,,,,,,,,,,,,,,,,,,,,,False,69,70,True,exp4.png,exp3.png,trial_right_image,-1,exp3.png,4,exp4.png,exp3.png,0,4,reversed,incorrect,0.7078450732195218,0,valid_lose,368.35939450003207,27,,,,,,,,,,,,,,,,sub_164,2022-11-22_16h38.27.524,Reversal,2022.1.2,60.04296676663168,4,
10,exp1.png,exp2.png,,3,0,3,0,0,10,10,10,,,,,,,,,,,,,,,,,,,,,,,,,False,70,71,False,exp1.png,exp2.png,trial_right_image,-1,exp2.png,4,exp2.png,exp1.png,1,1,non-reversed,correct,0.22120292471448733,0,invalid_lose,372.12621540017426,27,,,,,,,,,,,,,,,,sub_164,2022-11-22_16h38.27.524,Reversal,2022.1.2,60.04296676663168,4,
11,exp3.png,exp4.png,,3,0,3,0,0,11,11,11,,,,,,,,,,,,,,,,,,,,,,,,,False,71,72,False,exp3.png,exp4.png,trial_left_image,1,exp3.png,4,exp4.png,exp3.png,0,4,reversed,incorrect,0.5667872493982485,0,valid_lose,375.9100963999517,27,,,,,,,,,,,,,,,,sub_164,2022-11-22_16h38.27.524,Reversal,2022.1.2,60.04296676663168,4,
12,exp1.png,exp2.png,,3,0,3,0,0,12,12,12,,,,,,,,,,,,,,,,,,,,,,,,,False,72,73,False,exp1.png,exp2.png,trial_left_image,1,exp1.png,4,exp2.png,exp1.png,0,2,non-reversed,incorrect,0.5844597941859115,0,valid_lose,379.7263919999823,27,,,,,,,,,,,,,,,,sub_164,2022-11-22_16h38.27.524,Reversal,2022.1.2,60.04296676663168,4,
13,exp3.png,exp4.png,,3,0,3,0,0,13,13,13,,,,,,,,,,,,,,,,,,,,,,,,,False,73,74,True,exp4.png,exp3.png,trial_left_image,1,exp4.png,4,exp4.png,exp3.png,1,3,reversed,correct,0.7015211877707213,1,valid_win,383.4592663999647,28,,,,,,,,,,,,,,,,sub_164,2022-11-22_16h38.27.524,Reversal,2022.1.2,60.04296676663168,4,
14,exp1.png,exp2.png,,3,0,3,0,0,14,14,14,,,,,,,,,,,,,,,,,,,,,,,,,False,74,75,True,exp2.png,exp1.png,trial_left_image,1,exp2.png,4,exp2.png,exp1.png,1,1,non-reversed,correct,0.028986803987479992,0,invalid_lose,387.2591523001902,28,,,,,,,,,,,,,,,,sub_164,2022-11-22_16h38.27.524,Reversal,2022.1.2,60.04296676663168,4,
15,exp3.png,exp4.png,,3,0,3,0,0,15,15,15,,,,,,,,,,,,,,,,,,,,,,,,,False,75,76,False,exp3.png,exp4.png,trial_right_image,-1,exp4.png,4,exp4.png,exp3.png,1,3,reversed,correct,0.6850212696016992,1,valid_win,391.04316870030016,29,,,,,,,,,,,,,,,,sub_164,2022-11-22_16h38.27.524,Reversal,2022.1.2,60.04296676663168,4,
16,exp1.png,exp2.png,,3,0,3,0,0,16,16,16,,,,,,,,,,,,,,,,,,,,,,,,,False,76,77,True,exp2.png,exp1.png,trial_right_image,-1,exp1.png,4,exp2.png,exp1.png,0,2,non-reversed,incorrect,0.893014207552636,0,valid_lose,399.00887160003185,29,,,,,,,,,,,,,,,,sub_164,2022-11-22_16h38.27.524,Reversal,2022.1.2,60.04296676663168,4,
17,exp3.png,exp4.png,,3,0,3,0,0,17,17,17,,,,,,,,,,,,,,,,,,,,,,,,,False,77,78,False,exp3.png,exp4.png,trial_left_image,1,exp3.png,4,exp4.png,exp3.png,0,4,reversed,incorrect,0.2206716884263643,1,invalid_win,402.8760565002449,30,,,,,,,,,,,,,,,,sub_164,2022-11-22_16h38.27.524,Reversal,2022.1.2,60.04296676663168,4,
18,exp1.png,exp2.png,,3,0,3,0,0,18,18,18,,,,,,,,,,,,,,,,,,,,,,,,,False,78,79,True,exp2.png,exp1.png,trial_left_image,1,exp2.png,4,exp2.png,exp1.png,1,1,non-reversed,correct,0.8306573361590954,1,valid_win,406.9759566001594,31,,,,,,,,,,,,,,,,sub_164,2022-11-22_16h38.27.524,Reversal,2022.1.2,60.04296676663168,4,
19,exp3.png,exp4.png,,3,0,3,0,0,19,19,19,,,,,,,,,,,,,,,,,,,,,,,,,False,79,80,False,exp3.png,exp4.png,trial_right_image,-1,exp4.png,4,exp4.png,exp3.png,1,3,reversed,correct,0.8173253712121948,1,valid_win,410.8087140000425,32,,,,,,,,,,,,,,,,sub_164,2022-11-22_16h38.27.524,Reversal,2022.1.2,60.04296676663168,4,
20,exp1.png,exp2.png,,3,0,3,0,0,20,20,20,,,,,,,,,,,,,,,,,,,,,,,,,True,,,,,,,,,,,,,,,,,,,,,,,,,,,,,,,,,,,,sub_164,2022-11-22_16h38.27.524,Reversal,2022.1.2,60.04296676663168,4,
,,,exp1.png,3,0,3,0,,,,,0,0,0,0,0,0,0,0,,,,,,,,,,,,,,,,,,,,,,,,,,,,,,,,,,,,,,87.0,87.0,1.84823999973014,"[(87.0, 1.84823999973014)]",488.54007050022483,None,,,,,,,,,,sub_164,2022-11-22_16h38.27.524,Reversal,2022.1.2,60.04296676663168,4,
,,,exp2.png,3,0,3,0,,,,,0,0,0,0,0,1,1,1,,,,,,,,,,,,,,,,,,,,,,,,,,,,,,,,,,,,,,,50.0,None,[],490.94185610022396,None,,,,,,,,,,sub_164,2022-11-22_16h38.27.524,Reversal,2022.1.2,60.04296676663168,4,
,,,exp3.png,3,0,3,0,,,,,0,0,0,0,0,2,2,2,,,,,,,,,,,,,,,,,,,,,,,,,,,,,,,,,,,,,,,6.0,2.036460599862039,"[(14.0, 1.2543486999347806), (6.0, 2.036460599862039)]",491.3817432001233,None,,6.0,,,,,,,,sub_164,2022-11-22_16h38.27.524,Reversal,2022.1.2,60.04296676663168,4,
,,,exp4.png,3,0,3,0,,,,,0,0,0,0,0,3,3,3,,,,,,,,,,,,,,,,,,,,,,,,,,,,,,,,,,,,,,,80.0,1.2664168998599052,"[(80.0, 1.2664168998599052)]",494.51647620042786,None,,,80.0,,,,,,,sub_164,2022-11-22_16h38.27.524,Reversal,2022.1.2,60.04296676663168,4,
0,exp1.png,exp2.png,,,,,,,,,,,,,,,,,,0,0,0,0,0,0,0,0,,,,,,,,,False,0,81,True,exp2.png,exp1.png,trial_right_image,-1,exp1.png,4,exp2.png,exp1.png,0,2,non-reversed,incorrect,0.1758582893759233,1,invalid_win,422.8591265003197,33,,,,,,,,,,421.3697355003096,,,,,,sub_164,2022-11-22_16h38.27.524,Reversal,2022.1.2,60.04296676663168,4,
1,exp3.png,exp4.png,,,,,,,,,,,,,,,,,,0,0,0,0,0,1,1,1,,,,,,,,,False,1,82,True,exp4.png,exp3.png,trial_right_image,-1,exp3.png,4,exp3.png,exp4.png,0,4,reversed,correct,0.5657278476879186,1,valid_win,426.6920138001442,34,,,,,,,,,,,,,,,,sub_164,2022-11-22_16h38.27.524,Reversal,2022.1.2,60.04296676663168,4,
2,exp1.png,exp2.png,,,,,,,,,,,,,,,,,,0,0,0,0,0,2,2,2,,,,,,,,,False,2,83,False,exp1.png,exp2.png,trial_left_image,1,exp1.png,4,exp2.png,exp1.png,0,2,non-reversed,incorrect,0.5156140025828493,0,valid_lose,430.47491150023416,34,,,,,,,,,,,,,,,,sub_164,2022-11-22_16h38.27.524,Reversal,2022.1.2,60.04296676663168,4,
3,exp3.png,exp4.png,,,,,,,,,,,,,,,,,,0,0,0,0,0,3,3,3,,,,,,,,,False,3,84,True,exp4.png,exp3.png,trial_left_image,1,exp4.png,4,exp3.png,exp4.png,1,3,reversed,incorrect,0.2942258795884265,0,valid_lose,434.2751390002668,34,,,,,,,,,,,,,,,,sub_164,2022-11-22_16h38.27.524,Reversal,2022.1.2,60.04296676663168,4,
4,exp1.png,exp2.png,,,,,,,,,,,,,,,,,,0,0,0,0,0,4,4,4,,,,,,,,,False,4,85,True,exp2.png,exp1.png,trial_left_image,1,exp2.png,4,exp2.png,exp1.png,1,1,non-reversed,correct,0.2748860922562255,1,valid_win,438.0422535003163,35,,,,,,,,,,,,,,,,sub_164,2022-11-22_16h38.27.524,Reversal,2022.1.2,60.04296676663168,4,
5,exp3.png,exp4.png,,,,,,,,,,,,,,,,,,0,0,0,0,0,5,5,5,,,,,,,,,False,5,86,False,exp3.png,exp4.png,trial_left_image,1,exp3.png,4,exp3.png,exp4.png,0,4,reversed,correct,0.5999257033892793,1,valid_win,441.84133250033483,36,,,,,,,,,,,,,,,,sub_164,2022-11-22_16h38.27.524,Reversal,2022.1.2,60.04296676663168,4,
6,exp1.png,exp2.png,,,,,,,,,,,,,,,,,,0,0,0,0,0,6,6,6,,,,,,,,,False,6,87,True,exp2.png,exp1.png,trial_right_image,-1,exp1.png,4,exp2.png,exp1.png,0,2,non-reversed,incorrect,0.8377115424226681,0,valid_lose,445.59138060035184,36,,,,,,,,,,,,,,,,sub_164,2022-11-22_16h38.27.524,Reversal,2022.1.2,60.04296676663168,4,
7,exp3.png,exp4.png,,,,,,,,,,,,,,,,,,0,0,0,0,0,7,7,7,,,,,,,,,False,7,88,True,exp4.png,exp3.png,trial_right_image,-1,exp3.png,4,exp3.png,exp4.png,0,4,reversed,correct,0.568361850582733,1,valid_win,449.0076501001604,37,,,,,,,,,,,,,,,,sub_164,2022-11-22_16h38.27.524,Reversal,2022.1.2,60.04296676663168,4,
8,exp1.png,exp2.png,,,,,,,,,,,,,,,,,,0,0,0,0,0,8,8,8,,,,,,,,,False,8,89,False,exp1.png,exp2.png,trial_right_image,-1,exp2.png,4,exp2.png,exp1.png,1,1,non-reversed,correct,0.30166083068248173,1,valid_win,452.9248871002346,38,,,,,,,,,,,,,,,,sub_164,2022-11-22_16h38.27.524,Reversal,2022.1.2,60.04296676663168,4,
9,exp3.png,exp4.png,,,,,,,,,,,,,,,,,,0,0,0,0,0,9,9,9,,,,,,,,,False,9,90,True,exp4.png,exp3.png,trial_left_image,1,exp4.png,4,exp3.png,exp4.png,1,3,reversed,incorrect,0.38228950223929714,0,valid_lose,456.6910974001512,38,,,,,,,,,,,,,,,,sub_164,2022-11-22_16h38.27.524,Reversal,2022.1.2,60.04296676663168,4,
10,exp1.png,exp2.png,,,,,,,,,,,,,,,,,,0,0,0,0,0,10,10,10,,,,,,,,,False,10,91,False,exp1.png,exp2.png,trial_right_image,-1,exp2.png,4,exp2.png,exp1.png,1,1,non-reversed,correct,0.6714983804769353,1,valid_win,460.67493210034445,39,,,,,,,,,,,,,,,,sub_164,2022-11-22_16h38.27.524,Reversal,2022.1.2,60.04296676663168,4,
11,exp3.png,exp4.png,,,,,,,,,,,,,,,,,,0,0,0,0,0,11,11,11,,,,,,,,,False,11,92,False,exp3.png,exp4.png,trial_right_image,-1,exp4.png,4,exp3.png,exp4.png,1,3,reversed,incorrect,0.03742090972053469,1,invalid_win,464.55800219997764,40,,,,,,,,,,,,,,,,sub_164,2022-11-22_16h38.27.524,Reversal,2022.1.2,60.04296676663168,4,
12,exp1.png,exp2.png,,,,,,,,,,,,,,,,,,0,0,0,0,0,12,12,12,,,,,,,,,False,12,93,False,exp1.png,exp2.png,trial_left_image,1,exp1.png,4,exp2.png,exp1.png,0,2,non-reversed,incorrect,0.712457296692619,0,valid_lose,468.5743420999497,40,,,,,,,,,,,,,,,,sub_164,2022-11-22_16h38.27.524,Reversal,2022.1.2,60.04296676663168,4,
13,exp3.png,exp4.png,,,,,,,,,,,,,,,,,,0,0,0,0,0,13,13,13,,,,,,,,,False,13,94,False,exp3.png,exp4.png,trial_right_image,-1,exp4.png,4,exp3.png,exp4.png,1,3,reversed,incorrect,0.946868401553252,0,valid_lose,472.8913420001045,40,,,,,,,,,,,,,,,,sub_164,2022-11-22_16h38.27.524,Reversal,2022.1.2,60.04296676663168,4,
14,exp1.png,exp2.png,,,,,,,,,,,,,,,,,,0,0,0,0,0,14,14,14,,,,,,,,,False,14,95,True,exp2.png,exp1.png,trial_left_image,1,exp2.png,4,exp2.png,exp1.png,1,1,non-reversed,correct,0.36000151616959697,1,valid_win,476.724156900309,41,,,,,,,,,,,,,,,,sub_164,2022-11-22_16h38.27.524,Reversal,2022.1.2,60.04296676663168,4,
15,exp3.png,exp4.png,,,,,,,,,,,,,,,,,,0,0,0,0,0,15,15,15,,,,,,,,,False,15,96,False,exp3.png,exp4.png,trial_left_image,1,exp3.png,4,exp3.png,exp4.png,0,4,reversed,correct,0.3179452017838854,1,valid_win,480.6251822002232,42,,,,,,,,,,,,,,,,sub_164,2022-11-22_16h38.27.524,Reversal,2022.1.2,60.04296676663168,4,
16,exp1.png,exp2.png,,,,,,,,,,,,,,,,,,0,0,0,0,0,16,16,16,,,,,,,,,False,16,97,False,exp1.png,exp2.png,trial_left_image,1,exp1.png,4,exp2.png,exp1.png,0,2,non-reversed,incorrect,0.06607636450990007,1,invalid_win,484.45728219999,43,,,,,,,,,,,,,,,,sub_164,2022-11-22_16h38.27.524,Reversal,2022.1.2,60.04296676663168,4,
17,exp3.png,exp4.png,,,,,,,,,,,,,,,,,,0,0,0,0,0,17,17,17,,,,,,,,,False,17,98,False,exp3.png,exp4.png,trial_right_image,-1,exp4.png,4,exp3.png,exp4.png,1,3,reversed,incorrect,0.7163404572132233,0,valid_lose,488.42408649995923,43,,,,,,,,,,,,,,,,sub_164,2022-11-22_16h38.27.524,Reversal,2022.1.2,60.04296676663168,4,
18,exp1.png,exp2.png,,,,,,,,,,,,,,,,,,0,0,0,0,0,18,18,18,,,,,,,,,False,18,99,True,exp2.png,exp1.png,trial_left_image,1,exp2.png,4,exp2.png,exp1.png,1,1,non-reversed,correct,0.5162301931806241,1,valid_win,492.29114100011066,44,,,,,,,,,,,,,,,,sub_164,2022-11-22_16h38.27.524,Reversal,2022.1.2,60.04296676663168,4,
19,exp3.png,exp4.png,,,,,,,,,,,,,,,,,,0,0,0,0,0,19,19,19,,,,,,,,,False,19,100,True,exp4.png,exp3.png,trial_right_image,-1,exp3.png,4,exp3.png,exp4.png,0,4,reversed,correct,0.6253393148987398,1,valid_win,496.6068628001958,45,,,,,,,,,,,,,,,,sub_164,2022-11-22_16h38.27.524,Reversal,2022.1.2,60.04296676663168,4,
20,exp1.png,exp2.png,,,,,,,,,,,,,,,,,,0,0,0,0,0,20,20,20,,,,,,,,,True,,,,,,,,,,,,,,,,,,,,,,,,,,,,,,,,,,,,sub_164,2022-11-22_16h38.27.524,Reversal,2022.1.2,60.04296676663168,4,
,,,exp1.png,,,,,,,,,,,,,,,,,0,0,0,0,,,,,0,0,0,0,0,0,0,0,,,,,,,,,,,,,,,,,,,,,,14.0,14.0,1.630816100165248,"[(14.0, 1.630816100165248)]",574.3384411004372,None,,,,,,,,,,sub_164,2022-11-22_16h38.27.524,Reversal,2022.1.2,60.04296676663168,4,
,,,exp2.png,,,,,,,,,,,,,,,,,0,0,0,0,,,,,0,0,0,0,0,1,1,1,,,,,,,,,,,,,,,,,,,,,,,84.0,2.602388500235975,"[(84.0, 2.602388500235975)]",577.0307800001465,None,84.0,,,,,,,,,sub_164,2022-11-22_16h38.27.524,Reversal,2022.1.2,60.04296676663168,4,
,,,exp3.png,,,,,,,,,,,,,,,,,0,0,0,0,,,,,0,0,0,0,0,2,2,2,,,,,,,,,,,,,,,,,,,,,,,7.0,2.0323556000366807,"[(41.0, 0.9858396998606622), (7.0, 2.0323556000366807)]",581.099629800301,None,,7.0,,,,,,,,sub_164,2022-11-22_16h38.27.524,Reversal,2022.1.2,60.04296676663168,4,
,,,exp4.png,,,,,,,,,,,,,,,,,0,0,0,0,,,,,0,0,0,0,0,3,3,3,,,,,,,,,,,,,,,,,,,,,,,15.0,1.4175073001533747,"[(15.0, 1.4175073001533747)]",584.080244100187,None,,,15.0,,,,,,,sub_164,2022-11-22_16h38.27.524,Reversal,2022.1.2,60.04296676663168,4,
0,exp1.png,exp2.png,,,,,,,,,,,,,,,,,,1,0,1,0,0,0,0,0,,,,,,,,,False,20,101,True,exp2.png,exp1.png,trial_right_image,-1,exp1.png,4,exp2.png,exp1.png,0,2,non-reversed,incorrect,0.7449569146941012,0,valid_lose,513.2237378000282,45,,,,,,,,,,,,,,,,sub_164,2022-11-22_16h38.27.524,Reversal,2022.1.2,60.04296676663168,4,
1,exp3.png,exp4.png,,,,,,,,,,,,,,,,,,1,0,1,0,0,1,1,1,,,,,,,,,False,21,102,True,exp4.png,exp3.png,trial_right_image,-1,exp3.png,4,exp3.png,exp4.png,0,4,reversed,correct,0.13880584815249764,0,invalid_lose,517.7566487002186,45,,,,,,,,,,,,,,,,sub_164,2022-11-22_16h38.27.524,Reversal,2022.1.2,60.04296676663168,4,
2,exp1.png,exp2.png,,,,,,,,,,,,,,,,,,1,0,1,0,0,2,2,2,,,,,,,,,False,22,103,False,exp1.png,exp2.png,trial_left_image,1,exp1.png,4,exp2.png,exp1.png,0,2,non-reversed,incorrect,0.607312893023394,0,valid_lose,521.8407161002979,45,,,,,,,,,,,,,,,,sub_164,2022-11-22_16h38.27.524,Reversal,2022.1.2,60.04296676663168,4,
3,exp3.png,exp4.png,,,,,,,,,,,,,,,,,,1,0,1,0,0,3,3,3,,,,,,,,,False,23,104,True,exp4.png,exp3.png,trial_left_image,1,exp4.png,4,exp3.png,exp4.png,1,3,reversed,incorrect,0.6463472550157794,0,valid_lose,527.1613880000077,45,,,,,,,,,,,,,,,,sub_164,2022-11-22_16h38.27.524,Reversal,2022.1.2,60.04296676663168,4,
4,exp1.png,exp2.png,,,,,,,,,,,,,,,,,,1,0,1,0,0,4,4,4,,,,,,,,,False,24,105,True,exp2.png,exp1.png,trial_right_image,-1,exp1.png,4,exp2.png,exp1.png,0,2,non-reversed,incorrect,0.4086624256049075,0,valid_lose,530.9233782002702,45,,,,,,,,,,,,,,,,sub_164,2022-11-22_16h38.27.524,Reversal,2022.1.2,60.04296676663168,4,
5,exp3.png,exp4.png,,,,,,,,,,,,,,,,,,1,0,1,0,0,5,5,5,,,,,,,,,False,25,106,True,exp4.png,exp3.png,trial_right_image,-1,exp3.png,4,exp3.png,exp4.png,0,4,reversed,correct,0.8285532584443002,1,valid_win,534.789801100269,46,,,,,,,,,,,,,,,,sub_164,2022-11-22_16h38.27.524,Reversal,2022.1.2,60.04296676663168,4,
6,exp1.png,exp2.png,,,,,,,,,,,,,,,,,,1,0,1,0,0,6,6,6,,,,,,,,,False,26,107,False,exp1.png,exp2.png,trial_left_image,1,exp1.png,4,exp2.png,exp1.png,0,2,non-reversed,incorrect,0.9492796738354171,0,valid_lose,538.6231303000823,46,,,,,,,,,,,,,,,,sub_164,2022-11-22_16h38.27.524,Reversal,2022.1.2,60.04296676663168,4,
7,exp3.png,exp4.png,,,,,,,,,,,,,,,,,,1,0,1,0,0,7,7,7,,,,,,,,,False,27,108,True,exp4.png,exp3.png,trial_right_image,-1,exp3.png,4,exp3.png,exp4.png,0,4,reversed,correct,0.5102015029201278,1,valid_win,542.4566397001036,47,,,,,,,,,,,,,,,,sub_164,2022-11-22_16h38.27.524,Reversal,2022.1.2,60.04296676663168,4,
8,exp1.png,exp2.png,,,,,,,,,,,,,,,,,,1,0,1,0,0,8,8,8,,,,,,,,,False,28,109,True,exp2.png,exp1.png,trial_right_image,-1,exp1.png,4,exp2.png,exp1.png,0,2,non-reversed,incorrect,0.07191674445972929,1,invalid_win,546.3560607000254,48,,,,,,,,,,,,,,,,sub_164,2022-11-22_16h38.27.524,Reversal,2022.1.2,60.04296676663168,4,
9,exp3.png,exp4.png,,,,,,,,,,,,,,,,,,1,0,1,0,0,9,9,9,,,,,,,,,False,29,110,False,exp3.png,exp4.png,trial_right_image,-1,exp4.png,4,exp3.png,exp4.png,1,3,reversed,incorrect,0.9866556580938872,0,valid_lose,550.1393614001572,48,,,,,,,,,,,,,,,,sub_164,2022-11-22_16h38.27.524,Reversal,2022.1.2,60.04296676663168,4,
10,exp1.png,exp2.png,,,,,,,,,,,,,,,,,,1,0,1,0,0,10,10,10,,,,,,,,,False,30,111,False,exp1.png,exp2.png,trial_left_image,1,exp1.png,4,exp2.png,exp1.png,0,2,non-reversed,incorrect,0.778989678723108,0,valid_lose,553.1899671000428,48,,,,,,,,,,,,,,,,sub_164,2022-11-22_16h38.27.524,Reversal,2022.1.2,60.04296676663168,4,
11,exp3.png,exp4.png,,,,,,,,,,,,,,,,,,1,0,1,0,0,11,11,11,,,,,,,,,False,31,112,True,exp4.png,exp3.png,trial_right_image,-1,exp3.png,4,exp3.png,exp4.png,0,4,reversed,correct,0.3759871278718637,1,valid_win,557.1061422000639,49,,,,,,,,,,,,,,,,sub_164,2022-11-22_16h38.27.524,Reversal,2022.1.2,60.04296676663168,4,
12,exp1.png,exp2.png,,,,,,,,,,,,,,,,,,1,0,1,0,0,12,12,12,,,,,,,,,False,32,113,False,exp1.png,exp2.png,trial_left_image,1,exp1.png,4,exp2.png,exp1.png,0,2,non-reversed,incorrect,0.7304002293974549,0,valid_lose,561.1568203000352,49,,,,,,,,,,,,,,,,sub_164,2022-11-22_16h38.27.524,Reversal,2022.1.2,60.04296676663168,4,
13,exp3.png,exp4.png,,,,,,,,,,,,,,,,,,1,0,1,0,0,13,13,13,,,,,,,,,False,33,114,False,exp3.png,exp4.png,trial_right_image,-1,exp4.png,4,exp3.png,exp4.png,1,3,reversed,incorrect,0.9153587777554361,0,valid_lose,565.0562237002887,49,,,,,,,,,,,,,,,,sub_164,2022-11-22_16h38.27.524,Reversal,2022.1.2,60.04296676663168,4,
14,exp1.png,exp2.png,,,,,,,,,,,,,,,,,,1,0,1,0,0,14,14,14,,,,,,,,,False,34,115,False,exp1.png,exp2.png,trial_right_image,-1,exp2.png,4,exp2.png,exp1.png,1,1,non-reversed,correct,0.1513844897415868,0,invalid_lose,568.3392147002742,49,,,,,,,,,,,,,,,,sub_164,2022-11-22_16h38.27.524,Reversal,2022.1.2,60.04296676663168,4,
15,exp3.png,exp4.png,,,,,,,,,,,,,,,,,,1,0,1,0,0,15,15,15,,,,,,,,,False,35,116,False,exp3.png,exp4.png,trial_right_image,-1,exp4.png,4,exp3.png,exp4.png,1,3,reversed,incorrect,0.7901065983464319,0,valid_lose,572.1391418003477,49,,,,,,,,,,,,,,,,sub_164,2022-11-22_16h38.27.524,Reversal,2022.1.2,60.04296676663168,4,
16,exp1.png,exp2.png,,,,,,,,,,,,,,,,,,1,0,1,0,0,16,16,16,,,,,,,,,False,36,117,True,exp2.png,exp1.png,trial_right_image,-1,exp1.png,4,exp2.png,exp1.png,0,2,non-reversed,incorrect,0.6892144758478429,0,valid_lose,575.8725290000439,49,,,,,,,,,,,,,,,,sub_164,2022-11-22_16h38.27.524,Reversal,2022.1.2,60.04296676663168,4,
17,exp3.png,exp4.png,,,,,,,,,,,,,,,,,,1,0,1,0,0,17,17,17,,,,,,,,,False,37,118,True,exp4.png,exp3.png,trial_left_image,1,exp4.png,4,exp3.png,exp4.png,1,3,reversed,incorrect,0.02578447214320634,1,invalid_win,579.622487900313,50,,,,,,,,,,,,,,,,sub_164,2022-11-22_16h38.27.524,Reversal,2022.1.2,60.04296676663168,4,
18,exp1.png,exp2.png,,,,,,,,,,,,,,,,,,1,0,1,0,0,18,18,18,,,,,,,,,False,38,119,False,exp1.png,exp2.png,trial_left_image,1,exp1.png,4,exp2.png,exp1.png,0,2,non-reversed,incorrect,0.7742133075035283,0,valid_lose,583.5055098002777,50,,,,,,,,,,,,,,,,sub_164,2022-11-22_16h38.27.524,Reversal,2022.1.2,60.04296676663168,4,
19,exp3.png,exp4.png,,,,,,,,,,,,,,,,,,1,0,1,0,0,19,19,19,,,,,,,,,False,39,120,False,exp3.png,exp4.png,trial_right_image,-1,exp4.png,4,exp3.png,exp4.png,1,3,reversed,incorrect,0.3780437729041445,0,valid_lose,587.289149499964,50,,,,,,,,,,,,,,,,sub_164,2022-11-22_16h38.27.524,Reversal,2022.1.2,60.04296676663168,4,
20,exp1.png,exp2.png,,,,,,,,,,,,,,,,,,1,0,1,0,0,20,20,20,,,,,,,,,True,,,,,,,,,,,,,,,,,,,,,,,,,,,,,,,,,,,,sub_164,2022-11-22_16h38.27.524,Reversal,2022.1.2,60.04296676663168,4,
,,,exp1.png,,,,,,,,,,,,,,,,,1,0,1,0,,,,,0,0,0,0,0,0,0,0,,,,,,,,,,,,,,,,,,,,,,97.0,97.0,1.7469750000163913,"[(97.0, 1.7469750000163913)]",665.0209429999813,None,,,,,,,,,,sub_164,2022-11-22_16h38.27.524,Reversal,2022.1.2,60.04296676663168,4,
,,,exp2.png,,,,,,,,,,,,,,,,,1,0,1,0,,,,,0,0,0,0,0,1,1,1,,,,,,,,,,,,,,,,,,,,,,,3.0,1.8843792001716793,"[(3.0, 1.7343739001080394), (3.0, 1.8843792001716793)]",668.0119333001785,None,3.0,,,,,,,,,sub_164,2022-11-22_16h38.27.524,Reversal,2022.1.2,60.04296676663168,4,
,,,exp3.png,,,,,,,,,,,,,,,,,1,0,1,0,,,,,0,0,0,0,0,2,2,2,,,,,,,,,,,,,,,,,,,,,,,81.0,2.2510509002022445,"[(81.0, 2.2510509002022445)]",670.8124343003146,None,,81.0,,,,,,,,sub_164,2022-11-22_16h38.27.524,Reversal,2022.1.2,60.04296676663168,4,
,,,exp4.png,,,,,,,,,,,,,,,,,1,0,1,0,,,,,0,0,0,0,0,3,3,3,,,,,,,,,,,,,,,,,,,,,,,17.0,1.6678785001859069,"[(17.0, 1.6678785001859069)]",673.9638610002585,None,,,17.0,,,,,,,sub_164,2022-11-22_16h38.27.524,Reversal,2022.1.2,60.04296676663168,4,
0,exp1.png,exp2.png,,,,,,,,,,,,,,,,,,2,0,2,0,0,0,0,0,,,,,,,,,False,40,121,False,exp1.png,exp2.png,trial_left_image,1,exp1.png,4,exp2.png,exp1.png,0,2,non-reversed,incorrect,0.6760761353921668,0,valid_lose,604.0055527002551,50,,,,,,,,,,,,,,,,sub_164,2022-11-22_16h38.27.524,Reversal,2022.1.2,60.04296676663168,4,
1,exp3.png,exp4.png,,,,,,,,,,,,,,,,,,2,0,2,0,0,1,1,1,,,,,,,,,False,41,122,False,exp3.png,exp4.png,trial_right_image,-1,exp4.png,4,exp3.png,exp4.png,1,3,reversed,incorrect,0.1642583946777385,1,invalid_win,608.0388096999377,51,,,,,,,,,,,,,,,,sub_164,2022-11-22_16h38.27.524,Reversal,2022.1.2,60.04296676663168,4,
2,exp1.png,exp2.png,,,,,,,,,,,,,,,,,,2,0,2,0,0,2,2,2,,,,,,,,,False,42,123,True,exp2.png,exp1.png,trial_right_image,-1,exp1.png,4,exp2.png,exp1.png,0,2,non-reversed,incorrect,0.7005502337560308,0,valid_lose,612.0550123001449,51,,,,,,,,,,,,,,,,sub_164,2022-11-22_16h38.27.524,Reversal,2022.1.2,60.04296676663168,4,
3,exp3.png,exp4.png,,,,,,,,,,,,,,,,,,2,0,2,0,0,3,3,3,,,,,,,,,False,43,124,True,exp4.png,exp3.png,trial_left_image,1,exp4.png,4,exp3.png,exp4.png,1,3,reversed,incorrect,0.352575987894729,0,valid_lose,615.9557034000754,51,,,,,,,,,,,,,,,,sub_164,2022-11-22_16h38.27.524,Reversal,2022.1.2,60.04296676663168,4,
4,exp1.png,exp2.png,,,,,,,,,,,,,,,,,,2,0,2,0,0,4,4,4,,,,,,,,,False,44,125,False,exp1.png,exp2.png,trial_left_image,1,exp1.png,4,exp2.png,exp1.png,0,2,non-reversed,incorrect,0.2032257172197759,1,invalid_win,619.7223642002791,52,,,,,,,,,,,,,,,,sub_164,2022-11-22_16h38.27.524,Reversal,2022.1.2,60.04296676663168,4,
5,exp3.png,exp4.png,,,,,,,,,,,,,,,,,,2,0,2,0,0,5,5,5,,,,,,,,,False,45,126,True,exp4.png,exp3.png,trial_left_image,1,exp4.png,4,exp3.png,exp4.png,1,3,reversed,incorrect,0.5390421500082848,0,valid_lose,623.5384283000603,52,,,,,,,,,,,,,,,,sub_164,2022-11-22_16h38.27.524,Reversal,2022.1.2,60.04296676663168,4,
6,exp1.png,exp2.png,,,,,,,,,,,,,,,,,,2,0,2,0,0,6,6,6,,,,,,,,,False,46,127,False,exp1.png,exp2.png,trial_left_image,1,exp1.png,4,exp2.png,exp1.png,0,2,non-reversed,incorrect,0.9881197270207113,0,valid_lose,627.421353300102,52,,,,,,,,,,,,,,,,sub_164,2022-11-22_16h38.27.524,Reversal,2022.1.2,60.04296676663168,4,
7,exp3.png,exp4.png,,,,,,,,,,,,,,,,,,2,0,2,0,0,7,7,7,,,,,,,,,False,47,128,True,exp4.png,exp3.png,trial_right_image,-1,exp3.png,4,exp3.png,exp4.png,0,4,reversed,correct,0.6338809101938501,1,valid_win,631.2715619001538,53,,,,,,,,,,,,,,,,sub_164,2022-11-22_16h38.27.524,Reversal,2022.1.2,60.04296676663168,4,
8,exp1.png,exp2.png,,,,,,,,,,,,,,,,,,2,0,2,0,0,8,8,8,,,,,,,,,False,48,129,False,exp1.png,exp2.png,trial_right_image,-1,exp2.png,4,exp2.png,exp1.png,1,1,non-reversed,correct,0.7561383809515013,1,valid_win,635.1050829002634,54,,,,,,,,,,,,,,,,sub_164,2022-11-22_16h38.27.524,Reversal,2022.1.2,60.04296676663168,4,
9,exp3.png,exp4.png,,,,,,,,,,,,,,,,,,2,0,2,0,0,9,9,9,,,,,,,,,False,49,130,True,exp4.png,exp3.png,trial_right_image,-1,exp3.png,4,exp3.png,exp4.png,0,4,reversed,correct,0.7011418779779527,1,valid_win,638.9379245000891,55,,,,,,,,,,,,,,,,sub_164,2022-11-22_16h38.27.524,Reversal,2022.1.2,60.04296676663168,4,
10,exp1.png,exp2.png,,,,,,,,,,,,,,,,,,2,0,2,0,0,10,10,10,,,,,,,,,False,50,131,False,exp1.png,exp2.png,trial_left_image,1,exp1.png,4,exp2.png,exp1.png,0,2,non-reversed,incorrect,0.4218783992856022,0,valid_lose,643.0383449001238,55,,,,,,,,,,,,,,,,sub_164,2022-11-22_16h38.27.524,Reversal,2022.1.2,60.04296676663168,4,
11,exp3.png,exp4.png,,,,,,,,,,,,,,,,,,2,0,2,0,0,11,11,11,,,,,,,,,False,51,132,False,exp3.png,exp4.png,trial_right_image,-1,exp4.png,4,exp3.png,exp4.png,1,3,reversed,incorrect,0.4718637464912,0,valid_lose,646.8721036002971,55,,,,,,,,,,,,,,,,sub_164,2022-11-22_16h38.27.524,Reversal,2022.1.2,60.04296676663168,4,
12,exp1.png,exp2.png,,,,,,,,,,,,,,,,,,2,0,2,0,0,12,12,12,,,,,,,,,False,52,133,False,exp1.png,exp2.png,trial_left_image,1,exp1.png,4,exp2.png,exp1.png,0,2,non-reversed,incorrect,0.6037746425323733,0,valid_lose,650.6377721000463,55,,,,,,,,,,,,,,,,sub_164,2022-11-22_16h38.27.524,Reversal,2022.1.2,60.04296676663168,4,
13,exp3.png,exp4.png,,,,,,,,,,,,,,,,,,2,0,2,0,0,13,13,13,,,,,,,,,False,53,134,False,exp3.png,exp4.png,trial_right_image,-1,exp4.png,4,exp3.png,exp4.png,1,3,reversed,incorrect,0.6720741066144926,0,valid_lose,654.5547485002317,55,,,,,,,,,,,,,,,,sub_164,2022-11-22_16h38.27.524,Reversal,2022.1.2,60.04296676663168,4,
14,exp1.png,exp2.png,,,,,,,,,,,,,,,,,,2,0,2,0,0,14,14,14,,,,,,,,,False,54,135,False,exp1.png,exp2.png,trial_right_image,-1,exp2.png,4,exp2.png,exp1.png,1,1,non-reversed,correct,0.46956117990056434,1,valid_win,658.3878136002459,56,,,,,,,,,,,,,,,,sub_164,2022-11-22_16h38.27.524,Reversal,2022.1.2,60.04296676663168,4,
15,exp3.png,exp4.png,,,,,,,,,,,,,,,,,,2,0,2,0,0,15,15,15,,,,,,,,,False,55,136,True,exp4.png,exp3.png,trial_right_image,-1,exp3.png,4,exp3.png,exp4.png,0,4,reversed,correct,0.37826452496619756,1,valid_win,662.254036700353,57,,,,,,,,,,,,,,,,sub_164,2022-11-22_16h38.27.524,Reversal,2022.1.2,60.04296676663168,4,
16,exp1.png,exp2.png,,,,,,,,,,,,,,,,,,2,0,2,0,0,16,16,16,,,,,,,,,False,56,137,True,exp2.png,exp1.png,trial_right_image,-1,exp1.png,4,exp2.png,exp1.png,0,2,non-reversed,incorrect,0.31172197111018896,0,valid_lose,670.9205549000762,57,,,,,,,,,,,,,,,,sub_164,2022-11-22_16h38.27.524,Reversal,2022.1.2,60.04296676663168,4,
17,exp3.png,exp4.png,,,,,,,,,,,,,,,,,,2,0,2,0,0,17,17,17,,,,,,,,,False,57,138,True,exp4.png,exp3.png,trial_left_image,1,exp4.png,4,exp3.png,exp4.png,1,3,reversed,incorrect,0.04088048538979405,1,invalid_win,674.9380454001948,58,,,,,,,,,,,,,,,,sub_164,2022-11-22_16h38.27.524,Reversal,2022.1.2,60.04296676663168,4,
18,exp1.png,exp2.png,,,,,,,,,,,,,,,,,,2,0,2,0,0,18,18,18,,,,,,,,,False,58,139,True,exp2.png,exp1.png,trial_left_image,1,exp2.png,4,exp2.png,exp1.png,1,1,non-reversed,correct,0.21290299378566369,0,invalid_lose,678.8716394999065,58,,,,,,,,,,,,,,,,sub_164,2022-11-22_16h38.27.524,Reversal,2022.1.2,60.04296676663168,4,
19,exp3.png,exp4.png,,,,,,,,,,,,,,,,,,2,0,2,0,0,19,19,19,,,,,,,,,False,59,140,True,exp4.png,exp3.png,trial_right_image,-1,exp3.png,4,exp3.png,exp4.png,0,4,reversed,correct,0.7635075481381336,1,valid_win,682.6874838001095,59,,,,,,,,,,,,,,,,sub_164,2022-11-22_16h38.27.524,Reversal,2022.1.2,60.04296676663168,4,
20,exp1.png,exp2.png,,,,,,,,,,,,,,,,,,2,0,2,0,0,20,20,20,,,,,,,,,True,,,,,,,,,,,,,,,,,,,,,,,,,,,,,,,,,,,,sub_164,2022-11-22_16h38.27.524,Reversal,2022.1.2,60.04296676663168,4,
,,,exp1.png,,,,,,,,,,,,,,,,,2,0,2,0,,,,,0,0,0,0,0,0,0,0,,,,,,,,,,,,,,,,,,,,,,14.0,14.0,1.587147300131619,"[(14.0, 1.587147300131619)]",760.4279006002471,None,,,,,,,,,,sub_164,2022-11-22_16h38.27.524,Reversal,2022.1.2,60.04296676663168,4,
,,,exp2.png,,,,,,,,,,,,,,,,,2,0,2,0,,,,,0,0,0,0,0,1,1,1,,,,,,,,,,,,,,,,,,,,,,,10.0,1.0512156998738647,"[(10.0, 1.0512156998738647)]",763.3283007000573,None,10.0,,,,,,,,,sub_164,2022-11-22_16h38.27.524,Reversal,2022.1.2,60.04296676663168,4,
,,,exp3.png,,,,,,,,,,,,,,,,,2,0,2,0,,,,,0,0,0,0,0,2,2,2,,,,,,,,,,,,,,,,,,,,,,,82.0,1.0184480999596417,"[(82.0, 1.0184480999596417)]",765.3810494001955,None,,82.0,,,,,,,,sub_164,2022-11-22_16h38.27.524,Reversal,2022.1.2,60.04296676663168,4,
,,,exp4.png,,,,,,,,,,,,,,,,,2,0,2,0,,,,,0,0,0,0,0,3,3,3,,,,,,,,,,,,,,,,,,,,,,,94.0,1.3336483999155462,"[(94.0, 1.3336483999155462)]",767.3446181002073,None,,,94.0,,,,,,,sub_164,2022-11-22_16h38.27.524,Reversal,2022.1.2,60.04296676663168,4,
,,,,,,,,,,,,,,,,,,,,,,,,,,,,,,,,,,,,,,,,,,,,,,,,,,,,,,,,59,,,,,,,,,,,58,36,22,273.11910989973694,1,,,,,,,
