trial_index,trial_image1_file,trial_image2_file,image_file,learning_outer_loop.thisRepN,learning_outer_loop.thisTrialN,learning_outer_loop.thisN,learning_outer_loop.thisIndex,learning_inner_loop.thisRepN,learning_inner_loop.thisTrialN,learning_inner_loop.thisN,learning_inner_loop.thisIndex,learning_estimation_outer_loop.thisRepN,learning_estimation_outer_loop.thisTrialN,learning_estimation_outer_loop.thisN,learning_estimation_outer_loop.thisIndex,learning_estimation_inner_loop.thisRepN,learning_estimation_inner_loop.thisTrialN,learning_estimation_inner_loop.thisN,learning_estimation_inner_loop.thisIndex,reversal_outer_loop.thisRepN,reversal_outer_loop.thisTrialN,reversal_outer_loop.thisN,reversal_outer_loop.thisIndex,reversal_inner_loop.thisRepN,reversal_inner_loop.thisTrialN,reversal_inner_loop.thisN,reversal_inner_loop.thisIndex,reversal_estimation_outer_loop.thisRepN,reversal_estimation_outer_loop.thisTrialN,reversal_estimation_outer_loop.thisN,reversal_estimation_outer_loop.thisIndex,reversal_estimation_inner_loop.thisRepN,reversal_estimation_inner_loop.thisTrialN,reversal_estimation_inner_loop.thisN,reversal_estimation_inner_loop.thisIndex,skipped,total_trial_counter,trial_num,left_right_flip,left_image_file,right_image_file,clicked_stimulus_side,side,clicked_stimulus,version,high_prob_image_file,low_prob_image_file,choice_a,choice_b,pair_type,correct,trial_feedback_random,reward,trial_type,overall_time_after_trial,score,estimation_rating.started,estimation_exp1.png,estimation_rating.response,estimation_rating.rt,estimation_rating.history,estimation_exp2.png,estimation_exp3.png,estimation_exp4.png,total_learning_time,total_correct,learning_correct,reversal_correct,total_reversal_time,extra_block,end_experiment.keys,end_experiment.rt,end_experiment.duration,participant,date,expName,psychopyVersion,frameRate,ver,
0,exp1.png,exp2.png,,0,0,0,0,0,0,0,0,,,,,,,,,,,,,,,,,,,,,,,,,True,,,,,,,,,,,,,,,,,,,,,,,,,,,,,,,,,,,,,,sub_357,2024-03-01_09h40.07.755,Reversal,2023.1.3,60.028909923131614,1,
1,exp3.png,exp4.png,,0,0,0,0,0,1,1,1,,,,,,,,,,,,,,,,,,,,,,,,,False,0,1,True,exp4.png,exp3.png,trial_left_image,1,exp4.png,1,exp3.png,exp4.png,0,2,non-reversed,incorrect,0.9690213784528773,0,valid_lose,7.413469200000236,0,,,,,,,,,,,,,,,,,,sub_357,2024-03-01_09h40.07.755,Reversal,2023.1.3,60.028909923131614,1,
2,exp1.png,exp2.png,,0,0,0,0,0,2,2,2,,,,,,,,,,,,,,,,,,,,,,,,,False,1,2,True,exp2.png,exp1.png,trial_right_image,-1,exp1.png,1,exp1.png,exp2.png,1,3,reversed,correct,0.11055321812812957,0,invalid_lose,18.792126700000154,0,,,,,,,,,,,,,,,,,,sub_357,2024-03-01_09h40.07.755,Reversal,2023.1.3,60.028909923131614,1,
3,exp3.png,exp4.png,,0,0,0,0,0,3,3,3,,,,,,,,,,,,,,,,,,,,,,,,,False,2,3,True,exp4.png,exp3.png,trial_left_image,1,exp4.png,1,exp3.png,exp4.png,0,2,non-reversed,incorrect,0.1838846284567357,1,invalid_win,29.888760000000275,1,,,,,,,,,,,,,,,,,,sub_357,2024-03-01_09h40.07.755,Reversal,2023.1.3,60.028909923131614,1,
4,exp1.png,exp2.png,,0,0,0,0,0,4,4,4,,,,,,,,,,,,,,,,,,,,,,,,,False,3,4,False,exp1.png,exp2.png,trial_right_image,-1,exp2.png,1,exp1.png,exp2.png,0,4,reversed,incorrect,0.9542436757715763,0,valid_lose,35.25372580000021,1,,,,,,,,,,,,,,,,,,sub_357,2024-03-01_09h40.07.755,Reversal,2023.1.3,60.028909923131614,1,
5,exp3.png,exp4.png,,0,0,0,0,0,5,5,5,,,,,,,,,,,,,,,,,,,,,,,,,False,4,5,False,exp3.png,exp4.png,trial_right_image,-1,exp4.png,1,exp3.png,exp4.png,0,2,non-reversed,incorrect,0.2234888938645716,1,invalid_win,46.365966899999876,2,,,,,,,,,,,,,,,,,,sub_357,2024-03-01_09h40.07.755,Reversal,2023.1.3,60.028909923131614,1,
6,exp1.png,exp2.png,,0,0,0,0,0,6,6,6,,,,,,,,,,,,,,,,,,,,,,,,,False,5,6,False,exp1.png,exp2.png,trial_left_image,1,exp1.png,1,exp1.png,exp2.png,1,3,reversed,correct,0.6989380763165506,1,valid_win,51.814714000000095,3,,,,,,,,,,,,,,,,,,sub_357,2024-03-01_09h40.07.755,Reversal,2023.1.3,60.028909923131614,1,
7,exp3.png,exp4.png,,0,0,0,0,0,7,7,7,,,,,,,,,,,,,,,,,,,,,,,,,False,6,7,True,exp4.png,exp3.png,trial_right_image,-1,exp3.png,1,exp3.png,exp4.png,1,1,non-reversed,correct,0.0534051848751359,0,invalid_lose,61.094974099999945,3,,,,,,,,,,,,,,,,,,sub_357,2024-03-01_09h40.07.755,Reversal,2023.1.3,60.028909923131614,1,
8,exp1.png,exp2.png,,0,0,0,0,0,8,8,8,,,,,,,,,,,,,,,,,,,,,,,,,False,7,8,False,exp1.png,exp2.png,trial_right_image,-1,exp2.png,1,exp1.png,exp2.png,0,4,reversed,incorrect,0.028379584493013255,1,invalid_win,66.05963199999997,4,,,,,,,,,,,,,,,,,,sub_357,2024-03-01_09h40.07.755,Reversal,2023.1.3,60.028909923131614,1,
9,exp3.png,exp4.png,,0,0,0,0,0,9,9,9,,,,,,,,,,,,,,,,,,,,,,,,,False,8,9,True,exp4.png,exp3.png,trial_right_image,-1,exp3.png,1,exp3.png,exp4.png,1,1,non-reversed,correct,0.24250743901605398,0,invalid_lose,71.77421129999993,4,,,,,,,,,,,,,,,,,,sub_357,2024-03-01_09h40.07.755,Reversal,2023.1.3,60.028909923131614,1,
10,exp1.png,exp2.png,,0,0,0,0,0,10,10,10,,,,,,,,,,,,,,,,,,,,,,,,,False,9,10,False,exp1.png,exp2.png,trial_right_image,-1,exp2.png,1,exp1.png,exp2.png,0,4,reversed,incorrect,0.6393628351394851,0,valid_lose,76.25609230000009,4,,,,,,,,,,,,,,,,,,sub_357,2024-03-01_09h40.07.755,Reversal,2023.1.3,60.028909923131614,1,
11,exp3.png,exp4.png,,0,0,0,0,0,11,11,11,,,,,,,,,,,,,,,,,,,,,,,,,False,10,11,True,exp4.png,exp3.png,trial_right_image,-1,exp3.png,1,exp3.png,exp4.png,1,1,non-reversed,correct,0.9149273918456198,1,valid_win,80.52092859999993,5,,,,,,,,,,,,,,,,,,sub_357,2024-03-01_09h40.07.755,Reversal,2023.1.3,60.028909923131614,1,
12,exp1.png,exp2.png,,0,0,0,0,0,12,12,12,,,,,,,,,,,,,,,,,,,,,,,,,False,11,12,False,exp1.png,exp2.png,trial_right_image,-1,exp2.png,1,exp1.png,exp2.png,0,4,reversed,incorrect,0.6389452601762691,0,valid_lose,89.46879489999992,5,,,,,,,,,,,,,,,,,,sub_357,2024-03-01_09h40.07.755,Reversal,2023.1.3,60.028909923131614,1,
13,exp3.png,exp4.png,,0,0,0,0,0,13,13,13,,,,,,,,,,,,,,,,,,,,,,,,,False,12,13,False,exp3.png,exp4.png,trial_right_image,-1,exp4.png,1,exp3.png,exp4.png,0,2,non-reversed,incorrect,0.3833263171214357,0,valid_lose,96.29819679999991,5,,,,,,,,,,,,,,,,,,sub_357,2024-03-01_09h40.07.755,Reversal,2023.1.3,60.028909923131614,1,
14,exp1.png,exp2.png,,0,0,0,0,0,14,14,14,,,,,,,,,,,,,,,,,,,,,,,,,False,13,14,True,exp2.png,exp1.png,trial_left_image,1,exp2.png,1,exp1.png,exp2.png,0,4,reversed,incorrect,0.17860700722467182,1,invalid_win,102.03057350000017,6,,,,,,,,,,,,,,,,,,sub_357,2024-03-01_09h40.07.755,Reversal,2023.1.3,60.028909923131614,1,
15,exp3.png,exp4.png,,0,0,0,0,0,15,15,15,,,,,,,,,,,,,,,,,,,,,,,,,False,14,15,True,exp4.png,exp3.png,trial_right_image,-1,exp3.png,1,exp3.png,exp4.png,1,1,non-reversed,correct,0.39008942320556106,1,valid_win,110.57765640000025,7,,,,,,,,,,,,,,,,,,sub_357,2024-03-01_09h40.07.755,Reversal,2023.1.3,60.028909923131614,1,
16,exp1.png,exp2.png,,0,0,0,0,0,16,16,16,,,,,,,,,,,,,,,,,,,,,,,,,False,15,16,False,exp1.png,exp2.png,trial_left_image,1,exp1.png,1,exp1.png,exp2.png,1,3,reversed,correct,0.6578054747402353,1,valid_win,116.87585260000014,8,,,,,,,,,,,,,,,,,,sub_357,2024-03-01_09h40.07.755,Reversal,2023.1.3,60.028909923131614,1,
17,exp3.png,exp4.png,,0,0,0,0,0,17,17,17,,,,,,,,,,,,,,,,,,,,,,,,,False,16,17,False,exp3.png,exp4.png,trial_right_image,-1,exp4.png,1,exp3.png,exp4.png,0,2,non-reversed,incorrect,0.21810118292297997,1,invalid_win,122.32450710000012,9,,,,,,,,,,,,,,,,,,sub_357,2024-03-01_09h40.07.755,Reversal,2023.1.3,60.028909923131614,1,
18,exp1.png,exp2.png,,0,0,0,0,0,18,18,18,,,,,,,,,,,,,,,,,,,,,,,,,False,17,18,False,exp1.png,exp2.png,trial_right_image,-1,exp2.png,1,exp1.png,exp2.png,0,4,reversed,incorrect,0.9642451113598048,0,valid_lose,126.77204250000023,9,,,,,,,,,,,,,,,,,,sub_357,2024-03-01_09h40.07.755,Reversal,2023.1.3,60.028909923131614,1,
19,exp3.png,exp4.png,,0,0,0,0,0,19,19,19,,,,,,,,,,,,,,,,,,,,,,,,,False,18,19,True,exp4.png,exp3.png,trial_right_image,-1,exp3.png,1,exp3.png,exp4.png,1,1,non-reversed,correct,0.8924664831394525,1,valid_win,131.37063620000026,10,,,,,,,,,,,,,,,,,,sub_357,2024-03-01_09h40.07.755,Reversal,2023.1.3,60.028909923131614,1,
20,exp1.png,exp2.png,,0,0,0,0,0,20,20,20,,,,,,,,,,,,,,,,,,,,,,,,,False,19,20,True,exp2.png,exp1.png,trial_right_image,-1,exp1.png,1,exp1.png,exp2.png,1,3,reversed,correct,0.6197848471659138,1,valid_win,136.91731040000013,11,,,,,,,,,,,,,,,,,,sub_357,2024-03-01_09h40.07.755,Reversal,2023.1.3,60.028909923131614,1,
,,,exp1.png,0,0,0,0,,,,,0,0,0,0,0,0,0,0,,,,,,,,,,,,,,,,,,,,,,,,,,,,,,,,,,,,,,284.50444730000027,19.0,19.0,12.814229699999942,"[(14.0, 10.585666299999957), (19.0, 12.814229699999942)]",,,,,,,,,,,,,sub_357,2024-03-01_09h40.07.755,Reversal,2023.1.3,60.028909923131614,1,
,,,exp2.png,0,0,0,0,,,,,0,0,0,0,0,1,1,1,,,,,,,,,,,,,,,,,,,,,,,,,,,,,,,,,,,,,,298.8473160000003,,17.0,9.432003899999927,"[(17.0, 9.432003899999927)]",17.0,,,,,,,,,,,,sub_357,2024-03-01_09h40.07.755,Reversal,2023.1.3,60.028909923131614,1,
,,,exp3.png,0,0,0,0,,,,,0,0,0,0,0,2,2,2,,,,,,,,,,,,,,,,,,,,,,,,,,,,,,,,,,,,,,309.6042348000001,,79.0,4.1673203000000285,"[(79.0, 4.1673203000000285)]",,79.0,,,,,,,,,,,sub_357,2024-03-01_09h40.07.755,Reversal,2023.1.3,60.028909923131614,1,
,,,exp4.png,0,0,0,0,,,,,0,0,0,0,0,3,3,3,,,,,,,,,,,,,,,,,,,,,,,,,,,,,,,,,,,,,,314.77544130000024,,13.0,6.002719700000398,"[(13.0, 6.002719700000398)]",,,13.0,,,,,,,,,,sub_357,2024-03-01_09h40.07.755,Reversal,2023.1.3,60.028909923131614,1,
0,exp1.png,exp2.png,,1,0,1,0,0,0,0,0,,,,,,,,,,,,,,,,,,,,,,,,,True,,,,,,,,,,,,,,,,,,,,,,,,,,,,,,,,,,,,,,sub_357,2024-03-01_09h40.07.755,Reversal,2023.1.3,60.028909923131614,1,
1,exp3.png,exp4.png,,1,0,1,0,0,1,1,1,,,,,,,,,,,,,,,,,,,,,,,,,False,20,21,False,exp3.png,exp4.png,trial_right_image,-1,exp4.png,1,exp3.png,exp4.png,0,2,non-reversed,incorrect,0.9439159954842119,0,valid_lose,182.91515479999998,11,,,,,,,,,,,,,,,,,,sub_357,2024-03-01_09h40.07.755,Reversal,2023.1.3,60.028909923131614,1,
2,exp1.png,exp2.png,,1,0,1,0,0,2,2,2,,,,,,,,,,,,,,,,,,,,,,,,,False,21,22,False,exp1.png,exp2.png,trial_right_image,-1,exp2.png,1,exp1.png,exp2.png,0,4,reversed,incorrect,0.4254303769468706,0,valid_lose,188.5351568000001,11,,,,,,,,,,,,,,,,,,sub_357,2024-03-01_09h40.07.755,Reversal,2023.1.3,60.028909923131614,1,
3,exp3.png,exp4.png,,1,0,1,0,0,3,3,3,,,,,,,,,,,,,,,,,,,,,,,,,False,22,23,False,exp3.png,exp4.png,trial_right_image,-1,exp4.png,1,exp3.png,exp4.png,0,2,non-reversed,incorrect,0.056109256343998104,1,invalid_win,199.18115179999995,12,,,,,,,,,,,,,,,,,,sub_357,2024-03-01_09h40.07.755,Reversal,2023.1.3,60.028909923131614,1,
4,exp1.png,exp2.png,,1,0,1,0,0,4,4,4,,,,,,,,,,,,,,,,,,,,,,,,,False,23,24,True,exp2.png,exp1.png,trial_right_image,-1,exp1.png,1,exp1.png,exp2.png,1,3,reversed,correct,0.2670294240069543,1,valid_win,207.14507140000023,13,,,,,,,,,,,,,,,,,,sub_357,2024-03-01_09h40.07.755,Reversal,2023.1.3,60.028909923131614,1,
5,exp3.png,exp4.png,,1,0,1,0,0,5,5,5,,,,,,,,,,,,,,,,,,,,,,,,,False,24,25,False,exp3.png,exp4.png,trial_right_image,-1,exp4.png,1,exp3.png,exp4.png,0,2,non-reversed,incorrect,0.24945364434219786,1,invalid_win,213.24356190000026,14,,,,,,,,,,,,,,,,,,sub_357,2024-03-01_09h40.07.755,Reversal,2023.1.3,60.028909923131614,1,
6,exp1.png,exp2.png,,1,0,1,0,0,6,6,6,,,,,,,,,,,,,,,,,,,,,,,,,False,25,26,True,exp2.png,exp1.png,trial_left_image,1,exp2.png,1,exp1.png,exp2.png,0,4,reversed,incorrect,0.3332367310095212,0,valid_lose,218.77421370000002,14,,,,,,,,,,,,,,,,,,sub_357,2024-03-01_09h40.07.755,Reversal,2023.1.3,60.028909923131614,1,
7,exp3.png,exp4.png,,1,0,1,0,0,7,7,7,,,,,,,,,,,,,,,,,,,,,,,,,False,26,27,True,exp4.png,exp3.png,trial_right_image,-1,exp3.png,1,exp3.png,exp4.png,1,1,non-reversed,correct,0.5420148794295236,1,valid_win,224.22340459999987,15,,,,,,,,,,,,,,,,,,sub_357,2024-03-01_09h40.07.755,Reversal,2023.1.3,60.028909923131614,1,
8,exp1.png,exp2.png,,1,0,1,0,0,8,8,8,,,,,,,,,,,,,,,,,,,,,,,,,False,27,28,False,exp1.png,exp2.png,trial_left_image,1,exp1.png,1,exp1.png,exp2.png,1,3,reversed,correct,0.5143634743961544,1,valid_win,230.15411040000026,16,,,,,,,,,,,,,,,,,,sub_357,2024-03-01_09h40.07.755,Reversal,2023.1.3,60.028909923131614,1,
9,exp3.png,exp4.png,,1,0,1,0,0,9,9,9,,,,,,,,,,,,,,,,,,,,,,,,,False,28,29,False,exp3.png,exp4.png,trial_right_image,-1,exp4.png,1,exp3.png,exp4.png,0,2,non-reversed,incorrect,0.6331267354925335,0,valid_lose,235.4524703000002,16,,,,,,,,,,,,,,,,,,sub_357,2024-03-01_09h40.07.755,Reversal,2023.1.3,60.028909923131614,1,
10,exp1.png,exp2.png,,1,0,1,0,0,10,10,10,,,,,,,,,,,,,,,,,,,,,,,,,False,29,30,True,exp2.png,exp1.png,trial_left_image,1,exp2.png,1,exp1.png,exp2.png,0,4,reversed,incorrect,0.963463329296581,0,valid_lose,240.1840562000002,16,,,,,,,,,,,,,,,,,,sub_357,2024-03-01_09h40.07.755,Reversal,2023.1.3,60.028909923131614,1,
11,exp3.png,exp4.png,,1,0,1,0,0,11,11,11,,,,,,,,,,,,,,,,,,,,,,,,,False,30,31,False,exp3.png,exp4.png,trial_right_image,-1,exp4.png,1,exp3.png,exp4.png,0,2,non-reversed,incorrect,0.939693516179185,0,valid_lose,245.36558530000002,16,,,,,,,,,,,,,,,,,,sub_357,2024-03-01_09h40.07.755,Reversal,2023.1.3,60.028909923131614,1,
12,exp1.png,exp2.png,,1,0,1,0,0,12,12,12,,,,,,,,,,,,,,,,,,,,,,,,,False,31,32,True,exp2.png,exp1.png,trial_left_image,1,exp2.png,1,exp1.png,exp2.png,0,4,reversed,incorrect,0.6244068778256571,0,valid_lose,250.18055719999984,16,,,,,,,,,,,,,,,,,,sub_357,2024-03-01_09h40.07.755,Reversal,2023.1.3,60.028909923131614,1,
13,exp3.png,exp4.png,,1,0,1,0,0,13,13,13,,,,,,,,,,,,,,,,,,,,,,,,,False,32,33,True,exp4.png,exp3.png,trial_left_image,1,exp4.png,1,exp3.png,exp4.png,0,2,non-reversed,incorrect,0.3323651387191864,0,valid_lose,254.79594540000016,16,,,,,,,,,,,,,,,,,,sub_357,2024-03-01_09h40.07.755,Reversal,2023.1.3,60.028909923131614,1,
14,exp1.png,exp2.png,,1,0,1,0,0,14,14,14,,,,,,,,,,,,,,,,,,,,,,,,,False,33,34,False,exp1.png,exp2.png,trial_right_image,-1,exp2.png,1,exp1.png,exp2.png,0,4,reversed,incorrect,0.28914463766537746,0,valid_lose,259.37523360000023,16,,,,,,,,,,,,,,,,,,sub_357,2024-03-01_09h40.07.755,Reversal,2023.1.3,60.028909923131614,1,
15,exp3.png,exp4.png,,1,0,1,0,0,15,15,15,,,,,,,,,,,,,,,,,,,,,,,,,False,34,35,False,exp3.png,exp4.png,trial_right_image,-1,exp4.png,1,exp3.png,exp4.png,0,2,non-reversed,incorrect,0.1756797334910396,1,invalid_win,263.8109048000001,17,,,,,,,,,,,,,,,,,,sub_357,2024-03-01_09h40.07.755,Reversal,2023.1.3,60.028909923131614,1,
16,exp1.png,exp2.png,,1,0,1,0,0,16,16,16,,,,,,,,,,,,,,,,,,,,,,,,,False,35,36,True,exp2.png,exp1.png,trial_left_image,1,exp2.png,1,exp1.png,exp2.png,0,4,reversed,incorrect,0.32268379291966387,0,valid_lose,270.2575836000001,17,,,,,,,,,,,,,,,,,,sub_357,2024-03-01_09h40.07.755,Reversal,2023.1.3,60.028909923131614,1,
17,exp3.png,exp4.png,,1,0,1,0,0,17,17,17,,,,,,,,,,,,,,,,,,,,,,,,,False,36,37,False,exp3.png,exp4.png,trial_right_image,-1,exp4.png,1,exp3.png,exp4.png,0,2,non-reversed,incorrect,0.37557700433483965,0,valid_lose,275.1220515,17,,,,,,,,,,,,,,,,,,sub_357,2024-03-01_09h40.07.755,Reversal,2023.1.3,60.028909923131614,1,
18,exp1.png,exp2.png,,1,0,1,0,0,18,18,18,,,,,,,,,,,,,,,,,,,,,,,,,False,37,38,True,exp2.png,exp1.png,trial_left_image,1,exp2.png,1,exp1.png,exp2.png,0,4,reversed,incorrect,0.457362680353669,0,valid_lose,280.7205062000003,17,,,,,,,,,,,,,,,,,,sub_357,2024-03-01_09h40.07.755,Reversal,2023.1.3,60.028909923131614,1,
19,exp3.png,exp4.png,,1,0,1,0,0,19,19,19,,,,,,,,,,,,,,,,,,,,,,,,,False,38,39,True,exp4.png,exp3.png,trial_left_image,1,exp4.png,1,exp3.png,exp4.png,0,2,non-reversed,incorrect,0.3792671044039442,0,valid_lose,285.50305449999996,17,,,,,,,,,,,,,,,,,,sub_357,2024-03-01_09h40.07.755,Reversal,2023.1.3,60.028909923131614,1,
20,exp1.png,exp2.png,,1,0,1,0,0,20,20,20,,,,,,,,,,,,,,,,,,,,,,,,,False,39,40,True,exp2.png,exp1.png,trial_left_image,1,exp2.png,1,exp1.png,exp2.png,0,4,reversed,incorrect,0.12528298202251897,1,invalid_win,290.14795989999993,18,,,,,,,,,,,,,,,,,,sub_357,2024-03-01_09h40.07.755,Reversal,2023.1.3,60.028909923131614,1,
,,,exp1.png,1,0,1,0,,,,,0,0,0,0,0,0,0,0,,,,,,,,,,,,,,,,,,,,,,,,,,,,,,,,,,,,,,437.6891690000002,11.0,11.0,7.889920499999789,"[(11.0, 7.889920499999789)]",,,,,,,,,,,,,sub_357,2024-03-01_09h40.07.755,Reversal,2023.1.3,60.028909923131614,1,
,,,exp2.png,1,0,1,0,,,,,0,0,0,0,0,1,1,1,,,,,,,,,,,,,,,,,,,,,,,,,,,,,,,,,,,,,,446.87583110000014,,91.0,3.172438200000215,"[(91.0, 3.172438200000215)]",91.0,,,,,,,,,,,,sub_357,2024-03-01_09h40.07.755,Reversal,2023.1.3,60.028909923131614,1,
,,,exp3.png,1,0,1,0,,,,,0,0,0,0,0,2,2,2,,,,,,,,,,,,,,,,,,,,,,,,,,,,,,,,,,,,,,451.1354160000001,,89.0,2.3875926999999137,"[(89.0, 2.3875926999999137)]",,89.0,,,,,,,,,,,sub_357,2024-03-01_09h40.07.755,Reversal,2023.1.3,60.028909923131614,1,
,,,exp4.png,1,0,1,0,,,,,0,0,0,0,0,3,3,3,,,,,,,,,,,,,,,,,,,,,,,,,,,,,,,,,,,,,,454.52863560000014,,89.0,2.486193700000058,"[(89.0, 2.486193700000058)]",,,89.0,,,,,,,,,,sub_357,2024-03-01_09h40.07.755,Reversal,2023.1.3,60.028909923131614,1,
0,exp1.png,exp2.png,,2,0,2,0,0,0,0,0,,,,,,,,,,,,,,,,,,,,,,,,,True,,,,,,,,,,,,,,,,,,,,,,,,,,,,,,,,,,,,,,sub_357,2024-03-01_09h40.07.755,Reversal,2023.1.3,60.028909923131614,1,
1,exp3.png,exp4.png,,2,0,2,0,0,1,1,1,,,,,,,,,,,,,,,,,,,,,,,,,False,40,41,True,exp4.png,exp3.png,trial_left_image,1,exp4.png,1,exp3.png,exp4.png,0,2,non-reversed,incorrect,0.6502887372816659,0,valid_lose,316.87299900000016,18,,,,,,,,,,,,,,,,,,sub_357,2024-03-01_09h40.07.755,Reversal,2023.1.3,60.028909923131614,1,
2,exp1.png,exp2.png,,2,0,2,0,0,2,2,2,,,,,,,,,,,,,,,,,,,,,,,,,False,41,42,False,exp1.png,exp2.png,trial_right_image,-1,exp2.png,1,exp1.png,exp2.png,0,4,reversed,incorrect,0.9236220912062484,0,valid_lose,322.0734445000003,18,,,,,,,,,,,,,,,,,,sub_357,2024-03-01_09h40.07.755,Reversal,2023.1.3,60.028909923131614,1,
3,exp3.png,exp4.png,,2,0,2,0,0,3,3,3,,,,,,,,,,,,,,,,,,,,,,,,,False,42,43,True,exp4.png,exp3.png,trial_left_image,1,exp4.png,1,exp3.png,exp4.png,0,2,non-reversed,incorrect,0.6790289041946085,0,valid_lose,327.0377536000001,18,,,,,,,,,,,,,,,,,,sub_357,2024-03-01_09h40.07.755,Reversal,2023.1.3,60.028909923131614,1,
4,exp1.png,exp2.png,,2,0,2,0,0,4,4,4,,,,,,,,,,,,,,,,,,,,,,,,,False,43,44,False,exp1.png,exp2.png,trial_right_image,-1,exp2.png,1,exp1.png,exp2.png,0,4,reversed,incorrect,0.7161056527399547,0,valid_lose,332.18556100000023,18,,,,,,,,,,,,,,,,,,sub_357,2024-03-01_09h40.07.755,Reversal,2023.1.3,60.028909923131614,1,
5,exp3.png,exp4.png,,2,0,2,0,0,5,5,5,,,,,,,,,,,,,,,,,,,,,,,,,False,44,45,False,exp3.png,exp4.png,trial_right_image,-1,exp4.png,1,exp3.png,exp4.png,0,2,non-reversed,incorrect,0.6473890771609057,0,valid_lose,337.13545190000013,18,,,,,,,,,,,,,,,,,,sub_357,2024-03-01_09h40.07.755,Reversal,2023.1.3,60.028909923131614,1,
6,exp1.png,exp2.png,,2,0,2,0,0,6,6,6,,,,,,,,,,,,,,,,,,,,,,,,,False,45,46,True,exp2.png,exp1.png,trial_left_image,1,exp2.png,1,exp1.png,exp2.png,0,4,reversed,incorrect,0.5927638683623132,0,valid_lose,342.51449950000006,18,,,,,,,,,,,,,,,,,,sub_357,2024-03-01_09h40.07.755,Reversal,2023.1.3,60.028909923131614,1,
7,exp3.png,exp4.png,,2,0,2,0,0,7,7,7,,,,,,,,,,,,,,,,,,,,,,,,,False,46,47,False,exp3.png,exp4.png,trial_right_image,-1,exp4.png,1,exp3.png,exp4.png,0,2,non-reversed,incorrect,0.4872402077403143,0,valid_lose,347.21145479999996,18,,,,,,,,,,,,,,,,,,sub_357,2024-03-01_09h40.07.755,Reversal,2023.1.3,60.028909923131614,1,
8,exp1.png,exp2.png,,2,0,2,0,0,8,8,8,,,,,,,,,,,,,,,,,,,,,,,,,False,47,48,False,exp1.png,exp2.png,trial_right_image,-1,exp2.png,1,exp1.png,exp2.png,0,4,reversed,incorrect,0.1084942070377295,1,invalid_win,352.1106020000002,19,,,,,,,,,,,,,,,,,,sub_357,2024-03-01_09h40.07.755,Reversal,2023.1.3,60.028909923131614,1,
9,exp3.png,exp4.png,,2,0,2,0,0,9,9,9,,,,,,,,,,,,,,,,,,,,,,,,,False,48,49,False,exp3.png,exp4.png,trial_right_image,-1,exp4.png,1,exp3.png,exp4.png,0,2,non-reversed,incorrect,0.44744083896881437,0,valid_lose,356.808231,19,,,,,,,,,,,,,,,,,,sub_357,2024-03-01_09h40.07.755,Reversal,2023.1.3,60.028909923131614,1,
10,exp1.png,exp2.png,,2,0,2,0,0,10,10,10,,,,,,,,,,,,,,,,,,,,,,,,,False,49,50,True,exp2.png,exp1.png,trial_left_image,1,exp2.png,1,exp1.png,exp2.png,0,4,reversed,incorrect,0.5187385617373872,0,valid_lose,361.6406374000003,19,,,,,,,,,,,,,,,,,,sub_357,2024-03-01_09h40.07.755,Reversal,2023.1.3,60.028909923131614,1,
11,exp3.png,exp4.png,,2,0,2,0,0,11,11,11,,,,,,,,,,,,,,,,,,,,,,,,,False,50,51,False,exp3.png,exp4.png,trial_right_image,-1,exp4.png,1,exp3.png,exp4.png,0,2,non-reversed,incorrect,0.10587956819672939,1,invalid_win,366.22308150000026,20,,,,,,,,,,,,,,,,,,sub_357,2024-03-01_09h40.07.755,Reversal,2023.1.3,60.028909923131614,1,
12,exp1.png,exp2.png,,2,0,2,0,0,12,12,12,,,,,,,,,,,,,,,,,,,,,,,,,False,51,52,False,exp1.png,exp2.png,trial_right_image,-1,exp2.png,1,exp1.png,exp2.png,0,4,reversed,incorrect,0.5317963971703431,0,valid_lose,370.8543795999999,20,,,,,,,,,,,,,,,,,,sub_357,2024-03-01_09h40.07.755,Reversal,2023.1.3,60.028909923131614,1,
13,exp3.png,exp4.png,,2,0,2,0,0,13,13,13,,,,,,,,,,,,,,,,,,,,,,,,,False,52,53,False,exp3.png,exp4.png,trial_right_image,-1,exp4.png,1,exp3.png,exp4.png,0,2,non-reversed,incorrect,0.8591790450020164,0,valid_lose,375.40308129999994,20,,,,,,,,,,,,,,,,,,sub_357,2024-03-01_09h40.07.755,Reversal,2023.1.3,60.028909923131614,1,
14,exp1.png,exp2.png,,2,0,2,0,0,14,14,14,,,,,,,,,,,,,,,,,,,,,,,,,False,53,54,True,exp2.png,exp1.png,trial_left_image,1,exp2.png,1,exp1.png,exp2.png,0,4,reversed,incorrect,0.9870786649150822,0,valid_lose,380.1345959999999,20,,,,,,,,,,,,,,,,,,sub_357,2024-03-01_09h40.07.755,Reversal,2023.1.3,60.028909923131614,1,
15,exp3.png,exp4.png,,2,0,2,0,0,15,15,15,,,,,,,,,,,,,,,,,,,,,,,,,False,54,55,True,exp4.png,exp3.png,trial_left_image,1,exp4.png,1,exp3.png,exp4.png,0,2,non-reversed,incorrect,0.32817118387126354,0,valid_lose,384.2261805000003,20,,,,,,,,,,,,,,,,,,sub_357,2024-03-01_09h40.07.755,Reversal,2023.1.3,60.028909923131614,1,
16,exp1.png,exp2.png,,2,0,2,0,0,16,16,16,,,,,,,,,,,,,,,,,,,,,,,,,False,55,56,False,exp1.png,exp2.png,trial_right_image,-1,exp2.png,1,exp1.png,exp2.png,0,4,reversed,incorrect,0.16180168184233967,1,invalid_win,388.6817331000002,21,,,,,,,,,,,,,,,,,,sub_357,2024-03-01_09h40.07.755,Reversal,2023.1.3,60.028909923131614,1,
17,exp3.png,exp4.png,,2,0,2,0,0,17,17,17,,,,,,,,,,,,,,,,,,,,,,,,,False,56,57,True,exp4.png,exp3.png,trial_left_image,1,exp4.png,1,exp3.png,exp4.png,0,2,non-reversed,incorrect,0.6379258068001322,0,valid_lose,392.77663900000016,21,,,,,,,,,,,,,,,,,,sub_357,2024-03-01_09h40.07.755,Reversal,2023.1.3,60.028909923131614,1,
18,exp1.png,exp2.png,,2,0,2,0,0,18,18,18,,,,,,,,,,,,,,,,,,,,,,,,,False,57,58,True,exp2.png,exp1.png,trial_left_image,1,exp2.png,1,exp1.png,exp2.png,0,4,reversed,incorrect,0.3627380983397317,0,valid_lose,396.8954343999999,21,,,,,,,,,,,,,,,,,,sub_357,2024-03-01_09h40.07.755,Reversal,2023.1.3,60.028909923131614,1,
19,exp3.png,exp4.png,,2,0,2,0,0,19,19,19,,,,,,,,,,,,,,,,,,,,,,,,,False,58,59,True,exp4.png,exp3.png,trial_right_image,-1,exp3.png,1,exp3.png,exp4.png,1,1,non-reversed,correct,0.9038043598871031,1,valid_win,400.86550380000017,22,,,,,,,,,,,,,,,,,,sub_357,2024-03-01_09h40.07.755,Reversal,2023.1.3,60.028909923131614,1,
20,exp1.png,exp2.png,,2,0,2,0,0,20,20,20,,,,,,,,,,,,,,,,,,,,,,,,,False,59,60,True,exp2.png,exp1.png,trial_right_image,-1,exp1.png,1,exp1.png,exp2.png,1,3,reversed,correct,0.6045529107898079,1,valid_win,405.6882877000003,23,,,,,,,,,,,,,,,,,,sub_357,2024-03-01_09h40.07.755,Reversal,2023.1.3,60.028909923131614,1,
,,,exp1.png,2,0,2,0,,,,,0,0,0,0,0,0,0,0,,,,,,,,,,,,,,,,,,,,,,,,,,,,,,,,,,,,,,553.2295924,91.0,91.0,6.539522900000065,"[(91.0, 6.539522900000065)]",,,,,,,,,,,,,sub_357,2024-03-01_09h40.07.755,Reversal,2023.1.3,60.028909923131614,1,
,,,exp2.png,2,0,2,0,,,,,0,0,0,0,0,1,1,1,,,,,,,,,,,,,,,,,,,,,,,,,,,,,,,,,,,,,,561.3044807000001,,93.0,4.1520580999999765,"[(93.0, 4.1520580999999765)]",93.0,,,,,,,,,,,,sub_357,2024-03-01_09h40.07.755,Reversal,2023.1.3,60.028909923131614,1,
,,,exp3.png,2,0,2,0,,,,,0,0,0,0,0,2,2,2,,,,,,,,,,,,,,,,,,,,,,,,,,,,,,,,,,,,,,566.6442986000002,,93.0,4.060782600000039,"[(93.0, 4.060782600000039)]",,93.0,,,,,,,,,,,sub_357,2024-03-01_09h40.07.755,Reversal,2023.1.3,60.028909923131614,1,
,,,exp4.png,2,0,2,0,,,,,0,0,0,0,0,3,3,3,,,,,,,,,,,,,,,,,,,,,,,,,,,,,,,,,,,,,,571.7483718000003,,93.0,1.9585544000001391,"[(93.0, 1.9585544000001391)]",,,93.0,,,,,,,,,,sub_357,2024-03-01_09h40.07.755,Reversal,2023.1.3,60.028909923131614,1,
0,exp1.png,exp2.png,,3,0,3,0,0,0,0,0,,,,,,,,,,,,,,,,,,,,,,,,,True,,,,,,,,,,,,,,,,,,,,,,,,,,,,,,,,,,,,,,sub_357,2024-03-01_09h40.07.755,Reversal,2023.1.3,60.028909923131614,1,
1,exp3.png,exp4.png,,3,0,3,0,0,1,1,1,,,,,,,,,,,,,,,,,,,,,,,,,False,60,61,False,exp3.png,exp4.png,trial_right_image,-1,exp4.png,1,exp3.png,exp4.png,0,2,non-reversed,incorrect,0.4689979265696189,0,valid_lose,432.65172340000026,23,,,,,,,,,,,,,,,,,,sub_357,2024-03-01_09h40.07.755,Reversal,2023.1.3,60.028909923131614,1,
2,exp1.png,exp2.png,,3,0,3,0,0,2,2,2,,,,,,,,,,,,,,,,,,,,,,,,,False,61,62,True,exp2.png,exp1.png,trial_left_image,1,exp2.png,1,exp1.png,exp2.png,0,4,reversed,incorrect,0.4884161221543416,0,valid_lose,439.91570490000004,23,,,,,,,,,,,,,,,,,,sub_357,2024-03-01_09h40.07.755,Reversal,2023.1.3,60.028909923131614,1,
3,exp3.png,exp4.png,,3,0,3,0,0,3,3,3,,,,,,,,,,,,,,,,,,,,,,,,,False,62,63,False,exp3.png,exp4.png,trial_right_image,-1,exp4.png,1,exp3.png,exp4.png,0,2,non-reversed,incorrect,0.9983833734660299,0,valid_lose,444.51356160000023,23,,,,,,,,,,,,,,,,,,sub_357,2024-03-01_09h40.07.755,Reversal,2023.1.3,60.028909923131614,1,
4,exp1.png,exp2.png,,3,0,3,0,0,4,4,4,,,,,,,,,,,,,,,,,,,,,,,,,False,63,64,True,exp2.png,exp1.png,trial_left_image,1,exp2.png,1,exp1.png,exp2.png,0,4,reversed,incorrect,0.35092765533742865,0,valid_lose,449.0458686000002,23,,,,,,,,,,,,,,,,,,sub_357,2024-03-01_09h40.07.755,Reversal,2023.1.3,60.028909923131614,1,
5,exp3.png,exp4.png,,3,0,3,0,0,5,5,5,,,,,,,,,,,,,,,,,,,,,,,,,False,64,65,False,exp3.png,exp4.png,trial_right_image,-1,exp4.png,1,exp3.png,exp4.png,0,2,non-reversed,incorrect,0.4095169403728601,0,valid_lose,453.3447602000001,23,,,,,,,,,,,,,,,,,,sub_357,2024-03-01_09h40.07.755,Reversal,2023.1.3,60.028909923131614,1,
6,exp1.png,exp2.png,,3,0,3,0,0,6,6,6,,,,,,,,,,,,,,,,,,,,,,,,,False,65,66,True,exp2.png,exp1.png,trial_left_image,1,exp2.png,1,exp1.png,exp2.png,0,4,reversed,incorrect,0.0859549013416131,1,invalid_win,457.7989545999999,24,,,,,,,,,,,,,,,,,,sub_357,2024-03-01_09h40.07.755,Reversal,2023.1.3,60.028909923131614,1,
7,exp3.png,exp4.png,,3,0,3,0,0,7,7,7,,,,,,,,,,,,,,,,,,,,,,,,,False,66,67,False,exp3.png,exp4.png,trial_left_image,1,exp3.png,1,exp3.png,exp4.png,1,1,non-reversed,correct,0.414281657683119,1,valid_win,462.3750849000003,25,,,,,,,,,,,,,,,,,,sub_357,2024-03-01_09h40.07.755,Reversal,2023.1.3,60.028909923131614,1,
8,exp1.png,exp2.png,,3,0,3,0,0,8,8,8,,,,,,,,,,,,,,,,,,,,,,,,,False,67,68,True,exp2.png,exp1.png,trial_left_image,1,exp2.png,1,exp1.png,exp2.png,0,4,reversed,incorrect,0.897566179817972,0,valid_lose,468.60687770000004,25,,,,,,,,,,,,,,,,,,sub_357,2024-03-01_09h40.07.755,Reversal,2023.1.3,60.028909923131614,1,
9,exp3.png,exp4.png,,3,0,3,0,0,9,9,9,,,,,,,,,,,,,,,,,,,,,,,,,False,68,69,False,exp3.png,exp4.png,trial_right_image,-1,exp4.png,1,exp3.png,exp4.png,0,2,non-reversed,incorrect,0.21507077456116597,1,invalid_win,473.9217428000002,26,,,,,,,,,,,,,,,,,,sub_357,2024-03-01_09h40.07.755,Reversal,2023.1.3,60.028909923131614,1,
10,exp1.png,exp2.png,,3,0,3,0,0,10,10,10,,,,,,,,,,,,,,,,,,,,,,,,,False,69,70,True,exp2.png,exp1.png,trial_left_image,1,exp2.png,1,exp1.png,exp2.png,0,4,reversed,incorrect,0.9696105487689267,0,valid_lose,478.7197446,26,,,,,,,,,,,,,,,,,,sub_357,2024-03-01_09h40.07.755,Reversal,2023.1.3,60.028909923131614,1,
11,exp3.png,exp4.png,,3,0,3,0,0,11,11,11,,,,,,,,,,,,,,,,,,,,,,,,,False,70,71,False,exp3.png,exp4.png,trial_right_image,-1,exp4.png,1,exp3.png,exp4.png,0,2,non-reversed,incorrect,0.023472613478516258,1,invalid_win,483.64991880000025,27,,,,,,,,,,,,,,,,,,sub_357,2024-03-01_09h40.07.755,Reversal,2023.1.3,60.028909923131614,1,
12,exp1.png,exp2.png,,3,0,3,0,0,12,12,12,,,,,,,,,,,,,,,,,,,,,,,,,False,71,72,True,exp2.png,exp1.png,trial_left_image,1,exp2.png,1,exp1.png,exp2.png,0,4,reversed,incorrect,0.559886614561429,0,valid_lose,488.59435900000017,27,,,,,,,,,,,,,,,,,,sub_357,2024-03-01_09h40.07.755,Reversal,2023.1.3,60.028909923131614,1,
13,exp3.png,exp4.png,,3,0,3,0,0,13,13,13,,,,,,,,,,,,,,,,,,,,,,,,,False,72,73,False,exp3.png,exp4.png,trial_right_image,-1,exp4.png,1,exp3.png,exp4.png,0,2,non-reversed,incorrect,0.4635912015823114,0,valid_lose,493.0149280999999,27,,,,,,,,,,,,,,,,,,sub_357,2024-03-01_09h40.07.755,Reversal,2023.1.3,60.028909923131614,1,
14,exp1.png,exp2.png,,3,0,3,0,0,14,14,14,,,,,,,,,,,,,,,,,,,,,,,,,False,73,74,True,exp2.png,exp1.png,trial_left_image,1,exp2.png,1,exp1.png,exp2.png,0,4,reversed,incorrect,0.7689643705886755,0,valid_lose,497.3455196,27,,,,,,,,,,,,,,,,,,sub_357,2024-03-01_09h40.07.755,Reversal,2023.1.3,60.028909923131614,1,
15,exp3.png,exp4.png,,3,0,3,0,0,15,15,15,,,,,,,,,,,,,,,,,,,,,,,,,False,74,75,True,exp4.png,exp3.png,trial_left_image,1,exp4.png,1,exp3.png,exp4.png,0,2,non-reversed,incorrect,0.9333389415130722,0,valid_lose,501.9274029000003,27,,,,,,,,,,,,,,,,,,sub_357,2024-03-01_09h40.07.755,Reversal,2023.1.3,60.028909923131614,1,
16,exp1.png,exp2.png,,3,0,3,0,0,16,16,16,,,,,,,,,,,,,,,,,,,,,,,,,False,75,76,False,exp1.png,exp2.png,trial_right_image,-1,exp2.png,1,exp1.png,exp2.png,0,4,reversed,incorrect,0.22252424345707977,1,invalid_win,506.84321520000003,28,,,,,,,,,,,,,,,,,,sub_357,2024-03-01_09h40.07.755,Reversal,2023.1.3,60.028909923131614,1,
17,exp3.png,exp4.png,,3,0,3,0,0,17,17,17,,,,,,,,,,,,,,,,,,,,,,,,,False,76,77,True,exp4.png,exp3.png,trial_left_image,1,exp4.png,1,exp3.png,exp4.png,0,2,non-reversed,incorrect,0.03881359212440938,1,invalid_win,512.4918351000001,29,,,,,,,,,,,,,,,,,,sub_357,2024-03-01_09h40.07.755,Reversal,2023.1.3,60.028909923131614,1,
18,exp1.png,exp2.png,,3,0,3,0,0,18,18,18,,,,,,,,,,,,,,,,,,,,,,,,,False,77,78,True,exp2.png,exp1.png,trial_right_image,-1,exp1.png,1,exp1.png,exp2.png,1,3,reversed,correct,0.3925213854089601,1,valid_win,518.1715939000001,30,,,,,,,,,,,,,,,,,,sub_357,2024-03-01_09h40.07.755,Reversal,2023.1.3,60.028909923131614,1,
19,exp3.png,exp4.png,,3,0,3,0,0,19,19,19,,,,,,,,,,,,,,,,,,,,,,,,,False,78,79,False,exp3.png,exp4.png,trial_right_image,-1,exp4.png,1,exp3.png,exp4.png,0,2,non-reversed,incorrect,0.8239467642280925,0,valid_lose,523.1874622,30,,,,,,,,,,,,,,,,,,sub_357,2024-03-01_09h40.07.755,Reversal,2023.1.3,60.028909923131614,1,
20,exp1.png,exp2.png,,3,0,3,0,0,20,20,20,,,,,,,,,,,,,,,,,,,,,,,,,False,79,80,False,exp1.png,exp2.png,trial_right_image,-1,exp2.png,1,exp1.png,exp2.png,0,4,reversed,incorrect,0.1418934802900328,1,invalid_win,528.3697491000003,31,,,,,,,,,,,,,,,,,,sub_357,2024-03-01_09h40.07.755,Reversal,2023.1.3,60.028909923131614,1,
,,,exp1.png,3,0,3,0,,,,,0,0,0,0,0,0,0,0,,,,,,,,,,,,,,,,,,,,,,,,,,,,,,,,,,,,,,675.9153946000001,90.0,90.0,4.236814100000174,"[(90.0, 4.236814100000174)]",,,,,,,,,,,,,sub_357,2024-03-01_09h40.07.755,Reversal,2023.1.3,60.028909923131614,1,
,,,exp2.png,3,0,3,0,,,,,0,0,0,0,0,1,1,1,,,,,,,,,,,,,,,,,,,,,,,,,,,,,,,,,,,,,,681.4980385000003,,85.0,3.165113499999734,"[(85.0, 3.165113499999734)]",85.0,,,,,,,,,,,,sub_357,2024-03-01_09h40.07.755,Reversal,2023.1.3,60.028909923131614,1,
,,,exp3.png,3,0,3,0,,,,,0,0,0,0,0,2,2,2,,,,,,,,,,,,,,,,,,,,,,,,,,,,,,,,,,,,,,685.6122475000002,,91.0,2.2828803000002154,"[(91.0, 2.2828803000002154)]",,91.0,,,,,,,,,,,sub_357,2024-03-01_09h40.07.755,Reversal,2023.1.3,60.028909923131614,1,
,,,exp4.png,3,0,3,0,,,,,0,0,0,0,0,3,3,3,,,,,,,,,,,,,,,,,,,,,,,,,,,,,,,,,,,,,,688.9654063000003,,90.0,3.2960284000000684,"[(90.0, 3.2960284000000684)]",,,90.0,,,,,,,,,,sub_357,2024-03-01_09h40.07.755,Reversal,2023.1.3,60.028909923131614,1,
0,exp1.png,exp2.png,,,,,,,,,,,,,,,,,,0,0,0,0,0,0,0,0,,,,,,,,,True,,,,,,,,,,,,,,,,,,,,,,,,,,,,,,,,,,,,,,sub_357,2024-03-01_09h40.07.755,Reversal,2023.1.3,60.028909923131614,1,
1,exp3.png,exp4.png,,,,,,,,,,,,,,,,,,0,0,0,0,0,1,1,1,,,,,,,,,False,0,81,True,exp4.png,exp3.png,trial_left_image,1,exp4.png,1,exp3.png,exp4.png,0,2,non-reversed,incorrect,0.9867385433202737,0,valid_lose,550.5288840000003,31,,,,,,,,,548.2756571999998,,,,,,,,,sub_357,2024-03-01_09h40.07.755,Reversal,2023.1.3,60.028909923131614,1,
2,exp1.png,exp2.png,,,,,,,,,,,,,,,,,,0,0,0,0,0,2,2,2,,,,,,,,,False,1,82,False,exp1.png,exp2.png,trial_right_image,-1,exp2.png,1,exp2.png,exp1.png,0,4,reversed,correct,0.9462645357862741,1,valid_win,556.5756171000003,32,,,,,,,,,,,,,,,,,,sub_357,2024-03-01_09h40.07.755,Reversal,2023.1.3,60.028909923131614,1,
3,exp3.png,exp4.png,,,,,,,,,,,,,,,,,,0,0,0,0,0,3,3,3,,,,,,,,,False,2,83,False,exp3.png,exp4.png,trial_right_image,-1,exp4.png,1,exp3.png,exp4.png,0,2,non-reversed,incorrect,0.7675558019646053,0,valid_lose,562.6577447,32,,,,,,,,,,,,,,,,,,sub_357,2024-03-01_09h40.07.755,Reversal,2023.1.3,60.028909923131614,1,
4,exp1.png,exp2.png,,,,,,,,,,,,,,,,,,0,0,0,0,0,4,4,4,,,,,,,,,False,3,84,False,exp1.png,exp2.png,trial_right_image,-1,exp2.png,1,exp2.png,exp1.png,0,4,reversed,correct,0.5956487289246728,1,valid_win,567.2760904000002,33,,,,,,,,,,,,,,,,,,sub_357,2024-03-01_09h40.07.755,Reversal,2023.1.3,60.028909923131614,1,
5,exp3.png,exp4.png,,,,,,,,,,,,,,,,,,0,0,0,0,0,5,5,5,,,,,,,,,False,4,85,False,exp3.png,exp4.png,trial_right_image,-1,exp4.png,1,exp3.png,exp4.png,0,2,non-reversed,incorrect,0.18561474654640964,1,invalid_win,571.8382892,34,,,,,,,,,,,,,,,,,,sub_357,2024-03-01_09h40.07.755,Reversal,2023.1.3,60.028909923131614,1,
6,exp1.png,exp2.png,,,,,,,,,,,,,,,,,,0,0,0,0,0,6,6,6,,,,,,,,,False,5,86,True,exp2.png,exp1.png,trial_right_image,-1,exp1.png,1,exp2.png,exp1.png,1,3,reversed,incorrect,0.42941867382055854,0,valid_lose,575.5870095,34,,,,,,,,,,,,,,,,,,sub_357,2024-03-01_09h40.07.755,Reversal,2023.1.3,60.028909923131614,1,
7,exp3.png,exp4.png,,,,,,,,,,,,,,,,,,0,0,0,0,0,7,7,7,,,,,,,,,False,6,87,False,exp3.png,exp4.png,trial_right_image,-1,exp4.png,1,exp3.png,exp4.png,0,2,non-reversed,incorrect,0.4325565566535987,0,valid_lose,579.9348081000003,34,,,,,,,,,,,,,,,,,,sub_357,2024-03-01_09h40.07.755,Reversal,2023.1.3,60.028909923131614,1,
8,exp1.png,exp2.png,,,,,,,,,,,,,,,,,,0,0,0,0,0,8,8,8,,,,,,,,,False,7,88,True,exp2.png,exp1.png,trial_right_image,-1,exp1.png,1,exp2.png,exp1.png,1,3,reversed,incorrect,0.2881861882519896,0,valid_lose,584.2008185,34,,,,,,,,,,,,,,,,,,sub_357,2024-03-01_09h40.07.755,Reversal,2023.1.3,60.028909923131614,1,
9,exp3.png,exp4.png,,,,,,,,,,,,,,,,,,0,0,0,0,0,9,9,9,,,,,,,,,False,8,89,False,exp3.png,exp4.png,trial_right_image,-1,exp4.png,1,exp3.png,exp4.png,0,2,non-reversed,incorrect,0.6871437698044797,0,valid_lose,588.3327008000001,34,,,,,,,,,,,,,,,,,,sub_357,2024-03-01_09h40.07.755,Reversal,2023.1.3,60.028909923131614,1,
10,exp1.png,exp2.png,,,,,,,,,,,,,,,,,,0,0,0,0,0,10,10,10,,,,,,,,,False,9,90,True,exp2.png,exp1.png,trial_right_image,-1,exp1.png,1,exp2.png,exp1.png,1,3,reversed,incorrect,0.3716485885961901,0,valid_lose,591.9645231,34,,,,,,,,,,,,,,,,,,sub_357,2024-03-01_09h40.07.755,Reversal,2023.1.3,60.028909923131614,1,
11,exp3.png,exp4.png,,,,,,,,,,,,,,,,,,0,0,0,0,0,11,11,11,,,,,,,,,False,10,91,True,exp4.png,exp3.png,trial_right_image,-1,exp3.png,1,exp3.png,exp4.png,1,1,non-reversed,correct,0.4764285993958798,1,valid_win,595.5970296999999,35,,,,,,,,,,,,,,,,,,sub_357,2024-03-01_09h40.07.755,Reversal,2023.1.3,60.028909923131614,1,
12,exp1.png,exp2.png,,,,,,,,,,,,,,,,,,0,0,0,0,0,12,12,12,,,,,,,,,False,11,92,True,exp2.png,exp1.png,trial_right_image,-1,exp1.png,1,exp2.png,exp1.png,1,3,reversed,incorrect,0.37020020645906093,0,valid_lose,599.8451086999999,35,,,,,,,,,,,,,,,,,,sub_357,2024-03-01_09h40.07.755,Reversal,2023.1.3,60.028909923131614,1,
13,exp3.png,exp4.png,,,,,,,,,,,,,,,,,,0,0,0,0,0,13,13,13,,,,,,,,,False,12,93,False,exp3.png,exp4.png,trial_right_image,-1,exp4.png,1,exp3.png,exp4.png,0,2,non-reversed,incorrect,0.687226628010978,0,valid_lose,603.9105711000002,35,,,,,,,,,,,,,,,,,,sub_357,2024-03-01_09h40.07.755,Reversal,2023.1.3,60.028909923131614,1,
14,exp1.png,exp2.png,,,,,,,,,,,,,,,,,,0,0,0,0,0,14,14,14,,,,,,,,,False,13,94,False,exp1.png,exp2.png,trial_right_image,-1,exp2.png,1,exp2.png,exp1.png,0,4,reversed,correct,0.8595962248897092,1,valid_win,607.5454497000001,36,,,,,,,,,,,,,,,,,,sub_357,2024-03-01_09h40.07.755,Reversal,2023.1.3,60.028909923131614,1,
15,exp3.png,exp4.png,,,,,,,,,,,,,,,,,,0,0,0,0,0,15,15,15,,,,,,,,,False,14,95,True,exp4.png,exp3.png,trial_right_image,-1,exp3.png,1,exp3.png,exp4.png,1,1,non-reversed,correct,0.30372750823972827,1,valid_win,611.6913199,37,,,,,,,,,,,,,,,,,,sub_357,2024-03-01_09h40.07.755,Reversal,2023.1.3,60.028909923131614,1,
16,exp1.png,exp2.png,,,,,,,,,,,,,,,,,,0,0,0,0,0,16,16,16,,,,,,,,,False,15,96,True,exp2.png,exp1.png,trial_right_image,-1,exp1.png,1,exp2.png,exp1.png,1,3,reversed,incorrect,0.6949303116754414,0,valid_lose,616.0728701000003,37,,,,,,,,,,,,,,,,,,sub_357,2024-03-01_09h40.07.755,Reversal,2023.1.3,60.028909923131614,1,
17,exp3.png,exp4.png,,,,,,,,,,,,,,,,,,0,0,0,0,0,17,17,17,,,,,,,,,False,16,97,True,exp4.png,exp3.png,trial_right_image,-1,exp3.png,1,exp3.png,exp4.png,1,1,non-reversed,correct,0.9757602826842421,1,valid_win,619.7251708000003,38,,,,,,,,,,,,,,,,,,sub_357,2024-03-01_09h40.07.755,Reversal,2023.1.3,60.028909923131614,1,
18,exp1.png,exp2.png,,,,,,,,,,,,,,,,,,0,0,0,0,0,18,18,18,,,,,,,,,False,17,98,False,exp1.png,exp2.png,trial_right_image,-1,exp2.png,1,exp2.png,exp1.png,0,4,reversed,correct,0.694925476196961,1,valid_win,624.0526236000005,39,,,,,,,,,,,,,,,,,,sub_357,2024-03-01_09h40.07.755,Reversal,2023.1.3,60.028909923131614,1,
19,exp3.png,exp4.png,,,,,,,,,,,,,,,,,,0,0,0,0,0,19,19,19,,,,,,,,,False,18,99,True,exp4.png,exp3.png,trial_right_image,-1,exp3.png,1,exp3.png,exp4.png,1,1,non-reversed,correct,0.34012608715626147,1,valid_win,627.7578026000001,40,,,,,,,,,,,,,,,,,,sub_357,2024-03-01_09h40.07.755,Reversal,2023.1.3,60.028909923131614,1,
20,exp1.png,exp2.png,,,,,,,,,,,,,,,,,,0,0,0,0,0,20,20,20,,,,,,,,,False,19,100,False,exp1.png,exp2.png,trial_right_image,-1,exp2.png,1,exp2.png,exp1.png,0,4,reversed,correct,0.05481484973702966,0,invalid_lose,631.4900209999996,40,,,,,,,,,,,,,,,,,,sub_357,2024-03-01_09h40.07.755,Reversal,2023.1.3,60.028909923131614,1,
,,,exp1.png,,,,,,,,,,,,,,,,,0,0,0,0,,,,,0,0,0,0,0,0,0,0,,,,,,,,,,,,,,,,,,,,,,779.0280376000005,7.0,7.0,3.8167668000005506,"[(7.0, 3.8167668000005506)]",,,,,,,,,,,,,sub_357,2024-03-01_09h40.07.755,Reversal,2023.1.3,60.028909923131614,1,
,,,exp2.png,,,,,,,,,,,,,,,,,0,0,0,0,,,,,0,0,0,0,0,1,1,1,,,,,,,,,,,,,,,,,,,,,,784.2149365,,15.0,1.9124135000001843,"[(15.0, 1.9124135000001843)]",15.0,,,,,,,,,,,,sub_357,2024-03-01_09h40.07.755,Reversal,2023.1.3,60.028909923131614,1,
,,,exp3.png,,,,,,,,,,,,,,,,,0,0,0,0,,,,,0,0,0,0,0,2,2,2,,,,,,,,,,,,,,,,,,,,,,787.2014174000001,,91.0,2.0155496999996103,"[(91.0, 2.0155496999996103)]",,91.0,,,,,,,,,,,sub_357,2024-03-01_09h40.07.755,Reversal,2023.1.3,60.028909923131614,1,
,,,exp4.png,,,,,,,,,,,,,,,,,0,0,0,0,,,,,0,0,0,0,0,3,3,3,,,,,,,,,,,,,,,,,,,,,,790.2144647,,92.0,1.6024442000007184,"[(92.0, 1.6024442000007184)]",,,92.0,,,,,,,,,,sub_357,2024-03-01_09h40.07.755,Reversal,2023.1.3,60.028909923131614,1,
0,exp1.png,exp2.png,,,,,,,,,,,,,,,,,,1,0,1,0,0,0,0,0,,,,,,,,,True,,,,,,,,,,,,,,,,,,,,,,,,,,,,,,,,,,,,,,sub_357,2024-03-01_09h40.07.755,Reversal,2023.1.3,60.028909923131614,1,
1,exp3.png,exp4.png,,,,,,,,,,,,,,,,,,1,0,1,0,0,1,1,1,,,,,,,,,False,20,101,False,exp3.png,exp4.png,trial_right_image,-1,exp4.png,1,exp3.png,exp4.png,0,2,non-reversed,incorrect,0.22497799341379732,1,invalid_win,650.3117355000004,41,,,,,,,,,,,,,,,,,,sub_357,2024-03-01_09h40.07.755,Reversal,2023.1.3,60.028909923131614,1,
2,exp1.png,exp2.png,,,,,,,,,,,,,,,,,,1,0,1,0,0,2,2,2,,,,,,,,,False,21,102,True,exp2.png,exp1.png,trial_right_image,-1,exp1.png,1,exp2.png,exp1.png,1,3,reversed,incorrect,0.08316592298163128,1,invalid_win,655.9096196999999,42,,,,,,,,,,,,,,,,,,sub_357,2024-03-01_09h40.07.755,Reversal,2023.1.3,60.028909923131614,1,
3,exp3.png,exp4.png,,,,,,,,,,,,,,,,,,1,0,1,0,0,3,3,3,,,,,,,,,False,22,103,False,exp3.png,exp4.png,trial_right_image,-1,exp4.png,1,exp3.png,exp4.png,0,2,non-reversed,incorrect,0.5028073470730006,0,valid_lose,659.6094837,42,,,,,,,,,,,,,,,,,,sub_357,2024-03-01_09h40.07.755,Reversal,2023.1.3,60.028909923131614,1,
4,exp1.png,exp2.png,,,,,,,,,,,,,,,,,,1,0,1,0,0,4,4,4,,,,,,,,,False,23,104,False,exp1.png,exp2.png,trial_right_image,-1,exp2.png,1,exp2.png,exp1.png,0,4,reversed,correct,0.9431882816470782,1,valid_win,663.2956389000001,43,,,,,,,,,,,,,,,,,,sub_357,2024-03-01_09h40.07.755,Reversal,2023.1.3,60.028909923131614,1,
5,exp3.png,exp4.png,,,,,,,,,,,,,,,,,,1,0,1,0,0,5,5,5,,,,,,,,,False,24,105,True,exp4.png,exp3.png,trial_right_image,-1,exp3.png,1,exp3.png,exp4.png,1,1,non-reversed,correct,0.4877338546072145,1,valid_win,666.9297311,44,,,,,,,,,,,,,,,,,,sub_357,2024-03-01_09h40.07.755,Reversal,2023.1.3,60.028909923131614,1,
6,exp1.png,exp2.png,,,,,,,,,,,,,,,,,,1,0,1,0,0,6,6,6,,,,,,,,,False,25,106,True,exp2.png,exp1.png,trial_right_image,-1,exp1.png,1,exp2.png,exp1.png,1,3,reversed,incorrect,0.6186291825110245,0,valid_lose,670.9876476999998,44,,,,,,,,,,,,,,,,,,sub_357,2024-03-01_09h40.07.755,Reversal,2023.1.3,60.028909923131614,1,
7,exp3.png,exp4.png,,,,,,,,,,,,,,,,,,1,0,1,0,0,7,7,7,,,,,,,,,False,26,107,False,exp3.png,exp4.png,trial_right_image,-1,exp4.png,1,exp3.png,exp4.png,0,2,non-reversed,incorrect,0.03945005943389268,1,invalid_win,674.8870846999998,45,,,,,,,,,,,,,,,,,,sub_357,2024-03-01_09h40.07.755,Reversal,2023.1.3,60.028909923131614,1,
8,exp1.png,exp2.png,,,,,,,,,,,,,,,,,,1,0,1,0,0,8,8,8,,,,,,,,,False,27,108,True,exp2.png,exp1.png,trial_right_image,-1,exp1.png,1,exp2.png,exp1.png,1,3,reversed,incorrect,0.9878126810326704,0,valid_lose,679.1169163000004,45,,,,,,,,,,,,,,,,,,sub_357,2024-03-01_09h40.07.755,Reversal,2023.1.3,60.028909923131614,1,
9,exp3.png,exp4.png,,,,,,,,,,,,,,,,,,1,0,1,0,0,9,9,9,,,,,,,,,False,28,109,False,exp3.png,exp4.png,trial_right_image,-1,exp4.png,1,exp3.png,exp4.png,0,2,non-reversed,incorrect,0.8105328497045966,0,valid_lose,683.2505374000002,45,,,,,,,,,,,,,,,,,,sub_357,2024-03-01_09h40.07.755,Reversal,2023.1.3,60.028909923131614,1,
10,exp1.png,exp2.png,,,,,,,,,,,,,,,,,,1,0,1,0,0,10,10,10,,,,,,,,,False,29,110,True,exp2.png,exp1.png,trial_right_image,-1,exp1.png,1,exp2.png,exp1.png,1,3,reversed,incorrect,0.06427843621123774,1,invalid_win,688.3969078999999,46,,,,,,,,,,,,,,,,,,sub_357,2024-03-01_09h40.07.755,Reversal,2023.1.3,60.028909923131614,1,
11,exp3.png,exp4.png,,,,,,,,,,,,,,,,,,1,0,1,0,0,11,11,11,,,,,,,,,False,30,111,True,exp4.png,exp3.png,trial_right_image,-1,exp3.png,1,exp3.png,exp4.png,1,1,non-reversed,correct,0.42048185928403625,1,valid_win,692.5303098000004,47,,,,,,,,,,,,,,,,,,sub_357,2024-03-01_09h40.07.755,Reversal,2023.1.3,60.028909923131614,1,
12,exp1.png,exp2.png,,,,,,,,,,,,,,,,,,1,0,1,0,0,12,12,12,,,,,,,,,False,31,112,True,exp2.png,exp1.png,trial_right_image,-1,exp1.png,1,exp2.png,exp1.png,1,3,reversed,incorrect,0.2011711814663697,1,invalid_win,696.6794508000003,48,,,,,,,,,,,,,,,,,,sub_357,2024-03-01_09h40.07.755,Reversal,2023.1.3,60.028909923131614,1,
13,exp3.png,exp4.png,,,,,,,,,,,,,,,,,,1,0,1,0,0,13,13,13,,,,,,,,,False,32,113,False,exp3.png,exp4.png,trial_right_image,-1,exp4.png,1,exp3.png,exp4.png,0,2,non-reversed,incorrect,0.9843174744746128,0,valid_lose,700.7115966000001,48,,,,,,,,,,,,,,,,,,sub_357,2024-03-01_09h40.07.755,Reversal,2023.1.3,60.028909923131614,1,
14,exp1.png,exp2.png,,,,,,,,,,,,,,,,,,1,0,1,0,0,14,14,14,,,,,,,,,False,33,114,False,exp1.png,exp2.png,trial_right_image,-1,exp2.png,1,exp2.png,exp1.png,0,4,reversed,correct,0.46922103491752953,1,valid_win,704.3602507000005,49,,,,,,,,,,,,,,,,,,sub_357,2024-03-01_09h40.07.755,Reversal,2023.1.3,60.028909923131614,1,
15,exp3.png,exp4.png,,,,,,,,,,,,,,,,,,1,0,1,0,0,15,15,15,,,,,,,,,False,34,115,True,exp4.png,exp3.png,trial_right_image,-1,exp3.png,1,exp3.png,exp4.png,1,1,non-reversed,correct,0.752652116323643,1,valid_win,707.9389394,50,,,,,,,,,,,,,,,,,,sub_357,2024-03-01_09h40.07.755,Reversal,2023.1.3,60.028909923131614,1,
16,exp1.png,exp2.png,,,,,,,,,,,,,,,,,,1,0,1,0,0,16,16,16,,,,,,,,,False,35,116,False,exp1.png,exp2.png,trial_right_image,-1,exp2.png,1,exp2.png,exp1.png,0,4,reversed,correct,0.7910504825751096,1,valid_win,711.5837030000002,51,,,,,,,,,,,,,,,,,,sub_357,2024-03-01_09h40.07.755,Reversal,2023.1.3,60.028909923131614,1,
17,exp3.png,exp4.png,,,,,,,,,,,,,,,,,,1,0,1,0,0,17,17,17,,,,,,,,,False,36,117,False,exp3.png,exp4.png,trial_right_image,-1,exp4.png,1,exp3.png,exp4.png,0,2,non-reversed,incorrect,0.02343771551266771,1,invalid_win,716.0392142000001,52,,,,,,,,,,,,,,,,,,sub_357,2024-03-01_09h40.07.755,Reversal,2023.1.3,60.028909923131614,1,
18,exp1.png,exp2.png,,,,,,,,,,,,,,,,,,1,0,1,0,0,18,18,18,,,,,,,,,False,37,118,True,exp2.png,exp1.png,trial_left_image,1,exp2.png,1,exp2.png,exp1.png,0,4,reversed,correct,0.2701900034693341,1,valid_win,720.2564714999999,53,,,,,,,,,,,,,,,,,,sub_357,2024-03-01_09h40.07.755,Reversal,2023.1.3,60.028909923131614,1,
19,exp3.png,exp4.png,,,,,,,,,,,,,,,,,,1,0,1,0,0,19,19,19,,,,,,,,,False,38,119,False,exp3.png,exp4.png,trial_right_image,-1,exp4.png,1,exp3.png,exp4.png,0,2,non-reversed,incorrect,0.7875870174154375,0,valid_lose,724.9181074999997,53,,,,,,,,,,,,,,,,,,sub_357,2024-03-01_09h40.07.755,Reversal,2023.1.3,60.028909923131614,1,
20,exp1.png,exp2.png,,,,,,,,,,,,,,,,,,1,0,1,0,0,20,20,20,,,,,,,,,False,39,120,True,exp2.png,exp1.png,trial_left_image,1,exp2.png,1,exp2.png,exp1.png,0,4,reversed,correct,0.4545875002961314,1,valid_win,729.0225074,54,,,,,,,,,,,,,,,,,,sub_357,2024-03-01_09h40.07.755,Reversal,2023.1.3,60.028909923131614,1,
,,,exp1.png,,,,,,,,,,,,,,,,,1,0,1,0,,,,,0,0,0,0,0,0,0,0,,,,,,,,,,,,,,,,,,,,,,876.5686394999998,92.0,92.0,4.767628300000069,"[(92.0, 4.767628300000069)]",,,,,,,,,,,,,sub_357,2024-03-01_09h40.07.755,Reversal,2023.1.3,60.028909923131614,1,
,,,exp2.png,,,,,,,,,,,,,,,,,1,0,1,0,,,,,0,0,0,0,0,1,1,1,,,,,,,,,,,,,,,,,,,,,,884.4333122000003,,91.0,2.213835499999732,"[(91.0, 2.213835499999732)]",91.0,,,,,,,,,,,,sub_357,2024-03-01_09h40.07.755,Reversal,2023.1.3,60.028909923131614,1,
,,,exp3.png,,,,,,,,,,,,,,,,,1,0,1,0,,,,,0,0,0,0,0,2,2,2,,,,,,,,,,,,,,,,,,,,,,887.5948189000005,,91.0,2.1917035000005853,"[(91.0, 2.1917035000005853)]",,91.0,,,,,,,,,,,sub_357,2024-03-01_09h40.07.755,Reversal,2023.1.3,60.028909923131614,1,
,,,exp4.png,,,,,,,,,,,,,,,,,1,0,1,0,,,,,0,0,0,0,0,3,3,3,,,,,,,,,,,,,,,,,,,,,,890.9071561000005,,91.0,2.269307100000333,"[(91.0, 2.269307100000333)]",,,91.0,,,,,,,,,,sub_357,2024-03-01_09h40.07.755,Reversal,2023.1.3,60.028909923131614,1,
0,exp1.png,exp2.png,,,,,,,,,,,,,,,,,,2,0,2,0,0,0,0,0,,,,,,,,,True,,,,,,,,,,,,,,,,,,,,,,,,,,,,,,,,,,,,,,sub_357,2024-03-01_09h40.07.755,Reversal,2023.1.3,60.028909923131614,1,
1,exp3.png,exp4.png,,,,,,,,,,,,,,,,,,2,0,2,0,0,1,1,1,,,,,,,,,False,40,121,True,exp4.png,exp3.png,trial_left_image,1,exp4.png,1,exp3.png,exp4.png,0,2,non-reversed,incorrect,0.23156063862851173,1,invalid_win,751.3110106000004,55,,,,,,,,,,,,,,,,,,sub_357,2024-03-01_09h40.07.755,Reversal,2023.1.3,60.028909923131614,1,
2,exp1.png,exp2.png,,,,,,,,,,,,,,,,,,2,0,2,0,0,2,2,2,,,,,,,,,False,41,122,False,exp1.png,exp2.png,trial_right_image,-1,exp2.png,1,exp2.png,exp1.png,0,4,reversed,correct,0.16872741013469983,0,invalid_lose,755.526683,55,,,,,,,,,,,,,,,,,,sub_357,2024-03-01_09h40.07.755,Reversal,2023.1.3,60.028909923131614,1,
3,exp3.png,exp4.png,,,,,,,,,,,,,,,,,,2,0,2,0,0,3,3,3,,,,,,,,,False,42,123,True,exp4.png,exp3.png,trial_left_image,1,exp4.png,1,exp3.png,exp4.png,0,2,non-reversed,incorrect,0.3368782578080318,0,valid_lose,760.9575560000003,55,,,,,,,,,,,,,,,,,,sub_357,2024-03-01_09h40.07.755,Reversal,2023.1.3,60.028909923131614,1,
4,exp1.png,exp2.png,,,,,,,,,,,,,,,,,,2,0,2,0,0,4,4,4,,,,,,,,,False,43,124,False,exp1.png,exp2.png,trial_left_image,1,exp1.png,1,exp2.png,exp1.png,1,3,reversed,incorrect,0.008511375541129573,1,invalid_win,765.7051577000002,56,,,,,,,,,,,,,,,,,,sub_357,2024-03-01_09h40.07.755,Reversal,2023.1.3,60.028909923131614,1,
5,exp3.png,exp4.png,,,,,,,,,,,,,,,,,,2,0,2,0,0,5,5,5,,,,,,,,,False,44,125,False,exp3.png,exp4.png,trial_right_image,-1,exp4.png,1,exp3.png,exp4.png,0,2,non-reversed,incorrect,0.2692110301733026,0,valid_lose,770.4362639000001,56,,,,,,,,,,,,,,,,,,sub_357,2024-03-01_09h40.07.755,Reversal,2023.1.3,60.028909923131614,1,
6,exp1.png,exp2.png,,,,,,,,,,,,,,,,,,2,0,2,0,0,6,6,6,,,,,,,,,False,45,126,True,exp2.png,exp1.png,trial_right_image,-1,exp1.png,1,exp2.png,exp1.png,1,3,reversed,incorrect,0.5034767775937448,0,valid_lose,774.498302,56,,,,,,,,,,,,,,,,,,sub_357,2024-03-01_09h40.07.755,Reversal,2023.1.3,60.028909923131614,1,
7,exp3.png,exp4.png,,,,,,,,,,,,,,,,,,2,0,2,0,0,7,7,7,,,,,,,,,False,46,127,True,exp4.png,exp3.png,trial_right_image,-1,exp3.png,1,exp3.png,exp4.png,1,1,non-reversed,correct,0.09313338968583329,0,invalid_lose,778.7182455000002,56,,,,,,,,,,,,,,,,,,sub_357,2024-03-01_09h40.07.755,Reversal,2023.1.3,60.028909923131614,1,
8,exp1.png,exp2.png,,,,,,,,,,,,,,,,,,2,0,2,0,0,8,8,8,,,,,,,,,False,47,128,True,exp2.png,exp1.png,trial_right_image,-1,exp1.png,1,exp2.png,exp1.png,1,3,reversed,incorrect,0.5679873767624002,0,valid_lose,783.2995453000003,56,,,,,,,,,,,,,,,,,,sub_357,2024-03-01_09h40.07.755,Reversal,2023.1.3,60.028909923131614,1,
9,exp3.png,exp4.png,,,,,,,,,,,,,,,,,,2,0,2,0,0,9,9,9,,,,,,,,,False,48,129,True,exp4.png,exp3.png,trial_right_image,-1,exp3.png,1,exp3.png,exp4.png,1,1,non-reversed,correct,0.41214158495988595,1,valid_win,787.6646029000003,57,,,,,,,,,,,,,,,,,,sub_357,2024-03-01_09h40.07.755,Reversal,2023.1.3,60.028909923131614,1,
10,exp1.png,exp2.png,,,,,,,,,,,,,,,,,,2,0,2,0,0,10,10,10,,,,,,,,,False,49,130,False,exp1.png,exp2.png,trial_left_image,1,exp1.png,1,exp2.png,exp1.png,1,3,reversed,incorrect,0.7731587438411485,0,valid_lose,792.1468676000004,57,,,,,,,,,,,,,,,,,,sub_357,2024-03-01_09h40.07.755,Reversal,2023.1.3,60.028909923131614,1,
11,exp3.png,exp4.png,,,,,,,,,,,,,,,,,,2,0,2,0,0,11,11,11,,,,,,,,,False,50,131,True,exp4.png,exp3.png,trial_right_image,-1,exp3.png,1,exp3.png,exp4.png,1,1,non-reversed,correct,0.2726561841113804,1,valid_win,796.2121600999999,58,,,,,,,,,,,,,,,,,,sub_357,2024-03-01_09h40.07.755,Reversal,2023.1.3,60.028909923131614,1,
12,exp1.png,exp2.png,,,,,,,,,,,,,,,,,,2,0,2,0,0,12,12,12,,,,,,,,,False,51,132,False,exp1.png,exp2.png,trial_left_image,1,exp1.png,1,exp2.png,exp1.png,1,3,reversed,incorrect,0.3672061314773599,0,valid_lose,800.1595432000004,58,,,,,,,,,,,,,,,,,,sub_357,2024-03-01_09h40.07.755,Reversal,2023.1.3,60.028909923131614,1,
13,exp3.png,exp4.png,,,,,,,,,,,,,,,,,,2,0,2,0,0,13,13,13,,,,,,,,,False,52,133,False,exp3.png,exp4.png,trial_right_image,-1,exp4.png,1,exp3.png,exp4.png,0,2,non-reversed,incorrect,0.5165632432619732,0,valid_lose,804.0369071000005,58,,,,,,,,,,,,,,,,,,sub_357,2024-03-01_09h40.07.755,Reversal,2023.1.3,60.028909923131614,1,
14,exp1.png,exp2.png,,,,,,,,,,,,,,,,,,2,0,2,0,0,14,14,14,,,,,,,,,False,53,134,False,exp1.png,exp2.png,trial_right_image,-1,exp2.png,1,exp2.png,exp1.png,0,4,reversed,correct,0.10226177456045027,0,invalid_lose,808.556896,58,,,,,,,,,,,,,,,,,,sub_357,2024-03-01_09h40.07.755,Reversal,2023.1.3,60.028909923131614,1,
15,exp3.png,exp4.png,,,,,,,,,,,,,,,,,,2,0,2,0,0,15,15,15,,,,,,,,,False,54,135,False,exp3.png,exp4.png,trial_right_image,-1,exp4.png,1,exp3.png,exp4.png,0,2,non-reversed,incorrect,0.024454609393532833,1,invalid_win,812.7394727000001,59,,,,,,,,,,,,,,,,,,sub_357,2024-03-01_09h40.07.755,Reversal,2023.1.3,60.028909923131614,1,
16,exp1.png,exp2.png,,,,,,,,,,,,,,,,,,2,0,2,0,0,16,16,16,,,,,,,,,False,55,136,False,exp1.png,exp2.png,trial_left_image,1,exp1.png,1,exp2.png,exp1.png,1,3,reversed,incorrect,0.14787999343446834,1,invalid_win,816.4549324,60,,,,,,,,,,,,,,,,,,sub_357,2024-03-01_09h40.07.755,Reversal,2023.1.3,60.028909923131614,1,
17,exp3.png,exp4.png,,,,,,,,,,,,,,,,,,2,0,2,0,0,17,17,17,,,,,,,,,False,56,137,True,exp4.png,exp3.png,trial_left_image,1,exp4.png,1,exp3.png,exp4.png,0,2,non-reversed,incorrect,0.3012978139782141,0,valid_lose,820.7076275,60,,,,,,,,,,,,,,,,,,sub_357,2024-03-01_09h40.07.755,Reversal,2023.1.3,60.028909923131614,1,
18,exp1.png,exp2.png,,,,,,,,,,,,,,,,,,2,0,2,0,0,18,18,18,,,,,,,,,False,57,138,True,exp2.png,exp1.png,trial_right_image,-1,exp1.png,1,exp2.png,exp1.png,1,3,reversed,incorrect,0.7979180760589603,0,valid_lose,825.4852209999999,60,,,,,,,,,,,,,,,,,,sub_357,2024-03-01_09h40.07.755,Reversal,2023.1.3,60.028909923131614,1,
19,exp3.png,exp4.png,,,,,,,,,,,,,,,,,,2,0,2,0,0,19,19,19,,,,,,,,,False,58,139,True,exp4.png,exp3.png,trial_right_image,-1,exp3.png,1,exp3.png,exp4.png,1,1,non-reversed,correct,0.013940145804721693,0,invalid_lose,829.7002218999996,60,,,,,,,,,,,,,,,,,,sub_357,2024-03-01_09h40.07.755,Reversal,2023.1.3,60.028909923131614,1,
20,exp1.png,exp2.png,,,,,,,,,,,,,,,,,,2,0,2,0,0,20,20,20,,,,,,,,,False,59,140,False,exp1.png,exp2.png,trial_right_image,-1,exp2.png,1,exp2.png,exp1.png,0,4,reversed,correct,0.8206098843211531,1,valid_win,833.7382705999999,61,,,,,,,,,,,,,,,,,,sub_357,2024-03-01_09h40.07.755,Reversal,2023.1.3,60.028909923131614,1,
,,,exp1.png,,,,,,,,,,,,,,,,,2,0,2,0,,,,,0,0,0,0,0,0,0,0,,,,,,,,,,,,,,,,,,,,,,981.2861205000004,91.0,91.0,3.658564800000022,"[(91.0, 3.658564800000022)]",,,,,,,,,,,,,sub_357,2024-03-01_09h40.07.755,Reversal,2023.1.3,60.028909923131614,1,
,,,exp2.png,,,,,,,,,,,,,,,,,2,0,2,0,,,,,0,0,0,0,0,1,1,1,,,,,,,,,,,,,,,,,,,,,,985.9099565000001,,89.0,1.1520473000000493,"[(89.0, 1.1520473000000493)]",89.0,,,,,,,,,,,,sub_357,2024-03-01_09h40.07.755,Reversal,2023.1.3,60.028909923131614,1,
,,,exp3.png,,,,,,,,,,,,,,,,,2,0,2,0,,,,,0,0,0,0,0,2,2,2,,,,,,,,,,,,,,,,,,,,,,987.9863118999997,,92.0,1.3394515999998475,"[(92.0, 1.3394515999998475)]",,92.0,,,,,,,,,,,sub_357,2024-03-01_09h40.07.755,Reversal,2023.1.3,60.028909923131614,1,
,,,exp4.png,,,,,,,,,,,,,,,,,2,0,2,0,,,,,0,0,0,0,0,3,3,3,,,,,,,,,,,,,,,,,,,,,,990.2297651000003,,90.0,1.5974867999993876,"[(90.0, 1.5974867999993876)]",,,90.0,,,,,,,,,,sub_357,2024-03-01_09h40.07.755,Reversal,2023.1.3,60.028909923131614,1,
,,,,,,,,,,,,,,,,,,,,,,,,,,,,,,,,,,,,,,,,,,,,,,,,,,,,,,,,61,,,,,,,,,,40,16,24,299.2556120999998,1,space,94.02597109999942,None,sub_357,2024-03-01_09h40.07.755,Reversal,2023.1.3,60.028909923131614,1,
