trial_index,trial_image1_file,trial_image2_file,image_file,learning_outer_loop.thisRepN,learning_outer_loop.thisTrialN,learning_outer_loop.thisN,learning_outer_loop.thisIndex,learning_inner_loop.thisRepN,learning_inner_loop.thisTrialN,learning_inner_loop.thisN,learning_inner_loop.thisIndex,learning_estimation_outer_loop.thisRepN,learning_estimation_outer_loop.thisTrialN,learning_estimation_outer_loop.thisN,learning_estimation_outer_loop.thisIndex,learning_estimation_inner_loop.thisRepN,learning_estimation_inner_loop.thisTrialN,learning_estimation_inner_loop.thisN,learning_estimation_inner_loop.thisIndex,reversal_outer_loop.thisRepN,reversal_outer_loop.thisTrialN,reversal_outer_loop.thisN,reversal_outer_loop.thisIndex,reversal_inner_loop.thisRepN,reversal_inner_loop.thisTrialN,reversal_inner_loop.thisN,reversal_inner_loop.thisIndex,reversal_estimation_outer_loop.thisRepN,reversal_estimation_outer_loop.thisTrialN,reversal_estimation_outer_loop.thisN,reversal_estimation_outer_loop.thisIndex,reversal_estimation_inner_loop.thisRepN,reversal_estimation_inner_loop.thisTrialN,reversal_estimation_inner_loop.thisN,reversal_estimation_inner_loop.thisIndex,skipped,total_trial_counter,trial_num,left_right_flip,left_image_file,right_image_file,clicked_stimulus_side,side,clicked_stimulus,version,high_prob_image_file,low_prob_image_file,choice_a,choice_b,pair_type,correct,trial_feedback_random,reward,trial_type,overall_time_after_trial,score,estimation_rating.response,estimation_rating.rt,estimation_rating.history,estimation_rating.started,estimation_rating.stopped,estimation_exp2.png,estimation_exp4.png,estimation_exp1.png,estimation_exp3.png,total_learning_time,total_correct,learning_correct,reversal_correct,total_reversal_time,extra_block,end_experiment.keys,end_experiment.rt,participant,date,expName,psychopyVersion,frameRate,ver,
0,exp1.png,exp2.png,,0,0,0,0,0,0,0,0,,,,,,,,,,,,,,,,,,,,,,,,,False,0,1,False,exp1.png,exp2.png,trial_right_image,-1,exp2.png,2,exp1.png,exp2.png,0,2,non-reversed,incorrect,0.4828715977993735,0,valid_lose,5.366692300000068,0,,,,,,,,,,,,,,,,,,sub_490,2024-06-09_12h32.41.021,Reversal,2022.1.2,59.9916011758293,2,
1,exp3.png,exp4.png,,0,0,0,0,0,1,1,1,,,,,,,,,,,,,,,,,,,,,,,,,False,1,2,True,exp4.png,exp3.png,trial_right_image,-1,exp3.png,2,exp3.png,exp4.png,1,3,reversed,correct,0.07464902913209714,0,invalid_lose,14.783285500000147,0,,,,,,,,,,,,,,,,,,sub_490,2024-06-09_12h32.41.021,Reversal,2022.1.2,59.9916011758293,2,
2,exp1.png,exp2.png,,0,0,0,0,0,2,2,2,,,,,,,,,,,,,,,,,,,,,,,,,False,2,3,True,exp2.png,exp1.png,trial_right_image,-1,exp1.png,2,exp1.png,exp2.png,1,1,non-reversed,correct,0.6704925564050204,1,valid_win,21.049612300000263,1,,,,,,,,,,,,,,,,,,sub_490,2024-06-09_12h32.41.021,Reversal,2022.1.2,59.9916011758293,2,
3,exp3.png,exp4.png,,0,0,0,0,0,3,3,3,,,,,,,,,,,,,,,,,,,,,,,,,False,3,4,False,exp3.png,exp4.png,trial_right_image,-1,exp4.png,2,exp3.png,exp4.png,0,4,reversed,incorrect,0.5830910405854884,0,valid_lose,32.78203650000023,1,,,,,,,,,,,,,,,,,,sub_490,2024-06-09_12h32.41.021,Reversal,2022.1.2,59.9916011758293,2,
4,exp1.png,exp2.png,,0,0,0,0,0,4,4,4,,,,,,,,,,,,,,,,,,,,,,,,,False,4,5,True,exp2.png,exp1.png,trial_right_image,-1,exp1.png,2,exp1.png,exp2.png,1,1,non-reversed,correct,0.3957142043374007,1,valid_win,37.69976610000003,2,,,,,,,,,,,,,,,,,,sub_490,2024-06-09_12h32.41.021,Reversal,2022.1.2,59.9916011758293,2,
5,exp3.png,exp4.png,,0,0,0,0,0,5,5,5,,,,,,,,,,,,,,,,,,,,,,,,,False,5,6,True,exp4.png,exp3.png,trial_right_image,-1,exp3.png,2,exp3.png,exp4.png,1,3,reversed,correct,0.8194798698136183,1,valid_win,44.7160243000003,3,,,,,,,,,,,,,,,,,,sub_490,2024-06-09_12h32.41.021,Reversal,2022.1.2,59.9916011758293,2,
6,exp1.png,exp2.png,,0,0,0,0,0,6,6,6,,,,,,,,,,,,,,,,,,,,,,,,,False,6,7,True,exp2.png,exp1.png,trial_right_image,-1,exp1.png,2,exp1.png,exp2.png,1,1,non-reversed,correct,0.3680638578480703,1,valid_win,52.24935080000023,4,,,,,,,,,,,,,,,,,,sub_490,2024-06-09_12h32.41.021,Reversal,2022.1.2,59.9916011758293,2,
7,exp3.png,exp4.png,,0,0,0,0,0,7,7,7,,,,,,,,,,,,,,,,,,,,,,,,,False,7,8,False,exp3.png,exp4.png,trial_right_image,-1,exp4.png,2,exp3.png,exp4.png,0,4,reversed,incorrect,0.705566084792031,0,valid_lose,56.84864920000018,4,,,,,,,,,,,,,,,,,,sub_490,2024-06-09_12h32.41.021,Reversal,2022.1.2,59.9916011758293,2,
8,exp1.png,exp2.png,,0,0,0,0,0,8,8,8,,,,,,,,,,,,,,,,,,,,,,,,,False,8,9,False,exp1.png,exp2.png,trial_right_image,-1,exp2.png,2,exp1.png,exp2.png,0,2,non-reversed,incorrect,0.8946193636799751,0,valid_lose,61.44901280000022,4,,,,,,,,,,,,,,,,,,sub_490,2024-06-09_12h32.41.021,Reversal,2022.1.2,59.9916011758293,2,
9,exp3.png,exp4.png,,0,0,0,0,0,9,9,9,,,,,,,,,,,,,,,,,,,,,,,,,False,9,10,True,exp4.png,exp3.png,trial_right_image,-1,exp3.png,2,exp3.png,exp4.png,1,3,reversed,correct,0.9536467744490145,1,valid_win,65.76611869999988,5,,,,,,,,,,,,,,,,,,sub_490,2024-06-09_12h32.41.021,Reversal,2022.1.2,59.9916011758293,2,
10,exp1.png,exp2.png,,0,0,0,0,0,10,10,10,,,,,,,,,,,,,,,,,,,,,,,,,False,10,11,False,exp1.png,exp2.png,trial_right_image,-1,exp2.png,2,exp1.png,exp2.png,0,2,non-reversed,incorrect,0.03356922152903663,1,invalid_win,70.24889630000007,6,,,,,,,,,,,,,,,,,,sub_490,2024-06-09_12h32.41.021,Reversal,2022.1.2,59.9916011758293,2,
11,exp3.png,exp4.png,,0,0,0,0,0,11,11,11,,,,,,,,,,,,,,,,,,,,,,,,,False,11,12,False,exp3.png,exp4.png,trial_right_image,-1,exp4.png,2,exp3.png,exp4.png,0,4,reversed,incorrect,0.9119830545365826,0,valid_lose,75.99826269999994,6,,,,,,,,,,,,,,,,,,sub_490,2024-06-09_12h32.41.021,Reversal,2022.1.2,59.9916011758293,2,
12,exp1.png,exp2.png,,0,0,0,0,0,12,12,12,,,,,,,,,,,,,,,,,,,,,,,,,False,12,13,True,exp2.png,exp1.png,trial_right_image,-1,exp1.png,2,exp1.png,exp2.png,1,1,non-reversed,correct,0.9522005601410705,1,valid_win,80.6986721000003,7,,,,,,,,,,,,,,,,,,sub_490,2024-06-09_12h32.41.021,Reversal,2022.1.2,59.9916011758293,2,
13,exp3.png,exp4.png,,0,0,0,0,0,13,13,13,,,,,,,,,,,,,,,,,,,,,,,,,False,13,14,False,exp3.png,exp4.png,trial_right_image,-1,exp4.png,2,exp3.png,exp4.png,0,4,reversed,incorrect,0.043325392144095254,1,invalid_win,85.28122389999999,8,,,,,,,,,,,,,,,,,,sub_490,2024-06-09_12h32.41.021,Reversal,2022.1.2,59.9916011758293,2,
14,exp1.png,exp2.png,,0,0,0,0,0,14,14,14,,,,,,,,,,,,,,,,,,,,,,,,,False,14,15,False,exp1.png,exp2.png,trial_right_image,-1,exp2.png,2,exp1.png,exp2.png,0,2,non-reversed,incorrect,0.3491370360584126,0,valid_lose,91.8817597000002,8,,,,,,,,,,,,,,,,,,sub_490,2024-06-09_12h32.41.021,Reversal,2022.1.2,59.9916011758293,2,
15,exp3.png,exp4.png,,0,0,0,0,0,15,15,15,,,,,,,,,,,,,,,,,,,,,,,,,False,15,16,False,exp3.png,exp4.png,trial_right_image,-1,exp4.png,2,exp3.png,exp4.png,0,4,reversed,incorrect,0.3432149711748409,0,valid_lose,96.03165350000017,8,,,,,,,,,,,,,,,,,,sub_490,2024-06-09_12h32.41.021,Reversal,2022.1.2,59.9916011758293,2,
16,exp1.png,exp2.png,,0,0,0,0,0,16,16,16,,,,,,,,,,,,,,,,,,,,,,,,,False,16,17,True,exp2.png,exp1.png,trial_right_image,-1,exp1.png,2,exp1.png,exp2.png,1,1,non-reversed,correct,0.7930638447044887,1,valid_win,100.24785220000012,9,,,,,,,,,,,,,,,,,,sub_490,2024-06-09_12h32.41.021,Reversal,2022.1.2,59.9916011758293,2,
17,exp3.png,exp4.png,,0,0,0,0,0,17,17,17,,,,,,,,,,,,,,,,,,,,,,,,,False,17,18,True,exp4.png,exp3.png,trial_right_image,-1,exp3.png,2,exp3.png,exp4.png,1,3,reversed,correct,0.43441021250813305,1,valid_win,104.66495290000012,10,,,,,,,,,,,,,,,,,,sub_490,2024-06-09_12h32.41.021,Reversal,2022.1.2,59.9916011758293,2,
18,exp1.png,exp2.png,,0,0,0,0,0,18,18,18,,,,,,,,,,,,,,,,,,,,,,,,,False,18,19,True,exp2.png,exp1.png,trial_right_image,-1,exp1.png,2,exp1.png,exp2.png,1,1,non-reversed,correct,0.7158704053874091,1,valid_win,108.86429010000029,11,,,,,,,,,,,,,,,,,,sub_490,2024-06-09_12h32.41.021,Reversal,2022.1.2,59.9916011758293,2,
19,exp3.png,exp4.png,,0,0,0,0,0,19,19,19,,,,,,,,,,,,,,,,,,,,,,,,,False,19,20,False,exp3.png,exp4.png,trial_right_image,-1,exp4.png,2,exp3.png,exp4.png,0,4,reversed,incorrect,0.12581006306899312,1,invalid_win,113.14799279999988,12,,,,,,,,,,,,,,,,,,sub_490,2024-06-09_12h32.41.021,Reversal,2022.1.2,59.9916011758293,2,
20,exp1.png,exp2.png,,0,0,0,0,0,20,20,20,,,,,,,,,,,,,,,,,,,,,,,,,True,,,,,,,,,,,,,,,,,,,,,,,,,,,,,,,,,,,,,,sub_490,2024-06-09_12h32.41.021,Reversal,2022.1.2,59.9916011758293,2,
,,,exp1.png,0,0,0,0,,,,,0,0,0,0,0,0,0,0,,,,,,,,,,,,,,,,,,,,,,,,,,,,,,,,,,,,,,50.0,None,[],212.89767889999985,None,,,,,,,,,,,,,sub_490,2024-06-09_12h32.41.021,Reversal,2022.1.2,59.9916011758293,2,
,,,exp2.png,0,0,0,0,,,,,0,0,0,0,0,1,1,1,,,,,,,,,,,,,,,,,,,,,,,,,,,,,,,,,,,,,,61.0,5.631830799999989,"[(61.0, 5.631830799999989)]",230.06204679999973,None,61.0,,,,,,,,,,,,sub_490,2024-06-09_12h32.41.021,Reversal,2022.1.2,59.9916011758293,2,
,,,exp3.png,0,0,0,0,,,,,0,0,0,0,0,2,2,2,,,,,,,,,,,,,,,,,,,,,,,,,,,,,,,,,,,,,,50.0,None,[],237.17427869999983,None,,,,,,,,,,,,,sub_490,2024-06-09_12h32.41.021,Reversal,2022.1.2,59.9916011758293,2,
,,,exp4.png,0,0,0,0,,,,,0,0,0,0,0,3,3,3,,,,,,,,,,,,,,,,,,,,,,,,,,,,,,,,,,,,,,23.0,5.017647900000156,"[(23.0, 5.017647900000156)]",239.77129909999985,None,,23.0,,,,,,,,,,,sub_490,2024-06-09_12h32.41.021,Reversal,2022.1.2,59.9916011758293,2,
0,exp1.png,exp2.png,,1,0,1,0,0,0,0,0,,,,,,,,,,,,,,,,,,,,,,,,,False,20,21,False,exp1.png,exp2.png,trial_right_image,-1,exp2.png,2,exp1.png,exp2.png,0,2,non-reversed,incorrect,0.8296976567509541,0,valid_lose,151.86389670000017,12,,,,,,,,,,,,,,,,,,sub_490,2024-06-09_12h32.41.021,Reversal,2022.1.2,59.9916011758293,2,
1,exp3.png,exp4.png,,1,0,1,0,0,1,1,1,,,,,,,,,,,,,,,,,,,,,,,,,False,21,22,True,exp4.png,exp3.png,trial_right_image,-1,exp3.png,2,exp3.png,exp4.png,1,3,reversed,correct,0.561477127734437,1,valid_win,156.01354820000006,13,,,,,,,,,,,,,,,,,,sub_490,2024-06-09_12h32.41.021,Reversal,2022.1.2,59.9916011758293,2,
2,exp1.png,exp2.png,,1,0,1,0,0,2,2,2,,,,,,,,,,,,,,,,,,,,,,,,,False,22,23,False,exp1.png,exp2.png,trial_right_image,-1,exp2.png,2,exp1.png,exp2.png,0,2,non-reversed,incorrect,0.5872292138512658,0,valid_lose,160.13045760000023,13,,,,,,,,,,,,,,,,,,sub_490,2024-06-09_12h32.41.021,Reversal,2022.1.2,59.9916011758293,2,
3,exp3.png,exp4.png,,1,0,1,0,0,3,3,3,,,,,,,,,,,,,,,,,,,,,,,,,False,23,24,True,exp4.png,exp3.png,trial_right_image,-1,exp3.png,2,exp3.png,exp4.png,1,3,reversed,correct,0.046301710500029625,0,invalid_lose,164.16332839999995,13,,,,,,,,,,,,,,,,,,sub_490,2024-06-09_12h32.41.021,Reversal,2022.1.2,59.9916011758293,2,
4,exp1.png,exp2.png,,1,0,1,0,0,4,4,4,,,,,,,,,,,,,,,,,,,,,,,,,False,24,25,False,exp1.png,exp2.png,trial_right_image,-1,exp2.png,2,exp1.png,exp2.png,0,2,non-reversed,incorrect,0.8545047460322318,0,valid_lose,168.19732310000018,13,,,,,,,,,,,,,,,,,,sub_490,2024-06-09_12h32.41.021,Reversal,2022.1.2,59.9916011758293,2,
5,exp3.png,exp4.png,,1,0,1,0,0,5,5,5,,,,,,,,,,,,,,,,,,,,,,,,,False,25,26,False,exp3.png,exp4.png,trial_right_image,-1,exp4.png,2,exp3.png,exp4.png,0,4,reversed,incorrect,0.5218786335059024,0,valid_lose,172.8972329000003,13,,,,,,,,,,,,,,,,,,sub_490,2024-06-09_12h32.41.021,Reversal,2022.1.2,59.9916011758293,2,
6,exp1.png,exp2.png,,1,0,1,0,0,6,6,6,,,,,,,,,,,,,,,,,,,,,,,,,False,26,27,False,exp1.png,exp2.png,trial_right_image,-1,exp2.png,2,exp1.png,exp2.png,0,2,non-reversed,incorrect,0.08407834313921292,1,invalid_win,176.9798069000003,14,,,,,,,,,,,,,,,,,,sub_490,2024-06-09_12h32.41.021,Reversal,2022.1.2,59.9916011758293,2,
7,exp3.png,exp4.png,,1,0,1,0,0,7,7,7,,,,,,,,,,,,,,,,,,,,,,,,,False,27,28,False,exp3.png,exp4.png,trial_right_image,-1,exp4.png,2,exp3.png,exp4.png,0,4,reversed,incorrect,0.7927466003697251,0,valid_lose,181.5793804,14,,,,,,,,,,,,,,,,,,sub_490,2024-06-09_12h32.41.021,Reversal,2022.1.2,59.9916011758293,2,
8,exp1.png,exp2.png,,1,0,1,0,0,8,8,8,,,,,,,,,,,,,,,,,,,,,,,,,False,28,29,True,exp2.png,exp1.png,trial_right_image,-1,exp1.png,2,exp1.png,exp2.png,1,1,non-reversed,correct,0.1911913173786658,0,invalid_lose,185.74621509999997,14,,,,,,,,,,,,,,,,,,sub_490,2024-06-09_12h32.41.021,Reversal,2022.1.2,59.9916011758293,2,
9,exp3.png,exp4.png,,1,0,1,0,0,9,9,9,,,,,,,,,,,,,,,,,,,,,,,,,False,29,30,False,exp3.png,exp4.png,trial_right_image,-1,exp4.png,2,exp3.png,exp4.png,0,4,reversed,incorrect,0.44036220003628224,0,valid_lose,189.82979460000024,14,,,,,,,,,,,,,,,,,,sub_490,2024-06-09_12h32.41.021,Reversal,2022.1.2,59.9916011758293,2,
10,exp1.png,exp2.png,,1,0,1,0,0,10,10,10,,,,,,,,,,,,,,,,,,,,,,,,,False,30,31,True,exp2.png,exp1.png,trial_right_image,-1,exp1.png,2,exp1.png,exp2.png,1,1,non-reversed,correct,0.37329959748264285,1,valid_win,193.87909390000004,15,,,,,,,,,,,,,,,,,,sub_490,2024-06-09_12h32.41.021,Reversal,2022.1.2,59.9916011758293,2,
11,exp3.png,exp4.png,,1,0,1,0,0,11,11,11,,,,,,,,,,,,,,,,,,,,,,,,,False,31,32,True,exp4.png,exp3.png,trial_right_image,-1,exp3.png,2,exp3.png,exp4.png,1,3,reversed,correct,0.8367274458750599,1,valid_win,197.94619330000023,16,,,,,,,,,,,,,,,,,,sub_490,2024-06-09_12h32.41.021,Reversal,2022.1.2,59.9916011758293,2,
12,exp1.png,exp2.png,,1,0,1,0,0,12,12,12,,,,,,,,,,,,,,,,,,,,,,,,,False,32,33,False,exp1.png,exp2.png,trial_right_image,-1,exp2.png,2,exp1.png,exp2.png,0,2,non-reversed,incorrect,0.32245972467142003,0,valid_lose,202.04658689999997,16,,,,,,,,,,,,,,,,,,sub_490,2024-06-09_12h32.41.021,Reversal,2022.1.2,59.9916011758293,2,
13,exp3.png,exp4.png,,1,0,1,0,0,13,13,13,,,,,,,,,,,,,,,,,,,,,,,,,False,33,34,True,exp4.png,exp3.png,trial_right_image,-1,exp3.png,2,exp3.png,exp4.png,1,3,reversed,correct,0.4790116753431277,1,valid_win,206.17911809999987,17,,,,,,,,,,,,,,,,,,sub_490,2024-06-09_12h32.41.021,Reversal,2022.1.2,59.9916011758293,2,
14,exp1.png,exp2.png,,1,0,1,0,0,14,14,14,,,,,,,,,,,,,,,,,,,,,,,,,False,34,35,True,exp2.png,exp1.png,trial_right_image,-1,exp1.png,2,exp1.png,exp2.png,1,1,non-reversed,correct,0.4530835990494224,1,valid_win,210.2795372999999,18,,,,,,,,,,,,,,,,,,sub_490,2024-06-09_12h32.41.021,Reversal,2022.1.2,59.9916011758293,2,
15,exp3.png,exp4.png,,1,0,1,0,0,15,15,15,,,,,,,,,,,,,,,,,,,,,,,,,False,35,36,True,exp4.png,exp3.png,trial_right_image,-1,exp3.png,2,exp3.png,exp4.png,1,3,reversed,correct,0.680584357395346,1,valid_win,214.32928720000018,19,,,,,,,,,,,,,,,,,,sub_490,2024-06-09_12h32.41.021,Reversal,2022.1.2,59.9916011758293,2,
16,exp1.png,exp2.png,,1,0,1,0,0,16,16,16,,,,,,,,,,,,,,,,,,,,,,,,,False,36,37,True,exp2.png,exp1.png,trial_right_image,-1,exp1.png,2,exp1.png,exp2.png,1,1,non-reversed,correct,0.6448397120873528,1,valid_win,218.41247440000006,20,,,,,,,,,,,,,,,,,,sub_490,2024-06-09_12h32.41.021,Reversal,2022.1.2,59.9916011758293,2,
17,exp3.png,exp4.png,,1,0,1,0,0,17,17,17,,,,,,,,,,,,,,,,,,,,,,,,,False,37,38,True,exp4.png,exp3.png,trial_right_image,-1,exp3.png,2,exp3.png,exp4.png,1,3,reversed,correct,0.16712131390722407,0,invalid_lose,222.67983980000008,20,,,,,,,,,,,,,,,,,,sub_490,2024-06-09_12h32.41.021,Reversal,2022.1.2,59.9916011758293,2,
18,exp1.png,exp2.png,,1,0,1,0,0,18,18,18,,,,,,,,,,,,,,,,,,,,,,,,,False,38,39,False,exp1.png,exp2.png,trial_right_image,-1,exp2.png,2,exp1.png,exp2.png,0,2,non-reversed,incorrect,0.5348512842316846,0,valid_lose,227.1788819000003,20,,,,,,,,,,,,,,,,,,sub_490,2024-06-09_12h32.41.021,Reversal,2022.1.2,59.9916011758293,2,
19,exp3.png,exp4.png,,1,0,1,0,0,19,19,19,,,,,,,,,,,,,,,,,,,,,,,,,False,39,40,False,exp3.png,exp4.png,trial_right_image,-1,exp4.png,2,exp3.png,exp4.png,0,4,reversed,incorrect,0.1540157230969903,1,invalid_win,231.71211619999985,21,,,,,,,,,,,,,,,,,,sub_490,2024-06-09_12h32.41.021,Reversal,2022.1.2,59.9916011758293,2,
20,exp1.png,exp2.png,,1,0,1,0,0,20,20,20,,,,,,,,,,,,,,,,,,,,,,,,,True,,,,,,,,,,,,,,,,,,,,,,,,,,,,,,,,,,,,,,sub_490,2024-06-09_12h32.41.021,Reversal,2022.1.2,59.9916011758293,2,
,,,exp1.png,1,0,1,0,,,,,0,0,0,0,0,0,0,0,,,,,,,,,,,,,,,,,,,,,,,,,,,,,,,,,,,,,,50.0,None,[],331.4694224,None,,,,,,,,,,,,,sub_490,2024-06-09_12h32.41.021,Reversal,2022.1.2,59.9916011758293,2,
,,,exp2.png,1,0,1,0,,,,,0,0,0,0,0,1,1,1,,,,,,,,,,,,,,,,,,,,,,,,,,,,,,,,,,,,,,29.0,6.800880800000414,"[(29.0, 6.800880800000414)]",334.0020961999994,None,29.0,,,,,,,,,,,,sub_490,2024-06-09_12h32.41.021,Reversal,2022.1.2,59.9916011758293,2,
,,,exp3.png,1,0,1,0,,,,,0,0,0,0,0,2,2,2,,,,,,,,,,,,,,,,,,,,,,,,,,,,,,,,,,,,,,50.0,None,[],342.8698223999995,None,,,,,,,,,,,,,sub_490,2024-06-09_12h32.41.021,Reversal,2022.1.2,59.9916011758293,2,
,,,exp4.png,1,0,1,0,,,,,0,0,0,0,0,3,3,3,,,,,,,,,,,,,,,,,,,,,,,,,,,,,,,,,,,,,,50.0,None,[],345.7344473999997,None,,,,,,,,,,,,,sub_490,2024-06-09_12h32.41.021,Reversal,2022.1.2,59.9916011758293,2,
0,exp1.png,exp2.png,,2,0,2,0,0,0,0,0,,,,,,,,,,,,,,,,,,,,,,,,,False,40,41,False,exp1.png,exp2.png,trial_left_image,1,exp1.png,2,exp1.png,exp2.png,1,1,non-reversed,correct,0.721587922971182,1,valid_win,253.21227130000034,22,,,,,,,,,,,,,,,,,,sub_490,2024-06-09_12h32.41.021,Reversal,2022.1.2,59.9916011758293,2,
1,exp3.png,exp4.png,,2,0,2,0,0,1,1,1,,,,,,,,,,,,,,,,,,,,,,,,,False,41,42,False,exp3.png,exp4.png,trial_left_image,1,exp3.png,2,exp3.png,exp4.png,1,3,reversed,correct,0.9950169144115572,1,valid_win,257.61179630000015,23,,,,,,,,,,,,,,,,,,sub_490,2024-06-09_12h32.41.021,Reversal,2022.1.2,59.9916011758293,2,
2,exp1.png,exp2.png,,2,0,2,0,0,2,2,2,,,,,,,,,,,,,,,,,,,,,,,,,False,42,43,True,exp2.png,exp1.png,trial_left_image,1,exp2.png,2,exp1.png,exp2.png,0,2,non-reversed,incorrect,0.13198568998477123,1,invalid_win,261.91116009999996,24,,,,,,,,,,,,,,,,,,sub_490,2024-06-09_12h32.41.021,Reversal,2022.1.2,59.9916011758293,2,
3,exp3.png,exp4.png,,2,0,2,0,0,3,3,3,,,,,,,,,,,,,,,,,,,,,,,,,False,43,44,False,exp3.png,exp4.png,trial_left_image,1,exp3.png,2,exp3.png,exp4.png,1,3,reversed,correct,0.9336753303693777,1,valid_win,266.11121820000017,25,,,,,,,,,,,,,,,,,,sub_490,2024-06-09_12h32.41.021,Reversal,2022.1.2,59.9916011758293,2,
4,exp1.png,exp2.png,,2,0,2,0,0,4,4,4,,,,,,,,,,,,,,,,,,,,,,,,,False,44,45,True,exp2.png,exp1.png,trial_left_image,1,exp2.png,2,exp1.png,exp2.png,0,2,non-reversed,incorrect,0.46181980018266067,0,valid_lose,270.2450085000005,25,,,,,,,,,,,,,,,,,,sub_490,2024-06-09_12h32.41.021,Reversal,2022.1.2,59.9916011758293,2,
5,exp3.png,exp4.png,,2,0,2,0,0,5,5,5,,,,,,,,,,,,,,,,,,,,,,,,,False,45,46,True,exp4.png,exp3.png,trial_left_image,1,exp4.png,2,exp3.png,exp4.png,0,4,reversed,incorrect,0.4455783819292295,0,valid_lose,274.37826600000017,25,,,,,,,,,,,,,,,,,,sub_490,2024-06-09_12h32.41.021,Reversal,2022.1.2,59.9916011758293,2,
6,exp1.png,exp2.png,,2,0,2,0,0,6,6,6,,,,,,,,,,,,,,,,,,,,,,,,,False,46,47,False,exp1.png,exp2.png,trial_right_image,-1,exp2.png,2,exp1.png,exp2.png,0,2,non-reversed,incorrect,0.4853300202128652,0,valid_lose,278.5951501000004,25,,,,,,,,,,,,,,,,,,sub_490,2024-06-09_12h32.41.021,Reversal,2022.1.2,59.9916011758293,2,
7,exp3.png,exp4.png,,2,0,2,0,0,7,7,7,,,,,,,,,,,,,,,,,,,,,,,,,False,47,48,True,exp4.png,exp3.png,trial_right_image,-1,exp3.png,2,exp3.png,exp4.png,1,3,reversed,correct,0.9027419906565616,1,valid_win,282.7783849000002,26,,,,,,,,,,,,,,,,,,sub_490,2024-06-09_12h32.41.021,Reversal,2022.1.2,59.9916011758293,2,
8,exp1.png,exp2.png,,2,0,2,0,0,8,8,8,,,,,,,,,,,,,,,,,,,,,,,,,False,48,49,False,exp1.png,exp2.png,trial_left_image,1,exp1.png,2,exp1.png,exp2.png,1,1,non-reversed,correct,0.5373569442751658,1,valid_win,287.1777575000001,27,,,,,,,,,,,,,,,,,,sub_490,2024-06-09_12h32.41.021,Reversal,2022.1.2,59.9916011758293,2,
9,exp3.png,exp4.png,,2,0,2,0,0,9,9,9,,,,,,,,,,,,,,,,,,,,,,,,,False,49,50,True,exp4.png,exp3.png,trial_right_image,-1,exp3.png,2,exp3.png,exp4.png,1,3,reversed,correct,0.5458634748265999,1,valid_win,291.4277981,28,,,,,,,,,,,,,,,,,,sub_490,2024-06-09_12h32.41.021,Reversal,2022.1.2,59.9916011758293,2,
10,exp1.png,exp2.png,,2,0,2,0,0,10,10,10,,,,,,,,,,,,,,,,,,,,,,,,,False,50,51,False,exp1.png,exp2.png,trial_left_image,1,exp1.png,2,exp1.png,exp2.png,1,1,non-reversed,correct,0.5609547403990501,1,valid_win,295.6103165999998,29,,,,,,,,,,,,,,,,,,sub_490,2024-06-09_12h32.41.021,Reversal,2022.1.2,59.9916011758293,2,
11,exp3.png,exp4.png,,2,0,2,0,0,11,11,11,,,,,,,,,,,,,,,,,,,,,,,,,False,51,52,False,exp3.png,exp4.png,trial_right_image,-1,exp4.png,2,exp3.png,exp4.png,0,4,reversed,incorrect,0.5876279935776454,0,valid_lose,299.74446229999967,29,,,,,,,,,,,,,,,,,,sub_490,2024-06-09_12h32.41.021,Reversal,2022.1.2,59.9916011758293,2,
12,exp1.png,exp2.png,,2,0,2,0,0,12,12,12,,,,,,,,,,,,,,,,,,,,,,,,,False,52,53,True,exp2.png,exp1.png,trial_right_image,-1,exp1.png,2,exp1.png,exp2.png,1,1,non-reversed,correct,0.39756658172432535,1,valid_win,303.8609855999998,30,,,,,,,,,,,,,,,,,,sub_490,2024-06-09_12h32.41.021,Reversal,2022.1.2,59.9916011758293,2,
13,exp3.png,exp4.png,,2,0,2,0,0,13,13,13,,,,,,,,,,,,,,,,,,,,,,,,,False,53,54,False,exp3.png,exp4.png,trial_left_image,1,exp3.png,2,exp3.png,exp4.png,1,3,reversed,correct,0.4234603805808187,1,valid_win,307.8771406999999,31,,,,,,,,,,,,,,,,,,sub_490,2024-06-09_12h32.41.021,Reversal,2022.1.2,59.9916011758293,2,
14,exp1.png,exp2.png,,2,0,2,0,0,14,14,14,,,,,,,,,,,,,,,,,,,,,,,,,False,54,55,False,exp1.png,exp2.png,trial_right_image,-1,exp2.png,2,exp1.png,exp2.png,0,2,non-reversed,incorrect,0.8381116596256019,0,valid_lose,312.76094969999986,31,,,,,,,,,,,,,,,,,,sub_490,2024-06-09_12h32.41.021,Reversal,2022.1.2,59.9916011758293,2,
15,exp3.png,exp4.png,,2,0,2,0,0,15,15,15,,,,,,,,,,,,,,,,,,,,,,,,,False,55,56,True,exp4.png,exp3.png,trial_right_image,-1,exp3.png,2,exp3.png,exp4.png,1,3,reversed,correct,0.16619351530679372,0,invalid_lose,316.89383060000046,31,,,,,,,,,,,,,,,,,,sub_490,2024-06-09_12h32.41.021,Reversal,2022.1.2,59.9916011758293,2,
16,exp1.png,exp2.png,,2,0,2,0,0,16,16,16,,,,,,,,,,,,,,,,,,,,,,,,,False,56,57,False,exp1.png,exp2.png,trial_left_image,1,exp1.png,2,exp1.png,exp2.png,1,1,non-reversed,correct,0.7047806363669067,1,valid_win,321.11020620000045,32,,,,,,,,,,,,,,,,,,sub_490,2024-06-09_12h32.41.021,Reversal,2022.1.2,59.9916011758293,2,
17,exp3.png,exp4.png,,2,0,2,0,0,17,17,17,,,,,,,,,,,,,,,,,,,,,,,,,False,57,58,True,exp4.png,exp3.png,trial_left_image,1,exp4.png,2,exp3.png,exp4.png,0,4,reversed,incorrect,0.8516035127396367,0,valid_lose,325.5936757000004,32,,,,,,,,,,,,,,,,,,sub_490,2024-06-09_12h32.41.021,Reversal,2022.1.2,59.9916011758293,2,
18,exp1.png,exp2.png,,2,0,2,0,0,18,18,18,,,,,,,,,,,,,,,,,,,,,,,,,False,58,59,True,exp2.png,exp1.png,trial_right_image,-1,exp1.png,2,exp1.png,exp2.png,1,1,non-reversed,correct,0.6210147872239998,1,valid_win,330.06086110000024,33,,,,,,,,,,,,,,,,,,sub_490,2024-06-09_12h32.41.021,Reversal,2022.1.2,59.9916011758293,2,
19,exp3.png,exp4.png,,2,0,2,0,0,19,19,19,,,,,,,,,,,,,,,,,,,,,,,,,False,59,60,True,exp4.png,exp3.png,trial_left_image,1,exp4.png,2,exp3.png,exp4.png,0,4,reversed,incorrect,0.4947559629378738,0,valid_lose,334.42649050000045,33,,,,,,,,,,,,,,,,,,sub_490,2024-06-09_12h32.41.021,Reversal,2022.1.2,59.9916011758293,2,
20,exp1.png,exp2.png,,2,0,2,0,0,20,20,20,,,,,,,,,,,,,,,,,,,,,,,,,True,,,,,,,,,,,,,,,,,,,,,,,,,,,,,,,,,,,,,,sub_490,2024-06-09_12h32.41.021,Reversal,2022.1.2,59.9916011758293,2,
,,,exp1.png,2,0,2,0,,,,,0,0,0,0,0,0,0,0,,,,,,,,,,,,,,,,,,,,,,,,,,,,,,,,,,,,,,60.0,2.6667020000004413,"[(60.0, 2.6667020000004413)]",434.18748579999965,None,,,60.0,,,,,,,,,,sub_490,2024-06-09_12h32.41.021,Reversal,2022.1.2,59.9916011758293,2,
,,,exp2.png,2,0,2,0,,,,,0,0,0,0,0,1,1,1,,,,,,,,,,,,,,,,,,,,,,,,,,,,,,,,,,,,,,50.0,None,[],438.0836962999997,None,,,,,,,,,,,,,sub_490,2024-06-09_12h32.41.021,Reversal,2022.1.2,59.9916011758293,2,
,,,exp3.png,2,0,2,0,,,,,0,0,0,0,0,2,2,2,,,,,,,,,,,,,,,,,,,,,,,,,,,,,,,,,,,,,,15.0,4.2658056000000215,"[(15.0, 4.2658056000000215)]",442.56814819999954,None,,,,15.0,,,,,,,,,sub_490,2024-06-09_12h32.41.021,Reversal,2022.1.2,59.9916011758293,2,
,,,exp4.png,2,0,2,0,,,,,0,0,0,0,0,3,3,3,,,,,,,,,,,,,,,,,,,,,,,,,,,,,,,,,,,,,,50.0,None,[],448.1330118000001,None,,,,,,,,,,,,,sub_490,2024-06-09_12h32.41.021,Reversal,2022.1.2,59.9916011758293,2,
0,exp1.png,exp2.png,,3,0,3,0,0,0,0,0,,,,,,,,,,,,,,,,,,,,,,,,,False,60,61,True,exp2.png,exp1.png,trial_right_image,-1,exp1.png,2,exp1.png,exp2.png,1,1,non-reversed,correct,0.10670602672851592,0,invalid_lose,356.27675539999973,33,,,,,,,,,,,,,,,,,,sub_490,2024-06-09_12h32.41.021,Reversal,2022.1.2,59.9916011758293,2,
1,exp3.png,exp4.png,,3,0,3,0,0,1,1,1,,,,,,,,,,,,,,,,,,,,,,,,,False,61,62,True,exp4.png,exp3.png,trial_right_image,-1,exp3.png,2,exp3.png,exp4.png,1,3,reversed,correct,0.14944330241552284,0,invalid_lose,360.42611720000014,33,,,,,,,,,,,,,,,,,,sub_490,2024-06-09_12h32.41.021,Reversal,2022.1.2,59.9916011758293,2,
2,exp1.png,exp2.png,,3,0,3,0,0,2,2,2,,,,,,,,,,,,,,,,,,,,,,,,,False,62,63,True,exp2.png,exp1.png,trial_right_image,-1,exp1.png,2,exp1.png,exp2.png,1,1,non-reversed,correct,0.23915336448937496,0,invalid_lose,364.69335739999997,33,,,,,,,,,,,,,,,,,,sub_490,2024-06-09_12h32.41.021,Reversal,2022.1.2,59.9916011758293,2,
3,exp3.png,exp4.png,,3,0,3,0,0,3,3,3,,,,,,,,,,,,,,,,,,,,,,,,,False,63,64,True,exp4.png,exp3.png,trial_left_image,1,exp4.png,2,exp3.png,exp4.png,0,4,reversed,incorrect,0.511268443967222,0,valid_lose,368.97602589999997,33,,,,,,,,,,,,,,,,,,sub_490,2024-06-09_12h32.41.021,Reversal,2022.1.2,59.9916011758293,2,
4,exp1.png,exp2.png,,3,0,3,0,0,4,4,4,,,,,,,,,,,,,,,,,,,,,,,,,False,64,65,False,exp1.png,exp2.png,trial_left_image,1,exp1.png,2,exp1.png,exp2.png,1,1,non-reversed,correct,0.5033269547398854,1,valid_win,373.1753739999999,34,,,,,,,,,,,,,,,,,,sub_490,2024-06-09_12h32.41.021,Reversal,2022.1.2,59.9916011758293,2,
5,exp3.png,exp4.png,,3,0,3,0,0,5,5,5,,,,,,,,,,,,,,,,,,,,,,,,,False,65,66,False,exp3.png,exp4.png,trial_right_image,-1,exp4.png,2,exp3.png,exp4.png,0,4,reversed,incorrect,0.3718108548821025,0,valid_lose,377.45948869999984,34,,,,,,,,,,,,,,,,,,sub_490,2024-06-09_12h32.41.021,Reversal,2022.1.2,59.9916011758293,2,
6,exp1.png,exp2.png,,3,0,3,0,0,6,6,6,,,,,,,,,,,,,,,,,,,,,,,,,False,66,67,False,exp1.png,exp2.png,trial_left_image,1,exp1.png,2,exp1.png,exp2.png,1,1,non-reversed,correct,0.9822947737253119,1,valid_win,381.89317059999985,35,,,,,,,,,,,,,,,,,,sub_490,2024-06-09_12h32.41.021,Reversal,2022.1.2,59.9916011758293,2,
7,exp3.png,exp4.png,,3,0,3,0,0,7,7,7,,,,,,,,,,,,,,,,,,,,,,,,,False,67,68,True,exp4.png,exp3.png,trial_right_image,-1,exp3.png,2,exp3.png,exp4.png,1,3,reversed,correct,0.45307331919422333,1,valid_win,386.0755288000005,36,,,,,,,,,,,,,,,,,,sub_490,2024-06-09_12h32.41.021,Reversal,2022.1.2,59.9916011758293,2,
8,exp1.png,exp2.png,,3,0,3,0,0,8,8,8,,,,,,,,,,,,,,,,,,,,,,,,,False,68,69,False,exp1.png,exp2.png,trial_left_image,1,exp1.png,2,exp1.png,exp2.png,1,1,non-reversed,correct,0.4873817454580066,1,valid_win,390.20894069999986,37,,,,,,,,,,,,,,,,,,sub_490,2024-06-09_12h32.41.021,Reversal,2022.1.2,59.9916011758293,2,
9,exp3.png,exp4.png,,3,0,3,0,0,9,9,9,,,,,,,,,,,,,,,,,,,,,,,,,False,69,70,True,exp4.png,exp3.png,trial_right_image,-1,exp3.png,2,exp3.png,exp4.png,1,3,reversed,correct,0.9235254930790497,1,valid_win,394.65900889999966,38,,,,,,,,,,,,,,,,,,sub_490,2024-06-09_12h32.41.021,Reversal,2022.1.2,59.9916011758293,2,
10,exp1.png,exp2.png,,3,0,3,0,0,10,10,10,,,,,,,,,,,,,,,,,,,,,,,,,False,70,71,True,exp2.png,exp1.png,trial_right_image,-1,exp1.png,2,exp1.png,exp2.png,1,1,non-reversed,correct,0.594952404602551,1,valid_win,398.89181620000045,39,,,,,,,,,,,,,,,,,,sub_490,2024-06-09_12h32.41.021,Reversal,2022.1.2,59.9916011758293,2,
11,exp3.png,exp4.png,,3,0,3,0,0,11,11,11,,,,,,,,,,,,,,,,,,,,,,,,,False,71,72,False,exp3.png,exp4.png,trial_right_image,-1,exp4.png,2,exp3.png,exp4.png,0,4,reversed,incorrect,0.5022346490050305,0,valid_lose,403.2255431999997,39,,,,,,,,,,,,,,,,,,sub_490,2024-06-09_12h32.41.021,Reversal,2022.1.2,59.9916011758293,2,
12,exp1.png,exp2.png,,3,0,3,0,0,12,12,12,,,,,,,,,,,,,,,,,,,,,,,,,False,72,73,True,exp2.png,exp1.png,trial_left_image,1,exp2.png,2,exp1.png,exp2.png,0,2,non-reversed,incorrect,0.1445424988760068,1,invalid_win,408.4922572999999,40,,,,,,,,,,,,,,,,,,sub_490,2024-06-09_12h32.41.021,Reversal,2022.1.2,59.9916011758293,2,
13,exp3.png,exp4.png,,3,0,3,0,0,13,13,13,,,,,,,,,,,,,,,,,,,,,,,,,False,73,74,False,exp3.png,exp4.png,trial_left_image,1,exp3.png,2,exp3.png,exp4.png,1,3,reversed,correct,0.2921855942773399,1,valid_win,412.62556730000006,41,,,,,,,,,,,,,,,,,,sub_490,2024-06-09_12h32.41.021,Reversal,2022.1.2,59.9916011758293,2,
14,exp1.png,exp2.png,,3,0,3,0,0,14,14,14,,,,,,,,,,,,,,,,,,,,,,,,,False,74,75,False,exp1.png,exp2.png,trial_right_image,-1,exp2.png,2,exp1.png,exp2.png,0,2,non-reversed,incorrect,0.9646578827607544,0,valid_lose,417.0250219000004,41,,,,,,,,,,,,,,,,,,sub_490,2024-06-09_12h32.41.021,Reversal,2022.1.2,59.9916011758293,2,
15,exp3.png,exp4.png,,3,0,3,0,0,15,15,15,,,,,,,,,,,,,,,,,,,,,,,,,False,75,76,False,exp3.png,exp4.png,trial_right_image,-1,exp4.png,2,exp3.png,exp4.png,0,4,reversed,incorrect,0.7679301623466196,0,valid_lose,421.17521330000045,41,,,,,,,,,,,,,,,,,,sub_490,2024-06-09_12h32.41.021,Reversal,2022.1.2,59.9916011758293,2,
16,exp1.png,exp2.png,,3,0,3,0,0,16,16,16,,,,,,,,,,,,,,,,,,,,,,,,,False,76,77,False,exp1.png,exp2.png,trial_left_image,1,exp1.png,2,exp1.png,exp2.png,1,1,non-reversed,correct,0.9605323785934642,1,valid_win,425.72574420000046,42,,,,,,,,,,,,,,,,,,sub_490,2024-06-09_12h32.41.021,Reversal,2022.1.2,59.9916011758293,2,
17,exp3.png,exp4.png,,3,0,3,0,0,17,17,17,,,,,,,,,,,,,,,,,,,,,,,,,False,77,78,True,exp4.png,exp3.png,trial_left_image,1,exp4.png,2,exp3.png,exp4.png,0,4,reversed,incorrect,0.05451096165967606,1,invalid_win,430.70874930000036,43,,,,,,,,,,,,,,,,,,sub_490,2024-06-09_12h32.41.021,Reversal,2022.1.2,59.9916011758293,2,
18,exp1.png,exp2.png,,3,0,3,0,0,18,18,18,,,,,,,,,,,,,,,,,,,,,,,,,False,78,79,False,exp1.png,exp2.png,trial_right_image,-1,exp2.png,2,exp1.png,exp2.png,0,2,non-reversed,incorrect,0.17166383983347755,1,invalid_win,434.8082314999997,44,,,,,,,,,,,,,,,,,,sub_490,2024-06-09_12h32.41.021,Reversal,2022.1.2,59.9916011758293,2,
19,exp3.png,exp4.png,,3,0,3,0,0,19,19,19,,,,,,,,,,,,,,,,,,,,,,,,,False,79,80,True,exp4.png,exp3.png,trial_right_image,-1,exp3.png,2,exp3.png,exp4.png,1,3,reversed,correct,0.8449778381414597,1,valid_win,439.2078105000005,45,,,,,,,,,,,,,,,,,,sub_490,2024-06-09_12h32.41.021,Reversal,2022.1.2,59.9916011758293,2,
20,exp1.png,exp2.png,,3,0,3,0,0,20,20,20,,,,,,,,,,,,,,,,,,,,,,,,,True,,,,,,,,,,,,,,,,,,,,,,,,,,,,,,,,,,,,,,sub_490,2024-06-09_12h32.41.021,Reversal,2022.1.2,59.9916011758293,2,
,,,exp1.png,3,0,3,0,,,,,0,0,0,0,0,0,0,0,,,,,,,,,,,,,,,,,,,,,,,,,,,,,,,,,,,,,,47.0,2.5886184999999386,"[(47.0, 2.5886184999999386)]",538.9467863999994,None,,,47.0,,,,,,,,,,sub_490,2024-06-09_12h32.41.021,Reversal,2022.1.2,59.9916011758293,2,
,,,exp2.png,3,0,3,0,,,,,0,0,0,0,0,1,1,1,,,,,,,,,,,,,,,,,,,,,,,,,,,,,,,,,,,,,,50.0,None,[],542.6332895999999,None,,,,,,,,,,,,,sub_490,2024-06-09_12h32.41.021,Reversal,2022.1.2,59.9916011758293,2,
,,,exp3.png,3,0,3,0,,,,,0,0,0,0,0,2,2,2,,,,,,,,,,,,,,,,,,,,,,,,,,,,,,,,,,,,,,30.0,2.0031347000003734,"[(30.0, 2.0031347000003734)]",544.8480279,None,,,,30.0,,,,,,,,,sub_490,2024-06-09_12h32.41.021,Reversal,2022.1.2,59.9916011758293,2,
,,,exp4.png,3,0,3,0,,,,,0,0,0,0,0,3,3,3,,,,,,,,,,,,,,,,,,,,,,,,,,,,,,,,,,,,,,45.0,4.8681025999994745,"[(45.0, 4.8681025999994745)]",548.3476521999996,None,,45.0,,,,,,,,,,,sub_490,2024-06-09_12h32.41.021,Reversal,2022.1.2,59.9916011758293,2,
0,exp1.png,exp2.png,,,,,,,,,,,,,,,,,,0,0,0,0,0,0,0,0,,,,,,,,,False,0,81,True,exp2.png,exp1.png,trial_right_image,-1,exp1.png,2,exp1.png,exp2.png,1,1,non-reversed,correct,0.9418958948921663,1,valid_win,461.00751360000004,46,,,,,,,,,,457.07501790000015,,,,,,,,sub_490,2024-06-09_12h32.41.021,Reversal,2022.1.2,59.9916011758293,2,
1,exp3.png,exp4.png,,,,,,,,,,,,,,,,,,0,0,0,0,0,1,1,1,,,,,,,,,False,1,82,False,exp3.png,exp4.png,trial_right_image,-1,exp4.png,2,exp4.png,exp3.png,0,4,reversed,correct,0.6674949482799839,1,valid_win,465.25771269999996,47,,,,,,,,,,,,,,,,,,sub_490,2024-06-09_12h32.41.021,Reversal,2022.1.2,59.9916011758293,2,
2,exp1.png,exp2.png,,,,,,,,,,,,,,,,,,0,0,0,0,0,2,2,2,,,,,,,,,False,2,83,True,exp2.png,exp1.png,trial_right_image,-1,exp1.png,2,exp1.png,exp2.png,1,1,non-reversed,correct,0.9094709173798969,1,valid_win,469.3242027000001,48,,,,,,,,,,,,,,,,,,sub_490,2024-06-09_12h32.41.021,Reversal,2022.1.2,59.9916011758293,2,
3,exp3.png,exp4.png,,,,,,,,,,,,,,,,,,0,0,0,0,0,3,3,3,,,,,,,,,False,3,84,True,exp4.png,exp3.png,trial_left_image,1,exp4.png,2,exp4.png,exp3.png,0,4,reversed,correct,0.6566743458424104,1,valid_win,474.3405914,49,,,,,,,,,,,,,,,,,,sub_490,2024-06-09_12h32.41.021,Reversal,2022.1.2,59.9916011758293,2,
4,exp1.png,exp2.png,,,,,,,,,,,,,,,,,,0,0,0,0,0,4,4,4,,,,,,,,,False,4,85,True,exp2.png,exp1.png,trial_left_image,1,exp2.png,2,exp1.png,exp2.png,0,2,non-reversed,incorrect,0.89240664867534,0,valid_lose,478.7400769999999,49,,,,,,,,,,,,,,,,,,sub_490,2024-06-09_12h32.41.021,Reversal,2022.1.2,59.9916011758293,2,
5,exp3.png,exp4.png,,,,,,,,,,,,,,,,,,0,0,0,0,0,5,5,5,,,,,,,,,False,5,86,True,exp4.png,exp3.png,trial_left_image,1,exp4.png,2,exp4.png,exp3.png,0,4,reversed,correct,0.1885008222136727,0,invalid_lose,483.1239255000005,49,,,,,,,,,,,,,,,,,,sub_490,2024-06-09_12h32.41.021,Reversal,2022.1.2,59.9916011758293,2,
6,exp1.png,exp2.png,,,,,,,,,,,,,,,,,,0,0,0,0,0,6,6,6,,,,,,,,,False,6,87,False,exp1.png,exp2.png,trial_right_image,-1,exp2.png,2,exp1.png,exp2.png,0,2,non-reversed,incorrect,0.5774675322876305,0,valid_lose,487.50745920000054,49,,,,,,,,,,,,,,,,,,sub_490,2024-06-09_12h32.41.021,Reversal,2022.1.2,59.9916011758293,2,
7,exp3.png,exp4.png,,,,,,,,,,,,,,,,,,0,0,0,0,0,7,7,7,,,,,,,,,False,7,88,False,exp3.png,exp4.png,trial_left_image,1,exp3.png,2,exp4.png,exp3.png,1,3,reversed,incorrect,0.8678595473269896,0,valid_lose,491.6244448000002,49,,,,,,,,,,,,,,,,,,sub_490,2024-06-09_12h32.41.021,Reversal,2022.1.2,59.9916011758293,2,
8,exp1.png,exp2.png,,,,,,,,,,,,,,,,,,0,0,0,0,0,8,8,8,,,,,,,,,False,8,89,True,exp2.png,exp1.png,trial_right_image,-1,exp1.png,2,exp1.png,exp2.png,1,1,non-reversed,correct,0.9318894811895823,1,valid_win,495.6901763999999,50,,,,,,,,,,,,,,,,,,sub_490,2024-06-09_12h32.41.021,Reversal,2022.1.2,59.9916011758293,2,
9,exp3.png,exp4.png,,,,,,,,,,,,,,,,,,0,0,0,0,0,9,9,9,,,,,,,,,False,9,90,True,exp4.png,exp3.png,trial_right_image,-1,exp3.png,2,exp4.png,exp3.png,1,3,reversed,incorrect,0.41445547814082007,0,valid_lose,500.0071162999998,50,,,,,,,,,,,,,,,,,,sub_490,2024-06-09_12h32.41.021,Reversal,2022.1.2,59.9916011758293,2,
10,exp1.png,exp2.png,,,,,,,,,,,,,,,,,,0,0,0,0,0,10,10,10,,,,,,,,,False,10,91,False,exp1.png,exp2.png,trial_right_image,-1,exp2.png,2,exp1.png,exp2.png,0,2,non-reversed,incorrect,0.46326221745645824,0,valid_lose,504.14037000000053,50,,,,,,,,,,,,,,,,,,sub_490,2024-06-09_12h32.41.021,Reversal,2022.1.2,59.9916011758293,2,
11,exp3.png,exp4.png,,,,,,,,,,,,,,,,,,0,0,0,0,0,11,11,11,,,,,,,,,False,11,92,True,exp4.png,exp3.png,trial_right_image,-1,exp3.png,2,exp4.png,exp3.png,1,3,reversed,incorrect,0.6650053929340833,0,valid_lose,508.2405389999999,50,,,,,,,,,,,,,,,,,,sub_490,2024-06-09_12h32.41.021,Reversal,2022.1.2,59.9916011758293,2,
12,exp1.png,exp2.png,,,,,,,,,,,,,,,,,,0,0,0,0,0,12,12,12,,,,,,,,,False,12,93,False,exp1.png,exp2.png,trial_left_image,1,exp1.png,2,exp1.png,exp2.png,1,1,non-reversed,correct,0.13471733278918008,0,invalid_lose,513.0568790000002,50,,,,,,,,,,,,,,,,,,sub_490,2024-06-09_12h32.41.021,Reversal,2022.1.2,59.9916011758293,2,
13,exp3.png,exp4.png,,,,,,,,,,,,,,,,,,0,0,0,0,0,13,13,13,,,,,,,,,False,13,94,False,exp3.png,exp4.png,trial_left_image,1,exp3.png,2,exp4.png,exp3.png,1,3,reversed,incorrect,0.10262792206786464,1,invalid_win,517.2573260000004,51,,,,,,,,,,,,,,,,,,sub_490,2024-06-09_12h32.41.021,Reversal,2022.1.2,59.9916011758293,2,
14,exp1.png,exp2.png,,,,,,,,,,,,,,,,,,0,0,0,0,0,14,14,14,,,,,,,,,False,14,95,False,exp1.png,exp2.png,trial_left_image,1,exp1.png,2,exp1.png,exp2.png,1,1,non-reversed,correct,0.47195026428553477,1,valid_win,521.8896697000005,52,,,,,,,,,,,,,,,,,,sub_490,2024-06-09_12h32.41.021,Reversal,2022.1.2,59.9916011758293,2,
15,exp3.png,exp4.png,,,,,,,,,,,,,,,,,,0,0,0,0,0,15,15,15,,,,,,,,,False,15,96,True,exp4.png,exp3.png,trial_left_image,1,exp4.png,2,exp4.png,exp3.png,0,4,reversed,correct,0.7060341515166372,1,valid_win,526.1400483000002,53,,,,,,,,,,,,,,,,,,sub_490,2024-06-09_12h32.41.021,Reversal,2022.1.2,59.9916011758293,2,
16,exp1.png,exp2.png,,,,,,,,,,,,,,,,,,0,0,0,0,0,16,16,16,,,,,,,,,False,16,97,True,exp2.png,exp1.png,trial_left_image,1,exp2.png,2,exp1.png,exp2.png,0,2,non-reversed,incorrect,0.7947604398523109,0,valid_lose,530.2566793000001,53,,,,,,,,,,,,,,,,,,sub_490,2024-06-09_12h32.41.021,Reversal,2022.1.2,59.9916011758293,2,
17,exp3.png,exp4.png,,,,,,,,,,,,,,,,,,0,0,0,0,0,17,17,17,,,,,,,,,False,17,98,False,exp3.png,exp4.png,trial_left_image,1,exp3.png,2,exp4.png,exp3.png,1,3,reversed,incorrect,0.37921677743972004,0,valid_lose,534.0731860999999,53,,,,,,,,,,,,,,,,,,sub_490,2024-06-09_12h32.41.021,Reversal,2022.1.2,59.9916011758293,2,
18,exp1.png,exp2.png,,,,,,,,,,,,,,,,,,0,0,0,0,0,18,18,18,,,,,,,,,False,18,99,False,exp1.png,exp2.png,trial_left_image,1,exp1.png,2,exp1.png,exp2.png,1,1,non-reversed,correct,0.6128604671507757,1,valid_win,538.3728667,54,,,,,,,,,,,,,,,,,,sub_490,2024-06-09_12h32.41.021,Reversal,2022.1.2,59.9916011758293,2,
19,exp3.png,exp4.png,,,,,,,,,,,,,,,,,,0,0,0,0,0,19,19,19,,,,,,,,,False,19,100,False,exp3.png,exp4.png,trial_left_image,1,exp3.png,2,exp4.png,exp3.png,1,3,reversed,incorrect,0.28508593201826127,0,valid_lose,542.6559107999997,54,,,,,,,,,,,,,,,,,,sub_490,2024-06-09_12h32.41.021,Reversal,2022.1.2,59.9916011758293,2,
20,exp1.png,exp2.png,,,,,,,,,,,,,,,,,,0,0,0,0,0,20,20,20,,,,,,,,,True,,,,,,,,,,,,,,,,,,,,,,,,,,,,,,,,,,,,,,sub_490,2024-06-09_12h32.41.021,Reversal,2022.1.2,59.9916011758293,2,
,,,exp1.png,,,,,,,,,,,,,,,,,0,0,0,0,,,,,0,0,0,0,0,0,0,0,,,,,,,,,,,,,,,,,,,,,,47.0,3.571947700000237,"[(47.0, 3.571947700000237)]",642.4102258999997,None,,,47.0,,,,,,,,,,sub_490,2024-06-09_12h32.41.021,Reversal,2022.1.2,59.9916011758293,2,
,,,exp2.png,,,,,,,,,,,,,,,,,0,0,0,0,,,,,0,0,0,0,0,1,1,1,,,,,,,,,,,,,,,,,,,,,,50.0,None,[],647.1462796999999,None,,,,,,,,,,,,,sub_490,2024-06-09_12h32.41.021,Reversal,2022.1.2,59.9916011758293,2,
,,,exp3.png,,,,,,,,,,,,,,,,,0,0,0,0,,,,,0,0,0,0,0,2,2,2,,,,,,,,,,,,,,,,,,,,,,61.0,1.4008428999995886,"[(61.0, 1.4008428999995886)]",651.3297657999997,None,,,,61.0,,,,,,,,,sub_490,2024-06-09_12h32.41.021,Reversal,2022.1.2,59.9916011758293,2,
,,,exp4.png,,,,,,,,,,,,,,,,,0,0,0,0,,,,,0,0,0,0,0,3,3,3,,,,,,,,,,,,,,,,,,,,,,50.0,None,[],653.6489307999996,None,,,,,,,,,,,,,sub_490,2024-06-09_12h32.41.021,Reversal,2022.1.2,59.9916011758293,2,
0,exp1.png,exp2.png,,,,,,,,,,,,,,,,,,1,0,1,0,0,0,0,0,,,,,,,,,False,20,101,True,exp2.png,exp1.png,trial_right_image,-1,exp1.png,2,exp1.png,exp2.png,1,1,non-reversed,correct,0.39512259449221565,1,valid_win,560.4402832999999,55,,,,,,,,,,,,,,,,,,sub_490,2024-06-09_12h32.41.021,Reversal,2022.1.2,59.9916011758293,2,
1,exp3.png,exp4.png,,,,,,,,,,,,,,,,,,1,0,1,0,0,1,1,1,,,,,,,,,False,21,102,True,exp4.png,exp3.png,trial_right_image,-1,exp3.png,2,exp4.png,exp3.png,1,3,reversed,incorrect,0.5752692827693895,0,valid_lose,564.4894729000002,55,,,,,,,,,,,,,,,,,,sub_490,2024-06-09_12h32.41.021,Reversal,2022.1.2,59.9916011758293,2,
2,exp1.png,exp2.png,,,,,,,,,,,,,,,,,,1,0,1,0,0,2,2,2,,,,,,,,,False,22,103,True,exp2.png,exp1.png,trial_right_image,-1,exp1.png,2,exp1.png,exp2.png,1,1,non-reversed,correct,0.578597611537404,1,valid_win,568.7057479,56,,,,,,,,,,,,,,,,,,sub_490,2024-06-09_12h32.41.021,Reversal,2022.1.2,59.9916011758293,2,
3,exp3.png,exp4.png,,,,,,,,,,,,,,,,,,1,0,1,0,0,3,3,3,,,,,,,,,False,23,104,False,exp3.png,exp4.png,trial_right_image,-1,exp4.png,2,exp4.png,exp3.png,0,4,reversed,correct,0.31343208501221387,1,valid_win,572.8390700000004,57,,,,,,,,,,,,,,,,,,sub_490,2024-06-09_12h32.41.021,Reversal,2022.1.2,59.9916011758293,2,
4,exp1.png,exp2.png,,,,,,,,,,,,,,,,,,1,0,1,0,0,4,4,4,,,,,,,,,False,24,105,False,exp1.png,exp2.png,trial_right_image,-1,exp2.png,2,exp1.png,exp2.png,0,2,non-reversed,incorrect,0.9659607677458589,0,valid_lose,576.9551084999998,57,,,,,,,,,,,,,,,,,,sub_490,2024-06-09_12h32.41.021,Reversal,2022.1.2,59.9916011758293,2,
5,exp3.png,exp4.png,,,,,,,,,,,,,,,,,,1,0,1,0,0,5,5,5,,,,,,,,,False,25,106,False,exp3.png,exp4.png,trial_right_image,-1,exp4.png,2,exp4.png,exp3.png,0,4,reversed,correct,0.4473261298777671,1,valid_win,581.2220523999999,58,,,,,,,,,,,,,,,,,,sub_490,2024-06-09_12h32.41.021,Reversal,2022.1.2,59.9916011758293,2,
6,exp1.png,exp2.png,,,,,,,,,,,,,,,,,,1,0,1,0,0,6,6,6,,,,,,,,,False,26,107,False,exp1.png,exp2.png,trial_right_image,-1,exp2.png,2,exp1.png,exp2.png,0,2,non-reversed,incorrect,0.43380048624981327,0,valid_lose,585.5391820999998,58,,,,,,,,,,,,,,,,,,sub_490,2024-06-09_12h32.41.021,Reversal,2022.1.2,59.9916011758293,2,
7,exp3.png,exp4.png,,,,,,,,,,,,,,,,,,1,0,1,0,0,7,7,7,,,,,,,,,False,27,108,False,exp3.png,exp4.png,trial_right_image,-1,exp4.png,2,exp4.png,exp3.png,0,4,reversed,correct,0.9680614761243441,1,valid_win,589.7889768999999,59,,,,,,,,,,,,,,,,,,sub_490,2024-06-09_12h32.41.021,Reversal,2022.1.2,59.9916011758293,2,
8,exp1.png,exp2.png,,,,,,,,,,,,,,,,,,1,0,1,0,0,8,8,8,,,,,,,,,False,28,109,True,exp2.png,exp1.png,trial_right_image,-1,exp1.png,2,exp1.png,exp2.png,1,1,non-reversed,correct,0.8331957688205981,1,valid_win,594.0883024999998,60,,,,,,,,,,,,,,,,,,sub_490,2024-06-09_12h32.41.021,Reversal,2022.1.2,59.9916011758293,2,
9,exp3.png,exp4.png,,,,,,,,,,,,,,,,,,1,0,1,0,0,9,9,9,,,,,,,,,False,29,110,False,exp3.png,exp4.png,trial_right_image,-1,exp4.png,2,exp4.png,exp3.png,0,4,reversed,correct,0.7404344383076995,1,valid_win,598.2884121000002,61,,,,,,,,,,,,,,,,,,sub_490,2024-06-09_12h32.41.021,Reversal,2022.1.2,59.9916011758293,2,
10,exp1.png,exp2.png,,,,,,,,,,,,,,,,,,1,0,1,0,0,10,10,10,,,,,,,,,False,30,111,True,exp2.png,exp1.png,trial_left_image,1,exp2.png,2,exp1.png,exp2.png,0,2,non-reversed,incorrect,0.33669893143861296,0,valid_lose,602.9387270000002,61,,,,,,,,,,,,,,,,,,sub_490,2024-06-09_12h32.41.021,Reversal,2022.1.2,59.9916011758293,2,
11,exp3.png,exp4.png,,,,,,,,,,,,,,,,,,1,0,1,0,0,11,11,11,,,,,,,,,False,31,112,False,exp3.png,exp4.png,trial_left_image,1,exp3.png,2,exp4.png,exp3.png,1,3,reversed,incorrect,0.755724737604532,0,valid_lose,607.1217269000003,61,,,,,,,,,,,,,,,,,,sub_490,2024-06-09_12h32.41.021,Reversal,2022.1.2,59.9916011758293,2,
12,exp1.png,exp2.png,,,,,,,,,,,,,,,,,,1,0,1,0,0,12,12,12,,,,,,,,,False,32,113,True,exp2.png,exp1.png,trial_right_image,-1,exp1.png,2,exp1.png,exp2.png,1,1,non-reversed,correct,0.06996986877342071,0,invalid_lose,611.8210784999997,61,,,,,,,,,,,,,,,,,,sub_490,2024-06-09_12h32.41.021,Reversal,2022.1.2,59.9916011758293,2,
13,exp3.png,exp4.png,,,,,,,,,,,,,,,,,,1,0,1,0,0,13,13,13,,,,,,,,,False,33,114,True,exp4.png,exp3.png,trial_left_image,1,exp4.png,2,exp4.png,exp3.png,0,4,reversed,correct,0.05242165917103059,0,invalid_lose,616.0216866000005,61,,,,,,,,,,,,,,,,,,sub_490,2024-06-09_12h32.41.021,Reversal,2022.1.2,59.9916011758293,2,
14,exp1.png,exp2.png,,,,,,,,,,,,,,,,,,1,0,1,0,0,14,14,14,,,,,,,,,False,34,115,True,exp2.png,exp1.png,trial_right_image,-1,exp1.png,2,exp1.png,exp2.png,1,1,non-reversed,correct,0.9902897834343692,1,valid_win,620.2718319999999,62,,,,,,,,,,,,,,,,,,sub_490,2024-06-09_12h32.41.021,Reversal,2022.1.2,59.9916011758293,2,
15,exp3.png,exp4.png,,,,,,,,,,,,,,,,,,1,0,1,0,0,15,15,15,,,,,,,,,False,35,116,True,exp4.png,exp3.png,trial_left_image,1,exp4.png,2,exp4.png,exp3.png,0,4,reversed,correct,0.03001819506103176,0,invalid_lose,624.7221795,62,,,,,,,,,,,,,,,,,,sub_490,2024-06-09_12h32.41.021,Reversal,2022.1.2,59.9916011758293,2,
16,exp1.png,exp2.png,,,,,,,,,,,,,,,,,,1,0,1,0,0,16,16,16,,,,,,,,,False,36,117,True,exp2.png,exp1.png,trial_left_image,1,exp2.png,2,exp1.png,exp2.png,0,2,non-reversed,incorrect,0.26161635124854254,0,valid_lose,629.9212284,62,,,,,,,,,,,,,,,,,,sub_490,2024-06-09_12h32.41.021,Reversal,2022.1.2,59.9916011758293,2,
17,exp3.png,exp4.png,,,,,,,,,,,,,,,,,,1,0,1,0,0,17,17,17,,,,,,,,,False,37,118,False,exp3.png,exp4.png,trial_left_image,1,exp3.png,2,exp4.png,exp3.png,1,3,reversed,incorrect,0.6679617761748735,0,valid_lose,634.6374080999999,62,,,,,,,,,,,,,,,,,,sub_490,2024-06-09_12h32.41.021,Reversal,2022.1.2,59.9916011758293,2,
18,exp1.png,exp2.png,,,,,,,,,,,,,,,,,,1,0,1,0,0,18,18,18,,,,,,,,,False,38,119,False,exp1.png,exp2.png,trial_right_image,-1,exp2.png,2,exp1.png,exp2.png,0,2,non-reversed,incorrect,0.13089385421845612,1,invalid_win,638.8714210000003,63,,,,,,,,,,,,,,,,,,sub_490,2024-06-09_12h32.41.021,Reversal,2022.1.2,59.9916011758293,2,
19,exp3.png,exp4.png,,,,,,,,,,,,,,,,,,1,0,1,0,0,19,19,19,,,,,,,,,False,39,120,False,exp3.png,exp4.png,trial_right_image,-1,exp4.png,2,exp4.png,exp3.png,0,4,reversed,correct,0.23600593982927676,0,invalid_lose,643.1703471000005,63,,,,,,,,,,,,,,,,,,sub_490,2024-06-09_12h32.41.021,Reversal,2022.1.2,59.9916011758293,2,
20,exp1.png,exp2.png,,,,,,,,,,,,,,,,,,1,0,1,0,0,20,20,20,,,,,,,,,True,,,,,,,,,,,,,,,,,,,,,,,,,,,,,,,,,,,,,,sub_490,2024-06-09_12h32.41.021,Reversal,2022.1.2,59.9916011758293,2,
,,,exp1.png,,,,,,,,,,,,,,,,,1,0,1,0,,,,,0,0,0,0,0,0,0,0,,,,,,,,,,,,,,,,,,,,,,72.0,8.925229400000717,"[(58.0, 2.108628800000588), (72.0, 8.925229400000717)]",742.9228791999999,None,,,72.0,,,,,,,,,,sub_490,2024-06-09_12h32.41.021,Reversal,2022.1.2,59.9916011758293,2,
,,,exp2.png,,,,,,,,,,,,,,,,,1,0,1,0,,,,,0,0,0,0,0,1,1,1,,,,,,,,,,,,,,,,,,,,,,50.0,None,[],752.8936622999995,None,,,,,,,,,,,,,sub_490,2024-06-09_12h32.41.021,Reversal,2022.1.2,59.9916011758293,2,
,,,exp3.png,,,,,,,,,,,,,,,,,1,0,1,0,,,,,0,0,0,0,0,2,2,2,,,,,,,,,,,,,,,,,,,,,,50.0,None,[],757.1631820999996,None,,,,,,,,,,,,,sub_490,2024-06-09_12h32.41.021,Reversal,2022.1.2,59.9916011758293,2,
,,,exp4.png,,,,,,,,,,,,,,,,,1,0,1,0,,,,,0,0,0,0,0,3,3,3,,,,,,,,,,,,,,,,,,,,,,50.0,None,[],759.1153883000002,None,,,,,,,,,,,,,sub_490,2024-06-09_12h32.41.021,Reversal,2022.1.2,59.9916011758293,2,
0,exp1.png,exp2.png,,,,,,,,,,,,,,,,,,2,0,2,0,0,0,0,0,,,,,,,,,False,40,121,False,exp1.png,exp2.png,trial_right_image,-1,exp2.png,2,exp1.png,exp2.png,0,2,non-reversed,incorrect,0.14930379331434407,1,invalid_win,664.6040174000004,64,,,,,,,,,,,,,,,,,,sub_490,2024-06-09_12h32.41.021,Reversal,2022.1.2,59.9916011758293,2,
1,exp3.png,exp4.png,,,,,,,,,,,,,,,,,,2,0,2,0,0,1,1,1,,,,,,,,,False,41,122,False,exp3.png,exp4.png,trial_right_image,-1,exp4.png,2,exp4.png,exp3.png,0,4,reversed,correct,0.6628602643810309,1,valid_win,669.7870967000003,65,,,,,,,,,,,,,,,,,,sub_490,2024-06-09_12h32.41.021,Reversal,2022.1.2,59.9916011758293,2,
2,exp1.png,exp2.png,,,,,,,,,,,,,,,,,,2,0,2,0,0,2,2,2,,,,,,,,,False,42,123,False,exp1.png,exp2.png,trial_right_image,-1,exp2.png,2,exp1.png,exp2.png,0,2,non-reversed,incorrect,0.8409159602691465,0,valid_lose,674.1700228000004,65,,,,,,,,,,,,,,,,,,sub_490,2024-06-09_12h32.41.021,Reversal,2022.1.2,59.9916011758293,2,
3,exp3.png,exp4.png,,,,,,,,,,,,,,,,,,2,0,2,0,0,3,3,3,,,,,,,,,False,43,124,True,exp4.png,exp3.png,trial_right_image,-1,exp3.png,2,exp4.png,exp3.png,1,3,reversed,incorrect,0.7766367169811121,0,valid_lose,678.4201399999997,65,,,,,,,,,,,,,,,,,,sub_490,2024-06-09_12h32.41.021,Reversal,2022.1.2,59.9916011758293,2,
4,exp1.png,exp2.png,,,,,,,,,,,,,,,,,,2,0,2,0,0,4,4,4,,,,,,,,,False,44,125,False,exp1.png,exp2.png,trial_right_image,-1,exp2.png,2,exp1.png,exp2.png,0,2,non-reversed,incorrect,0.583395504215481,0,valid_lose,682.6534941000004,65,,,,,,,,,,,,,,,,,,sub_490,2024-06-09_12h32.41.021,Reversal,2022.1.2,59.9916011758293,2,
5,exp3.png,exp4.png,,,,,,,,,,,,,,,,,,2,0,2,0,0,5,5,5,,,,,,,,,False,45,126,True,exp4.png,exp3.png,trial_right_image,-1,exp3.png,2,exp4.png,exp3.png,1,3,reversed,incorrect,0.2692762544300348,0,valid_lose,686.8534145999997,65,,,,,,,,,,,,,,,,,,sub_490,2024-06-09_12h32.41.021,Reversal,2022.1.2,59.9916011758293,2,
6,exp1.png,exp2.png,,,,,,,,,,,,,,,,,,2,0,2,0,0,6,6,6,,,,,,,,,False,46,127,True,exp2.png,exp1.png,trial_left_image,1,exp2.png,2,exp1.png,exp2.png,0,2,non-reversed,incorrect,0.20142944783726613,1,invalid_win,691.3365191999997,66,,,,,,,,,,,,,,,,,,sub_490,2024-06-09_12h32.41.021,Reversal,2022.1.2,59.9916011758293,2,
7,exp3.png,exp4.png,,,,,,,,,,,,,,,,,,2,0,2,0,0,7,7,7,,,,,,,,,False,47,128,False,exp3.png,exp4.png,trial_left_image,1,exp3.png,2,exp4.png,exp3.png,1,3,reversed,incorrect,0.8631169681979984,0,valid_lose,696.1538366,66,,,,,,,,,,,,,,,,,,sub_490,2024-06-09_12h32.41.021,Reversal,2022.1.2,59.9916011758293,2,
8,exp1.png,exp2.png,,,,,,,,,,,,,,,,,,2,0,2,0,0,8,8,8,,,,,,,,,False,48,129,False,exp1.png,exp2.png,trial_left_image,1,exp1.png,2,exp1.png,exp2.png,1,1,non-reversed,correct,0.7419971335059444,1,valid_win,700.3368571000005,67,,,,,,,,,,,,,,,,,,sub_490,2024-06-09_12h32.41.021,Reversal,2022.1.2,59.9916011758293,2,
9,exp3.png,exp4.png,,,,,,,,,,,,,,,,,,2,0,2,0,0,9,9,9,,,,,,,,,False,49,130,False,exp3.png,exp4.png,trial_left_image,1,exp3.png,2,exp4.png,exp3.png,1,3,reversed,incorrect,0.5476783124494242,0,valid_lose,704.5198475000002,67,,,,,,,,,,,,,,,,,,sub_490,2024-06-09_12h32.41.021,Reversal,2022.1.2,59.9916011758293,2,
10,exp1.png,exp2.png,,,,,,,,,,,,,,,,,,2,0,2,0,0,10,10,10,,,,,,,,,False,50,131,True,exp2.png,exp1.png,trial_left_image,1,exp2.png,2,exp1.png,exp2.png,0,2,non-reversed,incorrect,0.6725279135435457,0,valid_lose,708.6520919,67,,,,,,,,,,,,,,,,,,sub_490,2024-06-09_12h32.41.021,Reversal,2022.1.2,59.9916011758293,2,
11,exp3.png,exp4.png,,,,,,,,,,,,,,,,,,2,0,2,0,0,11,11,11,,,,,,,,,False,51,132,True,exp4.png,exp3.png,trial_left_image,1,exp4.png,2,exp4.png,exp3.png,0,4,reversed,correct,0.6958086972434296,1,valid_win,712.8864459000001,68,,,,,,,,,,,,,,,,,,sub_490,2024-06-09_12h32.41.021,Reversal,2022.1.2,59.9916011758293,2,
12,exp1.png,exp2.png,,,,,,,,,,,,,,,,,,2,0,2,0,0,12,12,12,,,,,,,,,False,52,133,True,exp2.png,exp1.png,trial_left_image,1,exp2.png,2,exp1.png,exp2.png,0,2,non-reversed,incorrect,0.5467873046370202,0,valid_lose,717.2195162000003,68,,,,,,,,,,,,,,,,,,sub_490,2024-06-09_12h32.41.021,Reversal,2022.1.2,59.9916011758293,2,
13,exp3.png,exp4.png,,,,,,,,,,,,,,,,,,2,0,2,0,0,13,13,13,,,,,,,,,False,53,134,False,exp3.png,exp4.png,trial_left_image,1,exp3.png,2,exp4.png,exp3.png,1,3,reversed,incorrect,0.08740168488741962,1,invalid_win,721.2695227999998,69,,,,,,,,,,,,,,,,,,sub_490,2024-06-09_12h32.41.021,Reversal,2022.1.2,59.9916011758293,2,
14,exp1.png,exp2.png,,,,,,,,,,,,,,,,,,2,0,2,0,0,14,14,14,,,,,,,,,False,54,135,True,exp2.png,exp1.png,trial_left_image,1,exp2.png,2,exp1.png,exp2.png,0,2,non-reversed,incorrect,0.2635657055010021,0,valid_lose,725.4190807999998,69,,,,,,,,,,,,,,,,,,sub_490,2024-06-09_12h32.41.021,Reversal,2022.1.2,59.9916011758293,2,
15,exp3.png,exp4.png,,,,,,,,,,,,,,,,,,2,0,2,0,0,15,15,15,,,,,,,,,False,55,136,True,exp4.png,exp3.png,trial_left_image,1,exp4.png,2,exp4.png,exp3.png,0,4,reversed,correct,0.46260122187652997,1,valid_win,729.5695443,70,,,,,,,,,,,,,,,,,,sub_490,2024-06-09_12h32.41.021,Reversal,2022.1.2,59.9916011758293,2,
16,exp1.png,exp2.png,,,,,,,,,,,,,,,,,,2,0,2,0,0,16,16,16,,,,,,,,,False,56,137,True,exp2.png,exp1.png,trial_left_image,1,exp2.png,2,exp1.png,exp2.png,0,2,non-reversed,incorrect,0.6338205491412199,0,valid_lose,733.7358226000001,70,,,,,,,,,,,,,,,,,,sub_490,2024-06-09_12h32.41.021,Reversal,2022.1.2,59.9916011758293,2,
17,exp3.png,exp4.png,,,,,,,,,,,,,,,,,,2,0,2,0,0,17,17,17,,,,,,,,,False,57,138,False,exp3.png,exp4.png,trial_right_image,-1,exp4.png,2,exp4.png,exp3.png,0,4,reversed,correct,0.9581206727558522,1,valid_win,737.8189442999997,71,,,,,,,,,,,,,,,,,,sub_490,2024-06-09_12h32.41.021,Reversal,2022.1.2,59.9916011758293,2,
18,exp1.png,exp2.png,,,,,,,,,,,,,,,,,,2,0,2,0,0,18,18,18,,,,,,,,,False,58,139,False,exp1.png,exp2.png,trial_right_image,-1,exp2.png,2,exp1.png,exp2.png,0,2,non-reversed,incorrect,0.8336671886743815,0,valid_lose,742.5185972000004,71,,,,,,,,,,,,,,,,,,sub_490,2024-06-09_12h32.41.021,Reversal,2022.1.2,59.9916011758293,2,
19,exp3.png,exp4.png,,,,,,,,,,,,,,,,,,2,0,2,0,0,19,19,19,,,,,,,,,False,59,140,True,exp4.png,exp3.png,trial_right_image,-1,exp3.png,2,exp4.png,exp3.png,1,3,reversed,incorrect,0.7633780095271451,0,valid_lose,746.5352215999997,71,,,,,,,,,,,,,,,,,,sub_490,2024-06-09_12h32.41.021,Reversal,2022.1.2,59.9916011758293,2,
20,exp1.png,exp2.png,,,,,,,,,,,,,,,,,,2,0,2,0,0,20,20,20,,,,,,,,,True,,,,,,,,,,,,,,,,,,,,,,,,,,,,,,,,,,,,,,sub_490,2024-06-09_12h32.41.021,Reversal,2022.1.2,59.9916011758293,2,
,,,exp1.png,,,,,,,,,,,,,,,,,2,0,2,0,,,,,0,0,0,0,0,0,0,0,,,,,,,,,,,,,,,,,,,,,,62.0,8.134890000000269,"[(50.0, 6.0505589000003965), (62.0, 8.134890000000269)]",846.2951192999994,None,,,62.0,,,,,,,,,,sub_490,2024-06-09_12h32.41.021,Reversal,2022.1.2,59.9916011758293,2,
,,,exp2.png,,,,,,,,,,,,,,,,,2,0,2,0,,,,,0,0,0,0,0,1,1,1,,,,,,,,,,,,,,,,,,,,,,50.0,None,[],855.3601219999996,None,,,,,,,,,,,,,sub_490,2024-06-09_12h32.41.021,Reversal,2022.1.2,59.9916011758293,2,
,,,exp3.png,,,,,,,,,,,,,,,,,2,0,2,0,,,,,0,0,0,0,0,2,2,2,,,,,,,,,,,,,,,,,,,,,,61.0,1.5827174999994895,"[(61.0, 1.5827174999994895)]",856.7775434,None,,,,61.0,,,,,,,,,sub_490,2024-06-09_12h32.41.021,Reversal,2022.1.2,59.9916011758293,2,
,,,exp4.png,,,,,,,,,,,,,,,,,2,0,2,0,,,,,0,0,0,0,0,3,3,3,,,,,,,,,,,,,,,,,,,,,,50.0,None,[],859.3270853999998,None,,,,,,,,,,,,,sub_490,2024-06-09_12h32.41.021,Reversal,2022.1.2,59.9916011758293,2,
,,,,,,,,,,,,,,,,,,,,,,,,,,,,,,,,,,,,,,,,,,,,,,,,,,,,,,,,71,,,,,,,,,,,71,44,27,306.8274349000003,1,space,21.58578770000031,sub_490,2024-06-09_12h32.41.021,Reversal,2022.1.2,59.9916011758293,2,
