trial_index,trial_image1_file,trial_image2_file,image_file,learning_outer_loop.thisRepN,learning_outer_loop.thisTrialN,learning_outer_loop.thisN,learning_outer_loop.thisIndex,learning_inner_loop.thisRepN,learning_inner_loop.thisTrialN,learning_inner_loop.thisN,learning_inner_loop.thisIndex,learning_estimation_outer_loop.thisRepN,learning_estimation_outer_loop.thisTrialN,learning_estimation_outer_loop.thisN,learning_estimation_outer_loop.thisIndex,learning_estimation_inner_loop.thisRepN,learning_estimation_inner_loop.thisTrialN,learning_estimation_inner_loop.thisN,learning_estimation_inner_loop.thisIndex,reversal_outer_loop.thisRepN,reversal_outer_loop.thisTrialN,reversal_outer_loop.thisN,reversal_outer_loop.thisIndex,reversal_inner_loop.thisRepN,reversal_inner_loop.thisTrialN,reversal_inner_loop.thisN,reversal_inner_loop.thisIndex,reversal_estimation_outer_loop.thisRepN,reversal_estimation_outer_loop.thisTrialN,reversal_estimation_outer_loop.thisN,reversal_estimation_outer_loop.thisIndex,reversal_estimation_inner_loop.thisRepN,reversal_estimation_inner_loop.thisTrialN,reversal_estimation_inner_loop.thisN,reversal_estimation_inner_loop.thisIndex,skipped,total_trial_counter,trial_num,left_right_flip,left_image_file,right_image_file,clicked_stimulus_side,side,clicked_stimulus,version,high_prob_image_file,low_prob_image_file,choice_a,choice_b,pair_type,correct,trial_feedback_random,reward,trial_type,overall_time_after_trial,score,estimation_rating.response,estimation_rating.rt,estimation_rating.history,estimation_rating.started,estimation_rating.stopped,estimation_exp2.png,estimation_exp3.png,estimation_exp4.png,total_learning_time,estimation_exp1.png,total_correct,learning_correct,reversal_correct,total_reversal_time,extra_block,participant,date,expName,psychopyVersion,frameRate,ver,
0,exp1.png,exp2.png,,0,0,0,0,0,0,0,0,,,,,,,,,,,,,,,,,,,,,,,,,False,0,1,True,exp2.png,exp1.png,trial_right_image,-1,exp1.png,3,exp2.png,exp1.png,0,4,reversed,incorrect,0.7423542774842637,0,valid_lose,9.483651699498296,0,,,,,,,,,,,,,,,,sub_227,2022-12-22_11h41.30.254,Reversal,2022.1.2,59.9960281349123,3,
1,exp3.png,exp4.png,,0,0,0,0,0,1,1,1,,,,,,,,,,,,,,,,,,,,,,,,,False,1,2,False,exp3.png,exp4.png,trial_right_image,-1,exp4.png,3,exp4.png,exp3.png,1,1,non-reversed,correct,0.15531616244673485,0,invalid_lose,15.24986599944532,0,,,,,,,,,,,,,,,,sub_227,2022-12-22_11h41.30.254,Reversal,2022.1.2,59.9960281349123,3,
2,exp1.png,exp2.png,,0,0,0,0,0,2,2,2,,,,,,,,,,,,,,,,,,,,,,,,,False,2,3,False,exp1.png,exp2.png,trial_right_image,-1,exp2.png,3,exp2.png,exp1.png,1,3,reversed,correct,0.9107195639422367,1,valid_win,23.66674999985844,1,,,,,,,,,,,,,,,,sub_227,2022-12-22_11h41.30.254,Reversal,2022.1.2,59.9960281349123,3,
3,exp3.png,exp4.png,,0,0,0,0,0,3,3,3,,,,,,,,,,,,,,,,,,,,,,,,,False,3,4,True,exp4.png,exp3.png,trial_right_image,-1,exp3.png,3,exp4.png,exp3.png,0,2,non-reversed,incorrect,0.4463979213919045,0,valid_lose,31.533775799907744,1,,,,,,,,,,,,,,,,sub_227,2022-12-22_11h41.30.254,Reversal,2022.1.2,59.9960281349123,3,
4,exp1.png,exp2.png,,0,0,0,0,0,4,4,4,,,,,,,,,,,,,,,,,,,,,,,,,False,4,5,False,exp1.png,exp2.png,trial_right_image,-1,exp2.png,3,exp2.png,exp1.png,1,3,reversed,correct,0.3739652870354304,1,valid_win,37.88246340025216,2,,,,,,,,,,,,,,,,sub_227,2022-12-22_11h41.30.254,Reversal,2022.1.2,59.9960281349123,3,
5,exp3.png,exp4.png,,0,0,0,0,0,5,5,5,,,,,,,,,,,,,,,,,,,,,,,,,False,5,6,False,exp3.png,exp4.png,trial_left_image,1,exp3.png,3,exp4.png,exp3.png,0,2,non-reversed,incorrect,0.047721412995963886,1,invalid_win,45.49927029944956,3,,,,,,,,,,,,,,,,sub_227,2022-12-22_11h41.30.254,Reversal,2022.1.2,59.9960281349123,3,
6,exp1.png,exp2.png,,0,0,0,0,0,6,6,6,,,,,,,,,,,,,,,,,,,,,,,,,False,6,7,False,exp1.png,exp2.png,trial_right_image,-1,exp2.png,3,exp2.png,exp1.png,1,3,reversed,correct,0.8621447022436448,1,valid_win,50.98305150028318,4,,,,,,,,,,,,,,,,sub_227,2022-12-22_11h41.30.254,Reversal,2022.1.2,59.9960281349123,3,
7,exp3.png,exp4.png,,0,0,0,0,0,7,7,7,,,,,,,,,,,,,,,,,,,,,,,,,False,7,8,False,exp3.png,exp4.png,trial_left_image,1,exp3.png,3,exp4.png,exp3.png,0,2,non-reversed,incorrect,0.9923330987977936,0,valid_lose,56.53229979984462,4,,,,,,,,,,,,,,,,sub_227,2022-12-22_11h41.30.254,Reversal,2022.1.2,59.9960281349123,3,
8,exp1.png,exp2.png,,0,0,0,0,0,8,8,8,,,,,,,,,,,,,,,,,,,,,,,,,False,8,9,False,exp1.png,exp2.png,trial_right_image,-1,exp2.png,3,exp2.png,exp1.png,1,3,reversed,correct,0.682118949255077,1,valid_win,61.548937600106,5,,,,,,,,,,,,,,,,sub_227,2022-12-22_11h41.30.254,Reversal,2022.1.2,59.9960281349123,3,
9,exp3.png,exp4.png,,0,0,0,0,0,9,9,9,,,,,,,,,,,,,,,,,,,,,,,,,False,9,10,False,exp3.png,exp4.png,trial_left_image,1,exp3.png,3,exp4.png,exp3.png,0,2,non-reversed,incorrect,0.4380715596294694,0,valid_lose,68.3323091994971,5,,,,,,,,,,,,,,,,sub_227,2022-12-22_11h41.30.254,Reversal,2022.1.2,59.9960281349123,3,
10,exp1.png,exp2.png,,0,0,0,0,0,10,10,10,,,,,,,,,,,,,,,,,,,,,,,,,False,10,11,False,exp1.png,exp2.png,trial_right_image,-1,exp2.png,3,exp2.png,exp1.png,1,3,reversed,correct,0.8540383954829665,1,valid_win,75.68260100018233,6,,,,,,,,,,,,,,,,sub_227,2022-12-22_11h41.30.254,Reversal,2022.1.2,59.9960281349123,3,
11,exp3.png,exp4.png,,0,0,0,0,0,11,11,11,,,,,,,,,,,,,,,,,,,,,,,,,False,11,12,True,exp4.png,exp3.png,trial_right_image,-1,exp3.png,3,exp4.png,exp3.png,0,2,non-reversed,incorrect,0.4409196875290883,0,valid_lose,82.63233060017228,6,,,,,,,,,,,,,,,,sub_227,2022-12-22_11h41.30.254,Reversal,2022.1.2,59.9960281349123,3,
12,exp1.png,exp2.png,,0,0,0,0,0,12,12,12,,,,,,,,,,,,,,,,,,,,,,,,,False,12,13,True,exp2.png,exp1.png,trial_left_image,1,exp2.png,3,exp2.png,exp1.png,1,3,reversed,correct,0.9768308583917829,1,valid_win,88.68192970007658,7,,,,,,,,,,,,,,,,sub_227,2022-12-22_11h41.30.254,Reversal,2022.1.2,59.9960281349123,3,
13,exp3.png,exp4.png,,0,0,0,0,0,13,13,13,,,,,,,,,,,,,,,,,,,,,,,,,False,13,14,False,exp3.png,exp4.png,trial_left_image,1,exp3.png,3,exp4.png,exp3.png,0,2,non-reversed,incorrect,0.19998671870876894,1,invalid_win,93.74880619999021,8,,,,,,,,,,,,,,,,sub_227,2022-12-22_11h41.30.254,Reversal,2022.1.2,59.9960281349123,3,
14,exp1.png,exp2.png,,0,0,0,0,0,14,14,14,,,,,,,,,,,,,,,,,,,,,,,,,False,14,15,True,exp2.png,exp1.png,trial_left_image,1,exp2.png,3,exp2.png,exp1.png,1,3,reversed,correct,0.19510444213116906,0,invalid_lose,99.66502089984715,8,,,,,,,,,,,,,,,,sub_227,2022-12-22_11h41.30.254,Reversal,2022.1.2,59.9960281349123,3,
15,exp3.png,exp4.png,,0,0,0,0,0,15,15,15,,,,,,,,,,,,,,,,,,,,,,,,,False,15,16,True,exp4.png,exp3.png,trial_right_image,-1,exp3.png,3,exp4.png,exp3.png,0,2,non-reversed,incorrect,0.49251396644693746,0,valid_lose,110.73174059949815,8,,,,,,,,,,,,,,,,sub_227,2022-12-22_11h41.30.254,Reversal,2022.1.2,59.9960281349123,3,
16,exp1.png,exp2.png,,0,0,0,0,0,16,16,16,,,,,,,,,,,,,,,,,,,,,,,,,False,16,17,True,exp2.png,exp1.png,trial_left_image,1,exp2.png,3,exp2.png,exp1.png,1,3,reversed,correct,0.08502703139700551,0,invalid_lose,117.53173150029033,8,,,,,,,,,,,,,,,,sub_227,2022-12-22_11h41.30.254,Reversal,2022.1.2,59.9960281349123,3,
17,exp3.png,exp4.png,,0,0,0,0,0,17,17,17,,,,,,,,,,,,,,,,,,,,,,,,,False,17,18,True,exp4.png,exp3.png,trial_right_image,-1,exp3.png,3,exp4.png,exp3.png,0,2,non-reversed,incorrect,0.6828500187324944,0,valid_lose,125.49791540019214,8,,,,,,,,,,,,,,,,sub_227,2022-12-22_11h41.30.254,Reversal,2022.1.2,59.9960281349123,3,
18,exp1.png,exp2.png,,0,0,0,0,0,18,18,18,,,,,,,,,,,,,,,,,,,,,,,,,False,18,19,True,exp2.png,exp1.png,trial_left_image,1,exp2.png,3,exp2.png,exp1.png,1,3,reversed,correct,0.28635773854607194,1,valid_win,131.69810979999602,9,,,,,,,,,,,,,,,,sub_227,2022-12-22_11h41.30.254,Reversal,2022.1.2,59.9960281349123,3,
19,exp3.png,exp4.png,,0,0,0,0,0,19,19,19,,,,,,,,,,,,,,,,,,,,,,,,,False,19,20,True,exp4.png,exp3.png,trial_right_image,-1,exp3.png,3,exp4.png,exp3.png,0,2,non-reversed,incorrect,0.5977159129703948,0,valid_lose,137.6809749994427,9,,,,,,,,,,,,,,,,sub_227,2022-12-22_11h41.30.254,Reversal,2022.1.2,59.9960281349123,3,
20,exp1.png,exp2.png,,0,0,0,0,0,20,20,20,,,,,,,,,,,,,,,,,,,,,,,,,True,,,,,,,,,,,,,,,,,,,,,,,,,,,,,,,,,,,,sub_227,2022-12-22_11h41.30.254,Reversal,2022.1.2,59.9960281349123,3,
,,,exp1.png,0,0,0,0,,,,,0,0,0,0,0,0,0,0,,,,,,,,,,,,,,,,,,,,,,,,,,,,,,,,,,,,,,50.0,None,[],256.8405039003119,None,,,,,,,,,,,sub_227,2022-12-22_11h41.30.254,Reversal,2022.1.2,59.9960281349123,3,
,,,exp2.png,0,0,0,0,,,,,0,0,0,0,0,1,1,1,,,,,,,,,,,,,,,,,,,,,,,,,,,,,,,,,,,,,,100.0,3.66498770006001,"[(90.0, 2.531731699593365), (100.0, 3.66498770006001)]",268.483022200875,None,100.0,,,,,,,,,,sub_227,2022-12-22_11h41.30.254,Reversal,2022.1.2,59.9960281349123,3,
,,,exp3.png,0,0,0,0,,,,,0,0,0,0,0,2,2,2,,,,,,,,,,,,,,,,,,,,,,,,,,,,,,,,,,,,,,1.0,7.917271999642253,"[(1.0, 7.917271999642253)]",275.54603070020676,None,,1.0,,,,,,,,,sub_227,2022-12-22_11h41.30.254,Reversal,2022.1.2,59.9960281349123,3,
,,,exp4.png,0,0,0,0,,,,,0,0,0,0,0,3,3,3,,,,,,,,,,,,,,,,,,,,,,,,,,,,,,,,,,,,,,1.0,2.7650963002815843,"[(1.0, 2.7650963002815843)]",284.8339840006083,None,,,1.0,,,,,,,,sub_227,2022-12-22_11h41.30.254,Reversal,2022.1.2,59.9960281349123,3,
0,exp1.png,exp2.png,,1,0,1,0,0,0,0,0,,,,,,,,,,,,,,,,,,,,,,,,,False,20,21,False,exp1.png,exp2.png,trial_right_image,-1,exp2.png,3,exp2.png,exp1.png,1,3,reversed,correct,0.6120768380213515,1,valid_win,178.58070100005716,10,,,,,,,,,,,,,,,,sub_227,2022-12-22_11h41.30.254,Reversal,2022.1.2,59.9960281349123,3,
1,exp3.png,exp4.png,,1,0,1,0,0,1,1,1,,,,,,,,,,,,,,,,,,,,,,,,,False,21,22,True,exp4.png,exp3.png,trial_right_image,-1,exp3.png,3,exp4.png,exp3.png,0,2,non-reversed,incorrect,0.9109654954680313,0,valid_lose,186.92991339974105,10,,,,,,,,,,,,,,,,sub_227,2022-12-22_11h41.30.254,Reversal,2022.1.2,59.9960281349123,3,
2,exp1.png,exp2.png,,1,0,1,0,0,2,2,2,,,,,,,,,,,,,,,,,,,,,,,,,False,22,23,False,exp1.png,exp2.png,trial_left_image,1,exp1.png,3,exp2.png,exp1.png,0,4,reversed,incorrect,0.7941320091182648,0,valid_lose,192.33051710017025,10,,,,,,,,,,,,,,,,sub_227,2022-12-22_11h41.30.254,Reversal,2022.1.2,59.9960281349123,3,
3,exp3.png,exp4.png,,1,0,1,0,0,3,3,3,,,,,,,,,,,,,,,,,,,,,,,,,False,23,24,True,exp4.png,exp3.png,trial_right_image,-1,exp3.png,3,exp4.png,exp3.png,0,2,non-reversed,incorrect,0.8022446458426109,0,valid_lose,198.42963720019907,10,,,,,,,,,,,,,,,,sub_227,2022-12-22_11h41.30.254,Reversal,2022.1.2,59.9960281349123,3,
4,exp1.png,exp2.png,,1,0,1,0,0,4,4,4,,,,,,,,,,,,,,,,,,,,,,,,,False,24,25,True,exp2.png,exp1.png,trial_left_image,1,exp2.png,3,exp2.png,exp1.png,1,3,reversed,correct,0.7813741613703098,1,valid_win,204.4138986999169,11,,,,,,,,,,,,,,,,sub_227,2022-12-22_11h41.30.254,Reversal,2022.1.2,59.9960281349123,3,
5,exp3.png,exp4.png,,1,0,1,0,0,5,5,5,,,,,,,,,,,,,,,,,,,,,,,,,False,25,26,False,exp3.png,exp4.png,trial_left_image,1,exp3.png,3,exp4.png,exp3.png,0,2,non-reversed,incorrect,0.2839301223598758,0,valid_lose,213.16286749951541,11,,,,,,,,,,,,,,,,sub_227,2022-12-22_11h41.30.254,Reversal,2022.1.2,59.9960281349123,3,
6,exp1.png,exp2.png,,1,0,1,0,0,6,6,6,,,,,,,,,,,,,,,,,,,,,,,,,False,26,27,False,exp1.png,exp2.png,trial_right_image,-1,exp2.png,3,exp2.png,exp1.png,1,3,reversed,correct,0.7895724791298904,1,valid_win,217.56275689974427,12,,,,,,,,,,,,,,,,sub_227,2022-12-22_11h41.30.254,Reversal,2022.1.2,59.9960281349123,3,
7,exp3.png,exp4.png,,1,0,1,0,0,7,7,7,,,,,,,,,,,,,,,,,,,,,,,,,False,27,28,True,exp4.png,exp3.png,trial_right_image,-1,exp3.png,3,exp4.png,exp3.png,0,2,non-reversed,incorrect,0.12852275880286868,1,invalid_win,224.61261789966375,13,,,,,,,,,,,,,,,,sub_227,2022-12-22_11h41.30.254,Reversal,2022.1.2,59.9960281349123,3,
8,exp1.png,exp2.png,,1,0,1,0,0,8,8,8,,,,,,,,,,,,,,,,,,,,,,,,,False,28,29,False,exp1.png,exp2.png,trial_right_image,-1,exp2.png,3,exp2.png,exp1.png,1,3,reversed,correct,0.3134641025713788,1,valid_win,230.09523839969188,14,,,,,,,,,,,,,,,,sub_227,2022-12-22_11h41.30.254,Reversal,2022.1.2,59.9960281349123,3,
9,exp3.png,exp4.png,,1,0,1,0,0,9,9,9,,,,,,,,,,,,,,,,,,,,,,,,,False,29,30,True,exp4.png,exp3.png,trial_right_image,-1,exp3.png,3,exp4.png,exp3.png,0,2,non-reversed,incorrect,0.4977796161392203,0,valid_lose,234.9132321998477,14,,,,,,,,,,,,,,,,sub_227,2022-12-22_11h41.30.254,Reversal,2022.1.2,59.9960281349123,3,
10,exp1.png,exp2.png,,1,0,1,0,0,10,10,10,,,,,,,,,,,,,,,,,,,,,,,,,False,30,31,True,exp2.png,exp1.png,trial_left_image,1,exp2.png,3,exp2.png,exp1.png,1,3,reversed,correct,0.954536220884183,1,valid_win,245.3959264997393,15,,,,,,,,,,,,,,,,sub_227,2022-12-22_11h41.30.254,Reversal,2022.1.2,59.9960281349123,3,
11,exp3.png,exp4.png,,1,0,1,0,0,11,11,11,,,,,,,,,,,,,,,,,,,,,,,,,False,31,32,False,exp3.png,exp4.png,trial_left_image,1,exp3.png,3,exp4.png,exp3.png,0,2,non-reversed,incorrect,0.6445523452711592,0,valid_lose,251.1118951998651,15,,,,,,,,,,,,,,,,sub_227,2022-12-22_11h41.30.254,Reversal,2022.1.2,59.9960281349123,3,
12,exp1.png,exp2.png,,1,0,1,0,0,12,12,12,,,,,,,,,,,,,,,,,,,,,,,,,False,32,33,False,exp1.png,exp2.png,trial_right_image,-1,exp2.png,3,exp2.png,exp1.png,1,3,reversed,correct,0.3287066619726152,1,valid_win,255.8624660000205,16,,,,,,,,,,,,,,,,sub_227,2022-12-22_11h41.30.254,Reversal,2022.1.2,59.9960281349123,3,
13,exp3.png,exp4.png,,1,0,1,0,0,13,13,13,,,,,,,,,,,,,,,,,,,,,,,,,False,33,34,False,exp3.png,exp4.png,trial_right_image,-1,exp4.png,3,exp4.png,exp3.png,1,1,non-reversed,correct,0.09420657286059819,0,invalid_lose,261.12930510006845,16,,,,,,,,,,,,,,,,sub_227,2022-12-22_11h41.30.254,Reversal,2022.1.2,59.9960281349123,3,
14,exp1.png,exp2.png,,1,0,1,0,0,14,14,14,,,,,,,,,,,,,,,,,,,,,,,,,False,34,35,True,exp2.png,exp1.png,trial_left_image,1,exp2.png,3,exp2.png,exp1.png,1,3,reversed,correct,0.5528158528204031,1,valid_win,265.87892320007086,17,,,,,,,,,,,,,,,,sub_227,2022-12-22_11h41.30.254,Reversal,2022.1.2,59.9960281349123,3,
15,exp3.png,exp4.png,,1,0,1,0,0,15,15,15,,,,,,,,,,,,,,,,,,,,,,,,,False,35,36,False,exp3.png,exp4.png,trial_right_image,-1,exp4.png,3,exp4.png,exp3.png,1,1,non-reversed,correct,0.9168186112829289,1,valid_win,272.0456112995744,18,,,,,,,,,,,,,,,,sub_227,2022-12-22_11h41.30.254,Reversal,2022.1.2,59.9960281349123,3,
16,exp1.png,exp2.png,,1,0,1,0,0,16,16,16,,,,,,,,,,,,,,,,,,,,,,,,,False,36,37,True,exp2.png,exp1.png,trial_left_image,1,exp2.png,3,exp2.png,exp1.png,1,3,reversed,correct,0.965525303815345,1,valid_win,278.5620428994298,19,,,,,,,,,,,,,,,,sub_227,2022-12-22_11h41.30.254,Reversal,2022.1.2,59.9960281349123,3,
17,exp3.png,exp4.png,,1,0,1,0,0,17,17,17,,,,,,,,,,,,,,,,,,,,,,,,,False,37,38,True,exp4.png,exp3.png,trial_left_image,1,exp4.png,3,exp4.png,exp3.png,1,1,non-reversed,correct,0.7174277490201842,1,valid_win,286.5281306998804,20,,,,,,,,,,,,,,,,sub_227,2022-12-22_11h41.30.254,Reversal,2022.1.2,59.9960281349123,3,
18,exp1.png,exp2.png,,1,0,1,0,0,18,18,18,,,,,,,,,,,,,,,,,,,,,,,,,False,38,39,True,exp2.png,exp1.png,trial_left_image,1,exp2.png,3,exp2.png,exp1.png,1,3,reversed,correct,0.6078402365737426,1,valid_win,291.7613794002682,21,,,,,,,,,,,,,,,,sub_227,2022-12-22_11h41.30.254,Reversal,2022.1.2,59.9960281349123,3,
19,exp3.png,exp4.png,,1,0,1,0,0,19,19,19,,,,,,,,,,,,,,,,,,,,,,,,,False,39,40,False,exp3.png,exp4.png,trial_left_image,1,exp3.png,3,exp4.png,exp3.png,0,2,non-reversed,incorrect,0.8277477379319478,0,valid_lose,298.59520570002496,21,,,,,,,,,,,,,,,,sub_227,2022-12-22_11h41.30.254,Reversal,2022.1.2,59.9960281349123,3,
20,exp1.png,exp2.png,,1,0,1,0,0,20,20,20,,,,,,,,,,,,,,,,,,,,,,,,,True,,,,,,,,,,,,,,,,,,,,,,,,,,,,,,,,,,,,sub_227,2022-12-22_11h41.30.254,Reversal,2022.1.2,59.9960281349123,3,
,,,exp1.png,1,0,1,0,,,,,0,0,0,0,0,0,0,0,,,,,,,,,,,,,,,,,,,,,,,,,,,,,,,,,,,,,,50.0,None,[],417.76336700003594,None,,,,,,,,,,,sub_227,2022-12-22_11h41.30.254,Reversal,2022.1.2,59.9960281349123,3,
,,,exp2.png,1,0,1,0,,,,,0,0,0,0,0,1,1,1,,,,,,,,,,,,,,,,,,,,,,,,,,,,,,,,,,,,,,100.0,1.8150247996672988,"[(100.0, 1.8150247996672988)]",429.7120448006317,None,100.0,,,,,,,,,,sub_227,2022-12-22_11h41.30.254,Reversal,2022.1.2,59.9960281349123,3,
,,,exp3.png,1,0,1,0,,,,,0,0,0,0,0,2,2,2,,,,,,,,,,,,,,,,,,,,,,,,,,,,,,,,,,,,,,100.0,4.704127999953926,"[(100.0, 4.704127999953926)]",432.522188000381,None,,100.0,,,,,,,,,sub_227,2022-12-22_11h41.30.254,Reversal,2022.1.2,59.9960281349123,3,
,,,exp4.png,1,0,1,0,,,,,0,0,0,0,0,3,3,3,,,,,,,,,,,,,,,,,,,,,,,,,,,,,,,,,,,,,,100.0,2.632385400123894,"[(100.0, 2.632385400123894)]",438.1813359009102,None,,,100.0,,,,,,,,sub_227,2022-12-22_11h41.30.254,Reversal,2022.1.2,59.9960281349123,3,
0,exp1.png,exp2.png,,2,0,2,0,0,0,0,0,,,,,,,,,,,,,,,,,,,,,,,,,False,40,41,False,exp1.png,exp2.png,trial_right_image,-1,exp2.png,3,exp2.png,exp1.png,1,3,reversed,correct,0.5373649037899607,1,valid_win,327.7940702997148,22,,,,,,,,,,,,,,,,sub_227,2022-12-22_11h41.30.254,Reversal,2022.1.2,59.9960281349123,3,
1,exp3.png,exp4.png,,2,0,2,0,0,1,1,1,,,,,,,,,,,,,,,,,,,,,,,,,False,41,42,True,exp4.png,exp3.png,trial_left_image,1,exp4.png,3,exp4.png,exp3.png,1,1,non-reversed,correct,0.29964932051441273,1,valid_win,333.56040679942816,23,,,,,,,,,,,,,,,,sub_227,2022-12-22_11h41.30.254,Reversal,2022.1.2,59.9960281349123,3,
2,exp1.png,exp2.png,,2,0,2,0,0,2,2,2,,,,,,,,,,,,,,,,,,,,,,,,,False,42,43,False,exp1.png,exp2.png,trial_right_image,-1,exp2.png,3,exp2.png,exp1.png,1,3,reversed,correct,0.7155677568268244,1,valid_win,337.6251191003248,24,,,,,,,,,,,,,,,,sub_227,2022-12-22_11h41.30.254,Reversal,2022.1.2,59.9960281349123,3,
3,exp3.png,exp4.png,,2,0,2,0,0,3,3,3,,,,,,,,,,,,,,,,,,,,,,,,,False,43,44,False,exp3.png,exp4.png,trial_right_image,-1,exp4.png,3,exp4.png,exp3.png,1,1,non-reversed,correct,0.9460224178231785,1,valid_win,342.294376200065,25,,,,,,,,,,,,,,,,sub_227,2022-12-22_11h41.30.254,Reversal,2022.1.2,59.9960281349123,3,
4,exp1.png,exp2.png,,2,0,2,0,0,4,4,4,,,,,,,,,,,,,,,,,,,,,,,,,False,44,45,False,exp1.png,exp2.png,trial_right_image,-1,exp2.png,3,exp2.png,exp1.png,1,3,reversed,correct,0.43324668048752657,1,valid_win,346.8278492996469,26,,,,,,,,,,,,,,,,sub_227,2022-12-22_11h41.30.254,Reversal,2022.1.2,59.9960281349123,3,
5,exp3.png,exp4.png,,2,0,2,0,0,5,5,5,,,,,,,,,,,,,,,,,,,,,,,,,False,45,46,True,exp4.png,exp3.png,trial_left_image,1,exp4.png,3,exp4.png,exp3.png,1,1,non-reversed,correct,0.2995195973457697,1,valid_win,351.44378549978137,27,,,,,,,,,,,,,,,,sub_227,2022-12-22_11h41.30.254,Reversal,2022.1.2,59.9960281349123,3,
6,exp1.png,exp2.png,,2,0,2,0,0,6,6,6,,,,,,,,,,,,,,,,,,,,,,,,,False,46,47,False,exp1.png,exp2.png,trial_right_image,-1,exp2.png,3,exp2.png,exp1.png,1,3,reversed,correct,0.8752564349304547,1,valid_win,355.8773512998596,28,,,,,,,,,,,,,,,,sub_227,2022-12-22_11h41.30.254,Reversal,2022.1.2,59.9960281349123,3,
7,exp3.png,exp4.png,,2,0,2,0,0,7,7,7,,,,,,,,,,,,,,,,,,,,,,,,,False,47,48,True,exp4.png,exp3.png,trial_left_image,1,exp4.png,3,exp4.png,exp3.png,1,1,non-reversed,correct,0.9236533706879104,1,valid_win,360.52752980031073,29,,,,,,,,,,,,,,,,sub_227,2022-12-22_11h41.30.254,Reversal,2022.1.2,59.9960281349123,3,
8,exp1.png,exp2.png,,2,0,2,0,0,8,8,8,,,,,,,,,,,,,,,,,,,,,,,,,False,48,49,False,exp1.png,exp2.png,trial_right_image,-1,exp2.png,3,exp2.png,exp1.png,1,3,reversed,correct,0.02858027323233836,0,invalid_lose,364.82703489996493,29,,,,,,,,,,,,,,,,sub_227,2022-12-22_11h41.30.254,Reversal,2022.1.2,59.9960281349123,3,
9,exp3.png,exp4.png,,2,0,2,0,0,9,9,9,,,,,,,,,,,,,,,,,,,,,,,,,False,49,50,True,exp4.png,exp3.png,trial_left_image,1,exp4.png,3,exp4.png,exp3.png,1,1,non-reversed,correct,0.9057406214895588,1,valid_win,369.9103376995772,30,,,,,,,,,,,,,,,,sub_227,2022-12-22_11h41.30.254,Reversal,2022.1.2,59.9960281349123,3,
10,exp1.png,exp2.png,,2,0,2,0,0,10,10,10,,,,,,,,,,,,,,,,,,,,,,,,,False,50,51,True,exp2.png,exp1.png,trial_left_image,1,exp2.png,3,exp2.png,exp1.png,1,3,reversed,correct,0.277196514351584,1,valid_win,375.32702500000596,31,,,,,,,,,,,,,,,,sub_227,2022-12-22_11h41.30.254,Reversal,2022.1.2,59.9960281349123,3,
11,exp3.png,exp4.png,,2,0,2,0,0,11,11,11,,,,,,,,,,,,,,,,,,,,,,,,,False,51,52,True,exp4.png,exp3.png,trial_left_image,1,exp4.png,3,exp4.png,exp3.png,1,1,non-reversed,correct,0.34803165468243813,1,valid_win,380.1767130997032,32,,,,,,,,,,,,,,,,sub_227,2022-12-22_11h41.30.254,Reversal,2022.1.2,59.9960281349123,3,
12,exp1.png,exp2.png,,2,0,2,0,0,12,12,12,,,,,,,,,,,,,,,,,,,,,,,,,False,52,53,False,exp1.png,exp2.png,trial_right_image,-1,exp2.png,3,exp2.png,exp1.png,1,3,reversed,correct,0.4842603915793037,1,valid_win,384.9432589998469,33,,,,,,,,,,,,,,,,sub_227,2022-12-22_11h41.30.254,Reversal,2022.1.2,59.9960281349123,3,
13,exp3.png,exp4.png,,2,0,2,0,0,13,13,13,,,,,,,,,,,,,,,,,,,,,,,,,False,53,54,True,exp4.png,exp3.png,trial_left_image,1,exp4.png,3,exp4.png,exp3.png,1,1,non-reversed,correct,0.14337393230806805,0,invalid_lose,391.1098910998553,33,,,,,,,,,,,,,,,,sub_227,2022-12-22_11h41.30.254,Reversal,2022.1.2,59.9960281349123,3,
14,exp1.png,exp2.png,,2,0,2,0,0,14,14,14,,,,,,,,,,,,,,,,,,,,,,,,,False,54,55,False,exp1.png,exp2.png,trial_right_image,-1,exp2.png,3,exp2.png,exp1.png,1,3,reversed,correct,0.3454766825503084,1,valid_win,395.97605209983885,34,,,,,,,,,,,,,,,,sub_227,2022-12-22_11h41.30.254,Reversal,2022.1.2,59.9960281349123,3,
15,exp3.png,exp4.png,,2,0,2,0,0,15,15,15,,,,,,,,,,,,,,,,,,,,,,,,,False,55,56,True,exp4.png,exp3.png,trial_right_image,-1,exp3.png,3,exp4.png,exp3.png,0,2,non-reversed,incorrect,0.9883598536952347,0,valid_lose,400.77658169995993,34,,,,,,,,,,,,,,,,sub_227,2022-12-22_11h41.30.254,Reversal,2022.1.2,59.9960281349123,3,
16,exp1.png,exp2.png,,2,0,2,0,0,16,16,16,,,,,,,,,,,,,,,,,,,,,,,,,False,56,57,True,exp2.png,exp1.png,trial_left_image,1,exp2.png,3,exp2.png,exp1.png,1,3,reversed,correct,0.8319253600972527,1,valid_win,405.44325269944966,35,,,,,,,,,,,,,,,,sub_227,2022-12-22_11h41.30.254,Reversal,2022.1.2,59.9960281349123,3,
17,exp3.png,exp4.png,,2,0,2,0,0,17,17,17,,,,,,,,,,,,,,,,,,,,,,,,,False,57,58,True,exp4.png,exp3.png,trial_left_image,1,exp4.png,3,exp4.png,exp3.png,1,1,non-reversed,correct,0.3517843337337664,1,valid_win,409.8933156002313,36,,,,,,,,,,,,,,,,sub_227,2022-12-22_11h41.30.254,Reversal,2022.1.2,59.9960281349123,3,
18,exp1.png,exp2.png,,2,0,2,0,0,18,18,18,,,,,,,,,,,,,,,,,,,,,,,,,False,58,59,False,exp1.png,exp2.png,trial_right_image,-1,exp2.png,3,exp2.png,exp1.png,1,3,reversed,correct,0.4609847821492703,1,valid_win,416.0089849997312,37,,,,,,,,,,,,,,,,sub_227,2022-12-22_11h41.30.254,Reversal,2022.1.2,59.9960281349123,3,
19,exp3.png,exp4.png,,2,0,2,0,0,19,19,19,,,,,,,,,,,,,,,,,,,,,,,,,False,59,60,False,exp3.png,exp4.png,trial_right_image,-1,exp4.png,3,exp4.png,exp3.png,1,1,non-reversed,correct,0.6816692183794616,1,valid_win,420.5096356999129,38,,,,,,,,,,,,,,,,sub_227,2022-12-22_11h41.30.254,Reversal,2022.1.2,59.9960281349123,3,
20,exp1.png,exp2.png,,2,0,2,0,0,20,20,20,,,,,,,,,,,,,,,,,,,,,,,,,True,,,,,,,,,,,,,,,,,,,,,,,,,,,,,,,,,,,,sub_227,2022-12-22_11h41.30.254,Reversal,2022.1.2,59.9960281349123,3,
,,,exp1.png,2,0,2,0,,,,,0,0,0,0,0,0,0,0,,,,,,,,,,,,,,,,,,,,,,,,,,,,,,,,,,,,,,50.0,None,[],539.6781251002103,None,,,,,,,,,,,sub_227,2022-12-22_11h41.30.254,Reversal,2022.1.2,59.9960281349123,3,
,,,exp2.png,2,0,2,0,,,,,0,0,0,0,0,1,1,1,,,,,,,,,,,,,,,,,,,,,,,,,,,,,,,,,,,,,,100.0,1.081212400458753,"[(100.0, 1.081212400458753)]",551.62884900067,None,100.0,,,,,,,,,,sub_227,2022-12-22_11h41.30.254,Reversal,2022.1.2,59.9960281349123,3,
,,,exp3.png,2,0,2,0,,,,,0,0,0,0,0,2,2,2,,,,,,,,,,,,,,,,,,,,,,,,,,,,,,,,,,,,,,50.0,None,[],553.609166700393,None,,,,,,,,,,,sub_227,2022-12-22_11h41.30.254,Reversal,2022.1.2,59.9960281349123,3,
,,,exp4.png,2,0,2,0,,,,,0,0,0,0,0,3,3,3,,,,,,,,,,,,,,,,,,,,,,,,,,,,,,,,,,,,,,89.0,2.966732700355351,"[(89.0, 2.966732700355351)]",557.6417349008843,None,,,89.0,,,,,,,,sub_227,2022-12-22_11h41.30.254,Reversal,2022.1.2,59.9960281349123,3,
0,exp1.png,exp2.png,,,,,,,,,,,,,,,,,,0,0,0,0,0,0,0,0,,,,,,,,,False,0,61,True,exp2.png,exp1.png,trial_left_image,1,exp2.png,3,exp1.png,exp2.png,1,3,reversed,incorrect,0.6736077173578149,0,valid_lose,447.4085734002292,38,,,,,,,,,444.798112699762,,,,,,,sub_227,2022-12-22_11h41.30.254,Reversal,2022.1.2,59.9960281349123,3,
1,exp3.png,exp4.png,,,,,,,,,,,,,,,,,,0,0,0,0,0,1,1,1,,,,,,,,,False,1,62,False,exp3.png,exp4.png,trial_right_image,-1,exp4.png,3,exp4.png,exp3.png,1,1,non-reversed,correct,0.17441375093682787,0,invalid_lose,456.15878880023956,38,,,,,,,,,,,,,,,,sub_227,2022-12-22_11h41.30.254,Reversal,2022.1.2,59.9960281349123,3,
2,exp1.png,exp2.png,,,,,,,,,,,,,,,,,,0,0,0,0,0,2,2,2,,,,,,,,,False,2,63,True,exp2.png,exp1.png,trial_right_image,-1,exp1.png,3,exp1.png,exp2.png,0,4,reversed,correct,0.9862287792946115,1,valid_win,464.0418680002913,39,,,,,,,,,,,,,,,,sub_227,2022-12-22_11h41.30.254,Reversal,2022.1.2,59.9960281349123,3,
3,exp3.png,exp4.png,,,,,,,,,,,,,,,,,,0,0,0,0,0,3,3,3,,,,,,,,,False,3,64,False,exp3.png,exp4.png,trial_left_image,1,exp3.png,3,exp4.png,exp3.png,0,2,non-reversed,incorrect,0.7204943051366421,0,valid_lose,468.472688799724,39,,,,,,,,,,,,,,,,sub_227,2022-12-22_11h41.30.254,Reversal,2022.1.2,59.9960281349123,3,
4,exp1.png,exp2.png,,,,,,,,,,,,,,,,,,0,0,0,0,0,4,4,4,,,,,,,,,False,4,65,True,exp2.png,exp1.png,trial_left_image,1,exp2.png,3,exp1.png,exp2.png,1,3,reversed,incorrect,0.388673253178513,0,valid_lose,473.25841560028493,39,,,,,,,,,,,,,,,,sub_227,2022-12-22_11h41.30.254,Reversal,2022.1.2,59.9960281349123,3,
5,exp3.png,exp4.png,,,,,,,,,,,,,,,,,,0,0,0,0,0,5,5,5,,,,,,,,,False,5,66,True,exp4.png,exp3.png,trial_left_image,1,exp4.png,3,exp4.png,exp3.png,1,1,non-reversed,correct,0.7508233105220082,1,valid_win,479.99184879940003,40,,,,,,,,,,,,,,,,sub_227,2022-12-22_11h41.30.254,Reversal,2022.1.2,59.9960281349123,3,
6,exp1.png,exp2.png,,,,,,,,,,,,,,,,,,0,0,0,0,0,6,6,6,,,,,,,,,False,6,67,True,exp2.png,exp1.png,trial_right_image,-1,exp1.png,3,exp1.png,exp2.png,0,4,reversed,correct,0.465596348394021,1,valid_win,485.89187719952315,41,,,,,,,,,,,,,,,,sub_227,2022-12-22_11h41.30.254,Reversal,2022.1.2,59.9960281349123,3,
7,exp3.png,exp4.png,,,,,,,,,,,,,,,,,,0,0,0,0,0,7,7,7,,,,,,,,,False,7,68,True,exp4.png,exp3.png,trial_left_image,1,exp4.png,3,exp4.png,exp3.png,1,1,non-reversed,correct,0.06099440598189676,0,invalid_lose,490.7250790996477,41,,,,,,,,,,,,,,,,sub_227,2022-12-22_11h41.30.254,Reversal,2022.1.2,59.9960281349123,3,
8,exp1.png,exp2.png,,,,,,,,,,,,,,,,,,0,0,0,0,0,8,8,8,,,,,,,,,False,8,69,False,exp1.png,exp2.png,trial_left_image,1,exp1.png,3,exp1.png,exp2.png,0,4,reversed,correct,0.16934743220318904,0,invalid_lose,495.6916658002883,41,,,,,,,,,,,,,,,,sub_227,2022-12-22_11h41.30.254,Reversal,2022.1.2,59.9960281349123,3,
9,exp3.png,exp4.png,,,,,,,,,,,,,,,,,,0,0,0,0,0,9,9,9,,,,,,,,,False,9,70,True,exp4.png,exp3.png,trial_left_image,1,exp4.png,3,exp4.png,exp3.png,1,1,non-reversed,correct,0.6641279184061694,1,valid_win,500.30826129950583,42,,,,,,,,,,,,,,,,sub_227,2022-12-22_11h41.30.254,Reversal,2022.1.2,59.9960281349123,3,
10,exp1.png,exp2.png,,,,,,,,,,,,,,,,,,0,0,0,0,0,10,10,10,,,,,,,,,False,10,71,False,exp1.png,exp2.png,trial_right_image,-1,exp2.png,3,exp1.png,exp2.png,1,3,reversed,incorrect,0.64111439601045,0,valid_lose,504.87452459987253,42,,,,,,,,,,,,,,,,sub_227,2022-12-22_11h41.30.254,Reversal,2022.1.2,59.9960281349123,3,
11,exp3.png,exp4.png,,,,,,,,,,,,,,,,,,0,0,0,0,0,11,11,11,,,,,,,,,False,11,72,False,exp3.png,exp4.png,trial_right_image,-1,exp4.png,3,exp4.png,exp3.png,1,1,non-reversed,correct,0.12481473502858864,0,invalid_lose,510.2244251994416,42,,,,,,,,,,,,,,,,sub_227,2022-12-22_11h41.30.254,Reversal,2022.1.2,59.9960281349123,3,
12,exp1.png,exp2.png,,,,,,,,,,,,,,,,,,0,0,0,0,0,12,12,12,,,,,,,,,False,12,73,True,exp2.png,exp1.png,trial_right_image,-1,exp1.png,3,exp1.png,exp2.png,0,4,reversed,correct,0.3432920685126746,1,valid_win,515.0241003995761,43,,,,,,,,,,,,,,,,sub_227,2022-12-22_11h41.30.254,Reversal,2022.1.2,59.9960281349123,3,
13,exp3.png,exp4.png,,,,,,,,,,,,,,,,,,0,0,0,0,0,13,13,13,,,,,,,,,False,13,74,True,exp4.png,exp3.png,trial_left_image,1,exp4.png,3,exp4.png,exp3.png,1,1,non-reversed,correct,0.09383889703853687,0,invalid_lose,520.224471299909,43,,,,,,,,,,,,,,,,sub_227,2022-12-22_11h41.30.254,Reversal,2022.1.2,59.9960281349123,3,
14,exp1.png,exp2.png,,,,,,,,,,,,,,,,,,0,0,0,0,0,14,14,14,,,,,,,,,False,14,75,False,exp1.png,exp2.png,trial_right_image,-1,exp2.png,3,exp1.png,exp2.png,1,3,reversed,incorrect,0.2265302700477958,1,invalid_win,524.3909203996882,44,,,,,,,,,,,,,,,,sub_227,2022-12-22_11h41.30.254,Reversal,2022.1.2,59.9960281349123,3,
15,exp3.png,exp4.png,,,,,,,,,,,,,,,,,,0,0,0,0,0,15,15,15,,,,,,,,,False,15,76,False,exp3.png,exp4.png,trial_left_image,1,exp3.png,3,exp4.png,exp3.png,0,2,non-reversed,incorrect,0.05824881502799706,1,invalid_win,529.0077659999952,45,,,,,,,,,,,,,,,,sub_227,2022-12-22_11h41.30.254,Reversal,2022.1.2,59.9960281349123,3,
16,exp1.png,exp2.png,,,,,,,,,,,,,,,,,,0,0,0,0,0,16,16,16,,,,,,,,,False,16,77,False,exp1.png,exp2.png,trial_left_image,1,exp1.png,3,exp1.png,exp2.png,0,4,reversed,correct,0.6760971371276919,1,valid_win,534.0739316996187,46,,,,,,,,,,,,,,,,sub_227,2022-12-22_11h41.30.254,Reversal,2022.1.2,59.9960281349123,3,
17,exp3.png,exp4.png,,,,,,,,,,,,,,,,,,0,0,0,0,0,17,17,17,,,,,,,,,False,17,78,False,exp3.png,exp4.png,trial_left_image,1,exp3.png,3,exp4.png,exp3.png,0,2,non-reversed,incorrect,0.7760473978914302,0,valid_lose,539.0736769996583,46,,,,,,,,,,,,,,,,sub_227,2022-12-22_11h41.30.254,Reversal,2022.1.2,59.9960281349123,3,
18,exp1.png,exp2.png,,,,,,,,,,,,,,,,,,0,0,0,0,0,18,18,18,,,,,,,,,False,18,79,False,exp1.png,exp2.png,trial_right_image,-1,exp2.png,3,exp1.png,exp2.png,1,3,reversed,incorrect,0.8741689998720428,0,valid_lose,543.0909129995853,46,,,,,,,,,,,,,,,,sub_227,2022-12-22_11h41.30.254,Reversal,2022.1.2,59.9960281349123,3,
19,exp3.png,exp4.png,,,,,,,,,,,,,,,,,,0,0,0,0,0,19,19,19,,,,,,,,,False,19,80,True,exp4.png,exp3.png,trial_left_image,1,exp4.png,3,exp4.png,exp3.png,1,1,non-reversed,correct,0.8833111322924351,1,valid_win,547.4238174995407,47,,,,,,,,,,,,,,,,sub_227,2022-12-22_11h41.30.254,Reversal,2022.1.2,59.9960281349123,3,
20,exp1.png,exp2.png,,,,,,,,,,,,,,,,,,0,0,0,0,0,20,20,20,,,,,,,,,True,,,,,,,,,,,,,,,,,,,,,,,,,,,,,,,,,,,,sub_227,2022-12-22_11h41.30.254,Reversal,2022.1.2,59.9960281349123,3,
,,,exp1.png,,,,,,,,,,,,,,,,,0,0,0,0,,,,,0,0,0,0,0,0,0,0,,,,,,,,,,,,,,,,,,,,,,66.0,5.772602600045502,"[(66.0, 5.772602600045502)]",666.6090942006558,None,,,,,66.0,,,,,,sub_227,2022-12-22_11h41.30.254,Reversal,2022.1.2,59.9960281349123,3,
,,,exp2.png,,,,,,,,,,,,,,,,,0,0,0,0,,,,,0,0,0,0,0,1,1,1,,,,,,,,,,,,,,,,,,,,,,49.0,2.6963571002706885,"[(35.0, 1.496179100126028), (49.0, 2.6963571002706885)]",673.2453999007121,None,49.0,,,,,,,,,,sub_227,2022-12-22_11h41.30.254,Reversal,2022.1.2,59.9960281349123,3,
,,,exp3.png,,,,,,,,,,,,,,,,,0,0,0,0,,,,,0,0,0,0,0,2,2,2,,,,,,,,,,,,,,,,,,,,,,50.0,None,[],677.1243417002261,None,,,,,,,,,,,sub_227,2022-12-22_11h41.30.254,Reversal,2022.1.2,59.9960281349123,3,
,,,exp4.png,,,,,,,,,,,,,,,,,0,0,0,0,,,,,0,0,0,0,0,3,3,3,,,,,,,,,,,,,,,,,,,,,,50.0,None,[],686.9913058001548,None,,,,,,,,,,,sub_227,2022-12-22_11h41.30.254,Reversal,2022.1.2,59.9960281349123,3,
0,exp1.png,exp2.png,,,,,,,,,,,,,,,,,,1,0,1,0,0,0,0,0,,,,,,,,,False,20,81,True,exp2.png,exp1.png,trial_left_image,1,exp2.png,3,exp1.png,exp2.png,1,3,reversed,incorrect,0.5413779967247968,0,valid_lose,583.4063483001664,47,,,,,,,,,,,,,,,,sub_227,2022-12-22_11h41.30.254,Reversal,2022.1.2,59.9960281349123,3,
1,exp3.png,exp4.png,,,,,,,,,,,,,,,,,,1,0,1,0,0,1,1,1,,,,,,,,,False,21,82,True,exp4.png,exp3.png,trial_right_image,-1,exp3.png,3,exp4.png,exp3.png,0,2,non-reversed,incorrect,0.14419722818707836,1,invalid_win,601.8729689000174,48,,,,,,,,,,,,,,,,sub_227,2022-12-22_11h41.30.254,Reversal,2022.1.2,59.9960281349123,3,
2,exp1.png,exp2.png,,,,,,,,,,,,,,,,,,1,0,1,0,0,2,2,2,,,,,,,,,False,22,83,True,exp2.png,exp1.png,trial_right_image,-1,exp1.png,3,exp1.png,exp2.png,0,4,reversed,correct,0.7102590859658652,1,valid_win,608.4223458999768,49,,,,,,,,,,,,,,,,sub_227,2022-12-22_11h41.30.254,Reversal,2022.1.2,59.9960281349123,3,
3,exp3.png,exp4.png,,,,,,,,,,,,,,,,,,1,0,1,0,0,3,3,3,,,,,,,,,False,23,84,True,exp4.png,exp3.png,trial_right_image,-1,exp3.png,3,exp4.png,exp3.png,0,2,non-reversed,incorrect,0.24248568658257408,1,invalid_win,615.0726507995278,50,,,,,,,,,,,,,,,,sub_227,2022-12-22_11h41.30.254,Reversal,2022.1.2,59.9960281349123,3,
4,exp1.png,exp2.png,,,,,,,,,,,,,,,,,,1,0,1,0,0,4,4,4,,,,,,,,,False,24,85,False,exp1.png,exp2.png,trial_left_image,1,exp1.png,3,exp1.png,exp2.png,0,4,reversed,correct,0.4083568110069682,1,valid_win,620.3389357002452,51,,,,,,,,,,,,,,,,sub_227,2022-12-22_11h41.30.254,Reversal,2022.1.2,59.9960281349123,3,
5,exp3.png,exp4.png,,,,,,,,,,,,,,,,,,1,0,1,0,0,5,5,5,,,,,,,,,False,25,86,True,exp4.png,exp3.png,trial_right_image,-1,exp3.png,3,exp4.png,exp3.png,0,2,non-reversed,incorrect,0.5390862737437605,0,valid_lose,628.8223481997848,51,,,,,,,,,,,,,,,,sub_227,2022-12-22_11h41.30.254,Reversal,2022.1.2,59.9960281349123,3,
6,exp1.png,exp2.png,,,,,,,,,,,,,,,,,,1,0,1,0,0,6,6,6,,,,,,,,,False,26,87,True,exp2.png,exp1.png,trial_right_image,-1,exp1.png,3,exp1.png,exp2.png,0,4,reversed,correct,0.729301425051265,1,valid_win,633.6052179001272,52,,,,,,,,,,,,,,,,sub_227,2022-12-22_11h41.30.254,Reversal,2022.1.2,59.9960281349123,3,
7,exp3.png,exp4.png,,,,,,,,,,,,,,,,,,1,0,1,0,0,7,7,7,,,,,,,,,False,27,88,True,exp4.png,exp3.png,trial_left_image,1,exp4.png,3,exp4.png,exp3.png,1,1,non-reversed,correct,0.5905138397399434,1,valid_win,638.9721018997952,53,,,,,,,,,,,,,,,,sub_227,2022-12-22_11h41.30.254,Reversal,2022.1.2,59.9960281349123,3,
8,exp1.png,exp2.png,,,,,,,,,,,,,,,,,,1,0,1,0,0,8,8,8,,,,,,,,,False,28,89,False,exp1.png,exp2.png,trial_right_image,-1,exp2.png,3,exp1.png,exp2.png,1,3,reversed,incorrect,0.9163336987364203,0,valid_lose,648.271207999438,53,,,,,,,,,,,,,,,,sub_227,2022-12-22_11h41.30.254,Reversal,2022.1.2,59.9960281349123,3,
9,exp3.png,exp4.png,,,,,,,,,,,,,,,,,,1,0,1,0,0,9,9,9,,,,,,,,,False,29,90,False,exp3.png,exp4.png,trial_right_image,-1,exp4.png,3,exp4.png,exp3.png,1,1,non-reversed,correct,0.9763880887538198,1,valid_win,656.4221936995164,54,,,,,,,,,,,,,,,,sub_227,2022-12-22_11h41.30.254,Reversal,2022.1.2,59.9960281349123,3,
10,exp1.png,exp2.png,,,,,,,,,,,,,,,,,,1,0,1,0,0,10,10,10,,,,,,,,,False,30,91,False,exp1.png,exp2.png,trial_left_image,1,exp1.png,3,exp1.png,exp2.png,0,4,reversed,correct,0.1750445234386011,0,invalid_lose,662.0042199995369,54,,,,,,,,,,,,,,,,sub_227,2022-12-22_11h41.30.254,Reversal,2022.1.2,59.9960281349123,3,
11,exp3.png,exp4.png,,,,,,,,,,,,,,,,,,1,0,1,0,0,11,11,11,,,,,,,,,False,31,92,False,exp3.png,exp4.png,trial_right_image,-1,exp4.png,3,exp4.png,exp3.png,1,1,non-reversed,correct,0.6002287826546131,1,valid_win,669.1709119994193,55,,,,,,,,,,,,,,,,sub_227,2022-12-22_11h41.30.254,Reversal,2022.1.2,59.9960281349123,3,
12,exp1.png,exp2.png,,,,,,,,,,,,,,,,,,1,0,1,0,0,12,12,12,,,,,,,,,False,32,93,True,exp2.png,exp1.png,trial_right_image,-1,exp1.png,3,exp1.png,exp2.png,0,4,reversed,correct,0.39663345643836545,1,valid_win,673.9890099996701,56,,,,,,,,,,,,,,,,sub_227,2022-12-22_11h41.30.254,Reversal,2022.1.2,59.9960281349123,3,
13,exp3.png,exp4.png,,,,,,,,,,,,,,,,,,1,0,1,0,0,13,13,13,,,,,,,,,False,33,94,False,exp3.png,exp4.png,trial_right_image,-1,exp4.png,3,exp4.png,exp3.png,1,1,non-reversed,correct,0.10106855058080344,0,invalid_lose,679.2715686997399,56,,,,,,,,,,,,,,,,sub_227,2022-12-22_11h41.30.254,Reversal,2022.1.2,59.9960281349123,3,
14,exp1.png,exp2.png,,,,,,,,,,,,,,,,,,1,0,1,0,0,14,14,14,,,,,,,,,False,34,95,False,exp1.png,exp2.png,trial_left_image,1,exp1.png,3,exp1.png,exp2.png,0,4,reversed,correct,0.24873928745106766,0,invalid_lose,687.1045781997964,56,,,,,,,,,,,,,,,,sub_227,2022-12-22_11h41.30.254,Reversal,2022.1.2,59.9960281349123,3,
15,exp3.png,exp4.png,,,,,,,,,,,,,,,,,,1,0,1,0,0,15,15,15,,,,,,,,,False,35,96,False,exp3.png,exp4.png,trial_left_image,1,exp3.png,3,exp4.png,exp3.png,0,2,non-reversed,incorrect,0.2846975009425238,0,valid_lose,695.8038590000942,56,,,,,,,,,,,,,,,,sub_227,2022-12-22_11h41.30.254,Reversal,2022.1.2,59.9960281349123,3,
16,exp1.png,exp2.png,,,,,,,,,,,,,,,,,,1,0,1,0,0,16,16,16,,,,,,,,,False,36,97,True,exp2.png,exp1.png,trial_right_image,-1,exp1.png,3,exp1.png,exp2.png,0,4,reversed,correct,0.4343224627258948,1,valid_win,701.120767599903,57,,,,,,,,,,,,,,,,sub_227,2022-12-22_11h41.30.254,Reversal,2022.1.2,59.9960281349123,3,
17,exp3.png,exp4.png,,,,,,,,,,,,,,,,,,1,0,1,0,0,17,17,17,,,,,,,,,False,37,98,True,exp4.png,exp3.png,trial_right_image,-1,exp3.png,3,exp4.png,exp3.png,0,2,non-reversed,incorrect,0.9175744131673442,0,valid_lose,707.8371561001986,57,,,,,,,,,,,,,,,,sub_227,2022-12-22_11h41.30.254,Reversal,2022.1.2,59.9960281349123,3,
18,exp1.png,exp2.png,,,,,,,,,,,,,,,,,,1,0,1,0,0,18,18,18,,,,,,,,,False,38,99,False,exp1.png,exp2.png,trial_left_image,1,exp1.png,3,exp1.png,exp2.png,0,4,reversed,correct,0.07541763666066292,0,invalid_lose,713.9209209000692,57,,,,,,,,,,,,,,,,sub_227,2022-12-22_11h41.30.254,Reversal,2022.1.2,59.9960281349123,3,
19,exp3.png,exp4.png,,,,,,,,,,,,,,,,,,1,0,1,0,0,19,19,19,,,,,,,,,False,39,100,False,exp3.png,exp4.png,trial_right_image,-1,exp4.png,3,exp4.png,exp3.png,1,1,non-reversed,correct,0.7909740887011361,1,valid_win,720.1043279999867,58,,,,,,,,,,,,,,,,sub_227,2022-12-22_11h41.30.254,Reversal,2022.1.2,59.9960281349123,3,
20,exp1.png,exp2.png,,,,,,,,,,,,,,,,,,1,0,1,0,0,20,20,20,,,,,,,,,True,,,,,,,,,,,,,,,,,,,,,,,,,,,,,,,,,,,,sub_227,2022-12-22_11h41.30.254,Reversal,2022.1.2,59.9960281349123,3,
,,,exp1.png,,,,,,,,,,,,,,,,,1,0,1,0,,,,,0,0,0,0,0,0,0,0,,,,,,,,,,,,,,,,,,,,,,86.0,5.784691399894655,"[(86.0, 5.784691399894655)]",839.2895364006981,None,,,,,86.0,,,,,,sub_227,2022-12-22_11h41.30.254,Reversal,2022.1.2,59.9960281349123,3,
,,,exp2.png,,,,,,,,,,,,,,,,,1,0,1,0,,,,,0,0,0,0,0,1,1,1,,,,,,,,,,,,,,,,,,,,,,14.0,3.4835523003712296,"[(14.0, 3.4835523003712296)]",845.9866001000628,None,14.0,,,,,,,,,,sub_227,2022-12-22_11h41.30.254,Reversal,2022.1.2,59.9960281349123,3,
,,,exp3.png,,,,,,,,,,,,,,,,,1,0,1,0,,,,,0,0,0,0,0,2,2,2,,,,,,,,,,,,,,,,,,,,,,70.0,1.8845353992655873,"[(69.0, 1.6854771999642253), (70.0, 1.8845353992655873)]",850.4011831004173,None,,70.0,,,,,,,,,sub_227,2022-12-22_11h41.30.254,Reversal,2022.1.2,59.9960281349123,3,
,,,exp4.png,,,,,,,,,,,,,,,,,1,0,1,0,,,,,0,0,0,0,0,3,3,3,,,,,,,,,,,,,,,,,,,,,,31.0,1.464890900067985,"[(31.0, 1.464890900067985)]",853.3871923005208,None,,,31.0,,,,,,,,sub_227,2022-12-22_11h41.30.254,Reversal,2022.1.2,59.9960281349123,3,
0,exp1.png,exp2.png,,,,,,,,,,,,,,,,,,2,0,2,0,0,0,0,0,,,,,,,,,False,40,101,False,exp1.png,exp2.png,trial_right_image,-1,exp2.png,3,exp1.png,exp2.png,1,3,reversed,incorrect,0.4844155930969981,0,valid_lose,744.9703275002539,58,,,,,,,,,,,,,,,,sub_227,2022-12-22_11h41.30.254,Reversal,2022.1.2,59.9960281349123,3,
1,exp3.png,exp4.png,,,,,,,,,,,,,,,,,,2,0,2,0,0,1,1,1,,,,,,,,,False,41,102,True,exp4.png,exp3.png,trial_left_image,1,exp4.png,3,exp4.png,exp3.png,1,1,non-reversed,correct,0.5008621012443767,1,valid_win,750.1536691999063,59,,,,,,,,,,,,,,,,sub_227,2022-12-22_11h41.30.254,Reversal,2022.1.2,59.9960281349123,3,
2,exp1.png,exp2.png,,,,,,,,,,,,,,,,,,2,0,2,0,0,2,2,2,,,,,,,,,False,42,103,True,exp2.png,exp1.png,trial_right_image,-1,exp1.png,3,exp1.png,exp2.png,0,4,reversed,correct,0.0726341854002891,0,invalid_lose,755.253026499413,59,,,,,,,,,,,,,,,,sub_227,2022-12-22_11h41.30.254,Reversal,2022.1.2,59.9960281349123,3,
3,exp3.png,exp4.png,,,,,,,,,,,,,,,,,,2,0,2,0,0,3,3,3,,,,,,,,,False,43,104,True,exp4.png,exp3.png,trial_right_image,-1,exp3.png,3,exp4.png,exp3.png,0,2,non-reversed,incorrect,0.6441207641245004,0,valid_lose,760.7868406996131,59,,,,,,,,,,,,,,,,sub_227,2022-12-22_11h41.30.254,Reversal,2022.1.2,59.9960281349123,3,
4,exp1.png,exp2.png,,,,,,,,,,,,,,,,,,2,0,2,0,0,4,4,4,,,,,,,,,False,44,105,True,exp2.png,exp1.png,trial_right_image,-1,exp1.png,3,exp1.png,exp2.png,0,4,reversed,correct,0.9713918338391917,1,valid_win,768.5366931995377,60,,,,,,,,,,,,,,,,sub_227,2022-12-22_11h41.30.254,Reversal,2022.1.2,59.9960281349123,3,
5,exp3.png,exp4.png,,,,,,,,,,,,,,,,,,2,0,2,0,0,5,5,5,,,,,,,,,False,45,106,False,exp3.png,exp4.png,trial_right_image,-1,exp4.png,3,exp4.png,exp3.png,1,1,non-reversed,correct,0.8724443602459336,1,valid_win,775.4033025000244,61,,,,,,,,,,,,,,,,sub_227,2022-12-22_11h41.30.254,Reversal,2022.1.2,59.9960281349123,3,
6,exp1.png,exp2.png,,,,,,,,,,,,,,,,,,2,0,2,0,0,6,6,6,,,,,,,,,False,46,107,False,exp1.png,exp2.png,trial_right_image,-1,exp2.png,3,exp1.png,exp2.png,1,3,reversed,incorrect,0.7053367594306513,0,valid_lose,781.3363482998684,61,,,,,,,,,,,,,,,,sub_227,2022-12-22_11h41.30.254,Reversal,2022.1.2,59.9960281349123,3,
7,exp3.png,exp4.png,,,,,,,,,,,,,,,,,,2,0,2,0,0,7,7,7,,,,,,,,,False,47,108,False,exp3.png,exp4.png,trial_right_image,-1,exp4.png,3,exp4.png,exp3.png,1,1,non-reversed,correct,0.5551264801471825,1,valid_win,786.4021020997316,62,,,,,,,,,,,,,,,,sub_227,2022-12-22_11h41.30.254,Reversal,2022.1.2,59.9960281349123,3,
8,exp1.png,exp2.png,,,,,,,,,,,,,,,,,,2,0,2,0,0,8,8,8,,,,,,,,,False,48,109,False,exp1.png,exp2.png,trial_left_image,1,exp1.png,3,exp1.png,exp2.png,0,4,reversed,correct,0.8222234090805317,1,valid_win,792.7864442998543,63,,,,,,,,,,,,,,,,sub_227,2022-12-22_11h41.30.254,Reversal,2022.1.2,59.9960281349123,3,
9,exp3.png,exp4.png,,,,,,,,,,,,,,,,,,2,0,2,0,0,9,9,9,,,,,,,,,False,49,110,True,exp4.png,exp3.png,trial_right_image,-1,exp3.png,3,exp4.png,exp3.png,0,2,non-reversed,incorrect,0.8212313744592177,0,valid_lose,799.3853871999308,63,,,,,,,,,,,,,,,,sub_227,2022-12-22_11h41.30.254,Reversal,2022.1.2,59.9960281349123,3,
10,exp1.png,exp2.png,,,,,,,,,,,,,,,,,,2,0,2,0,0,10,10,10,,,,,,,,,False,50,111,False,exp1.png,exp2.png,trial_left_image,1,exp1.png,3,exp1.png,exp2.png,0,4,reversed,correct,0.7744451987465771,1,valid_win,804.6026991996914,64,,,,,,,,,,,,,,,,sub_227,2022-12-22_11h41.30.254,Reversal,2022.1.2,59.9960281349123,3,
11,exp3.png,exp4.png,,,,,,,,,,,,,,,,,,2,0,2,0,0,11,11,11,,,,,,,,,False,51,112,True,exp4.png,exp3.png,trial_left_image,1,exp4.png,3,exp4.png,exp3.png,1,1,non-reversed,correct,0.08437634410346861,0,invalid_lose,810.768724899739,64,,,,,,,,,,,,,,,,sub_227,2022-12-22_11h41.30.254,Reversal,2022.1.2,59.9960281349123,3,
12,exp1.png,exp2.png,,,,,,,,,,,,,,,,,,2,0,2,0,0,12,12,12,,,,,,,,,False,52,113,False,exp1.png,exp2.png,trial_left_image,1,exp1.png,3,exp1.png,exp2.png,0,4,reversed,correct,0.7370146875895246,1,valid_win,818.7691740998998,65,,,,,,,,,,,,,,,,sub_227,2022-12-22_11h41.30.254,Reversal,2022.1.2,59.9960281349123,3,
13,exp3.png,exp4.png,,,,,,,,,,,,,,,,,,2,0,2,0,0,13,13,13,,,,,,,,,False,53,114,False,exp3.png,exp4.png,trial_left_image,1,exp3.png,3,exp4.png,exp3.png,0,2,non-reversed,incorrect,0.42578598924205424,0,valid_lose,825.0524004995823,65,,,,,,,,,,,,,,,,sub_227,2022-12-22_11h41.30.254,Reversal,2022.1.2,59.9960281349123,3,
14,exp1.png,exp2.png,,,,,,,,,,,,,,,,,,2,0,2,0,0,14,14,14,,,,,,,,,False,54,115,True,exp2.png,exp1.png,trial_right_image,-1,exp1.png,3,exp1.png,exp2.png,0,4,reversed,correct,0.5278155029632972,1,valid_win,832.4852324994281,66,,,,,,,,,,,,,,,,sub_227,2022-12-22_11h41.30.254,Reversal,2022.1.2,59.9960281349123,3,
15,exp3.png,exp4.png,,,,,,,,,,,,,,,,,,2,0,2,0,0,15,15,15,,,,,,,,,False,55,116,True,exp4.png,exp3.png,trial_left_image,1,exp4.png,3,exp4.png,exp3.png,1,1,non-reversed,correct,0.8054368622624755,1,valid_win,839.7353948997334,67,,,,,,,,,,,,,,,,sub_227,2022-12-22_11h41.30.254,Reversal,2022.1.2,59.9960281349123,3,
16,exp1.png,exp2.png,,,,,,,,,,,,,,,,,,2,0,2,0,0,16,16,16,,,,,,,,,False,56,117,False,exp1.png,exp2.png,trial_left_image,1,exp1.png,3,exp1.png,exp2.png,0,4,reversed,correct,0.19710127596016735,0,invalid_lose,845.3852028995752,67,,,,,,,,,,,,,,,,sub_227,2022-12-22_11h41.30.254,Reversal,2022.1.2,59.9960281349123,3,
17,exp3.png,exp4.png,,,,,,,,,,,,,,,,,,2,0,2,0,0,17,17,17,,,,,,,,,False,57,118,True,exp4.png,exp3.png,trial_left_image,1,exp4.png,3,exp4.png,exp3.png,1,1,non-reversed,correct,0.2155318473395671,0,invalid_lose,850.6850787000731,67,,,,,,,,,,,,,,,,sub_227,2022-12-22_11h41.30.254,Reversal,2022.1.2,59.9960281349123,3,
18,exp1.png,exp2.png,,,,,,,,,,,,,,,,,,2,0,2,0,0,18,18,18,,,,,,,,,False,58,119,True,exp2.png,exp1.png,trial_right_image,-1,exp1.png,3,exp1.png,exp2.png,0,4,reversed,correct,0.944457944863523,1,valid_win,856.36854199972,68,,,,,,,,,,,,,,,,sub_227,2022-12-22_11h41.30.254,Reversal,2022.1.2,59.9960281349123,3,
19,exp3.png,exp4.png,,,,,,,,,,,,,,,,,,2,0,2,0,0,19,19,19,,,,,,,,,False,59,120,False,exp3.png,exp4.png,trial_right_image,-1,exp4.png,3,exp4.png,exp3.png,1,1,non-reversed,correct,0.373130119730423,1,valid_win,870.6677482994273,69,,,,,,,,,,,,,,,,sub_227,2022-12-22_11h41.30.254,Reversal,2022.1.2,59.9960281349123,3,
20,exp1.png,exp2.png,,,,,,,,,,,,,,,,,,2,0,2,0,0,20,20,20,,,,,,,,,True,,,,,,,,,,,,,,,,,,,,,,,,,,,,,,,,,,,,sub_227,2022-12-22_11h41.30.254,Reversal,2022.1.2,59.9960281349123,3,
,,,exp1.png,,,,,,,,,,,,,,,,,2,0,2,0,,,,,0,0,0,0,0,0,0,0,,,,,,,,,,,,,,,,,,,,,,91.0,6.561177399940789,"[(91.0, 6.561177399940789)]",989.8634927002713,None,,,,,91.0,,,,,,sub_227,2022-12-22_11h41.30.254,Reversal,2022.1.2,59.9960281349123,3,
,,,exp2.png,,,,,,,,,,,,,,,,,2,0,2,0,,,,,0,0,0,0,0,1,1,1,,,,,,,,,,,,,,,,,,,,,,9.0,5.133890900760889,"[(19.0, 2.6682546008378267), (16.0, 3.400242700241506), (9.0, 5.133890900760889)]",997.3670834004879,None,9.0,,,,,,,,,,sub_227,2022-12-22_11h41.30.254,Reversal,2022.1.2,59.9960281349123,3,
,,,exp3.png,,,,,,,,,,,,,,,,,2,0,2,0,,,,,0,0,0,0,0,2,2,2,,,,,,,,,,,,,,,,,,,,,,74.0,3.0695998007431626,"[(74.0, 3.0695998007431626)]",1003.6509024007246,None,,74.0,,,,,,,,,sub_227,2022-12-22_11h41.30.254,Reversal,2022.1.2,59.9960281349123,3,
,,,exp4.png,,,,,,,,,,,,,,,,,2,0,2,0,,,,,0,0,0,0,0,3,3,3,,,,,,,,,,,,,,,,,,,,,,36.0,2.833902900107205,"[(36.0, 2.833902900107205)]",1008.019234300591,None,,,36.0,,,,,,,,sub_227,2022-12-22_11h41.30.254,Reversal,2022.1.2,59.9960281349123,3,
,,,,,,,,,,,,,,,,,,,,,,,,,,,,,,,,,,,,,,,,,,,,,,,,,,,,,,,,69,,,,,,,,,,,81,41,40,450.2869701003656,0,,,,,,,
