trial_index,trial_image1_file,trial_image2_file,image_file,learning_outer_loop.thisRepN,learning_outer_loop.thisTrialN,learning_outer_loop.thisN,learning_outer_loop.thisIndex,learning_inner_loop.thisRepN,learning_inner_loop.thisTrialN,learning_inner_loop.thisN,learning_inner_loop.thisIndex,learning_estimation_outer_loop.thisRepN,learning_estimation_outer_loop.thisTrialN,learning_estimation_outer_loop.thisN,learning_estimation_outer_loop.thisIndex,learning_estimation_inner_loop.thisRepN,learning_estimation_inner_loop.thisTrialN,learning_estimation_inner_loop.thisN,learning_estimation_inner_loop.thisIndex,reversal_outer_loop.thisRepN,reversal_outer_loop.thisTrialN,reversal_outer_loop.thisN,reversal_outer_loop.thisIndex,reversal_inner_loop.thisRepN,reversal_inner_loop.thisTrialN,reversal_inner_loop.thisN,reversal_inner_loop.thisIndex,reversal_estimation_outer_loop.thisRepN,reversal_estimation_outer_loop.thisTrialN,reversal_estimation_outer_loop.thisN,reversal_estimation_outer_loop.thisIndex,reversal_estimation_inner_loop.thisRepN,reversal_estimation_inner_loop.thisTrialN,reversal_estimation_inner_loop.thisN,reversal_estimation_inner_loop.thisIndex,skipped,total_trial_counter,trial_num,left_right_flip,left_image_file,right_image_file,clicked_stimulus_side,side,clicked_stimulus,version,high_prob_image_file,low_prob_image_file,choice_a,choice_b,pair_type,correct,trial_feedback_random,reward,trial_type,overall_time_after_trial,score,estimation_rating.started,estimation_exp1.png,estimation_rating.response,estimation_rating.rt,estimation_rating.history,estimation_exp2.png,estimation_exp3.png,estimation_exp4.png,total_learning_time,total_correct,learning_correct,reversal_correct,total_reversal_time,extra_block,end_experiment.keys,end_experiment.rt,end_experiment.duration,participant,date,expName,psychopyVersion,frameRate,ver,
0,exp1.png,exp2.png,,0,0,0,0,0,0,0,0,,,,,,,,,,,,,,,,,,,,,,,,,False,0,1,False,exp1.png,exp2.png,trial_right_image,-1,exp2.png,4,exp2.png,exp1.png,1,1,non-reversed,correct,0.3587059303641903,1,valid_win,5.279828400000042,1,,,,,,,,,,,,,,,,,,sub_312,2023-08-20_10h25.18.942,Reversal,2023.1.3,59.9562079857378,4,
1,exp3.png,exp4.png,,0,0,0,0,0,1,1,1,,,,,,,,,,,,,,,,,,,,,,,,,False,1,2,True,exp4.png,exp3.png,trial_right_image,-1,exp3.png,4,exp4.png,exp3.png,0,4,reversed,incorrect,0.8708397344410377,0,valid_lose,10.694783099999768,1,,,,,,,,,,,,,,,,,,sub_312,2023-08-20_10h25.18.942,Reversal,2023.1.3,59.9562079857378,4,
2,exp1.png,exp2.png,,0,0,0,0,0,2,2,2,,,,,,,,,,,,,,,,,,,,,,,,,False,2,3,True,exp2.png,exp1.png,trial_right_image,-1,exp1.png,4,exp2.png,exp1.png,0,2,non-reversed,incorrect,0.13869897753123428,1,invalid_win,15.809505899999749,2,,,,,,,,,,,,,,,,,,sub_312,2023-08-20_10h25.18.942,Reversal,2023.1.3,59.9562079857378,4,
3,exp3.png,exp4.png,,0,0,0,0,0,3,3,3,,,,,,,,,,,,,,,,,,,,,,,,,False,3,4,False,exp3.png,exp4.png,trial_left_image,1,exp3.png,4,exp4.png,exp3.png,0,4,reversed,incorrect,0.637785408600253,0,valid_lose,20.890772300000208,2,,,,,,,,,,,,,,,,,,sub_312,2023-08-20_10h25.18.942,Reversal,2023.1.3,59.9562079857378,4,
4,exp1.png,exp2.png,,0,0,0,0,0,4,4,4,,,,,,,,,,,,,,,,,,,,,,,,,False,4,5,False,exp1.png,exp2.png,trial_right_image,-1,exp2.png,4,exp2.png,exp1.png,1,1,non-reversed,correct,0.9057965074663568,1,valid_win,29.255253399999674,3,,,,,,,,,,,,,,,,,,sub_312,2023-08-20_10h25.18.942,Reversal,2023.1.3,59.9562079857378,4,
5,exp3.png,exp4.png,,0,0,0,0,0,5,5,5,,,,,,,,,,,,,,,,,,,,,,,,,False,5,6,True,exp4.png,exp3.png,trial_left_image,1,exp4.png,4,exp4.png,exp3.png,1,3,reversed,correct,0.37790043191069456,1,valid_win,34.81965339999988,4,,,,,,,,,,,,,,,,,,sub_312,2023-08-20_10h25.18.942,Reversal,2023.1.3,59.9562079857378,4,
6,exp1.png,exp2.png,,0,0,0,0,0,6,6,6,,,,,,,,,,,,,,,,,,,,,,,,,False,6,7,True,exp2.png,exp1.png,trial_left_image,1,exp2.png,4,exp2.png,exp1.png,1,1,non-reversed,correct,0.16182674275366493,0,invalid_lose,40.88472770000044,4,,,,,,,,,,,,,,,,,,sub_312,2023-08-20_10h25.18.942,Reversal,2023.1.3,59.9562079857378,4,
7,exp3.png,exp4.png,,0,0,0,0,0,7,7,7,,,,,,,,,,,,,,,,,,,,,,,,,False,7,8,False,exp3.png,exp4.png,trial_right_image,-1,exp4.png,4,exp4.png,exp3.png,1,3,reversed,correct,0.5721883535997838,1,valid_win,47.68195130000004,5,,,,,,,,,,,,,,,,,,sub_312,2023-08-20_10h25.18.942,Reversal,2023.1.3,59.9562079857378,4,
8,exp1.png,exp2.png,,0,0,0,0,0,8,8,8,,,,,,,,,,,,,,,,,,,,,,,,,False,8,9,True,exp2.png,exp1.png,trial_left_image,1,exp2.png,4,exp2.png,exp1.png,1,1,non-reversed,correct,0.058866155754317084,0,invalid_lose,52.04701180000029,5,,,,,,,,,,,,,,,,,,sub_312,2023-08-20_10h25.18.942,Reversal,2023.1.3,59.9562079857378,4,
9,exp3.png,exp4.png,,0,0,0,0,0,9,9,9,,,,,,,,,,,,,,,,,,,,,,,,,False,9,10,True,exp4.png,exp3.png,trial_right_image,-1,exp3.png,4,exp4.png,exp3.png,0,4,reversed,incorrect,0.7509846371805288,0,valid_lose,56.795951799999784,5,,,,,,,,,,,,,,,,,,sub_312,2023-08-20_10h25.18.942,Reversal,2023.1.3,59.9562079857378,4,
10,exp1.png,exp2.png,,0,0,0,0,0,10,10,10,,,,,,,,,,,,,,,,,,,,,,,,,False,10,11,False,exp1.png,exp2.png,trial_left_image,1,exp1.png,4,exp2.png,exp1.png,0,2,non-reversed,incorrect,0.8299593968892065,0,valid_lose,62.17671640000026,5,,,,,,,,,,,,,,,,,,sub_312,2023-08-20_10h25.18.942,Reversal,2023.1.3,59.9562079857378,4,
11,exp3.png,exp4.png,,0,0,0,0,0,11,11,11,,,,,,,,,,,,,,,,,,,,,,,,,False,11,12,True,exp4.png,exp3.png,trial_left_image,1,exp4.png,4,exp4.png,exp3.png,1,3,reversed,correct,0.3754744545667559,1,valid_win,69.52446299999974,6,,,,,,,,,,,,,,,,,,sub_312,2023-08-20_10h25.18.942,Reversal,2023.1.3,59.9562079857378,4,
12,exp1.png,exp2.png,,0,0,0,0,0,12,12,12,,,,,,,,,,,,,,,,,,,,,,,,,False,12,13,False,exp1.png,exp2.png,trial_right_image,-1,exp2.png,4,exp2.png,exp1.png,1,1,non-reversed,correct,0.3415851452229597,1,valid_win,74.25650440000027,7,,,,,,,,,,,,,,,,,,sub_312,2023-08-20_10h25.18.942,Reversal,2023.1.3,59.9562079857378,4,
13,exp3.png,exp4.png,,0,0,0,0,0,13,13,13,,,,,,,,,,,,,,,,,,,,,,,,,False,13,14,True,exp4.png,exp3.png,trial_right_image,-1,exp3.png,4,exp4.png,exp3.png,0,4,reversed,incorrect,0.6933779342721682,0,valid_lose,81.22043779999967,7,,,,,,,,,,,,,,,,,,sub_312,2023-08-20_10h25.18.942,Reversal,2023.1.3,59.9562079857378,4,
14,exp1.png,exp2.png,,0,0,0,0,0,14,14,14,,,,,,,,,,,,,,,,,,,,,,,,,False,14,15,False,exp1.png,exp2.png,trial_right_image,-1,exp2.png,4,exp2.png,exp1.png,1,1,non-reversed,correct,0.6254583420257712,1,valid_win,85.5024900999997,8,,,,,,,,,,,,,,,,,,sub_312,2023-08-20_10h25.18.942,Reversal,2023.1.3,59.9562079857378,4,
15,exp3.png,exp4.png,,0,0,0,0,0,15,15,15,,,,,,,,,,,,,,,,,,,,,,,,,False,15,16,False,exp3.png,exp4.png,trial_right_image,-1,exp4.png,4,exp4.png,exp3.png,1,3,reversed,correct,0.10097867000113159,0,invalid_lose,89.91805970000041,8,,,,,,,,,,,,,,,,,,sub_312,2023-08-20_10h25.18.942,Reversal,2023.1.3,59.9562079857378,4,
16,exp1.png,exp2.png,,0,0,0,0,0,16,16,16,,,,,,,,,,,,,,,,,,,,,,,,,False,16,17,True,exp2.png,exp1.png,trial_left_image,1,exp2.png,4,exp2.png,exp1.png,1,1,non-reversed,correct,0.8368043310796391,1,valid_win,95.26616620000004,9,,,,,,,,,,,,,,,,,,sub_312,2023-08-20_10h25.18.942,Reversal,2023.1.3,59.9562079857378,4,
17,exp3.png,exp4.png,,0,0,0,0,0,17,17,17,,,,,,,,,,,,,,,,,,,,,,,,,False,17,18,True,exp4.png,exp3.png,trial_left_image,1,exp4.png,4,exp4.png,exp3.png,1,3,reversed,correct,0.4130755562254028,1,valid_win,100.48042999999961,10,,,,,,,,,,,,,,,,,,sub_312,2023-08-20_10h25.18.942,Reversal,2023.1.3,59.9562079857378,4,
18,exp1.png,exp2.png,,0,0,0,0,0,18,18,18,,,,,,,,,,,,,,,,,,,,,,,,,False,18,19,False,exp1.png,exp2.png,trial_right_image,-1,exp2.png,4,exp2.png,exp1.png,1,1,non-reversed,correct,0.8218255928416577,1,valid_win,105.32894279999982,11,,,,,,,,,,,,,,,,,,sub_312,2023-08-20_10h25.18.942,Reversal,2023.1.3,59.9562079857378,4,
19,exp3.png,exp4.png,,0,0,0,0,0,19,19,19,,,,,,,,,,,,,,,,,,,,,,,,,False,19,20,False,exp3.png,exp4.png,trial_right_image,-1,exp4.png,4,exp4.png,exp3.png,1,3,reversed,correct,0.7523442310311734,1,valid_win,109.77780520000033,12,,,,,,,,,,,,,,,,,,sub_312,2023-08-20_10h25.18.942,Reversal,2023.1.3,59.9562079857378,4,
20,exp1.png,exp2.png,,0,0,0,0,0,20,20,20,,,,,,,,,,,,,,,,,,,,,,,,,True,,,,,,,,,,,,,,,,,,,,,,,,,,,,,,,,,,,,,,sub_312,2023-08-20_10h25.18.942,Reversal,2023.1.3,59.9562079857378,4,
,,,exp1.png,0,0,0,0,,,,,0,0,0,0,0,0,0,0,,,,,,,,,,,,,,,,,,,,,,,,,,,,,,,,,,,,,,200.00321110000004,15.0,15.0,18.752657699999872,"[(15.0, 18.752657699999872)]",,,,,,,,,,,,,sub_312,2023-08-20_10h25.18.942,Reversal,2023.1.3,59.9562079857378,4,
,,,exp2.png,0,0,0,0,,,,,0,0,0,0,0,1,1,1,,,,,,,,,,,,,,,,,,,,,,,,,,,,,,,,,,,,,,219.9412296999999,,78.0,2.975484100000358,"[(78.0, 2.975484100000358)]",78.0,,,,,,,,,,,,sub_312,2023-08-20_10h25.18.942,Reversal,2023.1.3,59.9562079857378,4,
,,,exp3.png,0,0,0,0,,,,,0,0,0,0,0,2,2,2,,,,,,,,,,,,,,,,,,,,,,,,,,,,,,,,,,,,,,225.36744929999986,,18.0,3.893492100000003,"[(18.0, 3.893492100000003)]",,18.0,,,,,,,,,,,sub_312,2023-08-20_10h25.18.942,Reversal,2023.1.3,59.9562079857378,4,
,,,exp4.png,0,0,0,0,,,,,0,0,0,0,0,3,3,3,,,,,,,,,,,,,,,,,,,,,,,,,,,,,,,,,,,,,,230.5187167999993,,82.0,1.6441290000002482,"[(82.0, 1.6441290000002482)]",,,82.0,,,,,,,,,,sub_312,2023-08-20_10h25.18.942,Reversal,2023.1.3,59.9562079857378,4,
0,exp1.png,exp2.png,,1,0,1,0,0,0,0,0,,,,,,,,,,,,,,,,,,,,,,,,,False,20,21,False,exp1.png,exp2.png,trial_right_image,-1,exp2.png,4,exp2.png,exp1.png,1,1,non-reversed,correct,0.3756248967730005,1,valid_win,147.66475470000023,13,,,,,,,,,,,,,,,,,,sub_312,2023-08-20_10h25.18.942,Reversal,2023.1.3,59.9562079857378,4,
1,exp3.png,exp4.png,,1,0,1,0,0,1,1,1,,,,,,,,,,,,,,,,,,,,,,,,,False,21,22,True,exp4.png,exp3.png,trial_left_image,1,exp4.png,4,exp4.png,exp3.png,1,3,reversed,correct,0.9570299074130535,1,valid_win,152.16356720000022,14,,,,,,,,,,,,,,,,,,sub_312,2023-08-20_10h25.18.942,Reversal,2023.1.3,59.9562079857378,4,
2,exp1.png,exp2.png,,1,0,1,0,0,2,2,2,,,,,,,,,,,,,,,,,,,,,,,,,False,22,23,True,exp2.png,exp1.png,trial_left_image,1,exp2.png,4,exp2.png,exp1.png,1,1,non-reversed,correct,0.6219537316286325,1,valid_win,156.94471489999978,15,,,,,,,,,,,,,,,,,,sub_312,2023-08-20_10h25.18.942,Reversal,2023.1.3,59.9562079857378,4,
3,exp3.png,exp4.png,,1,0,1,0,0,3,3,3,,,,,,,,,,,,,,,,,,,,,,,,,False,23,24,False,exp3.png,exp4.png,trial_right_image,-1,exp4.png,4,exp4.png,exp3.png,1,3,reversed,correct,0.24256805314421392,0,invalid_lose,161.04316899999958,15,,,,,,,,,,,,,,,,,,sub_312,2023-08-20_10h25.18.942,Reversal,2023.1.3,59.9562079857378,4,
4,exp1.png,exp2.png,,1,0,1,0,0,4,4,4,,,,,,,,,,,,,,,,,,,,,,,,,False,24,25,True,exp2.png,exp1.png,trial_left_image,1,exp2.png,4,exp2.png,exp1.png,1,1,non-reversed,correct,0.22682282066442272,0,invalid_lose,165.95861349999996,15,,,,,,,,,,,,,,,,,,sub_312,2023-08-20_10h25.18.942,Reversal,2023.1.3,59.9562079857378,4,
5,exp3.png,exp4.png,,1,0,1,0,0,5,5,5,,,,,,,,,,,,,,,,,,,,,,,,,False,25,26,True,exp4.png,exp3.png,trial_right_image,-1,exp3.png,4,exp4.png,exp3.png,0,4,reversed,incorrect,0.6476630842023205,0,valid_lose,173.3391671999998,15,,,,,,,,,,,,,,,,,,sub_312,2023-08-20_10h25.18.942,Reversal,2023.1.3,59.9562079857378,4,
6,exp1.png,exp2.png,,1,0,1,0,0,6,6,6,,,,,,,,,,,,,,,,,,,,,,,,,False,26,27,False,exp1.png,exp2.png,trial_right_image,-1,exp2.png,4,exp2.png,exp1.png,1,1,non-reversed,correct,0.37545387133323593,1,valid_win,177.52141329999995,16,,,,,,,,,,,,,,,,,,sub_312,2023-08-20_10h25.18.942,Reversal,2023.1.3,59.9562079857378,4,
7,exp3.png,exp4.png,,1,0,1,0,0,7,7,7,,,,,,,,,,,,,,,,,,,,,,,,,False,27,28,False,exp3.png,exp4.png,trial_right_image,-1,exp4.png,4,exp4.png,exp3.png,1,3,reversed,correct,0.873590789266273,1,valid_win,191.26623579999978,17,,,,,,,,,,,,,,,,,,sub_312,2023-08-20_10h25.18.942,Reversal,2023.1.3,59.9562079857378,4,
8,exp1.png,exp2.png,,1,0,1,0,0,8,8,8,,,,,,,,,,,,,,,,,,,,,,,,,False,28,29,True,exp2.png,exp1.png,trial_left_image,1,exp2.png,4,exp2.png,exp1.png,1,1,non-reversed,correct,0.9748946560219588,1,valid_win,196.43117100000018,18,,,,,,,,,,,,,,,,,,sub_312,2023-08-20_10h25.18.942,Reversal,2023.1.3,59.9562079857378,4,
9,exp3.png,exp4.png,,1,0,1,0,0,9,9,9,,,,,,,,,,,,,,,,,,,,,,,,,False,29,30,False,exp3.png,exp4.png,trial_left_image,1,exp3.png,4,exp4.png,exp3.png,0,4,reversed,incorrect,0.4990159953858331,0,valid_lose,201.03020600000036,18,,,,,,,,,,,,,,,,,,sub_312,2023-08-20_10h25.18.942,Reversal,2023.1.3,59.9562079857378,4,
10,exp1.png,exp2.png,,1,0,1,0,0,10,10,10,,,,,,,,,,,,,,,,,,,,,,,,,False,30,31,True,exp2.png,exp1.png,trial_left_image,1,exp2.png,4,exp2.png,exp1.png,1,1,non-reversed,correct,0.6133831944000807,1,valid_win,205.76199929999984,19,,,,,,,,,,,,,,,,,,sub_312,2023-08-20_10h25.18.942,Reversal,2023.1.3,59.9562079857378,4,
11,exp3.png,exp4.png,,1,0,1,0,0,11,11,11,,,,,,,,,,,,,,,,,,,,,,,,,False,31,32,False,exp3.png,exp4.png,trial_right_image,-1,exp4.png,4,exp4.png,exp3.png,1,3,reversed,correct,0.9160939664145566,1,valid_win,209.9266746000003,20,,,,,,,,,,,,,,,,,,sub_312,2023-08-20_10h25.18.942,Reversal,2023.1.3,59.9562079857378,4,
12,exp1.png,exp2.png,,1,0,1,0,0,12,12,12,,,,,,,,,,,,,,,,,,,,,,,,,False,32,33,True,exp2.png,exp1.png,trial_left_image,1,exp2.png,4,exp2.png,exp1.png,1,1,non-reversed,correct,0.638287038128548,1,valid_win,214.59217499999977,21,,,,,,,,,,,,,,,,,,sub_312,2023-08-20_10h25.18.942,Reversal,2023.1.3,59.9562079857378,4,
13,exp3.png,exp4.png,,1,0,1,0,0,13,13,13,,,,,,,,,,,,,,,,,,,,,,,,,False,33,34,False,exp3.png,exp4.png,trial_right_image,-1,exp4.png,4,exp4.png,exp3.png,1,3,reversed,correct,0.17506867819554062,0,invalid_lose,218.6741148000001,21,,,,,,,,,,,,,,,,,,sub_312,2023-08-20_10h25.18.942,Reversal,2023.1.3,59.9562079857378,4,
14,exp1.png,exp2.png,,1,0,1,0,0,14,14,14,,,,,,,,,,,,,,,,,,,,,,,,,False,34,35,False,exp1.png,exp2.png,trial_right_image,-1,exp2.png,4,exp2.png,exp1.png,1,1,non-reversed,correct,0.912144993585328,1,valid_win,223.4054839999999,22,,,,,,,,,,,,,,,,,,sub_312,2023-08-20_10h25.18.942,Reversal,2023.1.3,59.9562079857378,4,
15,exp3.png,exp4.png,,1,0,1,0,0,15,15,15,,,,,,,,,,,,,,,,,,,,,,,,,False,35,36,True,exp4.png,exp3.png,trial_left_image,1,exp4.png,4,exp4.png,exp3.png,1,3,reversed,correct,0.566404963823064,1,valid_win,228.22088710000025,23,,,,,,,,,,,,,,,,,,sub_312,2023-08-20_10h25.18.942,Reversal,2023.1.3,59.9562079857378,4,
16,exp1.png,exp2.png,,1,0,1,0,0,16,16,16,,,,,,,,,,,,,,,,,,,,,,,,,False,36,37,True,exp2.png,exp1.png,trial_left_image,1,exp2.png,4,exp2.png,exp1.png,1,1,non-reversed,correct,0.7631435033004637,1,valid_win,232.98587700000007,24,,,,,,,,,,,,,,,,,,sub_312,2023-08-20_10h25.18.942,Reversal,2023.1.3,59.9562079857378,4,
17,exp3.png,exp4.png,,1,0,1,0,0,17,17,17,,,,,,,,,,,,,,,,,,,,,,,,,False,37,38,True,exp4.png,exp3.png,trial_right_image,-1,exp3.png,4,exp4.png,exp3.png,0,4,reversed,incorrect,0.04004006207066746,1,invalid_win,237.8840393999999,25,,,,,,,,,,,,,,,,,,sub_312,2023-08-20_10h25.18.942,Reversal,2023.1.3,59.9562079857378,4,
18,exp1.png,exp2.png,,1,0,1,0,0,18,18,18,,,,,,,,,,,,,,,,,,,,,,,,,False,38,39,False,exp1.png,exp2.png,trial_right_image,-1,exp2.png,4,exp2.png,exp1.png,1,1,non-reversed,correct,0.2006100017652741,0,invalid_lose,242.69912759999988,25,,,,,,,,,,,,,,,,,,sub_312,2023-08-20_10h25.18.942,Reversal,2023.1.3,59.9562079857378,4,
19,exp3.png,exp4.png,,1,0,1,0,0,19,19,19,,,,,,,,,,,,,,,,,,,,,,,,,False,39,40,False,exp3.png,exp4.png,trial_right_image,-1,exp4.png,4,exp4.png,exp3.png,1,3,reversed,correct,0.32401066966711267,1,valid_win,249.0301668000002,26,,,,,,,,,,,,,,,,,,sub_312,2023-08-20_10h25.18.942,Reversal,2023.1.3,59.9562079857378,4,
20,exp1.png,exp2.png,,1,0,1,0,0,20,20,20,,,,,,,,,,,,,,,,,,,,,,,,,True,,,,,,,,,,,,,,,,,,,,,,,,,,,,,,,,,,,,,,sub_312,2023-08-20_10h25.18.942,Reversal,2023.1.3,59.9562079857378,4,
,,,exp1.png,1,0,1,0,,,,,0,0,0,0,0,0,0,0,,,,,,,,,,,,,,,,,,,,,,,,,,,,,,,,,,,,,,339.2804295999995,19.0,19.0,6.113559399999758,"[(19.0, 6.113559399999758)]",,,,,,,,,,,,,sub_312,2023-08-20_10h25.18.942,Reversal,2023.1.3,59.9562079857378,4,
,,,exp2.png,1,0,1,0,,,,,0,0,0,0,0,1,1,1,,,,,,,,,,,,,,,,,,,,,,,,,,,,,,,,,,,,,,347.0077195999993,,83.0,4.176858300000276,"[(83.0, 4.176858300000276)]",83.0,,,,,,,,,,,,sub_312,2023-08-20_10h25.18.942,Reversal,2023.1.3,59.9562079857378,4,
,,,exp3.png,1,0,1,0,,,,,0,0,0,0,0,2,2,2,,,,,,,,,,,,,,,,,,,,,,,,,,,,,,,,,,,,,,352.67780700000003,,None,None,[],,,,,,,,,,,,,sub_312,2023-08-20_10h25.18.942,Reversal,2023.1.3,59.9562079857378,4,
,,,exp4.png,1,0,1,0,,,,,0,0,0,0,0,3,3,3,,,,,,,,,,,,,,,,,,,,,,,,,,,,,,,,,,,,,,357.1876507999996,,None,None,[],,,,,,,,,,,,,sub_312,2023-08-20_10h25.18.942,Reversal,2023.1.3,59.9562079857378,4,
0,exp1.png,exp2.png,,2,0,2,0,0,0,0,0,,,,,,,,,,,,,,,,,,,,,,,,,False,40,41,False,exp1.png,exp2.png,trial_right_image,-1,exp2.png,4,exp2.png,exp1.png,1,1,non-reversed,correct,0.6484431111414437,1,valid_win,277.4041094000004,27,,,,,,,,,,,,,,,,,,sub_312,2023-08-20_10h25.18.942,Reversal,2023.1.3,59.9562079857378,4,
1,exp3.png,exp4.png,,2,0,2,0,0,1,1,1,,,,,,,,,,,,,,,,,,,,,,,,,False,41,42,False,exp3.png,exp4.png,trial_left_image,1,exp3.png,4,exp4.png,exp3.png,0,4,reversed,incorrect,0.8020050761284042,0,valid_lose,283.96903699999984,27,,,,,,,,,,,,,,,,,,sub_312,2023-08-20_10h25.18.942,Reversal,2023.1.3,59.9562079857378,4,
2,exp1.png,exp2.png,,2,0,2,0,0,2,2,2,,,,,,,,,,,,,,,,,,,,,,,,,False,42,43,False,exp1.png,exp2.png,trial_right_image,-1,exp2.png,4,exp2.png,exp1.png,1,1,non-reversed,correct,0.5674509848777695,1,valid_win,288.1671620999996,28,,,,,,,,,,,,,,,,,,sub_312,2023-08-20_10h25.18.942,Reversal,2023.1.3,59.9562079857378,4,
3,exp3.png,exp4.png,,2,0,2,0,0,3,3,3,,,,,,,,,,,,,,,,,,,,,,,,,False,43,44,True,exp4.png,exp3.png,trial_right_image,-1,exp3.png,4,exp4.png,exp3.png,0,4,reversed,incorrect,0.26775119390281354,0,valid_lose,292.5989668000002,28,,,,,,,,,,,,,,,,,,sub_312,2023-08-20_10h25.18.942,Reversal,2023.1.3,59.9562079857378,4,
4,exp1.png,exp2.png,,2,0,2,0,0,4,4,4,,,,,,,,,,,,,,,,,,,,,,,,,False,44,45,True,exp2.png,exp1.png,trial_left_image,1,exp2.png,4,exp2.png,exp1.png,1,1,non-reversed,correct,0.10670064494905052,0,invalid_lose,297.03093329999956,28,,,,,,,,,,,,,,,,,,sub_312,2023-08-20_10h25.18.942,Reversal,2023.1.3,59.9562079857378,4,
5,exp3.png,exp4.png,,2,0,2,0,0,5,5,5,,,,,,,,,,,,,,,,,,,,,,,,,False,45,46,False,exp3.png,exp4.png,trial_right_image,-1,exp4.png,4,exp4.png,exp3.png,1,3,reversed,correct,0.5860025820890349,1,valid_win,301.4958955000002,29,,,,,,,,,,,,,,,,,,sub_312,2023-08-20_10h25.18.942,Reversal,2023.1.3,59.9562079857378,4,
6,exp1.png,exp2.png,,2,0,2,0,0,6,6,6,,,,,,,,,,,,,,,,,,,,,,,,,False,46,47,True,exp2.png,exp1.png,trial_left_image,1,exp2.png,4,exp2.png,exp1.png,1,1,non-reversed,correct,0.18567613960701168,0,invalid_lose,307.5106654000001,29,,,,,,,,,,,,,,,,,,sub_312,2023-08-20_10h25.18.942,Reversal,2023.1.3,59.9562079857378,4,
7,exp3.png,exp4.png,,2,0,2,0,0,7,7,7,,,,,,,,,,,,,,,,,,,,,,,,,False,47,48,True,exp4.png,exp3.png,trial_left_image,1,exp4.png,4,exp4.png,exp3.png,1,3,reversed,correct,0.21270670820684334,0,invalid_lose,313.52528820000043,29,,,,,,,,,,,,,,,,,,sub_312,2023-08-20_10h25.18.942,Reversal,2023.1.3,59.9562079857378,4,
8,exp1.png,exp2.png,,2,0,2,0,0,8,8,8,,,,,,,,,,,,,,,,,,,,,,,,,False,48,49,False,exp1.png,exp2.png,trial_right_image,-1,exp2.png,4,exp2.png,exp1.png,1,1,non-reversed,correct,0.9047052835533467,1,valid_win,318.5900359999996,30,,,,,,,,,,,,,,,,,,sub_312,2023-08-20_10h25.18.942,Reversal,2023.1.3,59.9562079857378,4,
9,exp3.png,exp4.png,,2,0,2,0,0,9,9,9,,,,,,,,,,,,,,,,,,,,,,,,,False,49,50,False,exp3.png,exp4.png,trial_right_image,-1,exp4.png,4,exp4.png,exp3.png,1,3,reversed,correct,0.27401599472896465,1,valid_win,326.3378058999997,31,,,,,,,,,,,,,,,,,,sub_312,2023-08-20_10h25.18.942,Reversal,2023.1.3,59.9562079857378,4,
10,exp1.png,exp2.png,,2,0,2,0,0,10,10,10,,,,,,,,,,,,,,,,,,,,,,,,,False,50,51,True,exp2.png,exp1.png,trial_left_image,1,exp2.png,4,exp2.png,exp1.png,1,1,non-reversed,correct,0.4631197835198225,1,valid_win,331.15231250000033,32,,,,,,,,,,,,,,,,,,sub_312,2023-08-20_10h25.18.942,Reversal,2023.1.3,59.9562079857378,4,
11,exp3.png,exp4.png,,2,0,2,0,0,11,11,11,,,,,,,,,,,,,,,,,,,,,,,,,False,51,52,True,exp4.png,exp3.png,trial_right_image,-1,exp3.png,4,exp4.png,exp3.png,0,4,reversed,incorrect,0.47707034971784323,0,valid_lose,337.68324550000034,32,,,,,,,,,,,,,,,,,,sub_312,2023-08-20_10h25.18.942,Reversal,2023.1.3,59.9562079857378,4,
12,exp1.png,exp2.png,,2,0,2,0,0,12,12,12,,,,,,,,,,,,,,,,,,,,,,,,,False,52,53,True,exp2.png,exp1.png,trial_left_image,1,exp2.png,4,exp2.png,exp1.png,1,1,non-reversed,correct,0.017198863727400426,0,invalid_lose,342.21500860000015,32,,,,,,,,,,,,,,,,,,sub_312,2023-08-20_10h25.18.942,Reversal,2023.1.3,59.9562079857378,4,
13,exp3.png,exp4.png,,2,0,2,0,0,13,13,13,,,,,,,,,,,,,,,,,,,,,,,,,False,53,54,True,exp4.png,exp3.png,trial_left_image,1,exp4.png,4,exp4.png,exp3.png,1,3,reversed,correct,0.7687471364736712,1,valid_win,348.11361959999977,33,,,,,,,,,,,,,,,,,,sub_312,2023-08-20_10h25.18.942,Reversal,2023.1.3,59.9562079857378,4,
14,exp1.png,exp2.png,,2,0,2,0,0,14,14,14,,,,,,,,,,,,,,,,,,,,,,,,,False,54,55,False,exp1.png,exp2.png,trial_left_image,1,exp1.png,4,exp2.png,exp1.png,0,2,non-reversed,incorrect,0.6654775877771988,0,valid_lose,353.97793209999963,33,,,,,,,,,,,,,,,,,,sub_312,2023-08-20_10h25.18.942,Reversal,2023.1.3,59.9562079857378,4,
15,exp3.png,exp4.png,,2,0,2,0,0,15,15,15,,,,,,,,,,,,,,,,,,,,,,,,,False,55,56,True,exp4.png,exp3.png,trial_left_image,1,exp4.png,4,exp4.png,exp3.png,1,3,reversed,correct,0.7087629601126415,1,valid_win,358.55969170000026,34,,,,,,,,,,,,,,,,,,sub_312,2023-08-20_10h25.18.942,Reversal,2023.1.3,59.9562079857378,4,
16,exp1.png,exp2.png,,2,0,2,0,0,16,16,16,,,,,,,,,,,,,,,,,,,,,,,,,False,56,57,False,exp1.png,exp2.png,trial_right_image,-1,exp2.png,4,exp2.png,exp1.png,1,1,non-reversed,correct,0.7172339132054073,1,valid_win,363.8580060000004,35,,,,,,,,,,,,,,,,,,sub_312,2023-08-20_10h25.18.942,Reversal,2023.1.3,59.9562079857378,4,
17,exp3.png,exp4.png,,2,0,2,0,0,17,17,17,,,,,,,,,,,,,,,,,,,,,,,,,False,57,58,True,exp4.png,exp3.png,trial_left_image,1,exp4.png,4,exp4.png,exp3.png,1,3,reversed,correct,0.6568469685035745,1,valid_win,368.67363600000044,36,,,,,,,,,,,,,,,,,,sub_312,2023-08-20_10h25.18.942,Reversal,2023.1.3,59.9562079857378,4,
18,exp1.png,exp2.png,,2,0,2,0,0,18,18,18,,,,,,,,,,,,,,,,,,,,,,,,,False,58,59,False,exp1.png,exp2.png,trial_right_image,-1,exp2.png,4,exp2.png,exp1.png,1,1,non-reversed,correct,0.4963640879491348,1,valid_win,374.22083550000025,37,,,,,,,,,,,,,,,,,,sub_312,2023-08-20_10h25.18.942,Reversal,2023.1.3,59.9562079857378,4,
19,exp3.png,exp4.png,,2,0,2,0,0,19,19,19,,,,,,,,,,,,,,,,,,,,,,,,,False,59,60,False,exp3.png,exp4.png,trial_right_image,-1,exp4.png,4,exp4.png,exp3.png,1,3,reversed,correct,0.9579328504015986,1,valid_win,378.7694610999997,38,,,,,,,,,,,,,,,,,,sub_312,2023-08-20_10h25.18.942,Reversal,2023.1.3,59.9562079857378,4,
20,exp1.png,exp2.png,,2,0,2,0,0,20,20,20,,,,,,,,,,,,,,,,,,,,,,,,,True,,,,,,,,,,,,,,,,,,,,,,,,,,,,,,,,,,,,,,sub_312,2023-08-20_10h25.18.942,Reversal,2023.1.3,59.9562079857378,4,
,,,exp1.png,2,0,2,0,,,,,0,0,0,0,0,0,0,0,,,,,,,,,,,,,,,,,,,,,,,,,,,,,,,,,,,,,,469.0073896999993,,None,None,[],,,,,,,,,,,,,sub_312,2023-08-20_10h25.18.942,Reversal,2023.1.3,59.9562079857378,4,
,,,exp2.png,2,0,2,0,,,,,0,0,0,0,0,1,1,1,,,,,,,,,,,,,,,,,,,,,,,,,,,,,,,,,,,,,,477.94568869999966,,None,None,[],,,,,,,,,,,,,sub_312,2023-08-20_10h25.18.942,Reversal,2023.1.3,59.9562079857378,4,
,,,exp3.png,2,0,2,0,,,,,0,0,0,0,0,2,2,2,,,,,,,,,,,,,,,,,,,,,,,,,,,,,,,,,,,,,,479.21314959999927,,None,None,[],,,,,,,,,,,,,sub_312,2023-08-20_10h25.18.942,Reversal,2023.1.3,59.9562079857378,4,
,,,exp4.png,2,0,2,0,,,,,0,0,0,0,0,3,3,3,,,,,,,,,,,,,,,,,,,,,,,,,,,,,,,,,,,,,,484.83072339999944,,None,None,[],,,,,,,,,,,,,sub_312,2023-08-20_10h25.18.942,Reversal,2023.1.3,59.9562079857378,4,
0,exp1.png,exp2.png,,,,,,,,,,,,,,,,,,0,0,0,0,0,0,0,0,,,,,,,,,False,0,61,True,exp2.png,exp1.png,trial_left_image,1,exp2.png,4,exp2.png,exp1.png,1,1,non-reversed,correct,0.47262251252613474,1,valid_win,402.16194350000023,39,,,,,,,,,398.48245789999964,,,,,,,,,sub_312,2023-08-20_10h25.18.942,Reversal,2023.1.3,59.9562079857378,4,
1,exp3.png,exp4.png,,,,,,,,,,,,,,,,,,0,0,0,0,0,1,1,1,,,,,,,,,False,1,62,True,exp4.png,exp3.png,trial_left_image,1,exp4.png,4,exp3.png,exp4.png,1,3,reversed,incorrect,0.5184535651841539,0,valid_lose,407.3932354999997,39,,,,,,,,,,,,,,,,,,sub_312,2023-08-20_10h25.18.942,Reversal,2023.1.3,59.9562079857378,4,
2,exp1.png,exp2.png,,,,,,,,,,,,,,,,,,0,0,0,0,0,2,2,2,,,,,,,,,False,2,63,True,exp2.png,exp1.png,trial_left_image,1,exp2.png,4,exp2.png,exp1.png,1,1,non-reversed,correct,0.32015731971898764,1,valid_win,412.0748013000002,40,,,,,,,,,,,,,,,,,,sub_312,2023-08-20_10h25.18.942,Reversal,2023.1.3,59.9562079857378,4,
3,exp3.png,exp4.png,,,,,,,,,,,,,,,,,,0,0,0,0,0,3,3,3,,,,,,,,,False,3,64,True,exp4.png,exp3.png,trial_right_image,-1,exp3.png,4,exp3.png,exp4.png,0,4,reversed,correct,0.336384822761454,1,valid_win,418.92286989999957,41,,,,,,,,,,,,,,,,,,sub_312,2023-08-20_10h25.18.942,Reversal,2023.1.3,59.9562079857378,4,
4,exp1.png,exp2.png,,,,,,,,,,,,,,,,,,0,0,0,0,0,4,4,4,,,,,,,,,False,4,65,True,exp2.png,exp1.png,trial_left_image,1,exp2.png,4,exp2.png,exp1.png,1,1,non-reversed,correct,0.5766650981929542,1,valid_win,423.6708091999999,42,,,,,,,,,,,,,,,,,,sub_312,2023-08-20_10h25.18.942,Reversal,2023.1.3,59.9562079857378,4,
5,exp3.png,exp4.png,,,,,,,,,,,,,,,,,,0,0,0,0,0,5,5,5,,,,,,,,,False,5,66,True,exp4.png,exp3.png,trial_left_image,1,exp4.png,4,exp3.png,exp4.png,1,3,reversed,incorrect,0.3342192472916492,0,valid_lose,428.6521727999998,42,,,,,,,,,,,,,,,,,,sub_312,2023-08-20_10h25.18.942,Reversal,2023.1.3,59.9562079857378,4,
6,exp1.png,exp2.png,,,,,,,,,,,,,,,,,,0,0,0,0,0,6,6,6,,,,,,,,,False,6,67,True,exp2.png,exp1.png,trial_left_image,1,exp2.png,4,exp2.png,exp1.png,1,1,non-reversed,correct,0.6279816875998401,1,valid_win,432.83426340000005,43,,,,,,,,,,,,,,,,,,sub_312,2023-08-20_10h25.18.942,Reversal,2023.1.3,59.9562079857378,4,
7,exp3.png,exp4.png,,,,,,,,,,,,,,,,,,0,0,0,0,0,7,7,7,,,,,,,,,False,7,68,True,exp4.png,exp3.png,trial_left_image,1,exp4.png,4,exp3.png,exp4.png,1,3,reversed,incorrect,0.27214185516137557,0,valid_lose,439.13266230000045,43,,,,,,,,,,,,,,,,,,sub_312,2023-08-20_10h25.18.942,Reversal,2023.1.3,59.9562079857378,4,
8,exp1.png,exp2.png,,,,,,,,,,,,,,,,,,0,0,0,0,0,8,8,8,,,,,,,,,False,8,69,False,exp1.png,exp2.png,trial_right_image,-1,exp2.png,4,exp2.png,exp1.png,1,1,non-reversed,correct,0.7984148247833853,1,valid_win,443.88059260000045,44,,,,,,,,,,,,,,,,,,sub_312,2023-08-20_10h25.18.942,Reversal,2023.1.3,59.9562079857378,4,
9,exp3.png,exp4.png,,,,,,,,,,,,,,,,,,0,0,0,0,0,9,9,9,,,,,,,,,False,9,70,False,exp3.png,exp4.png,trial_left_image,1,exp3.png,4,exp3.png,exp4.png,0,4,reversed,correct,0.410031917267609,1,valid_win,449.0287723000001,45,,,,,,,,,,,,,,,,,,sub_312,2023-08-20_10h25.18.942,Reversal,2023.1.3,59.9562079857378,4,
10,exp1.png,exp2.png,,,,,,,,,,,,,,,,,,0,0,0,0,0,10,10,10,,,,,,,,,False,10,71,False,exp1.png,exp2.png,trial_right_image,-1,exp2.png,4,exp2.png,exp1.png,1,1,non-reversed,correct,0.17092838902066387,0,invalid_lose,453.7107785999997,45,,,,,,,,,,,,,,,,,,sub_312,2023-08-20_10h25.18.942,Reversal,2023.1.3,59.9562079857378,4,
11,exp3.png,exp4.png,,,,,,,,,,,,,,,,,,0,0,0,0,0,11,11,11,,,,,,,,,False,11,72,False,exp3.png,exp4.png,trial_right_image,-1,exp4.png,4,exp3.png,exp4.png,1,3,reversed,incorrect,0.1573633124107724,1,invalid_win,459.34196489999977,46,,,,,,,,,,,,,,,,,,sub_312,2023-08-20_10h25.18.942,Reversal,2023.1.3,59.9562079857378,4,
12,exp1.png,exp2.png,,,,,,,,,,,,,,,,,,0,0,0,0,0,12,12,12,,,,,,,,,False,12,73,False,exp1.png,exp2.png,trial_left_image,1,exp1.png,4,exp2.png,exp1.png,0,2,non-reversed,incorrect,0.8616133858414354,0,valid_lose,464.7406793,46,,,,,,,,,,,,,,,,,,sub_312,2023-08-20_10h25.18.942,Reversal,2023.1.3,59.9562079857378,4,
13,exp3.png,exp4.png,,,,,,,,,,,,,,,,,,0,0,0,0,0,13,13,13,,,,,,,,,False,13,74,True,exp4.png,exp3.png,trial_left_image,1,exp4.png,4,exp3.png,exp4.png,1,3,reversed,incorrect,0.9912933880802809,0,valid_lose,469.1886599999998,46,,,,,,,,,,,,,,,,,,sub_312,2023-08-20_10h25.18.942,Reversal,2023.1.3,59.9562079857378,4,
14,exp1.png,exp2.png,,,,,,,,,,,,,,,,,,0,0,0,0,0,14,14,14,,,,,,,,,False,14,75,False,exp1.png,exp2.png,trial_right_image,-1,exp2.png,4,exp2.png,exp1.png,1,1,non-reversed,correct,0.9492270238521913,1,valid_win,473.4875597999999,47,,,,,,,,,,,,,,,,,,sub_312,2023-08-20_10h25.18.942,Reversal,2023.1.3,59.9562079857378,4,
15,exp3.png,exp4.png,,,,,,,,,,,,,,,,,,0,0,0,0,0,15,15,15,,,,,,,,,False,15,76,False,exp3.png,exp4.png,trial_right_image,-1,exp4.png,4,exp3.png,exp4.png,1,3,reversed,incorrect,0.6962170384028936,0,valid_lose,478.4857541000001,47,,,,,,,,,,,,,,,,,,sub_312,2023-08-20_10h25.18.942,Reversal,2023.1.3,59.9562079857378,4,
16,exp1.png,exp2.png,,,,,,,,,,,,,,,,,,0,0,0,0,0,16,16,16,,,,,,,,,False,16,77,False,exp1.png,exp2.png,trial_right_image,-1,exp2.png,4,exp2.png,exp1.png,1,1,non-reversed,correct,0.2893812267342033,1,valid_win,482.93416609999986,48,,,,,,,,,,,,,,,,,,sub_312,2023-08-20_10h25.18.942,Reversal,2023.1.3,59.9562079857378,4,
17,exp3.png,exp4.png,,,,,,,,,,,,,,,,,,0,0,0,0,0,17,17,17,,,,,,,,,False,17,78,False,exp3.png,exp4.png,trial_left_image,1,exp3.png,4,exp3.png,exp4.png,0,4,reversed,correct,0.6905450965086819,1,valid_win,489.09852990000036,49,,,,,,,,,,,,,,,,,,sub_312,2023-08-20_10h25.18.942,Reversal,2023.1.3,59.9562079857378,4,
18,exp1.png,exp2.png,,,,,,,,,,,,,,,,,,0,0,0,0,0,18,18,18,,,,,,,,,False,18,79,False,exp1.png,exp2.png,trial_right_image,-1,exp2.png,4,exp2.png,exp1.png,1,1,non-reversed,correct,0.969713617300401,1,valid_win,493.84703119999995,50,,,,,,,,,,,,,,,,,,sub_312,2023-08-20_10h25.18.942,Reversal,2023.1.3,59.9562079857378,4,
19,exp3.png,exp4.png,,,,,,,,,,,,,,,,,,0,0,0,0,0,19,19,19,,,,,,,,,False,19,80,True,exp4.png,exp3.png,trial_right_image,-1,exp3.png,4,exp3.png,exp4.png,0,4,reversed,correct,0.4507243874571769,1,valid_win,498.3786618000004,51,,,,,,,,,,,,,,,,,,sub_312,2023-08-20_10h25.18.942,Reversal,2023.1.3,59.9562079857378,4,
20,exp1.png,exp2.png,,,,,,,,,,,,,,,,,,0,0,0,0,0,20,20,20,,,,,,,,,True,,,,,,,,,,,,,,,,,,,,,,,,,,,,,,,,,,,,,,sub_312,2023-08-20_10h25.18.942,Reversal,2023.1.3,59.9562079857378,4,
,,,exp1.png,,,,,,,,,,,,,,,,,0,0,0,0,,,,,0,0,0,0,0,0,0,0,,,,,,,,,,,,,,,,,,,,,,588.6033166999996,14.0,14.0,6.300461800000448,"[(14.0, 6.300461800000448)]",,,,,,,,,,,,,sub_312,2023-08-20_10h25.18.942,Reversal,2023.1.3,59.9562079857378,4,
,,,exp2.png,,,,,,,,,,,,,,,,,0,0,0,0,,,,,0,0,0,0,0,1,1,1,,,,,,,,,,,,,,,,,,,,,,596.5227652999993,,80.0,2.527935300000536,"[(80.0, 2.527935300000536)]",80.0,,,,,,,,,,,,sub_312,2023-08-20_10h25.18.942,Reversal,2023.1.3,59.9562079857378,4,
,,,exp3.png,,,,,,,,,,,,,,,,,0,0,0,0,,,,,0,0,0,0,0,2,2,2,,,,,,,,,,,,,,,,,,,,,,600.5222490999995,,None,None,[],,,,,,,,,,,,,sub_312,2023-08-20_10h25.18.942,Reversal,2023.1.3,59.9562079857378,4,
,,,exp4.png,,,,,,,,,,,,,,,,,0,0,0,0,,,,,0,0,0,0,0,3,3,3,,,,,,,,,,,,,,,,,,,,,,605.3223561999994,,None,None,[],,,,,,,,,,,,,sub_312,2023-08-20_10h25.18.942,Reversal,2023.1.3,59.9562079857378,4,
0,exp1.png,exp2.png,,,,,,,,,,,,,,,,,,1,0,1,0,0,0,0,0,,,,,,,,,False,20,81,True,exp2.png,exp1.png,trial_left_image,1,exp2.png,4,exp2.png,exp1.png,1,1,non-reversed,correct,0.07051083053515783,0,invalid_lose,522.8368929999997,51,,,,,,,,,,,,,,,,,,sub_312,2023-08-20_10h25.18.942,Reversal,2023.1.3,59.9562079857378,4,
1,exp3.png,exp4.png,,,,,,,,,,,,,,,,,,1,0,1,0,0,1,1,1,,,,,,,,,False,21,82,False,exp3.png,exp4.png,trial_right_image,-1,exp4.png,4,exp3.png,exp4.png,1,3,reversed,incorrect,0.7213163330420728,0,valid_lose,527.0862282999997,51,,,,,,,,,,,,,,,,,,sub_312,2023-08-20_10h25.18.942,Reversal,2023.1.3,59.9562079857378,4,
2,exp1.png,exp2.png,,,,,,,,,,,,,,,,,,1,0,1,0,0,2,2,2,,,,,,,,,False,22,83,False,exp1.png,exp2.png,trial_right_image,-1,exp2.png,4,exp2.png,exp1.png,1,1,non-reversed,correct,0.842302467174526,1,valid_win,531.7843469,52,,,,,,,,,,,,,,,,,,sub_312,2023-08-20_10h25.18.942,Reversal,2023.1.3,59.9562079857378,4,
3,exp3.png,exp4.png,,,,,,,,,,,,,,,,,,1,0,1,0,0,3,3,3,,,,,,,,,False,23,84,True,exp4.png,exp3.png,trial_left_image,1,exp4.png,4,exp3.png,exp4.png,1,3,reversed,incorrect,0.21164432137070122,1,invalid_win,537.1488058000004,53,,,,,,,,,,,,,,,,,,sub_312,2023-08-20_10h25.18.942,Reversal,2023.1.3,59.9562079857378,4,
4,exp1.png,exp2.png,,,,,,,,,,,,,,,,,,1,0,1,0,0,4,4,4,,,,,,,,,False,24,85,True,exp2.png,exp1.png,trial_left_image,1,exp2.png,4,exp2.png,exp1.png,1,1,non-reversed,correct,0.6181945066239201,1,valid_win,542.5804684000004,54,,,,,,,,,,,,,,,,,,sub_312,2023-08-20_10h25.18.942,Reversal,2023.1.3,59.9562079857378,4,
5,exp3.png,exp4.png,,,,,,,,,,,,,,,,,,1,0,1,0,0,5,5,5,,,,,,,,,False,25,86,True,exp4.png,exp3.png,trial_right_image,-1,exp3.png,4,exp3.png,exp4.png,0,4,reversed,correct,0.3544465504493721,1,valid_win,547.41237,55,,,,,,,,,,,,,,,,,,sub_312,2023-08-20_10h25.18.942,Reversal,2023.1.3,59.9562079857378,4,
6,exp1.png,exp2.png,,,,,,,,,,,,,,,,,,1,0,1,0,0,6,6,6,,,,,,,,,False,26,87,True,exp2.png,exp1.png,trial_left_image,1,exp2.png,4,exp2.png,exp1.png,1,1,non-reversed,correct,0.38964885802553495,1,valid_win,552.2270062999996,56,,,,,,,,,,,,,,,,,,sub_312,2023-08-20_10h25.18.942,Reversal,2023.1.3,59.9562079857378,4,
7,exp3.png,exp4.png,,,,,,,,,,,,,,,,,,1,0,1,0,0,7,7,7,,,,,,,,,False,27,88,False,exp3.png,exp4.png,trial_right_image,-1,exp4.png,4,exp3.png,exp4.png,1,3,reversed,incorrect,0.47520860783965435,0,valid_lose,556.7759607999997,56,,,,,,,,,,,,,,,,,,sub_312,2023-08-20_10h25.18.942,Reversal,2023.1.3,59.9562079857378,4,
8,exp1.png,exp2.png,,,,,,,,,,,,,,,,,,1,0,1,0,0,8,8,8,,,,,,,,,False,28,89,False,exp1.png,exp2.png,trial_right_image,-1,exp2.png,4,exp2.png,exp1.png,1,1,non-reversed,correct,0.6453414969000226,1,valid_win,561.2072586000004,57,,,,,,,,,,,,,,,,,,sub_312,2023-08-20_10h25.18.942,Reversal,2023.1.3,59.9562079857378,4,
9,exp3.png,exp4.png,,,,,,,,,,,,,,,,,,1,0,1,0,0,9,9,9,,,,,,,,,False,29,90,False,exp3.png,exp4.png,trial_right_image,-1,exp4.png,4,exp3.png,exp4.png,1,3,reversed,incorrect,0.2875318873847087,0,valid_lose,566.9890998999999,57,,,,,,,,,,,,,,,,,,sub_312,2023-08-20_10h25.18.942,Reversal,2023.1.3,59.9562079857378,4,
10,exp1.png,exp2.png,,,,,,,,,,,,,,,,,,1,0,1,0,0,10,10,10,,,,,,,,,False,30,91,False,exp1.png,exp2.png,trial_right_image,-1,exp2.png,4,exp2.png,exp1.png,1,1,non-reversed,correct,0.6598700107158785,1,valid_win,571.5205626999996,58,,,,,,,,,,,,,,,,,,sub_312,2023-08-20_10h25.18.942,Reversal,2023.1.3,59.9562079857378,4,
11,exp3.png,exp4.png,,,,,,,,,,,,,,,,,,1,0,1,0,0,11,11,11,,,,,,,,,False,31,92,True,exp4.png,exp3.png,trial_right_image,-1,exp3.png,4,exp3.png,exp4.png,0,4,reversed,correct,0.2543132948778357,1,valid_win,576.0690162000001,59,,,,,,,,,,,,,,,,,,sub_312,2023-08-20_10h25.18.942,Reversal,2023.1.3,59.9562079857378,4,
12,exp1.png,exp2.png,,,,,,,,,,,,,,,,,,1,0,1,0,0,12,12,12,,,,,,,,,False,32,93,False,exp1.png,exp2.png,trial_right_image,-1,exp2.png,4,exp2.png,exp1.png,1,1,non-reversed,correct,0.3211371782345338,1,valid_win,580.7506841000004,60,,,,,,,,,,,,,,,,,,sub_312,2023-08-20_10h25.18.942,Reversal,2023.1.3,59.9562079857378,4,
13,exp3.png,exp4.png,,,,,,,,,,,,,,,,,,1,0,1,0,0,13,13,13,,,,,,,,,False,33,94,True,exp4.png,exp3.png,trial_right_image,-1,exp3.png,4,exp3.png,exp4.png,0,4,reversed,correct,0.180866343789154,0,invalid_lose,586.3657786000003,60,,,,,,,,,,,,,,,,,,sub_312,2023-08-20_10h25.18.942,Reversal,2023.1.3,59.9562079857378,4,
14,exp1.png,exp2.png,,,,,,,,,,,,,,,,,,1,0,1,0,0,14,14,14,,,,,,,,,False,34,95,False,exp1.png,exp2.png,trial_right_image,-1,exp2.png,4,exp2.png,exp1.png,1,1,non-reversed,correct,0.6603529522904072,1,valid_win,590.7640766000004,61,,,,,,,,,,,,,,,,,,sub_312,2023-08-20_10h25.18.942,Reversal,2023.1.3,59.9562079857378,4,
15,exp3.png,exp4.png,,,,,,,,,,,,,,,,,,1,0,1,0,0,15,15,15,,,,,,,,,False,35,96,False,exp3.png,exp4.png,trial_right_image,-1,exp4.png,4,exp3.png,exp4.png,1,3,reversed,incorrect,0.3604026841769886,0,valid_lose,595.8457882000002,61,,,,,,,,,,,,,,,,,,sub_312,2023-08-20_10h25.18.942,Reversal,2023.1.3,59.9562079857378,4,
16,exp1.png,exp2.png,,,,,,,,,,,,,,,,,,1,0,1,0,0,16,16,16,,,,,,,,,False,36,97,True,exp2.png,exp1.png,trial_left_image,1,exp2.png,4,exp2.png,exp1.png,1,1,non-reversed,correct,0.7740300508896075,1,valid_win,600.6437790999998,62,,,,,,,,,,,,,,,,,,sub_312,2023-08-20_10h25.18.942,Reversal,2023.1.3,59.9562079857378,4,
17,exp3.png,exp4.png,,,,,,,,,,,,,,,,,,1,0,1,0,0,17,17,17,,,,,,,,,False,37,98,True,exp4.png,exp3.png,trial_left_image,1,exp4.png,4,exp3.png,exp4.png,1,3,reversed,incorrect,0.6309309942603858,0,valid_lose,605.9422420000001,62,,,,,,,,,,,,,,,,,,sub_312,2023-08-20_10h25.18.942,Reversal,2023.1.3,59.9562079857378,4,
18,exp1.png,exp2.png,,,,,,,,,,,,,,,,,,1,0,1,0,0,18,18,18,,,,,,,,,False,38,99,True,exp2.png,exp1.png,trial_left_image,1,exp2.png,4,exp2.png,exp1.png,1,1,non-reversed,correct,0.6700274979947146,1,valid_win,610.2246072999997,63,,,,,,,,,,,,,,,,,,sub_312,2023-08-20_10h25.18.942,Reversal,2023.1.3,59.9562079857378,4,
19,exp3.png,exp4.png,,,,,,,,,,,,,,,,,,1,0,1,0,0,19,19,19,,,,,,,,,False,39,100,False,exp3.png,exp4.png,trial_left_image,1,exp3.png,4,exp3.png,exp4.png,0,4,reversed,correct,0.5805844330432949,1,valid_win,614.5891856999997,64,,,,,,,,,,,,,,,,,,sub_312,2023-08-20_10h25.18.942,Reversal,2023.1.3,59.9562079857378,4,
20,exp1.png,exp2.png,,,,,,,,,,,,,,,,,,1,0,1,0,0,20,20,20,,,,,,,,,True,,,,,,,,,,,,,,,,,,,,,,,,,,,,,,,,,,,,,,sub_312,2023-08-20_10h25.18.942,Reversal,2023.1.3,59.9562079857378,4,
,,,exp1.png,,,,,,,,,,,,,,,,,1,0,1,0,,,,,0,0,0,0,0,0,0,0,,,,,,,,,,,,,,,,,,,,,,704.8309970999999,20.0,20.0,4.30230500000016,"[(20.0, 4.30230500000016)]",,,,,,,,,,,,,sub_312,2023-08-20_10h25.18.942,Reversal,2023.1.3,59.9562079857378,4,
,,,exp2.png,,,,,,,,,,,,,,,,,1,0,1,0,,,,,0,0,0,0,0,1,1,1,,,,,,,,,,,,,,,,,,,,,,710.6681334999994,,82.0,1.9771845999994184,"[(82.0, 1.9771845999994184)]",82.0,,,,,,,,,,,,sub_312,2023-08-20_10h25.18.942,Reversal,2023.1.3,59.9562079857378,4,
,,,exp3.png,,,,,,,,,,,,,,,,,1,0,1,0,,,,,0,0,0,0,0,2,2,2,,,,,,,,,,,,,,,,,,,,,,713.7840282999996,,66.0,7.441687199999251,"[(66.0, 7.441687199999251)]",,66.0,,,,,,,,,,,sub_312,2023-08-20_10h25.18.942,Reversal,2023.1.3,59.9562079857378,4,
,,,exp4.png,,,,,,,,,,,,,,,,,1,0,1,0,,,,,0,0,0,0,0,3,3,3,,,,,,,,,,,,,,,,,,,,,,730.3485236999995,,28.0,2.46091720000004,"[(38.0, 1.5103688999997757), (28.0, 2.46091720000004)]",,,28.0,,,,,,,,,,sub_312,2023-08-20_10h25.18.942,Reversal,2023.1.3,59.9562079857378,4,
0,exp1.png,exp2.png,,,,,,,,,,,,,,,,,,2,0,2,0,0,0,0,0,,,,,,,,,False,40,101,False,exp1.png,exp2.png,trial_right_image,-1,exp2.png,4,exp2.png,exp1.png,1,1,non-reversed,correct,0.6095969445231363,1,valid_win,649.6272004000002,65,,,,,,,,,,,,,,,,,,sub_312,2023-08-20_10h25.18.942,Reversal,2023.1.3,59.9562079857378,4,
1,exp3.png,exp4.png,,,,,,,,,,,,,,,,,,2,0,2,0,0,1,1,1,,,,,,,,,False,41,102,True,exp4.png,exp3.png,trial_left_image,1,exp4.png,4,exp3.png,exp4.png,1,3,reversed,incorrect,0.33415903294705107,0,valid_lose,654.7259814999998,65,,,,,,,,,,,,,,,,,,sub_312,2023-08-20_10h25.18.942,Reversal,2023.1.3,59.9562079857378,4,
2,exp1.png,exp2.png,,,,,,,,,,,,,,,,,,2,0,2,0,0,2,2,2,,,,,,,,,False,42,103,True,exp2.png,exp1.png,trial_left_image,1,exp2.png,4,exp2.png,exp1.png,1,1,non-reversed,correct,0.9888290994156057,1,valid_win,659.0412703000002,66,,,,,,,,,,,,,,,,,,sub_312,2023-08-20_10h25.18.942,Reversal,2023.1.3,59.9562079857378,4,
3,exp3.png,exp4.png,,,,,,,,,,,,,,,,,,2,0,2,0,0,3,3,3,,,,,,,,,False,43,104,False,exp3.png,exp4.png,trial_left_image,1,exp3.png,4,exp3.png,exp4.png,0,4,reversed,correct,0.0011583174907933147,0,invalid_lose,663.8898597999996,66,,,,,,,,,,,,,,,,,,sub_312,2023-08-20_10h25.18.942,Reversal,2023.1.3,59.9562079857378,4,
4,exp1.png,exp2.png,,,,,,,,,,,,,,,,,,2,0,2,0,0,4,4,4,,,,,,,,,False,44,105,True,exp2.png,exp1.png,trial_left_image,1,exp2.png,4,exp2.png,exp1.png,1,1,non-reversed,correct,0.5054419522515305,1,valid_win,668.15456,67,,,,,,,,,,,,,,,,,,sub_312,2023-08-20_10h25.18.942,Reversal,2023.1.3,59.9562079857378,4,
5,exp3.png,exp4.png,,,,,,,,,,,,,,,,,,2,0,2,0,0,5,5,5,,,,,,,,,False,45,106,False,exp3.png,exp4.png,trial_right_image,-1,exp4.png,4,exp3.png,exp4.png,1,3,reversed,incorrect,0.8270914228549521,0,valid_lose,673.2365178999999,67,,,,,,,,,,,,,,,,,,sub_312,2023-08-20_10h25.18.942,Reversal,2023.1.3,59.9562079857378,4,
6,exp1.png,exp2.png,,,,,,,,,,,,,,,,,,2,0,2,0,0,6,6,6,,,,,,,,,False,46,107,False,exp1.png,exp2.png,trial_right_image,-1,exp2.png,4,exp2.png,exp1.png,1,1,non-reversed,correct,0.6997008601552202,1,valid_win,677.4015486999997,68,,,,,,,,,,,,,,,,,,sub_312,2023-08-20_10h25.18.942,Reversal,2023.1.3,59.9562079857378,4,
7,exp3.png,exp4.png,,,,,,,,,,,,,,,,,,2,0,2,0,0,7,7,7,,,,,,,,,False,47,108,True,exp4.png,exp3.png,trial_left_image,1,exp4.png,4,exp3.png,exp4.png,1,3,reversed,incorrect,0.15653087437599356,1,invalid_win,681.8333577000003,69,,,,,,,,,,,,,,,,,,sub_312,2023-08-20_10h25.18.942,Reversal,2023.1.3,59.9562079857378,4,
8,exp1.png,exp2.png,,,,,,,,,,,,,,,,,,2,0,2,0,0,8,8,8,,,,,,,,,False,48,109,False,exp1.png,exp2.png,trial_right_image,-1,exp2.png,4,exp2.png,exp1.png,1,1,non-reversed,correct,0.6539126615304893,1,valid_win,686.0982354999996,70,,,,,,,,,,,,,,,,,,sub_312,2023-08-20_10h25.18.942,Reversal,2023.1.3,59.9562079857378,4,
9,exp3.png,exp4.png,,,,,,,,,,,,,,,,,,2,0,2,0,0,9,9,9,,,,,,,,,False,49,110,True,exp4.png,exp3.png,trial_left_image,1,exp4.png,4,exp3.png,exp4.png,1,3,reversed,incorrect,0.8430920701442395,0,valid_lose,690.9801181000003,70,,,,,,,,,,,,,,,,,,sub_312,2023-08-20_10h25.18.942,Reversal,2023.1.3,59.9562079857378,4,
10,exp1.png,exp2.png,,,,,,,,,,,,,,,,,,2,0,2,0,0,10,10,10,,,,,,,,,False,50,111,True,exp2.png,exp1.png,trial_left_image,1,exp2.png,4,exp2.png,exp1.png,1,1,non-reversed,correct,0.40626403246746245,1,valid_win,695.3615460999999,71,,,,,,,,,,,,,,,,,,sub_312,2023-08-20_10h25.18.942,Reversal,2023.1.3,59.9562079857378,4,
11,exp3.png,exp4.png,,,,,,,,,,,,,,,,,,2,0,2,0,0,11,11,11,,,,,,,,,False,51,112,False,exp3.png,exp4.png,trial_left_image,1,exp3.png,4,exp3.png,exp4.png,0,4,reversed,correct,0.33342074337456495,1,valid_win,699.8769249999996,72,,,,,,,,,,,,,,,,,,sub_312,2023-08-20_10h25.18.942,Reversal,2023.1.3,59.9562079857378,4,
12,exp1.png,exp2.png,,,,,,,,,,,,,,,,,,2,0,2,0,0,12,12,12,,,,,,,,,False,52,113,True,exp2.png,exp1.png,trial_left_image,1,exp2.png,4,exp2.png,exp1.png,1,1,non-reversed,correct,0.5156198932477232,1,valid_win,704.6421610999996,73,,,,,,,,,,,,,,,,,,sub_312,2023-08-20_10h25.18.942,Reversal,2023.1.3,59.9562079857378,4,
13,exp3.png,exp4.png,,,,,,,,,,,,,,,,,,2,0,2,0,0,13,13,13,,,,,,,,,False,53,114,False,exp3.png,exp4.png,trial_right_image,-1,exp4.png,4,exp3.png,exp4.png,1,3,reversed,incorrect,0.45445278651875465,0,valid_lose,708.8575621,73,,,,,,,,,,,,,,,,,,sub_312,2023-08-20_10h25.18.942,Reversal,2023.1.3,59.9562079857378,4,
14,exp1.png,exp2.png,,,,,,,,,,,,,,,,,,2,0,2,0,0,14,14,14,,,,,,,,,False,54,115,False,exp1.png,exp2.png,trial_right_image,-1,exp2.png,4,exp2.png,exp1.png,1,1,non-reversed,correct,0.5309572970735169,1,valid_win,714.3891941000002,74,,,,,,,,,,,,,,,,,,sub_312,2023-08-20_10h25.18.942,Reversal,2023.1.3,59.9562079857378,4,
15,exp3.png,exp4.png,,,,,,,,,,,,,,,,,,2,0,2,0,0,15,15,15,,,,,,,,,False,55,116,True,exp4.png,exp3.png,trial_right_image,-1,exp3.png,4,exp3.png,exp4.png,0,4,reversed,correct,0.7815970308923201,1,valid_win,718.8542911000004,75,,,,,,,,,,,,,,,,,,sub_312,2023-08-20_10h25.18.942,Reversal,2023.1.3,59.9562079857378,4,
16,exp1.png,exp2.png,,,,,,,,,,,,,,,,,,2,0,2,0,0,16,16,16,,,,,,,,,False,56,117,True,exp2.png,exp1.png,trial_left_image,1,exp2.png,4,exp2.png,exp1.png,1,1,non-reversed,correct,0.31631941133195784,1,valid_win,723.0359263999999,76,,,,,,,,,,,,,,,,,,sub_312,2023-08-20_10h25.18.942,Reversal,2023.1.3,59.9562079857378,4,
17,exp3.png,exp4.png,,,,,,,,,,,,,,,,,,2,0,2,0,0,17,17,17,,,,,,,,,False,57,118,False,exp3.png,exp4.png,trial_right_image,-1,exp4.png,4,exp3.png,exp4.png,1,3,reversed,incorrect,0.16851651216114794,1,invalid_win,726.8005063999999,77,,,,,,,,,,,,,,,,,,sub_312,2023-08-20_10h25.18.942,Reversal,2023.1.3,59.9562079857378,4,
18,exp1.png,exp2.png,,,,,,,,,,,,,,,,,,2,0,2,0,0,18,18,18,,,,,,,,,False,58,119,False,exp1.png,exp2.png,trial_right_image,-1,exp2.png,4,exp2.png,exp1.png,1,1,non-reversed,correct,0.6771497553013421,1,valid_win,731.5828766000004,78,,,,,,,,,,,,,,,,,,sub_312,2023-08-20_10h25.18.942,Reversal,2023.1.3,59.9562079857378,4,
19,exp3.png,exp4.png,,,,,,,,,,,,,,,,,,2,0,2,0,0,19,19,19,,,,,,,,,False,59,120,True,exp4.png,exp3.png,trial_right_image,-1,exp3.png,4,exp3.png,exp4.png,0,4,reversed,correct,0.9805712849296003,1,valid_win,736.1318394999998,79,,,,,,,,,,,,,,,,,,sub_312,2023-08-20_10h25.18.942,Reversal,2023.1.3,59.9562079857378,4,
20,exp1.png,exp2.png,,,,,,,,,,,,,,,,,,2,0,2,0,0,20,20,20,,,,,,,,,True,,,,,,,,,,,,,,,,,,,,,,,,,,,,,,,,,,,,,,sub_312,2023-08-20_10h25.18.942,Reversal,2023.1.3,59.9562079857378,4,
,,,exp1.png,,,,,,,,,,,,,,,,,2,0,2,0,,,,,0,0,0,0,0,0,0,0,,,,,,,,,,,,,,,,,,,,,,826.3730829999995,4.0,4.0,8.919222399999853,"[(15.0, 7.485963599999195), (8.0, 8.21944699999949), (4.0, 8.919222399999853)]",,,,,,,,,,,,,sub_312,2023-08-20_10h25.18.942,Reversal,2023.1.3,59.9562079857378,4,
,,,exp2.png,,,,,,,,,,,,,,,,,2,0,2,0,,,,,0,0,0,0,0,1,1,1,,,,,,,,,,,,,,,,,,,,,,838.2461086999992,,100.0,1.3613980000000083,"[(100.0, 1.3613980000000083)]",100.0,,,,,,,,,,,,sub_312,2023-08-20_10h25.18.942,Reversal,2023.1.3,59.9562079857378,4,
,,,exp3.png,,,,,,,,,,,,,,,,,2,0,2,0,,,,,0,0,0,0,0,2,2,2,,,,,,,,,,,,,,,,,,,,,,840.8408282999999,,77.0,7.624926199999209,"[(77.0, 7.624926199999209)]",,77.0,,,,,,,,,,,sub_312,2023-08-20_10h25.18.942,Reversal,2023.1.3,59.9562079857378,4,
,,,exp4.png,,,,,,,,,,,,,,,,,2,0,2,0,,,,,0,0,0,0,0,3,3,3,,,,,,,,,,,,,,,,,,,,,,849.7053980000001,,26.0,1.4616778999998132,"[(26.0, 1.4616778999998132)]",,,26.0,,,,,,,,,,sub_312,2023-08-20_10h25.18.942,Reversal,2023.1.3,59.9562079857378,4,
,,,,,,,,,,,,,,,,,,,,,,,,,,,,,,,,,,,,,,,,,,,,,,,,,,,,,,,,79,,,,,,,,,,88,47,41,366.04103790000045,0,space,67.06228220000048,None,sub_312,2023-08-20_10h25.18.942,Reversal,2023.1.3,59.9562079857378,4,
