trial_index,trial_image1_file,trial_image2_file,image_file,learning_outer_loop.thisRepN,learning_outer_loop.thisTrialN,learning_outer_loop.thisN,learning_outer_loop.thisIndex,learning_inner_loop.thisRepN,learning_inner_loop.thisTrialN,learning_inner_loop.thisN,learning_inner_loop.thisIndex,learning_estimation_outer_loop.thisRepN,learning_estimation_outer_loop.thisTrialN,learning_estimation_outer_loop.thisN,learning_estimation_outer_loop.thisIndex,learning_estimation_inner_loop.thisRepN,learning_estimation_inner_loop.thisTrialN,learning_estimation_inner_loop.thisN,learning_estimation_inner_loop.thisIndex,reversal_outer_loop.thisRepN,reversal_outer_loop.thisTrialN,reversal_outer_loop.thisN,reversal_outer_loop.thisIndex,reversal_inner_loop.thisRepN,reversal_inner_loop.thisTrialN,reversal_inner_loop.thisN,reversal_inner_loop.thisIndex,reversal_estimation_outer_loop.thisRepN,reversal_estimation_outer_loop.thisTrialN,reversal_estimation_outer_loop.thisN,reversal_estimation_outer_loop.thisIndex,reversal_estimation_inner_loop.thisRepN,reversal_estimation_inner_loop.thisTrialN,reversal_estimation_inner_loop.thisN,reversal_estimation_inner_loop.thisIndex,skipped,total_trial_counter,trial_num,left_right_flip,left_image_file,right_image_file,clicked_stimulus_side,side,clicked_stimulus,version,high_prob_image_file,low_prob_image_file,choice_a,choice_b,pair_type,correct,trial_feedback_random,reward,trial_type,overall_time_after_trial,score,estimation_rating.response,estimation_rating.rt,estimation_rating.history,estimation_rating.started,estimation_rating.stopped,estimation_exp2.png,estimation_exp3.png,estimation_exp4.png,estimation_exp1.png,total_learning_time,total_correct,learning_correct,reversal_correct,total_reversal_time,extra_block,end_experiment.keys,end_experiment.rt,participant,date,expName,psychopyVersion,frameRate,ver,
0,exp1.png,exp2.png,,0,0,0,0,0,0,0,0,,,,,,,,,,,,,,,,,,,,,,,,,False,0,1,False,exp1.png,exp2.png,trial_left_image,1,exp1.png,1,exp1.png,exp2.png,1,3,reversed,correct,0.5848151989139597,1,valid_win,10.899823900021147,1,,,,,,,,,,,,,,,,,,sub_009,2022-05-23_16h32.17.150,Reversal,2022.1.2,60.027324433006605,1,
1,exp3.png,exp4.png,,0,0,0,0,0,1,1,1,,,,,,,,,,,,,,,,,,,,,,,,,False,1,2,False,exp3.png,exp4.png,trial_left_image,1,exp3.png,1,exp3.png,exp4.png,1,1,non-reversed,correct,0.756439123465725,1,valid_win,18.29985840001609,2,,,,,,,,,,,,,,,,,,sub_009,2022-05-23_16h32.17.150,Reversal,2022.1.2,60.027324433006605,1,
2,exp1.png,exp2.png,,0,0,0,0,0,2,2,2,,,,,,,,,,,,,,,,,,,,,,,,,False,2,3,False,exp1.png,exp2.png,trial_left_image,1,exp1.png,1,exp1.png,exp2.png,1,3,reversed,correct,0.5998862862165364,1,valid_win,26.7822848999931,3,,,,,,,,,,,,,,,,,,sub_009,2022-05-23_16h32.17.150,Reversal,2022.1.2,60.027324433006605,1,
3,exp3.png,exp4.png,,0,0,0,0,0,3,3,3,,,,,,,,,,,,,,,,,,,,,,,,,False,3,4,True,exp4.png,exp3.png,trial_left_image,1,exp4.png,1,exp3.png,exp4.png,0,2,non-reversed,incorrect,0.42463499150423634,0,valid_lose,33.68236989999423,3,,,,,,,,,,,,,,,,,,sub_009,2022-05-23_16h32.17.150,Reversal,2022.1.2,60.027324433006605,1,
4,exp1.png,exp2.png,,0,0,0,0,0,4,4,4,,,,,,,,,,,,,,,,,,,,,,,,,False,4,5,False,exp1.png,exp2.png,trial_left_image,1,exp1.png,1,exp1.png,exp2.png,1,3,reversed,correct,0.16608994625688678,0,invalid_lose,39.84911219999776,3,,,,,,,,,,,,,,,,,,sub_009,2022-05-23_16h32.17.150,Reversal,2022.1.2,60.027324433006605,1,
5,exp3.png,exp4.png,,0,0,0,0,0,5,5,5,,,,,,,,,,,,,,,,,,,,,,,,,False,5,6,True,exp4.png,exp3.png,trial_right_image,-1,exp3.png,1,exp3.png,exp4.png,1,1,non-reversed,correct,0.9305454672065971,1,valid_win,44.71563580000657,4,,,,,,,,,,,,,,,,,,sub_009,2022-05-23_16h32.17.150,Reversal,2022.1.2,60.027324433006605,1,
6,exp1.png,exp2.png,,0,0,0,0,0,6,6,6,,,,,,,,,,,,,,,,,,,,,,,,,False,6,7,False,exp1.png,exp2.png,trial_right_image,-1,exp2.png,1,exp1.png,exp2.png,0,4,reversed,incorrect,0.7701675157470533,0,valid_lose,50.19906980000087,4,,,,,,,,,,,,,,,,,,sub_009,2022-05-23_16h32.17.150,Reversal,2022.1.2,60.027324433006605,1,
7,exp3.png,exp4.png,,0,0,0,0,0,7,7,7,,,,,,,,,,,,,,,,,,,,,,,,,False,7,8,True,exp4.png,exp3.png,trial_left_image,1,exp4.png,1,exp3.png,exp4.png,0,2,non-reversed,incorrect,0.06269297221698056,1,invalid_win,55.365807099995436,5,,,,,,,,,,,,,,,,,,sub_009,2022-05-23_16h32.17.150,Reversal,2022.1.2,60.027324433006605,1,
8,exp1.png,exp2.png,,0,0,0,0,0,8,8,8,,,,,,,,,,,,,,,,,,,,,,,,,False,8,9,True,exp2.png,exp1.png,trial_left_image,1,exp2.png,1,exp1.png,exp2.png,0,4,reversed,incorrect,0.8484238886833773,0,valid_lose,60.36576770001557,5,,,,,,,,,,,,,,,,,,sub_009,2022-05-23_16h32.17.150,Reversal,2022.1.2,60.027324433006605,1,
9,exp3.png,exp4.png,,0,0,0,0,0,9,9,9,,,,,,,,,,,,,,,,,,,,,,,,,False,9,10,True,exp4.png,exp3.png,trial_right_image,-1,exp3.png,1,exp3.png,exp4.png,1,1,non-reversed,correct,0.8386608094834072,1,valid_win,66.39909500000067,6,,,,,,,,,,,,,,,,,,sub_009,2022-05-23_16h32.17.150,Reversal,2022.1.2,60.027324433006605,1,
10,exp1.png,exp2.png,,0,0,0,0,0,10,10,10,,,,,,,,,,,,,,,,,,,,,,,,,False,10,11,True,exp2.png,exp1.png,trial_left_image,1,exp2.png,1,exp1.png,exp2.png,0,4,reversed,incorrect,0.39450128381762195,0,valid_lose,72.7324012000172,6,,,,,,,,,,,,,,,,,,sub_009,2022-05-23_16h32.17.150,Reversal,2022.1.2,60.027324433006605,1,
11,exp3.png,exp4.png,,0,0,0,0,0,11,11,11,,,,,,,,,,,,,,,,,,,,,,,,,False,11,12,True,exp4.png,exp3.png,trial_left_image,1,exp4.png,1,exp3.png,exp4.png,0,2,non-reversed,incorrect,0.509578806614034,0,valid_lose,79.68243730001268,6,,,,,,,,,,,,,,,,,,sub_009,2022-05-23_16h32.17.150,Reversal,2022.1.2,60.027324433006605,1,
12,exp1.png,exp2.png,,0,0,0,0,0,12,12,12,,,,,,,,,,,,,,,,,,,,,,,,,False,12,13,False,exp1.png,exp2.png,trial_right_image,-1,exp2.png,1,exp1.png,exp2.png,0,4,reversed,incorrect,0.49856588369547516,0,valid_lose,84.08186619999469,6,,,,,,,,,,,,,,,,,,sub_009,2022-05-23_16h32.17.150,Reversal,2022.1.2,60.027324433006605,1,
13,exp3.png,exp4.png,,0,0,0,0,0,13,13,13,,,,,,,,,,,,,,,,,,,,,,,,,False,13,14,False,exp3.png,exp4.png,trial_right_image,-1,exp4.png,1,exp3.png,exp4.png,0,2,non-reversed,incorrect,0.16483942732211443,1,invalid_win,88.8480877999973,7,,,,,,,,,,,,,,,,,,sub_009,2022-05-23_16h32.17.150,Reversal,2022.1.2,60.027324433006605,1,
14,exp1.png,exp2.png,,0,0,0,0,0,14,14,14,,,,,,,,,,,,,,,,,,,,,,,,,False,14,15,False,exp1.png,exp2.png,trial_right_image,-1,exp2.png,1,exp1.png,exp2.png,0,4,reversed,incorrect,0.8131250447250005,0,valid_lose,94.26455829999759,7,,,,,,,,,,,,,,,,,,sub_009,2022-05-23_16h32.17.150,Reversal,2022.1.2,60.027324433006605,1,
15,exp3.png,exp4.png,,0,0,0,0,0,15,15,15,,,,,,,,,,,,,,,,,,,,,,,,,False,15,16,False,exp3.png,exp4.png,trial_left_image,1,exp3.png,1,exp3.png,exp4.png,1,1,non-reversed,correct,0.6603910415378932,1,valid_win,99.79832080000779,8,,,,,,,,,,,,,,,,,,sub_009,2022-05-23_16h32.17.150,Reversal,2022.1.2,60.027324433006605,1,
16,exp1.png,exp2.png,,0,0,0,0,0,16,16,16,,,,,,,,,,,,,,,,,,,,,,,,,False,16,17,True,exp2.png,exp1.png,trial_right_image,-1,exp1.png,1,exp1.png,exp2.png,1,3,reversed,correct,0.3987987796258574,1,valid_win,104.83149430001504,9,,,,,,,,,,,,,,,,,,sub_009,2022-05-23_16h32.17.150,Reversal,2022.1.2,60.027324433006605,1,
17,exp3.png,exp4.png,,0,0,0,0,0,17,17,17,,,,,,,,,,,,,,,,,,,,,,,,,False,17,18,False,exp3.png,exp4.png,trial_left_image,1,exp3.png,1,exp3.png,exp4.png,1,1,non-reversed,correct,0.5695242550739006,1,valid_win,109.01430510001956,10,,,,,,,,,,,,,,,,,,sub_009,2022-05-23_16h32.17.150,Reversal,2022.1.2,60.027324433006605,1,
18,exp1.png,exp2.png,,0,0,0,0,0,18,18,18,,,,,,,,,,,,,,,,,,,,,,,,,False,18,19,True,exp2.png,exp1.png,trial_right_image,-1,exp1.png,1,exp1.png,exp2.png,1,3,reversed,correct,0.9657922949309184,1,valid_win,114.31428350001806,11,,,,,,,,,,,,,,,,,,sub_009,2022-05-23_16h32.17.150,Reversal,2022.1.2,60.027324433006605,1,
19,exp3.png,exp4.png,,0,0,0,0,0,19,19,19,,,,,,,,,,,,,,,,,,,,,,,,,False,19,20,True,exp4.png,exp3.png,trial_left_image,1,exp4.png,1,exp3.png,exp4.png,0,2,non-reversed,incorrect,0.28389668454269956,0,valid_lose,118.69756520001101,11,,,,,,,,,,,,,,,,,,sub_009,2022-05-23_16h32.17.150,Reversal,2022.1.2,60.027324433006605,1,
20,exp1.png,exp2.png,,0,0,0,0,0,20,20,20,,,,,,,,,,,,,,,,,,,,,,,,,True,,,,,,,,,,,,,,,,,,,,,,,,,,,,,,,,,,,,,,sub_009,2022-05-23_16h32.17.150,Reversal,2022.1.2,60.027324433006605,1,
,,,exp1.png,0,0,0,0,,,,,0,0,0,0,0,0,0,0,,,,,,,,,,,,,,,,,,,,,,,,,,,,,,,,,,,,,,50.0,None,[],187.7151259999955,None,,,,,,,,,,,,,sub_009,2022-05-23_16h32.17.150,Reversal,2022.1.2,60.027324433006605,1,
,,,exp2.png,0,0,0,0,,,,,0,0,0,0,0,1,1,1,,,,,,,,,,,,,,,,,,,,,,,,,,,,,,,,,,,,,,65.0,6.06649210001342,"[(57.0, 4.368073000019649), (65.0, 6.06649210001342)]",203.3970047000039,None,65.0,,,,,,,,,,,,sub_009,2022-05-23_16h32.17.150,Reversal,2022.1.2,60.027324433006605,1,
,,,exp3.png,0,0,0,0,,,,,0,0,0,0,0,2,2,2,,,,,,,,,,,,,,,,,,,,,,,,,,,,,,,,,,,,,,64.0,4.267863900022348,"[(64.0, 4.267863900022348)]",210.54364469999564,None,,64.0,,,,,,,,,,,sub_009,2022-05-23_16h32.17.150,Reversal,2022.1.2,60.027324433006605,1,
,,,exp4.png,0,0,0,0,,,,,0,0,0,0,0,3,3,3,,,,,,,,,,,,,,,,,,,,,,,,,,,,,,,,,,,,,,73.0,3.0823241000180133,"[(73.0, 3.0823241000180133)]",215.97989640000742,None,,,73.0,,,,,,,,,,sub_009,2022-05-23_16h32.17.150,Reversal,2022.1.2,60.027324433006605,1,
0,exp1.png,exp2.png,,1,0,1,0,0,0,0,0,,,,,,,,,,,,,,,,,,,,,,,,,False,20,21,False,exp1.png,exp2.png,trial_left_image,1,exp1.png,1,exp1.png,exp2.png,1,3,reversed,correct,0.6307243709317388,1,valid_win,156.49695950001478,12,,,,,,,,,,,,,,,,,,sub_009,2022-05-23_16h32.17.150,Reversal,2022.1.2,60.027324433006605,1,
1,exp3.png,exp4.png,,1,0,1,0,0,1,1,1,,,,,,,,,,,,,,,,,,,,,,,,,False,21,22,False,exp3.png,exp4.png,trial_right_image,-1,exp4.png,1,exp3.png,exp4.png,0,2,non-reversed,incorrect,0.9253867215600083,0,valid_lose,161.96306589999585,12,,,,,,,,,,,,,,,,,,sub_009,2022-05-23_16h32.17.150,Reversal,2022.1.2,60.027324433006605,1,
2,exp1.png,exp2.png,,1,0,1,0,0,2,2,2,,,,,,,,,,,,,,,,,,,,,,,,,False,22,23,False,exp1.png,exp2.png,trial_left_image,1,exp1.png,1,exp1.png,exp2.png,1,3,reversed,correct,0.5353836295161951,1,valid_win,166.39657539999462,13,,,,,,,,,,,,,,,,,,sub_009,2022-05-23_16h32.17.150,Reversal,2022.1.2,60.027324433006605,1,
3,exp3.png,exp4.png,,1,0,1,0,0,3,3,3,,,,,,,,,,,,,,,,,,,,,,,,,False,23,24,True,exp4.png,exp3.png,trial_left_image,1,exp4.png,1,exp3.png,exp4.png,0,2,non-reversed,incorrect,0.5546958125921199,0,valid_lose,171.47989290000987,13,,,,,,,,,,,,,,,,,,sub_009,2022-05-23_16h32.17.150,Reversal,2022.1.2,60.027324433006605,1,
4,exp1.png,exp2.png,,1,0,1,0,0,4,4,4,,,,,,,,,,,,,,,,,,,,,,,,,False,24,25,False,exp1.png,exp2.png,trial_right_image,-1,exp2.png,1,exp1.png,exp2.png,0,4,reversed,incorrect,0.6429603124575007,0,valid_lose,175.713550400018,13,,,,,,,,,,,,,,,,,,sub_009,2022-05-23_16h32.17.150,Reversal,2022.1.2,60.027324433006605,1,
5,exp3.png,exp4.png,,1,0,1,0,0,5,5,5,,,,,,,,,,,,,,,,,,,,,,,,,False,25,26,True,exp4.png,exp3.png,trial_right_image,-1,exp3.png,1,exp3.png,exp4.png,1,1,non-reversed,correct,0.056055183934075936,0,invalid_lose,179.88017849999596,13,,,,,,,,,,,,,,,,,,sub_009,2022-05-23_16h32.17.150,Reversal,2022.1.2,60.027324433006605,1,
6,exp1.png,exp2.png,,1,0,1,0,0,6,6,6,,,,,,,,,,,,,,,,,,,,,,,,,False,26,27,False,exp1.png,exp2.png,trial_left_image,1,exp1.png,1,exp1.png,exp2.png,1,3,reversed,correct,0.2636707404681943,1,valid_win,183.94618950001313,14,,,,,,,,,,,,,,,,,,sub_009,2022-05-23_16h32.17.150,Reversal,2022.1.2,60.027324433006605,1,
7,exp3.png,exp4.png,,1,0,1,0,0,7,7,7,,,,,,,,,,,,,,,,,,,,,,,,,False,27,28,False,exp3.png,exp4.png,trial_left_image,1,exp3.png,1,exp3.png,exp4.png,1,1,non-reversed,correct,0.9787807834742565,1,valid_win,189.42993680000654,15,,,,,,,,,,,,,,,,,,sub_009,2022-05-23_16h32.17.150,Reversal,2022.1.2,60.027324433006605,1,
8,exp1.png,exp2.png,,1,0,1,0,0,8,8,8,,,,,,,,,,,,,,,,,,,,,,,,,False,28,29,True,exp2.png,exp1.png,trial_left_image,1,exp2.png,1,exp1.png,exp2.png,0,4,reversed,incorrect,0.5666493826674192,0,valid_lose,193.9633341000008,15,,,,,,,,,,,,,,,,,,sub_009,2022-05-23_16h32.17.150,Reversal,2022.1.2,60.027324433006605,1,
9,exp3.png,exp4.png,,1,0,1,0,0,9,9,9,,,,,,,,,,,,,,,,,,,,,,,,,False,29,30,False,exp3.png,exp4.png,trial_right_image,-1,exp4.png,1,exp3.png,exp4.png,0,2,non-reversed,incorrect,0.1414301670659749,1,invalid_win,199.06291100001545,16,,,,,,,,,,,,,,,,,,sub_009,2022-05-23_16h32.17.150,Reversal,2022.1.2,60.027324433006605,1,
10,exp1.png,exp2.png,,1,0,1,0,0,10,10,10,,,,,,,,,,,,,,,,,,,,,,,,,False,30,31,True,exp2.png,exp1.png,trial_left_image,1,exp2.png,1,exp1.png,exp2.png,0,4,reversed,incorrect,0.8161550924615971,0,valid_lose,203.5127798000176,16,,,,,,,,,,,,,,,,,,sub_009,2022-05-23_16h32.17.150,Reversal,2022.1.2,60.027324433006605,1,
11,exp3.png,exp4.png,,1,0,1,0,0,11,11,11,,,,,,,,,,,,,,,,,,,,,,,,,False,31,32,True,exp4.png,exp3.png,trial_right_image,-1,exp3.png,1,exp3.png,exp4.png,1,1,non-reversed,correct,0.45129093678971266,1,valid_win,207.82975410000654,17,,,,,,,,,,,,,,,,,,sub_009,2022-05-23_16h32.17.150,Reversal,2022.1.2,60.027324433006605,1,
12,exp1.png,exp2.png,,1,0,1,0,0,12,12,12,,,,,,,,,,,,,,,,,,,,,,,,,False,32,33,False,exp1.png,exp2.png,trial_right_image,-1,exp2.png,1,exp1.png,exp2.png,0,4,reversed,incorrect,0.9299155611432353,0,valid_lose,212.29589150001993,17,,,,,,,,,,,,,,,,,,sub_009,2022-05-23_16h32.17.150,Reversal,2022.1.2,60.027324433006605,1,
13,exp3.png,exp4.png,,1,0,1,0,0,13,13,13,,,,,,,,,,,,,,,,,,,,,,,,,False,33,34,True,exp4.png,exp3.png,trial_left_image,1,exp4.png,1,exp3.png,exp4.png,0,2,non-reversed,incorrect,0.6244557415136665,0,valid_lose,216.3126412999991,17,,,,,,,,,,,,,,,,,,sub_009,2022-05-23_16h32.17.150,Reversal,2022.1.2,60.027324433006605,1,
14,exp1.png,exp2.png,,1,0,1,0,0,14,14,14,,,,,,,,,,,,,,,,,,,,,,,,,False,34,35,True,exp2.png,exp1.png,trial_left_image,1,exp2.png,1,exp1.png,exp2.png,0,4,reversed,incorrect,0.9369154499503728,0,valid_lose,220.37967059999937,17,,,,,,,,,,,,,,,,,,sub_009,2022-05-23_16h32.17.150,Reversal,2022.1.2,60.027324433006605,1,
15,exp3.png,exp4.png,,1,0,1,0,0,15,15,15,,,,,,,,,,,,,,,,,,,,,,,,,False,35,36,True,exp4.png,exp3.png,trial_right_image,-1,exp3.png,1,exp3.png,exp4.png,1,1,non-reversed,correct,0.7329605387115716,1,valid_win,223.98043759999564,18,,,,,,,,,,,,,,,,,,sub_009,2022-05-23_16h32.17.150,Reversal,2022.1.2,60.027324433006605,1,
16,exp1.png,exp2.png,,1,0,1,0,0,16,16,16,,,,,,,,,,,,,,,,,,,,,,,,,False,36,37,True,exp2.png,exp1.png,trial_right_image,-1,exp1.png,1,exp1.png,exp2.png,1,3,reversed,correct,0.8167894180546922,1,valid_win,228.1291099000082,19,,,,,,,,,,,,,,,,,,sub_009,2022-05-23_16h32.17.150,Reversal,2022.1.2,60.027324433006605,1,
17,exp3.png,exp4.png,,1,0,1,0,0,17,17,17,,,,,,,,,,,,,,,,,,,,,,,,,False,37,38,False,exp3.png,exp4.png,trial_right_image,-1,exp4.png,1,exp3.png,exp4.png,0,2,non-reversed,incorrect,0.868593691407989,0,valid_lose,232.34559430001536,19,,,,,,,,,,,,,,,,,,sub_009,2022-05-23_16h32.17.150,Reversal,2022.1.2,60.027324433006605,1,
18,exp1.png,exp2.png,,1,0,1,0,0,18,18,18,,,,,,,,,,,,,,,,,,,,,,,,,False,38,39,True,exp2.png,exp1.png,trial_left_image,1,exp2.png,1,exp1.png,exp2.png,0,4,reversed,incorrect,0.12337691293876218,1,invalid_win,236.39544600000954,20,,,,,,,,,,,,,,,,,,sub_009,2022-05-23_16h32.17.150,Reversal,2022.1.2,60.027324433006605,1,
19,exp3.png,exp4.png,,1,0,1,0,0,19,19,19,,,,,,,,,,,,,,,,,,,,,,,,,False,39,40,False,exp3.png,exp4.png,trial_right_image,-1,exp4.png,1,exp3.png,exp4.png,0,2,non-reversed,incorrect,0.12552708263241552,1,invalid_win,241.89621780000743,21,,,,,,,,,,,,,,,,,,sub_009,2022-05-23_16h32.17.150,Reversal,2022.1.2,60.027324433006605,1,
20,exp1.png,exp2.png,,1,0,1,0,0,20,20,20,,,,,,,,,,,,,,,,,,,,,,,,,True,,,,,,,,,,,,,,,,,,,,,,,,,,,,,,,,,,,,,,sub_009,2022-05-23_16h32.17.150,Reversal,2022.1.2,60.027324433006605,1,
,,,exp1.png,1,0,1,0,,,,,0,0,0,0,0,0,0,0,,,,,,,,,,,,,,,,,,,,,,,,,,,,,,,,,,,,,,63.0,2.749913099978585,"[(63.0, 2.749913099978585)]",310.91067099999054,None,,,,63.0,,,,,,,,,sub_009,2022-05-23_16h32.17.150,Reversal,2022.1.2,60.027324433006605,1,
,,,exp2.png,1,0,1,0,,,,,0,0,0,0,0,1,1,1,,,,,,,,,,,,,,,,,,,,,,,,,,,,,,,,,,,,,,70.0,3.1510042999871075,"[(70.0, 3.1510042999871075)]",316.50781000001007,None,70.0,,,,,,,,,,,,sub_009,2022-05-23_16h32.17.150,Reversal,2022.1.2,60.027324433006605,1,
,,,exp3.png,1,0,1,0,,,,,0,0,0,0,0,2,2,2,,,,,,,,,,,,,,,,,,,,,,,,,,,,,,,,,,,,,,80.0,2.0846692000050098,"[(80.0, 2.0846692000050098)]",320.7398716000025,None,,80.0,,,,,,,,,,,sub_009,2022-05-23_16h32.17.150,Reversal,2022.1.2,60.027324433006605,1,
,,,exp4.png,1,0,1,0,,,,,0,0,0,0,0,3,3,3,,,,,,,,,,,,,,,,,,,,,,,,,,,,,,,,,,,,,,50.0,None,[],323.90566799999215,None,,,,,,,,,,,,,sub_009,2022-05-23_16h32.17.150,Reversal,2022.1.2,60.027324433006605,1,
0,exp1.png,exp2.png,,2,0,2,0,0,0,0,0,,,,,,,,,,,,,,,,,,,,,,,,,False,40,41,False,exp1.png,exp2.png,trial_right_image,-1,exp2.png,1,exp1.png,exp2.png,0,4,reversed,incorrect,0.9389033742170233,0,valid_lose,262.72850310002104,21,,,,,,,,,,,,,,,,,,sub_009,2022-05-23_16h32.17.150,Reversal,2022.1.2,60.027324433006605,1,
1,exp3.png,exp4.png,,2,0,2,0,0,1,1,1,,,,,,,,,,,,,,,,,,,,,,,,,False,41,42,False,exp3.png,exp4.png,trial_left_image,1,exp3.png,1,exp3.png,exp4.png,1,1,non-reversed,correct,0.5363778644028051,1,valid_win,267.1952157000196,22,,,,,,,,,,,,,,,,,,sub_009,2022-05-23_16h32.17.150,Reversal,2022.1.2,60.027324433006605,1,
2,exp1.png,exp2.png,,2,0,2,0,0,2,2,2,,,,,,,,,,,,,,,,,,,,,,,,,False,42,43,True,exp2.png,exp1.png,trial_right_image,-1,exp1.png,1,exp1.png,exp2.png,1,3,reversed,correct,0.5850516747254646,1,valid_win,271.51175659999717,23,,,,,,,,,,,,,,,,,,sub_009,2022-05-23_16h32.17.150,Reversal,2022.1.2,60.027324433006605,1,
3,exp3.png,exp4.png,,2,0,2,0,0,3,3,3,,,,,,,,,,,,,,,,,,,,,,,,,False,43,44,True,exp4.png,exp3.png,trial_left_image,1,exp4.png,1,exp3.png,exp4.png,0,2,non-reversed,incorrect,0.47846766215029124,0,valid_lose,275.62856120002107,23,,,,,,,,,,,,,,,,,,sub_009,2022-05-23_16h32.17.150,Reversal,2022.1.2,60.027324433006605,1,
4,exp1.png,exp2.png,,2,0,2,0,0,4,4,4,,,,,,,,,,,,,,,,,,,,,,,,,False,44,45,True,exp2.png,exp1.png,trial_right_image,-1,exp1.png,1,exp1.png,exp2.png,1,3,reversed,correct,0.8986968531793649,1,valid_win,279.7450187000213,24,,,,,,,,,,,,,,,,,,sub_009,2022-05-23_16h32.17.150,Reversal,2022.1.2,60.027324433006605,1,
5,exp3.png,exp4.png,,2,0,2,0,0,5,5,5,,,,,,,,,,,,,,,,,,,,,,,,,False,45,46,False,exp3.png,exp4.png,trial_left_image,1,exp3.png,1,exp3.png,exp4.png,1,1,non-reversed,correct,0.16969081592858848,0,invalid_lose,284.0449768000108,24,,,,,,,,,,,,,,,,,,sub_009,2022-05-23_16h32.17.150,Reversal,2022.1.2,60.027324433006605,1,
6,exp1.png,exp2.png,,2,0,2,0,0,6,6,6,,,,,,,,,,,,,,,,,,,,,,,,,False,46,47,False,exp1.png,exp2.png,trial_right_image,-1,exp2.png,1,exp1.png,exp2.png,0,4,reversed,incorrect,0.5414534428208759,0,valid_lose,288.5946271000139,24,,,,,,,,,,,,,,,,,,sub_009,2022-05-23_16h32.17.150,Reversal,2022.1.2,60.027324433006605,1,
7,exp3.png,exp4.png,,2,0,2,0,0,7,7,7,,,,,,,,,,,,,,,,,,,,,,,,,False,47,48,False,exp3.png,exp4.png,trial_right_image,-1,exp4.png,1,exp3.png,exp4.png,0,2,non-reversed,incorrect,0.6368258204179903,0,valid_lose,292.82823770001414,24,,,,,,,,,,,,,,,,,,sub_009,2022-05-23_16h32.17.150,Reversal,2022.1.2,60.027324433006605,1,
8,exp1.png,exp2.png,,2,0,2,0,0,8,8,8,,,,,,,,,,,,,,,,,,,,,,,,,False,48,49,False,exp1.png,exp2.png,trial_left_image,1,exp1.png,1,exp1.png,exp2.png,1,3,reversed,correct,0.8773938784440222,1,valid_win,296.76106069999514,25,,,,,,,,,,,,,,,,,,sub_009,2022-05-23_16h32.17.150,Reversal,2022.1.2,60.027324433006605,1,
9,exp3.png,exp4.png,,2,0,2,0,0,9,9,9,,,,,,,,,,,,,,,,,,,,,,,,,False,49,50,False,exp3.png,exp4.png,trial_left_image,1,exp3.png,1,exp3.png,exp4.png,1,1,non-reversed,correct,0.7713397104884896,1,valid_win,300.9284309000068,26,,,,,,,,,,,,,,,,,,sub_009,2022-05-23_16h32.17.150,Reversal,2022.1.2,60.027324433006605,1,
10,exp1.png,exp2.png,,2,0,2,0,0,10,10,10,,,,,,,,,,,,,,,,,,,,,,,,,False,50,51,False,exp1.png,exp2.png,trial_right_image,-1,exp2.png,1,exp1.png,exp2.png,0,4,reversed,incorrect,0.08015919243566949,1,invalid_win,305.59461709999596,27,,,,,,,,,,,,,,,,,,sub_009,2022-05-23_16h32.17.150,Reversal,2022.1.2,60.027324433006605,1,
11,exp3.png,exp4.png,,2,0,2,0,0,11,11,11,,,,,,,,,,,,,,,,,,,,,,,,,False,51,52,False,exp3.png,exp4.png,trial_left_image,1,exp3.png,1,exp3.png,exp4.png,1,1,non-reversed,correct,0.5959167801780666,1,valid_win,310.67788850000943,28,,,,,,,,,,,,,,,,,,sub_009,2022-05-23_16h32.17.150,Reversal,2022.1.2,60.027324433006605,1,
12,exp1.png,exp2.png,,2,0,2,0,0,12,12,12,,,,,,,,,,,,,,,,,,,,,,,,,False,52,53,True,exp2.png,exp1.png,trial_right_image,-1,exp1.png,1,exp1.png,exp2.png,1,3,reversed,correct,0.47558287351150064,1,valid_win,315.02801400001044,29,,,,,,,,,,,,,,,,,,sub_009,2022-05-23_16h32.17.150,Reversal,2022.1.2,60.027324433006605,1,
13,exp3.png,exp4.png,,2,0,2,0,0,13,13,13,,,,,,,,,,,,,,,,,,,,,,,,,False,53,54,True,exp4.png,exp3.png,trial_left_image,1,exp4.png,1,exp3.png,exp4.png,0,2,non-reversed,incorrect,0.36160584870153545,0,valid_lose,320.7941406000173,29,,,,,,,,,,,,,,,,,,sub_009,2022-05-23_16h32.17.150,Reversal,2022.1.2,60.027324433006605,1,
14,exp1.png,exp2.png,,2,0,2,0,0,14,14,14,,,,,,,,,,,,,,,,,,,,,,,,,False,54,55,True,exp2.png,exp1.png,trial_left_image,1,exp2.png,1,exp1.png,exp2.png,0,4,reversed,incorrect,0.12154165117137561,1,invalid_win,325.1109652000014,30,,,,,,,,,,,,,,,,,,sub_009,2022-05-23_16h32.17.150,Reversal,2022.1.2,60.027324433006605,1,
15,exp3.png,exp4.png,,2,0,2,0,0,15,15,15,,,,,,,,,,,,,,,,,,,,,,,,,False,55,56,True,exp4.png,exp3.png,trial_right_image,-1,exp3.png,1,exp3.png,exp4.png,1,1,non-reversed,correct,0.43472268139566717,1,valid_win,329.44362880001427,31,,,,,,,,,,,,,,,,,,sub_009,2022-05-23_16h32.17.150,Reversal,2022.1.2,60.027324433006605,1,
16,exp1.png,exp2.png,,2,0,2,0,0,16,16,16,,,,,,,,,,,,,,,,,,,,,,,,,False,56,57,False,exp1.png,exp2.png,trial_right_image,-1,exp2.png,1,exp1.png,exp2.png,0,4,reversed,incorrect,0.8866116068162304,0,valid_lose,334.81125830000383,31,,,,,,,,,,,,,,,,,,sub_009,2022-05-23_16h32.17.150,Reversal,2022.1.2,60.027324433006605,1,
17,exp3.png,exp4.png,,2,0,2,0,0,17,17,17,,,,,,,,,,,,,,,,,,,,,,,,,False,57,58,True,exp4.png,exp3.png,trial_left_image,1,exp4.png,1,exp3.png,exp4.png,0,2,non-reversed,incorrect,0.6127123969991853,0,valid_lose,339.5938002000039,31,,,,,,,,,,,,,,,,,,sub_009,2022-05-23_16h32.17.150,Reversal,2022.1.2,60.027324433006605,1,
18,exp1.png,exp2.png,,2,0,2,0,0,18,18,18,,,,,,,,,,,,,,,,,,,,,,,,,False,58,59,True,exp2.png,exp1.png,trial_left_image,1,exp2.png,1,exp1.png,exp2.png,0,4,reversed,incorrect,0.7761891263142245,0,valid_lose,343.7270637000038,31,,,,,,,,,,,,,,,,,,sub_009,2022-05-23_16h32.17.150,Reversal,2022.1.2,60.027324433006605,1,
19,exp3.png,exp4.png,,2,0,2,0,0,19,19,19,,,,,,,,,,,,,,,,,,,,,,,,,False,59,60,True,exp4.png,exp3.png,trial_right_image,-1,exp3.png,1,exp3.png,exp4.png,1,1,non-reversed,correct,0.6371992078414773,1,valid_win,347.8600999000191,32,,,,,,,,,,,,,,,,,,sub_009,2022-05-23_16h32.17.150,Reversal,2022.1.2,60.027324433006605,1,
20,exp1.png,exp2.png,,2,0,2,0,0,20,20,20,,,,,,,,,,,,,,,,,,,,,,,,,True,,,,,,,,,,,,,,,,,,,,,,,,,,,,,,,,,,,,,,sub_009,2022-05-23_16h32.17.150,Reversal,2022.1.2,60.027324433006605,1,
,,,exp1.png,2,0,2,0,,,,,0,0,0,0,0,0,0,0,,,,,,,,,,,,,,,,,,,,,,,,,,,,,,,,,,,,,,50.0,None,[],416.8791815000004,None,,,,,,,,,,,,,sub_009,2022-05-23_16h32.17.150,Reversal,2022.1.2,60.027324433006605,1,
,,,exp2.png,2,0,2,0,,,,,0,0,0,0,0,1,1,1,,,,,,,,,,,,,,,,,,,,,,,,,,,,,,,,,,,,,,50.0,None,[],419.89438929999596,None,,,,,,,,,,,,,sub_009,2022-05-23_16h32.17.150,Reversal,2022.1.2,60.027324433006605,1,
,,,exp3.png,2,0,2,0,,,,,0,0,0,0,0,2,2,2,,,,,,,,,,,,,,,,,,,,,,,,,,,,,,,,,,,,,,56.0,1.3517510000092443,"[(56.0, 1.3517510000092443)]",420.3375503999996,None,,56.0,,,,,,,,,,,sub_009,2022-05-23_16h32.17.150,Reversal,2022.1.2,60.027324433006605,1,
,,,exp4.png,2,0,2,0,,,,,0,0,0,0,0,3,3,3,,,,,,,,,,,,,,,,,,,,,,,,,,,,,,,,,,,,,,61.0,1.1998624000116251,"[(61.0, 1.1998624000116251)]",422.9247570000007,None,,,61.0,,,,,,,,,,sub_009,2022-05-23_16h32.17.150,Reversal,2022.1.2,60.027324433006605,1,
0,exp1.png,exp2.png,,3,0,3,0,0,0,0,0,,,,,,,,,,,,,,,,,,,,,,,,,False,60,61,False,exp1.png,exp2.png,trial_left_image,1,exp1.png,1,exp1.png,exp2.png,1,3,reversed,correct,0.44142700565276694,1,valid_win,360.77660030001425,33,,,,,,,,,,,,,,,,,,sub_009,2022-05-23_16h32.17.150,Reversal,2022.1.2,60.027324433006605,1,
1,exp3.png,exp4.png,,3,0,3,0,0,1,1,1,,,,,,,,,,,,,,,,,,,,,,,,,False,61,62,True,exp4.png,exp3.png,trial_right_image,-1,exp3.png,1,exp3.png,exp4.png,1,1,non-reversed,correct,0.8770624932941905,1,valid_win,364.727189199999,34,,,,,,,,,,,,,,,,,,sub_009,2022-05-23_16h32.17.150,Reversal,2022.1.2,60.027324433006605,1,
2,exp1.png,exp2.png,,3,0,3,0,0,2,2,2,,,,,,,,,,,,,,,,,,,,,,,,,False,62,63,False,exp1.png,exp2.png,trial_left_image,1,exp1.png,1,exp1.png,exp2.png,1,3,reversed,correct,0.3410351884351057,1,valid_win,368.86043440000503,35,,,,,,,,,,,,,,,,,,sub_009,2022-05-23_16h32.17.150,Reversal,2022.1.2,60.027324433006605,1,
3,exp3.png,exp4.png,,3,0,3,0,0,3,3,3,,,,,,,,,,,,,,,,,,,,,,,,,False,63,64,False,exp3.png,exp4.png,trial_right_image,-1,exp4.png,1,exp3.png,exp4.png,0,2,non-reversed,incorrect,0.8000797711367984,0,valid_lose,373.32679530000314,35,,,,,,,,,,,,,,,,,,sub_009,2022-05-23_16h32.17.150,Reversal,2022.1.2,60.027324433006605,1,
4,exp1.png,exp2.png,,3,0,3,0,0,4,4,4,,,,,,,,,,,,,,,,,,,,,,,,,False,64,65,False,exp1.png,exp2.png,trial_right_image,-1,exp2.png,1,exp1.png,exp2.png,0,4,reversed,incorrect,0.16077165173391605,1,invalid_win,378.40975950000575,36,,,,,,,,,,,,,,,,,,sub_009,2022-05-23_16h32.17.150,Reversal,2022.1.2,60.027324433006605,1,
5,exp3.png,exp4.png,,3,0,3,0,0,5,5,5,,,,,,,,,,,,,,,,,,,,,,,,,False,65,66,True,exp4.png,exp3.png,trial_left_image,1,exp4.png,1,exp3.png,exp4.png,0,2,non-reversed,incorrect,0.6489992081837765,0,valid_lose,381.9957623000082,36,,,,,,,,,,,,,,,,,,sub_009,2022-05-23_16h32.17.150,Reversal,2022.1.2,60.027324433006605,1,
6,exp1.png,exp2.png,,3,0,3,0,0,6,6,6,,,,,,,,,,,,,,,,,,,,,,,,,False,66,67,True,exp2.png,exp1.png,trial_right_image,-1,exp1.png,1,exp1.png,exp2.png,1,3,reversed,correct,0.5776592339970344,1,valid_win,386.09346580001875,37,,,,,,,,,,,,,,,,,,sub_009,2022-05-23_16h32.17.150,Reversal,2022.1.2,60.027324433006605,1,
7,exp3.png,exp4.png,,3,0,3,0,0,7,7,7,,,,,,,,,,,,,,,,,,,,,,,,,False,67,68,True,exp4.png,exp3.png,trial_left_image,1,exp4.png,1,exp3.png,exp4.png,0,2,non-reversed,incorrect,0.59973726466834,0,valid_lose,390.59334880000097,37,,,,,,,,,,,,,,,,,,sub_009,2022-05-23_16h32.17.150,Reversal,2022.1.2,60.027324433006605,1,
8,exp1.png,exp2.png,,3,0,3,0,0,8,8,8,,,,,,,,,,,,,,,,,,,,,,,,,False,68,69,False,exp1.png,exp2.png,trial_right_image,-1,exp2.png,1,exp1.png,exp2.png,0,4,reversed,incorrect,0.15137325014424519,1,invalid_win,394.59306370001286,38,,,,,,,,,,,,,,,,,,sub_009,2022-05-23_16h32.17.150,Reversal,2022.1.2,60.027324433006605,1,
9,exp3.png,exp4.png,,3,0,3,0,0,9,9,9,,,,,,,,,,,,,,,,,,,,,,,,,False,69,70,True,exp4.png,exp3.png,trial_right_image,-1,exp3.png,1,exp3.png,exp4.png,1,1,non-reversed,correct,0.11800754839197791,0,invalid_lose,398.6762418000144,38,,,,,,,,,,,,,,,,,,sub_009,2022-05-23_16h32.17.150,Reversal,2022.1.2,60.027324433006605,1,
10,exp1.png,exp2.png,,3,0,3,0,0,10,10,10,,,,,,,,,,,,,,,,,,,,,,,,,False,70,71,False,exp1.png,exp2.png,trial_left_image,1,exp1.png,1,exp1.png,exp2.png,1,3,reversed,correct,0.2760572997252657,1,valid_win,402.39286910000374,39,,,,,,,,,,,,,,,,,,sub_009,2022-05-23_16h32.17.150,Reversal,2022.1.2,60.027324433006605,1,
11,exp3.png,exp4.png,,3,0,3,0,0,11,11,11,,,,,,,,,,,,,,,,,,,,,,,,,False,71,72,False,exp3.png,exp4.png,trial_right_image,-1,exp4.png,1,exp3.png,exp4.png,0,2,non-reversed,incorrect,0.3192070360535334,0,valid_lose,408.4264952999947,39,,,,,,,,,,,,,,,,,,sub_009,2022-05-23_16h32.17.150,Reversal,2022.1.2,60.027324433006605,1,
12,exp1.png,exp2.png,,3,0,3,0,0,12,12,12,,,,,,,,,,,,,,,,,,,,,,,,,False,72,73,True,exp2.png,exp1.png,trial_left_image,1,exp2.png,1,exp1.png,exp2.png,0,4,reversed,incorrect,0.9157194485211179,0,valid_lose,412.9095307000098,39,,,,,,,,,,,,,,,,,,sub_009,2022-05-23_16h32.17.150,Reversal,2022.1.2,60.027324433006605,1,
13,exp3.png,exp4.png,,3,0,3,0,0,13,13,13,,,,,,,,,,,,,,,,,,,,,,,,,False,73,74,False,exp3.png,exp4.png,trial_left_image,1,exp3.png,1,exp3.png,exp4.png,1,1,non-reversed,correct,0.6549452184205665,1,valid_win,418.14284060001955,40,,,,,,,,,,,,,,,,,,sub_009,2022-05-23_16h32.17.150,Reversal,2022.1.2,60.027324433006605,1,
14,exp1.png,exp2.png,,3,0,3,0,0,14,14,14,,,,,,,,,,,,,,,,,,,,,,,,,False,74,75,False,exp1.png,exp2.png,trial_right_image,-1,exp2.png,1,exp1.png,exp2.png,0,4,reversed,incorrect,0.19495002165913955,1,invalid_win,423.4418140000198,41,,,,,,,,,,,,,,,,,,sub_009,2022-05-23_16h32.17.150,Reversal,2022.1.2,60.027324433006605,1,
15,exp3.png,exp4.png,,3,0,3,0,0,15,15,15,,,,,,,,,,,,,,,,,,,,,,,,,False,75,76,True,exp4.png,exp3.png,trial_left_image,1,exp4.png,1,exp3.png,exp4.png,0,2,non-reversed,incorrect,0.9505074776541679,0,valid_lose,428.475980600022,41,,,,,,,,,,,,,,,,,,sub_009,2022-05-23_16h32.17.150,Reversal,2022.1.2,60.027324433006605,1,
16,exp1.png,exp2.png,,3,0,3,0,0,16,16,16,,,,,,,,,,,,,,,,,,,,,,,,,False,76,77,True,exp2.png,exp1.png,trial_left_image,1,exp2.png,1,exp1.png,exp2.png,0,4,reversed,incorrect,0.3551120050421994,0,valid_lose,432.7420700000075,41,,,,,,,,,,,,,,,,,,sub_009,2022-05-23_16h32.17.150,Reversal,2022.1.2,60.027324433006605,1,
17,exp3.png,exp4.png,,3,0,3,0,0,17,17,17,,,,,,,,,,,,,,,,,,,,,,,,,False,77,78,False,exp3.png,exp4.png,trial_right_image,-1,exp4.png,1,exp3.png,exp4.png,0,2,non-reversed,incorrect,0.1998195282101055,1,invalid_win,436.65887800001656,42,,,,,,,,,,,,,,,,,,sub_009,2022-05-23_16h32.17.150,Reversal,2022.1.2,60.027324433006605,1,
18,exp1.png,exp2.png,,3,0,3,0,0,18,18,18,,,,,,,,,,,,,,,,,,,,,,,,,False,78,79,True,exp2.png,exp1.png,trial_right_image,-1,exp1.png,1,exp1.png,exp2.png,1,3,reversed,correct,0.4934457152757219,1,valid_win,441.3591693000053,43,,,,,,,,,,,,,,,,,,sub_009,2022-05-23_16h32.17.150,Reversal,2022.1.2,60.027324433006605,1,
19,exp3.png,exp4.png,,3,0,3,0,0,19,19,19,,,,,,,,,,,,,,,,,,,,,,,,,False,79,80,True,exp4.png,exp3.png,trial_left_image,1,exp4.png,1,exp3.png,exp4.png,0,2,non-reversed,incorrect,0.9261871740767257,0,valid_lose,445.40888730000006,43,,,,,,,,,,,,,,,,,,sub_009,2022-05-23_16h32.17.150,Reversal,2022.1.2,60.027324433006605,1,
20,exp1.png,exp2.png,,3,0,3,0,0,20,20,20,,,,,,,,,,,,,,,,,,,,,,,,,True,,,,,,,,,,,,,,,,,,,,,,,,,,,,,,,,,,,,,,sub_009,2022-05-23_16h32.17.150,Reversal,2022.1.2,60.027324433006605,1,
,,,exp1.png,3,0,3,0,,,,,0,0,0,0,0,0,0,0,,,,,,,,,,,,,,,,,,,,,,,,,,,,,,,,,,,,,,50.0,None,[],514.4294600000139,None,,,,,,,,,,,,,sub_009,2022-05-23_16h32.17.150,Reversal,2022.1.2,60.027324433006605,1,
,,,exp2.png,3,0,3,0,,,,,0,0,0,0,0,1,1,1,,,,,,,,,,,,,,,,,,,,,,,,,,,,,,,,,,,,,,50.0,None,[],517.6705565000011,None,,,,,,,,,,,,,sub_009,2022-05-23_16h32.17.150,Reversal,2022.1.2,60.027324433006605,1,
,,,exp3.png,3,0,3,0,,,,,0,0,0,0,0,2,2,2,,,,,,,,,,,,,,,,,,,,,,,,,,,,,,,,,,,,,,56.0,1.3354707999969833,"[(56.0, 1.3354707999969833)]",518.1194817000069,None,,56.0,,,,,,,,,,,sub_009,2022-05-23_16h32.17.150,Reversal,2022.1.2,60.027324433006605,1,
,,,exp4.png,3,0,3,0,,,,,0,0,0,0,0,3,3,3,,,,,,,,,,,,,,,,,,,,,,,,,,,,,,,,,,,,,,73.0,1.1824003999936394,"[(73.0, 1.1824003999936394)]",520.6720163999998,None,,,73.0,,,,,,,,,,sub_009,2022-05-23_16h32.17.150,Reversal,2022.1.2,60.027324433006605,1,
0,exp1.png,exp2.png,,,,,,,,,,,,,,,,,,0,0,0,0,0,0,0,0,,,,,,,,,False,0,81,False,exp1.png,exp2.png,trial_left_image,1,exp1.png,1,exp2.png,exp1.png,1,3,reversed,incorrect,0.5945136210727081,0,valid_lose,461.1247141000058,43,,,,,,,,,,456.52777489999426,,,,,,,,sub_009,2022-05-23_16h32.17.150,Reversal,2022.1.2,60.027324433006605,1,
1,exp3.png,exp4.png,,,,,,,,,,,,,,,,,,0,0,0,0,0,1,1,1,,,,,,,,,False,1,82,False,exp3.png,exp4.png,trial_right_image,-1,exp4.png,1,exp3.png,exp4.png,0,2,non-reversed,incorrect,0.7103989140562494,0,valid_lose,465.3085667999985,43,,,,,,,,,,,,,,,,,,sub_009,2022-05-23_16h32.17.150,Reversal,2022.1.2,60.027324433006605,1,
2,exp1.png,exp2.png,,,,,,,,,,,,,,,,,,0,0,0,0,0,2,2,2,,,,,,,,,False,2,83,True,exp2.png,exp1.png,trial_left_image,1,exp2.png,1,exp2.png,exp1.png,0,4,reversed,correct,0.04253325347732295,0,invalid_lose,469.40889230000903,43,,,,,,,,,,,,,,,,,,sub_009,2022-05-23_16h32.17.150,Reversal,2022.1.2,60.027324433006605,1,
3,exp3.png,exp4.png,,,,,,,,,,,,,,,,,,0,0,0,0,0,3,3,3,,,,,,,,,False,3,84,False,exp3.png,exp4.png,trial_left_image,1,exp3.png,1,exp3.png,exp4.png,1,1,non-reversed,correct,0.13466325394112288,0,invalid_lose,473.8751903999946,43,,,,,,,,,,,,,,,,,,sub_009,2022-05-23_16h32.17.150,Reversal,2022.1.2,60.027324433006605,1,
4,exp1.png,exp2.png,,,,,,,,,,,,,,,,,,0,0,0,0,0,4,4,4,,,,,,,,,False,4,85,True,exp2.png,exp1.png,trial_right_image,-1,exp1.png,1,exp2.png,exp1.png,1,3,reversed,incorrect,0.6042253059172268,0,valid_lose,478.3586643000017,43,,,,,,,,,,,,,,,,,,sub_009,2022-05-23_16h32.17.150,Reversal,2022.1.2,60.027324433006605,1,
5,exp3.png,exp4.png,,,,,,,,,,,,,,,,,,0,0,0,0,0,5,5,5,,,,,,,,,False,5,86,False,exp3.png,exp4.png,trial_right_image,-1,exp4.png,1,exp3.png,exp4.png,0,2,non-reversed,incorrect,0.9878623293397805,0,valid_lose,481.9752926999936,43,,,,,,,,,,,,,,,,,,sub_009,2022-05-23_16h32.17.150,Reversal,2022.1.2,60.027324433006605,1,
6,exp1.png,exp2.png,,,,,,,,,,,,,,,,,,0,0,0,0,0,6,6,6,,,,,,,,,False,6,87,False,exp1.png,exp2.png,trial_left_image,1,exp1.png,1,exp2.png,exp1.png,1,3,reversed,incorrect,0.9337030561081636,0,valid_lose,486.04215990001103,43,,,,,,,,,,,,,,,,,,sub_009,2022-05-23_16h32.17.150,Reversal,2022.1.2,60.027324433006605,1,
7,exp3.png,exp4.png,,,,,,,,,,,,,,,,,,0,0,0,0,0,7,7,7,,,,,,,,,False,7,88,True,exp4.png,exp3.png,trial_right_image,-1,exp3.png,1,exp3.png,exp4.png,1,1,non-reversed,correct,0.07606116169503863,0,invalid_lose,490.60813840001356,43,,,,,,,,,,,,,,,,,,sub_009,2022-05-23_16h32.17.150,Reversal,2022.1.2,60.027324433006605,1,
8,exp1.png,exp2.png,,,,,,,,,,,,,,,,,,0,0,0,0,0,8,8,8,,,,,,,,,False,8,89,False,exp1.png,exp2.png,trial_left_image,1,exp1.png,1,exp2.png,exp1.png,1,3,reversed,incorrect,0.08363993272396308,1,invalid_win,494.608216099994,44,,,,,,,,,,,,,,,,,,sub_009,2022-05-23_16h32.17.150,Reversal,2022.1.2,60.027324433006605,1,
9,exp3.png,exp4.png,,,,,,,,,,,,,,,,,,0,0,0,0,0,9,9,9,,,,,,,,,False,9,90,True,exp4.png,exp3.png,trial_right_image,-1,exp3.png,1,exp3.png,exp4.png,1,1,non-reversed,correct,0.8752663566274086,1,valid_win,498.5408413000114,45,,,,,,,,,,,,,,,,,,sub_009,2022-05-23_16h32.17.150,Reversal,2022.1.2,60.027324433006605,1,
10,exp1.png,exp2.png,,,,,,,,,,,,,,,,,,0,0,0,0,0,10,10,10,,,,,,,,,False,10,91,True,exp2.png,exp1.png,trial_left_image,1,exp2.png,1,exp2.png,exp1.png,0,4,reversed,correct,0.19545687176762416,0,invalid_lose,502.70764430001145,45,,,,,,,,,,,,,,,,,,sub_009,2022-05-23_16h32.17.150,Reversal,2022.1.2,60.027324433006605,1,
11,exp3.png,exp4.png,,,,,,,,,,,,,,,,,,0,0,0,0,0,11,11,11,,,,,,,,,False,11,92,True,exp4.png,exp3.png,trial_right_image,-1,exp3.png,1,exp3.png,exp4.png,1,1,non-reversed,correct,0.6249306679640662,1,valid_win,506.7410799000063,46,,,,,,,,,,,,,,,,,,sub_009,2022-05-23_16h32.17.150,Reversal,2022.1.2,60.027324433006605,1,
12,exp1.png,exp2.png,,,,,,,,,,,,,,,,,,0,0,0,0,0,12,12,12,,,,,,,,,False,12,93,False,exp1.png,exp2.png,trial_right_image,-1,exp2.png,1,exp2.png,exp1.png,0,4,reversed,correct,0.046767945798656174,0,invalid_lose,511.0740613999951,46,,,,,,,,,,,,,,,,,,sub_009,2022-05-23_16h32.17.150,Reversal,2022.1.2,60.027324433006605,1,
13,exp3.png,exp4.png,,,,,,,,,,,,,,,,,,0,0,0,0,0,13,13,13,,,,,,,,,False,13,94,True,exp4.png,exp3.png,trial_left_image,1,exp4.png,1,exp3.png,exp4.png,0,2,non-reversed,incorrect,0.1724855871050529,1,invalid_win,515.3242474000144,47,,,,,,,,,,,,,,,,,,sub_009,2022-05-23_16h32.17.150,Reversal,2022.1.2,60.027324433006605,1,
14,exp1.png,exp2.png,,,,,,,,,,,,,,,,,,0,0,0,0,0,14,14,14,,,,,,,,,False,14,95,True,exp2.png,exp1.png,trial_right_image,-1,exp1.png,1,exp2.png,exp1.png,1,3,reversed,incorrect,0.7210632982453815,0,valid_lose,519.5744294000033,47,,,,,,,,,,,,,,,,,,sub_009,2022-05-23_16h32.17.150,Reversal,2022.1.2,60.027324433006605,1,
15,exp3.png,exp4.png,,,,,,,,,,,,,,,,,,0,0,0,0,0,15,15,15,,,,,,,,,False,15,96,False,exp3.png,exp4.png,trial_left_image,1,exp3.png,1,exp3.png,exp4.png,1,1,non-reversed,correct,0.5200314517991742,1,valid_win,523.5575442000118,48,,,,,,,,,,,,,,,,,,sub_009,2022-05-23_16h32.17.150,Reversal,2022.1.2,60.027324433006605,1,
16,exp1.png,exp2.png,,,,,,,,,,,,,,,,,,0,0,0,0,0,16,16,16,,,,,,,,,False,16,97,True,exp2.png,exp1.png,trial_left_image,1,exp2.png,1,exp2.png,exp1.png,0,4,reversed,correct,0.5768373826249109,1,valid_win,527.5071248000022,49,,,,,,,,,,,,,,,,,,sub_009,2022-05-23_16h32.17.150,Reversal,2022.1.2,60.027324433006605,1,
17,exp3.png,exp4.png,,,,,,,,,,,,,,,,,,0,0,0,0,0,17,17,17,,,,,,,,,False,17,98,True,exp4.png,exp3.png,trial_left_image,1,exp4.png,1,exp3.png,exp4.png,0,2,non-reversed,incorrect,0.6649108405816416,0,valid_lose,531.6243030000187,49,,,,,,,,,,,,,,,,,,sub_009,2022-05-23_16h32.17.150,Reversal,2022.1.2,60.027324433006605,1,
18,exp1.png,exp2.png,,,,,,,,,,,,,,,,,,0,0,0,0,0,18,18,18,,,,,,,,,False,18,99,False,exp1.png,exp2.png,trial_right_image,-1,exp2.png,1,exp2.png,exp1.png,0,4,reversed,correct,0.4849842708552067,1,valid_win,535.8408773000119,50,,,,,,,,,,,,,,,,,,sub_009,2022-05-23_16h32.17.150,Reversal,2022.1.2,60.027324433006605,1,
19,exp3.png,exp4.png,,,,,,,,,,,,,,,,,,0,0,0,0,0,19,19,19,,,,,,,,,False,19,100,False,exp3.png,exp4.png,trial_right_image,-1,exp4.png,1,exp3.png,exp4.png,0,2,non-reversed,incorrect,0.7148042152679025,0,valid_lose,545.090242300008,50,,,,,,,,,,,,,,,,,,sub_009,2022-05-23_16h32.17.150,Reversal,2022.1.2,60.027324433006605,1,
20,exp1.png,exp2.png,,,,,,,,,,,,,,,,,,0,0,0,0,0,20,20,20,,,,,,,,,True,,,,,,,,,,,,,,,,,,,,,,,,,,,,,,,,,,,,,,sub_009,2022-05-23_16h32.17.150,Reversal,2022.1.2,60.027324433006605,1,
,,,exp1.png,,,,,,,,,,,,,,,,,0,0,0,0,,,,,0,0,0,0,0,0,0,0,,,,,,,,,,,,,,,,,,,,,,86.0,2.6247847999911755,"[(86.0, 2.6247847999911755)]",614.1190063999966,None,,,,86.0,,,,,,,,,sub_009,2022-05-23_16h32.17.150,Reversal,2022.1.2,60.027324433006605,1,
,,,exp2.png,,,,,,,,,,,,,,,,,0,0,0,0,,,,,0,0,0,0,0,1,1,1,,,,,,,,,,,,,,,,,,,,,,73.0,1.752725600003032,"[(73.0, 1.752725600003032)]",618.0182503999968,None,73.0,,,,,,,,,,,,sub_009,2022-05-23_16h32.17.150,Reversal,2022.1.2,60.027324433006605,1,
,,,exp3.png,,,,,,,,,,,,,,,,,0,0,0,0,,,,,0,0,0,0,0,2,2,2,,,,,,,,,,,,,,,,,,,,,,61.0,1.3004995000083,"[(61.0, 1.3004995000083)]",620.9191364000144,None,,61.0,,,,,,,,,,,sub_009,2022-05-23_16h32.17.150,Reversal,2022.1.2,60.027324433006605,1,
,,,exp4.png,,,,,,,,,,,,,,,,,0,0,0,0,,,,,0,0,0,0,0,3,3,3,,,,,,,,,,,,,,,,,,,,,,72.0,1.2177164999884553,"[(72.0, 1.2177164999884553)]",623.2520666999917,None,,,72.0,,,,,,,,,,sub_009,2022-05-23_16h32.17.150,Reversal,2022.1.2,60.027324433006605,1,
0,exp1.png,exp2.png,,,,,,,,,,,,,,,,,,1,0,1,0,0,0,0,0,,,,,,,,,False,20,101,True,exp2.png,exp1.png,trial_left_image,1,exp2.png,1,exp2.png,exp1.png,0,4,reversed,correct,0.9459023602568816,1,valid_win,561.1566246000002,51,,,,,,,,,,,,,,,,,,sub_009,2022-05-23_16h32.17.150,Reversal,2022.1.2,60.027324433006605,1,
1,exp3.png,exp4.png,,,,,,,,,,,,,,,,,,1,0,1,0,0,1,1,1,,,,,,,,,False,21,102,False,exp3.png,exp4.png,trial_right_image,-1,exp4.png,1,exp3.png,exp4.png,0,2,non-reversed,incorrect,0.44187084076027283,0,valid_lose,566.3571161,51,,,,,,,,,,,,,,,,,,sub_009,2022-05-23_16h32.17.150,Reversal,2022.1.2,60.027324433006605,1,
2,exp1.png,exp2.png,,,,,,,,,,,,,,,,,,1,0,1,0,0,2,2,2,,,,,,,,,False,22,103,True,exp2.png,exp1.png,trial_left_image,1,exp2.png,1,exp2.png,exp1.png,0,4,reversed,correct,0.47366724569090546,1,valid_win,572.2897070000181,52,,,,,,,,,,,,,,,,,,sub_009,2022-05-23_16h32.17.150,Reversal,2022.1.2,60.027324433006605,1,
3,exp3.png,exp4.png,,,,,,,,,,,,,,,,,,1,0,1,0,0,3,3,3,,,,,,,,,False,23,104,True,exp4.png,exp3.png,trial_right_image,-1,exp3.png,1,exp3.png,exp4.png,1,1,non-reversed,correct,0.7611198619518768,1,valid_win,577.6399800000072,53,,,,,,,,,,,,,,,,,,sub_009,2022-05-23_16h32.17.150,Reversal,2022.1.2,60.027324433006605,1,
4,exp1.png,exp2.png,,,,,,,,,,,,,,,,,,1,0,1,0,0,4,4,4,,,,,,,,,False,24,105,True,exp2.png,exp1.png,trial_right_image,-1,exp1.png,1,exp2.png,exp1.png,1,3,reversed,incorrect,0.6410976107856247,0,valid_lose,582.273463599995,53,,,,,,,,,,,,,,,,,,sub_009,2022-05-23_16h32.17.150,Reversal,2022.1.2,60.027324433006605,1,
5,exp3.png,exp4.png,,,,,,,,,,,,,,,,,,1,0,1,0,0,5,5,5,,,,,,,,,False,25,106,False,exp3.png,exp4.png,trial_left_image,1,exp3.png,1,exp3.png,exp4.png,1,1,non-reversed,correct,0.8100027507458712,1,valid_win,586.4232962999959,54,,,,,,,,,,,,,,,,,,sub_009,2022-05-23_16h32.17.150,Reversal,2022.1.2,60.027324433006605,1,
6,exp1.png,exp2.png,,,,,,,,,,,,,,,,,,1,0,1,0,0,6,6,6,,,,,,,,,False,26,107,False,exp1.png,exp2.png,trial_left_image,1,exp1.png,1,exp2.png,exp1.png,1,3,reversed,incorrect,0.7382541417288072,0,valid_lose,590.6064432999992,54,,,,,,,,,,,,,,,,,,sub_009,2022-05-23_16h32.17.150,Reversal,2022.1.2,60.027324433006605,1,
7,exp3.png,exp4.png,,,,,,,,,,,,,,,,,,1,0,1,0,0,7,7,7,,,,,,,,,False,27,108,False,exp3.png,exp4.png,trial_right_image,-1,exp4.png,1,exp3.png,exp4.png,0,2,non-reversed,incorrect,0.8594741100747683,0,valid_lose,596.7726527000195,54,,,,,,,,,,,,,,,,,,sub_009,2022-05-23_16h32.17.150,Reversal,2022.1.2,60.027324433006605,1,
8,exp1.png,exp2.png,,,,,,,,,,,,,,,,,,1,0,1,0,0,8,8,8,,,,,,,,,False,28,109,False,exp1.png,exp2.png,trial_right_image,-1,exp2.png,1,exp2.png,exp1.png,0,4,reversed,correct,0.6881834536621702,1,valid_win,600.7732110000215,55,,,,,,,,,,,,,,,,,,sub_009,2022-05-23_16h32.17.150,Reversal,2022.1.2,60.027324433006605,1,
9,exp3.png,exp4.png,,,,,,,,,,,,,,,,,,1,0,1,0,0,9,9,9,,,,,,,,,False,29,110,True,exp4.png,exp3.png,trial_left_image,1,exp4.png,1,exp3.png,exp4.png,0,2,non-reversed,incorrect,0.8426138054373756,0,valid_lose,604.772982800001,55,,,,,,,,,,,,,,,,,,sub_009,2022-05-23_16h32.17.150,Reversal,2022.1.2,60.027324433006605,1,
10,exp1.png,exp2.png,,,,,,,,,,,,,,,,,,1,0,1,0,0,10,10,10,,,,,,,,,False,30,111,False,exp1.png,exp2.png,trial_left_image,1,exp1.png,1,exp2.png,exp1.png,1,3,reversed,incorrect,0.10133604839454158,1,invalid_win,608.7228168000001,56,,,,,,,,,,,,,,,,,,sub_009,2022-05-23_16h32.17.150,Reversal,2022.1.2,60.027324433006605,1,
11,exp3.png,exp4.png,,,,,,,,,,,,,,,,,,1,0,1,0,0,11,11,11,,,,,,,,,False,31,112,False,exp3.png,exp4.png,trial_right_image,-1,exp4.png,1,exp3.png,exp4.png,0,2,non-reversed,incorrect,0.8194245816699527,0,valid_lose,612.939735699998,56,,,,,,,,,,,,,,,,,,sub_009,2022-05-23_16h32.17.150,Reversal,2022.1.2,60.027324433006605,1,
12,exp1.png,exp2.png,,,,,,,,,,,,,,,,,,1,0,1,0,0,12,12,12,,,,,,,,,False,32,113,True,exp2.png,exp1.png,trial_left_image,1,exp2.png,1,exp2.png,exp1.png,0,4,reversed,correct,0.4300324026269198,1,valid_win,617.1061204000143,57,,,,,,,,,,,,,,,,,,sub_009,2022-05-23_16h32.17.150,Reversal,2022.1.2,60.027324433006605,1,
13,exp3.png,exp4.png,,,,,,,,,,,,,,,,,,1,0,1,0,0,13,13,13,,,,,,,,,False,33,114,True,exp4.png,exp3.png,trial_right_image,-1,exp3.png,1,exp3.png,exp4.png,1,1,non-reversed,correct,0.7249422183758091,1,valid_win,629.7055262000067,58,,,,,,,,,,,,,,,,,,sub_009,2022-05-23_16h32.17.150,Reversal,2022.1.2,60.027324433006605,1,
14,exp1.png,exp2.png,,,,,,,,,,,,,,,,,,1,0,1,0,0,14,14,14,,,,,,,,,False,34,115,True,exp2.png,exp1.png,trial_left_image,1,exp2.png,1,exp2.png,exp1.png,0,4,reversed,correct,0.9920020117157825,1,valid_win,634.621993800014,59,,,,,,,,,,,,,,,,,,sub_009,2022-05-23_16h32.17.150,Reversal,2022.1.2,60.027324433006605,1,
15,exp3.png,exp4.png,,,,,,,,,,,,,,,,,,1,0,1,0,0,15,15,15,,,,,,,,,False,35,116,False,exp3.png,exp4.png,trial_right_image,-1,exp4.png,1,exp3.png,exp4.png,0,2,non-reversed,incorrect,0.8615460929028561,0,valid_lose,638.7884823000059,59,,,,,,,,,,,,,,,,,,sub_009,2022-05-23_16h32.17.150,Reversal,2022.1.2,60.027324433006605,1,
16,exp1.png,exp2.png,,,,,,,,,,,,,,,,,,1,0,1,0,0,16,16,16,,,,,,,,,False,36,117,True,exp2.png,exp1.png,trial_left_image,1,exp2.png,1,exp2.png,exp1.png,0,4,reversed,correct,0.23777567406775635,0,invalid_lose,642.8558107000135,59,,,,,,,,,,,,,,,,,,sub_009,2022-05-23_16h32.17.150,Reversal,2022.1.2,60.027324433006605,1,
17,exp3.png,exp4.png,,,,,,,,,,,,,,,,,,1,0,1,0,0,17,17,17,,,,,,,,,False,37,118,True,exp4.png,exp3.png,trial_left_image,1,exp4.png,1,exp3.png,exp4.png,0,2,non-reversed,incorrect,0.13299264106648512,1,invalid_win,646.7723319999932,60,,,,,,,,,,,,,,,,,,sub_009,2022-05-23_16h32.17.150,Reversal,2022.1.2,60.027324433006605,1,
18,exp1.png,exp2.png,,,,,,,,,,,,,,,,,,1,0,1,0,0,18,18,18,,,,,,,,,False,38,119,False,exp1.png,exp2.png,trial_right_image,-1,exp2.png,1,exp2.png,exp1.png,0,4,reversed,correct,0.9790339833399738,1,valid_win,650.7387118000188,61,,,,,,,,,,,,,,,,,,sub_009,2022-05-23_16h32.17.150,Reversal,2022.1.2,60.027324433006605,1,
19,exp3.png,exp4.png,,,,,,,,,,,,,,,,,,1,0,1,0,0,19,19,19,,,,,,,,,False,39,120,False,exp3.png,exp4.png,trial_right_image,-1,exp4.png,1,exp3.png,exp4.png,0,2,non-reversed,incorrect,0.10688577050022796,1,invalid_win,654.7555187999969,62,,,,,,,,,,,,,,,,,,sub_009,2022-05-23_16h32.17.150,Reversal,2022.1.2,60.027324433006605,1,
20,exp1.png,exp2.png,,,,,,,,,,,,,,,,,,1,0,1,0,0,20,20,20,,,,,,,,,True,,,,,,,,,,,,,,,,,,,,,,,,,,,,,,,,,,,,,,sub_009,2022-05-23_16h32.17.150,Reversal,2022.1.2,60.027324433006605,1,
,,,exp1.png,,,,,,,,,,,,,,,,,1,0,1,0,,,,,0,0,0,0,0,0,0,0,,,,,,,,,,,,,,,,,,,,,,69.0,2.3308455999940634,"[(69.0, 2.3308455999940634)]",723.7751220999926,None,,,,69.0,,,,,,,,,sub_009,2022-05-23_16h32.17.150,Reversal,2022.1.2,60.027324433006605,1,
,,,exp2.png,,,,,,,,,,,,,,,,,1,0,1,0,,,,,0,0,0,0,0,1,1,1,,,,,,,,,,,,,,,,,,,,,,88.0,1.3823168000089936,"[(88.0, 1.3823168000089936)]",728.0359768999915,None,88.0,,,,,,,,,,,,sub_009,2022-05-23_16h32.17.150,Reversal,2022.1.2,60.027324433006605,1,
,,,exp3.png,,,,,,,,,,,,,,,,,1,0,1,0,,,,,0,0,0,0,0,2,2,2,,,,,,,,,,,,,,,,,,,,,,94.0,1.23255159999826,"[(94.0, 1.23255159999826)]",730.6178361999919,None,,94.0,,,,,,,,,,,sub_009,2022-05-23_16h32.17.150,Reversal,2022.1.2,60.027324433006605,1,
,,,exp4.png,,,,,,,,,,,,,,,,,1,0,1,0,,,,,0,0,0,0,0,3,3,3,,,,,,,,,,,,,,,,,,,,,,94.0,1.100842299987562,"[(94.0, 1.100842299987562)]",733.0664629999956,None,,,94.0,,,,,,,,,,sub_009,2022-05-23_16h32.17.150,Reversal,2022.1.2,60.027324433006605,1,
0,exp1.png,exp2.png,,,,,,,,,,,,,,,,,,2,0,2,0,0,0,0,0,,,,,,,,,False,40,121,True,exp2.png,exp1.png,trial_left_image,1,exp2.png,1,exp2.png,exp1.png,0,4,reversed,correct,0.030953106646296025,0,invalid_lose,672.0551831000193,62,,,,,,,,,,,,,,,,,,sub_009,2022-05-23_16h32.17.150,Reversal,2022.1.2,60.027324433006605,1,
1,exp3.png,exp4.png,,,,,,,,,,,,,,,,,,2,0,2,0,0,1,1,1,,,,,,,,,False,41,122,False,exp3.png,exp4.png,trial_left_image,1,exp3.png,1,exp3.png,exp4.png,1,1,non-reversed,correct,0.008683237605872418,0,invalid_lose,680.271745200007,62,,,,,,,,,,,,,,,,,,sub_009,2022-05-23_16h32.17.150,Reversal,2022.1.2,60.027324433006605,1,
2,exp1.png,exp2.png,,,,,,,,,,,,,,,,,,2,0,2,0,0,2,2,2,,,,,,,,,False,42,123,True,exp2.png,exp1.png,trial_left_image,1,exp2.png,1,exp2.png,exp1.png,0,4,reversed,correct,0.23676642985001806,0,invalid_lose,687.0543192000187,62,,,,,,,,,,,,,,,,,,sub_009,2022-05-23_16h32.17.150,Reversal,2022.1.2,60.027324433006605,1,
3,exp3.png,exp4.png,,,,,,,,,,,,,,,,,,2,0,2,0,0,3,3,3,,,,,,,,,False,43,124,True,exp4.png,exp3.png,trial_right_image,-1,exp3.png,1,exp3.png,exp4.png,1,1,non-reversed,correct,0.9534199542828087,1,valid_win,694.4213178000064,63,,,,,,,,,,,,,,,,,,sub_009,2022-05-23_16h32.17.150,Reversal,2022.1.2,60.027324433006605,1,
4,exp1.png,exp2.png,,,,,,,,,,,,,,,,,,2,0,2,0,0,4,4,4,,,,,,,,,False,44,125,True,exp2.png,exp1.png,trial_right_image,-1,exp1.png,1,exp2.png,exp1.png,1,3,reversed,incorrect,0.7570342923263746,0,valid_lose,698.85501140001,63,,,,,,,,,,,,,,,,,,sub_009,2022-05-23_16h32.17.150,Reversal,2022.1.2,60.027324433006605,1,
5,exp3.png,exp4.png,,,,,,,,,,,,,,,,,,2,0,2,0,0,5,5,5,,,,,,,,,False,45,126,False,exp3.png,exp4.png,trial_left_image,1,exp3.png,1,exp3.png,exp4.png,1,1,non-reversed,correct,0.46853763488913636,1,valid_win,703.2043739999935,64,,,,,,,,,,,,,,,,,,sub_009,2022-05-23_16h32.17.150,Reversal,2022.1.2,60.027324433006605,1,
6,exp1.png,exp2.png,,,,,,,,,,,,,,,,,,2,0,2,0,0,6,6,6,,,,,,,,,False,46,127,False,exp1.png,exp2.png,trial_right_image,-1,exp2.png,1,exp2.png,exp1.png,0,4,reversed,correct,0.053269780292943714,0,invalid_lose,708.1048326000164,64,,,,,,,,,,,,,,,,,,sub_009,2022-05-23_16h32.17.150,Reversal,2022.1.2,60.027324433006605,1,
7,exp3.png,exp4.png,,,,,,,,,,,,,,,,,,2,0,2,0,0,7,7,7,,,,,,,,,False,47,128,True,exp4.png,exp3.png,trial_left_image,1,exp4.png,1,exp3.png,exp4.png,0,2,non-reversed,incorrect,0.014024164691560648,1,invalid_win,712.2705563000054,65,,,,,,,,,,,,,,,,,,sub_009,2022-05-23_16h32.17.150,Reversal,2022.1.2,60.027324433006605,1,
8,exp1.png,exp2.png,,,,,,,,,,,,,,,,,,2,0,2,0,0,8,8,8,,,,,,,,,False,48,129,True,exp2.png,exp1.png,trial_right_image,-1,exp1.png,1,exp2.png,exp1.png,1,3,reversed,incorrect,0.4467434825659983,0,valid_lose,721.9878805000044,65,,,,,,,,,,,,,,,,,,sub_009,2022-05-23_16h32.17.150,Reversal,2022.1.2,60.027324433006605,1,
9,exp3.png,exp4.png,,,,,,,,,,,,,,,,,,2,0,2,0,0,9,9,9,,,,,,,,,False,49,130,False,exp3.png,exp4.png,trial_left_image,1,exp3.png,1,exp3.png,exp4.png,1,1,non-reversed,correct,0.1498491971549476,0,invalid_lose,726.0541304000071,65,,,,,,,,,,,,,,,,,,sub_009,2022-05-23_16h32.17.150,Reversal,2022.1.2,60.027324433006605,1,
10,exp1.png,exp2.png,,,,,,,,,,,,,,,,,,2,0,2,0,0,10,10,10,,,,,,,,,False,50,131,True,exp2.png,exp1.png,trial_right_image,-1,exp1.png,1,exp2.png,exp1.png,1,3,reversed,incorrect,0.17777082392521526,1,invalid_win,730.0540032999997,66,,,,,,,,,,,,,,,,,,sub_009,2022-05-23_16h32.17.150,Reversal,2022.1.2,60.027324433006605,1,
11,exp3.png,exp4.png,,,,,,,,,,,,,,,,,,2,0,2,0,0,11,11,11,,,,,,,,,False,51,132,False,exp3.png,exp4.png,trial_right_image,-1,exp4.png,1,exp3.png,exp4.png,0,2,non-reversed,incorrect,0.7729481969606662,0,valid_lose,735.0209556000191,66,,,,,,,,,,,,,,,,,,sub_009,2022-05-23_16h32.17.150,Reversal,2022.1.2,60.027324433006605,1,
12,exp1.png,exp2.png,,,,,,,,,,,,,,,,,,2,0,2,0,0,12,12,12,,,,,,,,,False,52,133,False,exp1.png,exp2.png,trial_left_image,1,exp1.png,1,exp2.png,exp1.png,1,3,reversed,incorrect,0.7542523999409126,0,valid_lose,738.9706352000067,66,,,,,,,,,,,,,,,,,,sub_009,2022-05-23_16h32.17.150,Reversal,2022.1.2,60.027324433006605,1,
13,exp3.png,exp4.png,,,,,,,,,,,,,,,,,,2,0,2,0,0,13,13,13,,,,,,,,,False,53,134,False,exp3.png,exp4.png,trial_left_image,1,exp3.png,1,exp3.png,exp4.png,1,1,non-reversed,correct,0.9265244045543254,1,valid_win,742.9536851000157,67,,,,,,,,,,,,,,,,,,sub_009,2022-05-23_16h32.17.150,Reversal,2022.1.2,60.027324433006605,1,
14,exp1.png,exp2.png,,,,,,,,,,,,,,,,,,2,0,2,0,0,14,14,14,,,,,,,,,False,54,135,True,exp2.png,exp1.png,trial_right_image,-1,exp1.png,1,exp2.png,exp1.png,1,3,reversed,incorrect,0.4568047734000421,0,valid_lose,748.4708172999963,67,,,,,,,,,,,,,,,,,,sub_009,2022-05-23_16h32.17.150,Reversal,2022.1.2,60.027324433006605,1,
15,exp3.png,exp4.png,,,,,,,,,,,,,,,,,,2,0,2,0,0,15,15,15,,,,,,,,,False,55,136,False,exp3.png,exp4.png,trial_right_image,-1,exp4.png,1,exp3.png,exp4.png,0,2,non-reversed,incorrect,0.5863921013989869,0,valid_lose,752.9037058000104,67,,,,,,,,,,,,,,,,,,sub_009,2022-05-23_16h32.17.150,Reversal,2022.1.2,60.027324433006605,1,
16,exp1.png,exp2.png,,,,,,,,,,,,,,,,,,2,0,2,0,0,16,16,16,,,,,,,,,False,56,137,True,exp2.png,exp1.png,trial_left_image,1,exp2.png,1,exp2.png,exp1.png,0,4,reversed,correct,0.38955090517177504,1,valid_win,757.719832200004,68,,,,,,,,,,,,,,,,,,sub_009,2022-05-23_16h32.17.150,Reversal,2022.1.2,60.027324433006605,1,
17,exp3.png,exp4.png,,,,,,,,,,,,,,,,,,2,0,2,0,0,17,17,17,,,,,,,,,False,57,138,True,exp4.png,exp3.png,trial_left_image,1,exp4.png,1,exp3.png,exp4.png,0,2,non-reversed,incorrect,0.5090140082640046,0,valid_lose,762.2204083999968,68,,,,,,,,,,,,,,,,,,sub_009,2022-05-23_16h32.17.150,Reversal,2022.1.2,60.027324433006605,1,
18,exp1.png,exp2.png,,,,,,,,,,,,,,,,,,2,0,2,0,0,18,18,18,,,,,,,,,False,58,139,False,exp1.png,exp2.png,trial_right_image,-1,exp2.png,1,exp2.png,exp1.png,0,4,reversed,correct,0.09343057954118239,0,invalid_lose,766.7192424999957,68,,,,,,,,,,,,,,,,,,sub_009,2022-05-23_16h32.17.150,Reversal,2022.1.2,60.027324433006605,1,
19,exp3.png,exp4.png,,,,,,,,,,,,,,,,,,2,0,2,0,0,19,19,19,,,,,,,,,False,59,140,False,exp3.png,exp4.png,trial_right_image,-1,exp4.png,1,exp3.png,exp4.png,0,2,non-reversed,incorrect,0.422930563636877,0,valid_lose,770.9869677000097,68,,,,,,,,,,,,,,,,,,sub_009,2022-05-23_16h32.17.150,Reversal,2022.1.2,60.027324433006605,1,
20,exp1.png,exp2.png,,,,,,,,,,,,,,,,,,2,0,2,0,0,20,20,20,,,,,,,,,True,,,,,,,,,,,,,,,,,,,,,,,,,,,,,,,,,,,,,,sub_009,2022-05-23_16h32.17.150,Reversal,2022.1.2,60.027324433006605,1,
,,,exp1.png,,,,,,,,,,,,,,,,,2,0,2,0,,,,,0,0,0,0,0,0,0,0,,,,,,,,,,,,,,,,,,,,,,75.0,2.5410377999942284,"[(75.0, 2.5410377999942284)]",839.9944764999964,None,,,,75.0,,,,,,,,,sub_009,2022-05-23_16h32.17.150,Reversal,2022.1.2,60.027324433006605,1,
,,,exp2.png,,,,,,,,,,,,,,,,,2,0,2,0,,,,,0,0,0,0,0,1,1,1,,,,,,,,,,,,,,,,,,,,,,84.0,2.01525369999581,"[(84.0, 2.01525369999581)]",843.9501097000029,None,84.0,,,,,,,,,,,,sub_009,2022-05-23_16h32.17.150,Reversal,2022.1.2,60.027324433006605,1,
,,,exp3.png,,,,,,,,,,,,,,,,,2,0,2,0,,,,,0,0,0,0,0,2,2,2,,,,,,,,,,,,,,,,,,,,,,89.0,1.3831720000016503,"[(89.0, 1.3831720000016503)]",847.3836496000004,None,,89.0,,,,,,,,,,,sub_009,2022-05-23_16h32.17.150,Reversal,2022.1.2,60.027324433006605,1,
,,,exp4.png,,,,,,,,,,,,,,,,,2,0,2,0,,,,,0,0,0,0,0,3,3,3,,,,,,,,,,,,,,,,,,,,,,93.0,1.235462999989977,"[(93.0, 1.235462999989977)]",850.114381899999,None,,,93.0,,,,,,,,,,sub_009,2022-05-23_16h32.17.150,Reversal,2022.1.2,60.027324433006605,1,
,,,,,,,,,,,,,,,,,,,,,,,,,,,,,,,,,,,,,,,,,,,,,,,,,,,,,,,,68,,,,,,,,,,,66,36,30,329.42832930001896,1,space,87.59650519999559,sub_009,2022-05-23_16h32.17.150,Reversal,2022.1.2,60.027324433006605,1,
