trial_index,trial_image1_file,trial_image2_file,image_file,learning_outer_loop.thisRepN,learning_outer_loop.thisTrialN,learning_outer_loop.thisN,learning_outer_loop.thisIndex,learning_inner_loop.thisRepN,learning_inner_loop.thisTrialN,learning_inner_loop.thisN,learning_inner_loop.thisIndex,learning_estimation_outer_loop.thisRepN,learning_estimation_outer_loop.thisTrialN,learning_estimation_outer_loop.thisN,learning_estimation_outer_loop.thisIndex,learning_estimation_inner_loop.thisRepN,learning_estimation_inner_loop.thisTrialN,learning_estimation_inner_loop.thisN,learning_estimation_inner_loop.thisIndex,reversal_outer_loop.thisRepN,reversal_outer_loop.thisTrialN,reversal_outer_loop.thisN,reversal_outer_loop.thisIndex,reversal_inner_loop.thisRepN,reversal_inner_loop.thisTrialN,reversal_inner_loop.thisN,reversal_inner_loop.thisIndex,reversal_estimation_outer_loop.thisRepN,reversal_estimation_outer_loop.thisTrialN,reversal_estimation_outer_loop.thisN,reversal_estimation_outer_loop.thisIndex,reversal_estimation_inner_loop.thisRepN,reversal_estimation_inner_loop.thisTrialN,reversal_estimation_inner_loop.thisN,reversal_estimation_inner_loop.thisIndex,skipped,total_trial_counter,trial_num,left_right_flip,left_image_file,right_image_file,clicked_stimulus_side,side,clicked_stimulus,version,high_prob_image_file,low_prob_image_file,choice_a,choice_b,pair_type,correct,trial_feedback_random,reward,trial_type,overall_time_after_trial,score,estimation_rating.response,estimation_rating.rt,estimation_rating.history,estimation_rating.started,estimation_rating.stopped,estimation_exp2.png,estimation_exp3.png,estimation_exp4.png,estimation_exp1.png,total_learning_time,total_correct,learning_correct,reversal_correct,total_reversal_time,extra_block,participant,date,expName,psychopyVersion,frameRate,ver,
0,exp1.png,exp2.png,,0,0,0,0,0,0,0,0,,,,,,,,,,,,,,,,,,,,,,,,,True,,,,,,,,,,,,,,,,,,,,,,,,,,,,,,,,,,,,sub_101,2022-11-03_15h53.09.493,Reversal,2022.1.1,59.969619390960055,1,
1,exp3.png,exp4.png,,0,0,0,0,0,1,1,1,,,,,,,,,,,,,,,,,,,,,,,,,False,0,1,False,exp3.png,exp4.png,trial_right_image,-1,exp4.png,1,exp3.png,exp4.png,0,2,non-reversed,incorrect,0.24943902367176296,1,invalid_win,6.629756600001201,1,,,,,,,,,,,,,,,,sub_101,2022-11-03_15h53.09.493,Reversal,2022.1.1,59.969619390960055,1,
2,exp1.png,exp2.png,,0,0,0,0,0,2,2,2,,,,,,,,,,,,,,,,,,,,,,,,,False,1,2,True,exp2.png,exp1.png,trial_right_image,-1,exp1.png,1,exp1.png,exp2.png,1,3,reversed,correct,0.4469941505755378,1,valid_win,11.695164700000532,2,,,,,,,,,,,,,,,,sub_101,2022-11-03_15h53.09.493,Reversal,2022.1.1,59.969619390960055,1,
3,exp3.png,exp4.png,,0,0,0,0,0,3,3,3,,,,,,,,,,,,,,,,,,,,,,,,,False,2,3,False,exp3.png,exp4.png,trial_right_image,-1,exp4.png,1,exp3.png,exp4.png,0,2,non-reversed,incorrect,0.07254987017109193,1,invalid_win,20.16111500000079,3,,,,,,,,,,,,,,,,sub_101,2022-11-03_15h53.09.493,Reversal,2022.1.1,59.969619390960055,1,
4,exp1.png,exp2.png,,0,0,0,0,0,4,4,4,,,,,,,,,,,,,,,,,,,,,,,,,False,3,4,True,exp2.png,exp1.png,trial_left_image,1,exp2.png,1,exp1.png,exp2.png,0,4,reversed,incorrect,0.1833892085347716,1,invalid_win,26.410188500000004,4,,,,,,,,,,,,,,,,sub_101,2022-11-03_15h53.09.493,Reversal,2022.1.1,59.969619390960055,1,
5,exp3.png,exp4.png,,0,0,0,0,0,5,5,5,,,,,,,,,,,,,,,,,,,,,,,,,False,4,5,False,exp3.png,exp4.png,trial_left_image,1,exp3.png,1,exp3.png,exp4.png,1,1,non-reversed,correct,0.20709143738720348,0,invalid_lose,36.25868050000099,4,,,,,,,,,,,,,,,,sub_101,2022-11-03_15h53.09.493,Reversal,2022.1.1,59.969619390960055,1,
6,exp1.png,exp2.png,,0,0,0,0,0,6,6,6,,,,,,,,,,,,,,,,,,,,,,,,,False,5,6,True,exp2.png,exp1.png,trial_right_image,-1,exp1.png,1,exp1.png,exp2.png,1,3,reversed,correct,0.5866601312423008,1,valid_win,40.82576479999989,5,,,,,,,,,,,,,,,,sub_101,2022-11-03_15h53.09.493,Reversal,2022.1.1,59.969619390960055,1,
7,exp3.png,exp4.png,,0,0,0,0,0,7,7,7,,,,,,,,,,,,,,,,,,,,,,,,,False,6,7,True,exp4.png,exp3.png,trial_right_image,-1,exp3.png,1,exp3.png,exp4.png,1,1,non-reversed,correct,0.6653263366307635,1,valid_win,45.50894700000026,6,,,,,,,,,,,,,,,,sub_101,2022-11-03_15h53.09.493,Reversal,2022.1.1,59.969619390960055,1,
8,exp1.png,exp2.png,,0,0,0,0,0,8,8,8,,,,,,,,,,,,,,,,,,,,,,,,,False,7,8,False,exp1.png,exp2.png,trial_right_image,-1,exp2.png,1,exp1.png,exp2.png,0,4,reversed,incorrect,0.2379469566206066,1,invalid_win,51.49022900000091,7,,,,,,,,,,,,,,,,sub_101,2022-11-03_15h53.09.493,Reversal,2022.1.1,59.969619390960055,1,
9,exp3.png,exp4.png,,0,0,0,0,0,9,9,9,,,,,,,,,,,,,,,,,,,,,,,,,False,8,9,True,exp4.png,exp3.png,trial_left_image,1,exp4.png,1,exp3.png,exp4.png,0,2,non-reversed,incorrect,0.8461409240400308,0,valid_lose,57.155812300001344,7,,,,,,,,,,,,,,,,sub_101,2022-11-03_15h53.09.493,Reversal,2022.1.1,59.969619390960055,1,
10,exp1.png,exp2.png,,0,0,0,0,0,10,10,10,,,,,,,,,,,,,,,,,,,,,,,,,False,9,10,False,exp1.png,exp2.png,trial_right_image,-1,exp2.png,1,exp1.png,exp2.png,0,4,reversed,incorrect,0.8768532726627281,0,valid_lose,61.52223120000053,7,,,,,,,,,,,,,,,,sub_101,2022-11-03_15h53.09.493,Reversal,2022.1.1,59.969619390960055,1,
11,exp3.png,exp4.png,,0,0,0,0,0,11,11,11,,,,,,,,,,,,,,,,,,,,,,,,,False,10,11,False,exp3.png,exp4.png,trial_right_image,-1,exp4.png,1,exp3.png,exp4.png,0,2,non-reversed,incorrect,0.914644275334611,0,valid_lose,66.85498630000075,7,,,,,,,,,,,,,,,,sub_101,2022-11-03_15h53.09.493,Reversal,2022.1.1,59.969619390960055,1,
12,exp1.png,exp2.png,,0,0,0,0,0,12,12,12,,,,,,,,,,,,,,,,,,,,,,,,,False,11,12,False,exp1.png,exp2.png,trial_right_image,-1,exp2.png,1,exp1.png,exp2.png,0,4,reversed,incorrect,0.5959678643038844,0,valid_lose,71.8379958000005,7,,,,,,,,,,,,,,,,sub_101,2022-11-03_15h53.09.493,Reversal,2022.1.1,59.969619390960055,1,
13,exp3.png,exp4.png,,0,0,0,0,0,13,13,13,,,,,,,,,,,,,,,,,,,,,,,,,False,12,13,True,exp4.png,exp3.png,trial_left_image,1,exp4.png,1,exp3.png,exp4.png,0,2,non-reversed,incorrect,0.19788183967195572,1,invalid_win,77.36987469999985,8,,,,,,,,,,,,,,,,sub_101,2022-11-03_15h53.09.493,Reversal,2022.1.1,59.969619390960055,1,
14,exp1.png,exp2.png,,0,0,0,0,0,14,14,14,,,,,,,,,,,,,,,,,,,,,,,,,False,13,14,False,exp1.png,exp2.png,trial_right_image,-1,exp2.png,1,exp1.png,exp2.png,0,4,reversed,incorrect,0.9132128862523429,0,valid_lose,84.88637240000025,8,,,,,,,,,,,,,,,,sub_101,2022-11-03_15h53.09.493,Reversal,2022.1.1,59.969619390960055,1,
15,exp3.png,exp4.png,,0,0,0,0,0,15,15,15,,,,,,,,,,,,,,,,,,,,,,,,,False,14,15,True,exp4.png,exp3.png,trial_left_image,1,exp4.png,1,exp3.png,exp4.png,0,2,non-reversed,incorrect,0.544355727836823,0,valid_lose,90.01858700000048,8,,,,,,,,,,,,,,,,sub_101,2022-11-03_15h53.09.493,Reversal,2022.1.1,59.969619390960055,1,
16,exp1.png,exp2.png,,0,0,0,0,0,16,16,16,,,,,,,,,,,,,,,,,,,,,,,,,False,15,16,True,exp2.png,exp1.png,trial_right_image,-1,exp1.png,1,exp1.png,exp2.png,1,3,reversed,correct,0.4313568901209254,1,valid_win,95.9517663000006,9,,,,,,,,,,,,,,,,sub_101,2022-11-03_15h53.09.493,Reversal,2022.1.1,59.969619390960055,1,
17,exp3.png,exp4.png,,0,0,0,0,0,17,17,17,,,,,,,,,,,,,,,,,,,,,,,,,False,16,17,True,exp4.png,exp3.png,trial_right_image,-1,exp3.png,1,exp3.png,exp4.png,1,1,non-reversed,correct,0.1378346435947574,0,invalid_lose,102.18332730000111,9,,,,,,,,,,,,,,,,sub_101,2022-11-03_15h53.09.493,Reversal,2022.1.1,59.969619390960055,1,
18,exp1.png,exp2.png,,0,0,0,0,0,18,18,18,,,,,,,,,,,,,,,,,,,,,,,,,False,17,18,False,exp1.png,exp2.png,trial_left_image,1,exp1.png,1,exp1.png,exp2.png,1,3,reversed,correct,0.6147175939414872,1,valid_win,109.11652859999958,10,,,,,,,,,,,,,,,,sub_101,2022-11-03_15h53.09.493,Reversal,2022.1.1,59.969619390960055,1,
19,exp3.png,exp4.png,,0,0,0,0,0,19,19,19,,,,,,,,,,,,,,,,,,,,,,,,,False,18,19,True,exp4.png,exp3.png,trial_right_image,-1,exp3.png,1,exp3.png,exp4.png,1,1,non-reversed,correct,0.46781369028196096,1,valid_win,122.81472530000065,11,,,,,,,,,,,,,,,,sub_101,2022-11-03_15h53.09.493,Reversal,2022.1.1,59.969619390960055,1,
20,exp1.png,exp2.png,,0,0,0,0,0,20,20,20,,,,,,,,,,,,,,,,,,,,,,,,,False,19,20,False,exp1.png,exp2.png,trial_left_image,1,exp1.png,1,exp1.png,exp2.png,1,3,reversed,correct,0.22559202493565578,0,invalid_lose,131.34694040000068,11,,,,,,,,,,,,,,,,sub_101,2022-11-03_15h53.09.493,Reversal,2022.1.1,59.969619390960055,1,
,,,exp1.png,0,0,0,0,,,,,0,0,0,0,0,0,0,0,,,,,,,,,,,,,,,,,,,,,,,,,,,,,,,,,,,,,,50.0,None,[],224.87243099999978,None,,,,,,,,,,,sub_101,2022-11-03_15h53.09.493,Reversal,2022.1.1,59.969619390960055,1,
,,,exp2.png,0,0,0,0,,,,,0,0,0,0,0,1,1,1,,,,,,,,,,,,,,,,,,,,,,,,,,,,,,,,,,,,,,5.0,6.017315400000371,"[(5.0, 6.017315400000371)]",239.27552970000033,None,5.0,,,,,,,,,,sub_101,2022-11-03_15h53.09.493,Reversal,2022.1.1,59.969619390960055,1,
,,,exp3.png,0,0,0,0,,,,,0,0,0,0,0,2,2,2,,,,,,,,,,,,,,,,,,,,,,,,,,,,,,,,,,,,,,73.0,8.87228800000048,"[(73.0, 8.87228800000048)]",248.2524869000008,None,,73.0,,,,,,,,,sub_101,2022-11-03_15h53.09.493,Reversal,2022.1.1,59.969619390960055,1,
,,,exp4.png,0,0,0,0,,,,,0,0,0,0,0,3,3,3,,,,,,,,,,,,,,,,,,,,,,,,,,,,,,,,,,,,,,9.0,2.905589500000133,"[(9.0, 2.905589500000133)]",258.3862970000009,None,,,9.0,,,,,,,,sub_101,2022-11-03_15h53.09.493,Reversal,2022.1.1,59.969619390960055,1,
0,exp1.png,exp2.png,,1,0,1,0,0,0,0,0,,,,,,,,,,,,,,,,,,,,,,,,,True,,,,,,,,,,,,,,,,,,,,,,,,,,,,,,,,,,,,sub_101,2022-11-03_15h53.09.493,Reversal,2022.1.1,59.969619390960055,1,
1,exp3.png,exp4.png,,1,0,1,0,0,1,1,1,,,,,,,,,,,,,,,,,,,,,,,,,False,20,21,True,exp4.png,exp3.png,trial_right_image,-1,exp3.png,1,exp3.png,exp4.png,1,1,non-reversed,correct,0.747891651131345,1,valid_win,176.30810380000003,12,,,,,,,,,,,,,,,,sub_101,2022-11-03_15h53.09.493,Reversal,2022.1.1,59.969619390960055,1,
2,exp1.png,exp2.png,,1,0,1,0,0,2,2,2,,,,,,,,,,,,,,,,,,,,,,,,,False,21,22,False,exp1.png,exp2.png,trial_left_image,1,exp1.png,1,exp1.png,exp2.png,1,3,reversed,correct,0.49842684566308904,1,valid_win,182.9391144000001,13,,,,,,,,,,,,,,,,sub_101,2022-11-03_15h53.09.493,Reversal,2022.1.1,59.969619390960055,1,
3,exp3.png,exp4.png,,1,0,1,0,0,3,3,3,,,,,,,,,,,,,,,,,,,,,,,,,False,22,23,True,exp4.png,exp3.png,trial_right_image,-1,exp3.png,1,exp3.png,exp4.png,1,1,non-reversed,correct,0.8192013269013905,1,valid_win,188.12248639999962,14,,,,,,,,,,,,,,,,sub_101,2022-11-03_15h53.09.493,Reversal,2022.1.1,59.969619390960055,1,
4,exp1.png,exp2.png,,1,0,1,0,0,4,4,4,,,,,,,,,,,,,,,,,,,,,,,,,False,23,24,False,exp1.png,exp2.png,trial_left_image,1,exp1.png,1,exp1.png,exp2.png,1,3,reversed,correct,0.8193413347746541,1,valid_win,193.03982290000022,15,,,,,,,,,,,,,,,,sub_101,2022-11-03_15h53.09.493,Reversal,2022.1.1,59.969619390960055,1,
5,exp3.png,exp4.png,,1,0,1,0,0,5,5,5,,,,,,,,,,,,,,,,,,,,,,,,,False,24,25,True,exp4.png,exp3.png,trial_right_image,-1,exp3.png,1,exp3.png,exp4.png,1,1,non-reversed,correct,0.3755501696870368,1,valid_win,197.80545259999963,16,,,,,,,,,,,,,,,,sub_101,2022-11-03_15h53.09.493,Reversal,2022.1.1,59.969619390960055,1,
6,exp1.png,exp2.png,,1,0,1,0,0,6,6,6,,,,,,,,,,,,,,,,,,,,,,,,,False,25,26,False,exp1.png,exp2.png,trial_left_image,1,exp1.png,1,exp1.png,exp2.png,1,3,reversed,correct,0.1338957144518398,0,invalid_lose,202.7378394999996,16,,,,,,,,,,,,,,,,sub_101,2022-11-03_15h53.09.493,Reversal,2022.1.1,59.969619390960055,1,
7,exp3.png,exp4.png,,1,0,1,0,0,7,7,7,,,,,,,,,,,,,,,,,,,,,,,,,False,26,27,True,exp4.png,exp3.png,trial_right_image,-1,exp3.png,1,exp3.png,exp4.png,1,1,non-reversed,correct,0.25722338708697245,1,valid_win,208.13688420000108,17,,,,,,,,,,,,,,,,sub_101,2022-11-03_15h53.09.493,Reversal,2022.1.1,59.969619390960055,1,
8,exp1.png,exp2.png,,1,0,1,0,0,8,8,8,,,,,,,,,,,,,,,,,,,,,,,,,False,27,28,False,exp1.png,exp2.png,trial_left_image,1,exp1.png,1,exp1.png,exp2.png,1,3,reversed,correct,0.17857813220579188,0,invalid_lose,213.41967750000003,17,,,,,,,,,,,,,,,,sub_101,2022-11-03_15h53.09.493,Reversal,2022.1.1,59.969619390960055,1,
9,exp3.png,exp4.png,,1,0,1,0,0,9,9,9,,,,,,,,,,,,,,,,,,,,,,,,,False,28,29,True,exp4.png,exp3.png,trial_right_image,-1,exp3.png,1,exp3.png,exp4.png,1,1,non-reversed,correct,0.42959862631248535,1,valid_win,222.56904759999998,18,,,,,,,,,,,,,,,,sub_101,2022-11-03_15h53.09.493,Reversal,2022.1.1,59.969619390960055,1,
10,exp1.png,exp2.png,,1,0,1,0,0,10,10,10,,,,,,,,,,,,,,,,,,,,,,,,,False,29,30,False,exp1.png,exp2.png,trial_right_image,-1,exp2.png,1,exp1.png,exp2.png,0,4,reversed,incorrect,0.32573099511140335,0,valid_lose,227.80105470000126,18,,,,,,,,,,,,,,,,sub_101,2022-11-03_15h53.09.493,Reversal,2022.1.1,59.969619390960055,1,
11,exp3.png,exp4.png,,1,0,1,0,0,11,11,11,,,,,,,,,,,,,,,,,,,,,,,,,False,30,31,True,exp4.png,exp3.png,trial_right_image,-1,exp3.png,1,exp3.png,exp4.png,1,1,non-reversed,correct,0.3523616201939338,1,valid_win,232.68433340000047,19,,,,,,,,,,,,,,,,sub_101,2022-11-03_15h53.09.493,Reversal,2022.1.1,59.969619390960055,1,
12,exp1.png,exp2.png,,1,0,1,0,0,12,12,12,,,,,,,,,,,,,,,,,,,,,,,,,False,31,32,False,exp1.png,exp2.png,trial_left_image,1,exp1.png,1,exp1.png,exp2.png,1,3,reversed,correct,0.04653321790150999,0,invalid_lose,241.98444050000035,19,,,,,,,,,,,,,,,,sub_101,2022-11-03_15h53.09.493,Reversal,2022.1.1,59.969619390960055,1,
13,exp3.png,exp4.png,,1,0,1,0,0,13,13,13,,,,,,,,,,,,,,,,,,,,,,,,,False,32,33,False,exp3.png,exp4.png,trial_left_image,1,exp3.png,1,exp3.png,exp4.png,1,1,non-reversed,correct,0.3121311916110191,1,valid_win,248.18208609999965,20,,,,,,,,,,,,,,,,sub_101,2022-11-03_15h53.09.493,Reversal,2022.1.1,59.969619390960055,1,
14,exp1.png,exp2.png,,1,0,1,0,0,14,14,14,,,,,,,,,,,,,,,,,,,,,,,,,False,33,34,True,exp2.png,exp1.png,trial_left_image,1,exp2.png,1,exp1.png,exp2.png,0,4,reversed,incorrect,0.16157262611473822,1,invalid_win,255.09713639999973,21,,,,,,,,,,,,,,,,sub_101,2022-11-03_15h53.09.493,Reversal,2022.1.1,59.969619390960055,1,
15,exp3.png,exp4.png,,1,0,1,0,0,15,15,15,,,,,,,,,,,,,,,,,,,,,,,,,False,34,35,True,exp4.png,exp3.png,trial_left_image,1,exp4.png,1,exp3.png,exp4.png,0,2,non-reversed,incorrect,0.4434068016405319,0,valid_lose,260.5298276000012,21,,,,,,,,,,,,,,,,sub_101,2022-11-03_15h53.09.493,Reversal,2022.1.1,59.969619390960055,1,
16,exp1.png,exp2.png,,1,0,1,0,0,16,16,16,,,,,,,,,,,,,,,,,,,,,,,,,False,35,36,False,exp1.png,exp2.png,trial_right_image,-1,exp2.png,1,exp1.png,exp2.png,0,4,reversed,incorrect,0.30244074502832297,0,valid_lose,265.96282150000116,21,,,,,,,,,,,,,,,,sub_101,2022-11-03_15h53.09.493,Reversal,2022.1.1,59.969619390960055,1,
17,exp3.png,exp4.png,,1,0,1,0,0,17,17,17,,,,,,,,,,,,,,,,,,,,,,,,,False,36,37,False,exp3.png,exp4.png,trial_left_image,1,exp3.png,1,exp3.png,exp4.png,1,1,non-reversed,correct,0.912183001514343,1,valid_win,271.47956030000023,22,,,,,,,,,,,,,,,,sub_101,2022-11-03_15h53.09.493,Reversal,2022.1.1,59.969619390960055,1,
18,exp1.png,exp2.png,,1,0,1,0,0,18,18,18,,,,,,,,,,,,,,,,,,,,,,,,,False,37,38,True,exp2.png,exp1.png,trial_right_image,-1,exp1.png,1,exp1.png,exp2.png,1,3,reversed,correct,0.0808136884435614,0,invalid_lose,280.94514530000015,22,,,,,,,,,,,,,,,,sub_101,2022-11-03_15h53.09.493,Reversal,2022.1.1,59.969619390960055,1,
19,exp3.png,exp4.png,,1,0,1,0,0,19,19,19,,,,,,,,,,,,,,,,,,,,,,,,,False,38,39,True,exp4.png,exp3.png,trial_right_image,-1,exp3.png,1,exp3.png,exp4.png,1,1,non-reversed,correct,0.7142104028784507,1,valid_win,286.19338360000074,23,,,,,,,,,,,,,,,,sub_101,2022-11-03_15h53.09.493,Reversal,2022.1.1,59.969619390960055,1,
20,exp1.png,exp2.png,,1,0,1,0,0,20,20,20,,,,,,,,,,,,,,,,,,,,,,,,,False,39,40,False,exp1.png,exp2.png,trial_right_image,-1,exp2.png,1,exp1.png,exp2.png,0,4,reversed,incorrect,0.46519741470612863,0,valid_lose,291.0442832000008,23,,,,,,,,,,,,,,,,sub_101,2022-11-03_15h53.09.493,Reversal,2022.1.1,59.969619390960055,1,
,,,exp1.png,1,0,1,0,,,,,0,0,0,0,0,0,0,0,,,,,,,,,,,,,,,,,,,,,,,,,,,,,,,,,,,,,,4.0,22.324581800001397,"[(15.0, 9.727403100001538), (31.0, 17.17579950000072), (9.0, 19.27491100000043), (4.0, 22.324581800001397)]",384.58118579999973,None,,,,4.0,,,,,,,sub_101,2022-11-03_15h53.09.493,Reversal,2022.1.1,59.969619390960055,1,
,,,exp2.png,1,0,1,0,,,,,0,0,0,0,0,1,1,1,,,,,,,,,,,,,,,,,,,,,,,,,,,,,,,,,,,,,,51.0,4.120125399998869,"[(51.0, 4.120125399998869)]",408.42357769999944,None,51.0,,,,,,,,,,sub_101,2022-11-03_15h53.09.493,Reversal,2022.1.1,59.969619390960055,1,
,,,exp3.png,1,0,1,0,,,,,0,0,0,0,0,2,2,2,,,,,,,,,,,,,,,,,,,,,,,,,,,,,,,,,,,,,,97.0,2.90643000000091,"[(64.0, 2.107248199999958), (97.0, 2.90643000000091)]",413.44641840000077,None,,97.0,,,,,,,,,sub_101,2022-11-03_15h53.09.493,Reversal,2022.1.1,59.969619390960055,1,
,,,exp4.png,1,0,1,0,,,,,0,0,0,0,0,3,3,3,,,,,,,,,,,,,,,,,,,,,,,,,,,,,,,,,,,,,,97.0,11.98856380000143,"[(97.0, 11.98856380000143)]",417.5626923,None,,,97.0,,,,,,,,sub_101,2022-11-03_15h53.09.493,Reversal,2022.1.1,59.969619390960055,1,
0,exp1.png,exp2.png,,2,0,2,0,0,0,0,0,,,,,,,,,,,,,,,,,,,,,,,,,True,,,,,,,,,,,,,,,,,,,,,,,,,,,,,,,,,,,,sub_101,2022-11-03_15h53.09.493,Reversal,2022.1.1,59.969619390960055,1,
1,exp3.png,exp4.png,,2,0,2,0,0,1,1,1,,,,,,,,,,,,,,,,,,,,,,,,,False,40,41,False,exp3.png,exp4.png,trial_right_image,-1,exp4.png,1,exp3.png,exp4.png,0,2,non-reversed,incorrect,0.9788360965054227,0,valid_lose,342.6865146,23,,,,,,,,,,,,,,,,sub_101,2022-11-03_15h53.09.493,Reversal,2022.1.1,59.969619390960055,1,
2,exp1.png,exp2.png,,2,0,2,0,0,2,2,2,,,,,,,,,,,,,,,,,,,,,,,,,False,41,42,True,exp2.png,exp1.png,trial_left_image,1,exp2.png,1,exp1.png,exp2.png,0,4,reversed,incorrect,0.8011184716100082,0,valid_lose,348.3527935000002,23,,,,,,,,,,,,,,,,sub_101,2022-11-03_15h53.09.493,Reversal,2022.1.1,59.969619390960055,1,
3,exp3.png,exp4.png,,2,0,2,0,0,3,3,3,,,,,,,,,,,,,,,,,,,,,,,,,False,42,43,False,exp3.png,exp4.png,trial_left_image,1,exp3.png,1,exp3.png,exp4.png,1,1,non-reversed,correct,0.3736252823690831,1,valid_win,353.55193359999976,24,,,,,,,,,,,,,,,,sub_101,2022-11-03_15h53.09.493,Reversal,2022.1.1,59.969619390960055,1,
4,exp1.png,exp2.png,,2,0,2,0,0,4,4,4,,,,,,,,,,,,,,,,,,,,,,,,,False,43,44,True,exp2.png,exp1.png,trial_left_image,1,exp2.png,1,exp1.png,exp2.png,0,4,reversed,incorrect,0.46771125842323436,0,valid_lose,358.9837212000002,24,,,,,,,,,,,,,,,,sub_101,2022-11-03_15h53.09.493,Reversal,2022.1.1,59.969619390960055,1,
5,exp3.png,exp4.png,,2,0,2,0,0,5,5,5,,,,,,,,,,,,,,,,,,,,,,,,,False,44,45,True,exp4.png,exp3.png,trial_right_image,-1,exp3.png,1,exp3.png,exp4.png,1,1,non-reversed,correct,0.956047030620817,1,valid_win,363.83583519999956,25,,,,,,,,,,,,,,,,sub_101,2022-11-03_15h53.09.493,Reversal,2022.1.1,59.969619390960055,1,
6,exp1.png,exp2.png,,2,0,2,0,0,6,6,6,,,,,,,,,,,,,,,,,,,,,,,,,False,45,46,False,exp1.png,exp2.png,trial_right_image,-1,exp2.png,1,exp1.png,exp2.png,0,4,reversed,incorrect,0.42411809842643045,0,valid_lose,370.7998036000008,25,,,,,,,,,,,,,,,,sub_101,2022-11-03_15h53.09.493,Reversal,2022.1.1,59.969619390960055,1,
7,exp3.png,exp4.png,,2,0,2,0,0,7,7,7,,,,,,,,,,,,,,,,,,,,,,,,,False,46,47,False,exp3.png,exp4.png,trial_left_image,1,exp3.png,1,exp3.png,exp4.png,1,1,non-reversed,correct,0.28353094285296754,1,valid_win,376.58207349999975,26,,,,,,,,,,,,,,,,sub_101,2022-11-03_15h53.09.493,Reversal,2022.1.1,59.969619390960055,1,
8,exp1.png,exp2.png,,2,0,2,0,0,8,8,8,,,,,,,,,,,,,,,,,,,,,,,,,False,47,48,True,exp2.png,exp1.png,trial_left_image,1,exp2.png,1,exp1.png,exp2.png,0,4,reversed,incorrect,0.07406328493533065,1,invalid_win,385.89735010000004,27,,,,,,,,,,,,,,,,sub_101,2022-11-03_15h53.09.493,Reversal,2022.1.1,59.969619390960055,1,
9,exp3.png,exp4.png,,2,0,2,0,0,9,9,9,,,,,,,,,,,,,,,,,,,,,,,,,False,48,49,True,exp4.png,exp3.png,trial_right_image,-1,exp3.png,1,exp3.png,exp4.png,1,1,non-reversed,correct,0.9971889725681203,1,valid_win,391.646477100001,28,,,,,,,,,,,,,,,,sub_101,2022-11-03_15h53.09.493,Reversal,2022.1.1,59.969619390960055,1,
10,exp1.png,exp2.png,,2,0,2,0,0,10,10,10,,,,,,,,,,,,,,,,,,,,,,,,,False,49,50,True,exp2.png,exp1.png,trial_left_image,1,exp2.png,1,exp1.png,exp2.png,0,4,reversed,incorrect,0.5367894307201042,0,valid_lose,396.87917949999974,28,,,,,,,,,,,,,,,,sub_101,2022-11-03_15h53.09.493,Reversal,2022.1.1,59.969619390960055,1,
11,exp3.png,exp4.png,,2,0,2,0,0,11,11,11,,,,,,,,,,,,,,,,,,,,,,,,,False,50,51,False,exp3.png,exp4.png,trial_right_image,-1,exp4.png,1,exp3.png,exp4.png,0,2,non-reversed,incorrect,0.4333353643585943,0,valid_lose,401.72835269999996,28,,,,,,,,,,,,,,,,sub_101,2022-11-03_15h53.09.493,Reversal,2022.1.1,59.969619390960055,1,
12,exp1.png,exp2.png,,2,0,2,0,0,12,12,12,,,,,,,,,,,,,,,,,,,,,,,,,False,51,52,True,exp2.png,exp1.png,trial_left_image,1,exp2.png,1,exp1.png,exp2.png,0,4,reversed,incorrect,0.3187250341697605,0,valid_lose,407.6779449000005,28,,,,,,,,,,,,,,,,sub_101,2022-11-03_15h53.09.493,Reversal,2022.1.1,59.969619390960055,1,
13,exp3.png,exp4.png,,2,0,2,0,0,13,13,13,,,,,,,,,,,,,,,,,,,,,,,,,False,52,53,False,exp3.png,exp4.png,trial_left_image,1,exp3.png,1,exp3.png,exp4.png,1,1,non-reversed,correct,0.6273710607128801,1,valid_win,413.2600854000011,29,,,,,,,,,,,,,,,,sub_101,2022-11-03_15h53.09.493,Reversal,2022.1.1,59.969619390960055,1,
14,exp1.png,exp2.png,,2,0,2,0,0,14,14,14,,,,,,,,,,,,,,,,,,,,,,,,,False,53,54,False,exp1.png,exp2.png,trial_right_image,-1,exp2.png,1,exp1.png,exp2.png,0,4,reversed,incorrect,0.35478120284892245,0,valid_lose,421.07634880000114,29,,,,,,,,,,,,,,,,sub_101,2022-11-03_15h53.09.493,Reversal,2022.1.1,59.969619390960055,1,
15,exp3.png,exp4.png,,2,0,2,0,0,15,15,15,,,,,,,,,,,,,,,,,,,,,,,,,False,54,55,True,exp4.png,exp3.png,trial_right_image,-1,exp3.png,1,exp3.png,exp4.png,1,1,non-reversed,correct,0.02039449638566837,0,invalid_lose,426.49198179999985,29,,,,,,,,,,,,,,,,sub_101,2022-11-03_15h53.09.493,Reversal,2022.1.1,59.969619390960055,1,
16,exp1.png,exp2.png,,2,0,2,0,0,16,16,16,,,,,,,,,,,,,,,,,,,,,,,,,False,55,56,True,exp2.png,exp1.png,trial_right_image,-1,exp1.png,1,exp1.png,exp2.png,1,3,reversed,correct,0.0012104606783356342,0,invalid_lose,434.2581757000007,29,,,,,,,,,,,,,,,,sub_101,2022-11-03_15h53.09.493,Reversal,2022.1.1,59.969619390960055,1,
17,exp3.png,exp4.png,,2,0,2,0,0,17,17,17,,,,,,,,,,,,,,,,,,,,,,,,,False,56,57,False,exp3.png,exp4.png,trial_left_image,1,exp3.png,1,exp3.png,exp4.png,1,1,non-reversed,correct,0.9319298973755175,1,valid_win,439.29053639999984,30,,,,,,,,,,,,,,,,sub_101,2022-11-03_15h53.09.493,Reversal,2022.1.1,59.969619390960055,1,
18,exp1.png,exp2.png,,2,0,2,0,0,18,18,18,,,,,,,,,,,,,,,,,,,,,,,,,False,57,58,False,exp1.png,exp2.png,trial_right_image,-1,exp2.png,1,exp1.png,exp2.png,0,4,reversed,incorrect,0.18723125510630467,1,invalid_win,446.27293780000036,31,,,,,,,,,,,,,,,,sub_101,2022-11-03_15h53.09.493,Reversal,2022.1.1,59.969619390960055,1,
19,exp3.png,exp4.png,,2,0,2,0,0,19,19,19,,,,,,,,,,,,,,,,,,,,,,,,,False,58,59,False,exp3.png,exp4.png,trial_left_image,1,exp3.png,1,exp3.png,exp4.png,1,1,non-reversed,correct,0.5400071697422703,1,valid_win,451.2731313000004,32,,,,,,,,,,,,,,,,sub_101,2022-11-03_15h53.09.493,Reversal,2022.1.1,59.969619390960055,1,
20,exp1.png,exp2.png,,2,0,2,0,0,20,20,20,,,,,,,,,,,,,,,,,,,,,,,,,False,59,60,True,exp2.png,exp1.png,trial_right_image,-1,exp1.png,1,exp1.png,exp2.png,1,3,reversed,correct,0.49801174080319155,1,valid_win,459.88908450000054,33,,,,,,,,,,,,,,,,sub_101,2022-11-03_15h53.09.493,Reversal,2022.1.1,59.969619390960055,1,
,,,exp1.png,2,0,2,0,,,,,0,0,0,0,0,0,0,0,,,,,,,,,,,,,,,,,,,,,,,,,,,,,,,,,,,,,,82.0,3.8010602999984258,"[(82.0, 3.8010602999984258)]",553.4174168000009,None,,,,82.0,,,,,,,sub_101,2022-11-03_15h53.09.493,Reversal,2022.1.1,59.969619390960055,1,
,,,exp2.png,2,0,2,0,,,,,0,0,0,0,0,1,1,1,,,,,,,,,,,,,,,,,,,,,,,,,,,,,,,,,,,,,,8.0,2.252249099999972,"[(8.0, 2.252249099999972)]",558.2640836999999,None,8.0,,,,,,,,,,sub_101,2022-11-03_15h53.09.493,Reversal,2022.1.1,59.969619390960055,1,
,,,exp3.png,2,0,2,0,,,,,0,0,0,0,0,2,2,2,,,,,,,,,,,,,,,,,,,,,,,,,,,,,,,,,,,,,,100.0,2.75370010000006,"[(91.0, 2.0377982999998494), (100.0, 2.75370010000006)]",561.6450031000004,None,,100.0,,,,,,,,,sub_101,2022-11-03_15h53.09.493,Reversal,2022.1.1,59.969619390960055,1,
,,,exp4.png,2,0,2,0,,,,,0,0,0,0,0,3,3,3,,,,,,,,,,,,,,,,,,,,,,,,,,,,,,,,,,,,,,51.0,4.776002199998402,"[(51.0, 4.776002199998402)]",565.5588927000008,None,,,51.0,,,,,,,,sub_101,2022-11-03_15h53.09.493,Reversal,2022.1.1,59.969619390960055,1,
0,exp1.png,exp2.png,,3,0,3,0,0,0,0,0,,,,,,,,,,,,,,,,,,,,,,,,,True,,,,,,,,,,,,,,,,,,,,,,,,,,,,,,,,,,,,sub_101,2022-11-03_15h53.09.493,Reversal,2022.1.1,59.969619390960055,1,
1,exp3.png,exp4.png,,3,0,3,0,0,1,1,1,,,,,,,,,,,,,,,,,,,,,,,,,False,60,61,False,exp3.png,exp4.png,trial_left_image,1,exp3.png,1,exp3.png,exp4.png,1,1,non-reversed,correct,0.7085118177331929,1,valid_win,485.96843530000115,34,,,,,,,,,,,,,,,,sub_101,2022-11-03_15h53.09.493,Reversal,2022.1.1,59.969619390960055,1,
2,exp1.png,exp2.png,,3,0,3,0,0,2,2,2,,,,,,,,,,,,,,,,,,,,,,,,,False,61,62,True,exp2.png,exp1.png,trial_right_image,-1,exp1.png,1,exp1.png,exp2.png,1,3,reversed,correct,0.4829187589561367,1,valid_win,495.7497192999999,35,,,,,,,,,,,,,,,,sub_101,2022-11-03_15h53.09.493,Reversal,2022.1.1,59.969619390960055,1,
3,exp3.png,exp4.png,,3,0,3,0,0,3,3,3,,,,,,,,,,,,,,,,,,,,,,,,,False,62,63,True,exp4.png,exp3.png,trial_right_image,-1,exp3.png,1,exp3.png,exp4.png,1,1,non-reversed,correct,0.714936612908686,1,valid_win,500.5170900000012,36,,,,,,,,,,,,,,,,sub_101,2022-11-03_15h53.09.493,Reversal,2022.1.1,59.969619390960055,1,
4,exp1.png,exp2.png,,3,0,3,0,0,4,4,4,,,,,,,,,,,,,,,,,,,,,,,,,False,63,64,False,exp1.png,exp2.png,trial_right_image,-1,exp2.png,1,exp1.png,exp2.png,0,4,reversed,incorrect,0.30749201949897453,0,valid_lose,507.5978532000008,36,,,,,,,,,,,,,,,,sub_101,2022-11-03_15h53.09.493,Reversal,2022.1.1,59.969619390960055,1,
5,exp3.png,exp4.png,,3,0,3,0,0,5,5,5,,,,,,,,,,,,,,,,,,,,,,,,,False,64,65,False,exp3.png,exp4.png,trial_left_image,1,exp3.png,1,exp3.png,exp4.png,1,1,non-reversed,correct,0.8263703737099176,1,valid_win,512.7153462000006,37,,,,,,,,,,,,,,,,sub_101,2022-11-03_15h53.09.493,Reversal,2022.1.1,59.969619390960055,1,
6,exp1.png,exp2.png,,3,0,3,0,0,6,6,6,,,,,,,,,,,,,,,,,,,,,,,,,False,65,66,False,exp1.png,exp2.png,trial_left_image,1,exp1.png,1,exp1.png,exp2.png,1,3,reversed,correct,0.44286160737994573,1,valid_win,518.6970982000003,38,,,,,,,,,,,,,,,,sub_101,2022-11-03_15h53.09.493,Reversal,2022.1.1,59.969619390960055,1,
7,exp3.png,exp4.png,,3,0,3,0,0,7,7,7,,,,,,,,,,,,,,,,,,,,,,,,,False,66,67,True,exp4.png,exp3.png,trial_right_image,-1,exp3.png,1,exp3.png,exp4.png,1,1,non-reversed,correct,0.4261352043131428,1,valid_win,523.8798797,39,,,,,,,,,,,,,,,,sub_101,2022-11-03_15h53.09.493,Reversal,2022.1.1,59.969619390960055,1,
8,exp1.png,exp2.png,,3,0,3,0,0,8,8,8,,,,,,,,,,,,,,,,,,,,,,,,,False,67,68,False,exp1.png,exp2.png,trial_left_image,1,exp1.png,1,exp1.png,exp2.png,1,3,reversed,correct,0.37310844636121543,1,valid_win,529.2286100000001,40,,,,,,,,,,,,,,,,sub_101,2022-11-03_15h53.09.493,Reversal,2022.1.1,59.969619390960055,1,
9,exp3.png,exp4.png,,3,0,3,0,0,9,9,9,,,,,,,,,,,,,,,,,,,,,,,,,False,68,69,False,exp3.png,exp4.png,trial_left_image,1,exp3.png,1,exp3.png,exp4.png,1,1,non-reversed,correct,0.1262206027075633,0,invalid_lose,534.5282143000004,40,,,,,,,,,,,,,,,,sub_101,2022-11-03_15h53.09.493,Reversal,2022.1.1,59.969619390960055,1,
10,exp1.png,exp2.png,,3,0,3,0,0,10,10,10,,,,,,,,,,,,,,,,,,,,,,,,,False,69,70,True,exp2.png,exp1.png,trial_right_image,-1,exp1.png,1,exp1.png,exp2.png,1,3,reversed,correct,0.004357307947301381,0,invalid_lose,541.2106115000006,40,,,,,,,,,,,,,,,,sub_101,2022-11-03_15h53.09.493,Reversal,2022.1.1,59.969619390960055,1,
11,exp3.png,exp4.png,,3,0,3,0,0,11,11,11,,,,,,,,,,,,,,,,,,,,,,,,,False,70,71,True,exp4.png,exp3.png,trial_right_image,-1,exp3.png,1,exp3.png,exp4.png,1,1,non-reversed,correct,0.9127179842137574,1,valid_win,545.993244700001,41,,,,,,,,,,,,,,,,sub_101,2022-11-03_15h53.09.493,Reversal,2022.1.1,59.969619390960055,1,
12,exp1.png,exp2.png,,3,0,3,0,0,12,12,12,,,,,,,,,,,,,,,,,,,,,,,,,False,71,72,False,exp1.png,exp2.png,trial_left_image,1,exp1.png,1,exp1.png,exp2.png,1,3,reversed,correct,0.8406018050931873,1,valid_win,551.5092953000003,42,,,,,,,,,,,,,,,,sub_101,2022-11-03_15h53.09.493,Reversal,2022.1.1,59.969619390960055,1,
13,exp3.png,exp4.png,,3,0,3,0,0,13,13,13,,,,,,,,,,,,,,,,,,,,,,,,,False,72,73,True,exp4.png,exp3.png,trial_right_image,-1,exp3.png,1,exp3.png,exp4.png,1,1,non-reversed,correct,0.13937098351796673,0,invalid_lose,556.2926083000002,42,,,,,,,,,,,,,,,,sub_101,2022-11-03_15h53.09.493,Reversal,2022.1.1,59.969619390960055,1,
14,exp1.png,exp2.png,,3,0,3,0,0,14,14,14,,,,,,,,,,,,,,,,,,,,,,,,,False,73,74,False,exp1.png,exp2.png,trial_left_image,1,exp1.png,1,exp1.png,exp2.png,1,3,reversed,correct,0.8333513688714801,1,valid_win,562.6243903000013,43,,,,,,,,,,,,,,,,sub_101,2022-11-03_15h53.09.493,Reversal,2022.1.1,59.969619390960055,1,
15,exp3.png,exp4.png,,3,0,3,0,0,15,15,15,,,,,,,,,,,,,,,,,,,,,,,,,False,74,75,True,exp4.png,exp3.png,trial_right_image,-1,exp3.png,1,exp3.png,exp4.png,1,1,non-reversed,correct,0.9293176748573723,1,valid_win,567.5581923000009,44,,,,,,,,,,,,,,,,sub_101,2022-11-03_15h53.09.493,Reversal,2022.1.1,59.969619390960055,1,
16,exp1.png,exp2.png,,3,0,3,0,0,16,16,16,,,,,,,,,,,,,,,,,,,,,,,,,False,75,76,True,exp2.png,exp1.png,trial_right_image,-1,exp1.png,1,exp1.png,exp2.png,1,3,reversed,correct,0.2473892024480321,0,invalid_lose,573.0740562999999,44,,,,,,,,,,,,,,,,sub_101,2022-11-03_15h53.09.493,Reversal,2022.1.1,59.969619390960055,1,
17,exp3.png,exp4.png,,3,0,3,0,0,17,17,17,,,,,,,,,,,,,,,,,,,,,,,,,False,76,77,False,exp3.png,exp4.png,trial_left_image,1,exp3.png,1,exp3.png,exp4.png,1,1,non-reversed,correct,0.3516147398137003,1,valid_win,578.4898556000007,45,,,,,,,,,,,,,,,,sub_101,2022-11-03_15h53.09.493,Reversal,2022.1.1,59.969619390960055,1,
18,exp1.png,exp2.png,,3,0,3,0,0,18,18,18,,,,,,,,,,,,,,,,,,,,,,,,,False,77,78,True,exp2.png,exp1.png,trial_right_image,-1,exp1.png,1,exp1.png,exp2.png,1,3,reversed,correct,0.14942338039586867,0,invalid_lose,585.5071421000011,45,,,,,,,,,,,,,,,,sub_101,2022-11-03_15h53.09.493,Reversal,2022.1.1,59.969619390960055,1,
19,exp3.png,exp4.png,,3,0,3,0,0,19,19,19,,,,,,,,,,,,,,,,,,,,,,,,,False,78,79,True,exp4.png,exp3.png,trial_right_image,-1,exp3.png,1,exp3.png,exp4.png,1,1,non-reversed,correct,0.8213524682874179,1,valid_win,590.2379357999998,46,,,,,,,,,,,,,,,,sub_101,2022-11-03_15h53.09.493,Reversal,2022.1.1,59.969619390960055,1,
20,exp1.png,exp2.png,,3,0,3,0,0,20,20,20,,,,,,,,,,,,,,,,,,,,,,,,,False,79,80,False,exp1.png,exp2.png,trial_left_image,1,exp1.png,1,exp1.png,exp2.png,1,3,reversed,correct,0.62278566917275,1,valid_win,595.2871381000004,47,,,,,,,,,,,,,,,,sub_101,2022-11-03_15h53.09.493,Reversal,2022.1.1,59.969619390960055,1,
,,,exp1.png,3,0,3,0,,,,,0,0,0,0,0,0,0,0,,,,,,,,,,,,,,,,,,,,,,,,,,,,,,,,,,,,,,88.0,3.5692994999990333,"[(88.0, 3.5692994999990333)]",688.8160098000008,None,,,,88.0,,,,,,,sub_101,2022-11-03_15h53.09.493,Reversal,2022.1.1,59.969619390960055,1,
,,,exp2.png,3,0,3,0,,,,,0,0,0,0,0,1,1,1,,,,,,,,,,,,,,,,,,,,,,,,,,,,,,,,,,,,,,26.0,2.3574908999999025,"[(26.0, 2.3574908999999025)]",693.6076556000007,None,26.0,,,,,,,,,,sub_101,2022-11-03_15h53.09.493,Reversal,2022.1.1,59.969619390960055,1,
,,,exp3.png,3,0,3,0,,,,,0,0,0,0,0,2,2,2,,,,,,,,,,,,,,,,,,,,,,,,,,,,,,,,,,,,,,88.0,3.5914904000001115,"[(88.0, 3.5914904000001115)]",696.9928913000003,None,,88.0,,,,,,,,,sub_101,2022-11-03_15h53.09.493,Reversal,2022.1.1,59.969619390960055,1,
,,,exp4.png,3,0,3,0,,,,,0,0,0,0,0,3,3,3,,,,,,,,,,,,,,,,,,,,,,,,,,,,,,,,,,,,,,48.0,2.4883551000002626,"[(48.0, 2.4883551000002626)]",701.6423166999994,None,,,48.0,,,,,,,,sub_101,2022-11-03_15h53.09.493,Reversal,2022.1.1,59.969619390960055,1,
0,exp1.png,exp2.png,,,,,,,,,,,,,,,,,,0,0,0,0,0,0,0,0,,,,,,,,,True,,,,,,,,,,,,,,,,,,,,,,,,,,,,,,,,,,,,sub_101,2022-11-03_15h53.09.493,Reversal,2022.1.1,59.969619390960055,1,
1,exp3.png,exp4.png,,,,,,,,,,,,,,,,,,0,0,0,0,0,1,1,1,,,,,,,,,False,0,81,True,exp4.png,exp3.png,trial_right_image,-1,exp3.png,1,exp3.png,exp4.png,1,1,non-reversed,correct,0.6538432620728793,1,valid_win,617.3339842000005,48,,,,,,,,,,614.3377699000011,,,,,,sub_101,2022-11-03_15h53.09.493,Reversal,2022.1.1,59.969619390960055,1,
2,exp1.png,exp2.png,,,,,,,,,,,,,,,,,,0,0,0,0,0,2,2,2,,,,,,,,,False,1,82,True,exp2.png,exp1.png,trial_right_image,-1,exp1.png,1,exp2.png,exp1.png,1,3,reversed,incorrect,0.3314324997237651,0,valid_lose,624.1010624999999,48,,,,,,,,,,,,,,,,sub_101,2022-11-03_15h53.09.493,Reversal,2022.1.1,59.969619390960055,1,
3,exp3.png,exp4.png,,,,,,,,,,,,,,,,,,0,0,0,0,0,3,3,3,,,,,,,,,False,2,83,False,exp3.png,exp4.png,trial_left_image,1,exp3.png,1,exp3.png,exp4.png,1,1,non-reversed,correct,0.6321766684656761,1,valid_win,629.2824395999996,49,,,,,,,,,,,,,,,,sub_101,2022-11-03_15h53.09.493,Reversal,2022.1.1,59.969619390960055,1,
4,exp1.png,exp2.png,,,,,,,,,,,,,,,,,,0,0,0,0,0,4,4,4,,,,,,,,,False,3,84,True,exp2.png,exp1.png,trial_right_image,-1,exp1.png,1,exp2.png,exp1.png,1,3,reversed,incorrect,0.7806131228996459,0,valid_lose,637.3490643000005,49,,,,,,,,,,,,,,,,sub_101,2022-11-03_15h53.09.493,Reversal,2022.1.1,59.969619390960055,1,
5,exp3.png,exp4.png,,,,,,,,,,,,,,,,,,0,0,0,0,0,5,5,5,,,,,,,,,False,4,85,False,exp3.png,exp4.png,trial_left_image,1,exp3.png,1,exp3.png,exp4.png,1,1,non-reversed,correct,0.3186861363623992,1,valid_win,642.0148335000013,50,,,,,,,,,,,,,,,,sub_101,2022-11-03_15h53.09.493,Reversal,2022.1.1,59.969619390960055,1,
6,exp1.png,exp2.png,,,,,,,,,,,,,,,,,,0,0,0,0,0,6,6,6,,,,,,,,,False,5,86,False,exp1.png,exp2.png,trial_right_image,-1,exp2.png,1,exp2.png,exp1.png,0,4,reversed,correct,0.42261127347980143,1,valid_win,648.2471861000013,51,,,,,,,,,,,,,,,,sub_101,2022-11-03_15h53.09.493,Reversal,2022.1.1,59.969619390960055,1,
7,exp3.png,exp4.png,,,,,,,,,,,,,,,,,,0,0,0,0,0,7,7,7,,,,,,,,,False,6,87,False,exp3.png,exp4.png,trial_right_image,-1,exp4.png,1,exp3.png,exp4.png,0,2,non-reversed,incorrect,0.5412094135885479,0,valid_lose,652.7806162000015,51,,,,,,,,,,,,,,,,sub_101,2022-11-03_15h53.09.493,Reversal,2022.1.1,59.969619390960055,1,
8,exp1.png,exp2.png,,,,,,,,,,,,,,,,,,0,0,0,0,0,8,8,8,,,,,,,,,False,7,88,True,exp2.png,exp1.png,trial_right_image,-1,exp1.png,1,exp2.png,exp1.png,1,3,reversed,incorrect,0.4783984173928312,0,valid_lose,658.0796747000022,51,,,,,,,,,,,,,,,,sub_101,2022-11-03_15h53.09.493,Reversal,2022.1.1,59.969619390960055,1,
9,exp3.png,exp4.png,,,,,,,,,,,,,,,,,,0,0,0,0,0,9,9,9,,,,,,,,,False,8,89,True,exp4.png,exp3.png,trial_right_image,-1,exp3.png,1,exp3.png,exp4.png,1,1,non-reversed,correct,0.7887688141831084,1,valid_win,662.7788089999995,52,,,,,,,,,,,,,,,,sub_101,2022-11-03_15h53.09.493,Reversal,2022.1.1,59.969619390960055,1,
10,exp1.png,exp2.png,,,,,,,,,,,,,,,,,,0,0,0,0,0,10,10,10,,,,,,,,,False,9,90,False,exp1.png,exp2.png,trial_right_image,-1,exp2.png,1,exp2.png,exp1.png,0,4,reversed,correct,0.26094397324038254,1,valid_win,668.2289296999988,53,,,,,,,,,,,,,,,,sub_101,2022-11-03_15h53.09.493,Reversal,2022.1.1,59.969619390960055,1,
11,exp3.png,exp4.png,,,,,,,,,,,,,,,,,,0,0,0,0,0,11,11,11,,,,,,,,,False,10,91,False,exp3.png,exp4.png,trial_left_image,1,exp3.png,1,exp3.png,exp4.png,1,1,non-reversed,correct,0.3916438638492986,1,valid_win,673.3597921,54,,,,,,,,,,,,,,,,sub_101,2022-11-03_15h53.09.493,Reversal,2022.1.1,59.969619390960055,1,
12,exp1.png,exp2.png,,,,,,,,,,,,,,,,,,0,0,0,0,0,12,12,12,,,,,,,,,False,11,92,True,exp2.png,exp1.png,trial_right_image,-1,exp1.png,1,exp2.png,exp1.png,1,3,reversed,incorrect,0.3686814966560569,0,valid_lose,679.1592678999987,54,,,,,,,,,,,,,,,,sub_101,2022-11-03_15h53.09.493,Reversal,2022.1.1,59.969619390960055,1,
13,exp3.png,exp4.png,,,,,,,,,,,,,,,,,,0,0,0,0,0,13,13,13,,,,,,,,,False,12,93,False,exp3.png,exp4.png,trial_left_image,1,exp3.png,1,exp3.png,exp4.png,1,1,non-reversed,correct,0.0526330489136847,0,invalid_lose,683.9590954000014,54,,,,,,,,,,,,,,,,sub_101,2022-11-03_15h53.09.493,Reversal,2022.1.1,59.969619390960055,1,
14,exp1.png,exp2.png,,,,,,,,,,,,,,,,,,0,0,0,0,0,14,14,14,,,,,,,,,False,13,94,True,exp2.png,exp1.png,trial_left_image,1,exp2.png,1,exp2.png,exp1.png,0,4,reversed,correct,0.7472456424293623,1,valid_win,691.0252237999994,55,,,,,,,,,,,,,,,,sub_101,2022-11-03_15h53.09.493,Reversal,2022.1.1,59.969619390960055,1,
15,exp3.png,exp4.png,,,,,,,,,,,,,,,,,,0,0,0,0,0,15,15,15,,,,,,,,,False,14,95,True,exp4.png,exp3.png,trial_right_image,-1,exp3.png,1,exp3.png,exp4.png,1,1,non-reversed,correct,0.4342106167526454,1,valid_win,697.3080856999986,56,,,,,,,,,,,,,,,,sub_101,2022-11-03_15h53.09.493,Reversal,2022.1.1,59.969619390960055,1,
16,exp1.png,exp2.png,,,,,,,,,,,,,,,,,,0,0,0,0,0,16,16,16,,,,,,,,,False,15,96,False,exp1.png,exp2.png,trial_right_image,-1,exp2.png,1,exp2.png,exp1.png,0,4,reversed,correct,0.4317167217557816,1,valid_win,702.6230809000008,57,,,,,,,,,,,,,,,,sub_101,2022-11-03_15h53.09.493,Reversal,2022.1.1,59.969619390960055,1,
17,exp3.png,exp4.png,,,,,,,,,,,,,,,,,,0,0,0,0,0,17,17,17,,,,,,,,,False,16,97,True,exp4.png,exp3.png,trial_right_image,-1,exp3.png,1,exp3.png,exp4.png,1,1,non-reversed,correct,0.27093293821993825,1,valid_win,707.3727366000021,58,,,,,,,,,,,,,,,,sub_101,2022-11-03_15h53.09.493,Reversal,2022.1.1,59.969619390960055,1,
18,exp1.png,exp2.png,,,,,,,,,,,,,,,,,,0,0,0,0,0,18,18,18,,,,,,,,,False,17,98,False,exp1.png,exp2.png,trial_right_image,-1,exp2.png,1,exp2.png,exp1.png,0,4,reversed,correct,0.6782875868561968,1,valid_win,713.588539299999,59,,,,,,,,,,,,,,,,sub_101,2022-11-03_15h53.09.493,Reversal,2022.1.1,59.969619390960055,1,
19,exp3.png,exp4.png,,,,,,,,,,,,,,,,,,0,0,0,0,0,19,19,19,,,,,,,,,False,18,99,False,exp3.png,exp4.png,trial_left_image,1,exp3.png,1,exp3.png,exp4.png,1,1,non-reversed,correct,0.8630553324913371,1,valid_win,718.2553033000004,60,,,,,,,,,,,,,,,,sub_101,2022-11-03_15h53.09.493,Reversal,2022.1.1,59.969619390960055,1,
20,exp1.png,exp2.png,,,,,,,,,,,,,,,,,,0,0,0,0,0,20,20,20,,,,,,,,,False,19,100,True,exp2.png,exp1.png,trial_right_image,-1,exp1.png,1,exp2.png,exp1.png,1,3,reversed,incorrect,0.756352767954625,0,valid_lose,723.4071484000015,60,,,,,,,,,,,,,,,,sub_101,2022-11-03_15h53.09.493,Reversal,2022.1.1,59.969619390960055,1,
,,,exp1.png,,,,,,,,,,,,,,,,,0,0,0,0,,,,,0,0,0,0,0,0,0,0,,,,,,,,,,,,,,,,,,,,,,25.0,4.122877800000424,"[(25.0, 4.122877800000424)]",816.9292438000011,None,,,,25.0,,,,,,,sub_101,2022-11-03_15h53.09.493,Reversal,2022.1.1,59.969619390960055,1,
,,,exp2.png,,,,,,,,,,,,,,,,,0,0,0,0,,,,,0,0,0,0,0,1,1,1,,,,,,,,,,,,,,,,,,,,,,71.0,2.0890314999996917,"[(71.0, 2.0890314999996917)]",822.3112720999998,None,71.0,,,,,,,,,,sub_101,2022-11-03_15h53.09.493,Reversal,2022.1.1,59.969619390960055,1,
,,,exp3.png,,,,,,,,,,,,,,,,,0,0,0,0,,,,,0,0,0,0,0,2,2,2,,,,,,,,,,,,,,,,,,,,,,92.0,4.686011400001007,"[(87.0, 3.535551700002543), (92.0, 4.686011400001007)]",825.3151055999988,None,,92.0,,,,,,,,,sub_101,2022-11-03_15h53.09.493,Reversal,2022.1.1,59.969619390960055,1,
,,,exp4.png,,,,,,,,,,,,,,,,,0,0,0,0,,,,,0,0,0,0,0,3,3,3,,,,,,,,,,,,,,,,,,,,,,16.0,3.46883820000221,"[(16.0, 3.46883820000221)]",831.0808878999997,None,,,16.0,,,,,,,,sub_101,2022-11-03_15h53.09.493,Reversal,2022.1.1,59.969619390960055,1,
0,exp1.png,exp2.png,,,,,,,,,,,,,,,,,,1,0,1,0,0,0,0,0,,,,,,,,,True,,,,,,,,,,,,,,,,,,,,,,,,,,,,,,,,,,,,sub_101,2022-11-03_15h53.09.493,Reversal,2022.1.1,59.969619390960055,1,
1,exp3.png,exp4.png,,,,,,,,,,,,,,,,,,1,0,1,0,0,1,1,1,,,,,,,,,False,20,101,False,exp3.png,exp4.png,trial_left_image,1,exp3.png,1,exp3.png,exp4.png,1,1,non-reversed,correct,0.7778564359293659,1,valid_win,748.0337342000021,61,,,,,,,,,,,,,,,,sub_101,2022-11-03_15h53.09.493,Reversal,2022.1.1,59.969619390960055,1,
2,exp1.png,exp2.png,,,,,,,,,,,,,,,,,,1,0,1,0,0,2,2,2,,,,,,,,,False,21,102,True,exp2.png,exp1.png,trial_left_image,1,exp2.png,1,exp2.png,exp1.png,0,4,reversed,correct,0.9174820203477642,1,valid_win,756.4670713000014,62,,,,,,,,,,,,,,,,sub_101,2022-11-03_15h53.09.493,Reversal,2022.1.1,59.969619390960055,1,
3,exp3.png,exp4.png,,,,,,,,,,,,,,,,,,1,0,1,0,0,3,3,3,,,,,,,,,False,22,103,True,exp4.png,exp3.png,trial_right_image,-1,exp3.png,1,exp3.png,exp4.png,1,1,non-reversed,correct,0.4452728266246885,1,valid_win,761.1499975000006,63,,,,,,,,,,,,,,,,sub_101,2022-11-03_15h53.09.493,Reversal,2022.1.1,59.969619390960055,1,
4,exp1.png,exp2.png,,,,,,,,,,,,,,,,,,1,0,1,0,0,4,4,4,,,,,,,,,False,23,104,True,exp2.png,exp1.png,trial_left_image,1,exp2.png,1,exp2.png,exp1.png,0,4,reversed,correct,0.20908246302783118,0,invalid_lose,769.464359900001,63,,,,,,,,,,,,,,,,sub_101,2022-11-03_15h53.09.493,Reversal,2022.1.1,59.969619390960055,1,
5,exp3.png,exp4.png,,,,,,,,,,,,,,,,,,1,0,1,0,0,5,5,5,,,,,,,,,False,24,105,True,exp4.png,exp3.png,trial_right_image,-1,exp3.png,1,exp3.png,exp4.png,1,1,non-reversed,correct,0.5758245787233162,1,valid_win,773.8809137999997,64,,,,,,,,,,,,,,,,sub_101,2022-11-03_15h53.09.493,Reversal,2022.1.1,59.969619390960055,1,
6,exp1.png,exp2.png,,,,,,,,,,,,,,,,,,1,0,1,0,0,6,6,6,,,,,,,,,False,25,106,False,exp1.png,exp2.png,trial_right_image,-1,exp2.png,1,exp2.png,exp1.png,0,4,reversed,correct,0.13714452272148547,0,invalid_lose,780.3150012000006,64,,,,,,,,,,,,,,,,sub_101,2022-11-03_15h53.09.493,Reversal,2022.1.1,59.969619390960055,1,
7,exp3.png,exp4.png,,,,,,,,,,,,,,,,,,1,0,1,0,0,7,7,7,,,,,,,,,False,26,107,False,exp3.png,exp4.png,trial_left_image,1,exp3.png,1,exp3.png,exp4.png,1,1,non-reversed,correct,0.003283817544939671,0,invalid_lose,785.697907400001,64,,,,,,,,,,,,,,,,sub_101,2022-11-03_15h53.09.493,Reversal,2022.1.1,59.969619390960055,1,
8,exp1.png,exp2.png,,,,,,,,,,,,,,,,,,1,0,1,0,0,8,8,8,,,,,,,,,False,27,108,False,exp1.png,exp2.png,trial_right_image,-1,exp2.png,1,exp2.png,exp1.png,0,4,reversed,correct,0.2532604219272423,1,valid_win,790.0965098000015,65,,,,,,,,,,,,,,,,sub_101,2022-11-03_15h53.09.493,Reversal,2022.1.1,59.969619390960055,1,
9,exp3.png,exp4.png,,,,,,,,,,,,,,,,,,1,0,1,0,0,9,9,9,,,,,,,,,False,28,109,False,exp3.png,exp4.png,trial_right_image,-1,exp4.png,1,exp3.png,exp4.png,0,2,non-reversed,incorrect,0.9816959458960265,0,valid_lose,795.8782608000001,65,,,,,,,,,,,,,,,,sub_101,2022-11-03_15h53.09.493,Reversal,2022.1.1,59.969619390960055,1,
10,exp1.png,exp2.png,,,,,,,,,,,,,,,,,,1,0,1,0,0,10,10,10,,,,,,,,,False,29,110,True,exp2.png,exp1.png,trial_left_image,1,exp2.png,1,exp2.png,exp1.png,0,4,reversed,correct,0.2059644704381648,0,invalid_lose,802.3271373999996,65,,,,,,,,,,,,,,,,sub_101,2022-11-03_15h53.09.493,Reversal,2022.1.1,59.969619390960055,1,
11,exp3.png,exp4.png,,,,,,,,,,,,,,,,,,1,0,1,0,0,11,11,11,,,,,,,,,False,30,111,True,exp4.png,exp3.png,trial_right_image,-1,exp3.png,1,exp3.png,exp4.png,1,1,non-reversed,correct,0.3178036382695901,1,valid_win,807.0278232000019,66,,,,,,,,,,,,,,,,sub_101,2022-11-03_15h53.09.493,Reversal,2022.1.1,59.969619390960055,1,
12,exp1.png,exp2.png,,,,,,,,,,,,,,,,,,1,0,1,0,0,12,12,12,,,,,,,,,False,31,112,False,exp1.png,exp2.png,trial_left_image,1,exp1.png,1,exp2.png,exp1.png,1,3,reversed,incorrect,0.4438058672228452,0,valid_lose,813.2935451000012,66,,,,,,,,,,,,,,,,sub_101,2022-11-03_15h53.09.493,Reversal,2022.1.1,59.969619390960055,1,
13,exp3.png,exp4.png,,,,,,,,,,,,,,,,,,1,0,1,0,0,13,13,13,,,,,,,,,False,32,113,True,exp4.png,exp3.png,trial_right_image,-1,exp3.png,1,exp3.png,exp4.png,1,1,non-reversed,correct,0.6230784001380447,1,valid_win,819.0415926999995,67,,,,,,,,,,,,,,,,sub_101,2022-11-03_15h53.09.493,Reversal,2022.1.1,59.969619390960055,1,
14,exp1.png,exp2.png,,,,,,,,,,,,,,,,,,1,0,1,0,0,14,14,14,,,,,,,,,False,33,114,True,exp2.png,exp1.png,trial_right_image,-1,exp1.png,1,exp2.png,exp1.png,1,3,reversed,incorrect,0.5654916932744445,0,valid_lose,827.5909377999997,67,,,,,,,,,,,,,,,,sub_101,2022-11-03_15h53.09.493,Reversal,2022.1.1,59.969619390960055,1,
15,exp3.png,exp4.png,,,,,,,,,,,,,,,,,,1,0,1,0,0,15,15,15,,,,,,,,,False,34,115,True,exp4.png,exp3.png,trial_left_image,1,exp4.png,1,exp3.png,exp4.png,0,2,non-reversed,incorrect,0.31601098389039306,0,valid_lose,832.1906285000005,67,,,,,,,,,,,,,,,,sub_101,2022-11-03_15h53.09.493,Reversal,2022.1.1,59.969619390960055,1,
16,exp1.png,exp2.png,,,,,,,,,,,,,,,,,,1,0,1,0,0,16,16,16,,,,,,,,,False,35,116,False,exp1.png,exp2.png,trial_left_image,1,exp1.png,1,exp2.png,exp1.png,1,3,reversed,incorrect,0.7921703485589116,0,valid_lose,837.8393866000006,67,,,,,,,,,,,,,,,,sub_101,2022-11-03_15h53.09.493,Reversal,2022.1.1,59.969619390960055,1,
17,exp3.png,exp4.png,,,,,,,,,,,,,,,,,,1,0,1,0,0,17,17,17,,,,,,,,,False,36,117,False,exp3.png,exp4.png,trial_left_image,1,exp3.png,1,exp3.png,exp4.png,1,1,non-reversed,correct,0.09844409464483705,0,invalid_lose,843.0560102000018,67,,,,,,,,,,,,,,,,sub_101,2022-11-03_15h53.09.493,Reversal,2022.1.1,59.969619390960055,1,
18,exp1.png,exp2.png,,,,,,,,,,,,,,,,,,1,0,1,0,0,18,18,18,,,,,,,,,False,37,118,False,exp1.png,exp2.png,trial_right_image,-1,exp2.png,1,exp2.png,exp1.png,0,4,reversed,correct,0.48618968981271693,1,valid_win,847.7568242999987,68,,,,,,,,,,,,,,,,sub_101,2022-11-03_15h53.09.493,Reversal,2022.1.1,59.969619390960055,1,
19,exp3.png,exp4.png,,,,,,,,,,,,,,,,,,1,0,1,0,0,19,19,19,,,,,,,,,False,38,119,True,exp4.png,exp3.png,trial_right_image,-1,exp3.png,1,exp3.png,exp4.png,1,1,non-reversed,correct,0.8906020525860213,1,valid_win,852.2039939999995,69,,,,,,,,,,,,,,,,sub_101,2022-11-03_15h53.09.493,Reversal,2022.1.1,59.969619390960055,1,
20,exp1.png,exp2.png,,,,,,,,,,,,,,,,,,1,0,1,0,0,20,20,20,,,,,,,,,False,39,120,False,exp1.png,exp2.png,trial_right_image,-1,exp2.png,1,exp2.png,exp1.png,0,4,reversed,correct,0.39932118272985473,1,valid_win,858.4699977000018,70,,,,,,,,,,,,,,,,sub_101,2022-11-03_15h53.09.493,Reversal,2022.1.1,59.969619390960055,1,
,,,exp1.png,,,,,,,,,,,,,,,,,1,0,1,0,,,,,0,0,0,0,0,0,0,0,,,,,,,,,,,,,,,,,,,,,,21.0,2.658543400000781,"[(21.0, 2.658543400000781)]",951.9942995999991,None,,,,21.0,,,,,,,sub_101,2022-11-03_15h53.09.493,Reversal,2022.1.1,59.969619390960055,1,
,,,exp2.png,,,,,,,,,,,,,,,,,1,0,1,0,,,,,0,0,0,0,0,1,1,1,,,,,,,,,,,,,,,,,,,,,,44.0,3.2748599000005925,"[(68.0, 2.1249280999982147), (44.0, 3.2748599000005925)]",955.6409424999983,None,44.0,,,,,,,,,,sub_101,2022-11-03_15h53.09.493,Reversal,2022.1.1,59.969619390960055,1,
,,,exp3.png,,,,,,,,,,,,,,,,,1,0,1,0,,,,,0,0,0,0,0,2,2,2,,,,,,,,,,,,,,,,,,,,,,85.0,2.1728278000009595,"[(85.0, 2.1728278000009595)]",959.7846501999993,None,,85.0,,,,,,,,,sub_101,2022-11-03_15h53.09.493,Reversal,2022.1.1,59.969619390960055,1,
,,,exp4.png,,,,,,,,,,,,,,,,,1,0,1,0,,,,,0,0,0,0,0,3,3,3,,,,,,,,,,,,,,,,,,,,,,20.0,2.3877012000011746,"[(20.0, 2.3877012000011746)]",963.3252601999993,None,,,20.0,,,,,,,,sub_101,2022-11-03_15h53.09.493,Reversal,2022.1.1,59.969619390960055,1,
0,exp1.png,exp2.png,,,,,,,,,,,,,,,,,,2,0,2,0,0,0,0,0,,,,,,,,,True,,,,,,,,,,,,,,,,,,,,,,,,,,,,,,,,,,,,sub_101,2022-11-03_15h53.09.493,Reversal,2022.1.1,59.969619390960055,1,
1,exp3.png,exp4.png,,,,,,,,,,,,,,,,,,2,0,2,0,0,1,1,1,,,,,,,,,False,40,121,False,exp3.png,exp4.png,trial_left_image,1,exp3.png,1,exp3.png,exp4.png,1,1,non-reversed,correct,0.20615644128263244,0,invalid_lose,879.7669537000002,70,,,,,,,,,,,,,,,,sub_101,2022-11-03_15h53.09.493,Reversal,2022.1.1,59.969619390960055,1,
2,exp1.png,exp2.png,,,,,,,,,,,,,,,,,,2,0,2,0,0,2,2,2,,,,,,,,,False,41,122,False,exp1.png,exp2.png,trial_right_image,-1,exp2.png,1,exp2.png,exp1.png,0,4,reversed,correct,0.909825281470695,1,valid_win,884.6664106999997,71,,,,,,,,,,,,,,,,sub_101,2022-11-03_15h53.09.493,Reversal,2022.1.1,59.969619390960055,1,
3,exp3.png,exp4.png,,,,,,,,,,,,,,,,,,2,0,2,0,0,3,3,3,,,,,,,,,False,42,123,False,exp3.png,exp4.png,trial_left_image,1,exp3.png,1,exp3.png,exp4.png,1,1,non-reversed,correct,0.07241232988462609,0,invalid_lose,889.5679932999992,71,,,,,,,,,,,,,,,,sub_101,2022-11-03_15h53.09.493,Reversal,2022.1.1,59.969619390960055,1,
4,exp1.png,exp2.png,,,,,,,,,,,,,,,,,,2,0,2,0,0,4,4,4,,,,,,,,,False,43,124,False,exp1.png,exp2.png,trial_right_image,-1,exp2.png,1,exp2.png,exp1.png,0,4,reversed,correct,0.5041441774935349,1,valid_win,894.6987681999999,72,,,,,,,,,,,,,,,,sub_101,2022-11-03_15h53.09.493,Reversal,2022.1.1,59.969619390960055,1,
5,exp3.png,exp4.png,,,,,,,,,,,,,,,,,,2,0,2,0,0,5,5,5,,,,,,,,,False,44,125,True,exp4.png,exp3.png,trial_right_image,-1,exp3.png,1,exp3.png,exp4.png,1,1,non-reversed,correct,0.7160133878613679,1,valid_win,899.065882400002,73,,,,,,,,,,,,,,,,sub_101,2022-11-03_15h53.09.493,Reversal,2022.1.1,59.969619390960055,1,
6,exp1.png,exp2.png,,,,,,,,,,,,,,,,,,2,0,2,0,0,6,6,6,,,,,,,,,False,45,126,False,exp1.png,exp2.png,trial_right_image,-1,exp2.png,1,exp2.png,exp1.png,0,4,reversed,correct,0.3584958215645979,1,valid_win,904.4647380999995,74,,,,,,,,,,,,,,,,sub_101,2022-11-03_15h53.09.493,Reversal,2022.1.1,59.969619390960055,1,
7,exp3.png,exp4.png,,,,,,,,,,,,,,,,,,2,0,2,0,0,7,7,7,,,,,,,,,False,46,127,False,exp3.png,exp4.png,trial_left_image,1,exp3.png,1,exp3.png,exp4.png,1,1,non-reversed,correct,0.903269403529822,1,valid_win,909.479570200001,75,,,,,,,,,,,,,,,,sub_101,2022-11-03_15h53.09.493,Reversal,2022.1.1,59.969619390960055,1,
8,exp1.png,exp2.png,,,,,,,,,,,,,,,,,,2,0,2,0,0,8,8,8,,,,,,,,,False,47,128,False,exp1.png,exp2.png,trial_left_image,1,exp1.png,1,exp2.png,exp1.png,1,3,reversed,incorrect,0.9983600515041122,0,valid_lose,914.4806519000012,75,,,,,,,,,,,,,,,,sub_101,2022-11-03_15h53.09.493,Reversal,2022.1.1,59.969619390960055,1,
9,exp3.png,exp4.png,,,,,,,,,,,,,,,,,,2,0,2,0,0,9,9,9,,,,,,,,,False,48,129,False,exp3.png,exp4.png,trial_left_image,1,exp3.png,1,exp3.png,exp4.png,1,1,non-reversed,correct,0.23137068141308026,0,invalid_lose,919.9616580000002,75,,,,,,,,,,,,,,,,sub_101,2022-11-03_15h53.09.493,Reversal,2022.1.1,59.969619390960055,1,
10,exp1.png,exp2.png,,,,,,,,,,,,,,,,,,2,0,2,0,0,10,10,10,,,,,,,,,False,49,130,True,exp2.png,exp1.png,trial_right_image,-1,exp1.png,1,exp2.png,exp1.png,1,3,reversed,incorrect,0.13540933533683042,1,invalid_win,926.0782041999992,76,,,,,,,,,,,,,,,,sub_101,2022-11-03_15h53.09.493,Reversal,2022.1.1,59.969619390960055,1,
11,exp3.png,exp4.png,,,,,,,,,,,,,,,,,,2,0,2,0,0,11,11,11,,,,,,,,,False,50,131,True,exp4.png,exp3.png,trial_right_image,-1,exp3.png,1,exp3.png,exp4.png,1,1,non-reversed,correct,0.06932583330431208,0,invalid_lose,931.8600322999991,76,,,,,,,,,,,,,,,,sub_101,2022-11-03_15h53.09.493,Reversal,2022.1.1,59.969619390960055,1,
12,exp1.png,exp2.png,,,,,,,,,,,,,,,,,,2,0,2,0,0,12,12,12,,,,,,,,,False,51,132,False,exp1.png,exp2.png,trial_left_image,1,exp1.png,1,exp2.png,exp1.png,1,3,reversed,incorrect,0.8374241834388408,0,valid_lose,937.7597760999997,76,,,,,,,,,,,,,,,,sub_101,2022-11-03_15h53.09.493,Reversal,2022.1.1,59.969619390960055,1,
13,exp3.png,exp4.png,,,,,,,,,,,,,,,,,,2,0,2,0,0,13,13,13,,,,,,,,,False,52,133,False,exp3.png,exp4.png,trial_right_image,-1,exp4.png,1,exp3.png,exp4.png,0,2,non-reversed,incorrect,0.4507973439296984,0,valid_lose,943.892268399999,76,,,,,,,,,,,,,,,,sub_101,2022-11-03_15h53.09.493,Reversal,2022.1.1,59.969619390960055,1,
14,exp1.png,exp2.png,,,,,,,,,,,,,,,,,,2,0,2,0,0,14,14,14,,,,,,,,,False,53,134,True,exp2.png,exp1.png,trial_right_image,-1,exp1.png,1,exp2.png,exp1.png,1,3,reversed,incorrect,0.7830675895563209,0,valid_lose,950.6075282999991,76,,,,,,,,,,,,,,,,sub_101,2022-11-03_15h53.09.493,Reversal,2022.1.1,59.969619390960055,1,
15,exp3.png,exp4.png,,,,,,,,,,,,,,,,,,2,0,2,0,0,15,15,15,,,,,,,,,False,54,135,True,exp4.png,exp3.png,trial_right_image,-1,exp3.png,1,exp3.png,exp4.png,1,1,non-reversed,correct,0.9384277332461461,1,valid_win,955.1907945000021,77,,,,,,,,,,,,,,,,sub_101,2022-11-03_15h53.09.493,Reversal,2022.1.1,59.969619390960055,1,
16,exp1.png,exp2.png,,,,,,,,,,,,,,,,,,2,0,2,0,0,16,16,16,,,,,,,,,False,55,136,True,exp2.png,exp1.png,trial_left_image,1,exp2.png,1,exp2.png,exp1.png,0,4,reversed,correct,0.7936400090016869,1,valid_win,960.1231062000006,78,,,,,,,,,,,,,,,,sub_101,2022-11-03_15h53.09.493,Reversal,2022.1.1,59.969619390960055,1,
17,exp3.png,exp4.png,,,,,,,,,,,,,,,,,,2,0,2,0,0,17,17,17,,,,,,,,,False,56,137,True,exp4.png,exp3.png,trial_right_image,-1,exp3.png,1,exp3.png,exp4.png,1,1,non-reversed,correct,0.32338651593889456,1,valid_win,964.456143899999,79,,,,,,,,,,,,,,,,sub_101,2022-11-03_15h53.09.493,Reversal,2022.1.1,59.969619390960055,1,
18,exp1.png,exp2.png,,,,,,,,,,,,,,,,,,2,0,2,0,0,18,18,18,,,,,,,,,False,57,138,True,exp2.png,exp1.png,trial_left_image,1,exp2.png,1,exp2.png,exp1.png,0,4,reversed,correct,0.3688663288089996,1,valid_win,969.3223652000015,80,,,,,,,,,,,,,,,,sub_101,2022-11-03_15h53.09.493,Reversal,2022.1.1,59.969619390960055,1,
19,exp3.png,exp4.png,,,,,,,,,,,,,,,,,,2,0,2,0,0,19,19,19,,,,,,,,,False,58,139,True,exp4.png,exp3.png,trial_right_image,-1,exp3.png,1,exp3.png,exp4.png,1,1,non-reversed,correct,0.2508385668677011,1,valid_win,973.6548876000015,81,,,,,,,,,,,,,,,,sub_101,2022-11-03_15h53.09.493,Reversal,2022.1.1,59.969619390960055,1,
20,exp1.png,exp2.png,,,,,,,,,,,,,,,,,,2,0,2,0,0,20,20,20,,,,,,,,,False,59,140,True,exp2.png,exp1.png,trial_left_image,1,exp2.png,1,exp2.png,exp1.png,0,4,reversed,correct,0.2965346500740672,1,valid_win,978.487855899999,82,,,,,,,,,,,,,,,,sub_101,2022-11-03_15h53.09.493,Reversal,2022.1.1,59.969619390960055,1,
,,,exp1.png,,,,,,,,,,,,,,,,,2,0,2,0,,,,,0,0,0,0,0,0,0,0,,,,,,,,,,,,,,,,,,,,,,31.0,3.551298400001542,"[(31.0, 3.551298400001542)]",1072.017096399999,None,,,,31.0,,,,,,,sub_101,2022-11-03_15h53.09.493,Reversal,2022.1.1,59.969619390960055,1,
,,,exp2.png,,,,,,,,,,,,,,,,,2,0,2,0,,,,,0,0,0,0,0,1,1,1,,,,,,,,,,,,,,,,,,,,,,33.0,1.306728600000497,"[(33.0, 1.306728600000497)]",1076.6926906000008,None,33.0,,,,,,,,,,sub_101,2022-11-03_15h53.09.493,Reversal,2022.1.1,59.969619390960055,1,
,,,exp3.png,,,,,,,,,,,,,,,,,2,0,2,0,,,,,0,0,0,0,0,2,2,2,,,,,,,,,,,,,,,,,,,,,,78.0,1.8693147999983921,"[(78.0, 1.8693147999983921)]",1079.1292632000004,None,,78.0,,,,,,,,,sub_101,2022-11-03_15h53.09.493,Reversal,2022.1.1,59.969619390960055,1,
,,,exp4.png,,,,,,,,,,,,,,,,,2,0,2,0,,,,,0,0,0,0,0,3,3,3,,,,,,,,,,,,,,,,,,,,,,68.0,2.91824059999999,"[(68.0, 2.91824059999999)]",1081.8858354000004,None,,,68.0,,,,,,,,sub_101,2022-11-03_15h53.09.493,Reversal,2022.1.1,59.969619390960055,1,
,,,,,,,,,,,,,,,,,,,,,,,,,,,,,,,,,,,,,,,,,,,,,,,,,,,,,,,,82,,,,,,,,,,,97,53,44,380.24971189999997,1,,,,,,,
