trial_index,trial_image1_file,trial_image2_file,image_file,learning_outer_loop.thisRepN,learning_outer_loop.thisTrialN,learning_outer_loop.thisN,learning_outer_loop.thisIndex,learning_inner_loop.thisRepN,learning_inner_loop.thisTrialN,learning_inner_loop.thisN,learning_inner_loop.thisIndex,learning_estimation_outer_loop.thisRepN,learning_estimation_outer_loop.thisTrialN,learning_estimation_outer_loop.thisN,learning_estimation_outer_loop.thisIndex,learning_estimation_inner_loop.thisRepN,learning_estimation_inner_loop.thisTrialN,learning_estimation_inner_loop.thisN,learning_estimation_inner_loop.thisIndex,reversal_outer_loop.thisRepN,reversal_outer_loop.thisTrialN,reversal_outer_loop.thisN,reversal_outer_loop.thisIndex,reversal_inner_loop.thisRepN,reversal_inner_loop.thisTrialN,reversal_inner_loop.thisN,reversal_inner_loop.thisIndex,reversal_estimation_outer_loop.thisRepN,reversal_estimation_outer_loop.thisTrialN,reversal_estimation_outer_loop.thisN,reversal_estimation_outer_loop.thisIndex,reversal_estimation_inner_loop.thisRepN,reversal_estimation_inner_loop.thisTrialN,reversal_estimation_inner_loop.thisN,reversal_estimation_inner_loop.thisIndex,skipped,total_trial_counter,trial_num,left_right_flip,left_image_file,right_image_file,clicked_stimulus_side,side,clicked_stimulus,version,high_prob_image_file,low_prob_image_file,choice_a,choice_b,pair_type,correct,trial_feedback_random,reward,trial_type,overall_time_after_trial,score,estimation_exp1.png,estimation_rating.response,estimation_rating.rt,estimation_rating.history,estimation_rating.started,estimation_rating.stopped,estimation_exp2.png,estimation_exp3.png,estimation_exp4.png,total_learning_time,total_correct,learning_correct,reversal_correct,total_reversal_time,extra_block,participant,date,expName,psychopyVersion,frameRate,ver,
0,exp1.png,exp2.png,,0,0,0,0,0,0,0,0,,,,,,,,,,,,,,,,,,,,,,,,,False,0,1,False,exp1.png,exp2.png,trial_right_image,-1,exp2.png,4,exp2.png,exp1.png,1,1,non-reversed,correct,0.6645838842578528,1,valid_win,16.27940379991196,1,,,,,,,,,,,,,,,,sub_156,2022-12-01_15h01.23.427,Reversal,2022.1.1,59.98652703517164,4,
1,exp3.png,exp4.png,,0,0,0,0,0,1,1,1,,,,,,,,,,,,,,,,,,,,,,,,,False,1,2,True,exp4.png,exp3.png,trial_left_image,1,exp4.png,4,exp4.png,exp3.png,1,3,reversed,correct,0.44366263054458566,1,valid_win,25.24558529991191,2,,,,,,,,,,,,,,,,sub_156,2022-12-01_15h01.23.427,Reversal,2022.1.1,59.98652703517164,4,
2,exp1.png,exp2.png,,0,0,0,0,0,2,2,2,,,,,,,,,,,,,,,,,,,,,,,,,False,2,3,False,exp1.png,exp2.png,trial_right_image,-1,exp2.png,4,exp2.png,exp1.png,1,1,non-reversed,correct,0.7626996581071223,1,valid_win,34.82717820000835,3,,,,,,,,,,,,,,,,sub_156,2022-12-01_15h01.23.427,Reversal,2022.1.1,59.98652703517164,4,
3,exp3.png,exp4.png,,0,0,0,0,0,3,3,3,,,,,,,,,,,,,,,,,,,,,,,,,False,3,4,True,exp4.png,exp3.png,trial_right_image,-1,exp3.png,4,exp4.png,exp3.png,0,4,reversed,incorrect,0.7498625483786661,0,valid_lose,41.8597887000069,3,,,,,,,,,,,,,,,,sub_156,2022-12-01_15h01.23.427,Reversal,2022.1.1,59.98652703517164,4,
4,exp1.png,exp2.png,,0,0,0,0,0,4,4,4,,,,,,,,,,,,,,,,,,,,,,,,,False,4,5,False,exp1.png,exp2.png,trial_left_image,1,exp1.png,4,exp2.png,exp1.png,0,2,non-reversed,incorrect,0.35557395930865043,0,valid_lose,48.559380499995314,3,,,,,,,,,,,,,,,,sub_156,2022-12-01_15h01.23.427,Reversal,2022.1.1,59.98652703517164,4,
5,exp3.png,exp4.png,,0,0,0,0,0,5,5,5,,,,,,,,,,,,,,,,,,,,,,,,,False,5,6,True,exp4.png,exp3.png,trial_right_image,-1,exp3.png,4,exp4.png,exp3.png,0,4,reversed,incorrect,0.2987146282424301,0,valid_lose,56.44182219996583,3,,,,,,,,,,,,,,,,sub_156,2022-12-01_15h01.23.427,Reversal,2022.1.1,59.98652703517164,4,
6,exp1.png,exp2.png,,0,0,0,0,0,6,6,6,,,,,,,,,,,,,,,,,,,,,,,,,False,6,7,False,exp1.png,exp2.png,trial_left_image,1,exp1.png,4,exp2.png,exp1.png,0,2,non-reversed,incorrect,0.5866646738233102,0,valid_lose,61.47439929994289,3,,,,,,,,,,,,,,,,sub_156,2022-12-01_15h01.23.427,Reversal,2022.1.1,59.98652703517164,4,
7,exp3.png,exp4.png,,0,0,0,0,0,7,7,7,,,,,,,,,,,,,,,,,,,,,,,,,False,7,8,False,exp3.png,exp4.png,trial_right_image,-1,exp4.png,4,exp4.png,exp3.png,1,3,reversed,correct,0.7223387739403448,1,valid_win,66.03963959997054,4,,,,,,,,,,,,,,,,sub_156,2022-12-01_15h01.23.427,Reversal,2022.1.1,59.98652703517164,4,
8,exp1.png,exp2.png,,0,0,0,0,0,8,8,8,,,,,,,,,,,,,,,,,,,,,,,,,False,8,9,False,exp1.png,exp2.png,trial_right_image,-1,exp2.png,4,exp2.png,exp1.png,1,1,non-reversed,correct,0.43534933694659206,1,valid_win,72.1737412000075,5,,,,,,,,,,,,,,,,sub_156,2022-12-01_15h01.23.427,Reversal,2022.1.1,59.98652703517164,4,
9,exp3.png,exp4.png,,0,0,0,0,0,9,9,9,,,,,,,,,,,,,,,,,,,,,,,,,False,9,10,True,exp4.png,exp3.png,trial_right_image,-1,exp3.png,4,exp4.png,exp3.png,0,4,reversed,incorrect,0.29659728049061207,0,valid_lose,76.88883879990317,5,,,,,,,,,,,,,,,,sub_156,2022-12-01_15h01.23.427,Reversal,2022.1.1,59.98652703517164,4,
10,exp1.png,exp2.png,,0,0,0,0,0,10,10,10,,,,,,,,,,,,,,,,,,,,,,,,,False,10,11,True,exp2.png,exp1.png,trial_left_image,1,exp2.png,4,exp2.png,exp1.png,1,1,non-reversed,correct,0.4238934879897086,1,valid_win,81.85475479997694,6,,,,,,,,,,,,,,,,sub_156,2022-12-01_15h01.23.427,Reversal,2022.1.1,59.98652703517164,4,
11,exp3.png,exp4.png,,0,0,0,0,0,11,11,11,,,,,,,,,,,,,,,,,,,,,,,,,False,11,12,True,exp4.png,exp3.png,trial_right_image,-1,exp3.png,4,exp4.png,exp3.png,0,4,reversed,incorrect,0.4010904560572479,0,valid_lose,87.28793429990765,6,,,,,,,,,,,,,,,,sub_156,2022-12-01_15h01.23.427,Reversal,2022.1.1,59.98652703517164,4,
12,exp1.png,exp2.png,,0,0,0,0,0,12,12,12,,,,,,,,,,,,,,,,,,,,,,,,,False,12,13,True,exp2.png,exp1.png,trial_left_image,1,exp2.png,4,exp2.png,exp1.png,1,1,non-reversed,correct,0.7261721464734455,1,valid_win,91.9867787999101,7,,,,,,,,,,,,,,,,sub_156,2022-12-01_15h01.23.427,Reversal,2022.1.1,59.98652703517164,4,
13,exp3.png,exp4.png,,0,0,0,0,0,13,13,13,,,,,,,,,,,,,,,,,,,,,,,,,False,13,14,False,exp3.png,exp4.png,trial_left_image,1,exp3.png,4,exp4.png,exp3.png,0,4,reversed,incorrect,0.45945044290973036,0,valid_lose,97.56971419998445,7,,,,,,,,,,,,,,,,sub_156,2022-12-01_15h01.23.427,Reversal,2022.1.1,59.98652703517164,4,
14,exp1.png,exp2.png,,0,0,0,0,0,14,14,14,,,,,,,,,,,,,,,,,,,,,,,,,False,14,15,True,exp2.png,exp1.png,trial_right_image,-1,exp1.png,4,exp2.png,exp1.png,0,2,non-reversed,incorrect,0.1638206745159243,1,invalid_win,102.01912099996116,8,,,,,,,,,,,,,,,,sub_156,2022-12-01_15h01.23.427,Reversal,2022.1.1,59.98652703517164,4,
15,exp3.png,exp4.png,,0,0,0,0,0,15,15,15,,,,,,,,,,,,,,,,,,,,,,,,,False,15,16,False,exp3.png,exp4.png,trial_right_image,-1,exp4.png,4,exp4.png,exp3.png,1,3,reversed,correct,0.10588345909176422,0,invalid_lose,106.86925489990972,8,,,,,,,,,,,,,,,,sub_156,2022-12-01_15h01.23.427,Reversal,2022.1.1,59.98652703517164,4,
16,exp1.png,exp2.png,,0,0,0,0,0,16,16,16,,,,,,,,,,,,,,,,,,,,,,,,,False,16,17,False,exp1.png,exp2.png,trial_left_image,1,exp1.png,4,exp2.png,exp1.png,0,2,non-reversed,incorrect,0.2858125236804381,0,valid_lose,111.73520699993242,8,,,,,,,,,,,,,,,,sub_156,2022-12-01_15h01.23.427,Reversal,2022.1.1,59.98652703517164,4,
17,exp3.png,exp4.png,,0,0,0,0,0,17,17,17,,,,,,,,,,,,,,,,,,,,,,,,,False,17,18,False,exp3.png,exp4.png,trial_right_image,-1,exp4.png,4,exp4.png,exp3.png,1,3,reversed,correct,0.9438610795626492,1,valid_win,116.00096649990883,9,,,,,,,,,,,,,,,,sub_156,2022-12-01_15h01.23.427,Reversal,2022.1.1,59.98652703517164,4,
18,exp1.png,exp2.png,,0,0,0,0,0,18,18,18,,,,,,,,,,,,,,,,,,,,,,,,,False,18,19,True,exp2.png,exp1.png,trial_right_image,-1,exp1.png,4,exp2.png,exp1.png,0,2,non-reversed,incorrect,0.31419242593542185,0,valid_lose,120.65015759994276,9,,,,,,,,,,,,,,,,sub_156,2022-12-01_15h01.23.427,Reversal,2022.1.1,59.98652703517164,4,
19,exp3.png,exp4.png,,0,0,0,0,0,19,19,19,,,,,,,,,,,,,,,,,,,,,,,,,False,19,20,True,exp4.png,exp3.png,trial_left_image,1,exp4.png,4,exp4.png,exp3.png,1,3,reversed,correct,0.2587626076219207,1,valid_win,125.115575099946,10,,,,,,,,,,,,,,,,sub_156,2022-12-01_15h01.23.427,Reversal,2022.1.1,59.98652703517164,4,
20,exp1.png,exp2.png,,0,0,0,0,0,20,20,20,,,,,,,,,,,,,,,,,,,,,,,,,True,,,,,,,,,,,,,,,,,,,,,,,,,,,,,,,,,,,,sub_156,2022-12-01_15h01.23.427,Reversal,2022.1.1,59.98652703517164,4,
,,,exp1.png,0,0,0,0,,,,,0,0,0,0,0,0,0,0,,,,,,,,,,,,,,,,,,,,,,,,,,,,,,,,,,,,,,79.0,79.0,19.448862300021574,"[(79.0, 19.448862300021574)]",224.58810829999857,None,,,,,,,,,,sub_156,2022-12-01_15h01.23.427,Reversal,2022.1.1,59.98652703517164,4,
,,,exp2.png,0,0,0,0,,,,,0,0,0,0,0,1,1,1,,,,,,,,,,,,,,,,,,,,,,,,,,,,,,,,,,,,,,,18.0,3.3928695999784395,"[(18.0, 3.3928695999784395)]",245.62439799995627,None,18.0,,,,,,,,,sub_156,2022-12-01_15h01.23.427,Reversal,2022.1.1,59.98652703517164,4,
,,,exp3.png,0,0,0,0,,,,,0,0,0,0,0,2,2,2,,,,,,,,,,,,,,,,,,,,,,,,,,,,,,,,,,,,,,,79.0,8.356254499987699,"[(70.0, 4.790264899958856), (79.0, 8.356254499987699)]",250.04353450005874,None,,79.0,,,,,,,,sub_156,2022-12-01_15h01.23.427,Reversal,2022.1.1,59.98652703517164,4,
,,,exp4.png,0,0,0,0,,,,,0,0,0,0,0,3,3,3,,,,,,,,,,,,,,,,,,,,,,,,,,,,,,,,,,,,,,,14.0,3.33830649999436,"[(14.0, 3.33830649999436)]",259.4440800000448,None,,,14.0,,,,,,,sub_156,2022-12-01_15h01.23.427,Reversal,2022.1.1,59.98652703517164,4,
0,exp1.png,exp2.png,,1,0,1,0,0,0,0,0,,,,,,,,,,,,,,,,,,,,,,,,,False,20,21,False,exp1.png,exp2.png,trial_right_image,-1,exp2.png,4,exp2.png,exp1.png,1,1,non-reversed,correct,0.36003284210723585,1,valid_win,172.19498939998448,11,,,,,,,,,,,,,,,,sub_156,2022-12-01_15h01.23.427,Reversal,2022.1.1,59.98652703517164,4,
1,exp3.png,exp4.png,,1,0,1,0,0,1,1,1,,,,,,,,,,,,,,,,,,,,,,,,,False,21,22,True,exp4.png,exp3.png,trial_right_image,-1,exp3.png,4,exp4.png,exp3.png,0,4,reversed,incorrect,0.7644580344757863,0,valid_lose,176.99270940001588,11,,,,,,,,,,,,,,,,sub_156,2022-12-01_15h01.23.427,Reversal,2022.1.1,59.98652703517164,4,
2,exp1.png,exp2.png,,1,0,1,0,0,2,2,2,,,,,,,,,,,,,,,,,,,,,,,,,False,22,23,True,exp2.png,exp1.png,trial_left_image,1,exp2.png,4,exp2.png,exp1.png,1,1,non-reversed,correct,0.4620551010404649,1,valid_win,181.80885549995583,12,,,,,,,,,,,,,,,,sub_156,2022-12-01_15h01.23.427,Reversal,2022.1.1,59.98652703517164,4,
3,exp3.png,exp4.png,,1,0,1,0,0,3,3,3,,,,,,,,,,,,,,,,,,,,,,,,,False,23,24,False,exp3.png,exp4.png,trial_right_image,-1,exp4.png,4,exp4.png,exp3.png,1,3,reversed,correct,0.2795260462358856,1,valid_win,186.37545099994168,13,,,,,,,,,,,,,,,,sub_156,2022-12-01_15h01.23.427,Reversal,2022.1.1,59.98652703517164,4,
4,exp1.png,exp2.png,,1,0,1,0,0,4,4,4,,,,,,,,,,,,,,,,,,,,,,,,,False,24,25,False,exp1.png,exp2.png,trial_right_image,-1,exp2.png,4,exp2.png,exp1.png,1,1,non-reversed,correct,0.7324857892275967,1,valid_win,190.7749447999522,14,,,,,,,,,,,,,,,,sub_156,2022-12-01_15h01.23.427,Reversal,2022.1.1,59.98652703517164,4,
5,exp3.png,exp4.png,,1,0,1,0,0,5,5,5,,,,,,,,,,,,,,,,,,,,,,,,,False,25,26,True,exp4.png,exp3.png,trial_right_image,-1,exp3.png,4,exp4.png,exp3.png,0,4,reversed,incorrect,0.7825497622580849,0,valid_lose,198.7400920999935,14,,,,,,,,,,,,,,,,sub_156,2022-12-01_15h01.23.427,Reversal,2022.1.1,59.98652703517164,4,
6,exp1.png,exp2.png,,1,0,1,0,0,6,6,6,,,,,,,,,,,,,,,,,,,,,,,,,False,26,27,True,exp2.png,exp1.png,trial_left_image,1,exp2.png,4,exp2.png,exp1.png,1,1,non-reversed,correct,0.04230686496723679,0,invalid_lose,203.22285279992502,14,,,,,,,,,,,,,,,,sub_156,2022-12-01_15h01.23.427,Reversal,2022.1.1,59.98652703517164,4,
7,exp3.png,exp4.png,,1,0,1,0,0,7,7,7,,,,,,,,,,,,,,,,,,,,,,,,,False,27,28,False,exp3.png,exp4.png,trial_right_image,-1,exp4.png,4,exp4.png,exp3.png,1,3,reversed,correct,0.08793512724179597,0,invalid_lose,207.27236109995283,14,,,,,,,,,,,,,,,,sub_156,2022-12-01_15h01.23.427,Reversal,2022.1.1,59.98652703517164,4,
8,exp1.png,exp2.png,,1,0,1,0,0,8,8,8,,,,,,,,,,,,,,,,,,,,,,,,,False,28,29,True,exp2.png,exp1.png,trial_right_image,-1,exp1.png,4,exp2.png,exp1.png,0,2,non-reversed,incorrect,0.8265960865884329,0,valid_lose,212.13788369996473,14,,,,,,,,,,,,,,,,sub_156,2022-12-01_15h01.23.427,Reversal,2022.1.1,59.98652703517164,4,
9,exp3.png,exp4.png,,1,0,1,0,0,9,9,9,,,,,,,,,,,,,,,,,,,,,,,,,False,29,30,False,exp3.png,exp4.png,trial_left_image,1,exp3.png,4,exp4.png,exp3.png,0,4,reversed,incorrect,0.026827617979909957,1,invalid_win,216.87123439996503,15,,,,,,,,,,,,,,,,sub_156,2022-12-01_15h01.23.427,Reversal,2022.1.1,59.98652703517164,4,
10,exp1.png,exp2.png,,1,0,1,0,0,10,10,10,,,,,,,,,,,,,,,,,,,,,,,,,False,30,31,False,exp1.png,exp2.png,trial_right_image,-1,exp2.png,4,exp2.png,exp1.png,1,1,non-reversed,correct,0.5692417639789633,1,valid_win,221.48842529999092,16,,,,,,,,,,,,,,,,sub_156,2022-12-01_15h01.23.427,Reversal,2022.1.1,59.98652703517164,4,
11,exp3.png,exp4.png,,1,0,1,0,0,11,11,11,,,,,,,,,,,,,,,,,,,,,,,,,False,31,32,True,exp4.png,exp3.png,trial_right_image,-1,exp3.png,4,exp4.png,exp3.png,0,4,reversed,incorrect,0.8211176176700908,0,valid_lose,226.2031726000132,16,,,,,,,,,,,,,,,,sub_156,2022-12-01_15h01.23.427,Reversal,2022.1.1,59.98652703517164,4,
12,exp1.png,exp2.png,,1,0,1,0,0,12,12,12,,,,,,,,,,,,,,,,,,,,,,,,,False,32,33,False,exp1.png,exp2.png,trial_left_image,1,exp1.png,4,exp2.png,exp1.png,0,2,non-reversed,incorrect,0.10514938459688206,1,invalid_win,230.97144989995286,17,,,,,,,,,,,,,,,,sub_156,2022-12-01_15h01.23.427,Reversal,2022.1.1,59.98652703517164,4,
13,exp3.png,exp4.png,,1,0,1,0,0,13,13,13,,,,,,,,,,,,,,,,,,,,,,,,,False,33,34,False,exp3.png,exp4.png,trial_left_image,1,exp3.png,4,exp4.png,exp3.png,0,4,reversed,incorrect,0.06877074778928915,1,invalid_win,236.13500479992945,18,,,,,,,,,,,,,,,,sub_156,2022-12-01_15h01.23.427,Reversal,2022.1.1,59.98652703517164,4,
14,exp1.png,exp2.png,,1,0,1,0,0,14,14,14,,,,,,,,,,,,,,,,,,,,,,,,,False,34,35,False,exp1.png,exp2.png,trial_left_image,1,exp1.png,4,exp2.png,exp1.png,0,2,non-reversed,incorrect,0.5512295825714197,0,valid_lose,241.16996779991314,18,,,,,,,,,,,,,,,,sub_156,2022-12-01_15h01.23.427,Reversal,2022.1.1,59.98652703517164,4,
15,exp3.png,exp4.png,,1,0,1,0,0,15,15,15,,,,,,,,,,,,,,,,,,,,,,,,,False,35,36,True,exp4.png,exp3.png,trial_right_image,-1,exp3.png,4,exp4.png,exp3.png,0,4,reversed,incorrect,0.5921466085855273,0,valid_lose,245.23368379997555,18,,,,,,,,,,,,,,,,sub_156,2022-12-01_15h01.23.427,Reversal,2022.1.1,59.98652703517164,4,
16,exp1.png,exp2.png,,1,0,1,0,0,16,16,16,,,,,,,,,,,,,,,,,,,,,,,,,False,36,37,True,exp2.png,exp1.png,trial_left_image,1,exp2.png,4,exp2.png,exp1.png,1,1,non-reversed,correct,0.0505842053275366,0,invalid_lose,251.4666340999538,18,,,,,,,,,,,,,,,,sub_156,2022-12-01_15h01.23.427,Reversal,2022.1.1,59.98652703517164,4,
17,exp3.png,exp4.png,,1,0,1,0,0,17,17,17,,,,,,,,,,,,,,,,,,,,,,,,,False,37,38,True,exp4.png,exp3.png,trial_right_image,-1,exp3.png,4,exp4.png,exp3.png,0,4,reversed,incorrect,0.029335771459048088,1,invalid_win,255.5318488999037,19,,,,,,,,,,,,,,,,sub_156,2022-12-01_15h01.23.427,Reversal,2022.1.1,59.98652703517164,4,
18,exp1.png,exp2.png,,1,0,1,0,0,18,18,18,,,,,,,,,,,,,,,,,,,,,,,,,False,38,39,True,exp2.png,exp1.png,trial_right_image,-1,exp1.png,4,exp2.png,exp1.png,0,2,non-reversed,incorrect,0.47635837007948933,0,valid_lose,259.8484341999283,19,,,,,,,,,,,,,,,,sub_156,2022-12-01_15h01.23.427,Reversal,2022.1.1,59.98652703517164,4,
19,exp3.png,exp4.png,,1,0,1,0,0,19,19,19,,,,,,,,,,,,,,,,,,,,,,,,,False,39,40,False,exp3.png,exp4.png,trial_left_image,1,exp3.png,4,exp4.png,exp3.png,0,4,reversed,incorrect,0.012151902130916103,1,invalid_win,264.63210449996404,20,,,,,,,,,,,,,,,,sub_156,2022-12-01_15h01.23.427,Reversal,2022.1.1,59.98652703517164,4,
20,exp1.png,exp2.png,,1,0,1,0,0,20,20,20,,,,,,,,,,,,,,,,,,,,,,,,,True,,,,,,,,,,,,,,,,,,,,,,,,,,,,,,,,,,,,sub_156,2022-12-01_15h01.23.427,Reversal,2022.1.1,59.98652703517164,4,
,,,exp1.png,1,0,1,0,,,,,0,0,0,0,0,0,0,0,,,,,,,,,,,,,,,,,,,,,,,,,,,,,,,,,,,,,,95.0,95.0,6.191385400015861,"[(95.0, 6.191385400015861)]",364.1032178000314,None,,,,,,,,,,sub_156,2022-12-01_15h01.23.427,Reversal,2022.1.1,59.98652703517164,4,
,,,exp2.png,1,0,1,0,,,,,0,0,0,0,0,1,1,1,,,,,,,,,,,,,,,,,,,,,,,,,,,,,,,,,,,,,,,91.0,4.908400999964215,"[(91.0, 4.908400999964215)]",371.5078975999495,None,91.0,,,,,,,,,sub_156,2022-12-01_15h01.23.427,Reversal,2022.1.1,59.98652703517164,4,
,,,exp3.png,1,0,1,0,,,,,0,0,0,0,0,2,2,2,,,,,,,,,,,,,,,,,,,,,,,,,,,,,,,,,,,,,,,34.0,5.953720399993472,"[(15.0, 2.5380673999898136), (34.0, 5.953720399993472)]",379.04519600002095,None,,34.0,,,,,,,,sub_156,2022-12-01_15h01.23.427,Reversal,2022.1.1,59.98652703517164,4,
,,,exp4.png,1,0,1,0,,,,,0,0,0,0,0,3,3,3,,,,,,,,,,,,,,,,,,,,,,,,,,,,,,,,,,,,,,,98.0,3.2381608999567106,"[(98.0, 3.2381608999567106)]",386.6935705000069,None,,,98.0,,,,,,,sub_156,2022-12-01_15h01.23.427,Reversal,2022.1.1,59.98652703517164,4,
0,exp1.png,exp2.png,,2,0,2,0,0,0,0,0,,,,,,,,,,,,,,,,,,,,,,,,,False,40,41,True,exp2.png,exp1.png,trial_right_image,-1,exp1.png,4,exp2.png,exp1.png,0,2,non-reversed,incorrect,0.317633762065062,0,valid_lose,300.37692349997815,20,,,,,,,,,,,,,,,,sub_156,2022-12-01_15h01.23.427,Reversal,2022.1.1,59.98652703517164,4,
1,exp3.png,exp4.png,,2,0,2,0,0,1,1,1,,,,,,,,,,,,,,,,,,,,,,,,,False,41,42,False,exp3.png,exp4.png,trial_left_image,1,exp3.png,4,exp4.png,exp3.png,0,4,reversed,incorrect,0.9939996936613682,0,valid_lose,304.37753980001435,20,,,,,,,,,,,,,,,,sub_156,2022-12-01_15h01.23.427,Reversal,2022.1.1,59.98652703517164,4,
2,exp1.png,exp2.png,,2,0,2,0,0,2,2,2,,,,,,,,,,,,,,,,,,,,,,,,,False,42,43,True,exp2.png,exp1.png,trial_right_image,-1,exp1.png,4,exp2.png,exp1.png,0,2,non-reversed,incorrect,0.3214931222605143,0,valid_lose,308.37563029991,20,,,,,,,,,,,,,,,,sub_156,2022-12-01_15h01.23.427,Reversal,2022.1.1,59.98652703517164,4,
3,exp3.png,exp4.png,,2,0,2,0,0,3,3,3,,,,,,,,,,,,,,,,,,,,,,,,,False,43,44,False,exp3.png,exp4.png,trial_left_image,1,exp3.png,4,exp4.png,exp3.png,0,4,reversed,incorrect,0.130388783514801,1,invalid_win,312.5088752999436,21,,,,,,,,,,,,,,,,sub_156,2022-12-01_15h01.23.427,Reversal,2022.1.1,59.98652703517164,4,
4,exp1.png,exp2.png,,2,0,2,0,0,4,4,4,,,,,,,,,,,,,,,,,,,,,,,,,False,44,45,True,exp2.png,exp1.png,trial_left_image,1,exp2.png,4,exp2.png,exp1.png,1,1,non-reversed,correct,0.541197762075632,1,valid_win,317.2074643999804,22,,,,,,,,,,,,,,,,sub_156,2022-12-01_15h01.23.427,Reversal,2022.1.1,59.98652703517164,4,
5,exp3.png,exp4.png,,2,0,2,0,0,5,5,5,,,,,,,,,,,,,,,,,,,,,,,,,False,45,46,False,exp3.png,exp4.png,trial_right_image,-1,exp4.png,4,exp4.png,exp3.png,1,3,reversed,correct,0.27578105551721876,1,valid_win,322.49024019995704,23,,,,,,,,,,,,,,,,sub_156,2022-12-01_15h01.23.427,Reversal,2022.1.1,59.98652703517164,4,
6,exp1.png,exp2.png,,2,0,2,0,0,6,6,6,,,,,,,,,,,,,,,,,,,,,,,,,False,46,47,True,exp2.png,exp1.png,trial_left_image,1,exp2.png,4,exp2.png,exp1.png,1,1,non-reversed,correct,0.8129949543055262,1,valid_win,328.306986499927,24,,,,,,,,,,,,,,,,sub_156,2022-12-01_15h01.23.427,Reversal,2022.1.1,59.98652703517164,4,
7,exp3.png,exp4.png,,2,0,2,0,0,7,7,7,,,,,,,,,,,,,,,,,,,,,,,,,False,47,48,True,exp4.png,exp3.png,trial_right_image,-1,exp3.png,4,exp4.png,exp3.png,0,4,reversed,incorrect,0.801625654413772,0,valid_lose,333.13897259999067,24,,,,,,,,,,,,,,,,sub_156,2022-12-01_15h01.23.427,Reversal,2022.1.1,59.98652703517164,4,
8,exp1.png,exp2.png,,2,0,2,0,0,8,8,8,,,,,,,,,,,,,,,,,,,,,,,,,False,48,49,False,exp1.png,exp2.png,trial_left_image,1,exp1.png,4,exp2.png,exp1.png,0,2,non-reversed,incorrect,0.7156118261416513,0,valid_lose,337.0716332999291,24,,,,,,,,,,,,,,,,sub_156,2022-12-01_15h01.23.427,Reversal,2022.1.1,59.98652703517164,4,
9,exp3.png,exp4.png,,2,0,2,0,0,9,9,9,,,,,,,,,,,,,,,,,,,,,,,,,False,49,50,False,exp3.png,exp4.png,trial_right_image,-1,exp4.png,4,exp4.png,exp3.png,1,3,reversed,correct,0.24752871204226468,0,invalid_lose,340.9550258999225,24,,,,,,,,,,,,,,,,sub_156,2022-12-01_15h01.23.427,Reversal,2022.1.1,59.98652703517164,4,
10,exp1.png,exp2.png,,2,0,2,0,0,10,10,10,,,,,,,,,,,,,,,,,,,,,,,,,False,50,51,False,exp1.png,exp2.png,trial_left_image,1,exp1.png,4,exp2.png,exp1.png,0,2,non-reversed,incorrect,0.21794931580451715,1,invalid_win,344.9209655999439,25,,,,,,,,,,,,,,,,sub_156,2022-12-01_15h01.23.427,Reversal,2022.1.1,59.98652703517164,4,
11,exp3.png,exp4.png,,2,0,2,0,0,11,11,11,,,,,,,,,,,,,,,,,,,,,,,,,False,51,52,False,exp3.png,exp4.png,trial_right_image,-1,exp4.png,4,exp4.png,exp3.png,1,3,reversed,correct,0.05512141031648332,0,invalid_lose,348.9709547999082,25,,,,,,,,,,,,,,,,sub_156,2022-12-01_15h01.23.427,Reversal,2022.1.1,59.98652703517164,4,
12,exp1.png,exp2.png,,2,0,2,0,0,12,12,12,,,,,,,,,,,,,,,,,,,,,,,,,False,52,53,True,exp2.png,exp1.png,trial_left_image,1,exp2.png,4,exp2.png,exp1.png,1,1,non-reversed,correct,0.06799954711580447,0,invalid_lose,353.1418043000158,25,,,,,,,,,,,,,,,,sub_156,2022-12-01_15h01.23.427,Reversal,2022.1.1,59.98652703517164,4,
13,exp3.png,exp4.png,,2,0,2,0,0,13,13,13,,,,,,,,,,,,,,,,,,,,,,,,,False,53,54,False,exp3.png,exp4.png,trial_right_image,-1,exp4.png,4,exp4.png,exp3.png,1,3,reversed,correct,0.09583774270166967,0,invalid_lose,357.1693823999958,25,,,,,,,,,,,,,,,,sub_156,2022-12-01_15h01.23.427,Reversal,2022.1.1,59.98652703517164,4,
14,exp1.png,exp2.png,,2,0,2,0,0,14,14,14,,,,,,,,,,,,,,,,,,,,,,,,,False,54,55,False,exp1.png,exp2.png,trial_left_image,1,exp1.png,4,exp2.png,exp1.png,0,2,non-reversed,incorrect,0.06227025547987908,1,invalid_win,360.8528402999509,26,,,,,,,,,,,,,,,,sub_156,2022-12-01_15h01.23.427,Reversal,2022.1.1,59.98652703517164,4,
15,exp3.png,exp4.png,,2,0,2,0,0,15,15,15,,,,,,,,,,,,,,,,,,,,,,,,,False,55,56,True,exp4.png,exp3.png,trial_left_image,1,exp4.png,4,exp4.png,exp3.png,1,3,reversed,correct,0.704959228192324,1,valid_win,364.63522519997787,27,,,,,,,,,,,,,,,,sub_156,2022-12-01_15h01.23.427,Reversal,2022.1.1,59.98652703517164,4,
16,exp1.png,exp2.png,,2,0,2,0,0,16,16,16,,,,,,,,,,,,,,,,,,,,,,,,,False,56,57,True,exp2.png,exp1.png,trial_left_image,1,exp2.png,4,exp2.png,exp1.png,1,1,non-reversed,correct,0.3997367926772676,1,valid_win,368.50115479994565,28,,,,,,,,,,,,,,,,sub_156,2022-12-01_15h01.23.427,Reversal,2022.1.1,59.98652703517164,4,
17,exp3.png,exp4.png,,2,0,2,0,0,17,17,17,,,,,,,,,,,,,,,,,,,,,,,,,False,57,58,True,exp4.png,exp3.png,trial_left_image,1,exp4.png,4,exp4.png,exp3.png,1,3,reversed,correct,0.944299456566045,1,valid_win,372.3506814999273,29,,,,,,,,,,,,,,,,sub_156,2022-12-01_15h01.23.427,Reversal,2022.1.1,59.98652703517164,4,
18,exp1.png,exp2.png,,2,0,2,0,0,18,18,18,,,,,,,,,,,,,,,,,,,,,,,,,False,58,59,True,exp2.png,exp1.png,trial_left_image,1,exp2.png,4,exp2.png,exp1.png,1,1,non-reversed,correct,0.14379036389109145,0,invalid_lose,380.4664803999476,29,,,,,,,,,,,,,,,,sub_156,2022-12-01_15h01.23.427,Reversal,2022.1.1,59.98652703517164,4,
19,exp3.png,exp4.png,,2,0,2,0,0,19,19,19,,,,,,,,,,,,,,,,,,,,,,,,,False,59,60,False,exp3.png,exp4.png,trial_right_image,-1,exp4.png,4,exp4.png,exp3.png,1,3,reversed,correct,0.584588276314695,1,valid_win,384.3658078999724,30,,,,,,,,,,,,,,,,sub_156,2022-12-01_15h01.23.427,Reversal,2022.1.1,59.98652703517164,4,
20,exp1.png,exp2.png,,2,0,2,0,0,20,20,20,,,,,,,,,,,,,,,,,,,,,,,,,True,,,,,,,,,,,,,,,,,,,,,,,,,,,,,,,,,,,,sub_156,2022-12-01_15h01.23.427,Reversal,2022.1.1,59.98652703517164,4,
,,,exp1.png,2,0,2,0,,,,,0,0,0,0,0,0,0,0,,,,,,,,,,,,,,,,,,,,,,,,,,,,,,,,,,,,,,88.0,88.0,3.697328699985519,"[(88.0, 3.697328699985519)]",483.8316147000296,None,,,,,,,,,,sub_156,2022-12-01_15h01.23.427,Reversal,2022.1.1,59.98652703517164,4,
,,,exp2.png,2,0,2,0,,,,,0,0,0,0,0,1,1,1,,,,,,,,,,,,,,,,,,,,,,,,,,,,,,,,,,,,,,,81.0,2.9206479999702424,"[(81.0, 2.9206479999702424)]",489.8162726999726,None,81.0,,,,,,,,,sub_156,2022-12-01_15h01.23.427,Reversal,2022.1.1,59.98652703517164,4,
,,,exp3.png,2,0,2,0,,,,,0,0,0,0,0,2,2,2,,,,,,,,,,,,,,,,,,,,,,,,,,,,,,,,,,,,,,,73.0,3.125499799964018,"[(73.0, 3.125499799964018)]",499.42520179995336,None,,73.0,,,,,,,,sub_156,2022-12-01_15h01.23.427,Reversal,2022.1.1,59.98652703517164,4,
,,,exp4.png,2,0,2,0,,,,,0,0,0,0,0,3,3,3,,,,,,,,,,,,,,,,,,,,,,,,,,,,,,,,,,,,,,,83.0,2.7569178000558168,"[(83.0, 2.7569178000558168)]",503.7931364000542,None,,,83.0,,,,,,,sub_156,2022-12-01_15h01.23.427,Reversal,2022.1.1,59.98652703517164,4,
0,exp1.png,exp2.png,,3,0,3,0,0,0,0,0,,,,,,,,,,,,,,,,,,,,,,,,,False,60,61,False,exp1.png,exp2.png,trial_right_image,-1,exp2.png,4,exp2.png,exp1.png,1,1,non-reversed,correct,0.26147666526742785,1,valid_win,412.36316929990426,31,,,,,,,,,,,,,,,,sub_156,2022-12-01_15h01.23.427,Reversal,2022.1.1,59.98652703517164,4,
1,exp3.png,exp4.png,,3,0,3,0,0,1,1,1,,,,,,,,,,,,,,,,,,,,,,,,,False,61,62,True,exp4.png,exp3.png,trial_right_image,-1,exp3.png,4,exp4.png,exp3.png,0,4,reversed,incorrect,0.04207766950240044,1,invalid_win,416.3616876999149,32,,,,,,,,,,,,,,,,sub_156,2022-12-01_15h01.23.427,Reversal,2022.1.1,59.98652703517164,4,
2,exp1.png,exp2.png,,3,0,3,0,0,2,2,2,,,,,,,,,,,,,,,,,,,,,,,,,False,62,63,True,exp2.png,exp1.png,trial_right_image,-1,exp1.png,4,exp2.png,exp1.png,0,2,non-reversed,incorrect,0.7953738499376614,0,valid_lose,420.211318799993,32,,,,,,,,,,,,,,,,sub_156,2022-12-01_15h01.23.427,Reversal,2022.1.1,59.98652703517164,4,
3,exp3.png,exp4.png,,3,0,3,0,0,3,3,3,,,,,,,,,,,,,,,,,,,,,,,,,False,63,64,True,exp4.png,exp3.png,trial_left_image,1,exp4.png,4,exp4.png,exp3.png,1,3,reversed,correct,0.857150099695829,1,valid_win,424.0773494999157,33,,,,,,,,,,,,,,,,sub_156,2022-12-01_15h01.23.427,Reversal,2022.1.1,59.98652703517164,4,
4,exp1.png,exp2.png,,3,0,3,0,0,4,4,4,,,,,,,,,,,,,,,,,,,,,,,,,False,64,65,False,exp1.png,exp2.png,trial_left_image,1,exp1.png,4,exp2.png,exp1.png,0,2,non-reversed,incorrect,0.5862579047280039,0,valid_lose,427.92688089993317,33,,,,,,,,,,,,,,,,sub_156,2022-12-01_15h01.23.427,Reversal,2022.1.1,59.98652703517164,4,
5,exp3.png,exp4.png,,3,0,3,0,0,5,5,5,,,,,,,,,,,,,,,,,,,,,,,,,False,65,66,True,exp4.png,exp3.png,trial_right_image,-1,exp3.png,4,exp4.png,exp3.png,0,4,reversed,incorrect,0.313259470164463,0,valid_lose,431.82765369990375,33,,,,,,,,,,,,,,,,sub_156,2022-12-01_15h01.23.427,Reversal,2022.1.1,59.98652703517164,4,
6,exp1.png,exp2.png,,3,0,3,0,0,6,6,6,,,,,,,,,,,,,,,,,,,,,,,,,False,66,67,True,exp2.png,exp1.png,trial_left_image,1,exp2.png,4,exp2.png,exp1.png,1,1,non-reversed,correct,0.23802911330001275,0,invalid_lose,435.8259200999746,33,,,,,,,,,,,,,,,,sub_156,2022-12-01_15h01.23.427,Reversal,2022.1.1,59.98652703517164,4,
7,exp3.png,exp4.png,,3,0,3,0,0,7,7,7,,,,,,,,,,,,,,,,,,,,,,,,,False,67,68,True,exp4.png,exp3.png,trial_right_image,-1,exp3.png,4,exp4.png,exp3.png,0,4,reversed,incorrect,0.7181002051001402,0,valid_lose,439.66000089992303,33,,,,,,,,,,,,,,,,sub_156,2022-12-01_15h01.23.427,Reversal,2022.1.1,59.98652703517164,4,
8,exp1.png,exp2.png,,3,0,3,0,0,8,8,8,,,,,,,,,,,,,,,,,,,,,,,,,False,68,69,False,exp1.png,exp2.png,trial_left_image,1,exp1.png,4,exp2.png,exp1.png,0,2,non-reversed,incorrect,0.929318533652939,0,valid_lose,443.94240529998206,33,,,,,,,,,,,,,,,,sub_156,2022-12-01_15h01.23.427,Reversal,2022.1.1,59.98652703517164,4,
9,exp3.png,exp4.png,,3,0,3,0,0,9,9,9,,,,,,,,,,,,,,,,,,,,,,,,,False,69,70,False,exp3.png,exp4.png,trial_right_image,-1,exp4.png,4,exp4.png,exp3.png,1,3,reversed,correct,0.9470965069848547,1,valid_win,449.12479369994253,34,,,,,,,,,,,,,,,,sub_156,2022-12-01_15h01.23.427,Reversal,2022.1.1,59.98652703517164,4,
10,exp1.png,exp2.png,,3,0,3,0,0,10,10,10,,,,,,,,,,,,,,,,,,,,,,,,,False,70,71,True,exp2.png,exp1.png,trial_right_image,-1,exp1.png,4,exp2.png,exp1.png,0,2,non-reversed,incorrect,0.7146415636519566,0,valid_lose,453.82360199990217,34,,,,,,,,,,,,,,,,sub_156,2022-12-01_15h01.23.427,Reversal,2022.1.1,59.98652703517164,4,
11,exp3.png,exp4.png,,3,0,3,0,0,11,11,11,,,,,,,,,,,,,,,,,,,,,,,,,False,71,72,False,exp3.png,exp4.png,trial_left_image,1,exp3.png,4,exp4.png,exp3.png,0,4,reversed,incorrect,0.8923218445271579,0,valid_lose,457.7065372999059,34,,,,,,,,,,,,,,,,sub_156,2022-12-01_15h01.23.427,Reversal,2022.1.1,59.98652703517164,4,
12,exp1.png,exp2.png,,3,0,3,0,0,12,12,12,,,,,,,,,,,,,,,,,,,,,,,,,False,72,73,True,exp2.png,exp1.png,trial_right_image,-1,exp1.png,4,exp2.png,exp1.png,0,2,non-reversed,incorrect,0.4505786136164762,0,valid_lose,462.0558385999175,34,,,,,,,,,,,,,,,,sub_156,2022-12-01_15h01.23.427,Reversal,2022.1.1,59.98652703517164,4,
13,exp3.png,exp4.png,,3,0,3,0,0,13,13,13,,,,,,,,,,,,,,,,,,,,,,,,,False,73,74,True,exp4.png,exp3.png,trial_left_image,1,exp4.png,4,exp4.png,exp3.png,1,3,reversed,correct,0.21303997677155273,0,invalid_lose,465.42306729999837,34,,,,,,,,,,,,,,,,sub_156,2022-12-01_15h01.23.427,Reversal,2022.1.1,59.98652703517164,4,
14,exp1.png,exp2.png,,3,0,3,0,0,14,14,14,,,,,,,,,,,,,,,,,,,,,,,,,False,74,75,False,exp1.png,exp2.png,trial_right_image,-1,exp2.png,4,exp2.png,exp1.png,1,1,non-reversed,correct,0.6918555907963001,1,valid_win,469.4053306999849,35,,,,,,,,,,,,,,,,sub_156,2022-12-01_15h01.23.427,Reversal,2022.1.1,59.98652703517164,4,
15,exp3.png,exp4.png,,3,0,3,0,0,15,15,15,,,,,,,,,,,,,,,,,,,,,,,,,False,75,76,False,exp3.png,exp4.png,trial_right_image,-1,exp4.png,4,exp4.png,exp3.png,1,3,reversed,correct,0.8021086371859806,1,valid_win,473.3041180999717,36,,,,,,,,,,,,,,,,sub_156,2022-12-01_15h01.23.427,Reversal,2022.1.1,59.98652703517164,4,
16,exp1.png,exp2.png,,3,0,3,0,0,16,16,16,,,,,,,,,,,,,,,,,,,,,,,,,False,76,77,True,exp2.png,exp1.png,trial_right_image,-1,exp1.png,4,exp2.png,exp1.png,0,2,non-reversed,incorrect,0.7487300872174366,0,valid_lose,481.3198690999998,36,,,,,,,,,,,,,,,,sub_156,2022-12-01_15h01.23.427,Reversal,2022.1.1,59.98652703517164,4,
17,exp3.png,exp4.png,,3,0,3,0,0,17,17,17,,,,,,,,,,,,,,,,,,,,,,,,,False,77,78,False,exp3.png,exp4.png,trial_left_image,1,exp3.png,4,exp4.png,exp3.png,0,4,reversed,incorrect,0.10092889054209953,1,invalid_win,485.71987579995766,37,,,,,,,,,,,,,,,,sub_156,2022-12-01_15h01.23.427,Reversal,2022.1.1,59.98652703517164,4,
18,exp1.png,exp2.png,,3,0,3,0,0,18,18,18,,,,,,,,,,,,,,,,,,,,,,,,,False,78,79,False,exp1.png,exp2.png,trial_left_image,1,exp1.png,4,exp2.png,exp1.png,0,2,non-reversed,incorrect,0.7146084362876541,0,valid_lose,489.5854864999419,37,,,,,,,,,,,,,,,,sub_156,2022-12-01_15h01.23.427,Reversal,2022.1.1,59.98652703517164,4,
19,exp3.png,exp4.png,,3,0,3,0,0,19,19,19,,,,,,,,,,,,,,,,,,,,,,,,,False,79,80,False,exp3.png,exp4.png,trial_right_image,-1,exp4.png,4,exp4.png,exp3.png,1,3,reversed,correct,0.5298323229085369,1,valid_win,493.4855963999871,38,,,,,,,,,,,,,,,,sub_156,2022-12-01_15h01.23.427,Reversal,2022.1.1,59.98652703517164,4,
20,exp1.png,exp2.png,,3,0,3,0,0,20,20,20,,,,,,,,,,,,,,,,,,,,,,,,,True,,,,,,,,,,,,,,,,,,,,,,,,,,,,,,,,,,,,sub_156,2022-12-01_15h01.23.427,Reversal,2022.1.1,59.98652703517164,4,
,,,exp1.png,3,0,3,0,,,,,0,0,0,0,0,0,0,0,,,,,,,,,,,,,,,,,,,,,,,,,,,,,,,,,,,,,,72.0,72.0,1.9415641999803483,"[(72.0, 1.9415641999803483)]",592.9706526000518,None,,,,,,,,,,sub_156,2022-12-01_15h01.23.427,Reversal,2022.1.1,59.98652703517164,4,
,,,exp2.png,3,0,3,0,,,,,0,0,0,0,0,1,1,1,,,,,,,,,,,,,,,,,,,,,,,,,,,,,,,,,,,,,,,79.0,2.5080617000348866,"[(79.0, 2.5080617000348866)]",596.2300032000057,None,79.0,,,,,,,,,sub_156,2022-12-01_15h01.23.427,Reversal,2022.1.1,59.98652703517164,4,
,,,exp3.png,3,0,3,0,,,,,0,0,0,0,0,2,2,2,,,,,,,,,,,,,,,,,,,,,,,,,,,,,,,,,,,,,,,82.0,1.9929158999584615,"[(82.0, 1.9929158999584615)]",602.563160300022,None,,82.0,,,,,,,,sub_156,2022-12-01_15h01.23.427,Reversal,2022.1.1,59.98652703517164,4,
,,,exp4.png,3,0,3,0,,,,,0,0,0,0,0,3,3,3,,,,,,,,,,,,,,,,,,,,,,,,,,,,,,,,,,,,,,,74.0,1.857294600107707,"[(74.0, 1.857294600107707)]",605.46305390005,None,,,74.0,,,,,,,sub_156,2022-12-01_15h01.23.427,Reversal,2022.1.1,59.98652703517164,4,
0,exp1.png,exp2.png,,,,,,,,,,,,,,,,,,0,0,0,0,0,0,0,0,,,,,,,,,False,0,81,False,exp1.png,exp2.png,trial_right_image,-1,exp2.png,4,exp2.png,exp1.png,1,1,non-reversed,correct,0.7002484654964067,1,valid_win,513.0993056999287,39,,,,,,,,,,511.5402410000097,,,,,,sub_156,2022-12-01_15h01.23.427,Reversal,2022.1.1,59.98652703517164,4,
1,exp3.png,exp4.png,,,,,,,,,,,,,,,,,,0,0,0,0,0,1,1,1,,,,,,,,,False,1,82,True,exp4.png,exp3.png,trial_right_image,-1,exp3.png,4,exp3.png,exp4.png,0,4,reversed,correct,0.6488733983467764,1,valid_win,517.0994235000107,40,,,,,,,,,,,,,,,,sub_156,2022-12-01_15h01.23.427,Reversal,2022.1.1,59.98652703517164,4,
2,exp1.png,exp2.png,,,,,,,,,,,,,,,,,,0,0,0,0,0,2,2,2,,,,,,,,,False,2,83,False,exp1.png,exp2.png,trial_right_image,-1,exp2.png,4,exp2.png,exp1.png,1,1,non-reversed,correct,0.6459720776796657,1,valid_win,521.0653597000055,41,,,,,,,,,,,,,,,,sub_156,2022-12-01_15h01.23.427,Reversal,2022.1.1,59.98652703517164,4,
3,exp3.png,exp4.png,,,,,,,,,,,,,,,,,,0,0,0,0,0,3,3,3,,,,,,,,,False,3,84,True,exp4.png,exp3.png,trial_right_image,-1,exp3.png,4,exp3.png,exp4.png,0,4,reversed,correct,0.30176105639517314,1,valid_win,526.5139598000096,42,,,,,,,,,,,,,,,,sub_156,2022-12-01_15h01.23.427,Reversal,2022.1.1,59.98652703517164,4,
4,exp1.png,exp2.png,,,,,,,,,,,,,,,,,,0,0,0,0,0,4,4,4,,,,,,,,,False,4,85,True,exp2.png,exp1.png,trial_left_image,1,exp2.png,4,exp2.png,exp1.png,1,1,non-reversed,correct,0.15009547660428213,0,invalid_lose,532.5299974000081,42,,,,,,,,,,,,,,,,sub_156,2022-12-01_15h01.23.427,Reversal,2022.1.1,59.98652703517164,4,
5,exp3.png,exp4.png,,,,,,,,,,,,,,,,,,0,0,0,0,0,5,5,5,,,,,,,,,False,5,86,False,exp3.png,exp4.png,trial_left_image,1,exp3.png,4,exp3.png,exp4.png,0,4,reversed,correct,0.28339933179116716,1,valid_win,538.1796392999822,43,,,,,,,,,,,,,,,,sub_156,2022-12-01_15h01.23.427,Reversal,2022.1.1,59.98652703517164,4,
6,exp1.png,exp2.png,,,,,,,,,,,,,,,,,,0,0,0,0,0,6,6,6,,,,,,,,,False,6,87,True,exp2.png,exp1.png,trial_right_image,-1,exp1.png,4,exp2.png,exp1.png,0,2,non-reversed,incorrect,0.020437707232065727,1,invalid_win,542.7291943000164,44,,,,,,,,,,,,,,,,sub_156,2022-12-01_15h01.23.427,Reversal,2022.1.1,59.98652703517164,4,
7,exp3.png,exp4.png,,,,,,,,,,,,,,,,,,0,0,0,0,0,7,7,7,,,,,,,,,False,7,88,False,exp3.png,exp4.png,trial_left_image,1,exp3.png,4,exp3.png,exp4.png,0,4,reversed,correct,0.7574876526144836,1,valid_win,546.9783334999811,45,,,,,,,,,,,,,,,,sub_156,2022-12-01_15h01.23.427,Reversal,2022.1.1,59.98652703517164,4,
8,exp1.png,exp2.png,,,,,,,,,,,,,,,,,,0,0,0,0,0,8,8,8,,,,,,,,,False,8,89,False,exp1.png,exp2.png,trial_left_image,1,exp1.png,4,exp2.png,exp1.png,0,2,non-reversed,incorrect,0.7303819319288525,0,valid_lose,551.3277122,45,,,,,,,,,,,,,,,,sub_156,2022-12-01_15h01.23.427,Reversal,2022.1.1,59.98652703517164,4,
9,exp3.png,exp4.png,,,,,,,,,,,,,,,,,,0,0,0,0,0,9,9,9,,,,,,,,,False,9,90,True,exp4.png,exp3.png,trial_right_image,-1,exp3.png,4,exp3.png,exp4.png,0,4,reversed,correct,0.11971613613350318,0,invalid_lose,555.7269865999697,45,,,,,,,,,,,,,,,,sub_156,2022-12-01_15h01.23.427,Reversal,2022.1.1,59.98652703517164,4,
10,exp1.png,exp2.png,,,,,,,,,,,,,,,,,,0,0,0,0,0,10,10,10,,,,,,,,,False,10,91,False,exp1.png,exp2.png,trial_left_image,1,exp1.png,4,exp2.png,exp1.png,0,2,non-reversed,incorrect,0.29198791426982007,0,valid_lose,559.6442042000126,45,,,,,,,,,,,,,,,,sub_156,2022-12-01_15h01.23.427,Reversal,2022.1.1,59.98652703517164,4,
11,exp3.png,exp4.png,,,,,,,,,,,,,,,,,,0,0,0,0,0,11,11,11,,,,,,,,,False,11,92,True,exp4.png,exp3.png,trial_right_image,-1,exp3.png,4,exp3.png,exp4.png,0,4,reversed,correct,0.7751992241253219,1,valid_win,563.6262887999183,46,,,,,,,,,,,,,,,,sub_156,2022-12-01_15h01.23.427,Reversal,2022.1.1,59.98652703517164,4,
12,exp1.png,exp2.png,,,,,,,,,,,,,,,,,,0,0,0,0,0,12,12,12,,,,,,,,,False,12,93,True,exp2.png,exp1.png,trial_right_image,-1,exp1.png,4,exp2.png,exp1.png,0,2,non-reversed,incorrect,0.6474793458632537,0,valid_lose,568.4428450999549,46,,,,,,,,,,,,,,,,sub_156,2022-12-01_15h01.23.427,Reversal,2022.1.1,59.98652703517164,4,
13,exp3.png,exp4.png,,,,,,,,,,,,,,,,,,0,0,0,0,0,13,13,13,,,,,,,,,False,13,94,False,exp3.png,exp4.png,trial_left_image,1,exp3.png,4,exp3.png,exp4.png,0,4,reversed,correct,0.4764483182666317,1,valid_win,572.459189599962,47,,,,,,,,,,,,,,,,sub_156,2022-12-01_15h01.23.427,Reversal,2022.1.1,59.98652703517164,4,
14,exp1.png,exp2.png,,,,,,,,,,,,,,,,,,0,0,0,0,0,14,14,14,,,,,,,,,False,14,95,False,exp1.png,exp2.png,trial_left_image,1,exp1.png,4,exp2.png,exp1.png,0,2,non-reversed,incorrect,0.7793357694847755,0,valid_lose,577.3084204999031,47,,,,,,,,,,,,,,,,sub_156,2022-12-01_15h01.23.427,Reversal,2022.1.1,59.98652703517164,4,
15,exp3.png,exp4.png,,,,,,,,,,,,,,,,,,0,0,0,0,0,15,15,15,,,,,,,,,False,15,96,True,exp4.png,exp3.png,trial_right_image,-1,exp3.png,4,exp3.png,exp4.png,0,4,reversed,correct,0.43333591185194675,1,valid_win,581.3914589999476,48,,,,,,,,,,,,,,,,sub_156,2022-12-01_15h01.23.427,Reversal,2022.1.1,59.98652703517164,4,
16,exp1.png,exp2.png,,,,,,,,,,,,,,,,,,0,0,0,0,0,16,16,16,,,,,,,,,False,16,97,True,exp2.png,exp1.png,trial_right_image,-1,exp1.png,4,exp2.png,exp1.png,0,2,non-reversed,incorrect,0.39734518443709554,0,valid_lose,585.3759046999039,48,,,,,,,,,,,,,,,,sub_156,2022-12-01_15h01.23.427,Reversal,2022.1.1,59.98652703517164,4,
17,exp3.png,exp4.png,,,,,,,,,,,,,,,,,,0,0,0,0,0,17,17,17,,,,,,,,,False,17,98,True,exp4.png,exp3.png,trial_left_image,1,exp4.png,4,exp3.png,exp4.png,1,3,reversed,incorrect,0.5239509927759072,0,valid_lose,589.3395176999038,48,,,,,,,,,,,,,,,,sub_156,2022-12-01_15h01.23.427,Reversal,2022.1.1,59.98652703517164,4,
18,exp1.png,exp2.png,,,,,,,,,,,,,,,,,,0,0,0,0,0,18,18,18,,,,,,,,,False,18,99,False,exp1.png,exp2.png,trial_right_image,-1,exp2.png,4,exp2.png,exp1.png,1,1,non-reversed,correct,0.8194599960516533,1,valid_win,592.3036931999959,49,,,,,,,,,,,,,,,,sub_156,2022-12-01_15h01.23.427,Reversal,2022.1.1,59.98652703517164,4,
19,exp3.png,exp4.png,,,,,,,,,,,,,,,,,,0,0,0,0,0,19,19,19,,,,,,,,,False,19,100,False,exp3.png,exp4.png,trial_right_image,-1,exp4.png,4,exp3.png,exp4.png,1,3,reversed,incorrect,0.49702995445840825,0,valid_lose,596.4889408999588,49,,,,,,,,,,,,,,,,sub_156,2022-12-01_15h01.23.427,Reversal,2022.1.1,59.98652703517164,4,
20,exp1.png,exp2.png,,,,,,,,,,,,,,,,,,0,0,0,0,0,20,20,20,,,,,,,,,True,,,,,,,,,,,,,,,,,,,,,,,,,,,,,,,,,,,,sub_156,2022-12-01_15h01.23.427,Reversal,2022.1.1,59.98652703517164,4,
,,,exp1.png,,,,,,,,,,,,,,,,,0,0,0,0,,,,,0,0,0,0,0,0,0,0,,,,,,,,,,,,,,,,,,,,,,80.0,80.0,3.820284800021909,"[(80.0, 3.820284800021909)]",695.9622485999716,None,,,,,,,,,,sub_156,2022-12-01_15h01.23.427,Reversal,2022.1.1,59.98652703517164,4,
,,,exp2.png,,,,,,,,,,,,,,,,,0,0,0,0,,,,,0,0,0,0,0,1,1,1,,,,,,,,,,,,,,,,,,,,,,,71.0,7.841265199938789,"[(77.0, 3.0920729999197647), (71.0, 7.841265199938789)]",700.9828507000348,None,71.0,,,,,,,,,sub_156,2022-12-01_15h01.23.427,Reversal,2022.1.1,59.98652703517164,4,
,,,exp3.png,,,,,,,,,,,,,,,,,0,0,0,0,,,,,0,0,0,0,0,2,2,2,,,,,,,,,,,,,,,,,,,,,,,96.0,3.7366073000011966,"[(96.0, 3.7366073000011966)]",710.0730513000162,None,,96.0,,,,,,,,sub_156,2022-12-01_15h01.23.427,Reversal,2022.1.1,59.98652703517164,4,
,,,exp4.png,,,,,,,,,,,,,,,,,0,0,0,0,,,,,0,0,0,0,0,3,3,3,,,,,,,,,,,,,,,,,,,,,,,72.0,2.3353671999648213,"[(72.0, 2.3353671999648213)]",720.2086828999454,None,,,72.0,,,,,,,sub_156,2022-12-01_15h01.23.427,Reversal,2022.1.1,59.98652703517164,4,
0,exp1.png,exp2.png,,,,,,,,,,,,,,,,,,1,0,1,0,0,0,0,0,,,,,,,,,False,20,101,True,exp2.png,exp1.png,trial_right_image,-1,exp1.png,4,exp2.png,exp1.png,0,2,non-reversed,incorrect,0.409650196612638,0,valid_lose,628.6347318999469,49,,,,,,,,,,,,,,,,sub_156,2022-12-01_15h01.23.427,Reversal,2022.1.1,59.98652703517164,4,
1,exp3.png,exp4.png,,,,,,,,,,,,,,,,,,1,0,1,0,0,1,1,1,,,,,,,,,False,21,102,True,exp4.png,exp3.png,trial_left_image,1,exp4.png,4,exp3.png,exp4.png,1,3,reversed,incorrect,0.7158474561616568,0,valid_lose,632.8006570999278,49,,,,,,,,,,,,,,,,sub_156,2022-12-01_15h01.23.427,Reversal,2022.1.1,59.98652703517164,4,
2,exp1.png,exp2.png,,,,,,,,,,,,,,,,,,1,0,1,0,0,2,2,2,,,,,,,,,False,22,103,False,exp1.png,exp2.png,trial_right_image,-1,exp2.png,4,exp2.png,exp1.png,1,1,non-reversed,correct,0.6298450588476091,1,valid_win,636.6846825999673,50,,,,,,,,,,,,,,,,sub_156,2022-12-01_15h01.23.427,Reversal,2022.1.1,59.98652703517164,4,
3,exp3.png,exp4.png,,,,,,,,,,,,,,,,,,1,0,1,0,0,3,3,3,,,,,,,,,False,23,104,True,exp4.png,exp3.png,trial_right_image,-1,exp3.png,4,exp3.png,exp4.png,0,4,reversed,correct,0.9358586934445124,1,valid_win,640.6169234999688,51,,,,,,,,,,,,,,,,sub_156,2022-12-01_15h01.23.427,Reversal,2022.1.1,59.98652703517164,4,
4,exp1.png,exp2.png,,,,,,,,,,,,,,,,,,1,0,1,0,0,4,4,4,,,,,,,,,False,24,105,True,exp2.png,exp1.png,trial_right_image,-1,exp1.png,4,exp2.png,exp1.png,0,2,non-reversed,incorrect,0.8215121309418413,0,valid_lose,644.6158660999499,51,,,,,,,,,,,,,,,,sub_156,2022-12-01_15h01.23.427,Reversal,2022.1.1,59.98652703517164,4,
5,exp3.png,exp4.png,,,,,,,,,,,,,,,,,,1,0,1,0,0,5,5,5,,,,,,,,,False,25,106,False,exp3.png,exp4.png,trial_left_image,1,exp3.png,4,exp3.png,exp4.png,0,4,reversed,correct,0.26646782596553986,1,valid_win,648.633422199986,52,,,,,,,,,,,,,,,,sub_156,2022-12-01_15h01.23.427,Reversal,2022.1.1,59.98652703517164,4,
6,exp1.png,exp2.png,,,,,,,,,,,,,,,,,,1,0,1,0,0,6,6,6,,,,,,,,,False,26,107,False,exp1.png,exp2.png,trial_left_image,1,exp1.png,4,exp2.png,exp1.png,0,2,non-reversed,incorrect,0.5246499792599626,0,valid_lose,652.9819469999056,52,,,,,,,,,,,,,,,,sub_156,2022-12-01_15h01.23.427,Reversal,2022.1.1,59.98652703517164,4,
7,exp3.png,exp4.png,,,,,,,,,,,,,,,,,,1,0,1,0,0,7,7,7,,,,,,,,,False,27,108,True,exp4.png,exp3.png,trial_right_image,-1,exp3.png,4,exp3.png,exp4.png,0,4,reversed,correct,0.9659859477827947,1,valid_win,656.9644798999652,53,,,,,,,,,,,,,,,,sub_156,2022-12-01_15h01.23.427,Reversal,2022.1.1,59.98652703517164,4,
8,exp1.png,exp2.png,,,,,,,,,,,,,,,,,,1,0,1,0,0,8,8,8,,,,,,,,,False,28,109,False,exp1.png,exp2.png,trial_right_image,-1,exp2.png,4,exp2.png,exp1.png,1,1,non-reversed,correct,0.10163500922457369,0,invalid_lose,661.3806895000162,53,,,,,,,,,,,,,,,,sub_156,2022-12-01_15h01.23.427,Reversal,2022.1.1,59.98652703517164,4,
9,exp3.png,exp4.png,,,,,,,,,,,,,,,,,,1,0,1,0,0,9,9,9,,,,,,,,,False,29,110,True,exp4.png,exp3.png,trial_left_image,1,exp4.png,4,exp3.png,exp4.png,1,3,reversed,incorrect,0.41948464843987565,0,valid_lose,665.2639674999518,53,,,,,,,,,,,,,,,,sub_156,2022-12-01_15h01.23.427,Reversal,2022.1.1,59.98652703517164,4,
10,exp1.png,exp2.png,,,,,,,,,,,,,,,,,,1,0,1,0,0,10,10,10,,,,,,,,,False,30,111,False,exp1.png,exp2.png,trial_right_image,-1,exp2.png,4,exp2.png,exp1.png,1,1,non-reversed,correct,0.4301253274435274,1,valid_win,670.0801079999655,54,,,,,,,,,,,,,,,,sub_156,2022-12-01_15h01.23.427,Reversal,2022.1.1,59.98652703517164,4,
11,exp3.png,exp4.png,,,,,,,,,,,,,,,,,,1,0,1,0,0,11,11,11,,,,,,,,,False,31,112,False,exp3.png,exp4.png,trial_right_image,-1,exp4.png,4,exp3.png,exp4.png,1,3,reversed,incorrect,0.28730347640942444,0,valid_lose,674.0801637999248,54,,,,,,,,,,,,,,,,sub_156,2022-12-01_15h01.23.427,Reversal,2022.1.1,59.98652703517164,4,
12,exp1.png,exp2.png,,,,,,,,,,,,,,,,,,1,0,1,0,0,12,12,12,,,,,,,,,False,32,113,False,exp1.png,exp2.png,trial_left_image,1,exp1.png,4,exp2.png,exp1.png,0,2,non-reversed,incorrect,0.6303705813784534,0,valid_lose,678.1619241000153,54,,,,,,,,,,,,,,,,sub_156,2022-12-01_15h01.23.427,Reversal,2022.1.1,59.98652703517164,4,
13,exp3.png,exp4.png,,,,,,,,,,,,,,,,,,1,0,1,0,0,13,13,13,,,,,,,,,False,33,114,True,exp4.png,exp3.png,trial_right_image,-1,exp3.png,4,exp3.png,exp4.png,0,4,reversed,correct,0.8929654047032501,1,valid_win,681.4955361000029,55,,,,,,,,,,,,,,,,sub_156,2022-12-01_15h01.23.427,Reversal,2022.1.1,59.98652703517164,4,
14,exp1.png,exp2.png,,,,,,,,,,,,,,,,,,1,0,1,0,0,14,14,14,,,,,,,,,False,34,115,True,exp2.png,exp1.png,trial_right_image,-1,exp1.png,4,exp2.png,exp1.png,0,2,non-reversed,incorrect,0.14815605047136327,1,invalid_win,685.3446788999718,56,,,,,,,,,,,,,,,,sub_156,2022-12-01_15h01.23.427,Reversal,2022.1.1,59.98652703517164,4,
15,exp3.png,exp4.png,,,,,,,,,,,,,,,,,,1,0,1,0,0,15,15,15,,,,,,,,,False,35,116,True,exp4.png,exp3.png,trial_right_image,-1,exp3.png,4,exp3.png,exp4.png,0,4,reversed,correct,0.4673290524086373,1,valid_win,689.4945793999359,57,,,,,,,,,,,,,,,,sub_156,2022-12-01_15h01.23.427,Reversal,2022.1.1,59.98652703517164,4,
16,exp1.png,exp2.png,,,,,,,,,,,,,,,,,,1,0,1,0,0,16,16,16,,,,,,,,,False,36,117,False,exp1.png,exp2.png,trial_right_image,-1,exp2.png,4,exp2.png,exp1.png,1,1,non-reversed,correct,0.41028762507532834,1,valid_win,693.4771158999065,58,,,,,,,,,,,,,,,,sub_156,2022-12-01_15h01.23.427,Reversal,2022.1.1,59.98652703517164,4,
17,exp3.png,exp4.png,,,,,,,,,,,,,,,,,,1,0,1,0,0,17,17,17,,,,,,,,,False,37,118,False,exp3.png,exp4.png,trial_right_image,-1,exp4.png,4,exp3.png,exp4.png,1,3,reversed,incorrect,0.8912506604404464,0,valid_lose,697.3787513999268,58,,,,,,,,,,,,,,,,sub_156,2022-12-01_15h01.23.427,Reversal,2022.1.1,59.98652703517164,4,
18,exp1.png,exp2.png,,,,,,,,,,,,,,,,,,1,0,1,0,0,18,18,18,,,,,,,,,False,38,119,True,exp2.png,exp1.png,trial_left_image,1,exp2.png,4,exp2.png,exp1.png,1,1,non-reversed,correct,0.784348068572252,1,valid_win,701.1600305999164,59,,,,,,,,,,,,,,,,sub_156,2022-12-01_15h01.23.427,Reversal,2022.1.1,59.98652703517164,4,
19,exp3.png,exp4.png,,,,,,,,,,,,,,,,,,1,0,1,0,0,19,19,19,,,,,,,,,False,39,120,False,exp3.png,exp4.png,trial_right_image,-1,exp4.png,4,exp3.png,exp4.png,1,3,reversed,incorrect,0.5934205182038056,0,valid_lose,705.224723399966,59,,,,,,,,,,,,,,,,sub_156,2022-12-01_15h01.23.427,Reversal,2022.1.1,59.98652703517164,4,
20,exp1.png,exp2.png,,,,,,,,,,,,,,,,,,1,0,1,0,0,20,20,20,,,,,,,,,True,,,,,,,,,,,,,,,,,,,,,,,,,,,,,,,,,,,,sub_156,2022-12-01_15h01.23.427,Reversal,2022.1.1,59.98652703517164,4,
,,,exp1.png,,,,,,,,,,,,,,,,,1,0,1,0,,,,,0,0,0,0,0,0,0,0,,,,,,,,,,,,,,,,,,,,,,80.0,80.0,2.467824299936183,"[(80.0, 2.467824299936183)]",804.7022189999698,None,,,,,,,,,,sub_156,2022-12-01_15h01.23.427,Reversal,2022.1.1,59.98652703517164,4,
,,,exp2.png,,,,,,,,,,,,,,,,,1,0,1,0,,,,,0,0,0,0,0,1,1,1,,,,,,,,,,,,,,,,,,,,,,,81.0,2.6387357999337837,"[(81.0, 2.6387357999337837)]",808.2570286999689,None,81.0,,,,,,,,,sub_156,2022-12-01_15h01.23.427,Reversal,2022.1.1,59.98652703517164,4,
,,,exp3.png,,,,,,,,,,,,,,,,,1,0,1,0,,,,,0,0,0,0,0,2,2,2,,,,,,,,,,,,,,,,,,,,,,,37.0,3.2222825000062585,"[(37.0, 3.2222825000062585)]",814.3878555999836,None,,37.0,,,,,,,,sub_156,2022-12-01_15h01.23.427,Reversal,2022.1.1,59.98652703517164,4,
,,,exp4.png,,,,,,,,,,,,,,,,,1,0,1,0,,,,,0,0,0,0,0,3,3,3,,,,,,,,,,,,,,,,,,,,,,,92.0,2.241839300026186,"[(92.0, 2.241839300026186)]",818.6530933999456,None,,,92.0,,,,,,,sub_156,2022-12-01_15h01.23.427,Reversal,2022.1.1,59.98652703517164,4,
0,exp1.png,exp2.png,,,,,,,,,,,,,,,,,,2,0,2,0,0,0,0,0,,,,,,,,,False,40,121,False,exp1.png,exp2.png,trial_right_image,-1,exp2.png,4,exp2.png,exp1.png,1,1,non-reversed,correct,0.8617805893568916,1,valid_win,727.9220176999224,60,,,,,,,,,,,,,,,,sub_156,2022-12-01_15h01.23.427,Reversal,2022.1.1,59.98652703517164,4,
1,exp3.png,exp4.png,,,,,,,,,,,,,,,,,,2,0,2,0,0,1,1,1,,,,,,,,,False,41,122,True,exp4.png,exp3.png,trial_right_image,-1,exp3.png,4,exp3.png,exp4.png,0,4,reversed,correct,0.11273832459793665,0,invalid_lose,732.0225336999865,60,,,,,,,,,,,,,,,,sub_156,2022-12-01_15h01.23.427,Reversal,2022.1.1,59.98652703517164,4,
2,exp1.png,exp2.png,,,,,,,,,,,,,,,,,,2,0,2,0,0,2,2,2,,,,,,,,,False,42,123,False,exp1.png,exp2.png,trial_left_image,1,exp1.png,4,exp2.png,exp1.png,0,2,non-reversed,incorrect,0.6568172682662121,0,valid_lose,736.1540174999973,60,,,,,,,,,,,,,,,,sub_156,2022-12-01_15h01.23.427,Reversal,2022.1.1,59.98652703517164,4,
3,exp3.png,exp4.png,,,,,,,,,,,,,,,,,,2,0,2,0,0,3,3,3,,,,,,,,,False,43,124,False,exp3.png,exp4.png,trial_right_image,-1,exp4.png,4,exp3.png,exp4.png,1,3,reversed,incorrect,0.21085978435369457,1,invalid_win,740.1543579999125,61,,,,,,,,,,,,,,,,sub_156,2022-12-01_15h01.23.427,Reversal,2022.1.1,59.98652703517164,4,
4,exp1.png,exp2.png,,,,,,,,,,,,,,,,,,2,0,2,0,0,4,4,4,,,,,,,,,False,44,125,False,exp1.png,exp2.png,trial_right_image,-1,exp2.png,4,exp2.png,exp1.png,1,1,non-reversed,correct,0.5762170033030011,1,valid_win,744.0872601999436,62,,,,,,,,,,,,,,,,sub_156,2022-12-01_15h01.23.427,Reversal,2022.1.1,59.98652703517164,4,
5,exp3.png,exp4.png,,,,,,,,,,,,,,,,,,2,0,2,0,0,5,5,5,,,,,,,,,False,45,126,False,exp3.png,exp4.png,trial_right_image,-1,exp4.png,4,exp3.png,exp4.png,1,3,reversed,incorrect,0.6120389522670604,0,valid_lose,748.1863640999654,62,,,,,,,,,,,,,,,,sub_156,2022-12-01_15h01.23.427,Reversal,2022.1.1,59.98652703517164,4,
6,exp1.png,exp2.png,,,,,,,,,,,,,,,,,,2,0,2,0,0,6,6,6,,,,,,,,,False,46,127,True,exp2.png,exp1.png,trial_left_image,1,exp2.png,4,exp2.png,exp1.png,1,1,non-reversed,correct,0.47466294725215463,1,valid_win,752.1856016999809,63,,,,,,,,,,,,,,,,sub_156,2022-12-01_15h01.23.427,Reversal,2022.1.1,59.98652703517164,4,
7,exp3.png,exp4.png,,,,,,,,,,,,,,,,,,2,0,2,0,0,7,7,7,,,,,,,,,False,47,128,True,exp4.png,exp3.png,trial_left_image,1,exp4.png,4,exp3.png,exp4.png,1,3,reversed,incorrect,0.8462464326488076,0,valid_lose,756.2194257999072,63,,,,,,,,,,,,,,,,sub_156,2022-12-01_15h01.23.427,Reversal,2022.1.1,59.98652703517164,4,
8,exp1.png,exp2.png,,,,,,,,,,,,,,,,,,2,0,2,0,0,8,8,8,,,,,,,,,False,48,129,False,exp1.png,exp2.png,trial_right_image,-1,exp2.png,4,exp2.png,exp1.png,1,1,non-reversed,correct,0.8084931906219818,1,valid_win,760.0682316999882,64,,,,,,,,,,,,,,,,sub_156,2022-12-01_15h01.23.427,Reversal,2022.1.1,59.98652703517164,4,
9,exp3.png,exp4.png,,,,,,,,,,,,,,,,,,2,0,2,0,0,9,9,9,,,,,,,,,False,49,130,False,exp3.png,exp4.png,trial_right_image,-1,exp4.png,4,exp3.png,exp4.png,1,3,reversed,incorrect,0.2478545701546061,1,invalid_win,764.1511375999544,65,,,,,,,,,,,,,,,,sub_156,2022-12-01_15h01.23.427,Reversal,2022.1.1,59.98652703517164,4,
10,exp1.png,exp2.png,,,,,,,,,,,,,,,,,,2,0,2,0,0,10,10,10,,,,,,,,,False,50,131,False,exp1.png,exp2.png,trial_right_image,-1,exp2.png,4,exp2.png,exp1.png,1,1,non-reversed,correct,0.946108133492368,1,valid_win,768.0839903999586,66,,,,,,,,,,,,,,,,sub_156,2022-12-01_15h01.23.427,Reversal,2022.1.1,59.98652703517164,4,
11,exp3.png,exp4.png,,,,,,,,,,,,,,,,,,2,0,2,0,0,11,11,11,,,,,,,,,False,51,132,True,exp4.png,exp3.png,trial_right_image,-1,exp3.png,4,exp3.png,exp4.png,0,4,reversed,correct,0.7082129137725851,1,valid_win,773.1328531999607,67,,,,,,,,,,,,,,,,sub_156,2022-12-01_15h01.23.427,Reversal,2022.1.1,59.98652703517164,4,
12,exp1.png,exp2.png,,,,,,,,,,,,,,,,,,2,0,2,0,0,12,12,12,,,,,,,,,False,52,133,True,exp2.png,exp1.png,trial_right_image,-1,exp1.png,4,exp2.png,exp1.png,0,2,non-reversed,incorrect,0.6222426439004526,0,valid_lose,777.2838946999982,67,,,,,,,,,,,,,,,,sub_156,2022-12-01_15h01.23.427,Reversal,2022.1.1,59.98652703517164,4,
13,exp3.png,exp4.png,,,,,,,,,,,,,,,,,,2,0,2,0,0,13,13,13,,,,,,,,,False,53,134,False,exp3.png,exp4.png,trial_left_image,1,exp3.png,4,exp3.png,exp4.png,0,4,reversed,correct,0.007947310798413598,0,invalid_lose,781.4990318999626,67,,,,,,,,,,,,,,,,sub_156,2022-12-01_15h01.23.427,Reversal,2022.1.1,59.98652703517164,4,
14,exp1.png,exp2.png,,,,,,,,,,,,,,,,,,2,0,2,0,0,14,14,14,,,,,,,,,False,54,135,False,exp1.png,exp2.png,trial_right_image,-1,exp2.png,4,exp2.png,exp1.png,1,1,non-reversed,correct,0.6039082697948794,1,valid_win,785.7317531999433,68,,,,,,,,,,,,,,,,sub_156,2022-12-01_15h01.23.427,Reversal,2022.1.1,59.98652703517164,4,
15,exp3.png,exp4.png,,,,,,,,,,,,,,,,,,2,0,2,0,0,15,15,15,,,,,,,,,False,55,136,True,exp4.png,exp3.png,trial_right_image,-1,exp3.png,4,exp3.png,exp4.png,0,4,reversed,correct,0.15916262357100397,0,invalid_lose,791.5660193999065,68,,,,,,,,,,,,,,,,sub_156,2022-12-01_15h01.23.427,Reversal,2022.1.1,59.98652703517164,4,
16,exp1.png,exp2.png,,,,,,,,,,,,,,,,,,2,0,2,0,0,16,16,16,,,,,,,,,False,56,137,True,exp2.png,exp1.png,trial_left_image,1,exp2.png,4,exp2.png,exp1.png,1,1,non-reversed,correct,0.38884747696337285,1,valid_win,795.7303117999109,69,,,,,,,,,,,,,,,,sub_156,2022-12-01_15h01.23.427,Reversal,2022.1.1,59.98652703517164,4,
17,exp3.png,exp4.png,,,,,,,,,,,,,,,,,,2,0,2,0,0,17,17,17,,,,,,,,,False,57,138,True,exp4.png,exp3.png,trial_right_image,-1,exp3.png,4,exp3.png,exp4.png,0,4,reversed,correct,0.3933855723681664,1,valid_win,798.8807973999064,70,,,,,,,,,,,,,,,,sub_156,2022-12-01_15h01.23.427,Reversal,2022.1.1,59.98652703517164,4,
18,exp1.png,exp2.png,,,,,,,,,,,,,,,,,,2,0,2,0,0,18,18,18,,,,,,,,,False,58,139,True,exp2.png,exp1.png,trial_right_image,-1,exp1.png,4,exp2.png,exp1.png,0,2,non-reversed,incorrect,0.32244538982584403,0,valid_lose,802.7789044999518,70,,,,,,,,,,,,,,,,sub_156,2022-12-01_15h01.23.427,Reversal,2022.1.1,59.98652703517164,4,
19,exp3.png,exp4.png,,,,,,,,,,,,,,,,,,2,0,2,0,0,19,19,19,,,,,,,,,False,59,140,True,exp4.png,exp3.png,trial_left_image,1,exp4.png,4,exp3.png,exp4.png,1,3,reversed,incorrect,0.010471978968445206,1,invalid_win,806.8129441000056,71,,,,,,,,,,,,,,,,sub_156,2022-12-01_15h01.23.427,Reversal,2022.1.1,59.98652703517164,4,
20,exp1.png,exp2.png,,,,,,,,,,,,,,,,,,2,0,2,0,0,20,20,20,,,,,,,,,True,,,,,,,,,,,,,,,,,,,,,,,,,,,,,,,,,,,,sub_156,2022-12-01_15h01.23.427,Reversal,2022.1.1,59.98652703517164,4,
,,,exp1.png,,,,,,,,,,,,,,,,,2,0,2,0,,,,,0,0,0,0,0,0,0,0,,,,,,,,,,,,,,,,,,,,,,83.0,83.0,2.5131697999313474,"[(83.0, 2.5131697999313474)]",906.2931752000004,None,,,,,,,,,,sub_156,2022-12-01_15h01.23.427,Reversal,2022.1.1,59.98652703517164,4,
,,,exp2.png,,,,,,,,,,,,,,,,,2,0,2,0,,,,,0,0,0,0,0,1,1,1,,,,,,,,,,,,,,,,,,,,,,,67.0,2.7719869000138715,"[(67.0, 2.7719869000138715)]",910.5428458000533,None,67.0,,,,,,,,,sub_156,2022-12-01_15h01.23.427,Reversal,2022.1.1,59.98652703517164,4,
,,,exp3.png,,,,,,,,,,,,,,,,,2,0,2,0,,,,,0,0,0,0,0,2,2,2,,,,,,,,,,,,,,,,,,,,,,,34.0,3.405600699945353,"[(34.0, 3.405600699945353)]",914.1246471999912,None,,34.0,,,,,,,,sub_156,2022-12-01_15h01.23.427,Reversal,2022.1.1,59.98652703517164,4,
,,,exp4.png,,,,,,,,,,,,,,,,,2,0,2,0,,,,,0,0,0,0,0,3,3,3,,,,,,,,,,,,,,,,,,,,,,,95.0,3.7062368999468163,"[(95.0, 3.7062368999468163)]",918.2750831999583,None,,,95.0,,,,,,,sub_156,2022-12-01_15h01.23.427,Reversal,2022.1.1,59.98652703517164,4,
,,,,,,,,,,,,,,,,,,,,,,,,,,,,,,,,,,,,,,,,,,,,,,,,,,,,,,,,71,,,,,,,,,,,72,38,34,315.9530542999273,1,,,,,,,
