trial_index,trial_image1_file,trial_image2_file,image_file,learning_outer_loop.thisRepN,learning_outer_loop.thisTrialN,learning_outer_loop.thisN,learning_outer_loop.thisIndex,learning_inner_loop.thisRepN,learning_inner_loop.thisTrialN,learning_inner_loop.thisN,learning_inner_loop.thisIndex,learning_estimation_outer_loop.thisRepN,learning_estimation_outer_loop.thisTrialN,learning_estimation_outer_loop.thisN,learning_estimation_outer_loop.thisIndex,learning_estimation_inner_loop.thisRepN,learning_estimation_inner_loop.thisTrialN,learning_estimation_inner_loop.thisN,learning_estimation_inner_loop.thisIndex,reversal_outer_loop.thisRepN,reversal_outer_loop.thisTrialN,reversal_outer_loop.thisN,reversal_outer_loop.thisIndex,reversal_inner_loop.thisRepN,reversal_inner_loop.thisTrialN,reversal_inner_loop.thisN,reversal_inner_loop.thisIndex,reversal_estimation_outer_loop.thisRepN,reversal_estimation_outer_loop.thisTrialN,reversal_estimation_outer_loop.thisN,reversal_estimation_outer_loop.thisIndex,reversal_estimation_inner_loop.thisRepN,reversal_estimation_inner_loop.thisTrialN,reversal_estimation_inner_loop.thisN,reversal_estimation_inner_loop.thisIndex,skipped,total_trial_counter,trial_num,left_right_flip,left_image_file,right_image_file,clicked_stimulus_side,side,clicked_stimulus,version,high_prob_image_file,low_prob_image_file,choice_a,choice_b,pair_type,correct,trial_feedback_random,reward,trial_type,overall_time_after_trial,score,estimation_exp1.png,estimation_rating.response,estimation_rating.rt,estimation_rating.history,estimation_rating.started,estimation_rating.stopped,estimation_exp2.png,estimation_exp3.png,estimation_exp4.png,total_learning_time,total_correct,learning_correct,reversal_correct,total_reversal_time,extra_block,participant,date,expName,psychopyVersion,frameRate,ver,
0,exp1.png,exp2.png,,0,0,0,0,0,0,0,0,,,,,,,,,,,,,,,,,,,,,,,,,True,,,,,,,,,,,,,,,,,,,,,,,,,,,,,,,,,,,,sub_219,2022-12-14_19h37.43.973,Reversal,2022.1.1,60.04357962947035,3,
1,exp3.png,exp4.png,,0,0,0,0,0,1,1,1,,,,,,,,,,,,,,,,,,,,,,,,,False,0,1,True,exp4.png,exp3.png,trial_right_image,-1,exp3.png,3,exp4.png,exp3.png,0,2,non-reversed,incorrect,0.5782525972950676,0,valid_lose,15.513324799998372,0,,,,,,,,,,,,,,,,sub_219,2022-12-14_19h37.43.973,Reversal,2022.1.1,60.04357962947035,3,
2,exp1.png,exp2.png,,0,0,0,0,0,2,2,2,,,,,,,,,,,,,,,,,,,,,,,,,False,1,2,True,exp2.png,exp1.png,trial_right_image,-1,exp1.png,3,exp2.png,exp1.png,0,4,reversed,incorrect,0.12395186675138858,1,invalid_win,21.01179409999895,1,,,,,,,,,,,,,,,,sub_219,2022-12-14_19h37.43.973,Reversal,2022.1.1,60.04357962947035,3,
3,exp3.png,exp4.png,,0,0,0,0,0,3,3,3,,,,,,,,,,,,,,,,,,,,,,,,,False,2,3,True,exp4.png,exp3.png,trial_left_image,1,exp4.png,3,exp4.png,exp3.png,1,1,non-reversed,correct,0.8780585801502868,1,valid_win,26.094548299999587,2,,,,,,,,,,,,,,,,sub_219,2022-12-14_19h37.43.973,Reversal,2022.1.1,60.04357962947035,3,
4,exp1.png,exp2.png,,0,0,0,0,0,4,4,4,,,,,,,,,,,,,,,,,,,,,,,,,False,3,4,False,exp1.png,exp2.png,trial_left_image,1,exp1.png,3,exp2.png,exp1.png,0,4,reversed,incorrect,0.01072836388746845,1,invalid_win,33.75993799999924,3,,,,,,,,,,,,,,,,sub_219,2022-12-14_19h37.43.973,Reversal,2022.1.1,60.04357962947035,3,
5,exp3.png,exp4.png,,0,0,0,0,0,5,5,5,,,,,,,,,,,,,,,,,,,,,,,,,False,4,5,True,exp4.png,exp3.png,trial_left_image,1,exp4.png,3,exp4.png,exp3.png,1,1,non-reversed,correct,0.42336492707686957,1,valid_win,39.19291909999811,4,,,,,,,,,,,,,,,,sub_219,2022-12-14_19h37.43.973,Reversal,2022.1.1,60.04357962947035,3,
6,exp1.png,exp2.png,,0,0,0,0,0,6,6,6,,,,,,,,,,,,,,,,,,,,,,,,,False,5,6,True,exp2.png,exp1.png,trial_right_image,-1,exp1.png,3,exp2.png,exp1.png,0,4,reversed,incorrect,0.9669578821118684,0,valid_lose,44.51034019999861,4,,,,,,,,,,,,,,,,sub_219,2022-12-14_19h37.43.973,Reversal,2022.1.1,60.04357962947035,3,
7,exp3.png,exp4.png,,0,0,0,0,0,7,7,7,,,,,,,,,,,,,,,,,,,,,,,,,False,6,7,False,exp3.png,exp4.png,trial_left_image,1,exp3.png,3,exp4.png,exp3.png,0,2,non-reversed,incorrect,0.09621666562654707,1,invalid_win,49.75966100000005,5,,,,,,,,,,,,,,,,sub_219,2022-12-14_19h37.43.973,Reversal,2022.1.1,60.04357962947035,3,
8,exp1.png,exp2.png,,0,0,0,0,0,8,8,8,,,,,,,,,,,,,,,,,,,,,,,,,False,7,8,False,exp1.png,exp2.png,trial_left_image,1,exp1.png,3,exp2.png,exp1.png,0,4,reversed,incorrect,0.8261459817850041,0,valid_lose,55.2752674000003,5,,,,,,,,,,,,,,,,sub_219,2022-12-14_19h37.43.973,Reversal,2022.1.1,60.04357962947035,3,
9,exp3.png,exp4.png,,0,0,0,0,0,9,9,9,,,,,,,,,,,,,,,,,,,,,,,,,False,8,9,False,exp3.png,exp4.png,trial_right_image,-1,exp4.png,3,exp4.png,exp3.png,1,1,non-reversed,correct,0.98185985390519,1,valid_win,60.823291299999255,6,,,,,,,,,,,,,,,,sub_219,2022-12-14_19h37.43.973,Reversal,2022.1.1,60.04357962947035,3,
10,exp1.png,exp2.png,,0,0,0,0,0,10,10,10,,,,,,,,,,,,,,,,,,,,,,,,,False,9,10,False,exp1.png,exp2.png,trial_left_image,1,exp1.png,3,exp2.png,exp1.png,0,4,reversed,incorrect,0.8885984468305059,0,valid_lose,65.60580819999814,6,,,,,,,,,,,,,,,,sub_219,2022-12-14_19h37.43.973,Reversal,2022.1.1,60.04357962947035,3,
11,exp3.png,exp4.png,,0,0,0,0,0,11,11,11,,,,,,,,,,,,,,,,,,,,,,,,,False,10,11,False,exp3.png,exp4.png,trial_right_image,-1,exp4.png,3,exp4.png,exp3.png,1,1,non-reversed,correct,0.11712530480992245,0,invalid_lose,71.1887637999971,6,,,,,,,,,,,,,,,,sub_219,2022-12-14_19h37.43.973,Reversal,2022.1.1,60.04357962947035,3,
12,exp1.png,exp2.png,,0,0,0,0,0,12,12,12,,,,,,,,,,,,,,,,,,,,,,,,,False,11,12,True,exp2.png,exp1.png,trial_left_image,1,exp2.png,3,exp2.png,exp1.png,1,3,reversed,correct,0.12280831633502232,0,invalid_lose,76.70517709999694,6,,,,,,,,,,,,,,,,sub_219,2022-12-14_19h37.43.973,Reversal,2022.1.1,60.04357962947035,3,
13,exp3.png,exp4.png,,0,0,0,0,0,13,13,13,,,,,,,,,,,,,,,,,,,,,,,,,False,12,13,True,exp4.png,exp3.png,trial_left_image,1,exp4.png,3,exp4.png,exp3.png,1,1,non-reversed,correct,0.12174681111383312,0,invalid_lose,82.82100359999822,6,,,,,,,,,,,,,,,,sub_219,2022-12-14_19h37.43.973,Reversal,2022.1.1,60.04357962947035,3,
14,exp1.png,exp2.png,,0,0,0,0,0,14,14,14,,,,,,,,,,,,,,,,,,,,,,,,,False,13,14,True,exp2.png,exp1.png,trial_right_image,-1,exp1.png,3,exp2.png,exp1.png,0,4,reversed,incorrect,0.8308230981605357,0,valid_lose,89.55193399999916,6,,,,,,,,,,,,,,,,sub_219,2022-12-14_19h37.43.973,Reversal,2022.1.1,60.04357962947035,3,
15,exp3.png,exp4.png,,0,0,0,0,0,15,15,15,,,,,,,,,,,,,,,,,,,,,,,,,False,14,15,False,exp3.png,exp4.png,trial_left_image,1,exp3.png,3,exp4.png,exp3.png,0,2,non-reversed,incorrect,0.6119433037636146,0,valid_lose,95.45923849999963,6,,,,,,,,,,,,,,,,sub_219,2022-12-14_19h37.43.973,Reversal,2022.1.1,60.04357962947035,3,
16,exp1.png,exp2.png,,0,0,0,0,0,16,16,16,,,,,,,,,,,,,,,,,,,,,,,,,False,15,16,True,exp2.png,exp1.png,trial_left_image,1,exp2.png,3,exp2.png,exp1.png,1,3,reversed,correct,0.8315738882551141,1,valid_win,100.04206139999951,7,,,,,,,,,,,,,,,,sub_219,2022-12-14_19h37.43.973,Reversal,2022.1.1,60.04357962947035,3,
17,exp3.png,exp4.png,,0,0,0,0,0,17,17,17,,,,,,,,,,,,,,,,,,,,,,,,,False,16,17,True,exp4.png,exp3.png,trial_right_image,-1,exp3.png,3,exp4.png,exp3.png,0,2,non-reversed,incorrect,0.8726193461232911,0,valid_lose,104.51788219999798,7,,,,,,,,,,,,,,,,sub_219,2022-12-14_19h37.43.973,Reversal,2022.1.1,60.04357962947035,3,
18,exp1.png,exp2.png,,0,0,0,0,0,18,18,18,,,,,,,,,,,,,,,,,,,,,,,,,False,17,18,False,exp1.png,exp2.png,trial_right_image,-1,exp2.png,3,exp2.png,exp1.png,1,3,reversed,correct,0.5466297541897883,1,valid_win,109.68425879999995,8,,,,,,,,,,,,,,,,sub_219,2022-12-14_19h37.43.973,Reversal,2022.1.1,60.04357962947035,3,
19,exp3.png,exp4.png,,0,0,0,0,0,19,19,19,,,,,,,,,,,,,,,,,,,,,,,,,False,18,19,False,exp3.png,exp4.png,trial_right_image,-1,exp4.png,3,exp4.png,exp3.png,1,1,non-reversed,correct,0.9840705007205586,1,valid_win,116.56650869999794,9,,,,,,,,,,,,,,,,sub_219,2022-12-14_19h37.43.973,Reversal,2022.1.1,60.04357962947035,3,
20,exp1.png,exp2.png,,0,0,0,0,0,20,20,20,,,,,,,,,,,,,,,,,,,,,,,,,False,19,20,False,exp1.png,exp2.png,trial_left_image,1,exp1.png,3,exp2.png,exp1.png,0,4,reversed,incorrect,0.1650065357525594,1,invalid_win,121.55029350000041,10,,,,,,,,,,,,,,,,sub_219,2022-12-14_19h37.43.973,Reversal,2022.1.1,60.04357962947035,3,
,,,exp1.png,0,0,0,0,,,,,0,0,0,0,0,0,0,0,,,,,,,,,,,,,,,,,,,,,,,,,,,,,,,,,,,,,,76.0,76.0,14.992140099999233,"[(64.0, 11.2576267000004), (76.0, 14.992140099999233)]",202.85248050000155,None,,,,,,,,,,sub_219,2022-12-14_19h37.43.973,Reversal,2022.1.1,60.04357962947035,3,
,,,exp2.png,0,0,0,0,,,,,0,0,0,0,0,1,1,1,,,,,,,,,,,,,,,,,,,,,,,,,,,,,,,,,,,,,,,67.0,7.596438500000659,"[(67.0, 7.596438500000659)]",219.1383397000027,None,67.0,,,,,,,,,sub_219,2022-12-14_19h37.43.973,Reversal,2022.1.1,60.04357962947035,3,
,,,exp3.png,0,0,0,0,,,,,0,0,0,0,0,2,2,2,,,,,,,,,,,,,,,,,,,,,,,,,,,,,,,,,,,,,,,33.0,3.007635099998879,"[(33.0, 3.007635099998879)]",227.52949330000047,None,,33.0,,,,,,,,sub_219,2022-12-14_19h37.43.973,Reversal,2022.1.1,60.04357962947035,3,
,,,exp4.png,0,0,0,0,,,,,0,0,0,0,0,3,3,3,,,,,,,,,,,,,,,,,,,,,,,,,,,,,,,,,,,,,,,71.0,2.9696750000002794,"[(71.0, 2.9696750000002794)]",231.5472882000031,None,,,71.0,,,,,,,sub_219,2022-12-14_19h37.43.973,Reversal,2022.1.1,60.04357962947035,3,
0,exp1.png,exp2.png,,1,0,1,0,0,0,0,0,,,,,,,,,,,,,,,,,,,,,,,,,True,,,,,,,,,,,,,,,,,,,,,,,,,,,,,,,,,,,,sub_219,2022-12-14_19h37.43.973,Reversal,2022.1.1,60.04357962947035,3,
1,exp3.png,exp4.png,,1,0,1,0,0,1,1,1,,,,,,,,,,,,,,,,,,,,,,,,,False,20,21,False,exp3.png,exp4.png,trial_left_image,1,exp3.png,3,exp4.png,exp3.png,0,2,non-reversed,incorrect,0.3601278488444273,0,valid_lose,159.86072559999957,10,,,,,,,,,,,,,,,,sub_219,2022-12-14_19h37.43.973,Reversal,2022.1.1,60.04357962947035,3,
2,exp1.png,exp2.png,,1,0,1,0,0,2,2,2,,,,,,,,,,,,,,,,,,,,,,,,,False,21,22,True,exp2.png,exp1.png,trial_right_image,-1,exp1.png,3,exp2.png,exp1.png,0,4,reversed,incorrect,0.4983687445763978,0,valid_lose,166.1604566999995,10,,,,,,,,,,,,,,,,sub_219,2022-12-14_19h37.43.973,Reversal,2022.1.1,60.04357962947035,3,
3,exp3.png,exp4.png,,1,0,1,0,0,3,3,3,,,,,,,,,,,,,,,,,,,,,,,,,False,22,23,True,exp4.png,exp3.png,trial_right_image,-1,exp3.png,3,exp4.png,exp3.png,0,2,non-reversed,incorrect,0.47295755727658073,0,valid_lose,171.07626170000003,10,,,,,,,,,,,,,,,,sub_219,2022-12-14_19h37.43.973,Reversal,2022.1.1,60.04357962947035,3,
4,exp1.png,exp2.png,,1,0,1,0,0,4,4,4,,,,,,,,,,,,,,,,,,,,,,,,,False,23,24,False,exp1.png,exp2.png,trial_right_image,-1,exp2.png,3,exp2.png,exp1.png,1,3,reversed,correct,0.722340134044156,1,valid_win,175.49197490000006,11,,,,,,,,,,,,,,,,sub_219,2022-12-14_19h37.43.973,Reversal,2022.1.1,60.04357962947035,3,
5,exp3.png,exp4.png,,1,0,1,0,0,5,5,5,,,,,,,,,,,,,,,,,,,,,,,,,False,24,25,True,exp4.png,exp3.png,trial_left_image,1,exp4.png,3,exp4.png,exp3.png,1,1,non-reversed,correct,0.6347763015613133,1,valid_win,179.924387199997,12,,,,,,,,,,,,,,,,sub_219,2022-12-14_19h37.43.973,Reversal,2022.1.1,60.04357962947035,3,
6,exp1.png,exp2.png,,1,0,1,0,0,6,6,6,,,,,,,,,,,,,,,,,,,,,,,,,False,25,26,True,exp2.png,exp1.png,trial_right_image,-1,exp1.png,3,exp2.png,exp1.png,0,4,reversed,incorrect,0.347283035913004,0,valid_lose,185.65834360000008,12,,,,,,,,,,,,,,,,sub_219,2022-12-14_19h37.43.973,Reversal,2022.1.1,60.04357962947035,3,
7,exp3.png,exp4.png,,1,0,1,0,0,7,7,7,,,,,,,,,,,,,,,,,,,,,,,,,False,26,27,False,exp3.png,exp4.png,trial_left_image,1,exp3.png,3,exp4.png,exp3.png,0,2,non-reversed,incorrect,0.7286477047690676,0,valid_lose,190.34008149999863,12,,,,,,,,,,,,,,,,sub_219,2022-12-14_19h37.43.973,Reversal,2022.1.1,60.04357962947035,3,
8,exp1.png,exp2.png,,1,0,1,0,0,8,8,8,,,,,,,,,,,,,,,,,,,,,,,,,False,27,28,False,exp1.png,exp2.png,trial_left_image,1,exp1.png,3,exp2.png,exp1.png,0,4,reversed,incorrect,0.7683229000355565,0,valid_lose,194.70679989999917,12,,,,,,,,,,,,,,,,sub_219,2022-12-14_19h37.43.973,Reversal,2022.1.1,60.04357962947035,3,
9,exp3.png,exp4.png,,1,0,1,0,0,9,9,9,,,,,,,,,,,,,,,,,,,,,,,,,False,28,29,True,exp4.png,exp3.png,trial_right_image,-1,exp3.png,3,exp4.png,exp3.png,0,2,non-reversed,incorrect,0.8976968495850777,0,valid_lose,199.6730881000003,12,,,,,,,,,,,,,,,,sub_219,2022-12-14_19h37.43.973,Reversal,2022.1.1,60.04357962947035,3,
10,exp1.png,exp2.png,,1,0,1,0,0,10,10,10,,,,,,,,,,,,,,,,,,,,,,,,,False,29,30,True,exp2.png,exp1.png,trial_left_image,1,exp2.png,3,exp2.png,exp1.png,1,3,reversed,correct,0.8191403936951729,1,valid_win,203.6214637999983,13,,,,,,,,,,,,,,,,sub_219,2022-12-14_19h37.43.973,Reversal,2022.1.1,60.04357962947035,3,
11,exp3.png,exp4.png,,1,0,1,0,0,11,11,11,,,,,,,,,,,,,,,,,,,,,,,,,False,30,31,False,exp3.png,exp4.png,trial_right_image,-1,exp4.png,3,exp4.png,exp3.png,1,1,non-reversed,correct,0.055195418852453715,0,invalid_lose,208.705496999999,13,,,,,,,,,,,,,,,,sub_219,2022-12-14_19h37.43.973,Reversal,2022.1.1,60.04357962947035,3,
12,exp1.png,exp2.png,,1,0,1,0,0,12,12,12,,,,,,,,,,,,,,,,,,,,,,,,,False,31,32,True,exp2.png,exp1.png,trial_right_image,-1,exp1.png,3,exp2.png,exp1.png,0,4,reversed,incorrect,0.5472610156481633,0,valid_lose,213.13720349999858,13,,,,,,,,,,,,,,,,sub_219,2022-12-14_19h37.43.973,Reversal,2022.1.1,60.04357962947035,3,
13,exp3.png,exp4.png,,1,0,1,0,0,13,13,13,,,,,,,,,,,,,,,,,,,,,,,,,False,32,33,True,exp4.png,exp3.png,trial_left_image,1,exp4.png,3,exp4.png,exp3.png,1,1,non-reversed,correct,0.5984222162203929,1,valid_win,217.287140299999,14,,,,,,,,,,,,,,,,sub_219,2022-12-14_19h37.43.973,Reversal,2022.1.1,60.04357962947035,3,
14,exp1.png,exp2.png,,1,0,1,0,0,14,14,14,,,,,,,,,,,,,,,,,,,,,,,,,False,33,34,True,exp2.png,exp1.png,trial_left_image,1,exp2.png,3,exp2.png,exp1.png,1,3,reversed,correct,0.37892808360340324,1,valid_win,221.73680719999902,15,,,,,,,,,,,,,,,,sub_219,2022-12-14_19h37.43.973,Reversal,2022.1.1,60.04357962947035,3,
15,exp3.png,exp4.png,,1,0,1,0,0,15,15,15,,,,,,,,,,,,,,,,,,,,,,,,,False,34,35,False,exp3.png,exp4.png,trial_left_image,1,exp3.png,3,exp4.png,exp3.png,0,2,non-reversed,incorrect,0.9628308396258454,0,valid_lose,226.41851209999732,15,,,,,,,,,,,,,,,,sub_219,2022-12-14_19h37.43.973,Reversal,2022.1.1,60.04357962947035,3,
16,exp1.png,exp2.png,,1,0,1,0,0,16,16,16,,,,,,,,,,,,,,,,,,,,,,,,,False,35,36,False,exp1.png,exp2.png,trial_right_image,-1,exp2.png,3,exp2.png,exp1.png,1,3,reversed,correct,0.21002938941440674,0,invalid_lose,230.73420759999863,15,,,,,,,,,,,,,,,,sub_219,2022-12-14_19h37.43.973,Reversal,2022.1.1,60.04357962947035,3,
17,exp3.png,exp4.png,,1,0,1,0,0,17,17,17,,,,,,,,,,,,,,,,,,,,,,,,,False,36,37,False,exp3.png,exp4.png,trial_right_image,-1,exp4.png,3,exp4.png,exp3.png,1,1,non-reversed,correct,0.9496260615480157,1,valid_win,234.75182519999726,16,,,,,,,,,,,,,,,,sub_219,2022-12-14_19h37.43.973,Reversal,2022.1.1,60.04357962947035,3,
18,exp1.png,exp2.png,,1,0,1,0,0,18,18,18,,,,,,,,,,,,,,,,,,,,,,,,,False,37,38,False,exp1.png,exp2.png,trial_left_image,1,exp1.png,3,exp2.png,exp1.png,0,4,reversed,incorrect,0.6160210623155206,0,valid_lose,238.71705569999904,16,,,,,,,,,,,,,,,,sub_219,2022-12-14_19h37.43.973,Reversal,2022.1.1,60.04357962947035,3,
19,exp3.png,exp4.png,,1,0,1,0,0,19,19,19,,,,,,,,,,,,,,,,,,,,,,,,,False,38,39,True,exp4.png,exp3.png,trial_right_image,-1,exp3.png,3,exp4.png,exp3.png,0,2,non-reversed,incorrect,0.24627845077569022,1,invalid_win,242.6341637000005,17,,,,,,,,,,,,,,,,sub_219,2022-12-14_19h37.43.973,Reversal,2022.1.1,60.04357962947035,3,
20,exp1.png,exp2.png,,1,0,1,0,0,20,20,20,,,,,,,,,,,,,,,,,,,,,,,,,False,39,40,False,exp1.png,exp2.png,trial_right_image,-1,exp2.png,3,exp2.png,exp1.png,1,3,reversed,correct,0.8053706025390381,1,valid_win,246.56798960000015,18,,,,,,,,,,,,,,,,sub_219,2022-12-14_19h37.43.973,Reversal,2022.1.1,60.04357962947035,3,
,,,exp1.png,1,0,1,0,,,,,0,0,0,0,0,0,0,0,,,,,,,,,,,,,,,,,,,,,,,,,,,,,,,,,,,,,,74.0,74.0,4.1163102999998955,"[(74.0, 4.1163102999998955)]",327.87240160000147,None,,,,,,,,,,sub_219,2022-12-14_19h37.43.973,Reversal,2022.1.1,60.04357962947035,3,
,,,exp2.png,1,0,1,0,,,,,0,0,0,0,0,1,1,1,,,,,,,,,,,,,,,,,,,,,,,,,,,,,,,,,,,,,,,78.0,1.5920817000005627,"[(78.0, 1.5920817000005627)]",332.79492930000197,None,78.0,,,,,,,,,sub_219,2022-12-14_19h37.43.973,Reversal,2022.1.1,60.04357962947035,3,
,,,exp3.png,1,0,1,0,,,,,0,0,0,0,0,2,2,2,,,,,,,,,,,,,,,,,,,,,,,,,,,,,,,,,,,,,,,20.0,1.559779699997307,"[(20.0, 1.559779699997307)]",335.2095461000026,None,,20.0,,,,,,,,sub_219,2022-12-14_19h37.43.973,Reversal,2022.1.1,60.04357962947035,3,
,,,exp4.png,1,0,1,0,,,,,0,0,0,0,0,3,3,3,,,,,,,,,,,,,,,,,,,,,,,,,,,,,,,,,,,,,,,67.0,1.757773500001349,"[(67.0, 1.757773500001349)]",337.6790449,None,,,67.0,,,,,,,sub_219,2022-12-14_19h37.43.973,Reversal,2022.1.1,60.04357962947035,3,
0,exp1.png,exp2.png,,2,0,2,0,0,0,0,0,,,,,,,,,,,,,,,,,,,,,,,,,True,,,,,,,,,,,,,,,,,,,,,,,,,,,,,,,,,,,,sub_219,2022-12-14_19h37.43.973,Reversal,2022.1.1,60.04357962947035,3,
1,exp3.png,exp4.png,,2,0,2,0,0,1,1,1,,,,,,,,,,,,,,,,,,,,,,,,,False,40,41,True,exp4.png,exp3.png,trial_left_image,1,exp4.png,3,exp4.png,exp3.png,1,1,non-reversed,correct,0.16452103608250335,0,invalid_lose,264.16391609999846,18,,,,,,,,,,,,,,,,sub_219,2022-12-14_19h37.43.973,Reversal,2022.1.1,60.04357962947035,3,
2,exp1.png,exp2.png,,2,0,2,0,0,2,2,2,,,,,,,,,,,,,,,,,,,,,,,,,False,41,42,True,exp2.png,exp1.png,trial_right_image,-1,exp1.png,3,exp2.png,exp1.png,0,4,reversed,incorrect,0.85863190223015,0,valid_lose,269.47986239999955,18,,,,,,,,,,,,,,,,sub_219,2022-12-14_19h37.43.973,Reversal,2022.1.1,60.04357962947035,3,
3,exp3.png,exp4.png,,2,0,2,0,0,3,3,3,,,,,,,,,,,,,,,,,,,,,,,,,False,42,43,False,exp3.png,exp4.png,trial_right_image,-1,exp4.png,3,exp4.png,exp3.png,1,1,non-reversed,correct,0.6489683332409004,1,valid_win,273.446248799999,19,,,,,,,,,,,,,,,,sub_219,2022-12-14_19h37.43.973,Reversal,2022.1.1,60.04357962947035,3,
4,exp1.png,exp2.png,,2,0,2,0,0,4,4,4,,,,,,,,,,,,,,,,,,,,,,,,,False,43,44,False,exp1.png,exp2.png,trial_left_image,1,exp1.png,3,exp2.png,exp1.png,0,4,reversed,incorrect,0.5607289693548233,0,valid_lose,277.39547820000007,19,,,,,,,,,,,,,,,,sub_219,2022-12-14_19h37.43.973,Reversal,2022.1.1,60.04357962947035,3,
5,exp3.png,exp4.png,,2,0,2,0,0,5,5,5,,,,,,,,,,,,,,,,,,,,,,,,,False,44,45,False,exp3.png,exp4.png,trial_right_image,-1,exp4.png,3,exp4.png,exp3.png,1,1,non-reversed,correct,0.8452576402107235,1,valid_win,281.36120279999886,20,,,,,,,,,,,,,,,,sub_219,2022-12-14_19h37.43.973,Reversal,2022.1.1,60.04357962947035,3,
6,exp1.png,exp2.png,,2,0,2,0,0,6,6,6,,,,,,,,,,,,,,,,,,,,,,,,,False,45,46,True,exp2.png,exp1.png,trial_right_image,-1,exp1.png,3,exp2.png,exp1.png,0,4,reversed,incorrect,0.36837798142653255,0,valid_lose,285.4453297,20,,,,,,,,,,,,,,,,sub_219,2022-12-14_19h37.43.973,Reversal,2022.1.1,60.04357962947035,3,
7,exp3.png,exp4.png,,2,0,2,0,0,7,7,7,,,,,,,,,,,,,,,,,,,,,,,,,False,46,47,True,exp4.png,exp3.png,trial_left_image,1,exp4.png,3,exp4.png,exp3.png,1,1,non-reversed,correct,0.112059058673876,0,invalid_lose,290.4438526999984,20,,,,,,,,,,,,,,,,sub_219,2022-12-14_19h37.43.973,Reversal,2022.1.1,60.04357962947035,3,
8,exp1.png,exp2.png,,2,0,2,0,0,8,8,8,,,,,,,,,,,,,,,,,,,,,,,,,False,47,48,True,exp2.png,exp1.png,trial_right_image,-1,exp1.png,3,exp2.png,exp1.png,0,4,reversed,incorrect,0.029591006821511834,1,invalid_win,295.4263589000002,21,,,,,,,,,,,,,,,,sub_219,2022-12-14_19h37.43.973,Reversal,2022.1.1,60.04357962947035,3,
9,exp3.png,exp4.png,,2,0,2,0,0,9,9,9,,,,,,,,,,,,,,,,,,,,,,,,,False,48,49,True,exp4.png,exp3.png,trial_right_image,-1,exp3.png,3,exp4.png,exp3.png,0,2,non-reversed,incorrect,0.9188006886276611,0,valid_lose,299.2925178999976,21,,,,,,,,,,,,,,,,sub_219,2022-12-14_19h37.43.973,Reversal,2022.1.1,60.04357962947035,3,
10,exp1.png,exp2.png,,2,0,2,0,0,10,10,10,,,,,,,,,,,,,,,,,,,,,,,,,False,49,50,False,exp1.png,exp2.png,trial_left_image,1,exp1.png,3,exp2.png,exp1.png,0,4,reversed,incorrect,0.24933750675533128,1,invalid_win,303.497344899999,22,,,,,,,,,,,,,,,,sub_219,2022-12-14_19h37.43.973,Reversal,2022.1.1,60.04357962947035,3,
11,exp3.png,exp4.png,,2,0,2,0,0,11,11,11,,,,,,,,,,,,,,,,,,,,,,,,,False,50,51,False,exp3.png,exp4.png,trial_right_image,-1,exp4.png,3,exp4.png,exp3.png,1,1,non-reversed,correct,0.9539244502113293,1,valid_win,308.02501389999816,23,,,,,,,,,,,,,,,,sub_219,2022-12-14_19h37.43.973,Reversal,2022.1.1,60.04357962947035,3,
12,exp1.png,exp2.png,,2,0,2,0,0,12,12,12,,,,,,,,,,,,,,,,,,,,,,,,,False,51,52,False,exp1.png,exp2.png,trial_left_image,1,exp1.png,3,exp2.png,exp1.png,0,4,reversed,incorrect,0.24371277407730996,1,invalid_win,312.7574956999997,24,,,,,,,,,,,,,,,,sub_219,2022-12-14_19h37.43.973,Reversal,2022.1.1,60.04357962947035,3,
13,exp3.png,exp4.png,,2,0,2,0,0,13,13,13,,,,,,,,,,,,,,,,,,,,,,,,,False,52,53,True,exp4.png,exp3.png,trial_left_image,1,exp4.png,3,exp4.png,exp3.png,1,1,non-reversed,correct,0.8858448834215775,1,valid_win,317.44016159999956,25,,,,,,,,,,,,,,,,sub_219,2022-12-14_19h37.43.973,Reversal,2022.1.1,60.04357962947035,3,
14,exp1.png,exp2.png,,2,0,2,0,0,14,14,14,,,,,,,,,,,,,,,,,,,,,,,,,False,53,54,False,exp1.png,exp2.png,trial_left_image,1,exp1.png,3,exp2.png,exp1.png,0,4,reversed,incorrect,0.03184023366047262,1,invalid_win,323.15547829999923,26,,,,,,,,,,,,,,,,sub_219,2022-12-14_19h37.43.973,Reversal,2022.1.1,60.04357962947035,3,
15,exp3.png,exp4.png,,2,0,2,0,0,15,15,15,,,,,,,,,,,,,,,,,,,,,,,,,False,54,55,True,exp4.png,exp3.png,trial_left_image,1,exp4.png,3,exp4.png,exp3.png,1,1,non-reversed,correct,0.7475547955762055,1,valid_win,328.0057691999973,27,,,,,,,,,,,,,,,,sub_219,2022-12-14_19h37.43.973,Reversal,2022.1.1,60.04357962947035,3,
16,exp1.png,exp2.png,,2,0,2,0,0,16,16,16,,,,,,,,,,,,,,,,,,,,,,,,,False,55,56,False,exp1.png,exp2.png,trial_left_image,1,exp1.png,3,exp2.png,exp1.png,0,4,reversed,incorrect,0.5144393180883402,0,valid_lose,332.7047148999991,27,,,,,,,,,,,,,,,,sub_219,2022-12-14_19h37.43.973,Reversal,2022.1.1,60.04357962947035,3,
17,exp3.png,exp4.png,,2,0,2,0,0,17,17,17,,,,,,,,,,,,,,,,,,,,,,,,,False,56,57,True,exp4.png,exp3.png,trial_right_image,-1,exp3.png,3,exp4.png,exp3.png,0,2,non-reversed,incorrect,0.520072010789408,0,valid_lose,338.08824789999926,27,,,,,,,,,,,,,,,,sub_219,2022-12-14_19h37.43.973,Reversal,2022.1.1,60.04357962947035,3,
18,exp1.png,exp2.png,,2,0,2,0,0,18,18,18,,,,,,,,,,,,,,,,,,,,,,,,,False,57,58,False,exp1.png,exp2.png,trial_right_image,-1,exp2.png,3,exp2.png,exp1.png,1,3,reversed,correct,0.33507127381585977,1,valid_win,343.6701981999977,28,,,,,,,,,,,,,,,,sub_219,2022-12-14_19h37.43.973,Reversal,2022.1.1,60.04357962947035,3,
19,exp3.png,exp4.png,,2,0,2,0,0,19,19,19,,,,,,,,,,,,,,,,,,,,,,,,,False,58,59,True,exp4.png,exp3.png,trial_left_image,1,exp4.png,3,exp4.png,exp3.png,1,1,non-reversed,correct,0.22383885296769812,0,invalid_lose,349.1028636999981,28,,,,,,,,,,,,,,,,sub_219,2022-12-14_19h37.43.973,Reversal,2022.1.1,60.04357962947035,3,
20,exp1.png,exp2.png,,2,0,2,0,0,20,20,20,,,,,,,,,,,,,,,,,,,,,,,,,False,59,60,False,exp1.png,exp2.png,trial_right_image,-1,exp2.png,3,exp2.png,exp1.png,1,3,reversed,correct,0.4255396586977648,1,valid_win,353.9688939999978,29,,,,,,,,,,,,,,,,sub_219,2022-12-14_19h37.43.973,Reversal,2022.1.1,60.04357962947035,3,
,,,exp1.png,2,0,2,0,,,,,0,0,0,0,0,0,0,0,,,,,,,,,,,,,,,,,,,,,,,,,,,,,,,,,,,,,,70.0,70.0,3.4105244999991555,"[(70.0, 3.4105244999991555)]",435.29948250000234,None,,,,,,,,,,sub_219,2022-12-14_19h37.43.973,Reversal,2022.1.1,60.04357962947035,3,
,,,exp2.png,2,0,2,0,,,,,0,0,0,0,0,1,1,1,,,,,,,,,,,,,,,,,,,,,,,,,,,,,,,,,,,,,,,87.0,1.4420011000001978,"[(87.0, 1.4420011000001978)]",439.64694990000135,None,87.0,,,,,,,,,sub_219,2022-12-14_19h37.43.973,Reversal,2022.1.1,60.04357962947035,3,
,,,exp3.png,2,0,2,0,,,,,0,0,0,0,0,2,2,2,,,,,,,,,,,,,,,,,,,,,,,,,,,,,,,,,,,,,,,100.0,2.342579600001045,"[(100.0, 2.342579600001045)]",441.99572310000076,None,,100.0,,,,,,,,sub_219,2022-12-14_19h37.43.973,Reversal,2022.1.1,60.04357962947035,3,
,,,exp4.png,2,0,2,0,,,,,0,0,0,0,0,3,3,3,,,,,,,,,,,,,,,,,,,,,,,,,,,,,,,,,,,,,,,78.0,2.934562599999481,"[(78.0, 2.934562599999481)]",445.2385987000016,None,,,78.0,,,,,,,sub_219,2022-12-14_19h37.43.973,Reversal,2022.1.1,60.04357962947035,3,
0,exp1.png,exp2.png,,3,0,3,0,0,0,0,0,,,,,,,,,,,,,,,,,,,,,,,,,True,,,,,,,,,,,,,,,,,,,,,,,,,,,,,,,,,,,,sub_219,2022-12-14_19h37.43.973,Reversal,2022.1.1,60.04357962947035,3,
1,exp3.png,exp4.png,,3,0,3,0,0,1,1,1,,,,,,,,,,,,,,,,,,,,,,,,,False,60,61,True,exp4.png,exp3.png,trial_right_image,-1,exp3.png,3,exp4.png,exp3.png,0,2,non-reversed,incorrect,0.5904977663936763,0,valid_lose,372.4332546000005,29,,,,,,,,,,,,,,,,sub_219,2022-12-14_19h37.43.973,Reversal,2022.1.1,60.04357962947035,3,
2,exp1.png,exp2.png,,3,0,3,0,0,2,2,2,,,,,,,,,,,,,,,,,,,,,,,,,False,61,62,True,exp2.png,exp1.png,trial_left_image,1,exp2.png,3,exp2.png,exp1.png,1,3,reversed,correct,0.41669753761487827,1,valid_win,377.2332518000003,30,,,,,,,,,,,,,,,,sub_219,2022-12-14_19h37.43.973,Reversal,2022.1.1,60.04357962947035,3,
3,exp3.png,exp4.png,,3,0,3,0,0,3,3,3,,,,,,,,,,,,,,,,,,,,,,,,,False,62,63,False,exp3.png,exp4.png,trial_left_image,1,exp3.png,3,exp4.png,exp3.png,0,2,non-reversed,incorrect,0.2796135960799583,0,valid_lose,381.93195919999926,30,,,,,,,,,,,,,,,,sub_219,2022-12-14_19h37.43.973,Reversal,2022.1.1,60.04357962947035,3,
4,exp1.png,exp2.png,,3,0,3,0,0,4,4,4,,,,,,,,,,,,,,,,,,,,,,,,,False,63,64,False,exp1.png,exp2.png,trial_left_image,1,exp1.png,3,exp2.png,exp1.png,0,4,reversed,incorrect,0.22538974163783032,1,invalid_win,387.39787689999866,31,,,,,,,,,,,,,,,,sub_219,2022-12-14_19h37.43.973,Reversal,2022.1.1,60.04357962947035,3,
5,exp3.png,exp4.png,,3,0,3,0,0,5,5,5,,,,,,,,,,,,,,,,,,,,,,,,,False,64,65,True,exp4.png,exp3.png,trial_left_image,1,exp4.png,3,exp4.png,exp3.png,1,1,non-reversed,correct,0.6942656028936223,1,valid_win,391.89774529999704,32,,,,,,,,,,,,,,,,sub_219,2022-12-14_19h37.43.973,Reversal,2022.1.1,60.04357962947035,3,
6,exp1.png,exp2.png,,3,0,3,0,0,6,6,6,,,,,,,,,,,,,,,,,,,,,,,,,False,65,66,False,exp1.png,exp2.png,trial_right_image,-1,exp2.png,3,exp2.png,exp1.png,1,3,reversed,correct,0.5854123057609256,1,valid_win,396.08748919999925,33,,,,,,,,,,,,,,,,sub_219,2022-12-14_19h37.43.973,Reversal,2022.1.1,60.04357962947035,3,
7,exp3.png,exp4.png,,3,0,3,0,0,7,7,7,,,,,,,,,,,,,,,,,,,,,,,,,False,66,67,True,exp4.png,exp3.png,trial_left_image,1,exp4.png,3,exp4.png,exp3.png,1,1,non-reversed,correct,0.8303659159111024,1,valid_win,400.79618779999873,34,,,,,,,,,,,,,,,,sub_219,2022-12-14_19h37.43.973,Reversal,2022.1.1,60.04357962947035,3,
8,exp1.png,exp2.png,,3,0,3,0,0,8,8,8,,,,,,,,,,,,,,,,,,,,,,,,,False,67,68,False,exp1.png,exp2.png,trial_left_image,1,exp1.png,3,exp2.png,exp1.png,0,4,reversed,incorrect,0.01252523343814893,1,invalid_win,405.1960282999971,35,,,,,,,,,,,,,,,,sub_219,2022-12-14_19h37.43.973,Reversal,2022.1.1,60.04357962947035,3,
9,exp3.png,exp4.png,,3,0,3,0,0,9,9,9,,,,,,,,,,,,,,,,,,,,,,,,,False,68,69,False,exp3.png,exp4.png,trial_right_image,-1,exp4.png,3,exp4.png,exp3.png,1,1,non-reversed,correct,0.3294639765421923,1,valid_win,409.57811629999924,36,,,,,,,,,,,,,,,,sub_219,2022-12-14_19h37.43.973,Reversal,2022.1.1,60.04357962947035,3,
10,exp1.png,exp2.png,,3,0,3,0,0,10,10,10,,,,,,,,,,,,,,,,,,,,,,,,,False,69,70,False,exp1.png,exp2.png,trial_right_image,-1,exp2.png,3,exp2.png,exp1.png,1,3,reversed,correct,0.08606881783469444,0,invalid_lose,415.6938510999971,36,,,,,,,,,,,,,,,,sub_219,2022-12-14_19h37.43.973,Reversal,2022.1.1,60.04357962947035,3,
11,exp3.png,exp4.png,,3,0,3,0,0,11,11,11,,,,,,,,,,,,,,,,,,,,,,,,,False,70,71,True,exp4.png,exp3.png,trial_left_image,1,exp4.png,3,exp4.png,exp3.png,1,1,non-reversed,correct,0.8656988362476078,1,valid_win,420.02695010000025,37,,,,,,,,,,,,,,,,sub_219,2022-12-14_19h37.43.973,Reversal,2022.1.1,60.04357962947035,3,
12,exp1.png,exp2.png,,3,0,3,0,0,12,12,12,,,,,,,,,,,,,,,,,,,,,,,,,False,71,72,False,exp1.png,exp2.png,trial_left_image,1,exp1.png,3,exp2.png,exp1.png,0,4,reversed,incorrect,0.5709637828535414,0,valid_lose,424.52661689999877,37,,,,,,,,,,,,,,,,sub_219,2022-12-14_19h37.43.973,Reversal,2022.1.1,60.04357962947035,3,
13,exp3.png,exp4.png,,3,0,3,0,0,13,13,13,,,,,,,,,,,,,,,,,,,,,,,,,False,72,73,False,exp3.png,exp4.png,trial_right_image,-1,exp4.png,3,exp4.png,exp3.png,1,1,non-reversed,correct,0.011202427548213212,0,invalid_lose,429.0589368999972,37,,,,,,,,,,,,,,,,sub_219,2022-12-14_19h37.43.973,Reversal,2022.1.1,60.04357962947035,3,
14,exp1.png,exp2.png,,3,0,3,0,0,14,14,14,,,,,,,,,,,,,,,,,,,,,,,,,False,73,74,True,exp2.png,exp1.png,trial_left_image,1,exp2.png,3,exp2.png,exp1.png,1,3,reversed,correct,0.5151028685934986,1,valid_win,434.1083531000004,38,,,,,,,,,,,,,,,,sub_219,2022-12-14_19h37.43.973,Reversal,2022.1.1,60.04357962947035,3,
15,exp3.png,exp4.png,,3,0,3,0,0,15,15,15,,,,,,,,,,,,,,,,,,,,,,,,,False,74,75,True,exp4.png,exp3.png,trial_right_image,-1,exp3.png,3,exp4.png,exp3.png,0,2,non-reversed,incorrect,0.35816233798485186,0,valid_lose,440.0408269999971,38,,,,,,,,,,,,,,,,sub_219,2022-12-14_19h37.43.973,Reversal,2022.1.1,60.04357962947035,3,
16,exp1.png,exp2.png,,3,0,3,0,0,16,16,16,,,,,,,,,,,,,,,,,,,,,,,,,False,75,76,False,exp1.png,exp2.png,trial_right_image,-1,exp2.png,3,exp2.png,exp1.png,1,3,reversed,correct,0.015671965814432753,0,invalid_lose,446.4226337,38,,,,,,,,,,,,,,,,sub_219,2022-12-14_19h37.43.973,Reversal,2022.1.1,60.04357962947035,3,
17,exp3.png,exp4.png,,3,0,3,0,0,17,17,17,,,,,,,,,,,,,,,,,,,,,,,,,False,76,77,False,exp3.png,exp4.png,trial_left_image,1,exp3.png,3,exp4.png,exp3.png,0,2,non-reversed,incorrect,0.8095043395895322,0,valid_lose,451.7061794000001,38,,,,,,,,,,,,,,,,sub_219,2022-12-14_19h37.43.973,Reversal,2022.1.1,60.04357962947035,3,
18,exp1.png,exp2.png,,3,0,3,0,0,18,18,18,,,,,,,,,,,,,,,,,,,,,,,,,False,77,78,True,exp2.png,exp1.png,trial_left_image,1,exp2.png,3,exp2.png,exp1.png,1,3,reversed,correct,0.16725122516377378,0,invalid_lose,456.18864439999743,38,,,,,,,,,,,,,,,,sub_219,2022-12-14_19h37.43.973,Reversal,2022.1.1,60.04357962947035,3,
19,exp3.png,exp4.png,,3,0,3,0,0,19,19,19,,,,,,,,,,,,,,,,,,,,,,,,,False,78,79,True,exp4.png,exp3.png,trial_left_image,1,exp4.png,3,exp4.png,exp3.png,1,1,non-reversed,correct,0.593481191543029,1,valid_win,460.6382603999991,39,,,,,,,,,,,,,,,,sub_219,2022-12-14_19h37.43.973,Reversal,2022.1.1,60.04357962947035,3,
20,exp1.png,exp2.png,,3,0,3,0,0,20,20,20,,,,,,,,,,,,,,,,,,,,,,,,,False,79,80,True,exp2.png,exp1.png,trial_right_image,-1,exp1.png,3,exp2.png,exp1.png,0,4,reversed,incorrect,0.5549902479326343,0,valid_lose,465.4039843999999,39,,,,,,,,,,,,,,,,sub_219,2022-12-14_19h37.43.973,Reversal,2022.1.1,60.04357962947035,3,
,,,exp1.png,3,0,3,0,,,,,0,0,0,0,0,0,0,0,,,,,,,,,,,,,,,,,,,,,,,,,,,,,,,,,,,,,,95.0,95.0,3.3777449000008346,"[(95.0, 3.3777449000008346)]",546.7153877000019,None,,,,,,,,,,sub_219,2022-12-14_19h37.43.973,Reversal,2022.1.1,60.04357962947035,3,
,,,exp2.png,3,0,3,0,,,,,0,0,0,0,0,1,1,1,,,,,,,,,,,,,,,,,,,,,,,,,,,,,,,,,,,,,,,85.0,1.5357130999982473,"[(85.0, 1.5357130999982473)]",550.910657700002,None,85.0,,,,,,,,,sub_219,2022-12-14_19h37.43.973,Reversal,2022.1.1,60.04357962947035,3,
,,,exp3.png,3,0,3,0,,,,,0,0,0,0,0,2,2,2,,,,,,,,,,,,,,,,,,,,,,,,,,,,,,,,,,,,,,,14.0,1.254366500001197,"[(14.0, 1.254366500001197)]",553.3026332000009,None,,14.0,,,,,,,,sub_219,2022-12-14_19h37.43.973,Reversal,2022.1.1,60.04357962947035,3,
,,,exp4.png,3,0,3,0,,,,,0,0,0,0,0,3,3,3,,,,,,,,,,,,,,,,,,,,,,,,,,,,,,,,,,,,,,,75.0,1.4206520000007004,"[(75.0, 1.4206520000007004)]",555.5046158000005,None,,,75.0,,,,,,,sub_219,2022-12-14_19h37.43.973,Reversal,2022.1.1,60.04357962947035,3,
0,exp1.png,exp2.png,,,,,,,,,,,,,,,,,,0,0,0,0,0,0,0,0,,,,,,,,,True,,,,,,,,,,,,,,,,,,,,,,,,,,,,,,,,,,,,sub_219,2022-12-14_19h37.43.973,Reversal,2022.1.1,60.04357962947035,3,
1,exp3.png,exp4.png,,,,,,,,,,,,,,,,,,0,0,0,0,0,1,1,1,,,,,,,,,False,0,81,False,exp3.png,exp4.png,trial_right_image,-1,exp4.png,3,exp4.png,exp3.png,1,1,non-reversed,correct,0.7363540597521203,1,valid_win,481.2523693000003,40,,,,,,,,,,479.0169719000005,,,,,,sub_219,2022-12-14_19h37.43.973,Reversal,2022.1.1,60.04357962947035,3,
2,exp1.png,exp2.png,,,,,,,,,,,,,,,,,,0,0,0,0,0,2,2,2,,,,,,,,,False,1,82,True,exp2.png,exp1.png,trial_right_image,-1,exp1.png,3,exp1.png,exp2.png,0,4,reversed,correct,0.5175342947684783,1,valid_win,485.91909719999967,41,,,,,,,,,,,,,,,,sub_219,2022-12-14_19h37.43.973,Reversal,2022.1.1,60.04357962947035,3,
3,exp3.png,exp4.png,,,,,,,,,,,,,,,,,,0,0,0,0,0,3,3,3,,,,,,,,,False,2,83,True,exp4.png,exp3.png,trial_left_image,1,exp4.png,3,exp4.png,exp3.png,1,1,non-reversed,correct,0.5207925432247057,1,valid_win,490.9846679999973,42,,,,,,,,,,,,,,,,sub_219,2022-12-14_19h37.43.973,Reversal,2022.1.1,60.04357962947035,3,
4,exp1.png,exp2.png,,,,,,,,,,,,,,,,,,0,0,0,0,0,4,4,4,,,,,,,,,False,3,84,False,exp1.png,exp2.png,trial_left_image,1,exp1.png,3,exp1.png,exp2.png,0,4,reversed,correct,0.3333471367925188,1,valid_win,495.4685705999982,43,,,,,,,,,,,,,,,,sub_219,2022-12-14_19h37.43.973,Reversal,2022.1.1,60.04357962947035,3,
5,exp3.png,exp4.png,,,,,,,,,,,,,,,,,,0,0,0,0,0,5,5,5,,,,,,,,,False,4,85,False,exp3.png,exp4.png,trial_right_image,-1,exp4.png,3,exp4.png,exp3.png,1,1,non-reversed,correct,0.42201598011859087,1,valid_win,500.01620719999846,44,,,,,,,,,,,,,,,,sub_219,2022-12-14_19h37.43.973,Reversal,2022.1.1,60.04357962947035,3,
6,exp1.png,exp2.png,,,,,,,,,,,,,,,,,,0,0,0,0,0,6,6,6,,,,,,,,,False,5,86,True,exp2.png,exp1.png,trial_right_image,-1,exp1.png,3,exp1.png,exp2.png,0,4,reversed,correct,0.30807621316412026,1,valid_win,504.9225865999979,45,,,,,,,,,,,,,,,,sub_219,2022-12-14_19h37.43.973,Reversal,2022.1.1,60.04357962947035,3,
7,exp3.png,exp4.png,,,,,,,,,,,,,,,,,,0,0,0,0,0,7,7,7,,,,,,,,,False,6,87,True,exp4.png,exp3.png,trial_left_image,1,exp4.png,3,exp4.png,exp3.png,1,1,non-reversed,correct,0.9135708672652323,1,valid_win,509.4986508000002,46,,,,,,,,,,,,,,,,sub_219,2022-12-14_19h37.43.973,Reversal,2022.1.1,60.04357962947035,3,
8,exp1.png,exp2.png,,,,,,,,,,,,,,,,,,0,0,0,0,0,8,8,8,,,,,,,,,False,7,88,False,exp1.png,exp2.png,trial_left_image,1,exp1.png,3,exp1.png,exp2.png,0,4,reversed,correct,0.1524126260219386,0,invalid_lose,513.8491093999983,46,,,,,,,,,,,,,,,,sub_219,2022-12-14_19h37.43.973,Reversal,2022.1.1,60.04357962947035,3,
9,exp3.png,exp4.png,,,,,,,,,,,,,,,,,,0,0,0,0,0,9,9,9,,,,,,,,,False,8,89,True,exp4.png,exp3.png,trial_left_image,1,exp4.png,3,exp4.png,exp3.png,1,1,non-reversed,correct,0.22094975202435174,0,invalid_lose,518.2974082000001,46,,,,,,,,,,,,,,,,sub_219,2022-12-14_19h37.43.973,Reversal,2022.1.1,60.04357962947035,3,
10,exp1.png,exp2.png,,,,,,,,,,,,,,,,,,0,0,0,0,0,10,10,10,,,,,,,,,False,9,90,False,exp1.png,exp2.png,trial_left_image,1,exp1.png,3,exp1.png,exp2.png,0,4,reversed,correct,0.3898682032181786,1,valid_win,522.9342718999978,47,,,,,,,,,,,,,,,,sub_219,2022-12-14_19h37.43.973,Reversal,2022.1.1,60.04357962947035,3,
11,exp3.png,exp4.png,,,,,,,,,,,,,,,,,,0,0,0,0,0,11,11,11,,,,,,,,,False,10,91,False,exp3.png,exp4.png,trial_right_image,-1,exp4.png,3,exp4.png,exp3.png,1,1,non-reversed,correct,0.4753840856035213,1,valid_win,528.0535882999975,48,,,,,,,,,,,,,,,,sub_219,2022-12-14_19h37.43.973,Reversal,2022.1.1,60.04357962947035,3,
12,exp1.png,exp2.png,,,,,,,,,,,,,,,,,,0,0,0,0,0,12,12,12,,,,,,,,,False,11,92,False,exp1.png,exp2.png,trial_right_image,-1,exp2.png,3,exp1.png,exp2.png,1,3,reversed,incorrect,0.6964809536751392,0,valid_lose,532.299599599999,48,,,,,,,,,,,,,,,,sub_219,2022-12-14_19h37.43.973,Reversal,2022.1.1,60.04357962947035,3,
13,exp3.png,exp4.png,,,,,,,,,,,,,,,,,,0,0,0,0,0,13,13,13,,,,,,,,,False,12,93,True,exp4.png,exp3.png,trial_left_image,1,exp4.png,3,exp4.png,exp3.png,1,1,non-reversed,correct,0.6477550109574268,1,valid_win,536.912650899998,49,,,,,,,,,,,,,,,,sub_219,2022-12-14_19h37.43.973,Reversal,2022.1.1,60.04357962947035,3,
14,exp1.png,exp2.png,,,,,,,,,,,,,,,,,,0,0,0,0,0,14,14,14,,,,,,,,,False,13,94,False,exp1.png,exp2.png,trial_left_image,1,exp1.png,3,exp1.png,exp2.png,0,4,reversed,correct,0.4587823043457073,1,valid_win,542.3943311999974,50,,,,,,,,,,,,,,,,sub_219,2022-12-14_19h37.43.973,Reversal,2022.1.1,60.04357962947035,3,
15,exp3.png,exp4.png,,,,,,,,,,,,,,,,,,0,0,0,0,0,15,15,15,,,,,,,,,False,14,95,True,exp4.png,exp3.png,trial_left_image,1,exp4.png,3,exp4.png,exp3.png,1,1,non-reversed,correct,0.7213690786601804,1,valid_win,547.5270184000001,51,,,,,,,,,,,,,,,,sub_219,2022-12-14_19h37.43.973,Reversal,2022.1.1,60.04357962947035,3,
16,exp1.png,exp2.png,,,,,,,,,,,,,,,,,,0,0,0,0,0,16,16,16,,,,,,,,,False,15,96,False,exp1.png,exp2.png,trial_right_image,-1,exp2.png,3,exp1.png,exp2.png,1,3,reversed,incorrect,0.8121494223536725,0,valid_lose,552.9592284999999,51,,,,,,,,,,,,,,,,sub_219,2022-12-14_19h37.43.973,Reversal,2022.1.1,60.04357962947035,3,
17,exp3.png,exp4.png,,,,,,,,,,,,,,,,,,0,0,0,0,0,17,17,17,,,,,,,,,False,16,97,True,exp4.png,exp3.png,trial_left_image,1,exp4.png,3,exp4.png,exp3.png,1,1,non-reversed,correct,0.29591299683205097,1,valid_win,557.8265840999993,52,,,,,,,,,,,,,,,,sub_219,2022-12-14_19h37.43.973,Reversal,2022.1.1,60.04357962947035,3,
18,exp1.png,exp2.png,,,,,,,,,,,,,,,,,,0,0,0,0,0,18,18,18,,,,,,,,,False,17,98,True,exp2.png,exp1.png,trial_right_image,-1,exp1.png,3,exp1.png,exp2.png,0,4,reversed,correct,0.7300079292593294,1,valid_win,566.6080253,53,,,,,,,,,,,,,,,,sub_219,2022-12-14_19h37.43.973,Reversal,2022.1.1,60.04357962947035,3,
19,exp3.png,exp4.png,,,,,,,,,,,,,,,,,,0,0,0,0,0,19,19,19,,,,,,,,,False,18,99,True,exp4.png,exp3.png,trial_left_image,1,exp4.png,3,exp4.png,exp3.png,1,1,non-reversed,correct,0.6994097202820375,1,valid_win,571.1906180999977,54,,,,,,,,,,,,,,,,sub_219,2022-12-14_19h37.43.973,Reversal,2022.1.1,60.04357962947035,3,
20,exp1.png,exp2.png,,,,,,,,,,,,,,,,,,0,0,0,0,0,20,20,20,,,,,,,,,False,19,100,False,exp1.png,exp2.png,trial_left_image,1,exp1.png,3,exp1.png,exp2.png,0,4,reversed,correct,0.8313279746764475,1,valid_win,575.9238903999976,55,,,,,,,,,,,,,,,,sub_219,2022-12-14_19h37.43.973,Reversal,2022.1.1,60.04357962947035,3,
,,,exp1.png,,,,,,,,,,,,,,,,,0,0,0,0,,,,,0,0,0,0,0,0,0,0,,,,,,,,,,,,,,,,,,,,,,81.0,81.0,2.1354286999994656,"[(59.0, 1.7517227999996976), (81.0, 2.1354286999994656)]",657.2444004999998,None,,,,,,,,,,sub_219,2022-12-14_19h37.43.973,Reversal,2022.1.1,60.04357962947035,3,
,,,exp2.png,,,,,,,,,,,,,,,,,0,0,0,0,,,,,0,0,0,0,0,1,1,1,,,,,,,,,,,,,,,,,,,,,,,74.0,1.657394199999544,"[(74.0, 1.657394199999544)]",662.1033668000018,None,74.0,,,,,,,,,sub_219,2022-12-14_19h37.43.973,Reversal,2022.1.1,60.04357962947035,3,
,,,exp3.png,,,,,,,,,,,,,,,,,0,0,0,0,,,,,0,0,0,0,0,2,2,2,,,,,,,,,,,,,,,,,,,,,,,13.0,1.4582034999984899,"[(13.0, 1.4582034999984899)]",664.5523290000019,None,,13.0,,,,,,,,sub_219,2022-12-14_19h37.43.973,Reversal,2022.1.1,60.04357962947035,3,
,,,exp4.png,,,,,,,,,,,,,,,,,0,0,0,0,,,,,0,0,0,0,0,3,3,3,,,,,,,,,,,,,,,,,,,,,,,92.0,1.0995003999996698,"[(92.0, 1.0995003999996698)]",666.9475149999998,None,,,92.0,,,,,,,sub_219,2022-12-14_19h37.43.973,Reversal,2022.1.1,60.04357962947035,3,
0,exp1.png,exp2.png,,,,,,,,,,,,,,,,,,1,0,1,0,0,0,0,0,,,,,,,,,True,,,,,,,,,,,,,,,,,,,,,,,,,,,,,,,,,,,,sub_219,2022-12-14_19h37.43.973,Reversal,2022.1.1,60.04357962947035,3,
1,exp3.png,exp4.png,,,,,,,,,,,,,,,,,,1,0,1,0,0,1,1,1,,,,,,,,,False,20,101,False,exp3.png,exp4.png,trial_right_image,-1,exp4.png,3,exp4.png,exp3.png,1,1,non-reversed,correct,0.7031507895490641,1,valid_win,593.4378605999991,56,,,,,,,,,,,,,,,,sub_219,2022-12-14_19h37.43.973,Reversal,2022.1.1,60.04357962947035,3,
2,exp1.png,exp2.png,,,,,,,,,,,,,,,,,,1,0,1,0,0,2,2,2,,,,,,,,,False,21,102,True,exp2.png,exp1.png,trial_right_image,-1,exp1.png,3,exp1.png,exp2.png,0,4,reversed,correct,0.06475916375614299,0,invalid_lose,597.2748962999976,56,,,,,,,,,,,,,,,,sub_219,2022-12-14_19h37.43.973,Reversal,2022.1.1,60.04357962947035,3,
3,exp3.png,exp4.png,,,,,,,,,,,,,,,,,,1,0,1,0,0,3,3,3,,,,,,,,,False,22,103,False,exp3.png,exp4.png,trial_right_image,-1,exp4.png,3,exp4.png,exp3.png,1,1,non-reversed,correct,0.12171779779516023,0,invalid_lose,601.5199842999973,56,,,,,,,,,,,,,,,,sub_219,2022-12-14_19h37.43.973,Reversal,2022.1.1,60.04357962947035,3,
4,exp1.png,exp2.png,,,,,,,,,,,,,,,,,,1,0,1,0,0,4,4,4,,,,,,,,,False,23,104,True,exp2.png,exp1.png,trial_left_image,1,exp2.png,3,exp1.png,exp2.png,1,3,reversed,incorrect,0.4209373954707887,0,valid_lose,605.7527527999991,56,,,,,,,,,,,,,,,,sub_219,2022-12-14_19h37.43.973,Reversal,2022.1.1,60.04357962947035,3,
5,exp3.png,exp4.png,,,,,,,,,,,,,,,,,,1,0,1,0,0,5,5,5,,,,,,,,,False,24,105,False,exp3.png,exp4.png,trial_right_image,-1,exp4.png,3,exp4.png,exp3.png,1,1,non-reversed,correct,0.10945904555630326,0,invalid_lose,610.0855994999984,56,,,,,,,,,,,,,,,,sub_219,2022-12-14_19h37.43.973,Reversal,2022.1.1,60.04357962947035,3,
6,exp1.png,exp2.png,,,,,,,,,,,,,,,,,,1,0,1,0,0,6,6,6,,,,,,,,,False,25,106,True,exp2.png,exp1.png,trial_right_image,-1,exp1.png,3,exp1.png,exp2.png,0,4,reversed,correct,0.17905340649038004,0,invalid_lose,613.9525861999973,56,,,,,,,,,,,,,,,,sub_219,2022-12-14_19h37.43.973,Reversal,2022.1.1,60.04357962947035,3,
7,exp3.png,exp4.png,,,,,,,,,,,,,,,,,,1,0,1,0,0,7,7,7,,,,,,,,,False,26,107,False,exp3.png,exp4.png,trial_left_image,1,exp3.png,3,exp4.png,exp3.png,0,2,non-reversed,incorrect,0.9981430746424833,0,valid_lose,618.3699119999983,56,,,,,,,,,,,,,,,,sub_219,2022-12-14_19h37.43.973,Reversal,2022.1.1,60.04357962947035,3,
8,exp1.png,exp2.png,,,,,,,,,,,,,,,,,,1,0,1,0,0,8,8,8,,,,,,,,,False,27,108,True,exp2.png,exp1.png,trial_left_image,1,exp2.png,3,exp1.png,exp2.png,1,3,reversed,incorrect,0.9989183457339083,0,valid_lose,622.4500149999985,56,,,,,,,,,,,,,,,,sub_219,2022-12-14_19h37.43.973,Reversal,2022.1.1,60.04357962947035,3,
9,exp3.png,exp4.png,,,,,,,,,,,,,,,,,,1,0,1,0,0,9,9,9,,,,,,,,,False,28,109,True,exp4.png,exp3.png,trial_left_image,1,exp4.png,3,exp4.png,exp3.png,1,1,non-reversed,correct,0.5850326771857843,1,valid_win,626.6673830999971,57,,,,,,,,,,,,,,,,sub_219,2022-12-14_19h37.43.973,Reversal,2022.1.1,60.04357962947035,3,
10,exp1.png,exp2.png,,,,,,,,,,,,,,,,,,1,0,1,0,0,10,10,10,,,,,,,,,False,29,110,False,exp1.png,exp2.png,trial_left_image,1,exp1.png,3,exp1.png,exp2.png,0,4,reversed,correct,0.09403470815739068,0,invalid_lose,630.8828410999995,57,,,,,,,,,,,,,,,,sub_219,2022-12-14_19h37.43.973,Reversal,2022.1.1,60.04357962947035,3,
11,exp3.png,exp4.png,,,,,,,,,,,,,,,,,,1,0,1,0,0,11,11,11,,,,,,,,,False,30,111,False,exp3.png,exp4.png,trial_right_image,-1,exp4.png,3,exp4.png,exp3.png,1,1,non-reversed,correct,0.2826407519564793,1,valid_win,635.1231391000001,58,,,,,,,,,,,,,,,,sub_219,2022-12-14_19h37.43.973,Reversal,2022.1.1,60.04357962947035,3,
12,exp1.png,exp2.png,,,,,,,,,,,,,,,,,,1,0,1,0,0,12,12,12,,,,,,,,,False,31,112,False,exp1.png,exp2.png,trial_right_image,-1,exp2.png,3,exp1.png,exp2.png,1,3,reversed,incorrect,0.5516352609530688,0,valid_lose,639.3323143999987,58,,,,,,,,,,,,,,,,sub_219,2022-12-14_19h37.43.973,Reversal,2022.1.1,60.04357962947035,3,
13,exp3.png,exp4.png,,,,,,,,,,,,,,,,,,1,0,1,0,0,13,13,13,,,,,,,,,False,32,113,False,exp3.png,exp4.png,trial_left_image,1,exp3.png,3,exp4.png,exp3.png,0,2,non-reversed,incorrect,0.7043076104232885,0,valid_lose,643.3321203999985,58,,,,,,,,,,,,,,,,sub_219,2022-12-14_19h37.43.973,Reversal,2022.1.1,60.04357962947035,3,
14,exp1.png,exp2.png,,,,,,,,,,,,,,,,,,1,0,1,0,0,14,14,14,,,,,,,,,False,33,114,True,exp2.png,exp1.png,trial_left_image,1,exp2.png,3,exp1.png,exp2.png,1,3,reversed,incorrect,0.15262384155042263,1,invalid_win,647.4972514999972,59,,,,,,,,,,,,,,,,sub_219,2022-12-14_19h37.43.973,Reversal,2022.1.1,60.04357962947035,3,
15,exp3.png,exp4.png,,,,,,,,,,,,,,,,,,1,0,1,0,0,15,15,15,,,,,,,,,False,34,115,False,exp3.png,exp4.png,trial_right_image,-1,exp4.png,3,exp4.png,exp3.png,1,1,non-reversed,correct,0.26287325251506377,1,valid_win,651.9131369999996,60,,,,,,,,,,,,,,,,sub_219,2022-12-14_19h37.43.973,Reversal,2022.1.1,60.04357962947035,3,
16,exp1.png,exp2.png,,,,,,,,,,,,,,,,,,1,0,1,0,0,16,16,16,,,,,,,,,False,35,116,True,exp2.png,exp1.png,trial_left_image,1,exp2.png,3,exp1.png,exp2.png,1,3,reversed,incorrect,0.7642989077688631,0,valid_lose,655.7855858000003,60,,,,,,,,,,,,,,,,sub_219,2022-12-14_19h37.43.973,Reversal,2022.1.1,60.04357962947035,3,
17,exp3.png,exp4.png,,,,,,,,,,,,,,,,,,1,0,1,0,0,17,17,17,,,,,,,,,False,36,117,True,exp4.png,exp3.png,trial_left_image,1,exp4.png,3,exp4.png,exp3.png,1,1,non-reversed,correct,0.3146716967319252,1,valid_win,659.6307515999979,61,,,,,,,,,,,,,,,,sub_219,2022-12-14_19h37.43.973,Reversal,2022.1.1,60.04357962947035,3,
18,exp1.png,exp2.png,,,,,,,,,,,,,,,,,,1,0,1,0,0,18,18,18,,,,,,,,,False,37,118,False,exp1.png,exp2.png,trial_left_image,1,exp1.png,3,exp1.png,exp2.png,0,4,reversed,correct,0.26219721790296735,1,valid_win,663.8785671000005,62,,,,,,,,,,,,,,,,sub_219,2022-12-14_19h37.43.973,Reversal,2022.1.1,60.04357962947035,3,
19,exp3.png,exp4.png,,,,,,,,,,,,,,,,,,1,0,1,0,0,19,19,19,,,,,,,,,False,38,119,True,exp4.png,exp3.png,trial_left_image,1,exp4.png,3,exp4.png,exp3.png,1,1,non-reversed,correct,0.581735090152847,1,valid_win,667.8848316000003,63,,,,,,,,,,,,,,,,sub_219,2022-12-14_19h37.43.973,Reversal,2022.1.1,60.04357962947035,3,
20,exp1.png,exp2.png,,,,,,,,,,,,,,,,,,1,0,1,0,0,20,20,20,,,,,,,,,False,39,120,True,exp2.png,exp1.png,trial_right_image,-1,exp1.png,3,exp1.png,exp2.png,0,4,reversed,correct,0.15269953428256056,0,invalid_lose,672.4445562999972,63,,,,,,,,,,,,,,,,sub_219,2022-12-14_19h37.43.973,Reversal,2022.1.1,60.04357962947035,3,
,,,exp1.png,,,,,,,,,,,,,,,,,1,0,1,0,,,,,0,0,0,0,0,0,0,0,,,,,,,,,,,,,,,,,,,,,,71.0,71.0,1.5183361999988847,"[(71.0, 1.5183361999988847)]",753.7638407000013,None,,,,,,,,,,sub_219,2022-12-14_19h37.43.973,Reversal,2022.1.1,60.04357962947035,3,
,,,exp2.png,,,,,,,,,,,,,,,,,1,0,1,0,,,,,0,0,0,0,0,1,1,1,,,,,,,,,,,,,,,,,,,,,,,84.0,1.2744954000008875,"[(84.0, 1.2744954000008875)]",756.3744180000031,None,84.0,,,,,,,,,sub_219,2022-12-14_19h37.43.973,Reversal,2022.1.1,60.04357962947035,3,
,,,exp3.png,,,,,,,,,,,,,,,,,1,0,1,0,,,,,0,0,0,0,0,2,2,2,,,,,,,,,,,,,,,,,,,,,,,68.0,1.3727999000002455,"[(68.0, 1.3727999000002455)]",758.5099049000019,None,,68.0,,,,,,,,sub_219,2022-12-14_19h37.43.973,Reversal,2022.1.1,60.04357962947035,3,
,,,exp4.png,,,,,,,,,,,,,,,,,1,0,1,0,,,,,0,0,0,0,0,3,3,3,,,,,,,,,,,,,,,,,,,,,,,89.0,0.7328309000004083,"[(89.0, 0.7328309000004083)]",760.6491552000007,None,,,89.0,,,,,,,sub_219,2022-12-14_19h37.43.973,Reversal,2022.1.1,60.04357962947035,3,
0,exp1.png,exp2.png,,,,,,,,,,,,,,,,,,2,0,2,0,0,0,0,0,,,,,,,,,True,,,,,,,,,,,,,,,,,,,,,,,,,,,,,,,,,,,,sub_219,2022-12-14_19h37.43.973,Reversal,2022.1.1,60.04357962947035,3,
1,exp3.png,exp4.png,,,,,,,,,,,,,,,,,,2,0,2,0,0,1,1,1,,,,,,,,,False,40,121,True,exp4.png,exp3.png,trial_left_image,1,exp4.png,3,exp4.png,exp3.png,1,1,non-reversed,correct,0.9496712385557817,1,valid_win,686.0251586999984,64,,,,,,,,,,,,,,,,sub_219,2022-12-14_19h37.43.973,Reversal,2022.1.1,60.04357962947035,3,
2,exp1.png,exp2.png,,,,,,,,,,,,,,,,,,2,0,2,0,0,2,2,2,,,,,,,,,False,41,122,False,exp1.png,exp2.png,trial_left_image,1,exp1.png,3,exp1.png,exp2.png,0,4,reversed,correct,0.7845277334916787,1,valid_win,690.3421503999998,65,,,,,,,,,,,,,,,,sub_219,2022-12-14_19h37.43.973,Reversal,2022.1.1,60.04357962947035,3,
3,exp3.png,exp4.png,,,,,,,,,,,,,,,,,,2,0,2,0,0,3,3,3,,,,,,,,,False,42,123,True,exp4.png,exp3.png,trial_left_image,1,exp4.png,3,exp4.png,exp3.png,1,1,non-reversed,correct,0.5614922456555833,1,valid_win,694.5578301999994,66,,,,,,,,,,,,,,,,sub_219,2022-12-14_19h37.43.973,Reversal,2022.1.1,60.04357962947035,3,
4,exp1.png,exp2.png,,,,,,,,,,,,,,,,,,2,0,2,0,0,4,4,4,,,,,,,,,False,43,124,False,exp1.png,exp2.png,trial_left_image,1,exp1.png,3,exp1.png,exp2.png,0,4,reversed,correct,0.6745849295527941,1,valid_win,698.8072597999999,67,,,,,,,,,,,,,,,,sub_219,2022-12-14_19h37.43.973,Reversal,2022.1.1,60.04357962947035,3,
5,exp3.png,exp4.png,,,,,,,,,,,,,,,,,,2,0,2,0,0,5,5,5,,,,,,,,,False,44,125,False,exp3.png,exp4.png,trial_right_image,-1,exp4.png,3,exp4.png,exp3.png,1,1,non-reversed,correct,0.7236952692764577,1,valid_win,703.6895048999977,68,,,,,,,,,,,,,,,,sub_219,2022-12-14_19h37.43.973,Reversal,2022.1.1,60.04357962947035,3,
6,exp1.png,exp2.png,,,,,,,,,,,,,,,,,,2,0,2,0,0,6,6,6,,,,,,,,,False,45,126,True,exp2.png,exp1.png,trial_right_image,-1,exp1.png,3,exp1.png,exp2.png,0,4,reversed,correct,0.15107280063694095,0,invalid_lose,707.9727701999982,68,,,,,,,,,,,,,,,,sub_219,2022-12-14_19h37.43.973,Reversal,2022.1.1,60.04357962947035,3,
7,exp3.png,exp4.png,,,,,,,,,,,,,,,,,,2,0,2,0,0,7,7,7,,,,,,,,,False,46,127,True,exp4.png,exp3.png,trial_left_image,1,exp4.png,3,exp4.png,exp3.png,1,1,non-reversed,correct,0.8954537040950955,1,valid_win,712.255306199997,69,,,,,,,,,,,,,,,,sub_219,2022-12-14_19h37.43.973,Reversal,2022.1.1,60.04357962947035,3,
8,exp1.png,exp2.png,,,,,,,,,,,,,,,,,,2,0,2,0,0,8,8,8,,,,,,,,,False,47,128,False,exp1.png,exp2.png,trial_left_image,1,exp1.png,3,exp1.png,exp2.png,0,4,reversed,correct,0.024382910914759304,0,invalid_lose,716.6226822999997,69,,,,,,,,,,,,,,,,sub_219,2022-12-14_19h37.43.973,Reversal,2022.1.1,60.04357962947035,3,
9,exp3.png,exp4.png,,,,,,,,,,,,,,,,,,2,0,2,0,0,9,9,9,,,,,,,,,False,48,129,False,exp3.png,exp4.png,trial_right_image,-1,exp4.png,3,exp4.png,exp3.png,1,1,non-reversed,correct,0.3230733156635558,1,valid_win,721.0219289999986,70,,,,,,,,,,,,,,,,sub_219,2022-12-14_19h37.43.973,Reversal,2022.1.1,60.04357962947035,3,
10,exp1.png,exp2.png,,,,,,,,,,,,,,,,,,2,0,2,0,0,10,10,10,,,,,,,,,False,49,130,True,exp2.png,exp1.png,trial_right_image,-1,exp1.png,3,exp1.png,exp2.png,0,4,reversed,correct,0.08817584069148265,0,invalid_lose,725.8873002999972,70,,,,,,,,,,,,,,,,sub_219,2022-12-14_19h37.43.973,Reversal,2022.1.1,60.04357962947035,3,
11,exp3.png,exp4.png,,,,,,,,,,,,,,,,,,2,0,2,0,0,11,11,11,,,,,,,,,False,50,131,False,exp3.png,exp4.png,trial_right_image,-1,exp4.png,3,exp4.png,exp3.png,1,1,non-reversed,correct,0.3759266297833952,1,valid_win,730.220715899999,71,,,,,,,,,,,,,,,,sub_219,2022-12-14_19h37.43.973,Reversal,2022.1.1,60.04357962947035,3,
12,exp1.png,exp2.png,,,,,,,,,,,,,,,,,,2,0,2,0,0,12,12,12,,,,,,,,,False,51,132,False,exp1.png,exp2.png,trial_right_image,-1,exp2.png,3,exp1.png,exp2.png,1,3,reversed,incorrect,0.040950115724845415,1,invalid_win,736.5687988999998,72,,,,,,,,,,,,,,,,sub_219,2022-12-14_19h37.43.973,Reversal,2022.1.1,60.04357962947035,3,
13,exp3.png,exp4.png,,,,,,,,,,,,,,,,,,2,0,2,0,0,13,13,13,,,,,,,,,False,52,133,False,exp3.png,exp4.png,trial_right_image,-1,exp4.png,3,exp4.png,exp3.png,1,1,non-reversed,correct,0.05609792613229625,0,invalid_lose,741.0192048999997,72,,,,,,,,,,,,,,,,sub_219,2022-12-14_19h37.43.973,Reversal,2022.1.1,60.04357962947035,3,
14,exp1.png,exp2.png,,,,,,,,,,,,,,,,,,2,0,2,0,0,14,14,14,,,,,,,,,False,53,134,False,exp1.png,exp2.png,trial_left_image,1,exp1.png,3,exp1.png,exp2.png,0,4,reversed,correct,0.9347645426065558,1,valid_win,746.3008981999992,73,,,,,,,,,,,,,,,,sub_219,2022-12-14_19h37.43.973,Reversal,2022.1.1,60.04357962947035,3,
15,exp3.png,exp4.png,,,,,,,,,,,,,,,,,,2,0,2,0,0,15,15,15,,,,,,,,,False,54,135,True,exp4.png,exp3.png,trial_left_image,1,exp4.png,3,exp4.png,exp3.png,1,1,non-reversed,correct,0.3050051474394142,1,valid_win,750.8006838999972,74,,,,,,,,,,,,,,,,sub_219,2022-12-14_19h37.43.973,Reversal,2022.1.1,60.04357962947035,3,
16,exp1.png,exp2.png,,,,,,,,,,,,,,,,,,2,0,2,0,0,16,16,16,,,,,,,,,False,55,136,True,exp2.png,exp1.png,trial_left_image,1,exp2.png,3,exp1.png,exp2.png,1,3,reversed,incorrect,0.24126378202420606,1,invalid_win,755.2331558999977,75,,,,,,,,,,,,,,,,sub_219,2022-12-14_19h37.43.973,Reversal,2022.1.1,60.04357962947035,3,
17,exp3.png,exp4.png,,,,,,,,,,,,,,,,,,2,0,2,0,0,17,17,17,,,,,,,,,False,56,137,True,exp4.png,exp3.png,trial_left_image,1,exp4.png,3,exp4.png,exp3.png,1,1,non-reversed,correct,0.5986051451196349,1,valid_win,760.6161157999995,76,,,,,,,,,,,,,,,,sub_219,2022-12-14_19h37.43.973,Reversal,2022.1.1,60.04357962947035,3,
18,exp1.png,exp2.png,,,,,,,,,,,,,,,,,,2,0,2,0,0,18,18,18,,,,,,,,,False,57,138,False,exp1.png,exp2.png,trial_right_image,-1,exp2.png,3,exp1.png,exp2.png,1,3,reversed,incorrect,0.46030704411296697,0,valid_lose,765.5151063999983,76,,,,,,,,,,,,,,,,sub_219,2022-12-14_19h37.43.973,Reversal,2022.1.1,60.04357962947035,3,
19,exp3.png,exp4.png,,,,,,,,,,,,,,,,,,2,0,2,0,0,19,19,19,,,,,,,,,False,58,139,True,exp4.png,exp3.png,trial_left_image,1,exp4.png,3,exp4.png,exp3.png,1,1,non-reversed,correct,0.8808911543584751,1,valid_win,770.2500087999979,77,,,,,,,,,,,,,,,,sub_219,2022-12-14_19h37.43.973,Reversal,2022.1.1,60.04357962947035,3,
20,exp1.png,exp2.png,,,,,,,,,,,,,,,,,,2,0,2,0,0,20,20,20,,,,,,,,,False,59,140,True,exp2.png,exp1.png,trial_left_image,1,exp2.png,3,exp1.png,exp2.png,1,3,reversed,incorrect,0.900631077830805,0,valid_lose,774.7802503999992,77,,,,,,,,,,,,,,,,sub_219,2022-12-14_19h37.43.973,Reversal,2022.1.1,60.04357962947035,3,
,,,exp1.png,,,,,,,,,,,,,,,,,2,0,2,0,,,,,0,0,0,0,0,0,0,0,,,,,,,,,,,,,,,,,,,,,,29.0,29.0,2.5123395999980858,"[(29.0, 2.5123395999980858)]",856.0909122000012,None,,,,,,,,,,sub_219,2022-12-14_19h37.43.973,Reversal,2022.1.1,60.04357962947035,3,
,,,exp2.png,,,,,,,,,,,,,,,,,2,0,2,0,,,,,0,0,0,0,0,1,1,1,,,,,,,,,,,,,,,,,,,,,,,77.0,1.1753021000004082,"[(77.0, 1.1753021000004082)]",859.5427245999999,None,77.0,,,,,,,,,sub_219,2022-12-14_19h37.43.973,Reversal,2022.1.1,60.04357962947035,3,
,,,exp3.png,,,,,,,,,,,,,,,,,2,0,2,0,,,,,0,0,0,0,0,2,2,2,,,,,,,,,,,,,,,,,,,,,,,12.0,1.5998818000007304,"[(15.0, 0.9667937000012898), (12.0, 1.5998818000007304)]",861.6177294000008,None,,12.0,,,,,,,,sub_219,2022-12-14_19h37.43.973,Reversal,2022.1.1,60.04357962947035,3,
,,,exp4.png,,,,,,,,,,,,,,,,,2,0,2,0,,,,,0,0,0,0,0,3,3,3,,,,,,,,,,,,,,,,,,,,,,,74.0,1.1079813000033027,"[(74.0, 1.1079813000033027)]",864.2111197000013,None,,,74.0,,,,,,,sub_219,2022-12-14_19h37.43.973,Reversal,2022.1.1,60.04357962947035,3,
,,,,,,,,,,,,,,,,,,,,,,,,,,,,,,,,,,,,,,,,,,,,,,,,,,,,,,,,77,,,,,,,,,,,87,40,47,308.2150460999983,1,,,,,,,
