trial_index,trial_image1_file,trial_image2_file,image_file,learning_outer_loop.thisRepN,learning_outer_loop.thisTrialN,learning_outer_loop.thisN,learning_outer_loop.thisIndex,learning_inner_loop.thisRepN,learning_inner_loop.thisTrialN,learning_inner_loop.thisN,learning_inner_loop.thisIndex,learning_estimation_outer_loop.thisRepN,learning_estimation_outer_loop.thisTrialN,learning_estimation_outer_loop.thisN,learning_estimation_outer_loop.thisIndex,learning_estimation_inner_loop.thisRepN,learning_estimation_inner_loop.thisTrialN,learning_estimation_inner_loop.thisN,learning_estimation_inner_loop.thisIndex,reversal_outer_loop.thisRepN,reversal_outer_loop.thisTrialN,reversal_outer_loop.thisN,reversal_outer_loop.thisIndex,reversal_inner_loop.thisRepN,reversal_inner_loop.thisTrialN,reversal_inner_loop.thisN,reversal_inner_loop.thisIndex,reversal_estimation_outer_loop.thisRepN,reversal_estimation_outer_loop.thisTrialN,reversal_estimation_outer_loop.thisN,reversal_estimation_outer_loop.thisIndex,reversal_estimation_inner_loop.thisRepN,reversal_estimation_inner_loop.thisTrialN,reversal_estimation_inner_loop.thisN,reversal_estimation_inner_loop.thisIndex,skipped,total_trial_counter,trial_num,left_right_flip,left_image_file,right_image_file,clicked_stimulus_side,side,clicked_stimulus,version,high_prob_image_file,low_prob_image_file,choice_a,choice_b,pair_type,correct,trial_feedback_random,reward,trial_type,overall_time_after_trial,score,estimation_exp1.png,estimation_rating.response,estimation_rating.rt,estimation_rating.history,estimation_rating.started,estimation_rating.stopped,estimation_exp3.png,estimation_exp2.png,estimation_exp4.png,total_learning_time,total_correct,learning_correct,reversal_correct,total_reversal_time,extra_block,participant,date,expName,psychopyVersion,frameRate,ver,
0,exp1.png,exp2.png,,0,0,0,0,0,0,0,0,,,,,,,,,,,,,,,,,,,,,,,,,False,0,1,True,exp2.png,exp1.png,trial_right_image,-1,exp1.png,1,exp1.png,exp2.png,1,3,reversed,correct,0.7241731399051292,1,valid_win,4.031144999999924,1,,,,,,,,,,,,,,,,sub_181,2022-09-14_14h08.41.122,Reversal,2022.1.1,60.22692300058379,1,
1,exp3.png,exp4.png,,0,0,0,0,0,1,1,1,,,,,,,,,,,,,,,,,,,,,,,,,False,1,2,False,exp3.png,exp4.png,trial_right_image,-1,exp4.png,1,exp3.png,exp4.png,0,2,non-reversed,incorrect,0.6989787238259371,0,valid_lose,9.630530699999781,1,,,,,,,,,,,,,,,,sub_181,2022-09-14_14h08.41.122,Reversal,2022.1.1,60.22692300058379,1,
2,exp1.png,exp2.png,,0,0,0,0,0,2,2,2,,,,,,,,,,,,,,,,,,,,,,,,,False,2,3,False,exp1.png,exp2.png,trial_left_image,1,exp1.png,1,exp1.png,exp2.png,1,3,reversed,correct,0.8681613101647662,1,valid_win,16.028952599999684,2,,,,,,,,,,,,,,,,sub_181,2022-09-14_14h08.41.122,Reversal,2022.1.1,60.22692300058379,1,
3,exp3.png,exp4.png,,0,0,0,0,0,3,3,3,,,,,,,,,,,,,,,,,,,,,,,,,False,3,4,True,exp4.png,exp3.png,trial_right_image,-1,exp3.png,1,exp3.png,exp4.png,1,1,non-reversed,correct,0.0698446978955769,0,invalid_lose,23.6116006999996,2,,,,,,,,,,,,,,,,sub_181,2022-09-14_14h08.41.122,Reversal,2022.1.1,60.22692300058379,1,
4,exp1.png,exp2.png,,0,0,0,0,0,4,4,4,,,,,,,,,,,,,,,,,,,,,,,,,False,4,5,False,exp1.png,exp2.png,trial_left_image,1,exp1.png,1,exp1.png,exp2.png,1,3,reversed,correct,0.9225548111920078,1,valid_win,28.493562599999677,3,,,,,,,,,,,,,,,,sub_181,2022-09-14_14h08.41.122,Reversal,2022.1.1,60.22692300058379,1,
5,exp3.png,exp4.png,,0,0,0,0,0,5,5,5,,,,,,,,,,,,,,,,,,,,,,,,,False,5,6,False,exp3.png,exp4.png,trial_left_image,1,exp3.png,1,exp3.png,exp4.png,1,1,non-reversed,correct,0.3912063979968796,1,valid_win,33.143013699999756,4,,,,,,,,,,,,,,,,sub_181,2022-09-14_14h08.41.122,Reversal,2022.1.1,60.22692300058379,1,
6,exp1.png,exp2.png,,0,0,0,0,0,6,6,6,,,,,,,,,,,,,,,,,,,,,,,,,False,6,7,True,exp2.png,exp1.png,trial_left_image,1,exp2.png,1,exp1.png,exp2.png,0,4,reversed,incorrect,0.3895677371779114,0,valid_lose,37.775890499999605,4,,,,,,,,,,,,,,,,sub_181,2022-09-14_14h08.41.122,Reversal,2022.1.1,60.22692300058379,1,
7,exp3.png,exp4.png,,0,0,0,0,0,7,7,7,,,,,,,,,,,,,,,,,,,,,,,,,False,7,8,True,exp4.png,exp3.png,trial_right_image,-1,exp3.png,1,exp3.png,exp4.png,1,1,non-reversed,correct,0.43590245585925513,1,valid_win,42.259472599999754,5,,,,,,,,,,,,,,,,sub_181,2022-09-14_14h08.41.122,Reversal,2022.1.1,60.22692300058379,1,
8,exp1.png,exp2.png,,0,0,0,0,0,8,8,8,,,,,,,,,,,,,,,,,,,,,,,,,False,8,9,False,exp1.png,exp2.png,trial_right_image,-1,exp2.png,1,exp1.png,exp2.png,0,4,reversed,incorrect,0.011058687636055775,1,invalid_win,46.57433439999977,6,,,,,,,,,,,,,,,,sub_181,2022-09-14_14h08.41.122,Reversal,2022.1.1,60.22692300058379,1,
9,exp3.png,exp4.png,,0,0,0,0,0,9,9,9,,,,,,,,,,,,,,,,,,,,,,,,,False,9,10,True,exp4.png,exp3.png,trial_right_image,-1,exp3.png,1,exp3.png,exp4.png,1,1,non-reversed,correct,0.1358599768777773,0,invalid_lose,53.40692059999992,6,,,,,,,,,,,,,,,,sub_181,2022-09-14_14h08.41.122,Reversal,2022.1.1,60.22692300058379,1,
10,exp1.png,exp2.png,,0,0,0,0,0,10,10,10,,,,,,,,,,,,,,,,,,,,,,,,,False,10,11,True,exp2.png,exp1.png,trial_left_image,1,exp2.png,1,exp1.png,exp2.png,0,4,reversed,incorrect,0.797490349298368,0,valid_lose,58.073130599999786,6,,,,,,,,,,,,,,,,sub_181,2022-09-14_14h08.41.122,Reversal,2022.1.1,60.22692300058379,1,
11,exp3.png,exp4.png,,0,0,0,0,0,11,11,11,,,,,,,,,,,,,,,,,,,,,,,,,False,11,12,True,exp4.png,exp3.png,trial_right_image,-1,exp3.png,1,exp3.png,exp4.png,1,1,non-reversed,correct,0.10619374228614331,0,invalid_lose,62.273137399999996,6,,,,,,,,,,,,,,,,sub_181,2022-09-14_14h08.41.122,Reversal,2022.1.1,60.22692300058379,1,
12,exp1.png,exp2.png,,0,0,0,0,0,12,12,12,,,,,,,,,,,,,,,,,,,,,,,,,False,12,13,False,exp1.png,exp2.png,trial_right_image,-1,exp2.png,1,exp1.png,exp2.png,0,4,reversed,incorrect,0.21058956355752023,1,invalid_win,69.27266499999996,7,,,,,,,,,,,,,,,,sub_181,2022-09-14_14h08.41.122,Reversal,2022.1.1,60.22692300058379,1,
13,exp3.png,exp4.png,,0,0,0,0,0,13,13,13,,,,,,,,,,,,,,,,,,,,,,,,,False,13,14,False,exp3.png,exp4.png,trial_right_image,-1,exp4.png,1,exp3.png,exp4.png,0,2,non-reversed,incorrect,0.989391420999867,0,valid_lose,74.50451269999985,7,,,,,,,,,,,,,,,,sub_181,2022-09-14_14h08.41.122,Reversal,2022.1.1,60.22692300058379,1,
14,exp1.png,exp2.png,,0,0,0,0,0,14,14,14,,,,,,,,,,,,,,,,,,,,,,,,,False,14,15,True,exp2.png,exp1.png,trial_right_image,-1,exp1.png,1,exp1.png,exp2.png,1,3,reversed,correct,0.7278189645550559,1,valid_win,80.88726479999968,8,,,,,,,,,,,,,,,,sub_181,2022-09-14_14h08.41.122,Reversal,2022.1.1,60.22692300058379,1,
15,exp3.png,exp4.png,,0,0,0,0,0,15,15,15,,,,,,,,,,,,,,,,,,,,,,,,,False,15,16,False,exp3.png,exp4.png,trial_right_image,-1,exp4.png,1,exp3.png,exp4.png,0,2,non-reversed,incorrect,0.7154591683909396,0,valid_lose,85.68584359999977,8,,,,,,,,,,,,,,,,sub_181,2022-09-14_14h08.41.122,Reversal,2022.1.1,60.22692300058379,1,
16,exp1.png,exp2.png,,0,0,0,0,0,16,16,16,,,,,,,,,,,,,,,,,,,,,,,,,False,16,17,False,exp1.png,exp2.png,trial_right_image,-1,exp2.png,1,exp1.png,exp2.png,0,4,reversed,incorrect,0.9077610454875947,0,valid_lose,89.88598489999958,8,,,,,,,,,,,,,,,,sub_181,2022-09-14_14h08.41.122,Reversal,2022.1.1,60.22692300058379,1,
17,exp3.png,exp4.png,,0,0,0,0,0,17,17,17,,,,,,,,,,,,,,,,,,,,,,,,,False,17,18,True,exp4.png,exp3.png,trial_left_image,1,exp4.png,1,exp3.png,exp4.png,0,2,non-reversed,incorrect,0.8378784412647778,0,valid_lose,96.95153849999997,8,,,,,,,,,,,,,,,,sub_181,2022-09-14_14h08.41.122,Reversal,2022.1.1,60.22692300058379,1,
18,exp1.png,exp2.png,,0,0,0,0,0,18,18,18,,,,,,,,,,,,,,,,,,,,,,,,,False,18,19,True,exp2.png,exp1.png,trial_right_image,-1,exp1.png,1,exp1.png,exp2.png,1,3,reversed,correct,0.14053380192434162,0,invalid_lose,102.1674039999998,8,,,,,,,,,,,,,,,,sub_181,2022-09-14_14h08.41.122,Reversal,2022.1.1,60.22692300058379,1,
19,exp3.png,exp4.png,,0,0,0,0,0,19,19,19,,,,,,,,,,,,,,,,,,,,,,,,,False,19,20,False,exp3.png,exp4.png,trial_right_image,-1,exp4.png,1,exp3.png,exp4.png,0,2,non-reversed,incorrect,0.3776722648128268,0,valid_lose,106.66672789999984,8,,,,,,,,,,,,,,,,sub_181,2022-09-14_14h08.41.122,Reversal,2022.1.1,60.22692300058379,1,
20,exp1.png,exp2.png,,0,0,0,0,0,20,20,20,,,,,,,,,,,,,,,,,,,,,,,,,True,,,,,,,,,,,,,,,,,,,,,,,,,,,,,,,,,,,,sub_181,2022-09-14_14h08.41.122,Reversal,2022.1.1,60.22692300058379,1,
,,,exp1.png,0,0,0,0,,,,,0,0,0,0,0,0,0,0,,,,,,,,,,,,,,,,,,,,,,,,,,,,,,,,,,,,,,98.0,98.0,8.436843500000123,"[(98.0, 8.436843500000123)]",261.0180387999999,None,,,,,,,,,,sub_181,2022-09-14_14h08.41.122,Reversal,2022.1.1,60.22692300058379,1,
,,,exp2.png,0,0,0,0,,,,,0,0,0,0,0,1,1,1,,,,,,,,,,,,,,,,,,,,,,,,,,,,,,,,,,,,,,,50.0,None,[],271.4310486999998,None,,,,,,,,,,sub_181,2022-09-14_14h08.41.122,Reversal,2022.1.1,60.22692300058379,1,
,,,exp3.png,0,0,0,0,,,,,0,0,0,0,0,2,2,2,,,,,,,,,,,,,,,,,,,,,,,,,,,,,,,,,,,,,,,50.0,None,[],276.9960621,None,,,,,,,,,,sub_181,2022-09-14_14h08.41.122,Reversal,2022.1.1,60.22692300058379,1,
,,,exp4.png,0,0,0,0,,,,,0,0,0,0,0,3,3,3,,,,,,,,,,,,,,,,,,,,,,,,,,,,,,,,,,,,,,,50.0,None,[],279.89416329999995,None,,,,,,,,,,sub_181,2022-09-14_14h08.41.122,Reversal,2022.1.1,60.22692300058379,1,
0,exp1.png,exp2.png,,1,0,1,0,0,0,0,0,,,,,,,,,,,,,,,,,,,,,,,,,False,20,21,False,exp1.png,exp2.png,trial_right_image,-1,exp2.png,1,exp1.png,exp2.png,0,4,reversed,incorrect,0.324700141946205,0,valid_lose,132.61304189999964,8,,,,,,,,,,,,,,,,sub_181,2022-09-14_14h08.41.122,Reversal,2022.1.1,60.22692300058379,1,
1,exp3.png,exp4.png,,1,0,1,0,0,1,1,1,,,,,,,,,,,,,,,,,,,,,,,,,False,21,22,True,exp4.png,exp3.png,trial_left_image,1,exp4.png,1,exp3.png,exp4.png,0,2,non-reversed,incorrect,0.3339042155238944,0,valid_lose,136.99649569999974,8,,,,,,,,,,,,,,,,sub_181,2022-09-14_14h08.41.122,Reversal,2022.1.1,60.22692300058379,1,
2,exp1.png,exp2.png,,1,0,1,0,0,2,2,2,,,,,,,,,,,,,,,,,,,,,,,,,False,22,23,True,exp2.png,exp1.png,trial_right_image,-1,exp1.png,1,exp1.png,exp2.png,1,3,reversed,correct,0.044714835256492114,0,invalid_lose,141.09515249999959,8,,,,,,,,,,,,,,,,sub_181,2022-09-14_14h08.41.122,Reversal,2022.1.1,60.22692300058379,1,
3,exp3.png,exp4.png,,1,0,1,0,0,3,3,3,,,,,,,,,,,,,,,,,,,,,,,,,False,23,24,True,exp4.png,exp3.png,trial_right_image,-1,exp3.png,1,exp3.png,exp4.png,1,1,non-reversed,correct,0.48984227781089573,1,valid_win,145.22844559999976,9,,,,,,,,,,,,,,,,sub_181,2022-09-14_14h08.41.122,Reversal,2022.1.1,60.22692300058379,1,
4,exp1.png,exp2.png,,1,0,1,0,0,4,4,4,,,,,,,,,,,,,,,,,,,,,,,,,False,24,25,True,exp2.png,exp1.png,trial_right_image,-1,exp1.png,1,exp1.png,exp2.png,1,3,reversed,correct,0.14339924207618515,0,invalid_lose,149.4780198999997,9,,,,,,,,,,,,,,,,sub_181,2022-09-14_14h08.41.122,Reversal,2022.1.1,60.22692300058379,1,
5,exp3.png,exp4.png,,1,0,1,0,0,5,5,5,,,,,,,,,,,,,,,,,,,,,,,,,False,25,26,False,exp3.png,exp4.png,trial_right_image,-1,exp4.png,1,exp3.png,exp4.png,0,2,non-reversed,incorrect,0.6507975920226744,0,valid_lose,153.72769849999986,9,,,,,,,,,,,,,,,,sub_181,2022-09-14_14h08.41.122,Reversal,2022.1.1,60.22692300058379,1,
6,exp1.png,exp2.png,,1,0,1,0,0,6,6,6,,,,,,,,,,,,,,,,,,,,,,,,,False,26,27,True,exp2.png,exp1.png,trial_right_image,-1,exp1.png,1,exp1.png,exp2.png,1,3,reversed,correct,0.11067296741786148,0,invalid_lose,158.09340759999986,9,,,,,,,,,,,,,,,,sub_181,2022-09-14_14h08.41.122,Reversal,2022.1.1,60.22692300058379,1,
7,exp3.png,exp4.png,,1,0,1,0,0,7,7,7,,,,,,,,,,,,,,,,,,,,,,,,,False,27,28,True,exp4.png,exp3.png,trial_left_image,1,exp4.png,1,exp3.png,exp4.png,0,2,non-reversed,incorrect,0.23663923237357998,1,invalid_win,162.44290809999984,10,,,,,,,,,,,,,,,,sub_181,2022-09-14_14h08.41.122,Reversal,2022.1.1,60.22692300058379,1,
8,exp1.png,exp2.png,,1,0,1,0,0,8,8,8,,,,,,,,,,,,,,,,,,,,,,,,,False,28,29,True,exp2.png,exp1.png,trial_left_image,1,exp2.png,1,exp1.png,exp2.png,0,4,reversed,incorrect,0.8356700994496187,0,valid_lose,167.19208049999997,10,,,,,,,,,,,,,,,,sub_181,2022-09-14_14h08.41.122,Reversal,2022.1.1,60.22692300058379,1,
9,exp3.png,exp4.png,,1,0,1,0,0,9,9,9,,,,,,,,,,,,,,,,,,,,,,,,,False,29,30,True,exp4.png,exp3.png,trial_right_image,-1,exp3.png,1,exp3.png,exp4.png,1,1,non-reversed,correct,0.3183920482779369,1,valid_win,171.45809869999994,11,,,,,,,,,,,,,,,,sub_181,2022-09-14_14h08.41.122,Reversal,2022.1.1,60.22692300058379,1,
10,exp1.png,exp2.png,,1,0,1,0,0,10,10,10,,,,,,,,,,,,,,,,,,,,,,,,,False,30,31,False,exp1.png,exp2.png,trial_left_image,1,exp1.png,1,exp1.png,exp2.png,1,3,reversed,correct,0.7917966974199842,1,valid_win,175.8578835999997,12,,,,,,,,,,,,,,,,sub_181,2022-09-14_14h08.41.122,Reversal,2022.1.1,60.22692300058379,1,
11,exp3.png,exp4.png,,1,0,1,0,0,11,11,11,,,,,,,,,,,,,,,,,,,,,,,,,False,31,32,False,exp3.png,exp4.png,trial_right_image,-1,exp4.png,1,exp3.png,exp4.png,0,2,non-reversed,incorrect,0.06758779774271417,1,invalid_win,180.30674999999974,13,,,,,,,,,,,,,,,,sub_181,2022-09-14_14h08.41.122,Reversal,2022.1.1,60.22692300058379,1,
12,exp1.png,exp2.png,,1,0,1,0,0,12,12,12,,,,,,,,,,,,,,,,,,,,,,,,,False,32,33,False,exp1.png,exp2.png,trial_left_image,1,exp1.png,1,exp1.png,exp2.png,1,3,reversed,correct,0.42121403146113157,1,valid_win,184.7572095999999,14,,,,,,,,,,,,,,,,sub_181,2022-09-14_14h08.41.122,Reversal,2022.1.1,60.22692300058379,1,
13,exp3.png,exp4.png,,1,0,1,0,0,13,13,13,,,,,,,,,,,,,,,,,,,,,,,,,False,33,34,False,exp3.png,exp4.png,trial_right_image,-1,exp4.png,1,exp3.png,exp4.png,0,2,non-reversed,incorrect,0.4399486752747106,0,valid_lose,189.28928009999981,14,,,,,,,,,,,,,,,,sub_181,2022-09-14_14h08.41.122,Reversal,2022.1.1,60.22692300058379,1,
14,exp1.png,exp2.png,,1,0,1,0,0,14,14,14,,,,,,,,,,,,,,,,,,,,,,,,,False,34,35,False,exp1.png,exp2.png,trial_left_image,1,exp1.png,1,exp1.png,exp2.png,1,3,reversed,correct,0.4825915412712829,1,valid_win,193.77209289999973,15,,,,,,,,,,,,,,,,sub_181,2022-09-14_14h08.41.122,Reversal,2022.1.1,60.22692300058379,1,
15,exp3.png,exp4.png,,1,0,1,0,0,15,15,15,,,,,,,,,,,,,,,,,,,,,,,,,False,35,36,False,exp3.png,exp4.png,trial_right_image,-1,exp4.png,1,exp3.png,exp4.png,0,2,non-reversed,incorrect,0.29399648905844744,0,valid_lose,198.0377384999997,15,,,,,,,,,,,,,,,,sub_181,2022-09-14_14h08.41.122,Reversal,2022.1.1,60.22692300058379,1,
16,exp1.png,exp2.png,,1,0,1,0,0,16,16,16,,,,,,,,,,,,,,,,,,,,,,,,,False,36,37,False,exp1.png,exp2.png,trial_left_image,1,exp1.png,1,exp1.png,exp2.png,1,3,reversed,correct,0.1471071820361043,0,invalid_lose,202.38857609999968,15,,,,,,,,,,,,,,,,sub_181,2022-09-14_14h08.41.122,Reversal,2022.1.1,60.22692300058379,1,
17,exp3.png,exp4.png,,1,0,1,0,0,17,17,17,,,,,,,,,,,,,,,,,,,,,,,,,False,37,38,True,exp4.png,exp3.png,trial_right_image,-1,exp3.png,1,exp3.png,exp4.png,1,1,non-reversed,correct,0.6580034983465408,1,valid_win,206.55426539999962,16,,,,,,,,,,,,,,,,sub_181,2022-09-14_14h08.41.122,Reversal,2022.1.1,60.22692300058379,1,
18,exp1.png,exp2.png,,1,0,1,0,0,18,18,18,,,,,,,,,,,,,,,,,,,,,,,,,False,38,39,True,exp2.png,exp1.png,trial_left_image,1,exp2.png,1,exp1.png,exp2.png,0,4,reversed,incorrect,0.08332370186495264,1,invalid_win,210.61972509999987,17,,,,,,,,,,,,,,,,sub_181,2022-09-14_14h08.41.122,Reversal,2022.1.1,60.22692300058379,1,
19,exp3.png,exp4.png,,1,0,1,0,0,19,19,19,,,,,,,,,,,,,,,,,,,,,,,,,False,39,40,False,exp3.png,exp4.png,trial_left_image,1,exp3.png,1,exp3.png,exp4.png,1,1,non-reversed,correct,0.6205397430544549,1,valid_win,215.0864657999996,18,,,,,,,,,,,,,,,,sub_181,2022-09-14_14h08.41.122,Reversal,2022.1.1,60.22692300058379,1,
20,exp1.png,exp2.png,,1,0,1,0,0,20,20,20,,,,,,,,,,,,,,,,,,,,,,,,,True,,,,,,,,,,,,,,,,,,,,,,,,,,,,,,,,,,,,sub_181,2022-09-14_14h08.41.122,Reversal,2022.1.1,60.22692300058379,1,
,,,exp1.png,1,0,1,0,,,,,0,0,0,0,0,0,0,0,,,,,,,,,,,,,,,,,,,,,,,,,,,,,,,,,,,,,,,50.0,None,[],369.4418475999996,None,,,,,,,,,,sub_181,2022-09-14_14h08.41.122,Reversal,2022.1.1,60.22692300058379,1,
,,,exp2.png,1,0,1,0,,,,,0,0,0,0,0,1,1,1,,,,,,,,,,,,,,,,,,,,,,,,,,,,,,,,,,,,,,,50.0,None,[],376.4659455999995,None,,,,,,,,,,sub_181,2022-09-14_14h08.41.122,Reversal,2022.1.1,60.22692300058379,1,
,,,exp3.png,1,0,1,0,,,,,0,0,0,0,0,2,2,2,,,,,,,,,,,,,,,,,,,,,,,,,,,,,,,,,,,,,,,56.0,1.5575978000006216,"[(56.0, 1.5575978000006216)]",379.1509694000001,None,56.0,,,,,,,,,sub_181,2022-09-14_14h08.41.122,Reversal,2022.1.1,60.22692300058379,1,
,,,exp4.png,1,0,1,0,,,,,0,0,0,0,0,3,3,3,,,,,,,,,,,,,,,,,,,,,,,,,,,,,,,,,,,,,,,50.0,None,[],381.6553257999999,None,,,,,,,,,,sub_181,2022-09-14_14h08.41.122,Reversal,2022.1.1,60.22692300058379,1,
0,exp1.png,exp2.png,,2,0,2,0,0,0,0,0,,,,,,,,,,,,,,,,,,,,,,,,,False,40,41,False,exp1.png,exp2.png,trial_right_image,-1,exp2.png,1,exp1.png,exp2.png,0,4,reversed,incorrect,0.23546472206948732,1,invalid_win,236.4835905999994,19,,,,,,,,,,,,,,,,sub_181,2022-09-14_14h08.41.122,Reversal,2022.1.1,60.22692300058379,1,
1,exp3.png,exp4.png,,2,0,2,0,0,1,1,1,,,,,,,,,,,,,,,,,,,,,,,,,False,41,42,True,exp4.png,exp3.png,trial_left_image,1,exp4.png,1,exp3.png,exp4.png,0,2,non-reversed,incorrect,0.6057517347601785,0,valid_lose,240.88297779999948,19,,,,,,,,,,,,,,,,sub_181,2022-09-14_14h08.41.122,Reversal,2022.1.1,60.22692300058379,1,
2,exp1.png,exp2.png,,2,0,2,0,0,2,2,2,,,,,,,,,,,,,,,,,,,,,,,,,False,42,43,True,exp2.png,exp1.png,trial_right_image,-1,exp1.png,1,exp1.png,exp2.png,1,3,reversed,correct,0.8789513946540183,1,valid_win,245.18169540000008,20,,,,,,,,,,,,,,,,sub_181,2022-09-14_14h08.41.122,Reversal,2022.1.1,60.22692300058379,1,
3,exp3.png,exp4.png,,2,0,2,0,0,3,3,3,,,,,,,,,,,,,,,,,,,,,,,,,False,43,44,False,exp3.png,exp4.png,trial_right_image,-1,exp4.png,1,exp3.png,exp4.png,0,2,non-reversed,incorrect,0.18865752430736393,1,invalid_win,249.3146941,21,,,,,,,,,,,,,,,,sub_181,2022-09-14_14h08.41.122,Reversal,2022.1.1,60.22692300058379,1,
4,exp1.png,exp2.png,,2,0,2,0,0,4,4,4,,,,,,,,,,,,,,,,,,,,,,,,,False,44,45,True,exp2.png,exp1.png,trial_left_image,1,exp2.png,1,exp1.png,exp2.png,0,4,reversed,incorrect,0.4027955856136388,0,valid_lose,254.01619829999936,21,,,,,,,,,,,,,,,,sub_181,2022-09-14_14h08.41.122,Reversal,2022.1.1,60.22692300058379,1,
5,exp3.png,exp4.png,,2,0,2,0,0,5,5,5,,,,,,,,,,,,,,,,,,,,,,,,,False,45,46,False,exp3.png,exp4.png,trial_right_image,-1,exp4.png,1,exp3.png,exp4.png,0,2,non-reversed,incorrect,0.5871722961195013,0,valid_lose,258.2986509999996,21,,,,,,,,,,,,,,,,sub_181,2022-09-14_14h08.41.122,Reversal,2022.1.1,60.22692300058379,1,
6,exp1.png,exp2.png,,2,0,2,0,0,6,6,6,,,,,,,,,,,,,,,,,,,,,,,,,False,46,47,False,exp1.png,exp2.png,trial_left_image,1,exp1.png,1,exp1.png,exp2.png,1,3,reversed,correct,0.9872649318865903,1,valid_win,263.2470899999994,22,,,,,,,,,,,,,,,,sub_181,2022-09-14_14h08.41.122,Reversal,2022.1.1,60.22692300058379,1,
7,exp3.png,exp4.png,,2,0,2,0,0,7,7,7,,,,,,,,,,,,,,,,,,,,,,,,,False,47,48,True,exp4.png,exp3.png,trial_left_image,1,exp4.png,1,exp3.png,exp4.png,0,2,non-reversed,incorrect,0.8868169342265526,0,valid_lose,267.7465456999994,22,,,,,,,,,,,,,,,,sub_181,2022-09-14_14h08.41.122,Reversal,2022.1.1,60.22692300058379,1,
8,exp1.png,exp2.png,,2,0,2,0,0,8,8,8,,,,,,,,,,,,,,,,,,,,,,,,,False,48,49,False,exp1.png,exp2.png,trial_right_image,-1,exp2.png,1,exp1.png,exp2.png,0,4,reversed,incorrect,0.9102596724011507,0,valid_lose,271.8958953999995,22,,,,,,,,,,,,,,,,sub_181,2022-09-14_14h08.41.122,Reversal,2022.1.1,60.22692300058379,1,
9,exp3.png,exp4.png,,2,0,2,0,0,9,9,9,,,,,,,,,,,,,,,,,,,,,,,,,False,49,50,True,exp4.png,exp3.png,trial_right_image,-1,exp3.png,1,exp3.png,exp4.png,1,1,non-reversed,correct,0.23242313438481865,0,invalid_lose,276.41108479999957,22,,,,,,,,,,,,,,,,sub_181,2022-09-14_14h08.41.122,Reversal,2022.1.1,60.22692300058379,1,
10,exp1.png,exp2.png,,2,0,2,0,0,10,10,10,,,,,,,,,,,,,,,,,,,,,,,,,False,50,51,False,exp1.png,exp2.png,trial_left_image,1,exp1.png,1,exp1.png,exp2.png,1,3,reversed,correct,0.6691408382366563,1,valid_win,280.59499730000016,23,,,,,,,,,,,,,,,,sub_181,2022-09-14_14h08.41.122,Reversal,2022.1.1,60.22692300058379,1,
11,exp3.png,exp4.png,,2,0,2,0,0,11,11,11,,,,,,,,,,,,,,,,,,,,,,,,,False,51,52,False,exp3.png,exp4.png,trial_left_image,1,exp3.png,1,exp3.png,exp4.png,1,1,non-reversed,correct,0.7806042179700848,1,valid_win,285.5772975999994,24,,,,,,,,,,,,,,,,sub_181,2022-09-14_14h08.41.122,Reversal,2022.1.1,60.22692300058379,1,
12,exp1.png,exp2.png,,2,0,2,0,0,12,12,12,,,,,,,,,,,,,,,,,,,,,,,,,False,52,53,False,exp1.png,exp2.png,trial_left_image,1,exp1.png,1,exp1.png,exp2.png,1,3,reversed,correct,0.1900209542709287,0,invalid_lose,291.35996659999955,24,,,,,,,,,,,,,,,,sub_181,2022-09-14_14h08.41.122,Reversal,2022.1.1,60.22692300058379,1,
13,exp3.png,exp4.png,,2,0,2,0,0,13,13,13,,,,,,,,,,,,,,,,,,,,,,,,,False,53,54,False,exp3.png,exp4.png,trial_right_image,-1,exp4.png,1,exp3.png,exp4.png,0,2,non-reversed,incorrect,0.33498860960902155,0,valid_lose,295.2939523,24,,,,,,,,,,,,,,,,sub_181,2022-09-14_14h08.41.122,Reversal,2022.1.1,60.22692300058379,1,
14,exp1.png,exp2.png,,2,0,2,0,0,14,14,14,,,,,,,,,,,,,,,,,,,,,,,,,False,54,55,False,exp1.png,exp2.png,trial_right_image,-1,exp2.png,1,exp1.png,exp2.png,0,4,reversed,incorrect,0.07400541716083975,1,invalid_win,299.42509819999987,25,,,,,,,,,,,,,,,,sub_181,2022-09-14_14h08.41.122,Reversal,2022.1.1,60.22692300058379,1,
15,exp3.png,exp4.png,,2,0,2,0,0,15,15,15,,,,,,,,,,,,,,,,,,,,,,,,,False,55,56,True,exp4.png,exp3.png,trial_right_image,-1,exp3.png,1,exp3.png,exp4.png,1,1,non-reversed,correct,0.26697761875692805,1,valid_win,304.2748680999998,26,,,,,,,,,,,,,,,,sub_181,2022-09-14_14h08.41.122,Reversal,2022.1.1,60.22692300058379,1,
16,exp1.png,exp2.png,,2,0,2,0,0,16,16,16,,,,,,,,,,,,,,,,,,,,,,,,,False,56,57,True,exp2.png,exp1.png,trial_right_image,-1,exp1.png,1,exp1.png,exp2.png,1,3,reversed,correct,0.7914217298495214,1,valid_win,309.0069732999996,27,,,,,,,,,,,,,,,,sub_181,2022-09-14_14h08.41.122,Reversal,2022.1.1,60.22692300058379,1,
17,exp3.png,exp4.png,,2,0,2,0,0,17,17,17,,,,,,,,,,,,,,,,,,,,,,,,,False,57,58,True,exp4.png,exp3.png,trial_right_image,-1,exp3.png,1,exp3.png,exp4.png,1,1,non-reversed,correct,0.3693214267070978,1,valid_win,313.6575974000002,28,,,,,,,,,,,,,,,,sub_181,2022-09-14_14h08.41.122,Reversal,2022.1.1,60.22692300058379,1,
18,exp1.png,exp2.png,,2,0,2,0,0,18,18,18,,,,,,,,,,,,,,,,,,,,,,,,,False,58,59,True,exp2.png,exp1.png,trial_right_image,-1,exp1.png,1,exp1.png,exp2.png,1,3,reversed,correct,0.450131515155369,1,valid_win,318.4066974000002,29,,,,,,,,,,,,,,,,sub_181,2022-09-14_14h08.41.122,Reversal,2022.1.1,60.22692300058379,1,
19,exp3.png,exp4.png,,2,0,2,0,0,19,19,19,,,,,,,,,,,,,,,,,,,,,,,,,False,59,60,True,exp4.png,exp3.png,trial_right_image,-1,exp3.png,1,exp3.png,exp4.png,1,1,non-reversed,correct,0.13545429970823253,0,invalid_lose,323.12213609999935,29,,,,,,,,,,,,,,,,sub_181,2022-09-14_14h08.41.122,Reversal,2022.1.1,60.22692300058379,1,
20,exp1.png,exp2.png,,2,0,2,0,0,20,20,20,,,,,,,,,,,,,,,,,,,,,,,,,True,,,,,,,,,,,,,,,,,,,,,,,,,,,,,,,,,,,,sub_181,2022-09-14_14h08.41.122,Reversal,2022.1.1,60.22692300058379,1,
,,,exp1.png,2,0,2,0,,,,,0,0,0,0,0,0,0,0,,,,,,,,,,,,,,,,,,,,,,,,,,,,,,,,,,,,,,,50.0,None,[],477.48926879999954,None,,,,,,,,,,sub_181,2022-09-14_14h08.41.122,Reversal,2022.1.1,60.22692300058379,1,
,,,exp2.png,2,0,2,0,,,,,0,0,0,0,0,1,1,1,,,,,,,,,,,,,,,,,,,,,,,,,,,,,,,,,,,,,,,54.0,1.8321304999999484,"[(54.0, 1.8321304999999484)]",479.85518679999996,None,,54.0,,,,,,,,sub_181,2022-09-14_14h08.41.122,Reversal,2022.1.1,60.22692300058379,1,
,,,exp3.png,2,0,2,0,,,,,0,0,0,0,0,2,2,2,,,,,,,,,,,,,,,,,,,,,,,,,,,,,,,,,,,,,,,50.0,None,[],482.6580829999998,None,,,,,,,,,,sub_181,2022-09-14_14h08.41.122,Reversal,2022.1.1,60.22692300058379,1,
,,,exp4.png,2,0,2,0,,,,,0,0,0,0,0,3,3,3,,,,,,,,,,,,,,,,,,,,,,,,,,,,,,,,,,,,,,,47.0,3.5379463999997824,"[(47.0, 3.5379463999997824)]",485.24043719999963,None,,,47.0,,,,,,,sub_181,2022-09-14_14h08.41.122,Reversal,2022.1.1,60.22692300058379,1,
0,exp1.png,exp2.png,,3,0,3,0,0,0,0,0,,,,,,,,,,,,,,,,,,,,,,,,,False,60,61,True,exp2.png,exp1.png,trial_right_image,-1,exp1.png,1,exp1.png,exp2.png,1,3,reversed,correct,0.700935673879182,1,valid_win,340.3863279000002,30,,,,,,,,,,,,,,,,sub_181,2022-09-14_14h08.41.122,Reversal,2022.1.1,60.22692300058379,1,
1,exp3.png,exp4.png,,3,0,3,0,0,1,1,1,,,,,,,,,,,,,,,,,,,,,,,,,False,61,62,False,exp3.png,exp4.png,trial_right_image,-1,exp4.png,1,exp3.png,exp4.png,0,2,non-reversed,incorrect,0.5582044704350819,0,valid_lose,344.6029358999999,30,,,,,,,,,,,,,,,,sub_181,2022-09-14_14h08.41.122,Reversal,2022.1.1,60.22692300058379,1,
2,exp1.png,exp2.png,,3,0,3,0,0,2,2,2,,,,,,,,,,,,,,,,,,,,,,,,,False,62,63,True,exp2.png,exp1.png,trial_right_image,-1,exp1.png,1,exp1.png,exp2.png,1,3,reversed,correct,0.45932354450358737,1,valid_win,349.4687520000002,31,,,,,,,,,,,,,,,,sub_181,2022-09-14_14h08.41.122,Reversal,2022.1.1,60.22692300058379,1,
3,exp3.png,exp4.png,,3,0,3,0,0,3,3,3,,,,,,,,,,,,,,,,,,,,,,,,,False,63,64,True,exp4.png,exp3.png,trial_right_image,-1,exp3.png,1,exp3.png,exp4.png,1,1,non-reversed,correct,0.877300302441296,1,valid_win,354.1018672999994,32,,,,,,,,,,,,,,,,sub_181,2022-09-14_14h08.41.122,Reversal,2022.1.1,60.22692300058379,1,
4,exp1.png,exp2.png,,3,0,3,0,0,4,4,4,,,,,,,,,,,,,,,,,,,,,,,,,False,64,65,True,exp2.png,exp1.png,trial_right_image,-1,exp1.png,1,exp1.png,exp2.png,1,3,reversed,correct,0.9127751048387117,1,valid_win,359.13492199999973,33,,,,,,,,,,,,,,,,sub_181,2022-09-14_14h08.41.122,Reversal,2022.1.1,60.22692300058379,1,
5,exp3.png,exp4.png,,3,0,3,0,0,5,5,5,,,,,,,,,,,,,,,,,,,,,,,,,False,65,66,True,exp4.png,exp3.png,trial_left_image,1,exp4.png,1,exp3.png,exp4.png,0,2,non-reversed,incorrect,0.986916887502519,0,valid_lose,364.08391619999975,33,,,,,,,,,,,,,,,,sub_181,2022-09-14_14h08.41.122,Reversal,2022.1.1,60.22692300058379,1,
6,exp1.png,exp2.png,,3,0,3,0,0,6,6,6,,,,,,,,,,,,,,,,,,,,,,,,,False,66,67,False,exp1.png,exp2.png,trial_right_image,-1,exp2.png,1,exp1.png,exp2.png,0,4,reversed,incorrect,0.28942790405802665,0,valid_lose,368.2164029999999,33,,,,,,,,,,,,,,,,sub_181,2022-09-14_14h08.41.122,Reversal,2022.1.1,60.22692300058379,1,
7,exp3.png,exp4.png,,3,0,3,0,0,7,7,7,,,,,,,,,,,,,,,,,,,,,,,,,False,67,68,False,exp3.png,exp4.png,trial_right_image,-1,exp4.png,1,exp3.png,exp4.png,0,2,non-reversed,incorrect,0.7077464137040229,0,valid_lose,372.26577979999956,33,,,,,,,,,,,,,,,,sub_181,2022-09-14_14h08.41.122,Reversal,2022.1.1,60.22692300058379,1,
8,exp1.png,exp2.png,,3,0,3,0,0,8,8,8,,,,,,,,,,,,,,,,,,,,,,,,,False,68,69,True,exp2.png,exp1.png,trial_left_image,1,exp2.png,1,exp1.png,exp2.png,0,4,reversed,incorrect,0.7098600479192293,0,valid_lose,376.58172590000004,33,,,,,,,,,,,,,,,,sub_181,2022-09-14_14h08.41.122,Reversal,2022.1.1,60.22692300058379,1,
9,exp3.png,exp4.png,,3,0,3,0,0,9,9,9,,,,,,,,,,,,,,,,,,,,,,,,,False,69,70,True,exp4.png,exp3.png,trial_right_image,-1,exp3.png,1,exp3.png,exp4.png,1,1,non-reversed,correct,0.608150892615815,1,valid_win,380.6150295000002,34,,,,,,,,,,,,,,,,sub_181,2022-09-14_14h08.41.122,Reversal,2022.1.1,60.22692300058379,1,
10,exp1.png,exp2.png,,3,0,3,0,0,10,10,10,,,,,,,,,,,,,,,,,,,,,,,,,False,70,71,True,exp2.png,exp1.png,trial_right_image,-1,exp1.png,1,exp1.png,exp2.png,1,3,reversed,correct,0.8404837860006665,1,valid_win,384.6162410000002,35,,,,,,,,,,,,,,,,sub_181,2022-09-14_14h08.41.122,Reversal,2022.1.1,60.22692300058379,1,
11,exp3.png,exp4.png,,3,0,3,0,0,11,11,11,,,,,,,,,,,,,,,,,,,,,,,,,False,71,72,False,exp3.png,exp4.png,trial_right_image,-1,exp4.png,1,exp3.png,exp4.png,0,2,non-reversed,incorrect,0.7232531521329859,0,valid_lose,388.88089029999946,35,,,,,,,,,,,,,,,,sub_181,2022-09-14_14h08.41.122,Reversal,2022.1.1,60.22692300058379,1,
12,exp1.png,exp2.png,,3,0,3,0,0,12,12,12,,,,,,,,,,,,,,,,,,,,,,,,,False,72,73,False,exp1.png,exp2.png,trial_left_image,1,exp1.png,1,exp1.png,exp2.png,1,3,reversed,correct,0.740535615965371,1,valid_win,394.0303877000001,36,,,,,,,,,,,,,,,,sub_181,2022-09-14_14h08.41.122,Reversal,2022.1.1,60.22692300058379,1,
13,exp3.png,exp4.png,,3,0,3,0,0,13,13,13,,,,,,,,,,,,,,,,,,,,,,,,,False,73,74,False,exp3.png,exp4.png,trial_left_image,1,exp3.png,1,exp3.png,exp4.png,1,1,non-reversed,correct,0.6924460521859974,1,valid_win,398.6456229999999,37,,,,,,,,,,,,,,,,sub_181,2022-09-14_14h08.41.122,Reversal,2022.1.1,60.22692300058379,1,
14,exp1.png,exp2.png,,3,0,3,0,0,14,14,14,,,,,,,,,,,,,,,,,,,,,,,,,False,74,75,False,exp1.png,exp2.png,trial_right_image,-1,exp2.png,1,exp1.png,exp2.png,0,4,reversed,incorrect,0.7196194886920946,0,valid_lose,403.8292295999995,37,,,,,,,,,,,,,,,,sub_181,2022-09-14_14h08.41.122,Reversal,2022.1.1,60.22692300058379,1,
15,exp3.png,exp4.png,,3,0,3,0,0,15,15,15,,,,,,,,,,,,,,,,,,,,,,,,,False,75,76,False,exp3.png,exp4.png,trial_right_image,-1,exp4.png,1,exp3.png,exp4.png,0,2,non-reversed,incorrect,0.5497490737439069,0,valid_lose,408.0449483999996,37,,,,,,,,,,,,,,,,sub_181,2022-09-14_14h08.41.122,Reversal,2022.1.1,60.22692300058379,1,
16,exp1.png,exp2.png,,3,0,3,0,0,16,16,16,,,,,,,,,,,,,,,,,,,,,,,,,False,76,77,True,exp2.png,exp1.png,trial_right_image,-1,exp1.png,1,exp1.png,exp2.png,1,3,reversed,correct,0.015947374208802767,0,invalid_lose,412.1781251999996,37,,,,,,,,,,,,,,,,sub_181,2022-09-14_14h08.41.122,Reversal,2022.1.1,60.22692300058379,1,
17,exp3.png,exp4.png,,3,0,3,0,0,17,17,17,,,,,,,,,,,,,,,,,,,,,,,,,False,77,78,False,exp3.png,exp4.png,trial_right_image,-1,exp4.png,1,exp3.png,exp4.png,0,2,non-reversed,incorrect,0.10996411936287098,1,invalid_win,416.47685150000007,38,,,,,,,,,,,,,,,,sub_181,2022-09-14_14h08.41.122,Reversal,2022.1.1,60.22692300058379,1,
18,exp1.png,exp2.png,,3,0,3,0,0,18,18,18,,,,,,,,,,,,,,,,,,,,,,,,,False,78,79,True,exp2.png,exp1.png,trial_right_image,-1,exp1.png,1,exp1.png,exp2.png,1,3,reversed,correct,0.15020710320807806,0,invalid_lose,420.9268849999994,38,,,,,,,,,,,,,,,,sub_181,2022-09-14_14h08.41.122,Reversal,2022.1.1,60.22692300058379,1,
19,exp3.png,exp4.png,,3,0,3,0,0,19,19,19,,,,,,,,,,,,,,,,,,,,,,,,,False,79,80,False,exp3.png,exp4.png,trial_left_image,1,exp3.png,1,exp3.png,exp4.png,1,1,non-reversed,correct,0.40250209325862407,1,valid_win,425.57514069999934,39,,,,,,,,,,,,,,,,sub_181,2022-09-14_14h08.41.122,Reversal,2022.1.1,60.22692300058379,1,
20,exp1.png,exp2.png,,3,0,3,0,0,20,20,20,,,,,,,,,,,,,,,,,,,,,,,,,True,,,,,,,,,,,,,,,,,,,,,,,,,,,,,,,,,,,,sub_181,2022-09-14_14h08.41.122,Reversal,2022.1.1,60.22692300058379,1,
,,,exp1.png,3,0,3,0,,,,,0,0,0,0,0,0,0,0,,,,,,,,,,,,,,,,,,,,,,,,,,,,,,,,,,,,,,51.0,51.0,2.2737397000000783,"[(51.0, 2.2737397000000783)]",579.9337375999999,None,,,,,,,,,,sub_181,2022-09-14_14h08.41.122,Reversal,2022.1.1,60.22692300058379,1,
,,,exp2.png,3,0,3,0,,,,,0,0,0,0,0,1,1,1,,,,,,,,,,,,,,,,,,,,,,,,,,,,,,,,,,,,,,,54.0,1.6385534000000916,"[(54.0, 1.6385534000000916)]",583.3464521000001,None,,54.0,,,,,,,,sub_181,2022-09-14_14h08.41.122,Reversal,2022.1.1,60.22692300058379,1,
,,,exp3.png,3,0,3,0,,,,,0,0,0,0,0,2,2,2,,,,,,,,,,,,,,,,,,,,,,,,,,,,,,,,,,,,,,,54.0,1.715114500000709,"[(54.0, 1.715114500000709)]",585.8844735999996,None,54.0,,,,,,,,,sub_181,2022-09-14_14h08.41.122,Reversal,2022.1.1,60.22692300058379,1,
,,,exp4.png,3,0,3,0,,,,,0,0,0,0,0,3,3,3,,,,,,,,,,,,,,,,,,,,,,,,,,,,,,,,,,,,,,,54.0,1.2702069999995729,"[(54.0, 1.2702069999995729)]",588.5945340000003,None,,,54.0,,,,,,,sub_181,2022-09-14_14h08.41.122,Reversal,2022.1.1,60.22692300058379,1,
0,exp1.png,exp2.png,,,,,,,,,,,,,,,,,,0,0,0,0,0,0,0,0,,,,,,,,,False,0,81,False,exp1.png,exp2.png,trial_right_image,-1,exp2.png,1,exp2.png,exp1.png,0,4,reversed,correct,0.5700982905818069,1,valid_win,440.84157860000005,40,,,,,,,,,,439.03529389999994,,,,,,sub_181,2022-09-14_14h08.41.122,Reversal,2022.1.1,60.22692300058379,1,
1,exp3.png,exp4.png,,,,,,,,,,,,,,,,,,0,0,0,0,0,1,1,1,,,,,,,,,False,1,82,False,exp3.png,exp4.png,trial_right_image,-1,exp4.png,1,exp3.png,exp4.png,0,2,non-reversed,incorrect,0.21569569242755893,1,invalid_win,445.2420545,41,,,,,,,,,,,,,,,,sub_181,2022-09-14_14h08.41.122,Reversal,2022.1.1,60.22692300058379,1,
2,exp1.png,exp2.png,,,,,,,,,,,,,,,,,,0,0,0,0,0,2,2,2,,,,,,,,,False,2,83,False,exp1.png,exp2.png,trial_left_image,1,exp1.png,1,exp2.png,exp1.png,1,3,reversed,incorrect,0.8980573832994158,0,valid_lose,450.30728390000013,41,,,,,,,,,,,,,,,,sub_181,2022-09-14_14h08.41.122,Reversal,2022.1.1,60.22692300058379,1,
3,exp3.png,exp4.png,,,,,,,,,,,,,,,,,,0,0,0,0,0,3,3,3,,,,,,,,,False,3,84,True,exp4.png,exp3.png,trial_left_image,1,exp4.png,1,exp3.png,exp4.png,0,2,non-reversed,incorrect,0.35134463565754526,0,valid_lose,455.2221692999997,41,,,,,,,,,,,,,,,,sub_181,2022-09-14_14h08.41.122,Reversal,2022.1.1,60.22692300058379,1,
4,exp1.png,exp2.png,,,,,,,,,,,,,,,,,,0,0,0,0,0,4,4,4,,,,,,,,,False,4,85,True,exp2.png,exp1.png,trial_right_image,-1,exp1.png,1,exp2.png,exp1.png,1,3,reversed,incorrect,0.014159821850972754,1,invalid_win,459.32146239999975,42,,,,,,,,,,,,,,,,sub_181,2022-09-14_14h08.41.122,Reversal,2022.1.1,60.22692300058379,1,
5,exp3.png,exp4.png,,,,,,,,,,,,,,,,,,0,0,0,0,0,5,5,5,,,,,,,,,False,5,86,False,exp3.png,exp4.png,trial_right_image,-1,exp4.png,1,exp3.png,exp4.png,0,2,non-reversed,incorrect,0.8342924810664334,0,valid_lose,463.98846860000003,42,,,,,,,,,,,,,,,,sub_181,2022-09-14_14h08.41.122,Reversal,2022.1.1,60.22692300058379,1,
6,exp1.png,exp2.png,,,,,,,,,,,,,,,,,,0,0,0,0,0,6,6,6,,,,,,,,,False,6,87,True,exp2.png,exp1.png,trial_left_image,1,exp2.png,1,exp2.png,exp1.png,0,4,reversed,correct,0.33618648796093775,1,valid_win,468.5037017999998,43,,,,,,,,,,,,,,,,sub_181,2022-09-14_14h08.41.122,Reversal,2022.1.1,60.22692300058379,1,
7,exp3.png,exp4.png,,,,,,,,,,,,,,,,,,0,0,0,0,0,7,7,7,,,,,,,,,False,7,88,True,exp4.png,exp3.png,trial_left_image,1,exp4.png,1,exp3.png,exp4.png,0,2,non-reversed,incorrect,0.4450963741961439,0,valid_lose,473.18622839999944,43,,,,,,,,,,,,,,,,sub_181,2022-09-14_14h08.41.122,Reversal,2022.1.1,60.22692300058379,1,
8,exp1.png,exp2.png,,,,,,,,,,,,,,,,,,0,0,0,0,0,8,8,8,,,,,,,,,False,8,89,True,exp2.png,exp1.png,trial_right_image,-1,exp1.png,1,exp2.png,exp1.png,1,3,reversed,incorrect,0.15186882411349856,1,invalid_win,477.4701167999997,44,,,,,,,,,,,,,,,,sub_181,2022-09-14_14h08.41.122,Reversal,2022.1.1,60.22692300058379,1,
9,exp3.png,exp4.png,,,,,,,,,,,,,,,,,,0,0,0,0,0,9,9,9,,,,,,,,,False,9,90,False,exp3.png,exp4.png,trial_right_image,-1,exp4.png,1,exp3.png,exp4.png,0,2,non-reversed,incorrect,0.9797425138270602,0,valid_lose,481.96836119999944,44,,,,,,,,,,,,,,,,sub_181,2022-09-14_14h08.41.122,Reversal,2022.1.1,60.22692300058379,1,
10,exp1.png,exp2.png,,,,,,,,,,,,,,,,,,0,0,0,0,0,10,10,10,,,,,,,,,False,10,91,False,exp1.png,exp2.png,trial_right_image,-1,exp2.png,1,exp2.png,exp1.png,0,4,reversed,correct,0.010548987078168093,0,invalid_lose,486.0012486999999,44,,,,,,,,,,,,,,,,sub_181,2022-09-14_14h08.41.122,Reversal,2022.1.1,60.22692300058379,1,
11,exp3.png,exp4.png,,,,,,,,,,,,,,,,,,0,0,0,0,0,11,11,11,,,,,,,,,False,11,92,False,exp3.png,exp4.png,trial_left_image,1,exp3.png,1,exp3.png,exp4.png,1,1,non-reversed,correct,0.15517354751461443,0,invalid_lose,490.2529436,44,,,,,,,,,,,,,,,,sub_181,2022-09-14_14h08.41.122,Reversal,2022.1.1,60.22692300058379,1,
12,exp1.png,exp2.png,,,,,,,,,,,,,,,,,,0,0,0,0,0,12,12,12,,,,,,,,,False,12,93,False,exp1.png,exp2.png,trial_right_image,-1,exp2.png,1,exp2.png,exp1.png,0,4,reversed,correct,0.6314893383802938,1,valid_win,494.50046969999994,45,,,,,,,,,,,,,,,,sub_181,2022-09-14_14h08.41.122,Reversal,2022.1.1,60.22692300058379,1,
13,exp3.png,exp4.png,,,,,,,,,,,,,,,,,,0,0,0,0,0,13,13,13,,,,,,,,,False,13,94,True,exp4.png,exp3.png,trial_right_image,-1,exp3.png,1,exp3.png,exp4.png,1,1,non-reversed,correct,0.5682703037028977,1,valid_win,498.81707139999935,46,,,,,,,,,,,,,,,,sub_181,2022-09-14_14h08.41.122,Reversal,2022.1.1,60.22692300058379,1,
14,exp1.png,exp2.png,,,,,,,,,,,,,,,,,,0,0,0,0,0,14,14,14,,,,,,,,,False,14,95,False,exp1.png,exp2.png,trial_right_image,-1,exp2.png,1,exp2.png,exp1.png,0,4,reversed,correct,0.6304576338443966,1,valid_win,503.1500868999997,47,,,,,,,,,,,,,,,,sub_181,2022-09-14_14h08.41.122,Reversal,2022.1.1,60.22692300058379,1,
15,exp3.png,exp4.png,,,,,,,,,,,,,,,,,,0,0,0,0,0,15,15,15,,,,,,,,,False,15,96,False,exp3.png,exp4.png,trial_right_image,-1,exp4.png,1,exp3.png,exp4.png,0,2,non-reversed,incorrect,0.7090484907847723,0,valid_lose,507.4338630999996,47,,,,,,,,,,,,,,,,sub_181,2022-09-14_14h08.41.122,Reversal,2022.1.1,60.22692300058379,1,
16,exp1.png,exp2.png,,,,,,,,,,,,,,,,,,0,0,0,0,0,16,16,16,,,,,,,,,False,16,97,True,exp2.png,exp1.png,trial_left_image,1,exp2.png,1,exp2.png,exp1.png,0,4,reversed,correct,0.5304359421905536,1,valid_win,512.0484046999995,48,,,,,,,,,,,,,,,,sub_181,2022-09-14_14h08.41.122,Reversal,2022.1.1,60.22692300058379,1,
17,exp3.png,exp4.png,,,,,,,,,,,,,,,,,,0,0,0,0,0,17,17,17,,,,,,,,,False,17,98,True,exp4.png,exp3.png,trial_left_image,1,exp4.png,1,exp3.png,exp4.png,0,2,non-reversed,incorrect,0.4614518878599303,0,valid_lose,516.4642541999997,48,,,,,,,,,,,,,,,,sub_181,2022-09-14_14h08.41.122,Reversal,2022.1.1,60.22692300058379,1,
18,exp1.png,exp2.png,,,,,,,,,,,,,,,,,,0,0,0,0,0,18,18,18,,,,,,,,,False,18,99,True,exp2.png,exp1.png,trial_right_image,-1,exp1.png,1,exp2.png,exp1.png,1,3,reversed,incorrect,0.71993705478111,0,valid_lose,520.5633588999995,48,,,,,,,,,,,,,,,,sub_181,2022-09-14_14h08.41.122,Reversal,2022.1.1,60.22692300058379,1,
19,exp3.png,exp4.png,,,,,,,,,,,,,,,,,,0,0,0,0,0,19,19,19,,,,,,,,,False,19,100,True,exp4.png,exp3.png,trial_right_image,-1,exp3.png,1,exp3.png,exp4.png,1,1,non-reversed,correct,0.5835395247574136,1,valid_win,524.5637561999997,49,,,,,,,,,,,,,,,,sub_181,2022-09-14_14h08.41.122,Reversal,2022.1.1,60.22692300058379,1,
20,exp1.png,exp2.png,,,,,,,,,,,,,,,,,,0,0,0,0,0,20,20,20,,,,,,,,,True,,,,,,,,,,,,,,,,,,,,,,,,,,,,,,,,,,,,sub_181,2022-09-14_14h08.41.122,Reversal,2022.1.1,60.22692300058379,1,
,,,exp1.png,,,,,,,,,,,,,,,,,0,0,0,0,,,,,0,0,0,0,0,0,0,0,,,,,,,,,,,,,,,,,,,,,,54.0,54.0,2.050396399999954,"[(54.0, 2.050396399999954)]",678.9101061999995,None,,,,,,,,,,sub_181,2022-09-14_14h08.41.122,Reversal,2022.1.1,60.22692300058379,1,
,,,exp2.png,,,,,,,,,,,,,,,,,0,0,0,0,,,,,0,0,0,0,0,1,1,1,,,,,,,,,,,,,,,,,,,,,,,50.0,None,[],681.8156312999995,None,,,,,,,,,,sub_181,2022-09-14_14h08.41.122,Reversal,2022.1.1,60.22692300058379,1,
,,,exp3.png,,,,,,,,,,,,,,,,,0,0,0,0,,,,,0,0,0,0,0,2,2,2,,,,,,,,,,,,,,,,,,,,,,,50.0,None,[],684.714356,None,,,,,,,,,,sub_181,2022-09-14_14h08.41.122,Reversal,2022.1.1,60.22692300058379,1,
,,,exp4.png,,,,,,,,,,,,,,,,,0,0,0,0,,,,,0,0,0,0,0,3,3,3,,,,,,,,,,,,,,,,,,,,,,,50.0,None,[],685.9693299999994,None,,,,,,,,,,sub_181,2022-09-14_14h08.41.122,Reversal,2022.1.1,60.22692300058379,1,
0,exp1.png,exp2.png,,,,,,,,,,,,,,,,,,1,0,1,0,0,0,0,0,,,,,,,,,False,20,101,True,exp2.png,exp1.png,trial_right_image,-1,exp1.png,1,exp2.png,exp1.png,1,3,reversed,incorrect,0.4071424017977283,0,valid_lose,537.2289288999996,49,,,,,,,,,,,,,,,,sub_181,2022-09-14_14h08.41.122,Reversal,2022.1.1,60.22692300058379,1,
1,exp3.png,exp4.png,,,,,,,,,,,,,,,,,,1,0,1,0,0,1,1,1,,,,,,,,,False,21,102,True,exp4.png,exp3.png,trial_left_image,1,exp4.png,1,exp3.png,exp4.png,0,2,non-reversed,incorrect,0.8402351118204875,0,valid_lose,541.2948322999996,49,,,,,,,,,,,,,,,,sub_181,2022-09-14_14h08.41.122,Reversal,2022.1.1,60.22692300058379,1,
2,exp1.png,exp2.png,,,,,,,,,,,,,,,,,,1,0,1,0,0,2,2,2,,,,,,,,,False,22,103,False,exp1.png,exp2.png,trial_right_image,-1,exp2.png,1,exp2.png,exp1.png,0,4,reversed,correct,0.6295067855531573,1,valid_win,545.3271871000002,50,,,,,,,,,,,,,,,,sub_181,2022-09-14_14h08.41.122,Reversal,2022.1.1,60.22692300058379,1,
3,exp3.png,exp4.png,,,,,,,,,,,,,,,,,,1,0,1,0,0,3,3,3,,,,,,,,,False,23,104,True,exp4.png,exp3.png,trial_right_image,-1,exp3.png,1,exp3.png,exp4.png,1,1,non-reversed,correct,0.030046216744056387,0,invalid_lose,549.7116639000001,50,,,,,,,,,,,,,,,,sub_181,2022-09-14_14h08.41.122,Reversal,2022.1.1,60.22692300058379,1,
4,exp1.png,exp2.png,,,,,,,,,,,,,,,,,,1,0,1,0,0,4,4,4,,,,,,,,,False,24,105,False,exp1.png,exp2.png,trial_right_image,-1,exp2.png,1,exp2.png,exp1.png,0,4,reversed,correct,0.9983433851076846,1,valid_win,553.8264137000001,51,,,,,,,,,,,,,,,,sub_181,2022-09-14_14h08.41.122,Reversal,2022.1.1,60.22692300058379,1,
5,exp3.png,exp4.png,,,,,,,,,,,,,,,,,,1,0,1,0,0,5,5,5,,,,,,,,,False,25,106,True,exp4.png,exp3.png,trial_right_image,-1,exp3.png,1,exp3.png,exp4.png,1,1,non-reversed,correct,0.889712051382622,1,valid_win,558.5253508999999,52,,,,,,,,,,,,,,,,sub_181,2022-09-14_14h08.41.122,Reversal,2022.1.1,60.22692300058379,1,
6,exp1.png,exp2.png,,,,,,,,,,,,,,,,,,1,0,1,0,0,6,6,6,,,,,,,,,False,26,107,False,exp1.png,exp2.png,trial_right_image,-1,exp2.png,1,exp2.png,exp1.png,0,4,reversed,correct,0.27857029619936335,1,valid_win,562.7583571,53,,,,,,,,,,,,,,,,sub_181,2022-09-14_14h08.41.122,Reversal,2022.1.1,60.22692300058379,1,
7,exp3.png,exp4.png,,,,,,,,,,,,,,,,,,1,0,1,0,0,7,7,7,,,,,,,,,False,27,108,False,exp3.png,exp4.png,trial_right_image,-1,exp4.png,1,exp3.png,exp4.png,0,2,non-reversed,incorrect,0.16270537977793442,1,invalid_win,567.0080071999996,54,,,,,,,,,,,,,,,,sub_181,2022-09-14_14h08.41.122,Reversal,2022.1.1,60.22692300058379,1,
8,exp1.png,exp2.png,,,,,,,,,,,,,,,,,,1,0,1,0,0,8,8,8,,,,,,,,,False,28,109,False,exp1.png,exp2.png,trial_right_image,-1,exp2.png,1,exp2.png,exp1.png,0,4,reversed,correct,0.9281030550946697,1,valid_win,571.3409688999996,55,,,,,,,,,,,,,,,,sub_181,2022-09-14_14h08.41.122,Reversal,2022.1.1,60.22692300058379,1,
9,exp3.png,exp4.png,,,,,,,,,,,,,,,,,,1,0,1,0,0,9,9,9,,,,,,,,,False,29,110,True,exp4.png,exp3.png,trial_right_image,-1,exp3.png,1,exp3.png,exp4.png,1,1,non-reversed,correct,0.5482707897283092,1,valid_win,575.5404525999998,56,,,,,,,,,,,,,,,,sub_181,2022-09-14_14h08.41.122,Reversal,2022.1.1,60.22692300058379,1,
10,exp1.png,exp2.png,,,,,,,,,,,,,,,,,,1,0,1,0,0,10,10,10,,,,,,,,,False,30,111,False,exp1.png,exp2.png,trial_right_image,-1,exp2.png,1,exp2.png,exp1.png,0,4,reversed,correct,0.3745328515581623,1,valid_win,579.8736076,57,,,,,,,,,,,,,,,,sub_181,2022-09-14_14h08.41.122,Reversal,2022.1.1,60.22692300058379,1,
11,exp3.png,exp4.png,,,,,,,,,,,,,,,,,,1,0,1,0,0,11,11,11,,,,,,,,,False,31,112,True,exp4.png,exp3.png,trial_right_image,-1,exp3.png,1,exp3.png,exp4.png,1,1,non-reversed,correct,0.563927566671308,1,valid_win,584.0584801,58,,,,,,,,,,,,,,,,sub_181,2022-09-14_14h08.41.122,Reversal,2022.1.1,60.22692300058379,1,
12,exp1.png,exp2.png,,,,,,,,,,,,,,,,,,1,0,1,0,0,12,12,12,,,,,,,,,False,32,113,False,exp1.png,exp2.png,trial_right_image,-1,exp2.png,1,exp2.png,exp1.png,0,4,reversed,correct,0.2210270581676944,0,invalid_lose,588.0555009999994,58,,,,,,,,,,,,,,,,sub_181,2022-09-14_14h08.41.122,Reversal,2022.1.1,60.22692300058379,1,
13,exp3.png,exp4.png,,,,,,,,,,,,,,,,,,1,0,1,0,0,13,13,13,,,,,,,,,False,33,114,True,exp4.png,exp3.png,trial_left_image,1,exp4.png,1,exp3.png,exp4.png,0,2,non-reversed,incorrect,0.26360979707106247,0,valid_lose,592.6377484,58,,,,,,,,,,,,,,,,sub_181,2022-09-14_14h08.41.122,Reversal,2022.1.1,60.22692300058379,1,
14,exp1.png,exp2.png,,,,,,,,,,,,,,,,,,1,0,1,0,0,14,14,14,,,,,,,,,False,34,115,False,exp1.png,exp2.png,trial_right_image,-1,exp2.png,1,exp2.png,exp1.png,0,4,reversed,correct,0.45145348957078657,1,valid_win,596.7212968999997,59,,,,,,,,,,,,,,,,sub_181,2022-09-14_14h08.41.122,Reversal,2022.1.1,60.22692300058379,1,
15,exp3.png,exp4.png,,,,,,,,,,,,,,,,,,1,0,1,0,0,15,15,15,,,,,,,,,False,35,116,True,exp4.png,exp3.png,trial_right_image,-1,exp3.png,1,exp3.png,exp4.png,1,1,non-reversed,correct,0.42623352176762563,1,valid_win,601.2053879,60,,,,,,,,,,,,,,,,sub_181,2022-09-14_14h08.41.122,Reversal,2022.1.1,60.22692300058379,1,
16,exp1.png,exp2.png,,,,,,,,,,,,,,,,,,1,0,1,0,0,16,16,16,,,,,,,,,False,36,117,True,exp2.png,exp1.png,trial_right_image,-1,exp1.png,1,exp2.png,exp1.png,1,3,reversed,incorrect,0.2062216998465617,1,invalid_win,605.3034539999994,61,,,,,,,,,,,,,,,,sub_181,2022-09-14_14h08.41.122,Reversal,2022.1.1,60.22692300058379,1,
17,exp3.png,exp4.png,,,,,,,,,,,,,,,,,,1,0,1,0,0,17,17,17,,,,,,,,,False,37,118,True,exp4.png,exp3.png,trial_right_image,-1,exp3.png,1,exp3.png,exp4.png,1,1,non-reversed,correct,0.11797377757245431,0,invalid_lose,609.4350129,61,,,,,,,,,,,,,,,,sub_181,2022-09-14_14h08.41.122,Reversal,2022.1.1,60.22692300058379,1,
18,exp1.png,exp2.png,,,,,,,,,,,,,,,,,,1,0,1,0,0,18,18,18,,,,,,,,,False,38,119,False,exp1.png,exp2.png,trial_right_image,-1,exp2.png,1,exp2.png,exp1.png,0,4,reversed,correct,0.41803059876533755,1,valid_win,613.6013822999998,62,,,,,,,,,,,,,,,,sub_181,2022-09-14_14h08.41.122,Reversal,2022.1.1,60.22692300058379,1,
19,exp3.png,exp4.png,,,,,,,,,,,,,,,,,,1,0,1,0,0,19,19,19,,,,,,,,,False,39,120,False,exp3.png,exp4.png,trial_right_image,-1,exp4.png,1,exp3.png,exp4.png,0,2,non-reversed,incorrect,0.6449160507114304,0,valid_lose,617.9693069,62,,,,,,,,,,,,,,,,sub_181,2022-09-14_14h08.41.122,Reversal,2022.1.1,60.22692300058379,1,
20,exp1.png,exp2.png,,,,,,,,,,,,,,,,,,1,0,1,0,0,20,20,20,,,,,,,,,True,,,,,,,,,,,,,,,,,,,,,,,,,,,,,,,,,,,,sub_181,2022-09-14_14h08.41.122,Reversal,2022.1.1,60.22692300058379,1,
,,,exp1.png,,,,,,,,,,,,,,,,,1,0,1,0,,,,,0,0,0,0,0,0,0,0,,,,,,,,,,,,,,,,,,,,,,58.0,58.0,2.2153370000005452,"[(58.0, 2.2153370000005452)]",772.3208994000001,None,,,,,,,,,,sub_181,2022-09-14_14h08.41.122,Reversal,2022.1.1,60.22692300058379,1,
,,,exp2.png,,,,,,,,,,,,,,,,,1,0,1,0,,,,,0,0,0,0,0,1,1,1,,,,,,,,,,,,,,,,,,,,,,,50.0,None,[],775.3541232000002,None,,,,,,,,,,sub_181,2022-09-14_14h08.41.122,Reversal,2022.1.1,60.22692300058379,1,
,,,exp3.png,,,,,,,,,,,,,,,,,1,0,1,0,,,,,0,0,0,0,0,2,2,2,,,,,,,,,,,,,,,,,,,,,,,50.0,None,[],779.4181029999995,None,,,,,,,,,,sub_181,2022-09-14_14h08.41.122,Reversal,2022.1.1,60.22692300058379,1,
,,,exp4.png,,,,,,,,,,,,,,,,,1,0,1,0,,,,,0,0,0,0,0,3,3,3,,,,,,,,,,,,,,,,,,,,,,,50.0,None,[],780.5696802999996,None,,,,,,,,,,sub_181,2022-09-14_14h08.41.122,Reversal,2022.1.1,60.22692300058379,1,
0,exp1.png,exp2.png,,,,,,,,,,,,,,,,,,2,0,2,0,0,0,0,0,,,,,,,,,False,40,121,False,exp1.png,exp2.png,trial_right_image,-1,exp2.png,1,exp2.png,exp1.png,0,4,reversed,correct,0.40689219118725295,1,valid_win,631.4157286999994,63,,,,,,,,,,,,,,,,sub_181,2022-09-14_14h08.41.122,Reversal,2022.1.1,60.22692300058379,1,
1,exp3.png,exp4.png,,,,,,,,,,,,,,,,,,2,0,2,0,0,1,1,1,,,,,,,,,False,41,122,True,exp4.png,exp3.png,trial_right_image,-1,exp3.png,1,exp3.png,exp4.png,1,1,non-reversed,correct,0.4862670146042436,1,valid_win,635.5822742999994,64,,,,,,,,,,,,,,,,sub_181,2022-09-14_14h08.41.122,Reversal,2022.1.1,60.22692300058379,1,
2,exp1.png,exp2.png,,,,,,,,,,,,,,,,,,2,0,2,0,0,2,2,2,,,,,,,,,False,42,123,True,exp2.png,exp1.png,trial_right_image,-1,exp1.png,1,exp2.png,exp1.png,1,3,reversed,incorrect,0.6523217578921836,0,valid_lose,639.8165532999997,64,,,,,,,,,,,,,,,,sub_181,2022-09-14_14h08.41.122,Reversal,2022.1.1,60.22692300058379,1,
3,exp3.png,exp4.png,,,,,,,,,,,,,,,,,,2,0,2,0,0,3,3,3,,,,,,,,,False,43,124,True,exp4.png,exp3.png,trial_right_image,-1,exp3.png,1,exp3.png,exp4.png,1,1,non-reversed,correct,0.07649660986456575,0,invalid_lose,644.8484943999997,64,,,,,,,,,,,,,,,,sub_181,2022-09-14_14h08.41.122,Reversal,2022.1.1,60.22692300058379,1,
4,exp1.png,exp2.png,,,,,,,,,,,,,,,,,,2,0,2,0,0,4,4,4,,,,,,,,,False,44,125,True,exp2.png,exp1.png,trial_right_image,-1,exp1.png,1,exp2.png,exp1.png,1,3,reversed,incorrect,0.46860177569096606,0,valid_lose,649.3474621999999,64,,,,,,,,,,,,,,,,sub_181,2022-09-14_14h08.41.122,Reversal,2022.1.1,60.22692300058379,1,
5,exp3.png,exp4.png,,,,,,,,,,,,,,,,,,2,0,2,0,0,5,5,5,,,,,,,,,False,45,126,False,exp3.png,exp4.png,trial_right_image,-1,exp4.png,1,exp3.png,exp4.png,0,2,non-reversed,incorrect,0.11074290426976219,1,invalid_win,653.5968842999996,65,,,,,,,,,,,,,,,,sub_181,2022-09-14_14h08.41.122,Reversal,2022.1.1,60.22692300058379,1,
6,exp1.png,exp2.png,,,,,,,,,,,,,,,,,,2,0,2,0,0,6,6,6,,,,,,,,,False,46,127,False,exp1.png,exp2.png,trial_right_image,-1,exp2.png,1,exp2.png,exp1.png,0,4,reversed,correct,0.7280189749735261,1,valid_win,658.3792026999995,66,,,,,,,,,,,,,,,,sub_181,2022-09-14_14h08.41.122,Reversal,2022.1.1,60.22692300058379,1,
7,exp3.png,exp4.png,,,,,,,,,,,,,,,,,,2,0,2,0,0,7,7,7,,,,,,,,,False,47,128,False,exp3.png,exp4.png,trial_right_image,-1,exp4.png,1,exp3.png,exp4.png,0,2,non-reversed,incorrect,0.27113936803076943,0,valid_lose,662.6950555999997,66,,,,,,,,,,,,,,,,sub_181,2022-09-14_14h08.41.122,Reversal,2022.1.1,60.22692300058379,1,
8,exp1.png,exp2.png,,,,,,,,,,,,,,,,,,2,0,2,0,0,8,8,8,,,,,,,,,False,48,129,True,exp2.png,exp1.png,trial_right_image,-1,exp1.png,1,exp2.png,exp1.png,1,3,reversed,incorrect,0.3924248105041155,0,valid_lose,667.8300816999995,66,,,,,,,,,,,,,,,,sub_181,2022-09-14_14h08.41.122,Reversal,2022.1.1,60.22692300058379,1,
9,exp3.png,exp4.png,,,,,,,,,,,,,,,,,,2,0,2,0,0,9,9,9,,,,,,,,,False,49,130,False,exp3.png,exp4.png,trial_right_image,-1,exp4.png,1,exp3.png,exp4.png,0,2,non-reversed,incorrect,0.549274743992325,0,valid_lose,671.8950264,66,,,,,,,,,,,,,,,,sub_181,2022-09-14_14h08.41.122,Reversal,2022.1.1,60.22692300058379,1,
10,exp1.png,exp2.png,,,,,,,,,,,,,,,,,,2,0,2,0,0,10,10,10,,,,,,,,,False,50,131,False,exp1.png,exp2.png,trial_left_image,1,exp1.png,1,exp2.png,exp1.png,1,3,reversed,incorrect,0.8434875234064929,0,valid_lose,677.4931413999998,66,,,,,,,,,,,,,,,,sub_181,2022-09-14_14h08.41.122,Reversal,2022.1.1,60.22692300058379,1,
11,exp3.png,exp4.png,,,,,,,,,,,,,,,,,,2,0,2,0,0,11,11,11,,,,,,,,,False,51,132,False,exp3.png,exp4.png,trial_right_image,-1,exp4.png,1,exp3.png,exp4.png,0,2,non-reversed,incorrect,0.3841895186842932,0,valid_lose,681.7108189999994,66,,,,,,,,,,,,,,,,sub_181,2022-09-14_14h08.41.122,Reversal,2022.1.1,60.22692300058379,1,
12,exp1.png,exp2.png,,,,,,,,,,,,,,,,,,2,0,2,0,0,12,12,12,,,,,,,,,False,52,133,True,exp2.png,exp1.png,trial_right_image,-1,exp1.png,1,exp2.png,exp1.png,1,3,reversed,incorrect,0.6343245030425606,0,valid_lose,685.8594784000002,66,,,,,,,,,,,,,,,,sub_181,2022-09-14_14h08.41.122,Reversal,2022.1.1,60.22692300058379,1,
13,exp3.png,exp4.png,,,,,,,,,,,,,,,,,,2,0,2,0,0,13,13,13,,,,,,,,,False,53,134,False,exp3.png,exp4.png,trial_right_image,-1,exp4.png,1,exp3.png,exp4.png,0,2,non-reversed,incorrect,0.900378261506395,0,valid_lose,690.3418631,66,,,,,,,,,,,,,,,,sub_181,2022-09-14_14h08.41.122,Reversal,2022.1.1,60.22692300058379,1,
14,exp1.png,exp2.png,,,,,,,,,,,,,,,,,,2,0,2,0,0,14,14,14,,,,,,,,,False,54,135,True,exp2.png,exp1.png,trial_right_image,-1,exp1.png,1,exp2.png,exp1.png,1,3,reversed,incorrect,0.2361510683982403,1,invalid_win,696.6074888999997,67,,,,,,,,,,,,,,,,sub_181,2022-09-14_14h08.41.122,Reversal,2022.1.1,60.22692300058379,1,
15,exp3.png,exp4.png,,,,,,,,,,,,,,,,,,2,0,2,0,0,15,15,15,,,,,,,,,False,55,136,False,exp3.png,exp4.png,trial_right_image,-1,exp4.png,1,exp3.png,exp4.png,0,2,non-reversed,incorrect,0.17936051167490186,1,invalid_win,701.3566267000001,68,,,,,,,,,,,,,,,,sub_181,2022-09-14_14h08.41.122,Reversal,2022.1.1,60.22692300058379,1,
16,exp1.png,exp2.png,,,,,,,,,,,,,,,,,,2,0,2,0,0,16,16,16,,,,,,,,,False,56,137,True,exp2.png,exp1.png,trial_right_image,-1,exp1.png,1,exp2.png,exp1.png,1,3,reversed,incorrect,0.8193269274559679,0,valid_lose,707.2069495000001,68,,,,,,,,,,,,,,,,sub_181,2022-09-14_14h08.41.122,Reversal,2022.1.1,60.22692300058379,1,
17,exp3.png,exp4.png,,,,,,,,,,,,,,,,,,2,0,2,0,0,17,17,17,,,,,,,,,False,57,138,False,exp3.png,exp4.png,trial_right_image,-1,exp4.png,1,exp3.png,exp4.png,0,2,non-reversed,incorrect,0.23432727921366292,1,invalid_win,711.3730289999999,69,,,,,,,,,,,,,,,,sub_181,2022-09-14_14h08.41.122,Reversal,2022.1.1,60.22692300058379,1,
18,exp1.png,exp2.png,,,,,,,,,,,,,,,,,,2,0,2,0,0,18,18,18,,,,,,,,,False,58,139,True,exp2.png,exp1.png,trial_right_image,-1,exp1.png,1,exp2.png,exp1.png,1,3,reversed,incorrect,0.7272387060915038,0,valid_lose,715.9211712000001,69,,,,,,,,,,,,,,,,sub_181,2022-09-14_14h08.41.122,Reversal,2022.1.1,60.22692300058379,1,
19,exp3.png,exp4.png,,,,,,,,,,,,,,,,,,2,0,2,0,0,19,19,19,,,,,,,,,False,59,140,True,exp4.png,exp3.png,trial_right_image,-1,exp3.png,1,exp3.png,exp4.png,1,1,non-reversed,correct,0.7694235626579246,1,valid_win,720.0706783,70,,,,,,,,,,,,,,,,sub_181,2022-09-14_14h08.41.122,Reversal,2022.1.1,60.22692300058379,1,
20,exp1.png,exp2.png,,,,,,,,,,,,,,,,,,2,0,2,0,0,20,20,20,,,,,,,,,True,,,,,,,,,,,,,,,,,,,,,,,,,,,,,,,,,,,,sub_181,2022-09-14_14h08.41.122,Reversal,2022.1.1,60.22692300058379,1,
,,,exp1.png,,,,,,,,,,,,,,,,,2,0,2,0,,,,,0,0,0,0,0,0,0,0,,,,,,,,,,,,,,,,,,,,,,56.0,56.0,2.4114354000003004,"[(56.0, 2.4114354000003004)]",874.4232606,None,,,,,,,,,,sub_181,2022-09-14_14h08.41.122,Reversal,2022.1.1,60.22692300058379,1,
,,,exp2.png,,,,,,,,,,,,,,,,,2,0,2,0,,,,,0,0,0,0,0,1,1,1,,,,,,,,,,,,,,,,,,,,,,,50.0,None,[],877.7404529999999,None,,,,,,,,,,sub_181,2022-09-14_14h08.41.122,Reversal,2022.1.1,60.22692300058379,1,
,,,exp3.png,,,,,,,,,,,,,,,,,2,0,2,0,,,,,0,0,0,0,0,2,2,2,,,,,,,,,,,,,,,,,,,,,,,50.0,None,[],879.0222017000001,None,,,,,,,,,,sub_181,2022-09-14_14h08.41.122,Reversal,2022.1.1,60.22692300058379,1,
,,,exp4.png,,,,,,,,,,,,,,,,,2,0,2,0,,,,,0,0,0,0,0,3,3,3,,,,,,,,,,,,,,,,,,,,,,,50.0,None,[],880.0521244999995,None,,,,,,,,,,sub_181,2022-09-14_14h08.41.122,Reversal,2022.1.1,60.22692300058379,1,
,,,,,,,,,,,,,,,,,,,,,,,,,,,,,,,,,,,,,,,,,,,,,,,,,,,,,,,,70,,,,,,,,,,,71,43,28,290.38705889999983,1,,,,,,,
