trial_index,trial_image1_file,trial_image2_file,image_file,learning_outer_loop.thisRepN,learning_outer_loop.thisTrialN,learning_outer_loop.thisN,learning_outer_loop.thisIndex,learning_inner_loop.thisRepN,learning_inner_loop.thisTrialN,learning_inner_loop.thisN,learning_inner_loop.thisIndex,learning_estimation_outer_loop.thisRepN,learning_estimation_outer_loop.thisTrialN,learning_estimation_outer_loop.thisN,learning_estimation_outer_loop.thisIndex,learning_estimation_inner_loop.thisRepN,learning_estimation_inner_loop.thisTrialN,learning_estimation_inner_loop.thisN,learning_estimation_inner_loop.thisIndex,reversal_outer_loop.thisRepN,reversal_outer_loop.thisTrialN,reversal_outer_loop.thisN,reversal_outer_loop.thisIndex,reversal_inner_loop.thisRepN,reversal_inner_loop.thisTrialN,reversal_inner_loop.thisN,reversal_inner_loop.thisIndex,reversal_estimation_outer_loop.thisRepN,reversal_estimation_outer_loop.thisTrialN,reversal_estimation_outer_loop.thisN,reversal_estimation_outer_loop.thisIndex,reversal_estimation_inner_loop.thisRepN,reversal_estimation_inner_loop.thisTrialN,reversal_estimation_inner_loop.thisN,reversal_estimation_inner_loop.thisIndex,thisRow.t,notes,instructions1.started,instructions1.stopped,instructions2.started,instructions2.stopped,instructions3.started,instructions3.stopped,intstructions4.started,intstructions4.stopped,instructions5.started,instructions5.stopped,mindware_trigger_learning.started,mindware_trigger_learning.stopped,trial.started,skipped,total_trial_counter,trial_num,left_right_flip,left_image_file,right_image_file,clicked_stimulus_side,trial.stopped,side,clicked_stimulus,version,high_prob_image_file,low_prob_image_file,choice_a,choice_b,pair_type,correct,trial_feedback_random,reward,trial_type,overall_time_after_trial,feedback_preparation.started,feedback_preparation.stopped,score,feedback.started,feedback.stopped,estimation.started,estimation_rating.started,estimation.stopped,estimation_exp1.png,estimation_rating.response,estimation_rating.rt,estimation_rating.history,estimation_exp3.png,estimation_exp4.png,estimation_exp2.png,mindware_trigger_reversal.started,mindware_trigger_reversal.stopped,total_learning_time,thank_you.started,total_correct,learning_correct,reversal_correct,total_reversal_time,extra_block,participant,date,expName,psychopyVersion,frameRate,ver,expStart,
0,exp1.png,exp2.png,,0,0,0,0,0,0,0,0,,,,,,,,,,,,,,,,,,,,,,,,,99.88718120000067,,0.012166700000307173,41.92161100000067,41.92162670000016,50.287622300000294,50.28763979999985,84.34949560000041,84.34951200000069,91.54788379999991,91.54790130000038,99.71410370000012,99.72639640000034,99.72707330000048,99.72708969999985,False,0,1,True,exp2.png,exp1.png,trial_right_image,121.29385189999994,-1,exp1.png,1,exp1.png,exp2.png,1,3,reversed,correct,0.8391793975107689,1,valid_win,21.579966899999818,121.2940978000006,121.90842220000013,1,121.90843780000068,123.70643440000003,,,,,,,,,,,,,,,,,,,,sub_765,2024-12-04_13h48.07.190,Reversal,2023.2.1,60.00229208743871,1,2024-12-04 13h48.19.888603 +0200,
1,exp3.png,exp4.png,,0,0,0,0,0,1,1,1,,,,,,,,,,,,,,,,,,,,,,,,,123.85697010000058,,,,,,,,,,,,123.70679350000046,123.70719840000038,123.70721330000015,False,1,2,True,exp4.png,exp3.png,trial_right_image,130.77569570000014,-1,exp3.png,1,exp3.png,exp4.png,1,1,non-reversed,correct,0.6407355076692705,1,valid_win,31.061758499999996,130.77588900000046,131.39093580000008,2,131.39095030000044,133.18828230000054,,,,,,,,,,,,,,,,,,,,sub_765,2024-12-04_13h48.07.190,Reversal,2023.2.1,60.00229208743871,1,2024-12-04 13h48.19.888603 +0200,
2,exp1.png,exp2.png,,0,0,0,0,0,2,2,2,,,,,,,,,,,,,,,,,,,,,,,,,133.3186897000005,,,,,,,,,,,,133.18863520000014,133.1890226000005,133.18903469999987,False,2,3,False,exp1.png,exp2.png,trial_right_image,138.55843170000026,-1,exp2.png,1,exp1.png,exp2.png,0,4,reversed,incorrect,0.7075772493593431,0,valid_lose,38.844501099999434,138.5586318000005,139.17315440000039,2,139.17316780000056,140.97086020000006,,,,,,,,,,,,,,,,,,,,sub_765,2024-12-04_13h48.07.190,Reversal,2023.2.1,60.00229208743871,1,2024-12-04 13h48.19.888603 +0200,
3,exp3.png,exp4.png,,0,0,0,0,0,3,3,3,,,,,,,,,,,,,,,,,,,,,,,,,141.13811650000025,,,,,,,,,,,,140.97120450000057,140.97165680000035,140.9716755999998,False,3,4,False,exp3.png,exp4.png,trial_right_image,148.28989290000027,-1,exp4.png,1,exp3.png,exp4.png,0,2,non-reversed,incorrect,0.11541856023162389,1,invalid_win,48.576040699999794,148.2901756000001,148.9049740999999,3,148.9049954000002,150.70284450000054,,,,,,,,,,,,,,,,,,,,sub_765,2024-12-04_13h48.07.190,Reversal,2023.2.1,60.00229208743871,1,2024-12-04 13h48.19.888603 +0200,
4,exp1.png,exp2.png,,0,0,0,0,0,4,4,4,,,,,,,,,,,,,,,,,,,,,,,,,150.8439601,,,,,,,,,,,,150.70317680000062,150.7034518999999,150.70346210000025,False,4,5,True,exp2.png,exp1.png,trial_right_image,157.82308470000044,-1,exp1.png,1,exp1.png,exp2.png,1,3,reversed,correct,0.24563112747809202,0,invalid_lose,58.10915109999951,157.82328039999993,158.43714869999985,3,158.4371682000001,160.2348989000002,,,,,,,,,,,,,,,,,,,,sub_765,2024-12-04_13h48.07.190,Reversal,2023.2.1,60.00229208743871,1,2024-12-04 13h48.19.888603 +0200,
5,exp3.png,exp4.png,,0,0,0,0,0,5,5,5,,,,,,,,,,,,,,,,,,,,,,,,,160.38746119999996,,,,,,,,,,,,160.23517450000054,160.23556000000008,160.2355748,False,5,6,False,exp3.png,exp4.png,trial_right_image,163.43848470000012,-1,exp4.png,1,exp3.png,exp4.png,0,2,non-reversed,incorrect,0.20678283553247223,1,invalid_win,63.724541799999315,163.43867099999989,164.0530935000006,4,164.0531101000006,165.8507739000006,,,,,,,,,,,,,,,,,,,,sub_765,2024-12-04_13h48.07.190,Reversal,2023.2.1,60.00229208743871,1,2024-12-04 13h48.19.888603 +0200,
6,exp1.png,exp2.png,,0,0,0,0,0,6,6,6,,,,,,,,,,,,,,,,,,,,,,,,,165.97805980000066,,,,,,,,,,,,165.85102430000006,165.8513681000004,165.85138129999996,False,6,7,False,exp1.png,exp2.png,trial_right_image,169.9874894000004,-1,exp2.png,1,exp1.png,exp2.png,0,4,reversed,incorrect,0.8073590131228463,0,valid_lose,70.27361909999945,169.98775420000038,170.6027350000004,4,170.602758,172.39990320000015,,,,,,,,,,,,,,,,,,,,sub_765,2024-12-04_13h48.07.190,Reversal,2023.2.1,60.00229208743871,1,2024-12-04 13h48.19.888603 +0200,
7,exp3.png,exp4.png,,0,0,0,0,0,7,7,7,,,,,,,,,,,,,,,,,,,,,,,,,172.52790660000028,,,,,,,,,,,,172.40014690000044,172.40048130000014,172.40050020000035,False,7,8,True,exp4.png,exp3.png,trial_left_image,175.48645639999995,1,exp4.png,1,exp3.png,exp4.png,0,2,non-reversed,incorrect,0.7462593577163102,0,valid_lose,75.7725862999996,175.48671960000047,176.10206449999987,4,176.10207750000063,177.89916059999996,,,,,,,,,,,,,,,,,,,,sub_765,2024-12-04_13h48.07.190,Reversal,2023.2.1,60.00229208743871,1,2024-12-04 13h48.19.888603 +0200,
8,exp1.png,exp2.png,,0,0,0,0,0,8,8,8,,,,,,,,,,,,,,,,,,,,,,,,,178.0279797000003,,,,,,,,,,,,177.8993989999999,177.8997446000003,177.89975740000045,False,8,9,True,exp2.png,exp1.png,trial_right_image,182.55191569999988,-1,exp1.png,1,exp1.png,exp2.png,1,3,reversed,correct,0.22040992318416697,0,invalid_lose,82.83796419999999,182.5520937000001,183.1679318000006,4,183.1679469999999,184.96493780000037,,,,,,,,,,,,,,,,,,,,sub_765,2024-12-04_13h48.07.190,Reversal,2023.2.1,60.00229208743871,1,2024-12-04 13h48.19.888603 +0200,
9,exp3.png,exp4.png,,0,0,0,0,0,9,9,9,,,,,,,,,,,,,,,,,,,,,,,,,185.0983199000002,,,,,,,,,,,,184.96523070000057,184.96550639999987,184.9655171000004,False,9,10,False,exp3.png,exp4.png,trial_right_image,191.4018629000002,-1,exp4.png,1,exp3.png,exp4.png,0,2,non-reversed,incorrect,0.7137027960869151,0,valid_lose,91.68796979999934,191.4020999000004,192.01619699999992,4,192.01621000000068,193.81407529999979,,,,,,,,,,,,,,,,,,,,sub_765,2024-12-04_13h48.07.190,Reversal,2023.2.1,60.00229208743871,1,2024-12-04 13h48.19.888603 +0200,
10,exp1.png,exp2.png,,0,0,0,0,0,10,10,10,,,,,,,,,,,,,,,,,,,,,,,,,193.94035560000066,,,,,,,,,,,,193.81440030000067,193.81490180000037,193.81491820000065,False,10,11,True,exp2.png,exp1.png,trial_left_image,196.20022460000018,1,exp2.png,1,exp1.png,exp2.png,0,4,reversed,incorrect,0.5545313975358388,0,valid_lose,96.48635769999964,196.2004919000001,196.81618780000008,4,196.81620160000057,198.61334030000035,,,,,,,,,,,,,,,,,,,,sub_765,2024-12-04_13h48.07.190,Reversal,2023.2.1,60.00229208743871,1,2024-12-04 13h48.19.888603 +0200,
11,exp3.png,exp4.png,,0,0,0,0,0,11,11,11,,,,,,,,,,,,,,,,,,,,,,,,,198.7447616999998,,,,,,,,,,,,198.6136234000005,198.61402710000038,198.6140419000003,False,11,12,False,exp3.png,exp4.png,trial_right_image,204.83275670000057,-1,exp4.png,1,exp3.png,exp4.png,0,2,non-reversed,incorrect,0.859928884943032,0,valid_lose,105.11881769999945,204.83294819999992,205.44774039999993,4,205.44775420000042,207.2454859999998,,,,,,,,,,,,,,,,,,,,sub_765,2024-12-04_13h48.07.190,Reversal,2023.2.1,60.00229208743871,1,2024-12-04 13h48.19.888603 +0200,
12,exp1.png,exp2.png,,0,0,0,0,0,12,12,12,,,,,,,,,,,,,,,,,,,,,,,,,207.38471170000048,,,,,,,,,,,,207.24577649999992,207.24611330000062,207.24613050000062,False,12,13,False,exp1.png,exp2.png,trial_right_image,209.44870830000036,-1,exp2.png,1,exp1.png,exp2.png,0,4,reversed,incorrect,0.6317094849625746,0,valid_lose,109.73478470000009,209.44891390000066,210.06418140000005,4,210.06419460000052,211.8617675000005,,,,,,,,,,,,,,,,,,,,sub_765,2024-12-04_13h48.07.190,Reversal,2023.2.1,60.00229208743871,1,2024-12-04 13h48.19.888603 +0200,
13,exp3.png,exp4.png,,0,0,0,0,0,13,13,13,,,,,,,,,,,,,,,,,,,,,,,,,211.99313090000032,,,,,,,,,,,,211.86211230000026,211.86250550000022,211.86251859999993,False,13,14,True,exp4.png,exp3.png,trial_left_image,217.9973770000006,1,exp4.png,1,exp3.png,exp4.png,0,2,non-reversed,incorrect,0.13038084297158326,1,invalid_win,118.28344749999997,217.9975770000001,218.61295299999983,5,218.61296610000045,220.4104981999999,,,,,,,,,,,,,,,,,,,,sub_765,2024-12-04_13h48.07.190,Reversal,2023.2.1,60.00229208743871,1,2024-12-04 13h48.19.888603 +0200,
14,exp1.png,exp2.png,,0,0,0,0,0,14,14,14,,,,,,,,,,,,,,,,,,,,,,,,,220.55435940000007,,,,,,,,,,,,220.41075180000007,220.4110612000004,220.41107550000015,False,14,15,False,exp1.png,exp2.png,trial_left_image,225.7965707000003,1,exp1.png,1,exp1.png,exp2.png,1,3,reversed,correct,0.7651938115536312,1,valid_win,126.08265089999986,225.7967853,226.41260300000067,6,226.41262069999993,228.2094444000004,,,,,,,,,,,,,,,,,,,,sub_765,2024-12-04_13h48.07.190,Reversal,2023.2.1,60.00229208743871,1,2024-12-04 13h48.19.888603 +0200,
15,exp3.png,exp4.png,,0,0,0,0,0,15,15,15,,,,,,,,,,,,,,,,,,,,,,,,,228.34230630000002,,,,,,,,,,,,228.20974300000034,228.21012539999992,228.21013980000043,False,15,16,True,exp4.png,exp3.png,trial_left_image,232.8290305999999,1,exp4.png,1,exp3.png,exp4.png,0,2,non-reversed,incorrect,0.8495463203319252,0,valid_lose,133.1151450999996,232.82927740000014,233.44440720000057,6,233.44442680000066,235.24188250000043,,,,,,,,,,,,,,,,,,,,sub_765,2024-12-04_13h48.07.190,Reversal,2023.2.1,60.00229208743871,1,2024-12-04 13h48.19.888603 +0200,
16,exp1.png,exp2.png,,0,0,0,0,0,16,16,16,,,,,,,,,,,,,,,,,,,,,,,,,235.39959809999982,,,,,,,,,,,,235.2421420999999,235.2425217,235.24253690000023,False,16,17,False,exp1.png,exp2.png,trial_right_image,237.3782667000005,-1,exp2.png,1,exp1.png,exp2.png,0,4,reversed,incorrect,0.8542991889841168,0,valid_lose,137.66432910000003,237.3784587,237.99386520000007,6,237.99387900000056,239.79132220000065,,,,,,,,,,,,,,,,,,,,sub_765,2024-12-04_13h48.07.190,Reversal,2023.2.1,60.00229208743871,1,2024-12-04 13h48.19.888603 +0200,
17,exp3.png,exp4.png,,0,0,0,0,0,17,17,17,,,,,,,,,,,,,,,,,,,,,,,,,239.92751560000033,,,,,,,,,,,,239.79159750000053,239.79193790000045,239.7919509000003,False,17,18,True,exp4.png,exp3.png,trial_left_image,242.16202260000045,1,exp4.png,1,exp3.png,exp4.png,0,2,non-reversed,incorrect,0.8243764231733886,0,valid_lose,142.4480907999996,242.16222170000037,242.77631780000047,6,242.77633270000024,244.57425130000047,,,,,,,,,,,,,,,,,,,,sub_765,2024-12-04_13h48.07.190,Reversal,2023.2.1,60.00229208743871,1,2024-12-04 13h48.19.888603 +0200,
18,exp1.png,exp2.png,,0,0,0,0,0,18,18,18,,,,,,,,,,,,,,,,,,,,,,,,,244.7107205000002,,,,,,,,,,,,244.5745606999999,244.57492619999994,244.57493990000057,False,18,19,True,exp2.png,exp1.png,trial_left_image,246.76045560000057,1,exp2.png,1,exp1.png,exp2.png,0,4,reversed,incorrect,0.4267414343139907,0,valid_lose,147.04651889999968,246.7606482000001,247.37583390000054,6,247.37584770000012,249.1734991000003,,,,,,,,,,,,,,,,,,,,sub_765,2024-12-04_13h48.07.190,Reversal,2023.2.1,60.00229208743871,1,2024-12-04 13h48.19.888603 +0200,
19,exp3.png,exp4.png,,0,0,0,0,0,19,19,19,,,,,,,,,,,,,,,,,,,,,,,,,249.30072070000006,,,,,,,,,,,,249.1737350000003,249.17404990000068,249.17405969999982,False,19,20,False,exp3.png,exp4.png,trial_left_image,251.5933085000006,1,exp3.png,1,exp3.png,exp4.png,1,1,non-reversed,correct,0.49022691655151807,1,valid_win,151.8793587,251.59350069999982,252.20945980000033,7,252.20947710000019,254.00647240000035,,,,,,,,,,,,,,,,,,,,sub_765,2024-12-04_13h48.07.190,Reversal,2023.2.1,60.00229208743871,1,2024-12-04 13h48.19.888603 +0200,
20,exp1.png,exp2.png,,0,0,0,0,0,20,20,20,,,,,,,,,,,,,,,,,,,,,,,,,254.2041377000005,,,,,,,,,,,,254.00676680000015,254.00710979999985,254.0071200000002,True,,,,,,,254.0896941000001,,,,,,,,,,,,,,254.0897104000005,254.10569940000005,,254.10571900000014,254.13032230000044,,,,,,,,,,,,,,,,,,,,sub_765,2024-12-04_13h48.07.190,Reversal,2023.2.1,60.00229208743871,1,2024-12-04 13h48.19.888603 +0200,
,,,exp1.png,0,0,0,0,,,,,0,0,0,0,0,0,0,0,,,,,,,,,,,,,,,,,254.2041377000005,,,,,,,,,,,,,,,,,,,,,,,,,,,,,,,,,,,,,,,,,254.1381676000001,254.2041377000005,263.65896690000045,100.0,100.0,7.578623200000038,"[(100.0, 7.578623200000038)]",,,,,,,,,,,,,sub_765,2024-12-04_13h48.07.190,Reversal,2023.2.1,60.00229208743871,1,2024-12-04 13h48.19.888603 +0200,
,,,exp2.png,0,0,0,0,,,,,0,0,0,0,0,1,1,1,,,,,,,,,,,,,,,,,263.7370187000006,,,,,,,,,,,,,,,,,,,,,,,,,,,,,,,,,,,,,,,,,263.6609051000005,263.7370187000006,268.22597529999985,,None,None,[],,,,,,,,,,,,,sub_765,2024-12-04_13h48.07.190,Reversal,2023.2.1,60.00229208743871,1,2024-12-04 13h48.19.888603 +0200,
,,,exp3.png,0,0,0,0,,,,,0,0,0,0,0,2,2,2,,,,,,,,,,,,,,,,,268.2947009999998,,,,,,,,,,,,,,,,,,,,,,,,,,,,,,,,,,,,,,,,,268.2265045000004,268.2947009999998,275.40811160000067,,100.0,5.814340599999923,"[(100.0, 5.814340599999923)]",100.0,,,,,,,,,,,,sub_765,2024-12-04_13h48.07.190,Reversal,2023.2.1,60.00229208743871,1,2024-12-04 13h48.19.888603 +0200,
,,,exp4.png,0,0,0,0,,,,,0,0,0,0,0,3,3,3,,,,,,,,,,,,,,,,,275.46948930000053,,,,,,,,,,,,,,,,,,,,,,,,,,,,,,,,,,,,,,,,,275.40847980000035,275.46948930000053,282.7409548000005,,100.0,5.560084499999903,"[(100.0, 5.560084499999903)]",,100.0,,,,,,,,,,,sub_765,2024-12-04_13h48.07.190,Reversal,2023.2.1,60.00229208743871,1,2024-12-04 13h48.19.888603 +0200,
0,exp1.png,exp2.png,,1,0,1,0,0,0,0,0,,,,,,,,,,,,,,,,,,,,,,,,,282.89012450000064,,,,,,,,,,,,282.75056889999996,282.7513170000002,282.75132870000016,False,20,21,False,exp1.png,exp2.png,trial_right_image,287.6387291000001,-1,exp2.png,1,exp1.png,exp2.png,0,4,reversed,incorrect,0.6022211007588979,0,valid_lose,187.92487769999934,287.6390111999999,288.25464439999996,7,288.2546602000002,290.05154930000026,,,,,,,,,,,,,,,,,,,,sub_765,2024-12-04_13h48.07.190,Reversal,2023.2.1,60.00229208743871,1,2024-12-04 13h48.19.888603 +0200,
1,exp3.png,exp4.png,,1,0,1,0,0,1,1,1,,,,,,,,,,,,,,,,,,,,,,,,,290.1714849,,,,,,,,,,,,290.05178740000065,290.0521180000005,290.0521342000002,False,21,22,True,exp4.png,exp3.png,trial_left_image,292.8879286000001,1,exp4.png,1,exp3.png,exp4.png,0,2,non-reversed,incorrect,0.05355540775169121,1,invalid_win,193.1740065999993,292.88813740000023,293.50331950000054,8,293.5033346,295.3010863999998,,,,,,,,,,,,,,,,,,,,sub_765,2024-12-04_13h48.07.190,Reversal,2023.2.1,60.00229208743871,1,2024-12-04 13h48.19.888603 +0200,
2,exp1.png,exp2.png,,1,0,1,0,0,2,2,2,,,,,,,,,,,,,,,,,,,,,,,,,295.42454330000055,,,,,,,,,,,,295.30137680000007,295.30173640000066,295.3017504999998,False,22,23,False,exp1.png,exp2.png,trial_left_image,299.20490080000036,1,exp1.png,1,exp1.png,exp2.png,1,3,reversed,correct,0.8533540931279247,1,valid_win,199.4909662,299.20509610000045,299.8189809000005,9,299.81899500000054,301.61690439999984,,,,,,,,,,,,,,,,,,,,sub_765,2024-12-04_13h48.07.190,Reversal,2023.2.1,60.00229208743871,1,2024-12-04 13h48.19.888603 +0200,
3,exp3.png,exp4.png,,1,0,1,0,0,3,3,3,,,,,,,,,,,,,,,,,,,,,,,,,301.74438890000056,,,,,,,,,,,,301.617174,301.61760950000007,301.61762460000045,False,23,24,True,exp4.png,exp3.png,trial_right_image,306.8694059999998,-1,exp3.png,1,exp3.png,exp4.png,1,1,non-reversed,correct,0.7287549968389775,1,valid_win,207.15548189999936,306.8696114000004,307.48576589999993,10,307.48578069999985,309.28243960000054,,,,,,,,,,,,,,,,,,,,sub_765,2024-12-04_13h48.07.190,Reversal,2023.2.1,60.00229208743871,1,2024-12-04 13h48.19.888603 +0200,
4,exp1.png,exp2.png,,1,0,1,0,0,4,4,4,,,,,,,,,,,,,,,,,,,,,,,,,309.4216581999999,,,,,,,,,,,,309.2827289000006,309.28307140000015,309.2830849000002,False,24,25,True,exp2.png,exp1.png,trial_right_image,314.0528868000001,-1,exp1.png,1,exp1.png,exp2.png,1,3,reversed,correct,0.11890944774112577,0,invalid_lose,214.33895129999928,314.05308120000063,314.6679062000003,10,314.6679253000002,316.4650863000006,,,,,,,,,,,,,,,,,,,,sub_765,2024-12-04_13h48.07.190,Reversal,2023.2.1,60.00229208743871,1,2024-12-04 13h48.19.888603 +0200,
5,exp3.png,exp4.png,,1,0,1,0,0,5,5,5,,,,,,,,,,,,,,,,,,,,,,,,,316.6246557000004,,,,,,,,,,,,316.4654627,316.46595549999984,316.4659732,False,25,26,True,exp4.png,exp3.png,trial_left_image,319.26805240000067,1,exp4.png,1,exp3.png,exp4.png,0,2,non-reversed,incorrect,0.4719394506014739,0,valid_lose,219.55410679999932,319.2682359999999,319.8832769999999,10,319.88329000000067,321.68089560000044,,,,,,,,,,,,,,,,,,,,sub_765,2024-12-04_13h48.07.190,Reversal,2023.2.1,60.00229208743871,1,2024-12-04 13h48.19.888603 +0200,
6,exp1.png,exp2.png,,1,0,1,0,0,6,6,6,,,,,,,,,,,,,,,,,,,,,,,,,321.80736650000017,,,,,,,,,,,,321.68114419999984,321.6814814999998,321.6814946000004,False,26,27,False,exp1.png,exp2.png,trial_left_image,323.9846303000004,1,exp1.png,1,exp1.png,exp2.png,1,3,reversed,correct,0.24846277595713784,0,invalid_lose,224.27072409999982,323.98485489999985,324.5993130000006,10,324.59932690000005,326.3971975000004,,,,,,,,,,,,,,,,,,,,sub_765,2024-12-04_13h48.07.190,Reversal,2023.2.1,60.00229208743871,1,2024-12-04 13h48.19.888603 +0200,
7,exp3.png,exp4.png,,1,0,1,0,0,7,7,7,,,,,,,,,,,,,,,,,,,,,,,,,326.5321706000004,,,,,,,,,,,,326.3975424,326.39794359999996,326.39795589999994,False,27,28,True,exp4.png,exp3.png,trial_left_image,329.0499823,1,exp4.png,1,exp3.png,exp4.png,0,2,non-reversed,incorrect,0.7908797014562292,0,valid_lose,229.33604139999989,329.0501707000003,329.6661180000001,10,329.6661346000001,331.46304130000044,,,,,,,,,,,,,,,,,,,,sub_765,2024-12-04_13h48.07.190,Reversal,2023.2.1,60.00229208743871,1,2024-12-04 13h48.19.888603 +0200,
8,exp1.png,exp2.png,,1,0,1,0,0,8,8,8,,,,,,,,,,,,,,,,,,,,,,,,,331.5850711000003,,,,,,,,,,,,331.46330430000035,331.4636150000006,331.4636263000002,False,28,29,True,exp2.png,exp1.png,trial_right_image,333.2663908000004,-1,exp1.png,1,exp1.png,exp2.png,1,3,reversed,correct,0.8397163455250728,1,valid_win,233.55246199999965,333.2665907999999,333.88193990000036,11,333.8819557000006,335.6791099000002,,,,,,,,,,,,,,,,,,,,sub_765,2024-12-04_13h48.07.190,Reversal,2023.2.1,60.00229208743871,1,2024-12-04 13h48.19.888603 +0200,
9,exp3.png,exp4.png,,1,0,1,0,0,9,9,9,,,,,,,,,,,,,,,,,,,,,,,,,335.8069980999999,,,,,,,,,,,,335.67935560000024,335.6797041,335.67971709999983,False,29,30,False,exp3.png,exp4.png,trial_right_image,338.66601059999994,-1,exp4.png,1,exp3.png,exp4.png,0,2,non-reversed,incorrect,0.09128783826483733,1,invalid_win,238.95213280000007,338.6662642000001,339.28143809999983,12,339.2814513000003,341.0784874000001,,,,,,,,,,,,,,,,,,,,sub_765,2024-12-04_13h48.07.190,Reversal,2023.2.1,60.00229208743871,1,2024-12-04 13h48.19.888603 +0200,
10,exp1.png,exp2.png,,1,0,1,0,0,10,10,10,,,,,,,,,,,,,,,,,,,,,,,,,341.2161921000006,,,,,,,,,,,,341.07875670000067,341.07908150000003,341.0790943000002,False,30,31,False,exp1.png,exp2.png,trial_right_image,343.2151822000005,-1,exp2.png,1,exp1.png,exp2.png,0,4,reversed,incorrect,0.680524794913212,0,valid_lose,243.50131429999965,343.2154470000005,343.83022080000046,12,343.8302392000005,345.62786010000036,,,,,,,,,,,,,,,,,,,,sub_765,2024-12-04_13h48.07.190,Reversal,2023.2.1,60.00229208743871,1,2024-12-04 13h48.19.888603 +0200,
11,exp3.png,exp4.png,,1,0,1,0,0,11,11,11,,,,,,,,,,,,,,,,,,,,,,,,,345.7583284000002,,,,,,,,,,,,345.6281263999999,345.6285332000007,345.6285723000001,False,31,32,False,exp3.png,exp4.png,trial_left_image,349.1642117000001,1,exp3.png,1,exp3.png,exp4.png,1,1,non-reversed,correct,0.05489714321873118,0,invalid_lose,249.45027019999998,349.16440049999983,349.77932770000007,12,349.77934040000036,351.5773158000002,,,,,,,,,,,,,,,,,,,,sub_765,2024-12-04_13h48.07.190,Reversal,2023.2.1,60.00229208743871,1,2024-12-04 13h48.19.888603 +0200,
12,exp1.png,exp2.png,,1,0,1,0,0,12,12,12,,,,,,,,,,,,,,,,,,,,,,,,,351.7063294999998,,,,,,,,,,,,351.5775816000005,351.5779474000001,351.57796000000053,False,32,33,False,exp1.png,exp2.png,trial_right_image,353.74692550000054,-1,exp2.png,1,exp1.png,exp2.png,0,4,reversed,incorrect,0.3903420400075128,0,valid_lose,254.0330488999998,353.74717969999983,354.3623335000002,12,354.3623556000002,356.1599643999998,,,,,,,,,,,,,,,,,,,,sub_765,2024-12-04_13h48.07.190,Reversal,2023.2.1,60.00229208743871,1,2024-12-04 13h48.19.888603 +0200,
13,exp3.png,exp4.png,,1,0,1,0,0,13,13,13,,,,,,,,,,,,,,,,,,,,,,,,,356.29994070000066,,,,,,,,,,,,356.16029940000044,356.1606937000006,356.1607064,False,33,34,True,exp4.png,exp3.png,trial_right_image,358.37999219999983,-1,exp3.png,1,exp3.png,exp4.png,1,1,non-reversed,correct,0.8245473117724272,1,valid_win,258.66603659999964,358.38016590000007,358.9948924999999,13,358.99490650000007,360.7925264000005,,,,,,,,,,,,,,,,,,,,sub_765,2024-12-04_13h48.07.190,Reversal,2023.2.1,60.00229208743871,1,2024-12-04 13h48.19.888603 +0200,
14,exp1.png,exp2.png,,1,0,1,0,0,14,14,14,,,,,,,,,,,,,,,,,,,,,,,,,360.9266821000001,,,,,,,,,,,,360.7927765000004,360.7930630000001,360.7930737000006,False,34,35,False,exp1.png,exp2.png,trial_left_image,362.9958150000002,1,exp1.png,1,exp1.png,exp2.png,1,3,reversed,correct,0.14148921318139607,0,invalid_lose,263.281935,362.99606829999993,363.61079990000053,13,363.61081319999994,365.40876800000024,,,,,,,,,,,,,,,,,,,,sub_765,2024-12-04_13h48.07.190,Reversal,2023.2.1,60.00229208743871,1,2024-12-04 13h48.19.888603 +0200,
15,exp3.png,exp4.png,,1,0,1,0,0,15,15,15,,,,,,,,,,,,,,,,,,,,,,,,,365.55405430000064,,,,,,,,,,,,365.40903740000067,365.40939210000033,365.4094094000002,False,35,36,True,exp4.png,exp3.png,trial_right_image,367.2819317000003,-1,exp3.png,1,exp3.png,exp4.png,1,1,non-reversed,correct,0.5392808697261056,1,valid_win,267.56810270000005,367.28224899999987,367.8942420000003,14,367.8942554000005,369.69164570000066,,,,,,,,,,,,,,,,,,,,sub_765,2024-12-04_13h48.07.190,Reversal,2023.2.1,60.00229208743871,1,2024-12-04 13h48.19.888603 +0200,
16,exp1.png,exp2.png,,1,0,1,0,0,16,16,16,,,,,,,,,,,,,,,,,,,,,,,,,369.81417800000054,,,,,,,,,,,,369.69192530000055,369.6923821999999,369.69239520000065,False,36,37,False,exp1.png,exp2.png,trial_right_image,372.86099509999985,-1,exp2.png,1,exp1.png,exp2.png,0,4,reversed,incorrect,0.3212747184977939,0,valid_lose,273.14706169999954,372.8611920000003,373.4769516000006,14,373.4769643999998,375.2741286999999,,,,,,,,,,,,,,,,,,,,sub_765,2024-12-04_13h48.07.190,Reversal,2023.2.1,60.00229208743871,1,2024-12-04 13h48.19.888603 +0200,
17,exp3.png,exp4.png,,1,0,1,0,0,17,17,17,,,,,,,,,,,,,,,,,,,,,,,,,375.40815329999987,,,,,,,,,,,,375.27439090000007,375.2748876000005,375.2749021999998,False,37,38,True,exp4.png,exp3.png,trial_right_image,377.0612420000007,-1,exp3.png,1,exp3.png,exp4.png,1,1,non-reversed,correct,0.6261838605251913,1,valid_win,277.3473219999996,377.06145240000023,377.6759726,15,377.67598499999986,379.4737630999998,,,,,,,,,,,,,,,,,,,,sub_765,2024-12-04_13h48.07.190,Reversal,2023.2.1,60.00229208743871,1,2024-12-04 13h48.19.888603 +0200,
18,exp1.png,exp2.png,,1,0,1,0,0,18,18,18,,,,,,,,,,,,,,,,,,,,,,,,,379.61280650000026,,,,,,,,,,,,379.47408630000064,379.4746318000007,379.4746495999998,False,38,39,False,exp1.png,exp2.png,trial_left_image,383.3764196000002,1,exp1.png,1,exp1.png,exp2.png,1,3,reversed,correct,0.4544591140877715,1,valid_win,283.6624824999999,383.376612,383.9916981000006,16,383.9917123000005,385.78936990000057,,,,,,,,,,,,,,,,,,,,sub_765,2024-12-04_13h48.07.190,Reversal,2023.2.1,60.00229208743871,1,2024-12-04 13h48.19.888603 +0200,
19,exp3.png,exp4.png,,1,0,1,0,0,19,19,19,,,,,,,,,,,,,,,,,,,,,,,,,385.93303540000034,,,,,,,,,,,,385.7896545000003,385.7899989000007,385.7900123999998,False,39,40,True,exp4.png,exp3.png,trial_right_image,388.67626819999987,-1,exp3.png,1,exp3.png,exp4.png,1,1,non-reversed,correct,0.7353921943210303,1,valid_win,288.96234579999964,388.6764758999998,389.2915909000003,17,389.2916316000001,391.0887633000002,,,,,,,,,,,,,,,,,,,,sub_765,2024-12-04_13h48.07.190,Reversal,2023.2.1,60.00229208743871,1,2024-12-04 13h48.19.888603 +0200,
20,exp1.png,exp2.png,,1,0,1,0,0,20,20,20,,,,,,,,,,,,,,,,,,,,,,,,,391.2733795000004,,,,,,,,,,,,391.0890113000005,391.08932970000023,391.08934210000007,True,,,,,,,391.1584606000006,,,,,,,,,,,,,,391.15847530000065,391.1737658000002,,391.17378069999995,391.1919310000003,,,,,,,,,,,,,,,,,,,,sub_765,2024-12-04_13h48.07.190,Reversal,2023.2.1,60.00229208743871,1,2024-12-04 13h48.19.888603 +0200,
,,,exp1.png,1,0,1,0,,,,,0,0,0,0,0,0,0,0,,,,,,,,,,,,,,,,,391.2733795000004,,,,,,,,,,,,,,,,,,,,,,,,,,,,,,,,,,,,,,,,,391.1997332000001,391.2733795000004,396.4092178000001,100.0,100.0,3.550046199999997,"[(100.0, 3.550046199999997)]",,,,,,,,,,,,,sub_765,2024-12-04_13h48.07.190,Reversal,2023.2.1,60.00229208743871,1,2024-12-04 13h48.19.888603 +0200,
,,,exp2.png,1,0,1,0,,,,,0,0,0,0,0,1,1,1,,,,,,,,,,,,,,,,,396.4666885000006,,,,,,,,,,,,,,,,,,,,,,,,,,,,,,,,,,,,,,,,,396.40975230000004,396.4666885000006,402.7082515000002,,100.0,5.0415632000003825,"[(100.0, 5.0415632000003825)]",,,100.0,,,,,,,,,,sub_765,2024-12-04_13h48.07.190,Reversal,2023.2.1,60.00229208743871,1,2024-12-04 13h48.19.888603 +0200,
,,,exp3.png,1,0,1,0,,,,,0,0,0,0,0,2,2,2,,,,,,,,,,,,,,,,,402.7644596,,,,,,,,,,,,,,,,,,,,,,,,,,,,,,,,,,,,,,,,,402.7086167000007,402.7644596,407.8086129000003,,100.0,2.096451999999772,"[(100.0, 2.096451999999772)]",100.0,,,,,,,,,,,,sub_765,2024-12-04_13h48.07.190,Reversal,2023.2.1,60.00229208743871,1,2024-12-04 13h48.19.888603 +0200,
,,,exp4.png,1,0,1,0,,,,,0,0,0,0,0,3,3,3,,,,,,,,,,,,,,,,,407.8742309999998,,,,,,,,,,,,,,,,,,,,,,,,,,,,,,,,,,,,,,,,,407.8092256,407.8742309999998,411.2584856000003,,100.0,2.202885500000775,"[(100.0, 2.202885500000775)]",,100.0,,,,,,,,,,,sub_765,2024-12-04_13h48.07.190,Reversal,2023.2.1,60.00229208743871,1,2024-12-04 13h48.19.888603 +0200,
0,exp1.png,exp2.png,,2,0,2,0,0,0,0,0,,,,,,,,,,,,,,,,,,,,,,,,,411.4378439000002,,,,,,,,,,,,411.2678630999999,411.26850809999996,411.2685485000002,False,40,41,False,exp1.png,exp2.png,trial_left_image,415.1558057000002,1,exp1.png,1,exp1.png,exp2.png,1,3,reversed,correct,0.6357402394456891,1,valid_win,315.44194139999945,415.1560773000001,415.7709112000002,18,415.7709340000001,417.56884700000046,,,,,,,,,,,,,,,,,,,,sub_765,2024-12-04_13h48.07.190,Reversal,2023.2.1,60.00229208743871,1,2024-12-04 13h48.19.888603 +0200,
1,exp3.png,exp4.png,,2,0,2,0,0,1,1,1,,,,,,,,,,,,,,,,,,,,,,,,,417.69862009999997,,,,,,,,,,,,417.5691577000007,417.56962100000055,417.56963300000007,False,41,42,False,exp3.png,exp4.png,trial_right_image,419.68928380000034,-1,exp4.png,1,exp3.png,exp4.png,0,2,non-reversed,incorrect,0.47692773558745627,0,valid_lose,319.97542089999934,419.68956030000027,420.30444330000046,18,420.3044668000002,422.10154349999993,,,,,,,,,,,,,,,,,,,,sub_765,2024-12-04_13h48.07.190,Reversal,2023.2.1,60.00229208743871,1,2024-12-04 13h48.19.888603 +0200,
2,exp1.png,exp2.png,,2,0,2,0,0,2,2,2,,,,,,,,,,,,,,,,,,,,,,,,,422.22272800000064,,,,,,,,,,,,422.1018253000002,422.1023146000007,422.1023302000003,False,42,43,True,exp2.png,exp1.png,trial_right_image,426.7883966999998,-1,exp1.png,1,exp1.png,exp2.png,1,3,reversed,correct,0.9645826062018141,1,valid_win,327.0745174999993,426.7886497999998,427.4029203,19,427.4029399000001,429.2006473000001,,,,,,,,,,,,,,,,,,,,sub_765,2024-12-04_13h48.07.190,Reversal,2023.2.1,60.00229208743871,1,2024-12-04 13h48.19.888603 +0200,
3,exp3.png,exp4.png,,2,0,2,0,0,3,3,3,,,,,,,,,,,,,,,,,,,,,,,,,429.36639000000014,,,,,,,,,,,,429.20100920000004,429.20138170000064,429.20139259999996,False,43,44,True,exp4.png,exp3.png,trial_left_image,432.2542271000002,1,exp4.png,1,exp3.png,exp4.png,0,2,non-reversed,incorrect,0.05575293829607153,1,invalid_win,332.5402832,432.2544128999998,432.8694499000003,20,432.8694675000006,434.6664265999998,,,,,,,,,,,,,,,,,,,,sub_765,2024-12-04_13h48.07.190,Reversal,2023.2.1,60.00229208743871,1,2024-12-04 13h48.19.888603 +0200,
4,exp1.png,exp2.png,,2,0,2,0,0,4,4,4,,,,,,,,,,,,,,,,,,,,,,,,,434.80182550000063,,,,,,,,,,,,434.66668260000006,434.66699620000054,434.6670087000002,False,44,45,True,exp2.png,exp1.png,trial_right_image,437.33612390000053,-1,exp1.png,1,exp1.png,exp2.png,1,3,reversed,correct,0.4469519487207593,1,valid_win,337.6221888,437.33631909999986,437.95142080000005,21,437.9514358000006,439.7492557000005,,,,,,,,,,,,,,,,,,,,sub_765,2024-12-04_13h48.07.190,Reversal,2023.2.1,60.00229208743871,1,2024-12-04 13h48.19.888603 +0200,
5,exp3.png,exp4.png,,2,0,2,0,0,5,5,5,,,,,,,,,,,,,,,,,,,,,,,,,439.8758407000005,,,,,,,,,,,,439.7495325,439.74991839999984,439.7499329000002,False,45,46,False,exp3.png,exp4.png,trial_left_image,442.5190671999999,1,exp3.png,1,exp3.png,exp4.png,1,1,non-reversed,correct,0.6742550868437108,1,valid_win,342.80521189999945,442.51934660000006,443.13424790000045,22,443.13426119999986,444.93199150000055,,,,,,,,,,,,,,,,,,,,sub_765,2024-12-04_13h48.07.190,Reversal,2023.2.1,60.00229208743871,1,2024-12-04 13h48.19.888603 +0200,
6,exp1.png,exp2.png,,2,0,2,0,0,6,6,6,,,,,,,,,,,,,,,,,,,,,,,,,445.05778720000035,,,,,,,,,,,,444.9322656000004,444.93263209999986,444.9326455999999,False,46,47,True,exp2.png,exp1.png,trial_right_image,447.2517521,-1,exp1.png,1,exp1.png,exp2.png,1,3,reversed,correct,0.8035199172961943,1,valid_win,347.53787289999946,447.25200510000013,447.8671112000002,23,447.86712650000027,449.66455170000063,,,,,,,,,,,,,,,,,,,,sub_765,2024-12-04_13h48.07.190,Reversal,2023.2.1,60.00229208743871,1,2024-12-04 13h48.19.888603 +0200,
7,exp3.png,exp4.png,,2,0,2,0,0,7,7,7,,,,,,,,,,,,,,,,,,,,,,,,,449.78680669999994,,,,,,,,,,,,449.66482820000056,449.6651544000006,449.66516709999996,False,47,48,False,exp3.png,exp4.png,trial_left_image,452.18530499999997,1,exp3.png,1,exp3.png,exp4.png,1,1,non-reversed,correct,0.7155574701123207,1,valid_win,352.47137569999995,452.1855131000002,452.7995574000006,24,452.7995711000003,454.59719980000045,,,,,,,,,,,,,,,,,,,,sub_765,2024-12-04_13h48.07.190,Reversal,2023.2.1,60.00229208743871,1,2024-12-04 13h48.19.888603 +0200,
8,exp1.png,exp2.png,,2,0,2,0,0,8,8,8,,,,,,,,,,,,,,,,,,,,,,,,,454.7183750000004,,,,,,,,,,,,454.59744709999995,454.5977552000004,454.59776880000027,False,48,49,True,exp2.png,exp1.png,trial_right_image,456.6504716999998,-1,exp1.png,1,exp1.png,exp2.png,1,3,reversed,correct,0.9746915146453106,1,valid_win,356.93655089999993,456.65068130000054,457.2658912000006,25,457.2659193999998,459.06347970000024,,,,,,,,,,,,,,,,,,,,sub_765,2024-12-04_13h48.07.190,Reversal,2023.2.1,60.00229208743871,1,2024-12-04 13h48.19.888603 +0200,
9,exp3.png,exp4.png,,2,0,2,0,0,9,9,9,,,,,,,,,,,,,,,,,,,,,,,,,459.18424740000046,,,,,,,,,,,,459.063752,459.06411579999985,459.06412940000064,False,49,50,False,exp3.png,exp4.png,trial_left_image,461.2501621000001,1,exp3.png,1,exp3.png,exp4.png,1,1,non-reversed,correct,0.5366026516362928,1,valid_win,361.53624089999994,461.2503719000006,461.86540479999985,26,461.86542009999994,463.6628399000001,,,,,,,,,,,,,,,,,,,,sub_765,2024-12-04_13h48.07.190,Reversal,2023.2.1,60.00229208743871,1,2024-12-04 13h48.19.888603 +0200,
10,exp1.png,exp2.png,,2,0,2,0,0,10,10,10,,,,,,,,,,,,,,,,,,,,,,,,,463.7904529000007,,,,,,,,,,,,463.6631161000005,463.6634926000006,463.6635062000005,False,50,51,True,exp2.png,exp1.png,trial_right_image,465.59918780000044,-1,exp1.png,1,exp1.png,exp2.png,1,3,reversed,correct,0.12298977480207185,0,invalid_lose,365.88530919999994,465.59944300000006,466.21514149999985,26,466.21515480000016,468.01231330000064,,,,,,,,,,,,,,,,,,,,sub_765,2024-12-04_13h48.07.190,Reversal,2023.2.1,60.00229208743871,1,2024-12-04 13h48.19.888603 +0200,
11,exp3.png,exp4.png,,2,0,2,0,0,11,11,11,,,,,,,,,,,,,,,,,,,,,,,,,468.1363747000005,,,,,,,,,,,,468.0125717000001,468.0128977000004,468.0129101000002,False,51,52,False,exp3.png,exp4.png,trial_right_image,470.5152738000006,-1,exp4.png,1,exp3.png,exp4.png,0,2,non-reversed,incorrect,0.7744174870122961,0,valid_lose,370.8013248999996,470.5154545000005,471.13137390000065,26,471.1313878000001,472.92826980000063,,,,,,,,,,,,,,,,,,,,sub_765,2024-12-04_13h48.07.190,Reversal,2023.2.1,60.00229208743871,1,2024-12-04 13h48.19.888603 +0200,
12,exp1.png,exp2.png,,2,0,2,0,0,12,12,12,,,,,,,,,,,,,,,,,,,,,,,,,473.0458241000006,,,,,,,,,,,,472.9285101000005,472.92884349999986,472.9288555000003,False,52,53,True,exp2.png,exp1.png,trial_left_image,479.26419410000017,1,exp2.png,1,exp1.png,exp2.png,0,4,reversed,incorrect,0.7302547251162765,0,valid_lose,379.5502526,479.2643824000006,479.8798624000001,26,479.87988720000067,481.6772823000001,,,,,,,,,,,,,,,,,,,,sub_765,2024-12-04_13h48.07.190,Reversal,2023.2.1,60.00229208743871,1,2024-12-04 13h48.19.888603 +0200,
13,exp3.png,exp4.png,,2,0,2,0,0,13,13,13,,,,,,,,,,,,,,,,,,,,,,,,,481.80755990000034,,,,,,,,,,,,481.6775582999999,481.6779440999999,481.6779581999999,False,53,54,False,exp3.png,exp4.png,trial_right_image,484.81343860000015,-1,exp4.png,1,exp3.png,exp4.png,0,2,non-reversed,incorrect,0.1675712325655574,1,invalid_win,385.09951999999976,484.81365430000005,485.42904550000003,27,485.4290593000005,487.22648200000003,,,,,,,,,,,,,,,,,,,,sub_765,2024-12-04_13h48.07.190,Reversal,2023.2.1,60.00229208743871,1,2024-12-04 13h48.19.888603 +0200,
14,exp1.png,exp2.png,,2,0,2,0,0,14,14,14,,,,,,,,,,,,,,,,,,,,,,,,,487.3511417999998,,,,,,,,,,,,487.2267378000006,487.2270735000002,487.2270892000006,False,54,55,False,exp1.png,exp2.png,trial_left_image,489.8961552999999,1,exp1.png,1,exp1.png,exp2.png,1,3,reversed,correct,0.233896645385947,0,invalid_lose,390.18222779999996,489.89635760000056,490.5120474000005,27,490.5120661000001,492.30920849999984,,,,,,,,,,,,,,,,,,,,sub_765,2024-12-04_13h48.07.190,Reversal,2023.2.1,60.00229208743871,1,2024-12-04 13h48.19.888603 +0200,
15,exp3.png,exp4.png,,2,0,2,0,0,15,15,15,,,,,,,,,,,,,,,,,,,,,,,,,492.4314011000006,,,,,,,,,,,,492.3094516000001,492.30981750000046,492.309835,False,55,56,True,exp4.png,exp3.png,trial_right_image,499.4614947,-1,exp3.png,1,exp3.png,exp4.png,1,1,non-reversed,correct,0.45680056731633156,1,valid_win,399.74756609999986,499.4616956,500.07765240000026,28,500.0776801000002,501.87476380000044,,,,,,,,,,,,,,,,,,,,sub_765,2024-12-04_13h48.07.190,Reversal,2023.2.1,60.00229208743871,1,2024-12-04 13h48.19.888603 +0200,
16,exp1.png,exp2.png,,2,0,2,0,0,16,16,16,,,,,,,,,,,,,,,,,,,,,,,,,502.0279433000005,,,,,,,,,,,,501.87504309999986,501.87545039999986,501.87546360000033,False,56,57,True,exp2.png,exp1.png,trial_right_image,504.44409760000053,-1,exp1.png,1,exp1.png,exp2.png,1,3,reversed,correct,0.19228025392686954,0,invalid_lose,404.73027659999934,504.44440790000044,505.06007240000054,28,505.06008569999995,506.8572713000003,,,,,,,,,,,,,,,,,,,,sub_765,2024-12-04_13h48.07.190,Reversal,2023.2.1,60.00229208743871,1,2024-12-04 13h48.19.888603 +0200,
17,exp3.png,exp4.png,,2,0,2,0,0,17,17,17,,,,,,,,,,,,,,,,,,,,,,,,,506.9957965000003,,,,,,,,,,,,506.85752870000033,506.8578518000004,506.8578636000002,False,57,58,False,exp3.png,exp4.png,trial_left_image,509.6770621000005,1,exp3.png,1,exp3.png,exp4.png,1,1,non-reversed,correct,0.955967465468162,1,valid_win,409.96314859999984,509.6772795000006,510.29231450000043,29,510.29232890000003,512.0900466000003,,,,,,,,,,,,,,,,,,,,sub_765,2024-12-04_13h48.07.190,Reversal,2023.2.1,60.00229208743871,1,2024-12-04 13h48.19.888603 +0200,
18,exp1.png,exp2.png,,2,0,2,0,0,18,18,18,,,,,,,,,,,,,,,,,,,,,,,,,512.2188672000002,,,,,,,,,,,,512.0903079999998,512.0906665000002,512.0906943,False,58,59,False,exp1.png,exp2.png,trial_right_image,515.7095989,-1,exp2.png,1,exp1.png,exp2.png,0,4,reversed,incorrect,0.6998868246217199,0,valid_lose,415.99568289999934,515.7098136000004,516.3247605000006,29,516.3247746000006,518.1226477,,,,,,,,,,,,,,,,,,,,sub_765,2024-12-04_13h48.07.190,Reversal,2023.2.1,60.00229208743871,1,2024-12-04 13h48.19.888603 +0200,
19,exp3.png,exp4.png,,2,0,2,0,0,19,19,19,,,,,,,,,,,,,,,,,,,,,,,,,518.2517091999998,,,,,,,,,,,,518.1229370000001,518.1234074000004,518.1234315000002,False,59,60,True,exp4.png,exp3.png,trial_left_image,520.958748,1,exp4.png,1,exp3.png,exp4.png,0,2,non-reversed,incorrect,0.09537240443090633,1,invalid_win,421.2447953000001,520.9589249,521.5746227999998,30,521.5746371000005,523.3719947999998,,,,,,,,,,,,,,,,,,,,sub_765,2024-12-04_13h48.07.190,Reversal,2023.2.1,60.00229208743871,1,2024-12-04 13h48.19.888603 +0200,
20,exp1.png,exp2.png,,2,0,2,0,0,20,20,20,,,,,,,,,,,,,,,,,,,,,,,,,523.5578272000002,,,,,,,,,,,,523.3722515999998,523.3726156000002,523.3726293,True,,,,,,,523.4535844000002,,,,,,,,,,,,,,523.4536001000006,523.4688603000004,,523.4688759000001,523.4869980000003,,,,,,,,,,,,,,,,,,,,sub_765,2024-12-04_13h48.07.190,Reversal,2023.2.1,60.00229208743871,1,2024-12-04 13h48.19.888603 +0200,
,,,exp1.png,2,0,2,0,,,,,0,0,0,0,0,0,0,0,,,,,,,,,,,,,,,,,523.5578272000002,,,,,,,,,,,,,,,,,,,,,,,,,,,,,,,,,,,,,,,,,523.4921696000001,523.5578272000002,529.2585862000005,100.0,100.0,3.943387100000109,"[(100.0, 3.943387100000109)]",,,,,,,,,,,,,sub_765,2024-12-04_13h48.07.190,Reversal,2023.2.1,60.00229208743871,1,2024-12-04 13h48.19.888603 +0200,
,,,exp2.png,2,0,2,0,,,,,0,0,0,0,0,1,1,1,,,,,,,,,,,,,,,,,529.3145165000005,,,,,,,,,,,,,,,,,,,,,,,,,,,,,,,,,,,,,,,,,529.2590614999999,529.3145165000005,533.6922500000001,,100.0,2.9614605000006122,"[(100.0, 2.9614605000006122)]",,,100.0,,,,,,,,,,sub_765,2024-12-04_13h48.07.190,Reversal,2023.2.1,60.00229208743871,1,2024-12-04 13h48.19.888603 +0200,
,,,exp3.png,2,0,2,0,,,,,0,0,0,0,0,2,2,2,,,,,,,,,,,,,,,,,533.7647207,,,,,,,,,,,,,,,,,,,,,,,,,,,,,,,,,,,,,,,,,533.6926887999998,533.7647207,543.2067076000003,,100.0,8.296166699999958,"[(100.0, 8.296166699999958)]",100.0,,,,,,,,,,,,sub_765,2024-12-04_13h48.07.190,Reversal,2023.2.1,60.00229208743871,1,2024-12-04 13h48.19.888603 +0200,
,,,exp4.png,2,0,2,0,,,,,0,0,0,0,0,3,3,3,,,,,,,,,,,,,,,,,543.2643183,,,,,,,,,,,,,,,,,,,,,,,,,,,,,,,,,,,,,,,,,543.2071107000002,543.2643183,546.9897439000006,,100.0,2.4263691000005565,"[(100.0, 2.4263691000005565)]",,100.0,,,,,,,,,,,sub_765,2024-12-04_13h48.07.190,Reversal,2023.2.1,60.00229208743871,1,2024-12-04 13h48.19.888603 +0200,
0,exp1.png,exp2.png,,3,0,3,0,0,0,0,0,,,,,,,,,,,,,,,,,,,,,,,,,547.1313872999999,,,,,,,,,,,,546.9964612000003,546.9970878000004,546.9971018000006,False,60,61,True,exp2.png,exp1.png,trial_right_image,550.1384957,-1,exp1.png,1,exp1.png,exp2.png,1,3,reversed,correct,0.5012990039951942,1,valid_win,450.4245633999999,550.1386935,550.7536412999998,31,550.7536561000006,552.5514025000002,,,,,,,,,,,,,,,,,,,,sub_765,2024-12-04_13h48.07.190,Reversal,2023.2.1,60.00229208743871,1,2024-12-04 13h48.19.888603 +0200,
1,exp3.png,exp4.png,,3,0,3,0,0,1,1,1,,,,,,,,,,,,,,,,,,,,,,,,,552.6740346000006,,,,,,,,,,,,552.5516695000006,552.5520580000002,552.5520725000006,False,61,62,True,exp4.png,exp3.png,trial_left_image,554.9222319,1,exp4.png,1,exp3.png,exp4.png,0,2,non-reversed,incorrect,0.2825735061131508,0,valid_lose,455.20829349999985,554.9224236,555.5364690000006,31,555.5364817,557.3343574999999,,,,,,,,,,,,,,,,,,,,sub_765,2024-12-04_13h48.07.190,Reversal,2023.2.1,60.00229208743871,1,2024-12-04 13h48.19.888603 +0200,
2,exp1.png,exp2.png,,3,0,3,0,0,2,2,2,,,,,,,,,,,,,,,,,,,,,,,,,557.4799628999999,,,,,,,,,,,,557.3346466000003,557.3349962000002,557.3350077000005,False,62,63,False,exp1.png,exp2.png,trial_right_image,559.0886466000002,-1,exp2.png,1,exp1.png,exp2.png,0,4,reversed,incorrect,0.547155495652792,0,valid_lose,459.3748891999994,559.0890273000005,559.7037293000003,31,559.7037455,561.5003572000005,,,,,,,,,,,,,,,,,,,,sub_765,2024-12-04_13h48.07.190,Reversal,2023.2.1,60.00229208743871,1,2024-12-04 13h48.19.888603 +0200,
3,exp3.png,exp4.png,,3,0,3,0,0,3,3,3,,,,,,,,,,,,,,,,,,,,,,,,,561.6241872999999,,,,,,,,,,,,561.5006266,561.5009534000001,561.5009692000003,False,63,64,False,exp3.png,exp4.png,trial_right_image,563.1044419,-1,exp4.png,1,exp3.png,exp4.png,0,2,non-reversed,incorrect,0.6866044471421591,0,valid_lose,463.3905154999993,563.1046454000007,563.7190762999999,31,563.7191499,565.5166096000003,,,,,,,,,,,,,,,,,,,,sub_765,2024-12-04_13h48.07.190,Reversal,2023.2.1,60.00229208743871,1,2024-12-04 13h48.19.888603 +0200,
4,exp1.png,exp2.png,,3,0,3,0,0,4,4,4,,,,,,,,,,,,,,,,,,,,,,,,,565.6431576000004,,,,,,,,,,,,565.5168889000006,565.5172583000003,565.5172722000007,False,64,65,True,exp2.png,exp1.png,trial_right_image,567.1698267000002,-1,exp1.png,1,exp1.png,exp2.png,1,3,reversed,correct,0.6680357507767778,1,valid_win,467.45589199999995,567.1700220000002,567.7848717000006,32,567.7848855000002,569.5829988000005,,,,,,,,,,,,,,,,,,,,sub_765,2024-12-04_13h48.07.190,Reversal,2023.2.1,60.00229208743871,1,2024-12-04 13h48.19.888603 +0200,
5,exp3.png,exp4.png,,3,0,3,0,0,5,5,5,,,,,,,,,,,,,,,,,,,,,,,,,569.7004797999998,,,,,,,,,,,,569.5833202000003,569.5836958,569.5837104000002,False,65,66,False,exp3.png,exp4.png,trial_right_image,572.6689305,-1,exp4.png,1,exp3.png,exp4.png,0,2,non-reversed,incorrect,0.05005100625263781,1,invalid_win,472.95499800000016,572.6691292000005,573.2841849000006,33,573.2841975000001,575.0819071000005,,,,,,,,,,,,,,,,,,,,sub_765,2024-12-04_13h48.07.190,Reversal,2023.2.1,60.00229208743871,1,2024-12-04 13h48.19.888603 +0200,
6,exp1.png,exp2.png,,3,0,3,0,0,6,6,6,,,,,,,,,,,,,,,,,,,,,,,,,575.2094457000003,,,,,,,,,,,,575.0821522000006,575.0824905,575.0825036000006,False,66,67,False,exp1.png,exp2.png,trial_right_image,576.9351375000006,-1,exp2.png,1,exp1.png,exp2.png,0,4,reversed,incorrect,0.876897194738748,0,valid_lose,477.2211850999993,576.9353140000003,577.5508974000004,33,577.5509114000006,579.3481017000004,,,,,,,,,,,,,,,,,,,,sub_765,2024-12-04_13h48.07.190,Reversal,2023.2.1,60.00229208743871,1,2024-12-04 13h48.19.888603 +0200,
7,exp3.png,exp4.png,,3,0,3,0,0,7,7,7,,,,,,,,,,,,,,,,,,,,,,,,,579.4780472000002,,,,,,,,,,,,579.3483881000002,579.3488354000001,579.3488493000004,False,67,68,True,exp4.png,exp3.png,trial_left_image,582.2178786000004,1,exp4.png,1,exp3.png,exp4.png,0,2,non-reversed,incorrect,0.7348921886003814,0,valid_lose,482.5039461999995,582.2180816999999,582.8330629000002,33,582.8330765999999,584.6309400999999,,,,,,,,,,,,,,,,,,,,sub_765,2024-12-04_13h48.07.190,Reversal,2023.2.1,60.00229208743871,1,2024-12-04 13h48.19.888603 +0200,
8,exp1.png,exp2.png,,3,0,3,0,0,8,8,8,,,,,,,,,,,,,,,,,,,,,,,,,584.7599774,,,,,,,,,,,,584.6312286000002,584.6316399000007,584.6316549000003,False,68,69,False,exp1.png,exp2.png,trial_right_image,586.4005825000004,-1,exp2.png,1,exp1.png,exp2.png,0,4,reversed,incorrect,0.3520921612279694,0,valid_lose,486.6866960999996,586.4008263000005,587.0166337999999,33,587.016646,588.8137259000005,,,,,,,,,,,,,,,,,,,,sub_765,2024-12-04_13h48.07.190,Reversal,2023.2.1,60.00229208743871,1,2024-12-04 13h48.19.888603 +0200,
9,exp3.png,exp4.png,,3,0,3,0,0,9,9,9,,,,,,,,,,,,,,,,,,,,,,,,,588.9473905000004,,,,,,,,,,,,588.8140128000005,588.8144117000002,588.8144239000003,False,69,70,True,exp4.png,exp3.png,trial_left_image,592.0502795000002,1,exp4.png,1,exp3.png,exp4.png,0,2,non-reversed,incorrect,0.31211177632728326,0,valid_lose,492.3363442,592.0504809000004,592.6651030000003,33,592.6651222999999,594.4629043000004,,,,,,,,,,,,,,,,,,,,sub_765,2024-12-04_13h48.07.190,Reversal,2023.2.1,60.00229208743871,1,2024-12-04 13h48.19.888603 +0200,
10,exp1.png,exp2.png,,3,0,3,0,0,10,10,10,,,,,,,,,,,,,,,,,,,,,,,,,594.5945876000005,,,,,,,,,,,,594.4632406999999,594.4636244000003,594.4636380000002,False,70,71,False,exp1.png,exp2.png,trial_right_image,597.5658389,-1,exp2.png,1,exp1.png,exp2.png,0,4,reversed,incorrect,0.6082701328248977,0,valid_lose,497.85191510000004,597.5660450000005,598.1816735000002,33,598.1816880000006,599.9787842000005,,,,,,,,,,,,,,,,,,,,sub_765,2024-12-04_13h48.07.190,Reversal,2023.2.1,60.00229208743871,1,2024-12-04 13h48.19.888603 +0200,
11,exp3.png,exp4.png,,3,0,3,0,0,11,11,11,,,,,,,,,,,,,,,,,,,,,,,,,600.1055483,,,,,,,,,,,,599.9790931000007,599.9794996999999,599.9795132999998,False,71,72,True,exp4.png,exp3.png,trial_left_image,603.6325244999998,1,exp4.png,1,exp3.png,exp4.png,0,2,non-reversed,incorrect,0.4481528864284612,0,valid_lose,503.91863419999936,603.6327683999998,604.2470213000006,33,604.2470350000003,606.0448765000001,,,,,,,,,,,,,,,,,,,,sub_765,2024-12-04_13h48.07.190,Reversal,2023.2.1,60.00229208743871,1,2024-12-04 13h48.19.888603 +0200,
12,exp1.png,exp2.png,,3,0,3,0,0,12,12,12,,,,,,,,,,,,,,,,,,,,,,,,,606.1879207000002,,,,,,,,,,,,606.0451590000002,606.0455525000007,606.0455674000004,False,72,73,True,exp2.png,exp1.png,trial_right_image,607.8143835999999,-1,exp1.png,1,exp1.png,exp2.png,1,3,reversed,correct,0.6860842948810443,1,valid_win,508.10045639999953,607.8145869999998,608.4298224000004,34,608.4298355999999,610.2274969999999,,,,,,,,,,,,,,,,,,,,sub_765,2024-12-04_13h48.07.190,Reversal,2023.2.1,60.00229208743871,1,2024-12-04 13h48.19.888603 +0200,
13,exp3.png,exp4.png,,3,0,3,0,0,13,13,13,,,,,,,,,,,,,,,,,,,,,,,,,610.3648755000004,,,,,,,,,,,,610.2277862999999,610.2280994000002,610.2281172000003,False,73,74,True,exp4.png,exp3.png,trial_right_image,613.8469412000004,-1,exp3.png,1,exp3.png,exp4.png,1,1,non-reversed,correct,0.6287246041700784,1,valid_win,514.1331049999999,613.8472381000001,614.4623993000005,35,614.4624125,616.2601701000003,,,,,,,,,,,,,,,,,,,,sub_765,2024-12-04_13h48.07.190,Reversal,2023.2.1,60.00229208743871,1,2024-12-04 13h48.19.888603 +0200,
14,exp1.png,exp2.png,,3,0,3,0,0,14,14,14,,,,,,,,,,,,,,,,,,,,,,,,,616.3943221999998,,,,,,,,,,,,616.2605054000005,616.2609659,616.261015,False,74,75,False,exp1.png,exp2.png,trial_right_image,617.9963329000002,-1,exp2.png,1,exp1.png,exp2.png,0,4,reversed,incorrect,0.1852168868847981,1,invalid_win,518.2824056999998,617.9965358999998,618.6118839000001,36,618.6118998000002,620.4096256000003,,,,,,,,,,,,,,,,,,,,sub_765,2024-12-04_13h48.07.190,Reversal,2023.2.1,60.00229208743871,1,2024-12-04 13h48.19.888603 +0200,
15,exp3.png,exp4.png,,3,0,3,0,0,15,15,15,,,,,,,,,,,,,,,,,,,,,,,,,620.5348977000003,,,,,,,,,,,,620.4099432000003,620.4103036000006,620.4103173000003,False,75,76,True,exp4.png,exp3.png,trial_right_image,622.0626505,-1,exp3.png,1,exp3.png,exp4.png,1,1,non-reversed,correct,0.17757304584261258,0,invalid_lose,522.3488045999993,622.0629395000005,622.6784689000006,36,622.6784828,624.4756127999999,,,,,,,,,,,,,,,,,,,,sub_765,2024-12-04_13h48.07.190,Reversal,2023.2.1,60.00229208743871,1,2024-12-04 13h48.19.888603 +0200,
16,exp1.png,exp2.png,,3,0,3,0,0,16,16,16,,,,,,,,,,,,,,,,,,,,,,,,,624.5909515000003,,,,,,,,,,,,624.4758707999999,624.4761675999998,624.4761801000004,False,76,77,True,exp2.png,exp1.png,trial_left_image,627.4952367000005,1,exp2.png,1,exp1.png,exp2.png,0,4,reversed,incorrect,0.8279081798797854,0,valid_lose,527.7813109999997,627.4954415000002,628.1105799000006,36,628.1106040000004,629.9082131000005,,,,,,,,,,,,,,,,,,,,sub_765,2024-12-04_13h48.07.190,Reversal,2023.2.1,60.00229208743871,1,2024-12-04 13h48.19.888603 +0200,
17,exp3.png,exp4.png,,3,0,3,0,0,17,17,17,,,,,,,,,,,,,,,,,,,,,,,,,630.0402371999999,,,,,,,,,,,,629.9084659,629.9087982000001,629.9088103000004,False,77,78,False,exp3.png,exp4.png,trial_right_image,631.9781441000005,-1,exp4.png,1,exp3.png,exp4.png,0,2,non-reversed,incorrect,0.9111998757270207,0,valid_lose,532.2642884999996,631.9784231000003,632.5933667999998,36,632.5933855000003,634.3910955000001,,,,,,,,,,,,,,,,,,,,sub_765,2024-12-04_13h48.07.190,Reversal,2023.2.1,60.00229208743871,1,2024-12-04 13h48.19.888603 +0200,
18,exp1.png,exp2.png,,3,0,3,0,0,18,18,18,,,,,,,,,,,,,,,,,,,,,,,,,634.5294164000006,,,,,,,,,,,,634.3913884000003,634.3917946000001,634.3918156999998,False,78,79,False,exp1.png,exp2.png,trial_left_image,637.5938641000002,1,exp1.png,1,exp1.png,exp2.png,1,3,reversed,correct,0.13382669263906466,0,invalid_lose,537.8800056,637.5941415000007,638.2092352999998,36,638.2092501000006,640.0074481000001,,,,,,,,,,,,,,,,,,,,sub_765,2024-12-04_13h48.07.190,Reversal,2023.2.1,60.00229208743871,1,2024-12-04 13h48.19.888603 +0200,
19,exp3.png,exp4.png,,3,0,3,0,0,19,19,19,,,,,,,,,,,,,,,,,,,,,,,,,640.1554686,,,,,,,,,,,,640.0078758999998,640.0083728,640.0083939000006,False,79,80,False,exp3.png,exp4.png,trial_right_image,641.7934712000006,-1,exp4.png,1,exp3.png,exp4.png,0,2,non-reversed,incorrect,0.6917318636685499,0,valid_lose,542.0795596999997,641.7936970000001,642.4093051,36,642.4093247000001,644.2067520999999,,,,,,,,,,,,,,,,,,,,sub_765,2024-12-04_13h48.07.190,Reversal,2023.2.1,60.00229208743871,1,2024-12-04 13h48.19.888603 +0200,
20,exp1.png,exp2.png,,3,0,3,0,0,20,20,20,,,,,,,,,,,,,,,,,,,,,,,,,644.4104707000006,,,,,,,,,,,,644.2071063000003,644.2074728000007,644.2074935999999,True,,,,,,,644.2884542000002,,,,,,,,,,,,,,644.2884705000006,644.3033850000002,,644.3034017999998,644.3376727000004,,,,,,,,,,,,,,,,,,,,sub_765,2024-12-04_13h48.07.190,Reversal,2023.2.1,60.00229208743871,1,2024-12-04 13h48.19.888603 +0200,
,,,exp1.png,3,0,3,0,,,,,0,0,0,0,0,0,0,0,,,,,,,,,,,,,,,,,644.4104707000006,,,,,,,,,,,,,,,,,,,,,,,,,,,,,,,,,,,,,,,,,644.3425783000002,644.4104707000006,648.5604958000004,100.0,100.0,2.8765368000003946,"[(100.0, 2.8765368000003946)]",,,,,,,,,,,,,sub_765,2024-12-04_13h48.07.190,Reversal,2023.2.1,60.00229208743871,1,2024-12-04 13h48.19.888603 +0200,
,,,exp2.png,3,0,3,0,,,,,0,0,0,0,0,1,1,1,,,,,,,,,,,,,,,,,648.6280930000003,,,,,,,,,,,,,,,,,,,,,,,,,,,,,,,,,,,,,,,,,648.5611122,648.6280930000003,651.6599728000001,,100.0,1.7681525999996666,"[(100.0, 1.7681525999996666)]",,,100.0,,,,,,,,,,sub_765,2024-12-04_13h48.07.190,Reversal,2023.2.1,60.00229208743871,1,2024-12-04 13h48.19.888603 +0200,
,,,exp3.png,3,0,3,0,,,,,0,0,0,0,0,2,2,2,,,,,,,,,,,,,,,,,651.7181565999999,,,,,,,,,,,,,,,,,,,,,,,,,,,,,,,,,,,,,,,,,651.6604244999999,651.7181565999999,661.8590604000001,,1.0,8.991141100000277,"[(1.0, 8.991141100000277)]",1.0,,,,,,,,,,,,sub_765,2024-12-04_13h48.07.190,Reversal,2023.2.1,60.00229208743871,1,2024-12-04 13h48.19.888603 +0200,
,,,exp4.png,3,0,3,0,,,,,0,0,0,0,0,3,3,3,,,,,,,,,,,,,,,,,661.9197623,,,,,,,,,,,,,,,,,,,,,,,,,,,,,,,,,,,,,,,,,661.8595974999998,661.9197623,665.1247022000007,,1.0,1.924517299999934,"[(1.0, 1.924517299999934)]",,1.0,,,,,,,,,,,sub_765,2024-12-04_13h48.07.190,Reversal,2023.2.1,60.00229208743871,1,2024-12-04 13h48.19.888603 +0200,
0,exp1.png,exp2.png,,,,,,,,,,,,,,,,,,0,0,0,0,0,0,0,0,,,,,,,,,665.2717770999998,,,,,,,,,,,,,,665.1329405000006,False,0,81,False,exp1.png,exp2.png,trial_right_image,668.1234525999998,-1,exp2.png,1,exp2.png,exp1.png,0,4,reversed,correct,0.1491044125193014,0,invalid_lose,568.4095970999997,668.1237316000006,668.7386274,36,668.7386411000007,670.5363920999998,,,,,,,,,,,665.1322307999999,665.1329230000001,565.4974947999999,,,,,,,sub_765,2024-12-04_13h48.07.190,Reversal,2023.2.1,60.00229208743871,1,2024-12-04 13h48.19.888603 +0200,
1,exp3.png,exp4.png,,,,,,,,,,,,,,,,,,0,0,0,0,0,1,1,1,,,,,,,,,670.6663250000001,,,,,,,,,,,,,,670.5372606999999,False,1,82,False,exp3.png,exp4.png,trial_left_image,672.7061598999999,1,exp3.png,1,exp3.png,exp4.png,1,1,non-reversed,correct,0.9579377373437322,1,valid_win,572.9922357999994,672.7063662,673.3215915000001,37,673.3216069999999,675.1191844000004,,,,,,,,,,,670.5367696000003,670.5372419000005,,,,,,,,sub_765,2024-12-04_13h48.07.190,Reversal,2023.2.1,60.00229208743871,1,2024-12-04 13h48.19.888603 +0200,
2,exp1.png,exp2.png,,,,,,,,,,,,,,,,,,0,0,0,0,0,2,2,2,,,,,,,,,675.2625251999998,,,,,,,,,,,,,,675.1198539000006,False,2,83,True,exp2.png,exp1.png,trial_right_image,677.7889062000004,-1,exp1.png,1,exp2.png,exp1.png,1,3,reversed,incorrect,0.6665215282119201,0,valid_lose,578.0749720999993,677.7891018999999,678.4041451000003,37,678.4041600999999,680.2023237000003,,,,,,,,,,,675.1194701000004,675.1198337000005,,,,,,,,sub_765,2024-12-04_13h48.07.190,Reversal,2023.2.1,60.00229208743871,1,2024-12-04 13h48.19.888603 +0200,
3,exp3.png,exp4.png,,,,,,,,,,,,,,,,,,0,0,0,0,0,3,3,3,,,,,,,,,680.3382943000006,,,,,,,,,,,,,,680.2032509000001,False,3,84,True,exp4.png,exp3.png,trial_left_image,682.2049425000005,1,exp4.png,1,exp3.png,exp4.png,0,2,non-reversed,incorrect,0.6733031965461265,0,valid_lose,582.4910112999996,682.2051415000005,682.8213311,37,682.8213896000007,684.6182769000006,,,,,,,,,,,680.2027918000003,680.2032250000002,,,,,,,,sub_765,2024-12-04_13h48.07.190,Reversal,2023.2.1,60.00229208743871,1,2024-12-04 13h48.19.888603 +0200,
4,exp1.png,exp2.png,,,,,,,,,,,,,,,,,,0,0,0,0,0,4,4,4,,,,,,,,,684.7492717000005,,,,,,,,,,,,,,684.6189113,False,4,85,False,exp1.png,exp2.png,trial_right_image,686.4043952000002,-1,exp2.png,1,exp2.png,exp1.png,0,4,reversed,correct,0.7020720866667974,1,valid_win,586.6904582999996,686.4045888,687.0197965000007,38,687.0198310000005,688.8175422000004,,,,,,,,,,,684.6185351000004,684.6188960999998,,,,,,,,sub_765,2024-12-04_13h48.07.190,Reversal,2023.2.1,60.00229208743871,1,2024-12-04 13h48.19.888603 +0200,
5,exp3.png,exp4.png,,,,,,,,,,,,,,,,,,0,0,0,0,0,5,5,5,,,,,,,,,688.9463460000006,,,,,,,,,,,,,,688.8182780000006,False,5,86,True,exp4.png,exp3.png,trial_right_image,692.0708622000002,-1,exp3.png,1,exp3.png,exp4.png,1,1,non-reversed,correct,0.9728828477636299,1,valid_win,592.3570135999998,692.0711472000003,692.6857375,39,692.6857532000004,694.4835182000006,,,,,,,,,,,688.8178112000005,688.8182633000006,,,,,,,,sub_765,2024-12-04_13h48.07.190,Reversal,2023.2.1,60.00229208743871,1,2024-12-04 13h48.19.888603 +0200,
6,exp1.png,exp2.png,,,,,,,,,,,,,,,,,,0,0,0,0,0,6,6,6,,,,,,,,,694.6131303000002,,,,,,,,,,,,,,694.4842486000007,False,6,87,False,exp1.png,exp2.png,trial_right_image,696.2531343999999,-1,exp2.png,1,exp2.png,exp1.png,0,4,reversed,correct,0.722008552158921,1,valid_win,596.5392575999995,696.2533886000001,696.8685412000004,40,696.8685598000002,698.6663443000007,,,,,,,,,,,694.4837837000005,694.4842311000002,,,,,,,,sub_765,2024-12-04_13h48.07.190,Reversal,2023.2.1,60.00229208743871,1,2024-12-04 13h48.19.888603 +0200,
7,exp3.png,exp4.png,,,,,,,,,,,,,,,,,,0,0,0,0,0,7,7,7,,,,,,,,,698.7978301000003,,,,,,,,,,,,,,698.6671858,False,7,88,False,exp3.png,exp4.png,trial_right_image,700.7862200999998,-1,exp4.png,1,exp3.png,exp4.png,0,2,non-reversed,incorrect,0.958994337472922,0,valid_lose,601.0723477000001,700.7864813000006,701.4018477999998,40,701.4018623000002,703.1988977000001,,,,,,,,,,,698.6667688000007,698.667171,,,,,,,,sub_765,2024-12-04_13h48.07.190,Reversal,2023.2.1,60.00229208743871,1,2024-12-04 13h48.19.888603 +0200,
8,exp1.png,exp2.png,,,,,,,,,,,,,,,,,,0,0,0,0,0,8,8,8,,,,,,,,,703.3302143000001,,,,,,,,,,,,,,703.1995397999999,False,8,89,True,exp2.png,exp1.png,trial_right_image,704.9021364,-1,exp1.png,1,exp2.png,exp1.png,1,3,reversed,incorrect,0.22885900243396984,1,invalid_win,605.1882074999994,704.9023375000006,705.5181989000002,41,705.5182143000002,707.3150403,,,,,,,,,,,703.1991619999999,703.1995197000006,,,,,,,,sub_765,2024-12-04_13h48.07.190,Reversal,2023.2.1,60.00229208743871,1,2024-12-04 13h48.19.888603 +0200,
9,exp3.png,exp4.png,,,,,,,,,,,,,,,,,,0,0,0,0,0,9,9,9,,,,,,,,,707.4547929999999,,,,,,,,,,,,,,707.315619,False,9,90,True,exp4.png,exp3.png,trial_right_image,709.0521985000005,-1,exp3.png,1,exp3.png,exp4.png,1,1,non-reversed,correct,0.16446945780488154,0,invalid_lose,609.3383085999994,709.0524394000004,709.6668995999999,41,709.6669141000002,711.4644961000004,,,,,,,,,,,707.3152835000001,707.3156063000006,,,,,,,,sub_765,2024-12-04_13h48.07.190,Reversal,2023.2.1,60.00229208743871,1,2024-12-04 13h48.19.888603 +0200,
10,exp1.png,exp2.png,,,,,,,,,,,,,,,,,,0,0,0,0,0,10,10,10,,,,,,,,,711.5825610000002,,,,,,,,,,,,,,711.4650581000005,False,10,91,True,exp2.png,exp1.png,trial_right_image,713.9348663999999,-1,exp1.png,1,exp2.png,exp1.png,1,3,reversed,incorrect,0.051178826441660275,1,invalid_win,614.2210581999998,713.9351954000003,714.5494296000006,42,714.5494448,716.3472345999999,,,,,,,,,,,711.4647678000001,711.4650447000004,,,,,,,,sub_765,2024-12-04_13h48.07.190,Reversal,2023.2.1,60.00229208743871,1,2024-12-04 13h48.19.888603 +0200,
11,exp3.png,exp4.png,,,,,,,,,,,,,,,,,,0,0,0,0,0,11,11,11,,,,,,,,,716.4891064000003,,,,,,,,,,,,,,716.3479661000001,False,11,92,True,exp4.png,exp3.png,trial_right_image,718.5670369999998,-1,exp3.png,1,exp3.png,exp4.png,1,1,non-reversed,correct,0.11889116629241281,0,invalid_lose,618.8531155999999,718.5672513999998,719.1821718000001,42,719.1821846000003,720.9799351000001,,,,,,,,,,,716.3475865,716.3479376000005,,,,,,,,sub_765,2024-12-04_13h48.07.190,Reversal,2023.2.1,60.00229208743871,1,2024-12-04 13h48.19.888603 +0200,
12,exp1.png,exp2.png,,,,,,,,,,,,,,,,,,0,0,0,0,0,12,12,12,,,,,,,,,721.1082567000003,,,,,,,,,,,,,,720.9805395000003,False,12,93,False,exp1.png,exp2.png,trial_right_image,722.6500759999999,-1,exp2.png,1,exp2.png,exp1.png,0,4,reversed,correct,0.4186422814286993,1,valid_win,622.9362517,722.6503905999998,723.2651495999999,43,723.2651633000005,725.0629385000002,,,,,,,,,,,720.9801940000007,720.9805237,,,,,,,,sub_765,2024-12-04_13h48.07.190,Reversal,2023.2.1,60.00229208743871,1,2024-12-04 13h48.19.888603 +0200,
13,exp3.png,exp4.png,,,,,,,,,,,,,,,,,,0,0,0,0,0,13,13,13,,,,,,,,,725.1822762000002,,,,,,,,,,,,,,725.0635932000005,False,13,94,True,exp4.png,exp3.png,trial_right_image,726.7492110000003,-1,exp3.png,1,exp3.png,exp4.png,1,1,non-reversed,correct,0.09374486038291652,0,invalid_lose,627.0352941000001,726.7494247000004,727.3647606000004,43,727.3647734000006,729.1624517,,,,,,,,,,,725.0632510000005,725.0635793000001,,,,,,,,sub_765,2024-12-04_13h48.07.190,Reversal,2023.2.1,60.00229208743871,1,2024-12-04 13h48.19.888603 +0200,
14,exp1.png,exp2.png,,,,,,,,,,,,,,,,,,0,0,0,0,0,14,14,14,,,,,,,,,729.2847632000003,,,,,,,,,,,,,,729.1631354000001,False,14,95,False,exp1.png,exp2.png,trial_right_image,731.4984582000006,-1,exp2.png,1,exp2.png,exp1.png,0,4,reversed,correct,0.9204809446304536,1,valid_win,631.7846076999995,731.4987437,732.1139315,44,732.1139453000005,733.9116445,,,,,,,,,,,729.1627429,729.1631192000004,,,,,,,,sub_765,2024-12-04_13h48.07.190,Reversal,2023.2.1,60.00229208743871,1,2024-12-04 13h48.19.888603 +0200,
15,exp3.png,exp4.png,,,,,,,,,,,,,,,,,,0,0,0,0,0,15,15,15,,,,,,,,,734.0411401000001,,,,,,,,,,,,,,733.9122857000002,False,15,96,True,exp4.png,exp3.png,trial_right_image,735.7647887000003,-1,exp3.png,1,exp3.png,exp4.png,1,1,non-reversed,correct,0.42216628915870336,1,valid_win,636.0509149999998,735.7650542000001,736.3801364000001,45,736.3801518,738.1778426000001,,,,,,,,,,,733.9119688999999,733.9122721000003,,,,,,,,sub_765,2024-12-04_13h48.07.190,Reversal,2023.2.1,60.00229208743871,1,2024-12-04 13h48.19.888603 +0200,
16,exp1.png,exp2.png,,,,,,,,,,,,,,,,,,0,0,0,0,0,16,16,16,,,,,,,,,738.3073666,,,,,,,,,,,,,,738.1784734000003,False,16,97,False,exp1.png,exp2.png,trial_right_image,740.3306595000004,-1,exp2.png,1,exp2.png,exp1.png,0,4,reversed,correct,0.6322828273460214,1,valid_win,640.6168121000001,740.3309457000005,740.9466159000003,46,740.9466516000002,742.7437998000005,,,,,,,,,,,738.1781162000007,738.178449,,,,,,,,sub_765,2024-12-04_13h48.07.190,Reversal,2023.2.1,60.00229208743871,1,2024-12-04 13h48.19.888603 +0200,
17,exp3.png,exp4.png,,,,,,,,,,,,,,,,,,0,0,0,0,0,17,17,17,,,,,,,,,742.8618268999999,,,,,,,,,,,,,,742.7444263000007,False,17,98,True,exp4.png,exp3.png,trial_right_image,744.5145106999998,-1,exp3.png,1,exp3.png,exp4.png,1,1,non-reversed,correct,0.9305124374974526,1,valid_win,644.8005936,744.5147240000006,745.1290595,47,745.1290729000002,746.9267549000006,,,,,,,,,,,742.7440796000001,742.7444104000006,,,,,,,,sub_765,2024-12-04_13h48.07.190,Reversal,2023.2.1,60.00229208743871,1,2024-12-04 13h48.19.888603 +0200,
18,exp1.png,exp2.png,,,,,,,,,,,,,,,,,,0,0,0,0,0,18,18,18,,,,,,,,,747.0837781,,,,,,,,,,,,,,746.9278481000001,False,18,99,False,exp1.png,exp2.png,trial_right_image,748.8800123000001,-1,exp2.png,1,exp2.png,exp1.png,0,4,reversed,correct,0.3558819332596982,1,valid_win,649.1661022999997,748.8802335,749.4950251999999,48,749.4950472,751.2927988000001,,,,,,,,,,,746.9272635000007,746.9278310999998,,,,,,,,sub_765,2024-12-04_13h48.07.190,Reversal,2023.2.1,60.00229208743871,1,2024-12-04 13h48.19.888603 +0200,
19,exp3.png,exp4.png,,,,,,,,,,,,,,,,,,0,0,0,0,0,19,19,19,,,,,,,,,751.4264276000004,,,,,,,,,,,,,,751.2935279000003,False,19,100,False,exp3.png,exp4.png,trial_right_image,753.1625138999998,-1,exp4.png,1,exp3.png,exp4.png,0,2,non-reversed,incorrect,0.03610148488026432,1,invalid_win,653.4485795,753.1627102000002,753.7778302000006,49,753.7778437000006,755.5757904000002,,,,,,,,,,,751.2931616000005,751.2935127999999,,,,,,,,sub_765,2024-12-04_13h48.07.190,Reversal,2023.2.1,60.00229208743871,1,2024-12-04 13h48.19.888603 +0200,
20,exp1.png,exp2.png,,,,,,,,,,,,,,,,,,0,0,0,0,0,20,20,20,,,,,,,,,755.7586479000001,,,,,,,,,,,,,,755.5767971000005,True,,,,,,,755.6518808999999,,,,,,,,,,,,,,755.6518971000005,755.6662720000004,,755.666287,755.6879223000005,,,,,,,,,,,755.5763702000004,755.5767811000005,,,,,,,,sub_765,2024-12-04_13h48.07.190,Reversal,2023.2.1,60.00229208743871,1,2024-12-04 13h48.19.888603 +0200,
,,,exp1.png,,,,,,,,,,,,,,,,,0,0,0,0,,,,,0,0,0,0,0,0,0,0,755.7586479000001,,,,,,,,,,,,,,,,,,,,,,,,,,,,,,,,,,,,,,,,,755.6929175000005,755.7586479000001,759.8797788000002,100.0,100.0,2.6817049999999654,"[(100.0, 2.6817049999999654)]",,,,,,,,,,,,,sub_765,2024-12-04_13h48.07.190,Reversal,2023.2.1,60.00229208743871,1,2024-12-04 13h48.19.888603 +0200,
,,,exp2.png,,,,,,,,,,,,,,,,,0,0,0,0,,,,,0,0,0,0,0,1,1,1,759.9393860999999,,,,,,,,,,,,,,,,,,,,,,,,,,,,,,,,,,,,,,,,,759.8803066999999,759.9393860999999,763.4954081000005,,100.0,2.241577299999335,"[(100.0, 2.241577299999335)]",,,100.0,,,,,,,,,,sub_765,2024-12-04_13h48.07.190,Reversal,2023.2.1,60.00229208743871,1,2024-12-04 13h48.19.888603 +0200,
,,,exp3.png,,,,,,,,,,,,,,,,,0,0,0,0,,,,,0,0,0,0,0,2,2,2,763.5509442000002,,,,,,,,,,,,,,,,,,,,,,,,,,,,,,,,,,,,,,,,,763.4957967999999,763.5509442000002,767.0954361000004,,1.0,2.360609899999872,"[(1.0, 2.360609899999872)]",1.0,,,,,,,,,,,,sub_765,2024-12-04_13h48.07.190,Reversal,2023.2.1,60.00229208743871,1,2024-12-04 13h48.19.888603 +0200,
,,,exp4.png,,,,,,,,,,,,,,,,,0,0,0,0,,,,,0,0,0,0,0,3,3,3,767.1553207000006,,,,,,,,,,,,,,,,,,,,,,,,,,,,,,,,,,,,,,,,,767.0958361000003,767.1553207000006,770.0955129000004,,1.0,1.607833799999753,"[(1.0, 1.607833799999753)]",,1.0,,,,,,,,,,,sub_765,2024-12-04_13h48.07.190,Reversal,2023.2.1,60.00229208743871,1,2024-12-04 13h48.19.888603 +0200,
0,exp1.png,exp2.png,,,,,,,,,,,,,,,,,,1,0,1,0,0,0,0,0,,,,,,,,,770.2566443000005,,,,,,,,,,,,,,770.1033480000006,False,20,101,False,exp1.png,exp2.png,trial_right_image,772.4935495,-1,exp2.png,1,exp2.png,exp1.png,0,4,reversed,correct,0.5895217718042384,1,valid_win,672.7796396999993,772.4937727000006,773.1089075999998,50,773.1089234000001,774.9066460000004,,,,,,,,,,,770.1027445,770.1033254000004,,,,,,,,sub_765,2024-12-04_13h48.07.190,Reversal,2023.2.1,60.00229208743871,1,2024-12-04 13h48.19.888603 +0200,
1,exp3.png,exp4.png,,,,,,,,,,,,,,,,,,1,0,1,0,0,1,1,1,,,,,,,,,775.0382315000006,,,,,,,,,,,,,,774.907217,False,21,102,False,exp3.png,exp4.png,trial_right_image,776.6762316000004,-1,exp4.png,1,exp3.png,exp4.png,0,2,non-reversed,incorrect,0.8251035089351982,0,valid_lose,676.9623180999997,776.6764486000002,777.2921991000003,50,777.2922183000001,779.0893850000002,,,,,,,,,,,774.9069220000001,774.9072046000001,,,,,,,,sub_765,2024-12-04_13h48.07.190,Reversal,2023.2.1,60.00229208743871,1,2024-12-04 13h48.19.888603 +0200,
2,exp1.png,exp2.png,,,,,,,,,,,,,,,,,,1,0,1,0,0,2,2,2,,,,,,,,,779.2146962000006,,,,,,,,,,,,,,779.0902126999999,False,22,103,False,exp1.png,exp2.png,trial_right_image,781.2437077000004,-1,exp2.png,1,exp2.png,exp1.png,0,4,reversed,correct,0.6866303484233037,1,valid_win,681.5299064999999,781.2440394000005,781.8575507000005,51,781.8575645000001,783.6555177,,,,,,,,,,,779.0898292000002,779.0901984000002,,,,,,,,sub_765,2024-12-04_13h48.07.190,Reversal,2023.2.1,60.00229208743871,1,2024-12-04 13h48.19.888603 +0200,
3,exp3.png,exp4.png,,,,,,,,,,,,,,,,,,1,0,1,0,0,3,3,3,,,,,,,,,783.7886549000004,,,,,,,,,,,,,,783.6564642000003,False,23,104,False,exp3.png,exp4.png,trial_right_image,785.4752223000005,-1,exp4.png,1,exp3.png,exp4.png,0,2,non-reversed,incorrect,0.2718555292961199,0,valid_lose,685.7613469999997,785.4754784000006,786.0903927999998,51,786.0904062999998,787.8880841,,,,,,,,,,,783.6558442000005,783.6564471000002,,,,,,,,sub_765,2024-12-04_13h48.07.190,Reversal,2023.2.1,60.00229208743871,1,2024-12-04 13h48.19.888603 +0200,
4,exp1.png,exp2.png,,,,,,,,,,,,,,,,,,1,0,1,0,0,4,4,4,,,,,,,,,788.0163309999998,,,,,,,,,,,,,,787.8886282000003,False,24,105,True,exp2.png,exp1.png,trial_right_image,789.6913086000004,-1,exp1.png,1,exp2.png,exp1.png,1,3,reversed,incorrect,0.5657544633026245,0,valid_lose,689.9774520999999,789.6915865000001,790.3074881000002,51,790.3075085,792.1041873000004,,,,,,,,,,,787.8883401000003,787.8886160000002,,,,,,,,sub_765,2024-12-04_13h48.07.190,Reversal,2023.2.1,60.00229208743871,1,2024-12-04 13h48.19.888603 +0200,
5,exp3.png,exp4.png,,,,,,,,,,,,,,,,,,1,0,1,0,0,5,5,5,,,,,,,,,792.2394253000002,,,,,,,,,,,,,,792.1048101000006,False,25,106,True,exp4.png,exp3.png,trial_left_image,794.3242285000006,1,exp4.png,1,exp3.png,exp4.png,0,2,non-reversed,incorrect,0.9581752952258291,0,valid_lose,694.6103980999997,794.3245397999999,794.9394332000002,51,794.9394467000002,796.7371155999999,,,,,,,,,,,792.1044609999999,792.1047961000004,,,,,,,,sub_765,2024-12-04_13h48.07.190,Reversal,2023.2.1,60.00229208743871,1,2024-12-04 13h48.19.888603 +0200,
6,exp1.png,exp2.png,,,,,,,,,,,,,,,,,,1,0,1,0,0,6,6,6,,,,,,,,,796.8671984000002,,,,,,,,,,,,,,796.7378634000006,False,26,107,False,exp1.png,exp2.png,trial_right_image,798.6402429999998,-1,exp2.png,1,exp2.png,exp1.png,0,4,reversed,correct,0.7352748725048648,1,valid_win,698.9263139999994,798.6404444,799.2559547999999,52,799.2559728000006,801.0530061,,,,,,,,,,,796.7374963000002,796.7378349999999,,,,,,,,sub_765,2024-12-04_13h48.07.190,Reversal,2023.2.1,60.00229208743871,1,2024-12-04 13h48.19.888603 +0200,
7,exp3.png,exp4.png,,,,,,,,,,,,,,,,,,1,0,1,0,0,7,7,7,,,,,,,,,801.1869259000005,,,,,,,,,,,,,,801.0536238000004,False,27,108,True,exp4.png,exp3.png,trial_right_image,804.2240091000003,-1,exp3.png,1,exp3.png,exp4.png,1,1,non-reversed,correct,0.01634830521312114,0,invalid_lose,704.5101309000001,804.2242630000001,804.8387091000004,52,804.8387286000006,806.6358320999998,,,,,,,,,,,801.0532512999998,801.0536099000001,,,,,,,,sub_765,2024-12-04_13h48.07.190,Reversal,2023.2.1,60.00229208743871,1,2024-12-04 13h48.19.888603 +0200,
8,exp1.png,exp2.png,,,,,,,,,,,,,,,,,,1,0,1,0,0,8,8,8,,,,,,,,,806.7714430000005,,,,,,,,,,,,,,806.6366115999999,False,28,109,False,exp1.png,exp2.png,trial_left_image,808.6887772,1,exp1.png,1,exp2.png,exp1.png,1,3,reversed,incorrect,0.9259019537564557,0,valid_lose,708.9748719999998,808.6890085000005,809.3041410000005,52,809.3041543999998,811.1019053,,,,,,,,,,,806.6361684000003,806.6365962,,,,,,,,sub_765,2024-12-04_13h48.07.190,Reversal,2023.2.1,60.00229208743871,1,2024-12-04 13h48.19.888603 +0200,
9,exp3.png,exp4.png,,,,,,,,,,,,,,,,,,1,0,1,0,0,9,9,9,,,,,,,,,811.2362733999998,,,,,,,,,,,,,,811.1026313000002,False,29,110,True,exp4.png,exp3.png,trial_right_image,812.6389356999998,-1,exp3.png,1,exp3.png,exp4.png,1,1,non-reversed,correct,0.8183824049340606,1,valid_win,712.9250016999995,812.6391319000004,813.2535283000007,53,813.2535431000006,815.0512472999999,,,,,,,,,,,811.1022241999999,811.1026161,,,,,,,,sub_765,2024-12-04_13h48.07.190,Reversal,2023.2.1,60.00229208743871,1,2024-12-04 13h48.19.888603 +0200,
10,exp1.png,exp2.png,,,,,,,,,,,,,,,,,,1,0,1,0,0,10,10,10,,,,,,,,,815.1682846000003,,,,,,,,,,,,,,815.0518339,False,30,111,True,exp2.png,exp1.png,trial_right_image,816.6709599000005,-1,exp1.png,1,exp2.png,exp1.png,1,3,reversed,incorrect,0.8455574174915453,0,valid_lose,716.9570279999998,816.6711579000003,817.2865124,53,817.2865338000001,819.0842852000005,,,,,,,,,,,815.0514999000006,815.0518216999999,,,,,,,,sub_765,2024-12-04_13h48.07.190,Reversal,2023.2.1,60.00229208743871,1,2024-12-04 13h48.19.888603 +0200,
11,exp3.png,exp4.png,,,,,,,,,,,,,,,,,,1,0,1,0,0,11,11,11,,,,,,,,,819.2202705999998,,,,,,,,,,,,,,819.0849730999998,False,31,112,True,exp4.png,exp3.png,trial_right_image,821.5215713000007,-1,exp3.png,1,exp3.png,exp4.png,1,1,non-reversed,correct,0.4904144089421246,1,valid_win,721.8077302000002,821.5218633000004,822.1357412000007,54,822.1357557000001,823.9334845000003,,,,,,,,,,,819.0845679000004,819.0849566000006,,,,,,,,sub_765,2024-12-04_13h48.07.190,Reversal,2023.2.1,60.00229208743871,1,2024-12-04 13h48.19.888603 +0200,
12,exp1.png,exp2.png,,,,,,,,,,,,,,,,,,1,0,1,0,0,12,12,12,,,,,,,,,824.0598604000006,,,,,,,,,,,,,,823.9341487000002,False,32,113,True,exp2.png,exp1.png,trial_right_image,826.7365835,-1,exp1.png,1,exp2.png,exp1.png,1,3,reversed,incorrect,0.05252421764876469,1,invalid_win,727.0226464999996,826.7367768000004,827.3520372000003,55,827.3520581000002,829.1498519000006,,,,,,,,,,,823.9337761000006,823.9341338000004,,,,,,,,sub_765,2024-12-04_13h48.07.190,Reversal,2023.2.1,60.00229208743871,1,2024-12-04 13h48.19.888603 +0200,
13,exp3.png,exp4.png,,,,,,,,,,,,,,,,,,1,0,1,0,0,13,13,13,,,,,,,,,829.2861867000001,,,,,,,,,,,,,,829.1505112000004,False,33,114,True,exp4.png,exp3.png,trial_right_image,831.3360539000005,-1,exp3.png,1,exp3.png,exp4.png,1,1,non-reversed,correct,0.6205396530305275,1,valid_win,731.6221820000001,831.3363196999999,831.9513541000006,56,831.9513704000001,833.7490171,,,,,,,,,,,829.1501275999999,829.1504974,,,,,,,,sub_765,2024-12-04_13h48.07.190,Reversal,2023.2.1,60.00229208743871,1,2024-12-04 13h48.19.888603 +0200,
14,exp1.png,exp2.png,,,,,,,,,,,,,,,,,,1,0,1,0,0,14,14,14,,,,,,,,,833.8739634000003,,,,,,,,,,,,,,833.7497938000006,False,34,115,True,exp2.png,exp1.png,trial_right_image,835.7187979999999,-1,exp1.png,1,exp2.png,exp1.png,1,3,reversed,incorrect,0.4503876446199605,0,valid_lose,736.0049086999998,835.7190397000004,836.3341301,56,836.3341438000007,838.1318476000006,,,,,,,,,,,833.7493546000005,833.7497786000004,,,,,,,,sub_765,2024-12-04_13h48.07.190,Reversal,2023.2.1,60.00229208743871,1,2024-12-04 13h48.19.888603 +0200,
15,exp3.png,exp4.png,,,,,,,,,,,,,,,,,,1,0,1,0,0,15,15,15,,,,,,,,,838.2614460000004,,,,,,,,,,,,,,838.1326288999999,False,35,116,False,exp3.png,exp4.png,trial_right_image,840.6181907999999,-1,exp4.png,1,exp3.png,exp4.png,0,2,non-reversed,incorrect,0.3078414593821074,0,valid_lose,740.9042554999996,840.6183855999998,841.2334681000002,56,841.2334807000007,843.0312043000004,,,,,,,,,,,838.1321625,838.1326114000003,,,,,,,,sub_765,2024-12-04_13h48.07.190,Reversal,2023.2.1,60.00229208743871,1,2024-12-04 13h48.19.888603 +0200,
16,exp1.png,exp2.png,,,,,,,,,,,,,,,,,,1,0,1,0,0,16,16,16,,,,,,,,,843.1583380000002,,,,,,,,,,,,,,843.0318723999999,False,36,117,False,exp1.png,exp2.png,trial_left_image,845.3008895000003,1,exp1.png,1,exp2.png,exp1.png,1,3,reversed,incorrect,0.3804556848194679,0,valid_lose,745.5870245999995,845.3011596000006,845.9161457999999,56,845.9161592999999,847.713863,,,,,,,,,,,843.0314785999999,843.0318537000003,,,,,,,,sub_765,2024-12-04_13h48.07.190,Reversal,2023.2.1,60.00229208743871,1,2024-12-04 13h48.19.888603 +0200,
17,exp3.png,exp4.png,,,,,,,,,,,,,,,,,,1,0,1,0,0,17,17,17,,,,,,,,,847.8499650000003,,,,,,,,,,,,,,847.7144994,False,37,118,False,exp3.png,exp4.png,trial_right_image,849.3512570000003,-1,exp4.png,1,exp3.png,exp4.png,0,2,non-reversed,incorrect,0.27336532172116634,0,valid_lose,749.6373193999998,849.3514495,849.9655548000001,56,849.965569,851.7634257999998,,,,,,,,,,,847.7141664999999,847.7144867000006,,,,,,,,sub_765,2024-12-04_13h48.07.190,Reversal,2023.2.1,60.00229208743871,1,2024-12-04 13h48.19.888603 +0200,
18,exp1.png,exp2.png,,,,,,,,,,,,,,,,,,1,0,1,0,0,18,18,18,,,,,,,,,851.8843895999998,,,,,,,,,,,,,,851.7640878000002,False,38,119,False,exp1.png,exp2.png,trial_right_image,853.6831620000003,-1,exp2.png,1,exp2.png,exp1.png,0,4,reversed,correct,0.04429089487197513,0,invalid_lose,753.9692344999994,853.6833698999999,854.2982437999999,56,854.2982573999998,856.0961155000005,,,,,,,,,,,851.7637104000005,851.7640734000006,,,,,,,,sub_765,2024-12-04_13h48.07.190,Reversal,2023.2.1,60.00229208743871,1,2024-12-04 13h48.19.888603 +0200,
19,exp3.png,exp4.png,,,,,,,,,,,,,,,,,,1,0,1,0,0,19,19,19,,,,,,,,,856.2311407000007,,,,,,,,,,,,,,856.0969253000003,False,39,120,True,exp4.png,exp3.png,trial_right_image,858.2992371999999,-1,exp3.png,1,exp3.png,exp4.png,1,1,non-reversed,correct,0.6843943014433056,1,valid_win,758.5853040000002,858.2994345000006,858.9146049000001,57,858.9146202000002,860.712098,,,,,,,,,,,856.0965579000003,856.0969111000004,,,,,,,,sub_765,2024-12-04_13h48.07.190,Reversal,2023.2.1,60.00229208743871,1,2024-12-04 13h48.19.888603 +0200,
20,exp1.png,exp2.png,,,,,,,,,,,,,,,,,,1,0,1,0,0,20,20,20,,,,,,,,,860.9098838,,,,,,,,,,,,,,860.7128459000005,True,,,,,,,860.7876268999999,,,,,,,,,,,,,,860.7876418000005,860.8034034000002,,860.8034195,860.8218274999999,,,,,,,,,,,860.7124816000005,860.7128262000006,,,,,,,,sub_765,2024-12-04_13h48.07.190,Reversal,2023.2.1,60.00229208743871,1,2024-12-04 13h48.19.888603 +0200,
,,,exp1.png,,,,,,,,,,,,,,,,,1,0,1,0,,,,,0,0,0,0,0,0,0,0,860.9098838,,,,,,,,,,,,,,,,,,,,,,,,,,,,,,,,,,,,,,,,,860.8305983999999,860.9098838,864.8158819,100.0,100.0,2.7239856000005602,"[(100.0, 2.7239856000005602)]",,,,,,,,,,,,,sub_765,2024-12-04_13h48.07.190,Reversal,2023.2.1,60.00229208743871,1,2024-12-04 13h48.19.888603 +0200,
,,,exp2.png,,,,,,,,,,,,,,,,,1,0,1,0,,,,,0,0,0,0,0,1,1,1,864.8730329,,,,,,,,,,,,,,,,,,,,,,,,,,,,,,,,,,,,,,,,,864.8164243000001,864.8730329,868.3488754999998,,100.0,2.1097367000002123,"[(100.0, 2.1097367000002123)]",,,100.0,,,,,,,,,,sub_765,2024-12-04_13h48.07.190,Reversal,2023.2.1,60.00229208743871,1,2024-12-04 13h48.19.888603 +0200,
,,,exp3.png,,,,,,,,,,,,,,,,,1,0,1,0,,,,,0,0,0,0,0,2,2,2,868.4095492000006,,,,,,,,,,,,,,,,,,,,,,,,,,,,,,,,,,,,,,,,,868.3492987,868.4095492000006,871.2822276000006,,1.0,1.6745017000002917,"[(1.0, 1.6745017000002917)]",1.0,,,,,,,,,,,,sub_765,2024-12-04_13h48.07.190,Reversal,2023.2.1,60.00229208743871,1,2024-12-04 13h48.19.888603 +0200,
,,,exp4.png,,,,,,,,,,,,,,,,,1,0,1,0,,,,,0,0,0,0,0,3,3,3,871.3482331000005,,,,,,,,,,,,,,,,,,,,,,,,,,,,,,,,,,,,,,,,,871.2829548,871.3482331000005,874.2980316000003,,1.0,1.8029814000001352,"[(1.0, 1.8029814000001352)]",,1.0,,,,,,,,,,,sub_765,2024-12-04_13h48.07.190,Reversal,2023.2.1,60.00229208743871,1,2024-12-04 13h48.19.888603 +0200,
0,exp1.png,exp2.png,,,,,,,,,,,,,,,,,,2,0,2,0,0,0,0,0,,,,,,,,,874.4500592000004,,,,,,,,,,,,,,874.3054848000002,False,40,121,False,exp1.png,exp2.png,trial_left_image,877.3133809999999,1,exp1.png,1,exp2.png,exp1.png,1,3,reversed,incorrect,0.2502384638739986,0,valid_lose,777.5994485000001,877.3135794999998,877.9286778000005,57,877.9286917999998,879.7266522999998,,,,,,,,,,,874.3048583,874.3054618000006,,,,,,,,sub_765,2024-12-04_13h48.07.190,Reversal,2023.2.1,60.00229208743871,1,2024-12-04 13h48.19.888603 +0200,
1,exp3.png,exp4.png,,,,,,,,,,,,,,,,,,2,0,2,0,0,1,1,1,,,,,,,,,879.8617107,,,,,,,,,,,,,,879.7273187999999,False,41,122,True,exp4.png,exp3.png,trial_right_image,881.596114,-1,exp3.png,1,exp3.png,exp4.png,1,1,non-reversed,correct,0.43104471494722063,1,valid_win,781.8821781999995,881.5963087999999,882.2115782000001,58,882.2116053999998,884.0095753000005,,,,,,,,,,,879.7269529000005,879.7273034999998,,,,,,,,sub_765,2024-12-04_13h48.07.190,Reversal,2023.2.1,60.00229208743871,1,2024-12-04 13h48.19.888603 +0200,
2,exp1.png,exp2.png,,,,,,,,,,,,,,,,,,2,0,2,0,0,2,2,2,,,,,,,,,884.1388559000006,,,,,,,,,,,,,,884.0104461999999,False,42,123,True,exp2.png,exp1.png,trial_right_image,885.6959879000005,-1,exp1.png,1,exp2.png,exp1.png,1,3,reversed,incorrect,0.15786546379073707,1,invalid_win,785.9821209000002,885.6962588000006,886.3109820999998,59,886.3109967,888.1087240000006,,,,,,,,,,,884.0099682999999,884.0104316000006,,,,,,,,sub_765,2024-12-04_13h48.07.190,Reversal,2023.2.1,60.00229208743871,1,2024-12-04 13h48.19.888603 +0200,
3,exp3.png,exp4.png,,,,,,,,,,,,,,,,,,2,0,2,0,0,3,3,3,,,,,,,,,888.2343357,,,,,,,,,,,,,,888.1093975000003,False,43,124,False,exp3.png,exp4.png,trial_right_image,889.7462253000003,-1,exp4.png,1,exp3.png,exp4.png,0,2,non-reversed,incorrect,0.9345587043696967,0,valid_lose,790.0323481999994,889.7464887000006,890.3604224000001,59,890.3604382000003,892.1582927,,,,,,,,,,,888.1090267999998,888.1093815000004,,,,,,,,sub_765,2024-12-04_13h48.07.190,Reversal,2023.2.1,60.00229208743871,1,2024-12-04 13h48.19.888603 +0200,
4,exp1.png,exp2.png,,,,,,,,,,,,,,,,,,2,0,2,0,0,4,4,4,,,,,,,,,892.2829386000003,,,,,,,,,,,,,,892.1590941000004,False,44,125,True,exp2.png,exp1.png,trial_right_image,894.1615927000003,-1,exp1.png,1,exp2.png,exp1.png,1,3,reversed,incorrect,0.051647848472963775,1,invalid_win,794.4477553999996,894.1618931000003,894.7767524000001,60,894.7767663000004,896.5744079000006,,,,,,,,,,,892.1585967999999,892.1590765000001,,,,,,,,sub_765,2024-12-04_13h48.07.190,Reversal,2023.2.1,60.00229208743871,1,2024-12-04 13h48.19.888603 +0200,
5,exp3.png,exp4.png,,,,,,,,,,,,,,,,,,2,0,2,0,0,5,5,5,,,,,,,,,896.7029521000004,,,,,,,,,,,,,,896.5750908,False,45,126,True,exp4.png,exp3.png,trial_right_image,898.2275138000005,-1,exp3.png,1,exp3.png,exp4.png,1,1,non-reversed,correct,0.6018691811787222,1,valid_win,798.5136711999994,898.2278095000001,898.8428348000007,61,898.8428567000001,900.6405068000004,,,,,,,,,,,896.5746681,896.5750761999998,,,,,,,,sub_765,2024-12-04_13h48.07.190,Reversal,2023.2.1,60.00229208743871,1,2024-12-04 13h48.19.888603 +0200,
6,exp1.png,exp2.png,,,,,,,,,,,,,,,,,,2,0,2,0,0,6,6,6,,,,,,,,,900.7645385000005,,,,,,,,,,,,,,900.6411610000005,False,46,127,True,exp2.png,exp1.png,trial_right_image,902.8101813000003,-1,exp1.png,1,exp2.png,exp1.png,1,3,reversed,incorrect,0.4399056440560808,0,valid_lose,803.0962381999998,902.8103676000001,903.4256119000001,61,903.4256333000003,905.2232380000005,,,,,,,,,,,900.6407963000001,900.6411486000006,,,,,,,,sub_765,2024-12-04_13h48.07.190,Reversal,2023.2.1,60.00229208743871,1,2024-12-04 13h48.19.888603 +0200,
7,exp3.png,exp4.png,,,,,,,,,,,,,,,,,,2,0,2,0,0,7,7,7,,,,,,,,,905.3502222000006,,,,,,,,,,,,,,905.2243116999998,False,47,128,False,exp3.png,exp4.png,trial_right_image,908.4429901000003,-1,exp4.png,1,exp3.png,exp4.png,0,2,non-reversed,incorrect,0.44471628052959955,0,valid_lose,808.7290833999996,908.4432201999998,909.0581016000006,61,909.0581271000001,910.8560207999999,,,,,,,,,,,905.2238879000006,905.2242936000002,,,,,,,,sub_765,2024-12-04_13h48.07.190,Reversal,2023.2.1,60.00229208743871,1,2024-12-04 13h48.19.888603 +0200,
8,exp1.png,exp2.png,,,,,,,,,,,,,,,,,,2,0,2,0,0,8,8,8,,,,,,,,,910.9849445,,,,,,,,,,,,,,910.8567309,False,48,129,False,exp1.png,exp2.png,trial_right_image,912.5592443000005,-1,exp2.png,1,exp2.png,exp1.png,0,4,reversed,correct,0.0012976340197692338,0,invalid_lose,812.8453301,912.5594627999999,913.1747519999999,61,913.1747678000002,914.9721242000005,,,,,,,,,,,910.8563342000007,910.8567146000005,,,,,,,,sub_765,2024-12-04_13h48.07.190,Reversal,2023.2.1,60.00229208743871,1,2024-12-04 13h48.19.888603 +0200,
9,exp3.png,exp4.png,,,,,,,,,,,,,,,,,,2,0,2,0,0,9,9,9,,,,,,,,,915.0907354000001,,,,,,,,,,,,,,914.9728101000001,False,49,130,False,exp3.png,exp4.png,trial_right_image,916.7916303000002,-1,exp4.png,1,exp3.png,exp4.png,0,2,non-reversed,incorrect,0.2911880876288939,0,valid_lose,817.0777821000001,916.7919191999999,917.4070990999999,61,917.4071116000005,919.2046762999998,,,,,,,,,,,914.9724431000004,914.9727948,,,,,,,,sub_765,2024-12-04_13h48.07.190,Reversal,2023.2.1,60.00229208743871,1,2024-12-04 13h48.19.888603 +0200,
10,exp1.png,exp2.png,,,,,,,,,,,,,,,,,,2,0,2,0,0,10,10,10,,,,,,,,,919.3341719999999,,,,,,,,,,,,,,919.2054667000002,False,50,131,True,exp2.png,exp1.png,trial_left_image,920.8581389999999,1,exp2.png,1,exp2.png,exp1.png,0,4,reversed,correct,0.4069742563091411,1,valid_win,821.1442821999999,920.8584196000002,921.4730361000002,62,921.4730538000003,923.2708682000002,,,,,,,,,,,919.2050913000003,919.2054521999999,,,,,,,,sub_765,2024-12-04_13h48.07.190,Reversal,2023.2.1,60.00229208743871,1,2024-12-04 13h48.19.888603 +0200,
11,exp3.png,exp4.png,,,,,,,,,,,,,,,,,,2,0,2,0,0,11,11,11,,,,,,,,,923.3881589000002,,,,,,,,,,,,,,923.2715149000005,False,51,132,False,exp3.png,exp4.png,trial_left_image,925.1239494000001,1,exp3.png,1,exp3.png,exp4.png,1,1,non-reversed,correct,0.530115059848694,1,valid_win,825.4100936999994,925.1242249000006,925.7390704999998,63,925.7390839,927.5370880999999,,,,,,,,,,,923.2711398000001,923.2714978000004,,,,,,,,sub_765,2024-12-04_13h48.07.190,Reversal,2023.2.1,60.00229208743871,1,2024-12-04 13h48.19.888603 +0200,
12,exp1.png,exp2.png,,,,,,,,,,,,,,,,,,2,0,2,0,0,12,12,12,,,,,,,,,927.6736390000005,,,,,,,,,,,,,,927.5377349,False,52,133,False,exp1.png,exp2.png,trial_right_image,929.3741656000002,-1,exp2.png,1,exp2.png,exp1.png,0,4,reversed,correct,0.10332193206545537,0,invalid_lose,829.6602323999996,929.3743640000002,929.9887153,63,929.9887288,931.7864311000003,,,,,,,,,,,927.5373723000002,927.5377058000004,,,,,,,,sub_765,2024-12-04_13h48.07.190,Reversal,2023.2.1,60.00229208743871,1,2024-12-04 13h48.19.888603 +0200,
13,exp3.png,exp4.png,,,,,,,,,,,,,,,,,,2,0,2,0,0,13,13,13,,,,,,,,,931.9162457000002,,,,,,,,,,,,,,931.7869963000003,False,53,134,True,exp4.png,exp3.png,trial_left_image,933.6228019999999,1,exp4.png,1,exp3.png,exp4.png,0,2,non-reversed,incorrect,0.82526862856805,0,valid_lose,833.9088849,933.6230148000004,934.2381798000006,63,934.2381939000006,936.0358541000005,,,,,,,,,,,931.7866897000004,931.7869835000001,,,,,,,,sub_765,2024-12-04_13h48.07.190,Reversal,2023.2.1,60.00229208743871,1,2024-12-04 13h48.19.888603 +0200,
14,exp1.png,exp2.png,,,,,,,,,,,,,,,,,,2,0,2,0,0,14,14,14,,,,,,,,,936.1615685000006,,,,,,,,,,,,,,936.0364309000006,False,54,135,True,exp2.png,exp1.png,trial_right_image,937.6556568000005,-1,exp1.png,1,exp2.png,exp1.png,1,3,reversed,incorrect,0.49068328902850644,0,valid_lose,837.9418114999999,937.6559628000005,938.2715348000002,63,938.2715509,940.0686623000001,,,,,,,,,,,936.0361257000004,936.0364153999999,,,,,,,,sub_765,2024-12-04_13h48.07.190,Reversal,2023.2.1,60.00229208743871,1,2024-12-04 13h48.19.888603 +0200,
15,exp3.png,exp4.png,,,,,,,,,,,,,,,,,,2,0,2,0,0,15,15,15,,,,,,,,,940.1974954000007,,,,,,,,,,,,,,940.0692869000004,False,55,136,False,exp3.png,exp4.png,trial_right_image,941.671773,-1,exp4.png,1,exp3.png,exp4.png,0,2,non-reversed,incorrect,0.9625195848178993,0,valid_lose,841.9579274999996,941.6720624999998,942.2871031000004,63,942.2871174000002,944.0847407000001,,,,,,,,,,,940.0689155999999,940.0692710000003,,,,,,,,sub_765,2024-12-04_13h48.07.190,Reversal,2023.2.1,60.00229208743871,1,2024-12-04 13h48.19.888603 +0200,
16,exp1.png,exp2.png,,,,,,,,,,,,,,,,,,2,0,2,0,0,16,16,16,,,,,,,,,944.2062089000001,,,,,,,,,,,,,,944.0853619999998,False,56,137,True,exp2.png,exp1.png,trial_right_image,945.6381293000004,-1,exp1.png,1,exp2.png,exp1.png,1,3,reversed,incorrect,0.23023168502319824,1,invalid_win,845.9241968999995,945.638328,946.2533958000004,64,946.2534372,948.0509407999998,,,,,,,,,,,944.0850187000005,944.0853416999998,,,,,,,,sub_765,2024-12-04_13h48.07.190,Reversal,2023.2.1,60.00229208743871,1,2024-12-04 13h48.19.888603 +0200,
17,exp3.png,exp4.png,,,,,,,,,,,,,,,,,,2,0,2,0,0,17,17,17,,,,,,,,,948.1697042000005,,,,,,,,,,,,,,948.0515605999999,False,57,138,False,exp3.png,exp4.png,trial_right_image,949.6707233000006,-1,exp4.png,1,exp3.png,exp4.png,0,2,non-reversed,incorrect,0.9219641705389112,0,valid_lose,849.9568657,949.6709983999999,950.2862636999998,64,950.2862776000002,952.0840744000006,,,,,,,,,,,948.0512097000001,948.0515460000006,,,,,,,,sub_765,2024-12-04_13h48.07.190,Reversal,2023.2.1,60.00229208743871,1,2024-12-04 13h48.19.888603 +0200,
18,exp1.png,exp2.png,,,,,,,,,,,,,,,,,,2,0,2,0,0,18,18,18,,,,,,,,,952.2037753000004,,,,,,,,,,,,,,952.0848230000001,False,58,139,False,exp1.png,exp2.png,trial_left_image,954.0203940000001,1,exp1.png,1,exp2.png,exp1.png,1,3,reversed,incorrect,0.2502220892653618,0,valid_lose,854.3065456999993,954.0206822,954.6355356000004,64,954.6355492000002,956.4334589999999,,,,,,,,,,,952.0844993000001,952.0848092000006,,,,,,,,sub_765,2024-12-04_13h48.07.190,Reversal,2023.2.1,60.00229208743871,1,2024-12-04 13h48.19.888603 +0200,
19,exp3.png,exp4.png,,,,,,,,,,,,,,,,,,2,0,2,0,0,19,19,19,,,,,,,,,956.5645012000004,,,,,,,,,,,,,,956.4341628000002,False,59,140,True,exp4.png,exp3.png,trial_right_image,957.9699863000005,-1,exp3.png,1,exp3.png,exp4.png,1,1,non-reversed,correct,0.7952612250464723,1,valid_win,858.2560564999994,957.9701867000003,958.5851545000005,65,958.5851684999998,960.3827285000007,,,,,,,,,,,956.4337953000004,956.4341475000001,,,,,,,,sub_765,2024-12-04_13h48.07.190,Reversal,2023.2.1,60.00229208743871,1,2024-12-04 13h48.19.888603 +0200,
20,exp1.png,exp2.png,,,,,,,,,,,,,,,,,,2,0,2,0,0,20,20,20,,,,,,,,,960.5686091000007,,,,,,,,,,,,,,960.3833235000002,True,,,,,,,960.4511892999999,,,,,,,,,,,,,,960.4512042000006,960.4661241000003,,960.4661403,960.4934991999999,,,,,,,,,,,960.3830054,960.3833075000002,,,,,,,,sub_765,2024-12-04_13h48.07.190,Reversal,2023.2.1,60.00229208743871,1,2024-12-04 13h48.19.888603 +0200,
,,,exp1.png,,,,,,,,,,,,,,,,,2,0,2,0,,,,,0,0,0,0,0,0,0,0,960.5686091000007,,,,,,,,,,,,,,,,,,,,,,,,,,,,,,,,,,,,,,,,,960.5012821,960.5686091000007,963.8698935000002,100.0,100.0,2.0774385999993683,"[(100.0, 2.0774385999993683)]",,,,,,,,,,,,,sub_765,2024-12-04_13h48.07.190,Reversal,2023.2.1,60.00229208743871,1,2024-12-04 13h48.19.888603 +0200,
,,,exp2.png,,,,,,,,,,,,,,,,,2,0,2,0,,,,,0,0,0,0,0,1,1,1,963.9300834000005,,,,,,,,,,,,,,,,,,,,,,,,,,,,,,,,,,,,,,,,,963.8704425000005,963.9300834000005,967.0034887000002,,100.0,1.7067308999994566,"[(100.0, 1.7067308999994566)]",,,100.0,,,,,,,,,,sub_765,2024-12-04_13h48.07.190,Reversal,2023.2.1,60.00229208743871,1,2024-12-04 13h48.19.888603 +0200,
,,,exp3.png,,,,,,,,,,,,,,,,,2,0,2,0,,,,,0,0,0,0,0,2,2,2,967.0672801000001,,,,,,,,,,,,,,,,,,,,,,,,,,,,,,,,,,,,,,,,,967.0039354,967.0672801000001,970.5025059999998,,1.0,2.205556500000057,"[(1.0, 2.205556500000057)]",1.0,,,,,,,,,,,,sub_765,2024-12-04_13h48.07.190,Reversal,2023.2.1,60.00229208743871,1,2024-12-04 13h48.19.888603 +0200,
,,,exp4.png,,,,,,,,,,,,,,,,,2,0,2,0,,,,,0,0,0,0,0,3,3,3,970.5627648,,,,,,,,,,,,,,,,,,,,,,,,,,,,,,,,,,,,,,,,,970.5030047,970.5627648,973.7353616,,1.0,1.9748369999997522,"[(1.0, 1.9748369999997522)]",,1.0,,,,,,,,,,,sub_765,2024-12-04_13h48.07.190,Reversal,2023.2.1,60.00229208743871,1,2024-12-04 13h48.19.888603 +0200,
,,,,,,,,,,,,,,,,,,,,,,,,,,,,,,,,,,,,,,,,,,,,,,,,,,,,,,,,,,,,,,,,,,,,,,,,,,65,,,,,,,,,,,,,,,,973.7356866999999,67,37,30,308.52408560000003,1,,,,,,,,
