trial_index,trial_image1_file,trial_image2_file,image_file,learning_outer_loop.thisRepN,learning_outer_loop.thisTrialN,learning_outer_loop.thisN,learning_outer_loop.thisIndex,learning_inner_loop.thisRepN,learning_inner_loop.thisTrialN,learning_inner_loop.thisN,learning_inner_loop.thisIndex,learning_estimation_outer_loop.thisRepN,learning_estimation_outer_loop.thisTrialN,learning_estimation_outer_loop.thisN,learning_estimation_outer_loop.thisIndex,learning_estimation_inner_loop.thisRepN,learning_estimation_inner_loop.thisTrialN,learning_estimation_inner_loop.thisN,learning_estimation_inner_loop.thisIndex,reversal_outer_loop.thisRepN,reversal_outer_loop.thisTrialN,reversal_outer_loop.thisN,reversal_outer_loop.thisIndex,reversal_inner_loop.thisRepN,reversal_inner_loop.thisTrialN,reversal_inner_loop.thisN,reversal_inner_loop.thisIndex,reversal_estimation_outer_loop.thisRepN,reversal_estimation_outer_loop.thisTrialN,reversal_estimation_outer_loop.thisN,reversal_estimation_outer_loop.thisIndex,reversal_estimation_inner_loop.thisRepN,reversal_estimation_inner_loop.thisTrialN,reversal_estimation_inner_loop.thisN,reversal_estimation_inner_loop.thisIndex,skipped,total_trial_counter,trial_num,left_right_flip,left_image_file,right_image_file,clicked_stimulus_side,side,clicked_stimulus,version,high_prob_image_file,low_prob_image_file,choice_a,choice_b,pair_type,correct,trial_feedback_random,reward,trial_type,overall_time_after_trial,score,estimation_rating.response,estimation_rating.rt,estimation_rating.history,estimation_rating.started,estimation_rating.stopped,estimation_exp2.png,estimation_exp3.png,estimation_exp4.png,estimation_exp1.png,total_learning_time,total_correct,learning_correct,reversal_correct,total_reversal_time,extra_block,participant,date,expName,psychopyVersion,frameRate,ver,
0,exp1.png,exp2.png,,0,0,0,0,0,0,0,0,,,,,,,,,,,,,,,,,,,,,,,,,False,0,1,True,exp2.png,exp1.png,trial_left_image,1,exp2.png,4,exp2.png,exp1.png,1,1,non-reversed,correct,0.683924757809172,1,valid_win,14.729307599999629,1,,,,,,,,,,,,,,,,sub_288,2023-06-07_11h30.34.760,Reversal,2022.1.1,59.935904543721485,4,
1,exp3.png,exp4.png,,0,0,0,0,0,1,1,1,,,,,,,,,,,,,,,,,,,,,,,,,False,1,2,True,exp4.png,exp3.png,trial_left_image,1,exp4.png,4,exp4.png,exp3.png,1,3,reversed,correct,0.8325009686582657,1,valid_win,21.395301700000346,2,,,,,,,,,,,,,,,,sub_288,2023-06-07_11h30.34.760,Reversal,2022.1.1,59.935904543721485,4,
2,exp1.png,exp2.png,,0,0,0,0,0,2,2,2,,,,,,,,,,,,,,,,,,,,,,,,,False,2,3,True,exp2.png,exp1.png,trial_right_image,-1,exp1.png,4,exp2.png,exp1.png,0,2,non-reversed,incorrect,0.6456655985348768,0,valid_lose,27.22851129999981,2,,,,,,,,,,,,,,,,sub_288,2023-06-07_11h30.34.760,Reversal,2022.1.1,59.935904543721485,4,
3,exp3.png,exp4.png,,0,0,0,0,0,3,3,3,,,,,,,,,,,,,,,,,,,,,,,,,False,3,4,True,exp4.png,exp3.png,trial_right_image,-1,exp3.png,4,exp4.png,exp3.png,0,4,reversed,incorrect,0.9577831292955438,0,valid_lose,34.629138299999795,2,,,,,,,,,,,,,,,,sub_288,2023-06-07_11h30.34.760,Reversal,2022.1.1,59.935904543721485,4,
4,exp1.png,exp2.png,,0,0,0,0,0,4,4,4,,,,,,,,,,,,,,,,,,,,,,,,,False,4,5,False,exp1.png,exp2.png,trial_left_image,1,exp1.png,4,exp2.png,exp1.png,0,2,non-reversed,incorrect,0.2333718502432558,1,invalid_win,43.44407890000002,3,,,,,,,,,,,,,,,,sub_288,2023-06-07_11h30.34.760,Reversal,2022.1.1,59.935904543721485,4,
5,exp3.png,exp4.png,,0,0,0,0,0,5,5,5,,,,,,,,,,,,,,,,,,,,,,,,,False,5,6,True,exp4.png,exp3.png,trial_left_image,1,exp4.png,4,exp4.png,exp3.png,1,3,reversed,correct,0.8287923071302856,1,valid_win,50.092301900000166,4,,,,,,,,,,,,,,,,sub_288,2023-06-07_11h30.34.760,Reversal,2022.1.1,59.935904543721485,4,
6,exp1.png,exp2.png,,0,0,0,0,0,6,6,6,,,,,,,,,,,,,,,,,,,,,,,,,False,6,7,False,exp1.png,exp2.png,trial_left_image,1,exp1.png,4,exp2.png,exp1.png,0,2,non-reversed,incorrect,0.6487040804176387,0,valid_lose,57.10956869999973,4,,,,,,,,,,,,,,,,sub_288,2023-06-07_11h30.34.760,Reversal,2022.1.1,59.935904543721485,4,
7,exp3.png,exp4.png,,0,0,0,0,0,7,7,7,,,,,,,,,,,,,,,,,,,,,,,,,False,7,8,True,exp4.png,exp3.png,trial_right_image,-1,exp3.png,4,exp4.png,exp3.png,0,4,reversed,incorrect,0.42030812960068265,0,valid_lose,64.1573486999996,4,,,,,,,,,,,,,,,,sub_288,2023-06-07_11h30.34.760,Reversal,2022.1.1,59.935904543721485,4,
8,exp1.png,exp2.png,,0,0,0,0,0,8,8,8,,,,,,,,,,,,,,,,,,,,,,,,,False,8,9,False,exp1.png,exp2.png,trial_right_image,-1,exp2.png,4,exp2.png,exp1.png,1,1,non-reversed,correct,0.6866495045946026,1,valid_win,69.97292409999955,5,,,,,,,,,,,,,,,,sub_288,2023-06-07_11h30.34.760,Reversal,2022.1.1,59.935904543721485,4,
9,exp3.png,exp4.png,,0,0,0,0,0,9,9,9,,,,,,,,,,,,,,,,,,,,,,,,,False,9,10,False,exp3.png,exp4.png,trial_right_image,-1,exp4.png,4,exp4.png,exp3.png,1,3,reversed,correct,0.8027495837051806,1,valid_win,79.87137580000035,6,,,,,,,,,,,,,,,,sub_288,2023-06-07_11h30.34.760,Reversal,2022.1.1,59.935904543721485,4,
10,exp1.png,exp2.png,,0,0,0,0,0,10,10,10,,,,,,,,,,,,,,,,,,,,,,,,,False,10,11,False,exp1.png,exp2.png,trial_left_image,1,exp1.png,4,exp2.png,exp1.png,0,2,non-reversed,incorrect,0.5013322071291769,0,valid_lose,85.63828689999991,6,,,,,,,,,,,,,,,,sub_288,2023-06-07_11h30.34.760,Reversal,2022.1.1,59.935904543721485,4,
11,exp3.png,exp4.png,,0,0,0,0,0,11,11,11,,,,,,,,,,,,,,,,,,,,,,,,,False,11,12,True,exp4.png,exp3.png,trial_right_image,-1,exp3.png,4,exp4.png,exp3.png,0,4,reversed,incorrect,0.666553776216096,0,valid_lose,92.70386020000024,6,,,,,,,,,,,,,,,,sub_288,2023-06-07_11h30.34.760,Reversal,2022.1.1,59.935904543721485,4,
12,exp1.png,exp2.png,,0,0,0,0,0,12,12,12,,,,,,,,,,,,,,,,,,,,,,,,,False,12,13,True,exp2.png,exp1.png,trial_left_image,1,exp2.png,4,exp2.png,exp1.png,1,1,non-reversed,correct,0.690462674539399,1,valid_win,98.33579050000026,7,,,,,,,,,,,,,,,,sub_288,2023-06-07_11h30.34.760,Reversal,2022.1.1,59.935904543721485,4,
13,exp3.png,exp4.png,,0,0,0,0,0,13,13,13,,,,,,,,,,,,,,,,,,,,,,,,,False,13,14,False,exp3.png,exp4.png,trial_left_image,1,exp3.png,4,exp4.png,exp3.png,0,4,reversed,incorrect,0.9929385618214622,0,valid_lose,104.35190570000032,7,,,,,,,,,,,,,,,,sub_288,2023-06-07_11h30.34.760,Reversal,2022.1.1,59.935904543721485,4,
14,exp1.png,exp2.png,,0,0,0,0,0,14,14,14,,,,,,,,,,,,,,,,,,,,,,,,,False,14,15,False,exp1.png,exp2.png,trial_right_image,-1,exp2.png,4,exp2.png,exp1.png,1,1,non-reversed,correct,0.39094684167930094,1,valid_win,110.2022078,8,,,,,,,,,,,,,,,,sub_288,2023-06-07_11h30.34.760,Reversal,2022.1.1,59.935904543721485,4,
15,exp3.png,exp4.png,,0,0,0,0,0,15,15,15,,,,,,,,,,,,,,,,,,,,,,,,,False,15,16,False,exp3.png,exp4.png,trial_right_image,-1,exp4.png,4,exp4.png,exp3.png,1,3,reversed,correct,0.5779286049426763,1,valid_win,116.3500538999997,9,,,,,,,,,,,,,,,,sub_288,2023-06-07_11h30.34.760,Reversal,2022.1.1,59.935904543721485,4,
16,exp1.png,exp2.png,,0,0,0,0,0,16,16,16,,,,,,,,,,,,,,,,,,,,,,,,,False,16,17,True,exp2.png,exp1.png,trial_left_image,1,exp2.png,4,exp2.png,exp1.png,1,1,non-reversed,correct,0.5473868892716595,1,valid_win,122.06573930000013,10,,,,,,,,,,,,,,,,sub_288,2023-06-07_11h30.34.760,Reversal,2022.1.1,59.935904543721485,4,
17,exp3.png,exp4.png,,0,0,0,0,0,17,17,17,,,,,,,,,,,,,,,,,,,,,,,,,False,17,18,True,exp4.png,exp3.png,trial_left_image,1,exp4.png,4,exp4.png,exp3.png,1,3,reversed,correct,0.03889619585770565,0,invalid_lose,129.59842430000026,10,,,,,,,,,,,,,,,,sub_288,2023-06-07_11h30.34.760,Reversal,2022.1.1,59.935904543721485,4,
18,exp1.png,exp2.png,,0,0,0,0,0,18,18,18,,,,,,,,,,,,,,,,,,,,,,,,,False,18,19,False,exp1.png,exp2.png,trial_right_image,-1,exp2.png,4,exp2.png,exp1.png,1,1,non-reversed,correct,0.38572850817944837,1,valid_win,134.48018859999956,11,,,,,,,,,,,,,,,,sub_288,2023-06-07_11h30.34.760,Reversal,2022.1.1,59.935904543721485,4,
19,exp3.png,exp4.png,,0,0,0,0,0,19,19,19,,,,,,,,,,,,,,,,,,,,,,,,,False,19,20,False,exp3.png,exp4.png,trial_left_image,1,exp3.png,4,exp4.png,exp3.png,0,4,reversed,incorrect,0.5953798045307239,0,valid_lose,139.2131655000003,11,,,,,,,,,,,,,,,,sub_288,2023-06-07_11h30.34.760,Reversal,2022.1.1,59.935904543721485,4,
20,exp1.png,exp2.png,,0,0,0,0,0,20,20,20,,,,,,,,,,,,,,,,,,,,,,,,,True,,,,,,,,,,,,,,,,,,,,,,,,,,,,,,,,,,,,sub_288,2023-06-07_11h30.34.760,Reversal,2022.1.1,59.935904543721485,4,
,,,exp1.png,0,0,0,0,,,,,0,0,0,0,0,0,0,0,,,,,,,,,,,,,,,,,,,,,,,,,,,,,,,,,,,,,,50.0,None,[],235.4828090000001,None,,,,,,,,,,,sub_288,2023-06-07_11h30.34.760,Reversal,2022.1.1,59.935904543721485,4,
,,,exp2.png,0,0,0,0,,,,,0,0,0,0,0,1,1,1,,,,,,,,,,,,,,,,,,,,,,,,,,,,,,,,,,,,,,62.0,9.099104799999623,"[(62.0, 9.099104799999623)]",244.47216109999954,None,62.0,,,,,,,,,,sub_288,2023-06-07_11h30.34.760,Reversal,2022.1.1,59.935904543721485,4,
,,,exp3.png,0,0,0,0,,,,,0,0,0,0,0,2,2,2,,,,,,,,,,,,,,,,,,,,,,,,,,,,,,,,,,,,,,34.0,5.501915300000292,"[(34.0, 5.501915300000292)]",256.3211239000002,None,,34.0,,,,,,,,,sub_288,2023-06-07_11h30.34.760,Reversal,2022.1.1,59.935904543721485,4,
,,,exp4.png,0,0,0,0,,,,,0,0,0,0,0,3,3,3,,,,,,,,,,,,,,,,,,,,,,,,,,,,,,,,,,,,,,38.0,4.323601000000053,"[(38.0, 4.323601000000053)]",263.3816563999999,None,,,38.0,,,,,,,,sub_288,2023-06-07_11h30.34.760,Reversal,2022.1.1,59.935904543721485,4,
0,exp1.png,exp2.png,,1,0,1,0,0,0,0,0,,,,,,,,,,,,,,,,,,,,,,,,,False,20,21,True,exp2.png,exp1.png,trial_right_image,-1,exp1.png,4,exp2.png,exp1.png,0,2,non-reversed,incorrect,0.5097473383829116,0,valid_lose,180.6096951999998,11,,,,,,,,,,,,,,,,sub_288,2023-06-07_11h30.34.760,Reversal,2022.1.1,59.935904543721485,4,
1,exp3.png,exp4.png,,1,0,1,0,0,1,1,1,,,,,,,,,,,,,,,,,,,,,,,,,False,21,22,False,exp3.png,exp4.png,trial_left_image,1,exp3.png,4,exp4.png,exp3.png,0,4,reversed,incorrect,0.46277175676440385,0,valid_lose,185.24105510000027,11,,,,,,,,,,,,,,,,sub_288,2023-06-07_11h30.34.760,Reversal,2022.1.1,59.935904543721485,4,
2,exp1.png,exp2.png,,1,0,1,0,0,2,2,2,,,,,,,,,,,,,,,,,,,,,,,,,False,22,23,True,exp2.png,exp1.png,trial_left_image,1,exp2.png,4,exp2.png,exp1.png,1,1,non-reversed,correct,0.4392406679118732,1,valid_win,190.8079362999997,12,,,,,,,,,,,,,,,,sub_288,2023-06-07_11h30.34.760,Reversal,2022.1.1,59.935904543721485,4,
3,exp3.png,exp4.png,,1,0,1,0,0,3,3,3,,,,,,,,,,,,,,,,,,,,,,,,,False,23,24,True,exp4.png,exp3.png,trial_left_image,1,exp4.png,4,exp4.png,exp3.png,1,3,reversed,correct,0.9787618470734103,1,valid_win,202.70591129999957,13,,,,,,,,,,,,,,,,sub_288,2023-06-07_11h30.34.760,Reversal,2022.1.1,59.935904543721485,4,
4,exp1.png,exp2.png,,1,0,1,0,0,4,4,4,,,,,,,,,,,,,,,,,,,,,,,,,False,24,25,False,exp1.png,exp2.png,trial_right_image,-1,exp2.png,4,exp2.png,exp1.png,1,1,non-reversed,correct,0.07090940386750888,0,invalid_lose,208.8385460999998,13,,,,,,,,,,,,,,,,sub_288,2023-06-07_11h30.34.760,Reversal,2022.1.1,59.935904543721485,4,
5,exp3.png,exp4.png,,1,0,1,0,0,5,5,5,,,,,,,,,,,,,,,,,,,,,,,,,False,25,26,False,exp3.png,exp4.png,trial_left_image,1,exp3.png,4,exp4.png,exp3.png,0,4,reversed,incorrect,0.00496409540340248,1,invalid_win,213.82116889999998,14,,,,,,,,,,,,,,,,sub_288,2023-06-07_11h30.34.760,Reversal,2022.1.1,59.935904543721485,4,
6,exp1.png,exp2.png,,1,0,1,0,0,6,6,6,,,,,,,,,,,,,,,,,,,,,,,,,False,26,27,False,exp1.png,exp2.png,trial_right_image,-1,exp2.png,4,exp2.png,exp1.png,1,1,non-reversed,correct,0.09161137947098186,0,invalid_lose,221.0374254999997,14,,,,,,,,,,,,,,,,sub_288,2023-06-07_11h30.34.760,Reversal,2022.1.1,59.935904543721485,4,
7,exp3.png,exp4.png,,1,0,1,0,0,7,7,7,,,,,,,,,,,,,,,,,,,,,,,,,False,27,28,True,exp4.png,exp3.png,trial_right_image,-1,exp3.png,4,exp4.png,exp3.png,0,4,reversed,incorrect,0.7928377914857788,0,valid_lose,227.90301790000012,14,,,,,,,,,,,,,,,,sub_288,2023-06-07_11h30.34.760,Reversal,2022.1.1,59.935904543721485,4,
8,exp1.png,exp2.png,,1,0,1,0,0,8,8,8,,,,,,,,,,,,,,,,,,,,,,,,,False,28,29,False,exp1.png,exp2.png,trial_left_image,1,exp1.png,4,exp2.png,exp1.png,0,2,non-reversed,incorrect,0.9365754487702519,0,valid_lose,233.15187369999967,14,,,,,,,,,,,,,,,,sub_288,2023-06-07_11h30.34.760,Reversal,2022.1.1,59.935904543721485,4,
9,exp3.png,exp4.png,,1,0,1,0,0,9,9,9,,,,,,,,,,,,,,,,,,,,,,,,,False,29,30,True,exp4.png,exp3.png,trial_right_image,-1,exp3.png,4,exp4.png,exp3.png,0,4,reversed,incorrect,0.4197408933914054,0,valid_lose,238.9182238000003,14,,,,,,,,,,,,,,,,sub_288,2023-06-07_11h30.34.760,Reversal,2022.1.1,59.935904543721485,4,
10,exp1.png,exp2.png,,1,0,1,0,0,10,10,10,,,,,,,,,,,,,,,,,,,,,,,,,False,30,31,True,exp2.png,exp1.png,trial_left_image,1,exp2.png,4,exp2.png,exp1.png,1,1,non-reversed,correct,0.9153666217719909,1,valid_win,244.2339552000003,15,,,,,,,,,,,,,,,,sub_288,2023-06-07_11h30.34.760,Reversal,2022.1.1,59.935904543721485,4,
11,exp3.png,exp4.png,,1,0,1,0,0,11,11,11,,,,,,,,,,,,,,,,,,,,,,,,,False,31,32,True,exp4.png,exp3.png,trial_left_image,1,exp4.png,4,exp4.png,exp3.png,1,3,reversed,correct,0.9227114614573309,1,valid_win,248.6506043999998,16,,,,,,,,,,,,,,,,sub_288,2023-06-07_11h30.34.760,Reversal,2022.1.1,59.935904543721485,4,
12,exp1.png,exp2.png,,1,0,1,0,0,12,12,12,,,,,,,,,,,,,,,,,,,,,,,,,False,32,33,True,exp2.png,exp1.png,trial_right_image,-1,exp1.png,4,exp2.png,exp1.png,0,2,non-reversed,incorrect,0.523812087597353,0,valid_lose,253.76567309999973,16,,,,,,,,,,,,,,,,sub_288,2023-06-07_11h30.34.760,Reversal,2022.1.1,59.935904543721485,4,
13,exp3.png,exp4.png,,1,0,1,0,0,13,13,13,,,,,,,,,,,,,,,,,,,,,,,,,False,33,34,False,exp3.png,exp4.png,trial_left_image,1,exp3.png,4,exp4.png,exp3.png,0,4,reversed,incorrect,0.09116337711616562,1,invalid_win,258.3654016999999,17,,,,,,,,,,,,,,,,sub_288,2023-06-07_11h30.34.760,Reversal,2022.1.1,59.935904543721485,4,
14,exp1.png,exp2.png,,1,0,1,0,0,14,14,14,,,,,,,,,,,,,,,,,,,,,,,,,False,34,35,True,exp2.png,exp1.png,trial_left_image,1,exp2.png,4,exp2.png,exp1.png,1,1,non-reversed,correct,0.26005100749235466,1,valid_win,264.7310636000002,18,,,,,,,,,,,,,,,,sub_288,2023-06-07_11h30.34.760,Reversal,2022.1.1,59.935904543721485,4,
15,exp3.png,exp4.png,,1,0,1,0,0,15,15,15,,,,,,,,,,,,,,,,,,,,,,,,,False,35,36,False,exp3.png,exp4.png,trial_left_image,1,exp3.png,4,exp4.png,exp3.png,0,4,reversed,incorrect,0.9748340996711472,0,valid_lose,269.9305887999999,18,,,,,,,,,,,,,,,,sub_288,2023-06-07_11h30.34.760,Reversal,2022.1.1,59.935904543721485,4,
16,exp1.png,exp2.png,,1,0,1,0,0,16,16,16,,,,,,,,,,,,,,,,,,,,,,,,,False,36,37,False,exp1.png,exp2.png,trial_right_image,-1,exp2.png,4,exp2.png,exp1.png,1,1,non-reversed,correct,0.23392714291653005,0,invalid_lose,274.7301956000001,18,,,,,,,,,,,,,,,,sub_288,2023-06-07_11h30.34.760,Reversal,2022.1.1,59.935904543721485,4,
17,exp3.png,exp4.png,,1,0,1,0,0,17,17,17,,,,,,,,,,,,,,,,,,,,,,,,,False,37,38,False,exp3.png,exp4.png,trial_left_image,1,exp3.png,4,exp4.png,exp3.png,0,4,reversed,incorrect,0.19484808562494238,1,invalid_win,279.1649067999997,19,,,,,,,,,,,,,,,,sub_288,2023-06-07_11h30.34.760,Reversal,2022.1.1,59.935904543721485,4,
18,exp1.png,exp2.png,,1,0,1,0,0,18,18,18,,,,,,,,,,,,,,,,,,,,,,,,,False,38,39,True,exp2.png,exp1.png,trial_left_image,1,exp2.png,4,exp2.png,exp1.png,1,1,non-reversed,correct,0.9944850683310433,1,valid_win,283.9470830999999,20,,,,,,,,,,,,,,,,sub_288,2023-06-07_11h30.34.760,Reversal,2022.1.1,59.935904543721485,4,
19,exp3.png,exp4.png,,1,0,1,0,0,19,19,19,,,,,,,,,,,,,,,,,,,,,,,,,False,39,40,False,exp3.png,exp4.png,trial_left_image,1,exp3.png,4,exp4.png,exp3.png,0,4,reversed,incorrect,0.10001961864277897,1,invalid_win,289.54471269999976,21,,,,,,,,,,,,,,,,sub_288,2023-06-07_11h30.34.760,Reversal,2022.1.1,59.935904543721485,4,
20,exp1.png,exp2.png,,1,0,1,0,0,20,20,20,,,,,,,,,,,,,,,,,,,,,,,,,True,,,,,,,,,,,,,,,,,,,,,,,,,,,,,,,,,,,,sub_288,2023-06-07_11h30.34.760,Reversal,2022.1.1,59.935904543721485,4,
,,,exp1.png,1,0,1,0,,,,,0,0,0,0,0,0,0,0,,,,,,,,,,,,,,,,,,,,,,,,,,,,,,,,,,,,,,43.0,6.116516799999772,"[(43.0, 6.116516799999772)]",385.8450694000003,None,,,,43.0,,,,,,,sub_288,2023-06-07_11h30.34.760,Reversal,2022.1.1,59.935904543721485,4,
,,,exp2.png,1,0,1,0,,,,,0,0,0,0,0,1,1,1,,,,,,,,,,,,,,,,,,,,,,,,,,,,,,,,,,,,,,36.0,2.0755088000005344,"[(36.0, 2.0755088000005344)]",393.0793193999998,None,36.0,,,,,,,,,,sub_288,2023-06-07_11h30.34.760,Reversal,2022.1.1,59.935904543721485,4,
,,,exp3.png,1,0,1,0,,,,,0,0,0,0,0,2,2,2,,,,,,,,,,,,,,,,,,,,,,,,,,,,,,,,,,,,,,35.0,3.8054050999999163,"[(35.0, 3.8054050999999163)]",396.4645340999996,None,,35.0,,,,,,,,,sub_288,2023-06-07_11h30.34.760,Reversal,2022.1.1,59.935904543721485,4,
,,,exp4.png,1,0,1,0,,,,,0,0,0,0,0,3,3,3,,,,,,,,,,,,,,,,,,,,,,,,,,,,,,,,,,,,,,33.0,2.2366596000001664,"[(33.0, 2.2366596000001664)]",401.3697965000001,None,,,33.0,,,,,,,,sub_288,2023-06-07_11h30.34.760,Reversal,2022.1.1,59.935904543721485,4,
0,exp1.png,exp2.png,,2,0,2,0,0,0,0,0,,,,,,,,,,,,,,,,,,,,,,,,,False,40,41,True,exp2.png,exp1.png,trial_left_image,1,exp2.png,4,exp2.png,exp1.png,1,1,non-reversed,correct,0.36398988678050936,1,valid_win,313.9927405999997,22,,,,,,,,,,,,,,,,sub_288,2023-06-07_11h30.34.760,Reversal,2022.1.1,59.935904543721485,4,
1,exp3.png,exp4.png,,2,0,2,0,0,1,1,1,,,,,,,,,,,,,,,,,,,,,,,,,False,41,42,True,exp4.png,exp3.png,trial_left_image,1,exp4.png,4,exp4.png,exp3.png,1,3,reversed,correct,0.9185127679958712,1,valid_win,318.4917253000003,23,,,,,,,,,,,,,,,,sub_288,2023-06-07_11h30.34.760,Reversal,2022.1.1,59.935904543721485,4,
2,exp1.png,exp2.png,,2,0,2,0,0,2,2,2,,,,,,,,,,,,,,,,,,,,,,,,,False,42,43,False,exp1.png,exp2.png,trial_left_image,1,exp1.png,4,exp2.png,exp1.png,0,2,non-reversed,incorrect,0.19847165625826413,1,invalid_win,323.2910327999998,24,,,,,,,,,,,,,,,,sub_288,2023-06-07_11h30.34.760,Reversal,2022.1.1,59.935904543721485,4,
3,exp3.png,exp4.png,,2,0,2,0,0,3,3,3,,,,,,,,,,,,,,,,,,,,,,,,,False,43,44,True,exp4.png,exp3.png,trial_left_image,1,exp4.png,4,exp4.png,exp3.png,1,3,reversed,correct,0.5335965200289456,1,valid_win,328.07271740000033,25,,,,,,,,,,,,,,,,sub_288,2023-06-07_11h30.34.760,Reversal,2022.1.1,59.935904543721485,4,
4,exp1.png,exp2.png,,2,0,2,0,0,4,4,4,,,,,,,,,,,,,,,,,,,,,,,,,False,44,45,False,exp1.png,exp2.png,trial_left_image,1,exp1.png,4,exp2.png,exp1.png,0,2,non-reversed,incorrect,0.41433408207646116,0,valid_lose,332.7726706000003,25,,,,,,,,,,,,,,,,sub_288,2023-06-07_11h30.34.760,Reversal,2022.1.1,59.935904543721485,4,
5,exp3.png,exp4.png,,2,0,2,0,0,5,5,5,,,,,,,,,,,,,,,,,,,,,,,,,False,45,46,True,exp4.png,exp3.png,trial_right_image,-1,exp3.png,4,exp4.png,exp3.png,0,4,reversed,incorrect,0.5163992648707959,0,valid_lose,337.55523429999994,25,,,,,,,,,,,,,,,,sub_288,2023-06-07_11h30.34.760,Reversal,2022.1.1,59.935904543721485,4,
6,exp1.png,exp2.png,,2,0,2,0,0,6,6,6,,,,,,,,,,,,,,,,,,,,,,,,,False,46,47,False,exp1.png,exp2.png,trial_left_image,1,exp1.png,4,exp2.png,exp1.png,0,2,non-reversed,incorrect,0.26088393477346217,0,valid_lose,342.22194130000025,25,,,,,,,,,,,,,,,,sub_288,2023-06-07_11h30.34.760,Reversal,2022.1.1,59.935904543721485,4,
7,exp3.png,exp4.png,,2,0,2,0,0,7,7,7,,,,,,,,,,,,,,,,,,,,,,,,,False,47,48,True,exp4.png,exp3.png,trial_left_image,1,exp4.png,4,exp4.png,exp3.png,1,3,reversed,correct,0.5364101376965693,1,valid_win,346.72156689999974,26,,,,,,,,,,,,,,,,sub_288,2023-06-07_11h30.34.760,Reversal,2022.1.1,59.935904543721485,4,
8,exp1.png,exp2.png,,2,0,2,0,0,8,8,8,,,,,,,,,,,,,,,,,,,,,,,,,False,48,49,False,exp1.png,exp2.png,trial_left_image,1,exp1.png,4,exp2.png,exp1.png,0,2,non-reversed,incorrect,0.21801153538259255,1,invalid_win,351.88776919999964,27,,,,,,,,,,,,,,,,sub_288,2023-06-07_11h30.34.760,Reversal,2022.1.1,59.935904543721485,4,
9,exp3.png,exp4.png,,2,0,2,0,0,9,9,9,,,,,,,,,,,,,,,,,,,,,,,,,False,49,50,True,exp4.png,exp3.png,trial_left_image,1,exp4.png,4,exp4.png,exp3.png,1,3,reversed,correct,0.22807255802079784,0,invalid_lose,356.9034306000003,27,,,,,,,,,,,,,,,,sub_288,2023-06-07_11h30.34.760,Reversal,2022.1.1,59.935904543721485,4,
10,exp1.png,exp2.png,,2,0,2,0,0,10,10,10,,,,,,,,,,,,,,,,,,,,,,,,,False,50,51,False,exp1.png,exp2.png,trial_left_image,1,exp1.png,4,exp2.png,exp1.png,0,2,non-reversed,incorrect,0.9326316156334599,0,valid_lose,362.13579579999987,27,,,,,,,,,,,,,,,,sub_288,2023-06-07_11h30.34.760,Reversal,2022.1.1,59.935904543721485,4,
11,exp3.png,exp4.png,,2,0,2,0,0,11,11,11,,,,,,,,,,,,,,,,,,,,,,,,,False,51,52,True,exp4.png,exp3.png,trial_right_image,-1,exp3.png,4,exp4.png,exp3.png,0,4,reversed,incorrect,0.4259783381470268,0,valid_lose,367.46799869999995,27,,,,,,,,,,,,,,,,sub_288,2023-06-07_11h30.34.760,Reversal,2022.1.1,59.935904543721485,4,
12,exp1.png,exp2.png,,2,0,2,0,0,12,12,12,,,,,,,,,,,,,,,,,,,,,,,,,False,52,53,True,exp2.png,exp1.png,trial_left_image,1,exp2.png,4,exp2.png,exp1.png,1,1,non-reversed,correct,0.7778309977254809,1,valid_win,372.1845218999997,28,,,,,,,,,,,,,,,,sub_288,2023-06-07_11h30.34.760,Reversal,2022.1.1,59.935904543721485,4,
13,exp3.png,exp4.png,,2,0,2,0,0,13,13,13,,,,,,,,,,,,,,,,,,,,,,,,,False,53,54,True,exp4.png,exp3.png,trial_left_image,1,exp4.png,4,exp4.png,exp3.png,1,3,reversed,correct,0.017982210458214798,0,invalid_lose,377.15121309999995,28,,,,,,,,,,,,,,,,sub_288,2023-06-07_11h30.34.760,Reversal,2022.1.1,59.935904543721485,4,
14,exp1.png,exp2.png,,2,0,2,0,0,14,14,14,,,,,,,,,,,,,,,,,,,,,,,,,False,54,55,False,exp1.png,exp2.png,trial_left_image,1,exp1.png,4,exp2.png,exp1.png,0,2,non-reversed,incorrect,0.37831427324696565,0,valid_lose,382.31674909999947,28,,,,,,,,,,,,,,,,sub_288,2023-06-07_11h30.34.760,Reversal,2022.1.1,59.935904543721485,4,
15,exp3.png,exp4.png,,2,0,2,0,0,15,15,15,,,,,,,,,,,,,,,,,,,,,,,,,False,55,56,False,exp3.png,exp4.png,trial_right_image,-1,exp4.png,4,exp4.png,exp3.png,1,3,reversed,correct,0.16860886652121632,0,invalid_lose,387.01517409999997,28,,,,,,,,,,,,,,,,sub_288,2023-06-07_11h30.34.760,Reversal,2022.1.1,59.935904543721485,4,
16,exp1.png,exp2.png,,2,0,2,0,0,16,16,16,,,,,,,,,,,,,,,,,,,,,,,,,False,56,57,False,exp1.png,exp2.png,trial_left_image,1,exp1.png,4,exp2.png,exp1.png,0,2,non-reversed,incorrect,0.6243112902108922,0,valid_lose,391.4990638999998,28,,,,,,,,,,,,,,,,sub_288,2023-06-07_11h30.34.760,Reversal,2022.1.1,59.935904543721485,4,
17,exp3.png,exp4.png,,2,0,2,0,0,17,17,17,,,,,,,,,,,,,,,,,,,,,,,,,False,57,58,False,exp3.png,exp4.png,trial_right_image,-1,exp4.png,4,exp4.png,exp3.png,1,3,reversed,correct,0.028112879147679015,0,invalid_lose,396.6479277999997,28,,,,,,,,,,,,,,,,sub_288,2023-06-07_11h30.34.760,Reversal,2022.1.1,59.935904543721485,4,
18,exp1.png,exp2.png,,2,0,2,0,0,18,18,18,,,,,,,,,,,,,,,,,,,,,,,,,False,58,59,False,exp1.png,exp2.png,trial_right_image,-1,exp2.png,4,exp2.png,exp1.png,1,1,non-reversed,correct,0.6945483466087035,1,valid_win,400.9146437999998,29,,,,,,,,,,,,,,,,sub_288,2023-06-07_11h30.34.760,Reversal,2022.1.1,59.935904543721485,4,
19,exp3.png,exp4.png,,2,0,2,0,0,19,19,19,,,,,,,,,,,,,,,,,,,,,,,,,False,59,60,True,exp4.png,exp3.png,trial_right_image,-1,exp3.png,4,exp4.png,exp3.png,0,4,reversed,incorrect,0.5462371867809745,0,valid_lose,405.2806069999997,29,,,,,,,,,,,,,,,,sub_288,2023-06-07_11h30.34.760,Reversal,2022.1.1,59.935904543721485,4,
20,exp1.png,exp2.png,,2,0,2,0,0,20,20,20,,,,,,,,,,,,,,,,,,,,,,,,,True,,,,,,,,,,,,,,,,,,,,,,,,,,,,,,,,,,,,sub_288,2023-06-07_11h30.34.760,Reversal,2022.1.1,59.935904543721485,4,
,,,exp1.png,2,0,2,0,,,,,0,0,0,0,0,0,0,0,,,,,,,,,,,,,,,,,,,,,,,,,,,,,,,,,,,,,,64.0,1.77182029999949,"[(64.0, 1.77182029999949)]",501.57564040000034,None,,,,64.0,,,,,,,sub_288,2023-06-07_11h30.34.760,Reversal,2022.1.1,59.935904543721485,4,
,,,exp2.png,2,0,2,0,,,,,0,0,0,0,0,1,1,1,,,,,,,,,,,,,,,,,,,,,,,,,,,,,,,,,,,,,,60.0,1.4880026000000726,"[(60.0, 1.4880026000000726)]",505.3170553,None,60.0,,,,,,,,,,sub_288,2023-06-07_11h30.34.760,Reversal,2022.1.1,59.935904543721485,4,
,,,exp3.png,2,0,2,0,,,,,0,0,0,0,0,2,2,2,,,,,,,,,,,,,,,,,,,,,,,,,,,,,,,,,,,,,,50.0,None,[],507.3146488000002,None,,,,,,,,,,,sub_288,2023-06-07_11h30.34.760,Reversal,2022.1.1,59.935904543721485,4,
,,,exp4.png,2,0,2,0,,,,,0,0,0,0,0,3,3,3,,,,,,,,,,,,,,,,,,,,,,,,,,,,,,,,,,,,,,35.0,1.6208894000001237,"[(35.0, 1.6208894000001237)]",507.7837462999996,None,,,35.0,,,,,,,,sub_288,2023-06-07_11h30.34.760,Reversal,2022.1.1,59.935904543721485,4,
0,exp1.png,exp2.png,,3,0,3,0,0,0,0,0,,,,,,,,,,,,,,,,,,,,,,,,,False,60,61,True,exp2.png,exp1.png,trial_right_image,-1,exp1.png,4,exp2.png,exp1.png,0,2,non-reversed,incorrect,0.2380284994757802,1,invalid_win,419.3450707000002,30,,,,,,,,,,,,,,,,sub_288,2023-06-07_11h30.34.760,Reversal,2022.1.1,59.935904543721485,4,
1,exp3.png,exp4.png,,3,0,3,0,0,1,1,1,,,,,,,,,,,,,,,,,,,,,,,,,False,61,62,False,exp3.png,exp4.png,trial_left_image,1,exp3.png,4,exp4.png,exp3.png,0,4,reversed,incorrect,0.949038535023706,0,valid_lose,424.1098732999999,30,,,,,,,,,,,,,,,,sub_288,2023-06-07_11h30.34.760,Reversal,2022.1.1,59.935904543721485,4,
2,exp1.png,exp2.png,,3,0,3,0,0,2,2,2,,,,,,,,,,,,,,,,,,,,,,,,,False,62,63,False,exp1.png,exp2.png,trial_right_image,-1,exp2.png,4,exp2.png,exp1.png,1,1,non-reversed,correct,0.9545489539888944,1,valid_win,428.89374380000027,31,,,,,,,,,,,,,,,,sub_288,2023-06-07_11h30.34.760,Reversal,2022.1.1,59.935904543721485,4,
3,exp3.png,exp4.png,,3,0,3,0,0,3,3,3,,,,,,,,,,,,,,,,,,,,,,,,,False,63,64,False,exp3.png,exp4.png,trial_right_image,-1,exp4.png,4,exp4.png,exp3.png,1,3,reversed,correct,0.44273156960782234,1,valid_win,433.26070040000013,32,,,,,,,,,,,,,,,,sub_288,2023-06-07_11h30.34.760,Reversal,2022.1.1,59.935904543721485,4,
4,exp1.png,exp2.png,,3,0,3,0,0,4,4,4,,,,,,,,,,,,,,,,,,,,,,,,,False,64,65,True,exp2.png,exp1.png,trial_right_image,-1,exp1.png,4,exp2.png,exp1.png,0,2,non-reversed,incorrect,0.7936651813342435,0,valid_lose,437.7261542999995,32,,,,,,,,,,,,,,,,sub_288,2023-06-07_11h30.34.760,Reversal,2022.1.1,59.935904543721485,4,
5,exp3.png,exp4.png,,3,0,3,0,0,5,5,5,,,,,,,,,,,,,,,,,,,,,,,,,False,65,66,True,exp4.png,exp3.png,trial_right_image,-1,exp3.png,4,exp4.png,exp3.png,0,4,reversed,incorrect,0.6057538035871525,0,valid_lose,442.2588986999999,32,,,,,,,,,,,,,,,,sub_288,2023-06-07_11h30.34.760,Reversal,2022.1.1,59.935904543721485,4,
6,exp1.png,exp2.png,,3,0,3,0,0,6,6,6,,,,,,,,,,,,,,,,,,,,,,,,,False,66,67,False,exp1.png,exp2.png,trial_left_image,1,exp1.png,4,exp2.png,exp1.png,0,2,non-reversed,incorrect,0.5236453738273968,0,valid_lose,447.39292639999985,32,,,,,,,,,,,,,,,,sub_288,2023-06-07_11h30.34.760,Reversal,2022.1.1,59.935904543721485,4,
7,exp3.png,exp4.png,,3,0,3,0,0,7,7,7,,,,,,,,,,,,,,,,,,,,,,,,,False,67,68,True,exp4.png,exp3.png,trial_left_image,1,exp4.png,4,exp4.png,exp3.png,1,3,reversed,correct,0.4045615079094207,1,valid_win,451.7912803999998,33,,,,,,,,,,,,,,,,sub_288,2023-06-07_11h30.34.760,Reversal,2022.1.1,59.935904543721485,4,
8,exp1.png,exp2.png,,3,0,3,0,0,8,8,8,,,,,,,,,,,,,,,,,,,,,,,,,False,68,69,True,exp2.png,exp1.png,trial_left_image,1,exp2.png,4,exp2.png,exp1.png,1,1,non-reversed,correct,0.03550723856515159,0,invalid_lose,456.6238897000003,33,,,,,,,,,,,,,,,,sub_288,2023-06-07_11h30.34.760,Reversal,2022.1.1,59.935904543721485,4,
9,exp3.png,exp4.png,,3,0,3,0,0,9,9,9,,,,,,,,,,,,,,,,,,,,,,,,,False,69,70,False,exp3.png,exp4.png,trial_left_image,1,exp3.png,4,exp4.png,exp3.png,0,4,reversed,incorrect,0.061049264125073166,1,invalid_win,461.2065641999998,34,,,,,,,,,,,,,,,,sub_288,2023-06-07_11h30.34.760,Reversal,2022.1.1,59.935904543721485,4,
10,exp1.png,exp2.png,,3,0,3,0,0,10,10,10,,,,,,,,,,,,,,,,,,,,,,,,,False,70,71,False,exp1.png,exp2.png,trial_right_image,-1,exp2.png,4,exp2.png,exp1.png,1,1,non-reversed,correct,0.8593744490395737,1,valid_win,465.97241479999957,35,,,,,,,,,,,,,,,,sub_288,2023-06-07_11h30.34.760,Reversal,2022.1.1,59.935904543721485,4,
11,exp3.png,exp4.png,,3,0,3,0,0,11,11,11,,,,,,,,,,,,,,,,,,,,,,,,,False,71,72,False,exp3.png,exp4.png,trial_left_image,1,exp3.png,4,exp4.png,exp3.png,0,4,reversed,incorrect,0.7024178838206655,0,valid_lose,470.6556664,35,,,,,,,,,,,,,,,,sub_288,2023-06-07_11h30.34.760,Reversal,2022.1.1,59.935904543721485,4,
12,exp1.png,exp2.png,,3,0,3,0,0,12,12,12,,,,,,,,,,,,,,,,,,,,,,,,,False,72,73,True,exp2.png,exp1.png,trial_right_image,-1,exp1.png,4,exp2.png,exp1.png,0,2,non-reversed,incorrect,0.8393141946828935,0,valid_lose,475.62204829999973,35,,,,,,,,,,,,,,,,sub_288,2023-06-07_11h30.34.760,Reversal,2022.1.1,59.935904543721485,4,
13,exp3.png,exp4.png,,3,0,3,0,0,13,13,13,,,,,,,,,,,,,,,,,,,,,,,,,False,73,74,False,exp3.png,exp4.png,trial_left_image,1,exp3.png,4,exp4.png,exp3.png,0,4,reversed,incorrect,0.011085757072978764,1,invalid_win,481.0705366000002,36,,,,,,,,,,,,,,,,sub_288,2023-06-07_11h30.34.760,Reversal,2022.1.1,59.935904543721485,4,
14,exp1.png,exp2.png,,3,0,3,0,0,14,14,14,,,,,,,,,,,,,,,,,,,,,,,,,False,74,75,True,exp2.png,exp1.png,trial_right_image,-1,exp1.png,4,exp2.png,exp1.png,0,2,non-reversed,incorrect,0.26064082329720617,0,valid_lose,487.48726259999967,36,,,,,,,,,,,,,,,,sub_288,2023-06-07_11h30.34.760,Reversal,2022.1.1,59.935904543721485,4,
15,exp3.png,exp4.png,,3,0,3,0,0,15,15,15,,,,,,,,,,,,,,,,,,,,,,,,,False,75,76,True,exp4.png,exp3.png,trial_left_image,1,exp4.png,4,exp4.png,exp3.png,1,3,reversed,correct,0.8560774377703205,1,valid_win,492.1532933999997,37,,,,,,,,,,,,,,,,sub_288,2023-06-07_11h30.34.760,Reversal,2022.1.1,59.935904543721485,4,
16,exp1.png,exp2.png,,3,0,3,0,0,16,16,16,,,,,,,,,,,,,,,,,,,,,,,,,False,76,77,False,exp1.png,exp2.png,trial_left_image,1,exp1.png,4,exp2.png,exp1.png,0,2,non-reversed,incorrect,0.020097413195221625,1,invalid_win,496.6347439000001,38,,,,,,,,,,,,,,,,sub_288,2023-06-07_11h30.34.760,Reversal,2022.1.1,59.935904543721485,4,
17,exp3.png,exp4.png,,3,0,3,0,0,17,17,17,,,,,,,,,,,,,,,,,,,,,,,,,False,77,78,False,exp3.png,exp4.png,trial_left_image,1,exp3.png,4,exp4.png,exp3.png,0,4,reversed,incorrect,0.07383175435522205,1,invalid_win,501.3509560000002,39,,,,,,,,,,,,,,,,sub_288,2023-06-07_11h30.34.760,Reversal,2022.1.1,59.935904543721485,4,
18,exp1.png,exp2.png,,3,0,3,0,0,18,18,18,,,,,,,,,,,,,,,,,,,,,,,,,False,78,79,True,exp2.png,exp1.png,trial_left_image,1,exp2.png,4,exp2.png,exp1.png,1,1,non-reversed,correct,0.478884134374995,1,valid_win,505.66769509999995,40,,,,,,,,,,,,,,,,sub_288,2023-06-07_11h30.34.760,Reversal,2022.1.1,59.935904543721485,4,
19,exp3.png,exp4.png,,3,0,3,0,0,19,19,19,,,,,,,,,,,,,,,,,,,,,,,,,False,79,80,True,exp4.png,exp3.png,trial_left_image,1,exp4.png,4,exp4.png,exp3.png,1,3,reversed,correct,0.6456372643956695,1,valid_win,510.16667009999946,41,,,,,,,,,,,,,,,,sub_288,2023-06-07_11h30.34.760,Reversal,2022.1.1,59.935904543721485,4,
20,exp1.png,exp2.png,,3,0,3,0,0,20,20,20,,,,,,,,,,,,,,,,,,,,,,,,,True,,,,,,,,,,,,,,,,,,,,,,,,,,,,,,,,,,,,sub_288,2023-06-07_11h30.34.760,Reversal,2022.1.1,59.935904543721485,4,
,,,exp1.png,3,0,3,0,,,,,0,0,0,0,0,0,0,0,,,,,,,,,,,,,,,,,,,,,,,,,,,,,,,,,,,,,,59.0,5.180886799999826,"[(59.0, 5.180886799999826)]",606.4527877,None,,,,59.0,,,,,,,sub_288,2023-06-07_11h30.34.760,Reversal,2022.1.1,59.935904543721485,4,
,,,exp2.png,3,0,3,0,,,,,0,0,0,0,0,1,1,1,,,,,,,,,,,,,,,,,,,,,,,,,,,,,,,,,,,,,,60.0,1.572702699999354,"[(60.0, 1.572702699999354)]",613.0377698000002,None,60.0,,,,,,,,,,sub_288,2023-06-07_11h30.34.760,Reversal,2022.1.1,59.935904543721485,4,
,,,exp3.png,3,0,3,0,,,,,0,0,0,0,0,2,2,2,,,,,,,,,,,,,,,,,,,,,,,,,,,,,,,,,,,,,,41.0,1.8349748000000545,"[(41.0, 1.8349748000000545)]",615.8728703999996,None,,41.0,,,,,,,,,sub_288,2023-06-07_11h30.34.760,Reversal,2022.1.1,59.935904543721485,4,
,,,exp4.png,3,0,3,0,,,,,0,0,0,0,0,3,3,3,,,,,,,,,,,,,,,,,,,,,,,,,,,,,,,,,,,,,,39.0,1.5074657000004663,"[(39.0, 1.5074657000004663)]",618.9180594,None,,,39.0,,,,,,,,sub_288,2023-06-07_11h30.34.760,Reversal,2022.1.1,59.935904543721485,4,
0,exp1.png,exp2.png,,,,,,,,,,,,,,,,,,0,0,0,0,0,0,0,0,,,,,,,,,False,0,81,False,exp1.png,exp2.png,trial_right_image,-1,exp2.png,4,exp2.png,exp1.png,1,1,non-reversed,correct,0.6664850756256414,1,valid_win,530.4475229,42,,,,,,,,,,527.7957826000002,,,,,,sub_288,2023-06-07_11h30.34.760,Reversal,2022.1.1,59.935904543721485,4,
1,exp3.png,exp4.png,,,,,,,,,,,,,,,,,,0,0,0,0,0,1,1,1,,,,,,,,,False,1,82,True,exp4.png,exp3.png,trial_left_image,1,exp4.png,4,exp3.png,exp4.png,1,3,reversed,incorrect,0.23733477680583637,1,invalid_win,535.2971273000003,43,,,,,,,,,,,,,,,,sub_288,2023-06-07_11h30.34.760,Reversal,2022.1.1,59.935904543721485,4,
2,exp1.png,exp2.png,,,,,,,,,,,,,,,,,,0,0,0,0,0,2,2,2,,,,,,,,,False,2,83,True,exp2.png,exp1.png,trial_right_image,-1,exp1.png,4,exp2.png,exp1.png,0,2,non-reversed,incorrect,0.823671281738165,0,valid_lose,539.9792987999999,43,,,,,,,,,,,,,,,,sub_288,2023-06-07_11h30.34.760,Reversal,2022.1.1,59.935904543721485,4,
3,exp3.png,exp4.png,,,,,,,,,,,,,,,,,,0,0,0,0,0,3,3,3,,,,,,,,,False,3,84,True,exp4.png,exp3.png,trial_left_image,1,exp4.png,4,exp3.png,exp4.png,1,3,reversed,incorrect,0.5745083093014073,0,valid_lose,544.4794561999997,43,,,,,,,,,,,,,,,,sub_288,2023-06-07_11h30.34.760,Reversal,2022.1.1,59.935904543721485,4,
4,exp1.png,exp2.png,,,,,,,,,,,,,,,,,,0,0,0,0,0,4,4,4,,,,,,,,,False,4,85,False,exp1.png,exp2.png,trial_left_image,1,exp1.png,4,exp2.png,exp1.png,0,2,non-reversed,incorrect,0.9860015817067395,0,valid_lose,549.0465751000002,43,,,,,,,,,,,,,,,,sub_288,2023-06-07_11h30.34.760,Reversal,2022.1.1,59.935904543721485,4,
5,exp3.png,exp4.png,,,,,,,,,,,,,,,,,,0,0,0,0,0,5,5,5,,,,,,,,,False,5,86,False,exp3.png,exp4.png,trial_right_image,-1,exp4.png,4,exp3.png,exp4.png,1,3,reversed,incorrect,0.9023197245536987,0,valid_lose,554.0774641999997,43,,,,,,,,,,,,,,,,sub_288,2023-06-07_11h30.34.760,Reversal,2022.1.1,59.935904543721485,4,
6,exp1.png,exp2.png,,,,,,,,,,,,,,,,,,0,0,0,0,0,6,6,6,,,,,,,,,False,6,87,True,exp2.png,exp1.png,trial_left_image,1,exp2.png,4,exp2.png,exp1.png,1,1,non-reversed,correct,0.08597642669930028,0,invalid_lose,558.6103868,43,,,,,,,,,,,,,,,,sub_288,2023-06-07_11h30.34.760,Reversal,2022.1.1,59.935904543721485,4,
7,exp3.png,exp4.png,,,,,,,,,,,,,,,,,,0,0,0,0,0,7,7,7,,,,,,,,,False,7,88,False,exp3.png,exp4.png,trial_left_image,1,exp3.png,4,exp3.png,exp4.png,0,4,reversed,correct,0.4713410922788328,1,valid_win,562.8442973000001,44,,,,,,,,,,,,,,,,sub_288,2023-06-07_11h30.34.760,Reversal,2022.1.1,59.935904543721485,4,
8,exp1.png,exp2.png,,,,,,,,,,,,,,,,,,0,0,0,0,0,8,8,8,,,,,,,,,False,8,89,True,exp2.png,exp1.png,trial_left_image,1,exp2.png,4,exp2.png,exp1.png,1,1,non-reversed,correct,0.006266053772490454,0,invalid_lose,567.1599731999995,44,,,,,,,,,,,,,,,,sub_288,2023-06-07_11h30.34.760,Reversal,2022.1.1,59.935904543721485,4,
9,exp3.png,exp4.png,,,,,,,,,,,,,,,,,,0,0,0,0,0,9,9,9,,,,,,,,,False,9,90,True,exp4.png,exp3.png,trial_left_image,1,exp4.png,4,exp3.png,exp4.png,1,3,reversed,incorrect,0.9992450560906723,0,valid_lose,572.0254727000001,44,,,,,,,,,,,,,,,,sub_288,2023-06-07_11h30.34.760,Reversal,2022.1.1,59.935904543721485,4,
10,exp1.png,exp2.png,,,,,,,,,,,,,,,,,,0,0,0,0,0,10,10,10,,,,,,,,,False,10,91,False,exp1.png,exp2.png,trial_right_image,-1,exp2.png,4,exp2.png,exp1.png,1,1,non-reversed,correct,0.7714205885451084,1,valid_win,576.5253007000001,45,,,,,,,,,,,,,,,,sub_288,2023-06-07_11h30.34.760,Reversal,2022.1.1,59.935904543721485,4,
11,exp3.png,exp4.png,,,,,,,,,,,,,,,,,,0,0,0,0,0,11,11,11,,,,,,,,,False,11,92,True,exp4.png,exp3.png,trial_right_image,-1,exp3.png,4,exp3.png,exp4.png,0,4,reversed,correct,0.14312631534426745,0,invalid_lose,581.6572699999997,45,,,,,,,,,,,,,,,,sub_288,2023-06-07_11h30.34.760,Reversal,2022.1.1,59.935904543721485,4,
12,exp1.png,exp2.png,,,,,,,,,,,,,,,,,,0,0,0,0,0,12,12,12,,,,,,,,,False,12,93,True,exp2.png,exp1.png,trial_left_image,1,exp2.png,4,exp2.png,exp1.png,1,1,non-reversed,correct,0.180583112958159,0,invalid_lose,586.1418603000002,45,,,,,,,,,,,,,,,,sub_288,2023-06-07_11h30.34.760,Reversal,2022.1.1,59.935904543721485,4,
13,exp3.png,exp4.png,,,,,,,,,,,,,,,,,,0,0,0,0,0,13,13,13,,,,,,,,,False,13,94,False,exp3.png,exp4.png,trial_left_image,1,exp3.png,4,exp3.png,exp4.png,0,4,reversed,correct,0.9495000103698265,1,valid_win,590.3728847000002,46,,,,,,,,,,,,,,,,sub_288,2023-06-07_11h30.34.760,Reversal,2022.1.1,59.935904543721485,4,
14,exp1.png,exp2.png,,,,,,,,,,,,,,,,,,0,0,0,0,0,14,14,14,,,,,,,,,False,14,95,False,exp1.png,exp2.png,trial_left_image,1,exp1.png,4,exp2.png,exp1.png,0,2,non-reversed,incorrect,0.5471249731531019,0,valid_lose,595.4890512000002,46,,,,,,,,,,,,,,,,sub_288,2023-06-07_11h30.34.760,Reversal,2022.1.1,59.935904543721485,4,
15,exp3.png,exp4.png,,,,,,,,,,,,,,,,,,0,0,0,0,0,15,15,15,,,,,,,,,False,15,96,True,exp4.png,exp3.png,trial_left_image,1,exp4.png,4,exp3.png,exp4.png,1,3,reversed,incorrect,0.13587130259449975,1,invalid_win,599.7211760999999,47,,,,,,,,,,,,,,,,sub_288,2023-06-07_11h30.34.760,Reversal,2022.1.1,59.935904543721485,4,
16,exp1.png,exp2.png,,,,,,,,,,,,,,,,,,0,0,0,0,0,16,16,16,,,,,,,,,False,16,97,True,exp2.png,exp1.png,trial_right_image,-1,exp1.png,4,exp2.png,exp1.png,0,2,non-reversed,incorrect,0.49280284864858037,0,valid_lose,604.5375900999998,47,,,,,,,,,,,,,,,,sub_288,2023-06-07_11h30.34.760,Reversal,2022.1.1,59.935904543721485,4,
17,exp3.png,exp4.png,,,,,,,,,,,,,,,,,,0,0,0,0,0,17,17,17,,,,,,,,,False,17,98,False,exp3.png,exp4.png,trial_left_image,1,exp3.png,4,exp3.png,exp4.png,0,4,reversed,correct,0.05657886549040392,0,invalid_lose,608.7202367,47,,,,,,,,,,,,,,,,sub_288,2023-06-07_11h30.34.760,Reversal,2022.1.1,59.935904543721485,4,
18,exp1.png,exp2.png,,,,,,,,,,,,,,,,,,0,0,0,0,0,18,18,18,,,,,,,,,False,18,99,False,exp1.png,exp2.png,trial_left_image,1,exp1.png,4,exp2.png,exp1.png,0,2,non-reversed,incorrect,0.34240470413143564,0,valid_lose,613.0366486000003,47,,,,,,,,,,,,,,,,sub_288,2023-06-07_11h30.34.760,Reversal,2022.1.1,59.935904543721485,4,
19,exp3.png,exp4.png,,,,,,,,,,,,,,,,,,0,0,0,0,0,19,19,19,,,,,,,,,False,19,100,False,exp3.png,exp4.png,trial_left_image,1,exp3.png,4,exp3.png,exp4.png,0,4,reversed,correct,0.7730929282810654,1,valid_win,617.3366475000003,48,,,,,,,,,,,,,,,,sub_288,2023-06-07_11h30.34.760,Reversal,2022.1.1,59.935904543721485,4,
20,exp1.png,exp2.png,,,,,,,,,,,,,,,,,,0,0,0,0,0,20,20,20,,,,,,,,,True,,,,,,,,,,,,,,,,,,,,,,,,,,,,,,,,,,,,sub_288,2023-06-07_11h30.34.760,Reversal,2022.1.1,59.935904543721485,4,
,,,exp1.png,,,,,,,,,,,,,,,,,0,0,0,0,,,,,0,0,0,0,0,0,0,0,,,,,,,,,,,,,,,,,,,,,,42.0,3.0134852999999566,"[(42.0, 3.0134852999999566)]",713.6434327999996,None,,,,42.0,,,,,,,sub_288,2023-06-07_11h30.34.760,Reversal,2022.1.1,59.935904543721485,4,
,,,exp2.png,,,,,,,,,,,,,,,,,0,0,0,0,,,,,0,0,0,0,0,1,1,1,,,,,,,,,,,,,,,,,,,,,,41.0,1.3798905000003288,"[(41.0, 1.3798905000003288)]",718.0997471999999,None,41.0,,,,,,,,,,sub_288,2023-06-07_11h30.34.760,Reversal,2022.1.1,59.935904543721485,4,
,,,exp3.png,,,,,,,,,,,,,,,,,0,0,0,0,,,,,0,0,0,0,0,2,2,2,,,,,,,,,,,,,,,,,,,,,,59.0,1.3891451000008601,"[(59.0, 1.3891451000008601)]",720.5401394,None,,59.0,,,,,,,,,sub_288,2023-06-07_11h30.34.760,Reversal,2022.1.1,59.935904543721485,4,
,,,exp4.png,,,,,,,,,,,,,,,,,0,0,0,0,,,,,0,0,0,0,0,3,3,3,,,,,,,,,,,,,,,,,,,,,,62.0,1.3146842999994988,"[(62.0, 1.3146842999994988)]",723.1966787000001,None,,,62.0,,,,,,,,sub_288,2023-06-07_11h30.34.760,Reversal,2022.1.1,59.935904543721485,4,
0,exp1.png,exp2.png,,,,,,,,,,,,,,,,,,1,0,1,0,0,0,0,0,,,,,,,,,False,20,101,True,exp2.png,exp1.png,trial_left_image,1,exp2.png,4,exp2.png,exp1.png,1,1,non-reversed,correct,0.18685382638269188,0,invalid_lose,634.9845359999999,48,,,,,,,,,,,,,,,,sub_288,2023-06-07_11h30.34.760,Reversal,2022.1.1,59.935904543721485,4,
1,exp3.png,exp4.png,,,,,,,,,,,,,,,,,,1,0,1,0,0,1,1,1,,,,,,,,,False,21,102,True,exp4.png,exp3.png,trial_right_image,-1,exp3.png,4,exp3.png,exp4.png,0,4,reversed,correct,0.8227927439189856,1,valid_win,640.0346130999997,49,,,,,,,,,,,,,,,,sub_288,2023-06-07_11h30.34.760,Reversal,2022.1.1,59.935904543721485,4,
2,exp1.png,exp2.png,,,,,,,,,,,,,,,,,,1,0,1,0,0,2,2,2,,,,,,,,,False,22,103,False,exp1.png,exp2.png,trial_right_image,-1,exp2.png,4,exp2.png,exp1.png,1,1,non-reversed,correct,0.9969919024392089,1,valid_win,645.1500835999996,50,,,,,,,,,,,,,,,,sub_288,2023-06-07_11h30.34.760,Reversal,2022.1.1,59.935904543721485,4,
3,exp3.png,exp4.png,,,,,,,,,,,,,,,,,,1,0,1,0,0,3,3,3,,,,,,,,,False,23,104,True,exp4.png,exp3.png,trial_left_image,1,exp4.png,4,exp3.png,exp4.png,1,3,reversed,incorrect,0.11006942002149689,1,invalid_win,650.2487490000003,51,,,,,,,,,,,,,,,,sub_288,2023-06-07_11h30.34.760,Reversal,2022.1.1,59.935904543721485,4,
4,exp1.png,exp2.png,,,,,,,,,,,,,,,,,,1,0,1,0,0,4,4,4,,,,,,,,,False,24,105,False,exp1.png,exp2.png,trial_left_image,1,exp1.png,4,exp2.png,exp1.png,0,2,non-reversed,incorrect,0.6259988115942656,0,valid_lose,654.4647967999999,51,,,,,,,,,,,,,,,,sub_288,2023-06-07_11h30.34.760,Reversal,2022.1.1,59.935904543721485,4,
5,exp3.png,exp4.png,,,,,,,,,,,,,,,,,,1,0,1,0,0,5,5,5,,,,,,,,,False,25,106,False,exp3.png,exp4.png,trial_left_image,1,exp3.png,4,exp3.png,exp4.png,0,4,reversed,correct,0.27586618494603676,1,valid_win,659.2648638000001,52,,,,,,,,,,,,,,,,sub_288,2023-06-07_11h30.34.760,Reversal,2022.1.1,59.935904543721485,4,
6,exp1.png,exp2.png,,,,,,,,,,,,,,,,,,1,0,1,0,0,6,6,6,,,,,,,,,False,26,107,False,exp1.png,exp2.png,trial_right_image,-1,exp2.png,4,exp2.png,exp1.png,1,1,non-reversed,correct,0.5478922056682752,1,valid_win,663.9468142999995,53,,,,,,,,,,,,,,,,sub_288,2023-06-07_11h30.34.760,Reversal,2022.1.1,59.935904543721485,4,
7,exp3.png,exp4.png,,,,,,,,,,,,,,,,,,1,0,1,0,0,7,7,7,,,,,,,,,False,27,108,False,exp3.png,exp4.png,trial_left_image,1,exp3.png,4,exp3.png,exp4.png,0,4,reversed,correct,0.9615846904663009,1,valid_win,668.7802546000003,54,,,,,,,,,,,,,,,,sub_288,2023-06-07_11h30.34.760,Reversal,2022.1.1,59.935904543721485,4,
8,exp1.png,exp2.png,,,,,,,,,,,,,,,,,,1,0,1,0,0,8,8,8,,,,,,,,,False,28,109,True,exp2.png,exp1.png,trial_right_image,-1,exp1.png,4,exp2.png,exp1.png,0,2,non-reversed,incorrect,0.07902529217858423,1,invalid_win,673.6621894999998,55,,,,,,,,,,,,,,,,sub_288,2023-06-07_11h30.34.760,Reversal,2022.1.1,59.935904543721485,4,
9,exp3.png,exp4.png,,,,,,,,,,,,,,,,,,1,0,1,0,0,9,9,9,,,,,,,,,False,29,110,False,exp3.png,exp4.png,trial_left_image,1,exp3.png,4,exp3.png,exp4.png,0,4,reversed,correct,0.008941129247416635,0,invalid_lose,678.2953190999997,55,,,,,,,,,,,,,,,,sub_288,2023-06-07_11h30.34.760,Reversal,2022.1.1,59.935904543721485,4,
10,exp1.png,exp2.png,,,,,,,,,,,,,,,,,,1,0,1,0,0,10,10,10,,,,,,,,,False,30,111,False,exp1.png,exp2.png,trial_left_image,1,exp1.png,4,exp2.png,exp1.png,0,2,non-reversed,incorrect,0.13103206785546317,1,invalid_win,682.6275415,56,,,,,,,,,,,,,,,,sub_288,2023-06-07_11h30.34.760,Reversal,2022.1.1,59.935904543721485,4,
11,exp3.png,exp4.png,,,,,,,,,,,,,,,,,,1,0,1,0,0,11,11,11,,,,,,,,,False,31,112,False,exp3.png,exp4.png,trial_right_image,-1,exp4.png,4,exp3.png,exp4.png,1,3,reversed,incorrect,0.3757326598812877,0,valid_lose,687.1940582999996,56,,,,,,,,,,,,,,,,sub_288,2023-06-07_11h30.34.760,Reversal,2022.1.1,59.935904543721485,4,
12,exp1.png,exp2.png,,,,,,,,,,,,,,,,,,1,0,1,0,0,12,12,12,,,,,,,,,False,32,113,False,exp1.png,exp2.png,trial_left_image,1,exp1.png,4,exp2.png,exp1.png,0,2,non-reversed,incorrect,0.3147649079144895,0,valid_lose,691.7764341000002,56,,,,,,,,,,,,,,,,sub_288,2023-06-07_11h30.34.760,Reversal,2022.1.1,59.935904543721485,4,
13,exp3.png,exp4.png,,,,,,,,,,,,,,,,,,1,0,1,0,0,13,13,13,,,,,,,,,False,33,114,True,exp4.png,exp3.png,trial_left_image,1,exp4.png,4,exp3.png,exp4.png,1,3,reversed,incorrect,0.7612696122011089,0,valid_lose,696.0592593000001,56,,,,,,,,,,,,,,,,sub_288,2023-06-07_11h30.34.760,Reversal,2022.1.1,59.935904543721485,4,
14,exp1.png,exp2.png,,,,,,,,,,,,,,,,,,1,0,1,0,0,14,14,14,,,,,,,,,False,34,115,True,exp2.png,exp1.png,trial_right_image,-1,exp1.png,4,exp2.png,exp1.png,0,2,non-reversed,incorrect,0.8148098242263049,0,valid_lose,700.9588825999999,56,,,,,,,,,,,,,,,,sub_288,2023-06-07_11h30.34.760,Reversal,2022.1.1,59.935904543721485,4,
15,exp3.png,exp4.png,,,,,,,,,,,,,,,,,,1,0,1,0,0,15,15,15,,,,,,,,,False,35,116,True,exp4.png,exp3.png,trial_right_image,-1,exp3.png,4,exp3.png,exp4.png,0,4,reversed,correct,0.6239787232629771,1,valid_win,705.9258850999995,57,,,,,,,,,,,,,,,,sub_288,2023-06-07_11h30.34.760,Reversal,2022.1.1,59.935904543721485,4,
16,exp1.png,exp2.png,,,,,,,,,,,,,,,,,,1,0,1,0,0,16,16,16,,,,,,,,,False,36,117,True,exp2.png,exp1.png,trial_right_image,-1,exp1.png,4,exp2.png,exp1.png,0,2,non-reversed,incorrect,0.9462510235645301,0,valid_lose,711.9737287999997,57,,,,,,,,,,,,,,,,sub_288,2023-06-07_11h30.34.760,Reversal,2022.1.1,59.935904543721485,4,
17,exp3.png,exp4.png,,,,,,,,,,,,,,,,,,1,0,1,0,0,17,17,17,,,,,,,,,False,37,118,False,exp3.png,exp4.png,trial_right_image,-1,exp4.png,4,exp3.png,exp4.png,1,3,reversed,incorrect,0.4162708209901177,0,valid_lose,716.6090482999998,57,,,,,,,,,,,,,,,,sub_288,2023-06-07_11h30.34.760,Reversal,2022.1.1,59.935904543721485,4,
18,exp1.png,exp2.png,,,,,,,,,,,,,,,,,,1,0,1,0,0,18,18,18,,,,,,,,,False,38,119,True,exp2.png,exp1.png,trial_left_image,1,exp2.png,4,exp2.png,exp1.png,1,1,non-reversed,correct,0.7439221540279801,1,valid_win,720.9252104999996,58,,,,,,,,,,,,,,,,sub_288,2023-06-07_11h30.34.760,Reversal,2022.1.1,59.935904543721485,4,
19,exp3.png,exp4.png,,,,,,,,,,,,,,,,,,1,0,1,0,0,19,19,19,,,,,,,,,False,39,120,True,exp4.png,exp3.png,trial_left_image,1,exp4.png,4,exp3.png,exp4.png,1,3,reversed,incorrect,0.8623417445520971,0,valid_lose,725.2055717000003,58,,,,,,,,,,,,,,,,sub_288,2023-06-07_11h30.34.760,Reversal,2022.1.1,59.935904543721485,4,
20,exp1.png,exp2.png,,,,,,,,,,,,,,,,,,1,0,1,0,0,20,20,20,,,,,,,,,True,,,,,,,,,,,,,,,,,,,,,,,,,,,,,,,,,,,,sub_288,2023-06-07_11h30.34.760,Reversal,2022.1.1,59.935904543721485,4,
,,,exp1.png,,,,,,,,,,,,,,,,,1,0,1,0,,,,,0,0,0,0,0,0,0,0,,,,,,,,,,,,,,,,,,,,,,58.0,2.4003678999997646,"[(58.0, 2.4003678999997646)]",821.5070106000003,None,,,,58.0,,,,,,,sub_288,2023-06-07_11h30.34.760,Reversal,2022.1.1,59.935904543721485,4,
,,,exp2.png,,,,,,,,,,,,,,,,,1,0,1,0,,,,,0,0,0,0,0,1,1,1,,,,,,,,,,,,,,,,,,,,,,61.0,1.1550954999993337,"[(61.0, 1.1550954999993337)]",825.5328221999998,None,61.0,,,,,,,,,,sub_288,2023-06-07_11h30.34.760,Reversal,2022.1.1,59.935904543721485,4,
,,,exp3.png,,,,,,,,,,,,,,,,,1,0,1,0,,,,,0,0,0,0,0,2,2,2,,,,,,,,,,,,,,,,,,,,,,39.0,1.0922345000008136,"[(39.0, 1.0922345000008136)]",827.9560344000001,None,,39.0,,,,,,,,,sub_288,2023-06-07_11h30.34.760,Reversal,2022.1.1,59.935904543721485,4,
,,,exp4.png,,,,,,,,,,,,,,,,,1,0,1,0,,,,,0,0,0,0,0,3,3,3,,,,,,,,,,,,,,,,,,,,,,39.0,1.1582773000000088,"[(39.0, 1.1582773000000088)]",829.9912058,None,,,39.0,,,,,,,,sub_288,2023-06-07_11h30.34.760,Reversal,2022.1.1,59.935904543721485,4,
0,exp1.png,exp2.png,,,,,,,,,,,,,,,,,,2,0,2,0,0,0,0,0,,,,,,,,,False,40,121,False,exp1.png,exp2.png,trial_left_image,1,exp1.png,4,exp2.png,exp1.png,0,2,non-reversed,incorrect,0.7290083433342189,0,valid_lose,740.3204137000002,58,,,,,,,,,,,,,,,,sub_288,2023-06-07_11h30.34.760,Reversal,2022.1.1,59.935904543721485,4,
1,exp3.png,exp4.png,,,,,,,,,,,,,,,,,,2,0,2,0,0,1,1,1,,,,,,,,,False,41,122,True,exp4.png,exp3.png,trial_left_image,1,exp4.png,4,exp3.png,exp4.png,1,3,reversed,incorrect,0.585678699991088,0,valid_lose,744.5710925000003,58,,,,,,,,,,,,,,,,sub_288,2023-06-07_11h30.34.760,Reversal,2022.1.1,59.935904543721485,4,
2,exp1.png,exp2.png,,,,,,,,,,,,,,,,,,2,0,2,0,0,2,2,2,,,,,,,,,False,42,123,True,exp2.png,exp1.png,trial_left_image,1,exp2.png,4,exp2.png,exp1.png,1,1,non-reversed,correct,0.49655192744258725,1,valid_win,749.6527143000003,59,,,,,,,,,,,,,,,,sub_288,2023-06-07_11h30.34.760,Reversal,2022.1.1,59.935904543721485,4,
3,exp3.png,exp4.png,,,,,,,,,,,,,,,,,,2,0,2,0,0,3,3,3,,,,,,,,,False,43,124,True,exp4.png,exp3.png,trial_right_image,-1,exp3.png,4,exp3.png,exp4.png,0,4,reversed,correct,0.11694702237308041,0,invalid_lose,754.5531523,59,,,,,,,,,,,,,,,,sub_288,2023-06-07_11h30.34.760,Reversal,2022.1.1,59.935904543721485,4,
4,exp1.png,exp2.png,,,,,,,,,,,,,,,,,,2,0,2,0,0,4,4,4,,,,,,,,,False,44,125,True,exp2.png,exp1.png,trial_left_image,1,exp2.png,4,exp2.png,exp1.png,1,1,non-reversed,correct,0.018946017080591737,0,invalid_lose,759.3181095999998,59,,,,,,,,,,,,,,,,sub_288,2023-06-07_11h30.34.760,Reversal,2022.1.1,59.935904543721485,4,
5,exp3.png,exp4.png,,,,,,,,,,,,,,,,,,2,0,2,0,0,5,5,5,,,,,,,,,False,45,126,False,exp3.png,exp4.png,trial_left_image,1,exp3.png,4,exp3.png,exp4.png,0,4,reversed,correct,0.7731785999540873,1,valid_win,763.5351422000003,60,,,,,,,,,,,,,,,,sub_288,2023-06-07_11h30.34.760,Reversal,2022.1.1,59.935904543721485,4,
6,exp1.png,exp2.png,,,,,,,,,,,,,,,,,,2,0,2,0,0,6,6,6,,,,,,,,,False,46,127,True,exp2.png,exp1.png,trial_right_image,-1,exp1.png,4,exp2.png,exp1.png,0,2,non-reversed,incorrect,0.8841062032987569,0,valid_lose,769.1828481000002,60,,,,,,,,,,,,,,,,sub_288,2023-06-07_11h30.34.760,Reversal,2022.1.1,59.935904543721485,4,
7,exp3.png,exp4.png,,,,,,,,,,,,,,,,,,2,0,2,0,0,7,7,7,,,,,,,,,False,47,128,False,exp3.png,exp4.png,trial_left_image,1,exp3.png,4,exp3.png,exp4.png,0,4,reversed,correct,0.5763712320345934,1,valid_win,774.2999145000003,61,,,,,,,,,,,,,,,,sub_288,2023-06-07_11h30.34.760,Reversal,2022.1.1,59.935904543721485,4,
8,exp1.png,exp2.png,,,,,,,,,,,,,,,,,,2,0,2,0,0,8,8,8,,,,,,,,,False,48,129,False,exp1.png,exp2.png,trial_left_image,1,exp1.png,4,exp2.png,exp1.png,0,2,non-reversed,incorrect,0.4034791082157084,0,valid_lose,778.5495817000001,61,,,,,,,,,,,,,,,,sub_288,2023-06-07_11h30.34.760,Reversal,2022.1.1,59.935904543721485,4,
9,exp3.png,exp4.png,,,,,,,,,,,,,,,,,,2,0,2,0,0,9,9,9,,,,,,,,,False,49,130,True,exp4.png,exp3.png,trial_left_image,1,exp4.png,4,exp3.png,exp4.png,1,3,reversed,incorrect,0.3411872215010787,0,valid_lose,783.3146897999995,61,,,,,,,,,,,,,,,,sub_288,2023-06-07_11h30.34.760,Reversal,2022.1.1,59.935904543721485,4,
10,exp1.png,exp2.png,,,,,,,,,,,,,,,,,,2,0,2,0,0,10,10,10,,,,,,,,,False,50,131,True,exp2.png,exp1.png,trial_left_image,1,exp2.png,4,exp2.png,exp1.png,1,1,non-reversed,correct,0.4734661553509396,1,valid_win,787.7145011000002,62,,,,,,,,,,,,,,,,sub_288,2023-06-07_11h30.34.760,Reversal,2022.1.1,59.935904543721485,4,
11,exp3.png,exp4.png,,,,,,,,,,,,,,,,,,2,0,2,0,0,11,11,11,,,,,,,,,False,51,132,False,exp3.png,exp4.png,trial_right_image,-1,exp4.png,4,exp3.png,exp4.png,1,3,reversed,incorrect,0.25993690268735015,0,valid_lose,792.2806915000001,62,,,,,,,,,,,,,,,,sub_288,2023-06-07_11h30.34.760,Reversal,2022.1.1,59.935904543721485,4,
12,exp1.png,exp2.png,,,,,,,,,,,,,,,,,,2,0,2,0,0,12,12,12,,,,,,,,,False,52,133,False,exp1.png,exp2.png,trial_left_image,1,exp1.png,4,exp2.png,exp1.png,0,2,non-reversed,incorrect,0.20289928841647165,1,invalid_win,797.0802932999995,63,,,,,,,,,,,,,,,,sub_288,2023-06-07_11h30.34.760,Reversal,2022.1.1,59.935904543721485,4,
13,exp3.png,exp4.png,,,,,,,,,,,,,,,,,,2,0,2,0,0,13,13,13,,,,,,,,,False,53,134,False,exp3.png,exp4.png,trial_left_image,1,exp3.png,4,exp3.png,exp4.png,0,4,reversed,correct,0.9254945682721147,1,valid_win,801.5125447999999,64,,,,,,,,,,,,,,,,sub_288,2023-06-07_11h30.34.760,Reversal,2022.1.1,59.935904543721485,4,
14,exp1.png,exp2.png,,,,,,,,,,,,,,,,,,2,0,2,0,0,14,14,14,,,,,,,,,False,54,135,True,exp2.png,exp1.png,trial_left_image,1,exp2.png,4,exp2.png,exp1.png,1,1,non-reversed,correct,0.44671117145717576,1,valid_win,806.3802507,65,,,,,,,,,,,,,,,,sub_288,2023-06-07_11h30.34.760,Reversal,2022.1.1,59.935904543721485,4,
15,exp3.png,exp4.png,,,,,,,,,,,,,,,,,,2,0,2,0,0,15,15,15,,,,,,,,,False,55,136,True,exp4.png,exp3.png,trial_left_image,1,exp4.png,4,exp3.png,exp4.png,1,3,reversed,incorrect,0.5517367161089272,0,valid_lose,811.5453590999996,65,,,,,,,,,,,,,,,,sub_288,2023-06-07_11h30.34.760,Reversal,2022.1.1,59.935904543721485,4,
16,exp1.png,exp2.png,,,,,,,,,,,,,,,,,,2,0,2,0,0,16,16,16,,,,,,,,,False,56,137,False,exp1.png,exp2.png,trial_right_image,-1,exp2.png,4,exp2.png,exp1.png,1,1,non-reversed,correct,0.6637140977506057,1,valid_win,816.8274836999999,66,,,,,,,,,,,,,,,,sub_288,2023-06-07_11h30.34.760,Reversal,2022.1.1,59.935904543721485,4,
17,exp3.png,exp4.png,,,,,,,,,,,,,,,,,,2,0,2,0,0,17,17,17,,,,,,,,,False,57,138,False,exp3.png,exp4.png,trial_left_image,1,exp3.png,4,exp3.png,exp4.png,0,4,reversed,correct,0.3522546784424445,1,valid_win,821.7437248999995,67,,,,,,,,,,,,,,,,sub_288,2023-06-07_11h30.34.760,Reversal,2022.1.1,59.935904543721485,4,
18,exp1.png,exp2.png,,,,,,,,,,,,,,,,,,2,0,2,0,0,18,18,18,,,,,,,,,False,58,139,False,exp1.png,exp2.png,trial_right_image,-1,exp2.png,4,exp2.png,exp1.png,1,1,non-reversed,correct,0.42085501042475626,1,valid_win,826.6766863000003,68,,,,,,,,,,,,,,,,sub_288,2023-06-07_11h30.34.760,Reversal,2022.1.1,59.935904543721485,4,
19,exp3.png,exp4.png,,,,,,,,,,,,,,,,,,2,0,2,0,0,19,19,19,,,,,,,,,False,59,140,True,exp4.png,exp3.png,trial_left_image,1,exp4.png,4,exp3.png,exp4.png,1,3,reversed,incorrect,0.617564635118797,0,valid_lose,831.4750137999999,68,,,,,,,,,,,,,,,,sub_288,2023-06-07_11h30.34.760,Reversal,2022.1.1,59.935904543721485,4,
20,exp1.png,exp2.png,,,,,,,,,,,,,,,,,,2,0,2,0,0,20,20,20,,,,,,,,,True,,,,,,,,,,,,,,,,,,,,,,,,,,,,,,,,,,,,sub_288,2023-06-07_11h30.34.760,Reversal,2022.1.1,59.935904543721485,4,
,,,exp1.png,,,,,,,,,,,,,,,,,2,0,2,0,,,,,0,0,0,0,0,0,0,0,,,,,,,,,,,,,,,,,,,,,,40.0,1.9167118999994273,"[(40.0, 1.9167118999994273)]",927.7757711000004,None,,,,40.0,,,,,,,sub_288,2023-06-07_11h30.34.760,Reversal,2022.1.1,59.935904543721485,4,
,,,exp2.png,,,,,,,,,,,,,,,,,2,0,2,0,,,,,0,0,0,0,0,1,1,1,,,,,,,,,,,,,,,,,,,,,,35.0,1.341395399999783,"[(35.0, 1.341395399999783)]",931.3265932000004,None,35.0,,,,,,,,,,sub_288,2023-06-07_11h30.34.760,Reversal,2022.1.1,59.935904543721485,4,
,,,exp3.png,,,,,,,,,,,,,,,,,2,0,2,0,,,,,0,0,0,0,0,2,2,2,,,,,,,,,,,,,,,,,,,,,,50.0,None,[],933.4817284000001,None,,,,,,,,,,,sub_288,2023-06-07_11h30.34.760,Reversal,2022.1.1,59.935904543721485,4,
,,,exp4.png,,,,,,,,,,,,,,,,,2,0,2,0,,,,,0,0,0,0,0,3,3,3,,,,,,,,,,,,,,,,,,,,,,58.0,1.2413956000000326,"[(58.0, 1.2413956000000326)]",933.9600215999999,None,,,58.0,,,,,,,,sub_288,2023-06-07_11h30.34.760,Reversal,2022.1.1,59.935904543721485,4,
,,,,,,,,,,,,,,,,,,,,,,,,,,,,,,,,,,,,,,,,,,,,,,,,,,,,,,,,68,,,,,,,,,,,68,38,30,314.7953594999999,1,,,,,,,
