trial_index,trial_image1_file,trial_image2_file,image_file,learning_outer_loop.thisRepN,learning_outer_loop.thisTrialN,learning_outer_loop.thisN,learning_outer_loop.thisIndex,learning_inner_loop.thisRepN,learning_inner_loop.thisTrialN,learning_inner_loop.thisN,learning_inner_loop.thisIndex,learning_estimation_outer_loop.thisRepN,learning_estimation_outer_loop.thisTrialN,learning_estimation_outer_loop.thisN,learning_estimation_outer_loop.thisIndex,learning_estimation_inner_loop.thisRepN,learning_estimation_inner_loop.thisTrialN,learning_estimation_inner_loop.thisN,learning_estimation_inner_loop.thisIndex,reversal_outer_loop.thisRepN,reversal_outer_loop.thisTrialN,reversal_outer_loop.thisN,reversal_outer_loop.thisIndex,reversal_inner_loop.thisRepN,reversal_inner_loop.thisTrialN,reversal_inner_loop.thisN,reversal_inner_loop.thisIndex,reversal_estimation_outer_loop.thisRepN,reversal_estimation_outer_loop.thisTrialN,reversal_estimation_outer_loop.thisN,reversal_estimation_outer_loop.thisIndex,reversal_estimation_inner_loop.thisRepN,reversal_estimation_inner_loop.thisTrialN,reversal_estimation_inner_loop.thisN,reversal_estimation_inner_loop.thisIndex,skipped,total_trial_counter,trial_num,left_right_flip,left_image_file,right_image_file,clicked_stimulus_side,side,clicked_stimulus,version,high_prob_image_file,low_prob_image_file,choice_a,choice_b,pair_type,correct,trial_feedback_random,reward,trial_type,overall_time_after_trial,score,estimation_exp1.png,estimation_rating.response,estimation_rating.rt,estimation_rating.history,estimation_rating.started,estimation_rating.stopped,estimation_exp2.png,estimation_exp3.png,estimation_exp4.png,total_learning_time,total_correct,learning_correct,reversal_correct,total_reversal_time,extra_block,participant,date,expName,psychopyVersion,frameRate,ver,
0,exp1.png,exp2.png,,0,0,0,0,0,0,0,0,,,,,,,,,,,,,,,,,,,,,,,,,False,0,1,False,exp1.png,exp2.png,trial_left_image,1,exp1.png,4,exp2.png,exp1.png,0,2,non-reversed,incorrect,0.5398216132037658,0,valid_lose,12.929480600054376,0,,,,,,,,,,,,,,,,sub_268,2023-06-14_12h35.59.910,Reversal,2022.1.1,59.96415343535271,4,
1,exp3.png,exp4.png,,0,0,0,0,0,1,1,1,,,,,,,,,,,,,,,,,,,,,,,,,False,1,2,True,exp4.png,exp3.png,trial_right_image,-1,exp3.png,4,exp4.png,exp3.png,0,4,reversed,incorrect,0.20011077844769076,1,invalid_win,22.995097400038503,1,,,,,,,,,,,,,,,,sub_268,2023-06-14_12h35.59.910,Reversal,2022.1.1,59.96415343535271,4,
2,exp1.png,exp2.png,,0,0,0,0,0,2,2,2,,,,,,,,,,,,,,,,,,,,,,,,,False,2,3,True,exp2.png,exp1.png,trial_right_image,-1,exp1.png,4,exp2.png,exp1.png,0,2,non-reversed,incorrect,0.8179713506063114,0,valid_lose,29.096176599967293,1,,,,,,,,,,,,,,,,sub_268,2023-06-14_12h35.59.910,Reversal,2022.1.1,59.96415343535271,4,
3,exp3.png,exp4.png,,0,0,0,0,0,3,3,3,,,,,,,,,,,,,,,,,,,,,,,,,False,3,4,False,exp3.png,exp4.png,trial_right_image,-1,exp4.png,4,exp4.png,exp3.png,1,3,reversed,correct,0.7489641371113237,1,valid_win,34.11388259998057,2,,,,,,,,,,,,,,,,sub_268,2023-06-14_12h35.59.910,Reversal,2022.1.1,59.96415343535271,4,
4,exp1.png,exp2.png,,0,0,0,0,0,4,4,4,,,,,,,,,,,,,,,,,,,,,,,,,False,4,5,False,exp1.png,exp2.png,trial_right_image,-1,exp2.png,4,exp2.png,exp1.png,1,1,non-reversed,correct,0.40355298387046323,1,valid_win,43.15996509999968,3,,,,,,,,,,,,,,,,sub_268,2023-06-14_12h35.59.910,Reversal,2022.1.1,59.96415343535271,4,
5,exp3.png,exp4.png,,0,0,0,0,0,5,5,5,,,,,,,,,,,,,,,,,,,,,,,,,False,5,6,False,exp3.png,exp4.png,trial_right_image,-1,exp4.png,4,exp4.png,exp3.png,1,3,reversed,correct,0.3402181950018559,1,valid_win,49.016878800000995,4,,,,,,,,,,,,,,,,sub_268,2023-06-14_12h35.59.910,Reversal,2022.1.1,59.96415343535271,4,
6,exp1.png,exp2.png,,0,0,0,0,0,6,6,6,,,,,,,,,,,,,,,,,,,,,,,,,False,6,7,False,exp1.png,exp2.png,trial_right_image,-1,exp2.png,4,exp2.png,exp1.png,1,1,non-reversed,correct,0.4133841799419906,1,valid_win,54.15808530000504,5,,,,,,,,,,,,,,,,sub_268,2023-06-14_12h35.59.910,Reversal,2022.1.1,59.96415343535271,4,
7,exp3.png,exp4.png,,0,0,0,0,0,7,7,7,,,,,,,,,,,,,,,,,,,,,,,,,False,7,8,False,exp3.png,exp4.png,trial_right_image,-1,exp4.png,4,exp4.png,exp3.png,1,3,reversed,correct,0.02289164528284071,0,invalid_lose,58.806569700012915,5,,,,,,,,,,,,,,,,sub_268,2023-06-14_12h35.59.910,Reversal,2022.1.1,59.96415343535271,4,
8,exp1.png,exp2.png,,0,0,0,0,0,8,8,8,,,,,,,,,,,,,,,,,,,,,,,,,False,8,9,True,exp2.png,exp1.png,trial_right_image,-1,exp1.png,4,exp2.png,exp1.png,0,2,non-reversed,incorrect,0.08690491550337931,1,invalid_win,63.08909230004065,6,,,,,,,,,,,,,,,,sub_268,2023-06-14_12h35.59.910,Reversal,2022.1.1,59.96415343535271,4,
9,exp3.png,exp4.png,,0,0,0,0,0,9,9,9,,,,,,,,,,,,,,,,,,,,,,,,,False,9,10,False,exp3.png,exp4.png,trial_right_image,-1,exp4.png,4,exp4.png,exp3.png,1,3,reversed,correct,0.9757094629161447,1,valid_win,67.48953589994926,7,,,,,,,,,,,,,,,,sub_268,2023-06-14_12h35.59.910,Reversal,2022.1.1,59.96415343535271,4,
10,exp1.png,exp2.png,,0,0,0,0,0,10,10,10,,,,,,,,,,,,,,,,,,,,,,,,,False,10,11,True,exp2.png,exp1.png,trial_right_image,-1,exp1.png,4,exp2.png,exp1.png,0,2,non-reversed,incorrect,0.9267576958474399,0,valid_lose,71.77333590004127,7,,,,,,,,,,,,,,,,sub_268,2023-06-14_12h35.59.910,Reversal,2022.1.1,59.96415343535271,4,
11,exp3.png,exp4.png,,0,0,0,0,0,11,11,11,,,,,,,,,,,,,,,,,,,,,,,,,False,11,12,True,exp4.png,exp3.png,trial_right_image,-1,exp3.png,4,exp4.png,exp3.png,0,4,reversed,incorrect,0.8337931765542397,0,valid_lose,75.95454549998976,7,,,,,,,,,,,,,,,,sub_268,2023-06-14_12h35.59.910,Reversal,2022.1.1,59.96415343535271,4,
12,exp1.png,exp2.png,,0,0,0,0,0,12,12,12,,,,,,,,,,,,,,,,,,,,,,,,,False,12,13,False,exp1.png,exp2.png,trial_left_image,1,exp1.png,4,exp2.png,exp1.png,0,2,non-reversed,incorrect,0.5906652969589777,0,valid_lose,80.83814769994933,7,,,,,,,,,,,,,,,,sub_268,2023-06-14_12h35.59.910,Reversal,2022.1.1,59.96415343535271,4,
13,exp3.png,exp4.png,,0,0,0,0,0,13,13,13,,,,,,,,,,,,,,,,,,,,,,,,,False,13,14,True,exp4.png,exp3.png,trial_right_image,-1,exp3.png,4,exp4.png,exp3.png,0,4,reversed,incorrect,0.5253413126355737,0,valid_lose,84.95384670002386,7,,,,,,,,,,,,,,,,sub_268,2023-06-14_12h35.59.910,Reversal,2022.1.1,59.96415343535271,4,
14,exp1.png,exp2.png,,0,0,0,0,0,14,14,14,,,,,,,,,,,,,,,,,,,,,,,,,False,14,15,True,exp2.png,exp1.png,trial_right_image,-1,exp1.png,4,exp2.png,exp1.png,0,2,non-reversed,incorrect,0.5169122105049774,0,valid_lose,89.05380650004372,7,,,,,,,,,,,,,,,,sub_268,2023-06-14_12h35.59.910,Reversal,2022.1.1,59.96415343535271,4,
15,exp3.png,exp4.png,,0,0,0,0,0,15,15,15,,,,,,,,,,,,,,,,,,,,,,,,,False,15,16,True,exp4.png,exp3.png,trial_right_image,-1,exp3.png,4,exp4.png,exp3.png,0,4,reversed,incorrect,0.669050997517234,0,valid_lose,93.13623559998814,7,,,,,,,,,,,,,,,,sub_268,2023-06-14_12h35.59.910,Reversal,2022.1.1,59.96415343535271,4,
16,exp1.png,exp2.png,,0,0,0,0,0,16,16,16,,,,,,,,,,,,,,,,,,,,,,,,,False,16,17,False,exp1.png,exp2.png,trial_left_image,1,exp1.png,4,exp2.png,exp1.png,0,2,non-reversed,incorrect,0.9672844217666287,0,valid_lose,97.26888300001156,7,,,,,,,,,,,,,,,,sub_268,2023-06-14_12h35.59.910,Reversal,2022.1.1,59.96415343535271,4,
17,exp3.png,exp4.png,,0,0,0,0,0,17,17,17,,,,,,,,,,,,,,,,,,,,,,,,,False,17,18,True,exp4.png,exp3.png,trial_right_image,-1,exp3.png,4,exp4.png,exp3.png,0,4,reversed,incorrect,0.940655213785246,0,valid_lose,103.63564049999695,7,,,,,,,,,,,,,,,,sub_268,2023-06-14_12h35.59.910,Reversal,2022.1.1,59.96415343535271,4,
18,exp1.png,exp2.png,,0,0,0,0,0,18,18,18,,,,,,,,,,,,,,,,,,,,,,,,,False,18,19,False,exp1.png,exp2.png,trial_right_image,-1,exp2.png,4,exp2.png,exp1.png,1,1,non-reversed,correct,0.7985890849712581,1,valid_win,108.15153369994368,8,,,,,,,,,,,,,,,,sub_268,2023-06-14_12h35.59.910,Reversal,2022.1.1,59.96415343535271,4,
19,exp3.png,exp4.png,,0,0,0,0,0,19,19,19,,,,,,,,,,,,,,,,,,,,,,,,,False,19,20,True,exp4.png,exp3.png,trial_left_image,1,exp4.png,4,exp4.png,exp3.png,1,3,reversed,correct,0.6588258669077588,1,valid_win,112.61769930005539,9,,,,,,,,,,,,,,,,sub_268,2023-06-14_12h35.59.910,Reversal,2022.1.1,59.96415343535271,4,
20,exp1.png,exp2.png,,0,0,0,0,0,20,20,20,,,,,,,,,,,,,,,,,,,,,,,,,True,,,,,,,,,,,,,,,,,,,,,,,,,,,,,,,,,,,,sub_268,2023-06-14_12h35.59.910,Reversal,2022.1.1,59.96415343535271,4,
,,,exp1.png,0,0,0,0,,,,,0,0,0,0,0,0,0,0,,,,,,,,,,,,,,,,,,,,,,,,,,,,,,,,,,,,,,23.0,23.0,21.93770200002473,"[(23.0, 21.93770200002473)]",255.4876207000343,None,,,,,,,,,,sub_268,2023-06-14_12h35.59.910,Reversal,2022.1.1,59.96415343535271,4,
,,,exp2.png,0,0,0,0,,,,,0,0,0,0,0,1,1,1,,,,,,,,,,,,,,,,,,,,,,,,,,,,,,,,,,,,,,,100.0,4.029376199934632,"[(100.0, 4.029376199934632)]",278.1142217000015,None,100.0,,,,,,,,,sub_268,2023-06-14_12h35.59.910,Reversal,2022.1.1,59.96415343535271,4,
,,,exp3.png,0,0,0,0,,,,,0,0,0,0,0,2,2,2,,,,,,,,,,,,,,,,,,,,,,,,,,,,,,,,,,,,,,,10.0,6.572827500058338,"[(10.0, 6.572827500058338)]",283.3702424999792,None,,10.0,,,,,,,,sub_268,2023-06-14_12h35.59.910,Reversal,2022.1.1,59.96415343535271,4,
,,,exp4.png,0,0,0,0,,,,,0,0,0,0,0,3,3,3,,,,,,,,,,,,,,,,,,,,,,,,,,,,,,,,,,,,,,,50.0,None,[],290.8894570999546,None,,,,,,,,,,sub_268,2023-06-14_12h35.59.910,Reversal,2022.1.1,59.96415343535271,4,
0,exp1.png,exp2.png,,1,0,1,0,0,0,0,0,,,,,,,,,,,,,,,,,,,,,,,,,False,20,21,True,exp2.png,exp1.png,trial_left_image,1,exp2.png,4,exp2.png,exp1.png,1,1,non-reversed,correct,0.880970343703653,1,valid_win,155.34516799997073,10,,,,,,,,,,,,,,,,sub_268,2023-06-14_12h35.59.910,Reversal,2022.1.1,59.96415343535271,4,
1,exp3.png,exp4.png,,1,0,1,0,0,1,1,1,,,,,,,,,,,,,,,,,,,,,,,,,False,21,22,False,exp3.png,exp4.png,trial_right_image,-1,exp4.png,4,exp4.png,exp3.png,1,3,reversed,correct,0.8655214400187458,1,valid_win,160.09518780000508,11,,,,,,,,,,,,,,,,sub_268,2023-06-14_12h35.59.910,Reversal,2022.1.1,59.96415343535271,4,
2,exp1.png,exp2.png,,1,0,1,0,0,2,2,2,,,,,,,,,,,,,,,,,,,,,,,,,False,22,23,False,exp1.png,exp2.png,trial_right_image,-1,exp2.png,4,exp2.png,exp1.png,1,1,non-reversed,correct,0.556139057311364,1,valid_win,164.34444629994687,12,,,,,,,,,,,,,,,,sub_268,2023-06-14_12h35.59.910,Reversal,2022.1.1,59.96415343535271,4,
3,exp3.png,exp4.png,,1,0,1,0,0,3,3,3,,,,,,,,,,,,,,,,,,,,,,,,,False,23,24,True,exp4.png,exp3.png,trial_left_image,1,exp4.png,4,exp4.png,exp3.png,1,3,reversed,correct,0.24993492559443375,0,invalid_lose,169.14254030003212,12,,,,,,,,,,,,,,,,sub_268,2023-06-14_12h35.59.910,Reversal,2022.1.1,59.96415343535271,4,
4,exp1.png,exp2.png,,1,0,1,0,0,4,4,4,,,,,,,,,,,,,,,,,,,,,,,,,False,24,25,False,exp1.png,exp2.png,trial_right_image,-1,exp2.png,4,exp2.png,exp1.png,1,1,non-reversed,correct,0.8186615563451636,1,valid_win,174.292018200038,13,,,,,,,,,,,,,,,,sub_268,2023-06-14_12h35.59.910,Reversal,2022.1.1,59.96415343535271,4,
5,exp3.png,exp4.png,,1,0,1,0,0,5,5,5,,,,,,,,,,,,,,,,,,,,,,,,,False,25,26,True,exp4.png,exp3.png,trial_left_image,1,exp4.png,4,exp4.png,exp3.png,1,3,reversed,correct,0.4376944143944914,1,valid_win,181.05841950001195,14,,,,,,,,,,,,,,,,sub_268,2023-06-14_12h35.59.910,Reversal,2022.1.1,59.96415343535271,4,
6,exp1.png,exp2.png,,1,0,1,0,0,6,6,6,,,,,,,,,,,,,,,,,,,,,,,,,False,26,27,False,exp1.png,exp2.png,trial_right_image,-1,exp2.png,4,exp2.png,exp1.png,1,1,non-reversed,correct,0.0036313167913025746,0,invalid_lose,186.20818780001719,14,,,,,,,,,,,,,,,,sub_268,2023-06-14_12h35.59.910,Reversal,2022.1.1,59.96415343535271,4,
7,exp3.png,exp4.png,,1,0,1,0,0,7,7,7,,,,,,,,,,,,,,,,,,,,,,,,,False,27,28,True,exp4.png,exp3.png,trial_left_image,1,exp4.png,4,exp4.png,exp3.png,1,3,reversed,correct,0.5084012371722413,1,valid_win,190.94095780001953,15,,,,,,,,,,,,,,,,sub_268,2023-06-14_12h35.59.910,Reversal,2022.1.1,59.96415343535271,4,
8,exp1.png,exp2.png,,1,0,1,0,0,8,8,8,,,,,,,,,,,,,,,,,,,,,,,,,False,28,29,False,exp1.png,exp2.png,trial_right_image,-1,exp2.png,4,exp2.png,exp1.png,1,1,non-reversed,correct,0.710810692473289,1,valid_win,196.2563255999703,16,,,,,,,,,,,,,,,,sub_268,2023-06-14_12h35.59.910,Reversal,2022.1.1,59.96415343535271,4,
9,exp3.png,exp4.png,,1,0,1,0,0,9,9,9,,,,,,,,,,,,,,,,,,,,,,,,,False,29,30,True,exp4.png,exp3.png,trial_left_image,1,exp4.png,4,exp4.png,exp3.png,1,3,reversed,correct,0.9752116500462287,1,valid_win,201.0900104000466,17,,,,,,,,,,,,,,,,sub_268,2023-06-14_12h35.59.910,Reversal,2022.1.1,59.96415343535271,4,
10,exp1.png,exp2.png,,1,0,1,0,0,10,10,10,,,,,,,,,,,,,,,,,,,,,,,,,False,30,31,False,exp1.png,exp2.png,trial_right_image,-1,exp2.png,4,exp2.png,exp1.png,1,1,non-reversed,correct,0.4827561883978113,1,valid_win,206.00527790002525,18,,,,,,,,,,,,,,,,sub_268,2023-06-14_12h35.59.910,Reversal,2022.1.1,59.96415343535271,4,
11,exp3.png,exp4.png,,1,0,1,0,0,11,11,11,,,,,,,,,,,,,,,,,,,,,,,,,False,31,32,False,exp3.png,exp4.png,trial_right_image,-1,exp4.png,4,exp4.png,exp3.png,1,3,reversed,correct,0.1930022760321939,0,invalid_lose,210.72131020005327,18,,,,,,,,,,,,,,,,sub_268,2023-06-14_12h35.59.910,Reversal,2022.1.1,59.96415343535271,4,
12,exp1.png,exp2.png,,1,0,1,0,0,12,12,12,,,,,,,,,,,,,,,,,,,,,,,,,False,32,33,True,exp2.png,exp1.png,trial_left_image,1,exp2.png,4,exp2.png,exp1.png,1,1,non-reversed,correct,0.3760197796272141,1,valid_win,215.5047232999932,19,,,,,,,,,,,,,,,,sub_268,2023-06-14_12h35.59.910,Reversal,2022.1.1,59.96415343535271,4,
13,exp3.png,exp4.png,,1,0,1,0,0,13,13,13,,,,,,,,,,,,,,,,,,,,,,,,,False,33,34,True,exp4.png,exp3.png,trial_left_image,1,exp4.png,4,exp4.png,exp3.png,1,3,reversed,correct,0.512399164100696,1,valid_win,220.25330280000344,20,,,,,,,,,,,,,,,,sub_268,2023-06-14_12h35.59.910,Reversal,2022.1.1,59.96415343535271,4,
14,exp1.png,exp2.png,,1,0,1,0,0,14,14,14,,,,,,,,,,,,,,,,,,,,,,,,,False,34,35,False,exp1.png,exp2.png,trial_right_image,-1,exp2.png,4,exp2.png,exp1.png,1,1,non-reversed,correct,0.09360041652457174,0,invalid_lose,224.9024112999905,20,,,,,,,,,,,,,,,,sub_268,2023-06-14_12h35.59.910,Reversal,2022.1.1,59.96415343535271,4,
15,exp3.png,exp4.png,,1,0,1,0,0,15,15,15,,,,,,,,,,,,,,,,,,,,,,,,,False,35,36,True,exp4.png,exp3.png,trial_left_image,1,exp4.png,4,exp4.png,exp3.png,1,3,reversed,correct,0.5261148402861947,1,valid_win,229.48561159998644,21,,,,,,,,,,,,,,,,sub_268,2023-06-14_12h35.59.910,Reversal,2022.1.1,59.96415343535271,4,
16,exp1.png,exp2.png,,1,0,1,0,0,16,16,16,,,,,,,,,,,,,,,,,,,,,,,,,False,36,37,True,exp2.png,exp1.png,trial_left_image,1,exp2.png,4,exp2.png,exp1.png,1,1,non-reversed,correct,0.034801123137648715,0,invalid_lose,234.18519620003644,21,,,,,,,,,,,,,,,,sub_268,2023-06-14_12h35.59.910,Reversal,2022.1.1,59.96415343535271,4,
17,exp3.png,exp4.png,,1,0,1,0,0,17,17,17,,,,,,,,,,,,,,,,,,,,,,,,,False,37,38,False,exp3.png,exp4.png,trial_right_image,-1,exp4.png,4,exp4.png,exp3.png,1,3,reversed,correct,0.8417287779061312,1,valid_win,240.8835754999891,22,,,,,,,,,,,,,,,,sub_268,2023-06-14_12h35.59.910,Reversal,2022.1.1,59.96415343535271,4,
18,exp1.png,exp2.png,,1,0,1,0,0,18,18,18,,,,,,,,,,,,,,,,,,,,,,,,,False,38,39,False,exp1.png,exp2.png,trial_right_image,-1,exp2.png,4,exp2.png,exp1.png,1,1,non-reversed,correct,0.07900640361885791,0,invalid_lose,248.01638020004611,22,,,,,,,,,,,,,,,,sub_268,2023-06-14_12h35.59.910,Reversal,2022.1.1,59.96415343535271,4,
19,exp3.png,exp4.png,,1,0,1,0,0,19,19,19,,,,,,,,,,,,,,,,,,,,,,,,,False,39,40,True,exp4.png,exp3.png,trial_left_image,1,exp4.png,4,exp4.png,exp3.png,1,3,reversed,correct,0.5562385700002623,1,valid_win,254.04901680001058,23,,,,,,,,,,,,,,,,sub_268,2023-06-14_12h35.59.910,Reversal,2022.1.1,59.96415343535271,4,
20,exp1.png,exp2.png,,1,0,1,0,0,20,20,20,,,,,,,,,,,,,,,,,,,,,,,,,True,,,,,,,,,,,,,,,,,,,,,,,,,,,,,,,,,,,,sub_268,2023-06-14_12h35.59.910,Reversal,2022.1.1,59.96415343535271,4,
,,,exp1.png,1,0,1,0,,,,,0,0,0,0,0,0,0,0,,,,,,,,,,,,,,,,,,,,,,,,,,,,,,,,,,,,,,22.0,22.0,6.202489999937825,"[(22.0, 6.202489999937825)]",396.93500209995545,None,,,,,,,,,,sub_268,2023-06-14_12h35.59.910,Reversal,2022.1.1,59.96415343535271,4,
,,,exp2.png,1,0,1,0,,,,,0,0,0,0,0,1,1,1,,,,,,,,,,,,,,,,,,,,,,,,,,,,,,,,,,,,,,,95.0,2.569236399955116,"[(95.0, 2.569236399955116)]",404.67476610001177,None,95.0,,,,,,,,,sub_268,2023-06-14_12h35.59.910,Reversal,2022.1.1,59.96415343535271,4,
,,,exp3.png,1,0,1,0,,,,,0,0,0,0,0,2,2,2,,,,,,,,,,,,,,,,,,,,,,,,,,,,,,,,,,,,,,,25.0,7.12003430002369,"[(25.0, 7.12003430002369)]",408.8239838000154,None,,25.0,,,,,,,,sub_268,2023-06-14_12h35.59.910,Reversal,2022.1.1,59.96415343535271,4,
,,,exp4.png,1,0,1,0,,,,,0,0,0,0,0,3,3,3,,,,,,,,,,,,,,,,,,,,,,,,,,,,,,,,,,,,,,,88.0,2.070610500057228,"[(88.0, 2.070610500057228)]",417.8227179000387,None,,,88.0,,,,,,,sub_268,2023-06-14_12h35.59.910,Reversal,2022.1.1,59.96415343535271,4,
0,exp1.png,exp2.png,,2,0,2,0,0,0,0,0,,,,,,,,,,,,,,,,,,,,,,,,,False,40,41,True,exp2.png,exp1.png,trial_left_image,1,exp2.png,4,exp2.png,exp1.png,1,1,non-reversed,correct,0.32479741418999364,1,valid_win,283.6121729000006,24,,,,,,,,,,,,,,,,sub_268,2023-06-14_12h35.59.910,Reversal,2022.1.1,59.96415343535271,4,
1,exp3.png,exp4.png,,2,0,2,0,0,1,1,1,,,,,,,,,,,,,,,,,,,,,,,,,False,41,42,False,exp3.png,exp4.png,trial_right_image,-1,exp4.png,4,exp4.png,exp3.png,1,3,reversed,correct,0.31273814584425563,1,valid_win,288.66168370004743,25,,,,,,,,,,,,,,,,sub_268,2023-06-14_12h35.59.910,Reversal,2022.1.1,59.96415343535271,4,
2,exp1.png,exp2.png,,2,0,2,0,0,2,2,2,,,,,,,,,,,,,,,,,,,,,,,,,False,42,43,False,exp1.png,exp2.png,trial_right_image,-1,exp2.png,4,exp2.png,exp1.png,1,1,non-reversed,correct,0.15800819099171892,0,invalid_lose,293.36093650001567,25,,,,,,,,,,,,,,,,sub_268,2023-06-14_12h35.59.910,Reversal,2022.1.1,59.96415343535271,4,
3,exp3.png,exp4.png,,2,0,2,0,0,3,3,3,,,,,,,,,,,,,,,,,,,,,,,,,False,43,44,True,exp4.png,exp3.png,trial_left_image,1,exp4.png,4,exp4.png,exp3.png,1,3,reversed,correct,0.7493023668738081,1,valid_win,298.09384149999823,26,,,,,,,,,,,,,,,,sub_268,2023-06-14_12h35.59.910,Reversal,2022.1.1,59.96415343535271,4,
4,exp1.png,exp2.png,,2,0,2,0,0,4,4,4,,,,,,,,,,,,,,,,,,,,,,,,,False,44,45,False,exp1.png,exp2.png,trial_right_image,-1,exp2.png,4,exp2.png,exp1.png,1,1,non-reversed,correct,0.7886722687078298,1,valid_win,302.6270780999912,27,,,,,,,,,,,,,,,,sub_268,2023-06-14_12h35.59.910,Reversal,2022.1.1,59.96415343535271,4,
5,exp3.png,exp4.png,,2,0,2,0,0,5,5,5,,,,,,,,,,,,,,,,,,,,,,,,,False,45,46,True,exp4.png,exp3.png,trial_left_image,1,exp4.png,4,exp4.png,exp3.png,1,3,reversed,correct,0.568836194519454,1,valid_win,307.26016730000265,28,,,,,,,,,,,,,,,,sub_268,2023-06-14_12h35.59.910,Reversal,2022.1.1,59.96415343535271,4,
6,exp1.png,exp2.png,,2,0,2,0,0,6,6,6,,,,,,,,,,,,,,,,,,,,,,,,,False,46,47,True,exp2.png,exp1.png,trial_left_image,1,exp2.png,4,exp2.png,exp1.png,1,1,non-reversed,correct,0.3039989253841837,1,valid_win,312.9083783000242,29,,,,,,,,,,,,,,,,sub_268,2023-06-14_12h35.59.910,Reversal,2022.1.1,59.96415343535271,4,
7,exp3.png,exp4.png,,2,0,2,0,0,7,7,7,,,,,,,,,,,,,,,,,,,,,,,,,False,47,48,False,exp3.png,exp4.png,trial_right_image,-1,exp4.png,4,exp4.png,exp3.png,1,3,reversed,correct,0.4104771485412674,1,valid_win,317.09824500000104,30,,,,,,,,,,,,,,,,sub_268,2023-06-14_12h35.59.910,Reversal,2022.1.1,59.96415343535271,4,
8,exp1.png,exp2.png,,2,0,2,0,0,8,8,8,,,,,,,,,,,,,,,,,,,,,,,,,False,48,49,True,exp2.png,exp1.png,trial_left_image,1,exp2.png,4,exp2.png,exp1.png,1,1,non-reversed,correct,0.6331972505045753,1,valid_win,322.10718339995947,31,,,,,,,,,,,,,,,,sub_268,2023-06-14_12h35.59.910,Reversal,2022.1.1,59.96415343535271,4,
9,exp3.png,exp4.png,,2,0,2,0,0,9,9,9,,,,,,,,,,,,,,,,,,,,,,,,,False,49,50,True,exp4.png,exp3.png,trial_left_image,1,exp4.png,4,exp4.png,exp3.png,1,3,reversed,correct,0.3302784165913524,1,valid_win,327.22373680002056,32,,,,,,,,,,,,,,,,sub_268,2023-06-14_12h35.59.910,Reversal,2022.1.1,59.96415343535271,4,
10,exp1.png,exp2.png,,2,0,2,0,0,10,10,10,,,,,,,,,,,,,,,,,,,,,,,,,False,50,51,True,exp2.png,exp1.png,trial_left_image,1,exp2.png,4,exp2.png,exp1.png,1,1,non-reversed,correct,0.2287027787105551,0,invalid_lose,332.7230811000336,32,,,,,,,,,,,,,,,,sub_268,2023-06-14_12h35.59.910,Reversal,2022.1.1,59.96415343535271,4,
11,exp3.png,exp4.png,,2,0,2,0,0,11,11,11,,,,,,,,,,,,,,,,,,,,,,,,,False,51,52,False,exp3.png,exp4.png,trial_right_image,-1,exp4.png,4,exp4.png,exp3.png,1,3,reversed,correct,0.7217945979456967,1,valid_win,337.2302092999453,33,,,,,,,,,,,,,,,,sub_268,2023-06-14_12h35.59.910,Reversal,2022.1.1,59.96415343535271,4,
12,exp1.png,exp2.png,,2,0,2,0,0,12,12,12,,,,,,,,,,,,,,,,,,,,,,,,,False,52,53,True,exp2.png,exp1.png,trial_left_image,1,exp2.png,4,exp2.png,exp1.png,1,1,non-reversed,correct,0.5482776945624742,1,valid_win,341.6891343999887,34,,,,,,,,,,,,,,,,sub_268,2023-06-14_12h35.59.910,Reversal,2022.1.1,59.96415343535271,4,
13,exp3.png,exp4.png,,2,0,2,0,0,13,13,13,,,,,,,,,,,,,,,,,,,,,,,,,False,53,54,False,exp3.png,exp4.png,trial_right_image,-1,exp4.png,4,exp4.png,exp3.png,1,3,reversed,correct,0.4733867199484856,1,valid_win,346.7547613000497,35,,,,,,,,,,,,,,,,sub_268,2023-06-14_12h35.59.910,Reversal,2022.1.1,59.96415343535271,4,
14,exp1.png,exp2.png,,2,0,2,0,0,14,14,14,,,,,,,,,,,,,,,,,,,,,,,,,False,54,55,True,exp2.png,exp1.png,trial_left_image,1,exp2.png,4,exp2.png,exp1.png,1,1,non-reversed,correct,0.8297376517425629,1,valid_win,351.8215247000335,36,,,,,,,,,,,,,,,,sub_268,2023-06-14_12h35.59.910,Reversal,2022.1.1,59.96415343535271,4,
15,exp3.png,exp4.png,,2,0,2,0,0,15,15,15,,,,,,,,,,,,,,,,,,,,,,,,,False,55,56,True,exp4.png,exp3.png,trial_left_image,1,exp4.png,4,exp4.png,exp3.png,1,3,reversed,correct,0.8552231963157503,1,valid_win,356.26968350005336,37,,,,,,,,,,,,,,,,sub_268,2023-06-14_12h35.59.910,Reversal,2022.1.1,59.96415343535271,4,
16,exp1.png,exp2.png,,2,0,2,0,0,16,16,16,,,,,,,,,,,,,,,,,,,,,,,,,False,56,57,False,exp1.png,exp2.png,trial_right_image,-1,exp2.png,4,exp2.png,exp1.png,1,1,non-reversed,correct,0.2770339522540761,1,valid_win,360.37792909995187,38,,,,,,,,,,,,,,,,sub_268,2023-06-14_12h35.59.910,Reversal,2022.1.1,59.96415343535271,4,
17,exp3.png,exp4.png,,2,0,2,0,0,17,17,17,,,,,,,,,,,,,,,,,,,,,,,,,False,57,58,False,exp3.png,exp4.png,trial_right_image,-1,exp4.png,4,exp4.png,exp3.png,1,3,reversed,correct,0.2916574938901787,1,valid_win,364.3745278000133,39,,,,,,,,,,,,,,,,sub_268,2023-06-14_12h35.59.910,Reversal,2022.1.1,59.96415343535271,4,
18,exp1.png,exp2.png,,2,0,2,0,0,18,18,18,,,,,,,,,,,,,,,,,,,,,,,,,False,58,59,False,exp1.png,exp2.png,trial_right_image,-1,exp2.png,4,exp2.png,exp1.png,1,1,non-reversed,correct,0.3657062345579787,1,valid_win,368.58534640003927,40,,,,,,,,,,,,,,,,sub_268,2023-06-14_12h35.59.910,Reversal,2022.1.1,59.96415343535271,4,
19,exp3.png,exp4.png,,2,0,2,0,0,19,19,19,,,,,,,,,,,,,,,,,,,,,,,,,False,59,60,False,exp3.png,exp4.png,trial_right_image,-1,exp4.png,4,exp4.png,exp3.png,1,3,reversed,correct,0.5315544122762983,1,valid_win,373.1521765999496,41,,,,,,,,,,,,,,,,sub_268,2023-06-14_12h35.59.910,Reversal,2022.1.1,59.96415343535271,4,
20,exp1.png,exp2.png,,2,0,2,0,0,20,20,20,,,,,,,,,,,,,,,,,,,,,,,,,True,,,,,,,,,,,,,,,,,,,,,,,,,,,,,,,,,,,,sub_268,2023-06-14_12h35.59.910,Reversal,2022.1.1,59.96415343535271,4,
,,,exp1.png,2,0,2,0,,,,,0,0,0,0,0,0,0,0,,,,,,,,,,,,,,,,,,,,,,,,,,,,,,,,,,,,,,7.0,7.0,4.2307403000304475,"[(7.0, 4.2307403000304475)]",516.0408690000186,None,,,,,,,,,,sub_268,2023-06-14_12h35.59.910,Reversal,2022.1.1,59.96415343535271,4,
,,,exp2.png,2,0,2,0,,,,,0,0,0,0,0,1,1,1,,,,,,,,,,,,,,,,,,,,,,,,,,,,,,,,,,,,,,,100.0,1.905419799964875,"[(100.0, 1.905419799964875)]",521.1909161999356,None,100.0,,,,,,,,,sub_268,2023-06-14_12h35.59.910,Reversal,2022.1.1,59.96415343535271,4,
,,,exp3.png,2,0,2,0,,,,,0,0,0,0,0,2,2,2,,,,,,,,,,,,,,,,,,,,,,,,,,,,,,,,,,,,,,,10.0,4.907429100014269,"[(16.0, 3.758799600065686), (10.0, 4.907429100014269)]",523.6882373000262,None,,10.0,,,,,,,,sub_268,2023-06-14_12h35.59.910,Reversal,2022.1.1,59.96415343535271,4,
,,,exp4.png,2,0,2,0,,,,,0,0,0,0,0,3,3,3,,,,,,,,,,,,,,,,,,,,,,,,,,,,,,,,,,,,,,,50.0,None,[],529.4571720999666,None,,,,,,,,,,sub_268,2023-06-14_12h35.59.910,Reversal,2022.1.1,59.96415343535271,4,
0,exp1.png,exp2.png,,,,,,,,,,,,,,,,,,0,0,0,0,0,0,0,0,,,,,,,,,False,0,61,True,exp2.png,exp1.png,trial_left_image,1,exp2.png,4,exp2.png,exp1.png,1,1,non-reversed,correct,0.15824291012475966,0,invalid_lose,392.21541309996974,41,,,,,,,,,,389.6567353999708,,,,,,sub_268,2023-06-14_12h35.59.910,Reversal,2022.1.1,59.96415343535271,4,
1,exp3.png,exp4.png,,,,,,,,,,,,,,,,,,0,0,0,0,0,1,1,1,,,,,,,,,False,1,62,True,exp4.png,exp3.png,trial_left_image,1,exp4.png,4,exp3.png,exp4.png,1,3,reversed,incorrect,0.5752697809019511,0,valid_lose,396.6982164999936,41,,,,,,,,,,,,,,,,sub_268,2023-06-14_12h35.59.910,Reversal,2022.1.1,59.96415343535271,4,
2,exp1.png,exp2.png,,,,,,,,,,,,,,,,,,0,0,0,0,0,2,2,2,,,,,,,,,False,2,63,False,exp1.png,exp2.png,trial_right_image,-1,exp2.png,4,exp2.png,exp1.png,1,1,non-reversed,correct,0.5516349198774935,1,valid_win,400.89823139994405,42,,,,,,,,,,,,,,,,sub_268,2023-06-14_12h35.59.910,Reversal,2022.1.1,59.96415343535271,4,
3,exp3.png,exp4.png,,,,,,,,,,,,,,,,,,0,0,0,0,0,3,3,3,,,,,,,,,False,3,64,False,exp3.png,exp4.png,trial_right_image,-1,exp4.png,4,exp3.png,exp4.png,1,3,reversed,incorrect,0.7516272256628128,0,valid_lose,405.41345640004147,42,,,,,,,,,,,,,,,,sub_268,2023-06-14_12h35.59.910,Reversal,2022.1.1,59.96415343535271,4,
4,exp1.png,exp2.png,,,,,,,,,,,,,,,,,,0,0,0,0,0,4,4,4,,,,,,,,,False,4,65,False,exp1.png,exp2.png,trial_right_image,-1,exp2.png,4,exp2.png,exp1.png,1,1,non-reversed,correct,0.9818788158626132,1,valid_win,411.06346289999783,43,,,,,,,,,,,,,,,,sub_268,2023-06-14_12h35.59.910,Reversal,2022.1.1,59.96415343535271,4,
5,exp3.png,exp4.png,,,,,,,,,,,,,,,,,,0,0,0,0,0,5,5,5,,,,,,,,,False,5,66,True,exp4.png,exp3.png,trial_left_image,1,exp4.png,4,exp3.png,exp4.png,1,3,reversed,incorrect,0.24402164029337403,1,invalid_win,415.6622384999646,44,,,,,,,,,,,,,,,,sub_268,2023-06-14_12h35.59.910,Reversal,2022.1.1,59.96415343535271,4,
6,exp1.png,exp2.png,,,,,,,,,,,,,,,,,,0,0,0,0,0,6,6,6,,,,,,,,,False,6,67,False,exp1.png,exp2.png,trial_right_image,-1,exp2.png,4,exp2.png,exp1.png,1,1,non-reversed,correct,0.5287328849516433,1,valid_win,420.47767000005115,45,,,,,,,,,,,,,,,,sub_268,2023-06-14_12h35.59.910,Reversal,2022.1.1,59.96415343535271,4,
7,exp3.png,exp4.png,,,,,,,,,,,,,,,,,,0,0,0,0,0,7,7,7,,,,,,,,,False,7,68,True,exp4.png,exp3.png,trial_left_image,1,exp4.png,4,exp3.png,exp4.png,1,3,reversed,incorrect,0.06307532325594478,1,invalid_win,425.16029869997874,46,,,,,,,,,,,,,,,,sub_268,2023-06-14_12h35.59.910,Reversal,2022.1.1,59.96415343535271,4,
8,exp1.png,exp2.png,,,,,,,,,,,,,,,,,,0,0,0,0,0,8,8,8,,,,,,,,,False,8,69,False,exp1.png,exp2.png,trial_right_image,-1,exp2.png,4,exp2.png,exp1.png,1,1,non-reversed,correct,0.539109682283982,1,valid_win,429.8437605999643,47,,,,,,,,,,,,,,,,sub_268,2023-06-14_12h35.59.910,Reversal,2022.1.1,59.96415343535271,4,
9,exp3.png,exp4.png,,,,,,,,,,,,,,,,,,0,0,0,0,0,9,9,9,,,,,,,,,False,9,70,False,exp3.png,exp4.png,trial_right_image,-1,exp4.png,4,exp3.png,exp4.png,1,3,reversed,incorrect,0.21303244800152676,1,invalid_win,433.86595659994055,48,,,,,,,,,,,,,,,,sub_268,2023-06-14_12h35.59.910,Reversal,2022.1.1,59.96415343535271,4,
10,exp1.png,exp2.png,,,,,,,,,,,,,,,,,,0,0,0,0,0,10,10,10,,,,,,,,,False,10,71,True,exp2.png,exp1.png,trial_left_image,1,exp2.png,4,exp2.png,exp1.png,1,1,non-reversed,correct,0.6309030932363872,1,valid_win,438.47707030002493,49,,,,,,,,,,,,,,,,sub_268,2023-06-14_12h35.59.910,Reversal,2022.1.1,59.96415343535271,4,
11,exp3.png,exp4.png,,,,,,,,,,,,,,,,,,0,0,0,0,0,11,11,11,,,,,,,,,False,11,72,False,exp3.png,exp4.png,trial_right_image,-1,exp4.png,4,exp3.png,exp4.png,1,3,reversed,incorrect,0.6541089567104147,0,valid_lose,443.19258050003555,49,,,,,,,,,,,,,,,,sub_268,2023-06-14_12h35.59.910,Reversal,2022.1.1,59.96415343535271,4,
12,exp1.png,exp2.png,,,,,,,,,,,,,,,,,,0,0,0,0,0,12,12,12,,,,,,,,,False,12,73,True,exp2.png,exp1.png,trial_left_image,1,exp2.png,4,exp2.png,exp1.png,1,1,non-reversed,correct,0.28255622076600717,1,valid_win,448.1908612999832,50,,,,,,,,,,,,,,,,sub_268,2023-06-14_12h35.59.910,Reversal,2022.1.1,59.96415343535271,4,
13,exp3.png,exp4.png,,,,,,,,,,,,,,,,,,0,0,0,0,0,13,13,13,,,,,,,,,False,13,74,True,exp4.png,exp3.png,trial_left_image,1,exp4.png,4,exp3.png,exp4.png,1,3,reversed,incorrect,0.8394720179136316,0,valid_lose,452.7901597999735,50,,,,,,,,,,,,,,,,sub_268,2023-06-14_12h35.59.910,Reversal,2022.1.1,59.96415343535271,4,
14,exp1.png,exp2.png,,,,,,,,,,,,,,,,,,0,0,0,0,0,14,14,14,,,,,,,,,False,14,75,True,exp2.png,exp1.png,trial_left_image,1,exp2.png,4,exp2.png,exp1.png,1,1,non-reversed,correct,0.6618217717023677,1,valid_win,457.45608929998707,51,,,,,,,,,,,,,,,,sub_268,2023-06-14_12h35.59.910,Reversal,2022.1.1,59.96415343535271,4,
15,exp3.png,exp4.png,,,,,,,,,,,,,,,,,,0,0,0,0,0,15,15,15,,,,,,,,,False,15,76,True,exp4.png,exp3.png,trial_left_image,1,exp4.png,4,exp3.png,exp4.png,1,3,reversed,incorrect,0.4411537644849364,0,valid_lose,461.73937920003664,51,,,,,,,,,,,,,,,,sub_268,2023-06-14_12h35.59.910,Reversal,2022.1.1,59.96415343535271,4,
16,exp1.png,exp2.png,,,,,,,,,,,,,,,,,,0,0,0,0,0,16,16,16,,,,,,,,,False,16,77,False,exp1.png,exp2.png,trial_right_image,-1,exp2.png,4,exp2.png,exp1.png,1,1,non-reversed,correct,0.890866743940651,1,valid_win,466.6715197999729,52,,,,,,,,,,,,,,,,sub_268,2023-06-14_12h35.59.910,Reversal,2022.1.1,59.96415343535271,4,
17,exp3.png,exp4.png,,,,,,,,,,,,,,,,,,0,0,0,0,0,17,17,17,,,,,,,,,False,17,78,True,exp4.png,exp3.png,trial_left_image,1,exp4.png,4,exp3.png,exp4.png,1,3,reversed,incorrect,0.7590989509327563,0,valid_lose,471.05491299997084,52,,,,,,,,,,,,,,,,sub_268,2023-06-14_12h35.59.910,Reversal,2022.1.1,59.96415343535271,4,
18,exp1.png,exp2.png,,,,,,,,,,,,,,,,,,0,0,0,0,0,18,18,18,,,,,,,,,False,18,79,False,exp1.png,exp2.png,trial_right_image,-1,exp2.png,4,exp2.png,exp1.png,1,1,non-reversed,correct,0.5644388055277068,1,valid_win,475.1775594999781,53,,,,,,,,,,,,,,,,sub_268,2023-06-14_12h35.59.910,Reversal,2022.1.1,59.96415343535271,4,
19,exp3.png,exp4.png,,,,,,,,,,,,,,,,,,0,0,0,0,0,19,19,19,,,,,,,,,False,19,80,False,exp3.png,exp4.png,trial_right_image,-1,exp4.png,4,exp3.png,exp4.png,1,3,reversed,incorrect,0.7330877212259732,0,valid_lose,479.45501409994904,53,,,,,,,,,,,,,,,,sub_268,2023-06-14_12h35.59.910,Reversal,2022.1.1,59.96415343535271,4,
20,exp1.png,exp2.png,,,,,,,,,,,,,,,,,,0,0,0,0,0,20,20,20,,,,,,,,,True,,,,,,,,,,,,,,,,,,,,,,,,,,,,,,,,,,,,sub_268,2023-06-14_12h35.59.910,Reversal,2022.1.1,59.96415343535271,4,
,,,exp1.png,,,,,,,,,,,,,,,,,0,0,0,0,,,,,0,0,0,0,0,0,0,0,,,,,,,,,,,,,,,,,,,,,,13.0,13.0,4.820137399947271,"[(26.0, 2.970908600022085), (13.0, 4.820137399947271)]",622.3532996999566,None,,,,,,,,,,sub_268,2023-06-14_12h35.59.910,Reversal,2022.1.1,59.96415343535271,4,
,,,exp2.png,,,,,,,,,,,,,,,,,0,0,0,0,,,,,0,0,0,0,0,1,1,1,,,,,,,,,,,,,,,,,,,,,,,84.0,2.168019299977459,"[(72.0, 1.7020021999487653), (84.0, 2.168019299977459)]",628.6628582000267,None,84.0,,,,,,,,,sub_268,2023-06-14_12h35.59.910,Reversal,2022.1.1,59.96415343535271,4,
,,,exp3.png,,,,,,,,,,,,,,,,,0,0,0,0,,,,,0,0,0,0,0,2,2,2,,,,,,,,,,,,,,,,,,,,,,,18.0,8.275075900019147,"[(18.0, 8.275075900019147)]",632.1059209000086,None,,18.0,,,,,,,,sub_268,2023-06-14_12h35.59.910,Reversal,2022.1.1,59.96415343535271,4,
,,,exp4.png,,,,,,,,,,,,,,,,,0,0,0,0,,,,,0,0,0,0,0,3,3,3,,,,,,,,,,,,,,,,,,,,,,,84.0,3.1836434999713674,"[(84.0, 3.1836434999713674)]",642.980113800033,None,,,84.0,,,,,,,sub_268,2023-06-14_12h35.59.910,Reversal,2022.1.1,59.96415343535271,4,
0,exp1.png,exp2.png,,,,,,,,,,,,,,,,,,1,0,1,0,0,0,0,0,,,,,,,,,False,20,81,False,exp1.png,exp2.png,trial_right_image,-1,exp2.png,4,exp2.png,exp1.png,1,1,non-reversed,correct,0.8229588844689883,1,valid_win,509.0666406999808,54,,,,,,,,,,,,,,,,sub_268,2023-06-14_12h35.59.910,Reversal,2022.1.1,59.96415343535271,4,
1,exp3.png,exp4.png,,,,,,,,,,,,,,,,,,1,0,1,0,0,1,1,1,,,,,,,,,False,21,82,True,exp4.png,exp3.png,trial_left_image,1,exp4.png,4,exp3.png,exp4.png,1,3,reversed,incorrect,0.06876649138469382,1,invalid_win,514.2159973999951,55,,,,,,,,,,,,,,,,sub_268,2023-06-14_12h35.59.910,Reversal,2022.1.1,59.96415343535271,4,
2,exp1.png,exp2.png,,,,,,,,,,,,,,,,,,1,0,1,0,0,2,2,2,,,,,,,,,False,22,83,False,exp1.png,exp2.png,trial_right_image,-1,exp2.png,4,exp2.png,exp1.png,1,1,non-reversed,correct,0.5763041645297856,1,valid_win,518.6823401999427,56,,,,,,,,,,,,,,,,sub_268,2023-06-14_12h35.59.910,Reversal,2022.1.1,59.96415343535271,4,
3,exp3.png,exp4.png,,,,,,,,,,,,,,,,,,1,0,1,0,0,3,3,3,,,,,,,,,False,23,84,False,exp3.png,exp4.png,trial_right_image,-1,exp4.png,4,exp3.png,exp4.png,1,3,reversed,incorrect,0.23509347380289725,1,invalid_win,523.0811301999493,57,,,,,,,,,,,,,,,,sub_268,2023-06-14_12h35.59.910,Reversal,2022.1.1,59.96415343535271,4,
4,exp1.png,exp2.png,,,,,,,,,,,,,,,,,,1,0,1,0,0,4,4,4,,,,,,,,,False,24,85,True,exp2.png,exp1.png,trial_left_image,1,exp2.png,4,exp2.png,exp1.png,1,1,non-reversed,correct,0.29894330444028605,1,valid_win,527.5478443000466,58,,,,,,,,,,,,,,,,sub_268,2023-06-14_12h35.59.910,Reversal,2022.1.1,59.96415343535271,4,
5,exp3.png,exp4.png,,,,,,,,,,,,,,,,,,1,0,1,0,0,5,5,5,,,,,,,,,False,25,86,True,exp4.png,exp3.png,trial_left_image,1,exp4.png,4,exp3.png,exp4.png,1,3,reversed,incorrect,0.43637372053297097,0,valid_lose,531.5363793999422,58,,,,,,,,,,,,,,,,sub_268,2023-06-14_12h35.59.910,Reversal,2022.1.1,59.96415343535271,4,
6,exp1.png,exp2.png,,,,,,,,,,,,,,,,,,1,0,1,0,0,6,6,6,,,,,,,,,False,26,87,True,exp2.png,exp1.png,trial_left_image,1,exp2.png,4,exp2.png,exp1.png,1,1,non-reversed,correct,0.924538976972257,1,valid_win,535.7726357999491,59,,,,,,,,,,,,,,,,sub_268,2023-06-14_12h35.59.910,Reversal,2022.1.1,59.96415343535271,4,
7,exp3.png,exp4.png,,,,,,,,,,,,,,,,,,1,0,1,0,0,7,7,7,,,,,,,,,False,27,88,False,exp3.png,exp4.png,trial_left_image,1,exp3.png,4,exp3.png,exp4.png,0,4,reversed,correct,0.04491441274980468,0,invalid_lose,539.8788360999897,59,,,,,,,,,,,,,,,,sub_268,2023-06-14_12h35.59.910,Reversal,2022.1.1,59.96415343535271,4,
8,exp1.png,exp2.png,,,,,,,,,,,,,,,,,,1,0,1,0,0,8,8,8,,,,,,,,,False,28,89,False,exp1.png,exp2.png,trial_left_image,1,exp1.png,4,exp2.png,exp1.png,0,2,non-reversed,incorrect,0.21819611695556207,1,invalid_win,543.9775889000157,60,,,,,,,,,,,,,,,,sub_268,2023-06-14_12h35.59.910,Reversal,2022.1.1,59.96415343535271,4,
9,exp3.png,exp4.png,,,,,,,,,,,,,,,,,,1,0,1,0,0,9,9,9,,,,,,,,,False,29,90,True,exp4.png,exp3.png,trial_right_image,-1,exp3.png,4,exp3.png,exp4.png,0,4,reversed,correct,0.4267437695014423,1,valid_win,548.1797156999819,61,,,,,,,,,,,,,,,,sub_268,2023-06-14_12h35.59.910,Reversal,2022.1.1,59.96415343535271,4,
10,exp1.png,exp2.png,,,,,,,,,,,,,,,,,,1,0,1,0,0,10,10,10,,,,,,,,,False,30,91,True,exp2.png,exp1.png,trial_left_image,1,exp2.png,4,exp2.png,exp1.png,1,1,non-reversed,correct,0.30739465146757106,1,valid_win,552.1186297000386,62,,,,,,,,,,,,,,,,sub_268,2023-06-14_12h35.59.910,Reversal,2022.1.1,59.96415343535271,4,
11,exp3.png,exp4.png,,,,,,,,,,,,,,,,,,1,0,1,0,0,11,11,11,,,,,,,,,False,31,92,True,exp4.png,exp3.png,trial_right_image,-1,exp3.png,4,exp3.png,exp4.png,0,4,reversed,correct,0.5496902408068591,1,valid_win,556.2121335000265,63,,,,,,,,,,,,,,,,sub_268,2023-06-14_12h35.59.910,Reversal,2022.1.1,59.96415343535271,4,
12,exp1.png,exp2.png,,,,,,,,,,,,,,,,,,1,0,1,0,0,12,12,12,,,,,,,,,False,32,93,False,exp1.png,exp2.png,trial_left_image,1,exp1.png,4,exp2.png,exp1.png,0,2,non-reversed,incorrect,0.7280848913429895,0,valid_lose,560.4595075000543,63,,,,,,,,,,,,,,,,sub_268,2023-06-14_12h35.59.910,Reversal,2022.1.1,59.96415343535271,4,
13,exp3.png,exp4.png,,,,,,,,,,,,,,,,,,1,0,1,0,0,13,13,13,,,,,,,,,False,33,94,False,exp3.png,exp4.png,trial_right_image,-1,exp4.png,4,exp3.png,exp4.png,1,3,reversed,incorrect,0.8689921761318299,0,valid_lose,565.2759137999965,63,,,,,,,,,,,,,,,,sub_268,2023-06-14_12h35.59.910,Reversal,2022.1.1,59.96415343535271,4,
14,exp1.png,exp2.png,,,,,,,,,,,,,,,,,,1,0,1,0,0,14,14,14,,,,,,,,,False,34,95,False,exp1.png,exp2.png,trial_right_image,-1,exp2.png,4,exp2.png,exp1.png,1,1,non-reversed,correct,0.017859922014740515,0,invalid_lose,569.6254362999462,63,,,,,,,,,,,,,,,,sub_268,2023-06-14_12h35.59.910,Reversal,2022.1.1,59.96415343535271,4,
15,exp3.png,exp4.png,,,,,,,,,,,,,,,,,,1,0,1,0,0,15,15,15,,,,,,,,,False,35,96,False,exp3.png,exp4.png,trial_left_image,1,exp3.png,4,exp3.png,exp4.png,0,4,reversed,correct,0.9378559978017516,1,valid_win,573.807837100001,64,,,,,,,,,,,,,,,,sub_268,2023-06-14_12h35.59.910,Reversal,2022.1.1,59.96415343535271,4,
16,exp1.png,exp2.png,,,,,,,,,,,,,,,,,,1,0,1,0,0,16,16,16,,,,,,,,,False,36,97,True,exp2.png,exp1.png,trial_right_image,-1,exp1.png,4,exp2.png,exp1.png,0,2,non-reversed,incorrect,0.9440021280364819,0,valid_lose,578.3246389999986,64,,,,,,,,,,,,,,,,sub_268,2023-06-14_12h35.59.910,Reversal,2022.1.1,59.96415343535271,4,
17,exp3.png,exp4.png,,,,,,,,,,,,,,,,,,1,0,1,0,0,17,17,17,,,,,,,,,False,37,98,True,exp4.png,exp3.png,trial_right_image,-1,exp3.png,4,exp3.png,exp4.png,0,4,reversed,correct,0.9437227189676063,1,valid_win,582.808984000003,65,,,,,,,,,,,,,,,,sub_268,2023-06-14_12h35.59.910,Reversal,2022.1.1,59.96415343535271,4,
18,exp1.png,exp2.png,,,,,,,,,,,,,,,,,,1,0,1,0,0,18,18,18,,,,,,,,,False,38,99,True,exp2.png,exp1.png,trial_left_image,1,exp2.png,4,exp2.png,exp1.png,1,1,non-reversed,correct,0.12173660768739492,0,invalid_lose,586.9727931000525,65,,,,,,,,,,,,,,,,sub_268,2023-06-14_12h35.59.910,Reversal,2022.1.1,59.96415343535271,4,
19,exp3.png,exp4.png,,,,,,,,,,,,,,,,,,1,0,1,0,0,19,19,19,,,,,,,,,False,39,100,False,exp3.png,exp4.png,trial_right_image,-1,exp4.png,4,exp3.png,exp4.png,1,3,reversed,incorrect,0.5087611258089217,0,valid_lose,591.0738069999497,65,,,,,,,,,,,,,,,,sub_268,2023-06-14_12h35.59.910,Reversal,2022.1.1,59.96415343535271,4,
20,exp1.png,exp2.png,,,,,,,,,,,,,,,,,,1,0,1,0,0,20,20,20,,,,,,,,,True,,,,,,,,,,,,,,,,,,,,,,,,,,,,,,,,,,,,sub_268,2023-06-14_12h35.59.910,Reversal,2022.1.1,59.96415343535271,4,
,,,exp1.png,,,,,,,,,,,,,,,,,1,0,1,0,,,,,0,0,0,0,0,0,0,0,,,,,,,,,,,,,,,,,,,,,,8.0,8.0,6.8329657999565825,"[(8.0, 6.8329657999565825)]",733.9583836999955,None,,,,,,,,,,sub_268,2023-06-14_12h35.59.910,Reversal,2022.1.1,59.96415343535271,4,
,,,exp2.png,,,,,,,,,,,,,,,,,1,0,1,0,,,,,0,0,0,0,0,1,1,1,,,,,,,,,,,,,,,,,,,,,,,78.0,2.45254319999367,"[(78.0, 2.45254319999367)]",741.9816985999933,None,78.0,,,,,,,,,sub_268,2023-06-14_12h35.59.910,Reversal,2022.1.1,59.96415343535271,4,
,,,exp3.png,,,,,,,,,,,,,,,,,1,0,1,0,,,,,0,0,0,0,0,2,2,2,,,,,,,,,,,,,,,,,,,,,,,50.0,None,[],745.1084682999644,None,,,,,,,,,,sub_268,2023-06-14_12h35.59.910,Reversal,2022.1.1,59.96415343535271,4,
,,,exp4.png,,,,,,,,,,,,,,,,,1,0,1,0,,,,,0,0,0,0,0,3,3,3,,,,,,,,,,,,,,,,,,,,,,,50.0,None,[],748.4772710000398,None,,,,,,,,,,sub_268,2023-06-14_12h35.59.910,Reversal,2022.1.1,59.96415343535271,4,
0,exp1.png,exp2.png,,,,,,,,,,,,,,,,,,2,0,2,0,0,0,0,0,,,,,,,,,False,40,101,True,exp2.png,exp1.png,trial_left_image,1,exp2.png,4,exp2.png,exp1.png,1,1,non-reversed,correct,0.17892793098281523,0,invalid_lose,613.7028002999723,65,,,,,,,,,,,,,,,,sub_268,2023-06-14_12h35.59.910,Reversal,2022.1.1,59.96415343535271,4,
1,exp3.png,exp4.png,,,,,,,,,,,,,,,,,,2,0,2,0,0,1,1,1,,,,,,,,,False,41,102,False,exp3.png,exp4.png,trial_right_image,-1,exp4.png,4,exp3.png,exp4.png,1,3,reversed,incorrect,0.9508048536423076,0,valid_lose,617.8024515999714,65,,,,,,,,,,,,,,,,sub_268,2023-06-14_12h35.59.910,Reversal,2022.1.1,59.96415343535271,4,
2,exp1.png,exp2.png,,,,,,,,,,,,,,,,,,2,0,2,0,0,2,2,2,,,,,,,,,False,42,103,True,exp2.png,exp1.png,trial_right_image,-1,exp1.png,4,exp2.png,exp1.png,0,2,non-reversed,incorrect,0.18262200261454198,1,invalid_win,622.4026380999712,66,,,,,,,,,,,,,,,,sub_268,2023-06-14_12h35.59.910,Reversal,2022.1.1,59.96415343535271,4,
3,exp3.png,exp4.png,,,,,,,,,,,,,,,,,,2,0,2,0,0,3,3,3,,,,,,,,,False,43,104,True,exp4.png,exp3.png,trial_right_image,-1,exp3.png,4,exp3.png,exp4.png,0,4,reversed,correct,0.1834959249304895,0,invalid_lose,627.0682626999915,66,,,,,,,,,,,,,,,,sub_268,2023-06-14_12h35.59.910,Reversal,2022.1.1,59.96415343535271,4,
4,exp1.png,exp2.png,,,,,,,,,,,,,,,,,,2,0,2,0,0,4,4,4,,,,,,,,,False,44,105,True,exp2.png,exp1.png,trial_left_image,1,exp2.png,4,exp2.png,exp1.png,1,1,non-reversed,correct,0.4002034675061604,1,valid_win,631.5840015000431,67,,,,,,,,,,,,,,,,sub_268,2023-06-14_12h35.59.910,Reversal,2022.1.1,59.96415343535271,4,
5,exp3.png,exp4.png,,,,,,,,,,,,,,,,,,2,0,2,0,0,5,5,5,,,,,,,,,False,45,106,True,exp4.png,exp3.png,trial_right_image,-1,exp3.png,4,exp3.png,exp4.png,0,4,reversed,correct,0.9680067383645959,1,valid_win,635.9508115999633,68,,,,,,,,,,,,,,,,sub_268,2023-06-14_12h35.59.910,Reversal,2022.1.1,59.96415343535271,4,
6,exp1.png,exp2.png,,,,,,,,,,,,,,,,,,2,0,2,0,0,6,6,6,,,,,,,,,False,46,107,False,exp1.png,exp2.png,trial_right_image,-1,exp2.png,4,exp2.png,exp1.png,1,1,non-reversed,correct,0.1116923010221822,0,invalid_lose,640.3179721999913,68,,,,,,,,,,,,,,,,sub_268,2023-06-14_12h35.59.910,Reversal,2022.1.1,59.96415343535271,4,
7,exp3.png,exp4.png,,,,,,,,,,,,,,,,,,2,0,2,0,0,7,7,7,,,,,,,,,False,47,108,True,exp4.png,exp3.png,trial_right_image,-1,exp3.png,4,exp3.png,exp4.png,0,4,reversed,correct,0.956600504583285,1,valid_win,645.3822420999641,69,,,,,,,,,,,,,,,,sub_268,2023-06-14_12h35.59.910,Reversal,2022.1.1,59.96415343535271,4,
8,exp1.png,exp2.png,,,,,,,,,,,,,,,,,,2,0,2,0,0,8,8,8,,,,,,,,,False,48,109,True,exp2.png,exp1.png,trial_left_image,1,exp2.png,4,exp2.png,exp1.png,1,1,non-reversed,correct,0.9712502174530124,1,valid_win,649.781989500043,70,,,,,,,,,,,,,,,,sub_268,2023-06-14_12h35.59.910,Reversal,2022.1.1,59.96415343535271,4,
9,exp3.png,exp4.png,,,,,,,,,,,,,,,,,,2,0,2,0,0,9,9,9,,,,,,,,,False,49,110,False,exp3.png,exp4.png,trial_left_image,1,exp3.png,4,exp3.png,exp4.png,0,4,reversed,correct,0.6570622570179339,1,valid_win,654.265333599993,71,,,,,,,,,,,,,,,,sub_268,2023-06-14_12h35.59.910,Reversal,2022.1.1,59.96415343535271,4,
10,exp1.png,exp2.png,,,,,,,,,,,,,,,,,,2,0,2,0,0,10,10,10,,,,,,,,,False,50,111,False,exp1.png,exp2.png,trial_right_image,-1,exp2.png,4,exp2.png,exp1.png,1,1,non-reversed,correct,0.5308653395320241,1,valid_win,658.480940700043,72,,,,,,,,,,,,,,,,sub_268,2023-06-14_12h35.59.910,Reversal,2022.1.1,59.96415343535271,4,
11,exp3.png,exp4.png,,,,,,,,,,,,,,,,,,2,0,2,0,0,11,11,11,,,,,,,,,False,51,112,False,exp3.png,exp4.png,trial_left_image,1,exp3.png,4,exp3.png,exp4.png,0,4,reversed,correct,0.24815612983866708,0,invalid_lose,662.6971978000365,72,,,,,,,,,,,,,,,,sub_268,2023-06-14_12h35.59.910,Reversal,2022.1.1,59.96415343535271,4,
12,exp1.png,exp2.png,,,,,,,,,,,,,,,,,,2,0,2,0,0,12,12,12,,,,,,,,,False,52,113,True,exp2.png,exp1.png,trial_left_image,1,exp2.png,4,exp2.png,exp1.png,1,1,non-reversed,correct,0.12537581617712878,0,invalid_lose,667.3796720999526,72,,,,,,,,,,,,,,,,sub_268,2023-06-14_12h35.59.910,Reversal,2022.1.1,59.96415343535271,4,
13,exp3.png,exp4.png,,,,,,,,,,,,,,,,,,2,0,2,0,0,13,13,13,,,,,,,,,False,53,114,False,exp3.png,exp4.png,trial_left_image,1,exp3.png,4,exp3.png,exp4.png,0,4,reversed,correct,0.6292108900150307,1,valid_win,671.7787064999575,73,,,,,,,,,,,,,,,,sub_268,2023-06-14_12h35.59.910,Reversal,2022.1.1,59.96415343535271,4,
14,exp1.png,exp2.png,,,,,,,,,,,,,,,,,,2,0,2,0,0,14,14,14,,,,,,,,,False,54,115,False,exp1.png,exp2.png,trial_right_image,-1,exp2.png,4,exp2.png,exp1.png,1,1,non-reversed,correct,0.19493220728111127,0,invalid_lose,675.9960786999436,73,,,,,,,,,,,,,,,,sub_268,2023-06-14_12h35.59.910,Reversal,2022.1.1,59.96415343535271,4,
15,exp3.png,exp4.png,,,,,,,,,,,,,,,,,,2,0,2,0,0,15,15,15,,,,,,,,,False,55,116,True,exp4.png,exp3.png,trial_right_image,-1,exp3.png,4,exp3.png,exp4.png,0,4,reversed,correct,0.8903774638818615,1,valid_win,680.32788909995,74,,,,,,,,,,,,,,,,sub_268,2023-06-14_12h35.59.910,Reversal,2022.1.1,59.96415343535271,4,
16,exp1.png,exp2.png,,,,,,,,,,,,,,,,,,2,0,2,0,0,16,16,16,,,,,,,,,False,56,117,False,exp1.png,exp2.png,trial_right_image,-1,exp2.png,4,exp2.png,exp1.png,1,1,non-reversed,correct,0.14352730161617155,0,invalid_lose,685.7940984000452,74,,,,,,,,,,,,,,,,sub_268,2023-06-14_12h35.59.910,Reversal,2022.1.1,59.96415343535271,4,
17,exp3.png,exp4.png,,,,,,,,,,,,,,,,,,2,0,2,0,0,17,17,17,,,,,,,,,False,57,118,False,exp3.png,exp4.png,trial_left_image,1,exp3.png,4,exp3.png,exp4.png,0,4,reversed,correct,0.4246148168269379,1,valid_win,690.4100851999829,75,,,,,,,,,,,,,,,,sub_268,2023-06-14_12h35.59.910,Reversal,2022.1.1,59.96415343535271,4,
18,exp1.png,exp2.png,,,,,,,,,,,,,,,,,,2,0,2,0,0,18,18,18,,,,,,,,,False,58,119,False,exp1.png,exp2.png,trial_right_image,-1,exp2.png,4,exp2.png,exp1.png,1,1,non-reversed,correct,0.7407374017629965,1,valid_win,694.8426278999541,76,,,,,,,,,,,,,,,,sub_268,2023-06-14_12h35.59.910,Reversal,2022.1.1,59.96415343535271,4,
19,exp3.png,exp4.png,,,,,,,,,,,,,,,,,,2,0,2,0,0,19,19,19,,,,,,,,,False,59,120,True,exp4.png,exp3.png,trial_right_image,-1,exp3.png,4,exp3.png,exp4.png,0,4,reversed,correct,0.8668018678060893,1,valid_win,699.2767002000473,77,,,,,,,,,,,,,,,,sub_268,2023-06-14_12h35.59.910,Reversal,2022.1.1,59.96415343535271,4,
20,exp1.png,exp2.png,,,,,,,,,,,,,,,,,,2,0,2,0,0,20,20,20,,,,,,,,,True,,,,,,,,,,,,,,,,,,,,,,,,,,,,,,,,,,,,sub_268,2023-06-14_12h35.59.910,Reversal,2022.1.1,59.96415343535271,4,
,,,exp1.png,,,,,,,,,,,,,,,,,2,0,2,0,,,,,0,0,0,0,0,0,0,0,,,,,,,,,,,,,,,,,,,,,,94.0,94.0,7.3392298999242485,"[(94.0, 7.3392298999242485)]",842.1548968999414,None,,,,,,,,,,sub_268,2023-06-14_12h35.59.910,Reversal,2022.1.1,59.96415343535271,4,
,,,exp2.png,,,,,,,,,,,,,,,,,2,0,2,0,,,,,0,0,0,0,0,1,1,1,,,,,,,,,,,,,,,,,,,,,,,89.0,4.023173599969596,"[(89.0, 4.023173599969596)]",853.3494349999819,None,89.0,,,,,,,,,sub_268,2023-06-14_12h35.59.910,Reversal,2022.1.1,59.96415343535271,4,
,,,exp3.png,,,,,,,,,,,,,,,,,2,0,2,0,,,,,0,0,0,0,0,2,2,2,,,,,,,,,,,,,,,,,,,,,,,50.0,None,[],858.0036674999865,None,,,,,,,,,,sub_268,2023-06-14_12h35.59.910,Reversal,2022.1.1,59.96415343535271,4,
,,,exp4.png,,,,,,,,,,,,,,,,,2,0,2,0,,,,,0,0,0,0,0,3,3,3,,,,,,,,,,,,,,,,,,,,,,,89.0,4.48337549995631,"[(59.0, 3.3679113999241963), (89.0, 4.48337549995631)]",858.4845024000388,None,,,89.0,,,,,,,sub_268,2023-06-14_12h35.59.910,Reversal,2022.1.1,59.96415343535271,4,
,,,,,,,,,,,,,,,,,,,,,,,,,,,,,,,,,,,,,,,,,,,,,,,,,,,,,,,,77,,,,,,,,,,,88,48,40,334.001402300084,0,,,,,,,
