trial_index,trial_image1_file,trial_image2_file,image_file,learning_outer_loop.thisRepN,learning_outer_loop.thisTrialN,learning_outer_loop.thisN,learning_outer_loop.thisIndex,learning_inner_loop.thisRepN,learning_inner_loop.thisTrialN,learning_inner_loop.thisN,learning_inner_loop.thisIndex,learning_estimation_outer_loop.thisRepN,learning_estimation_outer_loop.thisTrialN,learning_estimation_outer_loop.thisN,learning_estimation_outer_loop.thisIndex,learning_estimation_inner_loop.thisRepN,learning_estimation_inner_loop.thisTrialN,learning_estimation_inner_loop.thisN,learning_estimation_inner_loop.thisIndex,reversal_outer_loop.thisRepN,reversal_outer_loop.thisTrialN,reversal_outer_loop.thisN,reversal_outer_loop.thisIndex,reversal_inner_loop.thisRepN,reversal_inner_loop.thisTrialN,reversal_inner_loop.thisN,reversal_inner_loop.thisIndex,reversal_estimation_outer_loop.thisRepN,reversal_estimation_outer_loop.thisTrialN,reversal_estimation_outer_loop.thisN,reversal_estimation_outer_loop.thisIndex,reversal_estimation_inner_loop.thisRepN,reversal_estimation_inner_loop.thisTrialN,reversal_estimation_inner_loop.thisN,reversal_estimation_inner_loop.thisIndex,skipped,total_trial_counter,trial_num,left_right_flip,left_image_file,right_image_file,clicked_stimulus_side,side,clicked_stimulus,version,high_prob_image_file,low_prob_image_file,choice_a,choice_b,pair_type,correct,trial_feedback_random,reward,trial_type,overall_time_after_trial,score,estimation_exp1.png,estimation_rating.response,estimation_rating.rt,estimation_rating.history,estimation_rating.started,estimation_rating.stopped,estimation_exp2.png,estimation_exp3.png,estimation_exp4.png,total_learning_time,total_correct,learning_correct,reversal_correct,total_reversal_time,extra_block,end_experiment.keys,end_experiment.rt,participant,date,expName,psychopyVersion,frameRate,ver,
0,exp1.png,exp2.png,,0,0,0,0,0,0,0,0,,,,,,,,,,,,,,,,,,,,,,,,,False,0,1,True,exp2.png,exp1.png,trial_left_image,1,exp2.png,2,exp1.png,exp2.png,0,2,non-reversed,incorrect,0.1329062534128188,1,invalid_win,7.3503035000003365,1,,,,,,,,,,,,,,,,,,sub_042,2022-08-11_17h54.07.709,Reversal,2022.1.2,59.92940316326554,2,
1,exp3.png,exp4.png,,0,0,0,0,0,1,1,1,,,,,,,,,,,,,,,,,,,,,,,,,False,1,2,True,exp4.png,exp3.png,trial_left_image,1,exp4.png,2,exp3.png,exp4.png,0,4,reversed,incorrect,0.2199191926756311,1,invalid_win,19.0164992,2,,,,,,,,,,,,,,,,,,sub_042,2022-08-11_17h54.07.709,Reversal,2022.1.2,59.92940316326554,2,
2,exp1.png,exp2.png,,0,0,0,0,0,2,2,2,,,,,,,,,,,,,,,,,,,,,,,,,False,2,3,True,exp2.png,exp1.png,trial_left_image,1,exp2.png,2,exp1.png,exp2.png,0,2,non-reversed,incorrect,0.1346891890161782,1,invalid_win,41.198926899999606,3,,,,,,,,,,,,,,,,,,sub_042,2022-08-11_17h54.07.709,Reversal,2022.1.2,59.92940316326554,2,
3,exp3.png,exp4.png,,0,0,0,0,0,3,3,3,,,,,,,,,,,,,,,,,,,,,,,,,False,3,4,True,exp4.png,exp3.png,trial_left_image,1,exp4.png,2,exp3.png,exp4.png,0,4,reversed,incorrect,0.14037638405939445,1,invalid_win,47.36632379999992,4,,,,,,,,,,,,,,,,,,sub_042,2022-08-11_17h54.07.709,Reversal,2022.1.2,59.92940316326554,2,
4,exp1.png,exp2.png,,0,0,0,0,0,4,4,4,,,,,,,,,,,,,,,,,,,,,,,,,False,4,5,False,exp1.png,exp2.png,trial_left_image,1,exp1.png,2,exp1.png,exp2.png,1,1,non-reversed,correct,0.19191995311570753,0,invalid_lose,58.566068500000256,4,,,,,,,,,,,,,,,,,,sub_042,2022-08-11_17h54.07.709,Reversal,2022.1.2,59.92940316326554,2,
5,exp3.png,exp4.png,,0,0,0,0,0,5,5,5,,,,,,,,,,,,,,,,,,,,,,,,,False,5,6,True,exp4.png,exp3.png,trial_left_image,1,exp4.png,2,exp3.png,exp4.png,0,4,reversed,incorrect,0.5352569201167565,0,valid_lose,64.5326453000007,4,,,,,,,,,,,,,,,,,,sub_042,2022-08-11_17h54.07.709,Reversal,2022.1.2,59.92940316326554,2,
6,exp1.png,exp2.png,,0,0,0,0,0,6,6,6,,,,,,,,,,,,,,,,,,,,,,,,,False,6,7,False,exp1.png,exp2.png,trial_right_image,-1,exp2.png,2,exp1.png,exp2.png,0,2,non-reversed,incorrect,0.5234445515084765,0,valid_lose,72.38264040000013,4,,,,,,,,,,,,,,,,,,sub_042,2022-08-11_17h54.07.709,Reversal,2022.1.2,59.92940316326554,2,
7,exp3.png,exp4.png,,0,0,0,0,0,7,7,7,,,,,,,,,,,,,,,,,,,,,,,,,False,7,8,True,exp4.png,exp3.png,trial_left_image,1,exp4.png,2,exp3.png,exp4.png,0,4,reversed,incorrect,0.4970209564820327,0,valid_lose,77.46558880000066,4,,,,,,,,,,,,,,,,,,sub_042,2022-08-11_17h54.07.709,Reversal,2022.1.2,59.92940316326554,2,
8,exp1.png,exp2.png,,0,0,0,0,0,8,8,8,,,,,,,,,,,,,,,,,,,,,,,,,False,8,9,False,exp1.png,exp2.png,trial_right_image,-1,exp2.png,2,exp1.png,exp2.png,0,2,non-reversed,incorrect,0.4059984032351093,0,valid_lose,88.29870869999922,4,,,,,,,,,,,,,,,,,,sub_042,2022-08-11_17h54.07.709,Reversal,2022.1.2,59.92940316326554,2,
9,exp3.png,exp4.png,,0,0,0,0,0,9,9,9,,,,,,,,,,,,,,,,,,,,,,,,,False,9,10,True,exp4.png,exp3.png,trial_left_image,1,exp4.png,2,exp3.png,exp4.png,0,4,reversed,incorrect,0.8673487091648663,0,valid_lose,93.2150014000008,4,,,,,,,,,,,,,,,,,,sub_042,2022-08-11_17h54.07.709,Reversal,2022.1.2,59.92940316326554,2,
10,exp1.png,exp2.png,,0,0,0,0,0,10,10,10,,,,,,,,,,,,,,,,,,,,,,,,,False,10,11,True,exp2.png,exp1.png,trial_right_image,-1,exp1.png,2,exp1.png,exp2.png,1,1,non-reversed,correct,0.12968625825342273,0,invalid_lose,98.78192740000031,4,,,,,,,,,,,,,,,,,,sub_042,2022-08-11_17h54.07.709,Reversal,2022.1.2,59.92940316326554,2,
11,exp3.png,exp4.png,,0,0,0,0,0,11,11,11,,,,,,,,,,,,,,,,,,,,,,,,,False,11,12,False,exp3.png,exp4.png,trial_right_image,-1,exp4.png,2,exp3.png,exp4.png,0,4,reversed,incorrect,0.08962742664033374,1,invalid_win,104.8817826000004,5,,,,,,,,,,,,,,,,,,sub_042,2022-08-11_17h54.07.709,Reversal,2022.1.2,59.92940316326554,2,
12,exp1.png,exp2.png,,0,0,0,0,0,12,12,12,,,,,,,,,,,,,,,,,,,,,,,,,False,12,13,False,exp1.png,exp2.png,trial_right_image,-1,exp2.png,2,exp1.png,exp2.png,0,2,non-reversed,incorrect,0.5522327389530661,0,valid_lose,111.34845210000003,5,,,,,,,,,,,,,,,,,,sub_042,2022-08-11_17h54.07.709,Reversal,2022.1.2,59.92940316326554,2,
13,exp3.png,exp4.png,,0,0,0,0,0,13,13,13,,,,,,,,,,,,,,,,,,,,,,,,,False,13,14,False,exp3.png,exp4.png,trial_right_image,-1,exp4.png,2,exp3.png,exp4.png,0,4,reversed,incorrect,0.8164517496162379,0,valid_lose,116.43166809999911,5,,,,,,,,,,,,,,,,,,sub_042,2022-08-11_17h54.07.709,Reversal,2022.1.2,59.92940316326554,2,
14,exp1.png,exp2.png,,0,0,0,0,0,14,14,14,,,,,,,,,,,,,,,,,,,,,,,,,False,14,15,False,exp1.png,exp2.png,trial_left_image,1,exp1.png,2,exp1.png,exp2.png,1,1,non-reversed,correct,0.217035668800728,0,invalid_lose,122.28142430000025,5,,,,,,,,,,,,,,,,,,sub_042,2022-08-11_17h54.07.709,Reversal,2022.1.2,59.92940316326554,2,
15,exp3.png,exp4.png,,0,0,0,0,0,15,15,15,,,,,,,,,,,,,,,,,,,,,,,,,False,15,16,False,exp3.png,exp4.png,trial_right_image,-1,exp4.png,2,exp3.png,exp4.png,0,4,reversed,incorrect,0.8953017050745132,0,valid_lose,127.49800219999906,5,,,,,,,,,,,,,,,,,,sub_042,2022-08-11_17h54.07.709,Reversal,2022.1.2,59.92940316326554,2,
16,exp1.png,exp2.png,,0,0,0,0,0,16,16,16,,,,,,,,,,,,,,,,,,,,,,,,,False,16,17,False,exp1.png,exp2.png,trial_right_image,-1,exp2.png,2,exp1.png,exp2.png,0,2,non-reversed,incorrect,0.01301966007621802,1,invalid_win,138.91380329999902,6,,,,,,,,,,,,,,,,,,sub_042,2022-08-11_17h54.07.709,Reversal,2022.1.2,59.92940316326554,2,
17,exp3.png,exp4.png,,0,0,0,0,0,17,17,17,,,,,,,,,,,,,,,,,,,,,,,,,False,17,18,True,exp4.png,exp3.png,trial_left_image,1,exp4.png,2,exp3.png,exp4.png,0,4,reversed,incorrect,0.11173753102850659,1,invalid_win,143.5978767000006,7,,,,,,,,,,,,,,,,,,sub_042,2022-08-11_17h54.07.709,Reversal,2022.1.2,59.92940316326554,2,
18,exp1.png,exp2.png,,0,0,0,0,0,18,18,18,,,,,,,,,,,,,,,,,,,,,,,,,False,18,19,False,exp1.png,exp2.png,trial_right_image,-1,exp2.png,2,exp1.png,exp2.png,0,2,non-reversed,incorrect,0.8106826683463743,0,valid_lose,148.2979375999994,7,,,,,,,,,,,,,,,,,,sub_042,2022-08-11_17h54.07.709,Reversal,2022.1.2,59.92940316326554,2,
19,exp3.png,exp4.png,,0,0,0,0,0,19,19,19,,,,,,,,,,,,,,,,,,,,,,,,,False,19,20,True,exp4.png,exp3.png,trial_left_image,1,exp4.png,2,exp3.png,exp4.png,0,4,reversed,incorrect,0.001978360469902851,1,invalid_win,152.79730520000066,8,,,,,,,,,,,,,,,,,,sub_042,2022-08-11_17h54.07.709,Reversal,2022.1.2,59.92940316326554,2,
20,exp1.png,exp2.png,,0,0,0,0,0,20,20,20,,,,,,,,,,,,,,,,,,,,,,,,,True,,,,,,,,,,,,,,,,,,,,,,,,,,,,,,,,,,,,,,sub_042,2022-08-11_17h54.07.709,Reversal,2022.1.2,59.92940316326554,2,
,,,exp1.png,0,0,0,0,,,,,0,0,0,0,0,0,0,0,,,,,,,,,,,,,,,,,,,,,,,,,,,,,,,,,,,,,,99.0,99.0,22.8242209,"[(57.0, 20.57528420000017), (99.0, 22.8242209)]",233.04556349999984,None,,,,,,,,,,,,sub_042,2022-08-11_17h54.07.709,Reversal,2022.1.2,59.92940316326554,2,
,,,exp2.png,0,0,0,0,,,,,0,0,0,0,0,1,1,1,,,,,,,,,,,,,,,,,,,,,,,,,,,,,,,,,,,,,,,98.0,7.584400699999605,"[(98.0, 7.584400699999605)]",257.1440781000001,None,98.0,,,,,,,,,,,sub_042,2022-08-11_17h54.07.709,Reversal,2022.1.2,59.92940316326554,2,
,,,exp3.png,0,0,0,0,,,,,0,0,0,0,0,2,2,2,,,,,,,,,,,,,,,,,,,,,,,,,,,,,,,,,,,,,,,1.0,1.7184410999998363,"[(1.0, 1.7184410999998363)]",266.45865609999964,None,,1.0,,,,,,,,,,sub_042,2022-08-11_17h54.07.709,Reversal,2022.1.2,59.92940316326554,2,
,,,exp4.png,0,0,0,0,,,,,0,0,0,0,0,3,3,3,,,,,,,,,,,,,,,,,,,,,,,,,,,,,,,,,,,,,,,100.0,2.7509098000009544,"[(100.0, 2.7509098000009544)]",270.15534750000006,None,,,100.0,,,,,,,,,sub_042,2022-08-11_17h54.07.709,Reversal,2022.1.2,59.92940316326554,2,
0,exp1.png,exp2.png,,1,0,1,0,0,0,0,0,,,,,,,,,,,,,,,,,,,,,,,,,False,20,21,True,exp2.png,exp1.png,trial_left_image,1,exp2.png,2,exp1.png,exp2.png,0,2,non-reversed,incorrect,0.3033233894416091,0,valid_lose,199.87964009999905,8,,,,,,,,,,,,,,,,,,sub_042,2022-08-11_17h54.07.709,Reversal,2022.1.2,59.92940316326554,2,
1,exp3.png,exp4.png,,1,0,1,0,0,1,1,1,,,,,,,,,,,,,,,,,,,,,,,,,False,21,22,False,exp3.png,exp4.png,trial_right_image,-1,exp4.png,2,exp3.png,exp4.png,0,4,reversed,incorrect,0.43502931873746,0,valid_lose,205.91305340000054,8,,,,,,,,,,,,,,,,,,sub_042,2022-08-11_17h54.07.709,Reversal,2022.1.2,59.92940316326554,2,
2,exp1.png,exp2.png,,1,0,1,0,0,2,2,2,,,,,,,,,,,,,,,,,,,,,,,,,False,22,23,False,exp1.png,exp2.png,trial_right_image,-1,exp2.png,2,exp1.png,exp2.png,0,2,non-reversed,incorrect,0.059174055288868876,1,invalid_win,210.4464096999991,9,,,,,,,,,,,,,,,,,,sub_042,2022-08-11_17h54.07.709,Reversal,2022.1.2,59.92940316326554,2,
3,exp3.png,exp4.png,,1,0,1,0,0,3,3,3,,,,,,,,,,,,,,,,,,,,,,,,,False,23,24,False,exp3.png,exp4.png,trial_right_image,-1,exp4.png,2,exp3.png,exp4.png,0,4,reversed,incorrect,0.1545165185310411,1,invalid_win,215.9629214000006,10,,,,,,,,,,,,,,,,,,sub_042,2022-08-11_17h54.07.709,Reversal,2022.1.2,59.92940316326554,2,
4,exp1.png,exp2.png,,1,0,1,0,0,4,4,4,,,,,,,,,,,,,,,,,,,,,,,,,False,24,25,False,exp1.png,exp2.png,trial_left_image,1,exp1.png,2,exp1.png,exp2.png,1,1,non-reversed,correct,0.5801300846846928,1,valid_win,222.79639159999988,11,,,,,,,,,,,,,,,,,,sub_042,2022-08-11_17h54.07.709,Reversal,2022.1.2,59.92940316326554,2,
5,exp3.png,exp4.png,,1,0,1,0,0,5,5,5,,,,,,,,,,,,,,,,,,,,,,,,,False,25,26,True,exp4.png,exp3.png,trial_left_image,1,exp4.png,2,exp3.png,exp4.png,0,4,reversed,incorrect,0.166715052016553,1,invalid_win,228.1128061999998,12,,,,,,,,,,,,,,,,,,sub_042,2022-08-11_17h54.07.709,Reversal,2022.1.2,59.92940316326554,2,
6,exp1.png,exp2.png,,1,0,1,0,0,6,6,6,,,,,,,,,,,,,,,,,,,,,,,,,False,26,27,True,exp2.png,exp1.png,trial_left_image,1,exp2.png,2,exp1.png,exp2.png,0,2,non-reversed,incorrect,0.4155707655493599,0,valid_lose,236.02923900000042,12,,,,,,,,,,,,,,,,,,sub_042,2022-08-11_17h54.07.709,Reversal,2022.1.2,59.92940316326554,2,
7,exp3.png,exp4.png,,1,0,1,0,0,7,7,7,,,,,,,,,,,,,,,,,,,,,,,,,False,27,28,False,exp3.png,exp4.png,trial_right_image,-1,exp4.png,2,exp3.png,exp4.png,0,4,reversed,incorrect,0.18854259423084874,1,invalid_win,240.82943199999954,13,,,,,,,,,,,,,,,,,,sub_042,2022-08-11_17h54.07.709,Reversal,2022.1.2,59.92940316326554,2,
8,exp1.png,exp2.png,,1,0,1,0,0,8,8,8,,,,,,,,,,,,,,,,,,,,,,,,,False,28,29,True,exp2.png,exp1.png,trial_right_image,-1,exp1.png,2,exp1.png,exp2.png,1,1,non-reversed,correct,0.26555895511756056,1,valid_win,248.4291402000008,14,,,,,,,,,,,,,,,,,,sub_042,2022-08-11_17h54.07.709,Reversal,2022.1.2,59.92940316326554,2,
9,exp3.png,exp4.png,,1,0,1,0,0,9,9,9,,,,,,,,,,,,,,,,,,,,,,,,,False,29,30,False,exp3.png,exp4.png,trial_right_image,-1,exp4.png,2,exp3.png,exp4.png,0,4,reversed,incorrect,0.18026797265059213,1,invalid_win,253.22922720000042,15,,,,,,,,,,,,,,,,,,sub_042,2022-08-11_17h54.07.709,Reversal,2022.1.2,59.92940316326554,2,
10,exp1.png,exp2.png,,1,0,1,0,0,10,10,10,,,,,,,,,,,,,,,,,,,,,,,,,False,30,31,True,exp2.png,exp1.png,trial_right_image,-1,exp1.png,2,exp1.png,exp2.png,1,1,non-reversed,correct,0.5128832456075599,1,valid_win,259.77870150000035,16,,,,,,,,,,,,,,,,,,sub_042,2022-08-11_17h54.07.709,Reversal,2022.1.2,59.92940316326554,2,
11,exp3.png,exp4.png,,1,0,1,0,0,11,11,11,,,,,,,,,,,,,,,,,,,,,,,,,False,31,32,True,exp4.png,exp3.png,trial_left_image,1,exp4.png,2,exp3.png,exp4.png,0,4,reversed,incorrect,0.8434382109405482,0,valid_lose,264.5952748999998,16,,,,,,,,,,,,,,,,,,sub_042,2022-08-11_17h54.07.709,Reversal,2022.1.2,59.92940316326554,2,
12,exp1.png,exp2.png,,1,0,1,0,0,12,12,12,,,,,,,,,,,,,,,,,,,,,,,,,False,32,33,True,exp2.png,exp1.png,trial_left_image,1,exp2.png,2,exp1.png,exp2.png,0,2,non-reversed,incorrect,0.8220310340199224,0,valid_lose,272.91209980000076,16,,,,,,,,,,,,,,,,,,sub_042,2022-08-11_17h54.07.709,Reversal,2022.1.2,59.92940316326554,2,
13,exp3.png,exp4.png,,1,0,1,0,0,13,13,13,,,,,,,,,,,,,,,,,,,,,,,,,False,33,34,True,exp4.png,exp3.png,trial_left_image,1,exp4.png,2,exp3.png,exp4.png,0,4,reversed,incorrect,0.4310312629647096,0,valid_lose,277.2285803999994,16,,,,,,,,,,,,,,,,,,sub_042,2022-08-11_17h54.07.709,Reversal,2022.1.2,59.92940316326554,2,
14,exp1.png,exp2.png,,1,0,1,0,0,14,14,14,,,,,,,,,,,,,,,,,,,,,,,,,False,34,35,True,exp2.png,exp1.png,trial_right_image,-1,exp1.png,2,exp1.png,exp2.png,1,1,non-reversed,correct,0.051009562035439715,0,invalid_lose,283.61167529999966,16,,,,,,,,,,,,,,,,,,sub_042,2022-08-11_17h54.07.709,Reversal,2022.1.2,59.92940316326554,2,
15,exp3.png,exp4.png,,1,0,1,0,0,15,15,15,,,,,,,,,,,,,,,,,,,,,,,,,False,35,36,False,exp3.png,exp4.png,trial_right_image,-1,exp4.png,2,exp3.png,exp4.png,0,4,reversed,incorrect,0.3435355726958087,0,valid_lose,288.2620127,16,,,,,,,,,,,,,,,,,,sub_042,2022-08-11_17h54.07.709,Reversal,2022.1.2,59.92940316326554,2,
16,exp1.png,exp2.png,,1,0,1,0,0,16,16,16,,,,,,,,,,,,,,,,,,,,,,,,,False,36,37,False,exp1.png,exp2.png,trial_right_image,-1,exp2.png,2,exp1.png,exp2.png,0,2,non-reversed,incorrect,0.743552777382943,0,valid_lose,293.79489080000076,16,,,,,,,,,,,,,,,,,,sub_042,2022-08-11_17h54.07.709,Reversal,2022.1.2,59.92940316326554,2,
17,exp3.png,exp4.png,,1,0,1,0,0,17,17,17,,,,,,,,,,,,,,,,,,,,,,,,,False,37,38,False,exp3.png,exp4.png,trial_right_image,-1,exp4.png,2,exp3.png,exp4.png,0,4,reversed,incorrect,0.18894936650877459,1,invalid_win,298.49457600000005,17,,,,,,,,,,,,,,,,,,sub_042,2022-08-11_17h54.07.709,Reversal,2022.1.2,59.92940316326554,2,
18,exp1.png,exp2.png,,1,0,1,0,0,18,18,18,,,,,,,,,,,,,,,,,,,,,,,,,False,38,39,False,exp1.png,exp2.png,trial_left_image,1,exp1.png,2,exp1.png,exp2.png,1,1,non-reversed,correct,0.5206493618480119,1,valid_win,303.5616522999999,18,,,,,,,,,,,,,,,,,,sub_042,2022-08-11_17h54.07.709,Reversal,2022.1.2,59.92940316326554,2,
19,exp3.png,exp4.png,,1,0,1,0,0,19,19,19,,,,,,,,,,,,,,,,,,,,,,,,,False,39,40,True,exp4.png,exp3.png,trial_left_image,1,exp4.png,2,exp3.png,exp4.png,0,4,reversed,incorrect,0.23003288503884511,1,invalid_win,308.5445451000005,19,,,,,,,,,,,,,,,,,,sub_042,2022-08-11_17h54.07.709,Reversal,2022.1.2,59.92940316326554,2,
20,exp1.png,exp2.png,,1,0,1,0,0,20,20,20,,,,,,,,,,,,,,,,,,,,,,,,,True,,,,,,,,,,,,,,,,,,,,,,,,,,,,,,,,,,,,,,sub_042,2022-08-11_17h54.07.709,Reversal,2022.1.2,59.92940316326554,2,
,,,exp1.png,1,0,1,0,,,,,0,0,0,0,0,0,0,0,,,,,,,,,,,,,,,,,,,,,,,,,,,,,,,,,,,,,,1.0,1.0,6.53348570000162,"[(1.0, 6.53348570000162)]",388.7900546000001,None,,,,,,,,,,,,sub_042,2022-08-11_17h54.07.709,Reversal,2022.1.2,59.92940316326554,2,
,,,exp2.png,1,0,1,0,,,,,0,0,0,0,0,1,1,1,,,,,,,,,,,,,,,,,,,,,,,,,,,,,,,,,,,,,,,100.0,2.916082499999902,"[(100.0, 2.916082499999902)]",396.5216653000007,None,100.0,,,,,,,,,,,sub_042,2022-08-11_17h54.07.709,Reversal,2022.1.2,59.92940316326554,2,
,,,exp3.png,1,0,1,0,,,,,0,0,0,0,0,2,2,2,,,,,,,,,,,,,,,,,,,,,,,,,,,,,,,,,,,,,,,1.0,1.728297299998303,"[(1.0, 1.728297299998303)]",400.776713700001,None,,1.0,,,,,,,,,,sub_042,2022-08-11_17h54.07.709,Reversal,2022.1.2,59.92940316326554,2,
,,,exp4.png,1,0,1,0,,,,,0,0,0,0,0,3,3,3,,,,,,,,,,,,,,,,,,,,,,,,,,,,,,,,,,,,,,,97.0,1.9994495999999344,"[(97.0, 1.9994495999999344)]",403.7392543999995,None,,,97.0,,,,,,,,,sub_042,2022-08-11_17h54.07.709,Reversal,2022.1.2,59.92940316326554,2,
0,exp1.png,exp2.png,,2,0,2,0,0,0,0,0,,,,,,,,,,,,,,,,,,,,,,,,,False,40,41,False,exp1.png,exp2.png,trial_left_image,1,exp1.png,2,exp1.png,exp2.png,1,1,non-reversed,correct,0.520995415693451,1,valid_win,332.4774363000006,20,,,,,,,,,,,,,,,,,,sub_042,2022-08-11_17h54.07.709,Reversal,2022.1.2,59.92940316326554,2,
1,exp3.png,exp4.png,,2,0,2,0,0,1,1,1,,,,,,,,,,,,,,,,,,,,,,,,,False,41,42,True,exp4.png,exp3.png,trial_left_image,1,exp4.png,2,exp3.png,exp4.png,0,4,reversed,incorrect,0.26780628946104434,0,valid_lose,338.77795050000077,20,,,,,,,,,,,,,,,,,,sub_042,2022-08-11_17h54.07.709,Reversal,2022.1.2,59.92940316326554,2,
2,exp1.png,exp2.png,,2,0,2,0,0,2,2,2,,,,,,,,,,,,,,,,,,,,,,,,,False,42,43,False,exp1.png,exp2.png,trial_left_image,1,exp1.png,2,exp1.png,exp2.png,1,1,non-reversed,correct,0.15409874546232438,0,invalid_lose,345.79434889999993,20,,,,,,,,,,,,,,,,,,sub_042,2022-08-11_17h54.07.709,Reversal,2022.1.2,59.92940316326554,2,
3,exp3.png,exp4.png,,2,0,2,0,0,3,3,3,,,,,,,,,,,,,,,,,,,,,,,,,False,43,44,True,exp4.png,exp3.png,trial_left_image,1,exp4.png,2,exp3.png,exp4.png,0,4,reversed,incorrect,0.7265928283940534,0,valid_lose,350.94363350000003,20,,,,,,,,,,,,,,,,,,sub_042,2022-08-11_17h54.07.709,Reversal,2022.1.2,59.92940316326554,2,
4,exp1.png,exp2.png,,2,0,2,0,0,4,4,4,,,,,,,,,,,,,,,,,,,,,,,,,False,44,45,False,exp1.png,exp2.png,trial_left_image,1,exp1.png,2,exp1.png,exp2.png,1,1,non-reversed,correct,0.7187174787124527,1,valid_win,357.6772377999996,21,,,,,,,,,,,,,,,,,,sub_042,2022-08-11_17h54.07.709,Reversal,2022.1.2,59.92940316326554,2,
5,exp3.png,exp4.png,,2,0,2,0,0,5,5,5,,,,,,,,,,,,,,,,,,,,,,,,,False,45,46,True,exp4.png,exp3.png,trial_left_image,1,exp4.png,2,exp3.png,exp4.png,0,4,reversed,incorrect,0.7066496433888669,0,valid_lose,363.42730519999986,21,,,,,,,,,,,,,,,,,,sub_042,2022-08-11_17h54.07.709,Reversal,2022.1.2,59.92940316326554,2,
6,exp1.png,exp2.png,,2,0,2,0,0,6,6,6,,,,,,,,,,,,,,,,,,,,,,,,,False,46,47,False,exp1.png,exp2.png,trial_right_image,-1,exp2.png,2,exp1.png,exp2.png,0,2,non-reversed,incorrect,0.7805464575518326,0,valid_lose,372.64357629999995,21,,,,,,,,,,,,,,,,,,sub_042,2022-08-11_17h54.07.709,Reversal,2022.1.2,59.92940316326554,2,
7,exp3.png,exp4.png,,2,0,2,0,0,7,7,7,,,,,,,,,,,,,,,,,,,,,,,,,False,47,48,True,exp4.png,exp3.png,trial_left_image,1,exp4.png,2,exp3.png,exp4.png,0,4,reversed,incorrect,0.9830479902963416,0,valid_lose,377.22717029999967,21,,,,,,,,,,,,,,,,,,sub_042,2022-08-11_17h54.07.709,Reversal,2022.1.2,59.92940316326554,2,
8,exp1.png,exp2.png,,2,0,2,0,0,8,8,8,,,,,,,,,,,,,,,,,,,,,,,,,False,48,49,True,exp2.png,exp1.png,trial_right_image,-1,exp1.png,2,exp1.png,exp2.png,1,1,non-reversed,correct,0.9563743932101434,1,valid_win,382.15999379999903,22,,,,,,,,,,,,,,,,,,sub_042,2022-08-11_17h54.07.709,Reversal,2022.1.2,59.92940316326554,2,
9,exp3.png,exp4.png,,2,0,2,0,0,9,9,9,,,,,,,,,,,,,,,,,,,,,,,,,False,49,50,False,exp3.png,exp4.png,trial_right_image,-1,exp4.png,2,exp3.png,exp4.png,0,4,reversed,incorrect,0.9419860246675544,0,valid_lose,387.8267382999993,22,,,,,,,,,,,,,,,,,,sub_042,2022-08-11_17h54.07.709,Reversal,2022.1.2,59.92940316326554,2,
10,exp1.png,exp2.png,,2,0,2,0,0,10,10,10,,,,,,,,,,,,,,,,,,,,,,,,,False,50,51,True,exp2.png,exp1.png,trial_left_image,1,exp2.png,2,exp1.png,exp2.png,0,2,non-reversed,incorrect,0.8618124531773849,0,valid_lose,392.0933023000007,22,,,,,,,,,,,,,,,,,,sub_042,2022-08-11_17h54.07.709,Reversal,2022.1.2,59.92940316326554,2,
11,exp3.png,exp4.png,,2,0,2,0,0,11,11,11,,,,,,,,,,,,,,,,,,,,,,,,,False,51,52,False,exp3.png,exp4.png,trial_right_image,-1,exp4.png,2,exp3.png,exp4.png,0,4,reversed,incorrect,0.5321858842799633,0,valid_lose,396.6765714999992,22,,,,,,,,,,,,,,,,,,sub_042,2022-08-11_17h54.07.709,Reversal,2022.1.2,59.92940316326554,2,
12,exp1.png,exp2.png,,2,0,2,0,0,12,12,12,,,,,,,,,,,,,,,,,,,,,,,,,False,52,53,True,exp2.png,exp1.png,trial_right_image,-1,exp1.png,2,exp1.png,exp2.png,1,1,non-reversed,correct,0.10611877860053087,0,invalid_lose,401.7259268000007,22,,,,,,,,,,,,,,,,,,sub_042,2022-08-11_17h54.07.709,Reversal,2022.1.2,59.92940316326554,2,
13,exp3.png,exp4.png,,2,0,2,0,0,13,13,13,,,,,,,,,,,,,,,,,,,,,,,,,False,53,54,False,exp3.png,exp4.png,trial_right_image,-1,exp4.png,2,exp3.png,exp4.png,0,4,reversed,incorrect,0.24964885241130186,1,invalid_win,406.3093001999996,23,,,,,,,,,,,,,,,,,,sub_042,2022-08-11_17h54.07.709,Reversal,2022.1.2,59.92940316326554,2,
14,exp1.png,exp2.png,,2,0,2,0,0,14,14,14,,,,,,,,,,,,,,,,,,,,,,,,,False,54,55,True,exp2.png,exp1.png,trial_left_image,1,exp2.png,2,exp1.png,exp2.png,0,2,non-reversed,incorrect,0.15013778990343074,1,invalid_win,412.4095127999999,24,,,,,,,,,,,,,,,,,,sub_042,2022-08-11_17h54.07.709,Reversal,2022.1.2,59.92940316326554,2,
15,exp3.png,exp4.png,,2,0,2,0,0,15,15,15,,,,,,,,,,,,,,,,,,,,,,,,,False,55,56,False,exp3.png,exp4.png,trial_right_image,-1,exp4.png,2,exp3.png,exp4.png,0,4,reversed,incorrect,0.4827814833819293,0,valid_lose,417.30957220000073,24,,,,,,,,,,,,,,,,,,sub_042,2022-08-11_17h54.07.709,Reversal,2022.1.2,59.92940316326554,2,
16,exp1.png,exp2.png,,2,0,2,0,0,16,16,16,,,,,,,,,,,,,,,,,,,,,,,,,False,56,57,False,exp1.png,exp2.png,trial_right_image,-1,exp2.png,2,exp1.png,exp2.png,0,2,non-reversed,incorrect,0.4040993173889178,0,valid_lose,426.77628859999913,24,,,,,,,,,,,,,,,,,,sub_042,2022-08-11_17h54.07.709,Reversal,2022.1.2,59.92940316326554,2,
17,exp3.png,exp4.png,,2,0,2,0,0,17,17,17,,,,,,,,,,,,,,,,,,,,,,,,,False,57,58,False,exp3.png,exp4.png,trial_right_image,-1,exp4.png,2,exp3.png,exp4.png,0,4,reversed,incorrect,0.24963480710160013,1,invalid_win,431.3260290999997,25,,,,,,,,,,,,,,,,,,sub_042,2022-08-11_17h54.07.709,Reversal,2022.1.2,59.92940316326554,2,
18,exp1.png,exp2.png,,2,0,2,0,0,18,18,18,,,,,,,,,,,,,,,,,,,,,,,,,False,58,59,True,exp2.png,exp1.png,trial_left_image,1,exp2.png,2,exp1.png,exp2.png,0,2,non-reversed,incorrect,0.9161031088155275,0,valid_lose,436.7924013999991,25,,,,,,,,,,,,,,,,,,sub_042,2022-08-11_17h54.07.709,Reversal,2022.1.2,59.92940316326554,2,
19,exp3.png,exp4.png,,2,0,2,0,0,19,19,19,,,,,,,,,,,,,,,,,,,,,,,,,False,59,60,True,exp4.png,exp3.png,trial_left_image,1,exp4.png,2,exp3.png,exp4.png,0,4,reversed,incorrect,0.5579025778782158,0,valid_lose,441.0086440999994,25,,,,,,,,,,,,,,,,,,sub_042,2022-08-11_17h54.07.709,Reversal,2022.1.2,59.92940316326554,2,
20,exp1.png,exp2.png,,2,0,2,0,0,20,20,20,,,,,,,,,,,,,,,,,,,,,,,,,True,,,,,,,,,,,,,,,,,,,,,,,,,,,,,,,,,,,,,,sub_042,2022-08-11_17h54.07.709,Reversal,2022.1.2,59.92940316326554,2,
,,,exp1.png,2,0,2,0,,,,,0,0,0,0,0,0,0,0,,,,,,,,,,,,,,,,,,,,,,,,,,,,,,,,,,,,,,1.0,1.0,8.372493900000336,"[(100.0, 6.056620499999553), (1.0, 8.372493900000336)]",521.2523297000007,None,,,,,,,,,,,,sub_042,2022-08-11_17h54.07.709,Reversal,2022.1.2,59.92940316326554,2,
,,,exp2.png,2,0,2,0,,,,,0,0,0,0,0,1,1,1,,,,,,,,,,,,,,,,,,,,,,,,,,,,,,,,,,,,,,,100.0,1.6183664000000135,"[(100.0, 1.6183664000000135)]",530.7013932000009,None,100.0,,,,,,,,,,,sub_042,2022-08-11_17h54.07.709,Reversal,2022.1.2,59.92940316326554,2,
,,,exp3.png,2,0,2,0,,,,,0,0,0,0,0,2,2,2,,,,,,,,,,,,,,,,,,,,,,,,,,,,,,,,,,,,,,,3.0,1.4505363999996916,"[(3.0, 1.4505363999996916)]",533.7366376999998,None,,3.0,,,,,,,,,,sub_042,2022-08-11_17h54.07.709,Reversal,2022.1.2,59.92940316326554,2,
,,,exp4.png,2,0,2,0,,,,,0,0,0,0,0,3,3,3,,,,,,,,,,,,,,,,,,,,,,,,,,,,,,,,,,,,,,,100.0,1.533700800000588,"[(100.0, 1.533700800000588)]",536.3857081000006,None,,,100.0,,,,,,,,,sub_042,2022-08-11_17h54.07.709,Reversal,2022.1.2,59.92940316326554,2,
0,exp1.png,exp2.png,,3,0,3,0,0,0,0,0,,,,,,,,,,,,,,,,,,,,,,,,,False,60,61,True,exp2.png,exp1.png,trial_left_image,1,exp2.png,2,exp1.png,exp2.png,0,2,non-reversed,incorrect,0.46044466113930593,0,valid_lose,465.0250356000006,25,,,,,,,,,,,,,,,,,,sub_042,2022-08-11_17h54.07.709,Reversal,2022.1.2,59.92940316326554,2,
1,exp3.png,exp4.png,,3,0,3,0,0,1,1,1,,,,,,,,,,,,,,,,,,,,,,,,,False,61,62,False,exp3.png,exp4.png,trial_right_image,-1,exp4.png,2,exp3.png,exp4.png,0,4,reversed,incorrect,0.2545657337663465,0,valid_lose,469.5746984999996,25,,,,,,,,,,,,,,,,,,sub_042,2022-08-11_17h54.07.709,Reversal,2022.1.2,59.92940316326554,2,
2,exp1.png,exp2.png,,3,0,3,0,0,2,2,2,,,,,,,,,,,,,,,,,,,,,,,,,False,62,63,True,exp2.png,exp1.png,trial_left_image,1,exp2.png,2,exp1.png,exp2.png,0,2,non-reversed,incorrect,0.20190291433308816,1,invalid_win,474.82485480000014,26,,,,,,,,,,,,,,,,,,sub_042,2022-08-11_17h54.07.709,Reversal,2022.1.2,59.92940316326554,2,
3,exp3.png,exp4.png,,3,0,3,0,0,3,3,3,,,,,,,,,,,,,,,,,,,,,,,,,False,63,64,False,exp3.png,exp4.png,trial_right_image,-1,exp4.png,2,exp3.png,exp4.png,0,4,reversed,incorrect,0.9534488715092657,0,valid_lose,479.4747290000005,26,,,,,,,,,,,,,,,,,,sub_042,2022-08-11_17h54.07.709,Reversal,2022.1.2,59.92940316326554,2,
4,exp1.png,exp2.png,,3,0,3,0,0,4,4,4,,,,,,,,,,,,,,,,,,,,,,,,,False,64,65,True,exp2.png,exp1.png,trial_left_image,1,exp2.png,2,exp1.png,exp2.png,0,2,non-reversed,incorrect,0.0710191118766117,1,invalid_win,485.49151040000015,27,,,,,,,,,,,,,,,,,,sub_042,2022-08-11_17h54.07.709,Reversal,2022.1.2,59.92940316326554,2,
5,exp3.png,exp4.png,,3,0,3,0,0,5,5,5,,,,,,,,,,,,,,,,,,,,,,,,,False,65,66,False,exp3.png,exp4.png,trial_right_image,-1,exp4.png,2,exp3.png,exp4.png,0,4,reversed,incorrect,0.43949238759092746,0,valid_lose,490.02464860000055,27,,,,,,,,,,,,,,,,,,sub_042,2022-08-11_17h54.07.709,Reversal,2022.1.2,59.92940316326554,2,
6,exp1.png,exp2.png,,3,0,3,0,0,6,6,6,,,,,,,,,,,,,,,,,,,,,,,,,False,66,67,False,exp1.png,exp2.png,trial_left_image,1,exp1.png,2,exp1.png,exp2.png,1,1,non-reversed,correct,0.2808289279586401,1,valid_win,495.0077375999999,28,,,,,,,,,,,,,,,,,,sub_042,2022-08-11_17h54.07.709,Reversal,2022.1.2,59.92940316326554,2,
7,exp3.png,exp4.png,,3,0,3,0,0,7,7,7,,,,,,,,,,,,,,,,,,,,,,,,,False,67,68,True,exp4.png,exp3.png,trial_left_image,1,exp4.png,2,exp3.png,exp4.png,0,4,reversed,incorrect,0.16620229799909159,1,invalid_win,499.5580849000007,29,,,,,,,,,,,,,,,,,,sub_042,2022-08-11_17h54.07.709,Reversal,2022.1.2,59.92940316326554,2,
8,exp1.png,exp2.png,,3,0,3,0,0,8,8,8,,,,,,,,,,,,,,,,,,,,,,,,,False,68,69,True,exp2.png,exp1.png,trial_left_image,1,exp2.png,2,exp1.png,exp2.png,0,2,non-reversed,incorrect,0.5750643169779391,0,valid_lose,506.2746562000002,29,,,,,,,,,,,,,,,,,,sub_042,2022-08-11_17h54.07.709,Reversal,2022.1.2,59.92940316326554,2,
9,exp3.png,exp4.png,,3,0,3,0,0,9,9,9,,,,,,,,,,,,,,,,,,,,,,,,,False,69,70,True,exp4.png,exp3.png,trial_left_image,1,exp4.png,2,exp3.png,exp4.png,0,4,reversed,incorrect,0.935973753642958,0,valid_lose,511.2246100000002,29,,,,,,,,,,,,,,,,,,sub_042,2022-08-11_17h54.07.709,Reversal,2022.1.2,59.92940316326554,2,
10,exp1.png,exp2.png,,3,0,3,0,0,10,10,10,,,,,,,,,,,,,,,,,,,,,,,,,False,70,71,False,exp1.png,exp2.png,trial_left_image,1,exp1.png,2,exp1.png,exp2.png,1,1,non-reversed,correct,0.26490138077406966,1,valid_win,518.1412217000006,30,,,,,,,,,,,,,,,,,,sub_042,2022-08-11_17h54.07.709,Reversal,2022.1.2,59.92940316326554,2,
11,exp3.png,exp4.png,,3,0,3,0,0,11,11,11,,,,,,,,,,,,,,,,,,,,,,,,,False,71,72,True,exp4.png,exp3.png,trial_left_image,1,exp4.png,2,exp3.png,exp4.png,0,4,reversed,incorrect,0.5555071309079394,0,valid_lose,522.3908863000006,30,,,,,,,,,,,,,,,,,,sub_042,2022-08-11_17h54.07.709,Reversal,2022.1.2,59.92940316326554,2,
12,exp1.png,exp2.png,,3,0,3,0,0,12,12,12,,,,,,,,,,,,,,,,,,,,,,,,,False,72,73,True,exp2.png,exp1.png,trial_left_image,1,exp2.png,2,exp1.png,exp2.png,0,2,non-reversed,incorrect,0.01636688584228696,1,invalid_win,527.0906187999999,31,,,,,,,,,,,,,,,,,,sub_042,2022-08-11_17h54.07.709,Reversal,2022.1.2,59.92940316326554,2,
13,exp3.png,exp4.png,,3,0,3,0,0,13,13,13,,,,,,,,,,,,,,,,,,,,,,,,,False,73,74,False,exp3.png,exp4.png,trial_right_image,-1,exp4.png,2,exp3.png,exp4.png,0,4,reversed,incorrect,0.6476446043231515,0,valid_lose,531.8073678999999,31,,,,,,,,,,,,,,,,,,sub_042,2022-08-11_17h54.07.709,Reversal,2022.1.2,59.92940316326554,2,
14,exp1.png,exp2.png,,3,0,3,0,0,14,14,14,,,,,,,,,,,,,,,,,,,,,,,,,False,74,75,True,exp2.png,exp1.png,trial_left_image,1,exp2.png,2,exp1.png,exp2.png,0,2,non-reversed,incorrect,0.08812466773272165,1,invalid_win,538.0409725,32,,,,,,,,,,,,,,,,,,sub_042,2022-08-11_17h54.07.709,Reversal,2022.1.2,59.92940316326554,2,
15,exp3.png,exp4.png,,3,0,3,0,0,15,15,15,,,,,,,,,,,,,,,,,,,,,,,,,False,75,76,False,exp3.png,exp4.png,trial_right_image,-1,exp4.png,2,exp3.png,exp4.png,0,4,reversed,incorrect,0.7627259486371641,0,valid_lose,542.5911196000006,32,,,,,,,,,,,,,,,,,,sub_042,2022-08-11_17h54.07.709,Reversal,2022.1.2,59.92940316326554,2,
16,exp1.png,exp2.png,,3,0,3,0,0,16,16,16,,,,,,,,,,,,,,,,,,,,,,,,,False,76,77,True,exp2.png,exp1.png,trial_left_image,1,exp2.png,2,exp1.png,exp2.png,0,2,non-reversed,incorrect,0.6838793795227261,0,valid_lose,548.3409173999999,32,,,,,,,,,,,,,,,,,,sub_042,2022-08-11_17h54.07.709,Reversal,2022.1.2,59.92940316326554,2,
17,exp3.png,exp4.png,,3,0,3,0,0,17,17,17,,,,,,,,,,,,,,,,,,,,,,,,,False,77,78,False,exp3.png,exp4.png,trial_right_image,-1,exp4.png,2,exp3.png,exp4.png,0,4,reversed,incorrect,0.5442884829226806,0,valid_lose,552.8573686999998,32,,,,,,,,,,,,,,,,,,sub_042,2022-08-11_17h54.07.709,Reversal,2022.1.2,59.92940316326554,2,
18,exp1.png,exp2.png,,3,0,3,0,0,18,18,18,,,,,,,,,,,,,,,,,,,,,,,,,False,78,79,False,exp1.png,exp2.png,trial_left_image,1,exp1.png,2,exp1.png,exp2.png,1,1,non-reversed,correct,0.13061024233986585,0,invalid_lose,559.4238966000003,32,,,,,,,,,,,,,,,,,,sub_042,2022-08-11_17h54.07.709,Reversal,2022.1.2,59.92940316326554,2,
19,exp3.png,exp4.png,,3,0,3,0,0,19,19,19,,,,,,,,,,,,,,,,,,,,,,,,,False,79,80,False,exp3.png,exp4.png,trial_right_image,-1,exp4.png,2,exp3.png,exp4.png,0,4,reversed,incorrect,0.36355896399655996,0,valid_lose,564.1404035999994,32,,,,,,,,,,,,,,,,,,sub_042,2022-08-11_17h54.07.709,Reversal,2022.1.2,59.92940316326554,2,
20,exp1.png,exp2.png,,3,0,3,0,0,20,20,20,,,,,,,,,,,,,,,,,,,,,,,,,True,,,,,,,,,,,,,,,,,,,,,,,,,,,,,,,,,,,,,,sub_042,2022-08-11_17h54.07.709,Reversal,2022.1.2,59.92940316326554,2,
,,,exp1.png,3,0,3,0,,,,,0,0,0,0,0,0,0,0,,,,,,,,,,,,,,,,,,,,,,,,,,,,,,,,,,,,,,100.0,100.0,3.1337596000012127,"[(100.0, 3.1337596000012127)]",644.3699899999992,None,,,,,,,,,,,,sub_042,2022-08-11_17h54.07.709,Reversal,2022.1.2,59.92940316326554,2,
,,,exp2.png,3,0,3,0,,,,,0,0,0,0,0,1,1,1,,,,,,,,,,,,,,,,,,,,,,,,,,,,,,,,,,,,,,,100.0,4.298868300000322,"[(100.0, 4.298868300000322)]",648.8699070000002,None,100.0,,,,,,,,,,,sub_042,2022-08-11_17h54.07.709,Reversal,2022.1.2,59.92940316326554,2,
,,,exp3.png,3,0,3,0,,,,,0,0,0,0,0,2,2,2,,,,,,,,,,,,,,,,,,,,,,,,,,,,,,,,,,,,,,,1.0,1.6824073999996472,"[(1.0, 1.6824073999996472)]",654.8010161000002,None,,1.0,,,,,,,,,,sub_042,2022-08-11_17h54.07.709,Reversal,2022.1.2,59.92940316326554,2,
,,,exp4.png,3,0,3,0,,,,,0,0,0,0,0,3,3,3,,,,,,,,,,,,,,,,,,,,,,,,,,,,,,,,,,,,,,,100.0,1.682899699999325,"[(58.0, 1.2988097999987076), (100.0, 1.682899699999325)]",657.7507853999996,None,,,100.0,,,,,,,,,sub_042,2022-08-11_17h54.07.709,Reversal,2022.1.2,59.92940316326554,2,
0,exp1.png,exp2.png,,,,,,,,,,,,,,,,,,0,0,0,0,0,0,0,0,,,,,,,,,False,0,81,True,exp2.png,exp1.png,trial_right_image,-1,exp1.png,2,exp1.png,exp2.png,1,1,non-reversed,correct,0.2152979618811317,0,invalid_lose,586.1396211000001,32,,,,,,,,,,582.9347757000005,,,,,,,,sub_042,2022-08-11_17h54.07.709,Reversal,2022.1.2,59.92940316326554,2,
1,exp3.png,exp4.png,,,,,,,,,,,,,,,,,,0,0,0,0,0,1,1,1,,,,,,,,,False,1,82,False,exp3.png,exp4.png,trial_right_image,-1,exp4.png,2,exp4.png,exp3.png,0,4,reversed,correct,0.10420370652540845,0,invalid_lose,590.6733288000005,32,,,,,,,,,,,,,,,,,,sub_042,2022-08-11_17h54.07.709,Reversal,2022.1.2,59.92940316326554,2,
2,exp1.png,exp2.png,,,,,,,,,,,,,,,,,,0,0,0,0,0,2,2,2,,,,,,,,,False,2,83,True,exp2.png,exp1.png,trial_left_image,1,exp2.png,2,exp1.png,exp2.png,0,2,non-reversed,incorrect,0.28422211031933986,0,valid_lose,595.0548743999998,32,,,,,,,,,,,,,,,,,,sub_042,2022-08-11_17h54.07.709,Reversal,2022.1.2,59.92940316326554,2,
3,exp3.png,exp4.png,,,,,,,,,,,,,,,,,,0,0,0,0,0,3,3,3,,,,,,,,,False,3,84,False,exp3.png,exp4.png,trial_right_image,-1,exp4.png,2,exp4.png,exp3.png,0,4,reversed,correct,0.8999454017762332,1,valid_win,599.2567425999996,33,,,,,,,,,,,,,,,,,,sub_042,2022-08-11_17h54.07.709,Reversal,2022.1.2,59.92940316326554,2,
4,exp1.png,exp2.png,,,,,,,,,,,,,,,,,,0,0,0,0,0,4,4,4,,,,,,,,,False,4,85,False,exp1.png,exp2.png,trial_right_image,-1,exp2.png,2,exp1.png,exp2.png,0,2,non-reversed,incorrect,0.45369198666306987,0,valid_lose,604.4728464999998,33,,,,,,,,,,,,,,,,,,sub_042,2022-08-11_17h54.07.709,Reversal,2022.1.2,59.92940316326554,2,
5,exp3.png,exp4.png,,,,,,,,,,,,,,,,,,0,0,0,0,0,5,5,5,,,,,,,,,False,5,86,True,exp4.png,exp3.png,trial_left_image,1,exp4.png,2,exp4.png,exp3.png,0,4,reversed,correct,0.6541847383049246,1,valid_win,609.0060143000001,34,,,,,,,,,,,,,,,,,,sub_042,2022-08-11_17h54.07.709,Reversal,2022.1.2,59.92940316326554,2,
6,exp1.png,exp2.png,,,,,,,,,,,,,,,,,,0,0,0,0,0,6,6,6,,,,,,,,,False,6,87,True,exp2.png,exp1.png,trial_left_image,1,exp2.png,2,exp1.png,exp2.png,0,2,non-reversed,incorrect,0.6947290990398206,0,valid_lose,613.8393753999999,34,,,,,,,,,,,,,,,,,,sub_042,2022-08-11_17h54.07.709,Reversal,2022.1.2,59.92940316326554,2,
7,exp3.png,exp4.png,,,,,,,,,,,,,,,,,,0,0,0,0,0,7,7,7,,,,,,,,,False,7,88,True,exp4.png,exp3.png,trial_left_image,1,exp4.png,2,exp4.png,exp3.png,0,4,reversed,correct,0.6672563774881475,1,valid_win,618.1062539000004,35,,,,,,,,,,,,,,,,,,sub_042,2022-08-11_17h54.07.709,Reversal,2022.1.2,59.92940316326554,2,
8,exp1.png,exp2.png,,,,,,,,,,,,,,,,,,0,0,0,0,0,8,8,8,,,,,,,,,False,8,89,True,exp2.png,exp1.png,trial_left_image,1,exp2.png,2,exp1.png,exp2.png,0,2,non-reversed,incorrect,0.6788507699598554,0,valid_lose,622.4392916000006,35,,,,,,,,,,,,,,,,,,sub_042,2022-08-11_17h54.07.709,Reversal,2022.1.2,59.92940316326554,2,
9,exp3.png,exp4.png,,,,,,,,,,,,,,,,,,0,0,0,0,0,9,9,9,,,,,,,,,False,9,90,False,exp3.png,exp4.png,trial_right_image,-1,exp4.png,2,exp4.png,exp3.png,0,4,reversed,correct,0.7798022072867701,1,valid_win,628.3220360999994,36,,,,,,,,,,,,,,,,,,sub_042,2022-08-11_17h54.07.709,Reversal,2022.1.2,59.92940316326554,2,
10,exp1.png,exp2.png,,,,,,,,,,,,,,,,,,0,0,0,0,0,10,10,10,,,,,,,,,False,10,91,True,exp2.png,exp1.png,trial_right_image,-1,exp1.png,2,exp1.png,exp2.png,1,1,non-reversed,correct,0.26319681342829315,1,valid_win,636.8222723000008,37,,,,,,,,,,,,,,,,,,sub_042,2022-08-11_17h54.07.709,Reversal,2022.1.2,59.92940316326554,2,
11,exp3.png,exp4.png,,,,,,,,,,,,,,,,,,0,0,0,0,0,11,11,11,,,,,,,,,False,11,92,False,exp3.png,exp4.png,trial_right_image,-1,exp4.png,2,exp4.png,exp3.png,0,4,reversed,correct,0.3083616510911402,1,valid_win,641.6393237000002,38,,,,,,,,,,,,,,,,,,sub_042,2022-08-11_17h54.07.709,Reversal,2022.1.2,59.92940316326554,2,
12,exp1.png,exp2.png,,,,,,,,,,,,,,,,,,0,0,0,0,0,12,12,12,,,,,,,,,False,12,93,True,exp2.png,exp1.png,trial_right_image,-1,exp1.png,2,exp1.png,exp2.png,1,1,non-reversed,correct,0.714309252349449,1,valid_win,647.3883261000001,39,,,,,,,,,,,,,,,,,,sub_042,2022-08-11_17h54.07.709,Reversal,2022.1.2,59.92940316326554,2,
13,exp3.png,exp4.png,,,,,,,,,,,,,,,,,,0,0,0,0,0,13,13,13,,,,,,,,,False,13,94,False,exp3.png,exp4.png,trial_right_image,-1,exp4.png,2,exp4.png,exp3.png,0,4,reversed,correct,0.3824080379882303,1,valid_win,652.0721858999996,40,,,,,,,,,,,,,,,,,,sub_042,2022-08-11_17h54.07.709,Reversal,2022.1.2,59.92940316326554,2,
14,exp1.png,exp2.png,,,,,,,,,,,,,,,,,,0,0,0,0,0,14,14,14,,,,,,,,,False,14,95,False,exp1.png,exp2.png,trial_right_image,-1,exp2.png,2,exp1.png,exp2.png,0,2,non-reversed,incorrect,0.5484644277099844,0,valid_lose,663.3383748000006,40,,,,,,,,,,,,,,,,,,sub_042,2022-08-11_17h54.07.709,Reversal,2022.1.2,59.92940316326554,2,
15,exp3.png,exp4.png,,,,,,,,,,,,,,,,,,0,0,0,0,0,15,15,15,,,,,,,,,False,15,96,True,exp4.png,exp3.png,trial_left_image,1,exp4.png,2,exp4.png,exp3.png,0,4,reversed,correct,0.5783334381022766,1,valid_win,667.8714504999998,41,,,,,,,,,,,,,,,,,,sub_042,2022-08-11_17h54.07.709,Reversal,2022.1.2,59.92940316326554,2,
16,exp1.png,exp2.png,,,,,,,,,,,,,,,,,,0,0,0,0,0,16,16,16,,,,,,,,,False,16,97,False,exp1.png,exp2.png,trial_left_image,1,exp1.png,2,exp1.png,exp2.png,1,1,non-reversed,correct,0.03234129933451946,0,invalid_lose,672.6546255000003,41,,,,,,,,,,,,,,,,,,sub_042,2022-08-11_17h54.07.709,Reversal,2022.1.2,59.92940316326554,2,
17,exp3.png,exp4.png,,,,,,,,,,,,,,,,,,0,0,0,0,0,17,17,17,,,,,,,,,False,17,98,False,exp3.png,exp4.png,trial_right_image,-1,exp4.png,2,exp4.png,exp3.png,0,4,reversed,correct,0.9662696946421809,1,valid_win,677.0043794999992,42,,,,,,,,,,,,,,,,,,sub_042,2022-08-11_17h54.07.709,Reversal,2022.1.2,59.92940316326554,2,
18,exp1.png,exp2.png,,,,,,,,,,,,,,,,,,0,0,0,0,0,18,18,18,,,,,,,,,False,18,99,False,exp1.png,exp2.png,trial_left_image,1,exp1.png,2,exp1.png,exp2.png,1,1,non-reversed,correct,0.8408406869084707,1,valid_win,684.3217407999991,43,,,,,,,,,,,,,,,,,,sub_042,2022-08-11_17h54.07.709,Reversal,2022.1.2,59.92940316326554,2,
19,exp3.png,exp4.png,,,,,,,,,,,,,,,,,,0,0,0,0,0,19,19,19,,,,,,,,,False,19,100,True,exp4.png,exp3.png,trial_left_image,1,exp4.png,2,exp4.png,exp3.png,0,4,reversed,correct,0.15295926634606138,0,invalid_lose,689.004459499999,43,,,,,,,,,,,,,,,,,,sub_042,2022-08-11_17h54.07.709,Reversal,2022.1.2,59.92940316326554,2,
20,exp1.png,exp2.png,,,,,,,,,,,,,,,,,,0,0,0,0,0,20,20,20,,,,,,,,,True,,,,,,,,,,,,,,,,,,,,,,,,,,,,,,,,,,,,,,sub_042,2022-08-11_17h54.07.709,Reversal,2022.1.2,59.92940316326554,2,
,,,exp1.png,,,,,,,,,,,,,,,,,0,0,0,0,,,,,0,0,0,0,0,0,0,0,,,,,,,,,,,,,,,,,,,,,,5.0,5.0,2.40490089999912,"[(5.0, 2.40490089999912)]",769.2457515000006,None,,,,,,,,,,,,sub_042,2022-08-11_17h54.07.709,Reversal,2022.1.2,59.92940316326554,2,
,,,exp2.png,,,,,,,,,,,,,,,,,0,0,0,0,,,,,0,0,0,0,0,1,1,1,,,,,,,,,,,,,,,,,,,,,,,100.0,1.7541332000000693,"[(100.0, 1.7541332000000693)]",772.8801648999997,None,100.0,,,,,,,,,,,sub_042,2022-08-11_17h54.07.709,Reversal,2022.1.2,59.92940316326554,2,
,,,exp3.png,,,,,,,,,,,,,,,,,0,0,0,0,,,,,0,0,0,0,0,2,2,2,,,,,,,,,,,,,,,,,,,,,,,1.0,2.066185300000143,"[(18.0, 1.116026800000327), (1.0, 2.066185300000143)]",775.8320623,None,,1.0,,,,,,,,,,sub_042,2022-08-11_17h54.07.709,Reversal,2022.1.2,59.92940316326554,2,
,,,exp4.png,,,,,,,,,,,,,,,,,0,0,0,0,,,,,0,0,0,0,0,3,3,3,,,,,,,,,,,,,,,,,,,,,,,100.0,3.4988381000002846,"[(64.0, 1.5826563999999053), (100.0, 3.4988381000002846)]",779.1152409000006,None,,,100.0,,,,,,,,,sub_042,2022-08-11_17h54.07.709,Reversal,2022.1.2,59.92940316326554,2,
0,exp1.png,exp2.png,,,,,,,,,,,,,,,,,,1,0,1,0,0,0,0,0,,,,,,,,,False,20,101,True,exp2.png,exp1.png,trial_right_image,-1,exp1.png,2,exp1.png,exp2.png,1,1,non-reversed,correct,0.6936551380722041,1,valid_win,708.9710982999995,44,,,,,,,,,,,,,,,,,,sub_042,2022-08-11_17h54.07.709,Reversal,2022.1.2,59.92940316326554,2,
1,exp3.png,exp4.png,,,,,,,,,,,,,,,,,,1,0,1,0,0,1,1,1,,,,,,,,,False,21,102,True,exp4.png,exp3.png,trial_left_image,1,exp4.png,2,exp4.png,exp3.png,0,4,reversed,correct,0.4199072944369877,1,valid_win,713.4877219,45,,,,,,,,,,,,,,,,,,sub_042,2022-08-11_17h54.07.709,Reversal,2022.1.2,59.92940316326554,2,
2,exp1.png,exp2.png,,,,,,,,,,,,,,,,,,1,0,1,0,0,2,2,2,,,,,,,,,False,22,103,True,exp2.png,exp1.png,trial_left_image,1,exp2.png,2,exp1.png,exp2.png,0,2,non-reversed,incorrect,0.8289052348259006,0,valid_lose,718.1877961,45,,,,,,,,,,,,,,,,,,sub_042,2022-08-11_17h54.07.709,Reversal,2022.1.2,59.92940316326554,2,
3,exp3.png,exp4.png,,,,,,,,,,,,,,,,,,1,0,1,0,0,3,3,3,,,,,,,,,False,23,104,False,exp3.png,exp4.png,trial_right_image,-1,exp4.png,2,exp4.png,exp3.png,0,4,reversed,correct,0.35612995838674966,1,valid_win,724.187292399999,46,,,,,,,,,,,,,,,,,,sub_042,2022-08-11_17h54.07.709,Reversal,2022.1.2,59.92940316326554,2,
4,exp1.png,exp2.png,,,,,,,,,,,,,,,,,,1,0,1,0,0,4,4,4,,,,,,,,,False,24,105,True,exp2.png,exp1.png,trial_right_image,-1,exp1.png,2,exp1.png,exp2.png,1,1,non-reversed,correct,0.8537489001816793,1,valid_win,729.2038311000006,47,,,,,,,,,,,,,,,,,,sub_042,2022-08-11_17h54.07.709,Reversal,2022.1.2,59.92940316326554,2,
5,exp3.png,exp4.png,,,,,,,,,,,,,,,,,,1,0,1,0,0,5,5,5,,,,,,,,,False,25,106,True,exp4.png,exp3.png,trial_left_image,1,exp4.png,2,exp4.png,exp3.png,0,4,reversed,correct,0.1421095160856558,0,invalid_lose,734.0540267000006,47,,,,,,,,,,,,,,,,,,sub_042,2022-08-11_17h54.07.709,Reversal,2022.1.2,59.92940316326554,2,
6,exp1.png,exp2.png,,,,,,,,,,,,,,,,,,1,0,1,0,0,6,6,6,,,,,,,,,False,26,107,True,exp2.png,exp1.png,trial_left_image,1,exp2.png,2,exp1.png,exp2.png,0,2,non-reversed,incorrect,0.4123836137881838,0,valid_lose,738.9203747999991,47,,,,,,,,,,,,,,,,,,sub_042,2022-08-11_17h54.07.709,Reversal,2022.1.2,59.92940316326554,2,
7,exp3.png,exp4.png,,,,,,,,,,,,,,,,,,1,0,1,0,0,7,7,7,,,,,,,,,False,27,108,False,exp3.png,exp4.png,trial_right_image,-1,exp4.png,2,exp4.png,exp3.png,0,4,reversed,correct,0.48387456929910255,1,valid_win,743.7035998000001,48,,,,,,,,,,,,,,,,,,sub_042,2022-08-11_17h54.07.709,Reversal,2022.1.2,59.92940316326554,2,
8,exp1.png,exp2.png,,,,,,,,,,,,,,,,,,1,0,1,0,0,8,8,8,,,,,,,,,False,28,109,True,exp2.png,exp1.png,trial_left_image,1,exp2.png,2,exp1.png,exp2.png,0,2,non-reversed,incorrect,0.9425708650951529,0,valid_lose,748.2532498999999,48,,,,,,,,,,,,,,,,,,sub_042,2022-08-11_17h54.07.709,Reversal,2022.1.2,59.92940316326554,2,
9,exp3.png,exp4.png,,,,,,,,,,,,,,,,,,1,0,1,0,0,9,9,9,,,,,,,,,False,29,110,False,exp3.png,exp4.png,trial_right_image,-1,exp4.png,2,exp4.png,exp3.png,0,4,reversed,correct,0.6512746152848559,1,valid_win,753.487132199999,49,,,,,,,,,,,,,,,,,,sub_042,2022-08-11_17h54.07.709,Reversal,2022.1.2,59.92940316326554,2,
10,exp1.png,exp2.png,,,,,,,,,,,,,,,,,,1,0,1,0,0,10,10,10,,,,,,,,,False,30,111,False,exp1.png,exp2.png,trial_right_image,-1,exp2.png,2,exp1.png,exp2.png,0,2,non-reversed,incorrect,0.07857959526552116,1,invalid_win,757.7870102000006,50,,,,,,,,,,,,,,,,,,sub_042,2022-08-11_17h54.07.709,Reversal,2022.1.2,59.92940316326554,2,
11,exp3.png,exp4.png,,,,,,,,,,,,,,,,,,1,0,1,0,0,11,11,11,,,,,,,,,False,31,112,True,exp4.png,exp3.png,trial_left_image,1,exp4.png,2,exp4.png,exp3.png,0,4,reversed,correct,0.7206986827017668,1,valid_win,762.1869780999996,51,,,,,,,,,,,,,,,,,,sub_042,2022-08-11_17h54.07.709,Reversal,2022.1.2,59.92940316326554,2,
12,exp1.png,exp2.png,,,,,,,,,,,,,,,,,,1,0,1,0,0,12,12,12,,,,,,,,,False,32,113,False,exp1.png,exp2.png,trial_left_image,1,exp1.png,2,exp1.png,exp2.png,1,1,non-reversed,correct,0.21525618679011072,0,invalid_lose,767.5362083999999,51,,,,,,,,,,,,,,,,,,sub_042,2022-08-11_17h54.07.709,Reversal,2022.1.2,59.92940316326554,2,
13,exp3.png,exp4.png,,,,,,,,,,,,,,,,,,1,0,1,0,0,13,13,13,,,,,,,,,False,33,114,False,exp3.png,exp4.png,trial_right_image,-1,exp4.png,2,exp4.png,exp3.png,0,4,reversed,correct,0.12559368725939435,0,invalid_lose,772.0689484000004,51,,,,,,,,,,,,,,,,,,sub_042,2022-08-11_17h54.07.709,Reversal,2022.1.2,59.92940316326554,2,
14,exp1.png,exp2.png,,,,,,,,,,,,,,,,,,1,0,1,0,0,14,14,14,,,,,,,,,False,34,115,False,exp1.png,exp2.png,trial_left_image,1,exp1.png,2,exp1.png,exp2.png,1,1,non-reversed,correct,0.12542606688694624,0,invalid_lose,777.2192690999991,51,,,,,,,,,,,,,,,,,,sub_042,2022-08-11_17h54.07.709,Reversal,2022.1.2,59.92940316326554,2,
15,exp3.png,exp4.png,,,,,,,,,,,,,,,,,,1,0,1,0,0,15,15,15,,,,,,,,,False,35,116,False,exp3.png,exp4.png,trial_right_image,-1,exp4.png,2,exp4.png,exp3.png,0,4,reversed,correct,0.49136147772532324,1,valid_win,781.8529348000002,52,,,,,,,,,,,,,,,,,,sub_042,2022-08-11_17h54.07.709,Reversal,2022.1.2,59.92940316326554,2,
16,exp1.png,exp2.png,,,,,,,,,,,,,,,,,,1,0,1,0,0,16,16,16,,,,,,,,,False,36,117,False,exp1.png,exp2.png,trial_left_image,1,exp1.png,2,exp1.png,exp2.png,1,1,non-reversed,correct,0.24469865711695105,0,invalid_lose,788.9533772999994,52,,,,,,,,,,,,,,,,,,sub_042,2022-08-11_17h54.07.709,Reversal,2022.1.2,59.92940316326554,2,
17,exp3.png,exp4.png,,,,,,,,,,,,,,,,,,1,0,1,0,0,17,17,17,,,,,,,,,False,37,118,False,exp3.png,exp4.png,trial_right_image,-1,exp4.png,2,exp4.png,exp3.png,0,4,reversed,correct,0.5180249725039764,1,valid_win,793.4697215000006,53,,,,,,,,,,,,,,,,,,sub_042,2022-08-11_17h54.07.709,Reversal,2022.1.2,59.92940316326554,2,
18,exp1.png,exp2.png,,,,,,,,,,,,,,,,,,1,0,1,0,0,18,18,18,,,,,,,,,False,38,119,True,exp2.png,exp1.png,trial_left_image,1,exp2.png,2,exp1.png,exp2.png,0,2,non-reversed,incorrect,0.7482188585043994,0,valid_lose,798.0027256000003,53,,,,,,,,,,,,,,,,,,sub_042,2022-08-11_17h54.07.709,Reversal,2022.1.2,59.92940316326554,2,
19,exp3.png,exp4.png,,,,,,,,,,,,,,,,,,1,0,1,0,0,19,19,19,,,,,,,,,False,39,120,True,exp4.png,exp3.png,trial_left_image,1,exp4.png,2,exp4.png,exp3.png,0,4,reversed,correct,0.07889039171669676,0,invalid_lose,802.5529816999997,53,,,,,,,,,,,,,,,,,,sub_042,2022-08-11_17h54.07.709,Reversal,2022.1.2,59.92940316326554,2,
20,exp1.png,exp2.png,,,,,,,,,,,,,,,,,,1,0,1,0,0,20,20,20,,,,,,,,,True,,,,,,,,,,,,,,,,,,,,,,,,,,,,,,,,,,,,,,sub_042,2022-08-11_17h54.07.709,Reversal,2022.1.2,59.92940316326554,2,
,,,exp1.png,,,,,,,,,,,,,,,,,1,0,1,0,,,,,0,0,0,0,0,0,0,0,,,,,,,,,,,,,,,,,,,,,,1.0,1.0,1.9385332999991078,"[(1.0, 1.9385332999991078)]",882.7792320999997,None,,,,,,,,,,,,sub_042,2022-08-11_17h54.07.709,Reversal,2022.1.2,59.92940316326554,2,
,,,exp2.png,,,,,,,,,,,,,,,,,1,0,1,0,,,,,0,0,0,0,0,1,1,1,,,,,,,,,,,,,,,,,,,,,,,100.0,1.482043899999553,"[(100.0, 1.482043899999553)]",886.0645012000004,None,100.0,,,,,,,,,,,sub_042,2022-08-11_17h54.07.709,Reversal,2022.1.2,59.92940316326554,2,
,,,exp3.png,,,,,,,,,,,,,,,,,1,0,1,0,,,,,0,0,0,0,0,2,2,2,,,,,,,,,,,,,,,,,,,,,,,1.0,1.1504671000002418,"[(1.0, 1.1504671000002418)]",888.7450160000008,None,,1.0,,,,,,,,,,sub_042,2022-08-11_17h54.07.709,Reversal,2022.1.2,59.92940316326554,2,
,,,exp4.png,,,,,,,,,,,,,,,,,1,0,1,0,,,,,0,0,0,0,0,3,3,3,,,,,,,,,,,,,,,,,,,,,,,100.0,1.6648835000014515,"[(100.0, 1.6648835000014515)]",890.9799975999995,None,,,100.0,,,,,,,,,sub_042,2022-08-11_17h54.07.709,Reversal,2022.1.2,59.92940316326554,2,
0,exp1.png,exp2.png,,,,,,,,,,,,,,,,,,2,0,2,0,0,0,0,0,,,,,,,,,False,40,121,False,exp1.png,exp2.png,trial_right_image,-1,exp2.png,2,exp1.png,exp2.png,0,2,non-reversed,incorrect,0.35765849605227973,0,valid_lose,818.8359750999998,53,,,,,,,,,,,,,,,,,,sub_042,2022-08-11_17h54.07.709,Reversal,2022.1.2,59.92940316326554,2,
1,exp3.png,exp4.png,,,,,,,,,,,,,,,,,,2,0,2,0,0,1,1,1,,,,,,,,,False,41,122,True,exp4.png,exp3.png,trial_left_image,1,exp4.png,2,exp4.png,exp3.png,0,4,reversed,correct,0.35413073294324204,1,valid_win,822.9852268999994,54,,,,,,,,,,,,,,,,,,sub_042,2022-08-11_17h54.07.709,Reversal,2022.1.2,59.92940316326554,2,
2,exp1.png,exp2.png,,,,,,,,,,,,,,,,,,2,0,2,0,0,2,2,2,,,,,,,,,False,42,123,True,exp2.png,exp1.png,trial_left_image,1,exp2.png,2,exp1.png,exp2.png,0,2,non-reversed,incorrect,0.4647614502345374,0,valid_lose,830.4862748999994,54,,,,,,,,,,,,,,,,,,sub_042,2022-08-11_17h54.07.709,Reversal,2022.1.2,59.92940316326554,2,
3,exp3.png,exp4.png,,,,,,,,,,,,,,,,,,2,0,2,0,0,3,3,3,,,,,,,,,False,43,124,True,exp4.png,exp3.png,trial_left_image,1,exp4.png,2,exp4.png,exp3.png,0,4,reversed,correct,0.2598629970780095,1,valid_win,834.7355486000006,55,,,,,,,,,,,,,,,,,,sub_042,2022-08-11_17h54.07.709,Reversal,2022.1.2,59.92940316326554,2,
4,exp1.png,exp2.png,,,,,,,,,,,,,,,,,,2,0,2,0,0,4,4,4,,,,,,,,,False,44,125,False,exp1.png,exp2.png,trial_left_image,1,exp1.png,2,exp1.png,exp2.png,1,1,non-reversed,correct,0.6700576878860143,1,valid_win,851.4851926999991,56,,,,,,,,,,,,,,,,,,sub_042,2022-08-11_17h54.07.709,Reversal,2022.1.2,59.92940316326554,2,
5,exp3.png,exp4.png,,,,,,,,,,,,,,,,,,2,0,2,0,0,5,5,5,,,,,,,,,False,45,126,True,exp4.png,exp3.png,trial_left_image,1,exp4.png,2,exp4.png,exp3.png,0,4,reversed,correct,0.3804368394429588,1,valid_win,859.4515504000001,57,,,,,,,,,,,,,,,,,,sub_042,2022-08-11_17h54.07.709,Reversal,2022.1.2,59.92940316326554,2,
6,exp1.png,exp2.png,,,,,,,,,,,,,,,,,,2,0,2,0,0,6,6,6,,,,,,,,,False,46,127,False,exp1.png,exp2.png,trial_left_image,1,exp1.png,2,exp1.png,exp2.png,1,1,non-reversed,correct,0.5277516740837631,1,valid_win,864.3181384999998,58,,,,,,,,,,,,,,,,,,sub_042,2022-08-11_17h54.07.709,Reversal,2022.1.2,59.92940316326554,2,
7,exp3.png,exp4.png,,,,,,,,,,,,,,,,,,2,0,2,0,0,7,7,7,,,,,,,,,False,47,128,False,exp3.png,exp4.png,trial_right_image,-1,exp4.png,2,exp4.png,exp3.png,0,4,reversed,correct,0.800830172061659,1,valid_win,868.9013241999992,59,,,,,,,,,,,,,,,,,,sub_042,2022-08-11_17h54.07.709,Reversal,2022.1.2,59.92940316326554,2,
8,exp1.png,exp2.png,,,,,,,,,,,,,,,,,,2,0,2,0,0,8,8,8,,,,,,,,,False,48,129,False,exp1.png,exp2.png,trial_right_image,-1,exp2.png,2,exp1.png,exp2.png,0,2,non-reversed,incorrect,0.9259764281016402,0,valid_lose,873.8514643999997,59,,,,,,,,,,,,,,,,,,sub_042,2022-08-11_17h54.07.709,Reversal,2022.1.2,59.92940316326554,2,
9,exp3.png,exp4.png,,,,,,,,,,,,,,,,,,2,0,2,0,0,9,9,9,,,,,,,,,False,49,130,True,exp4.png,exp3.png,trial_left_image,1,exp4.png,2,exp4.png,exp3.png,0,4,reversed,correct,0.8213233066116771,1,valid_win,878.4008653999999,60,,,,,,,,,,,,,,,,,,sub_042,2022-08-11_17h54.07.709,Reversal,2022.1.2,59.92940316326554,2,
10,exp1.png,exp2.png,,,,,,,,,,,,,,,,,,2,0,2,0,0,10,10,10,,,,,,,,,False,50,131,False,exp1.png,exp2.png,trial_left_image,1,exp1.png,2,exp1.png,exp2.png,1,1,non-reversed,correct,0.5803995081662325,1,valid_win,882.7671868999996,61,,,,,,,,,,,,,,,,,,sub_042,2022-08-11_17h54.07.709,Reversal,2022.1.2,59.92940316326554,2,
11,exp3.png,exp4.png,,,,,,,,,,,,,,,,,,2,0,2,0,0,11,11,11,,,,,,,,,False,51,132,True,exp4.png,exp3.png,trial_left_image,1,exp4.png,2,exp4.png,exp3.png,0,4,reversed,correct,0.1346170167503541,0,invalid_lose,887.0010945999993,61,,,,,,,,,,,,,,,,,,sub_042,2022-08-11_17h54.07.709,Reversal,2022.1.2,59.92940316326554,2,
12,exp1.png,exp2.png,,,,,,,,,,,,,,,,,,2,0,2,0,0,12,12,12,,,,,,,,,False,52,133,True,exp2.png,exp1.png,trial_left_image,1,exp2.png,2,exp1.png,exp2.png,0,2,non-reversed,incorrect,0.1106602165193723,1,invalid_win,892.7008546000006,62,,,,,,,,,,,,,,,,,,sub_042,2022-08-11_17h54.07.709,Reversal,2022.1.2,59.92940316326554,2,
13,exp3.png,exp4.png,,,,,,,,,,,,,,,,,,2,0,2,0,0,13,13,13,,,,,,,,,False,53,134,False,exp3.png,exp4.png,trial_right_image,-1,exp4.png,2,exp4.png,exp3.png,0,4,reversed,correct,0.2861931168588321,1,valid_win,898.5512031000007,63,,,,,,,,,,,,,,,,,,sub_042,2022-08-11_17h54.07.709,Reversal,2022.1.2,59.92940316326554,2,
14,exp1.png,exp2.png,,,,,,,,,,,,,,,,,,2,0,2,0,0,14,14,14,,,,,,,,,False,54,135,False,exp1.png,exp2.png,trial_left_image,1,exp1.png,2,exp1.png,exp2.png,1,1,non-reversed,correct,0.22422558731503517,0,invalid_lose,902.8827642999995,63,,,,,,,,,,,,,,,,,,sub_042,2022-08-11_17h54.07.709,Reversal,2022.1.2,59.92940316326554,2,
15,exp3.png,exp4.png,,,,,,,,,,,,,,,,,,2,0,2,0,0,15,15,15,,,,,,,,,False,55,136,True,exp4.png,exp3.png,trial_left_image,1,exp4.png,2,exp4.png,exp3.png,0,4,reversed,correct,0.5633738165376829,1,valid_win,907.2179735,64,,,,,,,,,,,,,,,,,,sub_042,2022-08-11_17h54.07.709,Reversal,2022.1.2,59.92940316326554,2,
16,exp1.png,exp2.png,,,,,,,,,,,,,,,,,,2,0,2,0,0,16,16,16,,,,,,,,,False,56,137,False,exp1.png,exp2.png,trial_left_image,1,exp1.png,2,exp1.png,exp2.png,1,1,non-reversed,correct,0.3978494637318739,1,valid_win,912.300674699999,65,,,,,,,,,,,,,,,,,,sub_042,2022-08-11_17h54.07.709,Reversal,2022.1.2,59.92940316326554,2,
17,exp3.png,exp4.png,,,,,,,,,,,,,,,,,,2,0,2,0,0,17,17,17,,,,,,,,,False,57,138,True,exp4.png,exp3.png,trial_left_image,1,exp4.png,2,exp4.png,exp3.png,0,4,reversed,correct,0.5761596203486521,1,valid_win,917.1505833000001,66,,,,,,,,,,,,,,,,,,sub_042,2022-08-11_17h54.07.709,Reversal,2022.1.2,59.92940316326554,2,
18,exp1.png,exp2.png,,,,,,,,,,,,,,,,,,2,0,2,0,0,18,18,18,,,,,,,,,False,58,139,False,exp1.png,exp2.png,trial_right_image,-1,exp2.png,2,exp1.png,exp2.png,0,2,non-reversed,incorrect,0.042406463182401155,1,invalid_win,923.0340521999997,67,,,,,,,,,,,,,,,,,,sub_042,2022-08-11_17h54.07.709,Reversal,2022.1.2,59.92940316326554,2,
19,exp3.png,exp4.png,,,,,,,,,,,,,,,,,,2,0,2,0,0,19,19,19,,,,,,,,,False,59,140,True,exp4.png,exp3.png,trial_left_image,1,exp4.png,2,exp4.png,exp3.png,0,4,reversed,correct,0.30583973162814304,1,valid_win,927.3334530999991,68,,,,,,,,,,,,,,,,,,sub_042,2022-08-11_17h54.07.709,Reversal,2022.1.2,59.92940316326554,2,
20,exp1.png,exp2.png,,,,,,,,,,,,,,,,,,2,0,2,0,0,20,20,20,,,,,,,,,True,,,,,,,,,,,,,,,,,,,,,,,,,,,,,,,,,,,,,,sub_042,2022-08-11_17h54.07.709,Reversal,2022.1.2,59.92940316326554,2,
,,,exp1.png,,,,,,,,,,,,,,,,,2,0,2,0,,,,,0,0,0,0,0,0,0,0,,,,,,,,,,,,,,,,,,,,,,1.0,1.0,3.4139637000007497,"[(1.0, 3.4139637000007497)]",1007.5856086999993,None,,,,,,,,,,,,sub_042,2022-08-11_17h54.07.709,Reversal,2022.1.2,59.92940316326554,2,
,,,exp2.png,,,,,,,,,,,,,,,,,2,0,2,0,,,,,0,0,0,0,0,1,1,1,,,,,,,,,,,,,,,,,,,,,,,100.0,1.6334163999999873,"[(100.0, 1.6334163999999873)]",1012.2117694999997,None,100.0,,,,,,,,,,,sub_042,2022-08-11_17h54.07.709,Reversal,2022.1.2,59.92940316326554,2,
,,,exp3.png,,,,,,,,,,,,,,,,,2,0,2,0,,,,,0,0,0,0,0,2,2,2,,,,,,,,,,,,,,,,,,,,,,,1.0,1.21840709999924,"[(1.0, 1.21840709999924)]",1015.0757709999998,None,,1.0,,,,,,,,,,sub_042,2022-08-11_17h54.07.709,Reversal,2022.1.2,59.92940316326554,2,
,,,exp4.png,,,,,,,,,,,,,,,,,2,0,2,0,,,,,0,0,0,0,0,3,3,3,,,,,,,,,,,,,,,,,,,,,,,100.0,1.5996649000007892,"[(100.0, 1.5996649000007892)]",1017.5431258000008,None,,,100.0,,,,,,,,,sub_042,2022-08-11_17h54.07.709,Reversal,2022.1.2,59.92940316326554,2,
,,,,,,,,,,,,,,,,,,,,,,,,,,,,,,,,,,,,,,,,,,,,,,,,,,,,,,,,68,,,,,,,,,,,61,16,45,359.68328759999895,1,space,59.28825970000071,sub_042,2022-08-11_17h54.07.709,Reversal,2022.1.2,59.92940316326554,2,
