trial_index,trial_image1_file,trial_image2_file,image_file,learning_outer_loop.thisRepN,learning_outer_loop.thisTrialN,learning_outer_loop.thisN,learning_outer_loop.thisIndex,learning_inner_loop.thisRepN,learning_inner_loop.thisTrialN,learning_inner_loop.thisN,learning_inner_loop.thisIndex,learning_estimation_outer_loop.thisRepN,learning_estimation_outer_loop.thisTrialN,learning_estimation_outer_loop.thisN,learning_estimation_outer_loop.thisIndex,learning_estimation_inner_loop.thisRepN,learning_estimation_inner_loop.thisTrialN,learning_estimation_inner_loop.thisN,learning_estimation_inner_loop.thisIndex,reversal_outer_loop.thisRepN,reversal_outer_loop.thisTrialN,reversal_outer_loop.thisN,reversal_outer_loop.thisIndex,reversal_inner_loop.thisRepN,reversal_inner_loop.thisTrialN,reversal_inner_loop.thisN,reversal_inner_loop.thisIndex,reversal_estimation_outer_loop.thisRepN,reversal_estimation_outer_loop.thisTrialN,reversal_estimation_outer_loop.thisN,reversal_estimation_outer_loop.thisIndex,reversal_estimation_inner_loop.thisRepN,reversal_estimation_inner_loop.thisTrialN,reversal_estimation_inner_loop.thisN,reversal_estimation_inner_loop.thisIndex,skipped,total_trial_counter,trial_num,left_right_flip,left_image_file,right_image_file,clicked_stimulus_side,side,clicked_stimulus,version,high_prob_image_file,low_prob_image_file,choice_a,choice_b,pair_type,correct,trial_feedback_random,reward,trial_type,overall_time_after_trial,score,estimation_rating.started,estimation_exp1.png,estimation_rating.response,estimation_rating.rt,estimation_rating.history,estimation_exp2.png,estimation_exp3.png,estimation_exp4.png,total_learning_time,total_correct,learning_correct,reversal_correct,total_reversal_time,extra_block,participant,date,expName,psychopyVersion,frameRate,ver,
0,exp1.png,exp2.png,,0,0,0,0,0,0,0,0,,,,,,,,,,,,,,,,,,,,,,,,,False,0,1,True,exp2.png,exp1.png,trial_right_image,-1,exp1.png,2,exp1.png,exp2.png,1,1,non-reversed,correct,0.5156524155989505,1,valid_win,8.912013699999079,1,,,,,,,,,,,,,,,sub_574,2024-01-08_08h44.13.533,Reversal,2023.1.3,60.025450803250514,2,
1,exp3.png,exp4.png,,0,0,0,0,0,1,1,1,,,,,,,,,,,,,,,,,,,,,,,,,False,1,2,False,exp3.png,exp4.png,trial_left_image,1,exp3.png,2,exp3.png,exp4.png,1,3,reversed,correct,0.4340822568225007,1,valid_win,14.593418099917471,2,,,,,,,,,,,,,,,sub_574,2024-01-08_08h44.13.533,Reversal,2023.1.3,60.025450803250514,2,
2,exp1.png,exp2.png,,0,0,0,0,0,2,2,2,,,,,,,,,,,,,,,,,,,,,,,,,False,2,3,True,exp2.png,exp1.png,trial_right_image,-1,exp1.png,2,exp1.png,exp2.png,1,1,non-reversed,correct,0.25864238061832134,1,valid_win,21.39099439990241,3,,,,,,,,,,,,,,,sub_574,2024-01-08_08h44.13.533,Reversal,2023.1.3,60.025450803250514,2,
3,exp3.png,exp4.png,,0,0,0,0,0,3,3,3,,,,,,,,,,,,,,,,,,,,,,,,,False,3,4,False,exp3.png,exp4.png,trial_right_image,-1,exp4.png,2,exp3.png,exp4.png,0,4,reversed,incorrect,0.7673805803922467,0,valid_lose,28.87223619990982,3,,,,,,,,,,,,,,,sub_574,2024-01-08_08h44.13.533,Reversal,2023.1.3,60.025450803250514,2,
4,exp1.png,exp2.png,,0,0,0,0,0,4,4,4,,,,,,,,,,,,,,,,,,,,,,,,,False,4,5,True,exp2.png,exp1.png,trial_right_image,-1,exp1.png,2,exp1.png,exp2.png,1,1,non-reversed,correct,0.09492951086060597,0,invalid_lose,34.586373599944636,3,,,,,,,,,,,,,,,sub_574,2024-01-08_08h44.13.533,Reversal,2023.1.3,60.025450803250514,2,
5,exp3.png,exp4.png,,0,0,0,0,0,5,5,5,,,,,,,,,,,,,,,,,,,,,,,,,False,5,6,False,exp3.png,exp4.png,trial_left_image,1,exp3.png,2,exp3.png,exp4.png,1,3,reversed,correct,0.5144729508868234,1,valid_win,39.68485969991889,4,,,,,,,,,,,,,,,sub_574,2024-01-08_08h44.13.533,Reversal,2023.1.3,60.025450803250514,2,
6,exp1.png,exp2.png,,0,0,0,0,0,6,6,6,,,,,,,,,,,,,,,,,,,,,,,,,False,6,7,True,exp2.png,exp1.png,trial_right_image,-1,exp1.png,2,exp1.png,exp2.png,1,1,non-reversed,correct,0.8672563162392064,1,valid_win,45.56638550001662,5,,,,,,,,,,,,,,,sub_574,2024-01-08_08h44.13.533,Reversal,2023.1.3,60.025450803250514,2,
7,exp3.png,exp4.png,,0,0,0,0,0,7,7,7,,,,,,,,,,,,,,,,,,,,,,,,,False,7,8,False,exp3.png,exp4.png,trial_left_image,1,exp3.png,2,exp3.png,exp4.png,1,3,reversed,correct,0.3619538411756016,1,valid_win,50.89781829994172,6,,,,,,,,,,,,,,,sub_574,2024-01-08_08h44.13.533,Reversal,2023.1.3,60.025450803250514,2,
8,exp1.png,exp2.png,,0,0,0,0,0,8,8,8,,,,,,,,,,,,,,,,,,,,,,,,,False,8,9,True,exp2.png,exp1.png,trial_right_image,-1,exp1.png,2,exp1.png,exp2.png,1,1,non-reversed,correct,0.3822724944312764,1,valid_win,56.57966889999807,7,,,,,,,,,,,,,,,sub_574,2024-01-08_08h44.13.533,Reversal,2023.1.3,60.025450803250514,2,
9,exp3.png,exp4.png,,0,0,0,0,0,9,9,9,,,,,,,,,,,,,,,,,,,,,,,,,False,9,10,False,exp3.png,exp4.png,trial_left_image,1,exp3.png,2,exp3.png,exp4.png,1,3,reversed,correct,0.610174398264646,1,valid_win,62.910557899973355,8,,,,,,,,,,,,,,,sub_574,2024-01-08_08h44.13.533,Reversal,2023.1.3,60.025450803250514,2,
10,exp1.png,exp2.png,,0,0,0,0,0,10,10,10,,,,,,,,,,,,,,,,,,,,,,,,,False,10,11,False,exp1.png,exp2.png,trial_left_image,1,exp1.png,2,exp1.png,exp2.png,1,1,non-reversed,correct,0.8840980518906109,1,valid_win,68.65842639992479,9,,,,,,,,,,,,,,,sub_574,2024-01-08_08h44.13.533,Reversal,2023.1.3,60.025450803250514,2,
11,exp3.png,exp4.png,,0,0,0,0,0,11,11,11,,,,,,,,,,,,,,,,,,,,,,,,,False,11,12,False,exp3.png,exp4.png,trial_left_image,1,exp3.png,2,exp3.png,exp4.png,1,3,reversed,correct,0.25844241665242595,1,valid_win,74.53984889993444,10,,,,,,,,,,,,,,,sub_574,2024-01-08_08h44.13.533,Reversal,2023.1.3,60.025450803250514,2,
12,exp1.png,exp2.png,,0,0,0,0,0,12,12,12,,,,,,,,,,,,,,,,,,,,,,,,,False,12,13,False,exp1.png,exp2.png,trial_left_image,1,exp1.png,2,exp1.png,exp2.png,1,1,non-reversed,correct,0.3783640811005886,1,valid_win,80.63775240001269,11,,,,,,,,,,,,,,,sub_574,2024-01-08_08h44.13.533,Reversal,2023.1.3,60.025450803250514,2,
13,exp3.png,exp4.png,,0,0,0,0,0,13,13,13,,,,,,,,,,,,,,,,,,,,,,,,,False,13,14,True,exp4.png,exp3.png,trial_right_image,-1,exp3.png,2,exp3.png,exp4.png,1,3,reversed,correct,0.10167824428584249,0,invalid_lose,87.43540929991286,11,,,,,,,,,,,,,,,sub_574,2024-01-08_08h44.13.533,Reversal,2023.1.3,60.025450803250514,2,
14,exp1.png,exp2.png,,0,0,0,0,0,14,14,14,,,,,,,,,,,,,,,,,,,,,,,,,False,14,15,True,exp2.png,exp1.png,trial_right_image,-1,exp1.png,2,exp1.png,exp2.png,1,1,non-reversed,correct,0.23115965996254506,0,invalid_lose,94.26736479997635,11,,,,,,,,,,,,,,,sub_574,2024-01-08_08h44.13.533,Reversal,2023.1.3,60.025450803250514,2,
15,exp3.png,exp4.png,,0,0,0,0,0,15,15,15,,,,,,,,,,,,,,,,,,,,,,,,,False,15,16,False,exp3.png,exp4.png,trial_right_image,-1,exp4.png,2,exp3.png,exp4.png,0,4,reversed,incorrect,0.8839956118650648,0,valid_lose,101.26445919997059,11,,,,,,,,,,,,,,,sub_574,2024-01-08_08h44.13.533,Reversal,2023.1.3,60.025450803250514,2,
16,exp1.png,exp2.png,,0,0,0,0,0,16,16,16,,,,,,,,,,,,,,,,,,,,,,,,,False,16,17,True,exp2.png,exp1.png,trial_right_image,-1,exp1.png,2,exp1.png,exp2.png,1,1,non-reversed,correct,0.6565172221660245,1,valid_win,107.51242259994615,12,,,,,,,,,,,,,,,sub_574,2024-01-08_08h44.13.533,Reversal,2023.1.3,60.025450803250514,2,
17,exp3.png,exp4.png,,0,0,0,0,0,17,17,17,,,,,,,,,,,,,,,,,,,,,,,,,False,17,18,False,exp3.png,exp4.png,trial_right_image,-1,exp4.png,2,exp3.png,exp4.png,0,4,reversed,incorrect,0.979476356493633,0,valid_lose,113.22687229991425,12,,,,,,,,,,,,,,,sub_574,2024-01-08_08h44.13.533,Reversal,2023.1.3,60.025450803250514,2,
18,exp1.png,exp2.png,,0,0,0,0,0,18,18,18,,,,,,,,,,,,,,,,,,,,,,,,,False,18,19,True,exp2.png,exp1.png,trial_right_image,-1,exp1.png,2,exp1.png,exp2.png,1,1,non-reversed,correct,0.2715711150192983,1,valid_win,119.37468319991603,13,,,,,,,,,,,,,,,sub_574,2024-01-08_08h44.13.533,Reversal,2023.1.3,60.025450803250514,2,
19,exp3.png,exp4.png,,0,0,0,0,0,19,19,19,,,,,,,,,,,,,,,,,,,,,,,,,False,19,20,True,exp4.png,exp3.png,trial_right_image,-1,exp3.png,2,exp3.png,exp4.png,1,3,reversed,correct,0.4207951978962249,1,valid_win,126.32261249993462,14,,,,,,,,,,,,,,,sub_574,2024-01-08_08h44.13.533,Reversal,2023.1.3,60.025450803250514,2,
20,exp1.png,exp2.png,,0,0,0,0,0,20,20,20,,,,,,,,,,,,,,,,,,,,,,,,,True,,,,,,,,,,,,,,,,,,,,,,,,,,,,,,,,,,,sub_574,2024-01-08_08h44.13.533,Reversal,2023.1.3,60.025450803250514,2,
,,,exp1.png,0,0,0,0,,,,,0,0,0,0,0,0,0,0,,,,,,,,,,,,,,,,,,,,,,,,,,,,,,,,,,,,,,202.73988569993526,94.0,94.0,7.804359500063583,"[(94.0, 7.804359500063583)]",,,,,,,,,,sub_574,2024-01-08_08h44.13.533,Reversal,2023.1.3,60.025450803250514,2,
,,,exp2.png,0,0,0,0,,,,,0,0,0,0,0,1,1,1,,,,,,,,,,,,,,,,,,,,,,,,,,,,,,,,,,,,,,212.55803349998314,,7.0,4.6583358000498265,"[(17.0, 3.691738700028509), (15.0, 3.924613400013186), (7.0, 4.6583358000498265)]",7.0,,,,,,,,,sub_574,2024-01-08_08h44.13.533,Reversal,2023.1.3,60.025450803250514,2,
,,,exp3.png,0,0,0,0,,,,,0,0,0,0,0,2,2,2,,,,,,,,,,,,,,,,,,,,,,,,,,,,,,,,,,,,,,218.5564850999508,,95.0,3.4593307999894023,"[(60.0, 2.7746499000350013), (95.0, 3.4593307999894023)]",,95.0,,,,,,,,sub_574,2024-01-08_08h44.13.533,Reversal,2023.1.3,60.025450803250514,2,
,,,exp4.png,0,0,0,0,,,,,0,0,0,0,0,3,3,3,,,,,,,,,,,,,,,,,,,,,,,,,,,,,,,,,,,,,,223.05853849998675,,90.0,3.60805350006558,"[(90.0, 3.60805350006558)]",,,90.0,,,,,,,sub_574,2024-01-08_08h44.13.533,Reversal,2023.1.3,60.025450803250514,2,
0,exp1.png,exp2.png,,1,0,1,0,0,0,0,0,,,,,,,,,,,,,,,,,,,,,,,,,False,20,21,True,exp2.png,exp1.png,trial_right_image,-1,exp1.png,2,exp1.png,exp2.png,1,1,non-reversed,correct,0.21675727293237923,0,invalid_lose,157.07880609994754,14,,,,,,,,,,,,,,,sub_574,2024-01-08_08h44.13.533,Reversal,2023.1.3,60.025450803250514,2,
1,exp3.png,exp4.png,,1,0,1,0,0,1,1,1,,,,,,,,,,,,,,,,,,,,,,,,,False,21,22,True,exp4.png,exp3.png,trial_left_image,1,exp4.png,2,exp3.png,exp4.png,0,4,reversed,incorrect,0.659779849213211,0,valid_lose,166.3925380000146,14,,,,,,,,,,,,,,,sub_574,2024-01-08_08h44.13.533,Reversal,2023.1.3,60.025450803250514,2,
2,exp1.png,exp2.png,,1,0,1,0,0,2,2,2,,,,,,,,,,,,,,,,,,,,,,,,,False,22,23,True,exp2.png,exp1.png,trial_right_image,-1,exp1.png,2,exp1.png,exp2.png,1,1,non-reversed,correct,0.6228589705293793,1,valid_win,171.57390329998452,15,,,,,,,,,,,,,,,sub_574,2024-01-08_08h44.13.533,Reversal,2023.1.3,60.025450803250514,2,
3,exp3.png,exp4.png,,1,0,1,0,0,3,3,3,,,,,,,,,,,,,,,,,,,,,,,,,False,23,24,True,exp4.png,exp3.png,trial_right_image,-1,exp3.png,2,exp3.png,exp4.png,1,3,reversed,correct,0.9360799712124798,1,valid_win,177.00515390001237,16,,,,,,,,,,,,,,,sub_574,2024-01-08_08h44.13.533,Reversal,2023.1.3,60.025450803250514,2,
4,exp1.png,exp2.png,,1,0,1,0,0,4,4,4,,,,,,,,,,,,,,,,,,,,,,,,,False,24,25,True,exp2.png,exp1.png,trial_right_image,-1,exp1.png,2,exp1.png,exp2.png,1,1,non-reversed,correct,0.44495079398606563,1,valid_win,181.87111449998338,17,,,,,,,,,,,,,,,sub_574,2024-01-08_08h44.13.533,Reversal,2023.1.3,60.025450803250514,2,
5,exp3.png,exp4.png,,1,0,1,0,0,5,5,5,,,,,,,,,,,,,,,,,,,,,,,,,False,25,26,True,exp4.png,exp3.png,trial_right_image,-1,exp3.png,2,exp3.png,exp4.png,1,3,reversed,correct,0.8591241863391361,1,valid_win,186.36878609994892,18,,,,,,,,,,,,,,,sub_574,2024-01-08_08h44.13.533,Reversal,2023.1.3,60.025450803250514,2,
6,exp1.png,exp2.png,,1,0,1,0,0,6,6,6,,,,,,,,,,,,,,,,,,,,,,,,,False,26,27,False,exp1.png,exp2.png,trial_left_image,1,exp1.png,2,exp1.png,exp2.png,1,1,non-reversed,correct,0.9337419229742648,1,valid_win,191.05171069991775,19,,,,,,,,,,,,,,,sub_574,2024-01-08_08h44.13.533,Reversal,2023.1.3,60.025450803250514,2,
7,exp3.png,exp4.png,,1,0,1,0,0,7,7,7,,,,,,,,,,,,,,,,,,,,,,,,,False,27,28,False,exp3.png,exp4.png,trial_left_image,1,exp3.png,2,exp3.png,exp4.png,1,3,reversed,correct,0.8632771118116783,1,valid_win,195.83235559996683,20,,,,,,,,,,,,,,,sub_574,2024-01-08_08h44.13.533,Reversal,2023.1.3,60.025450803250514,2,
8,exp1.png,exp2.png,,1,0,1,0,0,8,8,8,,,,,,,,,,,,,,,,,,,,,,,,,False,28,29,False,exp1.png,exp2.png,trial_left_image,1,exp1.png,2,exp1.png,exp2.png,1,1,non-reversed,correct,0.6941106306939834,1,valid_win,201.4973451999249,21,,,,,,,,,,,,,,,sub_574,2024-01-08_08h44.13.533,Reversal,2023.1.3,60.025450803250514,2,
9,exp3.png,exp4.png,,1,0,1,0,0,9,9,9,,,,,,,,,,,,,,,,,,,,,,,,,False,29,30,False,exp3.png,exp4.png,trial_left_image,1,exp3.png,2,exp3.png,exp4.png,1,3,reversed,correct,0.3200889217683405,1,valid_win,206.2122134999372,22,,,,,,,,,,,,,,,sub_574,2024-01-08_08h44.13.533,Reversal,2023.1.3,60.025450803250514,2,
10,exp1.png,exp2.png,,1,0,1,0,0,10,10,10,,,,,,,,,,,,,,,,,,,,,,,,,False,30,31,True,exp2.png,exp1.png,trial_right_image,-1,exp1.png,2,exp1.png,exp2.png,1,1,non-reversed,correct,0.9924694603998502,1,valid_win,211.12705629994161,23,,,,,,,,,,,,,,,sub_574,2024-01-08_08h44.13.533,Reversal,2023.1.3,60.025450803250514,2,
11,exp3.png,exp4.png,,1,0,1,0,0,11,11,11,,,,,,,,,,,,,,,,,,,,,,,,,False,31,32,True,exp4.png,exp3.png,trial_right_image,-1,exp3.png,2,exp3.png,exp4.png,1,3,reversed,correct,0.9414591301155695,1,valid_win,217.008187099942,24,,,,,,,,,,,,,,,sub_574,2024-01-08_08h44.13.533,Reversal,2023.1.3,60.025450803250514,2,
12,exp1.png,exp2.png,,1,0,1,0,0,12,12,12,,,,,,,,,,,,,,,,,,,,,,,,,False,32,33,False,exp1.png,exp2.png,trial_left_image,1,exp1.png,2,exp1.png,exp2.png,1,1,non-reversed,correct,0.05743209210957012,0,invalid_lose,221.74020269990433,24,,,,,,,,,,,,,,,sub_574,2024-01-08_08h44.13.533,Reversal,2023.1.3,60.025450803250514,2,
13,exp3.png,exp4.png,,1,0,1,0,0,13,13,13,,,,,,,,,,,,,,,,,,,,,,,,,False,33,34,True,exp4.png,exp3.png,trial_left_image,1,exp4.png,2,exp3.png,exp4.png,0,4,reversed,incorrect,0.09253177730450879,1,invalid_win,226.97200519999024,25,,,,,,,,,,,,,,,sub_574,2024-01-08_08h44.13.533,Reversal,2023.1.3,60.025450803250514,2,
14,exp1.png,exp2.png,,1,0,1,0,0,14,14,14,,,,,,,,,,,,,,,,,,,,,,,,,False,34,35,True,exp2.png,exp1.png,trial_left_image,1,exp2.png,2,exp1.png,exp2.png,0,2,non-reversed,incorrect,0.8713607571517938,0,valid_lose,231.75399210001342,25,,,,,,,,,,,,,,,sub_574,2024-01-08_08h44.13.533,Reversal,2023.1.3,60.025450803250514,2,
15,exp3.png,exp4.png,,1,0,1,0,0,15,15,15,,,,,,,,,,,,,,,,,,,,,,,,,False,35,36,False,exp3.png,exp4.png,trial_left_image,1,exp3.png,2,exp3.png,exp4.png,1,3,reversed,correct,0.6079805160533249,1,valid_win,236.31873900000937,26,,,,,,,,,,,,,,,sub_574,2024-01-08_08h44.13.533,Reversal,2023.1.3,60.025450803250514,2,
16,exp1.png,exp2.png,,1,0,1,0,0,16,16,16,,,,,,,,,,,,,,,,,,,,,,,,,False,36,37,False,exp1.png,exp2.png,trial_left_image,1,exp1.png,2,exp1.png,exp2.png,1,1,non-reversed,correct,0.5843155738709053,1,valid_win,240.70021439995617,27,,,,,,,,,,,,,,,sub_574,2024-01-08_08h44.13.533,Reversal,2023.1.3,60.025450803250514,2,
17,exp3.png,exp4.png,,1,0,1,0,0,17,17,17,,,,,,,,,,,,,,,,,,,,,,,,,False,37,38,False,exp3.png,exp4.png,trial_left_image,1,exp3.png,2,exp3.png,exp4.png,1,3,reversed,correct,0.010219991120406835,0,invalid_lose,245.2655279999599,27,,,,,,,,,,,,,,,sub_574,2024-01-08_08h44.13.533,Reversal,2023.1.3,60.025450803250514,2,
18,exp1.png,exp2.png,,1,0,1,0,0,18,18,18,,,,,,,,,,,,,,,,,,,,,,,,,False,38,39,False,exp1.png,exp2.png,trial_right_image,-1,exp2.png,2,exp1.png,exp2.png,0,2,non-reversed,incorrect,0.5330019645215157,0,valid_lose,249.51438159996178,27,,,,,,,,,,,,,,,sub_574,2024-01-08_08h44.13.533,Reversal,2023.1.3,60.025450803250514,2,
19,exp3.png,exp4.png,,1,0,1,0,0,19,19,19,,,,,,,,,,,,,,,,,,,,,,,,,False,39,40,False,exp3.png,exp4.png,trial_right_image,-1,exp4.png,2,exp3.png,exp4.png,0,4,reversed,incorrect,0.44989069540989424,0,valid_lose,254.1793072000146,27,,,,,,,,,,,,,,,sub_574,2024-01-08_08h44.13.533,Reversal,2023.1.3,60.025450803250514,2,
20,exp1.png,exp2.png,,1,0,1,0,0,20,20,20,,,,,,,,,,,,,,,,,,,,,,,,,True,,,,,,,,,,,,,,,,,,,,,,,,,,,,,,,,,,,sub_574,2024-01-08_08h44.13.533,Reversal,2023.1.3,60.025450803250514,2,
,,,exp1.png,1,0,1,0,,,,,0,0,0,0,0,0,0,0,,,,,,,,,,,,,,,,,,,,,,,,,,,,,,,,,,,,,,330.59499410004355,93.0,93.0,5.185116099892184,"[(86.0, 3.6363058999413624), (93.0, 5.185116099892184)]",,,,,,,,,,sub_574,2024-01-08_08h44.13.533,Reversal,2023.1.3,60.025450803250514,2,
,,,exp2.png,1,0,1,0,,,,,0,0,0,0,0,1,1,1,,,,,,,,,,,,,,,,,,,,,,,,,,,,,,,,,,,,,,337.18222419999074,,25.0,7.675349500030279,"[(49.0, 5.358086400083266), (25.0, 7.675349500030279)]",25.0,,,,,,,,,sub_574,2024-01-08_08h44.13.533,Reversal,2023.1.3,60.025450803250514,2,
,,,exp3.png,1,0,1,0,,,,,0,0,0,0,0,2,2,2,,,,,,,,,,,,,,,,,,,,,,,,,,,,,,,,,,,,,,345.97957840003073,,91.0,6.1596570000983775,"[(91.0, 6.1596570000983775)]",,91.0,,,,,,,,sub_574,2024-01-08_08h44.13.533,Reversal,2023.1.3,60.025450803250514,2,
,,,exp4.png,1,0,1,0,,,,,0,0,0,0,0,3,3,3,,,,,,,,,,,,,,,,,,,,,,,,,,,,,,,,,,,,,,353.3120455000317,,30.0,2.260427200002596,"[(30.0, 2.260427200002596)]",,,30.0,,,,,,,sub_574,2024-01-08_08h44.13.533,Reversal,2023.1.3,60.025450803250514,2,
0,exp1.png,exp2.png,,2,0,2,0,0,0,0,0,,,,,,,,,,,,,,,,,,,,,,,,,False,40,41,True,exp2.png,exp1.png,trial_left_image,1,exp2.png,2,exp1.png,exp2.png,0,2,non-reversed,incorrect,0.730264379995757,0,valid_lose,285.18545489991084,27,,,,,,,,,,,,,,,sub_574,2024-01-08_08h44.13.533,Reversal,2023.1.3,60.025450803250514,2,
1,exp3.png,exp4.png,,2,0,2,0,0,1,1,1,,,,,,,,,,,,,,,,,,,,,,,,,False,41,42,False,exp3.png,exp4.png,trial_left_image,1,exp3.png,2,exp3.png,exp4.png,1,3,reversed,correct,0.950757479004117,1,valid_win,289.85071759996936,28,,,,,,,,,,,,,,,sub_574,2024-01-08_08h44.13.533,Reversal,2023.1.3,60.025450803250514,2,
2,exp1.png,exp2.png,,2,0,2,0,0,2,2,2,,,,,,,,,,,,,,,,,,,,,,,,,False,42,43,True,exp2.png,exp1.png,trial_right_image,-1,exp1.png,2,exp1.png,exp2.png,1,1,non-reversed,correct,0.8336504623977385,1,valid_win,293.86627689993475,29,,,,,,,,,,,,,,,sub_574,2024-01-08_08h44.13.533,Reversal,2023.1.3,60.025450803250514,2,
3,exp3.png,exp4.png,,2,0,2,0,0,3,3,3,,,,,,,,,,,,,,,,,,,,,,,,,False,43,44,False,exp3.png,exp4.png,trial_left_image,1,exp3.png,2,exp3.png,exp4.png,1,3,reversed,correct,0.9480051084527822,1,valid_win,299.314214300015,30,,,,,,,,,,,,,,,sub_574,2024-01-08_08h44.13.533,Reversal,2023.1.3,60.025450803250514,2,
4,exp1.png,exp2.png,,2,0,2,0,0,4,4,4,,,,,,,,,,,,,,,,,,,,,,,,,False,44,45,False,exp1.png,exp2.png,trial_left_image,1,exp1.png,2,exp1.png,exp2.png,1,1,non-reversed,correct,0.3295219544205249,1,valid_win,303.67934969998896,31,,,,,,,,,,,,,,,sub_574,2024-01-08_08h44.13.533,Reversal,2023.1.3,60.025450803250514,2,
5,exp3.png,exp4.png,,2,0,2,0,0,5,5,5,,,,,,,,,,,,,,,,,,,,,,,,,False,45,46,False,exp3.png,exp4.png,trial_left_image,1,exp3.png,2,exp3.png,exp4.png,1,3,reversed,correct,0.7692368654392598,1,valid_win,307.9286134999711,32,,,,,,,,,,,,,,,sub_574,2024-01-08_08h44.13.533,Reversal,2023.1.3,60.025450803250514,2,
6,exp1.png,exp2.png,,2,0,2,0,0,6,6,6,,,,,,,,,,,,,,,,,,,,,,,,,False,46,47,True,exp2.png,exp1.png,trial_left_image,1,exp2.png,2,exp1.png,exp2.png,0,2,non-reversed,incorrect,0.030512592024504515,1,invalid_win,312.5599186999025,33,,,,,,,,,,,,,,,sub_574,2024-01-08_08h44.13.533,Reversal,2023.1.3,60.025450803250514,2,
7,exp3.png,exp4.png,,2,0,2,0,0,7,7,7,,,,,,,,,,,,,,,,,,,,,,,,,False,47,48,True,exp4.png,exp3.png,trial_left_image,1,exp4.png,2,exp3.png,exp4.png,0,4,reversed,incorrect,0.5580214397023792,0,valid_lose,317.1248174000066,33,,,,,,,,,,,,,,,sub_574,2024-01-08_08h44.13.533,Reversal,2023.1.3,60.025450803250514,2,
8,exp1.png,exp2.png,,2,0,2,0,0,8,8,8,,,,,,,,,,,,,,,,,,,,,,,,,False,48,49,False,exp1.png,exp2.png,trial_left_image,1,exp1.png,2,exp1.png,exp2.png,1,1,non-reversed,correct,0.8608273120062275,1,valid_win,321.47342039993964,34,,,,,,,,,,,,,,,sub_574,2024-01-08_08h44.13.533,Reversal,2023.1.3,60.025450803250514,2,
9,exp3.png,exp4.png,,2,0,2,0,0,9,9,9,,,,,,,,,,,,,,,,,,,,,,,,,False,49,50,True,exp4.png,exp3.png,trial_left_image,1,exp4.png,2,exp3.png,exp4.png,0,4,reversed,incorrect,0.8364225437110233,0,valid_lose,326.3050857000053,34,,,,,,,,,,,,,,,sub_574,2024-01-08_08h44.13.533,Reversal,2023.1.3,60.025450803250514,2,
10,exp1.png,exp2.png,,2,0,2,0,0,10,10,10,,,,,,,,,,,,,,,,,,,,,,,,,False,50,51,True,exp2.png,exp1.png,trial_right_image,-1,exp1.png,2,exp1.png,exp2.png,1,1,non-reversed,correct,0.23469409036948707,0,invalid_lose,330.6041788000148,34,,,,,,,,,,,,,,,sub_574,2024-01-08_08h44.13.533,Reversal,2023.1.3,60.025450803250514,2,
11,exp3.png,exp4.png,,2,0,2,0,0,11,11,11,,,,,,,,,,,,,,,,,,,,,,,,,False,51,52,True,exp4.png,exp3.png,trial_right_image,-1,exp3.png,2,exp3.png,exp4.png,1,3,reversed,correct,0.3159631040025398,1,valid_win,335.2356784999138,35,,,,,,,,,,,,,,,sub_574,2024-01-08_08h44.13.533,Reversal,2023.1.3,60.025450803250514,2,
12,exp1.png,exp2.png,,2,0,2,0,0,12,12,12,,,,,,,,,,,,,,,,,,,,,,,,,False,52,53,True,exp2.png,exp1.png,trial_left_image,1,exp2.png,2,exp1.png,exp2.png,0,2,non-reversed,incorrect,0.5773380478961055,0,valid_lose,339.7340988999931,35,,,,,,,,,,,,,,,sub_574,2024-01-08_08h44.13.533,Reversal,2023.1.3,60.025450803250514,2,
13,exp3.png,exp4.png,,2,0,2,0,0,13,13,13,,,,,,,,,,,,,,,,,,,,,,,,,False,53,54,False,exp3.png,exp4.png,trial_left_image,1,exp3.png,2,exp3.png,exp4.png,1,3,reversed,correct,0.14144653779066618,0,invalid_lose,344.0506564999232,35,,,,,,,,,,,,,,,sub_574,2024-01-08_08h44.13.533,Reversal,2023.1.3,60.025450803250514,2,
14,exp1.png,exp2.png,,2,0,2,0,0,14,14,14,,,,,,,,,,,,,,,,,,,,,,,,,False,54,55,False,exp1.png,exp2.png,trial_left_image,1,exp1.png,2,exp1.png,exp2.png,1,1,non-reversed,correct,0.14777990969106214,0,invalid_lose,348.36410539993085,35,,,,,,,,,,,,,,,sub_574,2024-01-08_08h44.13.533,Reversal,2023.1.3,60.025450803250514,2,
15,exp3.png,exp4.png,,2,0,2,0,0,15,15,15,,,,,,,,,,,,,,,,,,,,,,,,,False,55,56,True,exp4.png,exp3.png,trial_right_image,-1,exp3.png,2,exp3.png,exp4.png,1,3,reversed,correct,0.3098302017936516,1,valid_win,352.7795241000131,36,,,,,,,,,,,,,,,sub_574,2024-01-08_08h44.13.533,Reversal,2023.1.3,60.025450803250514,2,
16,exp1.png,exp2.png,,2,0,2,0,0,16,16,16,,,,,,,,,,,,,,,,,,,,,,,,,False,56,57,False,exp1.png,exp2.png,trial_left_image,1,exp1.png,2,exp1.png,exp2.png,1,1,non-reversed,correct,0.3454358809447442,1,valid_win,357.26107699994463,37,,,,,,,,,,,,,,,sub_574,2024-01-08_08h44.13.533,Reversal,2023.1.3,60.025450803250514,2,
17,exp3.png,exp4.png,,2,0,2,0,0,17,17,17,,,,,,,,,,,,,,,,,,,,,,,,,False,57,58,True,exp4.png,exp3.png,trial_right_image,-1,exp3.png,2,exp3.png,exp4.png,1,3,reversed,correct,0.4478945672363235,1,valid_win,362.29304779996164,38,,,,,,,,,,,,,,,sub_574,2024-01-08_08h44.13.533,Reversal,2023.1.3,60.025450803250514,2,
18,exp1.png,exp2.png,,2,0,2,0,0,18,18,18,,,,,,,,,,,,,,,,,,,,,,,,,False,58,59,False,exp1.png,exp2.png,trial_right_image,-1,exp2.png,2,exp1.png,exp2.png,0,2,non-reversed,incorrect,0.25611061101009425,0,valid_lose,366.9415522000054,38,,,,,,,,,,,,,,,sub_574,2024-01-08_08h44.13.533,Reversal,2023.1.3,60.025450803250514,2,
19,exp3.png,exp4.png,,2,0,2,0,0,19,19,19,,,,,,,,,,,,,,,,,,,,,,,,,False,59,60,False,exp3.png,exp4.png,trial_left_image,1,exp3.png,2,exp3.png,exp4.png,1,3,reversed,correct,0.8216283310590208,1,valid_win,372.02303759998176,39,,,,,,,,,,,,,,,sub_574,2024-01-08_08h44.13.533,Reversal,2023.1.3,60.025450803250514,2,
20,exp1.png,exp2.png,,2,0,2,0,0,20,20,20,,,,,,,,,,,,,,,,,,,,,,,,,True,,,,,,,,,,,,,,,,,,,,,,,,,,,,,,,,,,,sub_574,2024-01-08_08h44.13.533,Reversal,2023.1.3,60.025450803250514,2,
,,,exp1.png,2,0,2,0,,,,,0,0,0,0,0,0,0,0,,,,,,,,,,,,,,,,,,,,,,,,,,,,,,,,,,,,,,448.45009729999583,87.0,87.0,3.505201300024055,"[(87.0, 3.505201300024055)]",,,,,,,,,,sub_574,2024-01-08_08h44.13.533,Reversal,2023.1.3,60.025450803250514,2,
,,,exp2.png,2,0,2,0,,,,,0,0,0,0,0,1,1,1,,,,,,,,,,,,,,,,,,,,,,,,,,,,,,,,,,,,,,452.9255934000248,,29.0,1.5439513000892475,"[(29.0, 1.5439513000892475)]",29.0,,,,,,,,,sub_574,2024-01-08_08h44.13.533,Reversal,2023.1.3,60.025450803250514,2,
,,,exp3.png,2,0,2,0,,,,,0,0,0,0,0,2,2,2,,,,,,,,,,,,,,,,,,,,,,,,,,,,,,,,,,,,,,455.5578267000383,,78.0,1.6442507000174373,"[(78.0, 1.6442507000174373)]",,78.0,,,,,,,,sub_574,2024-01-08_08h44.13.533,Reversal,2023.1.3,60.025450803250514,2,
,,,exp4.png,2,0,2,0,,,,,0,0,0,0,0,3,3,3,,,,,,,,,,,,,,,,,,,,,,,,,,,,,,,,,,,,,,458.23955399997067,,28.0,1.2610827999887988,"[(28.0, 1.2610827999887988)]",,,28.0,,,,,,,sub_574,2024-01-08_08h44.13.533,Reversal,2023.1.3,60.025450803250514,2,
0,exp1.png,exp2.png,,3,0,3,0,0,0,0,0,,,,,,,,,,,,,,,,,,,,,,,,,False,60,61,False,exp1.png,exp2.png,trial_left_image,1,exp1.png,2,exp1.png,exp2.png,1,1,non-reversed,correct,0.14695140567882903,0,invalid_lose,390.2000297999475,39,,,,,,,,,,,,,,,sub_574,2024-01-08_08h44.13.533,Reversal,2023.1.3,60.025450803250514,2,
1,exp3.png,exp4.png,,3,0,3,0,0,1,1,1,,,,,,,,,,,,,,,,,,,,,,,,,False,61,62,False,exp3.png,exp4.png,trial_left_image,1,exp3.png,2,exp3.png,exp4.png,1,3,reversed,correct,0.17385041749317054,0,invalid_lose,394.3324779999675,39,,,,,,,,,,,,,,,sub_574,2024-01-08_08h44.13.533,Reversal,2023.1.3,60.025450803250514,2,
2,exp1.png,exp2.png,,3,0,3,0,0,2,2,2,,,,,,,,,,,,,,,,,,,,,,,,,False,62,63,True,exp2.png,exp1.png,trial_left_image,1,exp2.png,2,exp1.png,exp2.png,0,2,non-reversed,incorrect,0.0908235525551675,1,invalid_win,398.59736419992987,40,,,,,,,,,,,,,,,sub_574,2024-01-08_08h44.13.533,Reversal,2023.1.3,60.025450803250514,2,
3,exp3.png,exp4.png,,3,0,3,0,0,3,3,3,,,,,,,,,,,,,,,,,,,,,,,,,False,63,64,False,exp3.png,exp4.png,trial_right_image,-1,exp4.png,2,exp3.png,exp4.png,0,4,reversed,incorrect,0.052287408979897254,1,invalid_win,402.67959790001623,41,,,,,,,,,,,,,,,sub_574,2024-01-08_08h44.13.533,Reversal,2023.1.3,60.025450803250514,2,
4,exp1.png,exp2.png,,3,0,3,0,0,4,4,4,,,,,,,,,,,,,,,,,,,,,,,,,False,64,65,False,exp1.png,exp2.png,trial_right_image,-1,exp2.png,2,exp1.png,exp2.png,0,2,non-reversed,incorrect,0.6445536462515227,0,valid_lose,406.728197199991,41,,,,,,,,,,,,,,,sub_574,2024-01-08_08h44.13.533,Reversal,2023.1.3,60.025450803250514,2,
5,exp3.png,exp4.png,,3,0,3,0,0,5,5,5,,,,,,,,,,,,,,,,,,,,,,,,,False,65,66,True,exp4.png,exp3.png,trial_right_image,-1,exp3.png,2,exp3.png,exp4.png,1,3,reversed,correct,0.8553328418354189,1,valid_win,411.2097300000023,42,,,,,,,,,,,,,,,sub_574,2024-01-08_08h44.13.533,Reversal,2023.1.3,60.025450803250514,2,
6,exp1.png,exp2.png,,3,0,3,0,0,6,6,6,,,,,,,,,,,,,,,,,,,,,,,,,False,66,67,True,exp2.png,exp1.png,trial_left_image,1,exp2.png,2,exp1.png,exp2.png,0,2,non-reversed,incorrect,0.335294268538988,0,valid_lose,415.5422308999114,42,,,,,,,,,,,,,,,sub_574,2024-01-08_08h44.13.533,Reversal,2023.1.3,60.025450803250514,2,
7,exp3.png,exp4.png,,3,0,3,0,0,7,7,7,,,,,,,,,,,,,,,,,,,,,,,,,False,67,68,True,exp4.png,exp3.png,trial_right_image,-1,exp3.png,2,exp3.png,exp4.png,1,3,reversed,correct,0.44820096741961957,1,valid_win,419.973688500002,43,,,,,,,,,,,,,,,sub_574,2024-01-08_08h44.13.533,Reversal,2023.1.3,60.025450803250514,2,
8,exp1.png,exp2.png,,3,0,3,0,0,8,8,8,,,,,,,,,,,,,,,,,,,,,,,,,False,68,69,False,exp1.png,exp2.png,trial_right_image,-1,exp2.png,2,exp1.png,exp2.png,0,2,non-reversed,incorrect,0.7262364343842992,0,valid_lose,424.10533199994825,43,,,,,,,,,,,,,,,sub_574,2024-01-08_08h44.13.533,Reversal,2023.1.3,60.025450803250514,2,
9,exp3.png,exp4.png,,3,0,3,0,0,9,9,9,,,,,,,,,,,,,,,,,,,,,,,,,False,69,70,False,exp3.png,exp4.png,trial_left_image,1,exp3.png,2,exp3.png,exp4.png,1,3,reversed,correct,0.13023111494054884,0,invalid_lose,430.8366709999973,43,,,,,,,,,,,,,,,sub_574,2024-01-08_08h44.13.533,Reversal,2023.1.3,60.025450803250514,2,
10,exp1.png,exp2.png,,3,0,3,0,0,10,10,10,,,,,,,,,,,,,,,,,,,,,,,,,False,70,71,False,exp1.png,exp2.png,trial_left_image,1,exp1.png,2,exp1.png,exp2.png,1,1,non-reversed,correct,0.8367851360825339,1,valid_win,435.36855989997275,44,,,,,,,,,,,,,,,sub_574,2024-01-08_08h44.13.533,Reversal,2023.1.3,60.025450803250514,2,
11,exp3.png,exp4.png,,3,0,3,0,0,11,11,11,,,,,,,,,,,,,,,,,,,,,,,,,False,71,72,True,exp4.png,exp3.png,trial_left_image,1,exp4.png,2,exp3.png,exp4.png,0,4,reversed,incorrect,0.015487200792139721,1,invalid_win,439.5508795999922,45,,,,,,,,,,,,,,,sub_574,2024-01-08_08h44.13.533,Reversal,2023.1.3,60.025450803250514,2,
12,exp1.png,exp2.png,,3,0,3,0,0,12,12,12,,,,,,,,,,,,,,,,,,,,,,,,,False,72,73,True,exp2.png,exp1.png,trial_left_image,1,exp2.png,2,exp1.png,exp2.png,0,2,non-reversed,incorrect,0.14617931529150507,1,invalid_win,443.9825662999647,46,,,,,,,,,,,,,,,sub_574,2024-01-08_08h44.13.533,Reversal,2023.1.3,60.025450803250514,2,
13,exp3.png,exp4.png,,3,0,3,0,0,13,13,13,,,,,,,,,,,,,,,,,,,,,,,,,False,73,74,True,exp4.png,exp3.png,trial_left_image,1,exp4.png,2,exp3.png,exp4.png,0,4,reversed,incorrect,0.7354782740725501,0,valid_lose,448.1972772999434,46,,,,,,,,,,,,,,,sub_574,2024-01-08_08h44.13.533,Reversal,2023.1.3,60.025450803250514,2,
14,exp1.png,exp2.png,,3,0,3,0,0,14,14,14,,,,,,,,,,,,,,,,,,,,,,,,,False,74,75,False,exp1.png,exp2.png,trial_left_image,1,exp1.png,2,exp1.png,exp2.png,1,1,non-reversed,correct,0.949435387830698,1,valid_win,452.46285299991723,47,,,,,,,,,,,,,,,sub_574,2024-01-08_08h44.13.533,Reversal,2023.1.3,60.025450803250514,2,
15,exp3.png,exp4.png,,3,0,3,0,0,15,15,15,,,,,,,,,,,,,,,,,,,,,,,,,False,75,76,True,exp4.png,exp3.png,trial_left_image,1,exp4.png,2,exp3.png,exp4.png,0,4,reversed,incorrect,0.7947783625576706,0,valid_lose,456.96111039991956,47,,,,,,,,,,,,,,,sub_574,2024-01-08_08h44.13.533,Reversal,2023.1.3,60.025450803250514,2,
16,exp1.png,exp2.png,,3,0,3,0,0,16,16,16,,,,,,,,,,,,,,,,,,,,,,,,,False,76,77,False,exp1.png,exp2.png,trial_right_image,-1,exp2.png,2,exp1.png,exp2.png,0,2,non-reversed,incorrect,0.8383020958266223,0,valid_lose,462.12592089991085,47,,,,,,,,,,,,,,,sub_574,2024-01-08_08h44.13.533,Reversal,2023.1.3,60.025450803250514,2,
17,exp3.png,exp4.png,,3,0,3,0,0,17,17,17,,,,,,,,,,,,,,,,,,,,,,,,,False,77,78,False,exp3.png,exp4.png,trial_left_image,1,exp3.png,2,exp3.png,exp4.png,1,3,reversed,correct,0.28683246966567477,1,valid_win,466.4248049999587,48,,,,,,,,,,,,,,,sub_574,2024-01-08_08h44.13.533,Reversal,2023.1.3,60.025450803250514,2,
18,exp1.png,exp2.png,,3,0,3,0,0,18,18,18,,,,,,,,,,,,,,,,,,,,,,,,,False,78,79,True,exp2.png,exp1.png,trial_right_image,-1,exp1.png,2,exp1.png,exp2.png,1,1,non-reversed,correct,0.5648972518512628,1,valid_win,471.98950149992015,49,,,,,,,,,,,,,,,sub_574,2024-01-08_08h44.13.533,Reversal,2023.1.3,60.025450803250514,2,
19,exp3.png,exp4.png,,3,0,3,0,0,19,19,19,,,,,,,,,,,,,,,,,,,,,,,,,False,79,80,True,exp4.png,exp3.png,trial_left_image,1,exp4.png,2,exp3.png,exp4.png,0,4,reversed,incorrect,0.3744945439755558,0,valid_lose,477.6041385999415,49,,,,,,,,,,,,,,,sub_574,2024-01-08_08h44.13.533,Reversal,2023.1.3,60.025450803250514,2,
20,exp1.png,exp2.png,,3,0,3,0,0,20,20,20,,,,,,,,,,,,,,,,,,,,,,,,,True,,,,,,,,,,,,,,,,,,,,,,,,,,,,,,,,,,,sub_574,2024-01-08_08h44.13.533,Reversal,2023.1.3,60.025450803250514,2,
,,,exp1.png,3,0,3,0,,,,,0,0,0,0,0,0,0,0,,,,,,,,,,,,,,,,,,,,,,,,,,,,,,,,,,,,,,554.0349302999675,,None,None,[],,,,,,,,,,sub_574,2024-01-08_08h44.13.533,Reversal,2023.1.3,60.025450803250514,2,
,,,exp2.png,3,0,3,0,,,,,0,0,0,0,0,1,1,1,,,,,,,,,,,,,,,,,,,,,,,,,,,,,,,,,,,,,,557.9082459999481,,None,None,[],,,,,,,,,,sub_574,2024-01-08_08h44.13.533,Reversal,2023.1.3,60.025450803250514,2,
,,,exp3.png,3,0,3,0,,,,,0,0,0,0,0,2,2,2,,,,,,,,,,,,,,,,,,,,,,,,,,,,,,,,,,,,,,559.9381793999346,,None,None,[],,,,,,,,,,sub_574,2024-01-08_08h44.13.533,Reversal,2023.1.3,60.025450803250514,2,
,,,exp4.png,3,0,3,0,,,,,0,0,0,0,0,3,3,3,,,,,,,,,,,,,,,,,,,,,,,,,,,,,,,,,,,,,,561.0249338999856,,None,None,[],,,,,,,,,,sub_574,2024-01-08_08h44.13.533,Reversal,2023.1.3,60.025450803250514,2,
0,exp1.png,exp2.png,,,,,,,,,,,,,,,,,,0,0,0,0,0,0,0,0,,,,,,,,,False,0,81,False,exp1.png,exp2.png,trial_left_image,1,exp1.png,2,exp1.png,exp2.png,1,1,non-reversed,correct,0.09834660390465522,0,invalid_lose,493.71555540000554,49,,,,,,,,,488.1724256000016,,,,,,sub_574,2024-01-08_08h44.13.533,Reversal,2023.1.3,60.025450803250514,2,
1,exp3.png,exp4.png,,,,,,,,,,,,,,,,,,0,0,0,0,0,1,1,1,,,,,,,,,False,1,82,True,exp4.png,exp3.png,trial_right_image,-1,exp3.png,2,exp4.png,exp3.png,1,3,reversed,incorrect,0.5421923702785699,0,valid_lose,499.2969580999343,49,,,,,,,,,,,,,,,sub_574,2024-01-08_08h44.13.533,Reversal,2023.1.3,60.025450803250514,2,
2,exp1.png,exp2.png,,,,,,,,,,,,,,,,,,0,0,0,0,0,2,2,2,,,,,,,,,False,2,83,True,exp2.png,exp1.png,trial_left_image,1,exp2.png,2,exp1.png,exp2.png,0,2,non-reversed,incorrect,0.7870454466327567,0,valid_lose,503.57863609993365,49,,,,,,,,,,,,,,,sub_574,2024-01-08_08h44.13.533,Reversal,2023.1.3,60.025450803250514,2,
3,exp3.png,exp4.png,,,,,,,,,,,,,,,,,,0,0,0,0,0,3,3,3,,,,,,,,,False,3,84,False,exp3.png,exp4.png,trial_right_image,-1,exp4.png,2,exp4.png,exp3.png,0,4,reversed,correct,0.9938368110910764,1,valid_win,508.1111180000007,50,,,,,,,,,,,,,,,sub_574,2024-01-08_08h44.13.533,Reversal,2023.1.3,60.025450803250514,2,
4,exp1.png,exp2.png,,,,,,,,,,,,,,,,,,0,0,0,0,0,4,4,4,,,,,,,,,False,4,85,True,exp2.png,exp1.png,trial_left_image,1,exp2.png,2,exp1.png,exp2.png,0,2,non-reversed,incorrect,0.5913104893675086,0,valid_lose,512.5924449999584,50,,,,,,,,,,,,,,,sub_574,2024-01-08_08h44.13.533,Reversal,2023.1.3,60.025450803250514,2,
5,exp3.png,exp4.png,,,,,,,,,,,,,,,,,,0,0,0,0,0,5,5,5,,,,,,,,,False,5,86,False,exp3.png,exp4.png,trial_left_image,1,exp3.png,2,exp4.png,exp3.png,1,3,reversed,incorrect,0.8835138680561233,0,valid_lose,517.3078188999789,50,,,,,,,,,,,,,,,sub_574,2024-01-08_08h44.13.533,Reversal,2023.1.3,60.025450803250514,2,
6,exp1.png,exp2.png,,,,,,,,,,,,,,,,,,0,0,0,0,0,6,6,6,,,,,,,,,False,6,87,True,exp2.png,exp1.png,trial_right_image,-1,exp1.png,2,exp1.png,exp2.png,1,1,non-reversed,correct,0.5759818180285876,1,valid_win,522.1389317999128,51,,,,,,,,,,,,,,,sub_574,2024-01-08_08h44.13.533,Reversal,2023.1.3,60.025450803250514,2,
7,exp3.png,exp4.png,,,,,,,,,,,,,,,,,,0,0,0,0,0,7,7,7,,,,,,,,,False,7,88,True,exp4.png,exp3.png,trial_left_image,1,exp4.png,2,exp4.png,exp3.png,0,4,reversed,correct,0.2867617348725755,1,valid_win,526.7373882000102,52,,,,,,,,,,,,,,,sub_574,2024-01-08_08h44.13.533,Reversal,2023.1.3,60.025450803250514,2,
8,exp1.png,exp2.png,,,,,,,,,,,,,,,,,,0,0,0,0,0,8,8,8,,,,,,,,,False,8,89,False,exp1.png,exp2.png,trial_right_image,-1,exp2.png,2,exp1.png,exp2.png,0,2,non-reversed,incorrect,0.11913733803279158,1,invalid_win,530.7863630999345,53,,,,,,,,,,,,,,,sub_574,2024-01-08_08h44.13.533,Reversal,2023.1.3,60.025450803250514,2,
9,exp3.png,exp4.png,,,,,,,,,,,,,,,,,,0,0,0,0,0,9,9,9,,,,,,,,,False,9,90,False,exp3.png,exp4.png,trial_right_image,-1,exp4.png,2,exp4.png,exp3.png,0,4,reversed,correct,0.9119855988549143,1,valid_win,535.7679294999689,54,,,,,,,,,,,,,,,sub_574,2024-01-08_08h44.13.533,Reversal,2023.1.3,60.025450803250514,2,
10,exp1.png,exp2.png,,,,,,,,,,,,,,,,,,0,0,0,0,0,10,10,10,,,,,,,,,False,10,91,True,exp2.png,exp1.png,trial_right_image,-1,exp1.png,2,exp1.png,exp2.png,1,1,non-reversed,correct,0.271312014217314,1,valid_win,540.7661871999735,55,,,,,,,,,,,,,,,sub_574,2024-01-08_08h44.13.533,Reversal,2023.1.3,60.025450803250514,2,
11,exp3.png,exp4.png,,,,,,,,,,,,,,,,,,0,0,0,0,0,11,11,11,,,,,,,,,False,11,92,True,exp4.png,exp3.png,trial_left_image,1,exp4.png,2,exp4.png,exp3.png,0,4,reversed,correct,0.9581832902279204,1,valid_win,545.1648960999446,56,,,,,,,,,,,,,,,sub_574,2024-01-08_08h44.13.533,Reversal,2023.1.3,60.025450803250514,2,
12,exp1.png,exp2.png,,,,,,,,,,,,,,,,,,0,0,0,0,0,12,12,12,,,,,,,,,False,12,93,False,exp1.png,exp2.png,trial_left_image,1,exp1.png,2,exp1.png,exp2.png,1,1,non-reversed,correct,0.7742466436679042,1,valid_win,551.7292573999148,57,,,,,,,,,,,,,,,sub_574,2024-01-08_08h44.13.533,Reversal,2023.1.3,60.025450803250514,2,
13,exp3.png,exp4.png,,,,,,,,,,,,,,,,,,0,0,0,0,0,13,13,13,,,,,,,,,False,13,94,True,exp4.png,exp3.png,trial_left_image,1,exp4.png,2,exp4.png,exp3.png,0,4,reversed,correct,0.7812616621203975,1,valid_win,556.9948444999754,58,,,,,,,,,,,,,,,sub_574,2024-01-08_08h44.13.533,Reversal,2023.1.3,60.025450803250514,2,
14,exp1.png,exp2.png,,,,,,,,,,,,,,,,,,0,0,0,0,0,14,14,14,,,,,,,,,False,14,95,True,exp2.png,exp1.png,trial_right_image,-1,exp1.png,2,exp1.png,exp2.png,1,1,non-reversed,correct,0.008634178353636335,0,invalid_lose,561.7761521999491,58,,,,,,,,,,,,,,,sub_574,2024-01-08_08h44.13.533,Reversal,2023.1.3,60.025450803250514,2,
15,exp3.png,exp4.png,,,,,,,,,,,,,,,,,,0,0,0,0,0,15,15,15,,,,,,,,,False,15,96,False,exp3.png,exp4.png,trial_right_image,-1,exp4.png,2,exp4.png,exp3.png,0,4,reversed,correct,0.11477400744260258,0,invalid_lose,566.2576892999932,58,,,,,,,,,,,,,,,sub_574,2024-01-08_08h44.13.533,Reversal,2023.1.3,60.025450803250514,2,
16,exp1.png,exp2.png,,,,,,,,,,,,,,,,,,0,0,0,0,0,16,16,16,,,,,,,,,False,16,97,False,exp1.png,exp2.png,trial_left_image,1,exp1.png,2,exp1.png,exp2.png,1,1,non-reversed,correct,0.9413483758722784,1,valid_win,571.0062441999326,59,,,,,,,,,,,,,,,sub_574,2024-01-08_08h44.13.533,Reversal,2023.1.3,60.025450803250514,2,
17,exp3.png,exp4.png,,,,,,,,,,,,,,,,,,0,0,0,0,0,17,17,17,,,,,,,,,False,17,98,False,exp3.png,exp4.png,trial_right_image,-1,exp4.png,2,exp4.png,exp3.png,0,4,reversed,correct,0.8619471300738798,1,valid_win,575.6048639999935,60,,,,,,,,,,,,,,,sub_574,2024-01-08_08h44.13.533,Reversal,2023.1.3,60.025450803250514,2,
18,exp1.png,exp2.png,,,,,,,,,,,,,,,,,,0,0,0,0,0,18,18,18,,,,,,,,,False,18,99,False,exp1.png,exp2.png,trial_left_image,1,exp1.png,2,exp1.png,exp2.png,1,1,non-reversed,correct,0.6354981733001241,1,valid_win,580.5365663999692,61,,,,,,,,,,,,,,,sub_574,2024-01-08_08h44.13.533,Reversal,2023.1.3,60.025450803250514,2,
19,exp3.png,exp4.png,,,,,,,,,,,,,,,,,,0,0,0,0,0,19,19,19,,,,,,,,,False,19,100,True,exp4.png,exp3.png,trial_left_image,1,exp4.png,2,exp4.png,exp3.png,0,4,reversed,correct,0.7484858466717951,1,valid_win,585.168690099963,62,,,,,,,,,,,,,,,sub_574,2024-01-08_08h44.13.533,Reversal,2023.1.3,60.025450803250514,2,
20,exp1.png,exp2.png,,,,,,,,,,,,,,,,,,0,0,0,0,0,20,20,20,,,,,,,,,True,,,,,,,,,,,,,,,,,,,,,,,,,,,,,,,,,,,sub_574,2024-01-08_08h44.13.533,Reversal,2023.1.3,60.025450803250514,2,
,,,exp1.png,,,,,,,,,,,,,,,,,0,0,0,0,,,,,0,0,0,0,0,0,0,0,,,,,,,,,,,,,,,,,,,,,,661.5999898000155,7.0,7.0,4.740422499948181,"[(17.0, 2.6090388000011444), (7.0, 4.740422499948181)]",,,,,,,,,,sub_574,2024-01-08_08h44.13.533,Reversal,2023.1.3,60.025450803250514,2,
,,,exp2.png,,,,,,,,,,,,,,,,,0,0,0,0,,,,,0,0,0,0,0,1,1,1,,,,,,,,,,,,,,,,,,,,,,667.4857674000086,,96.0,1.8946094999555498,"[(96.0, 1.8946094999555498)]",96.0,,,,,,,,,sub_574,2024-01-08_08h44.13.533,Reversal,2023.1.3,60.025450803250514,2,
,,,exp3.png,,,,,,,,,,,,,,,,,0,0,0,0,,,,,0,0,0,0,0,2,2,2,,,,,,,,,,,,,,,,,,,,,,670.3511478999862,,7.0,2.511532700038515,"[(9.0, 2.2288094999967143), (7.0, 2.511532700038515)]",,7.0,,,,,,,,sub_574,2024-01-08_08h44.13.533,Reversal,2023.1.3,60.025450803250514,2,
,,,exp4.png,,,,,,,,,,,,,,,,,0,0,0,0,,,,,0,0,0,0,0,3,3,3,,,,,,,,,,,,,,,,,,,,,,673.9494907000335,,93.0,1.494508699979633,"[(93.0, 1.494508699979633)]",,,93.0,,,,,,,sub_574,2024-01-08_08h44.13.533,Reversal,2023.1.3,60.025450803250514,2,
0,exp1.png,exp2.png,,,,,,,,,,,,,,,,,,1,0,1,0,0,0,0,0,,,,,,,,,False,20,101,True,exp2.png,exp1.png,trial_right_image,-1,exp1.png,2,exp1.png,exp2.png,1,1,non-reversed,correct,0.5027817245891043,1,valid_win,613.9086567999329,63,,,,,,,,,,,,,,,sub_574,2024-01-08_08h44.13.533,Reversal,2023.1.3,60.025450803250514,2,
1,exp3.png,exp4.png,,,,,,,,,,,,,,,,,,1,0,1,0,0,1,1,1,,,,,,,,,False,21,102,False,exp3.png,exp4.png,trial_right_image,-1,exp4.png,2,exp4.png,exp3.png,0,4,reversed,correct,0.5510311993801729,1,valid_win,620.2227589999093,64,,,,,,,,,,,,,,,sub_574,2024-01-08_08h44.13.533,Reversal,2023.1.3,60.025450803250514,2,
2,exp1.png,exp2.png,,,,,,,,,,,,,,,,,,1,0,1,0,0,2,2,2,,,,,,,,,False,22,103,False,exp1.png,exp2.png,trial_right_image,-1,exp2.png,2,exp1.png,exp2.png,0,2,non-reversed,incorrect,0.3370580534034423,0,valid_lose,625.5211011999054,64,,,,,,,,,,,,,,,sub_574,2024-01-08_08h44.13.533,Reversal,2023.1.3,60.025450803250514,2,
3,exp3.png,exp4.png,,,,,,,,,,,,,,,,,,1,0,1,0,0,3,3,3,,,,,,,,,False,23,104,True,exp4.png,exp3.png,trial_right_image,-1,exp3.png,2,exp4.png,exp3.png,1,3,reversed,incorrect,0.40572948288332733,0,valid_lose,635.9841809999198,64,,,,,,,,,,,,,,,sub_574,2024-01-08_08h44.13.533,Reversal,2023.1.3,60.025450803250514,2,
4,exp1.png,exp2.png,,,,,,,,,,,,,,,,,,1,0,1,0,0,4,4,4,,,,,,,,,False,24,105,True,exp2.png,exp1.png,trial_right_image,-1,exp1.png,2,exp1.png,exp2.png,1,1,non-reversed,correct,0.9561709530302627,1,valid_win,641.549097299925,65,,,,,,,,,,,,,,,sub_574,2024-01-08_08h44.13.533,Reversal,2023.1.3,60.025450803250514,2,
5,exp3.png,exp4.png,,,,,,,,,,,,,,,,,,1,0,1,0,0,5,5,5,,,,,,,,,False,25,106,False,exp3.png,exp4.png,trial_right_image,-1,exp4.png,2,exp4.png,exp3.png,0,4,reversed,correct,0.3009928611327226,1,valid_win,646.4806982999435,66,,,,,,,,,,,,,,,sub_574,2024-01-08_08h44.13.533,Reversal,2023.1.3,60.025450803250514,2,
6,exp1.png,exp2.png,,,,,,,,,,,,,,,,,,1,0,1,0,0,6,6,6,,,,,,,,,False,26,107,False,exp1.png,exp2.png,trial_left_image,1,exp1.png,2,exp1.png,exp2.png,1,1,non-reversed,correct,0.33784256299661697,1,valid_win,650.7459205999039,67,,,,,,,,,,,,,,,sub_574,2024-01-08_08h44.13.533,Reversal,2023.1.3,60.025450803250514,2,
7,exp3.png,exp4.png,,,,,,,,,,,,,,,,,,1,0,1,0,0,7,7,7,,,,,,,,,False,27,108,True,exp4.png,exp3.png,trial_left_image,1,exp4.png,2,exp4.png,exp3.png,0,4,reversed,correct,0.8780886312194439,1,valid_win,655.5944254999049,68,,,,,,,,,,,,,,,sub_574,2024-01-08_08h44.13.533,Reversal,2023.1.3,60.025450803250514,2,
8,exp1.png,exp2.png,,,,,,,,,,,,,,,,,,1,0,1,0,0,8,8,8,,,,,,,,,False,28,109,True,exp2.png,exp1.png,trial_right_image,-1,exp1.png,2,exp1.png,exp2.png,1,1,non-reversed,correct,0.8384422449398685,1,valid_win,660.7257830000017,69,,,,,,,,,,,,,,,sub_574,2024-01-08_08h44.13.533,Reversal,2023.1.3,60.025450803250514,2,
9,exp3.png,exp4.png,,,,,,,,,,,,,,,,,,1,0,1,0,0,9,9,9,,,,,,,,,False,29,110,True,exp4.png,exp3.png,trial_left_image,1,exp4.png,2,exp4.png,exp3.png,0,4,reversed,correct,0.9127581005220484,1,valid_win,665.558029799955,70,,,,,,,,,,,,,,,sub_574,2024-01-08_08h44.13.533,Reversal,2023.1.3,60.025450803250514,2,
10,exp1.png,exp2.png,,,,,,,,,,,,,,,,,,1,0,1,0,0,10,10,10,,,,,,,,,False,30,111,False,exp1.png,exp2.png,trial_left_image,1,exp1.png,2,exp1.png,exp2.png,1,1,non-reversed,correct,0.31657075248316047,1,valid_win,670.2061614999548,71,,,,,,,,,,,,,,,sub_574,2024-01-08_08h44.13.533,Reversal,2023.1.3,60.025450803250514,2,
11,exp3.png,exp4.png,,,,,,,,,,,,,,,,,,1,0,1,0,0,11,11,11,,,,,,,,,False,31,112,False,exp3.png,exp4.png,trial_right_image,-1,exp4.png,2,exp4.png,exp3.png,0,4,reversed,correct,0.6688200570314701,1,valid_win,675.0381301000016,72,,,,,,,,,,,,,,,sub_574,2024-01-08_08h44.13.533,Reversal,2023.1.3,60.025450803250514,2,
12,exp1.png,exp2.png,,,,,,,,,,,,,,,,,,1,0,1,0,0,12,12,12,,,,,,,,,False,32,113,True,exp2.png,exp1.png,trial_left_image,1,exp2.png,2,exp1.png,exp2.png,0,2,non-reversed,incorrect,0.2780035440673353,0,valid_lose,679.4695039999206,72,,,,,,,,,,,,,,,sub_574,2024-01-08_08h44.13.533,Reversal,2023.1.3,60.025450803250514,2,
13,exp3.png,exp4.png,,,,,,,,,,,,,,,,,,1,0,1,0,0,13,13,13,,,,,,,,,False,33,114,True,exp4.png,exp3.png,trial_right_image,-1,exp3.png,2,exp4.png,exp3.png,1,3,reversed,incorrect,0.20330241992425757,1,invalid_win,684.0514850999461,73,,,,,,,,,,,,,,,sub_574,2024-01-08_08h44.13.533,Reversal,2023.1.3,60.025450803250514,2,
14,exp1.png,exp2.png,,,,,,,,,,,,,,,,,,1,0,1,0,0,14,14,14,,,,,,,,,False,34,115,False,exp1.png,exp2.png,trial_left_image,1,exp1.png,2,exp1.png,exp2.png,1,1,non-reversed,correct,0.6702664767309925,1,valid_win,689.2662969999947,74,,,,,,,,,,,,,,,sub_574,2024-01-08_08h44.13.533,Reversal,2023.1.3,60.025450803250514,2,
15,exp3.png,exp4.png,,,,,,,,,,,,,,,,,,1,0,1,0,0,15,15,15,,,,,,,,,False,35,116,False,exp3.png,exp4.png,trial_left_image,1,exp3.png,2,exp4.png,exp3.png,1,3,reversed,incorrect,0.7309171397327865,0,valid_lose,694.4644376999931,74,,,,,,,,,,,,,,,sub_574,2024-01-08_08h44.13.533,Reversal,2023.1.3,60.025450803250514,2,
16,exp1.png,exp2.png,,,,,,,,,,,,,,,,,,1,0,1,0,0,16,16,16,,,,,,,,,False,36,117,True,exp2.png,exp1.png,trial_right_image,-1,exp1.png,2,exp1.png,exp2.png,1,1,non-reversed,correct,0.7238687094161054,1,valid_win,699.0298044999363,75,,,,,,,,,,,,,,,sub_574,2024-01-08_08h44.13.533,Reversal,2023.1.3,60.025450803250514,2,
17,exp3.png,exp4.png,,,,,,,,,,,,,,,,,,1,0,1,0,0,17,17,17,,,,,,,,,False,37,118,False,exp3.png,exp4.png,trial_left_image,1,exp3.png,2,exp4.png,exp3.png,1,3,reversed,incorrect,0.867342076494973,0,valid_lose,704.1777312000049,75,,,,,,,,,,,,,,,sub_574,2024-01-08_08h44.13.533,Reversal,2023.1.3,60.025450803250514,2,
18,exp1.png,exp2.png,,,,,,,,,,,,,,,,,,1,0,1,0,0,18,18,18,,,,,,,,,False,38,119,False,exp1.png,exp2.png,trial_left_image,1,exp1.png,2,exp1.png,exp2.png,1,1,non-reversed,correct,0.35350700871215957,1,valid_win,708.7933777999133,76,,,,,,,,,,,,,,,sub_574,2024-01-08_08h44.13.533,Reversal,2023.1.3,60.025450803250514,2,
19,exp3.png,exp4.png,,,,,,,,,,,,,,,,,,1,0,1,0,0,19,19,19,,,,,,,,,False,39,120,True,exp4.png,exp3.png,trial_left_image,1,exp4.png,2,exp4.png,exp3.png,0,4,reversed,correct,0.8175354586238979,1,valid_win,713.4752287999727,77,,,,,,,,,,,,,,,sub_574,2024-01-08_08h44.13.533,Reversal,2023.1.3,60.025450803250514,2,
20,exp1.png,exp2.png,,,,,,,,,,,,,,,,,,1,0,1,0,0,20,20,20,,,,,,,,,True,,,,,,,,,,,,,,,,,,,,,,,,,,,,,,,,,,,sub_574,2024-01-08_08h44.13.533,Reversal,2023.1.3,60.025450803250514,2,
,,,exp1.png,,,,,,,,,,,,,,,,,1,0,1,0,,,,,0,0,0,0,0,0,0,0,,,,,,,,,,,,,,,,,,,,,,789.9042563999537,96.0,96.0,4.655494500068016,"[(100.0, 2.574377700104378), (96.0, 4.655494500068016)]",,,,,,,,,,sub_574,2024-01-08_08h44.13.533,Reversal,2023.1.3,60.025450803250514,2,
,,,exp2.png,,,,,,,,,,,,,,,,,1,0,1,0,,,,,0,0,0,0,0,1,1,1,,,,,,,,,,,,,,,,,,,,,,795.6279079000233,,11.0,1.8761771999998018,"[(11.0, 1.8761771999998018)]",11.0,,,,,,,,,sub_574,2024-01-08_08h44.13.533,Reversal,2023.1.3,60.025450803250514,2,
,,,exp3.png,,,,,,,,,,,,,,,,,1,0,1,0,,,,,0,0,0,0,0,2,2,2,,,,,,,,,,,,,,,,,,,,,,798.5417394000106,,82.0,1.7946369000710547,"[(82.0, 1.7946369000710547)]",,82.0,,,,,,,,sub_574,2024-01-08_08h44.13.533,Reversal,2023.1.3,60.025450803250514,2,
,,,exp4.png,,,,,,,,,,,,,,,,,1,0,1,0,,,,,0,0,0,0,0,3,3,3,,,,,,,,,,,,,,,,,,,,,,801.3074662999716,,66.0,3.110995900002308,"[(60.0, 1.9603098999941722), (66.0, 3.110995900002308)]",,,66.0,,,,,,,sub_574,2024-01-08_08h44.13.533,Reversal,2023.1.3,60.025450803250514,2,
0,exp1.png,exp2.png,,,,,,,,,,,,,,,,,,2,0,2,0,0,0,0,0,,,,,,,,,False,40,121,False,exp1.png,exp2.png,trial_right_image,-1,exp2.png,2,exp1.png,exp2.png,0,2,non-reversed,incorrect,0.8416739658977598,0,valid_lose,738.4999806999695,77,,,,,,,,,,,,,,,sub_574,2024-01-08_08h44.13.533,Reversal,2023.1.3,60.025450803250514,2,
1,exp3.png,exp4.png,,,,,,,,,,,,,,,,,,2,0,2,0,0,1,1,1,,,,,,,,,False,41,122,False,exp3.png,exp4.png,trial_right_image,-1,exp4.png,2,exp4.png,exp3.png,0,4,reversed,correct,0.943280491955431,1,valid_win,743.1821501000086,78,,,,,,,,,,,,,,,sub_574,2024-01-08_08h44.13.533,Reversal,2023.1.3,60.025450803250514,2,
2,exp1.png,exp2.png,,,,,,,,,,,,,,,,,,2,0,2,0,0,2,2,2,,,,,,,,,False,42,123,False,exp1.png,exp2.png,trial_right_image,-1,exp2.png,2,exp1.png,exp2.png,0,2,non-reversed,incorrect,0.35819900976881347,0,valid_lose,751.3960300999461,78,,,,,,,,,,,,,,,sub_574,2024-01-08_08h44.13.533,Reversal,2023.1.3,60.025450803250514,2,
3,exp3.png,exp4.png,,,,,,,,,,,,,,,,,,2,0,2,0,0,3,3,3,,,,,,,,,False,43,124,False,exp3.png,exp4.png,trial_left_image,1,exp3.png,2,exp4.png,exp3.png,1,3,reversed,incorrect,0.7664219210891383,0,valid_lose,757.5100121999858,78,,,,,,,,,,,,,,,sub_574,2024-01-08_08h44.13.533,Reversal,2023.1.3,60.025450803250514,2,
4,exp1.png,exp2.png,,,,,,,,,,,,,,,,,,2,0,2,0,0,4,4,4,,,,,,,,,False,44,125,True,exp2.png,exp1.png,trial_left_image,1,exp2.png,2,exp1.png,exp2.png,0,2,non-reversed,incorrect,0.21002287529862973,1,invalid_win,761.7087932999711,79,,,,,,,,,,,,,,,sub_574,2024-01-08_08h44.13.533,Reversal,2023.1.3,60.025450803250514,2,
5,exp3.png,exp4.png,,,,,,,,,,,,,,,,,,2,0,2,0,0,5,5,5,,,,,,,,,False,45,126,True,exp4.png,exp3.png,trial_left_image,1,exp4.png,2,exp4.png,exp3.png,0,4,reversed,correct,0.17561445563326317,0,invalid_lose,765.8236280999845,79,,,,,,,,,,,,,,,sub_574,2024-01-08_08h44.13.533,Reversal,2023.1.3,60.025450803250514,2,
6,exp1.png,exp2.png,,,,,,,,,,,,,,,,,,2,0,2,0,0,6,6,6,,,,,,,,,False,46,127,True,exp2.png,exp1.png,trial_left_image,1,exp2.png,2,exp1.png,exp2.png,0,2,non-reversed,incorrect,0.04899427949939139,1,invalid_win,770.1394219999202,80,,,,,,,,,,,,,,,sub_574,2024-01-08_08h44.13.533,Reversal,2023.1.3,60.025450803250514,2,
7,exp3.png,exp4.png,,,,,,,,,,,,,,,,,,2,0,2,0,0,7,7,7,,,,,,,,,False,47,128,False,exp3.png,exp4.png,trial_right_image,-1,exp4.png,2,exp4.png,exp3.png,0,4,reversed,correct,0.5035342239110442,1,valid_win,774.3382834999356,81,,,,,,,,,,,,,,,sub_574,2024-01-08_08h44.13.533,Reversal,2023.1.3,60.025450803250514,2,
8,exp1.png,exp2.png,,,,,,,,,,,,,,,,,,2,0,2,0,0,8,8,8,,,,,,,,,False,48,129,False,exp1.png,exp2.png,trial_right_image,-1,exp2.png,2,exp1.png,exp2.png,0,2,non-reversed,incorrect,0.03768257881285175,1,invalid_win,778.5197900999337,82,,,,,,,,,,,,,,,sub_574,2024-01-08_08h44.13.533,Reversal,2023.1.3,60.025450803250514,2,
9,exp3.png,exp4.png,,,,,,,,,,,,,,,,,,2,0,2,0,0,9,9,9,,,,,,,,,False,49,130,True,exp4.png,exp3.png,trial_left_image,1,exp4.png,2,exp4.png,exp3.png,0,4,reversed,correct,0.8197939712011444,1,valid_win,782.5017979999539,83,,,,,,,,,,,,,,,sub_574,2024-01-08_08h44.13.533,Reversal,2023.1.3,60.025450803250514,2,
10,exp1.png,exp2.png,,,,,,,,,,,,,,,,,,2,0,2,0,0,10,10,10,,,,,,,,,False,50,131,True,exp2.png,exp1.png,trial_left_image,1,exp2.png,2,exp1.png,exp2.png,0,2,non-reversed,incorrect,0.9841632277121382,0,valid_lose,786.7002685999032,83,,,,,,,,,,,,,,,sub_574,2024-01-08_08h44.13.533,Reversal,2023.1.3,60.025450803250514,2,
11,exp3.png,exp4.png,,,,,,,,,,,,,,,,,,2,0,2,0,0,11,11,11,,,,,,,,,False,51,132,True,exp4.png,exp3.png,trial_left_image,1,exp4.png,2,exp4.png,exp3.png,0,4,reversed,correct,0.39415608991433204,1,valid_win,791.0483171999222,84,,,,,,,,,,,,,,,sub_574,2024-01-08_08h44.13.533,Reversal,2023.1.3,60.025450803250514,2,
12,exp1.png,exp2.png,,,,,,,,,,,,,,,,,,2,0,2,0,0,12,12,12,,,,,,,,,False,52,133,True,exp2.png,exp1.png,trial_left_image,1,exp2.png,2,exp1.png,exp2.png,0,2,non-reversed,incorrect,0.16148768874506347,1,invalid_win,795.896965199965,85,,,,,,,,,,,,,,,sub_574,2024-01-08_08h44.13.533,Reversal,2023.1.3,60.025450803250514,2,
13,exp3.png,exp4.png,,,,,,,,,,,,,,,,,,2,0,2,0,0,13,13,13,,,,,,,,,False,53,134,True,exp4.png,exp3.png,trial_left_image,1,exp4.png,2,exp4.png,exp3.png,0,4,reversed,correct,0.6003257582360271,1,valid_win,800.328566799988,86,,,,,,,,,,,,,,,sub_574,2024-01-08_08h44.13.533,Reversal,2023.1.3,60.025450803250514,2,
14,exp1.png,exp2.png,,,,,,,,,,,,,,,,,,2,0,2,0,0,14,14,14,,,,,,,,,False,54,135,False,exp1.png,exp2.png,trial_left_image,1,exp1.png,2,exp1.png,exp2.png,1,1,non-reversed,correct,0.9199651316004575,1,valid_win,804.6276207999326,87,,,,,,,,,,,,,,,sub_574,2024-01-08_08h44.13.533,Reversal,2023.1.3,60.025450803250514,2,
15,exp3.png,exp4.png,,,,,,,,,,,,,,,,,,2,0,2,0,0,15,15,15,,,,,,,,,False,55,136,False,exp3.png,exp4.png,trial_left_image,1,exp3.png,2,exp4.png,exp3.png,1,3,reversed,incorrect,0.8844139553094066,0,valid_lose,808.8428057999117,87,,,,,,,,,,,,,,,sub_574,2024-01-08_08h44.13.533,Reversal,2023.1.3,60.025450803250514,2,
16,exp1.png,exp2.png,,,,,,,,,,,,,,,,,,2,0,2,0,0,16,16,16,,,,,,,,,False,56,137,False,exp1.png,exp2.png,trial_right_image,-1,exp2.png,2,exp1.png,exp2.png,0,2,non-reversed,incorrect,0.35347041365991927,0,valid_lose,813.4245701999171,87,,,,,,,,,,,,,,,sub_574,2024-01-08_08h44.13.533,Reversal,2023.1.3,60.025450803250514,2,
17,exp3.png,exp4.png,,,,,,,,,,,,,,,,,,2,0,2,0,0,17,17,17,,,,,,,,,False,57,138,True,exp4.png,exp3.png,trial_left_image,1,exp4.png,2,exp4.png,exp3.png,0,4,reversed,correct,0.35874675853361826,1,valid_win,817.7066652999492,88,,,,,,,,,,,,,,,sub_574,2024-01-08_08h44.13.533,Reversal,2023.1.3,60.025450803250514,2,
18,exp1.png,exp2.png,,,,,,,,,,,,,,,,,,2,0,2,0,0,18,18,18,,,,,,,,,False,58,139,True,exp2.png,exp1.png,trial_left_image,1,exp2.png,2,exp1.png,exp2.png,0,2,non-reversed,incorrect,0.009355658540669998,1,invalid_win,821.9214395999443,89,,,,,,,,,,,,,,,sub_574,2024-01-08_08h44.13.533,Reversal,2023.1.3,60.025450803250514,2,
19,exp3.png,exp4.png,,,,,,,,,,,,,,,,,,2,0,2,0,0,19,19,19,,,,,,,,,False,59,140,False,exp3.png,exp4.png,trial_right_image,-1,exp4.png,2,exp4.png,exp3.png,0,4,reversed,correct,0.7900747497476671,1,valid_win,826.653414899949,90,,,,,,,,,,,,,,,sub_574,2024-01-08_08h44.13.533,Reversal,2023.1.3,60.025450803250514,2,
20,exp1.png,exp2.png,,,,,,,,,,,,,,,,,,2,0,2,0,0,20,20,20,,,,,,,,,True,,,,,,,,,,,,,,,,,,,,,,,,,,,,,,,,,,,sub_574,2024-01-08_08h44.13.533,Reversal,2023.1.3,60.025450803250514,2,
,,,exp1.png,,,,,,,,,,,,,,,,,2,0,2,0,,,,,0,0,0,0,0,0,0,0,,,,,,,,,,,,,,,,,,,,,,903.0767391000409,11.0,11.0,9.475848500034772,"[(67.0, 6.227052600006573), (11.0, 9.475848500034772)]",,,,,,,,,,sub_574,2024-01-08_08h44.13.533,Reversal,2023.1.3,60.025450803250514,2,
,,,exp2.png,,,,,,,,,,,,,,,,,2,0,2,0,,,,,0,0,0,0,0,1,1,1,,,,,,,,,,,,,,,,,,,,,,914.0914846999804,,86.0,2.0925806000595912,"[(86.0, 2.0925806000595912)]",86.0,,,,,,,,,sub_574,2024-01-08_08h44.13.533,Reversal,2023.1.3,60.025450803250514,2,
,,,exp3.png,,,,,,,,,,,,,,,,,2,0,2,0,,,,,0,0,0,0,0,2,2,2,,,,,,,,,,,,,,,,,,,,,,917.1179437999381,,18.0,2.82751350000035,"[(18.0, 2.82751350000035)]",,18.0,,,,,,,,sub_574,2024-01-08_08h44.13.533,Reversal,2023.1.3,60.025450803250514,2,
,,,exp4.png,,,,,,,,,,,,,,,,,2,0,2,0,,,,,0,0,0,0,0,3,3,3,,,,,,,,,,,,,,,,,,,,,,920.9157836999511,,87.0,1.4942775000818074,"[(87.0, 1.4942775000818074)]",,,87.0,,,,,,,sub_574,2024-01-08_08h44.13.533,Reversal,2023.1.3,60.025450803250514,2,
,,,,,,,,,,,,,,,,,,,,,,,,,,,,,,,,,,,,,,,,,,,,,,,,,,,,,,,,90,,,,,,,,,,93,55,38,361.60730819997843,1,,,,,,,
