trial_index,trial_image1_file,trial_image2_file,image_file,learning_outer_loop.thisRepN,learning_outer_loop.thisTrialN,learning_outer_loop.thisN,learning_outer_loop.thisIndex,learning_inner_loop.thisRepN,learning_inner_loop.thisTrialN,learning_inner_loop.thisN,learning_inner_loop.thisIndex,learning_estimation_outer_loop.thisRepN,learning_estimation_outer_loop.thisTrialN,learning_estimation_outer_loop.thisN,learning_estimation_outer_loop.thisIndex,learning_estimation_inner_loop.thisRepN,learning_estimation_inner_loop.thisTrialN,learning_estimation_inner_loop.thisN,learning_estimation_inner_loop.thisIndex,reversal_outer_loop.thisRepN,reversal_outer_loop.thisTrialN,reversal_outer_loop.thisN,reversal_outer_loop.thisIndex,reversal_inner_loop.thisRepN,reversal_inner_loop.thisTrialN,reversal_inner_loop.thisN,reversal_inner_loop.thisIndex,reversal_estimation_outer_loop.thisRepN,reversal_estimation_outer_loop.thisTrialN,reversal_estimation_outer_loop.thisN,reversal_estimation_outer_loop.thisIndex,reversal_estimation_inner_loop.thisRepN,reversal_estimation_inner_loop.thisTrialN,reversal_estimation_inner_loop.thisN,reversal_estimation_inner_loop.thisIndex,skipped,total_trial_counter,trial_num,left_right_flip,left_image_file,right_image_file,clicked_stimulus_side,side,clicked_stimulus,version,high_prob_image_file,low_prob_image_file,choice_a,choice_b,pair_type,correct,trial_feedback_random,reward,trial_type,overall_time_after_trial,score,estimation_rating.started,estimation_exp1.png,estimation_rating.response,estimation_rating.rt,estimation_rating.history,estimation_exp2.png,estimation_exp3.png,estimation_exp4.png,total_learning_time,total_correct,learning_correct,reversal_correct,total_reversal_time,extra_block,end_experiment.keys,end_experiment.rt,end_experiment.duration,participant,date,expName,psychopyVersion,frameRate,ver,
0,exp1.png,exp2.png,,0,0,0,0,0,0,0,0,,,,,,,,,,,,,,,,,,,,,,,,,True,,,,,,,,,,,,,,,,,,,,,,,,,,,,,,,,,,,,,,sub_919,2024-03-18_12h47.43.705,Reversal,2023.1.3,60.02847751015574,3,
1,exp3.png,exp4.png,,0,0,0,0,0,1,1,1,,,,,,,,,,,,,,,,,,,,,,,,,False,0,1,False,exp3.png,exp4.png,trial_right_image,-1,exp4.png,3,exp4.png,exp3.png,1,1,non-reversed,correct,0.7701857968482282,1,valid_win,15.060288200000286,1,,,,,,,,,,,,,,,,,,sub_919,2024-03-18_12h47.43.705,Reversal,2023.1.3,60.02847751015574,3,
2,exp1.png,exp2.png,,0,0,0,0,0,2,2,2,,,,,,,,,,,,,,,,,,,,,,,,,False,1,2,False,exp1.png,exp2.png,trial_right_image,-1,exp2.png,3,exp2.png,exp1.png,1,3,reversed,correct,0.9261419146472021,1,valid_win,25.690233700001045,2,,,,,,,,,,,,,,,,,,sub_919,2024-03-18_12h47.43.705,Reversal,2023.1.3,60.02847751015574,3,
3,exp3.png,exp4.png,,0,0,0,0,0,3,3,3,,,,,,,,,,,,,,,,,,,,,,,,,False,2,3,True,exp4.png,exp3.png,trial_left_image,1,exp4.png,3,exp4.png,exp3.png,1,1,non-reversed,correct,0.9231284726459561,1,valid_win,31.904375600001003,3,,,,,,,,,,,,,,,,,,sub_919,2024-03-18_12h47.43.705,Reversal,2023.1.3,60.02847751015574,3,
4,exp1.png,exp2.png,,0,0,0,0,0,4,4,4,,,,,,,,,,,,,,,,,,,,,,,,,False,3,4,False,exp1.png,exp2.png,trial_right_image,-1,exp2.png,3,exp2.png,exp1.png,1,3,reversed,correct,0.4734203306141367,1,valid_win,36.95274989999962,4,,,,,,,,,,,,,,,,,,sub_919,2024-03-18_12h47.43.705,Reversal,2023.1.3,60.02847751015574,3,
5,exp3.png,exp4.png,,0,0,0,0,0,5,5,5,,,,,,,,,,,,,,,,,,,,,,,,,False,4,5,False,exp3.png,exp4.png,trial_left_image,1,exp3.png,3,exp4.png,exp3.png,0,2,non-reversed,incorrect,0.5409018594867125,0,valid_lose,41.56813239999974,4,,,,,,,,,,,,,,,,,,sub_919,2024-03-18_12h47.43.705,Reversal,2023.1.3,60.02847751015574,3,
6,exp1.png,exp2.png,,0,0,0,0,0,6,6,6,,,,,,,,,,,,,,,,,,,,,,,,,False,5,6,True,exp2.png,exp1.png,trial_right_image,-1,exp1.png,3,exp2.png,exp1.png,0,4,reversed,incorrect,0.915888798451712,0,valid_lose,48.415556600000855,4,,,,,,,,,,,,,,,,,,sub_919,2024-03-18_12h47.43.705,Reversal,2023.1.3,60.02847751015574,3,
7,exp3.png,exp4.png,,0,0,0,0,0,7,7,7,,,,,,,,,,,,,,,,,,,,,,,,,False,6,7,False,exp3.png,exp4.png,trial_right_image,-1,exp4.png,3,exp4.png,exp3.png,1,1,non-reversed,correct,0.007784692253196224,0,invalid_lose,59.34632640000018,4,,,,,,,,,,,,,,,,,,sub_919,2024-03-18_12h47.43.705,Reversal,2023.1.3,60.02847751015574,3,
8,exp1.png,exp2.png,,0,0,0,0,0,8,8,8,,,,,,,,,,,,,,,,,,,,,,,,,False,7,8,True,exp2.png,exp1.png,trial_left_image,1,exp2.png,3,exp2.png,exp1.png,1,3,reversed,correct,0.7800173921281991,1,valid_win,64.6438018000008,5,,,,,,,,,,,,,,,,,,sub_919,2024-03-18_12h47.43.705,Reversal,2023.1.3,60.02847751015574,3,
9,exp3.png,exp4.png,,0,0,0,0,0,9,9,9,,,,,,,,,,,,,,,,,,,,,,,,,False,8,9,False,exp3.png,exp4.png,trial_right_image,-1,exp4.png,3,exp4.png,exp3.png,1,1,non-reversed,correct,0.9585834103502706,1,valid_win,71.17735220000031,6,,,,,,,,,,,,,,,,,,sub_919,2024-03-18_12h47.43.705,Reversal,2023.1.3,60.02847751015574,3,
10,exp1.png,exp2.png,,0,0,0,0,0,10,10,10,,,,,,,,,,,,,,,,,,,,,,,,,False,9,10,True,exp2.png,exp1.png,trial_left_image,1,exp2.png,3,exp2.png,exp1.png,1,3,reversed,correct,0.4520248681355863,1,valid_win,76.13958830000047,7,,,,,,,,,,,,,,,,,,sub_919,2024-03-18_12h47.43.705,Reversal,2023.1.3,60.02847751015574,3,
11,exp3.png,exp4.png,,0,0,0,0,0,11,11,11,,,,,,,,,,,,,,,,,,,,,,,,,False,10,11,True,exp4.png,exp3.png,trial_left_image,1,exp4.png,3,exp4.png,exp3.png,1,1,non-reversed,correct,0.8544423854541461,1,valid_win,81.90409809999983,8,,,,,,,,,,,,,,,,,,sub_919,2024-03-18_12h47.43.705,Reversal,2023.1.3,60.02847751015574,3,
12,exp1.png,exp2.png,,0,0,0,0,0,12,12,12,,,,,,,,,,,,,,,,,,,,,,,,,False,11,12,False,exp1.png,exp2.png,trial_right_image,-1,exp2.png,3,exp2.png,exp1.png,1,3,reversed,correct,0.7490516584080683,1,valid_win,89.4349570000013,9,,,,,,,,,,,,,,,,,,sub_919,2024-03-18_12h47.43.705,Reversal,2023.1.3,60.02847751015574,3,
13,exp3.png,exp4.png,,0,0,0,0,0,13,13,13,,,,,,,,,,,,,,,,,,,,,,,,,False,12,13,True,exp4.png,exp3.png,trial_left_image,1,exp4.png,3,exp4.png,exp3.png,1,1,non-reversed,correct,0.553052261592474,1,valid_win,100.69830710000133,10,,,,,,,,,,,,,,,,,,sub_919,2024-03-18_12h47.43.705,Reversal,2023.1.3,60.02847751015574,3,
14,exp1.png,exp2.png,,0,0,0,0,0,14,14,14,,,,,,,,,,,,,,,,,,,,,,,,,False,13,14,True,exp2.png,exp1.png,trial_left_image,1,exp2.png,3,exp2.png,exp1.png,1,3,reversed,correct,0.6479116766408867,1,valid_win,105.42949709999994,11,,,,,,,,,,,,,,,,,,sub_919,2024-03-18_12h47.43.705,Reversal,2023.1.3,60.02847751015574,3,
15,exp3.png,exp4.png,,0,0,0,0,0,15,15,15,,,,,,,,,,,,,,,,,,,,,,,,,False,14,15,False,exp3.png,exp4.png,trial_right_image,-1,exp4.png,3,exp4.png,exp3.png,1,1,non-reversed,correct,0.6365005260033945,1,valid_win,109.91150030000063,12,,,,,,,,,,,,,,,,,,sub_919,2024-03-18_12h47.43.705,Reversal,2023.1.3,60.02847751015574,3,
16,exp1.png,exp2.png,,0,0,0,0,0,16,16,16,,,,,,,,,,,,,,,,,,,,,,,,,False,15,16,False,exp1.png,exp2.png,trial_right_image,-1,exp2.png,3,exp2.png,exp1.png,1,3,reversed,correct,0.08762710887208358,0,invalid_lose,114.14398729999994,12,,,,,,,,,,,,,,,,,,sub_919,2024-03-18_12h47.43.705,Reversal,2023.1.3,60.02847751015574,3,
17,exp3.png,exp4.png,,0,0,0,0,0,17,17,17,,,,,,,,,,,,,,,,,,,,,,,,,False,16,17,True,exp4.png,exp3.png,trial_left_image,1,exp4.png,3,exp4.png,exp3.png,1,1,non-reversed,correct,0.11221197246283976,0,invalid_lose,118.7252206000012,12,,,,,,,,,,,,,,,,,,sub_919,2024-03-18_12h47.43.705,Reversal,2023.1.3,60.02847751015574,3,
18,exp1.png,exp2.png,,0,0,0,0,0,18,18,18,,,,,,,,,,,,,,,,,,,,,,,,,False,17,18,False,exp1.png,exp2.png,trial_right_image,-1,exp2.png,3,exp2.png,exp1.png,1,3,reversed,correct,0.620468213310007,1,valid_win,123.02390209999976,13,,,,,,,,,,,,,,,,,,sub_919,2024-03-18_12h47.43.705,Reversal,2023.1.3,60.02847751015574,3,
19,exp3.png,exp4.png,,0,0,0,0,0,19,19,19,,,,,,,,,,,,,,,,,,,,,,,,,False,18,19,True,exp4.png,exp3.png,trial_left_image,1,exp4.png,3,exp4.png,exp3.png,1,1,non-reversed,correct,0.9198240095945364,1,valid_win,127.47202170000128,14,,,,,,,,,,,,,,,,,,sub_919,2024-03-18_12h47.43.705,Reversal,2023.1.3,60.02847751015574,3,
20,exp1.png,exp2.png,,0,0,0,0,0,20,20,20,,,,,,,,,,,,,,,,,,,,,,,,,False,19,20,True,exp2.png,exp1.png,trial_left_image,1,exp2.png,3,exp2.png,exp1.png,1,3,reversed,correct,0.5729487759362946,1,valid_win,132.0211306000001,15,,,,,,,,,,,,,,,,,,sub_919,2024-03-18_12h47.43.705,Reversal,2023.1.3,60.02847751015574,3,
,,,exp1.png,0,0,0,0,,,,,0,0,0,0,0,0,0,0,,,,,,,,,,,,,,,,,,,,,,,,,,,,,,,,,,,,,,226.7820600999985,36.0,36.0,7.095288900000014,"[(36.0, 7.095288900000014)]",,,,,,,,,,,,,sub_919,2024-03-18_12h47.43.705,Reversal,2023.1.3,60.02847751015574,3,
,,,exp2.png,0,0,0,0,,,,,0,0,0,0,0,1,1,1,,,,,,,,,,,,,,,,,,,,,,,,,,,,,,,,,,,,,,235.1258633999987,,83.0,2.243929600001138,"[(83.0, 2.243929600001138)]",83.0,,,,,,,,,,,,sub_919,2024-03-18_12h47.43.705,Reversal,2023.1.3,60.02847751015574,3,
,,,exp3.png,0,0,0,0,,,,,0,0,0,0,0,2,2,2,,,,,,,,,,,,,,,,,,,,,,,,,,,,,,,,,,,,,,239.20786260000023,,30.0,2.127944599998955,"[(30.0, 2.127944599998955)]",,30.0,,,,,,,,,,,sub_919,2024-03-18_12h47.43.705,Reversal,2023.1.3,60.02847751015574,3,
,,,exp4.png,0,0,0,0,,,,,0,0,0,0,0,3,3,3,,,,,,,,,,,,,,,,,,,,,,,,,,,,,,,,,,,,,,242.63918919999924,,100.0,2.645240699999704,"[(100.0, 2.645240699999704)]",,,100.0,,,,,,,,,,sub_919,2024-03-18_12h47.43.705,Reversal,2023.1.3,60.02847751015574,3,
0,exp1.png,exp2.png,,1,0,1,0,0,0,0,0,,,,,,,,,,,,,,,,,,,,,,,,,True,,,,,,,,,,,,,,,,,,,,,,,,,,,,,,,,,,,,,,sub_919,2024-03-18_12h47.43.705,Reversal,2023.1.3,60.02847751015574,3,
1,exp3.png,exp4.png,,1,0,1,0,0,1,1,1,,,,,,,,,,,,,,,,,,,,,,,,,False,20,21,False,exp3.png,exp4.png,trial_right_image,-1,exp4.png,3,exp4.png,exp3.png,1,1,non-reversed,correct,0.5057866337981518,1,valid_win,156.1130075000001,16,,,,,,,,,,,,,,,,,,sub_919,2024-03-18_12h47.43.705,Reversal,2023.1.3,60.02847751015574,3,
2,exp1.png,exp2.png,,1,0,1,0,0,2,2,2,,,,,,,,,,,,,,,,,,,,,,,,,False,21,22,False,exp1.png,exp2.png,trial_right_image,-1,exp2.png,3,exp2.png,exp1.png,1,3,reversed,correct,0.3088552218157955,1,valid_win,160.1618939,17,,,,,,,,,,,,,,,,,,sub_919,2024-03-18_12h47.43.705,Reversal,2023.1.3,60.02847751015574,3,
3,exp3.png,exp4.png,,1,0,1,0,0,3,3,3,,,,,,,,,,,,,,,,,,,,,,,,,False,22,23,False,exp3.png,exp4.png,trial_right_image,-1,exp4.png,3,exp4.png,exp3.png,1,1,non-reversed,correct,0.05643414027911453,0,invalid_lose,164.16019450000022,17,,,,,,,,,,,,,,,,,,sub_919,2024-03-18_12h47.43.705,Reversal,2023.1.3,60.02847751015574,3,
4,exp1.png,exp2.png,,1,0,1,0,0,4,4,4,,,,,,,,,,,,,,,,,,,,,,,,,False,23,24,False,exp1.png,exp2.png,trial_right_image,-1,exp2.png,3,exp2.png,exp1.png,1,3,reversed,correct,0.33213380888679045,1,valid_win,168.27618340000117,18,,,,,,,,,,,,,,,,,,sub_919,2024-03-18_12h47.43.705,Reversal,2023.1.3,60.02847751015574,3,
5,exp3.png,exp4.png,,1,0,1,0,0,5,5,5,,,,,,,,,,,,,,,,,,,,,,,,,False,24,25,False,exp3.png,exp4.png,trial_right_image,-1,exp4.png,3,exp4.png,exp3.png,1,1,non-reversed,correct,0.08275696751600359,0,invalid_lose,172.32499319999988,18,,,,,,,,,,,,,,,,,,sub_919,2024-03-18_12h47.43.705,Reversal,2023.1.3,60.02847751015574,3,
6,exp1.png,exp2.png,,1,0,1,0,0,6,6,6,,,,,,,,,,,,,,,,,,,,,,,,,False,25,26,True,exp2.png,exp1.png,trial_left_image,1,exp2.png,3,exp2.png,exp1.png,1,3,reversed,correct,0.7816982935852995,1,valid_win,176.6232043,19,,,,,,,,,,,,,,,,,,sub_919,2024-03-18_12h47.43.705,Reversal,2023.1.3,60.02847751015574,3,
7,exp3.png,exp4.png,,1,0,1,0,0,7,7,7,,,,,,,,,,,,,,,,,,,,,,,,,False,26,27,True,exp4.png,exp3.png,trial_left_image,1,exp4.png,3,exp4.png,exp3.png,1,1,non-reversed,correct,0.7093264579121732,1,valid_win,180.88758000000053,20,,,,,,,,,,,,,,,,,,sub_919,2024-03-18_12h47.43.705,Reversal,2023.1.3,60.02847751015574,3,
8,exp1.png,exp2.png,,1,0,1,0,0,8,8,8,,,,,,,,,,,,,,,,,,,,,,,,,False,27,28,True,exp2.png,exp1.png,trial_left_image,1,exp2.png,3,exp2.png,exp1.png,1,3,reversed,correct,0.749846402026155,1,valid_win,185.0697383000006,21,,,,,,,,,,,,,,,,,,sub_919,2024-03-18_12h47.43.705,Reversal,2023.1.3,60.02847751015574,3,
9,exp3.png,exp4.png,,1,0,1,0,0,9,9,9,,,,,,,,,,,,,,,,,,,,,,,,,False,28,29,True,exp4.png,exp3.png,trial_left_image,1,exp4.png,3,exp4.png,exp3.png,1,1,non-reversed,correct,0.5747792962190933,1,valid_win,189.4511736000004,22,,,,,,,,,,,,,,,,,,sub_919,2024-03-18_12h47.43.705,Reversal,2023.1.3,60.02847751015574,3,
10,exp1.png,exp2.png,,1,0,1,0,0,10,10,10,,,,,,,,,,,,,,,,,,,,,,,,,False,29,30,True,exp2.png,exp1.png,trial_left_image,1,exp2.png,3,exp2.png,exp1.png,1,3,reversed,correct,0.09913514137603097,0,invalid_lose,193.7003323000008,22,,,,,,,,,,,,,,,,,,sub_919,2024-03-18_12h47.43.705,Reversal,2023.1.3,60.02847751015574,3,
11,exp3.png,exp4.png,,1,0,1,0,0,11,11,11,,,,,,,,,,,,,,,,,,,,,,,,,False,30,31,False,exp3.png,exp4.png,trial_right_image,-1,exp4.png,3,exp4.png,exp3.png,1,1,non-reversed,correct,0.08135539416571846,0,invalid_lose,197.94837019999977,22,,,,,,,,,,,,,,,,,,sub_919,2024-03-18_12h47.43.705,Reversal,2023.1.3,60.02847751015574,3,
12,exp1.png,exp2.png,,1,0,1,0,0,12,12,12,,,,,,,,,,,,,,,,,,,,,,,,,False,31,32,True,exp2.png,exp1.png,trial_left_image,1,exp2.png,3,exp2.png,exp1.png,1,3,reversed,correct,0.5267827427003564,1,valid_win,202.34670189999997,23,,,,,,,,,,,,,,,,,,sub_919,2024-03-18_12h47.43.705,Reversal,2023.1.3,60.02847751015574,3,
13,exp3.png,exp4.png,,1,0,1,0,0,13,13,13,,,,,,,,,,,,,,,,,,,,,,,,,False,32,33,False,exp3.png,exp4.png,trial_right_image,-1,exp4.png,3,exp4.png,exp3.png,1,1,non-reversed,correct,0.10174833172597653,0,invalid_lose,206.5293031000001,23,,,,,,,,,,,,,,,,,,sub_919,2024-03-18_12h47.43.705,Reversal,2023.1.3,60.02847751015574,3,
14,exp1.png,exp2.png,,1,0,1,0,0,14,14,14,,,,,,,,,,,,,,,,,,,,,,,,,False,33,34,True,exp2.png,exp1.png,trial_left_image,1,exp2.png,3,exp2.png,exp1.png,1,3,reversed,correct,0.19103442874588428,0,invalid_lose,210.84469910000007,23,,,,,,,,,,,,,,,,,,sub_919,2024-03-18_12h47.43.705,Reversal,2023.1.3,60.02847751015574,3,
15,exp3.png,exp4.png,,1,0,1,0,0,15,15,15,,,,,,,,,,,,,,,,,,,,,,,,,False,34,35,False,exp3.png,exp4.png,trial_right_image,-1,exp4.png,3,exp4.png,exp3.png,1,1,non-reversed,correct,0.055045156689708774,0,invalid_lose,215.14296920000015,23,,,,,,,,,,,,,,,,,,sub_919,2024-03-18_12h47.43.705,Reversal,2023.1.3,60.02847751015574,3,
16,exp1.png,exp2.png,,1,0,1,0,0,16,16,16,,,,,,,,,,,,,,,,,,,,,,,,,False,35,36,False,exp1.png,exp2.png,trial_left_image,1,exp1.png,3,exp2.png,exp1.png,0,4,reversed,incorrect,0.45998368814729274,0,valid_lose,219.4410306000009,23,,,,,,,,,,,,,,,,,,sub_919,2024-03-18_12h47.43.705,Reversal,2023.1.3,60.02847751015574,3,
17,exp3.png,exp4.png,,1,0,1,0,0,17,17,17,,,,,,,,,,,,,,,,,,,,,,,,,False,36,37,True,exp4.png,exp3.png,trial_left_image,1,exp4.png,3,exp4.png,exp3.png,1,1,non-reversed,correct,0.767512282347326,1,valid_win,223.60649940000076,24,,,,,,,,,,,,,,,,,,sub_919,2024-03-18_12h47.43.705,Reversal,2023.1.3,60.02847751015574,3,
18,exp1.png,exp2.png,,1,0,1,0,0,18,18,18,,,,,,,,,,,,,,,,,,,,,,,,,False,37,38,True,exp2.png,exp1.png,trial_left_image,1,exp2.png,3,exp2.png,exp1.png,1,3,reversed,correct,0.05410919763095945,0,invalid_lose,228.1719849000001,24,,,,,,,,,,,,,,,,,,sub_919,2024-03-18_12h47.43.705,Reversal,2023.1.3,60.02847751015574,3,
19,exp3.png,exp4.png,,1,0,1,0,0,19,19,19,,,,,,,,,,,,,,,,,,,,,,,,,False,38,39,True,exp4.png,exp3.png,trial_left_image,1,exp4.png,3,exp4.png,exp3.png,1,1,non-reversed,correct,0.3133467924864173,1,valid_win,232.3535150000007,25,,,,,,,,,,,,,,,,,,sub_919,2024-03-18_12h47.43.705,Reversal,2023.1.3,60.02847751015574,3,
20,exp1.png,exp2.png,,1,0,1,0,0,20,20,20,,,,,,,,,,,,,,,,,,,,,,,,,False,39,40,False,exp1.png,exp2.png,trial_right_image,-1,exp2.png,3,exp2.png,exp1.png,1,3,reversed,correct,0.5112873439896094,1,valid_win,236.63575889999993,26,,,,,,,,,,,,,,,,,,sub_919,2024-03-18_12h47.43.705,Reversal,2023.1.3,60.02847751015574,3,
,,,exp1.png,1,0,1,0,,,,,0,0,0,0,0,0,0,0,,,,,,,,,,,,,,,,,,,,,,,,,,,,,,,,,,,,,,331.3591749999996,73.0,73.0,6.098158299999341,"[(73.0, 6.098158299999341)]",,,,,,,,,,,,,sub_919,2024-03-18_12h47.43.705,Reversal,2023.1.3,60.02847751015574,3,
,,,exp2.png,1,0,1,0,,,,,0,0,0,0,0,1,1,1,,,,,,,,,,,,,,,,,,,,,,,,,,,,,,,,,,,,,,338.5897239999995,,79.0,1.777943299999606,"[(79.0, 1.777943299999606)]",79.0,,,,,,,,,,,,sub_919,2024-03-18_12h47.43.705,Reversal,2023.1.3,60.02847751015574,3,
,,,exp3.png,1,0,1,0,,,,,0,0,0,0,0,2,2,2,,,,,,,,,,,,,,,,,,,,,,,,,,,,,,,,,,,,,,341.4561656999995,,75.0,1.2108213999999862,"[(75.0, 1.2108213999999862)]",,75.0,,,,,,,,,,,sub_919,2024-03-18_12h47.43.705,Reversal,2023.1.3,60.02847751015574,3,
,,,exp4.png,1,0,1,0,,,,,0,0,0,0,0,3,3,3,,,,,,,,,,,,,,,,,,,,,,,,,,,,,,,,,,,,,,343.6065437999987,,86.0,1.343563099999301,"[(86.0, 1.343563099999301)]",,,86.0,,,,,,,,,,sub_919,2024-03-18_12h47.43.705,Reversal,2023.1.3,60.02847751015574,3,
0,exp1.png,exp2.png,,2,0,2,0,0,0,0,0,,,,,,,,,,,,,,,,,,,,,,,,,True,,,,,,,,,,,,,,,,,,,,,,,,,,,,,,,,,,,,,,sub_919,2024-03-18_12h47.43.705,Reversal,2023.1.3,60.02847751015574,3,
1,exp3.png,exp4.png,,2,0,2,0,0,1,1,1,,,,,,,,,,,,,,,,,,,,,,,,,False,40,41,False,exp3.png,exp4.png,trial_right_image,-1,exp4.png,3,exp4.png,exp3.png,1,1,non-reversed,correct,0.4876595512505757,1,valid_win,255.92960190000122,27,,,,,,,,,,,,,,,,,,sub_919,2024-03-18_12h47.43.705,Reversal,2023.1.3,60.02847751015574,3,
2,exp1.png,exp2.png,,2,0,2,0,0,2,2,2,,,,,,,,,,,,,,,,,,,,,,,,,False,41,42,False,exp1.png,exp2.png,trial_right_image,-1,exp2.png,3,exp2.png,exp1.png,1,3,reversed,correct,0.02550262017580429,0,invalid_lose,260.1271788000013,27,,,,,,,,,,,,,,,,,,sub_919,2024-03-18_12h47.43.705,Reversal,2023.1.3,60.02847751015574,3,
3,exp3.png,exp4.png,,2,0,2,0,0,3,3,3,,,,,,,,,,,,,,,,,,,,,,,,,False,42,43,True,exp4.png,exp3.png,trial_left_image,1,exp4.png,3,exp4.png,exp3.png,1,1,non-reversed,correct,0.29514762466067546,1,valid_win,268.49148100000093,28,,,,,,,,,,,,,,,,,,sub_919,2024-03-18_12h47.43.705,Reversal,2023.1.3,60.02847751015574,3,
4,exp1.png,exp2.png,,2,0,2,0,0,4,4,4,,,,,,,,,,,,,,,,,,,,,,,,,False,43,44,False,exp1.png,exp2.png,trial_left_image,1,exp1.png,3,exp2.png,exp1.png,0,4,reversed,incorrect,0.3715034538780936,0,valid_lose,273.15608220000104,28,,,,,,,,,,,,,,,,,,sub_919,2024-03-18_12h47.43.705,Reversal,2023.1.3,60.02847751015574,3,
5,exp3.png,exp4.png,,2,0,2,0,0,5,5,5,,,,,,,,,,,,,,,,,,,,,,,,,False,44,45,False,exp3.png,exp4.png,trial_right_image,-1,exp4.png,3,exp4.png,exp3.png,1,1,non-reversed,correct,0.12708000293169597,0,invalid_lose,277.4544655000009,28,,,,,,,,,,,,,,,,,,sub_919,2024-03-18_12h47.43.705,Reversal,2023.1.3,60.02847751015574,3,
6,exp1.png,exp2.png,,2,0,2,0,0,6,6,6,,,,,,,,,,,,,,,,,,,,,,,,,False,45,46,False,exp1.png,exp2.png,trial_right_image,-1,exp2.png,3,exp2.png,exp1.png,1,3,reversed,correct,0.12978492465058367,0,invalid_lose,282.1035892,28,,,,,,,,,,,,,,,,,,sub_919,2024-03-18_12h47.43.705,Reversal,2023.1.3,60.02847751015574,3,
7,exp3.png,exp4.png,,2,0,2,0,0,7,7,7,,,,,,,,,,,,,,,,,,,,,,,,,False,46,47,False,exp3.png,exp4.png,trial_left_image,1,exp3.png,3,exp4.png,exp3.png,0,2,non-reversed,incorrect,0.17232915631575296,1,invalid_win,292.0335044000003,29,,,,,,,,,,,,,,,,,,sub_919,2024-03-18_12h47.43.705,Reversal,2023.1.3,60.02847751015574,3,
8,exp1.png,exp2.png,,2,0,2,0,0,8,8,8,,,,,,,,,,,,,,,,,,,,,,,,,False,47,48,True,exp2.png,exp1.png,trial_right_image,-1,exp1.png,3,exp2.png,exp1.png,0,4,reversed,incorrect,0.6638116229553773,0,valid_lose,297.14828190000117,29,,,,,,,,,,,,,,,,,,sub_919,2024-03-18_12h47.43.705,Reversal,2023.1.3,60.02847751015574,3,
9,exp3.png,exp4.png,,2,0,2,0,0,9,9,9,,,,,,,,,,,,,,,,,,,,,,,,,False,48,49,True,exp4.png,exp3.png,trial_right_image,-1,exp3.png,3,exp4.png,exp3.png,0,2,non-reversed,incorrect,0.5944550744347826,0,valid_lose,303.0128800000002,29,,,,,,,,,,,,,,,,,,sub_919,2024-03-18_12h47.43.705,Reversal,2023.1.3,60.02847751015574,3,
10,exp1.png,exp2.png,,2,0,2,0,0,10,10,10,,,,,,,,,,,,,,,,,,,,,,,,,False,49,50,False,exp1.png,exp2.png,trial_left_image,1,exp1.png,3,exp2.png,exp1.png,0,4,reversed,incorrect,0.06032449797061257,1,invalid_win,307.178015200001,30,,,,,,,,,,,,,,,,,,sub_919,2024-03-18_12h47.43.705,Reversal,2023.1.3,60.02847751015574,3,
11,exp3.png,exp4.png,,2,0,2,0,0,11,11,11,,,,,,,,,,,,,,,,,,,,,,,,,False,50,51,True,exp4.png,exp3.png,trial_right_image,-1,exp3.png,3,exp4.png,exp3.png,0,2,non-reversed,incorrect,0.5127331312114881,0,valid_lose,311.5101617,30,,,,,,,,,,,,,,,,,,sub_919,2024-03-18_12h47.43.705,Reversal,2023.1.3,60.02847751015574,3,
12,exp1.png,exp2.png,,2,0,2,0,0,12,12,12,,,,,,,,,,,,,,,,,,,,,,,,,False,51,52,False,exp1.png,exp2.png,trial_right_image,-1,exp2.png,3,exp2.png,exp1.png,1,3,reversed,correct,0.9518274573224612,1,valid_win,315.83016430000134,31,,,,,,,,,,,,,,,,,,sub_919,2024-03-18_12h47.43.705,Reversal,2023.1.3,60.02847751015574,3,
13,exp3.png,exp4.png,,2,0,2,0,0,13,13,13,,,,,,,,,,,,,,,,,,,,,,,,,False,52,53,False,exp3.png,exp4.png,trial_right_image,-1,exp4.png,3,exp4.png,exp3.png,1,1,non-reversed,correct,0.3403788091624351,1,valid_win,320.3407408000003,32,,,,,,,,,,,,,,,,,,sub_919,2024-03-18_12h47.43.705,Reversal,2023.1.3,60.02847751015574,3,
14,exp1.png,exp2.png,,2,0,2,0,0,14,14,14,,,,,,,,,,,,,,,,,,,,,,,,,False,53,54,True,exp2.png,exp1.png,trial_left_image,1,exp2.png,3,exp2.png,exp1.png,1,3,reversed,correct,0.02816580403273028,0,invalid_lose,325.322012300001,32,,,,,,,,,,,,,,,,,,sub_919,2024-03-18_12h47.43.705,Reversal,2023.1.3,60.02847751015574,3,
15,exp3.png,exp4.png,,2,0,2,0,0,15,15,15,,,,,,,,,,,,,,,,,,,,,,,,,False,54,55,False,exp3.png,exp4.png,trial_right_image,-1,exp4.png,3,exp4.png,exp3.png,1,1,non-reversed,correct,0.012175228424481821,0,invalid_lose,329.9870367000003,32,,,,,,,,,,,,,,,,,,sub_919,2024-03-18_12h47.43.705,Reversal,2023.1.3,60.02847751015574,3,
16,exp1.png,exp2.png,,2,0,2,0,0,16,16,16,,,,,,,,,,,,,,,,,,,,,,,,,False,55,56,True,exp2.png,exp1.png,trial_left_image,1,exp2.png,3,exp2.png,exp1.png,1,3,reversed,correct,0.037593183009029696,0,invalid_lose,335.4354796000007,32,,,,,,,,,,,,,,,,,,sub_919,2024-03-18_12h47.43.705,Reversal,2023.1.3,60.02847751015574,3,
17,exp3.png,exp4.png,,2,0,2,0,0,17,17,17,,,,,,,,,,,,,,,,,,,,,,,,,False,56,57,True,exp4.png,exp3.png,trial_right_image,-1,exp3.png,3,exp4.png,exp3.png,0,2,non-reversed,incorrect,0.9442515552165448,0,valid_lose,341.71719029999986,32,,,,,,,,,,,,,,,,,,sub_919,2024-03-18_12h47.43.705,Reversal,2023.1.3,60.02847751015574,3,
18,exp1.png,exp2.png,,2,0,2,0,0,18,18,18,,,,,,,,,,,,,,,,,,,,,,,,,False,57,58,True,exp2.png,exp1.png,trial_left_image,1,exp2.png,3,exp2.png,exp1.png,1,3,reversed,correct,0.8813757998966022,1,valid_win,346.26518120000037,33,,,,,,,,,,,,,,,,,,sub_919,2024-03-18_12h47.43.705,Reversal,2023.1.3,60.02847751015574,3,
19,exp3.png,exp4.png,,2,0,2,0,0,19,19,19,,,,,,,,,,,,,,,,,,,,,,,,,False,58,59,True,exp4.png,exp3.png,trial_left_image,1,exp4.png,3,exp4.png,exp3.png,1,1,non-reversed,correct,0.40468627252831324,1,valid_win,351.68033130000003,34,,,,,,,,,,,,,,,,,,sub_919,2024-03-18_12h47.43.705,Reversal,2023.1.3,60.02847751015574,3,
20,exp1.png,exp2.png,,2,0,2,0,0,20,20,20,,,,,,,,,,,,,,,,,,,,,,,,,False,59,60,True,exp2.png,exp1.png,trial_left_image,1,exp2.png,3,exp2.png,exp1.png,1,3,reversed,correct,0.632465471802609,1,valid_win,357.8610384000003,35,,,,,,,,,,,,,,,,,,sub_919,2024-03-18_12h47.43.705,Reversal,2023.1.3,60.02847751015574,3,
,,,exp1.png,2,0,2,0,,,,,0,0,0,0,0,0,0,0,,,,,,,,,,,,,,,,,,,,,,,,,,,,,,,,,,,,,,452.57200829999965,26.0,26.0,7.8901513000000705,"[(26.0, 7.8901513000000705)]",,,,,,,,,,,,,sub_919,2024-03-18_12h47.43.705,Reversal,2023.1.3,60.02847751015574,3,
,,,exp2.png,2,0,2,0,,,,,0,0,0,0,0,1,1,1,,,,,,,,,,,,,,,,,,,,,,,,,,,,,,,,,,,,,,462.13154229999964,,25.0,2.5284599999995407,"[(25.0, 2.5284599999995407)]",25.0,,,,,,,,,,,,sub_919,2024-03-18_12h47.43.705,Reversal,2023.1.3,60.02847751015574,3,
,,,exp3.png,2,0,2,0,,,,,0,0,0,0,0,2,2,2,,,,,,,,,,,,,,,,,,,,,,,,,,,,,,,,,,,,,,465.78191700000025,,26.0,2.1262922000005346,"[(26.0, 2.1262922000005346)]",,26.0,,,,,,,,,,,sub_919,2024-03-18_12h47.43.705,Reversal,2023.1.3,60.02847751015574,3,
,,,exp4.png,2,0,2,0,,,,,0,0,0,0,0,3,3,3,,,,,,,,,,,,,,,,,,,,,,,,,,,,,,,,,,,,,,468.99700719999964,,24.0,2.2107961000001524,"[(24.0, 2.2107961000001524)]",,,24.0,,,,,,,,,,sub_919,2024-03-18_12h47.43.705,Reversal,2023.1.3,60.02847751015574,3,
0,exp1.png,exp2.png,,3,0,3,0,0,0,0,0,,,,,,,,,,,,,,,,,,,,,,,,,True,,,,,,,,,,,,,,,,,,,,,,,,,,,,,,,,,,,,,,sub_919,2024-03-18_12h47.43.705,Reversal,2023.1.3,60.02847751015574,3,
1,exp3.png,exp4.png,,3,0,3,0,0,1,1,1,,,,,,,,,,,,,,,,,,,,,,,,,False,60,61,True,exp4.png,exp3.png,trial_left_image,1,exp4.png,3,exp4.png,exp3.png,1,1,non-reversed,correct,0.3034565241030134,1,valid_win,384.7190217999996,36,,,,,,,,,,,,,,,,,,sub_919,2024-03-18_12h47.43.705,Reversal,2023.1.3,60.02847751015574,3,
2,exp1.png,exp2.png,,3,0,3,0,0,2,2,2,,,,,,,,,,,,,,,,,,,,,,,,,False,61,62,False,exp1.png,exp2.png,trial_right_image,-1,exp2.png,3,exp2.png,exp1.png,1,3,reversed,correct,0.3492913870420824,1,valid_win,389.7506274999996,37,,,,,,,,,,,,,,,,,,sub_919,2024-03-18_12h47.43.705,Reversal,2023.1.3,60.02847751015574,3,
3,exp3.png,exp4.png,,3,0,3,0,0,3,3,3,,,,,,,,,,,,,,,,,,,,,,,,,False,62,63,False,exp3.png,exp4.png,trial_right_image,-1,exp4.png,3,exp4.png,exp3.png,1,1,non-reversed,correct,0.9412621871101629,1,valid_win,394.51582419999977,38,,,,,,,,,,,,,,,,,,sub_919,2024-03-18_12h47.43.705,Reversal,2023.1.3,60.02847751015574,3,
4,exp1.png,exp2.png,,3,0,3,0,0,4,4,4,,,,,,,,,,,,,,,,,,,,,,,,,False,63,64,True,exp2.png,exp1.png,trial_left_image,1,exp2.png,3,exp2.png,exp1.png,1,3,reversed,correct,0.38925040736956174,1,valid_win,399.0637447000008,39,,,,,,,,,,,,,,,,,,sub_919,2024-03-18_12h47.43.705,Reversal,2023.1.3,60.02847751015574,3,
5,exp3.png,exp4.png,,3,0,3,0,0,5,5,5,,,,,,,,,,,,,,,,,,,,,,,,,False,64,65,False,exp3.png,exp4.png,trial_right_image,-1,exp4.png,3,exp4.png,exp3.png,1,1,non-reversed,correct,0.9624253167630286,1,valid_win,403.91289440000037,40,,,,,,,,,,,,,,,,,,sub_919,2024-03-18_12h47.43.705,Reversal,2023.1.3,60.02847751015574,3,
6,exp1.png,exp2.png,,3,0,3,0,0,6,6,6,,,,,,,,,,,,,,,,,,,,,,,,,False,65,66,False,exp1.png,exp2.png,trial_right_image,-1,exp2.png,3,exp2.png,exp1.png,1,3,reversed,correct,0.5893519591226699,1,valid_win,414.4752131000005,41,,,,,,,,,,,,,,,,,,sub_919,2024-03-18_12h47.43.705,Reversal,2023.1.3,60.02847751015574,3,
7,exp3.png,exp4.png,,3,0,3,0,0,7,7,7,,,,,,,,,,,,,,,,,,,,,,,,,False,66,67,True,exp4.png,exp3.png,trial_left_image,1,exp4.png,3,exp4.png,exp3.png,1,1,non-reversed,correct,0.5389853900747941,1,valid_win,419.3408775000007,42,,,,,,,,,,,,,,,,,,sub_919,2024-03-18_12h47.43.705,Reversal,2023.1.3,60.02847751015574,3,
8,exp1.png,exp2.png,,3,0,3,0,0,8,8,8,,,,,,,,,,,,,,,,,,,,,,,,,False,67,68,True,exp2.png,exp1.png,trial_left_image,1,exp2.png,3,exp2.png,exp1.png,1,3,reversed,correct,0.5708739738305642,1,valid_win,423.9055726000006,43,,,,,,,,,,,,,,,,,,sub_919,2024-03-18_12h47.43.705,Reversal,2023.1.3,60.02847751015574,3,
9,exp3.png,exp4.png,,3,0,3,0,0,9,9,9,,,,,,,,,,,,,,,,,,,,,,,,,False,68,69,True,exp4.png,exp3.png,trial_left_image,1,exp4.png,3,exp4.png,exp3.png,1,1,non-reversed,correct,0.9090474702185668,1,valid_win,428.32079929999963,44,,,,,,,,,,,,,,,,,,sub_919,2024-03-18_12h47.43.705,Reversal,2023.1.3,60.02847751015574,3,
10,exp1.png,exp2.png,,3,0,3,0,0,10,10,10,,,,,,,,,,,,,,,,,,,,,,,,,False,69,70,True,exp2.png,exp1.png,trial_left_image,1,exp2.png,3,exp2.png,exp1.png,1,3,reversed,correct,0.74277217888909,1,valid_win,432.6359269000004,45,,,,,,,,,,,,,,,,,,sub_919,2024-03-18_12h47.43.705,Reversal,2023.1.3,60.02847751015574,3,
11,exp3.png,exp4.png,,3,0,3,0,0,11,11,11,,,,,,,,,,,,,,,,,,,,,,,,,False,70,71,True,exp4.png,exp3.png,trial_left_image,1,exp4.png,3,exp4.png,exp3.png,1,1,non-reversed,correct,0.1365454919259409,0,invalid_lose,437.76789500000086,45,,,,,,,,,,,,,,,,,,sub_919,2024-03-18_12h47.43.705,Reversal,2023.1.3,60.02847751015574,3,
12,exp1.png,exp2.png,,3,0,3,0,0,12,12,12,,,,,,,,,,,,,,,,,,,,,,,,,False,71,72,False,exp1.png,exp2.png,trial_right_image,-1,exp2.png,3,exp2.png,exp1.png,1,3,reversed,correct,0.508472194927786,1,valid_win,442.66581270000097,46,,,,,,,,,,,,,,,,,,sub_919,2024-03-18_12h47.43.705,Reversal,2023.1.3,60.02847751015574,3,
13,exp3.png,exp4.png,,3,0,3,0,0,13,13,13,,,,,,,,,,,,,,,,,,,,,,,,,False,72,73,False,exp3.png,exp4.png,trial_right_image,-1,exp4.png,3,exp4.png,exp3.png,1,1,non-reversed,correct,0.43717886863596167,1,valid_win,454.22932610000134,47,,,,,,,,,,,,,,,,,,sub_919,2024-03-18_12h47.43.705,Reversal,2023.1.3,60.02847751015574,3,
14,exp1.png,exp2.png,,3,0,3,0,0,14,14,14,,,,,,,,,,,,,,,,,,,,,,,,,False,73,74,False,exp1.png,exp2.png,trial_right_image,-1,exp2.png,3,exp2.png,exp1.png,1,3,reversed,correct,0.888830158586038,1,valid_win,459.09382279999954,48,,,,,,,,,,,,,,,,,,sub_919,2024-03-18_12h47.43.705,Reversal,2023.1.3,60.02847751015574,3,
15,exp3.png,exp4.png,,3,0,3,0,0,15,15,15,,,,,,,,,,,,,,,,,,,,,,,,,False,74,75,False,exp3.png,exp4.png,trial_right_image,-1,exp4.png,3,exp4.png,exp3.png,1,1,non-reversed,correct,0.21481114051653372,0,invalid_lose,463.7584920999998,48,,,,,,,,,,,,,,,,,,sub_919,2024-03-18_12h47.43.705,Reversal,2023.1.3,60.02847751015574,3,
16,exp1.png,exp2.png,,3,0,3,0,0,16,16,16,,,,,,,,,,,,,,,,,,,,,,,,,False,75,76,False,exp1.png,exp2.png,trial_right_image,-1,exp2.png,3,exp2.png,exp1.png,1,3,reversed,correct,0.8176808067313356,1,valid_win,469.14054320000105,49,,,,,,,,,,,,,,,,,,sub_919,2024-03-18_12h47.43.705,Reversal,2023.1.3,60.02847751015574,3,
17,exp3.png,exp4.png,,3,0,3,0,0,17,17,17,,,,,,,,,,,,,,,,,,,,,,,,,False,76,77,True,exp4.png,exp3.png,trial_left_image,1,exp4.png,3,exp4.png,exp3.png,1,1,non-reversed,correct,0.8072790396795214,1,valid_win,473.6219901000004,50,,,,,,,,,,,,,,,,,,sub_919,2024-03-18_12h47.43.705,Reversal,2023.1.3,60.02847751015574,3,
18,exp1.png,exp2.png,,3,0,3,0,0,18,18,18,,,,,,,,,,,,,,,,,,,,,,,,,False,77,78,True,exp2.png,exp1.png,trial_left_image,1,exp2.png,3,exp2.png,exp1.png,1,3,reversed,correct,0.8079129954988257,1,valid_win,478.1204630000011,51,,,,,,,,,,,,,,,,,,sub_919,2024-03-18_12h47.43.705,Reversal,2023.1.3,60.02847751015574,3,
19,exp3.png,exp4.png,,3,0,3,0,0,19,19,19,,,,,,,,,,,,,,,,,,,,,,,,,False,78,79,False,exp3.png,exp4.png,trial_right_image,-1,exp4.png,3,exp4.png,exp3.png,1,1,non-reversed,correct,0.7825439557574562,1,valid_win,482.9023765000002,52,,,,,,,,,,,,,,,,,,sub_919,2024-03-18_12h47.43.705,Reversal,2023.1.3,60.02847751015574,3,
20,exp1.png,exp2.png,,3,0,3,0,0,20,20,20,,,,,,,,,,,,,,,,,,,,,,,,,False,79,80,True,exp2.png,exp1.png,trial_left_image,1,exp2.png,3,exp2.png,exp1.png,1,3,reversed,correct,0.222010864178403,0,invalid_lose,489.20016060000125,52,,,,,,,,,,,,,,,,,,sub_919,2024-03-18_12h47.43.705,Reversal,2023.1.3,60.02847751015574,3,
,,,exp1.png,3,0,3,0,,,,,0,0,0,0,0,0,0,0,,,,,,,,,,,,,,,,,,,,,,,,,,,,,,,,,,,,,,583.9226359999993,75.0,75.0,5.963062400000126,"[(75.0, 5.963062400000126)]",,,,,,,,,,,,,sub_919,2024-03-18_12h47.43.705,Reversal,2023.1.3,60.02847751015574,3,
,,,exp2.png,3,0,3,0,,,,,0,0,0,0,0,1,1,1,,,,,,,,,,,,,,,,,,,,,,,,,,,,,,,,,,,,,,590.788960599999,,28.0,2.8121413999997458,"[(28.0, 2.8121413999997458)]",28.0,,,,,,,,,,,,sub_919,2024-03-18_12h47.43.705,Reversal,2023.1.3,60.02847751015574,3,
,,,exp3.png,3,0,3,0,,,,,0,0,0,0,0,2,2,2,,,,,,,,,,,,,,,,,,,,,,,,,,,,,,,,,,,,,,594.5402506999999,,28.0,1.6915972999995574,"[(28.0, 1.6915972999995574)]",,28.0,,,,,,,,,,,sub_919,2024-03-18_12h47.43.705,Reversal,2023.1.3,60.02847751015574,3,
,,,exp4.png,3,0,3,0,,,,,0,0,0,0,0,3,3,3,,,,,,,,,,,,,,,,,,,,,,,,,,,,,,,,,,,,,,597.0852450000002,,66.0,1.0286068999994313,"[(66.0, 1.0286068999994313)]",,,66.0,,,,,,,,,,sub_919,2024-03-18_12h47.43.705,Reversal,2023.1.3,60.02847751015574,3,
0,exp1.png,exp2.png,,,,,,,,,,,,,,,,,,0,0,0,0,0,0,0,0,,,,,,,,,True,,,,,,,,,,,,,,,,,,,,,,,,,,,,,,,,,,,,,,sub_919,2024-03-18_12h47.43.705,Reversal,2023.1.3,60.02847751015574,3,
1,exp3.png,exp4.png,,,,,,,,,,,,,,,,,,0,0,0,0,0,1,1,1,,,,,,,,,False,0,81,True,exp4.png,exp3.png,trial_left_image,1,exp4.png,3,exp4.png,exp3.png,1,1,non-reversed,correct,0.5634580869848056,1,valid_win,511.14305870000135,53,,,,,,,,,506.9739687000001,,,,,,,,,sub_919,2024-03-18_12h47.43.705,Reversal,2023.1.3,60.02847751015574,3,
2,exp1.png,exp2.png,,,,,,,,,,,,,,,,,,0,0,0,0,0,2,2,2,,,,,,,,,False,1,82,False,exp1.png,exp2.png,trial_left_image,1,exp1.png,3,exp1.png,exp2.png,0,4,reversed,correct,0.20891970074412192,0,invalid_lose,516.0273784000001,53,,,,,,,,,,,,,,,,,,sub_919,2024-03-18_12h47.43.705,Reversal,2023.1.3,60.02847751015574,3,
3,exp3.png,exp4.png,,,,,,,,,,,,,,,,,,0,0,0,0,0,3,3,3,,,,,,,,,False,2,83,False,exp3.png,exp4.png,trial_right_image,-1,exp4.png,3,exp4.png,exp3.png,1,1,non-reversed,correct,0.6015900568586102,1,valid_win,520.7227777000007,54,,,,,,,,,,,,,,,,,,sub_919,2024-03-18_12h47.43.705,Reversal,2023.1.3,60.02847751015574,3,
4,exp1.png,exp2.png,,,,,,,,,,,,,,,,,,0,0,0,0,0,4,4,4,,,,,,,,,False,3,84,True,exp2.png,exp1.png,trial_left_image,1,exp2.png,3,exp1.png,exp2.png,1,3,reversed,incorrect,0.3135804412260106,0,valid_lose,524.8379303000002,54,,,,,,,,,,,,,,,,,,sub_919,2024-03-18_12h47.43.705,Reversal,2023.1.3,60.02847751015574,3,
5,exp3.png,exp4.png,,,,,,,,,,,,,,,,,,0,0,0,0,0,5,5,5,,,,,,,,,False,4,85,False,exp3.png,exp4.png,trial_right_image,-1,exp4.png,3,exp4.png,exp3.png,1,1,non-reversed,correct,0.41581249381497243,1,valid_win,528.9702969999998,55,,,,,,,,,,,,,,,,,,sub_919,2024-03-18_12h47.43.705,Reversal,2023.1.3,60.02847751015574,3,
6,exp1.png,exp2.png,,,,,,,,,,,,,,,,,,0,0,0,0,0,6,6,6,,,,,,,,,False,5,86,True,exp2.png,exp1.png,trial_left_image,1,exp2.png,3,exp1.png,exp2.png,1,3,reversed,incorrect,0.24169683533935427,1,invalid_win,533.0542705999997,56,,,,,,,,,,,,,,,,,,sub_919,2024-03-18_12h47.43.705,Reversal,2023.1.3,60.02847751015574,3,
7,exp3.png,exp4.png,,,,,,,,,,,,,,,,,,0,0,0,0,0,7,7,7,,,,,,,,,False,6,87,False,exp3.png,exp4.png,trial_right_image,-1,exp4.png,3,exp4.png,exp3.png,1,1,non-reversed,correct,0.004707827506300388,0,invalid_lose,537.2017637000008,56,,,,,,,,,,,,,,,,,,sub_919,2024-03-18_12h47.43.705,Reversal,2023.1.3,60.02847751015574,3,
8,exp1.png,exp2.png,,,,,,,,,,,,,,,,,,0,0,0,0,0,8,8,8,,,,,,,,,False,7,88,True,exp2.png,exp1.png,trial_left_image,1,exp2.png,3,exp1.png,exp2.png,1,3,reversed,incorrect,0.4558270655531097,0,valid_lose,541.2159716000006,56,,,,,,,,,,,,,,,,,,sub_919,2024-03-18_12h47.43.705,Reversal,2023.1.3,60.02847751015574,3,
9,exp3.png,exp4.png,,,,,,,,,,,,,,,,,,0,0,0,0,0,9,9,9,,,,,,,,,False,8,89,True,exp4.png,exp3.png,trial_left_image,1,exp4.png,3,exp4.png,exp3.png,1,1,non-reversed,correct,0.5108760077561777,1,valid_win,545.814320200001,57,,,,,,,,,,,,,,,,,,sub_919,2024-03-18_12h47.43.705,Reversal,2023.1.3,60.02847751015574,3,
10,exp1.png,exp2.png,,,,,,,,,,,,,,,,,,0,0,0,0,0,10,10,10,,,,,,,,,False,9,90,False,exp1.png,exp2.png,trial_right_image,-1,exp2.png,3,exp1.png,exp2.png,1,3,reversed,incorrect,0.8227825556695794,0,valid_lose,550.1629014000009,57,,,,,,,,,,,,,,,,,,sub_919,2024-03-18_12h47.43.705,Reversal,2023.1.3,60.02847751015574,3,
11,exp3.png,exp4.png,,,,,,,,,,,,,,,,,,0,0,0,0,0,11,11,11,,,,,,,,,False,10,91,False,exp3.png,exp4.png,trial_right_image,-1,exp4.png,3,exp4.png,exp3.png,1,1,non-reversed,correct,0.08932671630597999,0,invalid_lose,554.1614287000011,57,,,,,,,,,,,,,,,,,,sub_919,2024-03-18_12h47.43.705,Reversal,2023.1.3,60.02847751015574,3,
12,exp1.png,exp2.png,,,,,,,,,,,,,,,,,,0,0,0,0,0,12,12,12,,,,,,,,,False,11,92,True,exp2.png,exp1.png,trial_left_image,1,exp2.png,3,exp1.png,exp2.png,1,3,reversed,incorrect,0.5206177701650863,0,valid_lose,558.4267663999999,57,,,,,,,,,,,,,,,,,,sub_919,2024-03-18_12h47.43.705,Reversal,2023.1.3,60.02847751015574,3,
13,exp3.png,exp4.png,,,,,,,,,,,,,,,,,,0,0,0,0,0,13,13,13,,,,,,,,,False,12,93,False,exp3.png,exp4.png,trial_right_image,-1,exp4.png,3,exp4.png,exp3.png,1,1,non-reversed,correct,0.8953180064522934,1,valid_win,562.6585586000001,58,,,,,,,,,,,,,,,,,,sub_919,2024-03-18_12h47.43.705,Reversal,2023.1.3,60.02847751015574,3,
14,exp1.png,exp2.png,,,,,,,,,,,,,,,,,,0,0,0,0,0,14,14,14,,,,,,,,,False,13,94,True,exp2.png,exp1.png,trial_left_image,1,exp2.png,3,exp1.png,exp2.png,1,3,reversed,incorrect,0.8985145838603703,0,valid_lose,568.9902225000005,58,,,,,,,,,,,,,,,,,,sub_919,2024-03-18_12h47.43.705,Reversal,2023.1.3,60.02847751015574,3,
15,exp3.png,exp4.png,,,,,,,,,,,,,,,,,,0,0,0,0,0,15,15,15,,,,,,,,,False,14,95,False,exp3.png,exp4.png,trial_right_image,-1,exp4.png,3,exp4.png,exp3.png,1,1,non-reversed,correct,0.5609806367163456,1,valid_win,573.3556064000004,59,,,,,,,,,,,,,,,,,,sub_919,2024-03-18_12h47.43.705,Reversal,2023.1.3,60.02847751015574,3,
16,exp1.png,exp2.png,,,,,,,,,,,,,,,,,,0,0,0,0,0,16,16,16,,,,,,,,,False,15,96,False,exp1.png,exp2.png,trial_right_image,-1,exp2.png,3,exp1.png,exp2.png,1,3,reversed,incorrect,0.5318266683503454,0,valid_lose,578.0206107000013,59,,,,,,,,,,,,,,,,,,sub_919,2024-03-18_12h47.43.705,Reversal,2023.1.3,60.02847751015574,3,
17,exp3.png,exp4.png,,,,,,,,,,,,,,,,,,0,0,0,0,0,17,17,17,,,,,,,,,False,16,97,True,exp4.png,exp3.png,trial_left_image,1,exp4.png,3,exp4.png,exp3.png,1,1,non-reversed,correct,0.9431099170005616,1,valid_win,582.9352067,60,,,,,,,,,,,,,,,,,,sub_919,2024-03-18_12h47.43.705,Reversal,2023.1.3,60.02847751015574,3,
18,exp1.png,exp2.png,,,,,,,,,,,,,,,,,,0,0,0,0,0,18,18,18,,,,,,,,,False,17,98,True,exp2.png,exp1.png,trial_left_image,1,exp2.png,3,exp1.png,exp2.png,1,3,reversed,incorrect,0.49654745331453354,0,valid_lose,587.9006508000002,60,,,,,,,,,,,,,,,,,,sub_919,2024-03-18_12h47.43.705,Reversal,2023.1.3,60.02847751015574,3,
19,exp3.png,exp4.png,,,,,,,,,,,,,,,,,,0,0,0,0,0,19,19,19,,,,,,,,,False,18,99,True,exp4.png,exp3.png,trial_left_image,1,exp4.png,3,exp4.png,exp3.png,1,1,non-reversed,correct,0.03186353103918771,0,invalid_lose,595.8641188000001,60,,,,,,,,,,,,,,,,,,sub_919,2024-03-18_12h47.43.705,Reversal,2023.1.3,60.02847751015574,3,
20,exp1.png,exp2.png,,,,,,,,,,,,,,,,,,0,0,0,0,0,20,20,20,,,,,,,,,False,19,100,False,exp1.png,exp2.png,trial_left_image,1,exp1.png,3,exp1.png,exp2.png,0,4,reversed,correct,0.6139447563814227,1,valid_win,600.1127070000002,61,,,,,,,,,,,,,,,,,,sub_919,2024-03-18_12h47.43.705,Reversal,2023.1.3,60.02847751015574,3,
,,,exp1.png,,,,,,,,,,,,,,,,,0,0,0,0,,,,,0,0,0,0,0,0,0,0,,,,,,,,,,,,,,,,,,,,,,694.8239979999998,,None,None,[],,,,,,,,,,,,,sub_919,2024-03-18_12h47.43.705,Reversal,2023.1.3,60.02847751015574,3,
,,,exp2.png,,,,,,,,,,,,,,,,,0,0,0,0,,,,,0,0,0,0,0,1,1,1,,,,,,,,,,,,,,,,,,,,,,696.8523934999994,,None,None,[],,,,,,,,,,,,,sub_919,2024-03-18_12h47.43.705,Reversal,2023.1.3,60.02847751015574,3,
,,,exp3.png,,,,,,,,,,,,,,,,,0,0,0,0,,,,,0,0,0,0,0,2,2,2,,,,,,,,,,,,,,,,,,,,,,697.9679805999986,,None,None,[],,,,,,,,,,,,,sub_919,2024-03-18_12h47.43.705,Reversal,2023.1.3,60.02847751015574,3,
,,,exp4.png,,,,,,,,,,,,,,,,,0,0,0,0,,,,,0,0,0,0,0,3,3,3,,,,,,,,,,,,,,,,,,,,,,699.0024729999986,,None,None,[],,,,,,,,,,,,,sub_919,2024-03-18_12h47.43.705,Reversal,2023.1.3,60.02847751015574,3,
0,exp1.png,exp2.png,,,,,,,,,,,,,,,,,,1,0,1,0,0,0,0,0,,,,,,,,,True,,,,,,,,,,,,,,,,,,,,,,,,,,,,,,,,,,,,,,sub_919,2024-03-18_12h47.43.705,Reversal,2023.1.3,60.02847751015574,3,
1,exp3.png,exp4.png,,,,,,,,,,,,,,,,,,1,0,1,0,0,1,1,1,,,,,,,,,False,20,101,True,exp4.png,exp3.png,trial_right_image,-1,exp3.png,3,exp4.png,exp3.png,0,2,non-reversed,incorrect,0.4950411393762625,0,valid_lose,616.2906956999996,61,,,,,,,,,,,,,,,,,,sub_919,2024-03-18_12h47.43.705,Reversal,2023.1.3,60.02847751015574,3,
2,exp1.png,exp2.png,,,,,,,,,,,,,,,,,,1,0,1,0,0,2,2,2,,,,,,,,,False,21,102,True,exp2.png,exp1.png,trial_right_image,-1,exp1.png,3,exp1.png,exp2.png,0,4,reversed,correct,0.045213033221245924,0,invalid_lose,620.1401509999996,61,,,,,,,,,,,,,,,,,,sub_919,2024-03-18_12h47.43.705,Reversal,2023.1.3,60.02847751015574,3,
3,exp3.png,exp4.png,,,,,,,,,,,,,,,,,,1,0,1,0,0,3,3,3,,,,,,,,,False,22,103,True,exp4.png,exp3.png,trial_right_image,-1,exp3.png,3,exp4.png,exp3.png,0,2,non-reversed,incorrect,0.05643760141598986,1,invalid_win,624.5375523000002,62,,,,,,,,,,,,,,,,,,sub_919,2024-03-18_12h47.43.705,Reversal,2023.1.3,60.02847751015574,3,
4,exp1.png,exp2.png,,,,,,,,,,,,,,,,,,1,0,1,0,0,4,4,4,,,,,,,,,False,23,104,True,exp2.png,exp1.png,trial_right_image,-1,exp1.png,3,exp1.png,exp2.png,0,4,reversed,correct,0.1717126134352972,0,invalid_lose,628.4863686999997,62,,,,,,,,,,,,,,,,,,sub_919,2024-03-18_12h47.43.705,Reversal,2023.1.3,60.02847751015574,3,
5,exp3.png,exp4.png,,,,,,,,,,,,,,,,,,1,0,1,0,0,5,5,5,,,,,,,,,False,24,105,False,exp3.png,exp4.png,trial_right_image,-1,exp4.png,3,exp4.png,exp3.png,1,1,non-reversed,correct,0.10134821826053098,0,invalid_lose,632.3182403999999,62,,,,,,,,,,,,,,,,,,sub_919,2024-03-18_12h47.43.705,Reversal,2023.1.3,60.02847751015574,3,
6,exp1.png,exp2.png,,,,,,,,,,,,,,,,,,1,0,1,0,0,6,6,6,,,,,,,,,False,25,106,True,exp2.png,exp1.png,trial_right_image,-1,exp1.png,3,exp1.png,exp2.png,0,4,reversed,correct,0.6576076972738786,1,valid_win,635.3670441000013,63,,,,,,,,,,,,,,,,,,sub_919,2024-03-18_12h47.43.705,Reversal,2023.1.3,60.02847751015574,3,
7,exp3.png,exp4.png,,,,,,,,,,,,,,,,,,1,0,1,0,0,7,7,7,,,,,,,,,False,26,107,False,exp3.png,exp4.png,trial_right_image,-1,exp4.png,3,exp4.png,exp3.png,1,1,non-reversed,correct,0.3195737939216581,1,valid_win,639.2994947999996,64,,,,,,,,,,,,,,,,,,sub_919,2024-03-18_12h47.43.705,Reversal,2023.1.3,60.02847751015574,3,
8,exp1.png,exp2.png,,,,,,,,,,,,,,,,,,1,0,1,0,0,8,8,8,,,,,,,,,False,27,108,True,exp2.png,exp1.png,trial_right_image,-1,exp1.png,3,exp1.png,exp2.png,0,4,reversed,correct,0.2259347438218524,0,invalid_lose,643.1650841999999,64,,,,,,,,,,,,,,,,,,sub_919,2024-03-18_12h47.43.705,Reversal,2023.1.3,60.02847751015574,3,
9,exp3.png,exp4.png,,,,,,,,,,,,,,,,,,1,0,1,0,0,9,9,9,,,,,,,,,False,28,109,False,exp3.png,exp4.png,trial_right_image,-1,exp4.png,3,exp4.png,exp3.png,1,1,non-reversed,correct,0.8725904637699341,1,valid_win,647.0802170999996,65,,,,,,,,,,,,,,,,,,sub_919,2024-03-18_12h47.43.705,Reversal,2023.1.3,60.02847751015574,3,
10,exp1.png,exp2.png,,,,,,,,,,,,,,,,,,1,0,1,0,0,10,10,10,,,,,,,,,False,29,110,False,exp1.png,exp2.png,trial_right_image,-1,exp2.png,3,exp1.png,exp2.png,1,3,reversed,incorrect,0.9158003896809757,0,valid_lose,651.0121681,65,,,,,,,,,,,,,,,,,,sub_919,2024-03-18_12h47.43.705,Reversal,2023.1.3,60.02847751015574,3,
11,exp3.png,exp4.png,,,,,,,,,,,,,,,,,,1,0,1,0,0,11,11,11,,,,,,,,,False,30,111,True,exp4.png,exp3.png,trial_right_image,-1,exp3.png,3,exp4.png,exp3.png,0,2,non-reversed,incorrect,0.5264728508894382,0,valid_lose,654.8446244000006,65,,,,,,,,,,,,,,,,,,sub_919,2024-03-18_12h47.43.705,Reversal,2023.1.3,60.02847751015574,3,
12,exp1.png,exp2.png,,,,,,,,,,,,,,,,,,1,0,1,0,0,12,12,12,,,,,,,,,False,31,112,False,exp1.png,exp2.png,trial_left_image,1,exp1.png,3,exp1.png,exp2.png,0,4,reversed,correct,0.4415920822589393,1,valid_win,658.851153900001,66,,,,,,,,,,,,,,,,,,sub_919,2024-03-18_12h47.43.705,Reversal,2023.1.3,60.02847751015574,3,
13,exp3.png,exp4.png,,,,,,,,,,,,,,,,,,1,0,1,0,0,13,13,13,,,,,,,,,False,32,113,False,exp3.png,exp4.png,trial_left_image,1,exp3.png,3,exp4.png,exp3.png,0,2,non-reversed,incorrect,0.09073289619108205,1,invalid_win,663.2746435999998,67,,,,,,,,,,,,,,,,,,sub_919,2024-03-18_12h47.43.705,Reversal,2023.1.3,60.02847751015574,3,
14,exp1.png,exp2.png,,,,,,,,,,,,,,,,,,1,0,1,0,0,14,14,14,,,,,,,,,False,33,114,False,exp1.png,exp2.png,trial_right_image,-1,exp2.png,3,exp1.png,exp2.png,1,3,reversed,incorrect,0.5793122950135651,0,valid_lose,667.1235639000006,67,,,,,,,,,,,,,,,,,,sub_919,2024-03-18_12h47.43.705,Reversal,2023.1.3,60.02847751015574,3,
15,exp3.png,exp4.png,,,,,,,,,,,,,,,,,,1,0,1,0,0,15,15,15,,,,,,,,,False,34,115,True,exp4.png,exp3.png,trial_right_image,-1,exp3.png,3,exp4.png,exp3.png,0,2,non-reversed,incorrect,0.8005220396794963,0,valid_lose,670.9385521000004,67,,,,,,,,,,,,,,,,,,sub_919,2024-03-18_12h47.43.705,Reversal,2023.1.3,60.02847751015574,3,
16,exp1.png,exp2.png,,,,,,,,,,,,,,,,,,1,0,1,0,0,16,16,16,,,,,,,,,False,35,116,True,exp2.png,exp1.png,trial_right_image,-1,exp1.png,3,exp1.png,exp2.png,0,4,reversed,correct,0.851340913090672,1,valid_win,675.5372153999997,68,,,,,,,,,,,,,,,,,,sub_919,2024-03-18_12h47.43.705,Reversal,2023.1.3,60.02847751015574,3,
17,exp3.png,exp4.png,,,,,,,,,,,,,,,,,,1,0,1,0,0,17,17,17,,,,,,,,,False,36,117,True,exp4.png,exp3.png,trial_right_image,-1,exp3.png,3,exp4.png,exp3.png,0,2,non-reversed,incorrect,0.02093151949628147,1,invalid_win,679.6692536999999,69,,,,,,,,,,,,,,,,,,sub_919,2024-03-18_12h47.43.705,Reversal,2023.1.3,60.02847751015574,3,
18,exp1.png,exp2.png,,,,,,,,,,,,,,,,,,1,0,1,0,0,18,18,18,,,,,,,,,False,37,118,False,exp1.png,exp2.png,trial_right_image,-1,exp2.png,3,exp1.png,exp2.png,1,3,reversed,incorrect,0.5157844469649386,0,valid_lose,683.5848839999999,69,,,,,,,,,,,,,,,,,,sub_919,2024-03-18_12h47.43.705,Reversal,2023.1.3,60.02847751015574,3,
19,exp3.png,exp4.png,,,,,,,,,,,,,,,,,,1,0,1,0,0,19,19,19,,,,,,,,,False,38,119,False,exp3.png,exp4.png,trial_right_image,-1,exp4.png,3,exp4.png,exp3.png,1,1,non-reversed,correct,0.7594867484333643,1,valid_win,687.4663766000012,70,,,,,,,,,,,,,,,,,,sub_919,2024-03-18_12h47.43.705,Reversal,2023.1.3,60.02847751015574,3,
20,exp1.png,exp2.png,,,,,,,,,,,,,,,,,,1,0,1,0,0,20,20,20,,,,,,,,,False,39,120,False,exp1.png,exp2.png,trial_left_image,1,exp1.png,3,exp1.png,exp2.png,0,4,reversed,correct,0.1547479639692908,0,invalid_lose,691.5318919000001,70,,,,,,,,,,,,,,,,,,sub_919,2024-03-18_12h47.43.705,Reversal,2023.1.3,60.02847751015574,3,
,,,exp1.png,,,,,,,,,,,,,,,,,1,0,1,0,,,,,0,0,0,0,0,0,0,0,,,,,,,,,,,,,,,,,,,,,,786.2478247999989,,None,None,[],,,,,,,,,,,,,sub_919,2024-03-18_12h47.43.705,Reversal,2023.1.3,60.02847751015574,3,
,,,exp2.png,,,,,,,,,,,,,,,,,1,0,1,0,,,,,0,0,0,0,0,1,1,1,,,,,,,,,,,,,,,,,,,,,,790.3300971999997,,None,None,[],,,,,,,,,,,,,sub_919,2024-03-18_12h47.43.705,Reversal,2023.1.3,60.02847751015574,3,
,,,exp3.png,,,,,,,,,,,,,,,,,1,0,1,0,,,,,0,0,0,0,0,2,2,2,,,,,,,,,,,,,,,,,,,,,,791.3046519,,None,None,[],,,,,,,,,,,,,sub_919,2024-03-18_12h47.43.705,Reversal,2023.1.3,60.02847751015574,3,
,,,exp4.png,,,,,,,,,,,,,,,,,1,0,1,0,,,,,0,0,0,0,0,3,3,3,,,,,,,,,,,,,,,,,,,,,,792.1536937000001,,None,None,[],,,,,,,,,,,,,sub_919,2024-03-18_12h47.43.705,Reversal,2023.1.3,60.02847751015574,3,
0,exp1.png,exp2.png,,,,,,,,,,,,,,,,,,2,0,2,0,0,0,0,0,,,,,,,,,True,,,,,,,,,,,,,,,,,,,,,,,,,,,,,,,,,,,,,,sub_919,2024-03-18_12h47.43.705,Reversal,2023.1.3,60.02847751015574,3,
1,exp3.png,exp4.png,,,,,,,,,,,,,,,,,,2,0,2,0,0,1,1,1,,,,,,,,,False,40,121,True,exp4.png,exp3.png,trial_left_image,1,exp4.png,3,exp4.png,exp3.png,1,1,non-reversed,correct,0.29186815789815856,1,valid_win,703.9778934000005,71,,,,,,,,,,,,,,,,,,sub_919,2024-03-18_12h47.43.705,Reversal,2023.1.3,60.02847751015574,3,
2,exp1.png,exp2.png,,,,,,,,,,,,,,,,,,2,0,2,0,0,2,2,2,,,,,,,,,False,41,122,False,exp1.png,exp2.png,trial_right_image,-1,exp2.png,3,exp1.png,exp2.png,1,3,reversed,incorrect,0.5677643507700074,0,valid_lose,709.1925337000011,71,,,,,,,,,,,,,,,,,,sub_919,2024-03-18_12h47.43.705,Reversal,2023.1.3,60.02847751015574,3,
3,exp3.png,exp4.png,,,,,,,,,,,,,,,,,,2,0,2,0,0,3,3,3,,,,,,,,,False,42,123,True,exp4.png,exp3.png,trial_left_image,1,exp4.png,3,exp4.png,exp3.png,1,1,non-reversed,correct,0.1440176915654371,0,invalid_lose,713.1077908000007,71,,,,,,,,,,,,,,,,,,sub_919,2024-03-18_12h47.43.705,Reversal,2023.1.3,60.02847751015574,3,
4,exp1.png,exp2.png,,,,,,,,,,,,,,,,,,2,0,2,0,0,4,4,4,,,,,,,,,False,43,124,True,exp2.png,exp1.png,trial_left_image,1,exp2.png,3,exp1.png,exp2.png,1,3,reversed,incorrect,0.11969416816720946,1,invalid_win,717.0735531999999,72,,,,,,,,,,,,,,,,,,sub_919,2024-03-18_12h47.43.705,Reversal,2023.1.3,60.02847751015574,3,
5,exp3.png,exp4.png,,,,,,,,,,,,,,,,,,2,0,2,0,0,5,5,5,,,,,,,,,False,44,125,False,exp3.png,exp4.png,trial_left_image,1,exp3.png,3,exp4.png,exp3.png,0,2,non-reversed,incorrect,0.8269858970752683,0,valid_lose,720.9727136000001,72,,,,,,,,,,,,,,,,,,sub_919,2024-03-18_12h47.43.705,Reversal,2023.1.3,60.02847751015574,3,
6,exp1.png,exp2.png,,,,,,,,,,,,,,,,,,2,0,2,0,0,6,6,6,,,,,,,,,False,45,126,True,exp2.png,exp1.png,trial_left_image,1,exp2.png,3,exp1.png,exp2.png,1,3,reversed,incorrect,0.5939128020954688,0,valid_lose,725.0872350000009,72,,,,,,,,,,,,,,,,,,sub_919,2024-03-18_12h47.43.705,Reversal,2023.1.3,60.02847751015574,3,
7,exp3.png,exp4.png,,,,,,,,,,,,,,,,,,2,0,2,0,0,7,7,7,,,,,,,,,False,46,127,True,exp4.png,exp3.png,trial_left_image,1,exp4.png,3,exp4.png,exp3.png,1,1,non-reversed,correct,0.38416082406144003,1,valid_win,728.9691848000002,73,,,,,,,,,,,,,,,,,,sub_919,2024-03-18_12h47.43.705,Reversal,2023.1.3,60.02847751015574,3,
8,exp1.png,exp2.png,,,,,,,,,,,,,,,,,,2,0,2,0,0,8,8,8,,,,,,,,,False,47,128,True,exp2.png,exp1.png,trial_left_image,1,exp2.png,3,exp1.png,exp2.png,1,3,reversed,incorrect,0.7791533572524365,0,valid_lose,732.8846063000001,73,,,,,,,,,,,,,,,,,,sub_919,2024-03-18_12h47.43.705,Reversal,2023.1.3,60.02847751015574,3,
9,exp3.png,exp4.png,,,,,,,,,,,,,,,,,,2,0,2,0,0,9,9,9,,,,,,,,,False,48,129,False,exp3.png,exp4.png,trial_left_image,1,exp3.png,3,exp4.png,exp3.png,0,2,non-reversed,incorrect,0.9976606567050512,0,valid_lose,736.7833166,73,,,,,,,,,,,,,,,,,,sub_919,2024-03-18_12h47.43.705,Reversal,2023.1.3,60.02847751015574,3,
10,exp1.png,exp2.png,,,,,,,,,,,,,,,,,,2,0,2,0,0,10,10,10,,,,,,,,,False,49,130,False,exp1.png,exp2.png,trial_left_image,1,exp1.png,3,exp1.png,exp2.png,0,4,reversed,correct,0.38263716028577566,1,valid_win,740.8151742999999,74,,,,,,,,,,,,,,,,,,sub_919,2024-03-18_12h47.43.705,Reversal,2023.1.3,60.02847751015574,3,
11,exp3.png,exp4.png,,,,,,,,,,,,,,,,,,2,0,2,0,0,11,11,11,,,,,,,,,False,50,131,False,exp3.png,exp4.png,trial_left_image,1,exp3.png,3,exp4.png,exp3.png,0,2,non-reversed,incorrect,0.4953217482153084,0,valid_lose,744.7473000000009,74,,,,,,,,,,,,,,,,,,sub_919,2024-03-18_12h47.43.705,Reversal,2023.1.3,60.02847751015574,3,
12,exp1.png,exp2.png,,,,,,,,,,,,,,,,,,2,0,2,0,0,12,12,12,,,,,,,,,False,51,132,False,exp1.png,exp2.png,trial_left_image,1,exp1.png,3,exp1.png,exp2.png,0,4,reversed,correct,0.2149918016047545,0,invalid_lose,748.1793075000005,74,,,,,,,,,,,,,,,,,,sub_919,2024-03-18_12h47.43.705,Reversal,2023.1.3,60.02847751015574,3,
13,exp3.png,exp4.png,,,,,,,,,,,,,,,,,,2,0,2,0,0,13,13,13,,,,,,,,,False,52,133,False,exp3.png,exp4.png,trial_left_image,1,exp3.png,3,exp4.png,exp3.png,0,2,non-reversed,incorrect,0.6348506609612821,0,valid_lose,751.6616708000001,74,,,,,,,,,,,,,,,,,,sub_919,2024-03-18_12h47.43.705,Reversal,2023.1.3,60.02847751015574,3,
14,exp1.png,exp2.png,,,,,,,,,,,,,,,,,,2,0,2,0,0,14,14,14,,,,,,,,,False,53,134,False,exp1.png,exp2.png,trial_left_image,1,exp1.png,3,exp1.png,exp2.png,0,4,reversed,correct,0.9683751710789126,1,valid_win,755.228000000001,75,,,,,,,,,,,,,,,,,,sub_919,2024-03-18_12h47.43.705,Reversal,2023.1.3,60.02847751015574,3,
15,exp3.png,exp4.png,,,,,,,,,,,,,,,,,,2,0,2,0,0,15,15,15,,,,,,,,,False,54,135,True,exp4.png,exp3.png,trial_left_image,1,exp4.png,3,exp4.png,exp3.png,1,1,non-reversed,correct,0.3267873081944005,1,valid_win,759.1593470000007,76,,,,,,,,,,,,,,,,,,sub_919,2024-03-18_12h47.43.705,Reversal,2023.1.3,60.02847751015574,3,
16,exp1.png,exp2.png,,,,,,,,,,,,,,,,,,2,0,2,0,0,16,16,16,,,,,,,,,False,55,136,False,exp1.png,exp2.png,trial_left_image,1,exp1.png,3,exp1.png,exp2.png,0,4,reversed,correct,0.5967820903746058,1,valid_win,763.0247677000007,77,,,,,,,,,,,,,,,,,,sub_919,2024-03-18_12h47.43.705,Reversal,2023.1.3,60.02847751015574,3,
17,exp3.png,exp4.png,,,,,,,,,,,,,,,,,,2,0,2,0,0,17,17,17,,,,,,,,,False,56,137,True,exp4.png,exp3.png,trial_left_image,1,exp4.png,3,exp4.png,exp3.png,1,1,non-reversed,correct,0.532480503465025,1,valid_win,766.9742322000002,78,,,,,,,,,,,,,,,,,,sub_919,2024-03-18_12h47.43.705,Reversal,2023.1.3,60.02847751015574,3,
18,exp1.png,exp2.png,,,,,,,,,,,,,,,,,,2,0,2,0,0,18,18,18,,,,,,,,,False,57,138,True,exp2.png,exp1.png,trial_left_image,1,exp2.png,3,exp1.png,exp2.png,1,3,reversed,incorrect,0.19134326997294804,1,invalid_win,770.8551705999998,79,,,,,,,,,,,,,,,,,,sub_919,2024-03-18_12h47.43.705,Reversal,2023.1.3,60.02847751015574,3,
19,exp3.png,exp4.png,,,,,,,,,,,,,,,,,,2,0,2,0,0,19,19,19,,,,,,,,,False,58,139,True,exp4.png,exp3.png,trial_left_image,1,exp4.png,3,exp4.png,exp3.png,1,1,non-reversed,correct,0.2870107629722539,1,valid_win,774.8203322999998,80,,,,,,,,,,,,,,,,,,sub_919,2024-03-18_12h47.43.705,Reversal,2023.1.3,60.02847751015574,3,
20,exp1.png,exp2.png,,,,,,,,,,,,,,,,,,2,0,2,0,0,20,20,20,,,,,,,,,False,59,140,False,exp1.png,exp2.png,trial_left_image,1,exp1.png,3,exp1.png,exp2.png,0,4,reversed,correct,0.34783857457713496,1,valid_win,778.6690737999998,81,,,,,,,,,,,,,,,,,,sub_919,2024-03-18_12h47.43.705,Reversal,2023.1.3,60.02847751015574,3,
,,,exp1.png,,,,,,,,,,,,,,,,,2,0,2,0,,,,,0,0,0,0,0,0,0,0,,,,,,,,,,,,,,,,,,,,,,873.3850133999986,,None,None,[],,,,,,,,,,,,,sub_919,2024-03-18_12h47.43.705,Reversal,2023.1.3,60.02847751015574,3,
,,,exp2.png,,,,,,,,,,,,,,,,,2,0,2,0,,,,,0,0,0,0,0,1,1,1,,,,,,,,,,,,,,,,,,,,,,876.4277574999996,,None,None,[],,,,,,,,,,,,,sub_919,2024-03-18_12h47.43.705,Reversal,2023.1.3,60.02847751015574,3,
,,,exp3.png,,,,,,,,,,,,,,,,,2,0,2,0,,,,,0,0,0,0,0,2,2,2,,,,,,,,,,,,,,,,,,,,,,877.3255735000002,,None,None,[],,,,,,,,,,,,,sub_919,2024-03-18_12h47.43.705,Reversal,2023.1.3,60.02847751015574,3,
,,,exp4.png,,,,,,,,,,,,,,,,,2,0,2,0,,,,,0,0,0,0,0,3,3,3,,,,,,,,,,,,,,,,,,,,,,878.3776314999996,,None,None,[],,,,,,,,,,,,,sub_919,2024-03-18_12h47.43.705,Reversal,2023.1.3,60.02847751015574,3,
,,,,,,,,,,,,,,,,,,,,,,,,,,,,,,,,,,,,,,,,,,,,,,,,,,,,,,,,81,,,,,,,,,,104,70,34,280.02817719999985,1,space,64.81596130000071,None,sub_919,2024-03-18_12h47.43.705,Reversal,2023.1.3,60.02847751015574,3,
