trial_index,trial_image1_file,trial_image2_file,image_file,learning_outer_loop.thisRepN,learning_outer_loop.thisTrialN,learning_outer_loop.thisN,learning_outer_loop.thisIndex,learning_inner_loop.thisRepN,learning_inner_loop.thisTrialN,learning_inner_loop.thisN,learning_inner_loop.thisIndex,learning_estimation_outer_loop.thisRepN,learning_estimation_outer_loop.thisTrialN,learning_estimation_outer_loop.thisN,learning_estimation_outer_loop.thisIndex,learning_estimation_inner_loop.thisRepN,learning_estimation_inner_loop.thisTrialN,learning_estimation_inner_loop.thisN,learning_estimation_inner_loop.thisIndex,reversal_outer_loop.thisRepN,reversal_outer_loop.thisTrialN,reversal_outer_loop.thisN,reversal_outer_loop.thisIndex,reversal_inner_loop.thisRepN,reversal_inner_loop.thisTrialN,reversal_inner_loop.thisN,reversal_inner_loop.thisIndex,reversal_estimation_outer_loop.thisRepN,reversal_estimation_outer_loop.thisTrialN,reversal_estimation_outer_loop.thisN,reversal_estimation_outer_loop.thisIndex,reversal_estimation_inner_loop.thisRepN,reversal_estimation_inner_loop.thisTrialN,reversal_estimation_inner_loop.thisN,reversal_estimation_inner_loop.thisIndex,skipped,total_trial_counter,trial_num,left_right_flip,left_image_file,right_image_file,clicked_stimulus_side,side,clicked_stimulus,version,high_prob_image_file,low_prob_image_file,choice_a,choice_b,pair_type,correct,trial_feedback_random,reward,trial_type,overall_time_after_trial,score,estimation_exp1.png,estimation_rating.response,estimation_rating.rt,estimation_rating.history,estimation_rating.started,estimation_rating.stopped,estimation_exp2.png,estimation_exp3.png,estimation_exp4.png,total_learning_time,total_correct,learning_correct,reversal_correct,total_reversal_time,extra_block,end_experiment.keys,end_experiment.rt,participant,date,expName,psychopyVersion,frameRate,ver,
0,exp1.png,exp2.png,,0,0,0,0,0,0,0,0,,,,,,,,,,,,,,,,,,,,,,,,,True,,,,,,,,,,,,,,,,,,,,,,,,,,,,,,,,,,,,,,sub_039,2022-08-04_17h04.06.174,Reversal,2022.1.2,59.997792081900855,3,
1,exp3.png,exp4.png,,0,0,0,0,0,1,1,1,,,,,,,,,,,,,,,,,,,,,,,,,False,0,1,False,exp3.png,exp4.png,trial_right_image,-1,exp4.png,3,exp4.png,exp3.png,1,1,non-reversed,correct,0.023275257402224803,0,invalid_lose,3.4338434000092093,0,,,,,,,,,,,,,,,,,,sub_039,2022-08-04_17h04.06.174,Reversal,2022.1.2,59.997792081900855,3,
2,exp1.png,exp2.png,,0,0,0,0,0,2,2,2,,,,,,,,,,,,,,,,,,,,,,,,,False,1,2,True,exp2.png,exp1.png,trial_right_image,-1,exp1.png,3,exp2.png,exp1.png,0,4,reversed,incorrect,0.29994811273866917,0,valid_lose,8.066373100009514,0,,,,,,,,,,,,,,,,,,sub_039,2022-08-04_17h04.06.174,Reversal,2022.1.2,59.997792081900855,3,
3,exp3.png,exp4.png,,0,0,0,0,0,3,3,3,,,,,,,,,,,,,,,,,,,,,,,,,False,2,3,False,exp3.png,exp4.png,trial_left_image,1,exp3.png,3,exp4.png,exp3.png,0,2,non-reversed,incorrect,0.33295892447534425,0,valid_lose,12.999383800008218,0,,,,,,,,,,,,,,,,,,sub_039,2022-08-04_17h04.06.174,Reversal,2022.1.2,59.997792081900855,3,
4,exp1.png,exp2.png,,0,0,0,0,0,4,4,4,,,,,,,,,,,,,,,,,,,,,,,,,False,3,4,False,exp1.png,exp2.png,trial_right_image,-1,exp2.png,3,exp2.png,exp1.png,1,3,reversed,correct,0.7758133268185449,1,valid_win,18.8001660000009,1,,,,,,,,,,,,,,,,,,sub_039,2022-08-04_17h04.06.174,Reversal,2022.1.2,59.997792081900855,3,
5,exp3.png,exp4.png,,0,0,0,0,0,5,5,5,,,,,,,,,,,,,,,,,,,,,,,,,False,4,5,True,exp4.png,exp3.png,trial_left_image,1,exp4.png,3,exp4.png,exp3.png,1,1,non-reversed,correct,0.10556396372457078,0,invalid_lose,23.850186600000598,1,,,,,,,,,,,,,,,,,,sub_039,2022-08-04_17h04.06.174,Reversal,2022.1.2,59.997792081900855,3,
6,exp1.png,exp2.png,,0,0,0,0,0,6,6,6,,,,,,,,,,,,,,,,,,,,,,,,,False,5,6,True,exp2.png,exp1.png,trial_right_image,-1,exp1.png,3,exp2.png,exp1.png,0,4,reversed,incorrect,0.6476476888126605,0,valid_lose,27.882623199999216,1,,,,,,,,,,,,,,,,,,sub_039,2022-08-04_17h04.06.174,Reversal,2022.1.2,59.997792081900855,3,
7,exp3.png,exp4.png,,0,0,0,0,0,7,7,7,,,,,,,,,,,,,,,,,,,,,,,,,False,6,7,False,exp3.png,exp4.png,trial_left_image,1,exp3.png,3,exp4.png,exp3.png,0,2,non-reversed,incorrect,0.4911051287232494,0,valid_lose,32.265869100010605,1,,,,,,,,,,,,,,,,,,sub_039,2022-08-04_17h04.06.174,Reversal,2022.1.2,59.997792081900855,3,
8,exp1.png,exp2.png,,0,0,0,0,0,8,8,8,,,,,,,,,,,,,,,,,,,,,,,,,False,7,8,True,exp2.png,exp1.png,trial_right_image,-1,exp1.png,3,exp2.png,exp1.png,0,4,reversed,incorrect,0.7680733409499022,0,valid_lose,38.25013650000619,1,,,,,,,,,,,,,,,,,,sub_039,2022-08-04_17h04.06.174,Reversal,2022.1.2,59.997792081900855,3,
9,exp3.png,exp4.png,,0,0,0,0,0,9,9,9,,,,,,,,,,,,,,,,,,,,,,,,,False,8,9,False,exp3.png,exp4.png,trial_left_image,1,exp3.png,3,exp4.png,exp3.png,0,2,non-reversed,incorrect,0.2969032187191678,0,valid_lose,44.899645400000736,1,,,,,,,,,,,,,,,,,,sub_039,2022-08-04_17h04.06.174,Reversal,2022.1.2,59.997792081900855,3,
10,exp1.png,exp2.png,,0,0,0,0,0,10,10,10,,,,,,,,,,,,,,,,,,,,,,,,,False,9,10,False,exp1.png,exp2.png,trial_left_image,1,exp1.png,3,exp2.png,exp1.png,0,4,reversed,incorrect,0.7487503359927935,0,valid_lose,50.498833600009675,1,,,,,,,,,,,,,,,,,,sub_039,2022-08-04_17h04.06.174,Reversal,2022.1.2,59.997792081900855,3,
11,exp3.png,exp4.png,,0,0,0,0,0,11,11,11,,,,,,,,,,,,,,,,,,,,,,,,,False,10,11,False,exp3.png,exp4.png,trial_right_image,-1,exp4.png,3,exp4.png,exp3.png,1,1,non-reversed,correct,0.5569888544494506,1,valid_win,54.41618960000051,2,,,,,,,,,,,,,,,,,,sub_039,2022-08-04_17h04.06.174,Reversal,2022.1.2,59.997792081900855,3,
12,exp1.png,exp2.png,,0,0,0,0,0,12,12,12,,,,,,,,,,,,,,,,,,,,,,,,,False,11,12,True,exp2.png,exp1.png,trial_left_image,1,exp2.png,3,exp2.png,exp1.png,1,3,reversed,correct,0.6803585141172677,1,valid_win,59.06563320000714,3,,,,,,,,,,,,,,,,,,sub_039,2022-08-04_17h04.06.174,Reversal,2022.1.2,59.997792081900855,3,
13,exp3.png,exp4.png,,0,0,0,0,0,13,13,13,,,,,,,,,,,,,,,,,,,,,,,,,False,12,13,True,exp4.png,exp3.png,trial_left_image,1,exp4.png,3,exp4.png,exp3.png,1,1,non-reversed,correct,0.8233962092530026,1,valid_win,63.782591299997875,4,,,,,,,,,,,,,,,,,,sub_039,2022-08-04_17h04.06.174,Reversal,2022.1.2,59.997792081900855,3,
14,exp1.png,exp2.png,,0,0,0,0,0,14,14,14,,,,,,,,,,,,,,,,,,,,,,,,,False,13,14,True,exp2.png,exp1.png,trial_left_image,1,exp2.png,3,exp2.png,exp1.png,1,3,reversed,correct,0.49624159203096807,1,valid_win,68.01601510000182,5,,,,,,,,,,,,,,,,,,sub_039,2022-08-04_17h04.06.174,Reversal,2022.1.2,59.997792081900855,3,
15,exp3.png,exp4.png,,0,0,0,0,0,15,15,15,,,,,,,,,,,,,,,,,,,,,,,,,False,14,15,True,exp4.png,exp3.png,trial_left_image,1,exp4.png,3,exp4.png,exp3.png,1,1,non-reversed,correct,0.7272126402148458,1,valid_win,72.29854850000993,6,,,,,,,,,,,,,,,,,,sub_039,2022-08-04_17h04.06.174,Reversal,2022.1.2,59.997792081900855,3,
16,exp1.png,exp2.png,,0,0,0,0,0,16,16,16,,,,,,,,,,,,,,,,,,,,,,,,,False,15,16,False,exp1.png,exp2.png,trial_left_image,1,exp1.png,3,exp2.png,exp1.png,0,4,reversed,incorrect,0.9402096180286889,0,valid_lose,76.21557020000182,6,,,,,,,,,,,,,,,,,,sub_039,2022-08-04_17h04.06.174,Reversal,2022.1.2,59.997792081900855,3,
17,exp3.png,exp4.png,,0,0,0,0,0,17,17,17,,,,,,,,,,,,,,,,,,,,,,,,,False,16,17,False,exp3.png,exp4.png,trial_right_image,-1,exp4.png,3,exp4.png,exp3.png,1,1,non-reversed,correct,0.18283939883718658,0,invalid_lose,80.6819894000073,6,,,,,,,,,,,,,,,,,,sub_039,2022-08-04_17h04.06.174,Reversal,2022.1.2,59.997792081900855,3,
18,exp1.png,exp2.png,,0,0,0,0,0,18,18,18,,,,,,,,,,,,,,,,,,,,,,,,,False,17,18,True,exp2.png,exp1.png,trial_left_image,1,exp2.png,3,exp2.png,exp1.png,1,3,reversed,correct,0.06661842440942367,0,invalid_lose,84.6822286000097,6,,,,,,,,,,,,,,,,,,sub_039,2022-08-04_17h04.06.174,Reversal,2022.1.2,59.997792081900855,3,
19,exp3.png,exp4.png,,0,0,0,0,0,19,19,19,,,,,,,,,,,,,,,,,,,,,,,,,False,18,19,False,exp3.png,exp4.png,trial_left_image,1,exp3.png,3,exp4.png,exp3.png,0,2,non-reversed,incorrect,0.4665647189021731,0,valid_lose,89.0158977000101,6,,,,,,,,,,,,,,,,,,sub_039,2022-08-04_17h04.06.174,Reversal,2022.1.2,59.997792081900855,3,
20,exp1.png,exp2.png,,0,0,0,0,0,20,20,20,,,,,,,,,,,,,,,,,,,,,,,,,False,19,20,True,exp2.png,exp1.png,trial_left_image,1,exp2.png,3,exp2.png,exp1.png,1,3,reversed,correct,0.2597733889016227,1,valid_win,93.26483349999762,7,,,,,,,,,,,,,,,,,,sub_039,2022-08-04_17h04.06.174,Reversal,2022.1.2,59.997792081900855,3,
,,,exp1.png,0,0,0,0,,,,,0,0,0,0,0,0,0,0,,,,,,,,,,,,,,,,,,,,,,,,,,,,,,,,,,,,,,86.0,86.0,18.20378170000913,"[(86.0, 18.20378170000913)]",166.2931133999955,None,,,,,,,,,,,,sub_039,2022-08-04_17h04.06.174,Reversal,2022.1.2,59.997792081900855,3,
,,,exp2.png,0,0,0,0,,,,,0,0,0,0,0,1,1,1,,,,,,,,,,,,,,,,,,,,,,,,,,,,,,,,,,,,,,,18.0,5.1969337000045925,"[(18.0, 5.1969337000045925)]",186.23074020000058,None,18.0,,,,,,,,,,,sub_039,2022-08-04_17h04.06.174,Reversal,2022.1.2,59.997792081900855,3,
,,,exp3.png,0,0,0,0,,,,,0,0,0,0,0,2,2,2,,,,,,,,,,,,,,,,,,,,,,,,,,,,,,,,,,,,,,,15.0,9.117157400003634,"[(83.0, 7.084319100002176), (29.0, 8.182965699990746), (15.0, 9.117157400003634)]",192.54165359999752,None,,15.0,,,,,,,,,,sub_039,2022-08-04_17h04.06.174,Reversal,2022.1.2,59.997792081900855,3,
,,,exp4.png,0,0,0,0,,,,,0,0,0,0,0,3,3,3,,,,,,,,,,,,,,,,,,,,,,,,,,,,,,,,,,,,,,,82.0,3.398455400005332,"[(82.0, 3.398455400005332)]",202.6951498999988,None,,,82.0,,,,,,,,,sub_039,2022-08-04_17h04.06.174,Reversal,2022.1.2,59.997792081900855,3,
0,exp1.png,exp2.png,,1,0,1,0,0,0,0,0,,,,,,,,,,,,,,,,,,,,,,,,,True,,,,,,,,,,,,,,,,,,,,,,,,,,,,,,,,,,,,,,sub_039,2022-08-04_17h04.06.174,Reversal,2022.1.2,59.997792081900855,3,
1,exp3.png,exp4.png,,1,0,1,0,0,1,1,1,,,,,,,,,,,,,,,,,,,,,,,,,False,20,21,False,exp3.png,exp4.png,trial_right_image,-1,exp4.png,3,exp4.png,exp3.png,1,1,non-reversed,correct,0.2620021193925701,1,valid_win,139.58108730000095,8,,,,,,,,,,,,,,,,,,sub_039,2022-08-04_17h04.06.174,Reversal,2022.1.2,59.997792081900855,3,
2,exp1.png,exp2.png,,1,0,1,0,0,2,2,2,,,,,,,,,,,,,,,,,,,,,,,,,False,21,22,False,exp1.png,exp2.png,trial_left_image,1,exp1.png,3,exp2.png,exp1.png,0,4,reversed,incorrect,0.2826930937451687,0,valid_lose,144.6810303000093,8,,,,,,,,,,,,,,,,,,sub_039,2022-08-04_17h04.06.174,Reversal,2022.1.2,59.997792081900855,3,
3,exp3.png,exp4.png,,1,0,1,0,0,3,3,3,,,,,,,,,,,,,,,,,,,,,,,,,False,22,23,True,exp4.png,exp3.png,trial_left_image,1,exp4.png,3,exp4.png,exp3.png,1,1,non-reversed,correct,0.503449916762371,1,valid_win,149.18124780000653,9,,,,,,,,,,,,,,,,,,sub_039,2022-08-04_17h04.06.174,Reversal,2022.1.2,59.997792081900855,3,
4,exp1.png,exp2.png,,1,0,1,0,0,4,4,4,,,,,,,,,,,,,,,,,,,,,,,,,False,23,24,True,exp2.png,exp1.png,trial_right_image,-1,exp1.png,3,exp2.png,exp1.png,0,4,reversed,incorrect,0.7999052652048773,0,valid_lose,153.5643337000074,9,,,,,,,,,,,,,,,,,,sub_039,2022-08-04_17h04.06.174,Reversal,2022.1.2,59.997792081900855,3,
5,exp3.png,exp4.png,,1,0,1,0,0,5,5,5,,,,,,,,,,,,,,,,,,,,,,,,,False,24,25,True,exp4.png,exp3.png,trial_left_image,1,exp4.png,3,exp4.png,exp3.png,1,1,non-reversed,correct,0.7809173627103708,1,valid_win,157.78122849999636,10,,,,,,,,,,,,,,,,,,sub_039,2022-08-04_17h04.06.174,Reversal,2022.1.2,59.997792081900855,3,
6,exp1.png,exp2.png,,1,0,1,0,0,6,6,6,,,,,,,,,,,,,,,,,,,,,,,,,False,25,26,True,exp2.png,exp1.png,trial_left_image,1,exp2.png,3,exp2.png,exp1.png,1,3,reversed,correct,0.34043947156095644,1,valid_win,162.230747900001,11,,,,,,,,,,,,,,,,,,sub_039,2022-08-04_17h04.06.174,Reversal,2022.1.2,59.997792081900855,3,
7,exp3.png,exp4.png,,1,0,1,0,0,7,7,7,,,,,,,,,,,,,,,,,,,,,,,,,False,26,27,False,exp3.png,exp4.png,trial_left_image,1,exp3.png,3,exp4.png,exp3.png,0,2,non-reversed,incorrect,0.275772036133351,0,valid_lose,166.84667729999637,11,,,,,,,,,,,,,,,,,,sub_039,2022-08-04_17h04.06.174,Reversal,2022.1.2,59.997792081900855,3,
8,exp1.png,exp2.png,,1,0,1,0,0,8,8,8,,,,,,,,,,,,,,,,,,,,,,,,,False,27,28,True,exp2.png,exp1.png,trial_left_image,1,exp2.png,3,exp2.png,exp1.png,1,3,reversed,correct,0.7301582200813374,1,valid_win,170.9977349999972,12,,,,,,,,,,,,,,,,,,sub_039,2022-08-04_17h04.06.174,Reversal,2022.1.2,59.997792081900855,3,
9,exp3.png,exp4.png,,1,0,1,0,0,9,9,9,,,,,,,,,,,,,,,,,,,,,,,,,False,28,29,True,exp4.png,exp3.png,trial_left_image,1,exp4.png,3,exp4.png,exp3.png,1,1,non-reversed,correct,0.29164014044902864,1,valid_win,175.14670620000106,13,,,,,,,,,,,,,,,,,,sub_039,2022-08-04_17h04.06.174,Reversal,2022.1.2,59.997792081900855,3,
10,exp1.png,exp2.png,,1,0,1,0,0,10,10,10,,,,,,,,,,,,,,,,,,,,,,,,,False,29,30,True,exp2.png,exp1.png,trial_left_image,1,exp2.png,3,exp2.png,exp1.png,1,3,reversed,correct,0.3642947956492757,1,valid_win,179.21433290001005,14,,,,,,,,,,,,,,,,,,sub_039,2022-08-04_17h04.06.174,Reversal,2022.1.2,59.997792081900855,3,
11,exp3.png,exp4.png,,1,0,1,0,0,11,11,11,,,,,,,,,,,,,,,,,,,,,,,,,False,30,31,False,exp3.png,exp4.png,trial_left_image,1,exp3.png,3,exp4.png,exp3.png,0,2,non-reversed,incorrect,0.520272179039903,0,valid_lose,184.12990420000278,14,,,,,,,,,,,,,,,,,,sub_039,2022-08-04_17h04.06.174,Reversal,2022.1.2,59.997792081900855,3,
12,exp1.png,exp2.png,,1,0,1,0,0,12,12,12,,,,,,,,,,,,,,,,,,,,,,,,,False,31,32,True,exp2.png,exp1.png,trial_right_image,-1,exp1.png,3,exp2.png,exp1.png,0,4,reversed,incorrect,0.5266422632320532,0,valid_lose,188.06335039999976,14,,,,,,,,,,,,,,,,,,sub_039,2022-08-04_17h04.06.174,Reversal,2022.1.2,59.997792081900855,3,
13,exp3.png,exp4.png,,1,0,1,0,0,13,13,13,,,,,,,,,,,,,,,,,,,,,,,,,False,32,33,True,exp4.png,exp3.png,trial_left_image,1,exp4.png,3,exp4.png,exp3.png,1,1,non-reversed,correct,0.47250087204815305,1,valid_win,192.16313749999972,15,,,,,,,,,,,,,,,,,,sub_039,2022-08-04_17h04.06.174,Reversal,2022.1.2,59.997792081900855,3,
14,exp1.png,exp2.png,,1,0,1,0,0,14,14,14,,,,,,,,,,,,,,,,,,,,,,,,,False,33,34,False,exp1.png,exp2.png,trial_right_image,-1,exp2.png,3,exp2.png,exp1.png,1,3,reversed,correct,0.08792634883830885,0,invalid_lose,198.01328280000598,15,,,,,,,,,,,,,,,,,,sub_039,2022-08-04_17h04.06.174,Reversal,2022.1.2,59.997792081900855,3,
15,exp3.png,exp4.png,,1,0,1,0,0,15,15,15,,,,,,,,,,,,,,,,,,,,,,,,,False,34,35,False,exp3.png,exp4.png,trial_left_image,1,exp3.png,3,exp4.png,exp3.png,0,2,non-reversed,incorrect,0.12274583324416133,1,invalid_win,201.84635010000784,16,,,,,,,,,,,,,,,,,,sub_039,2022-08-04_17h04.06.174,Reversal,2022.1.2,59.997792081900855,3,
16,exp1.png,exp2.png,,1,0,1,0,0,16,16,16,,,,,,,,,,,,,,,,,,,,,,,,,False,35,36,False,exp1.png,exp2.png,trial_right_image,-1,exp2.png,3,exp2.png,exp1.png,1,3,reversed,correct,0.14517478663936345,0,invalid_lose,207.04661920000217,16,,,,,,,,,,,,,,,,,,sub_039,2022-08-04_17h04.06.174,Reversal,2022.1.2,59.997792081900855,3,
17,exp3.png,exp4.png,,1,0,1,0,0,17,17,17,,,,,,,,,,,,,,,,,,,,,,,,,False,36,37,True,exp4.png,exp3.png,trial_left_image,1,exp4.png,3,exp4.png,exp3.png,1,1,non-reversed,correct,0.5447261770753522,1,valid_win,211.1635180000012,17,,,,,,,,,,,,,,,,,,sub_039,2022-08-04_17h04.06.174,Reversal,2022.1.2,59.997792081900855,3,
18,exp1.png,exp2.png,,1,0,1,0,0,18,18,18,,,,,,,,,,,,,,,,,,,,,,,,,False,37,38,False,exp1.png,exp2.png,trial_right_image,-1,exp2.png,3,exp2.png,exp1.png,1,3,reversed,correct,0.7923653267680273,1,valid_win,215.53044149999914,18,,,,,,,,,,,,,,,,,,sub_039,2022-08-04_17h04.06.174,Reversal,2022.1.2,59.997792081900855,3,
19,exp3.png,exp4.png,,1,0,1,0,0,19,19,19,,,,,,,,,,,,,,,,,,,,,,,,,False,38,39,False,exp3.png,exp4.png,trial_right_image,-1,exp4.png,3,exp4.png,exp3.png,1,1,non-reversed,correct,0.4068751091714229,1,valid_win,219.8797426000092,19,,,,,,,,,,,,,,,,,,sub_039,2022-08-04_17h04.06.174,Reversal,2022.1.2,59.997792081900855,3,
20,exp1.png,exp2.png,,1,0,1,0,0,20,20,20,,,,,,,,,,,,,,,,,,,,,,,,,False,39,40,False,exp1.png,exp2.png,trial_right_image,-1,exp2.png,3,exp2.png,exp1.png,1,3,reversed,correct,0.06255603386512187,0,invalid_lose,223.79621570000018,19,,,,,,,,,,,,,,,,,,sub_039,2022-08-04_17h04.06.174,Reversal,2022.1.2,59.997792081900855,3,
,,,exp1.png,1,0,1,0,,,,,0,0,0,0,0,0,0,0,,,,,,,,,,,,,,,,,,,,,,,,,,,,,,,,,,,,,,25.0,25.0,4.0639172999945,"[(25.0, 4.0639172999945)]",296.82886149999104,None,,,,,,,,,,,,sub_039,2022-08-04_17h04.06.174,Reversal,2022.1.2,59.997792081900855,3,
,,,exp2.png,1,0,1,0,,,,,0,0,0,0,0,1,1,1,,,,,,,,,,,,,,,,,,,,,,,,,,,,,,,,,,,,,,,79.0,1.4684315999911632,"[(79.0, 1.4684315999911632)]",302.1213870999927,None,79.0,,,,,,,,,,,sub_039,2022-08-04_17h04.06.174,Reversal,2022.1.2,59.997792081900855,3,
,,,exp3.png,1,0,1,0,,,,,0,0,0,0,0,2,2,2,,,,,,,,,,,,,,,,,,,,,,,,,,,,,,,,,,,,,,,16.0,3.1357225000101607,"[(16.0, 3.1357225000101607)]",304.73927659999754,None,,16.0,,,,,,,,,,sub_039,2022-08-04_17h04.06.174,Reversal,2022.1.2,59.997792081900855,3,
,,,exp4.png,1,0,1,0,,,,,0,0,0,0,0,3,3,3,,,,,,,,,,,,,,,,,,,,,,,,,,,,,,,,,,,,,,,79.0,1.366049500007648,"[(79.0, 1.366049500007648)]",308.8907901999919,None,,,79.0,,,,,,,,,sub_039,2022-08-04_17h04.06.174,Reversal,2022.1.2,59.997792081900855,3,
0,exp1.png,exp2.png,,2,0,2,0,0,0,0,0,,,,,,,,,,,,,,,,,,,,,,,,,True,,,,,,,,,,,,,,,,,,,,,,,,,,,,,,,,,,,,,,sub_039,2022-08-04_17h04.06.174,Reversal,2022.1.2,59.997792081900855,3,
1,exp3.png,exp4.png,,2,0,2,0,0,1,1,1,,,,,,,,,,,,,,,,,,,,,,,,,False,40,41,False,exp3.png,exp4.png,trial_left_image,1,exp3.png,3,exp4.png,exp3.png,0,2,non-reversed,incorrect,0.8632996857614365,0,valid_lose,243.22949460000382,19,,,,,,,,,,,,,,,,,,sub_039,2022-08-04_17h04.06.174,Reversal,2022.1.2,59.997792081900855,3,
2,exp1.png,exp2.png,,2,0,2,0,0,2,2,2,,,,,,,,,,,,,,,,,,,,,,,,,False,41,42,True,exp2.png,exp1.png,trial_left_image,1,exp2.png,3,exp2.png,exp1.png,1,3,reversed,correct,0.044538666290969475,0,invalid_lose,247.54583980000461,19,,,,,,,,,,,,,,,,,,sub_039,2022-08-04_17h04.06.174,Reversal,2022.1.2,59.997792081900855,3,
3,exp3.png,exp4.png,,2,0,2,0,0,3,3,3,,,,,,,,,,,,,,,,,,,,,,,,,False,42,43,True,exp4.png,exp3.png,trial_left_image,1,exp4.png,3,exp4.png,exp3.png,1,1,non-reversed,correct,0.32681064106781255,1,valid_win,252.0127336000005,20,,,,,,,,,,,,,,,,,,sub_039,2022-08-04_17h04.06.174,Reversal,2022.1.2,59.997792081900855,3,
4,exp1.png,exp2.png,,2,0,2,0,0,4,4,4,,,,,,,,,,,,,,,,,,,,,,,,,False,43,44,False,exp1.png,exp2.png,trial_left_image,1,exp1.png,3,exp2.png,exp1.png,0,4,reversed,incorrect,0.1705252825278376,1,invalid_win,256.6791846999986,21,,,,,,,,,,,,,,,,,,sub_039,2022-08-04_17h04.06.174,Reversal,2022.1.2,59.997792081900855,3,
5,exp3.png,exp4.png,,2,0,2,0,0,5,5,5,,,,,,,,,,,,,,,,,,,,,,,,,False,44,45,True,exp4.png,exp3.png,trial_left_image,1,exp4.png,3,exp4.png,exp3.png,1,1,non-reversed,correct,0.429728043175889,1,valid_win,261.6626086000033,22,,,,,,,,,,,,,,,,,,sub_039,2022-08-04_17h04.06.174,Reversal,2022.1.2,59.997792081900855,3,
6,exp1.png,exp2.png,,2,0,2,0,0,6,6,6,,,,,,,,,,,,,,,,,,,,,,,,,False,45,46,False,exp1.png,exp2.png,trial_left_image,1,exp1.png,3,exp2.png,exp1.png,0,4,reversed,incorrect,0.36586296085481573,0,valid_lose,266.1785286000086,22,,,,,,,,,,,,,,,,,,sub_039,2022-08-04_17h04.06.174,Reversal,2022.1.2,59.997792081900855,3,
7,exp3.png,exp4.png,,2,0,2,0,0,7,7,7,,,,,,,,,,,,,,,,,,,,,,,,,False,46,47,True,exp4.png,exp3.png,trial_left_image,1,exp4.png,3,exp4.png,exp3.png,1,1,non-reversed,correct,0.07514894632577729,0,invalid_lose,270.195673299997,22,,,,,,,,,,,,,,,,,,sub_039,2022-08-04_17h04.06.174,Reversal,2022.1.2,59.997792081900855,3,
8,exp1.png,exp2.png,,2,0,2,0,0,8,8,8,,,,,,,,,,,,,,,,,,,,,,,,,False,47,48,False,exp1.png,exp2.png,trial_right_image,-1,exp2.png,3,exp2.png,exp1.png,1,3,reversed,correct,0.6579507121110733,1,valid_win,275.5283999000094,23,,,,,,,,,,,,,,,,,,sub_039,2022-08-04_17h04.06.174,Reversal,2022.1.2,59.997792081900855,3,
9,exp3.png,exp4.png,,2,0,2,0,0,9,9,9,,,,,,,,,,,,,,,,,,,,,,,,,False,48,49,True,exp4.png,exp3.png,trial_right_image,-1,exp3.png,3,exp4.png,exp3.png,0,2,non-reversed,incorrect,0.43939707733500233,0,valid_lose,279.92837600001076,23,,,,,,,,,,,,,,,,,,sub_039,2022-08-04_17h04.06.174,Reversal,2022.1.2,59.997792081900855,3,
10,exp1.png,exp2.png,,2,0,2,0,0,10,10,10,,,,,,,,,,,,,,,,,,,,,,,,,False,49,50,True,exp2.png,exp1.png,trial_right_image,-1,exp1.png,3,exp2.png,exp1.png,0,4,reversed,incorrect,0.9417981713065534,0,valid_lose,285.2946279000025,23,,,,,,,,,,,,,,,,,,sub_039,2022-08-04_17h04.06.174,Reversal,2022.1.2,59.997792081900855,3,
11,exp3.png,exp4.png,,2,0,2,0,0,11,11,11,,,,,,,,,,,,,,,,,,,,,,,,,False,50,51,True,exp4.png,exp3.png,trial_left_image,1,exp4.png,3,exp4.png,exp3.png,1,1,non-reversed,correct,0.4922672206458575,1,valid_win,289.42872219999845,24,,,,,,,,,,,,,,,,,,sub_039,2022-08-04_17h04.06.174,Reversal,2022.1.2,59.997792081900855,3,
12,exp1.png,exp2.png,,2,0,2,0,0,12,12,12,,,,,,,,,,,,,,,,,,,,,,,,,False,51,52,False,exp1.png,exp2.png,trial_left_image,1,exp1.png,3,exp2.png,exp1.png,0,4,reversed,incorrect,0.4273963396564554,0,valid_lose,293.77895849999913,24,,,,,,,,,,,,,,,,,,sub_039,2022-08-04_17h04.06.174,Reversal,2022.1.2,59.997792081900855,3,
13,exp3.png,exp4.png,,2,0,2,0,0,13,13,13,,,,,,,,,,,,,,,,,,,,,,,,,False,52,53,True,exp4.png,exp3.png,trial_left_image,1,exp4.png,3,exp4.png,exp3.png,1,1,non-reversed,correct,0.3551587758950632,1,valid_win,298.3948953000072,25,,,,,,,,,,,,,,,,,,sub_039,2022-08-04_17h04.06.174,Reversal,2022.1.2,59.997792081900855,3,
14,exp1.png,exp2.png,,2,0,2,0,0,14,14,14,,,,,,,,,,,,,,,,,,,,,,,,,False,53,54,False,exp1.png,exp2.png,trial_left_image,1,exp1.png,3,exp2.png,exp1.png,0,4,reversed,incorrect,0.08328441187965696,1,invalid_win,302.5281107000046,26,,,,,,,,,,,,,,,,,,sub_039,2022-08-04_17h04.06.174,Reversal,2022.1.2,59.997792081900855,3,
15,exp3.png,exp4.png,,2,0,2,0,0,15,15,15,,,,,,,,,,,,,,,,,,,,,,,,,False,54,55,False,exp3.png,exp4.png,trial_right_image,-1,exp4.png,3,exp4.png,exp3.png,1,1,non-reversed,correct,0.005418720098610774,0,invalid_lose,306.9115210000018,26,,,,,,,,,,,,,,,,,,sub_039,2022-08-04_17h04.06.174,Reversal,2022.1.2,59.997792081900855,3,
16,exp1.png,exp2.png,,2,0,2,0,0,16,16,16,,,,,,,,,,,,,,,,,,,,,,,,,False,55,56,False,exp1.png,exp2.png,trial_left_image,1,exp1.png,3,exp2.png,exp1.png,0,4,reversed,incorrect,0.4797215975413104,0,valid_lose,310.927832500005,26,,,,,,,,,,,,,,,,,,sub_039,2022-08-04_17h04.06.174,Reversal,2022.1.2,59.997792081900855,3,
17,exp3.png,exp4.png,,2,0,2,0,0,17,17,17,,,,,,,,,,,,,,,,,,,,,,,,,False,56,57,False,exp3.png,exp4.png,trial_left_image,1,exp3.png,3,exp4.png,exp3.png,0,2,non-reversed,incorrect,0.20277397895165328,1,invalid_win,316.0275552000094,27,,,,,,,,,,,,,,,,,,sub_039,2022-08-04_17h04.06.174,Reversal,2022.1.2,59.997792081900855,3,
18,exp1.png,exp2.png,,2,0,2,0,0,18,18,18,,,,,,,,,,,,,,,,,,,,,,,,,False,57,58,True,exp2.png,exp1.png,trial_right_image,-1,exp1.png,3,exp2.png,exp1.png,0,4,reversed,incorrect,0.5839267085449027,0,valid_lose,320.0949193999986,27,,,,,,,,,,,,,,,,,,sub_039,2022-08-04_17h04.06.174,Reversal,2022.1.2,59.997792081900855,3,
19,exp3.png,exp4.png,,2,0,2,0,0,19,19,19,,,,,,,,,,,,,,,,,,,,,,,,,False,58,59,True,exp4.png,exp3.png,trial_left_image,1,exp4.png,3,exp4.png,exp3.png,1,1,non-reversed,correct,0.5492195036783956,1,valid_win,323.9946606000012,28,,,,,,,,,,,,,,,,,,sub_039,2022-08-04_17h04.06.174,Reversal,2022.1.2,59.997792081900855,3,
20,exp1.png,exp2.png,,2,0,2,0,0,20,20,20,,,,,,,,,,,,,,,,,,,,,,,,,False,59,60,False,exp1.png,exp2.png,trial_left_image,1,exp1.png,3,exp2.png,exp1.png,0,4,reversed,incorrect,0.2424107654922324,1,invalid_win,328.4778442000097,29,,,,,,,,,,,,,,,,,,sub_039,2022-08-04_17h04.06.174,Reversal,2022.1.2,59.997792081900855,3,
,,,exp1.png,2,0,2,0,,,,,0,0,0,0,0,0,0,0,,,,,,,,,,,,,,,,,,,,,,,,,,,,,,,,,,,,,,91.0,91.0,3.7828524999931687,"[(91.0, 3.7828524999931687)]",401.5095150999987,None,,,,,,,,,,,,sub_039,2022-08-04_17h04.06.174,Reversal,2022.1.2,59.997792081900855,3,
,,,exp2.png,2,0,2,0,,,,,0,0,0,0,0,1,1,1,,,,,,,,,,,,,,,,,,,,,,,,,,,,,,,,,,,,,,,13.0,3.2660685000009835,"[(13.0, 3.2660685000009835)]",406.63885469999514,None,13.0,,,,,,,,,,,sub_039,2022-08-04_17h04.06.174,Reversal,2022.1.2,59.997792081900855,3,
,,,exp3.png,2,0,2,0,,,,,0,0,0,0,0,2,2,2,,,,,,,,,,,,,,,,,,,,,,,,,,,,,,,,,,,,,,,89.0,4.367739399996935,"[(89.0, 4.367739399996935)]",411.2230026999896,None,,89.0,,,,,,,,,,sub_039,2022-08-04_17h04.06.174,Reversal,2022.1.2,59.997792081900855,3,
,,,exp4.png,2,0,2,0,,,,,0,0,0,0,0,3,3,3,,,,,,,,,,,,,,,,,,,,,,,,,,,,,,,,,,,,,,,16.0,1.2296989000024041,"[(16.0, 1.2296989000024041)]",416.5085914999945,None,,,16.0,,,,,,,,,sub_039,2022-08-04_17h04.06.174,Reversal,2022.1.2,59.997792081900855,3,
0,exp1.png,exp2.png,,3,0,3,0,0,0,0,0,,,,,,,,,,,,,,,,,,,,,,,,,True,,,,,,,,,,,,,,,,,,,,,,,,,,,,,,,,,,,,,,sub_039,2022-08-04_17h04.06.174,Reversal,2022.1.2,59.997792081900855,3,
1,exp3.png,exp4.png,,3,0,3,0,0,1,1,1,,,,,,,,,,,,,,,,,,,,,,,,,False,60,61,False,exp3.png,exp4.png,trial_right_image,-1,exp4.png,3,exp4.png,exp3.png,1,1,non-reversed,correct,0.03300013008702252,0,invalid_lose,350.8444181000086,29,,,,,,,,,,,,,,,,,,sub_039,2022-08-04_17h04.06.174,Reversal,2022.1.2,59.997792081900855,3,
2,exp1.png,exp2.png,,3,0,3,0,0,2,2,2,,,,,,,,,,,,,,,,,,,,,,,,,False,61,62,False,exp1.png,exp2.png,trial_left_image,1,exp1.png,3,exp2.png,exp1.png,0,4,reversed,incorrect,0.6266536256521548,0,valid_lose,353.7770406000054,29,,,,,,,,,,,,,,,,,,sub_039,2022-08-04_17h04.06.174,Reversal,2022.1.2,59.997792081900855,3,
3,exp3.png,exp4.png,,3,0,3,0,0,3,3,3,,,,,,,,,,,,,,,,,,,,,,,,,False,62,63,True,exp4.png,exp3.png,trial_left_image,1,exp4.png,3,exp4.png,exp3.png,1,1,non-reversed,correct,0.324556725815751,1,valid_win,357.8938813999994,30,,,,,,,,,,,,,,,,,,sub_039,2022-08-04_17h04.06.174,Reversal,2022.1.2,59.997792081900855,3,
4,exp1.png,exp2.png,,3,0,3,0,0,4,4,4,,,,,,,,,,,,,,,,,,,,,,,,,False,63,64,True,exp2.png,exp1.png,trial_left_image,1,exp2.png,3,exp2.png,exp1.png,1,3,reversed,correct,0.33523731746959773,1,valid_win,362.64345630000753,31,,,,,,,,,,,,,,,,,,sub_039,2022-08-04_17h04.06.174,Reversal,2022.1.2,59.997792081900855,3,
5,exp3.png,exp4.png,,3,0,3,0,0,5,5,5,,,,,,,,,,,,,,,,,,,,,,,,,False,64,65,True,exp4.png,exp3.png,trial_left_image,1,exp4.png,3,exp4.png,exp3.png,1,1,non-reversed,correct,0.5125614271038789,1,valid_win,366.6272806000052,32,,,,,,,,,,,,,,,,,,sub_039,2022-08-04_17h04.06.174,Reversal,2022.1.2,59.997792081900855,3,
6,exp1.png,exp2.png,,3,0,3,0,0,6,6,6,,,,,,,,,,,,,,,,,,,,,,,,,False,65,66,False,exp1.png,exp2.png,trial_right_image,-1,exp2.png,3,exp2.png,exp1.png,1,3,reversed,correct,0.5465181188116369,1,valid_win,370.94353620000766,33,,,,,,,,,,,,,,,,,,sub_039,2022-08-04_17h04.06.174,Reversal,2022.1.2,59.997792081900855,3,
7,exp3.png,exp4.png,,3,0,3,0,0,7,7,7,,,,,,,,,,,,,,,,,,,,,,,,,False,66,67,True,exp4.png,exp3.png,trial_left_image,1,exp4.png,3,exp4.png,exp3.png,1,1,non-reversed,correct,0.29699838181223825,1,valid_win,375.2274097000045,34,,,,,,,,,,,,,,,,,,sub_039,2022-08-04_17h04.06.174,Reversal,2022.1.2,59.997792081900855,3,
8,exp1.png,exp2.png,,3,0,3,0,0,8,8,8,,,,,,,,,,,,,,,,,,,,,,,,,False,67,68,False,exp1.png,exp2.png,trial_right_image,-1,exp2.png,3,exp2.png,exp1.png,1,3,reversed,correct,0.9941685371091562,1,valid_win,379.343769900006,35,,,,,,,,,,,,,,,,,,sub_039,2022-08-04_17h04.06.174,Reversal,2022.1.2,59.997792081900855,3,
9,exp3.png,exp4.png,,3,0,3,0,0,9,9,9,,,,,,,,,,,,,,,,,,,,,,,,,False,68,69,True,exp4.png,exp3.png,trial_left_image,1,exp4.png,3,exp4.png,exp3.png,1,1,non-reversed,correct,0.851912506402844,1,valid_win,383.460565100002,36,,,,,,,,,,,,,,,,,,sub_039,2022-08-04_17h04.06.174,Reversal,2022.1.2,59.997792081900855,3,
10,exp1.png,exp2.png,,3,0,3,0,0,10,10,10,,,,,,,,,,,,,,,,,,,,,,,,,False,69,70,False,exp1.png,exp2.png,trial_right_image,-1,exp2.png,3,exp2.png,exp1.png,1,3,reversed,correct,0.8921952421926974,1,valid_win,387.52666730000055,37,,,,,,,,,,,,,,,,,,sub_039,2022-08-04_17h04.06.174,Reversal,2022.1.2,59.997792081900855,3,
11,exp3.png,exp4.png,,3,0,3,0,0,11,11,11,,,,,,,,,,,,,,,,,,,,,,,,,False,70,71,True,exp4.png,exp3.png,trial_left_image,1,exp4.png,3,exp4.png,exp3.png,1,1,non-reversed,correct,0.16086925788607565,0,invalid_lose,391.75984210000024,37,,,,,,,,,,,,,,,,,,sub_039,2022-08-04_17h04.06.174,Reversal,2022.1.2,59.997792081900855,3,
12,exp1.png,exp2.png,,3,0,3,0,0,12,12,12,,,,,,,,,,,,,,,,,,,,,,,,,False,71,72,True,exp2.png,exp1.png,trial_left_image,1,exp2.png,3,exp2.png,exp1.png,1,3,reversed,correct,0.47721211352603565,1,valid_win,395.87637100000575,38,,,,,,,,,,,,,,,,,,sub_039,2022-08-04_17h04.06.174,Reversal,2022.1.2,59.997792081900855,3,
13,exp3.png,exp4.png,,3,0,3,0,0,13,13,13,,,,,,,,,,,,,,,,,,,,,,,,,False,72,73,True,exp4.png,exp3.png,trial_right_image,-1,exp3.png,3,exp4.png,exp3.png,0,2,non-reversed,incorrect,0.06856630277815035,1,invalid_win,399.9603223000013,39,,,,,,,,,,,,,,,,,,sub_039,2022-08-04_17h04.06.174,Reversal,2022.1.2,59.997792081900855,3,
14,exp1.png,exp2.png,,3,0,3,0,0,14,14,14,,,,,,,,,,,,,,,,,,,,,,,,,False,73,74,False,exp1.png,exp2.png,trial_left_image,1,exp1.png,3,exp2.png,exp1.png,0,4,reversed,incorrect,0.8924339339949435,0,valid_lose,404.30995580001036,39,,,,,,,,,,,,,,,,,,sub_039,2022-08-04_17h04.06.174,Reversal,2022.1.2,59.997792081900855,3,
15,exp3.png,exp4.png,,3,0,3,0,0,15,15,15,,,,,,,,,,,,,,,,,,,,,,,,,False,74,75,True,exp4.png,exp3.png,trial_left_image,1,exp4.png,3,exp4.png,exp3.png,1,1,non-reversed,correct,0.059027873324541624,0,invalid_lose,409.07682630000636,39,,,,,,,,,,,,,,,,,,sub_039,2022-08-04_17h04.06.174,Reversal,2022.1.2,59.997792081900855,3,
16,exp1.png,exp2.png,,3,0,3,0,0,16,16,16,,,,,,,,,,,,,,,,,,,,,,,,,False,75,76,False,exp1.png,exp2.png,trial_right_image,-1,exp2.png,3,exp2.png,exp1.png,1,3,reversed,correct,0.4264543036968149,1,valid_win,413.1097090999974,40,,,,,,,,,,,,,,,,,,sub_039,2022-08-04_17h04.06.174,Reversal,2022.1.2,59.997792081900855,3,
17,exp3.png,exp4.png,,3,0,3,0,0,17,17,17,,,,,,,,,,,,,,,,,,,,,,,,,False,76,77,True,exp4.png,exp3.png,trial_left_image,1,exp4.png,3,exp4.png,exp3.png,1,1,non-reversed,correct,0.23627191861259944,0,invalid_lose,417.0259262000036,40,,,,,,,,,,,,,,,,,,sub_039,2022-08-04_17h04.06.174,Reversal,2022.1.2,59.997792081900855,3,
18,exp1.png,exp2.png,,3,0,3,0,0,18,18,18,,,,,,,,,,,,,,,,,,,,,,,,,False,77,78,False,exp1.png,exp2.png,trial_left_image,1,exp1.png,3,exp2.png,exp1.png,0,4,reversed,incorrect,0.5773110994573079,0,valid_lose,420.7428482999967,40,,,,,,,,,,,,,,,,,,sub_039,2022-08-04_17h04.06.174,Reversal,2022.1.2,59.997792081900855,3,
19,exp3.png,exp4.png,,3,0,3,0,0,19,19,19,,,,,,,,,,,,,,,,,,,,,,,,,False,78,79,False,exp3.png,exp4.png,trial_right_image,-1,exp4.png,3,exp4.png,exp3.png,1,1,non-reversed,correct,0.7779840423161787,1,valid_win,424.90954580000835,41,,,,,,,,,,,,,,,,,,sub_039,2022-08-04_17h04.06.174,Reversal,2022.1.2,59.997792081900855,3,
20,exp1.png,exp2.png,,3,0,3,0,0,20,20,20,,,,,,,,,,,,,,,,,,,,,,,,,False,79,80,False,exp1.png,exp2.png,trial_right_image,-1,exp2.png,3,exp2.png,exp1.png,1,3,reversed,correct,0.26928259097720797,1,valid_win,429.14311140000063,42,,,,,,,,,,,,,,,,,,sub_039,2022-08-04_17h04.06.174,Reversal,2022.1.2,59.997792081900855,3,
,,,exp1.png,3,0,3,0,,,,,0,0,0,0,0,0,0,0,,,,,,,,,,,,,,,,,,,,,,,,,,,,,,,,,,,,,,1.0,1.0,2.3777848000027006,"[(1.0, 2.3777848000027006)]",502.17717039999843,None,,,,,,,,,,,,sub_039,2022-08-04_17h04.06.174,Reversal,2022.1.2,59.997792081900855,3,
,,,exp2.png,3,0,3,0,,,,,0,0,0,0,0,1,1,1,,,,,,,,,,,,,,,,,,,,,,,,,,,,,,,,,,,,,,,100.0,1.1490229000046384,"[(100.0, 1.1490229000046384)]",505.85465320000367,None,100.0,,,,,,,,,,,sub_039,2022-08-04_17h04.06.174,Reversal,2022.1.2,59.997792081900855,3,
,,,exp3.png,3,0,3,0,,,,,0,0,0,0,0,2,2,2,,,,,,,,,,,,,,,,,,,,,,,,,,,,,,,,,,,,,,,9.0,1.2510340000008,"[(9.0, 1.2510340000008)]",508.034774300002,None,,9.0,,,,,,,,,,sub_039,2022-08-04_17h04.06.174,Reversal,2022.1.2,59.997792081900855,3,
,,,exp4.png,3,0,3,0,,,,,0,0,0,0,0,3,3,3,,,,,,,,,,,,,,,,,,,,,,,,,,,,,,,,,,,,,,,95.0,1.2519151000014972,"[(95.0, 1.2519151000014972)]",510.36965659999987,None,,,95.0,,,,,,,,,sub_039,2022-08-04_17h04.06.174,Reversal,2022.1.2,59.997792081900855,3,
0,exp1.png,exp2.png,,,,,,,,,,,,,,,,,,0,0,0,0,0,0,0,0,,,,,,,,,True,,,,,,,,,,,,,,,,,,,,,,,,,,,,,,,,,,,,,,sub_039,2022-08-04_17h04.06.174,Reversal,2022.1.2,59.997792081900855,3,
1,exp3.png,exp4.png,,,,,,,,,,,,,,,,,,0,0,0,0,0,1,1,1,,,,,,,,,False,0,81,True,exp4.png,exp3.png,trial_left_image,1,exp4.png,3,exp4.png,exp3.png,1,1,non-reversed,correct,0.46014769539851297,1,valid_win,444.19224340000073,43,,,,,,,,,,442.1473255000019,,,,,,,,sub_039,2022-08-04_17h04.06.174,Reversal,2022.1.2,59.997792081900855,3,
2,exp1.png,exp2.png,,,,,,,,,,,,,,,,,,0,0,0,0,0,2,2,2,,,,,,,,,False,1,82,False,exp1.png,exp2.png,trial_right_image,-1,exp2.png,3,exp1.png,exp2.png,1,3,reversed,incorrect,0.9403127699028714,0,valid_lose,448.3930073000083,43,,,,,,,,,,,,,,,,,,sub_039,2022-08-04_17h04.06.174,Reversal,2022.1.2,59.997792081900855,3,
3,exp3.png,exp4.png,,,,,,,,,,,,,,,,,,0,0,0,0,0,3,3,3,,,,,,,,,False,2,83,True,exp4.png,exp3.png,trial_left_image,1,exp4.png,3,exp4.png,exp3.png,1,1,non-reversed,correct,0.5615623721735425,1,valid_win,452.808400000009,44,,,,,,,,,,,,,,,,,,sub_039,2022-08-04_17h04.06.174,Reversal,2022.1.2,59.997792081900855,3,
4,exp1.png,exp2.png,,,,,,,,,,,,,,,,,,0,0,0,0,0,4,4,4,,,,,,,,,False,3,84,False,exp1.png,exp2.png,trial_left_image,1,exp1.png,3,exp1.png,exp2.png,0,4,reversed,correct,0.26295235881352985,1,valid_win,456.8920122999989,45,,,,,,,,,,,,,,,,,,sub_039,2022-08-04_17h04.06.174,Reversal,2022.1.2,59.997792081900855,3,
5,exp3.png,exp4.png,,,,,,,,,,,,,,,,,,0,0,0,0,0,5,5,5,,,,,,,,,False,4,85,True,exp4.png,exp3.png,trial_left_image,1,exp4.png,3,exp4.png,exp3.png,1,1,non-reversed,correct,0.6584621791897817,1,valid_win,461.0428338000056,46,,,,,,,,,,,,,,,,,,sub_039,2022-08-04_17h04.06.174,Reversal,2022.1.2,59.997792081900855,3,
6,exp1.png,exp2.png,,,,,,,,,,,,,,,,,,0,0,0,0,0,6,6,6,,,,,,,,,False,5,86,False,exp1.png,exp2.png,trial_left_image,1,exp1.png,3,exp1.png,exp2.png,0,4,reversed,correct,0.4510617519486826,1,valid_win,464.8421059000102,47,,,,,,,,,,,,,,,,,,sub_039,2022-08-04_17h04.06.174,Reversal,2022.1.2,59.997792081900855,3,
7,exp3.png,exp4.png,,,,,,,,,,,,,,,,,,0,0,0,0,0,7,7,7,,,,,,,,,False,6,87,True,exp4.png,exp3.png,trial_left_image,1,exp4.png,3,exp4.png,exp3.png,1,1,non-reversed,correct,0.7208863160804917,1,valid_win,468.9585353000002,48,,,,,,,,,,,,,,,,,,sub_039,2022-08-04_17h04.06.174,Reversal,2022.1.2,59.997792081900855,3,
8,exp1.png,exp2.png,,,,,,,,,,,,,,,,,,0,0,0,0,0,8,8,8,,,,,,,,,False,7,88,True,exp2.png,exp1.png,trial_left_image,1,exp2.png,3,exp1.png,exp2.png,1,3,reversed,incorrect,0.61227668327649,0,valid_lose,473.07497450000665,48,,,,,,,,,,,,,,,,,,sub_039,2022-08-04_17h04.06.174,Reversal,2022.1.2,59.997792081900855,3,
9,exp3.png,exp4.png,,,,,,,,,,,,,,,,,,0,0,0,0,0,9,9,9,,,,,,,,,False,8,89,False,exp3.png,exp4.png,trial_right_image,-1,exp4.png,3,exp4.png,exp3.png,1,1,non-reversed,correct,0.7441153181051003,1,valid_win,477.3089681999991,49,,,,,,,,,,,,,,,,,,sub_039,2022-08-04_17h04.06.174,Reversal,2022.1.2,59.997792081900855,3,
10,exp1.png,exp2.png,,,,,,,,,,,,,,,,,,0,0,0,0,0,10,10,10,,,,,,,,,False,9,90,False,exp1.png,exp2.png,trial_left_image,1,exp1.png,3,exp1.png,exp2.png,0,4,reversed,correct,0.780926236865063,1,valid_win,481.4746057000011,50,,,,,,,,,,,,,,,,,,sub_039,2022-08-04_17h04.06.174,Reversal,2022.1.2,59.997792081900855,3,
11,exp3.png,exp4.png,,,,,,,,,,,,,,,,,,0,0,0,0,0,11,11,11,,,,,,,,,False,10,91,False,exp3.png,exp4.png,trial_right_image,-1,exp4.png,3,exp4.png,exp3.png,1,1,non-reversed,correct,0.036587845056564317,0,invalid_lose,485.674757700006,50,,,,,,,,,,,,,,,,,,sub_039,2022-08-04_17h04.06.174,Reversal,2022.1.2,59.997792081900855,3,
12,exp1.png,exp2.png,,,,,,,,,,,,,,,,,,0,0,0,0,0,12,12,12,,,,,,,,,False,11,92,False,exp1.png,exp2.png,trial_left_image,1,exp1.png,3,exp1.png,exp2.png,0,4,reversed,correct,0.25781701178345295,1,valid_win,489.77461370000674,51,,,,,,,,,,,,,,,,,,sub_039,2022-08-04_17h04.06.174,Reversal,2022.1.2,59.997792081900855,3,
13,exp3.png,exp4.png,,,,,,,,,,,,,,,,,,0,0,0,0,0,13,13,13,,,,,,,,,False,12,93,True,exp4.png,exp3.png,trial_left_image,1,exp4.png,3,exp4.png,exp3.png,1,1,non-reversed,correct,0.4656375059006508,1,valid_win,493.8918191999983,52,,,,,,,,,,,,,,,,,,sub_039,2022-08-04_17h04.06.174,Reversal,2022.1.2,59.997792081900855,3,
14,exp1.png,exp2.png,,,,,,,,,,,,,,,,,,0,0,0,0,0,14,14,14,,,,,,,,,False,13,94,False,exp1.png,exp2.png,trial_left_image,1,exp1.png,3,exp1.png,exp2.png,0,4,reversed,correct,0.8917474540448989,1,valid_win,498.40832899999805,53,,,,,,,,,,,,,,,,,,sub_039,2022-08-04_17h04.06.174,Reversal,2022.1.2,59.997792081900855,3,
15,exp3.png,exp4.png,,,,,,,,,,,,,,,,,,0,0,0,0,0,15,15,15,,,,,,,,,False,14,95,False,exp3.png,exp4.png,trial_right_image,-1,exp4.png,3,exp4.png,exp3.png,1,1,non-reversed,correct,0.08277403864870936,0,invalid_lose,502.6080704000051,53,,,,,,,,,,,,,,,,,,sub_039,2022-08-04_17h04.06.174,Reversal,2022.1.2,59.997792081900855,3,
16,exp1.png,exp2.png,,,,,,,,,,,,,,,,,,0,0,0,0,0,16,16,16,,,,,,,,,False,15,96,True,exp2.png,exp1.png,trial_left_image,1,exp2.png,3,exp1.png,exp2.png,1,3,reversed,incorrect,0.15008297132398585,1,invalid_win,505.9096666999976,54,,,,,,,,,,,,,,,,,,sub_039,2022-08-04_17h04.06.174,Reversal,2022.1.2,59.997792081900855,3,
17,exp3.png,exp4.png,,,,,,,,,,,,,,,,,,0,0,0,0,0,17,17,17,,,,,,,,,False,16,97,True,exp4.png,exp3.png,trial_left_image,1,exp4.png,3,exp4.png,exp3.png,1,1,non-reversed,correct,0.7873284234980764,1,valid_win,510.1257483000081,55,,,,,,,,,,,,,,,,,,sub_039,2022-08-04_17h04.06.174,Reversal,2022.1.2,59.997792081900855,3,
18,exp1.png,exp2.png,,,,,,,,,,,,,,,,,,0,0,0,0,0,18,18,18,,,,,,,,,False,17,98,False,exp1.png,exp2.png,trial_left_image,1,exp1.png,3,exp1.png,exp2.png,0,4,reversed,correct,0.07122726014175929,0,invalid_lose,513.4576469000021,55,,,,,,,,,,,,,,,,,,sub_039,2022-08-04_17h04.06.174,Reversal,2022.1.2,59.997792081900855,3,
19,exp3.png,exp4.png,,,,,,,,,,,,,,,,,,0,0,0,0,0,19,19,19,,,,,,,,,False,18,99,True,exp4.png,exp3.png,trial_right_image,-1,exp3.png,3,exp4.png,exp3.png,0,2,non-reversed,incorrect,0.4578142336244698,0,valid_lose,517.4416000000056,55,,,,,,,,,,,,,,,,,,sub_039,2022-08-04_17h04.06.174,Reversal,2022.1.2,59.997792081900855,3,
20,exp1.png,exp2.png,,,,,,,,,,,,,,,,,,0,0,0,0,0,20,20,20,,,,,,,,,False,19,100,True,exp2.png,exp1.png,trial_right_image,-1,exp1.png,3,exp1.png,exp2.png,0,4,reversed,correct,0.33645511830849906,1,valid_win,521.9745159000013,56,,,,,,,,,,,,,,,,,,sub_039,2022-08-04_17h04.06.174,Reversal,2022.1.2,59.997792081900855,3,
,,,exp1.png,,,,,,,,,,,,,,,,,0,0,0,0,,,,,0,0,0,0,0,0,0,0,,,,,,,,,,,,,,,,,,,,,,93.0,93.0,2.815395300000091,"[(93.0, 2.815395300000091)]",595.0052270000015,None,,,,,,,,,,,,sub_039,2022-08-04_17h04.06.174,Reversal,2022.1.2,59.997792081900855,3,
,,,exp2.png,,,,,,,,,,,,,,,,,0,0,0,0,,,,,0,0,0,0,0,1,1,1,,,,,,,,,,,,,,,,,,,,,,,50.0,None,[],600.0031116000027,None,,,,,,,,,,,,sub_039,2022-08-04_17h04.06.174,Reversal,2022.1.2,59.997792081900855,3,
,,,exp3.png,,,,,,,,,,,,,,,,,0,0,0,0,,,,,0,0,0,0,0,2,2,2,,,,,,,,,,,,,,,,,,,,,,,5.0,6.915692599999602,"[(5.0, 6.915692599999602)]",600.4535020999901,None,,5.0,,,,,,,,,,sub_039,2022-08-04_17h04.06.174,Reversal,2022.1.2,59.997792081900855,3,
,,,exp4.png,,,,,,,,,,,,,,,,,0,0,0,0,,,,,0,0,0,0,0,3,3,3,,,,,,,,,,,,,,,,,,,,,,,96.0,1.216524000003119,"[(96.0, 1.216524000003119)]",608.4683550999907,None,,,96.0,,,,,,,,,sub_039,2022-08-04_17h04.06.174,Reversal,2022.1.2,59.997792081900855,3,
0,exp1.png,exp2.png,,,,,,,,,,,,,,,,,,1,0,1,0,0,0,0,0,,,,,,,,,True,,,,,,,,,,,,,,,,,,,,,,,,,,,,,,,,,,,,,,sub_039,2022-08-04_17h04.06.174,Reversal,2022.1.2,59.997792081900855,3,
1,exp3.png,exp4.png,,,,,,,,,,,,,,,,,,1,0,1,0,0,1,1,1,,,,,,,,,False,20,101,False,exp3.png,exp4.png,trial_right_image,-1,exp4.png,3,exp4.png,exp3.png,1,1,non-reversed,correct,0.7563360980077092,1,valid_win,542.6579897000047,57,,,,,,,,,,,,,,,,,,sub_039,2022-08-04_17h04.06.174,Reversal,2022.1.2,59.997792081900855,3,
2,exp1.png,exp2.png,,,,,,,,,,,,,,,,,,1,0,1,0,0,2,2,2,,,,,,,,,False,21,102,True,exp2.png,exp1.png,trial_left_image,1,exp2.png,3,exp1.png,exp2.png,1,3,reversed,incorrect,0.8410337026033298,0,valid_lose,546.8243076000072,57,,,,,,,,,,,,,,,,,,sub_039,2022-08-04_17h04.06.174,Reversal,2022.1.2,59.997792081900855,3,
3,exp3.png,exp4.png,,,,,,,,,,,,,,,,,,1,0,1,0,0,3,3,3,,,,,,,,,False,22,103,False,exp3.png,exp4.png,trial_right_image,-1,exp4.png,3,exp4.png,exp3.png,1,1,non-reversed,correct,0.3734026758225687,1,valid_win,551.0073254000017,58,,,,,,,,,,,,,,,,,,sub_039,2022-08-04_17h04.06.174,Reversal,2022.1.2,59.997792081900855,3,
4,exp1.png,exp2.png,,,,,,,,,,,,,,,,,,1,0,1,0,0,4,4,4,,,,,,,,,False,23,104,True,exp2.png,exp1.png,trial_left_image,1,exp2.png,3,exp1.png,exp2.png,1,3,reversed,incorrect,0.2747785634830261,0,valid_lose,555.157594999997,58,,,,,,,,,,,,,,,,,,sub_039,2022-08-04_17h04.06.174,Reversal,2022.1.2,59.997792081900855,3,
5,exp3.png,exp4.png,,,,,,,,,,,,,,,,,,1,0,1,0,0,5,5,5,,,,,,,,,False,24,105,False,exp3.png,exp4.png,trial_right_image,-1,exp4.png,3,exp4.png,exp3.png,1,1,non-reversed,correct,0.6010169928099321,1,valid_win,559.2242128000071,59,,,,,,,,,,,,,,,,,,sub_039,2022-08-04_17h04.06.174,Reversal,2022.1.2,59.997792081900855,3,
6,exp1.png,exp2.png,,,,,,,,,,,,,,,,,,1,0,1,0,0,6,6,6,,,,,,,,,False,25,106,False,exp1.png,exp2.png,trial_left_image,1,exp1.png,3,exp1.png,exp2.png,0,4,reversed,correct,0.2359936712330446,0,invalid_lose,563.3565080999979,59,,,,,,,,,,,,,,,,,,sub_039,2022-08-04_17h04.06.174,Reversal,2022.1.2,59.997792081900855,3,
7,exp3.png,exp4.png,,,,,,,,,,,,,,,,,,1,0,1,0,0,7,7,7,,,,,,,,,False,26,107,False,exp3.png,exp4.png,trial_right_image,-1,exp4.png,3,exp4.png,exp3.png,1,1,non-reversed,correct,0.9121447774253684,1,valid_win,567.4733493000094,60,,,,,,,,,,,,,,,,,,sub_039,2022-08-04_17h04.06.174,Reversal,2022.1.2,59.997792081900855,3,
8,exp1.png,exp2.png,,,,,,,,,,,,,,,,,,1,0,1,0,0,8,8,8,,,,,,,,,False,27,108,True,exp2.png,exp1.png,trial_left_image,1,exp2.png,3,exp1.png,exp2.png,1,3,reversed,incorrect,0.727625844218276,0,valid_lose,571.7065238000068,60,,,,,,,,,,,,,,,,,,sub_039,2022-08-04_17h04.06.174,Reversal,2022.1.2,59.997792081900855,3,
9,exp3.png,exp4.png,,,,,,,,,,,,,,,,,,1,0,1,0,0,9,9,9,,,,,,,,,False,28,109,False,exp3.png,exp4.png,trial_right_image,-1,exp4.png,3,exp4.png,exp3.png,1,1,non-reversed,correct,0.018618588526428614,0,invalid_lose,575.8899313000002,60,,,,,,,,,,,,,,,,,,sub_039,2022-08-04_17h04.06.174,Reversal,2022.1.2,59.997792081900855,3,
10,exp1.png,exp2.png,,,,,,,,,,,,,,,,,,1,0,1,0,0,10,10,10,,,,,,,,,False,29,110,True,exp2.png,exp1.png,trial_left_image,1,exp2.png,3,exp1.png,exp2.png,1,3,reversed,incorrect,0.001986266830485084,1,invalid_win,580.7396857999993,61,,,,,,,,,,,,,,,,,,sub_039,2022-08-04_17h04.06.174,Reversal,2022.1.2,59.997792081900855,3,
11,exp3.png,exp4.png,,,,,,,,,,,,,,,,,,1,0,1,0,0,11,11,11,,,,,,,,,False,30,111,False,exp3.png,exp4.png,trial_left_image,1,exp3.png,3,exp4.png,exp3.png,0,2,non-reversed,incorrect,0.643439321725257,0,valid_lose,585.2901857000106,61,,,,,,,,,,,,,,,,,,sub_039,2022-08-04_17h04.06.174,Reversal,2022.1.2,59.997792081900855,3,
12,exp1.png,exp2.png,,,,,,,,,,,,,,,,,,1,0,1,0,0,12,12,12,,,,,,,,,False,31,112,True,exp2.png,exp1.png,trial_right_image,-1,exp1.png,3,exp1.png,exp2.png,0,4,reversed,correct,0.30189256380545293,1,valid_win,589.7899819000013,62,,,,,,,,,,,,,,,,,,sub_039,2022-08-04_17h04.06.174,Reversal,2022.1.2,59.997792081900855,3,
13,exp3.png,exp4.png,,,,,,,,,,,,,,,,,,1,0,1,0,0,13,13,13,,,,,,,,,False,32,113,False,exp3.png,exp4.png,trial_left_image,1,exp3.png,3,exp4.png,exp3.png,0,2,non-reversed,incorrect,0.27901071337386585,0,valid_lose,593.7728545999998,62,,,,,,,,,,,,,,,,,,sub_039,2022-08-04_17h04.06.174,Reversal,2022.1.2,59.997792081900855,3,
14,exp1.png,exp2.png,,,,,,,,,,,,,,,,,,1,0,1,0,0,14,14,14,,,,,,,,,False,33,114,True,exp2.png,exp1.png,trial_left_image,1,exp2.png,3,exp1.png,exp2.png,1,3,reversed,incorrect,0.27991006251361694,0,valid_lose,598.0237739000004,62,,,,,,,,,,,,,,,,,,sub_039,2022-08-04_17h04.06.174,Reversal,2022.1.2,59.997792081900855,3,
15,exp3.png,exp4.png,,,,,,,,,,,,,,,,,,1,0,1,0,0,15,15,15,,,,,,,,,False,34,115,True,exp4.png,exp3.png,trial_left_image,1,exp4.png,3,exp4.png,exp3.png,1,1,non-reversed,correct,0.06290631951435532,0,invalid_lose,602.7733719000098,62,,,,,,,,,,,,,,,,,,sub_039,2022-08-04_17h04.06.174,Reversal,2022.1.2,59.997792081900855,3,
16,exp1.png,exp2.png,,,,,,,,,,,,,,,,,,1,0,1,0,0,16,16,16,,,,,,,,,False,35,116,True,exp2.png,exp1.png,trial_right_image,-1,exp1.png,3,exp1.png,exp2.png,0,4,reversed,correct,0.6643718219541292,1,valid_win,607.2564875000098,63,,,,,,,,,,,,,,,,,,sub_039,2022-08-04_17h04.06.174,Reversal,2022.1.2,59.997792081900855,3,
17,exp3.png,exp4.png,,,,,,,,,,,,,,,,,,1,0,1,0,0,17,17,17,,,,,,,,,False,36,117,False,exp3.png,exp4.png,trial_left_image,1,exp3.png,3,exp4.png,exp3.png,0,2,non-reversed,incorrect,0.20137802086221712,1,invalid_win,611.7564914000104,64,,,,,,,,,,,,,,,,,,sub_039,2022-08-04_17h04.06.174,Reversal,2022.1.2,59.997792081900855,3,
18,exp1.png,exp2.png,,,,,,,,,,,,,,,,,,1,0,1,0,0,18,18,18,,,,,,,,,False,37,118,False,exp1.png,exp2.png,trial_right_image,-1,exp2.png,3,exp1.png,exp2.png,1,3,reversed,incorrect,0.5411544127513271,0,valid_lose,615.7723480999994,64,,,,,,,,,,,,,,,,,,sub_039,2022-08-04_17h04.06.174,Reversal,2022.1.2,59.997792081900855,3,
19,exp3.png,exp4.png,,,,,,,,,,,,,,,,,,1,0,1,0,0,19,19,19,,,,,,,,,False,38,119,True,exp4.png,exp3.png,trial_right_image,-1,exp3.png,3,exp4.png,exp3.png,0,2,non-reversed,incorrect,0.9839582507234301,0,valid_lose,620.2394132000045,64,,,,,,,,,,,,,,,,,,sub_039,2022-08-04_17h04.06.174,Reversal,2022.1.2,59.997792081900855,3,
20,exp1.png,exp2.png,,,,,,,,,,,,,,,,,,1,0,1,0,0,20,20,20,,,,,,,,,False,39,120,True,exp2.png,exp1.png,trial_right_image,-1,exp1.png,3,exp1.png,exp2.png,0,4,reversed,correct,0.9582706864853323,1,valid_win,624.7727889000089,65,,,,,,,,,,,,,,,,,,sub_039,2022-08-04_17h04.06.174,Reversal,2022.1.2,59.997792081900855,3,
,,,exp1.png,,,,,,,,,,,,,,,,,1,0,1,0,,,,,0,0,0,0,0,0,0,0,,,,,,,,,,,,,,,,,,,,,,95.0,95.0,2.3944972999888705,"[(95.0, 2.3944972999888705)]",697.8071957999928,None,,,,,,,,,,,,sub_039,2022-08-04_17h04.06.174,Reversal,2022.1.2,59.997792081900855,3,
,,,exp2.png,,,,,,,,,,,,,,,,,1,0,1,0,,,,,0,0,0,0,0,1,1,1,,,,,,,,,,,,,,,,,,,,,,,17.0,1.2681569000124,"[(17.0, 1.2681569000124)]",701.4979653999908,None,17.0,,,,,,,,,,,sub_039,2022-08-04_17h04.06.174,Reversal,2022.1.2,59.997792081900855,3,
,,,exp3.png,,,,,,,,,,,,,,,,,1,0,1,0,,,,,0,0,0,0,0,2,2,2,,,,,,,,,,,,,,,,,,,,,,,96.0,1.4506876000086777,"[(96.0, 1.4506876000086777)]",704.0826973999938,None,,96.0,,,,,,,,,,sub_039,2022-08-04_17h04.06.174,Reversal,2022.1.2,59.997792081900855,3,
,,,exp4.png,,,,,,,,,,,,,,,,,1,0,1,0,,,,,0,0,0,0,0,3,3,3,,,,,,,,,,,,,,,,,,,,,,,13.0,4.048009399994044,"[(13.0, 4.048009399994044)]",707.5515553000005,None,,,13.0,,,,,,,,,sub_039,2022-08-04_17h04.06.174,Reversal,2022.1.2,59.997792081900855,3,
0,exp1.png,exp2.png,,,,,,,,,,,,,,,,,,2,0,2,0,0,0,0,0,,,,,,,,,True,,,,,,,,,,,,,,,,,,,,,,,,,,,,,,,,,,,,,,sub_039,2022-08-04_17h04.06.174,Reversal,2022.1.2,59.997792081900855,3,
1,exp3.png,exp4.png,,,,,,,,,,,,,,,,,,2,0,2,0,0,1,1,1,,,,,,,,,False,40,121,False,exp3.png,exp4.png,trial_left_image,1,exp3.png,3,exp4.png,exp3.png,0,2,non-reversed,incorrect,0.03905491696493013,1,invalid_win,644.0886275000084,66,,,,,,,,,,,,,,,,,,sub_039,2022-08-04_17h04.06.174,Reversal,2022.1.2,59.997792081900855,3,
2,exp1.png,exp2.png,,,,,,,,,,,,,,,,,,2,0,2,0,0,2,2,2,,,,,,,,,False,41,122,True,exp2.png,exp1.png,trial_left_image,1,exp2.png,3,exp1.png,exp2.png,1,3,reversed,incorrect,0.041634977682790786,1,invalid_win,648.1725682000106,67,,,,,,,,,,,,,,,,,,sub_039,2022-08-04_17h04.06.174,Reversal,2022.1.2,59.997792081900855,3,
3,exp3.png,exp4.png,,,,,,,,,,,,,,,,,,2,0,2,0,0,3,3,3,,,,,,,,,False,42,123,True,exp4.png,exp3.png,trial_right_image,-1,exp3.png,3,exp4.png,exp3.png,0,2,non-reversed,incorrect,0.3985221456035094,0,valid_lose,652.3727349999972,67,,,,,,,,,,,,,,,,,,sub_039,2022-08-04_17h04.06.174,Reversal,2022.1.2,59.997792081900855,3,
4,exp1.png,exp2.png,,,,,,,,,,,,,,,,,,2,0,2,0,0,4,4,4,,,,,,,,,False,43,124,True,exp2.png,exp1.png,trial_left_image,1,exp2.png,3,exp1.png,exp2.png,1,3,reversed,incorrect,0.3256668047339605,0,valid_lose,657.0220908000047,67,,,,,,,,,,,,,,,,,,sub_039,2022-08-04_17h04.06.174,Reversal,2022.1.2,59.997792081900855,3,
5,exp3.png,exp4.png,,,,,,,,,,,,,,,,,,2,0,2,0,0,5,5,5,,,,,,,,,False,44,125,False,exp3.png,exp4.png,trial_left_image,1,exp3.png,3,exp4.png,exp3.png,0,2,non-reversed,incorrect,0.5634568506437699,0,valid_lose,661.2891162000014,67,,,,,,,,,,,,,,,,,,sub_039,2022-08-04_17h04.06.174,Reversal,2022.1.2,59.997792081900855,3,
6,exp1.png,exp2.png,,,,,,,,,,,,,,,,,,2,0,2,0,0,6,6,6,,,,,,,,,False,45,126,True,exp2.png,exp1.png,trial_right_image,-1,exp1.png,3,exp1.png,exp2.png,0,4,reversed,correct,0.6251799120617672,1,valid_win,665.0383101000043,68,,,,,,,,,,,,,,,,,,sub_039,2022-08-04_17h04.06.174,Reversal,2022.1.2,59.997792081900855,3,
7,exp3.png,exp4.png,,,,,,,,,,,,,,,,,,2,0,2,0,0,7,7,7,,,,,,,,,False,46,127,False,exp3.png,exp4.png,trial_right_image,-1,exp4.png,3,exp4.png,exp3.png,1,1,non-reversed,correct,0.08763861813901141,0,invalid_lose,669.2556783000036,68,,,,,,,,,,,,,,,,,,sub_039,2022-08-04_17h04.06.174,Reversal,2022.1.2,59.997792081900855,3,
8,exp1.png,exp2.png,,,,,,,,,,,,,,,,,,2,0,2,0,0,8,8,8,,,,,,,,,False,47,128,False,exp1.png,exp2.png,trial_left_image,1,exp1.png,3,exp1.png,exp2.png,0,4,reversed,correct,0.995976825222926,1,valid_win,673.405242599998,69,,,,,,,,,,,,,,,,,,sub_039,2022-08-04_17h04.06.174,Reversal,2022.1.2,59.997792081900855,3,
9,exp3.png,exp4.png,,,,,,,,,,,,,,,,,,2,0,2,0,0,9,9,9,,,,,,,,,False,48,129,True,exp4.png,exp3.png,trial_right_image,-1,exp3.png,3,exp4.png,exp3.png,0,2,non-reversed,incorrect,0.06992500518959588,1,invalid_win,677.7715138000058,70,,,,,,,,,,,,,,,,,,sub_039,2022-08-04_17h04.06.174,Reversal,2022.1.2,59.997792081900855,3,
10,exp1.png,exp2.png,,,,,,,,,,,,,,,,,,2,0,2,0,0,10,10,10,,,,,,,,,False,49,130,True,exp2.png,exp1.png,trial_right_image,-1,exp1.png,3,exp1.png,exp2.png,0,4,reversed,correct,0.8040757263181881,1,valid_win,682.1053580000007,71,,,,,,,,,,,,,,,,,,sub_039,2022-08-04_17h04.06.174,Reversal,2022.1.2,59.997792081900855,3,
11,exp3.png,exp4.png,,,,,,,,,,,,,,,,,,2,0,2,0,0,11,11,11,,,,,,,,,False,50,131,False,exp3.png,exp4.png,trial_left_image,1,exp3.png,3,exp4.png,exp3.png,0,2,non-reversed,incorrect,0.5916576486814309,0,valid_lose,686.6216251000005,71,,,,,,,,,,,,,,,,,,sub_039,2022-08-04_17h04.06.174,Reversal,2022.1.2,59.997792081900855,3,
12,exp1.png,exp2.png,,,,,,,,,,,,,,,,,,2,0,2,0,0,12,12,12,,,,,,,,,False,51,132,False,exp1.png,exp2.png,trial_right_image,-1,exp2.png,3,exp1.png,exp2.png,1,3,reversed,incorrect,0.26911980401694424,0,valid_lose,690.9213062000053,71,,,,,,,,,,,,,,,,,,sub_039,2022-08-04_17h04.06.174,Reversal,2022.1.2,59.997792081900855,3,
13,exp3.png,exp4.png,,,,,,,,,,,,,,,,,,2,0,2,0,0,13,13,13,,,,,,,,,False,52,133,False,exp3.png,exp4.png,trial_left_image,1,exp3.png,3,exp4.png,exp3.png,0,2,non-reversed,incorrect,0.25895785552739936,0,valid_lose,694.9052190000075,71,,,,,,,,,,,,,,,,,,sub_039,2022-08-04_17h04.06.174,Reversal,2022.1.2,59.997792081900855,3,
14,exp1.png,exp2.png,,,,,,,,,,,,,,,,,,2,0,2,0,0,14,14,14,,,,,,,,,False,53,134,True,exp2.png,exp1.png,trial_left_image,1,exp2.png,3,exp1.png,exp2.png,1,3,reversed,incorrect,0.5951173634476673,0,valid_lose,699.0385020000103,71,,,,,,,,,,,,,,,,,,sub_039,2022-08-04_17h04.06.174,Reversal,2022.1.2,59.997792081900855,3,
15,exp3.png,exp4.png,,,,,,,,,,,,,,,,,,2,0,2,0,0,15,15,15,,,,,,,,,False,54,135,False,exp3.png,exp4.png,trial_right_image,-1,exp4.png,3,exp4.png,exp3.png,1,1,non-reversed,correct,0.09206122851928711,0,invalid_lose,703.5211503000028,71,,,,,,,,,,,,,,,,,,sub_039,2022-08-04_17h04.06.174,Reversal,2022.1.2,59.997792081900855,3,
16,exp1.png,exp2.png,,,,,,,,,,,,,,,,,,2,0,2,0,0,16,16,16,,,,,,,,,False,55,136,False,exp1.png,exp2.png,trial_left_image,1,exp1.png,3,exp1.png,exp2.png,0,4,reversed,correct,0.5165126597046998,1,valid_win,707.5884122999996,72,,,,,,,,,,,,,,,,,,sub_039,2022-08-04_17h04.06.174,Reversal,2022.1.2,59.997792081900855,3,
17,exp3.png,exp4.png,,,,,,,,,,,,,,,,,,2,0,2,0,0,17,17,17,,,,,,,,,False,56,137,True,exp4.png,exp3.png,trial_right_image,-1,exp3.png,3,exp4.png,exp3.png,0,2,non-reversed,incorrect,0.14647377774389492,1,invalid_win,711.8210058999975,73,,,,,,,,,,,,,,,,,,sub_039,2022-08-04_17h04.06.174,Reversal,2022.1.2,59.997792081900855,3,
18,exp1.png,exp2.png,,,,,,,,,,,,,,,,,,2,0,2,0,0,18,18,18,,,,,,,,,False,57,138,True,exp2.png,exp1.png,trial_right_image,-1,exp1.png,3,exp1.png,exp2.png,0,4,reversed,correct,0.49124686531405426,1,valid_win,715.9213203999971,74,,,,,,,,,,,,,,,,,,sub_039,2022-08-04_17h04.06.174,Reversal,2022.1.2,59.997792081900855,3,
19,exp3.png,exp4.png,,,,,,,,,,,,,,,,,,2,0,2,0,0,19,19,19,,,,,,,,,False,58,139,True,exp4.png,exp3.png,trial_right_image,-1,exp3.png,3,exp4.png,exp3.png,0,2,non-reversed,incorrect,0.7564985026527001,0,valid_lose,720.0211008000042,74,,,,,,,,,,,,,,,,,,sub_039,2022-08-04_17h04.06.174,Reversal,2022.1.2,59.997792081900855,3,
20,exp1.png,exp2.png,,,,,,,,,,,,,,,,,,2,0,2,0,0,20,20,20,,,,,,,,,False,59,140,False,exp1.png,exp2.png,trial_left_image,1,exp1.png,3,exp1.png,exp2.png,0,4,reversed,correct,0.09162550506924227,0,invalid_lose,724.2875477000052,74,,,,,,,,,,,,,,,,,,sub_039,2022-08-04_17h04.06.174,Reversal,2022.1.2,59.997792081900855,3,
,,,exp1.png,,,,,,,,,,,,,,,,,2,0,2,0,,,,,0,0,0,0,0,0,0,0,,,,,,,,,,,,,,,,,,,,,,77.0,77.0,2.1066676000045845,"[(77.0, 2.1066676000045845)]",797.3265734000015,None,,,,,,,,,,,,sub_039,2022-08-04_17h04.06.174,Reversal,2022.1.2,59.997792081900855,3,
,,,exp2.png,,,,,,,,,,,,,,,,,2,0,2,0,,,,,0,0,0,0,0,1,1,1,,,,,,,,,,,,,,,,,,,,,,,26.0,1.2001028999948176,"[(26.0, 1.2001028999948176)]",800.4321802999912,None,26.0,,,,,,,,,,,sub_039,2022-08-04_17h04.06.174,Reversal,2022.1.2,59.997792081900855,3,
,,,exp3.png,,,,,,,,,,,,,,,,,2,0,2,0,,,,,0,0,0,0,0,2,2,2,,,,,,,,,,,,,,,,,,,,,,,93.0,1.3316646999883233,"[(93.0, 1.3316646999883233)]",802.5820638000005,None,,93.0,,,,,,,,,,sub_039,2022-08-04_17h04.06.174,Reversal,2022.1.2,59.997792081900855,3,
,,,exp4.png,,,,,,,,,,,,,,,,,2,0,2,0,,,,,0,0,0,0,0,3,3,3,,,,,,,,,,,,,,,,,,,,,,,21.0,0.9152519000053871,"[(21.0, 0.9152519000053871)]",805.2659437999973,None,,,21.0,,,,,,,,,sub_039,2022-08-04_17h04.06.174,Reversal,2022.1.2,59.997792081900855,3,
,,,,,,,,,,,,,,,,,,,,,,,,,,,,,,,,,,,,,,,,,,,,,,,,,,,,,,,,74,,,,,,,,,,,84,50,34,294.39133030000085,1,space,74.69742750001024,sub_039,2022-08-04_17h04.06.174,Reversal,2022.1.2,59.997792081900855,3,
