trial_index,trial_image1_file,trial_image2_file,image_file,learning_outer_loop.thisRepN,learning_outer_loop.thisTrialN,learning_outer_loop.thisN,learning_outer_loop.thisIndex,learning_inner_loop.thisRepN,learning_inner_loop.thisTrialN,learning_inner_loop.thisN,learning_inner_loop.thisIndex,learning_estimation_outer_loop.thisRepN,learning_estimation_outer_loop.thisTrialN,learning_estimation_outer_loop.thisN,learning_estimation_outer_loop.thisIndex,learning_estimation_inner_loop.thisRepN,learning_estimation_inner_loop.thisTrialN,learning_estimation_inner_loop.thisN,learning_estimation_inner_loop.thisIndex,reversal_outer_loop.thisRepN,reversal_outer_loop.thisTrialN,reversal_outer_loop.thisN,reversal_outer_loop.thisIndex,reversal_inner_loop.thisRepN,reversal_inner_loop.thisTrialN,reversal_inner_loop.thisN,reversal_inner_loop.thisIndex,reversal_estimation_outer_loop.thisRepN,reversal_estimation_outer_loop.thisTrialN,reversal_estimation_outer_loop.thisN,reversal_estimation_outer_loop.thisIndex,reversal_estimation_inner_loop.thisRepN,reversal_estimation_inner_loop.thisTrialN,reversal_estimation_inner_loop.thisN,reversal_estimation_inner_loop.thisIndex,skipped,total_trial_counter,trial_num,left_right_flip,left_image_file,right_image_file,clicked_stimulus_side,side,clicked_stimulus,version,high_prob_image_file,low_prob_image_file,choice_a,choice_b,pair_type,correct,trial_feedback_random,reward,trial_type,overall_time_after_trial,score,estimation_rating.started,estimation_exp1.png,estimation_rating.response,estimation_rating.rt,estimation_rating.history,estimation_exp2.png,estimation_exp4.png,estimation_exp3.png,total_learning_time,total_correct,learning_correct,reversal_correct,total_reversal_time,extra_block,end_experiment.keys,end_experiment.rt,end_experiment.duration,participant,date,expName,psychopyVersion,frameRate,ver,
0,exp1.png,exp2.png,,0,0,0,0,0,0,0,0,,,,,,,,,,,,,,,,,,,,,,,,,False,0,1,True,exp2.png,exp1.png,trial_left_image,1,exp2.png,4,exp2.png,exp1.png,1,1,non-reversed,correct,0.08157952856936102,0,invalid_lose,14.027332400000887,0,,,,,,,,,,,,,,,,,,sub_736,2024-06-24_10h13.07.550,Reversal,2023.1.3,60.184948342745514,4,
1,exp3.png,exp4.png,,0,0,0,0,0,1,1,1,,,,,,,,,,,,,,,,,,,,,,,,,False,1,2,True,exp4.png,exp3.png,trial_right_image,-1,exp3.png,4,exp4.png,exp3.png,0,4,reversed,incorrect,0.3221627666583554,0,valid_lose,27.006136199997854,0,,,,,,,,,,,,,,,,,,sub_736,2024-06-24_10h13.07.550,Reversal,2023.1.3,60.184948342745514,4,
2,exp1.png,exp2.png,,0,0,0,0,0,2,2,2,,,,,,,,,,,,,,,,,,,,,,,,,False,2,3,False,exp1.png,exp2.png,trial_right_image,-1,exp2.png,4,exp2.png,exp1.png,1,1,non-reversed,correct,0.5164438213213333,1,valid_win,35.80348680001043,1,,,,,,,,,,,,,,,,,,sub_736,2024-06-24_10h13.07.550,Reversal,2023.1.3,60.184948342745514,4,
3,exp3.png,exp4.png,,0,0,0,0,0,3,3,3,,,,,,,,,,,,,,,,,,,,,,,,,False,3,4,True,exp4.png,exp3.png,trial_right_image,-1,exp3.png,4,exp4.png,exp3.png,0,4,reversed,incorrect,0.8983090590551909,0,valid_lose,45.866320600005565,1,,,,,,,,,,,,,,,,,,sub_736,2024-06-24_10h13.07.550,Reversal,2023.1.3,60.184948342745514,4,
4,exp1.png,exp2.png,,0,0,0,0,0,4,4,4,,,,,,,,,,,,,,,,,,,,,,,,,False,4,5,False,exp1.png,exp2.png,trial_left_image,1,exp1.png,4,exp2.png,exp1.png,0,2,non-reversed,incorrect,0.6630942300468554,0,valid_lose,51.7644266999996,1,,,,,,,,,,,,,,,,,,sub_736,2024-06-24_10h13.07.550,Reversal,2023.1.3,60.184948342745514,4,
5,exp3.png,exp4.png,,0,0,0,0,0,5,5,5,,,,,,,,,,,,,,,,,,,,,,,,,False,5,6,False,exp3.png,exp4.png,trial_right_image,-1,exp4.png,4,exp4.png,exp3.png,1,3,reversed,correct,0.8653510984090781,1,valid_win,56.67934970000351,2,,,,,,,,,,,,,,,,,,sub_736,2024-06-24_10h13.07.550,Reversal,2023.1.3,60.184948342745514,4,
6,exp1.png,exp2.png,,0,0,0,0,0,6,6,6,,,,,,,,,,,,,,,,,,,,,,,,,False,6,7,True,exp2.png,exp1.png,trial_left_image,1,exp2.png,4,exp2.png,exp1.png,1,1,non-reversed,correct,0.547487591073382,1,valid_win,63.327334600006,3,,,,,,,,,,,,,,,,,,sub_736,2024-06-24_10h13.07.550,Reversal,2023.1.3,60.184948342745514,4,
7,exp3.png,exp4.png,,0,0,0,0,0,7,7,7,,,,,,,,,,,,,,,,,,,,,,,,,False,7,8,False,exp3.png,exp4.png,trial_right_image,-1,exp4.png,4,exp4.png,exp3.png,1,3,reversed,correct,0.4808190736654222,1,valid_win,68.74261320001096,4,,,,,,,,,,,,,,,,,,sub_736,2024-06-24_10h13.07.550,Reversal,2023.1.3,60.184948342745514,4,
8,exp1.png,exp2.png,,0,0,0,0,0,8,8,8,,,,,,,,,,,,,,,,,,,,,,,,,False,8,9,False,exp1.png,exp2.png,trial_right_image,-1,exp2.png,4,exp2.png,exp1.png,1,1,non-reversed,correct,0.47404717244138317,1,valid_win,74.0236076000001,5,,,,,,,,,,,,,,,,,,sub_736,2024-06-24_10h13.07.550,Reversal,2023.1.3,60.184948342745514,4,
9,exp3.png,exp4.png,,0,0,0,0,0,9,9,9,,,,,,,,,,,,,,,,,,,,,,,,,False,9,10,False,exp3.png,exp4.png,trial_right_image,-1,exp4.png,4,exp4.png,exp3.png,1,3,reversed,correct,0.9385815506157826,1,valid_win,78.65543759999855,6,,,,,,,,,,,,,,,,,,sub_736,2024-06-24_10h13.07.550,Reversal,2023.1.3,60.184948342745514,4,
10,exp1.png,exp2.png,,0,0,0,0,0,10,10,10,,,,,,,,,,,,,,,,,,,,,,,,,False,10,11,False,exp1.png,exp2.png,trial_right_image,-1,exp2.png,4,exp2.png,exp1.png,1,1,non-reversed,correct,0.697935464299612,1,valid_win,83.4369114000001,7,,,,,,,,,,,,,,,,,,sub_736,2024-06-24_10h13.07.550,Reversal,2023.1.3,60.184948342745514,4,
11,exp3.png,exp4.png,,0,0,0,0,0,11,11,11,,,,,,,,,,,,,,,,,,,,,,,,,False,11,12,False,exp3.png,exp4.png,trial_right_image,-1,exp4.png,4,exp4.png,exp3.png,1,3,reversed,correct,0.9405165821725431,1,valid_win,87.84126030000334,8,,,,,,,,,,,,,,,,,,sub_736,2024-06-24_10h13.07.550,Reversal,2023.1.3,60.184948342745514,4,
12,exp1.png,exp2.png,,0,0,0,0,0,12,12,12,,,,,,,,,,,,,,,,,,,,,,,,,False,12,13,True,exp2.png,exp1.png,trial_left_image,1,exp2.png,4,exp2.png,exp1.png,1,1,non-reversed,correct,0.5044329738777246,1,valid_win,93.53351520000433,9,,,,,,,,,,,,,,,,,,sub_736,2024-06-24_10h13.07.550,Reversal,2023.1.3,60.184948342745514,4,
13,exp3.png,exp4.png,,0,0,0,0,0,13,13,13,,,,,,,,,,,,,,,,,,,,,,,,,False,13,14,True,exp4.png,exp3.png,trial_left_image,1,exp4.png,4,exp4.png,exp3.png,1,3,reversed,correct,0.4320127551296784,1,valid_win,98.49870589999773,10,,,,,,,,,,,,,,,,,,sub_736,2024-06-24_10h13.07.550,Reversal,2023.1.3,60.184948342745514,4,
14,exp1.png,exp2.png,,0,0,0,0,0,14,14,14,,,,,,,,,,,,,,,,,,,,,,,,,False,14,15,False,exp1.png,exp2.png,trial_right_image,-1,exp2.png,4,exp2.png,exp1.png,1,1,non-reversed,correct,0.8447162744110285,1,valid_win,103.61367720000271,11,,,,,,,,,,,,,,,,,,sub_736,2024-06-24_10h13.07.550,Reversal,2023.1.3,60.184948342745514,4,
15,exp3.png,exp4.png,,0,0,0,0,0,15,15,15,,,,,,,,,,,,,,,,,,,,,,,,,False,15,16,False,exp3.png,exp4.png,trial_right_image,-1,exp4.png,4,exp4.png,exp3.png,1,3,reversed,correct,0.41488396321650056,1,valid_win,108.36179200001061,12,,,,,,,,,,,,,,,,,,sub_736,2024-06-24_10h13.07.550,Reversal,2023.1.3,60.184948342745514,4,
16,exp1.png,exp2.png,,0,0,0,0,0,16,16,16,,,,,,,,,,,,,,,,,,,,,,,,,False,16,17,True,exp2.png,exp1.png,trial_left_image,1,exp2.png,4,exp2.png,exp1.png,1,1,non-reversed,correct,0.33361773115684423,1,valid_win,115.64745020000555,13,,,,,,,,,,,,,,,,,,sub_736,2024-06-24_10h13.07.550,Reversal,2023.1.3,60.184948342745514,4,
17,exp3.png,exp4.png,,0,0,0,0,0,17,17,17,,,,,,,,,,,,,,,,,,,,,,,,,False,17,18,True,exp4.png,exp3.png,trial_left_image,1,exp4.png,4,exp4.png,exp3.png,1,3,reversed,correct,0.20798914353108233,0,invalid_lose,121.77409210000769,13,,,,,,,,,,,,,,,,,,sub_736,2024-06-24_10h13.07.550,Reversal,2023.1.3,60.184948342745514,4,
18,exp1.png,exp2.png,,0,0,0,0,0,18,18,18,,,,,,,,,,,,,,,,,,,,,,,,,False,18,19,True,exp2.png,exp1.png,trial_left_image,1,exp2.png,4,exp2.png,exp1.png,1,1,non-reversed,correct,0.19288320898920663,0,invalid_lose,126.98157170000195,13,,,,,,,,,,,,,,,,,,sub_736,2024-06-24_10h13.07.550,Reversal,2023.1.3,60.184948342745514,4,
19,exp3.png,exp4.png,,0,0,0,0,0,19,19,19,,,,,,,,,,,,,,,,,,,,,,,,,False,19,20,True,exp4.png,exp3.png,trial_left_image,1,exp4.png,4,exp4.png,exp3.png,1,3,reversed,correct,0.6500025494143804,1,valid_win,131.87113520001003,14,,,,,,,,,,,,,,,,,,sub_736,2024-06-24_10h13.07.550,Reversal,2023.1.3,60.184948342745514,4,
20,exp1.png,exp2.png,,0,0,0,0,0,20,20,20,,,,,,,,,,,,,,,,,,,,,,,,,True,,,,,,,,,,,,,,,,,,,,,,,,,,,,,,,,,,,,,,sub_736,2024-06-24_10h13.07.550,Reversal,2023.1.3,60.184948342745514,4,
,,,exp1.png,0,0,0,0,,,,,0,0,0,0,0,0,0,0,,,,,,,,,,,,,,,,,,,,,,,,,,,,,,,,,,,,,,247.41855940000096,100.0,100.0,8.819510600005742,"[(100.0, 8.819510600005742)]",,,,,,,,,,,,,sub_736,2024-06-24_10h13.07.550,Reversal,2023.1.3,60.184948342745514,4,
,,,exp2.png,0,0,0,0,,,,,0,0,0,0,0,1,1,1,,,,,,,,,,,,,,,,,,,,,,,,,,,,,,,,,,,,,,259.0870001000003,,100.0,4.607818300006329,"[(100.0, 4.607818300006329)]",100.0,,,,,,,,,,,,sub_736,2024-06-24_10h13.07.550,Reversal,2023.1.3,60.184948342745514,4,
,,,exp3.png,0,0,0,0,,,,,0,0,0,0,0,2,2,2,,,,,,,,,,,,,,,,,,,,,,,,,,,,,,,,,,,,,,264.6337613000069,,None,None,[],,,,,,,,,,,,,sub_736,2024-06-24_10h13.07.550,Reversal,2023.1.3,60.184948342745514,4,
,,,exp4.png,0,0,0,0,,,,,0,0,0,0,0,3,3,3,,,,,,,,,,,,,,,,,,,,,,,,,,,,,,,,,,,,,,265.09682040000916,,100.0,3.060275800002273,"[(100.0, 3.060275800002273)]",,100.0,,,,,,,,,,,sub_736,2024-06-24_10h13.07.550,Reversal,2023.1.3,60.184948342745514,4,
0,exp1.png,exp2.png,,1,0,1,0,0,0,0,0,,,,,,,,,,,,,,,,,,,,,,,,,False,20,21,False,exp1.png,exp2.png,trial_right_image,-1,exp2.png,4,exp2.png,exp1.png,1,1,non-reversed,correct,0.4274245052516099,1,valid_win,160.44420360001095,15,,,,,,,,,,,,,,,,,,sub_736,2024-06-24_10h13.07.550,Reversal,2023.1.3,60.184948342745514,4,
1,exp3.png,exp4.png,,1,0,1,0,0,1,1,1,,,,,,,,,,,,,,,,,,,,,,,,,False,21,22,True,exp4.png,exp3.png,trial_left_image,1,exp4.png,4,exp4.png,exp3.png,1,3,reversed,correct,0.5231342568967776,1,valid_win,165.17977180000162,16,,,,,,,,,,,,,,,,,,sub_736,2024-06-24_10h13.07.550,Reversal,2023.1.3,60.184948342745514,4,
2,exp1.png,exp2.png,,1,0,1,0,0,2,2,2,,,,,,,,,,,,,,,,,,,,,,,,,False,22,23,False,exp1.png,exp2.png,trial_right_image,-1,exp2.png,4,exp2.png,exp1.png,1,1,non-reversed,correct,0.8608461931441843,1,valid_win,169.5600962000026,17,,,,,,,,,,,,,,,,,,sub_736,2024-06-24_10h13.07.550,Reversal,2023.1.3,60.184948342745514,4,
3,exp3.png,exp4.png,,1,0,1,0,0,3,3,3,,,,,,,,,,,,,,,,,,,,,,,,,False,23,24,False,exp3.png,exp4.png,trial_right_image,-1,exp4.png,4,exp4.png,exp3.png,1,3,reversed,correct,0.4003760390264661,1,valid_win,174.27263340000354,18,,,,,,,,,,,,,,,,,,sub_736,2024-06-24_10h13.07.550,Reversal,2023.1.3,60.184948342745514,4,
4,exp1.png,exp2.png,,1,0,1,0,0,4,4,4,,,,,,,,,,,,,,,,,,,,,,,,,False,24,25,True,exp2.png,exp1.png,trial_left_image,1,exp2.png,4,exp2.png,exp1.png,1,1,non-reversed,correct,0.41338094652696156,1,valid_win,179.05468620000465,19,,,,,,,,,,,,,,,,,,sub_736,2024-06-24_10h13.07.550,Reversal,2023.1.3,60.184948342745514,4,
5,exp3.png,exp4.png,,1,0,1,0,0,5,5,5,,,,,,,,,,,,,,,,,,,,,,,,,False,25,26,True,exp4.png,exp3.png,trial_left_image,1,exp4.png,4,exp4.png,exp3.png,1,3,reversed,correct,0.6281083390769833,1,valid_win,185.03577220000443,20,,,,,,,,,,,,,,,,,,sub_736,2024-06-24_10h13.07.550,Reversal,2023.1.3,60.184948342745514,4,
6,exp1.png,exp2.png,,1,0,1,0,0,6,6,6,,,,,,,,,,,,,,,,,,,,,,,,,False,26,27,True,exp2.png,exp1.png,trial_left_image,1,exp2.png,4,exp2.png,exp1.png,1,1,non-reversed,correct,0.5198037517970951,1,valid_win,189.46807940000144,21,,,,,,,,,,,,,,,,,,sub_736,2024-06-24_10h13.07.550,Reversal,2023.1.3,60.184948342745514,4,
7,exp3.png,exp4.png,,1,0,1,0,0,7,7,7,,,,,,,,,,,,,,,,,,,,,,,,,False,27,28,False,exp3.png,exp4.png,trial_right_image,-1,exp4.png,4,exp4.png,exp3.png,1,3,reversed,correct,0.499487051967357,1,valid_win,194.9162684000039,22,,,,,,,,,,,,,,,,,,sub_736,2024-06-24_10h13.07.550,Reversal,2023.1.3,60.184948342745514,4,
8,exp1.png,exp2.png,,1,0,1,0,0,8,8,8,,,,,,,,,,,,,,,,,,,,,,,,,False,28,29,True,exp2.png,exp1.png,trial_left_image,1,exp2.png,4,exp2.png,exp1.png,1,1,non-reversed,correct,0.3595057629876872,1,valid_win,199.99805480000214,23,,,,,,,,,,,,,,,,,,sub_736,2024-06-24_10h13.07.550,Reversal,2023.1.3,60.184948342745514,4,
9,exp3.png,exp4.png,,1,0,1,0,0,9,9,9,,,,,,,,,,,,,,,,,,,,,,,,,False,29,30,False,exp3.png,exp4.png,trial_right_image,-1,exp4.png,4,exp4.png,exp3.png,1,3,reversed,correct,0.6733173330375076,1,valid_win,204.7794475999981,24,,,,,,,,,,,,,,,,,,sub_736,2024-06-24_10h13.07.550,Reversal,2023.1.3,60.184948342745514,4,
10,exp1.png,exp2.png,,1,0,1,0,0,10,10,10,,,,,,,,,,,,,,,,,,,,,,,,,False,30,31,True,exp2.png,exp1.png,trial_left_image,1,exp2.png,4,exp2.png,exp1.png,1,1,non-reversed,correct,0.8599802824105818,1,valid_win,210.02759500000684,25,,,,,,,,,,,,,,,,,,sub_736,2024-06-24_10h13.07.550,Reversal,2023.1.3,60.184948342745514,4,
11,exp3.png,exp4.png,,1,0,1,0,0,11,11,11,,,,,,,,,,,,,,,,,,,,,,,,,False,31,32,True,exp4.png,exp3.png,trial_left_image,1,exp4.png,4,exp4.png,exp3.png,1,3,reversed,correct,0.9353221188385363,1,valid_win,227.86043830000563,26,,,,,,,,,,,,,,,,,,sub_736,2024-06-24_10h13.07.550,Reversal,2023.1.3,60.184948342745514,4,
12,exp1.png,exp2.png,,1,0,1,0,0,12,12,12,,,,,,,,,,,,,,,,,,,,,,,,,False,32,33,True,exp2.png,exp1.png,trial_left_image,1,exp2.png,4,exp2.png,exp1.png,1,1,non-reversed,correct,0.5518559711944496,1,valid_win,234.18568490000325,27,,,,,,,,,,,,,,,,,,sub_736,2024-06-24_10h13.07.550,Reversal,2023.1.3,60.184948342745514,4,
13,exp3.png,exp4.png,,1,0,1,0,0,13,13,13,,,,,,,,,,,,,,,,,,,,,,,,,False,33,34,False,exp3.png,exp4.png,trial_right_image,-1,exp4.png,4,exp4.png,exp3.png,1,3,reversed,correct,0.9123002724043139,1,valid_win,239.51765239999804,28,,,,,,,,,,,,,,,,,,sub_736,2024-06-24_10h13.07.550,Reversal,2023.1.3,60.184948342745514,4,
14,exp1.png,exp2.png,,1,0,1,0,0,14,14,14,,,,,,,,,,,,,,,,,,,,,,,,,False,34,35,True,exp2.png,exp1.png,trial_left_image,1,exp2.png,4,exp2.png,exp1.png,1,1,non-reversed,correct,0.14467505058539099,0,invalid_lose,244.7991245000012,28,,,,,,,,,,,,,,,,,,sub_736,2024-06-24_10h13.07.550,Reversal,2023.1.3,60.184948342745514,4,
15,exp3.png,exp4.png,,1,0,1,0,0,15,15,15,,,,,,,,,,,,,,,,,,,,,,,,,False,35,36,False,exp3.png,exp4.png,trial_right_image,-1,exp4.png,4,exp4.png,exp3.png,1,3,reversed,correct,0.6776328180025161,1,valid_win,250.1647762000066,29,,,,,,,,,,,,,,,,,,sub_736,2024-06-24_10h13.07.550,Reversal,2023.1.3,60.184948342745514,4,
16,exp1.png,exp2.png,,1,0,1,0,0,16,16,16,,,,,,,,,,,,,,,,,,,,,,,,,False,36,37,False,exp1.png,exp2.png,trial_right_image,-1,exp2.png,4,exp2.png,exp1.png,1,1,non-reversed,correct,0.6987975495172171,1,valid_win,254.9620608999976,30,,,,,,,,,,,,,,,,,,sub_736,2024-06-24_10h13.07.550,Reversal,2023.1.3,60.184948342745514,4,
17,exp3.png,exp4.png,,1,0,1,0,0,17,17,17,,,,,,,,,,,,,,,,,,,,,,,,,False,37,38,False,exp3.png,exp4.png,trial_right_image,-1,exp4.png,4,exp4.png,exp3.png,1,3,reversed,correct,0.03596832788481774,0,invalid_lose,259.360632099997,30,,,,,,,,,,,,,,,,,,sub_736,2024-06-24_10h13.07.550,Reversal,2023.1.3,60.184948342745514,4,
18,exp1.png,exp2.png,,1,0,1,0,0,18,18,18,,,,,,,,,,,,,,,,,,,,,,,,,False,38,39,True,exp2.png,exp1.png,trial_left_image,1,exp2.png,4,exp2.png,exp1.png,1,1,non-reversed,correct,0.5077698746872389,1,valid_win,263.9922080000106,31,,,,,,,,,,,,,,,,,,sub_736,2024-06-24_10h13.07.550,Reversal,2023.1.3,60.184948342745514,4,
19,exp3.png,exp4.png,,1,0,1,0,0,19,19,19,,,,,,,,,,,,,,,,,,,,,,,,,False,39,40,False,exp3.png,exp4.png,trial_right_image,-1,exp4.png,4,exp4.png,exp3.png,1,3,reversed,correct,0.6914048068691392,1,valid_win,269.07427850000386,32,,,,,,,,,,,,,,,,,,sub_736,2024-06-24_10h13.07.550,Reversal,2023.1.3,60.184948342745514,4,
20,exp1.png,exp2.png,,1,0,1,0,0,20,20,20,,,,,,,,,,,,,,,,,,,,,,,,,True,,,,,,,,,,,,,,,,,,,,,,,,,,,,,,,,,,,,,,sub_736,2024-06-24_10h13.07.550,Reversal,2023.1.3,60.184948342745514,4,
,,,exp1.png,1,0,1,0,,,,,0,0,0,0,0,0,0,0,,,,,,,,,,,,,,,,,,,,,,,,,,,,,,,,,,,,,,384.56874240000616,1.0,1.0,4.3680354000098305,"[(1.0, 4.3680354000098305)]",,,,,,,,,,,,,sub_736,2024-06-24_10h13.07.550,Reversal,2023.1.3,60.184948342745514,4,
,,,exp2.png,1,0,1,0,,,,,0,0,0,0,0,1,1,1,,,,,,,,,,,,,,,,,,,,,,,,,,,,,,,,,,,,,,391.30817340000067,,100.0,1.675369500007946,"[(100.0, 1.675369500007946)]",100.0,,,,,,,,,,,,sub_736,2024-06-24_10h13.07.550,Reversal,2023.1.3,60.184948342745514,4,
,,,exp3.png,1,0,1,0,,,,,0,0,0,0,0,2,2,2,,,,,,,,,,,,,,,,,,,,,,,,,,,,,,,,,,,,,,394.1415438000113,,1.0,1.7610281000088435,"[(1.0, 1.7610281000088435)]",,,1.0,,,,,,,,,,sub_736,2024-06-24_10h13.07.550,Reversal,2023.1.3,60.184948342745514,4,
,,,exp4.png,1,0,1,0,,,,,0,0,0,0,0,3,3,3,,,,,,,,,,,,,,,,,,,,,,,,,,,,,,,,,,,,,,397.00287760001083,,100.0,2.076893799996469,"[(100.0, 2.076893799996469)]",,100.0,,,,,,,,,,,sub_736,2024-06-24_10h13.07.550,Reversal,2023.1.3,60.184948342745514,4,
0,exp1.png,exp2.png,,2,0,2,0,0,0,0,0,,,,,,,,,,,,,,,,,,,,,,,,,False,40,41,True,exp2.png,exp1.png,trial_left_image,1,exp2.png,4,exp2.png,exp1.png,1,1,non-reversed,correct,0.4467707858896962,1,valid_win,290.75233980000485,33,,,,,,,,,,,,,,,,,,sub_736,2024-06-24_10h13.07.550,Reversal,2023.1.3,60.184948342745514,4,
1,exp3.png,exp4.png,,2,0,2,0,0,1,1,1,,,,,,,,,,,,,,,,,,,,,,,,,False,41,42,True,exp4.png,exp3.png,trial_left_image,1,exp4.png,4,exp4.png,exp3.png,1,3,reversed,correct,0.4101561614674367,1,valid_win,300.3467887000006,34,,,,,,,,,,,,,,,,,,sub_736,2024-06-24_10h13.07.550,Reversal,2023.1.3,60.184948342745514,4,
2,exp1.png,exp2.png,,2,0,2,0,0,2,2,2,,,,,,,,,,,,,,,,,,,,,,,,,False,42,43,True,exp2.png,exp1.png,trial_left_image,1,exp2.png,4,exp2.png,exp1.png,1,1,non-reversed,correct,0.7553013707040286,1,valid_win,306.11147950000304,35,,,,,,,,,,,,,,,,,,sub_736,2024-06-24_10h13.07.550,Reversal,2023.1.3,60.184948342745514,4,
3,exp3.png,exp4.png,,2,0,2,0,0,3,3,3,,,,,,,,,,,,,,,,,,,,,,,,,False,43,44,False,exp3.png,exp4.png,trial_right_image,-1,exp4.png,4,exp4.png,exp3.png,1,3,reversed,correct,0.2753404390644034,1,valid_win,311.32891510000627,36,,,,,,,,,,,,,,,,,,sub_736,2024-06-24_10h13.07.550,Reversal,2023.1.3,60.184948342745514,4,
4,exp1.png,exp2.png,,2,0,2,0,0,4,4,4,,,,,,,,,,,,,,,,,,,,,,,,,False,44,45,False,exp1.png,exp2.png,trial_right_image,-1,exp2.png,4,exp2.png,exp1.png,1,1,non-reversed,correct,0.9435211593417353,1,valid_win,315.46169520000694,37,,,,,,,,,,,,,,,,,,sub_736,2024-06-24_10h13.07.550,Reversal,2023.1.3,60.184948342745514,4,
5,exp3.png,exp4.png,,2,0,2,0,0,5,5,5,,,,,,,,,,,,,,,,,,,,,,,,,False,45,46,False,exp3.png,exp4.png,trial_right_image,-1,exp4.png,4,exp4.png,exp3.png,1,3,reversed,correct,0.629464429899523,1,valid_win,320.05653359999997,38,,,,,,,,,,,,,,,,,,sub_736,2024-06-24_10h13.07.550,Reversal,2023.1.3,60.184948342745514,4,
6,exp1.png,exp2.png,,2,0,2,0,0,6,6,6,,,,,,,,,,,,,,,,,,,,,,,,,False,46,47,False,exp1.png,exp2.png,trial_right_image,-1,exp2.png,4,exp2.png,exp1.png,1,1,non-reversed,correct,0.06537976012902802,0,invalid_lose,324.6716611000011,38,,,,,,,,,,,,,,,,,,sub_736,2024-06-24_10h13.07.550,Reversal,2023.1.3,60.184948342745514,4,
7,exp3.png,exp4.png,,2,0,2,0,0,7,7,7,,,,,,,,,,,,,,,,,,,,,,,,,False,47,48,False,exp3.png,exp4.png,trial_right_image,-1,exp4.png,4,exp4.png,exp3.png,1,3,reversed,correct,0.5495666073609782,1,valid_win,329.0701017000101,39,,,,,,,,,,,,,,,,,,sub_736,2024-06-24_10h13.07.550,Reversal,2023.1.3,60.184948342745514,4,
8,exp1.png,exp2.png,,2,0,2,0,0,8,8,8,,,,,,,,,,,,,,,,,,,,,,,,,False,48,49,False,exp1.png,exp2.png,trial_right_image,-1,exp2.png,4,exp2.png,exp1.png,1,1,non-reversed,correct,0.832704489978564,1,valid_win,333.5024265000102,40,,,,,,,,,,,,,,,,,,sub_736,2024-06-24_10h13.07.550,Reversal,2023.1.3,60.184948342745514,4,
9,exp3.png,exp4.png,,2,0,2,0,0,9,9,9,,,,,,,,,,,,,,,,,,,,,,,,,False,49,50,True,exp4.png,exp3.png,trial_left_image,1,exp4.png,4,exp4.png,exp3.png,1,3,reversed,correct,0.32556374615426575,1,valid_win,338.4841616000049,41,,,,,,,,,,,,,,,,,,sub_736,2024-06-24_10h13.07.550,Reversal,2023.1.3,60.184948342745514,4,
10,exp1.png,exp2.png,,2,0,2,0,0,10,10,10,,,,,,,,,,,,,,,,,,,,,,,,,False,50,51,False,exp1.png,exp2.png,trial_right_image,-1,exp2.png,4,exp2.png,exp1.png,1,1,non-reversed,correct,0.9563631826963617,1,valid_win,344.04858600000443,42,,,,,,,,,,,,,,,,,,sub_736,2024-06-24_10h13.07.550,Reversal,2023.1.3,60.184948342745514,4,
11,exp3.png,exp4.png,,2,0,2,0,0,11,11,11,,,,,,,,,,,,,,,,,,,,,,,,,False,51,52,False,exp3.png,exp4.png,trial_right_image,-1,exp4.png,4,exp4.png,exp3.png,1,3,reversed,correct,0.09544211634940636,0,invalid_lose,349.652448000008,42,,,,,,,,,,,,,,,,,,sub_736,2024-06-24_10h13.07.550,Reversal,2023.1.3,60.184948342745514,4,
12,exp1.png,exp2.png,,2,0,2,0,0,12,12,12,,,,,,,,,,,,,,,,,,,,,,,,,False,52,53,False,exp1.png,exp2.png,trial_right_image,-1,exp2.png,4,exp2.png,exp1.png,1,1,non-reversed,correct,0.5270166358180057,1,valid_win,354.5617542999971,43,,,,,,,,,,,,,,,,,,sub_736,2024-06-24_10h13.07.550,Reversal,2023.1.3,60.184948342745514,4,
13,exp3.png,exp4.png,,2,0,2,0,0,13,13,13,,,,,,,,,,,,,,,,,,,,,,,,,False,53,54,True,exp4.png,exp3.png,trial_left_image,1,exp4.png,4,exp4.png,exp3.png,1,3,reversed,correct,0.5392747097447133,1,valid_win,359.22690259999945,44,,,,,,,,,,,,,,,,,,sub_736,2024-06-24_10h13.07.550,Reversal,2023.1.3,60.184948342745514,4,
14,exp1.png,exp2.png,,2,0,2,0,0,14,14,14,,,,,,,,,,,,,,,,,,,,,,,,,False,54,55,True,exp2.png,exp1.png,trial_left_image,1,exp2.png,4,exp2.png,exp1.png,1,1,non-reversed,correct,0.4855647964512544,1,valid_win,364.9588780000049,45,,,,,,,,,,,,,,,,,,sub_736,2024-06-24_10h13.07.550,Reversal,2023.1.3,60.184948342745514,4,
15,exp3.png,exp4.png,,2,0,2,0,0,15,15,15,,,,,,,,,,,,,,,,,,,,,,,,,False,55,56,True,exp4.png,exp3.png,trial_left_image,1,exp4.png,4,exp4.png,exp3.png,1,3,reversed,correct,0.7974318879104072,1,valid_win,370.18989750000765,46,,,,,,,,,,,,,,,,,,sub_736,2024-06-24_10h13.07.550,Reversal,2023.1.3,60.184948342745514,4,
16,exp1.png,exp2.png,,2,0,2,0,0,16,16,16,,,,,,,,,,,,,,,,,,,,,,,,,False,56,57,True,exp2.png,exp1.png,trial_left_image,1,exp2.png,4,exp2.png,exp1.png,1,1,non-reversed,correct,0.9270801544471629,1,valid_win,375.9383577999979,47,,,,,,,,,,,,,,,,,,sub_736,2024-06-24_10h13.07.550,Reversal,2023.1.3,60.184948342745514,4,
17,exp3.png,exp4.png,,2,0,2,0,0,17,17,17,,,,,,,,,,,,,,,,,,,,,,,,,False,57,58,False,exp3.png,exp4.png,trial_right_image,-1,exp4.png,4,exp4.png,exp3.png,1,3,reversed,correct,0.31435312525499026,1,valid_win,381.1724435000069,48,,,,,,,,,,,,,,,,,,sub_736,2024-06-24_10h13.07.550,Reversal,2023.1.3,60.184948342745514,4,
18,exp1.png,exp2.png,,2,0,2,0,0,18,18,18,,,,,,,,,,,,,,,,,,,,,,,,,False,58,59,True,exp2.png,exp1.png,trial_left_image,1,exp2.png,4,exp2.png,exp1.png,1,1,non-reversed,correct,0.10638838137105933,0,invalid_lose,385.74980080001114,48,,,,,,,,,,,,,,,,,,sub_736,2024-06-24_10h13.07.550,Reversal,2023.1.3,60.184948342745514,4,
19,exp3.png,exp4.png,,2,0,2,0,0,19,19,19,,,,,,,,,,,,,,,,,,,,,,,,,False,59,60,True,exp4.png,exp3.png,trial_left_image,1,exp4.png,4,exp4.png,exp3.png,1,3,reversed,correct,0.4764494900408114,1,valid_win,390.3168788000039,49,,,,,,,,,,,,,,,,,,sub_736,2024-06-24_10h13.07.550,Reversal,2023.1.3,60.184948342745514,4,
20,exp1.png,exp2.png,,2,0,2,0,0,20,20,20,,,,,,,,,,,,,,,,,,,,,,,,,True,,,,,,,,,,,,,,,,,,,,,,,,,,,,,,,,,,,,,,sub_736,2024-06-24_10h13.07.550,Reversal,2023.1.3,60.184948342745514,4,
,,,exp1.png,2,0,2,0,,,,,0,0,0,0,0,0,0,0,,,,,,,,,,,,,,,,,,,,,,,,,,,,,,,,,,,,,,505.8188361000066,100.0,100.0,3.694475100011914,"[(100.0, 3.694475100011914)]",,,,,,,,,,,,,sub_736,2024-06-24_10h13.07.550,Reversal,2023.1.3,60.184948342745514,4,
,,,exp2.png,2,0,2,0,,,,,0,0,0,0,0,1,1,1,,,,,,,,,,,,,,,,,,,,,,,,,,,,,,,,,,,,,,510.3198832000053,,None,None,[],,,,,,,,,,,,,sub_736,2024-06-24_10h13.07.550,Reversal,2023.1.3,60.184948342745514,4,
,,,exp3.png,2,0,2,0,,,,,0,0,0,0,0,2,2,2,,,,,,,,,,,,,,,,,,,,,,,,,,,,,,,,,,,,,,512.6537403999973,,1.0,3.623405599995749,"[(100.0, 0.11000950000016019), (1.0, 3.623405599995749)]",,,1.0,,,,,,,,,,sub_736,2024-06-24_10h13.07.550,Reversal,2023.1.3,60.184948342745514,4,
,,,exp4.png,2,0,2,0,,,,,0,0,0,0,0,3,3,3,,,,,,,,,,,,,,,,,,,,,,,,,,,,,,,,,,,,,,517.0354894000047,,None,None,[],,,,,,,,,,,,,sub_736,2024-06-24_10h13.07.550,Reversal,2023.1.3,60.184948342745514,4,
0,exp1.png,exp2.png,,,,,,,,,,,,,,,,,,0,0,0,0,0,0,0,0,,,,,,,,,False,0,61,False,exp1.png,exp2.png,trial_right_image,-1,exp2.png,4,exp2.png,exp1.png,1,1,non-reversed,correct,0.10860041185197311,0,invalid_lose,407.71066399999836,49,,,,,,,,,404.5702816999983,,,,,,,,,sub_736,2024-06-24_10h13.07.550,Reversal,2023.1.3,60.184948342745514,4,
1,exp3.png,exp4.png,,,,,,,,,,,,,,,,,,0,0,0,0,0,1,1,1,,,,,,,,,False,1,62,False,exp3.png,exp4.png,trial_right_image,-1,exp4.png,4,exp3.png,exp4.png,1,3,reversed,incorrect,0.25467275045000537,0,valid_lose,412.42573780000384,49,,,,,,,,,,,,,,,,,,sub_736,2024-06-24_10h13.07.550,Reversal,2023.1.3,60.184948342745514,4,
2,exp1.png,exp2.png,,,,,,,,,,,,,,,,,,0,0,0,0,0,2,2,2,,,,,,,,,False,2,63,False,exp1.png,exp2.png,trial_left_image,1,exp1.png,4,exp2.png,exp1.png,0,2,non-reversed,incorrect,0.8030034465390534,0,valid_lose,417.1571600000025,49,,,,,,,,,,,,,,,,,,sub_736,2024-06-24_10h13.07.550,Reversal,2023.1.3,60.184948342745514,4,
3,exp3.png,exp4.png,,,,,,,,,,,,,,,,,,0,0,0,0,0,3,3,3,,,,,,,,,False,3,64,True,exp4.png,exp3.png,trial_left_image,1,exp4.png,4,exp3.png,exp4.png,1,3,reversed,incorrect,0.5416591489790054,0,valid_lose,421.95587309999974,49,,,,,,,,,,,,,,,,,,sub_736,2024-06-24_10h13.07.550,Reversal,2023.1.3,60.184948342745514,4,
4,exp1.png,exp2.png,,,,,,,,,,,,,,,,,,0,0,0,0,0,4,4,4,,,,,,,,,False,4,65,False,exp1.png,exp2.png,trial_right_image,-1,exp2.png,4,exp2.png,exp1.png,1,1,non-reversed,correct,0.806869958709153,1,valid_win,426.20686570000544,50,,,,,,,,,,,,,,,,,,sub_736,2024-06-24_10h13.07.550,Reversal,2023.1.3,60.184948342745514,4,
5,exp3.png,exp4.png,,,,,,,,,,,,,,,,,,0,0,0,0,0,5,5,5,,,,,,,,,False,5,66,True,exp4.png,exp3.png,trial_left_image,1,exp4.png,4,exp3.png,exp4.png,1,3,reversed,incorrect,0.33855099994311366,0,valid_lose,430.83584880000853,50,,,,,,,,,,,,,,,,,,sub_736,2024-06-24_10h13.07.550,Reversal,2023.1.3,60.184948342745514,4,
6,exp1.png,exp2.png,,,,,,,,,,,,,,,,,,0,0,0,0,0,6,6,6,,,,,,,,,False,6,67,True,exp2.png,exp1.png,trial_left_image,1,exp2.png,4,exp2.png,exp1.png,1,1,non-reversed,correct,0.4856136094616994,1,valid_win,435.43321540000034,51,,,,,,,,,,,,,,,,,,sub_736,2024-06-24_10h13.07.550,Reversal,2023.1.3,60.184948342745514,4,
7,exp3.png,exp4.png,,,,,,,,,,,,,,,,,,0,0,0,0,0,7,7,7,,,,,,,,,False,7,68,True,exp4.png,exp3.png,trial_right_image,-1,exp3.png,4,exp3.png,exp4.png,0,4,reversed,correct,0.06763317229901744,0,invalid_lose,440.16645889999927,51,,,,,,,,,,,,,,,,,,sub_736,2024-06-24_10h13.07.550,Reversal,2023.1.3,60.184948342745514,4,
8,exp1.png,exp2.png,,,,,,,,,,,,,,,,,,0,0,0,0,0,8,8,8,,,,,,,,,False,8,69,False,exp1.png,exp2.png,trial_right_image,-1,exp2.png,4,exp2.png,exp1.png,1,1,non-reversed,correct,0.47871718319977596,1,valid_win,445.2642756999994,52,,,,,,,,,,,,,,,,,,sub_736,2024-06-24_10h13.07.550,Reversal,2023.1.3,60.184948342745514,4,
9,exp3.png,exp4.png,,,,,,,,,,,,,,,,,,0,0,0,0,0,9,9,9,,,,,,,,,False,9,70,False,exp3.png,exp4.png,trial_right_image,-1,exp4.png,4,exp3.png,exp4.png,1,3,reversed,incorrect,0.6000668773080998,0,valid_lose,449.76296100000036,52,,,,,,,,,,,,,,,,,,sub_736,2024-06-24_10h13.07.550,Reversal,2023.1.3,60.184948342745514,4,
10,exp1.png,exp2.png,,,,,,,,,,,,,,,,,,0,0,0,0,0,10,10,10,,,,,,,,,False,10,71,True,exp2.png,exp1.png,trial_left_image,1,exp2.png,4,exp2.png,exp1.png,1,1,non-reversed,correct,0.32126294123397725,1,valid_win,455.17763740000373,53,,,,,,,,,,,,,,,,,,sub_736,2024-06-24_10h13.07.550,Reversal,2023.1.3,60.184948342745514,4,
11,exp3.png,exp4.png,,,,,,,,,,,,,,,,,,0,0,0,0,0,11,11,11,,,,,,,,,False,11,72,False,exp3.png,exp4.png,trial_left_image,1,exp3.png,4,exp3.png,exp4.png,0,4,reversed,correct,0.1943382745000567,0,invalid_lose,461.05888940001023,53,,,,,,,,,,,,,,,,,,sub_736,2024-06-24_10h13.07.550,Reversal,2023.1.3,60.184948342745514,4,
12,exp1.png,exp2.png,,,,,,,,,,,,,,,,,,0,0,0,0,0,12,12,12,,,,,,,,,False,12,73,True,exp2.png,exp1.png,trial_left_image,1,exp2.png,4,exp2.png,exp1.png,1,1,non-reversed,correct,0.8647816003565327,1,valid_win,467.5397716000007,54,,,,,,,,,,,,,,,,,,sub_736,2024-06-24_10h13.07.550,Reversal,2023.1.3,60.184948342745514,4,
13,exp3.png,exp4.png,,,,,,,,,,,,,,,,,,0,0,0,0,0,13,13,13,,,,,,,,,False,13,74,False,exp3.png,exp4.png,trial_right_image,-1,exp4.png,4,exp3.png,exp4.png,1,3,reversed,incorrect,0.22355712612367284,1,invalid_win,472.15515069999674,55,,,,,,,,,,,,,,,,,,sub_736,2024-06-24_10h13.07.550,Reversal,2023.1.3,60.184948342745514,4,
14,exp1.png,exp2.png,,,,,,,,,,,,,,,,,,0,0,0,0,0,14,14,14,,,,,,,,,False,14,75,False,exp1.png,exp2.png,trial_right_image,-1,exp2.png,4,exp2.png,exp1.png,1,1,non-reversed,correct,0.10787131814900996,0,invalid_lose,477.10415510000894,55,,,,,,,,,,,,,,,,,,sub_736,2024-06-24_10h13.07.550,Reversal,2023.1.3,60.184948342745514,4,
15,exp3.png,exp4.png,,,,,,,,,,,,,,,,,,0,0,0,0,0,15,15,15,,,,,,,,,False,15,76,True,exp4.png,exp3.png,trial_left_image,1,exp4.png,4,exp3.png,exp4.png,1,3,reversed,incorrect,0.7190857920112211,0,valid_lose,482.31819109999924,55,,,,,,,,,,,,,,,,,,sub_736,2024-06-24_10h13.07.550,Reversal,2023.1.3,60.184948342745514,4,
16,exp1.png,exp2.png,,,,,,,,,,,,,,,,,,0,0,0,0,0,16,16,16,,,,,,,,,False,16,77,True,exp2.png,exp1.png,trial_left_image,1,exp2.png,4,exp2.png,exp1.png,1,1,non-reversed,correct,0.1538799470026515,0,invalid_lose,487.9166136999993,55,,,,,,,,,,,,,,,,,,sub_736,2024-06-24_10h13.07.550,Reversal,2023.1.3,60.184948342745514,4,
17,exp3.png,exp4.png,,,,,,,,,,,,,,,,,,0,0,0,0,0,17,17,17,,,,,,,,,False,17,78,True,exp4.png,exp3.png,trial_right_image,-1,exp3.png,4,exp3.png,exp4.png,0,4,reversed,correct,0.9002331060563947,1,valid_win,492.4483565999981,56,,,,,,,,,,,,,,,,,,sub_736,2024-06-24_10h13.07.550,Reversal,2023.1.3,60.184948342745514,4,
18,exp1.png,exp2.png,,,,,,,,,,,,,,,,,,0,0,0,0,0,18,18,18,,,,,,,,,False,18,79,False,exp1.png,exp2.png,trial_left_image,1,exp1.png,4,exp2.png,exp1.png,0,2,non-reversed,incorrect,0.7730950491606707,0,valid_lose,497.1133525000041,56,,,,,,,,,,,,,,,,,,sub_736,2024-06-24_10h13.07.550,Reversal,2023.1.3,60.184948342745514,4,
19,exp3.png,exp4.png,,,,,,,,,,,,,,,,,,0,0,0,0,0,19,19,19,,,,,,,,,False,19,80,True,exp4.png,exp3.png,trial_left_image,1,exp4.png,4,exp3.png,exp4.png,1,3,reversed,incorrect,0.5038336228922963,0,valid_lose,502.19519389999914,56,,,,,,,,,,,,,,,,,,sub_736,2024-06-24_10h13.07.550,Reversal,2023.1.3,60.184948342745514,4,
20,exp1.png,exp2.png,,,,,,,,,,,,,,,,,,0,0,0,0,0,20,20,20,,,,,,,,,True,,,,,,,,,,,,,,,,,,,,,,,,,,,,,,,,,,,,,,sub_736,2024-06-24_10h13.07.550,Reversal,2023.1.3,60.184948342745514,4,
,,,exp1.png,,,,,,,,,,,,,,,,,0,0,0,0,,,,,0,0,0,0,0,0,0,0,,,,,,,,,,,,,,,,,,,,,,617.6944386000105,1.0,1.0,2.54629689999274,"[(1.0, 2.54629689999274)]",,,,,,,,,,,,,sub_736,2024-06-24_10h13.07.550,Reversal,2023.1.3,60.184948342745514,4,
,,,exp2.png,,,,,,,,,,,,,,,,,0,0,0,0,,,,,0,0,0,0,0,1,1,1,,,,,,,,,,,,,,,,,,,,,,621.5327634999994,,100.0,1.4593402000027709,"[(100.0, 1.4593402000027709)]",100.0,,,,,,,,,,,,sub_736,2024-06-24_10h13.07.550,Reversal,2023.1.3,60.184948342745514,4,
,,,exp3.png,,,,,,,,,,,,,,,,,0,0,0,0,,,,,0,0,0,0,0,2,2,2,,,,,,,,,,,,,,,,,,,,,,624.0933081000112,,100.0,2.2949947000015527,"[(100.0, 2.2949947000015527)]",,,100.0,,,,,,,,,,sub_736,2024-06-24_10h13.07.550,Reversal,2023.1.3,60.184948342745514,4,
,,,exp4.png,,,,,,,,,,,,,,,,,0,0,0,0,,,,,0,0,0,0,0,3,3,3,,,,,,,,,,,,,,,,,,,,,,627.5100426999998,,100.0,2.0930924999993294,"[(100.0, 2.0930924999993294)]",,100.0,,,,,,,,,,,sub_736,2024-06-24_10h13.07.550,Reversal,2023.1.3,60.184948342745514,4,
0,exp1.png,exp2.png,,,,,,,,,,,,,,,,,,1,0,1,0,0,0,0,0,,,,,,,,,False,20,81,True,exp2.png,exp1.png,trial_left_image,1,exp2.png,4,exp2.png,exp1.png,1,1,non-reversed,correct,0.4843377127683218,1,valid_win,521.0557946000044,57,,,,,,,,,,,,,,,,,,sub_736,2024-06-24_10h13.07.550,Reversal,2023.1.3,60.184948342745514,4,
1,exp3.png,exp4.png,,,,,,,,,,,,,,,,,,1,0,1,0,0,1,1,1,,,,,,,,,False,21,82,False,exp3.png,exp4.png,trial_right_image,-1,exp4.png,4,exp3.png,exp4.png,1,3,reversed,incorrect,0.8740827102657585,0,valid_lose,525.1589563000016,57,,,,,,,,,,,,,,,,,,sub_736,2024-06-24_10h13.07.550,Reversal,2023.1.3,60.184948342745514,4,
2,exp1.png,exp2.png,,,,,,,,,,,,,,,,,,1,0,1,0,0,2,2,2,,,,,,,,,False,22,83,False,exp1.png,exp2.png,trial_right_image,-1,exp2.png,4,exp2.png,exp1.png,1,1,non-reversed,correct,0.25557352552011314,1,valid_win,530.218710000001,58,,,,,,,,,,,,,,,,,,sub_736,2024-06-24_10h13.07.550,Reversal,2023.1.3,60.184948342745514,4,
3,exp3.png,exp4.png,,,,,,,,,,,,,,,,,,1,0,1,0,0,3,3,3,,,,,,,,,False,23,84,False,exp3.png,exp4.png,trial_left_image,1,exp3.png,4,exp3.png,exp4.png,0,4,reversed,correct,0.9274843381472724,1,valid_win,535.4502292000107,59,,,,,,,,,,,,,,,,,,sub_736,2024-06-24_10h13.07.550,Reversal,2023.1.3,60.184948342745514,4,
4,exp1.png,exp2.png,,,,,,,,,,,,,,,,,,1,0,1,0,0,4,4,4,,,,,,,,,False,24,85,True,exp2.png,exp1.png,trial_left_image,1,exp2.png,4,exp2.png,exp1.png,1,1,non-reversed,correct,0.5856641454811911,1,valid_win,539.8574737000017,60,,,,,,,,,,,,,,,,,,sub_736,2024-06-24_10h13.07.550,Reversal,2023.1.3,60.184948342745514,4,
5,exp3.png,exp4.png,,,,,,,,,,,,,,,,,,1,0,1,0,0,5,5,5,,,,,,,,,False,25,86,False,exp3.png,exp4.png,trial_right_image,-1,exp4.png,4,exp3.png,exp4.png,1,3,reversed,incorrect,0.8880476145550422,0,valid_lose,544.5324586000061,60,,,,,,,,,,,,,,,,,,sub_736,2024-06-24_10h13.07.550,Reversal,2023.1.3,60.184948342745514,4,
6,exp1.png,exp2.png,,,,,,,,,,,,,,,,,,1,0,1,0,0,6,6,6,,,,,,,,,False,26,87,True,exp2.png,exp1.png,trial_left_image,1,exp2.png,4,exp2.png,exp1.png,1,1,non-reversed,correct,0.3635153861182461,1,valid_win,549.6960620000027,61,,,,,,,,,,,,,,,,,,sub_736,2024-06-24_10h13.07.550,Reversal,2023.1.3,60.184948342745514,4,
7,exp3.png,exp4.png,,,,,,,,,,,,,,,,,,1,0,1,0,0,7,7,7,,,,,,,,,False,27,88,False,exp3.png,exp4.png,trial_right_image,-1,exp4.png,4,exp3.png,exp4.png,1,3,reversed,incorrect,0.7282045877120017,0,valid_lose,553.9309745000064,61,,,,,,,,,,,,,,,,,,sub_736,2024-06-24_10h13.07.550,Reversal,2023.1.3,60.184948342745514,4,
8,exp1.png,exp2.png,,,,,,,,,,,,,,,,,,1,0,1,0,0,8,8,8,,,,,,,,,False,28,89,True,exp2.png,exp1.png,trial_left_image,1,exp2.png,4,exp2.png,exp1.png,1,1,non-reversed,correct,0.5282557485477245,1,valid_win,557.960745999997,62,,,,,,,,,,,,,,,,,,sub_736,2024-06-24_10h13.07.550,Reversal,2023.1.3,60.184948342745514,4,
9,exp3.png,exp4.png,,,,,,,,,,,,,,,,,,1,0,1,0,0,9,9,9,,,,,,,,,False,29,90,True,exp4.png,exp3.png,trial_left_image,1,exp4.png,4,exp3.png,exp4.png,1,3,reversed,incorrect,0.8962875269876741,0,valid_lose,562.4410173000069,62,,,,,,,,,,,,,,,,,,sub_736,2024-06-24_10h13.07.550,Reversal,2023.1.3,60.184948342745514,4,
10,exp1.png,exp2.png,,,,,,,,,,,,,,,,,,1,0,1,0,0,10,10,10,,,,,,,,,False,30,91,True,exp2.png,exp1.png,trial_left_image,1,exp2.png,4,exp2.png,exp1.png,1,1,non-reversed,correct,0.6667591533805272,1,valid_win,567.15626660001,63,,,,,,,,,,,,,,,,,,sub_736,2024-06-24_10h13.07.550,Reversal,2023.1.3,60.184948342745514,4,
11,exp3.png,exp4.png,,,,,,,,,,,,,,,,,,1,0,1,0,0,11,11,11,,,,,,,,,False,31,92,True,exp4.png,exp3.png,trial_left_image,1,exp4.png,4,exp3.png,exp4.png,1,3,reversed,incorrect,0.1117525564038988,1,invalid_win,571.1933252000017,64,,,,,,,,,,,,,,,,,,sub_736,2024-06-24_10h13.07.550,Reversal,2023.1.3,60.184948342745514,4,
12,exp1.png,exp2.png,,,,,,,,,,,,,,,,,,1,0,1,0,0,12,12,12,,,,,,,,,False,32,93,False,exp1.png,exp2.png,trial_right_image,-1,exp2.png,4,exp2.png,exp1.png,1,1,non-reversed,correct,0.7004255329223702,1,valid_win,575.7032312000083,65,,,,,,,,,,,,,,,,,,sub_736,2024-06-24_10h13.07.550,Reversal,2023.1.3,60.184948342745514,4,
13,exp3.png,exp4.png,,,,,,,,,,,,,,,,,,1,0,1,0,0,13,13,13,,,,,,,,,False,33,94,True,exp4.png,exp3.png,trial_left_image,1,exp4.png,4,exp3.png,exp4.png,1,3,reversed,incorrect,0.17146096516813636,1,invalid_win,579.901294700001,66,,,,,,,,,,,,,,,,,,sub_736,2024-06-24_10h13.07.550,Reversal,2023.1.3,60.184948342745514,4,
14,exp1.png,exp2.png,,,,,,,,,,,,,,,,,,1,0,1,0,0,14,14,14,,,,,,,,,False,34,95,False,exp1.png,exp2.png,trial_right_image,-1,exp2.png,4,exp2.png,exp1.png,1,1,non-reversed,correct,0.7160544271703411,1,valid_win,584.583838999999,67,,,,,,,,,,,,,,,,,,sub_736,2024-06-24_10h13.07.550,Reversal,2023.1.3,60.184948342745514,4,
15,exp3.png,exp4.png,,,,,,,,,,,,,,,,,,1,0,1,0,0,15,15,15,,,,,,,,,False,35,96,False,exp3.png,exp4.png,trial_right_image,-1,exp4.png,4,exp3.png,exp4.png,1,3,reversed,incorrect,0.38391170549303966,0,valid_lose,590.9986781000043,67,,,,,,,,,,,,,,,,,,sub_736,2024-06-24_10h13.07.550,Reversal,2023.1.3,60.184948342745514,4,
16,exp1.png,exp2.png,,,,,,,,,,,,,,,,,,1,0,1,0,0,16,16,16,,,,,,,,,False,36,97,True,exp2.png,exp1.png,trial_left_image,1,exp2.png,4,exp2.png,exp1.png,1,1,non-reversed,correct,0.9601167202178964,1,valid_win,595.3130464999995,68,,,,,,,,,,,,,,,,,,sub_736,2024-06-24_10h13.07.550,Reversal,2023.1.3,60.184948342745514,4,
17,exp3.png,exp4.png,,,,,,,,,,,,,,,,,,1,0,1,0,0,17,17,17,,,,,,,,,False,37,98,False,exp3.png,exp4.png,trial_right_image,-1,exp4.png,4,exp3.png,exp4.png,1,3,reversed,incorrect,0.5868737627274746,0,valid_lose,600.9281260999996,68,,,,,,,,,,,,,,,,,,sub_736,2024-06-24_10h13.07.550,Reversal,2023.1.3,60.184948342745514,4,
18,exp1.png,exp2.png,,,,,,,,,,,,,,,,,,1,0,1,0,0,18,18,18,,,,,,,,,False,38,99,True,exp2.png,exp1.png,trial_left_image,1,exp2.png,4,exp2.png,exp1.png,1,1,non-reversed,correct,0.038388216322704505,0,invalid_lose,605.5455858000059,68,,,,,,,,,,,,,,,,,,sub_736,2024-06-24_10h13.07.550,Reversal,2023.1.3,60.184948342745514,4,
19,exp3.png,exp4.png,,,,,,,,,,,,,,,,,,1,0,1,0,0,19,19,19,,,,,,,,,False,39,100,False,exp3.png,exp4.png,trial_left_image,1,exp3.png,4,exp3.png,exp4.png,0,4,reversed,correct,0.2581744759825476,1,valid_win,610.6754024000111,69,,,,,,,,,,,,,,,,,,sub_736,2024-06-24_10h13.07.550,Reversal,2023.1.3,60.184948342745514,4,
20,exp1.png,exp2.png,,,,,,,,,,,,,,,,,,1,0,1,0,0,20,20,20,,,,,,,,,True,,,,,,,,,,,,,,,,,,,,,,,,,,,,,,,,,,,,,,sub_736,2024-06-24_10h13.07.550,Reversal,2023.1.3,60.184948342745514,4,
,,,exp1.png,,,,,,,,,,,,,,,,,1,0,1,0,,,,,0,0,0,0,0,0,0,0,,,,,,,,,,,,,,,,,,,,,,726.1707503000071,100.0,100.0,4.318083000005572,"[(1.0, 2.07064459999674), (100.0, 4.318083000005572)]",,,,,,,,,,,,,sub_736,2024-06-24_10h13.07.550,Reversal,2023.1.3,60.184948342745514,4,
,,,exp2.png,,,,,,,,,,,,,,,,,1,0,1,0,,,,,0,0,0,0,0,1,1,1,,,,,,,,,,,,,,,,,,,,,,731.5737802000076,,3.0,1.8105972999910591,"[(3.0, 1.8105972999910591)]",3.0,,,,,,,,,,,,sub_736,2024-06-24_10h13.07.550,Reversal,2023.1.3,60.184948342745514,4,
,,,exp3.png,,,,,,,,,,,,,,,,,1,0,1,0,,,,,0,0,0,0,0,2,2,2,,,,,,,,,,,,,,,,,,,,,,734.4385598000081,,100.0,2.2782713000051444,"[(100.0, 2.2782713000051444)]",,,100.0,,,,,,,,,,sub_736,2024-06-24_10h13.07.550,Reversal,2023.1.3,60.184948342745514,4,
,,,exp4.png,,,,,,,,,,,,,,,,,1,0,1,0,,,,,0,0,0,0,0,3,3,3,,,,,,,,,,,,,,,,,,,,,,737.7712933000003,,2.0,1.8111246999906143,"[(2.0, 1.8111246999906143)]",,2.0,,,,,,,,,,,sub_736,2024-06-24_10h13.07.550,Reversal,2023.1.3,60.184948342745514,4,
0,exp1.png,exp2.png,,,,,,,,,,,,,,,,,,2,0,2,0,0,0,0,0,,,,,,,,,False,40,101,True,exp2.png,exp1.png,trial_left_image,1,exp2.png,4,exp2.png,exp1.png,1,1,non-reversed,correct,0.3336452207181507,1,valid_win,632.9536264000053,70,,,,,,,,,,,,,,,,,,sub_736,2024-06-24_10h13.07.550,Reversal,2023.1.3,60.184948342745514,4,
1,exp3.png,exp4.png,,,,,,,,,,,,,,,,,,2,0,2,0,0,1,1,1,,,,,,,,,False,41,102,True,exp4.png,exp3.png,trial_left_image,1,exp4.png,4,exp3.png,exp4.png,1,3,reversed,incorrect,0.9083994032147725,0,valid_lose,637.6258212000103,70,,,,,,,,,,,,,,,,,,sub_736,2024-06-24_10h13.07.550,Reversal,2023.1.3,60.184948342745514,4,
2,exp1.png,exp2.png,,,,,,,,,,,,,,,,,,2,0,2,0,0,2,2,2,,,,,,,,,False,42,103,False,exp1.png,exp2.png,trial_right_image,-1,exp2.png,4,exp2.png,exp1.png,1,1,non-reversed,correct,0.414829077981684,1,valid_win,642.0975964000099,71,,,,,,,,,,,,,,,,,,sub_736,2024-06-24_10h13.07.550,Reversal,2023.1.3,60.184948342745514,4,
3,exp3.png,exp4.png,,,,,,,,,,,,,,,,,,2,0,2,0,0,3,3,3,,,,,,,,,False,43,104,False,exp3.png,exp4.png,trial_left_image,1,exp3.png,4,exp3.png,exp4.png,0,4,reversed,correct,0.9903468815586682,1,valid_win,646.5127442000085,72,,,,,,,,,,,,,,,,,,sub_736,2024-06-24_10h13.07.550,Reversal,2023.1.3,60.184948342745514,4,
4,exp1.png,exp2.png,,,,,,,,,,,,,,,,,,2,0,2,0,0,4,4,4,,,,,,,,,False,44,105,False,exp1.png,exp2.png,trial_right_image,-1,exp2.png,4,exp2.png,exp1.png,1,1,non-reversed,correct,0.3636506687637866,1,valid_win,652.3608076000091,73,,,,,,,,,,,,,,,,,,sub_736,2024-06-24_10h13.07.550,Reversal,2023.1.3,60.184948342745514,4,
5,exp3.png,exp4.png,,,,,,,,,,,,,,,,,,2,0,2,0,0,5,5,5,,,,,,,,,False,45,106,True,exp4.png,exp3.png,trial_right_image,-1,exp3.png,4,exp3.png,exp4.png,0,4,reversed,correct,0.7627904648204674,1,valid_win,657.6756250000035,74,,,,,,,,,,,,,,,,,,sub_736,2024-06-24_10h13.07.550,Reversal,2023.1.3,60.184948342745514,4,
6,exp1.png,exp2.png,,,,,,,,,,,,,,,,,,2,0,2,0,0,6,6,6,,,,,,,,,False,46,107,True,exp2.png,exp1.png,trial_left_image,1,exp2.png,4,exp2.png,exp1.png,1,1,non-reversed,correct,0.2680924377512368,1,valid_win,664.2235765000078,75,,,,,,,,,,,,,,,,,,sub_736,2024-06-24_10h13.07.550,Reversal,2023.1.3,60.184948342745514,4,
7,exp3.png,exp4.png,,,,,,,,,,,,,,,,,,2,0,2,0,0,7,7,7,,,,,,,,,False,47,108,True,exp4.png,exp3.png,trial_right_image,-1,exp3.png,4,exp3.png,exp4.png,0,4,reversed,correct,0.4998531119329964,1,valid_win,673.1203614999977,76,,,,,,,,,,,,,,,,,,sub_736,2024-06-24_10h13.07.550,Reversal,2023.1.3,60.184948342745514,4,
8,exp1.png,exp2.png,,,,,,,,,,,,,,,,,,2,0,2,0,0,8,8,8,,,,,,,,,False,48,109,True,exp2.png,exp1.png,trial_left_image,1,exp2.png,4,exp2.png,exp1.png,1,1,non-reversed,correct,0.3406567606423375,1,valid_win,678.9683374000015,77,,,,,,,,,,,,,,,,,,sub_736,2024-06-24_10h13.07.550,Reversal,2023.1.3,60.184948342745514,4,
9,exp3.png,exp4.png,,,,,,,,,,,,,,,,,,2,0,2,0,0,9,9,9,,,,,,,,,False,49,110,False,exp3.png,exp4.png,trial_left_image,1,exp3.png,4,exp3.png,exp4.png,0,4,reversed,correct,0.7605605442010452,1,valid_win,683.6340813999996,78,,,,,,,,,,,,,,,,,,sub_736,2024-06-24_10h13.07.550,Reversal,2023.1.3,60.184948342745514,4,
10,exp1.png,exp2.png,,,,,,,,,,,,,,,,,,2,0,2,0,0,10,10,10,,,,,,,,,False,50,111,False,exp1.png,exp2.png,trial_right_image,-1,exp2.png,4,exp2.png,exp1.png,1,1,non-reversed,correct,0.0025769483773423474,0,invalid_lose,688.3987240999995,78,,,,,,,,,,,,,,,,,,sub_736,2024-06-24_10h13.07.550,Reversal,2023.1.3,60.184948342745514,4,
11,exp3.png,exp4.png,,,,,,,,,,,,,,,,,,2,0,2,0,0,11,11,11,,,,,,,,,False,51,112,True,exp4.png,exp3.png,trial_right_image,-1,exp3.png,4,exp3.png,exp4.png,0,4,reversed,correct,0.8325604206678174,1,valid_win,692.6472221000004,79,,,,,,,,,,,,,,,,,,sub_736,2024-06-24_10h13.07.550,Reversal,2023.1.3,60.184948342745514,4,
12,exp1.png,exp2.png,,,,,,,,,,,,,,,,,,2,0,2,0,0,12,12,12,,,,,,,,,False,52,113,True,exp2.png,exp1.png,trial_left_image,1,exp2.png,4,exp2.png,exp1.png,1,1,non-reversed,correct,0.46317439677164485,1,valid_win,696.8290837000095,80,,,,,,,,,,,,,,,,,,sub_736,2024-06-24_10h13.07.550,Reversal,2023.1.3,60.184948342745514,4,
13,exp3.png,exp4.png,,,,,,,,,,,,,,,,,,2,0,2,0,0,13,13,13,,,,,,,,,False,53,114,True,exp4.png,exp3.png,trial_right_image,-1,exp3.png,4,exp3.png,exp4.png,0,4,reversed,correct,0.02800701854234111,0,invalid_lose,701.7642201999988,80,,,,,,,,,,,,,,,,,,sub_736,2024-06-24_10h13.07.550,Reversal,2023.1.3,60.184948342745514,4,
14,exp1.png,exp2.png,,,,,,,,,,,,,,,,,,2,0,2,0,0,14,14,14,,,,,,,,,False,54,115,True,exp2.png,exp1.png,trial_left_image,1,exp2.png,4,exp2.png,exp1.png,1,1,non-reversed,correct,0.9973002280936686,1,valid_win,707.4260708000074,81,,,,,,,,,,,,,,,,,,sub_736,2024-06-24_10h13.07.550,Reversal,2023.1.3,60.184948342745514,4,
15,exp3.png,exp4.png,,,,,,,,,,,,,,,,,,2,0,2,0,0,15,15,15,,,,,,,,,False,55,116,False,exp3.png,exp4.png,trial_right_image,-1,exp4.png,4,exp3.png,exp4.png,1,3,reversed,incorrect,0.15437404119769116,1,invalid_win,711.8575703000097,82,,,,,,,,,,,,,,,,,,sub_736,2024-06-24_10h13.07.550,Reversal,2023.1.3,60.184948342745514,4,
16,exp1.png,exp2.png,,,,,,,,,,,,,,,,,,2,0,2,0,0,16,16,16,,,,,,,,,False,56,117,False,exp1.png,exp2.png,trial_right_image,-1,exp2.png,4,exp2.png,exp1.png,1,1,non-reversed,correct,0.8295059741153767,1,valid_win,718.6045794000092,83,,,,,,,,,,,,,,,,,,sub_736,2024-06-24_10h13.07.550,Reversal,2023.1.3,60.184948342745514,4,
17,exp3.png,exp4.png,,,,,,,,,,,,,,,,,,2,0,2,0,0,17,17,17,,,,,,,,,False,57,118,False,exp3.png,exp4.png,trial_right_image,-1,exp4.png,4,exp3.png,exp4.png,1,3,reversed,incorrect,0.9940511074265774,0,valid_lose,734.921290600003,83,,,,,,,,,,,,,,,,,,sub_736,2024-06-24_10h13.07.550,Reversal,2023.1.3,60.184948342745514,4,
18,exp1.png,exp2.png,,,,,,,,,,,,,,,,,,2,0,2,0,0,18,18,18,,,,,,,,,False,58,119,False,exp1.png,exp2.png,trial_right_image,-1,exp2.png,4,exp2.png,exp1.png,1,1,non-reversed,correct,0.1005095675847889,0,invalid_lose,739.364393099997,83,,,,,,,,,,,,,,,,,,sub_736,2024-06-24_10h13.07.550,Reversal,2023.1.3,60.184948342745514,4,
19,exp3.png,exp4.png,,,,,,,,,,,,,,,,,,2,0,2,0,0,19,19,19,,,,,,,,,False,59,120,False,exp3.png,exp4.png,trial_left_image,1,exp3.png,4,exp3.png,exp4.png,0,4,reversed,correct,0.7737140261463482,1,valid_win,743.829739599998,84,,,,,,,,,,,,,,,,,,sub_736,2024-06-24_10h13.07.550,Reversal,2023.1.3,60.184948342745514,4,
20,exp1.png,exp2.png,,,,,,,,,,,,,,,,,,2,0,2,0,0,20,20,20,,,,,,,,,True,,,,,,,,,,,,,,,,,,,,,,,,,,,,,,,,,,,,,,sub_736,2024-06-24_10h13.07.550,Reversal,2023.1.3,60.184948342745514,4,
,,,exp1.png,,,,,,,,,,,,,,,,,2,0,2,0,,,,,0,0,0,0,0,0,0,0,,,,,,,,,,,,,,,,,,,,,,859.3273618000094,100.0,100.0,3.5180668999964837,"[(100.0, 3.5180668999964837)]",,,,,,,,,,,,,sub_736,2024-06-24_10h13.07.550,Reversal,2023.1.3,60.184948342745514,4,
,,,exp2.png,,,,,,,,,,,,,,,,,2,0,2,0,,,,,0,0,0,0,0,1,1,1,,,,,,,,,,,,,,,,,,,,,,864.0098515999998,,1.0,1.6784164999990026,"[(1.0, 1.6784164999990026)]",1.0,,,,,,,,,,,,sub_736,2024-06-24_10h13.07.550,Reversal,2023.1.3,60.184948342745514,4,
,,,exp3.png,,,,,,,,,,,,,,,,,2,0,2,0,,,,,0,0,0,0,0,2,2,2,,,,,,,,,,,,,,,,,,,,,,866.7266546000028,,100.0,1.4510990000126185,"[(100.0, 1.4510990000126185)]",,,100.0,,,,,,,,,,sub_736,2024-06-24_10h13.07.550,Reversal,2023.1.3,60.184948342745514,4,
,,,exp4.png,,,,,,,,,,,,,,,,,2,0,2,0,,,,,0,0,0,0,0,3,3,3,,,,,,,,,,,,,,,,,,,,,,869.3083650000044,,1.0,1.3467574999958742,"[(1.0, 1.3467574999958742)]",,1.0,,,,,,,,,,,sub_736,2024-06-24_10h13.07.550,Reversal,2023.1.3,60.184948342745514,4,
,,,,,,,,,,,,,,,,,,,,,,,,,,,,,,,,,,,,,,,,,,,,,,,,,,,,,,,,84,,,,,,,,,,97,57,40,355.2221214000019,0,space,78.39267319999635,None,sub_736,2024-06-24_10h13.07.550,Reversal,2023.1.3,60.184948342745514,4,
