trial_index,trial_image1_file,trial_image2_file,image_file,learning_outer_loop.thisRepN,learning_outer_loop.thisTrialN,learning_outer_loop.thisN,learning_outer_loop.thisIndex,learning_inner_loop.thisRepN,learning_inner_loop.thisTrialN,learning_inner_loop.thisN,learning_inner_loop.thisIndex,learning_estimation_outer_loop.thisRepN,learning_estimation_outer_loop.thisTrialN,learning_estimation_outer_loop.thisN,learning_estimation_outer_loop.thisIndex,learning_estimation_inner_loop.thisRepN,learning_estimation_inner_loop.thisTrialN,learning_estimation_inner_loop.thisN,learning_estimation_inner_loop.thisIndex,reversal_outer_loop.thisRepN,reversal_outer_loop.thisTrialN,reversal_outer_loop.thisN,reversal_outer_loop.thisIndex,reversal_inner_loop.thisRepN,reversal_inner_loop.thisTrialN,reversal_inner_loop.thisN,reversal_inner_loop.thisIndex,reversal_estimation_outer_loop.thisRepN,reversal_estimation_outer_loop.thisTrialN,reversal_estimation_outer_loop.thisN,reversal_estimation_outer_loop.thisIndex,reversal_estimation_inner_loop.thisRepN,reversal_estimation_inner_loop.thisTrialN,reversal_estimation_inner_loop.thisN,reversal_estimation_inner_loop.thisIndex,skipped,total_trial_counter,trial_num,left_right_flip,left_image_file,right_image_file,clicked_stimulus_side,side,clicked_stimulus,version,high_prob_image_file,low_prob_image_file,choice_a,choice_b,pair_type,correct,trial_feedback_random,reward,trial_type,overall_time_after_trial,score,estimation_exp1.png,estimation_rating.response,estimation_rating.rt,estimation_rating.history,estimation_rating.started,estimation_rating.stopped,estimation_exp2.png,estimation_exp3.png,estimation_exp4.png,total_learning_time,total_correct,learning_correct,reversal_correct,total_reversal_time,extra_block,end_experiment.keys,end_experiment.rt,participant,date,expName,psychopyVersion,frameRate,ver,
0,exp1.png,exp2.png,,0,0,0,0,0,0,0,0,,,,,,,,,,,,,,,,,,,,,,,,,False,0,1,False,exp1.png,exp2.png,trial_left_image,1,exp1.png,2,exp1.png,exp2.png,1,1,non-reversed,correct,0.5463607821824232,1,valid_win,6.517201800001203,1,,,,,,,,,,,,,,,,,,sub_026,2022-08-04_14h00.40.311,Reversal,2022.1.2,60.05158430697312,2,
1,exp3.png,exp4.png,,0,0,0,0,0,1,1,1,,,,,,,,,,,,,,,,,,,,,,,,,False,1,2,False,exp3.png,exp4.png,trial_left_image,1,exp3.png,2,exp3.png,exp4.png,1,3,reversed,correct,0.24795281248097,0,invalid_lose,12.049805100003141,1,,,,,,,,,,,,,,,,,,sub_026,2022-08-04_14h00.40.311,Reversal,2022.1.2,60.05158430697312,2,
2,exp1.png,exp2.png,,0,0,0,0,0,2,2,2,,,,,,,,,,,,,,,,,,,,,,,,,False,2,3,False,exp1.png,exp2.png,trial_left_image,1,exp1.png,2,exp1.png,exp2.png,1,1,non-reversed,correct,0.228181208594334,0,invalid_lose,20.400480800002697,1,,,,,,,,,,,,,,,,,,sub_026,2022-08-04_14h00.40.311,Reversal,2022.1.2,60.05158430697312,2,
3,exp3.png,exp4.png,,0,0,0,0,0,3,3,3,,,,,,,,,,,,,,,,,,,,,,,,,False,3,4,True,exp4.png,exp3.png,trial_right_image,-1,exp3.png,2,exp3.png,exp4.png,1,3,reversed,correct,0.47342350885413786,1,valid_win,38.04966060000879,2,,,,,,,,,,,,,,,,,,sub_026,2022-08-04_14h00.40.311,Reversal,2022.1.2,60.05158430697312,2,
4,exp1.png,exp2.png,,0,0,0,0,0,4,4,4,,,,,,,,,,,,,,,,,,,,,,,,,False,4,5,True,exp2.png,exp1.png,trial_left_image,1,exp2.png,2,exp1.png,exp2.png,0,2,non-reversed,incorrect,0.9610337743284204,0,valid_lose,42.900110000002314,2,,,,,,,,,,,,,,,,,,sub_026,2022-08-04_14h00.40.311,Reversal,2022.1.2,60.05158430697312,2,
5,exp3.png,exp4.png,,0,0,0,0,0,5,5,5,,,,,,,,,,,,,,,,,,,,,,,,,False,5,6,False,exp3.png,exp4.png,trial_right_image,-1,exp4.png,2,exp3.png,exp4.png,0,4,reversed,incorrect,0.500260588965937,0,valid_lose,48.13289500000246,2,,,,,,,,,,,,,,,,,,sub_026,2022-08-04_14h00.40.311,Reversal,2022.1.2,60.05158430697312,2,
6,exp1.png,exp2.png,,0,0,0,0,0,6,6,6,,,,,,,,,,,,,,,,,,,,,,,,,False,6,7,False,exp1.png,exp2.png,trial_left_image,1,exp1.png,2,exp1.png,exp2.png,1,1,non-reversed,correct,0.1361433889108813,0,invalid_lose,52.13246259999869,2,,,,,,,,,,,,,,,,,,sub_026,2022-08-04_14h00.40.311,Reversal,2022.1.2,60.05158430697312,2,
7,exp3.png,exp4.png,,0,0,0,0,0,7,7,7,,,,,,,,,,,,,,,,,,,,,,,,,False,7,8,True,exp4.png,exp3.png,trial_left_image,1,exp4.png,2,exp3.png,exp4.png,0,4,reversed,incorrect,0.8615891108361389,0,valid_lose,56.61654410000483,2,,,,,,,,,,,,,,,,,,sub_026,2022-08-04_14h00.40.311,Reversal,2022.1.2,60.05158430697312,2,
8,exp1.png,exp2.png,,0,0,0,0,0,8,8,8,,,,,,,,,,,,,,,,,,,,,,,,,False,8,9,False,exp1.png,exp2.png,trial_right_image,-1,exp2.png,2,exp1.png,exp2.png,0,2,non-reversed,incorrect,0.4932325484979281,0,valid_lose,69.69911060000595,2,,,,,,,,,,,,,,,,,,sub_026,2022-08-04_14h00.40.311,Reversal,2022.1.2,60.05158430697312,2,
9,exp3.png,exp4.png,,0,0,0,0,0,9,9,9,,,,,,,,,,,,,,,,,,,,,,,,,False,9,10,False,exp3.png,exp4.png,trial_left_image,1,exp3.png,2,exp3.png,exp4.png,1,3,reversed,correct,0.39050308153984425,1,valid_win,87.59868229999847,3,,,,,,,,,,,,,,,,,,sub_026,2022-08-04_14h00.40.311,Reversal,2022.1.2,60.05158430697312,2,
10,exp1.png,exp2.png,,0,0,0,0,0,10,10,10,,,,,,,,,,,,,,,,,,,,,,,,,False,10,11,True,exp2.png,exp1.png,trial_left_image,1,exp2.png,2,exp1.png,exp2.png,0,2,non-reversed,incorrect,0.20824368830328466,1,invalid_win,100.86492229999567,4,,,,,,,,,,,,,,,,,,sub_026,2022-08-04_14h00.40.311,Reversal,2022.1.2,60.05158430697312,2,
11,exp3.png,exp4.png,,0,0,0,0,0,11,11,11,,,,,,,,,,,,,,,,,,,,,,,,,False,11,12,False,exp3.png,exp4.png,trial_left_image,1,exp3.png,2,exp3.png,exp4.png,1,3,reversed,correct,0.07899041711688115,0,invalid_lose,112.74875860000611,4,,,,,,,,,,,,,,,,,,sub_026,2022-08-04_14h00.40.311,Reversal,2022.1.2,60.05158430697312,2,
12,exp1.png,exp2.png,,0,0,0,0,0,12,12,12,,,,,,,,,,,,,,,,,,,,,,,,,False,12,13,True,exp2.png,exp1.png,trial_right_image,-1,exp1.png,2,exp1.png,exp2.png,1,1,non-reversed,correct,0.6430429065156387,1,valid_win,124.93184250000922,5,,,,,,,,,,,,,,,,,,sub_026,2022-08-04_14h00.40.311,Reversal,2022.1.2,60.05158430697312,2,
13,exp3.png,exp4.png,,0,0,0,0,0,13,13,13,,,,,,,,,,,,,,,,,,,,,,,,,False,13,14,True,exp4.png,exp3.png,trial_left_image,1,exp4.png,2,exp3.png,exp4.png,0,4,reversed,incorrect,0.31899774723199104,0,valid_lose,136.79811719999998,5,,,,,,,,,,,,,,,,,,sub_026,2022-08-04_14h00.40.311,Reversal,2022.1.2,60.05158430697312,2,
14,exp1.png,exp2.png,,0,0,0,0,0,14,14,14,,,,,,,,,,,,,,,,,,,,,,,,,False,14,15,False,exp1.png,exp2.png,trial_left_image,1,exp1.png,2,exp1.png,exp2.png,1,1,non-reversed,correct,0.19622725483818615,0,invalid_lose,143.28129090000584,5,,,,,,,,,,,,,,,,,,sub_026,2022-08-04_14h00.40.311,Reversal,2022.1.2,60.05158430697312,2,
15,exp3.png,exp4.png,,0,0,0,0,0,15,15,15,,,,,,,,,,,,,,,,,,,,,,,,,False,15,16,True,exp4.png,exp3.png,trial_left_image,1,exp4.png,2,exp3.png,exp4.png,0,4,reversed,incorrect,0.739358495201314,0,valid_lose,147.44762350000383,5,,,,,,,,,,,,,,,,,,sub_026,2022-08-04_14h00.40.311,Reversal,2022.1.2,60.05158430697312,2,
16,exp1.png,exp2.png,,0,0,0,0,0,16,16,16,,,,,,,,,,,,,,,,,,,,,,,,,False,16,17,True,exp2.png,exp1.png,trial_right_image,-1,exp1.png,2,exp1.png,exp2.png,1,1,non-reversed,correct,0.3572191882661071,1,valid_win,156.66441500000656,6,,,,,,,,,,,,,,,,,,sub_026,2022-08-04_14h00.40.311,Reversal,2022.1.2,60.05158430697312,2,
17,exp3.png,exp4.png,,0,0,0,0,0,17,17,17,,,,,,,,,,,,,,,,,,,,,,,,,False,17,18,True,exp4.png,exp3.png,trial_right_image,-1,exp3.png,2,exp3.png,exp4.png,1,3,reversed,correct,0.09019662077453339,0,invalid_lose,165.46432290000666,6,,,,,,,,,,,,,,,,,,sub_026,2022-08-04_14h00.40.311,Reversal,2022.1.2,60.05158430697312,2,
18,exp1.png,exp2.png,,0,0,0,0,0,18,18,18,,,,,,,,,,,,,,,,,,,,,,,,,False,18,19,True,exp2.png,exp1.png,trial_right_image,-1,exp1.png,2,exp1.png,exp2.png,1,1,non-reversed,correct,0.4957846016058364,1,valid_win,177.9967650000035,7,,,,,,,,,,,,,,,,,,sub_026,2022-08-04_14h00.40.311,Reversal,2022.1.2,60.05158430697312,2,
19,exp3.png,exp4.png,,0,0,0,0,0,19,19,19,,,,,,,,,,,,,,,,,,,,,,,,,False,19,20,False,exp3.png,exp4.png,trial_left_image,1,exp3.png,2,exp3.png,exp4.png,1,3,reversed,correct,0.7229939531853962,1,valid_win,189.07908950001,8,,,,,,,,,,,,,,,,,,sub_026,2022-08-04_14h00.40.311,Reversal,2022.1.2,60.05158430697312,2,
20,exp1.png,exp2.png,,0,0,0,0,0,20,20,20,,,,,,,,,,,,,,,,,,,,,,,,,True,,,,,,,,,,,,,,,,,,,,,,,,,,,,,,,,,,,,,,sub_026,2022-08-04_14h00.40.311,Reversal,2022.1.2,60.05158430697312,2,
,,,exp1.png,0,0,0,0,,,,,0,0,0,0,0,0,0,0,,,,,,,,,,,,,,,,,,,,,,,,,,,,,,,,,,,,,,100.0,100.0,5.428304400003981,"[(100.0, 5.428304400003981)]",275.39839290000964,None,,,,,,,,,,,,sub_026,2022-08-04_14h00.40.311,Reversal,2022.1.2,60.05158430697312,2,
,,,exp2.png,0,0,0,0,,,,,0,0,0,0,0,1,1,1,,,,,,,,,,,,,,,,,,,,,,,,,,,,,,,,,,,,,,,1.0,2.467045400000643,"[(1.0, 2.467045400000643)]",282.2693825000024,None,1.0,,,,,,,,,,,sub_026,2022-08-04_14h00.40.311,Reversal,2022.1.2,60.05158430697312,2,
,,,exp3.png,0,0,0,0,,,,,0,0,0,0,0,2,2,2,,,,,,,,,,,,,,,,,,,,,,,,,,,,,,,,,,,,,,,100.0,1.8345885000017006,"[(100.0, 1.8345885000017006)]",286.03327060000447,None,,100.0,,,,,,,,,,sub_026,2022-08-04_14h00.40.311,Reversal,2022.1.2,60.05158430697312,2,
,,,exp4.png,0,0,0,0,,,,,0,0,0,0,0,3,3,3,,,,,,,,,,,,,,,,,,,,,,,,,,,,,,,,,,,,,,,1.0,1.3829178000014508,"[(1.0, 1.3829178000014508)]",288.9516345000011,None,,,1.0,,,,,,,,,sub_026,2022-08-04_14h00.40.311,Reversal,2022.1.2,60.05158430697312,2,
0,exp1.png,exp2.png,,1,0,1,0,0,0,0,0,,,,,,,,,,,,,,,,,,,,,,,,,False,20,21,False,exp1.png,exp2.png,trial_left_image,1,exp1.png,2,exp1.png,exp2.png,1,1,non-reversed,correct,0.3031664864969048,1,valid_win,210.02980030000617,9,,,,,,,,,,,,,,,,,,sub_026,2022-08-04_14h00.40.311,Reversal,2022.1.2,60.05158430697312,2,
1,exp3.png,exp4.png,,1,0,1,0,0,1,1,1,,,,,,,,,,,,,,,,,,,,,,,,,False,21,22,True,exp4.png,exp3.png,trial_right_image,-1,exp3.png,2,exp3.png,exp4.png,1,3,reversed,correct,0.6051466023377179,1,valid_win,214.54621159999806,10,,,,,,,,,,,,,,,,,,sub_026,2022-08-04_14h00.40.311,Reversal,2022.1.2,60.05158430697312,2,
2,exp1.png,exp2.png,,1,0,1,0,0,2,2,2,,,,,,,,,,,,,,,,,,,,,,,,,False,22,23,False,exp1.png,exp2.png,trial_left_image,1,exp1.png,2,exp1.png,exp2.png,1,1,non-reversed,correct,0.8667050180272813,1,valid_win,218.74635240000498,11,,,,,,,,,,,,,,,,,,sub_026,2022-08-04_14h00.40.311,Reversal,2022.1.2,60.05158430697312,2,
3,exp3.png,exp4.png,,1,0,1,0,0,3,3,3,,,,,,,,,,,,,,,,,,,,,,,,,False,23,24,False,exp3.png,exp4.png,trial_left_image,1,exp3.png,2,exp3.png,exp4.png,1,3,reversed,correct,0.8817062228176017,1,valid_win,222.99619740000344,12,,,,,,,,,,,,,,,,,,sub_026,2022-08-04_14h00.40.311,Reversal,2022.1.2,60.05158430697312,2,
4,exp1.png,exp2.png,,1,0,1,0,0,4,4,4,,,,,,,,,,,,,,,,,,,,,,,,,False,24,25,True,exp2.png,exp1.png,trial_right_image,-1,exp1.png,2,exp1.png,exp2.png,1,1,non-reversed,correct,0.11304661665943383,0,invalid_lose,227.43005340000673,12,,,,,,,,,,,,,,,,,,sub_026,2022-08-04_14h00.40.311,Reversal,2022.1.2,60.05158430697312,2,
5,exp3.png,exp4.png,,1,0,1,0,0,5,5,5,,,,,,,,,,,,,,,,,,,,,,,,,False,25,26,True,exp4.png,exp3.png,trial_right_image,-1,exp3.png,2,exp3.png,exp4.png,1,3,reversed,correct,0.8046921411752059,1,valid_win,232.1797324000072,13,,,,,,,,,,,,,,,,,,sub_026,2022-08-04_14h00.40.311,Reversal,2022.1.2,60.05158430697312,2,
6,exp1.png,exp2.png,,1,0,1,0,0,6,6,6,,,,,,,,,,,,,,,,,,,,,,,,,False,26,27,False,exp1.png,exp2.png,trial_left_image,1,exp1.png,2,exp1.png,exp2.png,1,1,non-reversed,correct,0.45026108960706956,1,valid_win,236.69643490000453,14,,,,,,,,,,,,,,,,,,sub_026,2022-08-04_14h00.40.311,Reversal,2022.1.2,60.05158430697312,2,
7,exp3.png,exp4.png,,1,0,1,0,0,7,7,7,,,,,,,,,,,,,,,,,,,,,,,,,False,27,28,False,exp3.png,exp4.png,trial_left_image,1,exp3.png,2,exp3.png,exp4.png,1,3,reversed,correct,0.5691504557979846,1,valid_win,241.56330219999654,15,,,,,,,,,,,,,,,,,,sub_026,2022-08-04_14h00.40.311,Reversal,2022.1.2,60.05158430697312,2,
8,exp1.png,exp2.png,,1,0,1,0,0,8,8,8,,,,,,,,,,,,,,,,,,,,,,,,,False,28,29,False,exp1.png,exp2.png,trial_left_image,1,exp1.png,2,exp1.png,exp2.png,1,1,non-reversed,correct,0.4701399474297605,1,valid_win,246.16309050000564,16,,,,,,,,,,,,,,,,,,sub_026,2022-08-04_14h00.40.311,Reversal,2022.1.2,60.05158430697312,2,
9,exp3.png,exp4.png,,1,0,1,0,0,9,9,9,,,,,,,,,,,,,,,,,,,,,,,,,False,29,30,True,exp4.png,exp3.png,trial_right_image,-1,exp3.png,2,exp3.png,exp4.png,1,3,reversed,correct,0.0903649559217029,0,invalid_lose,250.6124708999996,16,,,,,,,,,,,,,,,,,,sub_026,2022-08-04_14h00.40.311,Reversal,2022.1.2,60.05158430697312,2,
10,exp1.png,exp2.png,,1,0,1,0,0,10,10,10,,,,,,,,,,,,,,,,,,,,,,,,,False,30,31,True,exp2.png,exp1.png,trial_right_image,-1,exp1.png,2,exp1.png,exp2.png,1,1,non-reversed,correct,0.15560514110988544,0,invalid_lose,254.77966860000743,16,,,,,,,,,,,,,,,,,,sub_026,2022-08-04_14h00.40.311,Reversal,2022.1.2,60.05158430697312,2,
11,exp3.png,exp4.png,,1,0,1,0,0,11,11,11,,,,,,,,,,,,,,,,,,,,,,,,,False,31,32,False,exp3.png,exp4.png,trial_left_image,1,exp3.png,2,exp3.png,exp4.png,1,3,reversed,correct,0.3969170552400316,1,valid_win,259.32916439999826,17,,,,,,,,,,,,,,,,,,sub_026,2022-08-04_14h00.40.311,Reversal,2022.1.2,60.05158430697312,2,
12,exp1.png,exp2.png,,1,0,1,0,0,12,12,12,,,,,,,,,,,,,,,,,,,,,,,,,False,32,33,True,exp2.png,exp1.png,trial_left_image,1,exp2.png,2,exp1.png,exp2.png,0,2,non-reversed,incorrect,0.04549148250434154,1,invalid_win,263.6127284999966,18,,,,,,,,,,,,,,,,,,sub_026,2022-08-04_14h00.40.311,Reversal,2022.1.2,60.05158430697312,2,
13,exp3.png,exp4.png,,1,0,1,0,0,13,13,13,,,,,,,,,,,,,,,,,,,,,,,,,False,33,34,True,exp4.png,exp3.png,trial_left_image,1,exp4.png,2,exp3.png,exp4.png,0,4,reversed,incorrect,0.5971280821234541,0,valid_lose,267.7455986999994,18,,,,,,,,,,,,,,,,,,sub_026,2022-08-04_14h00.40.311,Reversal,2022.1.2,60.05158430697312,2,
14,exp1.png,exp2.png,,1,0,1,0,0,14,14,14,,,,,,,,,,,,,,,,,,,,,,,,,False,34,35,False,exp1.png,exp2.png,trial_left_image,1,exp1.png,2,exp1.png,exp2.png,1,1,non-reversed,correct,0.49421413702614436,1,valid_win,271.89542680000886,19,,,,,,,,,,,,,,,,,,sub_026,2022-08-04_14h00.40.311,Reversal,2022.1.2,60.05158430697312,2,
15,exp3.png,exp4.png,,1,0,1,0,0,15,15,15,,,,,,,,,,,,,,,,,,,,,,,,,False,35,36,False,exp3.png,exp4.png,trial_left_image,1,exp3.png,2,exp3.png,exp4.png,1,3,reversed,correct,0.37613055576602417,1,valid_win,276.19559319999826,20,,,,,,,,,,,,,,,,,,sub_026,2022-08-04_14h00.40.311,Reversal,2022.1.2,60.05158430697312,2,
16,exp1.png,exp2.png,,1,0,1,0,0,16,16,16,,,,,,,,,,,,,,,,,,,,,,,,,False,36,37,True,exp2.png,exp1.png,trial_right_image,-1,exp1.png,2,exp1.png,exp2.png,1,1,non-reversed,correct,0.4254796437009343,1,valid_win,281.21261210000375,21,,,,,,,,,,,,,,,,,,sub_026,2022-08-04_14h00.40.311,Reversal,2022.1.2,60.05158430697312,2,
17,exp3.png,exp4.png,,1,0,1,0,0,17,17,17,,,,,,,,,,,,,,,,,,,,,,,,,False,37,38,True,exp4.png,exp3.png,trial_right_image,-1,exp3.png,2,exp3.png,exp4.png,1,3,reversed,correct,0.5009888500782612,1,valid_win,285.2790260000038,22,,,,,,,,,,,,,,,,,,sub_026,2022-08-04_14h00.40.311,Reversal,2022.1.2,60.05158430697312,2,
18,exp1.png,exp2.png,,1,0,1,0,0,18,18,18,,,,,,,,,,,,,,,,,,,,,,,,,False,38,39,True,exp2.png,exp1.png,trial_right_image,-1,exp1.png,2,exp1.png,exp2.png,1,1,non-reversed,correct,0.20334319463915662,0,invalid_lose,289.5451621999964,22,,,,,,,,,,,,,,,,,,sub_026,2022-08-04_14h00.40.311,Reversal,2022.1.2,60.05158430697312,2,
19,exp3.png,exp4.png,,1,0,1,0,0,19,19,19,,,,,,,,,,,,,,,,,,,,,,,,,False,39,40,False,exp3.png,exp4.png,trial_left_image,1,exp3.png,2,exp3.png,exp4.png,1,3,reversed,correct,0.640037471077595,1,valid_win,293.4970425000065,23,,,,,,,,,,,,,,,,,,sub_026,2022-08-04_14h00.40.311,Reversal,2022.1.2,60.05158430697312,2,
20,exp1.png,exp2.png,,1,0,1,0,0,20,20,20,,,,,,,,,,,,,,,,,,,,,,,,,True,,,,,,,,,,,,,,,,,,,,,,,,,,,,,,,,,,,,,,sub_026,2022-08-04_14h00.40.311,Reversal,2022.1.2,60.05158430697312,2,
,,,exp1.png,1,0,1,0,,,,,0,0,0,0,0,0,0,0,,,,,,,,,,,,,,,,,,,,,,,,,,,,,,,,,,,,,,1.0,1.0,6.822425699996529,"[(100.0, 2.037500299993553), (1.0, 6.822425699996529)]",379.81535790000635,None,,,,,,,,,,,,sub_026,2022-08-04_14h00.40.311,Reversal,2022.1.2,60.05158430697312,2,
,,,exp2.png,1,0,1,0,,,,,0,0,0,0,0,1,1,1,,,,,,,,,,,,,,,,,,,,,,,,,,,,,,,,,,,,,,,100.0,2.249653999999282,"[(100.0, 2.249653999999282)]",387.76628840000194,None,100.0,,,,,,,,,,,sub_026,2022-08-04_14h00.40.311,Reversal,2022.1.2,60.05158430697312,2,
,,,exp3.png,1,0,1,0,,,,,0,0,0,0,0,2,2,2,,,,,,,,,,,,,,,,,,,,,,,,,,,,,,,,,,,,,,,100.0,1.381857600004878,"[(100.0, 1.381857600004878)]",391.01996980000695,None,,100.0,,,,,,,,,,sub_026,2022-08-04_14h00.40.311,Reversal,2022.1.2,60.05158430697312,2,
,,,exp4.png,1,0,1,0,,,,,0,0,0,0,0,3,3,3,,,,,,,,,,,,,,,,,,,,,,,,,,,,,,,,,,,,,,,1.0,1.3817574999993667,"[(1.0, 1.3817574999993667)]",393.3862889000011,None,,,1.0,,,,,,,,,sub_026,2022-08-04_14h00.40.311,Reversal,2022.1.2,60.05158430697312,2,
0,exp1.png,exp2.png,,2,0,2,0,0,0,0,0,,,,,,,,,,,,,,,,,,,,,,,,,False,40,41,True,exp2.png,exp1.png,trial_right_image,-1,exp1.png,2,exp1.png,exp2.png,1,1,non-reversed,correct,0.4142432558210559,1,valid_win,313.5120440000028,24,,,,,,,,,,,,,,,,,,sub_026,2022-08-04_14h00.40.311,Reversal,2022.1.2,60.05158430697312,2,
1,exp3.png,exp4.png,,2,0,2,0,0,1,1,1,,,,,,,,,,,,,,,,,,,,,,,,,False,41,42,False,exp3.png,exp4.png,trial_left_image,1,exp3.png,2,exp3.png,exp4.png,1,3,reversed,correct,0.37001129503907104,1,valid_win,318.81146670000453,25,,,,,,,,,,,,,,,,,,sub_026,2022-08-04_14h00.40.311,Reversal,2022.1.2,60.05158430697312,2,
2,exp1.png,exp2.png,,2,0,2,0,0,2,2,2,,,,,,,,,,,,,,,,,,,,,,,,,False,42,43,False,exp1.png,exp2.png,trial_left_image,1,exp1.png,2,exp1.png,exp2.png,1,1,non-reversed,correct,0.04995328819825162,0,invalid_lose,322.9946156000078,25,,,,,,,,,,,,,,,,,,sub_026,2022-08-04_14h00.40.311,Reversal,2022.1.2,60.05158430697312,2,
3,exp3.png,exp4.png,,2,0,2,0,0,3,3,3,,,,,,,,,,,,,,,,,,,,,,,,,False,43,44,False,exp3.png,exp4.png,trial_left_image,1,exp3.png,2,exp3.png,exp4.png,1,3,reversed,correct,0.3066173353602263,1,valid_win,327.5943661000056,26,,,,,,,,,,,,,,,,,,sub_026,2022-08-04_14h00.40.311,Reversal,2022.1.2,60.05158430697312,2,
4,exp1.png,exp2.png,,2,0,2,0,0,4,4,4,,,,,,,,,,,,,,,,,,,,,,,,,False,44,45,False,exp1.png,exp2.png,trial_right_image,-1,exp2.png,2,exp1.png,exp2.png,0,2,non-reversed,incorrect,0.3020108572170388,0,valid_lose,331.84509000000253,26,,,,,,,,,,,,,,,,,,sub_026,2022-08-04_14h00.40.311,Reversal,2022.1.2,60.05158430697312,2,
5,exp3.png,exp4.png,,2,0,2,0,0,5,5,5,,,,,,,,,,,,,,,,,,,,,,,,,False,45,46,True,exp4.png,exp3.png,trial_right_image,-1,exp3.png,2,exp3.png,exp4.png,1,3,reversed,correct,0.7052242340184768,1,valid_win,336.14433799999824,27,,,,,,,,,,,,,,,,,,sub_026,2022-08-04_14h00.40.311,Reversal,2022.1.2,60.05158430697312,2,
6,exp1.png,exp2.png,,2,0,2,0,0,6,6,6,,,,,,,,,,,,,,,,,,,,,,,,,False,46,47,True,exp2.png,exp1.png,trial_right_image,-1,exp1.png,2,exp1.png,exp2.png,1,1,non-reversed,correct,0.6163232479810616,1,valid_win,341.37791460000153,28,,,,,,,,,,,,,,,,,,sub_026,2022-08-04_14h00.40.311,Reversal,2022.1.2,60.05158430697312,2,
7,exp3.png,exp4.png,,2,0,2,0,0,7,7,7,,,,,,,,,,,,,,,,,,,,,,,,,False,47,48,True,exp4.png,exp3.png,trial_right_image,-1,exp3.png,2,exp3.png,exp4.png,1,3,reversed,correct,0.9650825617285684,1,valid_win,345.5276150999998,29,,,,,,,,,,,,,,,,,,sub_026,2022-08-04_14h00.40.311,Reversal,2022.1.2,60.05158430697312,2,
8,exp1.png,exp2.png,,2,0,2,0,0,8,8,8,,,,,,,,,,,,,,,,,,,,,,,,,False,48,49,False,exp1.png,exp2.png,trial_left_image,1,exp1.png,2,exp1.png,exp2.png,1,1,non-reversed,correct,0.5729029000141863,1,valid_win,349.8443169999955,30,,,,,,,,,,,,,,,,,,sub_026,2022-08-04_14h00.40.311,Reversal,2022.1.2,60.05158430697312,2,
9,exp3.png,exp4.png,,2,0,2,0,0,9,9,9,,,,,,,,,,,,,,,,,,,,,,,,,False,49,50,False,exp3.png,exp4.png,trial_left_image,1,exp3.png,2,exp3.png,exp4.png,1,3,reversed,correct,0.798228302482656,1,valid_win,354.027972099997,31,,,,,,,,,,,,,,,,,,sub_026,2022-08-04_14h00.40.311,Reversal,2022.1.2,60.05158430697312,2,
10,exp1.png,exp2.png,,2,0,2,0,0,10,10,10,,,,,,,,,,,,,,,,,,,,,,,,,False,50,51,True,exp2.png,exp1.png,trial_right_image,-1,exp1.png,2,exp1.png,exp2.png,1,1,non-reversed,correct,0.26559673563899433,1,valid_win,358.04454570000235,32,,,,,,,,,,,,,,,,,,sub_026,2022-08-04_14h00.40.311,Reversal,2022.1.2,60.05158430697312,2,
11,exp3.png,exp4.png,,2,0,2,0,0,11,11,11,,,,,,,,,,,,,,,,,,,,,,,,,False,51,52,True,exp4.png,exp3.png,trial_right_image,-1,exp3.png,2,exp3.png,exp4.png,1,3,reversed,correct,0.713492141718092,1,valid_win,362.0437028000015,33,,,,,,,,,,,,,,,,,,sub_026,2022-08-04_14h00.40.311,Reversal,2022.1.2,60.05158430697312,2,
12,exp1.png,exp2.png,,2,0,2,0,0,12,12,12,,,,,,,,,,,,,,,,,,,,,,,,,False,52,53,False,exp1.png,exp2.png,trial_left_image,1,exp1.png,2,exp1.png,exp2.png,1,1,non-reversed,correct,0.4067318333506085,1,valid_win,365.9607582000026,34,,,,,,,,,,,,,,,,,,sub_026,2022-08-04_14h00.40.311,Reversal,2022.1.2,60.05158430697312,2,
13,exp3.png,exp4.png,,2,0,2,0,0,13,13,13,,,,,,,,,,,,,,,,,,,,,,,,,False,53,54,True,exp4.png,exp3.png,trial_right_image,-1,exp3.png,2,exp3.png,exp4.png,1,3,reversed,correct,0.9383946438458374,1,valid_win,369.8943563000066,35,,,,,,,,,,,,,,,,,,sub_026,2022-08-04_14h00.40.311,Reversal,2022.1.2,60.05158430697312,2,
14,exp1.png,exp2.png,,2,0,2,0,0,14,14,14,,,,,,,,,,,,,,,,,,,,,,,,,False,54,55,False,exp1.png,exp2.png,trial_left_image,1,exp1.png,2,exp1.png,exp2.png,1,1,non-reversed,correct,0.47859675058806206,1,valid_win,373.41032450000057,36,,,,,,,,,,,,,,,,,,sub_026,2022-08-04_14h00.40.311,Reversal,2022.1.2,60.05158430697312,2,
15,exp3.png,exp4.png,,2,0,2,0,0,15,15,15,,,,,,,,,,,,,,,,,,,,,,,,,False,55,56,False,exp3.png,exp4.png,trial_left_image,1,exp3.png,2,exp3.png,exp4.png,1,3,reversed,correct,0.978733925637074,1,valid_win,377.5775186999963,37,,,,,,,,,,,,,,,,,,sub_026,2022-08-04_14h00.40.311,Reversal,2022.1.2,60.05158430697312,2,
16,exp1.png,exp2.png,,2,0,2,0,0,16,16,16,,,,,,,,,,,,,,,,,,,,,,,,,False,56,57,True,exp2.png,exp1.png,trial_right_image,-1,exp1.png,2,exp1.png,exp2.png,1,1,non-reversed,correct,0.227945034233902,0,invalid_lose,381.461080699999,37,,,,,,,,,,,,,,,,,,sub_026,2022-08-04_14h00.40.311,Reversal,2022.1.2,60.05158430697312,2,
17,exp3.png,exp4.png,,2,0,2,0,0,17,17,17,,,,,,,,,,,,,,,,,,,,,,,,,False,57,58,False,exp3.png,exp4.png,trial_left_image,1,exp3.png,2,exp3.png,exp4.png,1,3,reversed,correct,0.7519090842322366,1,valid_win,386.6772755999991,38,,,,,,,,,,,,,,,,,,sub_026,2022-08-04_14h00.40.311,Reversal,2022.1.2,60.05158430697312,2,
18,exp1.png,exp2.png,,2,0,2,0,0,18,18,18,,,,,,,,,,,,,,,,,,,,,,,,,False,58,59,True,exp2.png,exp1.png,trial_right_image,-1,exp1.png,2,exp1.png,exp2.png,1,1,non-reversed,correct,0.9828563193215193,1,valid_win,390.6762049000099,39,,,,,,,,,,,,,,,,,,sub_026,2022-08-04_14h00.40.311,Reversal,2022.1.2,60.05158430697312,2,
19,exp3.png,exp4.png,,2,0,2,0,0,19,19,19,,,,,,,,,,,,,,,,,,,,,,,,,False,59,60,True,exp4.png,exp3.png,trial_right_image,-1,exp3.png,2,exp3.png,exp4.png,1,3,reversed,correct,0.6238689632631896,1,valid_win,394.6769908999995,40,,,,,,,,,,,,,,,,,,sub_026,2022-08-04_14h00.40.311,Reversal,2022.1.2,60.05158430697312,2,
20,exp1.png,exp2.png,,2,0,2,0,0,20,20,20,,,,,,,,,,,,,,,,,,,,,,,,,True,,,,,,,,,,,,,,,,,,,,,,,,,,,,,,,,,,,,,,sub_026,2022-08-04_14h00.40.311,Reversal,2022.1.2,60.05158430697312,2,
,,,exp1.png,2,0,2,0,,,,,0,0,0,0,0,0,0,0,,,,,,,,,,,,,,,,,,,,,,,,,,,,,,,,,,,,,,100.0,100.0,2.294102500003646,"[(100.0, 2.294102500003646)]",480.9913579000131,None,,,,,,,,,,,,sub_026,2022-08-04_14h00.40.311,Reversal,2022.1.2,60.05158430697312,2,
,,,exp2.png,2,0,2,0,,,,,0,0,0,0,0,1,1,1,,,,,,,,,,,,,,,,,,,,,,,,,,,,,,,,,,,,,,,1.0,1.1352512999874307,"[(1.0, 1.1352512999874307)]",484.47968090001086,None,1.0,,,,,,,,,,,sub_026,2022-08-04_14h00.40.311,Reversal,2022.1.2,60.05158430697312,2,
,,,exp3.png,2,0,2,0,,,,,0,0,0,0,0,2,2,2,,,,,,,,,,,,,,,,,,,,,,,,,,,,,,,,,,,,,,,100.0,1.6160795000032522,"[(100.0, 1.6160795000032522)]",486.6314829000039,None,,100.0,,,,,,,,,,sub_026,2022-08-04_14h00.40.311,Reversal,2022.1.2,60.05158430697312,2,
,,,exp4.png,2,0,2,0,,,,,0,0,0,0,0,3,3,3,,,,,,,,,,,,,,,,,,,,,,,,,,,,,,,,,,,,,,,1.0,1.0341182999982266,"[(1.0, 1.0341182999982266)]",489.19730189999973,None,,,1.0,,,,,,,,,sub_026,2022-08-04_14h00.40.311,Reversal,2022.1.2,60.05158430697312,2,
0,exp1.png,exp2.png,,,,,,,,,,,,,,,,,,0,0,0,0,0,0,0,0,,,,,,,,,False,0,61,False,exp1.png,exp2.png,trial_left_image,1,exp1.png,2,exp1.png,exp2.png,1,1,non-reversed,correct,0.6595387546934011,1,valid_win,409.06038439999975,41,,,,,,,,,,407.35153960000025,,,,,,,,sub_026,2022-08-04_14h00.40.311,Reversal,2022.1.2,60.05158430697312,2,
1,exp3.png,exp4.png,,,,,,,,,,,,,,,,,,0,0,0,0,0,1,1,1,,,,,,,,,False,1,62,True,exp4.png,exp3.png,trial_right_image,-1,exp3.png,2,exp4.png,exp3.png,1,3,reversed,incorrect,0.2274458561622209,1,invalid_win,413.0604779999994,42,,,,,,,,,,,,,,,,,,sub_026,2022-08-04_14h00.40.311,Reversal,2022.1.2,60.05158430697312,2,
2,exp1.png,exp2.png,,,,,,,,,,,,,,,,,,0,0,0,0,0,2,2,2,,,,,,,,,False,2,63,True,exp2.png,exp1.png,trial_right_image,-1,exp1.png,2,exp1.png,exp2.png,1,1,non-reversed,correct,0.15112662663540022,0,invalid_lose,417.01007849999587,42,,,,,,,,,,,,,,,,,,sub_026,2022-08-04_14h00.40.311,Reversal,2022.1.2,60.05158430697312,2,
3,exp3.png,exp4.png,,,,,,,,,,,,,,,,,,0,0,0,0,0,3,3,3,,,,,,,,,False,3,64,True,exp4.png,exp3.png,trial_right_image,-1,exp3.png,2,exp4.png,exp3.png,1,3,reversed,incorrect,0.6141246844086329,0,valid_lose,421.0100631000096,42,,,,,,,,,,,,,,,,,,sub_026,2022-08-04_14h00.40.311,Reversal,2022.1.2,60.05158430697312,2,
4,exp1.png,exp2.png,,,,,,,,,,,,,,,,,,0,0,0,0,0,4,4,4,,,,,,,,,False,4,65,True,exp2.png,exp1.png,trial_right_image,-1,exp1.png,2,exp1.png,exp2.png,1,1,non-reversed,correct,0.07847771772006684,0,invalid_lose,425.0928506000055,42,,,,,,,,,,,,,,,,,,sub_026,2022-08-04_14h00.40.311,Reversal,2022.1.2,60.05158430697312,2,
5,exp3.png,exp4.png,,,,,,,,,,,,,,,,,,0,0,0,0,0,5,5,5,,,,,,,,,False,5,66,False,exp3.png,exp4.png,trial_right_image,-1,exp4.png,2,exp4.png,exp3.png,0,4,reversed,correct,0.4566612406901791,1,valid_win,429.09314340000856,43,,,,,,,,,,,,,,,,,,sub_026,2022-08-04_14h00.40.311,Reversal,2022.1.2,60.05158430697312,2,
6,exp1.png,exp2.png,,,,,,,,,,,,,,,,,,0,0,0,0,0,6,6,6,,,,,,,,,False,6,67,False,exp1.png,exp2.png,trial_right_image,-1,exp2.png,2,exp1.png,exp2.png,0,2,non-reversed,incorrect,0.9059534123851981,0,valid_lose,433.092578900003,43,,,,,,,,,,,,,,,,,,sub_026,2022-08-04_14h00.40.311,Reversal,2022.1.2,60.05158430697312,2,
7,exp3.png,exp4.png,,,,,,,,,,,,,,,,,,0,0,0,0,0,7,7,7,,,,,,,,,False,7,68,True,exp4.png,exp3.png,trial_right_image,-1,exp3.png,2,exp4.png,exp3.png,1,3,reversed,incorrect,0.5901745977821594,0,valid_lose,437.0428113000089,43,,,,,,,,,,,,,,,,,,sub_026,2022-08-04_14h00.40.311,Reversal,2022.1.2,60.05158430697312,2,
8,exp1.png,exp2.png,,,,,,,,,,,,,,,,,,0,0,0,0,0,8,8,8,,,,,,,,,False,8,69,True,exp2.png,exp1.png,trial_left_image,1,exp2.png,2,exp1.png,exp2.png,0,2,non-reversed,incorrect,0.4198150155859105,0,valid_lose,440.94261019999976,43,,,,,,,,,,,,,,,,,,sub_026,2022-08-04_14h00.40.311,Reversal,2022.1.2,60.05158430697312,2,
9,exp3.png,exp4.png,,,,,,,,,,,,,,,,,,0,0,0,0,0,9,9,9,,,,,,,,,False,9,70,True,exp4.png,exp3.png,trial_right_image,-1,exp3.png,2,exp4.png,exp3.png,1,3,reversed,incorrect,0.9557785832698749,0,valid_lose,444.84218160000455,43,,,,,,,,,,,,,,,,,,sub_026,2022-08-04_14h00.40.311,Reversal,2022.1.2,60.05158430697312,2,
10,exp1.png,exp2.png,,,,,,,,,,,,,,,,,,0,0,0,0,0,10,10,10,,,,,,,,,False,10,71,False,exp1.png,exp2.png,trial_left_image,1,exp1.png,2,exp1.png,exp2.png,1,1,non-reversed,correct,0.017947463569146893,0,invalid_lose,448.9760479999968,43,,,,,,,,,,,,,,,,,,sub_026,2022-08-04_14h00.40.311,Reversal,2022.1.2,60.05158430697312,2,
11,exp3.png,exp4.png,,,,,,,,,,,,,,,,,,0,0,0,0,0,11,11,11,,,,,,,,,False,11,72,True,exp4.png,exp3.png,trial_right_image,-1,exp3.png,2,exp4.png,exp3.png,1,3,reversed,incorrect,0.19823109350753976,1,invalid_win,456.4258819000097,44,,,,,,,,,,,,,,,,,,sub_026,2022-08-04_14h00.40.311,Reversal,2022.1.2,60.05158430697312,2,
12,exp1.png,exp2.png,,,,,,,,,,,,,,,,,,0,0,0,0,0,12,12,12,,,,,,,,,False,12,73,True,exp2.png,exp1.png,trial_right_image,-1,exp1.png,2,exp1.png,exp2.png,1,1,non-reversed,correct,0.07455507964871066,0,invalid_lose,462.09269839999615,44,,,,,,,,,,,,,,,,,,sub_026,2022-08-04_14h00.40.311,Reversal,2022.1.2,60.05158430697312,2,
13,exp3.png,exp4.png,,,,,,,,,,,,,,,,,,0,0,0,0,0,13,13,13,,,,,,,,,False,13,74,False,exp3.png,exp4.png,trial_left_image,1,exp3.png,2,exp4.png,exp3.png,1,3,reversed,incorrect,0.714817764912284,0,valid_lose,467.34119530000316,44,,,,,,,,,,,,,,,,,,sub_026,2022-08-04_14h00.40.311,Reversal,2022.1.2,60.05158430697312,2,
14,exp1.png,exp2.png,,,,,,,,,,,,,,,,,,0,0,0,0,0,14,14,14,,,,,,,,,False,14,75,False,exp1.png,exp2.png,trial_left_image,1,exp1.png,2,exp1.png,exp2.png,1,1,non-reversed,correct,0.8733944657710543,1,valid_win,471.72598899999866,45,,,,,,,,,,,,,,,,,,sub_026,2022-08-04_14h00.40.311,Reversal,2022.1.2,60.05158430697312,2,
15,exp3.png,exp4.png,,,,,,,,,,,,,,,,,,0,0,0,0,0,15,15,15,,,,,,,,,False,15,76,False,exp3.png,exp4.png,trial_right_image,-1,exp4.png,2,exp4.png,exp3.png,0,4,reversed,correct,0.29146544106331895,1,valid_win,476.04177840000193,46,,,,,,,,,,,,,,,,,,sub_026,2022-08-04_14h00.40.311,Reversal,2022.1.2,60.05158430697312,2,
16,exp1.png,exp2.png,,,,,,,,,,,,,,,,,,0,0,0,0,0,16,16,16,,,,,,,,,False,16,77,False,exp1.png,exp2.png,trial_left_image,1,exp1.png,2,exp1.png,exp2.png,1,1,non-reversed,correct,0.8015634863061369,1,valid_win,479.7744329999987,47,,,,,,,,,,,,,,,,,,sub_026,2022-08-04_14h00.40.311,Reversal,2022.1.2,60.05158430697312,2,
17,exp3.png,exp4.png,,,,,,,,,,,,,,,,,,0,0,0,0,0,17,17,17,,,,,,,,,False,17,78,False,exp3.png,exp4.png,trial_right_image,-1,exp4.png,2,exp4.png,exp3.png,0,4,reversed,correct,0.4055497215412369,1,valid_win,483.8579433999985,48,,,,,,,,,,,,,,,,,,sub_026,2022-08-04_14h00.40.311,Reversal,2022.1.2,60.05158430697312,2,
18,exp1.png,exp2.png,,,,,,,,,,,,,,,,,,0,0,0,0,0,18,18,18,,,,,,,,,False,18,79,False,exp1.png,exp2.png,trial_left_image,1,exp1.png,2,exp1.png,exp2.png,1,1,non-reversed,correct,0.7897866635532698,1,valid_win,488.3919382000022,49,,,,,,,,,,,,,,,,,,sub_026,2022-08-04_14h00.40.311,Reversal,2022.1.2,60.05158430697312,2,
19,exp3.png,exp4.png,,,,,,,,,,,,,,,,,,0,0,0,0,0,19,19,19,,,,,,,,,False,19,80,True,exp4.png,exp3.png,trial_left_image,1,exp4.png,2,exp4.png,exp3.png,0,4,reversed,correct,0.016216814089822895,0,invalid_lose,492.4599145999964,49,,,,,,,,,,,,,,,,,,sub_026,2022-08-04_14h00.40.311,Reversal,2022.1.2,60.05158430697312,2,
20,exp1.png,exp2.png,,,,,,,,,,,,,,,,,,0,0,0,0,0,20,20,20,,,,,,,,,True,,,,,,,,,,,,,,,,,,,,,,,,,,,,,,,,,,,,,,sub_026,2022-08-04_14h00.40.311,Reversal,2022.1.2,60.05158430697312,2,
,,,exp1.png,,,,,,,,,,,,,,,,,0,0,0,0,,,,,0,0,0,0,0,0,0,0,,,,,,,,,,,,,,,,,,,,,,100.0,100.0,2.1792182000062894,"[(100.0, 2.1792182000062894)]",578.769907400012,None,,,,,,,,,,,,sub_026,2022-08-04_14h00.40.311,Reversal,2022.1.2,60.05158430697312,2,
,,,exp2.png,,,,,,,,,,,,,,,,,0,0,0,0,,,,,0,0,0,0,0,1,1,1,,,,,,,,,,,,,,,,,,,,,,,1.0,1.4344113999977708,"[(1.0, 1.4344113999977708)]",582.0456422999996,None,1.0,,,,,,,,,,,sub_026,2022-08-04_14h00.40.311,Reversal,2022.1.2,60.05158430697312,2,
,,,exp3.png,,,,,,,,,,,,,,,,,0,0,0,0,,,,,0,0,0,0,0,2,2,2,,,,,,,,,,,,,,,,,,,,,,,71.0,3.6683645000011893,"[(71.0, 3.6683645000011893)]",584.5109800000064,None,,71.0,,,,,,,,,,sub_026,2022-08-04_14h00.40.311,Reversal,2022.1.2,60.05158430697312,2,
,,,exp4.png,,,,,,,,,,,,,,,,,0,0,0,0,,,,,0,0,0,0,0,3,3,3,,,,,,,,,,,,,,,,,,,,,,,91.0,3.1627416999981506,"[(91.0, 3.1627416999981506)]",589.0183592000103,None,,,91.0,,,,,,,,,sub_026,2022-08-04_14h00.40.311,Reversal,2022.1.2,60.05158430697312,2,
0,exp1.png,exp2.png,,,,,,,,,,,,,,,,,,1,0,1,0,0,0,0,0,,,,,,,,,False,20,81,False,exp1.png,exp2.png,trial_left_image,1,exp1.png,2,exp1.png,exp2.png,1,1,non-reversed,correct,0.9962176420976633,1,valid_win,511.97382030000153,50,,,,,,,,,,,,,,,,,,sub_026,2022-08-04_14h00.40.311,Reversal,2022.1.2,60.05158430697312,2,
1,exp3.png,exp4.png,,,,,,,,,,,,,,,,,,1,0,1,0,0,1,1,1,,,,,,,,,False,21,82,False,exp3.png,exp4.png,trial_left_image,1,exp3.png,2,exp4.png,exp3.png,1,3,reversed,incorrect,0.9605006546702928,0,valid_lose,516.1749342999974,50,,,,,,,,,,,,,,,,,,sub_026,2022-08-04_14h00.40.311,Reversal,2022.1.2,60.05158430697312,2,
2,exp1.png,exp2.png,,,,,,,,,,,,,,,,,,1,0,1,0,0,2,2,2,,,,,,,,,False,22,83,False,exp1.png,exp2.png,trial_left_image,1,exp1.png,2,exp1.png,exp2.png,1,1,non-reversed,correct,0.9383657251072143,1,valid_win,520.408260199998,51,,,,,,,,,,,,,,,,,,sub_026,2022-08-04_14h00.40.311,Reversal,2022.1.2,60.05158430697312,2,
3,exp3.png,exp4.png,,,,,,,,,,,,,,,,,,1,0,1,0,0,3,3,3,,,,,,,,,False,23,84,True,exp4.png,exp3.png,trial_left_image,1,exp4.png,2,exp4.png,exp3.png,0,4,reversed,correct,0.36338033314720775,1,valid_win,524.1580386999995,52,,,,,,,,,,,,,,,,,,sub_026,2022-08-04_14h00.40.311,Reversal,2022.1.2,60.05158430697312,2,
4,exp1.png,exp2.png,,,,,,,,,,,,,,,,,,1,0,1,0,0,4,4,4,,,,,,,,,False,24,85,True,exp2.png,exp1.png,trial_left_image,1,exp2.png,2,exp1.png,exp2.png,0,2,non-reversed,incorrect,0.18042397424291878,1,invalid_win,528.2913262000075,53,,,,,,,,,,,,,,,,,,sub_026,2022-08-04_14h00.40.311,Reversal,2022.1.2,60.05158430697312,2,
5,exp3.png,exp4.png,,,,,,,,,,,,,,,,,,1,0,1,0,0,5,5,5,,,,,,,,,False,25,86,False,exp3.png,exp4.png,trial_right_image,-1,exp4.png,2,exp4.png,exp3.png,0,4,reversed,correct,0.17323962153570427,0,invalid_lose,532.3242890999973,53,,,,,,,,,,,,,,,,,,sub_026,2022-08-04_14h00.40.311,Reversal,2022.1.2,60.05158430697312,2,
6,exp1.png,exp2.png,,,,,,,,,,,,,,,,,,1,0,1,0,0,6,6,6,,,,,,,,,False,26,87,True,exp2.png,exp1.png,trial_right_image,-1,exp1.png,2,exp1.png,exp2.png,1,1,non-reversed,correct,0.2752952015474367,1,valid_win,537.8747605999961,54,,,,,,,,,,,,,,,,,,sub_026,2022-08-04_14h00.40.311,Reversal,2022.1.2,60.05158430697312,2,
7,exp3.png,exp4.png,,,,,,,,,,,,,,,,,,1,0,1,0,0,7,7,7,,,,,,,,,False,27,88,True,exp4.png,exp3.png,trial_left_image,1,exp4.png,2,exp4.png,exp3.png,0,4,reversed,correct,0.4336624008718708,1,valid_win,542.3244005000015,55,,,,,,,,,,,,,,,,,,sub_026,2022-08-04_14h00.40.311,Reversal,2022.1.2,60.05158430697312,2,
8,exp1.png,exp2.png,,,,,,,,,,,,,,,,,,1,0,1,0,0,8,8,8,,,,,,,,,False,28,89,False,exp1.png,exp2.png,trial_left_image,1,exp1.png,2,exp1.png,exp2.png,1,1,non-reversed,correct,0.07183213076630157,0,invalid_lose,546.474315200001,55,,,,,,,,,,,,,,,,,,sub_026,2022-08-04_14h00.40.311,Reversal,2022.1.2,60.05158430697312,2,
9,exp3.png,exp4.png,,,,,,,,,,,,,,,,,,1,0,1,0,0,9,9,9,,,,,,,,,False,29,90,True,exp4.png,exp3.png,trial_left_image,1,exp4.png,2,exp4.png,exp3.png,0,4,reversed,correct,0.38778762684940005,1,valid_win,550.574474100009,56,,,,,,,,,,,,,,,,,,sub_026,2022-08-04_14h00.40.311,Reversal,2022.1.2,60.05158430697312,2,
10,exp1.png,exp2.png,,,,,,,,,,,,,,,,,,1,0,1,0,0,10,10,10,,,,,,,,,False,30,91,True,exp2.png,exp1.png,trial_left_image,1,exp2.png,2,exp1.png,exp2.png,0,2,non-reversed,incorrect,0.6581276766500922,0,valid_lose,554.1242339000019,56,,,,,,,,,,,,,,,,,,sub_026,2022-08-04_14h00.40.311,Reversal,2022.1.2,60.05158430697312,2,
11,exp3.png,exp4.png,,,,,,,,,,,,,,,,,,1,0,1,0,0,11,11,11,,,,,,,,,False,31,92,False,exp3.png,exp4.png,trial_right_image,-1,exp4.png,2,exp4.png,exp3.png,0,4,reversed,correct,0.5741702107362211,1,valid_win,558.3402613000071,57,,,,,,,,,,,,,,,,,,sub_026,2022-08-04_14h00.40.311,Reversal,2022.1.2,60.05158430697312,2,
12,exp1.png,exp2.png,,,,,,,,,,,,,,,,,,1,0,1,0,0,12,12,12,,,,,,,,,False,32,93,True,exp2.png,exp1.png,trial_right_image,-1,exp1.png,2,exp1.png,exp2.png,1,1,non-reversed,correct,0.3064243214318787,1,valid_win,562.8405887999979,58,,,,,,,,,,,,,,,,,,sub_026,2022-08-04_14h00.40.311,Reversal,2022.1.2,60.05158430697312,2,
13,exp3.png,exp4.png,,,,,,,,,,,,,,,,,,1,0,1,0,0,13,13,13,,,,,,,,,False,33,94,False,exp3.png,exp4.png,trial_left_image,1,exp3.png,2,exp4.png,exp3.png,1,3,reversed,incorrect,0.583339459650976,0,valid_lose,566.5857428000018,58,,,,,,,,,,,,,,,,,,sub_026,2022-08-04_14h00.40.311,Reversal,2022.1.2,60.05158430697312,2,
14,exp1.png,exp2.png,,,,,,,,,,,,,,,,,,1,0,1,0,0,14,14,14,,,,,,,,,False,34,95,False,exp1.png,exp2.png,trial_right_image,-1,exp2.png,2,exp1.png,exp2.png,0,2,non-reversed,incorrect,0.615178800792449,0,valid_lose,570.6906047000084,58,,,,,,,,,,,,,,,,,,sub_026,2022-08-04_14h00.40.311,Reversal,2022.1.2,60.05158430697312,2,
15,exp3.png,exp4.png,,,,,,,,,,,,,,,,,,1,0,1,0,0,15,15,15,,,,,,,,,False,35,96,True,exp4.png,exp3.png,trial_right_image,-1,exp3.png,2,exp4.png,exp3.png,1,3,reversed,incorrect,0.7988877820370999,0,valid_lose,574.675662900001,58,,,,,,,,,,,,,,,,,,sub_026,2022-08-04_14h00.40.311,Reversal,2022.1.2,60.05158430697312,2,
16,exp1.png,exp2.png,,,,,,,,,,,,,,,,,,1,0,1,0,0,16,16,16,,,,,,,,,False,36,97,False,exp1.png,exp2.png,trial_left_image,1,exp1.png,2,exp1.png,exp2.png,1,1,non-reversed,correct,0.20323543400527566,0,invalid_lose,578.7402274000051,58,,,,,,,,,,,,,,,,,,sub_026,2022-08-04_14h00.40.311,Reversal,2022.1.2,60.05158430697312,2,
17,exp3.png,exp4.png,,,,,,,,,,,,,,,,,,1,0,1,0,0,17,17,17,,,,,,,,,False,37,98,False,exp3.png,exp4.png,trial_right_image,-1,exp4.png,2,exp4.png,exp3.png,0,4,reversed,correct,0.09334225676122843,0,invalid_lose,582.7738471000048,58,,,,,,,,,,,,,,,,,,sub_026,2022-08-04_14h00.40.311,Reversal,2022.1.2,60.05158430697312,2,
18,exp1.png,exp2.png,,,,,,,,,,,,,,,,,,1,0,1,0,0,18,18,18,,,,,,,,,False,38,99,True,exp2.png,exp1.png,trial_left_image,1,exp2.png,2,exp1.png,exp2.png,0,2,non-reversed,incorrect,0.11432124491019657,1,invalid_win,586.8887993999961,59,,,,,,,,,,,,,,,,,,sub_026,2022-08-04_14h00.40.311,Reversal,2022.1.2,60.05158430697312,2,
19,exp3.png,exp4.png,,,,,,,,,,,,,,,,,,1,0,1,0,0,19,19,19,,,,,,,,,False,39,100,True,exp4.png,exp3.png,trial_left_image,1,exp4.png,2,exp4.png,exp3.png,0,4,reversed,correct,0.3650853582341914,1,valid_win,591.4236890000029,60,,,,,,,,,,,,,,,,,,sub_026,2022-08-04_14h00.40.311,Reversal,2022.1.2,60.05158430697312,2,
20,exp1.png,exp2.png,,,,,,,,,,,,,,,,,,1,0,1,0,0,20,20,20,,,,,,,,,True,,,,,,,,,,,,,,,,,,,,,,,,,,,,,,,,,,,,,,sub_026,2022-08-04_14h00.40.311,Reversal,2022.1.2,60.05158430697312,2,
,,,exp1.png,,,,,,,,,,,,,,,,,1,0,1,0,,,,,0,0,0,0,0,0,0,0,,,,,,,,,,,,,,,,,,,,,,21.0,21.0,2.1962646000029054,"[(21.0, 2.1962646000029054)]",677.7370081000117,None,,,,,,,,,,,,sub_026,2022-08-04_14h00.40.311,Reversal,2022.1.2,60.05158430697312,2,
,,,exp2.png,,,,,,,,,,,,,,,,,1,0,1,0,,,,,0,0,0,0,0,1,1,1,,,,,,,,,,,,,,,,,,,,,,,89.0,1.33554390000063,"[(89.0, 1.33554390000063)]",680.8268592000095,None,89.0,,,,,,,,,,,sub_026,2022-08-04_14h00.40.311,Reversal,2022.1.2,60.05158430697312,2,
,,,exp3.png,,,,,,,,,,,,,,,,,1,0,1,0,,,,,0,0,0,0,0,2,2,2,,,,,,,,,,,,,,,,,,,,,,,24.0,1.3177655000035884,"[(24.0, 1.3177655000035884)]",683.1271670000133,None,,24.0,,,,,,,,,,sub_026,2022-08-04_14h00.40.311,Reversal,2022.1.2,60.05158430697312,2,
,,,exp4.png,,,,,,,,,,,,,,,,,1,0,1,0,,,,,0,0,0,0,0,3,3,3,,,,,,,,,,,,,,,,,,,,,,,50.0,None,[],684.8480086000054,None,,,,,,,,,,,,sub_026,2022-08-04_14h00.40.311,Reversal,2022.1.2,60.05158430697312,2,
0,exp1.png,exp2.png,,,,,,,,,,,,,,,,,,2,0,2,0,0,0,0,0,,,,,,,,,False,40,101,False,exp1.png,exp2.png,trial_left_image,1,exp1.png,2,exp1.png,exp2.png,1,1,non-reversed,correct,0.6109818073582199,1,valid_win,602.9847566999961,61,,,,,,,,,,,,,,,,,,sub_026,2022-08-04_14h00.40.311,Reversal,2022.1.2,60.05158430697312,2,
1,exp3.png,exp4.png,,,,,,,,,,,,,,,,,,2,0,2,0,0,1,1,1,,,,,,,,,False,41,102,True,exp4.png,exp3.png,trial_right_image,-1,exp3.png,2,exp4.png,exp3.png,1,3,reversed,incorrect,0.6536769892713497,0,valid_lose,607.4063369000069,61,,,,,,,,,,,,,,,,,,sub_026,2022-08-04_14h00.40.311,Reversal,2022.1.2,60.05158430697312,2,
2,exp1.png,exp2.png,,,,,,,,,,,,,,,,,,2,0,2,0,0,2,2,2,,,,,,,,,False,42,103,False,exp1.png,exp2.png,trial_left_image,1,exp1.png,2,exp1.png,exp2.png,1,1,non-reversed,correct,0.12360352131972874,0,invalid_lose,611.323676,61,,,,,,,,,,,,,,,,,,sub_026,2022-08-04_14h00.40.311,Reversal,2022.1.2,60.05158430697312,2,
3,exp3.png,exp4.png,,,,,,,,,,,,,,,,,,2,0,2,0,0,3,3,3,,,,,,,,,False,43,104,True,exp4.png,exp3.png,trial_left_image,1,exp4.png,2,exp4.png,exp3.png,0,4,reversed,correct,0.035727758010210886,0,invalid_lose,616.1748950000037,61,,,,,,,,,,,,,,,,,,sub_026,2022-08-04_14h00.40.311,Reversal,2022.1.2,60.05158430697312,2,
4,exp1.png,exp2.png,,,,,,,,,,,,,,,,,,2,0,2,0,0,4,4,4,,,,,,,,,False,44,105,False,exp1.png,exp2.png,trial_right_image,-1,exp2.png,2,exp1.png,exp2.png,0,2,non-reversed,incorrect,0.6071334089363492,0,valid_lose,620.23971970001,61,,,,,,,,,,,,,,,,,,sub_026,2022-08-04_14h00.40.311,Reversal,2022.1.2,60.05158430697312,2,
5,exp3.png,exp4.png,,,,,,,,,,,,,,,,,,2,0,2,0,0,5,5,5,,,,,,,,,False,45,106,True,exp4.png,exp3.png,trial_right_image,-1,exp3.png,2,exp4.png,exp3.png,1,3,reversed,incorrect,0.1567891411793757,1,invalid_win,624.0399915000016,62,,,,,,,,,,,,,,,,,,sub_026,2022-08-04_14h00.40.311,Reversal,2022.1.2,60.05158430697312,2,
6,exp1.png,exp2.png,,,,,,,,,,,,,,,,,,2,0,2,0,0,6,6,6,,,,,,,,,False,46,107,False,exp1.png,exp2.png,trial_left_image,1,exp1.png,2,exp1.png,exp2.png,1,1,non-reversed,correct,0.7262009098191017,1,valid_win,627.905617700002,63,,,,,,,,,,,,,,,,,,sub_026,2022-08-04_14h00.40.311,Reversal,2022.1.2,60.05158430697312,2,
7,exp3.png,exp4.png,,,,,,,,,,,,,,,,,,2,0,2,0,0,7,7,7,,,,,,,,,False,47,108,False,exp3.png,exp4.png,trial_left_image,1,exp3.png,2,exp4.png,exp3.png,1,3,reversed,incorrect,0.8757334187729328,0,valid_lose,631.5877978000062,63,,,,,,,,,,,,,,,,,,sub_026,2022-08-04_14h00.40.311,Reversal,2022.1.2,60.05158430697312,2,
8,exp1.png,exp2.png,,,,,,,,,,,,,,,,,,2,0,2,0,0,8,8,8,,,,,,,,,False,48,109,True,exp2.png,exp1.png,trial_right_image,-1,exp1.png,2,exp1.png,exp2.png,1,1,non-reversed,correct,0.9077951110023034,1,valid_win,636.1227630000067,64,,,,,,,,,,,,,,,,,,sub_026,2022-08-04_14h00.40.311,Reversal,2022.1.2,60.05158430697312,2,
9,exp3.png,exp4.png,,,,,,,,,,,,,,,,,,2,0,2,0,0,9,9,9,,,,,,,,,False,49,110,False,exp3.png,exp4.png,trial_right_image,-1,exp4.png,2,exp4.png,exp3.png,0,4,reversed,correct,0.26005586671570546,1,valid_win,640.2229787999968,65,,,,,,,,,,,,,,,,,,sub_026,2022-08-04_14h00.40.311,Reversal,2022.1.2,60.05158430697312,2,
10,exp1.png,exp2.png,,,,,,,,,,,,,,,,,,2,0,2,0,0,10,10,10,,,,,,,,,False,50,111,True,exp2.png,exp1.png,trial_right_image,-1,exp1.png,2,exp1.png,exp2.png,1,1,non-reversed,correct,0.7370232170872132,1,valid_win,643.8061863000039,66,,,,,,,,,,,,,,,,,,sub_026,2022-08-04_14h00.40.311,Reversal,2022.1.2,60.05158430697312,2,
11,exp3.png,exp4.png,,,,,,,,,,,,,,,,,,2,0,2,0,0,11,11,11,,,,,,,,,False,51,112,False,exp3.png,exp4.png,trial_right_image,-1,exp4.png,2,exp4.png,exp3.png,0,4,reversed,correct,0.05924389567418942,0,invalid_lose,647.323725299997,66,,,,,,,,,,,,,,,,,,sub_026,2022-08-04_14h00.40.311,Reversal,2022.1.2,60.05158430697312,2,
12,exp1.png,exp2.png,,,,,,,,,,,,,,,,,,2,0,2,0,0,12,12,12,,,,,,,,,False,52,113,True,exp2.png,exp1.png,trial_right_image,-1,exp1.png,2,exp1.png,exp2.png,1,1,non-reversed,correct,0.553765383886035,1,valid_win,650.8559997999982,67,,,,,,,,,,,,,,,,,,sub_026,2022-08-04_14h00.40.311,Reversal,2022.1.2,60.05158430697312,2,
13,exp3.png,exp4.png,,,,,,,,,,,,,,,,,,2,0,2,0,0,13,13,13,,,,,,,,,False,53,114,True,exp4.png,exp3.png,trial_left_image,1,exp4.png,2,exp4.png,exp3.png,0,4,reversed,correct,0.23938828532749157,0,invalid_lose,654.6559539000009,67,,,,,,,,,,,,,,,,,,sub_026,2022-08-04_14h00.40.311,Reversal,2022.1.2,60.05158430697312,2,
14,exp1.png,exp2.png,,,,,,,,,,,,,,,,,,2,0,2,0,0,14,14,14,,,,,,,,,False,54,115,True,exp2.png,exp1.png,trial_right_image,-1,exp1.png,2,exp1.png,exp2.png,1,1,non-reversed,correct,0.6189832502203947,1,valid_win,658.1937021000049,68,,,,,,,,,,,,,,,,,,sub_026,2022-08-04_14h00.40.311,Reversal,2022.1.2,60.05158430697312,2,
15,exp3.png,exp4.png,,,,,,,,,,,,,,,,,,2,0,2,0,0,15,15,15,,,,,,,,,False,55,116,False,exp3.png,exp4.png,trial_left_image,1,exp3.png,2,exp4.png,exp3.png,1,3,reversed,incorrect,0.04494143312264298,1,invalid_win,661.8555839000037,69,,,,,,,,,,,,,,,,,,sub_026,2022-08-04_14h00.40.311,Reversal,2022.1.2,60.05158430697312,2,
16,exp1.png,exp2.png,,,,,,,,,,,,,,,,,,2,0,2,0,0,16,16,16,,,,,,,,,False,56,117,False,exp1.png,exp2.png,trial_left_image,1,exp1.png,2,exp1.png,exp2.png,1,1,non-reversed,correct,0.811677944064887,1,valid_win,665.738723100003,70,,,,,,,,,,,,,,,,,,sub_026,2022-08-04_14h00.40.311,Reversal,2022.1.2,60.05158430697312,2,
17,exp3.png,exp4.png,,,,,,,,,,,,,,,,,,2,0,2,0,0,17,17,17,,,,,,,,,False,57,118,False,exp3.png,exp4.png,trial_right_image,-1,exp4.png,2,exp4.png,exp3.png,0,4,reversed,correct,0.1947695638815704,0,invalid_lose,669.2053004000045,70,,,,,,,,,,,,,,,,,,sub_026,2022-08-04_14h00.40.311,Reversal,2022.1.2,60.05158430697312,2,
18,exp1.png,exp2.png,,,,,,,,,,,,,,,,,,2,0,2,0,0,18,18,18,,,,,,,,,False,58,119,True,exp2.png,exp1.png,trial_right_image,-1,exp1.png,2,exp1.png,exp2.png,1,1,non-reversed,correct,0.5836758657327088,1,valid_win,673.2377484000026,71,,,,,,,,,,,,,,,,,,sub_026,2022-08-04_14h00.40.311,Reversal,2022.1.2,60.05158430697312,2,
19,exp3.png,exp4.png,,,,,,,,,,,,,,,,,,2,0,2,0,0,19,19,19,,,,,,,,,False,59,120,True,exp4.png,exp3.png,trial_left_image,1,exp4.png,2,exp4.png,exp3.png,0,4,reversed,correct,0.22610350324487227,0,invalid_lose,677.1563580000075,71,,,,,,,,,,,,,,,,,,sub_026,2022-08-04_14h00.40.311,Reversal,2022.1.2,60.05158430697312,2,
20,exp1.png,exp2.png,,,,,,,,,,,,,,,,,,2,0,2,0,0,20,20,20,,,,,,,,,True,,,,,,,,,,,,,,,,,,,,,,,,,,,,,,,,,,,,,,sub_026,2022-08-04_14h00.40.311,Reversal,2022.1.2,60.05158430697312,2,
,,,exp1.png,,,,,,,,,,,,,,,,,2,0,2,0,,,,,0,0,0,0,0,0,0,0,,,,,,,,,,,,,,,,,,,,,,100.0,100.0,1.6349330999946687,"[(100.0, 1.6349330999946687)]",763.4595219000039,None,,,,,,,,,,,,sub_026,2022-08-04_14h00.40.311,Reversal,2022.1.2,60.05158430697312,2,
,,,exp2.png,,,,,,,,,,,,,,,,,2,0,2,0,,,,,0,0,0,0,0,1,1,1,,,,,,,,,,,,,,,,,,,,,,,50.0,None,[],766.5140231000114,None,,,,,,,,,,,,sub_026,2022-08-04_14h00.40.311,Reversal,2022.1.2,60.05158430697312,2,
,,,exp3.png,,,,,,,,,,,,,,,,,2,0,2,0,,,,,0,0,0,0,0,2,2,2,,,,,,,,,,,,,,,,,,,,,,,100.0,2.5517755999899236,"[(100.0, 2.5517755999899236)]",766.9584538000054,None,,100.0,,,,,,,,,,sub_026,2022-08-04_14h00.40.311,Reversal,2022.1.2,60.05158430697312,2,
,,,exp4.png,,,,,,,,,,,,,,,,,2,0,2,0,,,,,0,0,0,0,0,3,3,3,,,,,,,,,,,,,,,,,,,,,,,1.0,1.2026316999981645,"[(1.0, 1.2026316999981645)]",770.4249180000043,None,,,1.0,,,,,,,,,sub_026,2022-08-04_14h00.40.311,Reversal,2022.1.2,60.05158430697312,2,
,,,,,,,,,,,,,,,,,,,,,,,,,,,,,,,,,,,,,,,,,,,,,,,,,,,,,,,,71,,,,,,,,,,,90,50,40,281.30447099999583,0,space,55.80080259998795,sub_026,2022-08-04_14h00.40.311,Reversal,2022.1.2,60.05158430697312,2,
