trial_index,trial_image1_file,trial_image2_file,image_file,learning_outer_loop.thisRepN,learning_outer_loop.thisTrialN,learning_outer_loop.thisN,learning_outer_loop.thisIndex,learning_inner_loop.thisRepN,learning_inner_loop.thisTrialN,learning_inner_loop.thisN,learning_inner_loop.thisIndex,learning_estimation_outer_loop.thisRepN,learning_estimation_outer_loop.thisTrialN,learning_estimation_outer_loop.thisN,learning_estimation_outer_loop.thisIndex,learning_estimation_inner_loop.thisRepN,learning_estimation_inner_loop.thisTrialN,learning_estimation_inner_loop.thisN,learning_estimation_inner_loop.thisIndex,reversal_outer_loop.thisRepN,reversal_outer_loop.thisTrialN,reversal_outer_loop.thisN,reversal_outer_loop.thisIndex,reversal_inner_loop.thisRepN,reversal_inner_loop.thisTrialN,reversal_inner_loop.thisN,reversal_inner_loop.thisIndex,reversal_estimation_outer_loop.thisRepN,reversal_estimation_outer_loop.thisTrialN,reversal_estimation_outer_loop.thisN,reversal_estimation_outer_loop.thisIndex,reversal_estimation_inner_loop.thisRepN,reversal_estimation_inner_loop.thisTrialN,reversal_estimation_inner_loop.thisN,reversal_estimation_inner_loop.thisIndex,skipped,total_trial_counter,trial_num,left_right_flip,left_image_file,right_image_file,clicked_stimulus_side,side,clicked_stimulus,version,high_prob_image_file,low_prob_image_file,choice_a,choice_b,pair_type,correct,trial_feedback_random,reward,trial_type,overall_time_after_trial,score,estimation_rating.response,estimation_rating.rt,estimation_rating.history,estimation_rating.started,estimation_rating.stopped,estimation_exp1.png,estimation_exp2.png,estimation_exp3.png,estimation_exp4.png,total_learning_time,total_correct,learning_correct,reversal_correct,total_reversal_time,extra_block,end_experiment.keys,end_experiment.rt,participant,date,expName,psychopyVersion,frameRate,ver,
0,exp1.png,exp2.png,,0,0,0,0,0,0,0,0,,,,,,,,,,,,,,,,,,,,,,,,,True,,,,,,,,,,,,,,,,,,,,,,,,,,,,,,,,,,,,,,sub_732,2024-01-29_11h40.08.768,Reversal,2022.1.2,59.984403880371055,4,
1,exp3.png,exp4.png,,0,0,0,0,0,1,1,1,,,,,,,,,,,,,,,,,,,,,,,,,False,0,1,True,exp4.png,exp3.png,trial_right_image,-1,exp3.png,4,exp4.png,exp3.png,0,4,reversed,incorrect,0.30253802807497154,0,valid_lose,6.100979899987578,0,,,,,,,,,,,,,,,,,,sub_732,2024-01-29_11h40.08.768,Reversal,2022.1.2,59.984403880371055,4,
2,exp1.png,exp2.png,,0,0,0,0,0,2,2,2,,,,,,,,,,,,,,,,,,,,,,,,,False,1,2,True,exp2.png,exp1.png,trial_right_image,-1,exp1.png,4,exp2.png,exp1.png,0,2,non-reversed,incorrect,0.523023564094203,0,valid_lose,21.65002609975636,0,,,,,,,,,,,,,,,,,,sub_732,2024-01-29_11h40.08.768,Reversal,2022.1.2,59.984403880371055,4,
3,exp3.png,exp4.png,,0,0,0,0,0,3,3,3,,,,,,,,,,,,,,,,,,,,,,,,,False,2,3,False,exp3.png,exp4.png,trial_left_image,1,exp3.png,4,exp4.png,exp3.png,0,4,reversed,incorrect,0.6823035951183786,0,valid_lose,26.233601799234748,0,,,,,,,,,,,,,,,,,,sub_732,2024-01-29_11h40.08.768,Reversal,2022.1.2,59.984403880371055,4,
4,exp1.png,exp2.png,,0,0,0,0,0,4,4,4,,,,,,,,,,,,,,,,,,,,,,,,,False,3,4,True,exp2.png,exp1.png,trial_right_image,-1,exp1.png,4,exp2.png,exp1.png,0,2,non-reversed,incorrect,0.7833465708364646,0,valid_lose,31.133535899221897,0,,,,,,,,,,,,,,,,,,sub_732,2024-01-29_11h40.08.768,Reversal,2022.1.2,59.984403880371055,4,
5,exp3.png,exp4.png,,0,0,0,0,0,5,5,5,,,,,,,,,,,,,,,,,,,,,,,,,False,4,5,True,exp4.png,exp3.png,trial_right_image,-1,exp3.png,4,exp4.png,exp3.png,0,4,reversed,incorrect,0.4654222311064472,0,valid_lose,35.749366000294685,0,,,,,,,,,,,,,,,,,,sub_732,2024-01-29_11h40.08.768,Reversal,2022.1.2,59.984403880371055,4,
6,exp1.png,exp2.png,,0,0,0,0,0,6,6,6,,,,,,,,,,,,,,,,,,,,,,,,,False,5,6,True,exp2.png,exp1.png,trial_right_image,-1,exp1.png,4,exp2.png,exp1.png,0,2,non-reversed,incorrect,0.6485658548802601,0,valid_lose,40.73234939947724,0,,,,,,,,,,,,,,,,,,sub_732,2024-01-29_11h40.08.768,Reversal,2022.1.2,59.984403880371055,4,
7,exp3.png,exp4.png,,0,0,0,0,0,7,7,7,,,,,,,,,,,,,,,,,,,,,,,,,False,6,7,False,exp3.png,exp4.png,trial_left_image,1,exp3.png,4,exp4.png,exp3.png,0,4,reversed,incorrect,0.8431707576898361,0,valid_lose,45.732568100094795,0,,,,,,,,,,,,,,,,,,sub_732,2024-01-29_11h40.08.768,Reversal,2022.1.2,59.984403880371055,4,
8,exp1.png,exp2.png,,0,0,0,0,0,8,8,8,,,,,,,,,,,,,,,,,,,,,,,,,False,7,8,True,exp2.png,exp1.png,trial_right_image,-1,exp1.png,4,exp2.png,exp1.png,0,2,non-reversed,incorrect,0.28301943446042666,0,valid_lose,50.032920299097896,0,,,,,,,,,,,,,,,,,,sub_732,2024-01-29_11h40.08.768,Reversal,2022.1.2,59.984403880371055,4,
9,exp3.png,exp4.png,,0,0,0,0,0,9,9,9,,,,,,,,,,,,,,,,,,,,,,,,,False,8,9,False,exp3.png,exp4.png,trial_right_image,-1,exp4.png,4,exp4.png,exp3.png,1,3,reversed,correct,0.6870925183867996,1,valid_win,54.78272089920938,1,,,,,,,,,,,,,,,,,,sub_732,2024-01-29_11h40.08.768,Reversal,2022.1.2,59.984403880371055,4,
10,exp1.png,exp2.png,,0,0,0,0,0,10,10,10,,,,,,,,,,,,,,,,,,,,,,,,,False,9,10,True,exp2.png,exp1.png,trial_right_image,-1,exp1.png,4,exp2.png,exp1.png,0,2,non-reversed,incorrect,0.4785551534536483,0,valid_lose,59.03266909904778,1,,,,,,,,,,,,,,,,,,sub_732,2024-01-29_11h40.08.768,Reversal,2022.1.2,59.984403880371055,4,
11,exp3.png,exp4.png,,0,0,0,0,0,11,11,11,,,,,,,,,,,,,,,,,,,,,,,,,False,10,11,False,exp3.png,exp4.png,trial_left_image,1,exp3.png,4,exp4.png,exp3.png,0,4,reversed,incorrect,0.23052473693550413,1,invalid_win,63.51610019989312,2,,,,,,,,,,,,,,,,,,sub_732,2024-01-29_11h40.08.768,Reversal,2022.1.2,59.984403880371055,4,
12,exp1.png,exp2.png,,0,0,0,0,0,12,12,12,,,,,,,,,,,,,,,,,,,,,,,,,False,11,12,True,exp2.png,exp1.png,trial_right_image,-1,exp1.png,4,exp2.png,exp1.png,0,2,non-reversed,incorrect,0.5692730453310367,0,valid_lose,67.61546199955046,2,,,,,,,,,,,,,,,,,,sub_732,2024-01-29_11h40.08.768,Reversal,2022.1.2,59.984403880371055,4,
13,exp3.png,exp4.png,,0,0,0,0,0,13,13,13,,,,,,,,,,,,,,,,,,,,,,,,,False,12,13,True,exp4.png,exp3.png,trial_left_image,1,exp4.png,4,exp4.png,exp3.png,1,3,reversed,correct,0.659339860381756,1,valid_win,71.86546669900417,3,,,,,,,,,,,,,,,,,,sub_732,2024-01-29_11h40.08.768,Reversal,2022.1.2,59.984403880371055,4,
14,exp1.png,exp2.png,,0,0,0,0,0,14,14,14,,,,,,,,,,,,,,,,,,,,,,,,,False,13,14,False,exp1.png,exp2.png,trial_left_image,1,exp1.png,4,exp2.png,exp1.png,0,2,non-reversed,incorrect,0.6586061730193047,0,valid_lose,76.14940579980612,3,,,,,,,,,,,,,,,,,,sub_732,2024-01-29_11h40.08.768,Reversal,2022.1.2,59.984403880371055,4,
15,exp3.png,exp4.png,,0,0,0,0,0,15,15,15,,,,,,,,,,,,,,,,,,,,,,,,,False,14,15,True,exp4.png,exp3.png,trial_right_image,-1,exp3.png,4,exp4.png,exp3.png,0,4,reversed,incorrect,0.6770675250159042,0,valid_lose,80.29885559901595,3,,,,,,,,,,,,,,,,,,sub_732,2024-01-29_11h40.08.768,Reversal,2022.1.2,59.984403880371055,4,
16,exp1.png,exp2.png,,0,0,0,0,0,16,16,16,,,,,,,,,,,,,,,,,,,,,,,,,False,15,16,False,exp1.png,exp2.png,trial_left_image,1,exp1.png,4,exp2.png,exp1.png,0,2,non-reversed,incorrect,0.6738353818859263,0,valid_lose,84.23189939931035,3,,,,,,,,,,,,,,,,,,sub_732,2024-01-29_11h40.08.768,Reversal,2022.1.2,59.984403880371055,4,
17,exp3.png,exp4.png,,0,0,0,0,0,17,17,17,,,,,,,,,,,,,,,,,,,,,,,,,False,16,17,False,exp3.png,exp4.png,trial_left_image,1,exp3.png,4,exp4.png,exp3.png,0,4,reversed,incorrect,0.8969548503710219,0,valid_lose,88.19881829991937,3,,,,,,,,,,,,,,,,,,sub_732,2024-01-29_11h40.08.768,Reversal,2022.1.2,59.984403880371055,4,
18,exp1.png,exp2.png,,0,0,0,0,0,18,18,18,,,,,,,,,,,,,,,,,,,,,,,,,False,17,18,False,exp1.png,exp2.png,trial_left_image,1,exp1.png,4,exp2.png,exp1.png,0,2,non-reversed,incorrect,0.708254652912567,0,valid_lose,92.23230640031397,3,,,,,,,,,,,,,,,,,,sub_732,2024-01-29_11h40.08.768,Reversal,2022.1.2,59.984403880371055,4,
19,exp3.png,exp4.png,,0,0,0,0,0,19,19,19,,,,,,,,,,,,,,,,,,,,,,,,,False,18,19,False,exp3.png,exp4.png,trial_right_image,-1,exp4.png,4,exp4.png,exp3.png,1,3,reversed,correct,0.8661360664591866,1,valid_win,96.41506849974394,4,,,,,,,,,,,,,,,,,,sub_732,2024-01-29_11h40.08.768,Reversal,2022.1.2,59.984403880371055,4,
20,exp1.png,exp2.png,,0,0,0,0,0,20,20,20,,,,,,,,,,,,,,,,,,,,,,,,,False,19,20,False,exp1.png,exp2.png,trial_left_image,1,exp1.png,4,exp2.png,exp1.png,0,2,non-reversed,incorrect,0.2328499099360264,1,invalid_win,100.44823190011084,5,,,,,,,,,,,,,,,,,,sub_732,2024-01-29_11h40.08.768,Reversal,2022.1.2,59.984403880371055,4,
,,,exp1.png,0,0,0,0,,,,,0,0,0,0,0,0,0,0,,,,,,,,,,,,,,,,,,,,,,,,,,,,,,,,,,,,,,50.0,None,[],187.6483803000301,None,,,,,,,,,,,,,sub_732,2024-01-29_11h40.08.768,Reversal,2022.1.2,59.984403880371055,4,
,,,exp2.png,0,0,0,0,,,,,0,0,0,0,0,1,1,1,,,,,,,,,,,,,,,,,,,,,,,,,,,,,,,,,,,,,,50.0,None,[],200.8478722013533,None,,,,,,,,,,,,,sub_732,2024-01-29_11h40.08.768,Reversal,2022.1.2,59.984403880371055,4,
,,,exp3.png,0,0,0,0,,,,,0,0,0,0,0,2,2,2,,,,,,,,,,,,,,,,,,,,,,,,,,,,,,,,,,,,,,50.0,None,[],206.11122380010784,None,,,,,,,,,,,,,sub_732,2024-01-29_11h40.08.768,Reversal,2022.1.2,59.984403880371055,4,
,,,exp4.png,0,0,0,0,,,,,0,0,0,0,0,3,3,3,,,,,,,,,,,,,,,,,,,,,,,,,,,,,,,,,,,,,,50.0,None,[],207.9231093004346,None,,,,,,,,,,,,,sub_732,2024-01-29_11h40.08.768,Reversal,2022.1.2,59.984403880371055,4,
0,exp1.png,exp2.png,,1,0,1,0,0,0,0,0,,,,,,,,,,,,,,,,,,,,,,,,,True,,,,,,,,,,,,,,,,,,,,,,,,,,,,,,,,,,,,,,sub_732,2024-01-29_11h40.08.768,Reversal,2022.1.2,59.984403880371055,4,
1,exp3.png,exp4.png,,1,0,1,0,0,1,1,1,,,,,,,,,,,,,,,,,,,,,,,,,False,20,21,True,exp4.png,exp3.png,trial_left_image,1,exp4.png,4,exp4.png,exp3.png,1,3,reversed,correct,0.14223303308571633,0,invalid_lose,132.33169410005212,5,,,,,,,,,,,,,,,,,,sub_732,2024-01-29_11h40.08.768,Reversal,2022.1.2,59.984403880371055,4,
2,exp1.png,exp2.png,,1,0,1,0,0,2,2,2,,,,,,,,,,,,,,,,,,,,,,,,,False,21,22,False,exp1.png,exp2.png,trial_left_image,1,exp1.png,4,exp2.png,exp1.png,0,2,non-reversed,incorrect,0.5363922909266401,0,valid_lose,137.04749449901283,5,,,,,,,,,,,,,,,,,,sub_732,2024-01-29_11h40.08.768,Reversal,2022.1.2,59.984403880371055,4,
3,exp3.png,exp4.png,,1,0,1,0,0,3,3,3,,,,,,,,,,,,,,,,,,,,,,,,,False,22,23,False,exp3.png,exp4.png,trial_left_image,1,exp3.png,4,exp4.png,exp3.png,0,4,reversed,incorrect,0.23079794579929624,1,invalid_win,143.99761120043695,6,,,,,,,,,,,,,,,,,,sub_732,2024-01-29_11h40.08.768,Reversal,2022.1.2,59.984403880371055,4,
4,exp1.png,exp2.png,,1,0,1,0,0,4,4,4,,,,,,,,,,,,,,,,,,,,,,,,,False,23,24,True,exp2.png,exp1.png,trial_left_image,1,exp2.png,4,exp2.png,exp1.png,1,1,non-reversed,correct,0.5184525576213095,1,valid_win,148.89816780015826,7,,,,,,,,,,,,,,,,,,sub_732,2024-01-29_11h40.08.768,Reversal,2022.1.2,59.984403880371055,4,
5,exp3.png,exp4.png,,1,0,1,0,0,5,5,5,,,,,,,,,,,,,,,,,,,,,,,,,False,24,25,True,exp4.png,exp3.png,trial_right_image,-1,exp3.png,4,exp4.png,exp3.png,0,4,reversed,incorrect,0.37993163088883664,0,valid_lose,155.14770470000803,7,,,,,,,,,,,,,,,,,,sub_732,2024-01-29_11h40.08.768,Reversal,2022.1.2,59.984403880371055,4,
6,exp1.png,exp2.png,,1,0,1,0,0,6,6,6,,,,,,,,,,,,,,,,,,,,,,,,,False,25,26,False,exp1.png,exp2.png,trial_left_image,1,exp1.png,4,exp2.png,exp1.png,0,2,non-reversed,incorrect,0.14371867669165783,1,invalid_win,159.96436000056565,8,,,,,,,,,,,,,,,,,,sub_732,2024-01-29_11h40.08.768,Reversal,2022.1.2,59.984403880371055,4,
7,exp3.png,exp4.png,,1,0,1,0,0,7,7,7,,,,,,,,,,,,,,,,,,,,,,,,,False,26,27,False,exp3.png,exp4.png,trial_right_image,-1,exp4.png,4,exp4.png,exp3.png,1,3,reversed,correct,0.361616534651268,1,valid_win,166.4636615999043,9,,,,,,,,,,,,,,,,,,sub_732,2024-01-29_11h40.08.768,Reversal,2022.1.2,59.984403880371055,4,
8,exp1.png,exp2.png,,1,0,1,0,0,8,8,8,,,,,,,,,,,,,,,,,,,,,,,,,False,27,28,True,exp2.png,exp1.png,trial_left_image,1,exp2.png,4,exp2.png,exp1.png,1,1,non-reversed,correct,0.04615572781534083,0,invalid_lose,171.44763449952006,9,,,,,,,,,,,,,,,,,,sub_732,2024-01-29_11h40.08.768,Reversal,2022.1.2,59.984403880371055,4,
9,exp3.png,exp4.png,,1,0,1,0,0,9,9,9,,,,,,,,,,,,,,,,,,,,,,,,,False,28,29,False,exp3.png,exp4.png,trial_left_image,1,exp3.png,4,exp4.png,exp3.png,0,4,reversed,incorrect,0.7603836869047891,0,valid_lose,176.61408500000834,9,,,,,,,,,,,,,,,,,,sub_732,2024-01-29_11h40.08.768,Reversal,2022.1.2,59.984403880371055,4,
10,exp1.png,exp2.png,,1,0,1,0,0,10,10,10,,,,,,,,,,,,,,,,,,,,,,,,,False,29,30,False,exp1.png,exp2.png,trial_left_image,1,exp1.png,4,exp2.png,exp1.png,0,2,non-reversed,incorrect,0.8085503422091637,0,valid_lose,181.2636166997254,9,,,,,,,,,,,,,,,,,,sub_732,2024-01-29_11h40.08.768,Reversal,2022.1.2,59.984403880371055,4,
11,exp3.png,exp4.png,,1,0,1,0,0,11,11,11,,,,,,,,,,,,,,,,,,,,,,,,,False,30,31,True,exp4.png,exp3.png,trial_right_image,-1,exp3.png,4,exp4.png,exp3.png,0,4,reversed,incorrect,0.5176073336230617,0,valid_lose,186.58072770014405,9,,,,,,,,,,,,,,,,,,sub_732,2024-01-29_11h40.08.768,Reversal,2022.1.2,59.984403880371055,4,
12,exp1.png,exp2.png,,1,0,1,0,0,12,12,12,,,,,,,,,,,,,,,,,,,,,,,,,False,31,32,False,exp1.png,exp2.png,trial_right_image,-1,exp2.png,4,exp2.png,exp1.png,1,1,non-reversed,correct,0.31154491053388855,1,valid_win,191.06365189887583,10,,,,,,,,,,,,,,,,,,sub_732,2024-01-29_11h40.08.768,Reversal,2022.1.2,59.984403880371055,4,
13,exp3.png,exp4.png,,1,0,1,0,0,13,13,13,,,,,,,,,,,,,,,,,,,,,,,,,False,32,33,True,exp4.png,exp3.png,trial_right_image,-1,exp3.png,4,exp4.png,exp3.png,0,4,reversed,incorrect,0.31092949598082276,0,valid_lose,195.81386120058596,10,,,,,,,,,,,,,,,,,,sub_732,2024-01-29_11h40.08.768,Reversal,2022.1.2,59.984403880371055,4,
14,exp1.png,exp2.png,,1,0,1,0,0,14,14,14,,,,,,,,,,,,,,,,,,,,,,,,,False,33,34,True,exp2.png,exp1.png,trial_right_image,-1,exp1.png,4,exp2.png,exp1.png,0,2,non-reversed,incorrect,0.928924475525945,0,valid_lose,200.47997959889472,10,,,,,,,,,,,,,,,,,,sub_732,2024-01-29_11h40.08.768,Reversal,2022.1.2,59.984403880371055,4,
15,exp3.png,exp4.png,,1,0,1,0,0,15,15,15,,,,,,,,,,,,,,,,,,,,,,,,,False,34,35,True,exp4.png,exp3.png,trial_right_image,-1,exp3.png,4,exp4.png,exp3.png,0,4,reversed,incorrect,0.5730815557702873,0,valid_lose,205.7301499005407,10,,,,,,,,,,,,,,,,,,sub_732,2024-01-29_11h40.08.768,Reversal,2022.1.2,59.984403880371055,4,
16,exp1.png,exp2.png,,1,0,1,0,0,16,16,16,,,,,,,,,,,,,,,,,,,,,,,,,False,35,36,False,exp1.png,exp2.png,trial_left_image,1,exp1.png,4,exp2.png,exp1.png,0,2,non-reversed,incorrect,0.6047229073323279,0,valid_lose,209.780185200274,10,,,,,,,,,,,,,,,,,,sub_732,2024-01-29_11h40.08.768,Reversal,2022.1.2,59.984403880371055,4,
17,exp3.png,exp4.png,,1,0,1,0,0,17,17,17,,,,,,,,,,,,,,,,,,,,,,,,,False,36,37,False,exp3.png,exp4.png,trial_left_image,1,exp3.png,4,exp4.png,exp3.png,0,4,reversed,incorrect,0.6018395598171985,0,valid_lose,214.19638090021908,10,,,,,,,,,,,,,,,,,,sub_732,2024-01-29_11h40.08.768,Reversal,2022.1.2,59.984403880371055,4,
18,exp1.png,exp2.png,,1,0,1,0,0,18,18,18,,,,,,,,,,,,,,,,,,,,,,,,,False,37,38,False,exp1.png,exp2.png,trial_left_image,1,exp1.png,4,exp2.png,exp1.png,0,2,non-reversed,incorrect,0.36837659279326573,0,valid_lose,218.179860599339,10,,,,,,,,,,,,,,,,,,sub_732,2024-01-29_11h40.08.768,Reversal,2022.1.2,59.984403880371055,4,
19,exp3.png,exp4.png,,1,0,1,0,0,19,19,19,,,,,,,,,,,,,,,,,,,,,,,,,False,38,39,True,exp4.png,exp3.png,trial_left_image,1,exp4.png,4,exp4.png,exp3.png,1,3,reversed,correct,0.07280756261346144,0,invalid_lose,222.76295099966228,10,,,,,,,,,,,,,,,,,,sub_732,2024-01-29_11h40.08.768,Reversal,2022.1.2,59.984403880371055,4,
20,exp1.png,exp2.png,,1,0,1,0,0,20,20,20,,,,,,,,,,,,,,,,,,,,,,,,,False,39,40,True,exp2.png,exp1.png,trial_right_image,-1,exp1.png,4,exp2.png,exp1.png,0,2,non-reversed,incorrect,0.45554156047184724,0,valid_lose,227.29595009982586,10,,,,,,,,,,,,,,,,,,sub_732,2024-01-29_11h40.08.768,Reversal,2022.1.2,59.984403880371055,4,
,,,exp1.png,1,0,1,0,,,,,0,0,0,0,0,0,0,0,,,,,,,,,,,,,,,,,,,,,,,,,,,,,,,,,,,,,,50.0,None,[],314.4943629000336,None,,,,,,,,,,,,,sub_732,2024-01-29_11h40.08.768,Reversal,2022.1.2,59.984403880371055,4,
,,,exp2.png,1,0,1,0,,,,,0,0,0,0,0,1,1,1,,,,,,,,,,,,,,,,,,,,,,,,,,,,,,,,,,,,,,50.0,None,[],318.05759270116687,None,,,,,,,,,,,,,sub_732,2024-01-29_11h40.08.768,Reversal,2022.1.2,59.984403880371055,4,
,,,exp3.png,1,0,1,0,,,,,0,0,0,0,0,2,2,2,,,,,,,,,,,,,,,,,,,,,,,,,,,,,,,,,,,,,,50.0,None,[],319.1221430003643,None,,,,,,,,,,,,,sub_732,2024-01-29_11h40.08.768,Reversal,2022.1.2,59.984403880371055,4,
,,,exp4.png,1,0,1,0,,,,,0,0,0,0,0,3,3,3,,,,,,,,,,,,,,,,,,,,,,,,,,,,,,,,,,,,,,50.0,None,[],320.1722903009504,None,,,,,,,,,,,,,sub_732,2024-01-29_11h40.08.768,Reversal,2022.1.2,59.984403880371055,4,
0,exp1.png,exp2.png,,2,0,2,0,0,0,0,0,,,,,,,,,,,,,,,,,,,,,,,,,True,,,,,,,,,,,,,,,,,,,,,,,,,,,,,,,,,,,,,,sub_732,2024-01-29_11h40.08.768,Reversal,2022.1.2,59.984403880371055,4,
1,exp3.png,exp4.png,,2,0,2,0,0,1,1,1,,,,,,,,,,,,,,,,,,,,,,,,,False,40,41,False,exp3.png,exp4.png,trial_left_image,1,exp3.png,4,exp4.png,exp3.png,0,4,reversed,incorrect,0.9401965081557037,0,valid_lose,240.37950209900737,10,,,,,,,,,,,,,,,,,,sub_732,2024-01-29_11h40.08.768,Reversal,2022.1.2,59.984403880371055,4,
2,exp1.png,exp2.png,,2,0,2,0,0,2,2,2,,,,,,,,,,,,,,,,,,,,,,,,,False,41,42,False,exp1.png,exp2.png,trial_right_image,-1,exp2.png,4,exp2.png,exp1.png,1,1,non-reversed,correct,0.27093583000468036,1,valid_win,244.62910259887576,11,,,,,,,,,,,,,,,,,,sub_732,2024-01-29_11h40.08.768,Reversal,2022.1.2,59.984403880371055,4,
3,exp3.png,exp4.png,,2,0,2,0,0,3,3,3,,,,,,,,,,,,,,,,,,,,,,,,,False,42,43,True,exp4.png,exp3.png,trial_left_image,1,exp4.png,4,exp4.png,exp3.png,1,3,reversed,correct,0.6185326484571928,1,valid_win,250.46228419989347,12,,,,,,,,,,,,,,,,,,sub_732,2024-01-29_11h40.08.768,Reversal,2022.1.2,59.984403880371055,4,
4,exp1.png,exp2.png,,2,0,2,0,0,4,4,4,,,,,,,,,,,,,,,,,,,,,,,,,False,43,44,True,exp2.png,exp1.png,trial_right_image,-1,exp1.png,4,exp2.png,exp1.png,0,2,non-reversed,incorrect,0.7020981407302485,0,valid_lose,255.046203000471,12,,,,,,,,,,,,,,,,,,sub_732,2024-01-29_11h40.08.768,Reversal,2022.1.2,59.984403880371055,4,
5,exp3.png,exp4.png,,2,0,2,0,0,5,5,5,,,,,,,,,,,,,,,,,,,,,,,,,False,44,45,True,exp4.png,exp3.png,trial_right_image,-1,exp3.png,4,exp4.png,exp3.png,0,4,reversed,incorrect,0.6820382987635062,0,valid_lose,259.9122004006058,12,,,,,,,,,,,,,,,,,,sub_732,2024-01-29_11h40.08.768,Reversal,2022.1.2,59.984403880371055,4,
6,exp1.png,exp2.png,,2,0,2,0,0,6,6,6,,,,,,,,,,,,,,,,,,,,,,,,,False,45,46,False,exp1.png,exp2.png,trial_right_image,-1,exp2.png,4,exp2.png,exp1.png,1,1,non-reversed,correct,0.945083098814913,1,valid_win,264.99517790041864,13,,,,,,,,,,,,,,,,,,sub_732,2024-01-29_11h40.08.768,Reversal,2022.1.2,59.984403880371055,4,
7,exp3.png,exp4.png,,2,0,2,0,0,7,7,7,,,,,,,,,,,,,,,,,,,,,,,,,False,46,47,True,exp4.png,exp3.png,trial_left_image,1,exp4.png,4,exp4.png,exp3.png,1,3,reversed,correct,0.29572133227272823,1,valid_win,269.67907469905913,14,,,,,,,,,,,,,,,,,,sub_732,2024-01-29_11h40.08.768,Reversal,2022.1.2,59.984403880371055,4,
8,exp1.png,exp2.png,,2,0,2,0,0,8,8,8,,,,,,,,,,,,,,,,,,,,,,,,,False,47,48,False,exp1.png,exp2.png,trial_right_image,-1,exp2.png,4,exp2.png,exp1.png,1,1,non-reversed,correct,0.6332342617252332,1,valid_win,274.0617907997221,15,,,,,,,,,,,,,,,,,,sub_732,2024-01-29_11h40.08.768,Reversal,2022.1.2,59.984403880371055,4,
9,exp3.png,exp4.png,,2,0,2,0,0,9,9,9,,,,,,,,,,,,,,,,,,,,,,,,,False,48,49,True,exp4.png,exp3.png,trial_left_image,1,exp4.png,4,exp4.png,exp3.png,1,3,reversed,correct,0.4794342763234207,1,valid_win,278.2282108999789,16,,,,,,,,,,,,,,,,,,sub_732,2024-01-29_11h40.08.768,Reversal,2022.1.2,59.984403880371055,4,
10,exp1.png,exp2.png,,2,0,2,0,0,10,10,10,,,,,,,,,,,,,,,,,,,,,,,,,False,49,50,True,exp2.png,exp1.png,trial_left_image,1,exp2.png,4,exp2.png,exp1.png,1,1,non-reversed,correct,0.9950855497055706,1,valid_win,282.36147410050035,17,,,,,,,,,,,,,,,,,,sub_732,2024-01-29_11h40.08.768,Reversal,2022.1.2,59.984403880371055,4,
11,exp3.png,exp4.png,,2,0,2,0,0,11,11,11,,,,,,,,,,,,,,,,,,,,,,,,,False,50,51,True,exp4.png,exp3.png,trial_left_image,1,exp4.png,4,exp4.png,exp3.png,1,3,reversed,correct,0.7742345378704517,1,valid_win,286.5442770998925,18,,,,,,,,,,,,,,,,,,sub_732,2024-01-29_11h40.08.768,Reversal,2022.1.2,59.984403880371055,4,
12,exp1.png,exp2.png,,2,0,2,0,0,12,12,12,,,,,,,,,,,,,,,,,,,,,,,,,False,51,52,False,exp1.png,exp2.png,trial_right_image,-1,exp2.png,4,exp2.png,exp1.png,1,1,non-reversed,correct,0.5324343366364779,1,valid_win,290.92797119915485,19,,,,,,,,,,,,,,,,,,sub_732,2024-01-29_11h40.08.768,Reversal,2022.1.2,59.984403880371055,4,
13,exp3.png,exp4.png,,2,0,2,0,0,13,13,13,,,,,,,,,,,,,,,,,,,,,,,,,False,52,53,False,exp3.png,exp4.png,trial_right_image,-1,exp4.png,4,exp4.png,exp3.png,1,3,reversed,correct,0.5685438741366095,1,valid_win,295.34484500065446,20,,,,,,,,,,,,,,,,,,sub_732,2024-01-29_11h40.08.768,Reversal,2022.1.2,59.984403880371055,4,
14,exp1.png,exp2.png,,2,0,2,0,0,14,14,14,,,,,,,,,,,,,,,,,,,,,,,,,False,53,54,True,exp2.png,exp1.png,trial_left_image,1,exp2.png,4,exp2.png,exp1.png,1,1,non-reversed,correct,0.8426605308101458,1,valid_win,299.7615357991308,21,,,,,,,,,,,,,,,,,,sub_732,2024-01-29_11h40.08.768,Reversal,2022.1.2,59.984403880371055,4,
15,exp3.png,exp4.png,,2,0,2,0,0,15,15,15,,,,,,,,,,,,,,,,,,,,,,,,,False,54,55,False,exp3.png,exp4.png,trial_right_image,-1,exp4.png,4,exp4.png,exp3.png,1,3,reversed,correct,0.684177597664387,1,valid_win,304.17766389995813,22,,,,,,,,,,,,,,,,,,sub_732,2024-01-29_11h40.08.768,Reversal,2022.1.2,59.984403880371055,4,
16,exp1.png,exp2.png,,2,0,2,0,0,16,16,16,,,,,,,,,,,,,,,,,,,,,,,,,False,55,56,True,exp2.png,exp1.png,trial_left_image,1,exp2.png,4,exp2.png,exp1.png,1,1,non-reversed,correct,0.5718553231995784,1,valid_win,308.47842849977314,23,,,,,,,,,,,,,,,,,,sub_732,2024-01-29_11h40.08.768,Reversal,2022.1.2,59.984403880371055,4,
17,exp3.png,exp4.png,,2,0,2,0,0,17,17,17,,,,,,,,,,,,,,,,,,,,,,,,,False,56,57,False,exp3.png,exp4.png,trial_right_image,-1,exp4.png,4,exp4.png,exp3.png,1,3,reversed,correct,0.5020416670371385,1,valid_win,312.8282245993614,24,,,,,,,,,,,,,,,,,,sub_732,2024-01-29_11h40.08.768,Reversal,2022.1.2,59.984403880371055,4,
18,exp1.png,exp2.png,,2,0,2,0,0,18,18,18,,,,,,,,,,,,,,,,,,,,,,,,,False,57,58,False,exp1.png,exp2.png,trial_right_image,-1,exp2.png,4,exp2.png,exp1.png,1,1,non-reversed,correct,0.398009440667185,1,valid_win,317.1949012000114,25,,,,,,,,,,,,,,,,,,sub_732,2024-01-29_11h40.08.768,Reversal,2022.1.2,59.984403880371055,4,
19,exp3.png,exp4.png,,2,0,2,0,0,19,19,19,,,,,,,,,,,,,,,,,,,,,,,,,False,58,59,False,exp3.png,exp4.png,trial_right_image,-1,exp4.png,4,exp4.png,exp3.png,1,3,reversed,correct,0.26352249256965077,1,valid_win,321.4446764998138,26,,,,,,,,,,,,,,,,,,sub_732,2024-01-29_11h40.08.768,Reversal,2022.1.2,59.984403880371055,4,
20,exp1.png,exp2.png,,2,0,2,0,0,20,20,20,,,,,,,,,,,,,,,,,,,,,,,,,False,59,60,True,exp2.png,exp1.png,trial_left_image,1,exp2.png,4,exp2.png,exp1.png,1,1,non-reversed,correct,0.3627868369894516,1,valid_win,325.8275771997869,27,,,,,,,,,,,,,,,,,,sub_732,2024-01-29_11h40.08.768,Reversal,2022.1.2,59.984403880371055,4,
,,,exp1.png,2,0,2,0,,,,,0,0,0,0,0,0,0,0,,,,,,,,,,,,,,,,,,,,,,,,,,,,,,,,,,,,,,1.0,3.744964700192213,"[(7.0, 2.444947199895978), (1.0, 3.744964700192213)]",413.0270557012409,None,1.0,,,,,,,,,,,,sub_732,2024-01-29_11h40.08.768,Reversal,2022.1.2,59.984403880371055,4,
,,,exp2.png,2,0,2,0,,,,,0,0,0,0,0,1,1,1,,,,,,,,,,,,,,,,,,,,,,,,,,,,,,,,,,,,,,100.0,2.3339717984199524,"[(100.0, 2.3339717984199524)]",418.1702130008489,None,,100.0,,,,,,,,,,,sub_732,2024-01-29_11h40.08.768,Reversal,2022.1.2,59.984403880371055,4,
,,,exp3.png,2,0,2,0,,,,,0,0,0,0,0,2,2,2,,,,,,,,,,,,,,,,,,,,,,,,,,,,,,,,,,,,,,1.0,1.4174864012748003,"[(1.0, 1.4174864012748003)]",421.7036255002022,None,,,1.0,,,,,,,,,,sub_732,2024-01-29_11h40.08.768,Reversal,2022.1.2,59.984403880371055,4,
,,,exp4.png,2,0,2,0,,,,,0,0,0,0,0,3,3,3,,,,,,,,,,,,,,,,,,,,,,,,,,,,,,,,,,,,,,100.0,1.5340138003230095,"[(100.0, 1.5340138003230095)]",424.48718110099435,None,,,,100.0,,,,,,,,,sub_732,2024-01-29_11h40.08.768,Reversal,2022.1.2,59.984403880371055,4,
0,exp1.png,exp2.png,,,,,,,,,,,,,,,,,,0,0,0,0,0,0,0,0,,,,,,,,,True,,,,,,,,,,,,,,,,,,,,,,,,,,,,,,,,,,,,,,sub_732,2024-01-29_11h40.08.768,Reversal,2022.1.2,59.984403880371055,4,
1,exp3.png,exp4.png,,,,,,,,,,,,,,,,,,0,0,0,0,0,1,1,1,,,,,,,,,False,0,61,True,exp4.png,exp3.png,trial_left_image,1,exp4.png,4,exp3.png,exp4.png,1,3,reversed,incorrect,0.05679787623620003,1,invalid_win,344.57669360004365,28,,,,,,,,,,342.5855133999139,,,,,,,,sub_732,2024-01-29_11h40.08.768,Reversal,2022.1.2,59.984403880371055,4,
2,exp1.png,exp2.png,,,,,,,,,,,,,,,,,,0,0,0,0,0,2,2,2,,,,,,,,,False,1,62,True,exp2.png,exp1.png,trial_left_image,1,exp2.png,4,exp2.png,exp1.png,1,1,non-reversed,correct,0.05812231190881145,0,invalid_lose,348.77751909941435,28,,,,,,,,,,,,,,,,,,sub_732,2024-01-29_11h40.08.768,Reversal,2022.1.2,59.984403880371055,4,
3,exp3.png,exp4.png,,,,,,,,,,,,,,,,,,0,0,0,0,0,3,3,3,,,,,,,,,False,2,63,False,exp3.png,exp4.png,trial_right_image,-1,exp4.png,4,exp3.png,exp4.png,1,3,reversed,incorrect,0.06629139117751193,1,invalid_win,353.72690030001104,29,,,,,,,,,,,,,,,,,,sub_732,2024-01-29_11h40.08.768,Reversal,2022.1.2,59.984403880371055,4,
4,exp1.png,exp2.png,,,,,,,,,,,,,,,,,,0,0,0,0,0,4,4,4,,,,,,,,,False,3,64,False,exp1.png,exp2.png,trial_right_image,-1,exp2.png,4,exp2.png,exp1.png,1,1,non-reversed,correct,0.8348806606899554,1,valid_win,358.0105684995651,30,,,,,,,,,,,,,,,,,,sub_732,2024-01-29_11h40.08.768,Reversal,2022.1.2,59.984403880371055,4,
5,exp3.png,exp4.png,,,,,,,,,,,,,,,,,,0,0,0,0,0,5,5,5,,,,,,,,,False,4,65,True,exp4.png,exp3.png,trial_left_image,1,exp4.png,4,exp3.png,exp4.png,1,3,reversed,incorrect,0.8251567598165422,0,valid_lose,362.27702930010855,30,,,,,,,,,,,,,,,,,,sub_732,2024-01-29_11h40.08.768,Reversal,2022.1.2,59.984403880371055,4,
6,exp1.png,exp2.png,,,,,,,,,,,,,,,,,,0,0,0,0,0,6,6,6,,,,,,,,,False,5,66,True,exp2.png,exp1.png,trial_left_image,1,exp2.png,4,exp2.png,exp1.png,1,1,non-reversed,correct,0.884123694009626,1,valid_win,366.57627289928496,31,,,,,,,,,,,,,,,,,,sub_732,2024-01-29_11h40.08.768,Reversal,2022.1.2,59.984403880371055,4,
7,exp3.png,exp4.png,,,,,,,,,,,,,,,,,,0,0,0,0,0,7,7,7,,,,,,,,,False,6,67,True,exp4.png,exp3.png,trial_left_image,1,exp4.png,4,exp3.png,exp4.png,1,3,reversed,incorrect,0.004392554990629627,1,invalid_win,370.9603106994182,32,,,,,,,,,,,,,,,,,,sub_732,2024-01-29_11h40.08.768,Reversal,2022.1.2,59.984403880371055,4,
8,exp1.png,exp2.png,,,,,,,,,,,,,,,,,,0,0,0,0,0,8,8,8,,,,,,,,,False,7,68,False,exp1.png,exp2.png,trial_right_image,-1,exp2.png,4,exp2.png,exp1.png,1,1,non-reversed,correct,0.06168829103013862,0,invalid_lose,375.227053899318,32,,,,,,,,,,,,,,,,,,sub_732,2024-01-29_11h40.08.768,Reversal,2022.1.2,59.984403880371055,4,
9,exp3.png,exp4.png,,,,,,,,,,,,,,,,,,0,0,0,0,0,9,9,9,,,,,,,,,False,8,69,True,exp4.png,exp3.png,trial_left_image,1,exp4.png,4,exp3.png,exp4.png,1,3,reversed,incorrect,0.22956237314921357,1,invalid_win,379.39345509931445,33,,,,,,,,,,,,,,,,,,sub_732,2024-01-29_11h40.08.768,Reversal,2022.1.2,59.984403880371055,4,
10,exp1.png,exp2.png,,,,,,,,,,,,,,,,,,0,0,0,0,0,10,10,10,,,,,,,,,False,9,70,False,exp1.png,exp2.png,trial_right_image,-1,exp2.png,4,exp2.png,exp1.png,1,1,non-reversed,correct,0.08239867001980006,0,invalid_lose,383.5597492996603,33,,,,,,,,,,,,,,,,,,sub_732,2024-01-29_11h40.08.768,Reversal,2022.1.2,59.984403880371055,4,
11,exp3.png,exp4.png,,,,,,,,,,,,,,,,,,0,0,0,0,0,11,11,11,,,,,,,,,False,10,71,True,exp4.png,exp3.png,trial_left_image,1,exp4.png,4,exp3.png,exp4.png,1,3,reversed,incorrect,0.5819628490262776,0,valid_lose,388.0600262004882,33,,,,,,,,,,,,,,,,,,sub_732,2024-01-29_11h40.08.768,Reversal,2022.1.2,59.984403880371055,4,
12,exp1.png,exp2.png,,,,,,,,,,,,,,,,,,0,0,0,0,0,12,12,12,,,,,,,,,False,11,72,False,exp1.png,exp2.png,trial_right_image,-1,exp2.png,4,exp2.png,exp1.png,1,1,non-reversed,correct,0.8765247243529606,1,valid_win,392.10949479974806,34,,,,,,,,,,,,,,,,,,sub_732,2024-01-29_11h40.08.768,Reversal,2022.1.2,59.984403880371055,4,
13,exp3.png,exp4.png,,,,,,,,,,,,,,,,,,0,0,0,0,0,13,13,13,,,,,,,,,False,12,73,False,exp3.png,exp4.png,trial_right_image,-1,exp4.png,4,exp3.png,exp4.png,1,3,reversed,incorrect,0.5188224225171963,0,valid_lose,399.89314919896424,34,,,,,,,,,,,,,,,,,,sub_732,2024-01-29_11h40.08.768,Reversal,2022.1.2,59.984403880371055,4,
14,exp1.png,exp2.png,,,,,,,,,,,,,,,,,,0,0,0,0,0,14,14,14,,,,,,,,,False,13,74,True,exp2.png,exp1.png,trial_right_image,-1,exp1.png,4,exp2.png,exp1.png,0,2,non-reversed,incorrect,0.2180013510061073,1,invalid_win,404.1596152000129,35,,,,,,,,,,,,,,,,,,sub_732,2024-01-29_11h40.08.768,Reversal,2022.1.2,59.984403880371055,4,
15,exp3.png,exp4.png,,,,,,,,,,,,,,,,,,0,0,0,0,0,15,15,15,,,,,,,,,False,14,75,True,exp4.png,exp3.png,trial_right_image,-1,exp3.png,4,exp3.png,exp4.png,0,4,reversed,correct,0.435124100925271,1,valid_win,408.8761550989002,36,,,,,,,,,,,,,,,,,,sub_732,2024-01-29_11h40.08.768,Reversal,2022.1.2,59.984403880371055,4,
16,exp1.png,exp2.png,,,,,,,,,,,,,,,,,,0,0,0,0,0,16,16,16,,,,,,,,,False,15,76,False,exp1.png,exp2.png,trial_right_image,-1,exp2.png,4,exp2.png,exp1.png,1,1,non-reversed,correct,0.42903053292362137,1,valid_win,413.55939589999616,37,,,,,,,,,,,,,,,,,,sub_732,2024-01-29_11h40.08.768,Reversal,2022.1.2,59.984403880371055,4,
17,exp3.png,exp4.png,,,,,,,,,,,,,,,,,,0,0,0,0,0,17,17,17,,,,,,,,,False,16,77,False,exp3.png,exp4.png,trial_left_image,1,exp3.png,4,exp3.png,exp4.png,0,4,reversed,correct,0.31750364389711827,1,valid_win,418.4092121999711,38,,,,,,,,,,,,,,,,,,sub_732,2024-01-29_11h40.08.768,Reversal,2022.1.2,59.984403880371055,4,
18,exp1.png,exp2.png,,,,,,,,,,,,,,,,,,0,0,0,0,0,18,18,18,,,,,,,,,False,17,78,False,exp1.png,exp2.png,trial_left_image,1,exp1.png,4,exp2.png,exp1.png,0,2,non-reversed,incorrect,0.6905212273804459,0,valid_lose,422.79291870072484,38,,,,,,,,,,,,,,,,,,sub_732,2024-01-29_11h40.08.768,Reversal,2022.1.2,59.984403880371055,4,
19,exp3.png,exp4.png,,,,,,,,,,,,,,,,,,0,0,0,0,0,19,19,19,,,,,,,,,False,18,79,True,exp4.png,exp3.png,trial_left_image,1,exp4.png,4,exp3.png,exp4.png,1,3,reversed,incorrect,0.4091103272262633,0,valid_lose,428.25916860066354,38,,,,,,,,,,,,,,,,,,sub_732,2024-01-29_11h40.08.768,Reversal,2022.1.2,59.984403880371055,4,
20,exp1.png,exp2.png,,,,,,,,,,,,,,,,,,0,0,0,0,0,20,20,20,,,,,,,,,False,19,80,False,exp1.png,exp2.png,trial_right_image,-1,exp2.png,4,exp2.png,exp1.png,1,1,non-reversed,correct,0.35091239837288424,1,valid_win,432.57582980021834,39,,,,,,,,,,,,,,,,,,sub_732,2024-01-29_11h40.08.768,Reversal,2022.1.2,59.984403880371055,4,
,,,exp1.png,,,,,,,,,,,,,,,,,0,0,0,0,,,,,0,0,0,0,0,0,0,0,,,,,,,,,,,,,,,,,,,,,,50.0,None,[],519.7736708000302,None,,,,,,,,,,,,,sub_732,2024-01-29_11h40.08.768,Reversal,2022.1.2,59.984403880371055,4,
,,,exp2.png,,,,,,,,,,,,,,,,,0,0,0,0,,,,,0,0,0,0,0,1,1,1,,,,,,,,,,,,,,,,,,,,,,50.0,None,[],524.7024696003646,None,,,,,,,,,,,,,sub_732,2024-01-29_11h40.08.768,Reversal,2022.1.2,59.984403880371055,4,
,,,exp3.png,,,,,,,,,,,,,,,,,0,0,0,0,,,,,0,0,0,0,0,2,2,2,,,,,,,,,,,,,,,,,,,,,,50.0,None,[],526.2181065008044,None,,,,,,,,,,,,,sub_732,2024-01-29_11h40.08.768,Reversal,2022.1.2,59.984403880371055,4,
,,,exp4.png,,,,,,,,,,,,,,,,,0,0,0,0,,,,,0,0,0,0,0,3,3,3,,,,,,,,,,,,,,,,,,,,,,50.0,None,[],527.367430800572,None,,,,,,,,,,,,,sub_732,2024-01-29_11h40.08.768,Reversal,2022.1.2,59.984403880371055,4,
0,exp1.png,exp2.png,,,,,,,,,,,,,,,,,,1,0,1,0,0,0,0,0,,,,,,,,,True,,,,,,,,,,,,,,,,,,,,,,,,,,,,,,,,,,,,,,sub_732,2024-01-29_11h40.08.768,Reversal,2022.1.2,59.984403880371055,4,
1,exp3.png,exp4.png,,,,,,,,,,,,,,,,,,1,0,1,0,0,1,1,1,,,,,,,,,False,20,81,True,exp4.png,exp3.png,trial_left_image,1,exp4.png,4,exp3.png,exp4.png,1,3,reversed,incorrect,0.04461154886552421,1,invalid_win,446.2087638992816,40,,,,,,,,,,,,,,,,,,sub_732,2024-01-29_11h40.08.768,Reversal,2022.1.2,59.984403880371055,4,
2,exp1.png,exp2.png,,,,,,,,,,,,,,,,,,1,0,1,0,0,2,2,2,,,,,,,,,False,21,82,False,exp1.png,exp2.png,trial_right_image,-1,exp2.png,4,exp2.png,exp1.png,1,1,non-reversed,correct,0.14075601832415885,0,invalid_lose,450.9251252003014,40,,,,,,,,,,,,,,,,,,sub_732,2024-01-29_11h40.08.768,Reversal,2022.1.2,59.984403880371055,4,
3,exp3.png,exp4.png,,,,,,,,,,,,,,,,,,1,0,1,0,0,3,3,3,,,,,,,,,False,22,83,True,exp4.png,exp3.png,trial_left_image,1,exp4.png,4,exp3.png,exp4.png,1,3,reversed,incorrect,0.6244807204508709,0,valid_lose,455.47516199946404,40,,,,,,,,,,,,,,,,,,sub_732,2024-01-29_11h40.08.768,Reversal,2022.1.2,59.984403880371055,4,
4,exp1.png,exp2.png,,,,,,,,,,,,,,,,,,1,0,1,0,0,4,4,4,,,,,,,,,False,23,84,False,exp1.png,exp2.png,trial_right_image,-1,exp2.png,4,exp2.png,exp1.png,1,1,non-reversed,correct,0.3528213565423107,1,valid_win,459.8248442988843,41,,,,,,,,,,,,,,,,,,sub_732,2024-01-29_11h40.08.768,Reversal,2022.1.2,59.984403880371055,4,
5,exp3.png,exp4.png,,,,,,,,,,,,,,,,,,1,0,1,0,0,5,5,5,,,,,,,,,False,24,85,False,exp3.png,exp4.png,trial_right_image,-1,exp4.png,4,exp3.png,exp4.png,1,3,reversed,incorrect,0.28710271274021915,0,valid_lose,464.3421279992908,41,,,,,,,,,,,,,,,,,,sub_732,2024-01-29_11h40.08.768,Reversal,2022.1.2,59.984403880371055,4,
6,exp1.png,exp2.png,,,,,,,,,,,,,,,,,,1,0,1,0,0,6,6,6,,,,,,,,,False,25,86,True,exp2.png,exp1.png,trial_left_image,1,exp2.png,4,exp2.png,exp1.png,1,1,non-reversed,correct,0.3494942135627883,1,valid_win,468.5085090994835,42,,,,,,,,,,,,,,,,,,sub_732,2024-01-29_11h40.08.768,Reversal,2022.1.2,59.984403880371055,4,
7,exp3.png,exp4.png,,,,,,,,,,,,,,,,,,1,0,1,0,0,7,7,7,,,,,,,,,False,26,87,True,exp4.png,exp3.png,trial_left_image,1,exp4.png,4,exp3.png,exp4.png,1,3,reversed,incorrect,0.8050558128790563,0,valid_lose,475.724824199453,42,,,,,,,,,,,,,,,,,,sub_732,2024-01-29_11h40.08.768,Reversal,2022.1.2,59.984403880371055,4,
8,exp1.png,exp2.png,,,,,,,,,,,,,,,,,,1,0,1,0,0,8,8,8,,,,,,,,,False,27,88,False,exp1.png,exp2.png,trial_right_image,-1,exp2.png,4,exp2.png,exp1.png,1,1,non-reversed,correct,0.2463831094164517,0,invalid_lose,480.3084848988801,42,,,,,,,,,,,,,,,,,,sub_732,2024-01-29_11h40.08.768,Reversal,2022.1.2,59.984403880371055,4,
9,exp3.png,exp4.png,,,,,,,,,,,,,,,,,,1,0,1,0,0,9,9,9,,,,,,,,,False,28,89,False,exp3.png,exp4.png,trial_left_image,1,exp3.png,4,exp3.png,exp4.png,0,4,reversed,correct,0.06217892168713135,0,invalid_lose,484.54208979941905,42,,,,,,,,,,,,,,,,,,sub_732,2024-01-29_11h40.08.768,Reversal,2022.1.2,59.984403880371055,4,
10,exp1.png,exp2.png,,,,,,,,,,,,,,,,,,1,0,1,0,0,10,10,10,,,,,,,,,False,29,90,False,exp1.png,exp2.png,trial_left_image,1,exp1.png,4,exp2.png,exp1.png,0,2,non-reversed,incorrect,0.20716467091038815,1,invalid_win,489.1074627004564,43,,,,,,,,,,,,,,,,,,sub_732,2024-01-29_11h40.08.768,Reversal,2022.1.2,59.984403880371055,4,
11,exp3.png,exp4.png,,,,,,,,,,,,,,,,,,1,0,1,0,0,11,11,11,,,,,,,,,False,30,91,False,exp3.png,exp4.png,trial_left_image,1,exp3.png,4,exp3.png,exp4.png,0,4,reversed,correct,0.011299720443260886,0,invalid_lose,493.30784989893436,43,,,,,,,,,,,,,,,,,,sub_732,2024-01-29_11h40.08.768,Reversal,2022.1.2,59.984403880371055,4,
12,exp1.png,exp2.png,,,,,,,,,,,,,,,,,,1,0,1,0,0,12,12,12,,,,,,,,,False,31,92,False,exp1.png,exp2.png,trial_left_image,1,exp1.png,4,exp2.png,exp1.png,0,2,non-reversed,incorrect,0.5247429670439815,0,valid_lose,497.44079839996994,43,,,,,,,,,,,,,,,,,,sub_732,2024-01-29_11h40.08.768,Reversal,2022.1.2,59.984403880371055,4,
13,exp3.png,exp4.png,,,,,,,,,,,,,,,,,,1,0,1,0,0,13,13,13,,,,,,,,,False,32,93,True,exp4.png,exp3.png,trial_left_image,1,exp4.png,4,exp3.png,exp4.png,1,3,reversed,incorrect,0.8894722085984373,0,valid_lose,502.1247613001615,43,,,,,,,,,,,,,,,,,,sub_732,2024-01-29_11h40.08.768,Reversal,2022.1.2,59.984403880371055,4,
14,exp1.png,exp2.png,,,,,,,,,,,,,,,,,,1,0,1,0,0,14,14,14,,,,,,,,,False,33,94,True,exp2.png,exp1.png,trial_left_image,1,exp2.png,4,exp2.png,exp1.png,1,1,non-reversed,correct,0.041221165271539184,0,invalid_lose,506.0743461996317,43,,,,,,,,,,,,,,,,,,sub_732,2024-01-29_11h40.08.768,Reversal,2022.1.2,59.984403880371055,4,
15,exp3.png,exp4.png,,,,,,,,,,,,,,,,,,1,0,1,0,0,15,15,15,,,,,,,,,False,34,95,False,exp3.png,exp4.png,trial_right_image,-1,exp4.png,4,exp3.png,exp4.png,1,3,reversed,incorrect,0.42936115353936577,0,valid_lose,511.97411729954183,43,,,,,,,,,,,,,,,,,,sub_732,2024-01-29_11h40.08.768,Reversal,2022.1.2,59.984403880371055,4,
16,exp1.png,exp2.png,,,,,,,,,,,,,,,,,,1,0,1,0,0,16,16,16,,,,,,,,,False,35,96,True,exp2.png,exp1.png,trial_right_image,-1,exp1.png,4,exp2.png,exp1.png,0,2,non-reversed,incorrect,0.8409765360166884,0,valid_lose,516.1743291001767,43,,,,,,,,,,,,,,,,,,sub_732,2024-01-29_11h40.08.768,Reversal,2022.1.2,59.984403880371055,4,
17,exp3.png,exp4.png,,,,,,,,,,,,,,,,,,1,0,1,0,0,17,17,17,,,,,,,,,False,36,97,False,exp3.png,exp4.png,trial_left_image,1,exp3.png,4,exp3.png,exp4.png,0,4,reversed,correct,0.7126146814709899,1,valid_win,520.5405577998608,44,,,,,,,,,,,,,,,,,,sub_732,2024-01-29_11h40.08.768,Reversal,2022.1.2,59.984403880371055,4,
18,exp1.png,exp2.png,,,,,,,,,,,,,,,,,,1,0,1,0,0,18,18,18,,,,,,,,,False,37,98,True,exp2.png,exp1.png,trial_right_image,-1,exp1.png,4,exp2.png,exp1.png,0,2,non-reversed,incorrect,0.050986352745959085,1,invalid_win,525.29103679955,45,,,,,,,,,,,,,,,,,,sub_732,2024-01-29_11h40.08.768,Reversal,2022.1.2,59.984403880371055,4,
19,exp3.png,exp4.png,,,,,,,,,,,,,,,,,,1,0,1,0,0,19,19,19,,,,,,,,,False,38,99,True,exp4.png,exp3.png,trial_right_image,-1,exp3.png,4,exp3.png,exp4.png,0,4,reversed,correct,0.9313110554318775,1,valid_win,529.5236916989088,46,,,,,,,,,,,,,,,,,,sub_732,2024-01-29_11h40.08.768,Reversal,2022.1.2,59.984403880371055,4,
20,exp1.png,exp2.png,,,,,,,,,,,,,,,,,,1,0,1,0,0,20,20,20,,,,,,,,,False,39,100,True,exp2.png,exp1.png,trial_right_image,-1,exp1.png,4,exp2.png,exp1.png,0,2,non-reversed,incorrect,0.8385842248716063,0,valid_lose,533.9742252994329,46,,,,,,,,,,,,,,,,,,sub_732,2024-01-29_11h40.08.768,Reversal,2022.1.2,59.984403880371055,4,
,,,exp1.png,,,,,,,,,,,,,,,,,1,0,1,0,,,,,0,0,0,0,0,0,0,0,,,,,,,,,,,,,,,,,,,,,,72.0,10.148480201140046,"[(72.0, 10.148480201140046)]",621.1706733014435,None,72.0,,,,,,,,,,,,sub_732,2024-01-29_11h40.08.768,Reversal,2022.1.2,59.984403880371055,4,
,,,exp2.png,,,,,,,,,,,,,,,,,1,0,1,0,,,,,0,0,0,0,0,1,1,1,,,,,,,,,,,,,,,,,,,,,,73.0,4.83407430164516,"[(73.0, 4.83407430164516)]",632.3887266013771,None,,73.0,,,,,,,,,,,sub_732,2024-01-29_11h40.08.768,Reversal,2022.1.2,59.984403880371055,4,
,,,exp3.png,,,,,,,,,,,,,,,,,1,0,1,0,,,,,0,0,0,0,0,2,2,2,,,,,,,,,,,,,,,,,,,,,,69.0,2.366846799850464,"[(69.0, 2.366846799850464)]",638.2027858998626,None,,,69.0,,,,,,,,,,sub_732,2024-01-29_11h40.08.768,Reversal,2022.1.2,59.984403880371055,4,
,,,exp4.png,,,,,,,,,,,,,,,,,1,0,1,0,,,,,0,0,0,0,0,3,3,3,,,,,,,,,,,,,,,,,,,,,,72.0,1.080459900200367,"[(72.0, 1.080459900200367)]",641.6026847008616,None,,,,72.0,,,,,,,,,sub_732,2024-01-29_11h40.08.768,Reversal,2022.1.2,59.984403880371055,4,
0,exp1.png,exp2.png,,,,,,,,,,,,,,,,,,2,0,2,0,0,0,0,0,,,,,,,,,True,,,,,,,,,,,,,,,,,,,,,,,,,,,,,,,,,,,,,,sub_732,2024-01-29_11h40.08.768,Reversal,2022.1.2,59.984403880371055,4,
1,exp3.png,exp4.png,,,,,,,,,,,,,,,,,,2,0,2,0,0,1,1,1,,,,,,,,,False,40,101,True,exp4.png,exp3.png,trial_left_image,1,exp4.png,4,exp3.png,exp4.png,1,3,reversed,incorrect,0.8924600825390832,0,valid_lose,560.923994699493,46,,,,,,,,,,,,,,,,,,sub_732,2024-01-29_11h40.08.768,Reversal,2022.1.2,59.984403880371055,4,
2,exp1.png,exp2.png,,,,,,,,,,,,,,,,,,2,0,2,0,0,2,2,2,,,,,,,,,False,41,102,False,exp1.png,exp2.png,trial_right_image,-1,exp2.png,4,exp2.png,exp1.png,1,1,non-reversed,correct,0.4723840600570126,1,valid_win,565.1565968003124,47,,,,,,,,,,,,,,,,,,sub_732,2024-01-29_11h40.08.768,Reversal,2022.1.2,59.984403880371055,4,
3,exp3.png,exp4.png,,,,,,,,,,,,,,,,,,2,0,2,0,0,3,3,3,,,,,,,,,False,42,103,False,exp3.png,exp4.png,trial_right_image,-1,exp4.png,4,exp3.png,exp4.png,1,3,reversed,incorrect,0.6589491689477266,0,valid_lose,569.256638199091,47,,,,,,,,,,,,,,,,,,sub_732,2024-01-29_11h40.08.768,Reversal,2022.1.2,59.984403880371055,4,
4,exp1.png,exp2.png,,,,,,,,,,,,,,,,,,2,0,2,0,0,4,4,4,,,,,,,,,False,43,104,False,exp1.png,exp2.png,trial_right_image,-1,exp2.png,4,exp2.png,exp1.png,1,1,non-reversed,correct,0.9123259686268488,1,valid_win,573.3729695007205,48,,,,,,,,,,,,,,,,,,sub_732,2024-01-29_11h40.08.768,Reversal,2022.1.2,59.984403880371055,4,
5,exp3.png,exp4.png,,,,,,,,,,,,,,,,,,2,0,2,0,0,5,5,5,,,,,,,,,False,44,105,False,exp3.png,exp4.png,trial_left_image,1,exp3.png,4,exp3.png,exp4.png,0,4,reversed,correct,0.6122002899683078,1,valid_win,577.7896420005709,49,,,,,,,,,,,,,,,,,,sub_732,2024-01-29_11h40.08.768,Reversal,2022.1.2,59.984403880371055,4,
6,exp1.png,exp2.png,,,,,,,,,,,,,,,,,,2,0,2,0,0,6,6,6,,,,,,,,,False,45,106,True,exp2.png,exp1.png,trial_left_image,1,exp2.png,4,exp2.png,exp1.png,1,1,non-reversed,correct,0.1999101579359227,0,invalid_lose,582.1563102006912,49,,,,,,,,,,,,,,,,,,sub_732,2024-01-29_11h40.08.768,Reversal,2022.1.2,59.984403880371055,4,
7,exp3.png,exp4.png,,,,,,,,,,,,,,,,,,2,0,2,0,0,7,7,7,,,,,,,,,False,46,107,True,exp4.png,exp3.png,trial_left_image,1,exp4.png,4,exp3.png,exp4.png,1,3,reversed,incorrect,0.6221668517759451,0,valid_lose,588.0063688997179,49,,,,,,,,,,,,,,,,,,sub_732,2024-01-29_11h40.08.768,Reversal,2022.1.2,59.984403880371055,4,
8,exp1.png,exp2.png,,,,,,,,,,,,,,,,,,2,0,2,0,0,8,8,8,,,,,,,,,False,47,108,False,exp1.png,exp2.png,trial_right_image,-1,exp2.png,4,exp2.png,exp1.png,1,1,non-reversed,correct,0.10074202426182777,0,invalid_lose,592.5393711999059,49,,,,,,,,,,,,,,,,,,sub_732,2024-01-29_11h40.08.768,Reversal,2022.1.2,59.984403880371055,4,
9,exp3.png,exp4.png,,,,,,,,,,,,,,,,,,2,0,2,0,0,9,9,9,,,,,,,,,False,48,109,True,exp4.png,exp3.png,trial_right_image,-1,exp3.png,4,exp3.png,exp4.png,0,4,reversed,correct,0.42068058474786807,1,valid_win,596.9560320992023,50,,,,,,,,,,,,,,,,,,sub_732,2024-01-29_11h40.08.768,Reversal,2022.1.2,59.984403880371055,4,
10,exp1.png,exp2.png,,,,,,,,,,,,,,,,,,2,0,2,0,0,10,10,10,,,,,,,,,False,49,110,False,exp1.png,exp2.png,trial_left_image,1,exp1.png,4,exp2.png,exp1.png,0,2,non-reversed,incorrect,0.03310468953240897,1,invalid_win,601.572856400162,51,,,,,,,,,,,,,,,,,,sub_732,2024-01-29_11h40.08.768,Reversal,2022.1.2,59.984403880371055,4,
11,exp3.png,exp4.png,,,,,,,,,,,,,,,,,,2,0,2,0,0,11,11,11,,,,,,,,,False,50,111,True,exp4.png,exp3.png,trial_right_image,-1,exp3.png,4,exp3.png,exp4.png,0,4,reversed,correct,0.03141992020253348,0,invalid_lose,606.0060005988926,51,,,,,,,,,,,,,,,,,,sub_732,2024-01-29_11h40.08.768,Reversal,2022.1.2,59.984403880371055,4,
12,exp1.png,exp2.png,,,,,,,,,,,,,,,,,,2,0,2,0,0,12,12,12,,,,,,,,,False,51,112,False,exp1.png,exp2.png,trial_left_image,1,exp1.png,4,exp2.png,exp1.png,0,2,non-reversed,incorrect,0.9334539288330103,0,valid_lose,610.1389339994639,51,,,,,,,,,,,,,,,,,,sub_732,2024-01-29_11h40.08.768,Reversal,2022.1.2,59.984403880371055,4,
13,exp3.png,exp4.png,,,,,,,,,,,,,,,,,,2,0,2,0,0,13,13,13,,,,,,,,,False,52,113,True,exp4.png,exp3.png,trial_right_image,-1,exp3.png,4,exp3.png,exp4.png,0,4,reversed,correct,0.6697710319291341,1,valid_win,615.5895213000476,52,,,,,,,,,,,,,,,,,,sub_732,2024-01-29_11h40.08.768,Reversal,2022.1.2,59.984403880371055,4,
14,exp1.png,exp2.png,,,,,,,,,,,,,,,,,,2,0,2,0,0,14,14,14,,,,,,,,,False,53,114,False,exp1.png,exp2.png,trial_right_image,-1,exp2.png,4,exp2.png,exp1.png,1,1,non-reversed,correct,0.10193988217273042,0,invalid_lose,621.1393394004554,52,,,,,,,,,,,,,,,,,,sub_732,2024-01-29_11h40.08.768,Reversal,2022.1.2,59.984403880371055,4,
15,exp3.png,exp4.png,,,,,,,,,,,,,,,,,,2,0,2,0,0,15,15,15,,,,,,,,,False,54,115,True,exp4.png,exp3.png,trial_right_image,-1,exp3.png,4,exp3.png,exp4.png,0,4,reversed,correct,0.7981042308096269,1,valid_win,626.0551436003298,53,,,,,,,,,,,,,,,,,,sub_732,2024-01-29_11h40.08.768,Reversal,2022.1.2,59.984403880371055,4,
16,exp1.png,exp2.png,,,,,,,,,,,,,,,,,,2,0,2,0,0,16,16,16,,,,,,,,,False,55,116,False,exp1.png,exp2.png,trial_right_image,-1,exp2.png,4,exp2.png,exp1.png,1,1,non-reversed,correct,0.38468530387306366,1,valid_win,631.488506199792,54,,,,,,,,,,,,,,,,,,sub_732,2024-01-29_11h40.08.768,Reversal,2022.1.2,59.984403880371055,4,
17,exp3.png,exp4.png,,,,,,,,,,,,,,,,,,2,0,2,0,0,17,17,17,,,,,,,,,False,56,117,True,exp4.png,exp3.png,trial_right_image,-1,exp3.png,4,exp3.png,exp4.png,0,4,reversed,correct,0.7922443503888748,1,valid_win,637.038856100291,55,,,,,,,,,,,,,,,,,,sub_732,2024-01-29_11h40.08.768,Reversal,2022.1.2,59.984403880371055,4,
18,exp1.png,exp2.png,,,,,,,,,,,,,,,,,,2,0,2,0,0,18,18,18,,,,,,,,,False,57,118,True,exp2.png,exp1.png,trial_left_image,1,exp2.png,4,exp2.png,exp1.png,1,1,non-reversed,correct,0.42993744594114136,1,valid_win,642.8888351991773,56,,,,,,,,,,,,,,,,,,sub_732,2024-01-29_11h40.08.768,Reversal,2022.1.2,59.984403880371055,4,
19,exp3.png,exp4.png,,,,,,,,,,,,,,,,,,2,0,2,0,0,19,19,19,,,,,,,,,False,58,119,True,exp4.png,exp3.png,trial_right_image,-1,exp3.png,4,exp3.png,exp4.png,0,4,reversed,correct,0.027222579361583787,0,invalid_lose,647.138678399846,56,,,,,,,,,,,,,,,,,,sub_732,2024-01-29_11h40.08.768,Reversal,2022.1.2,59.984403880371055,4,
20,exp1.png,exp2.png,,,,,,,,,,,,,,,,,,2,0,2,0,0,20,20,20,,,,,,,,,False,59,120,False,exp1.png,exp2.png,trial_right_image,-1,exp2.png,4,exp2.png,exp1.png,1,1,non-reversed,correct,0.6732675381467487,1,valid_win,652.6551235988736,57,,,,,,,,,,,,,,,,,,sub_732,2024-01-29_11h40.08.768,Reversal,2022.1.2,59.984403880371055,4,
,,,exp1.png,,,,,,,,,,,,,,,,,2,0,2,0,,,,,0,0,0,0,0,0,0,0,,,,,,,,,,,,,,,,,,,,,,22.0,6.57908589951694,"[(1.0, 3.6595727000385523), (32.0, 5.627056499943137), (22.0, 6.57908589951694)]",739.8562587015331,None,22.0,,,,,,,,,,,,sub_732,2024-01-29_11h40.08.768,Reversal,2022.1.2,59.984403880371055,4,
,,,exp2.png,,,,,,,,,,,,,,,,,2,0,2,0,,,,,0,0,0,0,0,1,1,1,,,,,,,,,,,,,,,,,,,,,,79.0,2.83281940035522,"[(79.0, 2.83281940035522)]",747.4484278000891,None,,79.0,,,,,,,,,,,sub_732,2024-01-29_11h40.08.768,Reversal,2022.1.2,59.984403880371055,4,
,,,exp3.png,,,,,,,,,,,,,,,,,2,0,2,0,,,,,0,0,0,0,0,2,2,2,,,,,,,,,,,,,,,,,,,,,,89.0,2.4519245997071266,"[(89.0, 2.4519245997071266)]",751.1964404005557,None,,,89.0,,,,,,,,,,sub_732,2024-01-29_11h40.08.768,Reversal,2022.1.2,59.984403880371055,4,
,,,exp4.png,,,,,,,,,,,,,,,,,2,0,2,0,,,,,0,0,0,0,0,3,3,3,,,,,,,,,,,,,,,,,,,,,,14.0,1.8350319005548954,"[(14.0, 1.8350319005548954)]",754.61537380144,None,,,,14.0,,,,,,,,,sub_732,2024-01-29_11h40.08.768,Reversal,2022.1.2,59.984403880371055,4,
,,,,,,,,,,,,,,,,,,,,,,,,,,,,,,,,,,,,,,,,,,,,,,,,,,,,,,,,57,,,,,,,,,,,60,26,34,330.1568541992456,0,space,32.92953659966588,sub_732,2024-01-29_11h40.08.768,Reversal,2022.1.2,59.984403880371055,4,
