trial_index,trial_image1_file,trial_image2_file,image_file,learning_outer_loop.thisRepN,learning_outer_loop.thisTrialN,learning_outer_loop.thisN,learning_outer_loop.thisIndex,learning_inner_loop.thisRepN,learning_inner_loop.thisTrialN,learning_inner_loop.thisN,learning_inner_loop.thisIndex,learning_estimation_outer_loop.thisRepN,learning_estimation_outer_loop.thisTrialN,learning_estimation_outer_loop.thisN,learning_estimation_outer_loop.thisIndex,learning_estimation_inner_loop.thisRepN,learning_estimation_inner_loop.thisTrialN,learning_estimation_inner_loop.thisN,learning_estimation_inner_loop.thisIndex,reversal_outer_loop.thisRepN,reversal_outer_loop.thisTrialN,reversal_outer_loop.thisN,reversal_outer_loop.thisIndex,reversal_inner_loop.thisRepN,reversal_inner_loop.thisTrialN,reversal_inner_loop.thisN,reversal_inner_loop.thisIndex,reversal_estimation_outer_loop.thisRepN,reversal_estimation_outer_loop.thisTrialN,reversal_estimation_outer_loop.thisN,reversal_estimation_outer_loop.thisIndex,reversal_estimation_inner_loop.thisRepN,reversal_estimation_inner_loop.thisTrialN,reversal_estimation_inner_loop.thisN,reversal_estimation_inner_loop.thisIndex,skipped,total_trial_counter,trial_num,left_right_flip,left_image_file,right_image_file,clicked_stimulus_side,side,clicked_stimulus,version,high_prob_image_file,low_prob_image_file,choice_a,choice_b,pair_type,correct,trial_feedback_random,reward,trial_type,overall_time_after_trial,score,estimation_exp1.png,estimation_rating.response,estimation_rating.rt,estimation_rating.history,estimation_rating.started,estimation_rating.stopped,estimation_exp2.png,estimation_exp3.png,estimation_exp4.png,total_learning_time,total_correct,learning_correct,reversal_correct,total_reversal_time,extra_block,participant,date,expName,psychopyVersion,frameRate,ver,
0,exp1.png,exp2.png,,0,0,0,0,0,0,0,0,,,,,,,,,,,,,,,,,,,,,,,,,False,0,1,False,exp1.png,exp2.png,trial_right_image,-1,exp2.png,2,exp1.png,exp2.png,0,2,non-reversed,incorrect,0.5273589449900344,0,valid_lose,4.933399999514222,0,,,,,,,,,,,,,,,,sub_258,2022-12-29_17h50.07.712,Reversal,2022.1.2,60.02537895141833,2,
1,exp3.png,exp4.png,,0,0,0,0,0,1,1,1,,,,,,,,,,,,,,,,,,,,,,,,,False,1,2,False,exp3.png,exp4.png,trial_left_image,1,exp3.png,2,exp3.png,exp4.png,1,3,reversed,correct,0.3512719511136919,1,valid_win,12.749565999954939,1,,,,,,,,,,,,,,,,sub_258,2022-12-29_17h50.07.712,Reversal,2022.1.2,60.02537895141833,2,
2,exp1.png,exp2.png,,0,0,0,0,0,2,2,2,,,,,,,,,,,,,,,,,,,,,,,,,False,2,3,True,exp2.png,exp1.png,trial_right_image,-1,exp1.png,2,exp1.png,exp2.png,1,1,non-reversed,correct,0.50774715551684,1,valid_win,19.616509599611163,2,,,,,,,,,,,,,,,,sub_258,2022-12-29_17h50.07.712,Reversal,2022.1.2,60.02537895141833,2,
3,exp3.png,exp4.png,,0,0,0,0,0,3,3,3,,,,,,,,,,,,,,,,,,,,,,,,,False,3,4,False,exp3.png,exp4.png,trial_right_image,-1,exp4.png,2,exp3.png,exp4.png,0,4,reversed,incorrect,0.2704115319428104,0,valid_lose,25.233376399613917,2,,,,,,,,,,,,,,,,sub_258,2022-12-29_17h50.07.712,Reversal,2022.1.2,60.02537895141833,2,
4,exp1.png,exp2.png,,0,0,0,0,0,4,4,4,,,,,,,,,,,,,,,,,,,,,,,,,False,4,5,True,exp2.png,exp1.png,trial_left_image,1,exp2.png,2,exp1.png,exp2.png,0,2,non-reversed,incorrect,0.5284363120038359,0,valid_lose,30.165844899602234,2,,,,,,,,,,,,,,,,sub_258,2022-12-29_17h50.07.712,Reversal,2022.1.2,60.02537895141833,2,
5,exp3.png,exp4.png,,0,0,0,0,0,5,5,5,,,,,,,,,,,,,,,,,,,,,,,,,False,5,6,False,exp3.png,exp4.png,trial_left_image,1,exp3.png,2,exp3.png,exp4.png,1,3,reversed,correct,0.2687662181872662,1,valid_win,35.1824688995257,3,,,,,,,,,,,,,,,,sub_258,2022-12-29_17h50.07.712,Reversal,2022.1.2,60.02537895141833,2,
6,exp1.png,exp2.png,,0,0,0,0,0,6,6,6,,,,,,,,,,,,,,,,,,,,,,,,,False,6,7,True,exp2.png,exp1.png,trial_right_image,-1,exp1.png,2,exp1.png,exp2.png,1,1,non-reversed,correct,0.3182547725501127,1,valid_win,39.316167399287224,4,,,,,,,,,,,,,,,,sub_258,2022-12-29_17h50.07.712,Reversal,2022.1.2,60.02537895141833,2,
7,exp3.png,exp4.png,,0,0,0,0,0,7,7,7,,,,,,,,,,,,,,,,,,,,,,,,,False,7,8,False,exp3.png,exp4.png,trial_left_image,1,exp3.png,2,exp3.png,exp4.png,1,3,reversed,correct,0.37186859133720374,1,valid_win,43.79848209954798,5,,,,,,,,,,,,,,,,sub_258,2022-12-29_17h50.07.712,Reversal,2022.1.2,60.02537895141833,2,
8,exp1.png,exp2.png,,0,0,0,0,0,8,8,8,,,,,,,,,,,,,,,,,,,,,,,,,False,8,9,False,exp1.png,exp2.png,trial_left_image,1,exp1.png,2,exp1.png,exp2.png,1,1,non-reversed,correct,0.6054542904665839,1,valid_win,48.53214299958199,6,,,,,,,,,,,,,,,,sub_258,2022-12-29_17h50.07.712,Reversal,2022.1.2,60.02537895141833,2,
9,exp3.png,exp4.png,,0,0,0,0,0,9,9,9,,,,,,,,,,,,,,,,,,,,,,,,,False,9,10,False,exp3.png,exp4.png,trial_left_image,1,exp3.png,2,exp3.png,exp4.png,1,3,reversed,correct,0.3164778193602408,1,valid_win,53.16609469987452,7,,,,,,,,,,,,,,,,sub_258,2022-12-29_17h50.07.712,Reversal,2022.1.2,60.02537895141833,2,
10,exp1.png,exp2.png,,0,0,0,0,0,10,10,10,,,,,,,,,,,,,,,,,,,,,,,,,False,10,11,True,exp2.png,exp1.png,trial_right_image,-1,exp1.png,2,exp1.png,exp2.png,1,1,non-reversed,correct,0.28289074546521054,1,valid_win,57.6656988998875,8,,,,,,,,,,,,,,,,sub_258,2022-12-29_17h50.07.712,Reversal,2022.1.2,60.02537895141833,2,
11,exp3.png,exp4.png,,0,0,0,0,0,11,11,11,,,,,,,,,,,,,,,,,,,,,,,,,False,11,12,False,exp3.png,exp4.png,trial_left_image,1,exp3.png,2,exp3.png,exp4.png,1,3,reversed,correct,0.4544217218519496,1,valid_win,62.032289599999785,9,,,,,,,,,,,,,,,,sub_258,2022-12-29_17h50.07.712,Reversal,2022.1.2,60.02537895141833,2,
12,exp1.png,exp2.png,,0,0,0,0,0,12,12,12,,,,,,,,,,,,,,,,,,,,,,,,,False,12,13,True,exp2.png,exp1.png,trial_right_image,-1,exp1.png,2,exp1.png,exp2.png,1,1,non-reversed,correct,0.24421056912669747,0,invalid_lose,66.19870809931308,9,,,,,,,,,,,,,,,,sub_258,2022-12-29_17h50.07.712,Reversal,2022.1.2,60.02537895141833,2,
13,exp3.png,exp4.png,,0,0,0,0,0,13,13,13,,,,,,,,,,,,,,,,,,,,,,,,,False,13,14,True,exp4.png,exp3.png,trial_right_image,-1,exp3.png,2,exp3.png,exp4.png,1,3,reversed,correct,0.49176832880876953,1,valid_win,70.54872859921306,10,,,,,,,,,,,,,,,,sub_258,2022-12-29_17h50.07.712,Reversal,2022.1.2,60.02537895141833,2,
14,exp1.png,exp2.png,,0,0,0,0,0,14,14,14,,,,,,,,,,,,,,,,,,,,,,,,,False,14,15,False,exp1.png,exp2.png,trial_right_image,-1,exp2.png,2,exp1.png,exp2.png,0,2,non-reversed,incorrect,0.7765243624104848,0,valid_lose,74.68207119964063,10,,,,,,,,,,,,,,,,sub_258,2022-12-29_17h50.07.712,Reversal,2022.1.2,60.02537895141833,2,
15,exp3.png,exp4.png,,0,0,0,0,0,15,15,15,,,,,,,,,,,,,,,,,,,,,,,,,False,15,16,True,exp4.png,exp3.png,trial_left_image,1,exp4.png,2,exp3.png,exp4.png,0,4,reversed,incorrect,0.14268027961797758,1,invalid_win,79.76507569942623,11,,,,,,,,,,,,,,,,sub_258,2022-12-29_17h50.07.712,Reversal,2022.1.2,60.02537895141833,2,
16,exp1.png,exp2.png,,0,0,0,0,0,16,16,16,,,,,,,,,,,,,,,,,,,,,,,,,False,16,17,True,exp2.png,exp1.png,trial_right_image,-1,exp1.png,2,exp1.png,exp2.png,1,1,non-reversed,correct,0.7596066678429735,1,valid_win,86.01479899976403,12,,,,,,,,,,,,,,,,sub_258,2022-12-29_17h50.07.712,Reversal,2022.1.2,60.02537895141833,2,
17,exp3.png,exp4.png,,0,0,0,0,0,17,17,17,,,,,,,,,,,,,,,,,,,,,,,,,False,17,18,True,exp4.png,exp3.png,trial_left_image,1,exp4.png,2,exp3.png,exp4.png,0,4,reversed,incorrect,0.7973928502793756,0,valid_lose,91.49850149918348,12,,,,,,,,,,,,,,,,sub_258,2022-12-29_17h50.07.712,Reversal,2022.1.2,60.02537895141833,2,
18,exp1.png,exp2.png,,0,0,0,0,0,18,18,18,,,,,,,,,,,,,,,,,,,,,,,,,False,18,19,False,exp1.png,exp2.png,trial_left_image,1,exp1.png,2,exp1.png,exp2.png,1,1,non-reversed,correct,0.45594524945740744,1,valid_win,96.44772599916905,13,,,,,,,,,,,,,,,,sub_258,2022-12-29_17h50.07.712,Reversal,2022.1.2,60.02537895141833,2,
19,exp3.png,exp4.png,,0,0,0,0,0,19,19,19,,,,,,,,,,,,,,,,,,,,,,,,,False,19,20,True,exp4.png,exp3.png,trial_right_image,-1,exp3.png,2,exp3.png,exp4.png,1,3,reversed,correct,0.5366056024170464,1,valid_win,100.43121209926903,14,,,,,,,,,,,,,,,,sub_258,2022-12-29_17h50.07.712,Reversal,2022.1.2,60.02537895141833,2,
20,exp1.png,exp2.png,,0,0,0,0,0,20,20,20,,,,,,,,,,,,,,,,,,,,,,,,,True,,,,,,,,,,,,,,,,,,,,,,,,,,,,,,,,,,,,sub_258,2022-12-29_17h50.07.712,Reversal,2022.1.2,60.02537895141833,2,
,,,exp1.png,0,0,0,0,,,,,0,0,0,0,0,0,0,0,,,,,,,,,,,,,,,,,,,,,,,,,,,,,,,,,,,,,,83.0,83.0,8.641364499926567,"[(83.0, 8.641364499926567)]",159.74479680042714,None,,,,,,,,,,sub_258,2022-12-29_17h50.07.712,Reversal,2022.1.2,60.02537895141833,2,
,,,exp2.png,0,0,0,0,,,,,0,0,0,0,0,1,1,1,,,,,,,,,,,,,,,,,,,,,,,,,,,,,,,,,,,,,,,30.0,9.067593700252473,"[(33.0, 4.666929500177503), (30.0, 9.067593700252473)]",172.03383180033416,None,30.0,,,,,,,,,sub_258,2022-12-29_17h50.07.712,Reversal,2022.1.2,60.02537895141833,2,
,,,exp3.png,0,0,0,0,,,,,0,0,0,0,0,2,2,2,,,,,,,,,,,,,,,,,,,,,,,,,,,,,,,,,,,,,,,80.0,2.9330177009105682,"[(80.0, 2.9330177009105682)]",182.42240720055997,None,,80.0,,,,,,,,sub_258,2022-12-29_17h50.07.712,Reversal,2022.1.2,60.02537895141833,2,
,,,exp4.png,0,0,0,0,,,,,0,0,0,0,0,3,3,3,,,,,,,,,,,,,,,,,,,,,,,,,,,,,,,,,,,,,,,13.0,1.950650000013411,"[(13.0, 1.950650000013411)]",186.39792679995298,None,,,13.0,,,,,,,sub_258,2022-12-29_17h50.07.712,Reversal,2022.1.2,60.02537895141833,2,
0,exp1.png,exp2.png,,1,0,1,0,0,0,0,0,,,,,,,,,,,,,,,,,,,,,,,,,False,20,21,False,exp1.png,exp2.png,trial_left_image,1,exp1.png,2,exp1.png,exp2.png,1,1,non-reversed,correct,0.5162314475333402,1,valid_win,137.3809538995847,15,,,,,,,,,,,,,,,,sub_258,2022-12-29_17h50.07.712,Reversal,2022.1.2,60.02537895141833,2,
1,exp3.png,exp4.png,,1,0,1,0,0,1,1,1,,,,,,,,,,,,,,,,,,,,,,,,,False,21,22,True,exp4.png,exp3.png,trial_right_image,-1,exp3.png,2,exp3.png,exp4.png,1,3,reversed,correct,0.7965366440897146,1,valid_win,141.5141081996262,16,,,,,,,,,,,,,,,,sub_258,2022-12-29_17h50.07.712,Reversal,2022.1.2,60.02537895141833,2,
2,exp1.png,exp2.png,,1,0,1,0,0,2,2,2,,,,,,,,,,,,,,,,,,,,,,,,,False,22,23,True,exp2.png,exp1.png,trial_right_image,-1,exp1.png,2,exp1.png,exp2.png,1,1,non-reversed,correct,0.32802928889785377,1,valid_win,145.7973442999646,17,,,,,,,,,,,,,,,,sub_258,2022-12-29_17h50.07.712,Reversal,2022.1.2,60.02537895141833,2,
3,exp3.png,exp4.png,,1,0,1,0,0,3,3,3,,,,,,,,,,,,,,,,,,,,,,,,,False,23,24,False,exp3.png,exp4.png,trial_left_image,1,exp3.png,2,exp3.png,exp4.png,1,3,reversed,correct,0.588284359224558,1,valid_win,149.93053049966693,18,,,,,,,,,,,,,,,,sub_258,2022-12-29_17h50.07.712,Reversal,2022.1.2,60.02537895141833,2,
4,exp1.png,exp2.png,,1,0,1,0,0,4,4,4,,,,,,,,,,,,,,,,,,,,,,,,,False,24,25,False,exp1.png,exp2.png,trial_left_image,1,exp1.png,2,exp1.png,exp2.png,1,1,non-reversed,correct,0.04990644363327734,0,invalid_lose,154.11284309998155,18,,,,,,,,,,,,,,,,sub_258,2022-12-29_17h50.07.712,Reversal,2022.1.2,60.02537895141833,2,
5,exp3.png,exp4.png,,1,0,1,0,0,5,5,5,,,,,,,,,,,,,,,,,,,,,,,,,False,25,26,True,exp4.png,exp3.png,trial_left_image,1,exp4.png,2,exp3.png,exp4.png,0,4,reversed,incorrect,0.06268362160338847,1,invalid_win,157.98079619929194,19,,,,,,,,,,,,,,,,sub_258,2022-12-29_17h50.07.712,Reversal,2022.1.2,60.02537895141833,2,
6,exp1.png,exp2.png,,1,0,1,0,0,6,6,6,,,,,,,,,,,,,,,,,,,,,,,,,False,26,27,True,exp2.png,exp1.png,trial_left_image,1,exp2.png,2,exp1.png,exp2.png,0,2,non-reversed,incorrect,0.22871910939155515,1,invalid_win,162.03051469940692,20,,,,,,,,,,,,,,,,sub_258,2022-12-29_17h50.07.712,Reversal,2022.1.2,60.02537895141833,2,
7,exp3.png,exp4.png,,1,0,1,0,0,7,7,7,,,,,,,,,,,,,,,,,,,,,,,,,False,27,28,True,exp4.png,exp3.png,trial_left_image,1,exp4.png,2,exp3.png,exp4.png,0,4,reversed,incorrect,0.6690737416304627,0,valid_lose,166.72980029974133,20,,,,,,,,,,,,,,,,sub_258,2022-12-29_17h50.07.712,Reversal,2022.1.2,60.02537895141833,2,
8,exp1.png,exp2.png,,1,0,1,0,0,8,8,8,,,,,,,,,,,,,,,,,,,,,,,,,False,28,29,False,exp1.png,exp2.png,trial_right_image,-1,exp2.png,2,exp1.png,exp2.png,0,2,non-reversed,incorrect,0.9391360980441081,0,valid_lose,170.77980109956115,20,,,,,,,,,,,,,,,,sub_258,2022-12-29_17h50.07.712,Reversal,2022.1.2,60.02537895141833,2,
9,exp3.png,exp4.png,,1,0,1,0,0,9,9,9,,,,,,,,,,,,,,,,,,,,,,,,,False,29,30,False,exp3.png,exp4.png,trial_left_image,1,exp3.png,2,exp3.png,exp4.png,1,3,reversed,correct,0.8623564659848324,1,valid_win,175.54623929969966,21,,,,,,,,,,,,,,,,sub_258,2022-12-29_17h50.07.712,Reversal,2022.1.2,60.02537895141833,2,
10,exp1.png,exp2.png,,1,0,1,0,0,10,10,10,,,,,,,,,,,,,,,,,,,,,,,,,False,30,31,False,exp1.png,exp2.png,trial_left_image,1,exp1.png,2,exp1.png,exp2.png,1,1,non-reversed,correct,0.3994924379410163,1,valid_win,179.57968379929662,22,,,,,,,,,,,,,,,,sub_258,2022-12-29_17h50.07.712,Reversal,2022.1.2,60.02537895141833,2,
11,exp3.png,exp4.png,,1,0,1,0,0,11,11,11,,,,,,,,,,,,,,,,,,,,,,,,,False,31,32,True,exp4.png,exp3.png,trial_right_image,-1,exp3.png,2,exp3.png,exp4.png,1,3,reversed,correct,0.8321697735952336,1,valid_win,183.8969239993021,23,,,,,,,,,,,,,,,,sub_258,2022-12-29_17h50.07.712,Reversal,2022.1.2,60.02537895141833,2,
12,exp1.png,exp2.png,,1,0,1,0,0,12,12,12,,,,,,,,,,,,,,,,,,,,,,,,,False,32,33,False,exp1.png,exp2.png,trial_left_image,1,exp1.png,2,exp1.png,exp2.png,1,1,non-reversed,correct,0.8619800210068355,1,valid_win,187.7959402995184,24,,,,,,,,,,,,,,,,sub_258,2022-12-29_17h50.07.712,Reversal,2022.1.2,60.02537895141833,2,
13,exp3.png,exp4.png,,1,0,1,0,0,13,13,13,,,,,,,,,,,,,,,,,,,,,,,,,False,33,34,False,exp3.png,exp4.png,trial_left_image,1,exp3.png,2,exp3.png,exp4.png,1,3,reversed,correct,0.5393204364404925,1,valid_win,191.81285449955612,25,,,,,,,,,,,,,,,,sub_258,2022-12-29_17h50.07.712,Reversal,2022.1.2,60.02537895141833,2,
14,exp1.png,exp2.png,,1,0,1,0,0,14,14,14,,,,,,,,,,,,,,,,,,,,,,,,,False,34,35,False,exp1.png,exp2.png,trial_left_image,1,exp1.png,2,exp1.png,exp2.png,1,1,non-reversed,correct,0.9598056402077472,1,valid_win,195.8127620993182,26,,,,,,,,,,,,,,,,sub_258,2022-12-29_17h50.07.712,Reversal,2022.1.2,60.02537895141833,2,
15,exp3.png,exp4.png,,1,0,1,0,0,15,15,15,,,,,,,,,,,,,,,,,,,,,,,,,False,35,36,True,exp4.png,exp3.png,trial_right_image,-1,exp3.png,2,exp3.png,exp4.png,1,3,reversed,correct,0.024743235952051523,0,invalid_lose,200.19660229980946,26,,,,,,,,,,,,,,,,sub_258,2022-12-29_17h50.07.712,Reversal,2022.1.2,60.02537895141833,2,
16,exp1.png,exp2.png,,1,0,1,0,0,16,16,16,,,,,,,,,,,,,,,,,,,,,,,,,False,36,37,False,exp1.png,exp2.png,trial_left_image,1,exp1.png,2,exp1.png,exp2.png,1,1,non-reversed,correct,0.38830518831408656,1,valid_win,204.1465541999787,27,,,,,,,,,,,,,,,,sub_258,2022-12-29_17h50.07.712,Reversal,2022.1.2,60.02537895141833,2,
17,exp3.png,exp4.png,,1,0,1,0,0,17,17,17,,,,,,,,,,,,,,,,,,,,,,,,,False,37,38,True,exp4.png,exp3.png,trial_left_image,1,exp4.png,2,exp3.png,exp4.png,0,4,reversed,incorrect,0.5751469078080488,0,valid_lose,208.14610399957746,27,,,,,,,,,,,,,,,,sub_258,2022-12-29_17h50.07.712,Reversal,2022.1.2,60.02537895141833,2,
18,exp1.png,exp2.png,,1,0,1,0,0,18,18,18,,,,,,,,,,,,,,,,,,,,,,,,,False,38,39,True,exp2.png,exp1.png,trial_left_image,1,exp2.png,2,exp1.png,exp2.png,0,2,non-reversed,incorrect,0.16413762797726805,1,invalid_win,212.24640229996294,28,,,,,,,,,,,,,,,,sub_258,2022-12-29_17h50.07.712,Reversal,2022.1.2,60.02537895141833,2,
19,exp3.png,exp4.png,,1,0,1,0,0,19,19,19,,,,,,,,,,,,,,,,,,,,,,,,,False,39,40,True,exp4.png,exp3.png,trial_left_image,1,exp4.png,2,exp3.png,exp4.png,0,4,reversed,incorrect,0.9616863355174438,0,valid_lose,216.26294889952987,28,,,,,,,,,,,,,,,,sub_258,2022-12-29_17h50.07.712,Reversal,2022.1.2,60.02537895141833,2,
20,exp1.png,exp2.png,,1,0,1,0,0,20,20,20,,,,,,,,,,,,,,,,,,,,,,,,,True,,,,,,,,,,,,,,,,,,,,,,,,,,,,,,,,,,,,sub_258,2022-12-29_17h50.07.712,Reversal,2022.1.2,60.02537895141833,2,
,,,exp1.png,1,0,1,0,,,,,0,0,0,0,0,0,0,0,,,,,,,,,,,,,,,,,,,,,,,,,,,,,,,,,,,,,,69.0,69.0,5.160610499791801,"[(69.0, 5.160610499791801)]",275.58872359991074,None,,,,,,,,,,sub_258,2022-12-29_17h50.07.712,Reversal,2022.1.2,60.02537895141833,2,
,,,exp2.png,1,0,1,0,,,,,0,0,0,0,0,1,1,1,,,,,,,,,,,,,,,,,,,,,,,,,,,,,,,,,,,,,,,39.0,5.08495320007205,"[(39.0, 5.08495320007205)]",281.9625818999484,None,39.0,,,,,,,,,sub_258,2022-12-29_17h50.07.712,Reversal,2022.1.2,60.02537895141833,2,
,,,exp3.png,1,0,1,0,,,,,0,0,0,0,0,2,2,2,,,,,,,,,,,,,,,,,,,,,,,,,,,,,,,,,,,,,,,61.0,8.116951999254525,"[(61.0, 8.116951999254525)]",288.2642402006313,None,,61.0,,,,,,,,sub_258,2022-12-29_17h50.07.712,Reversal,2022.1.2,60.02537895141833,2,
,,,exp4.png,1,0,1,0,,,,,0,0,0,0,0,3,3,3,,,,,,,,,,,,,,,,,,,,,,,,,,,,,,,,,,,,,,,36.0,4.132946000434458,"[(36.0, 4.132946000434458)]",297.46483170054853,None,,,36.0,,,,,,,sub_258,2022-12-29_17h50.07.712,Reversal,2022.1.2,60.02537895141833,2,
0,exp1.png,exp2.png,,2,0,2,0,0,0,0,0,,,,,,,,,,,,,,,,,,,,,,,,,False,40,41,True,exp2.png,exp1.png,trial_right_image,-1,exp1.png,2,exp1.png,exp2.png,1,1,non-reversed,correct,0.6055539560981115,1,valid_win,249.21137070003897,29,,,,,,,,,,,,,,,,sub_258,2022-12-29_17h50.07.712,Reversal,2022.1.2,60.02537895141833,2,
1,exp3.png,exp4.png,,2,0,2,0,0,1,1,1,,,,,,,,,,,,,,,,,,,,,,,,,False,41,42,False,exp3.png,exp4.png,trial_left_image,1,exp3.png,2,exp3.png,exp4.png,1,3,reversed,correct,0.15165425803847798,0,invalid_lose,253.71185950003564,29,,,,,,,,,,,,,,,,sub_258,2022-12-29_17h50.07.712,Reversal,2022.1.2,60.02537895141833,2,
2,exp1.png,exp2.png,,2,0,2,0,0,2,2,2,,,,,,,,,,,,,,,,,,,,,,,,,False,42,43,True,exp2.png,exp1.png,trial_left_image,1,exp2.png,2,exp1.png,exp2.png,0,2,non-reversed,incorrect,0.3432992954138927,0,valid_lose,257.76206129975617,29,,,,,,,,,,,,,,,,sub_258,2022-12-29_17h50.07.712,Reversal,2022.1.2,60.02537895141833,2,
3,exp3.png,exp4.png,,2,0,2,0,0,3,3,3,,,,,,,,,,,,,,,,,,,,,,,,,False,43,44,False,exp3.png,exp4.png,trial_right_image,-1,exp4.png,2,exp3.png,exp4.png,0,4,reversed,incorrect,0.7762330256695587,0,valid_lose,262.2121150000021,29,,,,,,,,,,,,,,,,sub_258,2022-12-29_17h50.07.712,Reversal,2022.1.2,60.02537895141833,2,
4,exp1.png,exp2.png,,2,0,2,0,0,4,4,4,,,,,,,,,,,,,,,,,,,,,,,,,False,44,45,True,exp2.png,exp1.png,trial_right_image,-1,exp1.png,2,exp1.png,exp2.png,1,1,non-reversed,correct,0.637913763791517,1,valid_win,266.94550599996,30,,,,,,,,,,,,,,,,sub_258,2022-12-29_17h50.07.712,Reversal,2022.1.2,60.02537895141833,2,
5,exp3.png,exp4.png,,2,0,2,0,0,5,5,5,,,,,,,,,,,,,,,,,,,,,,,,,False,45,46,False,exp3.png,exp4.png,trial_left_image,1,exp3.png,2,exp3.png,exp4.png,1,3,reversed,correct,0.46794368294700395,1,valid_win,271.07869019918144,31,,,,,,,,,,,,,,,,sub_258,2022-12-29_17h50.07.712,Reversal,2022.1.2,60.02537895141833,2,
6,exp1.png,exp2.png,,2,0,2,0,0,6,6,6,,,,,,,,,,,,,,,,,,,,,,,,,False,46,47,False,exp1.png,exp2.png,trial_left_image,1,exp1.png,2,exp1.png,exp2.png,1,1,non-reversed,correct,0.864623783278026,1,valid_win,275.1285735992715,32,,,,,,,,,,,,,,,,sub_258,2022-12-29_17h50.07.712,Reversal,2022.1.2,60.02537895141833,2,
7,exp3.png,exp4.png,,2,0,2,0,0,7,7,7,,,,,,,,,,,,,,,,,,,,,,,,,False,47,48,True,exp4.png,exp3.png,trial_right_image,-1,exp3.png,2,exp3.png,exp4.png,1,3,reversed,correct,0.5974031420867706,1,valid_win,279.41135070007294,33,,,,,,,,,,,,,,,,sub_258,2022-12-29_17h50.07.712,Reversal,2022.1.2,60.02537895141833,2,
8,exp1.png,exp2.png,,2,0,2,0,0,8,8,8,,,,,,,,,,,,,,,,,,,,,,,,,False,48,49,True,exp2.png,exp1.png,trial_right_image,-1,exp1.png,2,exp1.png,exp2.png,1,1,non-reversed,correct,0.3072560727073055,1,valid_win,283.4444813998416,34,,,,,,,,,,,,,,,,sub_258,2022-12-29_17h50.07.712,Reversal,2022.1.2,60.02537895141833,2,
9,exp3.png,exp4.png,,2,0,2,0,0,9,9,9,,,,,,,,,,,,,,,,,,,,,,,,,False,49,50,True,exp4.png,exp3.png,trial_right_image,-1,exp3.png,2,exp3.png,exp4.png,1,3,reversed,correct,0.9368479625557214,1,valid_win,287.578398199752,35,,,,,,,,,,,,,,,,sub_258,2022-12-29_17h50.07.712,Reversal,2022.1.2,60.02537895141833,2,
10,exp1.png,exp2.png,,2,0,2,0,0,10,10,10,,,,,,,,,,,,,,,,,,,,,,,,,False,50,51,False,exp1.png,exp2.png,trial_left_image,1,exp1.png,2,exp1.png,exp2.png,1,1,non-reversed,correct,0.2146274003172014,0,invalid_lose,291.5779987992719,35,,,,,,,,,,,,,,,,sub_258,2022-12-29_17h50.07.712,Reversal,2022.1.2,60.02537895141833,2,
11,exp3.png,exp4.png,,2,0,2,0,0,11,11,11,,,,,,,,,,,,,,,,,,,,,,,,,False,51,52,True,exp4.png,exp3.png,trial_right_image,-1,exp3.png,2,exp3.png,exp4.png,1,3,reversed,correct,0.4952709556380599,1,valid_win,295.4939071992412,36,,,,,,,,,,,,,,,,sub_258,2022-12-29_17h50.07.712,Reversal,2022.1.2,60.02537895141833,2,
12,exp1.png,exp2.png,,2,0,2,0,0,12,12,12,,,,,,,,,,,,,,,,,,,,,,,,,False,52,53,False,exp1.png,exp2.png,trial_right_image,-1,exp2.png,2,exp1.png,exp2.png,0,2,non-reversed,incorrect,0.3804058219042161,0,valid_lose,299.5615351991728,36,,,,,,,,,,,,,,,,sub_258,2022-12-29_17h50.07.712,Reversal,2022.1.2,60.02537895141833,2,
13,exp3.png,exp4.png,,2,0,2,0,0,13,13,13,,,,,,,,,,,,,,,,,,,,,,,,,False,53,54,False,exp3.png,exp4.png,trial_right_image,-1,exp4.png,2,exp3.png,exp4.png,0,4,reversed,incorrect,0.6901153262580924,0,valid_lose,303.6614407999441,36,,,,,,,,,,,,,,,,sub_258,2022-12-29_17h50.07.712,Reversal,2022.1.2,60.02537895141833,2,
14,exp1.png,exp2.png,,2,0,2,0,0,14,14,14,,,,,,,,,,,,,,,,,,,,,,,,,False,54,55,False,exp1.png,exp2.png,trial_left_image,1,exp1.png,2,exp1.png,exp2.png,1,1,non-reversed,correct,0.33074962216595016,1,valid_win,307.5942623997107,37,,,,,,,,,,,,,,,,sub_258,2022-12-29_17h50.07.712,Reversal,2022.1.2,60.02537895141833,2,
15,exp3.png,exp4.png,,2,0,2,0,0,15,15,15,,,,,,,,,,,,,,,,,,,,,,,,,False,55,56,False,exp3.png,exp4.png,trial_left_image,1,exp3.png,2,exp3.png,exp4.png,1,3,reversed,correct,0.2736843243190388,1,valid_win,311.66072349995375,38,,,,,,,,,,,,,,,,sub_258,2022-12-29_17h50.07.712,Reversal,2022.1.2,60.02537895141833,2,
16,exp1.png,exp2.png,,2,0,2,0,0,16,16,16,,,,,,,,,,,,,,,,,,,,,,,,,False,56,57,True,exp2.png,exp1.png,trial_right_image,-1,exp1.png,2,exp1.png,exp2.png,1,1,non-reversed,correct,0.35266320748583835,1,valid_win,315.71100459992886,39,,,,,,,,,,,,,,,,sub_258,2022-12-29_17h50.07.712,Reversal,2022.1.2,60.02537895141833,2,
17,exp3.png,exp4.png,,2,0,2,0,0,17,17,17,,,,,,,,,,,,,,,,,,,,,,,,,False,57,58,False,exp3.png,exp4.png,trial_left_image,1,exp3.png,2,exp3.png,exp4.png,1,3,reversed,correct,0.28079641637831165,1,valid_win,319.8103124992922,40,,,,,,,,,,,,,,,,sub_258,2022-12-29_17h50.07.712,Reversal,2022.1.2,60.02537895141833,2,
18,exp1.png,exp2.png,,2,0,2,0,0,18,18,18,,,,,,,,,,,,,,,,,,,,,,,,,False,58,59,True,exp2.png,exp1.png,trial_right_image,-1,exp1.png,2,exp1.png,exp2.png,1,1,non-reversed,correct,0.20028916363160776,0,invalid_lose,323.8435632996261,40,,,,,,,,,,,,,,,,sub_258,2022-12-29_17h50.07.712,Reversal,2022.1.2,60.02537895141833,2,
19,exp3.png,exp4.png,,2,0,2,0,0,19,19,19,,,,,,,,,,,,,,,,,,,,,,,,,False,59,60,True,exp4.png,exp3.png,trial_right_image,-1,exp3.png,2,exp3.png,exp4.png,1,3,reversed,correct,0.5880854718907842,1,valid_win,327.8278868999332,41,,,,,,,,,,,,,,,,sub_258,2022-12-29_17h50.07.712,Reversal,2022.1.2,60.02537895141833,2,
20,exp1.png,exp2.png,,2,0,2,0,0,20,20,20,,,,,,,,,,,,,,,,,,,,,,,,,True,,,,,,,,,,,,,,,,,,,,,,,,,,,,,,,,,,,,sub_258,2022-12-29_17h50.07.712,Reversal,2022.1.2,60.02537895141833,2,
,,,exp1.png,2,0,2,0,,,,,0,0,0,0,0,0,0,0,,,,,,,,,,,,,,,,,,,,,,,,,,,,,,,,,,,,,,80.0,80.0,3.8185296999290586,"[(80.0, 3.8185296999290586)]",387.16150410007685,None,,,,,,,,,,sub_258,2022-12-29_17h50.07.712,Reversal,2022.1.2,60.02537895141833,2,
,,,exp2.png,2,0,2,0,,,,,0,0,0,0,0,1,1,1,,,,,,,,,,,,,,,,,,,,,,,,,,,,,,,,,,,,,,,15.0,4.55234960000962,"[(9.0, 3.0339646004140377), (15.0, 4.55234960000962)]",391.993969200179,None,15.0,,,,,,,,,sub_258,2022-12-29_17h50.07.712,Reversal,2022.1.2,60.02537895141833,2,
,,,exp3.png,2,0,2,0,,,,,0,0,0,0,0,2,2,2,,,,,,,,,,,,,,,,,,,,,,,,,,,,,,,,,,,,,,,88.0,3.2829632004722953,"[(88.0, 3.2829632004722953)]",397.5283374004066,None,,88.0,,,,,,,,sub_258,2022-12-29_17h50.07.712,Reversal,2022.1.2,60.02537895141833,2,
,,,exp4.png,2,0,2,0,,,,,0,0,0,0,0,3,3,3,,,,,,,,,,,,,,,,,,,,,,,,,,,,,,,,,,,,,,,11.0,1.5140441004186869,"[(11.0, 1.5140441004186869)]",401.66299459990114,None,,,11.0,,,,,,,sub_258,2022-12-29_17h50.07.712,Reversal,2022.1.2,60.02537895141833,2,
0,exp1.png,exp2.png,,,,,,,,,,,,,,,,,,0,0,0,0,0,0,0,0,,,,,,,,,False,0,61,True,exp2.png,exp1.png,trial_right_image,-1,exp1.png,2,exp1.png,exp2.png,1,1,non-reversed,correct,0.28580269835699557,1,valid_win,349.8099785996601,42,,,,,,,,,,347.71744439937174,,,,,,sub_258,2022-12-29_17h50.07.712,Reversal,2022.1.2,60.02537895141833,2,
1,exp3.png,exp4.png,,,,,,,,,,,,,,,,,,0,0,0,0,0,1,1,1,,,,,,,,,False,1,62,False,exp3.png,exp4.png,trial_right_image,-1,exp4.png,2,exp4.png,exp3.png,0,4,reversed,correct,0.8014087152732369,1,valid_win,353.8939437996596,43,,,,,,,,,,,,,,,,sub_258,2022-12-29_17h50.07.712,Reversal,2022.1.2,60.02537895141833,2,
2,exp1.png,exp2.png,,,,,,,,,,,,,,,,,,0,0,0,0,0,2,2,2,,,,,,,,,False,2,63,False,exp1.png,exp2.png,trial_left_image,1,exp1.png,2,exp1.png,exp2.png,1,1,non-reversed,correct,0.29310260394759735,1,valid_win,357.99379869922996,44,,,,,,,,,,,,,,,,sub_258,2022-12-29_17h50.07.712,Reversal,2022.1.2,60.02537895141833,2,
3,exp3.png,exp4.png,,,,,,,,,,,,,,,,,,0,0,0,0,0,3,3,3,,,,,,,,,False,3,64,True,exp4.png,exp3.png,trial_left_image,1,exp4.png,2,exp4.png,exp3.png,0,4,reversed,correct,0.8676692002964352,1,valid_win,362.0434876997024,45,,,,,,,,,,,,,,,,sub_258,2022-12-29_17h50.07.712,Reversal,2022.1.2,60.02537895141833,2,
4,exp1.png,exp2.png,,,,,,,,,,,,,,,,,,0,0,0,0,0,4,4,4,,,,,,,,,False,4,65,False,exp1.png,exp2.png,trial_left_image,1,exp1.png,2,exp1.png,exp2.png,1,1,non-reversed,correct,0.28954623542657343,1,valid_win,365.96040780004114,46,,,,,,,,,,,,,,,,sub_258,2022-12-29_17h50.07.712,Reversal,2022.1.2,60.02537895141833,2,
5,exp3.png,exp4.png,,,,,,,,,,,,,,,,,,0,0,0,0,0,5,5,5,,,,,,,,,False,5,66,True,exp4.png,exp3.png,trial_right_image,-1,exp3.png,2,exp4.png,exp3.png,1,3,reversed,incorrect,0.349967789488247,0,valid_lose,370.17636869940907,46,,,,,,,,,,,,,,,,sub_258,2022-12-29_17h50.07.712,Reversal,2022.1.2,60.02537895141833,2,
6,exp1.png,exp2.png,,,,,,,,,,,,,,,,,,0,0,0,0,0,6,6,6,,,,,,,,,False,6,67,True,exp2.png,exp1.png,trial_right_image,-1,exp1.png,2,exp1.png,exp2.png,1,1,non-reversed,correct,0.871446167719593,1,valid_win,374.5599114000797,47,,,,,,,,,,,,,,,,sub_258,2022-12-29_17h50.07.712,Reversal,2022.1.2,60.02537895141833,2,
7,exp3.png,exp4.png,,,,,,,,,,,,,,,,,,0,0,0,0,0,7,7,7,,,,,,,,,False,7,68,True,exp4.png,exp3.png,trial_left_image,1,exp4.png,2,exp4.png,exp3.png,0,4,reversed,correct,0.4401827869966729,1,valid_win,378.5091576995328,48,,,,,,,,,,,,,,,,sub_258,2022-12-29_17h50.07.712,Reversal,2022.1.2,60.02537895141833,2,
8,exp1.png,exp2.png,,,,,,,,,,,,,,,,,,0,0,0,0,0,8,8,8,,,,,,,,,False,8,69,True,exp2.png,exp1.png,trial_right_image,-1,exp1.png,2,exp1.png,exp2.png,1,1,non-reversed,correct,0.10433444330512553,0,invalid_lose,382.4263348998502,48,,,,,,,,,,,,,,,,sub_258,2022-12-29_17h50.07.712,Reversal,2022.1.2,60.02537895141833,2,
9,exp3.png,exp4.png,,,,,,,,,,,,,,,,,,0,0,0,0,0,9,9,9,,,,,,,,,False,9,70,True,exp4.png,exp3.png,trial_left_image,1,exp4.png,2,exp4.png,exp3.png,0,4,reversed,correct,0.18076387670528948,0,invalid_lose,386.29326740000397,48,,,,,,,,,,,,,,,,sub_258,2022-12-29_17h50.07.712,Reversal,2022.1.2,60.02537895141833,2,
10,exp1.png,exp2.png,,,,,,,,,,,,,,,,,,0,0,0,0,0,10,10,10,,,,,,,,,False,10,71,False,exp1.png,exp2.png,trial_right_image,-1,exp2.png,2,exp1.png,exp2.png,0,2,non-reversed,incorrect,0.8443874032487336,0,valid_lose,390.77606609929353,48,,,,,,,,,,,,,,,,sub_258,2022-12-29_17h50.07.712,Reversal,2022.1.2,60.02537895141833,2,
11,exp3.png,exp4.png,,,,,,,,,,,,,,,,,,0,0,0,0,0,11,11,11,,,,,,,,,False,11,72,False,exp3.png,exp4.png,trial_right_image,-1,exp4.png,2,exp4.png,exp3.png,0,4,reversed,correct,0.44450196844052026,1,valid_win,395.425858899951,49,,,,,,,,,,,,,,,,sub_258,2022-12-29_17h50.07.712,Reversal,2022.1.2,60.02537895141833,2,
12,exp1.png,exp2.png,,,,,,,,,,,,,,,,,,0,0,0,0,0,12,12,12,,,,,,,,,False,12,73,False,exp1.png,exp2.png,trial_left_image,1,exp1.png,2,exp1.png,exp2.png,1,1,non-reversed,correct,0.6700469541161191,1,valid_win,399.54312909953296,50,,,,,,,,,,,,,,,,sub_258,2022-12-29_17h50.07.712,Reversal,2022.1.2,60.02537895141833,2,
13,exp3.png,exp4.png,,,,,,,,,,,,,,,,,,0,0,0,0,0,13,13,13,,,,,,,,,False,13,74,True,exp4.png,exp3.png,trial_left_image,1,exp4.png,2,exp4.png,exp3.png,0,4,reversed,correct,0.9580360492142834,1,valid_win,404.12641149945557,51,,,,,,,,,,,,,,,,sub_258,2022-12-29_17h50.07.712,Reversal,2022.1.2,60.02537895141833,2,
14,exp1.png,exp2.png,,,,,,,,,,,,,,,,,,0,0,0,0,0,14,14,14,,,,,,,,,False,14,75,False,exp1.png,exp2.png,trial_left_image,1,exp1.png,2,exp1.png,exp2.png,1,1,non-reversed,correct,0.1597802791349815,0,invalid_lose,408.526190799661,51,,,,,,,,,,,,,,,,sub_258,2022-12-29_17h50.07.712,Reversal,2022.1.2,60.02537895141833,2,
15,exp3.png,exp4.png,,,,,,,,,,,,,,,,,,0,0,0,0,0,15,15,15,,,,,,,,,False,15,76,True,exp4.png,exp3.png,trial_left_image,1,exp4.png,2,exp4.png,exp3.png,0,4,reversed,correct,0.740305935522389,1,valid_win,412.67564349994063,52,,,,,,,,,,,,,,,,sub_258,2022-12-29_17h50.07.712,Reversal,2022.1.2,60.02537895141833,2,
16,exp1.png,exp2.png,,,,,,,,,,,,,,,,,,0,0,0,0,0,16,16,16,,,,,,,,,False,16,77,False,exp1.png,exp2.png,trial_left_image,1,exp1.png,2,exp1.png,exp2.png,1,1,non-reversed,correct,0.4235992265556089,1,valid_win,416.6759692998603,53,,,,,,,,,,,,,,,,sub_258,2022-12-29_17h50.07.712,Reversal,2022.1.2,60.02537895141833,2,
17,exp3.png,exp4.png,,,,,,,,,,,,,,,,,,0,0,0,0,0,17,17,17,,,,,,,,,False,17,78,False,exp3.png,exp4.png,trial_left_image,1,exp3.png,2,exp4.png,exp3.png,1,3,reversed,incorrect,0.7747680486806873,0,valid_lose,420.65944819990546,53,,,,,,,,,,,,,,,,sub_258,2022-12-29_17h50.07.712,Reversal,2022.1.2,60.02537895141833,2,
18,exp1.png,exp2.png,,,,,,,,,,,,,,,,,,0,0,0,0,0,18,18,18,,,,,,,,,False,18,79,True,exp2.png,exp1.png,trial_right_image,-1,exp1.png,2,exp1.png,exp2.png,1,1,non-reversed,correct,0.12634098762968515,0,invalid_lose,424.77553589921445,53,,,,,,,,,,,,,,,,sub_258,2022-12-29_17h50.07.712,Reversal,2022.1.2,60.02537895141833,2,
19,exp3.png,exp4.png,,,,,,,,,,,,,,,,,,0,0,0,0,0,19,19,19,,,,,,,,,False,19,80,False,exp3.png,exp4.png,trial_right_image,-1,exp4.png,2,exp4.png,exp3.png,0,4,reversed,correct,0.646846038455268,1,valid_win,428.82504799962044,54,,,,,,,,,,,,,,,,sub_258,2022-12-29_17h50.07.712,Reversal,2022.1.2,60.02537895141833,2,
20,exp1.png,exp2.png,,,,,,,,,,,,,,,,,,0,0,0,0,0,20,20,20,,,,,,,,,True,,,,,,,,,,,,,,,,,,,,,,,,,,,,,,,,,,,,sub_258,2022-12-29_17h50.07.712,Reversal,2022.1.2,60.02537895141833,2,
,,,exp1.png,,,,,,,,,,,,,,,,,0,0,0,0,,,,,0,0,0,0,0,0,0,0,,,,,,,,,,,,,,,,,,,,,,88.0,88.0,1.9783263001590967,"[(88.0, 1.9783263001590967)]",488.15118730068207,None,,,,,,,,,,sub_258,2022-12-29_17h50.07.712,Reversal,2022.1.2,60.02537895141833,2,
,,,exp2.png,,,,,,,,,,,,,,,,,0,0,0,0,,,,,0,0,0,0,0,1,1,1,,,,,,,,,,,,,,,,,,,,,,,12.0,4.032325699925423,"[(12.0, 4.032325699925423)]",491.04604949988425,None,12.0,,,,,,,,,sub_258,2022-12-29_17h50.07.712,Reversal,2022.1.2,60.02537895141833,2,
,,,exp3.png,,,,,,,,,,,,,,,,,0,0,0,0,,,,,0,0,0,0,0,2,2,2,,,,,,,,,,,,,,,,,,,,,,,24.0,3.0991307999938726,"[(24.0, 3.0991307999938726)]",496.1266375007108,None,,24.0,,,,,,,,sub_258,2022-12-29_17h50.07.712,Reversal,2022.1.2,60.02537895141833,2,
,,,exp4.png,,,,,,,,,,,,,,,,,0,0,0,0,,,,,0,0,0,0,0,3,3,3,,,,,,,,,,,,,,,,,,,,,,,85.0,3.635312699712813,"[(84.0, 2.0835164999589324), (85.0, 3.635312699712813)]",500.20983650069684,None,,,85.0,,,,,,,sub_258,2022-12-29_17h50.07.712,Reversal,2022.1.2,60.02537895141833,2,
0,exp1.png,exp2.png,,,,,,,,,,,,,,,,,,1,0,1,0,0,0,0,0,,,,,,,,,False,20,81,False,exp1.png,exp2.png,trial_left_image,1,exp1.png,2,exp1.png,exp2.png,1,1,non-reversed,correct,0.0354969162930342,0,invalid_lose,450.09094469994307,54,,,,,,,,,,,,,,,,sub_258,2022-12-29_17h50.07.712,Reversal,2022.1.2,60.02537895141833,2,
1,exp3.png,exp4.png,,,,,,,,,,,,,,,,,,1,0,1,0,0,1,1,1,,,,,,,,,False,21,82,False,exp3.png,exp4.png,trial_right_image,-1,exp4.png,2,exp4.png,exp3.png,0,4,reversed,correct,0.2009097414532488,0,invalid_lose,454.89156429935247,54,,,,,,,,,,,,,,,,sub_258,2022-12-29_17h50.07.712,Reversal,2022.1.2,60.02537895141833,2,
2,exp1.png,exp2.png,,,,,,,,,,,,,,,,,,1,0,1,0,0,2,2,2,,,,,,,,,False,22,83,True,exp2.png,exp1.png,trial_left_image,1,exp2.png,2,exp1.png,exp2.png,0,2,non-reversed,incorrect,0.14417730609565094,1,invalid_win,462.99147239979357,55,,,,,,,,,,,,,,,,sub_258,2022-12-29_17h50.07.712,Reversal,2022.1.2,60.02537895141833,2,
3,exp3.png,exp4.png,,,,,,,,,,,,,,,,,,1,0,1,0,0,3,3,3,,,,,,,,,False,23,84,True,exp4.png,exp3.png,trial_right_image,-1,exp3.png,2,exp4.png,exp3.png,1,3,reversed,incorrect,0.8401653420326999,0,valid_lose,467.04178639966995,55,,,,,,,,,,,,,,,,sub_258,2022-12-29_17h50.07.712,Reversal,2022.1.2,60.02537895141833,2,
4,exp1.png,exp2.png,,,,,,,,,,,,,,,,,,1,0,1,0,0,4,4,4,,,,,,,,,False,24,85,True,exp2.png,exp1.png,trial_left_image,1,exp2.png,2,exp1.png,exp2.png,0,2,non-reversed,incorrect,0.9148442711605386,0,valid_lose,471.1081986995414,55,,,,,,,,,,,,,,,,sub_258,2022-12-29_17h50.07.712,Reversal,2022.1.2,60.02537895141833,2,
5,exp3.png,exp4.png,,,,,,,,,,,,,,,,,,1,0,1,0,0,5,5,5,,,,,,,,,False,25,86,False,exp3.png,exp4.png,trial_left_image,1,exp3.png,2,exp4.png,exp3.png,1,3,reversed,incorrect,0.8934559501547554,0,valid_lose,477.27433619927615,55,,,,,,,,,,,,,,,,sub_258,2022-12-29_17h50.07.712,Reversal,2022.1.2,60.02537895141833,2,
6,exp1.png,exp2.png,,,,,,,,,,,,,,,,,,1,0,1,0,0,6,6,6,,,,,,,,,False,26,87,False,exp1.png,exp2.png,trial_right_image,-1,exp2.png,2,exp1.png,exp2.png,0,2,non-reversed,incorrect,0.9402133916502428,0,valid_lose,481.907657799311,55,,,,,,,,,,,,,,,,sub_258,2022-12-29_17h50.07.712,Reversal,2022.1.2,60.02537895141833,2,
7,exp3.png,exp4.png,,,,,,,,,,,,,,,,,,1,0,1,0,0,7,7,7,,,,,,,,,False,27,88,True,exp4.png,exp3.png,trial_left_image,1,exp4.png,2,exp4.png,exp3.png,0,4,reversed,correct,0.2024914256696122,0,invalid_lose,486.20841259974986,55,,,,,,,,,,,,,,,,sub_258,2022-12-29_17h50.07.712,Reversal,2022.1.2,60.02537895141833,2,
8,exp1.png,exp2.png,,,,,,,,,,,,,,,,,,1,0,1,0,0,8,8,8,,,,,,,,,False,28,89,False,exp1.png,exp2.png,trial_left_image,1,exp1.png,2,exp1.png,exp2.png,1,1,non-reversed,correct,0.13549931057139075,0,invalid_lose,490.0913747996092,55,,,,,,,,,,,,,,,,sub_258,2022-12-29_17h50.07.712,Reversal,2022.1.2,60.02537895141833,2,
9,exp3.png,exp4.png,,,,,,,,,,,,,,,,,,1,0,1,0,0,9,9,9,,,,,,,,,False,29,90,True,exp4.png,exp3.png,trial_right_image,-1,exp3.png,2,exp4.png,exp3.png,1,3,reversed,incorrect,0.6120570346807767,0,valid_lose,493.9745387993753,55,,,,,,,,,,,,,,,,sub_258,2022-12-29_17h50.07.712,Reversal,2022.1.2,60.02537895141833,2,
10,exp1.png,exp2.png,,,,,,,,,,,,,,,,,,1,0,1,0,0,10,10,10,,,,,,,,,False,30,91,False,exp1.png,exp2.png,trial_right_image,-1,exp2.png,2,exp1.png,exp2.png,0,2,non-reversed,incorrect,0.022289765858588106,1,invalid_win,499.0562143996358,56,,,,,,,,,,,,,,,,sub_258,2022-12-29_17h50.07.712,Reversal,2022.1.2,60.02537895141833,2,
11,exp3.png,exp4.png,,,,,,,,,,,,,,,,,,1,0,1,0,0,11,11,11,,,,,,,,,False,31,92,True,exp4.png,exp3.png,trial_left_image,1,exp4.png,2,exp4.png,exp3.png,0,4,reversed,correct,0.33700635520267463,1,valid_win,503.24109679926187,57,,,,,,,,,,,,,,,,sub_258,2022-12-29_17h50.07.712,Reversal,2022.1.2,60.02537895141833,2,
12,exp1.png,exp2.png,,,,,,,,,,,,,,,,,,1,0,1,0,0,12,12,12,,,,,,,,,False,32,93,True,exp2.png,exp1.png,trial_left_image,1,exp2.png,2,exp1.png,exp2.png,0,2,non-reversed,incorrect,0.2337198100082526,1,invalid_win,507.22431789990515,58,,,,,,,,,,,,,,,,sub_258,2022-12-29_17h50.07.712,Reversal,2022.1.2,60.02537895141833,2,
13,exp3.png,exp4.png,,,,,,,,,,,,,,,,,,1,0,1,0,0,13,13,13,,,,,,,,,False,33,94,True,exp4.png,exp3.png,trial_left_image,1,exp4.png,2,exp4.png,exp3.png,0,4,reversed,correct,0.43946811635987526,1,valid_win,511.0409110998735,59,,,,,,,,,,,,,,,,sub_258,2022-12-29_17h50.07.712,Reversal,2022.1.2,60.02537895141833,2,
14,exp1.png,exp2.png,,,,,,,,,,,,,,,,,,1,0,1,0,0,14,14,14,,,,,,,,,False,34,95,False,exp1.png,exp2.png,trial_right_image,-1,exp2.png,2,exp1.png,exp2.png,0,2,non-reversed,incorrect,0.6261350762702553,0,valid_lose,515.4070049999282,59,,,,,,,,,,,,,,,,sub_258,2022-12-29_17h50.07.712,Reversal,2022.1.2,60.02537895141833,2,
15,exp3.png,exp4.png,,,,,,,,,,,,,,,,,,1,0,1,0,0,15,15,15,,,,,,,,,False,35,96,False,exp3.png,exp4.png,trial_left_image,1,exp3.png,2,exp4.png,exp3.png,1,3,reversed,incorrect,0.10836071993593754,1,invalid_win,519.3899598997086,60,,,,,,,,,,,,,,,,sub_258,2022-12-29_17h50.07.712,Reversal,2022.1.2,60.02537895141833,2,
16,exp1.png,exp2.png,,,,,,,,,,,,,,,,,,1,0,1,0,0,16,16,16,,,,,,,,,False,36,97,True,exp2.png,exp1.png,trial_left_image,1,exp2.png,2,exp1.png,exp2.png,0,2,non-reversed,incorrect,0.48179050310031246,0,valid_lose,523.3903494998813,60,,,,,,,,,,,,,,,,sub_258,2022-12-29_17h50.07.712,Reversal,2022.1.2,60.02537895141833,2,
17,exp3.png,exp4.png,,,,,,,,,,,,,,,,,,1,0,1,0,0,17,17,17,,,,,,,,,False,37,98,False,exp3.png,exp4.png,trial_right_image,-1,exp4.png,2,exp4.png,exp3.png,0,4,reversed,correct,0.45484196074640637,1,valid_win,527.3740908000618,61,,,,,,,,,,,,,,,,sub_258,2022-12-29_17h50.07.712,Reversal,2022.1.2,60.02537895141833,2,
18,exp1.png,exp2.png,,,,,,,,,,,,,,,,,,1,0,1,0,0,18,18,18,,,,,,,,,False,38,99,True,exp2.png,exp1.png,trial_right_image,-1,exp1.png,2,exp1.png,exp2.png,1,1,non-reversed,correct,0.25948422415837014,1,valid_win,531.3066227994859,62,,,,,,,,,,,,,,,,sub_258,2022-12-29_17h50.07.712,Reversal,2022.1.2,60.02537895141833,2,
19,exp3.png,exp4.png,,,,,,,,,,,,,,,,,,1,0,1,0,0,19,19,19,,,,,,,,,False,39,100,False,exp3.png,exp4.png,trial_right_image,-1,exp4.png,2,exp4.png,exp3.png,0,4,reversed,correct,0.46828382458671014,1,valid_win,535.3405504999682,63,,,,,,,,,,,,,,,,sub_258,2022-12-29_17h50.07.712,Reversal,2022.1.2,60.02537895141833,2,
20,exp1.png,exp2.png,,,,,,,,,,,,,,,,,,1,0,1,0,0,20,20,20,,,,,,,,,True,,,,,,,,,,,,,,,,,,,,,,,,,,,,,,,,,,,,sub_258,2022-12-29_17h50.07.712,Reversal,2022.1.2,60.02537895141833,2,
,,,exp1.png,,,,,,,,,,,,,,,,,1,0,1,0,,,,,0,0,0,0,0,0,0,0,,,,,,,,,,,,,,,,,,,,,,68.0,68.0,2.204520800150931,"[(68.0, 2.204520800150931)]",594.6590023003519,None,,,,,,,,,,sub_258,2022-12-29_17h50.07.712,Reversal,2022.1.2,60.02537895141833,2,
,,,exp2.png,,,,,,,,,,,,,,,,,1,0,1,0,,,,,0,0,0,0,0,1,1,1,,,,,,,,,,,,,,,,,,,,,,,25.0,2.7162876995280385,"[(25.0, 2.7162876995280385)]",597.7904337001964,None,25.0,,,,,,,,,sub_258,2022-12-29_17h50.07.712,Reversal,2022.1.2,60.02537895141833,2,
,,,exp3.png,,,,,,,,,,,,,,,,,1,0,1,0,,,,,0,0,0,0,0,2,2,2,,,,,,,,,,,,,,,,,,,,,,,35.0,2.931173499673605,"[(35.0, 2.931173499673605)]",601.4940926004201,None,,35.0,,,,,,,,sub_258,2022-12-29_17h50.07.712,Reversal,2022.1.2,60.02537895141833,2,
,,,exp4.png,,,,,,,,,,,,,,,,,1,0,1,0,,,,,0,0,0,0,0,3,3,3,,,,,,,,,,,,,,,,,,,,,,,70.0,1.2186765000224113,"[(70.0, 1.2186765000224113)]",605.2229778002948,None,,,70.0,,,,,,,sub_258,2022-12-29_17h50.07.712,Reversal,2022.1.2,60.02537895141833,2,
0,exp1.png,exp2.png,,,,,,,,,,,,,,,,,,2,0,2,0,0,0,0,0,,,,,,,,,False,40,101,True,exp2.png,exp1.png,trial_right_image,-1,exp1.png,2,exp1.png,exp2.png,1,1,non-reversed,correct,0.4484989305555902,1,valid_win,552.9565153997391,64,,,,,,,,,,,,,,,,sub_258,2022-12-29_17h50.07.712,Reversal,2022.1.2,60.02537895141833,2,
1,exp3.png,exp4.png,,,,,,,,,,,,,,,,,,2,0,2,0,0,1,1,1,,,,,,,,,False,41,102,False,exp3.png,exp4.png,trial_left_image,1,exp3.png,2,exp4.png,exp3.png,1,3,reversed,incorrect,0.47273747124006227,0,valid_lose,557.6562632992864,64,,,,,,,,,,,,,,,,sub_258,2022-12-29_17h50.07.712,Reversal,2022.1.2,60.02537895141833,2,
2,exp1.png,exp2.png,,,,,,,,,,,,,,,,,,2,0,2,0,0,2,2,2,,,,,,,,,False,42,103,False,exp1.png,exp2.png,trial_left_image,1,exp1.png,2,exp1.png,exp2.png,1,1,non-reversed,correct,0.11867076849555658,0,invalid_lose,561.9066168991849,64,,,,,,,,,,,,,,,,sub_258,2022-12-29_17h50.07.712,Reversal,2022.1.2,60.02537895141833,2,
3,exp3.png,exp4.png,,,,,,,,,,,,,,,,,,2,0,2,0,0,3,3,3,,,,,,,,,False,43,104,True,exp4.png,exp3.png,trial_right_image,-1,exp3.png,2,exp4.png,exp3.png,1,3,reversed,incorrect,0.2961200488325064,0,valid_lose,565.8895043991506,64,,,,,,,,,,,,,,,,sub_258,2022-12-29_17h50.07.712,Reversal,2022.1.2,60.02537895141833,2,
4,exp1.png,exp2.png,,,,,,,,,,,,,,,,,,2,0,2,0,0,4,4,4,,,,,,,,,False,44,105,True,exp2.png,exp1.png,trial_right_image,-1,exp1.png,2,exp1.png,exp2.png,1,1,non-reversed,correct,0.23806545195069595,0,invalid_lose,571.1732115000486,64,,,,,,,,,,,,,,,,sub_258,2022-12-29_17h50.07.712,Reversal,2022.1.2,60.02537895141833,2,
5,exp3.png,exp4.png,,,,,,,,,,,,,,,,,,2,0,2,0,0,5,5,5,,,,,,,,,False,45,106,False,exp3.png,exp4.png,trial_left_image,1,exp3.png,2,exp4.png,exp3.png,1,3,reversed,incorrect,0.4743467231489703,0,valid_lose,574.9896284993738,64,,,,,,,,,,,,,,,,sub_258,2022-12-29_17h50.07.712,Reversal,2022.1.2,60.02537895141833,2,
6,exp1.png,exp2.png,,,,,,,,,,,,,,,,,,2,0,2,0,0,6,6,6,,,,,,,,,False,46,107,False,exp1.png,exp2.png,trial_right_image,-1,exp2.png,2,exp1.png,exp2.png,0,2,non-reversed,incorrect,0.9916155976863538,0,valid_lose,578.9394668992609,64,,,,,,,,,,,,,,,,sub_258,2022-12-29_17h50.07.712,Reversal,2022.1.2,60.02537895141833,2,
7,exp3.png,exp4.png,,,,,,,,,,,,,,,,,,2,0,2,0,0,7,7,7,,,,,,,,,False,47,108,False,exp3.png,exp4.png,trial_right_image,-1,exp4.png,2,exp4.png,exp3.png,0,4,reversed,correct,0.28424441940881884,1,valid_win,582.8730913996696,65,,,,,,,,,,,,,,,,sub_258,2022-12-29_17h50.07.712,Reversal,2022.1.2,60.02537895141833,2,
8,exp1.png,exp2.png,,,,,,,,,,,,,,,,,,2,0,2,0,0,8,8,8,,,,,,,,,False,48,109,True,exp2.png,exp1.png,trial_left_image,1,exp2.png,2,exp1.png,exp2.png,0,2,non-reversed,incorrect,0.5506348589738617,0,valid_lose,587.6058454997838,65,,,,,,,,,,,,,,,,sub_258,2022-12-29_17h50.07.712,Reversal,2022.1.2,60.02537895141833,2,
9,exp3.png,exp4.png,,,,,,,,,,,,,,,,,,2,0,2,0,0,9,9,9,,,,,,,,,False,49,110,False,exp3.png,exp4.png,trial_right_image,-1,exp4.png,2,exp4.png,exp3.png,0,4,reversed,correct,0.31959098937982044,1,valid_win,594.6393275000155,66,,,,,,,,,,,,,,,,sub_258,2022-12-29_17h50.07.712,Reversal,2022.1.2,60.02537895141833,2,
10,exp1.png,exp2.png,,,,,,,,,,,,,,,,,,2,0,2,0,0,10,10,10,,,,,,,,,False,50,111,True,exp2.png,exp1.png,trial_right_image,-1,exp1.png,2,exp1.png,exp2.png,1,1,non-reversed,correct,0.8793736400608849,1,valid_win,599.0395790999755,67,,,,,,,,,,,,,,,,sub_258,2022-12-29_17h50.07.712,Reversal,2022.1.2,60.02537895141833,2,
11,exp3.png,exp4.png,,,,,,,,,,,,,,,,,,2,0,2,0,0,11,11,11,,,,,,,,,False,51,112,True,exp4.png,exp3.png,trial_left_image,1,exp4.png,2,exp4.png,exp3.png,0,4,reversed,correct,0.3211545179014631,1,valid_win,603.0057272994891,68,,,,,,,,,,,,,,,,sub_258,2022-12-29_17h50.07.712,Reversal,2022.1.2,60.02537895141833,2,
12,exp1.png,exp2.png,,,,,,,,,,,,,,,,,,2,0,2,0,0,12,12,12,,,,,,,,,False,52,113,False,exp1.png,exp2.png,trial_left_image,1,exp1.png,2,exp1.png,exp2.png,1,1,non-reversed,correct,0.4992727637871749,1,valid_win,607.3055299995467,69,,,,,,,,,,,,,,,,sub_258,2022-12-29_17h50.07.712,Reversal,2022.1.2,60.02537895141833,2,
13,exp3.png,exp4.png,,,,,,,,,,,,,,,,,,2,0,2,0,0,13,13,13,,,,,,,,,False,53,114,False,exp3.png,exp4.png,trial_right_image,-1,exp4.png,2,exp4.png,exp3.png,0,4,reversed,correct,0.9371518564433248,1,valid_win,611.6223817998543,70,,,,,,,,,,,,,,,,sub_258,2022-12-29_17h50.07.712,Reversal,2022.1.2,60.02537895141833,2,
14,exp1.png,exp2.png,,,,,,,,,,,,,,,,,,2,0,2,0,0,14,14,14,,,,,,,,,False,54,115,True,exp2.png,exp1.png,trial_right_image,-1,exp1.png,2,exp1.png,exp2.png,1,1,non-reversed,correct,0.8193598886906274,1,valid_win,616.8221167996526,71,,,,,,,,,,,,,,,,sub_258,2022-12-29_17h50.07.712,Reversal,2022.1.2,60.02537895141833,2,
15,exp3.png,exp4.png,,,,,,,,,,,,,,,,,,2,0,2,0,0,15,15,15,,,,,,,,,False,55,116,True,exp4.png,exp3.png,trial_left_image,1,exp4.png,2,exp4.png,exp3.png,0,4,reversed,correct,0.6302359671082797,1,valid_win,621.1889538997784,72,,,,,,,,,,,,,,,,sub_258,2022-12-29_17h50.07.712,Reversal,2022.1.2,60.02537895141833,2,
16,exp1.png,exp2.png,,,,,,,,,,,,,,,,,,2,0,2,0,0,16,16,16,,,,,,,,,False,56,117,False,exp1.png,exp2.png,trial_left_image,1,exp1.png,2,exp1.png,exp2.png,1,1,non-reversed,correct,0.11422913413781244,0,invalid_lose,626.1055461000651,72,,,,,,,,,,,,,,,,sub_258,2022-12-29_17h50.07.712,Reversal,2022.1.2,60.02537895141833,2,
17,exp3.png,exp4.png,,,,,,,,,,,,,,,,,,2,0,2,0,0,17,17,17,,,,,,,,,False,57,118,True,exp4.png,exp3.png,trial_left_image,1,exp4.png,2,exp4.png,exp3.png,0,4,reversed,correct,0.5674331004255396,1,valid_win,630.5053007993847,73,,,,,,,,,,,,,,,,sub_258,2022-12-29_17h50.07.712,Reversal,2022.1.2,60.02537895141833,2,
18,exp1.png,exp2.png,,,,,,,,,,,,,,,,,,2,0,2,0,0,18,18,18,,,,,,,,,False,58,119,True,exp2.png,exp1.png,trial_right_image,-1,exp1.png,2,exp1.png,exp2.png,1,1,non-reversed,correct,0.3047856330717367,1,valid_win,634.937867699191,74,,,,,,,,,,,,,,,,sub_258,2022-12-29_17h50.07.712,Reversal,2022.1.2,60.02537895141833,2,
19,exp3.png,exp4.png,,,,,,,,,,,,,,,,,,2,0,2,0,0,19,19,19,,,,,,,,,False,59,120,False,exp3.png,exp4.png,trial_right_image,-1,exp4.png,2,exp4.png,exp3.png,0,4,reversed,correct,0.695945251424845,1,valid_win,639.1045616995543,75,,,,,,,,,,,,,,,,sub_258,2022-12-29_17h50.07.712,Reversal,2022.1.2,60.02537895141833,2,
20,exp1.png,exp2.png,,,,,,,,,,,,,,,,,,2,0,2,0,0,20,20,20,,,,,,,,,True,,,,,,,,,,,,,,,,,,,,,,,,,,,,,,,,,,,,sub_258,2022-12-29_17h50.07.712,Reversal,2022.1.2,60.02537895141833,2,
,,,exp1.png,,,,,,,,,,,,,,,,,2,0,2,0,,,,,0,0,0,0,0,0,0,0,,,,,,,,,,,,,,,,,,,,,,71.0,71.0,2.3699066005647182,"[(71.0, 2.3699066005647182)]",698.4241085005924,None,,,,,,,,,,sub_258,2022-12-29_17h50.07.712,Reversal,2022.1.2,60.02537895141833,2,
,,,exp2.png,,,,,,,,,,,,,,,,,2,0,2,0,,,,,0,0,0,0,0,1,1,1,,,,,,,,,,,,,,,,,,,,,,,11.0,5.234847200103104,"[(11.0, 5.234847200103104)]",703.1221753004938,None,11.0,,,,,,,,,sub_258,2022-12-29_17h50.07.712,Reversal,2022.1.2,60.02537895141833,2,
,,,exp3.png,,,,,,,,,,,,,,,,,2,0,2,0,,,,,0,0,0,0,0,2,2,2,,,,,,,,,,,,,,,,,,,,,,,35.0,1.4031822001561522,"[(35.0, 1.4031822001561522)]",709.3233208004385,None,,35.0,,,,,,,,sub_258,2022-12-29_17h50.07.712,Reversal,2022.1.2,60.02537895141833,2,
,,,exp4.png,,,,,,,,,,,,,,,,,2,0,2,0,,,,,0,0,0,0,0,3,3,3,,,,,,,,,,,,,,,,,,,,,,,83.0,1.4858341999351978,"[(83.0, 1.4858341999351978)]",711.588623800315,None,,,83.0,,,,,,,sub_258,2022-12-29_17h50.07.712,Reversal,2022.1.2,60.02537895141833,2,
,,,,,,,,,,,,,,,,,,,,,,,,,,,,,,,,,,,,,,,,,,,,,,,,,,,,,,,,75,,,,,,,,,,,84,43,41,309.3230888005346,0,,,,,,,
