trial_index,trial_image1_file,trial_image2_file,image_file,learning_outer_loop.thisRepN,learning_outer_loop.thisTrialN,learning_outer_loop.thisN,learning_outer_loop.thisIndex,learning_inner_loop.thisRepN,learning_inner_loop.thisTrialN,learning_inner_loop.thisN,learning_inner_loop.thisIndex,learning_estimation_outer_loop.thisRepN,learning_estimation_outer_loop.thisTrialN,learning_estimation_outer_loop.thisN,learning_estimation_outer_loop.thisIndex,learning_estimation_inner_loop.thisRepN,learning_estimation_inner_loop.thisTrialN,learning_estimation_inner_loop.thisN,learning_estimation_inner_loop.thisIndex,reversal_outer_loop.thisRepN,reversal_outer_loop.thisTrialN,reversal_outer_loop.thisN,reversal_outer_loop.thisIndex,reversal_inner_loop.thisRepN,reversal_inner_loop.thisTrialN,reversal_inner_loop.thisN,reversal_inner_loop.thisIndex,reversal_estimation_outer_loop.thisRepN,reversal_estimation_outer_loop.thisTrialN,reversal_estimation_outer_loop.thisN,reversal_estimation_outer_loop.thisIndex,reversal_estimation_inner_loop.thisRepN,reversal_estimation_inner_loop.thisTrialN,reversal_estimation_inner_loop.thisN,reversal_estimation_inner_loop.thisIndex,skipped,total_trial_counter,trial_num,left_right_flip,left_image_file,right_image_file,clicked_stimulus_side,side,clicked_stimulus,version,high_prob_image_file,low_prob_image_file,choice_a,choice_b,pair_type,correct,trial_feedback_random,reward,trial_type,overall_time_after_trial,score,estimation_rating.started,estimation_exp1.png,estimation_rating.response,estimation_rating.rt,estimation_rating.history,estimation_exp2.png,estimation_exp3.png,estimation_exp4.png,total_learning_time,total_correct,learning_correct,reversal_correct,total_reversal_time,extra_block,end_experiment.keys,end_experiment.rt,end_experiment.duration,participant,date,expName,psychopyVersion,frameRate,ver,
0,exp1.png,exp2.png,,0,0,0,0,0,0,0,0,,,,,,,,,,,,,,,,,,,,,,,,,False,0,1,True,exp2.png,exp1.png,trial_right_image,-1,exp1.png,4,exp2.png,exp1.png,0,2,non-reversed,incorrect,0.3856784195884575,0,valid_lose,7.063164599999254,0,,,,,,,,,,,,,,,,,,sub_792,2024-03-25_11h18.34.620,Reversal,2023.1.3,60.04776198995601,4,
1,exp3.png,exp4.png,,0,0,0,0,0,1,1,1,,,,,,,,,,,,,,,,,,,,,,,,,False,1,2,False,exp3.png,exp4.png,trial_left_image,1,exp3.png,4,exp4.png,exp3.png,0,4,reversed,incorrect,0.6961210575160747,0,valid_lose,13.244253899999421,0,,,,,,,,,,,,,,,,,,sub_792,2024-03-25_11h18.34.620,Reversal,2023.1.3,60.04776198995601,4,
2,exp1.png,exp2.png,,0,0,0,0,0,2,2,2,,,,,,,,,,,,,,,,,,,,,,,,,False,2,3,True,exp2.png,exp1.png,trial_left_image,1,exp2.png,4,exp2.png,exp1.png,1,1,non-reversed,correct,0.3999659797764369,1,valid_win,19.242196399999557,1,,,,,,,,,,,,,,,,,,sub_792,2024-03-25_11h18.34.620,Reversal,2023.1.3,60.04776198995601,4,
3,exp3.png,exp4.png,,0,0,0,0,0,3,3,3,,,,,,,,,,,,,,,,,,,,,,,,,False,3,4,False,exp3.png,exp4.png,trial_right_image,-1,exp4.png,4,exp4.png,exp3.png,1,3,reversed,correct,0.27777754140538324,1,valid_win,24.157733499999267,2,,,,,,,,,,,,,,,,,,sub_792,2024-03-25_11h18.34.620,Reversal,2023.1.3,60.04776198995601,4,
4,exp1.png,exp2.png,,0,0,0,0,0,4,4,4,,,,,,,,,,,,,,,,,,,,,,,,,False,4,5,False,exp1.png,exp2.png,trial_right_image,-1,exp2.png,4,exp2.png,exp1.png,1,1,non-reversed,correct,0.10305366985498243,0,invalid_lose,33.4377614999994,2,,,,,,,,,,,,,,,,,,sub_792,2024-03-25_11h18.34.620,Reversal,2023.1.3,60.04776198995601,4,
5,exp3.png,exp4.png,,0,0,0,0,0,5,5,5,,,,,,,,,,,,,,,,,,,,,,,,,False,5,6,True,exp4.png,exp3.png,trial_left_image,1,exp4.png,4,exp4.png,exp3.png,1,3,reversed,correct,0.967772914101327,1,valid_win,40.434919099999206,3,,,,,,,,,,,,,,,,,,sub_792,2024-03-25_11h18.34.620,Reversal,2023.1.3,60.04776198995601,4,
6,exp1.png,exp2.png,,0,0,0,0,0,6,6,6,,,,,,,,,,,,,,,,,,,,,,,,,False,6,7,False,exp1.png,exp2.png,trial_right_image,-1,exp2.png,4,exp2.png,exp1.png,1,1,non-reversed,correct,0.16528439207741386,0,invalid_lose,48.51551990000007,3,,,,,,,,,,,,,,,,,,sub_792,2024-03-25_11h18.34.620,Reversal,2023.1.3,60.04776198995601,4,
7,exp3.png,exp4.png,,0,0,0,0,0,7,7,7,,,,,,,,,,,,,,,,,,,,,,,,,False,7,8,True,exp4.png,exp3.png,trial_left_image,1,exp4.png,4,exp4.png,exp3.png,1,3,reversed,correct,0.3932579969110338,1,valid_win,54.63018919999922,4,,,,,,,,,,,,,,,,,,sub_792,2024-03-25_11h18.34.620,Reversal,2023.1.3,60.04776198995601,4,
8,exp1.png,exp2.png,,0,0,0,0,0,8,8,8,,,,,,,,,,,,,,,,,,,,,,,,,False,8,9,False,exp1.png,exp2.png,trial_left_image,1,exp1.png,4,exp2.png,exp1.png,0,2,non-reversed,incorrect,0.804321361868862,0,valid_lose,59.87824550000005,4,,,,,,,,,,,,,,,,,,sub_792,2024-03-25_11h18.34.620,Reversal,2023.1.3,60.04776198995601,4,
9,exp3.png,exp4.png,,0,0,0,0,0,9,9,9,,,,,,,,,,,,,,,,,,,,,,,,,False,9,10,True,exp4.png,exp3.png,trial_left_image,1,exp4.png,4,exp4.png,exp3.png,1,3,reversed,correct,0.8546346511670673,1,valid_win,66.19286179999926,5,,,,,,,,,,,,,,,,,,sub_792,2024-03-25_11h18.34.620,Reversal,2023.1.3,60.04776198995601,4,
10,exp1.png,exp2.png,,0,0,0,0,0,10,10,10,,,,,,,,,,,,,,,,,,,,,,,,,False,10,11,False,exp1.png,exp2.png,trial_right_image,-1,exp2.png,4,exp2.png,exp1.png,1,1,non-reversed,correct,0.8200104003061134,1,valid_win,71.55763169999955,6,,,,,,,,,,,,,,,,,,sub_792,2024-03-25_11h18.34.620,Reversal,2023.1.3,60.04776198995601,4,
11,exp3.png,exp4.png,,0,0,0,0,0,11,11,11,,,,,,,,,,,,,,,,,,,,,,,,,False,11,12,False,exp3.png,exp4.png,trial_right_image,-1,exp4.png,4,exp4.png,exp3.png,1,3,reversed,correct,0.09045890259715361,0,invalid_lose,77.5395037999997,6,,,,,,,,,,,,,,,,,,sub_792,2024-03-25_11h18.34.620,Reversal,2023.1.3,60.04776198995601,4,
12,exp1.png,exp2.png,,0,0,0,0,0,12,12,12,,,,,,,,,,,,,,,,,,,,,,,,,False,12,13,False,exp1.png,exp2.png,trial_right_image,-1,exp2.png,4,exp2.png,exp1.png,1,1,non-reversed,correct,0.9706367234924793,1,valid_win,83.55386589999944,7,,,,,,,,,,,,,,,,,,sub_792,2024-03-25_11h18.34.620,Reversal,2023.1.3,60.04776198995601,4,
13,exp3.png,exp4.png,,0,0,0,0,0,13,13,13,,,,,,,,,,,,,,,,,,,,,,,,,False,13,14,True,exp4.png,exp3.png,trial_left_image,1,exp4.png,4,exp4.png,exp3.png,1,3,reversed,correct,0.5578195583165763,1,valid_win,89.95140899999933,8,,,,,,,,,,,,,,,,,,sub_792,2024-03-25_11h18.34.620,Reversal,2023.1.3,60.04776198995601,4,
14,exp1.png,exp2.png,,0,0,0,0,0,14,14,14,,,,,,,,,,,,,,,,,,,,,,,,,False,14,15,True,exp2.png,exp1.png,trial_right_image,-1,exp1.png,4,exp2.png,exp1.png,0,2,non-reversed,incorrect,0.5208310772755722,0,valid_lose,96.59963779999998,8,,,,,,,,,,,,,,,,,,sub_792,2024-03-25_11h18.34.620,Reversal,2023.1.3,60.04776198995601,4,
15,exp3.png,exp4.png,,0,0,0,0,0,15,15,15,,,,,,,,,,,,,,,,,,,,,,,,,False,15,16,False,exp3.png,exp4.png,trial_right_image,-1,exp4.png,4,exp4.png,exp3.png,1,3,reversed,correct,0.3461443301117234,1,valid_win,103.08130619999974,9,,,,,,,,,,,,,,,,,,sub_792,2024-03-25_11h18.34.620,Reversal,2023.1.3,60.04776198995601,4,
16,exp1.png,exp2.png,,0,0,0,0,0,16,16,16,,,,,,,,,,,,,,,,,,,,,,,,,False,16,17,True,exp2.png,exp1.png,trial_left_image,1,exp2.png,4,exp2.png,exp1.png,1,1,non-reversed,correct,0.7575296672077951,1,valid_win,108.42875920000006,10,,,,,,,,,,,,,,,,,,sub_792,2024-03-25_11h18.34.620,Reversal,2023.1.3,60.04776198995601,4,
17,exp3.png,exp4.png,,0,0,0,0,0,17,17,17,,,,,,,,,,,,,,,,,,,,,,,,,False,17,18,False,exp3.png,exp4.png,trial_right_image,-1,exp4.png,4,exp4.png,exp3.png,1,3,reversed,correct,0.17274190075594298,0,invalid_lose,114.80961269999989,10,,,,,,,,,,,,,,,,,,sub_792,2024-03-25_11h18.34.620,Reversal,2023.1.3,60.04776198995601,4,
18,exp1.png,exp2.png,,0,0,0,0,0,18,18,18,,,,,,,,,,,,,,,,,,,,,,,,,False,18,19,True,exp2.png,exp1.png,trial_left_image,1,exp2.png,4,exp2.png,exp1.png,1,1,non-reversed,correct,0.1769536749064039,0,invalid_lose,120.72465179999926,10,,,,,,,,,,,,,,,,,,sub_792,2024-03-25_11h18.34.620,Reversal,2023.1.3,60.04776198995601,4,
19,exp3.png,exp4.png,,0,0,0,0,0,19,19,19,,,,,,,,,,,,,,,,,,,,,,,,,False,19,20,True,exp4.png,exp3.png,trial_right_image,-1,exp3.png,4,exp4.png,exp3.png,0,4,reversed,incorrect,0.5273400840771588,0,valid_lose,127.13884619999953,10,,,,,,,,,,,,,,,,,,sub_792,2024-03-25_11h18.34.620,Reversal,2023.1.3,60.04776198995601,4,
20,exp1.png,exp2.png,,0,0,0,0,0,20,20,20,,,,,,,,,,,,,,,,,,,,,,,,,True,,,,,,,,,,,,,,,,,,,,,,,,,,,,,,,,,,,,,,sub_792,2024-03-25_11h18.34.620,Reversal,2023.1.3,60.04776198995601,4,
,,,exp1.png,0,0,0,0,,,,,0,0,0,0,0,0,0,0,,,,,,,,,,,,,,,,,,,,,,,,,,,,,,,,,,,,,,191.53505380000024,99.0,99.0,11.097530999999435,"[(99.0, 11.097530999999435)]",,,,,,,,,,,,,sub_792,2024-03-25_11h18.34.620,Reversal,2023.1.3,60.04776198995601,4,
,,,exp2.png,0,0,0,0,,,,,0,0,0,0,0,1,1,1,,,,,,,,,,,,,,,,,,,,,,,,,,,,,,,,,,,,,,204.1618752000004,,1.0,4.524970000000394,"[(1.0, 4.524970000000394)]",1.0,,,,,,,,,,,,sub_792,2024-03-25_11h18.34.620,Reversal,2023.1.3,60.04776198995601,4,
,,,exp3.png,0,0,0,0,,,,,0,0,0,0,0,2,2,2,,,,,,,,,,,,,,,,,,,,,,,,,,,,,,,,,,,,,,210.4408314000002,,14.0,7.094490099999348,"[(14.0, 7.094490099999348)]",,14.0,,,,,,,,,,,sub_792,2024-03-25_11h18.34.620,Reversal,2023.1.3,60.04776198995601,4,
,,,exp4.png,0,0,0,0,,,,,0,0,0,0,0,3,3,3,,,,,,,,,,,,,,,,,,,,,,,,,,,,,,,,,,,,,,218.67292420000012,,94.0,1.9612944000000425,"[(94.0, 1.9612944000000425)]",,,94.0,,,,,,,,,,sub_792,2024-03-25_11h18.34.620,Reversal,2023.1.3,60.04776198995601,4,
0,exp1.png,exp2.png,,1,0,1,0,0,0,0,0,,,,,,,,,,,,,,,,,,,,,,,,,False,20,21,False,exp1.png,exp2.png,trial_right_image,-1,exp2.png,4,exp2.png,exp1.png,1,1,non-reversed,correct,0.5219274260560673,1,valid_win,165.24278149999918,11,,,,,,,,,,,,,,,,,,sub_792,2024-03-25_11h18.34.620,Reversal,2023.1.3,60.04776198995601,4,
1,exp3.png,exp4.png,,1,0,1,0,0,1,1,1,,,,,,,,,,,,,,,,,,,,,,,,,False,21,22,True,exp4.png,exp3.png,trial_right_image,-1,exp3.png,4,exp4.png,exp3.png,0,4,reversed,incorrect,0.15943144530238618,1,invalid_win,171.44108400000005,12,,,,,,,,,,,,,,,,,,sub_792,2024-03-25_11h18.34.620,Reversal,2023.1.3,60.04776198995601,4,
2,exp1.png,exp2.png,,1,0,1,0,0,2,2,2,,,,,,,,,,,,,,,,,,,,,,,,,False,22,23,True,exp2.png,exp1.png,trial_right_image,-1,exp1.png,4,exp2.png,exp1.png,0,2,non-reversed,incorrect,0.4433113277270375,0,valid_lose,192.5666797999993,12,,,,,,,,,,,,,,,,,,sub_792,2024-03-25_11h18.34.620,Reversal,2023.1.3,60.04776198995601,4,
3,exp3.png,exp4.png,,1,0,1,0,0,3,3,3,,,,,,,,,,,,,,,,,,,,,,,,,False,23,24,False,exp3.png,exp4.png,trial_right_image,-1,exp4.png,4,exp4.png,exp3.png,1,3,reversed,correct,0.7103395509955822,1,valid_win,202.84685459999946,13,,,,,,,,,,,,,,,,,,sub_792,2024-03-25_11h18.34.620,Reversal,2023.1.3,60.04776198995601,4,
4,exp1.png,exp2.png,,1,0,1,0,0,4,4,4,,,,,,,,,,,,,,,,,,,,,,,,,False,24,25,True,exp2.png,exp1.png,trial_left_image,1,exp2.png,4,exp2.png,exp1.png,1,1,non-reversed,correct,0.5894639280709283,1,valid_win,207.89508159999968,14,,,,,,,,,,,,,,,,,,sub_792,2024-03-25_11h18.34.620,Reversal,2023.1.3,60.04776198995601,4,
5,exp3.png,exp4.png,,1,0,1,0,0,5,5,5,,,,,,,,,,,,,,,,,,,,,,,,,False,25,26,False,exp3.png,exp4.png,trial_left_image,1,exp3.png,4,exp4.png,exp3.png,0,4,reversed,incorrect,0.4941301626507948,0,valid_lose,213.82613039999978,14,,,,,,,,,,,,,,,,,,sub_792,2024-03-25_11h18.34.620,Reversal,2023.1.3,60.04776198995601,4,
6,exp1.png,exp2.png,,1,0,1,0,0,6,6,6,,,,,,,,,,,,,,,,,,,,,,,,,False,26,27,True,exp2.png,exp1.png,trial_left_image,1,exp2.png,4,exp2.png,exp1.png,1,1,non-reversed,correct,0.13774257036288728,0,invalid_lose,219.20770569999968,14,,,,,,,,,,,,,,,,,,sub_792,2024-03-25_11h18.34.620,Reversal,2023.1.3,60.04776198995601,4,
7,exp3.png,exp4.png,,1,0,1,0,0,7,7,7,,,,,,,,,,,,,,,,,,,,,,,,,False,27,28,False,exp3.png,exp4.png,trial_right_image,-1,exp4.png,4,exp4.png,exp3.png,1,3,reversed,correct,0.3442316348463782,1,valid_win,224.7732103999997,15,,,,,,,,,,,,,,,,,,sub_792,2024-03-25_11h18.34.620,Reversal,2023.1.3,60.04776198995601,4,
8,exp1.png,exp2.png,,1,0,1,0,0,8,8,8,,,,,,,,,,,,,,,,,,,,,,,,,False,28,29,True,exp2.png,exp1.png,trial_right_image,-1,exp1.png,4,exp2.png,exp1.png,0,2,non-reversed,incorrect,0.9774505865424004,0,valid_lose,230.2537317999995,15,,,,,,,,,,,,,,,,,,sub_792,2024-03-25_11h18.34.620,Reversal,2023.1.3,60.04776198995601,4,
9,exp3.png,exp4.png,,1,0,1,0,0,9,9,9,,,,,,,,,,,,,,,,,,,,,,,,,False,29,30,True,exp4.png,exp3.png,trial_right_image,-1,exp3.png,4,exp4.png,exp3.png,0,4,reversed,incorrect,0.6670988579486182,0,valid_lose,236.13543819999995,15,,,,,,,,,,,,,,,,,,sub_792,2024-03-25_11h18.34.620,Reversal,2023.1.3,60.04776198995601,4,
10,exp1.png,exp2.png,,1,0,1,0,0,10,10,10,,,,,,,,,,,,,,,,,,,,,,,,,False,30,31,False,exp1.png,exp2.png,trial_left_image,1,exp1.png,4,exp2.png,exp1.png,0,2,non-reversed,incorrect,0.3473678165085363,0,valid_lose,246.19896729999982,15,,,,,,,,,,,,,,,,,,sub_792,2024-03-25_11h18.34.620,Reversal,2023.1.3,60.04776198995601,4,
11,exp3.png,exp4.png,,1,0,1,0,0,11,11,11,,,,,,,,,,,,,,,,,,,,,,,,,False,31,32,False,exp3.png,exp4.png,trial_left_image,1,exp3.png,4,exp4.png,exp3.png,0,4,reversed,incorrect,0.4772969457426708,0,valid_lose,273.3390774999998,15,,,,,,,,,,,,,,,,,,sub_792,2024-03-25_11h18.34.620,Reversal,2023.1.3,60.04776198995601,4,
12,exp1.png,exp2.png,,1,0,1,0,0,12,12,12,,,,,,,,,,,,,,,,,,,,,,,,,False,32,33,False,exp1.png,exp2.png,trial_right_image,-1,exp2.png,4,exp2.png,exp1.png,1,1,non-reversed,correct,0.13733227815845916,0,invalid_lose,279.28755289999935,15,,,,,,,,,,,,,,,,,,sub_792,2024-03-25_11h18.34.620,Reversal,2023.1.3,60.04776198995601,4,
13,exp3.png,exp4.png,,1,0,1,0,0,13,13,13,,,,,,,,,,,,,,,,,,,,,,,,,False,33,34,True,exp4.png,exp3.png,trial_right_image,-1,exp3.png,4,exp4.png,exp3.png,0,4,reversed,incorrect,0.6582321899981313,0,valid_lose,285.1851592999992,15,,,,,,,,,,,,,,,,,,sub_792,2024-03-25_11h18.34.620,Reversal,2023.1.3,60.04776198995601,4,
14,exp1.png,exp2.png,,1,0,1,0,0,14,14,14,,,,,,,,,,,,,,,,,,,,,,,,,False,34,35,True,exp2.png,exp1.png,trial_right_image,-1,exp1.png,4,exp2.png,exp1.png,0,2,non-reversed,incorrect,0.232162531615962,1,invalid_win,290.3834799999995,16,,,,,,,,,,,,,,,,,,sub_792,2024-03-25_11h18.34.620,Reversal,2023.1.3,60.04776198995601,4,
15,exp3.png,exp4.png,,1,0,1,0,0,15,15,15,,,,,,,,,,,,,,,,,,,,,,,,,False,35,36,True,exp4.png,exp3.png,trial_left_image,1,exp4.png,4,exp4.png,exp3.png,1,3,reversed,correct,0.9979878524005277,1,valid_win,296.26471649999985,17,,,,,,,,,,,,,,,,,,sub_792,2024-03-25_11h18.34.620,Reversal,2023.1.3,60.04776198995601,4,
16,exp1.png,exp2.png,,1,0,1,0,0,16,16,16,,,,,,,,,,,,,,,,,,,,,,,,,False,36,37,False,exp1.png,exp2.png,trial_right_image,-1,exp2.png,4,exp2.png,exp1.png,1,1,non-reversed,correct,0.7951013625323025,1,valid_win,304.7449944,18,,,,,,,,,,,,,,,,,,sub_792,2024-03-25_11h18.34.620,Reversal,2023.1.3,60.04776198995601,4,
17,exp3.png,exp4.png,,1,0,1,0,0,17,17,17,,,,,,,,,,,,,,,,,,,,,,,,,False,37,38,True,exp4.png,exp3.png,trial_left_image,1,exp4.png,4,exp4.png,exp3.png,1,3,reversed,correct,0.08536587164829901,0,invalid_lose,310.47681119999925,18,,,,,,,,,,,,,,,,,,sub_792,2024-03-25_11h18.34.620,Reversal,2023.1.3,60.04776198995601,4,
18,exp1.png,exp2.png,,1,0,1,0,0,18,18,18,,,,,,,,,,,,,,,,,,,,,,,,,False,38,39,False,exp1.png,exp2.png,trial_right_image,-1,exp2.png,4,exp2.png,exp1.png,1,1,non-reversed,correct,0.29686434524991545,1,valid_win,317.45825160000004,19,,,,,,,,,,,,,,,,,,sub_792,2024-03-25_11h18.34.620,Reversal,2023.1.3,60.04776198995601,4,
19,exp3.png,exp4.png,,1,0,1,0,0,19,19,19,,,,,,,,,,,,,,,,,,,,,,,,,False,39,40,False,exp3.png,exp4.png,trial_left_image,1,exp3.png,4,exp4.png,exp3.png,0,4,reversed,incorrect,0.988548662472484,0,valid_lose,323.4053066999995,19,,,,,,,,,,,,,,,,,,sub_792,2024-03-25_11h18.34.620,Reversal,2023.1.3,60.04776198995601,4,
20,exp1.png,exp2.png,,1,0,1,0,0,20,20,20,,,,,,,,,,,,,,,,,,,,,,,,,True,,,,,,,,,,,,,,,,,,,,,,,,,,,,,,,,,,,,,,sub_792,2024-03-25_11h18.34.620,Reversal,2023.1.3,60.04776198995601,4,
,,,exp1.png,1,0,1,0,,,,,0,0,0,0,0,0,0,0,,,,,,,,,,,,,,,,,,,,,,,,,,,,,,,,,,,,,,387.7962948000004,19.0,19.0,6.133968499999355,"[(19.0, 6.133968499999355)]",,,,,,,,,,,,,sub_792,2024-03-25_11h18.34.620,Reversal,2023.1.3,60.04776198995601,4,
,,,exp2.png,1,0,1,0,,,,,0,0,0,0,0,1,1,1,,,,,,,,,,,,,,,,,,,,,,,,,,,,,,,,,,,,,,395.16183790000014,,86.0,3.0599898000000394,"[(86.0, 3.0599898000000394)]",86.0,,,,,,,,,,,,sub_792,2024-03-25_11h18.34.620,Reversal,2023.1.3,60.04776198995601,4,
,,,exp3.png,1,0,1,0,,,,,0,0,0,0,0,2,2,2,,,,,,,,,,,,,,,,,,,,,,,,,,,,,,,,,,,,,,399.5443879000004,,13.0,3.9614965000000666,"[(13.0, 3.9614965000000666)]",,13.0,,,,,,,,,,,sub_792,2024-03-25_11h18.34.620,Reversal,2023.1.3,60.04776198995601,4,
,,,exp4.png,1,0,1,0,,,,,0,0,0,0,0,3,3,3,,,,,,,,,,,,,,,,,,,,,,,,,,,,,,,,,,,,,,404.80898460000026,,80.0,1.1610577000001285,"[(80.0, 1.1610577000001285)]",,,80.0,,,,,,,,,,sub_792,2024-03-25_11h18.34.620,Reversal,2023.1.3,60.04776198995601,4,
0,exp1.png,exp2.png,,2,0,2,0,0,0,0,0,,,,,,,,,,,,,,,,,,,,,,,,,False,40,41,False,exp1.png,exp2.png,trial_right_image,-1,exp2.png,4,exp2.png,exp1.png,1,1,non-reversed,correct,0.6269212361494583,1,valid_win,358.8941369999993,20,,,,,,,,,,,,,,,,,,sub_792,2024-03-25_11h18.34.620,Reversal,2023.1.3,60.04776198995601,4,
1,exp3.png,exp4.png,,2,0,2,0,0,1,1,1,,,,,,,,,,,,,,,,,,,,,,,,,False,41,42,True,exp4.png,exp3.png,trial_left_image,1,exp4.png,4,exp4.png,exp3.png,1,3,reversed,correct,0.424189788396764,1,valid_win,367.0741380999998,21,,,,,,,,,,,,,,,,,,sub_792,2024-03-25_11h18.34.620,Reversal,2023.1.3,60.04776198995601,4,
2,exp1.png,exp2.png,,2,0,2,0,0,2,2,2,,,,,,,,,,,,,,,,,,,,,,,,,False,42,43,False,exp1.png,exp2.png,trial_right_image,-1,exp2.png,4,exp2.png,exp1.png,1,1,non-reversed,correct,0.009857086856326358,0,invalid_lose,372.38874189999933,21,,,,,,,,,,,,,,,,,,sub_792,2024-03-25_11h18.34.620,Reversal,2023.1.3,60.04776198995601,4,
3,exp3.png,exp4.png,,2,0,2,0,0,3,3,3,,,,,,,,,,,,,,,,,,,,,,,,,False,43,44,False,exp3.png,exp4.png,trial_left_image,1,exp3.png,4,exp4.png,exp3.png,0,4,reversed,incorrect,0.12326655569421463,1,invalid_win,377.78691309999977,22,,,,,,,,,,,,,,,,,,sub_792,2024-03-25_11h18.34.620,Reversal,2023.1.3,60.04776198995601,4,
4,exp1.png,exp2.png,,2,0,2,0,0,4,4,4,,,,,,,,,,,,,,,,,,,,,,,,,False,44,45,True,exp2.png,exp1.png,trial_right_image,-1,exp1.png,4,exp2.png,exp1.png,0,2,non-reversed,incorrect,0.1321708858099062,1,invalid_win,383.4020015999995,23,,,,,,,,,,,,,,,,,,sub_792,2024-03-25_11h18.34.620,Reversal,2023.1.3,60.04776198995601,4,
5,exp3.png,exp4.png,,2,0,2,0,0,5,5,5,,,,,,,,,,,,,,,,,,,,,,,,,False,45,46,True,exp4.png,exp3.png,trial_left_image,1,exp4.png,4,exp4.png,exp3.png,1,3,reversed,correct,0.2910780441543295,1,valid_win,390.1166186999999,24,,,,,,,,,,,,,,,,,,sub_792,2024-03-25_11h18.34.620,Reversal,2023.1.3,60.04776198995601,4,
6,exp1.png,exp2.png,,2,0,2,0,0,6,6,6,,,,,,,,,,,,,,,,,,,,,,,,,False,46,47,False,exp1.png,exp2.png,trial_left_image,1,exp1.png,4,exp2.png,exp1.png,0,2,non-reversed,incorrect,0.9303651793745131,0,valid_lose,395.9640419999996,24,,,,,,,,,,,,,,,,,,sub_792,2024-03-25_11h18.34.620,Reversal,2023.1.3,60.04776198995601,4,
7,exp3.png,exp4.png,,2,0,2,0,0,7,7,7,,,,,,,,,,,,,,,,,,,,,,,,,False,47,48,True,exp4.png,exp3.png,trial_left_image,1,exp4.png,4,exp4.png,exp3.png,1,3,reversed,correct,0.24376902662730782,0,invalid_lose,401.51295859999937,24,,,,,,,,,,,,,,,,,,sub_792,2024-03-25_11h18.34.620,Reversal,2023.1.3,60.04776198995601,4,
8,exp1.png,exp2.png,,2,0,2,0,0,8,8,8,,,,,,,,,,,,,,,,,,,,,,,,,False,48,49,True,exp2.png,exp1.png,trial_right_image,-1,exp1.png,4,exp2.png,exp1.png,0,2,non-reversed,incorrect,0.4108514721618626,0,valid_lose,406.3436996999999,24,,,,,,,,,,,,,,,,,,sub_792,2024-03-25_11h18.34.620,Reversal,2023.1.3,60.04776198995601,4,
9,exp3.png,exp4.png,,2,0,2,0,0,9,9,9,,,,,,,,,,,,,,,,,,,,,,,,,False,49,50,True,exp4.png,exp3.png,trial_right_image,-1,exp3.png,4,exp4.png,exp3.png,0,4,reversed,incorrect,0.8764160641534099,0,valid_lose,410.84300899999926,24,,,,,,,,,,,,,,,,,,sub_792,2024-03-25_11h18.34.620,Reversal,2023.1.3,60.04776198995601,4,
10,exp1.png,exp2.png,,2,0,2,0,0,10,10,10,,,,,,,,,,,,,,,,,,,,,,,,,False,50,51,False,exp1.png,exp2.png,trial_left_image,1,exp1.png,4,exp2.png,exp1.png,0,2,non-reversed,incorrect,0.19300373170520058,1,invalid_win,415.27505870000005,25,,,,,,,,,,,,,,,,,,sub_792,2024-03-25_11h18.34.620,Reversal,2023.1.3,60.04776198995601,4,
11,exp3.png,exp4.png,,2,0,2,0,0,11,11,11,,,,,,,,,,,,,,,,,,,,,,,,,False,51,52,False,exp3.png,exp4.png,trial_left_image,1,exp3.png,4,exp4.png,exp3.png,0,4,reversed,incorrect,0.4354022457702935,0,valid_lose,419.7228004999997,25,,,,,,,,,,,,,,,,,,sub_792,2024-03-25_11h18.34.620,Reversal,2023.1.3,60.04776198995601,4,
12,exp1.png,exp2.png,,2,0,2,0,0,12,12,12,,,,,,,,,,,,,,,,,,,,,,,,,False,52,53,False,exp1.png,exp2.png,trial_right_image,-1,exp2.png,4,exp2.png,exp1.png,1,1,non-reversed,correct,0.47218749265758386,1,valid_win,425.98731359999965,26,,,,,,,,,,,,,,,,,,sub_792,2024-03-25_11h18.34.620,Reversal,2023.1.3,60.04776198995601,4,
13,exp3.png,exp4.png,,2,0,2,0,0,13,13,13,,,,,,,,,,,,,,,,,,,,,,,,,False,53,54,True,exp4.png,exp3.png,trial_left_image,1,exp4.png,4,exp4.png,exp3.png,1,3,reversed,correct,0.5074197036099825,1,valid_win,436.85055719999946,27,,,,,,,,,,,,,,,,,,sub_792,2024-03-25_11h18.34.620,Reversal,2023.1.3,60.04776198995601,4,
14,exp1.png,exp2.png,,2,0,2,0,0,14,14,14,,,,,,,,,,,,,,,,,,,,,,,,,False,54,55,True,exp2.png,exp1.png,trial_left_image,1,exp2.png,4,exp2.png,exp1.png,1,1,non-reversed,correct,0.5495126829473461,1,valid_win,443.2480554999993,28,,,,,,,,,,,,,,,,,,sub_792,2024-03-25_11h18.34.620,Reversal,2023.1.3,60.04776198995601,4,
15,exp3.png,exp4.png,,2,0,2,0,0,15,15,15,,,,,,,,,,,,,,,,,,,,,,,,,False,55,56,False,exp3.png,exp4.png,trial_right_image,-1,exp4.png,4,exp4.png,exp3.png,1,3,reversed,correct,0.38343200006851763,1,valid_win,452.66214409999975,29,,,,,,,,,,,,,,,,,,sub_792,2024-03-25_11h18.34.620,Reversal,2023.1.3,60.04776198995601,4,
16,exp1.png,exp2.png,,2,0,2,0,0,16,16,16,,,,,,,,,,,,,,,,,,,,,,,,,False,56,57,True,exp2.png,exp1.png,trial_left_image,1,exp2.png,4,exp2.png,exp1.png,1,1,non-reversed,correct,0.3094117665683743,1,valid_win,458.6098175999996,30,,,,,,,,,,,,,,,,,,sub_792,2024-03-25_11h18.34.620,Reversal,2023.1.3,60.04776198995601,4,
17,exp3.png,exp4.png,,2,0,2,0,0,17,17,17,,,,,,,,,,,,,,,,,,,,,,,,,False,57,58,True,exp4.png,exp3.png,trial_left_image,1,exp4.png,4,exp4.png,exp3.png,1,3,reversed,correct,0.031102388430471417,0,invalid_lose,464.1741213999994,30,,,,,,,,,,,,,,,,,,sub_792,2024-03-25_11h18.34.620,Reversal,2023.1.3,60.04776198995601,4,
18,exp1.png,exp2.png,,2,0,2,0,0,18,18,18,,,,,,,,,,,,,,,,,,,,,,,,,False,58,59,False,exp1.png,exp2.png,trial_left_image,1,exp1.png,4,exp2.png,exp1.png,0,2,non-reversed,incorrect,0.9169037140572548,0,valid_lose,469.7894050999994,30,,,,,,,,,,,,,,,,,,sub_792,2024-03-25_11h18.34.620,Reversal,2023.1.3,60.04776198995601,4,
19,exp3.png,exp4.png,,2,0,2,0,0,19,19,19,,,,,,,,,,,,,,,,,,,,,,,,,False,59,60,False,exp3.png,exp4.png,trial_right_image,-1,exp4.png,4,exp4.png,exp3.png,1,3,reversed,correct,0.47307190424504986,1,valid_win,475.8871489999992,31,,,,,,,,,,,,,,,,,,sub_792,2024-03-25_11h18.34.620,Reversal,2023.1.3,60.04776198995601,4,
20,exp1.png,exp2.png,,2,0,2,0,0,20,20,20,,,,,,,,,,,,,,,,,,,,,,,,,True,,,,,,,,,,,,,,,,,,,,,,,,,,,,,,,,,,,,,,sub_792,2024-03-25_11h18.34.620,Reversal,2023.1.3,60.04776198995601,4,
,,,exp1.png,2,0,2,0,,,,,0,0,0,0,0,0,0,0,,,,,,,,,,,,,,,,,,,,,,,,,,,,,,,,,,,,,,540.2882940999998,15.0,15.0,6.8890360000004875,"[(15.0, 6.8890360000004875)]",,,,,,,,,,,,,sub_792,2024-03-25_11h18.34.620,Reversal,2023.1.3,60.04776198995601,4,
,,,exp2.png,2,0,2,0,,,,,0,0,0,0,0,1,1,1,,,,,,,,,,,,,,,,,,,,,,,,,,,,,,,,,,,,,,548.3443175000002,,87.0,1.6437175999999454,"[(87.0, 1.6437175999999454)]",87.0,,,,,,,,,,,,sub_792,2024-03-25_11h18.34.620,Reversal,2023.1.3,60.04776198995601,4,
,,,exp3.png,2,0,2,0,,,,,0,0,0,0,0,2,2,2,,,,,,,,,,,,,,,,,,,,,,,,,,,,,,,,,,,,,,551.1917061000004,,17.0,3.3099756999999954,"[(17.0, 3.3099756999999954)]",,17.0,,,,,,,,,,,sub_792,2024-03-25_11h18.34.620,Reversal,2023.1.3,60.04776198995601,4,
,,,exp4.png,2,0,2,0,,,,,0,0,0,0,0,3,3,3,,,,,,,,,,,,,,,,,,,,,,,,,,,,,,,,,,,,,,555.6906423999999,,93.0,2.8441311000005953,"[(93.0, 2.8441311000005953)]",,,93.0,,,,,,,,,,sub_792,2024-03-25_11h18.34.620,Reversal,2023.1.3,60.04776198995601,4,
0,exp1.png,exp2.png,,3,0,3,0,0,0,0,0,,,,,,,,,,,,,,,,,,,,,,,,,False,60,61,True,exp2.png,exp1.png,trial_left_image,1,exp2.png,4,exp2.png,exp1.png,1,1,non-reversed,correct,0.5570725753706071,1,valid_win,501.41173869999966,32,,,,,,,,,,,,,,,,,,sub_792,2024-03-25_11h18.34.620,Reversal,2023.1.3,60.04776198995601,4,
1,exp3.png,exp4.png,,3,0,3,0,0,1,1,1,,,,,,,,,,,,,,,,,,,,,,,,,False,61,62,False,exp3.png,exp4.png,trial_right_image,-1,exp4.png,4,exp4.png,exp3.png,1,3,reversed,correct,0.35007814064507903,1,valid_win,506.9266003999992,33,,,,,,,,,,,,,,,,,,sub_792,2024-03-25_11h18.34.620,Reversal,2023.1.3,60.04776198995601,4,
2,exp1.png,exp2.png,,3,0,3,0,0,2,2,2,,,,,,,,,,,,,,,,,,,,,,,,,False,62,63,True,exp2.png,exp1.png,trial_left_image,1,exp2.png,4,exp2.png,exp1.png,1,1,non-reversed,correct,0.029182150307759724,0,invalid_lose,512.6245268999992,33,,,,,,,,,,,,,,,,,,sub_792,2024-03-25_11h18.34.620,Reversal,2023.1.3,60.04776198995601,4,
3,exp3.png,exp4.png,,3,0,3,0,0,3,3,3,,,,,,,,,,,,,,,,,,,,,,,,,False,63,64,False,exp3.png,exp4.png,trial_right_image,-1,exp4.png,4,exp4.png,exp3.png,1,3,reversed,correct,0.7427771995599897,1,valid_win,518.1227314999996,34,,,,,,,,,,,,,,,,,,sub_792,2024-03-25_11h18.34.620,Reversal,2023.1.3,60.04776198995601,4,
4,exp1.png,exp2.png,,3,0,3,0,0,4,4,4,,,,,,,,,,,,,,,,,,,,,,,,,False,64,65,True,exp2.png,exp1.png,trial_left_image,1,exp2.png,4,exp2.png,exp1.png,1,1,non-reversed,correct,0.30662366432286803,1,valid_win,522.9377695999992,35,,,,,,,,,,,,,,,,,,sub_792,2024-03-25_11h18.34.620,Reversal,2023.1.3,60.04776198995601,4,
5,exp3.png,exp4.png,,3,0,3,0,0,5,5,5,,,,,,,,,,,,,,,,,,,,,,,,,False,65,66,True,exp4.png,exp3.png,trial_left_image,1,exp4.png,4,exp4.png,exp3.png,1,3,reversed,correct,0.09759193988209125,0,invalid_lose,528.4192168,35,,,,,,,,,,,,,,,,,,sub_792,2024-03-25_11h18.34.620,Reversal,2023.1.3,60.04776198995601,4,
6,exp1.png,exp2.png,,3,0,3,0,0,6,6,6,,,,,,,,,,,,,,,,,,,,,,,,,False,66,67,True,exp2.png,exp1.png,trial_right_image,-1,exp1.png,4,exp2.png,exp1.png,0,2,non-reversed,incorrect,0.7946155358021568,0,valid_lose,534.1174193999996,35,,,,,,,,,,,,,,,,,,sub_792,2024-03-25_11h18.34.620,Reversal,2023.1.3,60.04776198995601,4,
7,exp3.png,exp4.png,,3,0,3,0,0,7,7,7,,,,,,,,,,,,,,,,,,,,,,,,,False,67,68,False,exp3.png,exp4.png,trial_left_image,1,exp3.png,4,exp4.png,exp3.png,0,4,reversed,incorrect,0.10555913956665619,1,invalid_win,538.6165185999998,36,,,,,,,,,,,,,,,,,,sub_792,2024-03-25_11h18.34.620,Reversal,2023.1.3,60.04776198995601,4,
8,exp1.png,exp2.png,,3,0,3,0,0,8,8,8,,,,,,,,,,,,,,,,,,,,,,,,,False,68,69,True,exp2.png,exp1.png,trial_left_image,1,exp2.png,4,exp2.png,exp1.png,1,1,non-reversed,correct,0.6179132284518642,1,valid_win,543.7143905999992,37,,,,,,,,,,,,,,,,,,sub_792,2024-03-25_11h18.34.620,Reversal,2023.1.3,60.04776198995601,4,
9,exp3.png,exp4.png,,3,0,3,0,0,9,9,9,,,,,,,,,,,,,,,,,,,,,,,,,False,69,70,False,exp3.png,exp4.png,trial_left_image,1,exp3.png,4,exp4.png,exp3.png,0,4,reversed,incorrect,0.4045921956004672,0,valid_lose,549.6452654999994,37,,,,,,,,,,,,,,,,,,sub_792,2024-03-25_11h18.34.620,Reversal,2023.1.3,60.04776198995601,4,
10,exp1.png,exp2.png,,3,0,3,0,0,10,10,10,,,,,,,,,,,,,,,,,,,,,,,,,False,70,71,False,exp1.png,exp2.png,trial_right_image,-1,exp2.png,4,exp2.png,exp1.png,1,1,non-reversed,correct,0.2129197556363609,0,invalid_lose,554.2274546999997,37,,,,,,,,,,,,,,,,,,sub_792,2024-03-25_11h18.34.620,Reversal,2023.1.3,60.04776198995601,4,
11,exp3.png,exp4.png,,3,0,3,0,0,11,11,11,,,,,,,,,,,,,,,,,,,,,,,,,False,71,72,True,exp4.png,exp3.png,trial_right_image,-1,exp3.png,4,exp4.png,exp3.png,0,4,reversed,incorrect,0.1731448133501572,1,invalid_win,561.2081412999996,38,,,,,,,,,,,,,,,,,,sub_792,2024-03-25_11h18.34.620,Reversal,2023.1.3,60.04776198995601,4,
12,exp1.png,exp2.png,,3,0,3,0,0,12,12,12,,,,,,,,,,,,,,,,,,,,,,,,,False,72,73,False,exp1.png,exp2.png,trial_left_image,1,exp1.png,4,exp2.png,exp1.png,0,2,non-reversed,incorrect,0.7271768240892652,0,valid_lose,566.9061870999994,38,,,,,,,,,,,,,,,,,,sub_792,2024-03-25_11h18.34.620,Reversal,2023.1.3,60.04776198995601,4,
13,exp3.png,exp4.png,,3,0,3,0,0,13,13,13,,,,,,,,,,,,,,,,,,,,,,,,,False,73,74,False,exp3.png,exp4.png,trial_right_image,-1,exp4.png,4,exp4.png,exp3.png,1,3,reversed,correct,0.36925837156362795,1,valid_win,575.8534703999994,39,,,,,,,,,,,,,,,,,,sub_792,2024-03-25_11h18.34.620,Reversal,2023.1.3,60.04776198995601,4,
14,exp1.png,exp2.png,,3,0,3,0,0,14,14,14,,,,,,,,,,,,,,,,,,,,,,,,,False,74,75,True,exp2.png,exp1.png,trial_left_image,1,exp2.png,4,exp2.png,exp1.png,1,1,non-reversed,correct,0.04254031382014423,0,invalid_lose,582.5678533,39,,,,,,,,,,,,,,,,,,sub_792,2024-03-25_11h18.34.620,Reversal,2023.1.3,60.04776198995601,4,
15,exp3.png,exp4.png,,3,0,3,0,0,15,15,15,,,,,,,,,,,,,,,,,,,,,,,,,False,75,76,False,exp3.png,exp4.png,trial_right_image,-1,exp4.png,4,exp4.png,exp3.png,1,3,reversed,correct,0.5641145500585613,1,valid_win,593.1476270999992,40,,,,,,,,,,,,,,,,,,sub_792,2024-03-25_11h18.34.620,Reversal,2023.1.3,60.04776198995601,4,
16,exp1.png,exp2.png,,3,0,3,0,0,16,16,16,,,,,,,,,,,,,,,,,,,,,,,,,False,76,77,False,exp1.png,exp2.png,trial_right_image,-1,exp2.png,4,exp2.png,exp1.png,1,1,non-reversed,correct,0.32286369522139857,1,valid_win,597.7621939,41,,,,,,,,,,,,,,,,,,sub_792,2024-03-25_11h18.34.620,Reversal,2023.1.3,60.04776198995601,4,
17,exp3.png,exp4.png,,3,0,3,0,0,17,17,17,,,,,,,,,,,,,,,,,,,,,,,,,False,77,78,True,exp4.png,exp3.png,trial_right_image,-1,exp3.png,4,exp4.png,exp3.png,0,4,reversed,incorrect,0.21130246618144377,1,invalid_win,601.8443680999999,42,,,,,,,,,,,,,,,,,,sub_792,2024-03-25_11h18.34.620,Reversal,2023.1.3,60.04776198995601,4,
18,exp1.png,exp2.png,,3,0,3,0,0,18,18,18,,,,,,,,,,,,,,,,,,,,,,,,,False,78,79,False,exp1.png,exp2.png,trial_right_image,-1,exp2.png,4,exp2.png,exp1.png,1,1,non-reversed,correct,0.8339486117355838,1,valid_win,609.0751924999995,43,,,,,,,,,,,,,,,,,,sub_792,2024-03-25_11h18.34.620,Reversal,2023.1.3,60.04776198995601,4,
19,exp3.png,exp4.png,,3,0,3,0,0,19,19,19,,,,,,,,,,,,,,,,,,,,,,,,,False,79,80,True,exp4.png,exp3.png,trial_right_image,-1,exp3.png,4,exp4.png,exp3.png,0,4,reversed,incorrect,0.8836075676138584,0,valid_lose,614.4780408999995,43,,,,,,,,,,,,,,,,,,sub_792,2024-03-25_11h18.34.620,Reversal,2023.1.3,60.04776198995601,4,
20,exp1.png,exp2.png,,3,0,3,0,0,20,20,20,,,,,,,,,,,,,,,,,,,,,,,,,True,,,,,,,,,,,,,,,,,,,,,,,,,,,,,,,,,,,,,,sub_792,2024-03-25_11h18.34.620,Reversal,2023.1.3,60.04776198995601,4,
,,,exp1.png,3,0,3,0,,,,,0,0,0,0,0,0,0,0,,,,,,,,,,,,,,,,,,,,,,,,,,,,,,,,,,,,,,678.8782820000006,91.0,91.0,2.2532689999998183,"[(91.0, 2.2532689999998183)]",,,,,,,,,,,,,sub_792,2024-03-25_11h18.34.620,Reversal,2023.1.3,60.04776198995601,4,
,,,exp2.png,3,0,3,0,,,,,0,0,0,0,0,1,1,1,,,,,,,,,,,,,,,,,,,,,,,,,,,,,,,,,,,,,,682.4311563000001,,93.0,1.4940419000004113,"[(93.0, 1.4940419000004113)]",93.0,,,,,,,,,,,,sub_792,2024-03-25_11h18.34.620,Reversal,2023.1.3,60.04776198995601,4,
,,,exp3.png,3,0,3,0,,,,,0,0,0,0,0,2,2,2,,,,,,,,,,,,,,,,,,,,,,,,,,,,,,,,,,,,,,685.1133895000003,,92.0,2.094759599999634,"[(92.0, 2.094759599999634)]",,92.0,,,,,,,,,,,sub_792,2024-03-25_11h18.34.620,Reversal,2023.1.3,60.04776198995601,4,
,,,exp4.png,3,0,3,0,,,,,0,0,0,0,0,3,3,3,,,,,,,,,,,,,,,,,,,,,,,,,,,,,,,,,,,,,,688.3442329,,93.0,1.6110270999997738,"[(93.0, 1.6110270999997738)]",,,93.0,,,,,,,,,,sub_792,2024-03-25_11h18.34.620,Reversal,2023.1.3,60.04776198995601,4,
0,exp1.png,exp2.png,,,,,,,,,,,,,,,,,,0,0,0,0,0,0,0,0,,,,,,,,,False,0,81,True,exp2.png,exp1.png,trial_left_image,1,exp2.png,4,exp2.png,exp1.png,1,1,non-reversed,correct,0.6704129859449515,1,valid_win,635.3497614999997,44,,,,,,,,,629.2817562999999,,,,,,,,,sub_792,2024-03-25_11h18.34.620,Reversal,2023.1.3,60.04776198995601,4,
1,exp3.png,exp4.png,,,,,,,,,,,,,,,,,,0,0,0,0,0,1,1,1,,,,,,,,,False,1,82,True,exp4.png,exp3.png,trial_left_image,1,exp4.png,4,exp3.png,exp4.png,1,3,reversed,incorrect,0.7308463636075243,0,valid_lose,642.2639073,44,,,,,,,,,,,,,,,,,,sub_792,2024-03-25_11h18.34.620,Reversal,2023.1.3,60.04776198995601,4,
2,exp1.png,exp2.png,,,,,,,,,,,,,,,,,,0,0,0,0,0,2,2,2,,,,,,,,,False,2,83,False,exp1.png,exp2.png,trial_right_image,-1,exp2.png,4,exp2.png,exp1.png,1,1,non-reversed,correct,0.7592720666600861,1,valid_win,646.7956206999997,45,,,,,,,,,,,,,,,,,,sub_792,2024-03-25_11h18.34.620,Reversal,2023.1.3,60.04776198995601,4,
3,exp3.png,exp4.png,,,,,,,,,,,,,,,,,,0,0,0,0,0,3,3,3,,,,,,,,,False,3,84,False,exp3.png,exp4.png,trial_left_image,1,exp3.png,4,exp3.png,exp4.png,0,4,reversed,correct,0.8826140128050571,1,valid_win,652.1938850999995,46,,,,,,,,,,,,,,,,,,sub_792,2024-03-25_11h18.34.620,Reversal,2023.1.3,60.04776198995601,4,
4,exp1.png,exp2.png,,,,,,,,,,,,,,,,,,0,0,0,0,0,4,4,4,,,,,,,,,False,4,85,True,exp2.png,exp1.png,trial_left_image,1,exp2.png,4,exp2.png,exp1.png,1,1,non-reversed,correct,0.16061876129527697,0,invalid_lose,660.3078336999997,46,,,,,,,,,,,,,,,,,,sub_792,2024-03-25_11h18.34.620,Reversal,2023.1.3,60.04776198995601,4,
5,exp3.png,exp4.png,,,,,,,,,,,,,,,,,,0,0,0,0,0,5,5,5,,,,,,,,,False,5,86,False,exp3.png,exp4.png,trial_left_image,1,exp3.png,4,exp3.png,exp4.png,0,4,reversed,correct,0.7200648100844083,1,valid_win,666.0083274999997,47,,,,,,,,,,,,,,,,,,sub_792,2024-03-25_11h18.34.620,Reversal,2023.1.3,60.04776198995601,4,
6,exp1.png,exp2.png,,,,,,,,,,,,,,,,,,0,0,0,0,0,6,6,6,,,,,,,,,False,6,87,False,exp1.png,exp2.png,trial_right_image,-1,exp2.png,4,exp2.png,exp1.png,1,1,non-reversed,correct,0.4702599812316999,1,valid_win,670.1377803999994,48,,,,,,,,,,,,,,,,,,sub_792,2024-03-25_11h18.34.620,Reversal,2023.1.3,60.04776198995601,4,
7,exp3.png,exp4.png,,,,,,,,,,,,,,,,,,0,0,0,0,0,7,7,7,,,,,,,,,False,7,88,True,exp4.png,exp3.png,trial_left_image,1,exp4.png,4,exp3.png,exp4.png,1,3,reversed,incorrect,0.6650400235352348,0,valid_lose,676.3856151999998,48,,,,,,,,,,,,,,,,,,sub_792,2024-03-25_11h18.34.620,Reversal,2023.1.3,60.04776198995601,4,
8,exp1.png,exp2.png,,,,,,,,,,,,,,,,,,0,0,0,0,0,8,8,8,,,,,,,,,False,8,89,False,exp1.png,exp2.png,trial_right_image,-1,exp2.png,4,exp2.png,exp1.png,1,1,non-reversed,correct,0.020091517290709127,0,invalid_lose,681.5669798999998,48,,,,,,,,,,,,,,,,,,sub_792,2024-03-25_11h18.34.620,Reversal,2023.1.3,60.04776198995601,4,
9,exp3.png,exp4.png,,,,,,,,,,,,,,,,,,0,0,0,0,0,9,9,9,,,,,,,,,False,9,90,False,exp3.png,exp4.png,trial_right_image,-1,exp4.png,4,exp3.png,exp4.png,1,3,reversed,incorrect,0.7325309895968468,0,valid_lose,686.6993930999997,48,,,,,,,,,,,,,,,,,,sub_792,2024-03-25_11h18.34.620,Reversal,2023.1.3,60.04776198995601,4,
10,exp1.png,exp2.png,,,,,,,,,,,,,,,,,,0,0,0,0,0,10,10,10,,,,,,,,,False,10,91,False,exp1.png,exp2.png,trial_left_image,1,exp1.png,4,exp2.png,exp1.png,0,2,non-reversed,incorrect,0.3545559093551357,0,valid_lose,690.9642285999998,48,,,,,,,,,,,,,,,,,,sub_792,2024-03-25_11h18.34.620,Reversal,2023.1.3,60.04776198995601,4,
11,exp3.png,exp4.png,,,,,,,,,,,,,,,,,,0,0,0,0,0,11,11,11,,,,,,,,,False,11,92,True,exp4.png,exp3.png,trial_right_image,-1,exp3.png,4,exp3.png,exp4.png,0,4,reversed,correct,0.148122351650952,0,invalid_lose,695.3459765999996,48,,,,,,,,,,,,,,,,,,sub_792,2024-03-25_11h18.34.620,Reversal,2023.1.3,60.04776198995601,4,
12,exp1.png,exp2.png,,,,,,,,,,,,,,,,,,0,0,0,0,0,12,12,12,,,,,,,,,False,12,93,False,exp1.png,exp2.png,trial_left_image,1,exp1.png,4,exp2.png,exp1.png,0,2,non-reversed,incorrect,0.5714608832587932,0,valid_lose,700.4278199,48,,,,,,,,,,,,,,,,,,sub_792,2024-03-25_11h18.34.620,Reversal,2023.1.3,60.04776198995601,4,
13,exp3.png,exp4.png,,,,,,,,,,,,,,,,,,0,0,0,0,0,13,13,13,,,,,,,,,False,13,94,True,exp4.png,exp3.png,trial_left_image,1,exp4.png,4,exp3.png,exp4.png,1,3,reversed,incorrect,0.5044912673696557,0,valid_lose,705.0259220999997,48,,,,,,,,,,,,,,,,,,sub_792,2024-03-25_11h18.34.620,Reversal,2023.1.3,60.04776198995601,4,
14,exp1.png,exp2.png,,,,,,,,,,,,,,,,,,0,0,0,0,0,14,14,14,,,,,,,,,False,14,95,True,exp2.png,exp1.png,trial_right_image,-1,exp1.png,4,exp2.png,exp1.png,0,2,non-reversed,incorrect,0.48272853298882845,0,valid_lose,709.1581526999998,48,,,,,,,,,,,,,,,,,,sub_792,2024-03-25_11h18.34.620,Reversal,2023.1.3,60.04776198995601,4,
15,exp3.png,exp4.png,,,,,,,,,,,,,,,,,,0,0,0,0,0,15,15,15,,,,,,,,,False,15,96,False,exp3.png,exp4.png,trial_right_image,-1,exp4.png,4,exp3.png,exp4.png,1,3,reversed,incorrect,0.288893917305868,0,valid_lose,714.0234352999996,48,,,,,,,,,,,,,,,,,,sub_792,2024-03-25_11h18.34.620,Reversal,2023.1.3,60.04776198995601,4,
16,exp1.png,exp2.png,,,,,,,,,,,,,,,,,,0,0,0,0,0,16,16,16,,,,,,,,,False,16,97,False,exp1.png,exp2.png,trial_left_image,1,exp1.png,4,exp2.png,exp1.png,0,2,non-reversed,incorrect,0.7354027019126573,0,valid_lose,717.9883910999997,48,,,,,,,,,,,,,,,,,,sub_792,2024-03-25_11h18.34.620,Reversal,2023.1.3,60.04776198995601,4,
17,exp3.png,exp4.png,,,,,,,,,,,,,,,,,,0,0,0,0,0,17,17,17,,,,,,,,,False,17,98,True,exp4.png,exp3.png,trial_right_image,-1,exp3.png,4,exp3.png,exp4.png,0,4,reversed,correct,0.720887228416663,1,valid_win,722.1535963999995,49,,,,,,,,,,,,,,,,,,sub_792,2024-03-25_11h18.34.620,Reversal,2023.1.3,60.04776198995601,4,
18,exp1.png,exp2.png,,,,,,,,,,,,,,,,,,0,0,0,0,0,18,18,18,,,,,,,,,False,18,99,True,exp2.png,exp1.png,trial_left_image,1,exp2.png,4,exp2.png,exp1.png,1,1,non-reversed,correct,0.7846790687021974,1,valid_win,726.9855737999997,50,,,,,,,,,,,,,,,,,,sub_792,2024-03-25_11h18.34.620,Reversal,2023.1.3,60.04776198995601,4,
19,exp3.png,exp4.png,,,,,,,,,,,,,,,,,,0,0,0,0,0,19,19,19,,,,,,,,,False,19,100,True,exp4.png,exp3.png,trial_left_image,1,exp4.png,4,exp3.png,exp4.png,1,3,reversed,incorrect,0.09102761583170671,1,invalid_win,732.2834477999995,51,,,,,,,,,,,,,,,,,,sub_792,2024-03-25_11h18.34.620,Reversal,2023.1.3,60.04776198995601,4,
20,exp1.png,exp2.png,,,,,,,,,,,,,,,,,,0,0,0,0,0,20,20,20,,,,,,,,,True,,,,,,,,,,,,,,,,,,,,,,,,,,,,,,,,,,,,,,sub_792,2024-03-25_11h18.34.620,Reversal,2023.1.3,60.04776198995601,4,
,,,exp1.png,,,,,,,,,,,,,,,,,0,0,0,0,,,,,0,0,0,0,0,0,0,0,,,,,,,,,,,,,,,,,,,,,,796.6827183000005,16.0,16.0,3.874400599999717,"[(29.0, 2.9416701000000103), (16.0, 3.874400599999717)]",,,,,,,,,,,,,sub_792,2024-03-25_11h18.34.620,Reversal,2023.1.3,60.04776198995601,4,
,,,exp2.png,,,,,,,,,,,,,,,,,0,0,0,0,,,,,0,0,0,0,0,1,1,1,,,,,,,,,,,,,,,,,,,,,,801.8553225000005,,85.0,1.394370600000002,"[(85.0, 1.394370600000002)]",85.0,,,,,,,,,,,,sub_792,2024-03-25_11h18.34.620,Reversal,2023.1.3,60.04776198995601,4,
,,,exp3.png,,,,,,,,,,,,,,,,,0,0,0,0,,,,,0,0,0,0,0,2,2,2,,,,,,,,,,,,,,,,,,,,,,804.4378114000001,,86.0,1.960124000000178,"[(86.0, 1.960124000000178)]",,86.0,,,,,,,,,,,sub_792,2024-03-25_11h18.34.620,Reversal,2023.1.3,60.04776198995601,4,
,,,exp4.png,,,,,,,,,,,,,,,,,0,0,0,0,,,,,0,0,0,0,0,3,3,3,,,,,,,,,,,,,,,,,,,,,,807.4722925000005,,92.0,1.4945490000000063,"[(92.0, 1.4945490000000063)]",,,92.0,,,,,,,,,,sub_792,2024-03-25_11h18.34.620,Reversal,2023.1.3,60.04776198995601,4,
0,exp1.png,exp2.png,,,,,,,,,,,,,,,,,,1,0,1,0,0,0,0,0,,,,,,,,,False,20,101,False,exp1.png,exp2.png,trial_right_image,-1,exp2.png,4,exp2.png,exp1.png,1,1,non-reversed,correct,0.914611752350406,1,valid_win,754.7590535999998,52,,,,,,,,,,,,,,,,,,sub_792,2024-03-25_11h18.34.620,Reversal,2023.1.3,60.04776198995601,4,
1,exp3.png,exp4.png,,,,,,,,,,,,,,,,,,1,0,1,0,0,1,1,1,,,,,,,,,False,21,102,True,exp4.png,exp3.png,trial_right_image,-1,exp3.png,4,exp3.png,exp4.png,0,4,reversed,correct,0.05448885803909731,0,invalid_lose,760.0241900999999,52,,,,,,,,,,,,,,,,,,sub_792,2024-03-25_11h18.34.620,Reversal,2023.1.3,60.04776198995601,4,
2,exp1.png,exp2.png,,,,,,,,,,,,,,,,,,1,0,1,0,0,2,2,2,,,,,,,,,False,22,103,True,exp2.png,exp1.png,trial_left_image,1,exp2.png,4,exp2.png,exp1.png,1,1,non-reversed,correct,0.7202726919546997,1,valid_win,764.2227716999996,53,,,,,,,,,,,,,,,,,,sub_792,2024-03-25_11h18.34.620,Reversal,2023.1.3,60.04776198995601,4,
3,exp3.png,exp4.png,,,,,,,,,,,,,,,,,,1,0,1,0,0,3,3,3,,,,,,,,,False,23,104,False,exp3.png,exp4.png,trial_right_image,-1,exp4.png,4,exp3.png,exp4.png,1,3,reversed,incorrect,0.024750366367716325,1,invalid_win,768.5041506999996,54,,,,,,,,,,,,,,,,,,sub_792,2024-03-25_11h18.34.620,Reversal,2023.1.3,60.04776198995601,4,
4,exp1.png,exp2.png,,,,,,,,,,,,,,,,,,1,0,1,0,0,4,4,4,,,,,,,,,False,24,105,False,exp1.png,exp2.png,trial_left_image,1,exp1.png,4,exp2.png,exp1.png,0,2,non-reversed,incorrect,0.20289763588040965,1,invalid_win,772.7698338999999,55,,,,,,,,,,,,,,,,,,sub_792,2024-03-25_11h18.34.620,Reversal,2023.1.3,60.04776198995601,4,
5,exp3.png,exp4.png,,,,,,,,,,,,,,,,,,1,0,1,0,0,5,5,5,,,,,,,,,False,25,106,True,exp4.png,exp3.png,trial_right_image,-1,exp3.png,4,exp3.png,exp4.png,0,4,reversed,correct,0.384032945459317,1,valid_win,776.8848967999993,56,,,,,,,,,,,,,,,,,,sub_792,2024-03-25_11h18.34.620,Reversal,2023.1.3,60.04776198995601,4,
6,exp1.png,exp2.png,,,,,,,,,,,,,,,,,,1,0,1,0,0,6,6,6,,,,,,,,,False,26,107,True,exp2.png,exp1.png,trial_left_image,1,exp2.png,4,exp2.png,exp1.png,1,1,non-reversed,correct,0.37286416531474575,1,valid_win,781.3500084999996,57,,,,,,,,,,,,,,,,,,sub_792,2024-03-25_11h18.34.620,Reversal,2023.1.3,60.04776198995601,4,
7,exp3.png,exp4.png,,,,,,,,,,,,,,,,,,1,0,1,0,0,7,7,7,,,,,,,,,False,27,108,False,exp3.png,exp4.png,trial_right_image,-1,exp4.png,4,exp3.png,exp4.png,1,3,reversed,incorrect,0.7332095615697442,0,valid_lose,785.5318732999995,57,,,,,,,,,,,,,,,,,,sub_792,2024-03-25_11h18.34.620,Reversal,2023.1.3,60.04776198995601,4,
8,exp1.png,exp2.png,,,,,,,,,,,,,,,,,,1,0,1,0,0,8,8,8,,,,,,,,,False,28,109,False,exp1.png,exp2.png,trial_left_image,1,exp1.png,4,exp2.png,exp1.png,0,2,non-reversed,incorrect,0.604177141610941,0,valid_lose,790.0307751,57,,,,,,,,,,,,,,,,,,sub_792,2024-03-25_11h18.34.620,Reversal,2023.1.3,60.04776198995601,4,
9,exp3.png,exp4.png,,,,,,,,,,,,,,,,,,1,0,1,0,0,9,9,9,,,,,,,,,False,29,110,True,exp4.png,exp3.png,trial_right_image,-1,exp3.png,4,exp3.png,exp4.png,0,4,reversed,correct,0.5669458514235287,1,valid_win,793.9796041999998,58,,,,,,,,,,,,,,,,,,sub_792,2024-03-25_11h18.34.620,Reversal,2023.1.3,60.04776198995601,4,
10,exp1.png,exp2.png,,,,,,,,,,,,,,,,,,1,0,1,0,0,10,10,10,,,,,,,,,False,30,111,True,exp2.png,exp1.png,trial_left_image,1,exp2.png,4,exp2.png,exp1.png,1,1,non-reversed,correct,0.9835612257153081,1,valid_win,798.4278807999999,59,,,,,,,,,,,,,,,,,,sub_792,2024-03-25_11h18.34.620,Reversal,2023.1.3,60.04776198995601,4,
11,exp3.png,exp4.png,,,,,,,,,,,,,,,,,,1,0,1,0,0,11,11,11,,,,,,,,,False,31,112,True,exp4.png,exp3.png,trial_left_image,1,exp4.png,4,exp3.png,exp4.png,1,3,reversed,incorrect,0.04357453705767278,1,invalid_win,802.5930862999994,60,,,,,,,,,,,,,,,,,,sub_792,2024-03-25_11h18.34.620,Reversal,2023.1.3,60.04776198995601,4,
12,exp1.png,exp2.png,,,,,,,,,,,,,,,,,,1,0,1,0,0,12,12,12,,,,,,,,,False,32,113,False,exp1.png,exp2.png,trial_left_image,1,exp1.png,4,exp2.png,exp1.png,0,2,non-reversed,incorrect,0.353937708317301,0,valid_lose,806.8251734999994,60,,,,,,,,,,,,,,,,,,sub_792,2024-03-25_11h18.34.620,Reversal,2023.1.3,60.04776198995601,4,
13,exp3.png,exp4.png,,,,,,,,,,,,,,,,,,1,0,1,0,0,13,13,13,,,,,,,,,False,33,114,True,exp4.png,exp3.png,trial_right_image,-1,exp3.png,4,exp3.png,exp4.png,0,4,reversed,correct,0.2386889812995009,0,invalid_lose,811.1905072,60,,,,,,,,,,,,,,,,,,sub_792,2024-03-25_11h18.34.620,Reversal,2023.1.3,60.04776198995601,4,
14,exp1.png,exp2.png,,,,,,,,,,,,,,,,,,1,0,1,0,0,14,14,14,,,,,,,,,False,34,115,False,exp1.png,exp2.png,trial_right_image,-1,exp2.png,4,exp2.png,exp1.png,1,1,non-reversed,correct,0.9305147305024137,1,valid_win,815.4053076,61,,,,,,,,,,,,,,,,,,sub_792,2024-03-25_11h18.34.620,Reversal,2023.1.3,60.04776198995601,4,
15,exp3.png,exp4.png,,,,,,,,,,,,,,,,,,1,0,1,0,0,15,15,15,,,,,,,,,False,35,116,True,exp4.png,exp3.png,trial_left_image,1,exp4.png,4,exp3.png,exp4.png,1,3,reversed,incorrect,0.7735158258944772,0,valid_lose,819.6041538999998,61,,,,,,,,,,,,,,,,,,sub_792,2024-03-25_11h18.34.620,Reversal,2023.1.3,60.04776198995601,4,
16,exp1.png,exp2.png,,,,,,,,,,,,,,,,,,1,0,1,0,0,16,16,16,,,,,,,,,False,36,117,False,exp1.png,exp2.png,trial_right_image,-1,exp2.png,4,exp2.png,exp1.png,1,1,non-reversed,correct,0.11587561854922845,0,invalid_lose,823.6526346,61,,,,,,,,,,,,,,,,,,sub_792,2024-03-25_11h18.34.620,Reversal,2023.1.3,60.04776198995601,4,
17,exp3.png,exp4.png,,,,,,,,,,,,,,,,,,1,0,1,0,0,17,17,17,,,,,,,,,False,37,118,True,exp4.png,exp3.png,trial_left_image,1,exp4.png,4,exp3.png,exp4.png,1,3,reversed,incorrect,0.7150367784904336,0,valid_lose,827.7177396999996,61,,,,,,,,,,,,,,,,,,sub_792,2024-03-25_11h18.34.620,Reversal,2023.1.3,60.04776198995601,4,
18,exp1.png,exp2.png,,,,,,,,,,,,,,,,,,1,0,1,0,0,18,18,18,,,,,,,,,False,38,119,False,exp1.png,exp2.png,trial_right_image,-1,exp2.png,4,exp2.png,exp1.png,1,1,non-reversed,correct,0.8615621784739455,1,valid_win,832.5662267999996,62,,,,,,,,,,,,,,,,,,sub_792,2024-03-25_11h18.34.620,Reversal,2023.1.3,60.04776198995601,4,
19,exp3.png,exp4.png,,,,,,,,,,,,,,,,,,1,0,1,0,0,19,19,19,,,,,,,,,False,39,120,False,exp3.png,exp4.png,trial_right_image,-1,exp4.png,4,exp3.png,exp4.png,1,3,reversed,incorrect,0.514121894154197,0,valid_lose,837.1145143999993,62,,,,,,,,,,,,,,,,,,sub_792,2024-03-25_11h18.34.620,Reversal,2023.1.3,60.04776198995601,4,
20,exp1.png,exp2.png,,,,,,,,,,,,,,,,,,1,0,1,0,0,20,20,20,,,,,,,,,True,,,,,,,,,,,,,,,,,,,,,,,,,,,,,,,,,,,,,,sub_792,2024-03-25_11h18.34.620,Reversal,2023.1.3,60.04776198995601,4,
,,,exp1.png,,,,,,,,,,,,,,,,,1,0,1,0,,,,,0,0,0,0,0,0,0,0,,,,,,,,,,,,,,,,,,,,,,901.5116392,10.0,10.0,4.009454900000492,"[(10.0, 4.009454900000492)]",,,,,,,,,,,,,sub_792,2024-03-25_11h18.34.620,Reversal,2023.1.3,60.04776198995601,4,
,,,exp2.png,,,,,,,,,,,,,,,,,1,0,1,0,,,,,0,0,0,0,0,1,1,1,,,,,,,,,,,,,,,,,,,,,,906.6937365000003,,95.0,1.5892647999999099,"[(95.0, 1.5892647999999099)]",95.0,,,,,,,,,,,,sub_792,2024-03-25_11h18.34.620,Reversal,2023.1.3,60.04776198995601,4,
,,,exp3.png,,,,,,,,,,,,,,,,,1,0,1,0,,,,,0,0,0,0,0,2,2,2,,,,,,,,,,,,,,,,,,,,,,909.3707100000001,,89.0,5.110744499999782,"[(89.0, 5.110744499999782)]",,89.0,,,,,,,,,,,sub_792,2024-03-25_11h18.34.620,Reversal,2023.1.3,60.04776198995601,4,
,,,exp4.png,,,,,,,,,,,,,,,,,1,0,1,0,,,,,0,0,0,0,0,3,3,3,,,,,,,,,,,,,,,,,,,,,,915.5017247000005,,16.0,1.4284653000004255,"[(16.0, 1.4284653000004255)]",,,16.0,,,,,,,,,,sub_792,2024-03-25_11h18.34.620,Reversal,2023.1.3,60.04776198995601,4,
0,exp1.png,exp2.png,,,,,,,,,,,,,,,,,,2,0,2,0,0,0,0,0,,,,,,,,,False,40,121,True,exp2.png,exp1.png,trial_right_image,-1,exp1.png,4,exp2.png,exp1.png,0,2,non-reversed,incorrect,0.6332471913538443,0,valid_lose,858.6906473999998,62,,,,,,,,,,,,,,,,,,sub_792,2024-03-25_11h18.34.620,Reversal,2023.1.3,60.04776198995601,4,
1,exp3.png,exp4.png,,,,,,,,,,,,,,,,,,2,0,2,0,0,1,1,1,,,,,,,,,False,41,122,True,exp4.png,exp3.png,trial_left_image,1,exp4.png,4,exp3.png,exp4.png,1,3,reversed,incorrect,0.4490011493470005,0,valid_lose,862.9056618999994,62,,,,,,,,,,,,,,,,,,sub_792,2024-03-25_11h18.34.620,Reversal,2023.1.3,60.04776198995601,4,
2,exp1.png,exp2.png,,,,,,,,,,,,,,,,,,2,0,2,0,0,2,2,2,,,,,,,,,False,42,123,False,exp1.png,exp2.png,trial_right_image,-1,exp2.png,4,exp2.png,exp1.png,1,1,non-reversed,correct,0.08224131037928861,0,invalid_lose,866.9545791999999,62,,,,,,,,,,,,,,,,,,sub_792,2024-03-25_11h18.34.620,Reversal,2023.1.3,60.04776198995601,4,
3,exp3.png,exp4.png,,,,,,,,,,,,,,,,,,2,0,2,0,0,3,3,3,,,,,,,,,False,43,124,True,exp4.png,exp3.png,trial_right_image,-1,exp3.png,4,exp3.png,exp4.png,0,4,reversed,correct,0.9681871795538299,1,valid_win,871.0862246999995,63,,,,,,,,,,,,,,,,,,sub_792,2024-03-25_11h18.34.620,Reversal,2023.1.3,60.04776198995601,4,
4,exp1.png,exp2.png,,,,,,,,,,,,,,,,,,2,0,2,0,0,4,4,4,,,,,,,,,False,44,125,True,exp2.png,exp1.png,trial_left_image,1,exp2.png,4,exp2.png,exp1.png,1,1,non-reversed,correct,0.9252014584926713,1,valid_win,875.2347056999997,64,,,,,,,,,,,,,,,,,,sub_792,2024-03-25_11h18.34.620,Reversal,2023.1.3,60.04776198995601,4,
5,exp3.png,exp4.png,,,,,,,,,,,,,,,,,,2,0,2,0,0,5,5,5,,,,,,,,,False,45,126,False,exp3.png,exp4.png,trial_right_image,-1,exp4.png,4,exp3.png,exp4.png,1,3,reversed,incorrect,0.8214099014809604,0,valid_lose,879.4164140999992,64,,,,,,,,,,,,,,,,,,sub_792,2024-03-25_11h18.34.620,Reversal,2023.1.3,60.04776198995601,4,
6,exp1.png,exp2.png,,,,,,,,,,,,,,,,,,2,0,2,0,0,6,6,6,,,,,,,,,False,46,127,True,exp2.png,exp1.png,trial_left_image,1,exp2.png,4,exp2.png,exp1.png,1,1,non-reversed,correct,0.7615134074010449,1,valid_win,883.7322250999996,65,,,,,,,,,,,,,,,,,,sub_792,2024-03-25_11h18.34.620,Reversal,2023.1.3,60.04776198995601,4,
7,exp3.png,exp4.png,,,,,,,,,,,,,,,,,,2,0,2,0,0,7,7,7,,,,,,,,,False,47,128,True,exp4.png,exp3.png,trial_left_image,1,exp4.png,4,exp3.png,exp4.png,1,3,reversed,incorrect,0.4681812109324881,0,valid_lose,887.6971619999995,65,,,,,,,,,,,,,,,,,,sub_792,2024-03-25_11h18.34.620,Reversal,2023.1.3,60.04776198995601,4,
8,exp1.png,exp2.png,,,,,,,,,,,,,,,,,,2,0,2,0,0,8,8,8,,,,,,,,,False,48,129,True,exp2.png,exp1.png,trial_right_image,-1,exp1.png,4,exp2.png,exp1.png,0,2,non-reversed,incorrect,0.5584007080926057,0,valid_lose,891.9289653999995,65,,,,,,,,,,,,,,,,,,sub_792,2024-03-25_11h18.34.620,Reversal,2023.1.3,60.04776198995601,4,
9,exp3.png,exp4.png,,,,,,,,,,,,,,,,,,2,0,2,0,0,9,9,9,,,,,,,,,False,49,130,False,exp3.png,exp4.png,trial_left_image,1,exp3.png,4,exp3.png,exp4.png,0,4,reversed,correct,0.6361633869494784,1,valid_win,895.9776787999999,66,,,,,,,,,,,,,,,,,,sub_792,2024-03-25_11h18.34.620,Reversal,2023.1.3,60.04776198995601,4,
10,exp1.png,exp2.png,,,,,,,,,,,,,,,,,,2,0,2,0,0,10,10,10,,,,,,,,,False,50,131,True,exp2.png,exp1.png,trial_left_image,1,exp2.png,4,exp2.png,exp1.png,1,1,non-reversed,correct,0.20116219916169564,0,invalid_lose,900.6095837999992,66,,,,,,,,,,,,,,,,,,sub_792,2024-03-25_11h18.34.620,Reversal,2023.1.3,60.04776198995601,4,
11,exp3.png,exp4.png,,,,,,,,,,,,,,,,,,2,0,2,0,0,11,11,11,,,,,,,,,False,51,132,False,exp3.png,exp4.png,trial_right_image,-1,exp4.png,4,exp3.png,exp4.png,1,3,reversed,incorrect,0.36579279707095036,0,valid_lose,904.5420277999992,66,,,,,,,,,,,,,,,,,,sub_792,2024-03-25_11h18.34.620,Reversal,2023.1.3,60.04776198995601,4,
12,exp1.png,exp2.png,,,,,,,,,,,,,,,,,,2,0,2,0,0,12,12,12,,,,,,,,,False,52,133,False,exp1.png,exp2.png,trial_left_image,1,exp1.png,4,exp2.png,exp1.png,0,2,non-reversed,incorrect,0.9603029864506746,0,valid_lose,908.7068605999993,66,,,,,,,,,,,,,,,,,,sub_792,2024-03-25_11h18.34.620,Reversal,2023.1.3,60.04776198995601,4,
13,exp3.png,exp4.png,,,,,,,,,,,,,,,,,,2,0,2,0,0,13,13,13,,,,,,,,,False,53,134,False,exp3.png,exp4.png,trial_right_image,-1,exp4.png,4,exp3.png,exp4.png,1,3,reversed,incorrect,0.9845668499827475,0,valid_lose,912.6721181999992,66,,,,,,,,,,,,,,,,,,sub_792,2024-03-25_11h18.34.620,Reversal,2023.1.3,60.04776198995601,4,
14,exp1.png,exp2.png,,,,,,,,,,,,,,,,,,2,0,2,0,0,14,14,14,,,,,,,,,False,54,135,False,exp1.png,exp2.png,trial_left_image,1,exp1.png,4,exp2.png,exp1.png,0,2,non-reversed,incorrect,0.03983553573780296,1,invalid_win,916.8373339999998,67,,,,,,,,,,,,,,,,,,sub_792,2024-03-25_11h18.34.620,Reversal,2023.1.3,60.04776198995601,4,
15,exp3.png,exp4.png,,,,,,,,,,,,,,,,,,2,0,2,0,0,15,15,15,,,,,,,,,False,55,136,False,exp3.png,exp4.png,trial_right_image,-1,exp4.png,4,exp3.png,exp4.png,1,3,reversed,incorrect,0.10043101004179134,1,invalid_win,921.0859727999996,68,,,,,,,,,,,,,,,,,,sub_792,2024-03-25_11h18.34.620,Reversal,2023.1.3,60.04776198995601,4,
16,exp1.png,exp2.png,,,,,,,,,,,,,,,,,,2,0,2,0,0,16,16,16,,,,,,,,,False,56,137,True,exp2.png,exp1.png,trial_right_image,-1,exp1.png,4,exp2.png,exp1.png,0,2,non-reversed,incorrect,0.5280904438686079,0,valid_lose,926.1173581999992,68,,,,,,,,,,,,,,,,,,sub_792,2024-03-25_11h18.34.620,Reversal,2023.1.3,60.04776198995601,4,
17,exp3.png,exp4.png,,,,,,,,,,,,,,,,,,2,0,2,0,0,17,17,17,,,,,,,,,False,57,138,False,exp3.png,exp4.png,trial_left_image,1,exp3.png,4,exp3.png,exp4.png,0,4,reversed,correct,0.729994786435365,1,valid_win,931.1326768999998,69,,,,,,,,,,,,,,,,,,sub_792,2024-03-25_11h18.34.620,Reversal,2023.1.3,60.04776198995601,4,
18,exp1.png,exp2.png,,,,,,,,,,,,,,,,,,2,0,2,0,0,18,18,18,,,,,,,,,False,58,139,False,exp1.png,exp2.png,trial_left_image,1,exp1.png,4,exp2.png,exp1.png,0,2,non-reversed,incorrect,0.7442229080517846,0,valid_lose,935.3141456999992,69,,,,,,,,,,,,,,,,,,sub_792,2024-03-25_11h18.34.620,Reversal,2023.1.3,60.04776198995601,4,
19,exp3.png,exp4.png,,,,,,,,,,,,,,,,,,2,0,2,0,0,19,19,19,,,,,,,,,False,59,140,True,exp4.png,exp3.png,trial_right_image,-1,exp3.png,4,exp3.png,exp4.png,0,4,reversed,correct,0.44139971298476954,1,valid_win,939.2965529999992,70,,,,,,,,,,,,,,,,,,sub_792,2024-03-25_11h18.34.620,Reversal,2023.1.3,60.04776198995601,4,
20,exp1.png,exp2.png,,,,,,,,,,,,,,,,,,2,0,2,0,0,20,20,20,,,,,,,,,True,,,,,,,,,,,,,,,,,,,,,,,,,,,,,,,,,,,,,,sub_792,2024-03-25_11h18.34.620,Reversal,2023.1.3,60.04776198995601,4,
,,,exp1.png,,,,,,,,,,,,,,,,,2,0,2,0,,,,,0,0,0,0,0,0,0,0,,,,,,,,,,,,,,,,,,,,,,1003.6979421000005,80.0,80.0,1.4405925999999454,"[(80.0, 1.4405925999999454)]",,,,,,,,,,,,,sub_792,2024-03-25_11h18.34.620,Reversal,2023.1.3,60.04776198995601,4,
,,,exp2.png,,,,,,,,,,,,,,,,,2,0,2,0,,,,,0,0,0,0,0,1,1,1,,,,,,,,,,,,,,,,,,,,,,1006.2037024000001,,11.0,1.0613699999994424,"[(11.0, 1.0613699999994424)]",11.0,,,,,,,,,,,,sub_792,2024-03-25_11h18.34.620,Reversal,2023.1.3,60.04776198995601,4,
,,,exp3.png,,,,,,,,,,,,,,,,,2,0,2,0,,,,,0,0,0,0,0,2,2,2,,,,,,,,,,,,,,,,,,,,,,1008.3846856999999,,80.0,0.8448725999996896,"[(80.0, 0.8448725999996896)]",,80.0,,,,,,,,,,,sub_792,2024-03-25_11h18.34.620,Reversal,2023.1.3,60.04776198995601,4,
,,,exp4.png,,,,,,,,,,,,,,,,,2,0,2,0,,,,,0,0,0,0,0,3,3,3,,,,,,,,,,,,,,,,,,,,,,1010.3041192000001,,17.0,1.0428583000002618,"[(17.0, 1.0428583000002618)]",,,17.0,,,,,,,,,,sub_792,2024-03-25_11h18.34.620,Reversal,2023.1.3,60.04776198995601,4,
,,,,,,,,,,,,,,,,,,,,,,,,,,,,,,,,,,,,,,,,,,,,,,,,,,,,,,,,70,,,,,,,,,,79,50,29,321.31299539999964,1,space,439.94638939999913,None,sub_792,2024-03-25_11h18.34.620,Reversal,2023.1.3,60.04776198995601,4,
