trial_index,trial_image1_file,trial_image2_file,image_file,learning_outer_loop.thisRepN,learning_outer_loop.thisTrialN,learning_outer_loop.thisN,learning_outer_loop.thisIndex,learning_inner_loop.thisRepN,learning_inner_loop.thisTrialN,learning_inner_loop.thisN,learning_inner_loop.thisIndex,learning_estimation_outer_loop.thisRepN,learning_estimation_outer_loop.thisTrialN,learning_estimation_outer_loop.thisN,learning_estimation_outer_loop.thisIndex,learning_estimation_inner_loop.thisRepN,learning_estimation_inner_loop.thisTrialN,learning_estimation_inner_loop.thisN,learning_estimation_inner_loop.thisIndex,reversal_outer_loop.thisRepN,reversal_outer_loop.thisTrialN,reversal_outer_loop.thisN,reversal_outer_loop.thisIndex,reversal_inner_loop.thisRepN,reversal_inner_loop.thisTrialN,reversal_inner_loop.thisN,reversal_inner_loop.thisIndex,reversal_estimation_outer_loop.thisRepN,reversal_estimation_outer_loop.thisTrialN,reversal_estimation_outer_loop.thisN,reversal_estimation_outer_loop.thisIndex,reversal_estimation_inner_loop.thisRepN,reversal_estimation_inner_loop.thisTrialN,reversal_estimation_inner_loop.thisN,reversal_estimation_inner_loop.thisIndex,skipped,total_trial_counter,trial_num,left_right_flip,left_image_file,right_image_file,clicked_stimulus_side,side,clicked_stimulus,version,high_prob_image_file,low_prob_image_file,choice_a,choice_b,pair_type,correct,trial_feedback_random,reward,trial_type,overall_time_after_trial,score,estimation_exp1.png,estimation_rating.response,estimation_rating.rt,estimation_rating.history,estimation_rating.started,estimation_rating.stopped,estimation_exp2.png,estimation_exp3.png,estimation_exp4.png,total_learning_time,total_correct,learning_correct,reversal_correct,total_reversal_time,extra_block,end_experiment.keys,end_experiment.rt,participant,date,expName,psychopyVersion,frameRate,ver,
0,exp1.png,exp2.png,,0,0,0,0,0,0,0,0,,,,,,,,,,,,,,,,,,,,,,,,,True,,,,,,,,,,,,,,,,,,,,,,,,,,,,,,,,,,,,,,sub_217,2022-09-12_16h17.53.509,Reversal,2022.1.1,60.120541686097525,1,
1,exp3.png,exp4.png,,0,0,0,0,0,1,1,1,,,,,,,,,,,,,,,,,,,,,,,,,False,0,1,False,exp3.png,exp4.png,trial_right_image,-1,exp4.png,1,exp3.png,exp4.png,0,2,non-reversed,incorrect,0.44743829715898376,0,valid_lose,3.2314830000000256,0,,,,,,,,,,,,,,,,,,sub_217,2022-09-12_16h17.53.509,Reversal,2022.1.1,60.120541686097525,1,
2,exp1.png,exp2.png,,0,0,0,0,0,2,2,2,,,,,,,,,,,,,,,,,,,,,,,,,False,1,2,False,exp1.png,exp2.png,trial_left_image,1,exp1.png,1,exp1.png,exp2.png,1,3,reversed,correct,0.5794305915633512,1,valid_win,10.463979000000108,1,,,,,,,,,,,,,,,,,,sub_217,2022-09-12_16h17.53.509,Reversal,2022.1.1,60.120541686097525,1,
3,exp3.png,exp4.png,,0,0,0,0,0,3,3,3,,,,,,,,,,,,,,,,,,,,,,,,,False,2,3,True,exp4.png,exp3.png,trial_right_image,-1,exp3.png,1,exp3.png,exp4.png,1,1,non-reversed,correct,0.5462523883924716,1,valid_win,17.429294500000196,2,,,,,,,,,,,,,,,,,,sub_217,2022-09-12_16h17.53.509,Reversal,2022.1.1,60.120541686097525,1,
4,exp1.png,exp2.png,,0,0,0,0,0,4,4,4,,,,,,,,,,,,,,,,,,,,,,,,,False,3,4,True,exp2.png,exp1.png,trial_right_image,-1,exp1.png,1,exp1.png,exp2.png,1,3,reversed,correct,0.8767569301578554,1,valid_win,23.712866300000314,3,,,,,,,,,,,,,,,,,,sub_217,2022-09-12_16h17.53.509,Reversal,2022.1.1,60.120541686097525,1,
5,exp3.png,exp4.png,,0,0,0,0,0,5,5,5,,,,,,,,,,,,,,,,,,,,,,,,,False,4,5,True,exp4.png,exp3.png,trial_right_image,-1,exp3.png,1,exp3.png,exp4.png,1,1,non-reversed,correct,0.9632913461311594,1,valid_win,29.64538390000007,4,,,,,,,,,,,,,,,,,,sub_217,2022-09-12_16h17.53.509,Reversal,2022.1.1,60.120541686097525,1,
6,exp1.png,exp2.png,,0,0,0,0,0,6,6,6,,,,,,,,,,,,,,,,,,,,,,,,,False,5,6,True,exp2.png,exp1.png,trial_right_image,-1,exp1.png,1,exp1.png,exp2.png,1,3,reversed,correct,0.06023813984660531,0,invalid_lose,35.294073200000184,4,,,,,,,,,,,,,,,,,,sub_217,2022-09-12_16h17.53.509,Reversal,2022.1.1,60.120541686097525,1,
7,exp3.png,exp4.png,,0,0,0,0,0,7,7,7,,,,,,,,,,,,,,,,,,,,,,,,,False,6,7,False,exp3.png,exp4.png,trial_left_image,1,exp3.png,1,exp3.png,exp4.png,1,1,non-reversed,correct,0.5433360605587401,1,valid_win,44.109864000000016,5,,,,,,,,,,,,,,,,,,sub_217,2022-09-12_16h17.53.509,Reversal,2022.1.1,60.120541686097525,1,
8,exp1.png,exp2.png,,0,0,0,0,0,8,8,8,,,,,,,,,,,,,,,,,,,,,,,,,False,7,8,True,exp2.png,exp1.png,trial_right_image,-1,exp1.png,1,exp1.png,exp2.png,1,3,reversed,correct,0.3091793256254728,1,valid_win,53.90822640000033,6,,,,,,,,,,,,,,,,,,sub_217,2022-09-12_16h17.53.509,Reversal,2022.1.1,60.120541686097525,1,
9,exp3.png,exp4.png,,0,0,0,0,0,9,9,9,,,,,,,,,,,,,,,,,,,,,,,,,False,8,9,False,exp3.png,exp4.png,trial_right_image,-1,exp4.png,1,exp3.png,exp4.png,0,2,non-reversed,incorrect,0.8077796537653614,0,valid_lose,60.007492900000216,6,,,,,,,,,,,,,,,,,,sub_217,2022-09-12_16h17.53.509,Reversal,2022.1.1,60.120541686097525,1,
10,exp1.png,exp2.png,,0,0,0,0,0,10,10,10,,,,,,,,,,,,,,,,,,,,,,,,,False,9,10,True,exp2.png,exp1.png,trial_left_image,1,exp2.png,1,exp1.png,exp2.png,0,4,reversed,incorrect,0.4870858201978262,0,valid_lose,66.12361600000031,6,,,,,,,,,,,,,,,,,,sub_217,2022-09-12_16h17.53.509,Reversal,2022.1.1,60.120541686097525,1,
11,exp3.png,exp4.png,,0,0,0,0,0,11,11,11,,,,,,,,,,,,,,,,,,,,,,,,,False,10,11,True,exp4.png,exp3.png,trial_left_image,1,exp4.png,1,exp3.png,exp4.png,0,2,non-reversed,incorrect,0.3086588903767029,0,valid_lose,74.34000390000028,6,,,,,,,,,,,,,,,,,,sub_217,2022-09-12_16h17.53.509,Reversal,2022.1.1,60.120541686097525,1,
12,exp1.png,exp2.png,,0,0,0,0,0,12,12,12,,,,,,,,,,,,,,,,,,,,,,,,,False,11,12,False,exp1.png,exp2.png,trial_left_image,1,exp1.png,1,exp1.png,exp2.png,1,3,reversed,correct,0.05624745946697729,0,invalid_lose,81.72204510000029,6,,,,,,,,,,,,,,,,,,sub_217,2022-09-12_16h17.53.509,Reversal,2022.1.1,60.120541686097525,1,
13,exp3.png,exp4.png,,0,0,0,0,0,13,13,13,,,,,,,,,,,,,,,,,,,,,,,,,False,12,13,False,exp3.png,exp4.png,trial_right_image,-1,exp4.png,1,exp3.png,exp4.png,0,2,non-reversed,incorrect,0.7291108981643051,0,valid_lose,86.83842330000016,6,,,,,,,,,,,,,,,,,,sub_217,2022-09-12_16h17.53.509,Reversal,2022.1.1,60.120541686097525,1,
14,exp1.png,exp2.png,,0,0,0,0,0,14,14,14,,,,,,,,,,,,,,,,,,,,,,,,,False,13,14,True,exp2.png,exp1.png,trial_right_image,-1,exp1.png,1,exp1.png,exp2.png,1,3,reversed,correct,0.12604961292107397,0,invalid_lose,93.93650390000039,6,,,,,,,,,,,,,,,,,,sub_217,2022-09-12_16h17.53.509,Reversal,2022.1.1,60.120541686097525,1,
15,exp3.png,exp4.png,,0,0,0,0,0,15,15,15,,,,,,,,,,,,,,,,,,,,,,,,,False,14,15,False,exp3.png,exp4.png,trial_right_image,-1,exp4.png,1,exp3.png,exp4.png,0,2,non-reversed,incorrect,0.2871948262175854,0,valid_lose,103.10226390000025,6,,,,,,,,,,,,,,,,,,sub_217,2022-09-12_16h17.53.509,Reversal,2022.1.1,60.120541686097525,1,
16,exp1.png,exp2.png,,0,0,0,0,0,16,16,16,,,,,,,,,,,,,,,,,,,,,,,,,False,15,16,True,exp2.png,exp1.png,trial_right_image,-1,exp1.png,1,exp1.png,exp2.png,1,3,reversed,correct,0.6698199432757024,1,valid_win,108.5861890000001,7,,,,,,,,,,,,,,,,,,sub_217,2022-09-12_16h17.53.509,Reversal,2022.1.1,60.120541686097525,1,
17,exp3.png,exp4.png,,0,0,0,0,0,17,17,17,,,,,,,,,,,,,,,,,,,,,,,,,False,16,17,False,exp3.png,exp4.png,trial_left_image,1,exp3.png,1,exp3.png,exp4.png,1,1,non-reversed,correct,0.780696930825504,1,valid_win,115.70075510000015,8,,,,,,,,,,,,,,,,,,sub_217,2022-09-12_16h17.53.509,Reversal,2022.1.1,60.120541686097525,1,
18,exp1.png,exp2.png,,0,0,0,0,0,18,18,18,,,,,,,,,,,,,,,,,,,,,,,,,False,17,18,True,exp2.png,exp1.png,trial_right_image,-1,exp1.png,1,exp1.png,exp2.png,1,3,reversed,correct,0.6523178424455301,1,valid_win,120.9325517000002,9,,,,,,,,,,,,,,,,,,sub_217,2022-09-12_16h17.53.509,Reversal,2022.1.1,60.120541686097525,1,
19,exp3.png,exp4.png,,0,0,0,0,0,19,19,19,,,,,,,,,,,,,,,,,,,,,,,,,False,18,19,False,exp3.png,exp4.png,trial_right_image,-1,exp4.png,1,exp3.png,exp4.png,0,2,non-reversed,incorrect,0.9104679022973425,0,valid_lose,133.69814180000003,9,,,,,,,,,,,,,,,,,,sub_217,2022-09-12_16h17.53.509,Reversal,2022.1.1,60.120541686097525,1,
20,exp1.png,exp2.png,,0,0,0,0,0,20,20,20,,,,,,,,,,,,,,,,,,,,,,,,,False,19,20,False,exp1.png,exp2.png,trial_left_image,1,exp1.png,1,exp1.png,exp2.png,1,3,reversed,correct,0.8491022686573045,1,valid_win,141.6474605000003,10,,,,,,,,,,,,,,,,,,sub_217,2022-09-12_16h17.53.509,Reversal,2022.1.1,60.120541686097525,1,
,,,exp1.png,0,0,0,0,,,,,0,0,0,0,0,0,0,0,,,,,,,,,,,,,,,,,,,,,,,,,,,,,,,,,,,,,,97.0,97.0,6.43740919999982,"[(97.0, 6.43740919999982)]",214.74966360000008,None,,,,,,,,,,,,sub_217,2022-09-12_16h17.53.509,Reversal,2022.1.1,60.120541686097525,1,
,,,exp2.png,0,0,0,0,,,,,0,0,0,0,0,1,1,1,,,,,,,,,,,,,,,,,,,,,,,,,,,,,,,,,,,,,,,15.0,8.500804099999641,"[(15.0, 8.500804099999641)]",222.8572161000002,None,15.0,,,,,,,,,,,sub_217,2022-09-12_16h17.53.509,Reversal,2022.1.1,60.120541686097525,1,
,,,exp3.png,0,0,0,0,,,,,0,0,0,0,0,2,2,2,,,,,,,,,,,,,,,,,,,,,,,,,,,,,,,,,,,,,,,77.0,2.8218285999996624,"[(77.0, 2.8218285999996624)]",232.78504310000017,None,,77.0,,,,,,,,,,sub_217,2022-09-12_16h17.53.509,Reversal,2022.1.1,60.120541686097525,1,
,,,exp4.png,0,0,0,0,,,,,0,0,0,0,0,3,3,3,,,,,,,,,,,,,,,,,,,,,,,,,,,,,,,,,,,,,,,72.0,2.9433961999998246,"[(72.0, 2.9433961999998246)]",236.62893470000017,None,,,72.0,,,,,,,,,sub_217,2022-09-12_16h17.53.509,Reversal,2022.1.1,60.120541686097525,1,
0,exp1.png,exp2.png,,1,0,1,0,0,0,0,0,,,,,,,,,,,,,,,,,,,,,,,,,True,,,,,,,,,,,,,,,,,,,,,,,,,,,,,,,,,,,,,,sub_217,2022-09-12_16h17.53.509,Reversal,2022.1.1,60.120541686097525,1,
1,exp3.png,exp4.png,,1,0,1,0,0,1,1,1,,,,,,,,,,,,,,,,,,,,,,,,,False,20,21,True,exp4.png,exp3.png,trial_left_image,1,exp4.png,1,exp3.png,exp4.png,0,2,non-reversed,incorrect,0.5390860549122576,0,valid_lose,173.57669400000032,10,,,,,,,,,,,,,,,,,,sub_217,2022-09-12_16h17.53.509,Reversal,2022.1.1,60.120541686097525,1,
2,exp1.png,exp2.png,,1,0,1,0,0,2,2,2,,,,,,,,,,,,,,,,,,,,,,,,,False,21,22,False,exp1.png,exp2.png,trial_right_image,-1,exp2.png,1,exp1.png,exp2.png,0,4,reversed,incorrect,0.12480853000739622,1,invalid_win,179.32572640000035,11,,,,,,,,,,,,,,,,,,sub_217,2022-09-12_16h17.53.509,Reversal,2022.1.1,60.120541686097525,1,
3,exp3.png,exp4.png,,1,0,1,0,0,3,3,3,,,,,,,,,,,,,,,,,,,,,,,,,False,22,23,True,exp4.png,exp3.png,trial_right_image,-1,exp3.png,1,exp3.png,exp4.png,1,1,non-reversed,correct,0.8336236866943881,1,valid_win,186.6245503,12,,,,,,,,,,,,,,,,,,sub_217,2022-09-12_16h17.53.509,Reversal,2022.1.1,60.120541686097525,1,
4,exp1.png,exp2.png,,1,0,1,0,0,4,4,4,,,,,,,,,,,,,,,,,,,,,,,,,False,23,24,False,exp1.png,exp2.png,trial_right_image,-1,exp2.png,1,exp1.png,exp2.png,0,4,reversed,incorrect,0.8353782921933474,0,valid_lose,192.52343450000035,12,,,,,,,,,,,,,,,,,,sub_217,2022-09-12_16h17.53.509,Reversal,2022.1.1,60.120541686097525,1,
5,exp3.png,exp4.png,,1,0,1,0,0,5,5,5,,,,,,,,,,,,,,,,,,,,,,,,,False,24,25,True,exp4.png,exp3.png,trial_right_image,-1,exp3.png,1,exp3.png,exp4.png,1,1,non-reversed,correct,0.47879390356257956,1,valid_win,199.07350750000023,13,,,,,,,,,,,,,,,,,,sub_217,2022-09-12_16h17.53.509,Reversal,2022.1.1,60.120541686097525,1,
6,exp1.png,exp2.png,,1,0,1,0,0,6,6,6,,,,,,,,,,,,,,,,,,,,,,,,,False,25,26,False,exp1.png,exp2.png,trial_left_image,1,exp1.png,1,exp1.png,exp2.png,1,3,reversed,correct,0.7509745613189448,1,valid_win,205.9719584000004,14,,,,,,,,,,,,,,,,,,sub_217,2022-09-12_16h17.53.509,Reversal,2022.1.1,60.120541686097525,1,
7,exp3.png,exp4.png,,1,0,1,0,0,7,7,7,,,,,,,,,,,,,,,,,,,,,,,,,False,26,27,True,exp4.png,exp3.png,trial_right_image,-1,exp3.png,1,exp3.png,exp4.png,1,1,non-reversed,correct,0.1768328178650409,0,invalid_lose,211.60472160000018,14,,,,,,,,,,,,,,,,,,sub_217,2022-09-12_16h17.53.509,Reversal,2022.1.1,60.120541686097525,1,
8,exp1.png,exp2.png,,1,0,1,0,0,8,8,8,,,,,,,,,,,,,,,,,,,,,,,,,False,27,28,False,exp1.png,exp2.png,trial_right_image,-1,exp2.png,1,exp1.png,exp2.png,0,4,reversed,incorrect,0.2031689159521335,1,invalid_win,217.3039506,15,,,,,,,,,,,,,,,,,,sub_217,2022-09-12_16h17.53.509,Reversal,2022.1.1,60.120541686097525,1,
9,exp3.png,exp4.png,,1,0,1,0,0,9,9,9,,,,,,,,,,,,,,,,,,,,,,,,,False,28,29,True,exp4.png,exp3.png,trial_left_image,1,exp4.png,1,exp3.png,exp4.png,0,2,non-reversed,incorrect,0.8007551998256373,0,valid_lose,222.42027510000025,15,,,,,,,,,,,,,,,,,,sub_217,2022-09-12_16h17.53.509,Reversal,2022.1.1,60.120541686097525,1,
10,exp1.png,exp2.png,,1,0,1,0,0,10,10,10,,,,,,,,,,,,,,,,,,,,,,,,,False,29,30,False,exp1.png,exp2.png,trial_left_image,1,exp1.png,1,exp1.png,exp2.png,1,3,reversed,correct,0.6169912459267517,1,valid_win,228.53673860000026,16,,,,,,,,,,,,,,,,,,sub_217,2022-09-12_16h17.53.509,Reversal,2022.1.1,60.120541686097525,1,
11,exp3.png,exp4.png,,1,0,1,0,0,11,11,11,,,,,,,,,,,,,,,,,,,,,,,,,False,30,31,False,exp3.png,exp4.png,trial_right_image,-1,exp4.png,1,exp3.png,exp4.png,0,2,non-reversed,incorrect,0.230233317590801,1,invalid_win,234.0854392000001,17,,,,,,,,,,,,,,,,,,sub_217,2022-09-12_16h17.53.509,Reversal,2022.1.1,60.120541686097525,1,
12,exp1.png,exp2.png,,1,0,1,0,0,12,12,12,,,,,,,,,,,,,,,,,,,,,,,,,False,31,32,True,exp2.png,exp1.png,trial_right_image,-1,exp1.png,1,exp1.png,exp2.png,1,3,reversed,correct,0.22409189996719303,0,invalid_lose,239.10136790000024,17,,,,,,,,,,,,,,,,,,sub_217,2022-09-12_16h17.53.509,Reversal,2022.1.1,60.120541686097525,1,
13,exp3.png,exp4.png,,1,0,1,0,0,13,13,13,,,,,,,,,,,,,,,,,,,,,,,,,False,32,33,True,exp4.png,exp3.png,trial_right_image,-1,exp3.png,1,exp3.png,exp4.png,1,1,non-reversed,correct,0.27768993779617523,1,valid_win,245.2343579000003,18,,,,,,,,,,,,,,,,,,sub_217,2022-09-12_16h17.53.509,Reversal,2022.1.1,60.120541686097525,1,
14,exp1.png,exp2.png,,1,0,1,0,0,14,14,14,,,,,,,,,,,,,,,,,,,,,,,,,False,33,34,False,exp1.png,exp2.png,trial_left_image,1,exp1.png,1,exp1.png,exp2.png,1,3,reversed,correct,0.9987435865600883,1,valid_win,250.88405760000023,19,,,,,,,,,,,,,,,,,,sub_217,2022-09-12_16h17.53.509,Reversal,2022.1.1,60.120541686097525,1,
15,exp3.png,exp4.png,,1,0,1,0,0,15,15,15,,,,,,,,,,,,,,,,,,,,,,,,,False,34,35,True,exp4.png,exp3.png,trial_right_image,-1,exp3.png,1,exp3.png,exp4.png,1,1,non-reversed,correct,0.34731396872268283,1,valid_win,255.04913890000034,20,,,,,,,,,,,,,,,,,,sub_217,2022-09-12_16h17.53.509,Reversal,2022.1.1,60.120541686097525,1,
16,exp1.png,exp2.png,,1,0,1,0,0,16,16,16,,,,,,,,,,,,,,,,,,,,,,,,,False,35,36,True,exp2.png,exp1.png,trial_left_image,1,exp2.png,1,exp1.png,exp2.png,0,4,reversed,incorrect,0.8230477724567148,0,valid_lose,259.46595290000005,20,,,,,,,,,,,,,,,,,,sub_217,2022-09-12_16h17.53.509,Reversal,2022.1.1,60.120541686097525,1,
17,exp3.png,exp4.png,,1,0,1,0,0,17,17,17,,,,,,,,,,,,,,,,,,,,,,,,,False,36,37,True,exp4.png,exp3.png,trial_left_image,1,exp4.png,1,exp3.png,exp4.png,0,2,non-reversed,incorrect,0.6496216468695766,0,valid_lose,265.21409900000026,20,,,,,,,,,,,,,,,,,,sub_217,2022-09-12_16h17.53.509,Reversal,2022.1.1,60.120541686097525,1,
18,exp1.png,exp2.png,,1,0,1,0,0,18,18,18,,,,,,,,,,,,,,,,,,,,,,,,,False,37,38,False,exp1.png,exp2.png,trial_right_image,-1,exp2.png,1,exp1.png,exp2.png,0,4,reversed,incorrect,0.827262116492127,0,valid_lose,270.1480270000002,20,,,,,,,,,,,,,,,,,,sub_217,2022-09-12_16h17.53.509,Reversal,2022.1.1,60.120541686097525,1,
19,exp3.png,exp4.png,,1,0,1,0,0,19,19,19,,,,,,,,,,,,,,,,,,,,,,,,,False,38,39,False,exp3.png,exp4.png,trial_right_image,-1,exp4.png,1,exp3.png,exp4.png,0,2,non-reversed,incorrect,0.11155895517963621,1,invalid_win,274.08076660000006,21,,,,,,,,,,,,,,,,,,sub_217,2022-09-12_16h17.53.509,Reversal,2022.1.1,60.120541686097525,1,
20,exp1.png,exp2.png,,1,0,1,0,0,20,20,20,,,,,,,,,,,,,,,,,,,,,,,,,False,39,40,False,exp1.png,exp2.png,trial_left_image,1,exp1.png,1,exp1.png,exp2.png,1,3,reversed,correct,0.21228211412682552,0,invalid_lose,278.2128478000004,21,,,,,,,,,,,,,,,,,,sub_217,2022-09-12_16h17.53.509,Reversal,2022.1.1,60.120541686097525,1,
,,,exp1.png,1,0,1,0,,,,,0,0,0,0,0,0,0,0,,,,,,,,,,,,,,,,,,,,,,,,,,,,,,,,,,,,,,65.0,65.0,4.21269140000004,"[(65.0, 4.21269140000004)]",351.31193630000007,None,,,,,,,,,,,,sub_217,2022-09-12_16h17.53.509,Reversal,2022.1.1,60.120541686097525,1,
,,,exp2.png,1,0,1,0,,,,,0,0,0,0,0,1,1,1,,,,,,,,,,,,,,,,,,,,,,,,,,,,,,,,,,,,,,,50.0,2.7693865000001097,"[(59.0, 1.5698261000002276), (50.0, 2.7693865000001097)]",356.4890954000002,None,50.0,,,,,,,,,,,sub_217,2022-09-12_16h17.53.509,Reversal,2022.1.1,60.120541686097525,1,
,,,exp3.png,1,0,1,0,,,,,0,0,0,0,0,2,2,2,,,,,,,,,,,,,,,,,,,,,,,,,,,,,,,,,,,,,,,50.0,None,[],360.3721193000001,None,,,,,,,,,,,,sub_217,2022-09-12_16h17.53.509,Reversal,2022.1.1,60.120541686097525,1,
,,,exp4.png,1,0,1,0,,,,,0,0,0,0,0,3,3,3,,,,,,,,,,,,,,,,,,,,,,,,,,,,,,,,,,,,,,,50.0,None,[],361.3831358000002,None,,,,,,,,,,,,sub_217,2022-09-12_16h17.53.509,Reversal,2022.1.1,60.120541686097525,1,
0,exp1.png,exp2.png,,2,0,2,0,0,0,0,0,,,,,,,,,,,,,,,,,,,,,,,,,True,,,,,,,,,,,,,,,,,,,,,,,,,,,,,,,,,,,,,,sub_217,2022-09-12_16h17.53.509,Reversal,2022.1.1,60.120541686097525,1,
1,exp3.png,exp4.png,,2,0,2,0,0,1,1,1,,,,,,,,,,,,,,,,,,,,,,,,,False,40,41,False,exp3.png,exp4.png,trial_left_image,1,exp3.png,1,exp3.png,exp4.png,1,1,non-reversed,correct,0.871186806774975,1,valid_win,297.1272672,22,,,,,,,,,,,,,,,,,,sub_217,2022-09-12_16h17.53.509,Reversal,2022.1.1,60.120541686097525,1,
2,exp1.png,exp2.png,,2,0,2,0,0,2,2,2,,,,,,,,,,,,,,,,,,,,,,,,,False,41,42,True,exp2.png,exp1.png,trial_right_image,-1,exp1.png,1,exp1.png,exp2.png,1,3,reversed,correct,0.2518407732154273,1,valid_win,302.0937253000002,23,,,,,,,,,,,,,,,,,,sub_217,2022-09-12_16h17.53.509,Reversal,2022.1.1,60.120541686097525,1,
3,exp3.png,exp4.png,,2,0,2,0,0,3,3,3,,,,,,,,,,,,,,,,,,,,,,,,,False,42,43,False,exp3.png,exp4.png,trial_left_image,1,exp3.png,1,exp3.png,exp4.png,1,1,non-reversed,correct,0.7737006130849665,1,valid_win,307.2922110000004,24,,,,,,,,,,,,,,,,,,sub_217,2022-09-12_16h17.53.509,Reversal,2022.1.1,60.120541686097525,1,
4,exp1.png,exp2.png,,2,0,2,0,0,4,4,4,,,,,,,,,,,,,,,,,,,,,,,,,False,43,44,True,exp2.png,exp1.png,trial_right_image,-1,exp1.png,1,exp1.png,exp2.png,1,3,reversed,correct,0.4762602955756102,1,valid_win,311.2920216000002,25,,,,,,,,,,,,,,,,,,sub_217,2022-09-12_16h17.53.509,Reversal,2022.1.1,60.120541686097525,1,
5,exp3.png,exp4.png,,2,0,2,0,0,5,5,5,,,,,,,,,,,,,,,,,,,,,,,,,False,44,45,True,exp4.png,exp3.png,trial_right_image,-1,exp3.png,1,exp3.png,exp4.png,1,1,non-reversed,correct,0.6257769565036675,1,valid_win,315.70875650000016,26,,,,,,,,,,,,,,,,,,sub_217,2022-09-12_16h17.53.509,Reversal,2022.1.1,60.120541686097525,1,
6,exp1.png,exp2.png,,2,0,2,0,0,6,6,6,,,,,,,,,,,,,,,,,,,,,,,,,False,45,46,False,exp1.png,exp2.png,trial_left_image,1,exp1.png,1,exp1.png,exp2.png,1,3,reversed,correct,0.5152600450881839,1,valid_win,320.1075297000002,27,,,,,,,,,,,,,,,,,,sub_217,2022-09-12_16h17.53.509,Reversal,2022.1.1,60.120541686097525,1,
7,exp3.png,exp4.png,,2,0,2,0,0,7,7,7,,,,,,,,,,,,,,,,,,,,,,,,,False,46,47,False,exp3.png,exp4.png,trial_left_image,1,exp3.png,1,exp3.png,exp4.png,1,1,non-reversed,correct,0.1417154010787528,0,invalid_lose,324.6076317000002,27,,,,,,,,,,,,,,,,,,sub_217,2022-09-12_16h17.53.509,Reversal,2022.1.1,60.120541686097525,1,
8,exp1.png,exp2.png,,2,0,2,0,0,8,8,8,,,,,,,,,,,,,,,,,,,,,,,,,False,47,48,False,exp1.png,exp2.png,trial_left_image,1,exp1.png,1,exp1.png,exp2.png,1,3,reversed,correct,0.5652746731495022,1,valid_win,329.30728430000045,28,,,,,,,,,,,,,,,,,,sub_217,2022-09-12_16h17.53.509,Reversal,2022.1.1,60.120541686097525,1,
9,exp3.png,exp4.png,,2,0,2,0,0,9,9,9,,,,,,,,,,,,,,,,,,,,,,,,,False,48,49,True,exp4.png,exp3.png,trial_right_image,-1,exp3.png,1,exp3.png,exp4.png,1,1,non-reversed,correct,0.02438064429825626,0,invalid_lose,333.60509660000025,28,,,,,,,,,,,,,,,,,,sub_217,2022-09-12_16h17.53.509,Reversal,2022.1.1,60.120541686097525,1,
10,exp1.png,exp2.png,,2,0,2,0,0,10,10,10,,,,,,,,,,,,,,,,,,,,,,,,,False,49,50,False,exp1.png,exp2.png,trial_left_image,1,exp1.png,1,exp1.png,exp2.png,1,3,reversed,correct,0.14527510604737448,0,invalid_lose,338.0553411000001,28,,,,,,,,,,,,,,,,,,sub_217,2022-09-12_16h17.53.509,Reversal,2022.1.1,60.120541686097525,1,
11,exp3.png,exp4.png,,2,0,2,0,0,11,11,11,,,,,,,,,,,,,,,,,,,,,,,,,False,50,51,True,exp4.png,exp3.png,trial_left_image,1,exp4.png,1,exp3.png,exp4.png,0,2,non-reversed,incorrect,0.7562500359783773,0,valid_lose,342.12257580000005,28,,,,,,,,,,,,,,,,,,sub_217,2022-09-12_16h17.53.509,Reversal,2022.1.1,60.120541686097525,1,
12,exp1.png,exp2.png,,2,0,2,0,0,12,12,12,,,,,,,,,,,,,,,,,,,,,,,,,False,51,52,True,exp2.png,exp1.png,trial_right_image,-1,exp1.png,1,exp1.png,exp2.png,1,3,reversed,correct,0.2199417043077222,0,invalid_lose,346.27144670000007,28,,,,,,,,,,,,,,,,,,sub_217,2022-09-12_16h17.53.509,Reversal,2022.1.1,60.120541686097525,1,
13,exp3.png,exp4.png,,2,0,2,0,0,13,13,13,,,,,,,,,,,,,,,,,,,,,,,,,False,52,53,False,exp3.png,exp4.png,trial_left_image,1,exp3.png,1,exp3.png,exp4.png,1,1,non-reversed,correct,0.8494488023611034,1,valid_win,351.42052870000043,29,,,,,,,,,,,,,,,,,,sub_217,2022-09-12_16h17.53.509,Reversal,2022.1.1,60.120541686097525,1,
14,exp1.png,exp2.png,,2,0,2,0,0,14,14,14,,,,,,,,,,,,,,,,,,,,,,,,,False,53,54,True,exp2.png,exp1.png,trial_right_image,-1,exp1.png,1,exp1.png,exp2.png,1,3,reversed,correct,0.4454569727456832,1,valid_win,355.5869104000003,30,,,,,,,,,,,,,,,,,,sub_217,2022-09-12_16h17.53.509,Reversal,2022.1.1,60.120541686097525,1,
15,exp3.png,exp4.png,,2,0,2,0,0,15,15,15,,,,,,,,,,,,,,,,,,,,,,,,,False,54,55,True,exp4.png,exp3.png,trial_right_image,-1,exp3.png,1,exp3.png,exp4.png,1,1,non-reversed,correct,0.7314299091235535,1,valid_win,359.9186692000003,31,,,,,,,,,,,,,,,,,,sub_217,2022-09-12_16h17.53.509,Reversal,2022.1.1,60.120541686097525,1,
16,exp1.png,exp2.png,,2,0,2,0,0,16,16,16,,,,,,,,,,,,,,,,,,,,,,,,,False,55,56,True,exp2.png,exp1.png,trial_right_image,-1,exp1.png,1,exp1.png,exp2.png,1,3,reversed,correct,0.24651725655967816,0,invalid_lose,364.11812290000034,31,,,,,,,,,,,,,,,,,,sub_217,2022-09-12_16h17.53.509,Reversal,2022.1.1,60.120541686097525,1,
17,exp3.png,exp4.png,,2,0,2,0,0,17,17,17,,,,,,,,,,,,,,,,,,,,,,,,,False,56,57,False,exp3.png,exp4.png,trial_left_image,1,exp3.png,1,exp3.png,exp4.png,1,1,non-reversed,correct,0.3090704295293216,1,valid_win,368.56870400000025,32,,,,,,,,,,,,,,,,,,sub_217,2022-09-12_16h17.53.509,Reversal,2022.1.1,60.120541686097525,1,
18,exp1.png,exp2.png,,2,0,2,0,0,18,18,18,,,,,,,,,,,,,,,,,,,,,,,,,False,57,58,False,exp1.png,exp2.png,trial_left_image,1,exp1.png,1,exp1.png,exp2.png,1,3,reversed,correct,0.7240969294190917,1,valid_win,372.88421340000014,33,,,,,,,,,,,,,,,,,,sub_217,2022-09-12_16h17.53.509,Reversal,2022.1.1,60.120541686097525,1,
19,exp3.png,exp4.png,,2,0,2,0,0,19,19,19,,,,,,,,,,,,,,,,,,,,,,,,,False,58,59,False,exp3.png,exp4.png,trial_left_image,1,exp3.png,1,exp3.png,exp4.png,1,1,non-reversed,correct,0.08252208005321338,0,invalid_lose,377.23279820000016,33,,,,,,,,,,,,,,,,,,sub_217,2022-09-12_16h17.53.509,Reversal,2022.1.1,60.120541686097525,1,
20,exp1.png,exp2.png,,2,0,2,0,0,20,20,20,,,,,,,,,,,,,,,,,,,,,,,,,False,59,60,True,exp2.png,exp1.png,trial_right_image,-1,exp1.png,1,exp1.png,exp2.png,1,3,reversed,correct,0.4305662207541666,1,valid_win,381.5491275000004,34,,,,,,,,,,,,,,,,,,sub_217,2022-09-12_16h17.53.509,Reversal,2022.1.1,60.120541686097525,1,
,,,exp1.png,2,0,2,0,,,,,0,0,0,0,0,0,0,0,,,,,,,,,,,,,,,,,,,,,,,,,,,,,,,,,,,,,,81.0,81.0,3.584795799999938,"[(81.0, 3.584795799999938)]",454.6436652000002,None,,,,,,,,,,,,sub_217,2022-09-12_16h17.53.509,Reversal,2022.1.1,60.120541686097525,1,
,,,exp2.png,2,0,2,0,,,,,0,0,0,0,0,1,1,1,,,,,,,,,,,,,,,,,,,,,,,,,,,,,,,,,,,,,,,50.0,None,[],459.30070430000023,None,,,,,,,,,,,,sub_217,2022-09-12_16h17.53.509,Reversal,2022.1.1,60.120541686097525,1,
,,,exp3.png,2,0,2,0,,,,,0,0,0,0,0,2,2,2,,,,,,,,,,,,,,,,,,,,,,,,,,,,,,,,,,,,,,,81.0,1.8399354000002859,"[(81.0, 1.8399354000002859)]",463.15476390000003,None,,81.0,,,,,,,,,,sub_217,2022-09-12_16h17.53.509,Reversal,2022.1.1,60.120541686097525,1,
,,,exp4.png,2,0,2,0,,,,,0,0,0,0,0,3,3,3,,,,,,,,,,,,,,,,,,,,,,,,,,,,,,,,,,,,,,,50.0,None,[],466.01626380000016,None,,,,,,,,,,,,sub_217,2022-09-12_16h17.53.509,Reversal,2022.1.1,60.120541686097525,1,
0,exp1.png,exp2.png,,,,,,,,,,,,,,,,,,0,0,0,0,0,0,0,0,,,,,,,,,True,,,,,,,,,,,,,,,,,,,,,,,,,,,,,,,,,,,,,,sub_217,2022-09-12_16h17.53.509,Reversal,2022.1.1,60.120541686097525,1,
1,exp3.png,exp4.png,,,,,,,,,,,,,,,,,,0,0,0,0,0,1,1,1,,,,,,,,,False,0,61,False,exp3.png,exp4.png,trial_right_image,-1,exp4.png,1,exp3.png,exp4.png,0,2,non-reversed,incorrect,0.7020377586240911,0,valid_lose,399.1309040000001,34,,,,,,,,,,396.8710662000003,,,,,,,,sub_217,2022-09-12_16h17.53.509,Reversal,2022.1.1,60.120541686097525,1,
2,exp1.png,exp2.png,,,,,,,,,,,,,,,,,,0,0,0,0,0,2,2,2,,,,,,,,,False,1,62,False,exp1.png,exp2.png,trial_right_image,-1,exp2.png,1,exp2.png,exp1.png,0,4,reversed,correct,0.9016149450056896,1,valid_win,403.46306440000035,35,,,,,,,,,,,,,,,,,,sub_217,2022-09-12_16h17.53.509,Reversal,2022.1.1,60.120541686097525,1,
3,exp3.png,exp4.png,,,,,,,,,,,,,,,,,,0,0,0,0,0,3,3,3,,,,,,,,,False,2,63,True,exp4.png,exp3.png,trial_left_image,1,exp4.png,1,exp3.png,exp4.png,0,2,non-reversed,incorrect,0.16229904069390944,1,invalid_win,408.2805921000004,36,,,,,,,,,,,,,,,,,,sub_217,2022-09-12_16h17.53.509,Reversal,2022.1.1,60.120541686097525,1,
4,exp1.png,exp2.png,,,,,,,,,,,,,,,,,,0,0,0,0,0,4,4,4,,,,,,,,,False,3,64,True,exp2.png,exp1.png,trial_left_image,1,exp2.png,1,exp2.png,exp1.png,0,4,reversed,correct,0.32598548876226685,1,valid_win,413.32909910000035,37,,,,,,,,,,,,,,,,,,sub_217,2022-09-12_16h17.53.509,Reversal,2022.1.1,60.120541686097525,1,
5,exp3.png,exp4.png,,,,,,,,,,,,,,,,,,0,0,0,0,0,5,5,5,,,,,,,,,False,4,65,True,exp4.png,exp3.png,trial_left_image,1,exp4.png,1,exp3.png,exp4.png,0,2,non-reversed,incorrect,0.8297977843876645,0,valid_lose,417.8616541000001,37,,,,,,,,,,,,,,,,,,sub_217,2022-09-12_16h17.53.509,Reversal,2022.1.1,60.120541686097525,1,
6,exp1.png,exp2.png,,,,,,,,,,,,,,,,,,0,0,0,0,0,6,6,6,,,,,,,,,False,5,66,False,exp1.png,exp2.png,trial_right_image,-1,exp2.png,1,exp2.png,exp1.png,0,4,reversed,correct,0.3640186288420033,1,valid_win,422.27818970000044,38,,,,,,,,,,,,,,,,,,sub_217,2022-09-12_16h17.53.509,Reversal,2022.1.1,60.120541686097525,1,
7,exp3.png,exp4.png,,,,,,,,,,,,,,,,,,0,0,0,0,0,7,7,7,,,,,,,,,False,6,67,False,exp3.png,exp4.png,trial_right_image,-1,exp4.png,1,exp3.png,exp4.png,0,2,non-reversed,incorrect,0.3624961696155551,0,valid_lose,426.71036970000023,38,,,,,,,,,,,,,,,,,,sub_217,2022-09-12_16h17.53.509,Reversal,2022.1.1,60.120541686097525,1,
8,exp1.png,exp2.png,,,,,,,,,,,,,,,,,,0,0,0,0,0,8,8,8,,,,,,,,,False,7,68,True,exp2.png,exp1.png,trial_left_image,1,exp2.png,1,exp2.png,exp1.png,0,4,reversed,correct,0.6312479295778417,1,valid_win,431.05927180000026,39,,,,,,,,,,,,,,,,,,sub_217,2022-09-12_16h17.53.509,Reversal,2022.1.1,60.120541686097525,1,
9,exp3.png,exp4.png,,,,,,,,,,,,,,,,,,0,0,0,0,0,9,9,9,,,,,,,,,False,8,69,True,exp4.png,exp3.png,trial_left_image,1,exp4.png,1,exp3.png,exp4.png,0,2,non-reversed,incorrect,0.7117268032162742,0,valid_lose,435.40957700000035,39,,,,,,,,,,,,,,,,,,sub_217,2022-09-12_16h17.53.509,Reversal,2022.1.1,60.120541686097525,1,
10,exp1.png,exp2.png,,,,,,,,,,,,,,,,,,0,0,0,0,0,10,10,10,,,,,,,,,False,9,70,True,exp2.png,exp1.png,trial_right_image,-1,exp1.png,1,exp2.png,exp1.png,1,3,reversed,incorrect,0.954558691227386,0,valid_lose,439.7077975000002,39,,,,,,,,,,,,,,,,,,sub_217,2022-09-12_16h17.53.509,Reversal,2022.1.1,60.120541686097525,1,
11,exp3.png,exp4.png,,,,,,,,,,,,,,,,,,0,0,0,0,0,11,11,11,,,,,,,,,False,10,71,False,exp3.png,exp4.png,trial_right_image,-1,exp4.png,1,exp3.png,exp4.png,0,2,non-reversed,incorrect,0.23869688241554243,1,invalid_win,444.2086843000002,40,,,,,,,,,,,,,,,,,,sub_217,2022-09-12_16h17.53.509,Reversal,2022.1.1,60.120541686097525,1,
12,exp1.png,exp2.png,,,,,,,,,,,,,,,,,,0,0,0,0,0,12,12,12,,,,,,,,,False,11,72,True,exp2.png,exp1.png,trial_left_image,1,exp2.png,1,exp2.png,exp1.png,0,4,reversed,correct,0.14230788426990781,0,invalid_lose,448.60820330000024,40,,,,,,,,,,,,,,,,,,sub_217,2022-09-12_16h17.53.509,Reversal,2022.1.1,60.120541686097525,1,
13,exp3.png,exp4.png,,,,,,,,,,,,,,,,,,0,0,0,0,0,13,13,13,,,,,,,,,False,12,73,False,exp3.png,exp4.png,trial_right_image,-1,exp4.png,1,exp3.png,exp4.png,0,2,non-reversed,incorrect,0.45282063240139103,0,valid_lose,454.2913367000001,40,,,,,,,,,,,,,,,,,,sub_217,2022-09-12_16h17.53.509,Reversal,2022.1.1,60.120541686097525,1,
14,exp1.png,exp2.png,,,,,,,,,,,,,,,,,,0,0,0,0,0,14,14,14,,,,,,,,,False,13,74,False,exp1.png,exp2.png,trial_right_image,-1,exp2.png,1,exp2.png,exp1.png,0,4,reversed,correct,0.3935127788976487,1,valid_win,458.63948310000023,41,,,,,,,,,,,,,,,,,,sub_217,2022-09-12_16h17.53.509,Reversal,2022.1.1,60.120541686097525,1,
15,exp3.png,exp4.png,,,,,,,,,,,,,,,,,,0,0,0,0,0,15,15,15,,,,,,,,,False,14,75,True,exp4.png,exp3.png,trial_left_image,1,exp4.png,1,exp3.png,exp4.png,0,2,non-reversed,incorrect,0.7431670670612686,0,valid_lose,463.02179560000013,41,,,,,,,,,,,,,,,,,,sub_217,2022-09-12_16h17.53.509,Reversal,2022.1.1,60.120541686097525,1,
16,exp1.png,exp2.png,,,,,,,,,,,,,,,,,,0,0,0,0,0,16,16,16,,,,,,,,,False,15,76,False,exp1.png,exp2.png,trial_right_image,-1,exp2.png,1,exp2.png,exp1.png,0,4,reversed,correct,0.963167650050036,1,valid_win,467.23917610000035,42,,,,,,,,,,,,,,,,,,sub_217,2022-09-12_16h17.53.509,Reversal,2022.1.1,60.120541686097525,1,
17,exp3.png,exp4.png,,,,,,,,,,,,,,,,,,0,0,0,0,0,17,17,17,,,,,,,,,False,16,77,False,exp3.png,exp4.png,trial_right_image,-1,exp4.png,1,exp3.png,exp4.png,0,2,non-reversed,incorrect,0.5875432510171011,0,valid_lose,471.6042273000003,42,,,,,,,,,,,,,,,,,,sub_217,2022-09-12_16h17.53.509,Reversal,2022.1.1,60.120541686097525,1,
18,exp1.png,exp2.png,,,,,,,,,,,,,,,,,,0,0,0,0,0,18,18,18,,,,,,,,,False,17,78,False,exp1.png,exp2.png,trial_right_image,-1,exp2.png,1,exp2.png,exp1.png,0,4,reversed,correct,0.21018212651881585,0,invalid_lose,476.4379379000002,42,,,,,,,,,,,,,,,,,,sub_217,2022-09-12_16h17.53.509,Reversal,2022.1.1,60.120541686097525,1,
19,exp3.png,exp4.png,,,,,,,,,,,,,,,,,,0,0,0,0,0,19,19,19,,,,,,,,,False,18,79,True,exp4.png,exp3.png,trial_left_image,1,exp4.png,1,exp3.png,exp4.png,0,2,non-reversed,incorrect,0.1034292171969986,1,invalid_win,481.1694338000002,43,,,,,,,,,,,,,,,,,,sub_217,2022-09-12_16h17.53.509,Reversal,2022.1.1,60.120541686097525,1,
20,exp1.png,exp2.png,,,,,,,,,,,,,,,,,,0,0,0,0,0,20,20,20,,,,,,,,,False,19,80,True,exp2.png,exp1.png,trial_left_image,1,exp2.png,1,exp2.png,exp1.png,0,4,reversed,correct,0.16382882895063844,0,invalid_lose,485.75339410000015,43,,,,,,,,,,,,,,,,,,sub_217,2022-09-12_16h17.53.509,Reversal,2022.1.1,60.120541686097525,1,
,,,exp1.png,,,,,,,,,,,,,,,,,0,0,0,0,,,,,0,0,0,0,0,0,0,0,,,,,,,,,,,,,,,,,,,,,,79.0,79.0,4.011106099999779,"[(79.0, 4.011106099999779)]",558.8536499000002,None,,,,,,,,,,,,sub_217,2022-09-12_16h17.53.509,Reversal,2022.1.1,60.120541686097525,1,
,,,exp2.png,,,,,,,,,,,,,,,,,0,0,0,0,,,,,0,0,0,0,0,1,1,1,,,,,,,,,,,,,,,,,,,,,,,76.0,8.060064799999964,"[(83.0, 5.826520799999798), (76.0, 8.060064799999964)]",563.9194252000002,None,76.0,,,,,,,,,,,sub_217,2022-09-12_16h17.53.509,Reversal,2022.1.1,60.120541686097525,1,
,,,exp3.png,,,,,,,,,,,,,,,,,0,0,0,0,,,,,0,0,0,0,0,2,2,2,,,,,,,,,,,,,,,,,,,,,,,77.0,2.873704699999962,"[(77.0, 2.873704699999962)]",572.9211162000001,None,,77.0,,,,,,,,,,sub_217,2022-09-12_16h17.53.509,Reversal,2022.1.1,60.120541686097525,1,
,,,exp4.png,,,,,,,,,,,,,,,,,0,0,0,0,,,,,0,0,0,0,0,3,3,3,,,,,,,,,,,,,,,,,,,,,,,19.0,1.756225600000107,"[(19.0, 1.756225600000107)]",576.7700987000003,None,,,19.0,,,,,,,,,sub_217,2022-09-12_16h17.53.509,Reversal,2022.1.1,60.120541686097525,1,
0,exp1.png,exp2.png,,,,,,,,,,,,,,,,,,1,0,1,0,0,0,0,0,,,,,,,,,True,,,,,,,,,,,,,,,,,,,,,,,,,,,,,,,,,,,,,,sub_217,2022-09-12_16h17.53.509,Reversal,2022.1.1,60.120541686097525,1,
1,exp3.png,exp4.png,,,,,,,,,,,,,,,,,,1,0,1,0,0,1,1,1,,,,,,,,,False,20,81,False,exp3.png,exp4.png,trial_left_image,1,exp3.png,1,exp3.png,exp4.png,1,1,non-reversed,correct,0.3702414243340246,1,valid_win,513.816006,44,,,,,,,,,,,,,,,,,,sub_217,2022-09-12_16h17.53.509,Reversal,2022.1.1,60.120541686097525,1,
2,exp1.png,exp2.png,,,,,,,,,,,,,,,,,,1,0,1,0,0,2,2,2,,,,,,,,,False,21,82,False,exp1.png,exp2.png,trial_right_image,-1,exp2.png,1,exp2.png,exp1.png,0,4,reversed,correct,0.6142788892944746,1,valid_win,519.9314422000002,45,,,,,,,,,,,,,,,,,,sub_217,2022-09-12_16h17.53.509,Reversal,2022.1.1,60.120541686097525,1,
3,exp3.png,exp4.png,,,,,,,,,,,,,,,,,,1,0,1,0,0,3,3,3,,,,,,,,,False,22,83,True,exp4.png,exp3.png,trial_right_image,-1,exp3.png,1,exp3.png,exp4.png,1,1,non-reversed,correct,0.8001227942880053,1,valid_win,524.8805736000004,46,,,,,,,,,,,,,,,,,,sub_217,2022-09-12_16h17.53.509,Reversal,2022.1.1,60.120541686097525,1,
4,exp1.png,exp2.png,,,,,,,,,,,,,,,,,,1,0,1,0,0,4,4,4,,,,,,,,,False,23,84,False,exp1.png,exp2.png,trial_left_image,1,exp1.png,1,exp2.png,exp1.png,1,3,reversed,incorrect,0.9352737601659595,0,valid_lose,529.9809371000001,46,,,,,,,,,,,,,,,,,,sub_217,2022-09-12_16h17.53.509,Reversal,2022.1.1,60.120541686097525,1,
5,exp3.png,exp4.png,,,,,,,,,,,,,,,,,,1,0,1,0,0,5,5,5,,,,,,,,,False,24,85,False,exp3.png,exp4.png,trial_left_image,1,exp3.png,1,exp3.png,exp4.png,1,1,non-reversed,correct,0.4368240440565375,1,valid_win,536.6129539000003,47,,,,,,,,,,,,,,,,,,sub_217,2022-09-12_16h17.53.509,Reversal,2022.1.1,60.120541686097525,1,
6,exp1.png,exp2.png,,,,,,,,,,,,,,,,,,1,0,1,0,0,6,6,6,,,,,,,,,False,25,86,True,exp2.png,exp1.png,trial_left_image,1,exp2.png,1,exp2.png,exp1.png,0,4,reversed,correct,0.006398868132555413,0,invalid_lose,542.4951817000001,47,,,,,,,,,,,,,,,,,,sub_217,2022-09-12_16h17.53.509,Reversal,2022.1.1,60.120541686097525,1,
7,exp3.png,exp4.png,,,,,,,,,,,,,,,,,,1,0,1,0,0,7,7,7,,,,,,,,,False,26,87,False,exp3.png,exp4.png,trial_left_image,1,exp3.png,1,exp3.png,exp4.png,1,1,non-reversed,correct,0.5037906156131307,1,valid_win,548.3789329000001,48,,,,,,,,,,,,,,,,,,sub_217,2022-09-12_16h17.53.509,Reversal,2022.1.1,60.120541686097525,1,
8,exp1.png,exp2.png,,,,,,,,,,,,,,,,,,1,0,1,0,0,8,8,8,,,,,,,,,False,27,88,True,exp2.png,exp1.png,trial_right_image,-1,exp1.png,1,exp2.png,exp1.png,1,3,reversed,incorrect,0.5607916630273746,0,valid_lose,552.6940532000003,48,,,,,,,,,,,,,,,,,,sub_217,2022-09-12_16h17.53.509,Reversal,2022.1.1,60.120541686097525,1,
9,exp3.png,exp4.png,,,,,,,,,,,,,,,,,,1,0,1,0,0,9,9,9,,,,,,,,,False,28,89,True,exp4.png,exp3.png,trial_right_image,-1,exp3.png,1,exp3.png,exp4.png,1,1,non-reversed,correct,0.5517946445986672,1,valid_win,558.5770519000002,49,,,,,,,,,,,,,,,,,,sub_217,2022-09-12_16h17.53.509,Reversal,2022.1.1,60.120541686097525,1,
10,exp1.png,exp2.png,,,,,,,,,,,,,,,,,,1,0,1,0,0,10,10,10,,,,,,,,,False,29,90,False,exp1.png,exp2.png,trial_left_image,1,exp1.png,1,exp2.png,exp1.png,1,3,reversed,incorrect,0.42543434773369193,0,valid_lose,562.9259563,49,,,,,,,,,,,,,,,,,,sub_217,2022-09-12_16h17.53.509,Reversal,2022.1.1,60.120541686097525,1,
11,exp3.png,exp4.png,,,,,,,,,,,,,,,,,,1,0,1,0,0,11,11,11,,,,,,,,,False,30,91,True,exp4.png,exp3.png,trial_right_image,-1,exp3.png,1,exp3.png,exp4.png,1,1,non-reversed,correct,0.05021746009488326,0,invalid_lose,567.2083562000003,49,,,,,,,,,,,,,,,,,,sub_217,2022-09-12_16h17.53.509,Reversal,2022.1.1,60.120541686097525,1,
12,exp1.png,exp2.png,,,,,,,,,,,,,,,,,,1,0,1,0,0,12,12,12,,,,,,,,,False,31,92,False,exp1.png,exp2.png,trial_left_image,1,exp1.png,1,exp2.png,exp1.png,1,3,reversed,incorrect,0.04096734766167265,1,invalid_win,571.9913493000004,50,,,,,,,,,,,,,,,,,,sub_217,2022-09-12_16h17.53.509,Reversal,2022.1.1,60.120541686097525,1,
13,exp3.png,exp4.png,,,,,,,,,,,,,,,,,,1,0,1,0,0,13,13,13,,,,,,,,,False,32,93,False,exp3.png,exp4.png,trial_right_image,-1,exp4.png,1,exp3.png,exp4.png,0,2,non-reversed,incorrect,0.3824192970119835,0,valid_lose,576.7249723000004,50,,,,,,,,,,,,,,,,,,sub_217,2022-09-12_16h17.53.509,Reversal,2022.1.1,60.120541686097525,1,
14,exp1.png,exp2.png,,,,,,,,,,,,,,,,,,1,0,1,0,0,14,14,14,,,,,,,,,False,33,94,False,exp1.png,exp2.png,trial_left_image,1,exp1.png,1,exp2.png,exp1.png,1,3,reversed,incorrect,0.9418148977040399,0,valid_lose,581.1239494000001,50,,,,,,,,,,,,,,,,,,sub_217,2022-09-12_16h17.53.509,Reversal,2022.1.1,60.120541686097525,1,
15,exp3.png,exp4.png,,,,,,,,,,,,,,,,,,1,0,1,0,0,15,15,15,,,,,,,,,False,34,95,True,exp4.png,exp3.png,trial_right_image,-1,exp3.png,1,exp3.png,exp4.png,1,1,non-reversed,correct,0.558890124834912,1,valid_win,585.6226127000004,51,,,,,,,,,,,,,,,,,,sub_217,2022-09-12_16h17.53.509,Reversal,2022.1.1,60.120541686097525,1,
16,exp1.png,exp2.png,,,,,,,,,,,,,,,,,,1,0,1,0,0,16,16,16,,,,,,,,,False,35,96,True,exp2.png,exp1.png,trial_right_image,-1,exp1.png,1,exp2.png,exp1.png,1,3,reversed,incorrect,0.3770201578534855,0,valid_lose,590.1562343,51,,,,,,,,,,,,,,,,,,sub_217,2022-09-12_16h17.53.509,Reversal,2022.1.1,60.120541686097525,1,
17,exp3.png,exp4.png,,,,,,,,,,,,,,,,,,1,0,1,0,0,17,17,17,,,,,,,,,False,36,97,True,exp4.png,exp3.png,trial_right_image,-1,exp3.png,1,exp3.png,exp4.png,1,1,non-reversed,correct,0.6041732575059229,1,valid_win,594.8716927,52,,,,,,,,,,,,,,,,,,sub_217,2022-09-12_16h17.53.509,Reversal,2022.1.1,60.120541686097525,1,
18,exp1.png,exp2.png,,,,,,,,,,,,,,,,,,1,0,1,0,0,18,18,18,,,,,,,,,False,37,98,True,exp2.png,exp1.png,trial_right_image,-1,exp1.png,1,exp2.png,exp1.png,1,3,reversed,incorrect,0.16638112393933868,1,invalid_win,599.0211429000001,53,,,,,,,,,,,,,,,,,,sub_217,2022-09-12_16h17.53.509,Reversal,2022.1.1,60.120541686097525,1,
19,exp3.png,exp4.png,,,,,,,,,,,,,,,,,,1,0,1,0,0,19,19,19,,,,,,,,,False,38,99,False,exp3.png,exp4.png,trial_left_image,1,exp3.png,1,exp3.png,exp4.png,1,1,non-reversed,correct,0.8034182450429017,1,valid_win,603.9875795000003,54,,,,,,,,,,,,,,,,,,sub_217,2022-09-12_16h17.53.509,Reversal,2022.1.1,60.120541686097525,1,
20,exp1.png,exp2.png,,,,,,,,,,,,,,,,,,1,0,1,0,0,20,20,20,,,,,,,,,False,39,100,True,exp2.png,exp1.png,trial_right_image,-1,exp1.png,1,exp2.png,exp1.png,1,3,reversed,incorrect,0.07335029760924072,1,invalid_win,608.5860169000002,55,,,,,,,,,,,,,,,,,,sub_217,2022-09-12_16h17.53.509,Reversal,2022.1.1,60.120541686097525,1,
,,,exp1.png,,,,,,,,,,,,,,,,,1,0,1,0,,,,,0,0,0,0,0,0,0,0,,,,,,,,,,,,,,,,,,,,,,67.0,67.0,4.393921700000192,"[(67.0, 4.393921700000192)]",681.6897965000003,None,,,,,,,,,,,,sub_217,2022-09-12_16h17.53.509,Reversal,2022.1.1,60.120541686097525,1,
,,,exp2.png,,,,,,,,,,,,,,,,,1,0,1,0,,,,,0,0,0,0,0,1,1,1,,,,,,,,,,,,,,,,,,,,,,,66.0,2.559041900000011,"[(66.0, 2.559041900000011)]",688.0734311000001,None,66.0,,,,,,,,,,,sub_217,2022-09-12_16h17.53.509,Reversal,2022.1.1,60.120541686097525,1,
,,,exp3.png,,,,,,,,,,,,,,,,,1,0,1,0,,,,,0,0,0,0,0,2,2,2,,,,,,,,,,,,,,,,,,,,,,,75.0,2.6761649000000034,"[(75.0, 2.6761649000000034)]",691.6382604999999,None,,75.0,,,,,,,,,,sub_217,2022-09-12_16h17.53.509,Reversal,2022.1.1,60.120541686097525,1,
,,,exp4.png,,,,,,,,,,,,,,,,,1,0,1,0,,,,,0,0,0,0,0,3,3,3,,,,,,,,,,,,,,,,,,,,,,,17.0,2.4879876999998487,"[(17.0, 2.4879876999998487)]",695.9756864999999,None,,,17.0,,,,,,,,,sub_217,2022-09-12_16h17.53.509,Reversal,2022.1.1,60.120541686097525,1,
0,exp1.png,exp2.png,,,,,,,,,,,,,,,,,,2,0,2,0,0,0,0,0,,,,,,,,,True,,,,,,,,,,,,,,,,,,,,,,,,,,,,,,,,,,,,,,sub_217,2022-09-12_16h17.53.509,Reversal,2022.1.1,60.120541686097525,1,
1,exp3.png,exp4.png,,,,,,,,,,,,,,,,,,2,0,2,0,0,1,1,1,,,,,,,,,False,40,101,False,exp3.png,exp4.png,trial_left_image,1,exp3.png,1,exp3.png,exp4.png,1,1,non-reversed,correct,0.5821924491347347,1,valid_win,631.6337405000004,56,,,,,,,,,,,,,,,,,,sub_217,2022-09-12_16h17.53.509,Reversal,2022.1.1,60.120541686097525,1,
2,exp1.png,exp2.png,,,,,,,,,,,,,,,,,,2,0,2,0,0,2,2,2,,,,,,,,,False,41,102,False,exp1.png,exp2.png,trial_left_image,1,exp1.png,1,exp2.png,exp1.png,1,3,reversed,incorrect,0.5703504166929186,0,valid_lose,636.6002643000002,56,,,,,,,,,,,,,,,,,,sub_217,2022-09-12_16h17.53.509,Reversal,2022.1.1,60.120541686097525,1,
3,exp3.png,exp4.png,,,,,,,,,,,,,,,,,,2,0,2,0,0,3,3,3,,,,,,,,,False,42,103,False,exp3.png,exp4.png,trial_left_image,1,exp3.png,1,exp3.png,exp4.png,1,1,non-reversed,correct,0.15751719282042576,0,invalid_lose,641.5665612000003,56,,,,,,,,,,,,,,,,,,sub_217,2022-09-12_16h17.53.509,Reversal,2022.1.1,60.120541686097525,1,
4,exp1.png,exp2.png,,,,,,,,,,,,,,,,,,2,0,2,0,0,4,4,4,,,,,,,,,False,43,104,True,exp2.png,exp1.png,trial_right_image,-1,exp1.png,1,exp2.png,exp1.png,1,3,reversed,incorrect,0.04717800278845008,1,invalid_win,645.8483588000004,57,,,,,,,,,,,,,,,,,,sub_217,2022-09-12_16h17.53.509,Reversal,2022.1.1,60.120541686097525,1,
5,exp3.png,exp4.png,,,,,,,,,,,,,,,,,,2,0,2,0,0,5,5,5,,,,,,,,,False,44,105,False,exp3.png,exp4.png,trial_left_image,1,exp3.png,1,exp3.png,exp4.png,1,1,non-reversed,correct,0.9237732368132878,1,valid_win,649.7987135000003,58,,,,,,,,,,,,,,,,,,sub_217,2022-09-12_16h17.53.509,Reversal,2022.1.1,60.120541686097525,1,
6,exp1.png,exp2.png,,,,,,,,,,,,,,,,,,2,0,2,0,0,6,6,6,,,,,,,,,False,45,106,True,exp2.png,exp1.png,trial_left_image,1,exp2.png,1,exp2.png,exp1.png,0,4,reversed,correct,0.3821535498120958,1,valid_win,654.0807533000002,59,,,,,,,,,,,,,,,,,,sub_217,2022-09-12_16h17.53.509,Reversal,2022.1.1,60.120541686097525,1,
7,exp3.png,exp4.png,,,,,,,,,,,,,,,,,,2,0,2,0,0,7,7,7,,,,,,,,,False,46,107,True,exp4.png,exp3.png,trial_right_image,-1,exp3.png,1,exp3.png,exp4.png,1,1,non-reversed,correct,0.059596565995755135,0,invalid_lose,658.7962898000001,59,,,,,,,,,,,,,,,,,,sub_217,2022-09-12_16h17.53.509,Reversal,2022.1.1,60.120541686097525,1,
8,exp1.png,exp2.png,,,,,,,,,,,,,,,,,,2,0,2,0,0,8,8,8,,,,,,,,,False,47,108,False,exp1.png,exp2.png,trial_left_image,1,exp1.png,1,exp2.png,exp1.png,1,3,reversed,incorrect,0.7161704186153809,0,valid_lose,663.3463371000003,59,,,,,,,,,,,,,,,,,,sub_217,2022-09-12_16h17.53.509,Reversal,2022.1.1,60.120541686097525,1,
9,exp3.png,exp4.png,,,,,,,,,,,,,,,,,,2,0,2,0,0,9,9,9,,,,,,,,,False,48,109,False,exp3.png,exp4.png,trial_right_image,-1,exp4.png,1,exp3.png,exp4.png,0,2,non-reversed,incorrect,0.9169603174961539,0,valid_lose,668.0621835000002,59,,,,,,,,,,,,,,,,,,sub_217,2022-09-12_16h17.53.509,Reversal,2022.1.1,60.120541686097525,1,
10,exp1.png,exp2.png,,,,,,,,,,,,,,,,,,2,0,2,0,0,10,10,10,,,,,,,,,False,49,110,True,exp2.png,exp1.png,trial_right_image,-1,exp1.png,1,exp2.png,exp1.png,1,3,reversed,incorrect,0.45525055937907744,0,valid_lose,672.2621713000003,59,,,,,,,,,,,,,,,,,,sub_217,2022-09-12_16h17.53.509,Reversal,2022.1.1,60.120541686097525,1,
11,exp3.png,exp4.png,,,,,,,,,,,,,,,,,,2,0,2,0,0,11,11,11,,,,,,,,,False,50,111,True,exp4.png,exp3.png,trial_right_image,-1,exp3.png,1,exp3.png,exp4.png,1,1,non-reversed,correct,0.5332737271249117,1,valid_win,676.7282749000001,60,,,,,,,,,,,,,,,,,,sub_217,2022-09-12_16h17.53.509,Reversal,2022.1.1,60.120541686097525,1,
12,exp1.png,exp2.png,,,,,,,,,,,,,,,,,,2,0,2,0,0,12,12,12,,,,,,,,,False,51,112,False,exp1.png,exp2.png,trial_left_image,1,exp1.png,1,exp2.png,exp1.png,1,3,reversed,incorrect,0.9198342449455534,0,valid_lose,681.2785467000003,60,,,,,,,,,,,,,,,,,,sub_217,2022-09-12_16h17.53.509,Reversal,2022.1.1,60.120541686097525,1,
13,exp3.png,exp4.png,,,,,,,,,,,,,,,,,,2,0,2,0,0,13,13,13,,,,,,,,,False,52,113,False,exp3.png,exp4.png,trial_left_image,1,exp3.png,1,exp3.png,exp4.png,1,1,non-reversed,correct,0.2920544821857721,1,valid_win,688.2759062,61,,,,,,,,,,,,,,,,,,sub_217,2022-09-12_16h17.53.509,Reversal,2022.1.1,60.120541686097525,1,
14,exp1.png,exp2.png,,,,,,,,,,,,,,,,,,2,0,2,0,0,14,14,14,,,,,,,,,False,53,114,True,exp2.png,exp1.png,trial_right_image,-1,exp1.png,1,exp2.png,exp1.png,1,3,reversed,incorrect,0.9382267833508136,0,valid_lose,693.1760295000004,61,,,,,,,,,,,,,,,,,,sub_217,2022-09-12_16h17.53.509,Reversal,2022.1.1,60.120541686097525,1,
15,exp3.png,exp4.png,,,,,,,,,,,,,,,,,,2,0,2,0,0,15,15,15,,,,,,,,,False,54,115,False,exp3.png,exp4.png,trial_left_image,1,exp3.png,1,exp3.png,exp4.png,1,1,non-reversed,correct,0.9982010808546171,1,valid_win,697.6918353000001,62,,,,,,,,,,,,,,,,,,sub_217,2022-09-12_16h17.53.509,Reversal,2022.1.1,60.120541686097525,1,
16,exp1.png,exp2.png,,,,,,,,,,,,,,,,,,2,0,2,0,0,16,16,16,,,,,,,,,False,55,116,True,exp2.png,exp1.png,trial_left_image,1,exp2.png,1,exp2.png,exp1.png,0,4,reversed,correct,0.20607055108668815,0,invalid_lose,701.9244993000002,62,,,,,,,,,,,,,,,,,,sub_217,2022-09-12_16h17.53.509,Reversal,2022.1.1,60.120541686097525,1,
17,exp3.png,exp4.png,,,,,,,,,,,,,,,,,,2,0,2,0,0,17,17,17,,,,,,,,,False,56,117,True,exp4.png,exp3.png,trial_right_image,-1,exp3.png,1,exp3.png,exp4.png,1,1,non-reversed,correct,0.3847476372508627,1,valid_win,706.0739862,63,,,,,,,,,,,,,,,,,,sub_217,2022-09-12_16h17.53.509,Reversal,2022.1.1,60.120541686097525,1,
18,exp1.png,exp2.png,,,,,,,,,,,,,,,,,,2,0,2,0,0,18,18,18,,,,,,,,,False,57,118,False,exp1.png,exp2.png,trial_left_image,1,exp1.png,1,exp2.png,exp1.png,1,3,reversed,incorrect,0.1023254236089729,1,invalid_win,710.6904667000003,64,,,,,,,,,,,,,,,,,,sub_217,2022-09-12_16h17.53.509,Reversal,2022.1.1,60.120541686097525,1,
19,exp3.png,exp4.png,,,,,,,,,,,,,,,,,,2,0,2,0,0,19,19,19,,,,,,,,,False,58,119,True,exp4.png,exp3.png,trial_right_image,-1,exp3.png,1,exp3.png,exp4.png,1,1,non-reversed,correct,0.32469766556965696,1,valid_win,715.2749589,65,,,,,,,,,,,,,,,,,,sub_217,2022-09-12_16h17.53.509,Reversal,2022.1.1,60.120541686097525,1,
20,exp1.png,exp2.png,,,,,,,,,,,,,,,,,,2,0,2,0,0,20,20,20,,,,,,,,,False,59,120,True,exp2.png,exp1.png,trial_left_image,1,exp2.png,1,exp2.png,exp1.png,0,4,reversed,correct,0.1430107280601871,0,invalid_lose,720.1235293000004,65,,,,,,,,,,,,,,,,,,sub_217,2022-09-12_16h17.53.509,Reversal,2022.1.1,60.120541686097525,1,
,,,exp1.png,,,,,,,,,,,,,,,,,2,0,2,0,,,,,0,0,0,0,0,0,0,0,,,,,,,,,,,,,,,,,,,,,,21.0,21.0,5.035268000000087,"[(21.0, 5.035268000000087)]",793.2157182000001,None,,,,,,,,,,,,sub_217,2022-09-12_16h17.53.509,Reversal,2022.1.1,60.120541686097525,1,
,,,exp2.png,,,,,,,,,,,,,,,,,2,0,2,0,,,,,0,0,0,0,0,1,1,1,,,,,,,,,,,,,,,,,,,,,,,28.0,2.953457300000082,"[(28.0, 2.953457300000082)]",799.3441894000002,None,28.0,,,,,,,,,,,sub_217,2022-09-12_16h17.53.509,Reversal,2022.1.1,60.120541686097525,1,
,,,exp3.png,,,,,,,,,,,,,,,,,2,0,2,0,,,,,0,0,0,0,0,2,2,2,,,,,,,,,,,,,,,,,,,,,,,94.0,4.868053599999712,"[(94.0, 4.868053599999712)]",803.2799936000001,None,,94.0,,,,,,,,,,sub_217,2022-09-12_16h17.53.509,Reversal,2022.1.1,60.120541686097525,1,
,,,exp4.png,,,,,,,,,,,,,,,,,2,0,2,0,,,,,0,0,0,0,0,3,3,3,,,,,,,,,,,,,,,,,,,,,,,1.0,2.6261467999997876,"[(1.0, 2.6261467999997876)]",809.8558929999999,None,,,1.0,,,,,,,,,sub_217,2022-09-12_16h17.53.509,Reversal,2022.1.1,60.120541686097525,1,
,,,,,,,,,,,,,,,,,,,,,,,,,,,,,,,,,,,,,,,,,,,,,,,,,,,,,,,,65,,,,,,,,,,,74,42,32,346.09908859999996,0,space,64.23790129999998,sub_217,2022-09-12_16h17.53.509,Reversal,2022.1.1,60.120541686097525,1,
