trial_index,trial_image1_file,trial_image2_file,image_file,learning_outer_loop.thisRepN,learning_outer_loop.thisTrialN,learning_outer_loop.thisN,learning_outer_loop.thisIndex,learning_inner_loop.thisRepN,learning_inner_loop.thisTrialN,learning_inner_loop.thisN,learning_inner_loop.thisIndex,learning_estimation_outer_loop.thisRepN,learning_estimation_outer_loop.thisTrialN,learning_estimation_outer_loop.thisN,learning_estimation_outer_loop.thisIndex,learning_estimation_inner_loop.thisRepN,learning_estimation_inner_loop.thisTrialN,learning_estimation_inner_loop.thisN,learning_estimation_inner_loop.thisIndex,reversal_outer_loop.thisRepN,reversal_outer_loop.thisTrialN,reversal_outer_loop.thisN,reversal_outer_loop.thisIndex,reversal_inner_loop.thisRepN,reversal_inner_loop.thisTrialN,reversal_inner_loop.thisN,reversal_inner_loop.thisIndex,reversal_estimation_outer_loop.thisRepN,reversal_estimation_outer_loop.thisTrialN,reversal_estimation_outer_loop.thisN,reversal_estimation_outer_loop.thisIndex,reversal_estimation_inner_loop.thisRepN,reversal_estimation_inner_loop.thisTrialN,reversal_estimation_inner_loop.thisN,reversal_estimation_inner_loop.thisIndex,skipped,total_trial_counter,trial_num,left_right_flip,left_image_file,right_image_file,clicked_stimulus_side,side,clicked_stimulus,version,high_prob_image_file,low_prob_image_file,choice_a,choice_b,pair_type,correct,trial_feedback_random,reward,trial_type,overall_time_after_trial,score,estimation_rating.started,estimation_exp1.png,estimation_rating.response,estimation_rating.rt,estimation_rating.history,estimation_exp2.png,estimation_exp3.png,estimation_exp4.png,total_learning_time,total_correct,learning_correct,reversal_correct,total_reversal_time,extra_block,end_experiment.keys,end_experiment.rt,end_experiment.duration,participant,date,expName,psychopyVersion,frameRate,ver,
0,exp1.png,exp2.png,,0,0,0,0,0,0,0,0,,,,,,,,,,,,,,,,,,,,,,,,,True,,,,,,,,,,,,,,,,,,,,,,,,,,,,,,,,,,,,,,sub_465,2024-03-15_12h48.35.258,Reversal,2023.1.3,59.965447904114164,1,
1,exp3.png,exp4.png,,0,0,0,0,0,1,1,1,,,,,,,,,,,,,,,,,,,,,,,,,False,0,1,True,exp4.png,exp3.png,trial_right_image,-1,exp3.png,1,exp3.png,exp4.png,1,1,non-reversed,correct,0.39135283237224483,1,valid_win,19.359313799999654,1,,,,,,,,,,,,,,,,,,sub_465,2024-03-15_12h48.35.258,Reversal,2023.1.3,59.965447904114164,1,
2,exp1.png,exp2.png,,0,0,0,0,0,2,2,2,,,,,,,,,,,,,,,,,,,,,,,,,False,1,2,False,exp1.png,exp2.png,trial_right_image,-1,exp2.png,1,exp1.png,exp2.png,0,4,reversed,incorrect,0.7110138361168739,0,valid_lose,28.039702199981548,1,,,,,,,,,,,,,,,,,,sub_465,2024-03-15_12h48.35.258,Reversal,2023.1.3,59.965447904114164,1,
3,exp3.png,exp4.png,,0,0,0,0,0,3,3,3,,,,,,,,,,,,,,,,,,,,,,,,,False,2,3,True,exp4.png,exp3.png,trial_left_image,1,exp4.png,1,exp3.png,exp4.png,0,2,non-reversed,incorrect,0.3528155322416101,0,valid_lose,34.45423570001731,1,,,,,,,,,,,,,,,,,,sub_465,2024-03-15_12h48.35.258,Reversal,2023.1.3,59.965447904114164,1,
4,exp1.png,exp2.png,,0,0,0,0,0,4,4,4,,,,,,,,,,,,,,,,,,,,,,,,,False,3,4,False,exp1.png,exp2.png,trial_left_image,1,exp1.png,1,exp1.png,exp2.png,1,3,reversed,correct,0.2828628919317089,1,valid_win,38.85258619999513,2,,,,,,,,,,,,,,,,,,sub_465,2024-03-15_12h48.35.258,Reversal,2023.1.3,59.965447904114164,1,
5,exp3.png,exp4.png,,0,0,0,0,0,5,5,5,,,,,,,,,,,,,,,,,,,,,,,,,False,4,5,True,exp4.png,exp3.png,trial_right_image,-1,exp3.png,1,exp3.png,exp4.png,1,1,non-reversed,correct,0.4276172559870166,1,valid_win,45.550335499981884,3,,,,,,,,,,,,,,,,,,sub_465,2024-03-15_12h48.35.258,Reversal,2023.1.3,59.965447904114164,1,
6,exp1.png,exp2.png,,0,0,0,0,0,6,6,6,,,,,,,,,,,,,,,,,,,,,,,,,False,5,6,False,exp1.png,exp2.png,trial_left_image,1,exp1.png,1,exp1.png,exp2.png,1,3,reversed,correct,0.5471632588017947,1,valid_win,51.61510649998672,4,,,,,,,,,,,,,,,,,,sub_465,2024-03-15_12h48.35.258,Reversal,2023.1.3,59.965447904114164,1,
7,exp3.png,exp4.png,,0,0,0,0,0,7,7,7,,,,,,,,,,,,,,,,,,,,,,,,,False,6,7,False,exp3.png,exp4.png,trial_left_image,1,exp3.png,1,exp3.png,exp4.png,1,1,non-reversed,correct,0.39929348942514864,1,valid_win,57.26350399997318,5,,,,,,,,,,,,,,,,,,sub_465,2024-03-15_12h48.35.258,Reversal,2023.1.3,59.965447904114164,1,
8,exp1.png,exp2.png,,0,0,0,0,0,8,8,8,,,,,,,,,,,,,,,,,,,,,,,,,False,7,8,True,exp2.png,exp1.png,trial_right_image,-1,exp1.png,1,exp1.png,exp2.png,1,3,reversed,correct,0.6058508259459019,1,valid_win,61.12835810001707,6,,,,,,,,,,,,,,,,,,sub_465,2024-03-15_12h48.35.258,Reversal,2023.1.3,59.965447904114164,1,
9,exp3.png,exp4.png,,0,0,0,0,0,9,9,9,,,,,,,,,,,,,,,,,,,,,,,,,False,8,9,False,exp3.png,exp4.png,trial_right_image,-1,exp4.png,1,exp3.png,exp4.png,0,2,non-reversed,incorrect,0.9647705279225286,0,valid_lose,66.8763652999769,6,,,,,,,,,,,,,,,,,,sub_465,2024-03-15_12h48.35.258,Reversal,2023.1.3,59.965447904114164,1,
10,exp1.png,exp2.png,,0,0,0,0,0,10,10,10,,,,,,,,,,,,,,,,,,,,,,,,,False,9,10,True,exp2.png,exp1.png,trial_right_image,-1,exp1.png,1,exp1.png,exp2.png,1,3,reversed,correct,0.2890473488235028,1,valid_win,70.75847860000795,7,,,,,,,,,,,,,,,,,,sub_465,2024-03-15_12h48.35.258,Reversal,2023.1.3,59.965447904114164,1,
11,exp3.png,exp4.png,,0,0,0,0,0,11,11,11,,,,,,,,,,,,,,,,,,,,,,,,,False,10,11,True,exp4.png,exp3.png,trial_left_image,1,exp4.png,1,exp3.png,exp4.png,0,2,non-reversed,incorrect,0.9012298571869466,0,valid_lose,75.27376189996721,7,,,,,,,,,,,,,,,,,,sub_465,2024-03-15_12h48.35.258,Reversal,2023.1.3,59.965447904114164,1,
12,exp1.png,exp2.png,,0,0,0,0,0,12,12,12,,,,,,,,,,,,,,,,,,,,,,,,,False,11,12,False,exp1.png,exp2.png,trial_left_image,1,exp1.png,1,exp1.png,exp2.png,1,3,reversed,correct,0.6232352175881969,1,valid_win,79.5386594000156,8,,,,,,,,,,,,,,,,,,sub_465,2024-03-15_12h48.35.258,Reversal,2023.1.3,59.965447904114164,1,
13,exp3.png,exp4.png,,0,0,0,0,0,13,13,13,,,,,,,,,,,,,,,,,,,,,,,,,False,12,13,True,exp4.png,exp3.png,trial_left_image,1,exp4.png,1,exp3.png,exp4.png,0,2,non-reversed,incorrect,0.8517810686049546,0,valid_lose,83.8204252999858,8,,,,,,,,,,,,,,,,,,sub_465,2024-03-15_12h48.35.258,Reversal,2023.1.3,59.965447904114164,1,
14,exp1.png,exp2.png,,0,0,0,0,0,14,14,14,,,,,,,,,,,,,,,,,,,,,,,,,False,13,14,False,exp1.png,exp2.png,trial_left_image,1,exp1.png,1,exp1.png,exp2.png,1,3,reversed,correct,0.5336908619631173,1,valid_win,87.78594359999988,9,,,,,,,,,,,,,,,,,,sub_465,2024-03-15_12h48.35.258,Reversal,2023.1.3,59.965447904114164,1,
15,exp3.png,exp4.png,,0,0,0,0,0,15,15,15,,,,,,,,,,,,,,,,,,,,,,,,,False,14,15,True,exp4.png,exp3.png,trial_right_image,-1,exp3.png,1,exp3.png,exp4.png,1,1,non-reversed,correct,0.6835298167582267,1,valid_win,91.8017185999779,10,,,,,,,,,,,,,,,,,,sub_465,2024-03-15_12h48.35.258,Reversal,2023.1.3,59.965447904114164,1,
16,exp1.png,exp2.png,,0,0,0,0,0,16,16,16,,,,,,,,,,,,,,,,,,,,,,,,,False,15,16,True,exp2.png,exp1.png,trial_right_image,-1,exp1.png,1,exp1.png,exp2.png,1,3,reversed,correct,0.9188140399567141,1,valid_win,95.73390549997566,11,,,,,,,,,,,,,,,,,,sub_465,2024-03-15_12h48.35.258,Reversal,2023.1.3,59.965447904114164,1,
17,exp3.png,exp4.png,,0,0,0,0,0,17,17,17,,,,,,,,,,,,,,,,,,,,,,,,,False,16,17,False,exp3.png,exp4.png,trial_left_image,1,exp3.png,1,exp3.png,exp4.png,1,1,non-reversed,correct,0.6024876222989063,1,valid_win,99.78228470002068,12,,,,,,,,,,,,,,,,,,sub_465,2024-03-15_12h48.35.258,Reversal,2023.1.3,59.965447904114164,1,
18,exp1.png,exp2.png,,0,0,0,0,0,18,18,18,,,,,,,,,,,,,,,,,,,,,,,,,False,17,18,True,exp2.png,exp1.png,trial_left_image,1,exp2.png,1,exp1.png,exp2.png,0,4,reversed,incorrect,0.9315502978333923,0,valid_lose,104.03017430001637,12,,,,,,,,,,,,,,,,,,sub_465,2024-03-15_12h48.35.258,Reversal,2023.1.3,59.965447904114164,1,
19,exp3.png,exp4.png,,0,0,0,0,0,19,19,19,,,,,,,,,,,,,,,,,,,,,,,,,False,18,19,False,exp3.png,exp4.png,trial_left_image,1,exp3.png,1,exp3.png,exp4.png,1,1,non-reversed,correct,0.4337643670464434,1,valid_win,108.04591609997442,13,,,,,,,,,,,,,,,,,,sub_465,2024-03-15_12h48.35.258,Reversal,2023.1.3,59.965447904114164,1,
20,exp1.png,exp2.png,,0,0,0,0,0,20,20,20,,,,,,,,,,,,,,,,,,,,,,,,,False,19,20,False,exp1.png,exp2.png,trial_right_image,-1,exp2.png,1,exp1.png,exp2.png,0,4,reversed,incorrect,0.2827226356047736,0,valid_lose,111.8942551999935,13,,,,,,,,,,,,,,,,,,sub_465,2024-03-15_12h48.35.258,Reversal,2023.1.3,59.965447904114164,1,
,,,exp1.png,0,0,0,0,,,,,0,0,0,0,0,0,0,0,,,,,,,,,,,,,,,,,,,,,,,,,,,,,,,,,,,,,,198.15071850002278,90.0,90.0,13.334700100007467,"[(90.0, 13.334700100007467)]",,,,,,,,,,,,,sub_465,2024-03-15_12h48.35.258,Reversal,2023.1.3,59.965447904114164,1,
,,,exp2.png,0,0,0,0,,,,,0,0,0,0,0,1,1,1,,,,,,,,,,,,,,,,,,,,,,,,,,,,,,,,,,,,,,212.5012722000247,,100.0,11.373471800005063,"[(81.0, 9.258375399978831), (94.0, 10.407222700014245), (100.0, 11.373471800005063)]",100.0,,,,,,,,,,,,sub_465,2024-03-15_12h48.35.258,Reversal,2023.1.3,59.965447904114164,1,
,,,exp3.png,0,0,0,0,,,,,0,0,0,0,0,2,2,2,,,,,,,,,,,,,,,,,,,,,,,,,,,,,,,,,,,,,,224.97855619998882,,1.0,5.675043800030835,"[(1.0, 5.675043800030835)]",,1.0,,,,,,,,,,,sub_465,2024-03-15_12h48.35.258,Reversal,2023.1.3,59.965447904114164,1,
,,,exp4.png,0,0,0,0,,,,,0,0,0,0,0,3,3,3,,,,,,,,,,,,,,,,,,,,,,,,,,,,,,,,,,,,,,231.907970500004,,1.0,4.058960099995602,"[(1.0, 4.058960099995602)]",,,1.0,,,,,,,,,,sub_465,2024-03-15_12h48.35.258,Reversal,2023.1.3,59.965447904114164,1,
0,exp1.png,exp2.png,,1,0,1,0,0,0,0,0,,,,,,,,,,,,,,,,,,,,,,,,,True,,,,,,,,,,,,,,,,,,,,,,,,,,,,,,,,,,,,,,sub_465,2024-03-15_12h48.35.258,Reversal,2023.1.3,59.965447904114164,1,
1,exp3.png,exp4.png,,1,0,1,0,0,1,1,1,,,,,,,,,,,,,,,,,,,,,,,,,False,20,21,False,exp3.png,exp4.png,trial_left_image,1,exp3.png,1,exp3.png,exp4.png,1,1,non-reversed,correct,0.1384593066081481,0,invalid_lose,157.1291473999736,13,,,,,,,,,,,,,,,,,,sub_465,2024-03-15_12h48.35.258,Reversal,2023.1.3,59.965447904114164,1,
2,exp1.png,exp2.png,,1,0,1,0,0,2,2,2,,,,,,,,,,,,,,,,,,,,,,,,,False,21,22,False,exp1.png,exp2.png,trial_left_image,1,exp1.png,1,exp1.png,exp2.png,1,3,reversed,correct,0.5003399439238893,1,valid_win,161.01138979999814,14,,,,,,,,,,,,,,,,,,sub_465,2024-03-15_12h48.35.258,Reversal,2023.1.3,59.965447904114164,1,
3,exp3.png,exp4.png,,1,0,1,0,0,3,3,3,,,,,,,,,,,,,,,,,,,,,,,,,False,22,23,True,exp4.png,exp3.png,trial_right_image,-1,exp3.png,1,exp3.png,exp4.png,1,1,non-reversed,correct,0.10018161494750044,0,invalid_lose,165.47619109996594,14,,,,,,,,,,,,,,,,,,sub_465,2024-03-15_12h48.35.258,Reversal,2023.1.3,59.965447904114164,1,
4,exp1.png,exp2.png,,1,0,1,0,0,4,4,4,,,,,,,,,,,,,,,,,,,,,,,,,False,23,24,True,exp2.png,exp1.png,trial_right_image,-1,exp1.png,1,exp1.png,exp2.png,1,3,reversed,correct,0.2663537166289287,1,valid_win,169.25820219999878,15,,,,,,,,,,,,,,,,,,sub_465,2024-03-15_12h48.35.258,Reversal,2023.1.3,59.965447904114164,1,
5,exp3.png,exp4.png,,1,0,1,0,0,5,5,5,,,,,,,,,,,,,,,,,,,,,,,,,False,24,25,True,exp4.png,exp3.png,trial_right_image,-1,exp3.png,1,exp3.png,exp4.png,1,1,non-reversed,correct,0.7765387937720442,1,valid_win,173.07377149997046,16,,,,,,,,,,,,,,,,,,sub_465,2024-03-15_12h48.35.258,Reversal,2023.1.3,59.965447904114164,1,
6,exp1.png,exp2.png,,1,0,1,0,0,6,6,6,,,,,,,,,,,,,,,,,,,,,,,,,False,25,26,True,exp2.png,exp1.png,trial_left_image,1,exp2.png,1,exp1.png,exp2.png,0,4,reversed,incorrect,0.12482311352331377,1,invalid_win,177.82231499999762,17,,,,,,,,,,,,,,,,,,sub_465,2024-03-15_12h48.35.258,Reversal,2023.1.3,59.965447904114164,1,
7,exp3.png,exp4.png,,1,0,1,0,0,7,7,7,,,,,,,,,,,,,,,,,,,,,,,,,False,26,27,False,exp3.png,exp4.png,trial_left_image,1,exp3.png,1,exp3.png,exp4.png,1,1,non-reversed,correct,0.2677074389397984,1,valid_win,182.15366409998387,18,,,,,,,,,,,,,,,,,,sub_465,2024-03-15_12h48.35.258,Reversal,2023.1.3,59.965447904114164,1,
8,exp1.png,exp2.png,,1,0,1,0,0,8,8,8,,,,,,,,,,,,,,,,,,,,,,,,,False,27,28,False,exp1.png,exp2.png,trial_right_image,-1,exp2.png,1,exp1.png,exp2.png,0,4,reversed,incorrect,0.4744699605901461,0,valid_lose,185.95268919999944,18,,,,,,,,,,,,,,,,,,sub_465,2024-03-15_12h48.35.258,Reversal,2023.1.3,59.965447904114164,1,
9,exp3.png,exp4.png,,1,0,1,0,0,9,9,9,,,,,,,,,,,,,,,,,,,,,,,,,False,28,29,True,exp4.png,exp3.png,trial_right_image,-1,exp3.png,1,exp3.png,exp4.png,1,1,non-reversed,correct,0.4899704066463223,1,valid_win,189.73461879999377,19,,,,,,,,,,,,,,,,,,sub_465,2024-03-15_12h48.35.258,Reversal,2023.1.3,59.965447904114164,1,
10,exp1.png,exp2.png,,1,0,1,0,0,10,10,10,,,,,,,,,,,,,,,,,,,,,,,,,False,29,30,True,exp2.png,exp1.png,trial_right_image,-1,exp1.png,1,exp1.png,exp2.png,1,3,reversed,correct,0.4241142620299645,1,valid_win,193.49991519999458,20,,,,,,,,,,,,,,,,,,sub_465,2024-03-15_12h48.35.258,Reversal,2023.1.3,59.965447904114164,1,
11,exp3.png,exp4.png,,1,0,1,0,0,11,11,11,,,,,,,,,,,,,,,,,,,,,,,,,False,30,31,True,exp4.png,exp3.png,trial_right_image,-1,exp3.png,1,exp3.png,exp4.png,1,1,non-reversed,correct,0.7732568093582272,1,valid_win,197.33194990002085,21,,,,,,,,,,,,,,,,,,sub_465,2024-03-15_12h48.35.258,Reversal,2023.1.3,59.965447904114164,1,
12,exp1.png,exp2.png,,1,0,1,0,0,12,12,12,,,,,,,,,,,,,,,,,,,,,,,,,False,31,32,True,exp2.png,exp1.png,trial_left_image,1,exp2.png,1,exp1.png,exp2.png,0,4,reversed,incorrect,0.42249783907536276,0,valid_lose,202.33030410000356,21,,,,,,,,,,,,,,,,,,sub_465,2024-03-15_12h48.35.258,Reversal,2023.1.3,59.965447904114164,1,
13,exp3.png,exp4.png,,1,0,1,0,0,13,13,13,,,,,,,,,,,,,,,,,,,,,,,,,False,32,33,False,exp3.png,exp4.png,trial_left_image,1,exp3.png,1,exp3.png,exp4.png,1,1,non-reversed,correct,0.6616932540877863,1,valid_win,206.47863139997935,22,,,,,,,,,,,,,,,,,,sub_465,2024-03-15_12h48.35.258,Reversal,2023.1.3,59.965447904114164,1,
14,exp1.png,exp2.png,,1,0,1,0,0,14,14,14,,,,,,,,,,,,,,,,,,,,,,,,,False,33,34,False,exp1.png,exp2.png,trial_left_image,1,exp1.png,1,exp1.png,exp2.png,1,3,reversed,correct,0.8757248125089291,1,valid_win,210.71080200001597,23,,,,,,,,,,,,,,,,,,sub_465,2024-03-15_12h48.35.258,Reversal,2023.1.3,59.965447904114164,1,
15,exp3.png,exp4.png,,1,0,1,0,0,15,15,15,,,,,,,,,,,,,,,,,,,,,,,,,False,34,35,True,exp4.png,exp3.png,trial_left_image,1,exp4.png,1,exp3.png,exp4.png,0,2,non-reversed,incorrect,0.26240463987958407,0,valid_lose,214.60934660001658,23,,,,,,,,,,,,,,,,,,sub_465,2024-03-15_12h48.35.258,Reversal,2023.1.3,59.965447904114164,1,
16,exp1.png,exp2.png,,1,0,1,0,0,16,16,16,,,,,,,,,,,,,,,,,,,,,,,,,False,35,36,False,exp1.png,exp2.png,trial_left_image,1,exp1.png,1,exp1.png,exp2.png,1,3,reversed,correct,0.7920541805236144,1,valid_win,219.5080160999787,24,,,,,,,,,,,,,,,,,,sub_465,2024-03-15_12h48.35.258,Reversal,2023.1.3,59.965447904114164,1,
17,exp3.png,exp4.png,,1,0,1,0,0,17,17,17,,,,,,,,,,,,,,,,,,,,,,,,,False,36,37,False,exp3.png,exp4.png,trial_right_image,-1,exp4.png,1,exp3.png,exp4.png,0,2,non-reversed,incorrect,0.8020874298389189,0,valid_lose,224.3896575999679,24,,,,,,,,,,,,,,,,,,sub_465,2024-03-15_12h48.35.258,Reversal,2023.1.3,59.965447904114164,1,
18,exp1.png,exp2.png,,1,0,1,0,0,18,18,18,,,,,,,,,,,,,,,,,,,,,,,,,False,37,38,True,exp2.png,exp1.png,trial_right_image,-1,exp1.png,1,exp1.png,exp2.png,1,3,reversed,correct,0.23467465224349682,0,invalid_lose,228.22146590001648,24,,,,,,,,,,,,,,,,,,sub_465,2024-03-15_12h48.35.258,Reversal,2023.1.3,59.965447904114164,1,
19,exp3.png,exp4.png,,1,0,1,0,0,19,19,19,,,,,,,,,,,,,,,,,,,,,,,,,False,38,39,False,exp3.png,exp4.png,trial_right_image,-1,exp4.png,1,exp3.png,exp4.png,0,2,non-reversed,incorrect,0.43422677077088956,0,valid_lose,232.02010269998573,24,,,,,,,,,,,,,,,,,,sub_465,2024-03-15_12h48.35.258,Reversal,2023.1.3,59.965447904114164,1,
20,exp1.png,exp2.png,,1,0,1,0,0,20,20,20,,,,,,,,,,,,,,,,,,,,,,,,,False,39,40,False,exp1.png,exp2.png,trial_left_image,1,exp1.png,1,exp1.png,exp2.png,1,3,reversed,correct,0.6868524998469874,1,valid_win,236.01872880000155,25,,,,,,,,,,,,,,,,,,sub_465,2024-03-15_12h48.35.258,Reversal,2023.1.3,59.965447904114164,1,
,,,exp1.png,1,0,1,0,,,,,0,0,0,0,0,0,0,0,,,,,,,,,,,,,,,,,,,,,,,,,,,,,,,,,,,,,,322.28730219998397,99.0,99.0,3.219441800029017,"[(99.0, 3.219441800029017)]",,,,,,,,,,,,,sub_465,2024-03-15_12h48.35.258,Reversal,2023.1.3,59.965447904114164,1,
,,,exp2.png,1,0,1,0,,,,,0,0,0,0,0,1,1,1,,,,,,,,,,,,,,,,,,,,,,,,,,,,,,,,,,,,,,326.7086237000185,,100.0,3.6265639000339434,"[(92.0, 1.7271495999884792), (93.0, 2.525870500016026), (100.0, 3.6265639000339434)]",100.0,,,,,,,,,,,,sub_465,2024-03-15_12h48.35.258,Reversal,2023.1.3,59.965447904114164,1,
,,,exp3.png,1,0,1,0,,,,,0,0,0,0,0,2,2,2,,,,,,,,,,,,,,,,,,,,,,,,,,,,,,,,,,,,,,331.3063473000075,,1.0,1.7770957000320777,"[(1.0, 1.7770957000320777)]",,1.0,,,,,,,,,,,sub_465,2024-03-15_12h48.35.258,Reversal,2023.1.3,59.965447904114164,1,
,,,exp4.png,1,0,1,0,,,,,0,0,0,0,0,3,3,3,,,,,,,,,,,,,,,,,,,,,,,,,,,,,,,,,,,,,,334.1736657000147,,98.0,2.2771292999968864,"[(98.0, 2.2771292999968864)]",,,98.0,,,,,,,,,,sub_465,2024-03-15_12h48.35.258,Reversal,2023.1.3,59.965447904114164,1,
0,exp1.png,exp2.png,,2,0,2,0,0,0,0,0,,,,,,,,,,,,,,,,,,,,,,,,,True,,,,,,,,,,,,,,,,,,,,,,,,,,,,,,,,,,,,,,sub_465,2024-03-15_12h48.35.258,Reversal,2023.1.3,59.965447904114164,1,
1,exp3.png,exp4.png,,2,0,2,0,0,1,1,1,,,,,,,,,,,,,,,,,,,,,,,,,False,40,41,False,exp3.png,exp4.png,trial_right_image,-1,exp4.png,1,exp3.png,exp4.png,0,2,non-reversed,incorrect,0.7889099663668243,0,valid_lose,255.99569670000346,25,,,,,,,,,,,,,,,,,,sub_465,2024-03-15_12h48.35.258,Reversal,2023.1.3,59.965447904114164,1,
2,exp1.png,exp2.png,,2,0,2,0,0,2,2,2,,,,,,,,,,,,,,,,,,,,,,,,,False,41,42,False,exp1.png,exp2.png,trial_right_image,-1,exp2.png,1,exp1.png,exp2.png,0,4,reversed,incorrect,0.5994093172934961,0,valid_lose,259.8608259999892,25,,,,,,,,,,,,,,,,,,sub_465,2024-03-15_12h48.35.258,Reversal,2023.1.3,59.965447904114164,1,
3,exp3.png,exp4.png,,2,0,2,0,0,3,3,3,,,,,,,,,,,,,,,,,,,,,,,,,False,42,43,True,exp4.png,exp3.png,trial_right_image,-1,exp3.png,1,exp3.png,exp4.png,1,1,non-reversed,correct,0.7725548093984932,1,valid_win,263.7760012000217,26,,,,,,,,,,,,,,,,,,sub_465,2024-03-15_12h48.35.258,Reversal,2023.1.3,59.965447904114164,1,
4,exp1.png,exp2.png,,2,0,2,0,0,4,4,4,,,,,,,,,,,,,,,,,,,,,,,,,False,43,44,True,exp2.png,exp1.png,trial_right_image,-1,exp1.png,1,exp1.png,exp2.png,1,3,reversed,correct,0.8799717297995674,1,valid_win,270.90706870000577,27,,,,,,,,,,,,,,,,,,sub_465,2024-03-15_12h48.35.258,Reversal,2023.1.3,59.965447904114164,1,
5,exp3.png,exp4.png,,2,0,2,0,0,5,5,5,,,,,,,,,,,,,,,,,,,,,,,,,False,44,45,False,exp3.png,exp4.png,trial_right_image,-1,exp4.png,1,exp3.png,exp4.png,0,2,non-reversed,incorrect,0.8413630279820579,0,valid_lose,274.7888326999964,27,,,,,,,,,,,,,,,,,,sub_465,2024-03-15_12h48.35.258,Reversal,2023.1.3,59.965447904114164,1,
6,exp1.png,exp2.png,,2,0,2,0,0,6,6,6,,,,,,,,,,,,,,,,,,,,,,,,,False,45,46,False,exp1.png,exp2.png,trial_right_image,-1,exp2.png,1,exp1.png,exp2.png,0,4,reversed,incorrect,0.5803174680081262,0,valid_lose,278.621175999986,27,,,,,,,,,,,,,,,,,,sub_465,2024-03-15_12h48.35.258,Reversal,2023.1.3,59.965447904114164,1,
7,exp3.png,exp4.png,,2,0,2,0,0,7,7,7,,,,,,,,,,,,,,,,,,,,,,,,,False,46,47,False,exp3.png,exp4.png,trial_left_image,1,exp3.png,1,exp3.png,exp4.png,1,1,non-reversed,correct,0.7040670204008309,1,valid_win,282.4029384999885,28,,,,,,,,,,,,,,,,,,sub_465,2024-03-15_12h48.35.258,Reversal,2023.1.3,59.965447904114164,1,
8,exp1.png,exp2.png,,2,0,2,0,0,8,8,8,,,,,,,,,,,,,,,,,,,,,,,,,False,47,48,False,exp1.png,exp2.png,trial_left_image,1,exp1.png,1,exp1.png,exp2.png,1,3,reversed,correct,0.7346592418485774,1,valid_win,286.4684946999769,29,,,,,,,,,,,,,,,,,,sub_465,2024-03-15_12h48.35.258,Reversal,2023.1.3,59.965447904114164,1,
9,exp3.png,exp4.png,,2,0,2,0,0,9,9,9,,,,,,,,,,,,,,,,,,,,,,,,,False,48,49,True,exp4.png,exp3.png,trial_right_image,-1,exp3.png,1,exp3.png,exp4.png,1,1,non-reversed,correct,0.18811648535729475,0,invalid_lose,290.5334086000221,29,,,,,,,,,,,,,,,,,,sub_465,2024-03-15_12h48.35.258,Reversal,2023.1.3,59.965447904114164,1,
10,exp1.png,exp2.png,,2,0,2,0,0,10,10,10,,,,,,,,,,,,,,,,,,,,,,,,,False,49,50,False,exp1.png,exp2.png,trial_right_image,-1,exp2.png,1,exp1.png,exp2.png,0,4,reversed,incorrect,0.8783617416106718,0,valid_lose,293.9325769999996,29,,,,,,,,,,,,,,,,,,sub_465,2024-03-15_12h48.35.258,Reversal,2023.1.3,59.965447904114164,1,
11,exp3.png,exp4.png,,2,0,2,0,0,11,11,11,,,,,,,,,,,,,,,,,,,,,,,,,False,50,51,False,exp3.png,exp4.png,trial_right_image,-1,exp4.png,1,exp3.png,exp4.png,0,2,non-reversed,incorrect,0.12832988368386755,1,invalid_win,297.6814538000035,30,,,,,,,,,,,,,,,,,,sub_465,2024-03-15_12h48.35.258,Reversal,2023.1.3,59.965447904114164,1,
12,exp1.png,exp2.png,,2,0,2,0,0,12,12,12,,,,,,,,,,,,,,,,,,,,,,,,,False,51,52,False,exp1.png,exp2.png,trial_left_image,1,exp1.png,1,exp1.png,exp2.png,1,3,reversed,correct,0.2782001115068481,1,valid_win,302.0303306999849,31,,,,,,,,,,,,,,,,,,sub_465,2024-03-15_12h48.35.258,Reversal,2023.1.3,59.965447904114164,1,
13,exp3.png,exp4.png,,2,0,2,0,0,13,13,13,,,,,,,,,,,,,,,,,,,,,,,,,False,52,53,True,exp4.png,exp3.png,trial_left_image,1,exp4.png,1,exp3.png,exp4.png,0,2,non-reversed,incorrect,0.4186518026988988,0,valid_lose,306.5287976000109,31,,,,,,,,,,,,,,,,,,sub_465,2024-03-15_12h48.35.258,Reversal,2023.1.3,59.965447904114164,1,
14,exp1.png,exp2.png,,2,0,2,0,0,14,14,14,,,,,,,,,,,,,,,,,,,,,,,,,False,53,54,True,exp2.png,exp1.png,trial_left_image,1,exp2.png,1,exp1.png,exp2.png,0,4,reversed,incorrect,0.6299275158414716,0,valid_lose,310.59369890001835,31,,,,,,,,,,,,,,,,,,sub_465,2024-03-15_12h48.35.258,Reversal,2023.1.3,59.965447904114164,1,
15,exp3.png,exp4.png,,2,0,2,0,0,15,15,15,,,,,,,,,,,,,,,,,,,,,,,,,False,54,55,True,exp4.png,exp3.png,trial_right_image,-1,exp3.png,1,exp3.png,exp4.png,1,1,non-reversed,correct,0.8334216477223436,1,valid_win,314.34210130001884,32,,,,,,,,,,,,,,,,,,sub_465,2024-03-15_12h48.35.258,Reversal,2023.1.3,59.965447904114164,1,
16,exp1.png,exp2.png,,2,0,2,0,0,16,16,16,,,,,,,,,,,,,,,,,,,,,,,,,False,55,56,False,exp1.png,exp2.png,trial_right_image,-1,exp2.png,1,exp1.png,exp2.png,0,4,reversed,incorrect,0.288043522776098,0,valid_lose,318.4078594999737,32,,,,,,,,,,,,,,,,,,sub_465,2024-03-15_12h48.35.258,Reversal,2023.1.3,59.965447904114164,1,
17,exp3.png,exp4.png,,2,0,2,0,0,17,17,17,,,,,,,,,,,,,,,,,,,,,,,,,False,56,57,True,exp4.png,exp3.png,trial_right_image,-1,exp3.png,1,exp3.png,exp4.png,1,1,non-reversed,correct,0.030290906071534174,0,invalid_lose,322.19053889997303,32,,,,,,,,,,,,,,,,,,sub_465,2024-03-15_12h48.35.258,Reversal,2023.1.3,59.965447904114164,1,
18,exp1.png,exp2.png,,2,0,2,0,0,18,18,18,,,,,,,,,,,,,,,,,,,,,,,,,False,57,58,True,exp2.png,exp1.png,trial_left_image,1,exp2.png,1,exp1.png,exp2.png,0,4,reversed,incorrect,0.15250732266241296,1,invalid_win,326.07162960001733,33,,,,,,,,,,,,,,,,,,sub_465,2024-03-15_12h48.35.258,Reversal,2023.1.3,59.965447904114164,1,
19,exp3.png,exp4.png,,2,0,2,0,0,19,19,19,,,,,,,,,,,,,,,,,,,,,,,,,False,58,59,True,exp4.png,exp3.png,trial_right_image,-1,exp3.png,1,exp3.png,exp4.png,1,1,non-reversed,correct,0.7400920108015431,1,valid_win,329.870732099982,34,,,,,,,,,,,,,,,,,,sub_465,2024-03-15_12h48.35.258,Reversal,2023.1.3,59.965447904114164,1,
20,exp1.png,exp2.png,,2,0,2,0,0,20,20,20,,,,,,,,,,,,,,,,,,,,,,,,,False,59,60,True,exp2.png,exp1.png,trial_right_image,-1,exp1.png,1,exp1.png,exp2.png,1,3,reversed,correct,0.8518982929614045,1,valid_win,333.43922820000444,35,,,,,,,,,,,,,,,,,,sub_465,2024-03-15_12h48.35.258,Reversal,2023.1.3,59.965447904114164,1,
,,,exp1.png,2,0,2,0,,,,,0,0,0,0,0,0,0,0,,,,,,,,,,,,,,,,,,,,,,,,,,,,,,,,,,,,,,419.7146750999964,100.0,100.0,4.507853200018872,"[(100.0, 4.507853200018872)]",,,,,,,,,,,,,sub_465,2024-03-15_12h48.35.258,Reversal,2023.1.3,59.965447904114164,1,
,,,exp2.png,2,0,2,0,,,,,0,0,0,0,0,1,1,1,,,,,,,,,,,,,,,,,,,,,,,,,,,,,,,,,,,,,,425.35841370001435,,1.0,3.9263305999920703,"[(17.0, 1.7106421000207774), (5.0, 2.6761148999794386), (1.0, 3.9263305999920703)]",1.0,,,,,,,,,,,,sub_465,2024-03-15_12h48.35.258,Reversal,2023.1.3,59.965447904114164,1,
,,,exp3.png,2,0,2,0,,,,,0,0,0,0,0,2,2,2,,,,,,,,,,,,,,,,,,,,,,,,,,,,,,,,,,,,,,430.5072656000266,,1.0,1.8603881999733858,"[(1.0, 1.8603881999733858)]",,1.0,,,,,,,,,,,sub_465,2024-03-15_12h48.35.258,Reversal,2023.1.3,59.965447904114164,1,
,,,exp4.png,2,0,2,0,,,,,0,0,0,0,0,3,3,3,,,,,,,,,,,,,,,,,,,,,,,,,,,,,,,,,,,,,,433.5542060000007,,100.0,1.924626900057774,"[(94.0, 1.178335300006438), (100.0, 1.924626900057774)]",,,100.0,,,,,,,,,,sub_465,2024-03-15_12h48.35.258,Reversal,2023.1.3,59.965447904114164,1,
0,exp1.png,exp2.png,,3,0,3,0,0,0,0,0,,,,,,,,,,,,,,,,,,,,,,,,,True,,,,,,,,,,,,,,,,,,,,,,,,,,,,,,,,,,,,,,sub_465,2024-03-15_12h48.35.258,Reversal,2023.1.3,59.965447904114164,1,
1,exp3.png,exp4.png,,3,0,3,0,0,1,1,1,,,,,,,,,,,,,,,,,,,,,,,,,False,60,61,True,exp4.png,exp3.png,trial_right_image,-1,exp3.png,1,exp3.png,exp4.png,1,1,non-reversed,correct,0.012791075268933305,0,invalid_lose,355.811798300012,35,,,,,,,,,,,,,,,,,,sub_465,2024-03-15_12h48.35.258,Reversal,2023.1.3,59.965447904114164,1,
2,exp1.png,exp2.png,,3,0,3,0,0,2,2,2,,,,,,,,,,,,,,,,,,,,,,,,,False,61,62,True,exp2.png,exp1.png,trial_left_image,1,exp2.png,1,exp1.png,exp2.png,0,4,reversed,incorrect,0.9460065353590201,0,valid_lose,359.7276366999722,35,,,,,,,,,,,,,,,,,,sub_465,2024-03-15_12h48.35.258,Reversal,2023.1.3,59.965447904114164,1,
3,exp3.png,exp4.png,,3,0,3,0,0,3,3,3,,,,,,,,,,,,,,,,,,,,,,,,,False,62,63,False,exp3.png,exp4.png,trial_left_image,1,exp3.png,1,exp3.png,exp4.png,1,1,non-reversed,correct,0.17617614137968263,0,invalid_lose,367.341002799978,35,,,,,,,,,,,,,,,,,,sub_465,2024-03-15_12h48.35.258,Reversal,2023.1.3,59.965447904114164,1,
4,exp1.png,exp2.png,,3,0,3,0,0,4,4,4,,,,,,,,,,,,,,,,,,,,,,,,,False,63,64,False,exp1.png,exp2.png,trial_left_image,1,exp1.png,1,exp1.png,exp2.png,1,3,reversed,correct,0.18996407219961564,0,invalid_lose,371.1727466000011,35,,,,,,,,,,,,,,,,,,sub_465,2024-03-15_12h48.35.258,Reversal,2023.1.3,59.965447904114164,1,
5,exp3.png,exp4.png,,3,0,3,0,0,5,5,5,,,,,,,,,,,,,,,,,,,,,,,,,False,64,65,True,exp4.png,exp3.png,trial_right_image,-1,exp3.png,1,exp3.png,exp4.png,1,1,non-reversed,correct,0.47225073896356795,1,valid_win,375.5551080000005,36,,,,,,,,,,,,,,,,,,sub_465,2024-03-15_12h48.35.258,Reversal,2023.1.3,59.965447904114164,1,
6,exp1.png,exp2.png,,3,0,3,0,0,6,6,6,,,,,,,,,,,,,,,,,,,,,,,,,False,65,66,False,exp1.png,exp2.png,trial_right_image,-1,exp2.png,1,exp1.png,exp2.png,0,4,reversed,incorrect,0.6403792863515742,0,valid_lose,379.58690090000164,36,,,,,,,,,,,,,,,,,,sub_465,2024-03-15_12h48.35.258,Reversal,2023.1.3,59.965447904114164,1,
7,exp3.png,exp4.png,,3,0,3,0,0,7,7,7,,,,,,,,,,,,,,,,,,,,,,,,,False,66,67,False,exp3.png,exp4.png,trial_right_image,-1,exp4.png,1,exp3.png,exp4.png,0,2,non-reversed,incorrect,0.222712406672683,1,invalid_win,383.3358255000203,37,,,,,,,,,,,,,,,,,,sub_465,2024-03-15_12h48.35.258,Reversal,2023.1.3,59.965447904114164,1,
8,exp1.png,exp2.png,,3,0,3,0,0,8,8,8,,,,,,,,,,,,,,,,,,,,,,,,,False,67,68,True,exp2.png,exp1.png,trial_left_image,1,exp2.png,1,exp1.png,exp2.png,0,4,reversed,incorrect,0.14523309209562107,1,invalid_win,387.28418820002116,38,,,,,,,,,,,,,,,,,,sub_465,2024-03-15_12h48.35.258,Reversal,2023.1.3,59.965447904114164,1,
9,exp3.png,exp4.png,,3,0,3,0,0,9,9,9,,,,,,,,,,,,,,,,,,,,,,,,,False,68,69,True,exp4.png,exp3.png,trial_left_image,1,exp4.png,1,exp3.png,exp4.png,0,2,non-reversed,incorrect,0.9964714895916206,0,valid_lose,391.5831056999741,38,,,,,,,,,,,,,,,,,,sub_465,2024-03-15_12h48.35.258,Reversal,2023.1.3,59.965447904114164,1,
10,exp1.png,exp2.png,,3,0,3,0,0,10,10,10,,,,,,,,,,,,,,,,,,,,,,,,,False,69,70,False,exp1.png,exp2.png,trial_right_image,-1,exp2.png,1,exp1.png,exp2.png,0,4,reversed,incorrect,0.12394351035561402,1,invalid_win,395.54810509999515,39,,,,,,,,,,,,,,,,,,sub_465,2024-03-15_12h48.35.258,Reversal,2023.1.3,59.965447904114164,1,
11,exp3.png,exp4.png,,3,0,3,0,0,11,11,11,,,,,,,,,,,,,,,,,,,,,,,,,False,70,71,True,exp4.png,exp3.png,trial_right_image,-1,exp3.png,1,exp3.png,exp4.png,1,1,non-reversed,correct,0.5980732023963459,1,valid_win,399.746869399969,40,,,,,,,,,,,,,,,,,,sub_465,2024-03-15_12h48.35.258,Reversal,2023.1.3,59.965447904114164,1,
12,exp1.png,exp2.png,,3,0,3,0,0,12,12,12,,,,,,,,,,,,,,,,,,,,,,,,,False,71,72,False,exp1.png,exp2.png,trial_left_image,1,exp1.png,1,exp1.png,exp2.png,1,3,reversed,correct,0.3579669401922432,1,valid_win,403.82856649998575,41,,,,,,,,,,,,,,,,,,sub_465,2024-03-15_12h48.35.258,Reversal,2023.1.3,59.965447904114164,1,
13,exp3.png,exp4.png,,3,0,3,0,0,13,13,13,,,,,,,,,,,,,,,,,,,,,,,,,False,72,73,True,exp4.png,exp3.png,trial_right_image,-1,exp3.png,1,exp3.png,exp4.png,1,1,non-reversed,correct,0.8457377608066954,1,valid_win,407.9602691999753,42,,,,,,,,,,,,,,,,,,sub_465,2024-03-15_12h48.35.258,Reversal,2023.1.3,59.965447904114164,1,
14,exp1.png,exp2.png,,3,0,3,0,0,14,14,14,,,,,,,,,,,,,,,,,,,,,,,,,False,73,74,True,exp2.png,exp1.png,trial_left_image,1,exp2.png,1,exp1.png,exp2.png,0,4,reversed,incorrect,0.5139372192948305,0,valid_lose,413.6250131999841,42,,,,,,,,,,,,,,,,,,sub_465,2024-03-15_12h48.35.258,Reversal,2023.1.3,59.965447904114164,1,
15,exp3.png,exp4.png,,3,0,3,0,0,15,15,15,,,,,,,,,,,,,,,,,,,,,,,,,False,74,75,True,exp4.png,exp3.png,trial_left_image,1,exp4.png,1,exp3.png,exp4.png,0,2,non-reversed,incorrect,0.2113574732946093,1,invalid_win,417.99111569998786,43,,,,,,,,,,,,,,,,,,sub_465,2024-03-15_12h48.35.258,Reversal,2023.1.3,59.965447904114164,1,
16,exp1.png,exp2.png,,3,0,3,0,0,16,16,16,,,,,,,,,,,,,,,,,,,,,,,,,False,75,76,True,exp2.png,exp1.png,trial_right_image,-1,exp1.png,1,exp1.png,exp2.png,1,3,reversed,correct,0.5199207542334429,1,valid_win,423.6556943000178,44,,,,,,,,,,,,,,,,,,sub_465,2024-03-15_12h48.35.258,Reversal,2023.1.3,59.965447904114164,1,
17,exp3.png,exp4.png,,3,0,3,0,0,17,17,17,,,,,,,,,,,,,,,,,,,,,,,,,False,76,77,False,exp3.png,exp4.png,trial_left_image,1,exp3.png,1,exp3.png,exp4.png,1,1,non-reversed,correct,0.058446767360196716,0,invalid_lose,429.5204770999844,44,,,,,,,,,,,,,,,,,,sub_465,2024-03-15_12h48.35.258,Reversal,2023.1.3,59.965447904114164,1,
18,exp1.png,exp2.png,,3,0,3,0,0,18,18,18,,,,,,,,,,,,,,,,,,,,,,,,,False,77,78,False,exp1.png,exp2.png,trial_right_image,-1,exp2.png,1,exp1.png,exp2.png,0,4,reversed,incorrect,0.7265145631500308,0,valid_lose,434.3686528999824,44,,,,,,,,,,,,,,,,,,sub_465,2024-03-15_12h48.35.258,Reversal,2023.1.3,59.965447904114164,1,
19,exp3.png,exp4.png,,3,0,3,0,0,19,19,19,,,,,,,,,,,,,,,,,,,,,,,,,False,78,79,False,exp3.png,exp4.png,trial_left_image,1,exp3.png,1,exp3.png,exp4.png,1,1,non-reversed,correct,0.49074158316279315,1,valid_win,439.46646759996656,45,,,,,,,,,,,,,,,,,,sub_465,2024-03-15_12h48.35.258,Reversal,2023.1.3,59.965447904114164,1,
20,exp1.png,exp2.png,,3,0,3,0,0,20,20,20,,,,,,,,,,,,,,,,,,,,,,,,,False,79,80,False,exp1.png,exp2.png,trial_right_image,-1,exp2.png,1,exp1.png,exp2.png,0,4,reversed,incorrect,0.9387099167454058,0,valid_lose,445.3151937999646,45,,,,,,,,,,,,,,,,,,sub_465,2024-03-15_12h48.35.258,Reversal,2023.1.3,59.965447904114164,1,
,,,exp1.png,3,0,3,0,,,,,0,0,0,0,0,0,0,0,,,,,,,,,,,,,,,,,,,,,,,,,,,,,,,,,,,,,,531.5794163999963,1.0,1.0,3.1054222999955527,"[(1.0, 3.1054222999955527)]",,,,,,,,,,,,,sub_465,2024-03-15_12h48.35.258,Reversal,2023.1.3,59.965447904114164,1,
,,,exp2.png,3,0,3,0,,,,,0,0,0,0,0,1,1,1,,,,,,,,,,,,,,,,,,,,,,,,,,,,,,,,,,,,,,535.9359570000088,,98.0,2.3447040999890305,"[(98.0, 2.3447040999890305)]",98.0,,,,,,,,,,,,sub_465,2024-03-15_12h48.35.258,Reversal,2023.1.3,59.965447904114164,1,
,,,exp3.png,3,0,3,0,,,,,0,0,0,0,0,2,2,2,,,,,,,,,,,,,,,,,,,,,,,,,,,,,,,,,,,,,,539.7529955999926,,100.0,1.709863999974914,"[(100.0, 1.709863999974914)]",,100.0,,,,,,,,,,,sub_465,2024-03-15_12h48.35.258,Reversal,2023.1.3,59.965447904114164,1,
,,,exp4.png,3,0,3,0,,,,,0,0,0,0,0,3,3,3,,,,,,,,,,,,,,,,,,,,,,,,,,,,,,,,,,,,,,542.7191862000036,,100.0,1.9088063000235707,"[(100.0, 1.9088063000235707)]",,,100.0,,,,,,,,,,sub_465,2024-03-15_12h48.35.258,Reversal,2023.1.3,59.965447904114164,1,
0,exp1.png,exp2.png,,,,,,,,,,,,,,,,,,0,0,0,0,0,0,0,0,,,,,,,,,True,,,,,,,,,,,,,,,,,,,,,,,,,,,,,,,,,,,,,,sub_465,2024-03-15_12h48.35.258,Reversal,2023.1.3,59.965447904114164,1,
1,exp3.png,exp4.png,,,,,,,,,,,,,,,,,,0,0,0,0,0,1,1,1,,,,,,,,,False,0,81,True,exp4.png,exp3.png,trial_right_image,-1,exp3.png,1,exp3.png,exp4.png,1,1,non-reversed,correct,0.28075943044483864,1,valid_win,465.77406319999136,46,,,,,,,,,462.2762997999671,,,,,,,,,sub_465,2024-03-15_12h48.35.258,Reversal,2023.1.3,59.965447904114164,1,
2,exp1.png,exp2.png,,,,,,,,,,,,,,,,,,0,0,0,0,0,2,2,2,,,,,,,,,False,1,82,False,exp1.png,exp2.png,trial_left_image,1,exp1.png,1,exp2.png,exp1.png,1,3,reversed,incorrect,0.5527867778614974,0,valid_lose,471.7386577000143,46,,,,,,,,,,,,,,,,,,sub_465,2024-03-15_12h48.35.258,Reversal,2023.1.3,59.965447904114164,1,
3,exp3.png,exp4.png,,,,,,,,,,,,,,,,,,0,0,0,0,0,3,3,3,,,,,,,,,False,2,83,True,exp4.png,exp3.png,trial_right_image,-1,exp3.png,1,exp3.png,exp4.png,1,1,non-reversed,correct,0.9753079758030136,1,valid_win,476.2371061000158,47,,,,,,,,,,,,,,,,,,sub_465,2024-03-15_12h48.35.258,Reversal,2023.1.3,59.965447904114164,1,
4,exp1.png,exp2.png,,,,,,,,,,,,,,,,,,0,0,0,0,0,4,4,4,,,,,,,,,False,3,84,False,exp1.png,exp2.png,trial_right_image,-1,exp2.png,1,exp2.png,exp1.png,0,4,reversed,correct,0.333311716265834,1,valid_win,480.7856827999931,48,,,,,,,,,,,,,,,,,,sub_465,2024-03-15_12h48.35.258,Reversal,2023.1.3,59.965447904114164,1,
5,exp3.png,exp4.png,,,,,,,,,,,,,,,,,,0,0,0,0,0,5,5,5,,,,,,,,,False,4,85,True,exp4.png,exp3.png,trial_right_image,-1,exp3.png,1,exp3.png,exp4.png,1,1,non-reversed,correct,0.7721471031456969,1,valid_win,485.03408810001565,49,,,,,,,,,,,,,,,,,,sub_465,2024-03-15_12h48.35.258,Reversal,2023.1.3,59.965447904114164,1,
6,exp1.png,exp2.png,,,,,,,,,,,,,,,,,,0,0,0,0,0,6,6,6,,,,,,,,,False,5,86,True,exp2.png,exp1.png,trial_right_image,-1,exp1.png,1,exp2.png,exp1.png,1,3,reversed,incorrect,0.8408621065739755,0,valid_lose,489.6497553999652,49,,,,,,,,,,,,,,,,,,sub_465,2024-03-15_12h48.35.258,Reversal,2023.1.3,59.965447904114164,1,
7,exp3.png,exp4.png,,,,,,,,,,,,,,,,,,0,0,0,0,0,7,7,7,,,,,,,,,False,6,87,False,exp3.png,exp4.png,trial_left_image,1,exp3.png,1,exp3.png,exp4.png,1,1,non-reversed,correct,0.1581492788110691,0,invalid_lose,493.9646809999831,49,,,,,,,,,,,,,,,,,,sub_465,2024-03-15_12h48.35.258,Reversal,2023.1.3,59.965447904114164,1,
8,exp1.png,exp2.png,,,,,,,,,,,,,,,,,,0,0,0,0,0,8,8,8,,,,,,,,,False,7,88,True,exp2.png,exp1.png,trial_left_image,1,exp2.png,1,exp2.png,exp1.png,0,4,reversed,correct,0.10855548837363349,0,invalid_lose,497.7132424999727,49,,,,,,,,,,,,,,,,,,sub_465,2024-03-15_12h48.35.258,Reversal,2023.1.3,59.965447904114164,1,
9,exp3.png,exp4.png,,,,,,,,,,,,,,,,,,0,0,0,0,0,9,9,9,,,,,,,,,False,8,89,False,exp3.png,exp4.png,trial_right_image,-1,exp4.png,1,exp3.png,exp4.png,0,2,non-reversed,incorrect,0.9061021644534781,0,valid_lose,501.5785154000041,49,,,,,,,,,,,,,,,,,,sub_465,2024-03-15_12h48.35.258,Reversal,2023.1.3,59.965447904114164,1,
10,exp1.png,exp2.png,,,,,,,,,,,,,,,,,,0,0,0,0,0,10,10,10,,,,,,,,,False,9,90,True,exp2.png,exp1.png,trial_right_image,-1,exp1.png,1,exp2.png,exp1.png,1,3,reversed,incorrect,0.4794275186633673,0,valid_lose,505.09436639997875,49,,,,,,,,,,,,,,,,,,sub_465,2024-03-15_12h48.35.258,Reversal,2023.1.3,59.965447904114164,1,
11,exp3.png,exp4.png,,,,,,,,,,,,,,,,,,0,0,0,0,0,11,11,11,,,,,,,,,False,10,91,True,exp4.png,exp3.png,trial_right_image,-1,exp3.png,1,exp3.png,exp4.png,1,1,non-reversed,correct,0.18956571690748047,0,invalid_lose,509.092977399996,49,,,,,,,,,,,,,,,,,,sub_465,2024-03-15_12h48.35.258,Reversal,2023.1.3,59.965447904114164,1,
12,exp1.png,exp2.png,,,,,,,,,,,,,,,,,,0,0,0,0,0,12,12,12,,,,,,,,,False,11,92,False,exp1.png,exp2.png,trial_right_image,-1,exp2.png,1,exp2.png,exp1.png,0,4,reversed,correct,0.9235037313005648,1,valid_win,512.8748521999805,50,,,,,,,,,,,,,,,,,,sub_465,2024-03-15_12h48.35.258,Reversal,2023.1.3,59.965447904114164,1,
13,exp3.png,exp4.png,,,,,,,,,,,,,,,,,,0,0,0,0,0,13,13,13,,,,,,,,,False,12,93,True,exp4.png,exp3.png,trial_left_image,1,exp4.png,1,exp3.png,exp4.png,0,2,non-reversed,incorrect,0.5357725367005487,0,valid_lose,517.106462900003,50,,,,,,,,,,,,,,,,,,sub_465,2024-03-15_12h48.35.258,Reversal,2023.1.3,59.965447904114164,1,
14,exp1.png,exp2.png,,,,,,,,,,,,,,,,,,0,0,0,0,0,14,14,14,,,,,,,,,False,13,94,False,exp1.png,exp2.png,trial_right_image,-1,exp2.png,1,exp2.png,exp1.png,0,4,reversed,correct,0.5037206228752901,1,valid_win,520.9222339999978,51,,,,,,,,,,,,,,,,,,sub_465,2024-03-15_12h48.35.258,Reversal,2023.1.3,59.965447904114164,1,
15,exp3.png,exp4.png,,,,,,,,,,,,,,,,,,0,0,0,0,0,15,15,15,,,,,,,,,False,14,95,False,exp3.png,exp4.png,trial_right_image,-1,exp4.png,1,exp3.png,exp4.png,0,2,non-reversed,incorrect,0.37548677418012844,0,valid_lose,525.9535040999763,51,,,,,,,,,,,,,,,,,,sub_465,2024-03-15_12h48.35.258,Reversal,2023.1.3,59.965447904114164,1,
16,exp1.png,exp2.png,,,,,,,,,,,,,,,,,,0,0,0,0,0,16,16,16,,,,,,,,,False,15,96,True,exp2.png,exp1.png,trial_left_image,1,exp2.png,1,exp2.png,exp1.png,0,4,reversed,correct,0.3326676901700255,1,valid_win,530.2187818000093,52,,,,,,,,,,,,,,,,,,sub_465,2024-03-15_12h48.35.258,Reversal,2023.1.3,59.965447904114164,1,
17,exp3.png,exp4.png,,,,,,,,,,,,,,,,,,0,0,0,0,0,17,17,17,,,,,,,,,False,16,97,False,exp3.png,exp4.png,trial_left_image,1,exp3.png,1,exp3.png,exp4.png,1,1,non-reversed,correct,0.24372718093896495,0,invalid_lose,534.6007321999641,52,,,,,,,,,,,,,,,,,,sub_465,2024-03-15_12h48.35.258,Reversal,2023.1.3,59.965447904114164,1,
18,exp1.png,exp2.png,,,,,,,,,,,,,,,,,,0,0,0,0,0,18,18,18,,,,,,,,,False,17,98,False,exp1.png,exp2.png,trial_right_image,-1,exp2.png,1,exp2.png,exp1.png,0,4,reversed,correct,0.16925821267764019,0,invalid_lose,541.4151513999677,52,,,,,,,,,,,,,,,,,,sub_465,2024-03-15_12h48.35.258,Reversal,2023.1.3,59.965447904114164,1,
19,exp3.png,exp4.png,,,,,,,,,,,,,,,,,,0,0,0,0,0,19,19,19,,,,,,,,,False,18,99,False,exp3.png,exp4.png,trial_left_image,1,exp3.png,1,exp3.png,exp4.png,1,1,non-reversed,correct,0.8432454708812759,1,valid_win,547.1464001999702,53,,,,,,,,,,,,,,,,,,sub_465,2024-03-15_12h48.35.258,Reversal,2023.1.3,59.965447904114164,1,
20,exp1.png,exp2.png,,,,,,,,,,,,,,,,,,0,0,0,0,0,20,20,20,,,,,,,,,False,19,100,True,exp2.png,exp1.png,trial_left_image,1,exp2.png,1,exp2.png,exp1.png,0,4,reversed,correct,0.6306412548725282,1,valid_win,551.778334099974,54,,,,,,,,,,,,,,,,,,sub_465,2024-03-15_12h48.35.258,Reversal,2023.1.3,59.965447904114164,1,
,,,exp1.png,,,,,,,,,,,,,,,,,0,0,0,0,,,,,0,0,0,0,0,0,0,0,,,,,,,,,,,,,,,,,,,,,,638.0500268000178,100.0,100.0,3.25044670002535,"[(100.0, 3.25044670002535)]",,,,,,,,,,,,,sub_465,2024-03-15_12h48.35.258,Reversal,2023.1.3,59.965447904114164,1,
,,,exp2.png,,,,,,,,,,,,,,,,,0,0,0,0,,,,,0,0,0,0,0,1,1,1,,,,,,,,,,,,,,,,,,,,,,642.4354994000169,,100.0,3.558715299994219,"[(92.0, 2.3259294999879785), (100.0, 3.558715299994219)]",100.0,,,,,,,,,,,,sub_465,2024-03-15_12h48.35.258,Reversal,2023.1.3,59.965447904114164,1,
,,,exp3.png,,,,,,,,,,,,,,,,,0,0,0,0,,,,,0,0,0,0,0,2,2,2,,,,,,,,,,,,,,,,,,,,,,647.1838711000164,,1.0,1.5272717999760062,"[(1.0, 1.5272717999760062)]",,1.0,,,,,,,,,,,sub_465,2024-03-15_12h48.35.258,Reversal,2023.1.3,59.965447904114164,1,
,,,exp4.png,,,,,,,,,,,,,,,,,0,0,0,0,,,,,0,0,0,0,0,3,3,3,,,,,,,,,,,,,,,,,,,,,,649.9143668999895,,100.0,2.9267868000315502,"[(100.0, 2.9267868000315502)]",,,100.0,,,,,,,,,,sub_465,2024-03-15_12h48.35.258,Reversal,2023.1.3,59.965447904114164,1,
0,exp1.png,exp2.png,,,,,,,,,,,,,,,,,,1,0,1,0,0,0,0,0,,,,,,,,,True,,,,,,,,,,,,,,,,,,,,,,,,,,,,,,,,,,,,,,sub_465,2024-03-15_12h48.35.258,Reversal,2023.1.3,59.965447904114164,1,
1,exp3.png,exp4.png,,,,,,,,,,,,,,,,,,1,0,1,0,0,1,1,1,,,,,,,,,False,20,101,False,exp3.png,exp4.png,trial_right_image,-1,exp4.png,1,exp3.png,exp4.png,0,2,non-reversed,incorrect,0.7889205815495699,0,valid_lose,572.8709643000038,54,,,,,,,,,,,,,,,,,,sub_465,2024-03-15_12h48.35.258,Reversal,2023.1.3,59.965447904114164,1,
2,exp1.png,exp2.png,,,,,,,,,,,,,,,,,,1,0,1,0,0,2,2,2,,,,,,,,,False,21,102,False,exp1.png,exp2.png,trial_right_image,-1,exp2.png,1,exp2.png,exp1.png,0,4,reversed,correct,0.5449136446567415,1,valid_win,577.2531867999933,55,,,,,,,,,,,,,,,,,,sub_465,2024-03-15_12h48.35.258,Reversal,2023.1.3,59.965447904114164,1,
3,exp3.png,exp4.png,,,,,,,,,,,,,,,,,,1,0,1,0,0,3,3,3,,,,,,,,,False,22,103,False,exp3.png,exp4.png,trial_right_image,-1,exp4.png,1,exp3.png,exp4.png,0,2,non-reversed,incorrect,0.40278326558886846,0,valid_lose,583.2177489000023,55,,,,,,,,,,,,,,,,,,sub_465,2024-03-15_12h48.35.258,Reversal,2023.1.3,59.965447904114164,1,
4,exp1.png,exp2.png,,,,,,,,,,,,,,,,,,1,0,1,0,0,4,4,4,,,,,,,,,False,23,104,False,exp1.png,exp2.png,trial_right_image,-1,exp2.png,1,exp2.png,exp1.png,0,4,reversed,correct,0.8195537493836648,1,valid_win,587.1497146000038,56,,,,,,,,,,,,,,,,,,sub_465,2024-03-15_12h48.35.258,Reversal,2023.1.3,59.965447904114164,1,
5,exp3.png,exp4.png,,,,,,,,,,,,,,,,,,1,0,1,0,0,5,5,5,,,,,,,,,False,24,105,True,exp4.png,exp3.png,trial_left_image,1,exp4.png,1,exp3.png,exp4.png,0,2,non-reversed,incorrect,0.8463742880035138,0,valid_lose,591.2489980999962,56,,,,,,,,,,,,,,,,,,sub_465,2024-03-15_12h48.35.258,Reversal,2023.1.3,59.965447904114164,1,
6,exp1.png,exp2.png,,,,,,,,,,,,,,,,,,1,0,1,0,0,6,6,6,,,,,,,,,False,25,106,True,exp2.png,exp1.png,trial_left_image,1,exp2.png,1,exp2.png,exp1.png,0,4,reversed,correct,0.5664601476383041,1,valid_win,595.2801655000076,57,,,,,,,,,,,,,,,,,,sub_465,2024-03-15_12h48.35.258,Reversal,2023.1.3,59.965447904114164,1,
7,exp3.png,exp4.png,,,,,,,,,,,,,,,,,,1,0,1,0,0,7,7,7,,,,,,,,,False,26,107,False,exp3.png,exp4.png,trial_right_image,-1,exp4.png,1,exp3.png,exp4.png,0,2,non-reversed,incorrect,0.5396544782617394,0,valid_lose,599.5793367999722,57,,,,,,,,,,,,,,,,,,sub_465,2024-03-15_12h48.35.258,Reversal,2023.1.3,59.965447904114164,1,
8,exp1.png,exp2.png,,,,,,,,,,,,,,,,,,1,0,1,0,0,8,8,8,,,,,,,,,False,27,108,True,exp2.png,exp1.png,trial_right_image,-1,exp1.png,1,exp2.png,exp1.png,1,3,reversed,incorrect,0.5851958894817063,0,valid_lose,603.4942674000049,57,,,,,,,,,,,,,,,,,,sub_465,2024-03-15_12h48.35.258,Reversal,2023.1.3,59.965447904114164,1,
9,exp3.png,exp4.png,,,,,,,,,,,,,,,,,,1,0,1,0,0,9,9,9,,,,,,,,,False,28,109,True,exp4.png,exp3.png,trial_left_image,1,exp4.png,1,exp3.png,exp4.png,0,2,non-reversed,incorrect,0.25016434647200814,0,valid_lose,607.3758208000218,57,,,,,,,,,,,,,,,,,,sub_465,2024-03-15_12h48.35.258,Reversal,2023.1.3,59.965447904114164,1,
10,exp1.png,exp2.png,,,,,,,,,,,,,,,,,,1,0,1,0,0,10,10,10,,,,,,,,,False,29,110,False,exp1.png,exp2.png,trial_left_image,1,exp1.png,1,exp2.png,exp1.png,1,3,reversed,incorrect,0.6251730729948397,0,valid_lose,611.2747735999874,57,,,,,,,,,,,,,,,,,,sub_465,2024-03-15_12h48.35.258,Reversal,2023.1.3,59.965447904114164,1,
11,exp3.png,exp4.png,,,,,,,,,,,,,,,,,,1,0,1,0,0,11,11,11,,,,,,,,,False,30,111,True,exp4.png,exp3.png,trial_left_image,1,exp4.png,1,exp3.png,exp4.png,0,2,non-reversed,incorrect,0.4985219612088585,0,valid_lose,615.3564508999698,57,,,,,,,,,,,,,,,,,,sub_465,2024-03-15_12h48.35.258,Reversal,2023.1.3,59.965447904114164,1,
12,exp1.png,exp2.png,,,,,,,,,,,,,,,,,,1,0,1,0,0,12,12,12,,,,,,,,,False,31,112,True,exp2.png,exp1.png,trial_right_image,-1,exp1.png,1,exp2.png,exp1.png,1,3,reversed,incorrect,0.020560638814558718,1,invalid_win,619.0725469000172,58,,,,,,,,,,,,,,,,,,sub_465,2024-03-15_12h48.35.258,Reversal,2023.1.3,59.965447904114164,1,
13,exp3.png,exp4.png,,,,,,,,,,,,,,,,,,1,0,1,0,0,13,13,13,,,,,,,,,False,32,113,True,exp4.png,exp3.png,trial_right_image,-1,exp3.png,1,exp3.png,exp4.png,1,1,non-reversed,correct,0.6740968260168436,1,valid_win,623.1708098999807,59,,,,,,,,,,,,,,,,,,sub_465,2024-03-15_12h48.35.258,Reversal,2023.1.3,59.965447904114164,1,
14,exp1.png,exp2.png,,,,,,,,,,,,,,,,,,1,0,1,0,0,14,14,14,,,,,,,,,False,33,114,True,exp2.png,exp1.png,trial_right_image,-1,exp1.png,1,exp2.png,exp1.png,1,3,reversed,incorrect,0.38896078782230104,0,valid_lose,627.3028042999795,59,,,,,,,,,,,,,,,,,,sub_465,2024-03-15_12h48.35.258,Reversal,2023.1.3,59.965447904114164,1,
15,exp3.png,exp4.png,,,,,,,,,,,,,,,,,,1,0,1,0,0,15,15,15,,,,,,,,,False,34,115,False,exp3.png,exp4.png,trial_left_image,1,exp3.png,1,exp3.png,exp4.png,1,1,non-reversed,correct,0.600829255862449,1,valid_win,631.2178249999997,60,,,,,,,,,,,,,,,,,,sub_465,2024-03-15_12h48.35.258,Reversal,2023.1.3,59.965447904114164,1,
16,exp1.png,exp2.png,,,,,,,,,,,,,,,,,,1,0,1,0,0,16,16,16,,,,,,,,,False,35,116,False,exp1.png,exp2.png,trial_left_image,1,exp1.png,1,exp2.png,exp1.png,1,3,reversed,incorrect,0.7527820640043158,0,valid_lose,635.3670405999874,60,,,,,,,,,,,,,,,,,,sub_465,2024-03-15_12h48.35.258,Reversal,2023.1.3,59.965447904114164,1,
17,exp3.png,exp4.png,,,,,,,,,,,,,,,,,,1,0,1,0,0,17,17,17,,,,,,,,,False,36,117,True,exp4.png,exp3.png,trial_right_image,-1,exp3.png,1,exp3.png,exp4.png,1,1,non-reversed,correct,0.44151656687459506,1,valid_win,639.2484472999931,61,,,,,,,,,,,,,,,,,,sub_465,2024-03-15_12h48.35.258,Reversal,2023.1.3,59.965447904114164,1,
18,exp1.png,exp2.png,,,,,,,,,,,,,,,,,,1,0,1,0,0,18,18,18,,,,,,,,,False,37,118,True,exp2.png,exp1.png,trial_right_image,-1,exp1.png,1,exp2.png,exp1.png,1,3,reversed,incorrect,0.5984147553024802,0,valid_lose,643.3476138999686,61,,,,,,,,,,,,,,,,,,sub_465,2024-03-15_12h48.35.258,Reversal,2023.1.3,59.965447904114164,1,
19,exp3.png,exp4.png,,,,,,,,,,,,,,,,,,1,0,1,0,0,19,19,19,,,,,,,,,False,38,119,False,exp3.png,exp4.png,trial_right_image,-1,exp4.png,1,exp3.png,exp4.png,0,2,non-reversed,incorrect,0.6992693763473357,0,valid_lose,647.1461842000135,61,,,,,,,,,,,,,,,,,,sub_465,2024-03-15_12h48.35.258,Reversal,2023.1.3,59.965447904114164,1,
20,exp1.png,exp2.png,,,,,,,,,,,,,,,,,,1,0,1,0,0,20,20,20,,,,,,,,,False,39,120,False,exp1.png,exp2.png,trial_right_image,-1,exp2.png,1,exp2.png,exp1.png,0,4,reversed,correct,0.4279875120237303,1,valid_win,650.9112661000108,62,,,,,,,,,,,,,,,,,,sub_465,2024-03-15_12h48.35.258,Reversal,2023.1.3,59.965447904114164,1,
,,,exp1.png,,,,,,,,,,,,,,,,,1,0,1,0,,,,,0,0,0,0,0,0,0,0,,,,,,,,,,,,,,,,,,,,,,737.1797680999734,1.0,1.0,3.7179390999954194,"[(90.0, 2.1180104999803007), (1.0, 3.7179390999954194)]",,,,,,,,,,,,,sub_465,2024-03-15_12h48.35.258,Reversal,2023.1.3,59.965447904114164,1,
,,,exp2.png,,,,,,,,,,,,,,,,,1,0,1,0,,,,,0,0,0,0,0,1,1,1,,,,,,,,,,,,,,,,,,,,,,742.4169717999757,,100.0,1.6785814999602735,"[(100.0, 1.6785814999602735)]",100.0,,,,,,,,,,,,sub_465,2024-03-15_12h48.35.258,Reversal,2023.1.3,59.965447904114164,1,
,,,exp3.png,,,,,,,,,,,,,,,,,1,0,1,0,,,,,0,0,0,0,0,2,2,2,,,,,,,,,,,,,,,,,,,,,,745.3332067999872,,1.0,1.1435317000141367,"[(1.0, 1.1435317000141367)]",,1.0,,,,,,,,,,,sub_465,2024-03-15_12h48.35.258,Reversal,2023.1.3,59.965447904114164,1,
,,,exp4.png,,,,,,,,,,,,,,,,,1,0,1,0,,,,,0,0,0,0,0,3,3,3,,,,,,,,,,,,,,,,,,,,,,747.7480648999917,,100.0,1.0120724000153132,"[(100.0, 1.0120724000153132)]",,,100.0,,,,,,,,,,sub_465,2024-03-15_12h48.35.258,Reversal,2023.1.3,59.965447904114164,1,
0,exp1.png,exp2.png,,,,,,,,,,,,,,,,,,2,0,2,0,0,0,0,0,,,,,,,,,True,,,,,,,,,,,,,,,,,,,,,,,,,,,,,,,,,,,,,,sub_465,2024-03-15_12h48.35.258,Reversal,2023.1.3,59.965447904114164,1,
1,exp3.png,exp4.png,,,,,,,,,,,,,,,,,,2,0,2,0,0,1,1,1,,,,,,,,,False,40,121,False,exp3.png,exp4.png,trial_right_image,-1,exp4.png,1,exp3.png,exp4.png,0,2,non-reversed,incorrect,0.25628881768297573,0,valid_lose,667.7222064000089,62,,,,,,,,,,,,,,,,,,sub_465,2024-03-15_12h48.35.258,Reversal,2023.1.3,59.965447904114164,1,
2,exp1.png,exp2.png,,,,,,,,,,,,,,,,,,2,0,2,0,0,2,2,2,,,,,,,,,False,41,122,True,exp2.png,exp1.png,trial_left_image,1,exp2.png,1,exp2.png,exp1.png,0,4,reversed,correct,0.9295148801756238,1,valid_win,671.4879442999954,63,,,,,,,,,,,,,,,,,,sub_465,2024-03-15_12h48.35.258,Reversal,2023.1.3,59.965447904114164,1,
3,exp3.png,exp4.png,,,,,,,,,,,,,,,,,,2,0,2,0,0,3,3,3,,,,,,,,,False,42,123,True,exp4.png,exp3.png,trial_right_image,-1,exp3.png,1,exp3.png,exp4.png,1,1,non-reversed,correct,0.37810113272194856,1,valid_win,675.3196544999955,64,,,,,,,,,,,,,,,,,,sub_465,2024-03-15_12h48.35.258,Reversal,2023.1.3,59.965447904114164,1,
4,exp1.png,exp2.png,,,,,,,,,,,,,,,,,,2,0,2,0,0,4,4,4,,,,,,,,,False,43,124,False,exp1.png,exp2.png,trial_right_image,-1,exp2.png,1,exp2.png,exp1.png,0,4,reversed,correct,0.04148618625223133,0,invalid_lose,679.1515230999794,64,,,,,,,,,,,,,,,,,,sub_465,2024-03-15_12h48.35.258,Reversal,2023.1.3,59.965447904114164,1,
5,exp3.png,exp4.png,,,,,,,,,,,,,,,,,,2,0,2,0,0,5,5,5,,,,,,,,,False,44,125,True,exp4.png,exp3.png,trial_right_image,-1,exp3.png,1,exp3.png,exp4.png,1,1,non-reversed,correct,0.9473042221732,1,valid_win,682.9171964999987,65,,,,,,,,,,,,,,,,,,sub_465,2024-03-15_12h48.35.258,Reversal,2023.1.3,59.965447904114164,1,
6,exp1.png,exp2.png,,,,,,,,,,,,,,,,,,2,0,2,0,0,6,6,6,,,,,,,,,False,45,126,True,exp2.png,exp1.png,trial_left_image,1,exp2.png,1,exp2.png,exp1.png,0,4,reversed,correct,0.7586325670219504,1,valid_win,687.2494853999815,66,,,,,,,,,,,,,,,,,,sub_465,2024-03-15_12h48.35.258,Reversal,2023.1.3,59.965447904114164,1,
7,exp3.png,exp4.png,,,,,,,,,,,,,,,,,,2,0,2,0,0,7,7,7,,,,,,,,,False,46,127,False,exp3.png,exp4.png,trial_left_image,1,exp3.png,1,exp3.png,exp4.png,1,1,non-reversed,correct,0.6648325399323383,1,valid_win,691.0480758000049,67,,,,,,,,,,,,,,,,,,sub_465,2024-03-15_12h48.35.258,Reversal,2023.1.3,59.965447904114164,1,
8,exp1.png,exp2.png,,,,,,,,,,,,,,,,,,2,0,2,0,0,8,8,8,,,,,,,,,False,47,128,False,exp1.png,exp2.png,trial_right_image,-1,exp2.png,1,exp2.png,exp1.png,0,4,reversed,correct,0.7054373196546199,1,valid_win,695.2962755999761,68,,,,,,,,,,,,,,,,,,sub_465,2024-03-15_12h48.35.258,Reversal,2023.1.3,59.965447904114164,1,
9,exp3.png,exp4.png,,,,,,,,,,,,,,,,,,2,0,2,0,0,9,9,9,,,,,,,,,False,48,129,True,exp4.png,exp3.png,trial_left_image,1,exp4.png,1,exp3.png,exp4.png,0,2,non-reversed,incorrect,0.46146016767035225,0,valid_lose,699.9285332,68,,,,,,,,,,,,,,,,,,sub_465,2024-03-15_12h48.35.258,Reversal,2023.1.3,59.965447904114164,1,
10,exp1.png,exp2.png,,,,,,,,,,,,,,,,,,2,0,2,0,0,10,10,10,,,,,,,,,False,49,130,True,exp2.png,exp1.png,trial_right_image,-1,exp1.png,1,exp2.png,exp1.png,1,3,reversed,incorrect,0.31879553720091725,0,valid_lose,704.3263976000017,68,,,,,,,,,,,,,,,,,,sub_465,2024-03-15_12h48.35.258,Reversal,2023.1.3,59.965447904114164,1,
11,exp3.png,exp4.png,,,,,,,,,,,,,,,,,,2,0,2,0,0,11,11,11,,,,,,,,,False,50,131,False,exp3.png,exp4.png,trial_left_image,1,exp3.png,1,exp3.png,exp4.png,1,1,non-reversed,correct,0.23703718537891527,0,invalid_lose,709.124791499984,68,,,,,,,,,,,,,,,,,,sub_465,2024-03-15_12h48.35.258,Reversal,2023.1.3,59.965447904114164,1,
12,exp1.png,exp2.png,,,,,,,,,,,,,,,,,,2,0,2,0,0,12,12,12,,,,,,,,,False,51,132,False,exp1.png,exp2.png,trial_left_image,1,exp1.png,1,exp2.png,exp1.png,1,3,reversed,incorrect,0.6011833652552401,0,valid_lose,712.9234245999833,68,,,,,,,,,,,,,,,,,,sub_465,2024-03-15_12h48.35.258,Reversal,2023.1.3,59.965447904114164,1,
13,exp3.png,exp4.png,,,,,,,,,,,,,,,,,,2,0,2,0,0,13,13,13,,,,,,,,,False,52,133,True,exp4.png,exp3.png,trial_left_image,1,exp4.png,1,exp3.png,exp4.png,0,2,non-reversed,incorrect,0.5209525163033506,0,valid_lose,716.7557925999863,68,,,,,,,,,,,,,,,,,,sub_465,2024-03-15_12h48.35.258,Reversal,2023.1.3,59.965447904114164,1,
14,exp1.png,exp2.png,,,,,,,,,,,,,,,,,,2,0,2,0,0,14,14,14,,,,,,,,,False,53,134,True,exp2.png,exp1.png,trial_left_image,1,exp2.png,1,exp2.png,exp1.png,0,4,reversed,correct,0.4949653176171094,1,valid_win,720.5873932999675,69,,,,,,,,,,,,,,,,,,sub_465,2024-03-15_12h48.35.258,Reversal,2023.1.3,59.965447904114164,1,
15,exp3.png,exp4.png,,,,,,,,,,,,,,,,,,2,0,2,0,0,15,15,15,,,,,,,,,False,54,135,True,exp4.png,exp3.png,trial_left_image,1,exp4.png,1,exp3.png,exp4.png,0,2,non-reversed,incorrect,0.5794867885258104,0,valid_lose,724.5194958000211,69,,,,,,,,,,,,,,,,,,sub_465,2024-03-15_12h48.35.258,Reversal,2023.1.3,59.965447904114164,1,
16,exp1.png,exp2.png,,,,,,,,,,,,,,,,,,2,0,2,0,0,16,16,16,,,,,,,,,False,55,136,False,exp1.png,exp2.png,trial_right_image,-1,exp2.png,1,exp2.png,exp1.png,0,4,reversed,correct,0.344555327633147,1,valid_win,728.4183475999744,70,,,,,,,,,,,,,,,,,,sub_465,2024-03-15_12h48.35.258,Reversal,2023.1.3,59.965447904114164,1,
17,exp3.png,exp4.png,,,,,,,,,,,,,,,,,,2,0,2,0,0,17,17,17,,,,,,,,,False,56,137,False,exp3.png,exp4.png,trial_right_image,-1,exp4.png,1,exp3.png,exp4.png,0,2,non-reversed,incorrect,0.253762820587056,0,valid_lose,732.3833845999907,70,,,,,,,,,,,,,,,,,,sub_465,2024-03-15_12h48.35.258,Reversal,2023.1.3,59.965447904114164,1,
18,exp1.png,exp2.png,,,,,,,,,,,,,,,,,,2,0,2,0,0,18,18,18,,,,,,,,,False,57,138,True,exp2.png,exp1.png,trial_right_image,-1,exp1.png,1,exp2.png,exp1.png,1,3,reversed,incorrect,0.11889457419142768,1,invalid_win,736.7322160999756,71,,,,,,,,,,,,,,,,,,sub_465,2024-03-15_12h48.35.258,Reversal,2023.1.3,59.965447904114164,1,
19,exp3.png,exp4.png,,,,,,,,,,,,,,,,,,2,0,2,0,0,19,19,19,,,,,,,,,False,58,139,False,exp3.png,exp4.png,trial_left_image,1,exp3.png,1,exp3.png,exp4.png,1,1,non-reversed,correct,0.5344636511225014,1,valid_win,740.6311265999684,72,,,,,,,,,,,,,,,,,,sub_465,2024-03-15_12h48.35.258,Reversal,2023.1.3,59.965447904114164,1,
20,exp1.png,exp2.png,,,,,,,,,,,,,,,,,,2,0,2,0,0,20,20,20,,,,,,,,,False,59,140,False,exp1.png,exp2.png,trial_left_image,1,exp1.png,1,exp2.png,exp1.png,1,3,reversed,incorrect,0.9371949379878832,0,valid_lose,745.1628230999922,72,,,,,,,,,,,,,,,,,,sub_465,2024-03-15_12h48.35.258,Reversal,2023.1.3,59.965447904114164,1,
,,,exp1.png,,,,,,,,,,,,,,,,,2,0,2,0,,,,,0,0,0,0,0,0,0,0,,,,,,,,,,,,,,,,,,,,,,831.4353968999931,100.0,100.0,2.663414200011175,"[(100.0, 2.663414200011175)]",,,,,,,,,,,,,sub_465,2024-03-15_12h48.35.258,Reversal,2023.1.3,59.965447904114164,1,
,,,exp2.png,,,,,,,,,,,,,,,,,2,0,2,0,,,,,0,0,0,0,0,1,1,1,,,,,,,,,,,,,,,,,,,,,,835.4773292000173,,100.0,2.0467351999832317,"[(100.0, 2.0467351999832317)]",100.0,,,,,,,,,,,,sub_465,2024-03-15_12h48.35.258,Reversal,2023.1.3,59.965447904114164,1,
,,,exp3.png,,,,,,,,,,,,,,,,,2,0,2,0,,,,,0,0,0,0,0,2,2,2,,,,,,,,,,,,,,,,,,,,,,838.566820100008,,1.0,1.4131966999848373,"[(1.0, 1.4131966999848373)]",,1.0,,,,,,,,,,,sub_465,2024-03-15_12h48.35.258,Reversal,2023.1.3,59.965447904114164,1,
,,,exp4.png,,,,,,,,,,,,,,,,,2,0,2,0,,,,,0,0,0,0,0,3,3,3,,,,,,,,,,,,,,,,,,,,,,841.1164961999748,,100.0,3.1605695000034757,"[(100.0, 3.1605695000034757)]",,,100.0,,,,,,,,,,sub_465,2024-03-15_12h48.35.258,Reversal,2023.1.3,59.965447904114164,1,
,,,,,,,,,,,,,,,,,,,,,,,,,,,,,,,,,,,,,,,,,,,,,,,,,,,,,,,,72,,,,,,,,,,79,47,32,299.298701599997,1,space,64.03729469998507,None,sub_465,2024-03-15_12h48.35.258,Reversal,2023.1.3,59.965447904114164,1,
