trial_index,trial_image1_file,trial_image2_file,image_file,learning_outer_loop.thisRepN,learning_outer_loop.thisTrialN,learning_outer_loop.thisN,learning_outer_loop.thisIndex,learning_inner_loop.thisRepN,learning_inner_loop.thisTrialN,learning_inner_loop.thisN,learning_inner_loop.thisIndex,learning_estimation_outer_loop.thisRepN,learning_estimation_outer_loop.thisTrialN,learning_estimation_outer_loop.thisN,learning_estimation_outer_loop.thisIndex,learning_estimation_inner_loop.thisRepN,learning_estimation_inner_loop.thisTrialN,learning_estimation_inner_loop.thisN,learning_estimation_inner_loop.thisIndex,reversal_outer_loop.thisRepN,reversal_outer_loop.thisTrialN,reversal_outer_loop.thisN,reversal_outer_loop.thisIndex,reversal_inner_loop.thisRepN,reversal_inner_loop.thisTrialN,reversal_inner_loop.thisN,reversal_inner_loop.thisIndex,reversal_estimation_outer_loop.thisRepN,reversal_estimation_outer_loop.thisTrialN,reversal_estimation_outer_loop.thisN,reversal_estimation_outer_loop.thisIndex,reversal_estimation_inner_loop.thisRepN,reversal_estimation_inner_loop.thisTrialN,reversal_estimation_inner_loop.thisN,reversal_estimation_inner_loop.thisIndex,skipped,total_trial_counter,trial_num,left_right_flip,left_image_file,right_image_file,clicked_stimulus_side,side,clicked_stimulus,version,high_prob_image_file,low_prob_image_file,choice_a,choice_b,pair_type,correct,trial_feedback_random,reward,trial_type,overall_time_after_trial,score,estimation_exp1.png,estimation_rating.response,estimation_rating.rt,estimation_rating.history,estimation_rating.started,estimation_rating.stopped,estimation_exp2.png,estimation_exp3.png,estimation_exp4.png,total_learning_time,total_correct,learning_correct,reversal_correct,total_reversal_time,extra_block,participant,date,expName,psychopyVersion,frameRate,ver,
0,exp1.png,exp2.png,,0,0,0,0,0,0,0,0,,,,,,,,,,,,,,,,,,,,,,,,,False,0,1,True,exp2.png,exp1.png,trial_left_image,1,exp2.png,1,exp1.png,exp2.png,0,4,reversed,incorrect,0.47841677770072566,0,valid_lose,8.650195800000802,0,,,,,,,,,,,,,,,,sub_505,2024-09-16_14h46.04.962,Reversal,2022.1.2,59.95211029444261,1,
1,exp3.png,exp4.png,,0,0,0,0,0,1,1,1,,,,,,,,,,,,,,,,,,,,,,,,,False,1,2,False,exp3.png,exp4.png,trial_left_image,1,exp3.png,1,exp3.png,exp4.png,1,1,non-reversed,correct,0.7035841528786946,1,valid_win,16.016316600027494,1,,,,,,,,,,,,,,,,sub_505,2024-09-16_14h46.04.962,Reversal,2022.1.2,59.95211029444261,1,
2,exp1.png,exp2.png,,0,0,0,0,0,2,2,2,,,,,,,,,,,,,,,,,,,,,,,,,False,2,3,True,exp2.png,exp1.png,trial_left_image,1,exp2.png,1,exp1.png,exp2.png,0,4,reversed,incorrect,0.4688496995815816,0,valid_lose,30.950111699989066,1,,,,,,,,,,,,,,,,sub_505,2024-09-16_14h46.04.962,Reversal,2022.1.2,59.95211029444261,1,
3,exp3.png,exp4.png,,0,0,0,0,0,3,3,3,,,,,,,,,,,,,,,,,,,,,,,,,False,3,4,False,exp3.png,exp4.png,trial_left_image,1,exp3.png,1,exp3.png,exp4.png,1,1,non-reversed,correct,0.760630935975812,1,valid_win,35.73352539993357,2,,,,,,,,,,,,,,,,sub_505,2024-09-16_14h46.04.962,Reversal,2022.1.2,59.95211029444261,1,
4,exp1.png,exp2.png,,0,0,0,0,0,4,4,4,,,,,,,,,,,,,,,,,,,,,,,,,False,4,5,False,exp1.png,exp2.png,trial_left_image,1,exp1.png,1,exp1.png,exp2.png,1,3,reversed,correct,0.6081087978195586,1,valid_win,41.333550499984995,3,,,,,,,,,,,,,,,,sub_505,2024-09-16_14h46.04.962,Reversal,2022.1.2,59.95211029444261,1,
5,exp3.png,exp4.png,,0,0,0,0,0,5,5,5,,,,,,,,,,,,,,,,,,,,,,,,,False,5,6,False,exp3.png,exp4.png,trial_left_image,1,exp3.png,1,exp3.png,exp4.png,1,1,non-reversed,correct,0.5693852954091151,1,valid_win,46.182953299954534,4,,,,,,,,,,,,,,,,sub_505,2024-09-16_14h46.04.962,Reversal,2022.1.2,59.95211029444261,1,
6,exp1.png,exp2.png,,0,0,0,0,0,6,6,6,,,,,,,,,,,,,,,,,,,,,,,,,False,6,7,True,exp2.png,exp1.png,trial_right_image,-1,exp1.png,1,exp1.png,exp2.png,1,3,reversed,correct,0.6479708349030292,1,valid_win,50.949808400007896,5,,,,,,,,,,,,,,,,sub_505,2024-09-16_14h46.04.962,Reversal,2022.1.2,59.95211029444261,1,
7,exp3.png,exp4.png,,0,0,0,0,0,7,7,7,,,,,,,,,,,,,,,,,,,,,,,,,False,7,8,False,exp3.png,exp4.png,trial_left_image,1,exp3.png,1,exp3.png,exp4.png,1,1,non-reversed,correct,0.16222446725774542,0,invalid_lose,55.5830725999549,5,,,,,,,,,,,,,,,,sub_505,2024-09-16_14h46.04.962,Reversal,2022.1.2,59.95211029444261,1,
8,exp1.png,exp2.png,,0,0,0,0,0,8,8,8,,,,,,,,,,,,,,,,,,,,,,,,,False,8,9,False,exp1.png,exp2.png,trial_left_image,1,exp1.png,1,exp1.png,exp2.png,1,3,reversed,correct,0.6866811031761582,1,valid_win,60.59991180000361,6,,,,,,,,,,,,,,,,sub_505,2024-09-16_14h46.04.962,Reversal,2022.1.2,59.95211029444261,1,
9,exp3.png,exp4.png,,0,0,0,0,0,9,9,9,,,,,,,,,,,,,,,,,,,,,,,,,False,9,10,True,exp4.png,exp3.png,trial_left_image,1,exp4.png,1,exp3.png,exp4.png,0,2,non-reversed,incorrect,0.5397074108498722,0,valid_lose,65.78253800002858,6,,,,,,,,,,,,,,,,sub_505,2024-09-16_14h46.04.962,Reversal,2022.1.2,59.95211029444261,1,
10,exp1.png,exp2.png,,0,0,0,0,0,10,10,10,,,,,,,,,,,,,,,,,,,,,,,,,False,10,11,True,exp2.png,exp1.png,trial_right_image,-1,exp1.png,1,exp1.png,exp2.png,1,3,reversed,correct,0.06900248052188818,0,invalid_lose,71.16605559992604,6,,,,,,,,,,,,,,,,sub_505,2024-09-16_14h46.04.962,Reversal,2022.1.2,59.95211029444261,1,
11,exp3.png,exp4.png,,0,0,0,0,0,11,11,11,,,,,,,,,,,,,,,,,,,,,,,,,False,11,12,False,exp3.png,exp4.png,trial_right_image,-1,exp4.png,1,exp3.png,exp4.png,0,2,non-reversed,incorrect,0.5507067415705946,0,valid_lose,76.16598319995683,6,,,,,,,,,,,,,,,,sub_505,2024-09-16_14h46.04.962,Reversal,2022.1.2,59.95211029444261,1,
12,exp1.png,exp2.png,,0,0,0,0,0,12,12,12,,,,,,,,,,,,,,,,,,,,,,,,,False,12,13,False,exp1.png,exp2.png,trial_right_image,-1,exp2.png,1,exp1.png,exp2.png,0,4,reversed,incorrect,0.8312852691235033,0,valid_lose,81.2826620999258,6,,,,,,,,,,,,,,,,sub_505,2024-09-16_14h46.04.962,Reversal,2022.1.2,59.95211029444261,1,
13,exp3.png,exp4.png,,0,0,0,0,0,13,13,13,,,,,,,,,,,,,,,,,,,,,,,,,False,13,14,False,exp3.png,exp4.png,trial_left_image,1,exp3.png,1,exp3.png,exp4.png,1,1,non-reversed,correct,0.9156482860237487,1,valid_win,85.86574829998426,7,,,,,,,,,,,,,,,,sub_505,2024-09-16_14h46.04.962,Reversal,2022.1.2,59.95211029444261,1,
14,exp1.png,exp2.png,,0,0,0,0,0,14,14,14,,,,,,,,,,,,,,,,,,,,,,,,,False,14,15,True,exp2.png,exp1.png,trial_right_image,-1,exp1.png,1,exp1.png,exp2.png,1,3,reversed,correct,0.9641266625393256,1,valid_win,90.43252399994526,8,,,,,,,,,,,,,,,,sub_505,2024-09-16_14h46.04.962,Reversal,2022.1.2,59.95211029444261,1,
15,exp3.png,exp4.png,,0,0,0,0,0,15,15,15,,,,,,,,,,,,,,,,,,,,,,,,,False,15,16,False,exp3.png,exp4.png,trial_left_image,1,exp3.png,1,exp3.png,exp4.png,1,1,non-reversed,correct,0.01453651435980785,0,invalid_lose,95.08214109996334,8,,,,,,,,,,,,,,,,sub_505,2024-09-16_14h46.04.962,Reversal,2022.1.2,59.95211029444261,1,
16,exp1.png,exp2.png,,0,0,0,0,0,16,16,16,,,,,,,,,,,,,,,,,,,,,,,,,False,16,17,True,exp2.png,exp1.png,trial_left_image,1,exp2.png,1,exp1.png,exp2.png,0,4,reversed,incorrect,0.31528795347657745,0,valid_lose,99.76484620000701,8,,,,,,,,,,,,,,,,sub_505,2024-09-16_14h46.04.962,Reversal,2022.1.2,59.95211029444261,1,
17,exp3.png,exp4.png,,0,0,0,0,0,17,17,17,,,,,,,,,,,,,,,,,,,,,,,,,False,17,18,True,exp4.png,exp3.png,trial_right_image,-1,exp3.png,1,exp3.png,exp4.png,1,1,non-reversed,correct,0.3077363199202743,1,valid_win,104.9322035999503,9,,,,,,,,,,,,,,,,sub_505,2024-09-16_14h46.04.962,Reversal,2022.1.2,59.95211029444261,1,
18,exp1.png,exp2.png,,0,0,0,0,0,18,18,18,,,,,,,,,,,,,,,,,,,,,,,,,False,18,19,True,exp2.png,exp1.png,trial_right_image,-1,exp1.png,1,exp1.png,exp2.png,1,3,reversed,correct,0.0196277787877831,0,invalid_lose,109.76543279993348,9,,,,,,,,,,,,,,,,sub_505,2024-09-16_14h46.04.962,Reversal,2022.1.2,59.95211029444261,1,
19,exp3.png,exp4.png,,0,0,0,0,0,19,19,19,,,,,,,,,,,,,,,,,,,,,,,,,False,19,20,True,exp4.png,exp3.png,trial_right_image,-1,exp3.png,1,exp3.png,exp4.png,1,1,non-reversed,correct,0.04311498990461782,0,invalid_lose,114.54833070002496,9,,,,,,,,,,,,,,,,sub_505,2024-09-16_14h46.04.962,Reversal,2022.1.2,59.95211029444261,1,
20,exp1.png,exp2.png,,0,0,0,0,0,20,20,20,,,,,,,,,,,,,,,,,,,,,,,,,True,,,,,,,,,,,,,,,,,,,,,,,,,,,,,,,,,,,,sub_505,2024-09-16_14h46.04.962,Reversal,2022.1.2,59.95211029444261,1,
,,,exp1.png,0,0,0,0,,,,,0,0,0,0,0,0,0,0,,,,,,,,,,,,,,,,,,,,,,,,,,,,,,,,,,,,,,72.0,72.0,15.04972530005034,"[(72.0, 15.04972530005034)]",171.58111659996212,None,,,,,,,,,,sub_505,2024-09-16_14h46.04.962,Reversal,2022.1.2,59.95211029444261,1,
,,,exp2.png,0,0,0,0,,,,,0,0,0,0,0,1,1,1,,,,,,,,,,,,,,,,,,,,,,,,,,,,,,,,,,,,,,,27.0,4.800427399924956,"[(27.0, 4.800427399924956)]",189.26168959995266,None,27.0,,,,,,,,,sub_505,2024-09-16_14h46.04.962,Reversal,2022.1.2,59.95211029444261,1,
,,,exp3.png,0,0,0,0,,,,,0,0,0,0,0,2,2,2,,,,,,,,,,,,,,,,,,,,,,,,,,,,,,,,,,,,,,,74.0,10.048869799938984,"[(74.0, 10.048869799938984)]",195.22919979994185,None,,74.0,,,,,,,,sub_505,2024-09-16_14h46.04.962,Reversal,2022.1.2,59.95211029444261,1,
,,,exp4.png,0,0,0,0,,,,,0,0,0,0,0,3,3,3,,,,,,,,,,,,,,,,,,,,,,,,,,,,,,,,,,,,,,,24.0,1.7690477999858558,"[(24.0, 1.7690477999858558)]",206.61211629991885,None,,,24.0,,,,,,,sub_505,2024-09-16_14h46.04.962,Reversal,2022.1.2,59.95211029444261,1,
0,exp1.png,exp2.png,,1,0,1,0,0,0,0,0,,,,,,,,,,,,,,,,,,,,,,,,,False,20,21,True,exp2.png,exp1.png,trial_right_image,-1,exp1.png,1,exp1.png,exp2.png,1,3,reversed,correct,0.6624718570685648,1,valid_win,157.39745960000437,10,,,,,,,,,,,,,,,,sub_505,2024-09-16_14h46.04.962,Reversal,2022.1.2,59.95211029444261,1,
1,exp3.png,exp4.png,,1,0,1,0,0,1,1,1,,,,,,,,,,,,,,,,,,,,,,,,,False,21,22,True,exp4.png,exp3.png,trial_right_image,-1,exp3.png,1,exp3.png,exp4.png,1,1,non-reversed,correct,0.9283461683528339,1,valid_win,161.88047740003094,11,,,,,,,,,,,,,,,,sub_505,2024-09-16_14h46.04.962,Reversal,2022.1.2,59.95211029444261,1,
2,exp1.png,exp2.png,,1,0,1,0,0,2,2,2,,,,,,,,,,,,,,,,,,,,,,,,,False,22,23,True,exp2.png,exp1.png,trial_right_image,-1,exp1.png,1,exp1.png,exp2.png,1,3,reversed,correct,0.30992598310800346,1,valid_win,166.41377730004024,12,,,,,,,,,,,,,,,,sub_505,2024-09-16_14h46.04.962,Reversal,2022.1.2,59.95211029444261,1,
3,exp3.png,exp4.png,,1,0,1,0,0,3,3,3,,,,,,,,,,,,,,,,,,,,,,,,,False,23,24,False,exp3.png,exp4.png,trial_left_image,1,exp3.png,1,exp3.png,exp4.png,1,1,non-reversed,correct,0.9132309777329228,1,valid_win,170.89730179996695,13,,,,,,,,,,,,,,,,sub_505,2024-09-16_14h46.04.962,Reversal,2022.1.2,59.95211029444261,1,
4,exp1.png,exp2.png,,1,0,1,0,0,4,4,4,,,,,,,,,,,,,,,,,,,,,,,,,False,24,25,False,exp1.png,exp2.png,trial_left_image,1,exp1.png,1,exp1.png,exp2.png,1,3,reversed,correct,0.5825321028893535,1,valid_win,175.3807307999814,14,,,,,,,,,,,,,,,,sub_505,2024-09-16_14h46.04.962,Reversal,2022.1.2,59.95211029444261,1,
5,exp3.png,exp4.png,,1,0,1,0,0,5,5,5,,,,,,,,,,,,,,,,,,,,,,,,,False,25,26,False,exp3.png,exp4.png,trial_left_image,1,exp3.png,1,exp3.png,exp4.png,1,1,non-reversed,correct,0.006359808575712722,0,invalid_lose,179.847350899945,14,,,,,,,,,,,,,,,,sub_505,2024-09-16_14h46.04.962,Reversal,2022.1.2,59.95211029444261,1,
6,exp1.png,exp2.png,,1,0,1,0,0,6,6,6,,,,,,,,,,,,,,,,,,,,,,,,,False,26,27,False,exp1.png,exp2.png,trial_right_image,-1,exp2.png,1,exp1.png,exp2.png,0,4,reversed,incorrect,0.7384096417756505,0,valid_lose,184.31427660002373,14,,,,,,,,,,,,,,,,sub_505,2024-09-16_14h46.04.962,Reversal,2022.1.2,59.95211029444261,1,
7,exp3.png,exp4.png,,1,0,1,0,0,7,7,7,,,,,,,,,,,,,,,,,,,,,,,,,False,27,28,True,exp4.png,exp3.png,trial_left_image,1,exp4.png,1,exp3.png,exp4.png,0,2,non-reversed,incorrect,0.11845080966221566,1,invalid_win,188.63072050001938,15,,,,,,,,,,,,,,,,sub_505,2024-09-16_14h46.04.962,Reversal,2022.1.2,59.95211029444261,1,
8,exp1.png,exp2.png,,1,0,1,0,0,8,8,8,,,,,,,,,,,,,,,,,,,,,,,,,False,28,29,True,exp2.png,exp1.png,trial_left_image,1,exp2.png,1,exp1.png,exp2.png,0,4,reversed,incorrect,0.5691900858071555,0,valid_lose,192.9971363999648,15,,,,,,,,,,,,,,,,sub_505,2024-09-16_14h46.04.962,Reversal,2022.1.2,59.95211029444261,1,
9,exp3.png,exp4.png,,1,0,1,0,0,9,9,9,,,,,,,,,,,,,,,,,,,,,,,,,False,29,30,True,exp4.png,exp3.png,trial_right_image,-1,exp3.png,1,exp3.png,exp4.png,1,1,non-reversed,correct,0.21829748628872758,0,invalid_lose,197.94750899996143,15,,,,,,,,,,,,,,,,sub_505,2024-09-16_14h46.04.962,Reversal,2022.1.2,59.95211029444261,1,
10,exp1.png,exp2.png,,1,0,1,0,0,10,10,10,,,,,,,,,,,,,,,,,,,,,,,,,False,30,31,True,exp2.png,exp1.png,trial_left_image,1,exp2.png,1,exp1.png,exp2.png,0,4,reversed,incorrect,0.7210076113125833,0,valid_lose,202.18035849998705,15,,,,,,,,,,,,,,,,sub_505,2024-09-16_14h46.04.962,Reversal,2022.1.2,59.95211029444261,1,
11,exp3.png,exp4.png,,1,0,1,0,0,11,11,11,,,,,,,,,,,,,,,,,,,,,,,,,False,31,32,False,exp3.png,exp4.png,trial_left_image,1,exp3.png,1,exp3.png,exp4.png,1,1,non-reversed,correct,0.9892007923241082,1,valid_win,206.69718729995657,16,,,,,,,,,,,,,,,,sub_505,2024-09-16_14h46.04.962,Reversal,2022.1.2,59.95211029444261,1,
12,exp1.png,exp2.png,,1,0,1,0,0,12,12,12,,,,,,,,,,,,,,,,,,,,,,,,,False,32,33,False,exp1.png,exp2.png,trial_left_image,1,exp1.png,1,exp1.png,exp2.png,1,3,reversed,correct,0.9534404958333309,1,valid_win,211.09641470003407,17,,,,,,,,,,,,,,,,sub_505,2024-09-16_14h46.04.962,Reversal,2022.1.2,59.95211029444261,1,
13,exp3.png,exp4.png,,1,0,1,0,0,13,13,13,,,,,,,,,,,,,,,,,,,,,,,,,False,33,34,False,exp3.png,exp4.png,trial_right_image,-1,exp4.png,1,exp3.png,exp4.png,0,2,non-reversed,incorrect,0.8734829787939523,0,valid_lose,216.0469261999242,17,,,,,,,,,,,,,,,,sub_505,2024-09-16_14h46.04.962,Reversal,2022.1.2,59.95211029444261,1,
14,exp1.png,exp2.png,,1,0,1,0,0,14,14,14,,,,,,,,,,,,,,,,,,,,,,,,,False,34,35,False,exp1.png,exp2.png,trial_right_image,-1,exp2.png,1,exp1.png,exp2.png,0,4,reversed,incorrect,0.9952305344836544,0,valid_lose,220.1135921999812,17,,,,,,,,,,,,,,,,sub_505,2024-09-16_14h46.04.962,Reversal,2022.1.2,59.95211029444261,1,
15,exp3.png,exp4.png,,1,0,1,0,0,15,15,15,,,,,,,,,,,,,,,,,,,,,,,,,False,35,36,False,exp3.png,exp4.png,trial_right_image,-1,exp4.png,1,exp3.png,exp4.png,0,2,non-reversed,incorrect,0.5198070596685782,0,valid_lose,224.39628480002284,17,,,,,,,,,,,,,,,,sub_505,2024-09-16_14h46.04.962,Reversal,2022.1.2,59.95211029444261,1,
16,exp1.png,exp2.png,,1,0,1,0,0,16,16,16,,,,,,,,,,,,,,,,,,,,,,,,,False,36,37,False,exp1.png,exp2.png,trial_left_image,1,exp1.png,1,exp1.png,exp2.png,1,3,reversed,correct,0.32311251183122924,1,valid_win,228.546773100039,18,,,,,,,,,,,,,,,,sub_505,2024-09-16_14h46.04.962,Reversal,2022.1.2,59.95211029444261,1,
17,exp3.png,exp4.png,,1,0,1,0,0,17,17,17,,,,,,,,,,,,,,,,,,,,,,,,,False,37,38,True,exp4.png,exp3.png,trial_right_image,-1,exp3.png,1,exp3.png,exp4.png,1,1,non-reversed,correct,0.13637760765876916,0,invalid_lose,233.01264740002807,18,,,,,,,,,,,,,,,,sub_505,2024-09-16_14h46.04.962,Reversal,2022.1.2,59.95211029444261,1,
18,exp1.png,exp2.png,,1,0,1,0,0,18,18,18,,,,,,,,,,,,,,,,,,,,,,,,,False,38,39,True,exp2.png,exp1.png,trial_left_image,1,exp2.png,1,exp1.png,exp2.png,0,4,reversed,incorrect,0.14423349533147845,1,invalid_win,237.49679240002297,19,,,,,,,,,,,,,,,,sub_505,2024-09-16_14h46.04.962,Reversal,2022.1.2,59.95211029444261,1,
19,exp3.png,exp4.png,,1,0,1,0,0,19,19,19,,,,,,,,,,,,,,,,,,,,,,,,,False,39,40,True,exp4.png,exp3.png,trial_left_image,1,exp4.png,1,exp3.png,exp4.png,0,2,non-reversed,incorrect,0.6758767925657024,0,valid_lose,241.99665310001,19,,,,,,,,,,,,,,,,sub_505,2024-09-16_14h46.04.962,Reversal,2022.1.2,59.95211029444261,1,
20,exp1.png,exp2.png,,1,0,1,0,0,20,20,20,,,,,,,,,,,,,,,,,,,,,,,,,True,,,,,,,,,,,,,,,,,,,,,,,,,,,,,,,,,,,,sub_505,2024-09-16_14h46.04.962,Reversal,2022.1.2,59.95211029444261,1,
,,,exp1.png,1,0,1,0,,,,,0,0,0,0,0,0,0,0,,,,,,,,,,,,,,,,,,,,,,,,,,,,,,,,,,,,,,79.0,79.0,4.937592200003564,"[(79.0, 4.937592200003564)]",299.0363398999907,None,,,,,,,,,,sub_505,2024-09-16_14h46.04.962,Reversal,2022.1.2,59.95211029444261,1,
,,,exp2.png,1,0,1,0,,,,,0,0,0,0,0,1,1,1,,,,,,,,,,,,,,,,,,,,,,,,,,,,,,,,,,,,,,,24.0,1.3001206000335515,"[(24.0, 1.3001206000335515)]",305.6051502999617,None,24.0,,,,,,,,,sub_505,2024-09-16_14h46.04.962,Reversal,2022.1.2,59.95211029444261,1,
,,,exp3.png,1,0,1,0,,,,,0,0,0,0,0,2,2,2,,,,,,,,,,,,,,,,,,,,,,,,,,,,,,,,,,,,,,,77.0,3.517887599999085,"[(77.0, 3.517887599999085)]",308.00374620000366,None,,77.0,,,,,,,,sub_505,2024-09-16_14h46.04.962,Reversal,2022.1.2,59.95211029444261,1,
,,,exp4.png,1,0,1,0,,,,,0,0,0,0,0,3,3,3,,,,,,,,,,,,,,,,,,,,,,,,,,,,,,,,,,,,,,,26.0,1.8518110999139026,"[(26.0, 1.8518110999139026)]",312.4571902999887,None,,,26.0,,,,,,,sub_505,2024-09-16_14h46.04.962,Reversal,2022.1.2,59.95211029444261,1,
0,exp1.png,exp2.png,,2,0,2,0,0,0,0,0,,,,,,,,,,,,,,,,,,,,,,,,,False,40,41,True,exp2.png,exp1.png,trial_right_image,-1,exp1.png,1,exp1.png,exp2.png,1,3,reversed,correct,0.29856895313924536,1,valid_win,263.2788824000163,20,,,,,,,,,,,,,,,,sub_505,2024-09-16_14h46.04.962,Reversal,2022.1.2,59.95211029444261,1,
1,exp3.png,exp4.png,,2,0,2,0,0,1,1,1,,,,,,,,,,,,,,,,,,,,,,,,,False,41,42,True,exp4.png,exp3.png,trial_right_image,-1,exp3.png,1,exp3.png,exp4.png,1,1,non-reversed,correct,0.3606972606985369,1,valid_win,267.59536149993073,21,,,,,,,,,,,,,,,,sub_505,2024-09-16_14h46.04.962,Reversal,2022.1.2,59.95211029444261,1,
2,exp1.png,exp2.png,,2,0,2,0,0,2,2,2,,,,,,,,,,,,,,,,,,,,,,,,,False,42,43,False,exp1.png,exp2.png,trial_left_image,1,exp1.png,1,exp1.png,exp2.png,1,3,reversed,correct,0.18592499716164912,0,invalid_lose,271.9623015000252,21,,,,,,,,,,,,,,,,sub_505,2024-09-16_14h46.04.962,Reversal,2022.1.2,59.95211029444261,1,
3,exp3.png,exp4.png,,2,0,2,0,0,3,3,3,,,,,,,,,,,,,,,,,,,,,,,,,False,43,44,False,exp3.png,exp4.png,trial_left_image,1,exp3.png,1,exp3.png,exp4.png,1,1,non-reversed,correct,0.5021269243631867,1,valid_win,276.1954477999825,22,,,,,,,,,,,,,,,,sub_505,2024-09-16_14h46.04.962,Reversal,2022.1.2,59.95211029444261,1,
4,exp1.png,exp2.png,,2,0,2,0,0,4,4,4,,,,,,,,,,,,,,,,,,,,,,,,,False,44,45,True,exp2.png,exp1.png,trial_right_image,-1,exp1.png,1,exp1.png,exp2.png,1,3,reversed,correct,0.21326468783311037,0,invalid_lose,280.6791551000206,22,,,,,,,,,,,,,,,,sub_505,2024-09-16_14h46.04.962,Reversal,2022.1.2,59.95211029444261,1,
5,exp3.png,exp4.png,,2,0,2,0,0,5,5,5,,,,,,,,,,,,,,,,,,,,,,,,,False,45,46,False,exp3.png,exp4.png,trial_right_image,-1,exp4.png,1,exp3.png,exp4.png,0,2,non-reversed,incorrect,0.24747451006044108,1,invalid_win,285.1617496999679,23,,,,,,,,,,,,,,,,sub_505,2024-09-16_14h46.04.962,Reversal,2022.1.2,59.95211029444261,1,
6,exp1.png,exp2.png,,2,0,2,0,0,6,6,6,,,,,,,,,,,,,,,,,,,,,,,,,False,46,47,False,exp1.png,exp2.png,trial_left_image,1,exp1.png,1,exp1.png,exp2.png,1,3,reversed,correct,0.02649657102745262,0,invalid_lose,289.71201419993304,23,,,,,,,,,,,,,,,,sub_505,2024-09-16_14h46.04.962,Reversal,2022.1.2,59.95211029444261,1,
7,exp3.png,exp4.png,,2,0,2,0,0,7,7,7,,,,,,,,,,,,,,,,,,,,,,,,,False,47,48,True,exp4.png,exp3.png,trial_right_image,-1,exp3.png,1,exp3.png,exp4.png,1,1,non-reversed,correct,0.12648150400642233,0,invalid_lose,294.1287427999778,23,,,,,,,,,,,,,,,,sub_505,2024-09-16_14h46.04.962,Reversal,2022.1.2,59.95211029444261,1,
8,exp1.png,exp2.png,,2,0,2,0,0,8,8,8,,,,,,,,,,,,,,,,,,,,,,,,,False,48,49,False,exp1.png,exp2.png,trial_right_image,-1,exp2.png,1,exp1.png,exp2.png,0,4,reversed,incorrect,0.5069294588713071,0,valid_lose,298.2616646999959,23,,,,,,,,,,,,,,,,sub_505,2024-09-16_14h46.04.962,Reversal,2022.1.2,59.95211029444261,1,
9,exp3.png,exp4.png,,2,0,2,0,0,9,9,9,,,,,,,,,,,,,,,,,,,,,,,,,False,49,50,False,exp3.png,exp4.png,trial_left_image,1,exp3.png,1,exp3.png,exp4.png,1,1,non-reversed,correct,0.7343688296780603,1,valid_win,302.5618162000319,24,,,,,,,,,,,,,,,,sub_505,2024-09-16_14h46.04.962,Reversal,2022.1.2,59.95211029444261,1,
10,exp1.png,exp2.png,,2,0,2,0,0,10,10,10,,,,,,,,,,,,,,,,,,,,,,,,,False,50,51,True,exp2.png,exp1.png,trial_right_image,-1,exp1.png,1,exp1.png,exp2.png,1,3,reversed,correct,0.6119950928012341,1,valid_win,306.9113701999886,25,,,,,,,,,,,,,,,,sub_505,2024-09-16_14h46.04.962,Reversal,2022.1.2,59.95211029444261,1,
11,exp3.png,exp4.png,,2,0,2,0,0,11,11,11,,,,,,,,,,,,,,,,,,,,,,,,,False,51,52,True,exp4.png,exp3.png,trial_left_image,1,exp4.png,1,exp3.png,exp4.png,0,2,non-reversed,incorrect,0.06670625830524846,1,invalid_win,311.22836599999573,26,,,,,,,,,,,,,,,,sub_505,2024-09-16_14h46.04.962,Reversal,2022.1.2,59.95211029444261,1,
12,exp1.png,exp2.png,,2,0,2,0,0,12,12,12,,,,,,,,,,,,,,,,,,,,,,,,,False,52,53,True,exp2.png,exp1.png,trial_left_image,1,exp2.png,1,exp1.png,exp2.png,0,4,reversed,incorrect,0.4816440382998831,0,valid_lose,315.54496029997244,26,,,,,,,,,,,,,,,,sub_505,2024-09-16_14h46.04.962,Reversal,2022.1.2,59.95211029444261,1,
13,exp3.png,exp4.png,,2,0,2,0,0,13,13,13,,,,,,,,,,,,,,,,,,,,,,,,,False,53,54,True,exp4.png,exp3.png,trial_right_image,-1,exp3.png,1,exp3.png,exp4.png,1,1,non-reversed,correct,0.2951485208676493,1,valid_win,319.7121754999971,27,,,,,,,,,,,,,,,,sub_505,2024-09-16_14h46.04.962,Reversal,2022.1.2,59.95211029444261,1,
14,exp1.png,exp2.png,,2,0,2,0,0,14,14,14,,,,,,,,,,,,,,,,,,,,,,,,,False,54,55,True,exp2.png,exp1.png,trial_right_image,-1,exp1.png,1,exp1.png,exp2.png,1,3,reversed,correct,0.36645366408977753,1,valid_win,324.1612435999559,28,,,,,,,,,,,,,,,,sub_505,2024-09-16_14h46.04.962,Reversal,2022.1.2,59.95211029444261,1,
15,exp3.png,exp4.png,,2,0,2,0,0,15,15,15,,,,,,,,,,,,,,,,,,,,,,,,,False,55,56,False,exp3.png,exp4.png,trial_left_image,1,exp3.png,1,exp3.png,exp4.png,1,1,non-reversed,correct,0.5072549560090336,1,valid_win,328.8617215999402,29,,,,,,,,,,,,,,,,sub_505,2024-09-16_14h46.04.962,Reversal,2022.1.2,59.95211029444261,1,
16,exp1.png,exp2.png,,2,0,2,0,0,16,16,16,,,,,,,,,,,,,,,,,,,,,,,,,False,56,57,True,exp2.png,exp1.png,trial_left_image,1,exp2.png,1,exp1.png,exp2.png,0,4,reversed,incorrect,0.18188465229477102,1,invalid_win,333.3612712000031,30,,,,,,,,,,,,,,,,sub_505,2024-09-16_14h46.04.962,Reversal,2022.1.2,59.95211029444261,1,
17,exp3.png,exp4.png,,2,0,2,0,0,17,17,17,,,,,,,,,,,,,,,,,,,,,,,,,False,57,58,False,exp3.png,exp4.png,trial_left_image,1,exp3.png,1,exp3.png,exp4.png,1,1,non-reversed,correct,0.4939751447817412,1,valid_win,337.8281107000075,31,,,,,,,,,,,,,,,,sub_505,2024-09-16_14h46.04.962,Reversal,2022.1.2,59.95211029444261,1,
18,exp1.png,exp2.png,,2,0,2,0,0,18,18,18,,,,,,,,,,,,,,,,,,,,,,,,,False,58,59,False,exp1.png,exp2.png,trial_left_image,1,exp1.png,1,exp1.png,exp2.png,1,3,reversed,correct,0.28898449995966213,1,valid_win,342.2114654999459,32,,,,,,,,,,,,,,,,sub_505,2024-09-16_14h46.04.962,Reversal,2022.1.2,59.95211029444261,1,
19,exp3.png,exp4.png,,2,0,2,0,0,19,19,19,,,,,,,,,,,,,,,,,,,,,,,,,False,59,60,False,exp3.png,exp4.png,trial_right_image,-1,exp4.png,1,exp3.png,exp4.png,0,2,non-reversed,incorrect,0.47315639990336356,0,valid_lose,346.5775165000232,32,,,,,,,,,,,,,,,,sub_505,2024-09-16_14h46.04.962,Reversal,2022.1.2,59.95211029444261,1,
20,exp1.png,exp2.png,,2,0,2,0,0,20,20,20,,,,,,,,,,,,,,,,,,,,,,,,,True,,,,,,,,,,,,,,,,,,,,,,,,,,,,,,,,,,,,sub_505,2024-09-16_14h46.04.962,Reversal,2022.1.2,59.95211029444261,1,
,,,exp1.png,2,0,2,0,,,,,0,0,0,0,0,0,0,0,,,,,,,,,,,,,,,,,,,,,,,,,,,,,,,,,,,,,,90.0,90.0,3.8556262999773026,"[(90.0, 3.8556262999773026)]",403.6162396,None,,,,,,,,,,sub_505,2024-09-16_14h46.04.962,Reversal,2022.1.2,59.95211029444261,1,
,,,exp2.png,2,0,2,0,,,,,0,0,0,0,0,1,1,1,,,,,,,,,,,,,,,,,,,,,,,,,,,,,,,,,,,,,,,21.0,1.3491743999766186,"[(21.0, 1.3491743999766186)]",408.62152899999637,None,21.0,,,,,,,,,sub_505,2024-09-16_14h46.04.962,Reversal,2022.1.2,59.95211029444261,1,
,,,exp3.png,2,0,2,0,,,,,0,0,0,0,0,2,2,2,,,,,,,,,,,,,,,,,,,,,,,,,,,,,,,,,,,,,,,80.0,3.050809200038202,"[(21.0, 1.8683320999844), (80.0, 3.050809200038202)]",410.9701846999815,None,,80.0,,,,,,,,sub_505,2024-09-16_14h46.04.962,Reversal,2022.1.2,59.95211029444261,1,
,,,exp4.png,2,0,2,0,,,,,0,0,0,0,0,3,3,3,,,,,,,,,,,,,,,,,,,,,,,,,,,,,,,,,,,,,,,24.0,2.1675245999358594,"[(24.0, 2.1675245999358594)]",414.96850610000547,None,,,24.0,,,,,,,sub_505,2024-09-16_14h46.04.962,Reversal,2022.1.2,59.95211029444261,1,
0,exp1.png,exp2.png,,,,,,,,,,,,,,,,,,0,0,0,0,0,0,0,0,,,,,,,,,False,0,61,False,exp1.png,exp2.png,trial_left_image,1,exp1.png,1,exp2.png,exp1.png,1,3,reversed,incorrect,0.9060134926611848,0,valid_lose,365.7610374999931,32,,,,,,,,,,363.5686660000356,,,,,,sub_505,2024-09-16_14h46.04.962,Reversal,2022.1.2,59.95211029444261,1,
1,exp3.png,exp4.png,,,,,,,,,,,,,,,,,,0,0,0,0,0,1,1,1,,,,,,,,,False,1,62,True,exp4.png,exp3.png,trial_left_image,1,exp4.png,1,exp3.png,exp4.png,0,2,non-reversed,incorrect,0.7419665819650181,0,valid_lose,370.0608441999648,32,,,,,,,,,,,,,,,,sub_505,2024-09-16_14h46.04.962,Reversal,2022.1.2,59.95211029444261,1,
2,exp1.png,exp2.png,,,,,,,,,,,,,,,,,,0,0,0,0,0,2,2,2,,,,,,,,,False,2,63,True,exp2.png,exp1.png,trial_right_image,-1,exp1.png,1,exp2.png,exp1.png,1,3,reversed,incorrect,0.5205136904215804,0,valid_lose,374.1111227000365,32,,,,,,,,,,,,,,,,sub_505,2024-09-16_14h46.04.962,Reversal,2022.1.2,59.95211029444261,1,
3,exp3.png,exp4.png,,,,,,,,,,,,,,,,,,0,0,0,0,0,3,3,3,,,,,,,,,False,3,64,True,exp4.png,exp3.png,trial_left_image,1,exp4.png,1,exp3.png,exp4.png,0,2,non-reversed,incorrect,0.7280960829020656,0,valid_lose,378.2442636999767,32,,,,,,,,,,,,,,,,sub_505,2024-09-16_14h46.04.962,Reversal,2022.1.2,59.95211029444261,1,
4,exp1.png,exp2.png,,,,,,,,,,,,,,,,,,0,0,0,0,0,4,4,4,,,,,,,,,False,4,65,True,exp2.png,exp1.png,trial_right_image,-1,exp1.png,1,exp2.png,exp1.png,1,3,reversed,incorrect,0.494417431699514,0,valid_lose,382.54356859996915,32,,,,,,,,,,,,,,,,sub_505,2024-09-16_14h46.04.962,Reversal,2022.1.2,59.95211029444261,1,
5,exp3.png,exp4.png,,,,,,,,,,,,,,,,,,0,0,0,0,0,5,5,5,,,,,,,,,False,5,66,True,exp4.png,exp3.png,trial_right_image,-1,exp3.png,1,exp3.png,exp4.png,1,1,non-reversed,correct,0.18580469744601313,0,invalid_lose,386.7107751999283,32,,,,,,,,,,,,,,,,sub_505,2024-09-16_14h46.04.962,Reversal,2022.1.2,59.95211029444261,1,
6,exp1.png,exp2.png,,,,,,,,,,,,,,,,,,0,0,0,0,0,6,6,6,,,,,,,,,False,6,67,False,exp1.png,exp2.png,trial_left_image,1,exp1.png,1,exp2.png,exp1.png,1,3,reversed,incorrect,0.38550909112831766,0,valid_lose,391.01032150001265,32,,,,,,,,,,,,,,,,sub_505,2024-09-16_14h46.04.962,Reversal,2022.1.2,59.95211029444261,1,
7,exp3.png,exp4.png,,,,,,,,,,,,,,,,,,0,0,0,0,0,7,7,7,,,,,,,,,False,7,68,False,exp3.png,exp4.png,trial_right_image,-1,exp4.png,1,exp3.png,exp4.png,0,2,non-reversed,incorrect,0.9997488549780907,0,valid_lose,395.1103487999644,32,,,,,,,,,,,,,,,,sub_505,2024-09-16_14h46.04.962,Reversal,2022.1.2,59.95211029444261,1,
8,exp1.png,exp2.png,,,,,,,,,,,,,,,,,,0,0,0,0,0,8,8,8,,,,,,,,,False,8,69,False,exp1.png,exp2.png,trial_left_image,1,exp1.png,1,exp2.png,exp1.png,1,3,reversed,incorrect,0.28275494716519267,0,valid_lose,399.56053849996533,32,,,,,,,,,,,,,,,,sub_505,2024-09-16_14h46.04.962,Reversal,2022.1.2,59.95211029444261,1,
9,exp3.png,exp4.png,,,,,,,,,,,,,,,,,,0,0,0,0,0,9,9,9,,,,,,,,,False,9,70,True,exp4.png,exp3.png,trial_right_image,-1,exp3.png,1,exp3.png,exp4.png,1,1,non-reversed,correct,0.08764761492101047,0,invalid_lose,403.62735069997143,32,,,,,,,,,,,,,,,,sub_505,2024-09-16_14h46.04.962,Reversal,2022.1.2,59.95211029444261,1,
10,exp1.png,exp2.png,,,,,,,,,,,,,,,,,,0,0,0,0,0,10,10,10,,,,,,,,,False,10,71,True,exp2.png,exp1.png,trial_right_image,-1,exp1.png,1,exp2.png,exp1.png,1,3,reversed,incorrect,0.6453026304799366,0,valid_lose,407.95985979994293,32,,,,,,,,,,,,,,,,sub_505,2024-09-16_14h46.04.962,Reversal,2022.1.2,59.95211029444261,1,
11,exp3.png,exp4.png,,,,,,,,,,,,,,,,,,0,0,0,0,0,11,11,11,,,,,,,,,False,11,72,False,exp3.png,exp4.png,trial_left_image,1,exp3.png,1,exp3.png,exp4.png,1,1,non-reversed,correct,0.19628532514495634,0,invalid_lose,413.609847499989,32,,,,,,,,,,,,,,,,sub_505,2024-09-16_14h46.04.962,Reversal,2022.1.2,59.95211029444261,1,
12,exp1.png,exp2.png,,,,,,,,,,,,,,,,,,0,0,0,0,0,12,12,12,,,,,,,,,False,12,73,False,exp1.png,exp2.png,trial_left_image,1,exp1.png,1,exp2.png,exp1.png,1,3,reversed,incorrect,0.509153285146178,0,valid_lose,418.05974439997226,32,,,,,,,,,,,,,,,,sub_505,2024-09-16_14h46.04.962,Reversal,2022.1.2,59.95211029444261,1,
13,exp3.png,exp4.png,,,,,,,,,,,,,,,,,,0,0,0,0,0,13,13,13,,,,,,,,,False,13,74,False,exp3.png,exp4.png,trial_right_image,-1,exp4.png,1,exp3.png,exp4.png,0,2,non-reversed,incorrect,0.3360060364449722,0,valid_lose,422.0932602999965,32,,,,,,,,,,,,,,,,sub_505,2024-09-16_14h46.04.962,Reversal,2022.1.2,59.95211029444261,1,
14,exp1.png,exp2.png,,,,,,,,,,,,,,,,,,0,0,0,0,0,14,14,14,,,,,,,,,False,14,75,True,exp2.png,exp1.png,trial_right_image,-1,exp1.png,1,exp2.png,exp1.png,1,3,reversed,incorrect,0.12059469226458974,1,invalid_win,426.2599961999804,33,,,,,,,,,,,,,,,,sub_505,2024-09-16_14h46.04.962,Reversal,2022.1.2,59.95211029444261,1,
15,exp3.png,exp4.png,,,,,,,,,,,,,,,,,,0,0,0,0,0,15,15,15,,,,,,,,,False,15,76,False,exp3.png,exp4.png,trial_left_image,1,exp3.png,1,exp3.png,exp4.png,1,1,non-reversed,correct,0.12947339879255249,0,invalid_lose,430.40952690003905,33,,,,,,,,,,,,,,,,sub_505,2024-09-16_14h46.04.962,Reversal,2022.1.2,59.95211029444261,1,
16,exp1.png,exp2.png,,,,,,,,,,,,,,,,,,0,0,0,0,0,16,16,16,,,,,,,,,False,16,77,False,exp1.png,exp2.png,trial_right_image,-1,exp2.png,1,exp2.png,exp1.png,0,4,reversed,correct,0.5740679094941411,1,valid_win,434.79381539998576,34,,,,,,,,,,,,,,,,sub_505,2024-09-16_14h46.04.962,Reversal,2022.1.2,59.95211029444261,1,
17,exp3.png,exp4.png,,,,,,,,,,,,,,,,,,0,0,0,0,0,17,17,17,,,,,,,,,False,17,78,False,exp3.png,exp4.png,trial_right_image,-1,exp4.png,1,exp3.png,exp4.png,0,2,non-reversed,incorrect,0.9447104735926799,0,valid_lose,439.1432479999494,34,,,,,,,,,,,,,,,,sub_505,2024-09-16_14h46.04.962,Reversal,2022.1.2,59.95211029444261,1,
18,exp1.png,exp2.png,,,,,,,,,,,,,,,,,,0,0,0,0,0,18,18,18,,,,,,,,,False,18,79,True,exp2.png,exp1.png,trial_right_image,-1,exp1.png,1,exp2.png,exp1.png,1,3,reversed,incorrect,0.7189761643202526,0,valid_lose,443.67620959994383,34,,,,,,,,,,,,,,,,sub_505,2024-09-16_14h46.04.962,Reversal,2022.1.2,59.95211029444261,1,
19,exp3.png,exp4.png,,,,,,,,,,,,,,,,,,0,0,0,0,0,19,19,19,,,,,,,,,False,19,80,True,exp4.png,exp3.png,trial_right_image,-1,exp3.png,1,exp3.png,exp4.png,1,1,non-reversed,correct,0.4438233347783118,1,valid_win,448.0097111000214,35,,,,,,,,,,,,,,,,sub_505,2024-09-16_14h46.04.962,Reversal,2022.1.2,59.95211029444261,1,
20,exp1.png,exp2.png,,,,,,,,,,,,,,,,,,0,0,0,0,0,20,20,20,,,,,,,,,True,,,,,,,,,,,,,,,,,,,,,,,,,,,,,,,,,,,,sub_505,2024-09-16_14h46.04.962,Reversal,2022.1.2,59.95211029444261,1,
,,,exp1.png,,,,,,,,,,,,,,,,,0,0,0,0,,,,,0,0,0,0,0,0,0,0,,,,,,,,,,,,,,,,,,,,,,100.0,100.0,2.5029084999114275,"[(100.0, 2.5029084999114275)]",505.0509053999558,None,,,,,,,,,,sub_505,2024-09-16_14h46.04.962,Reversal,2022.1.2,59.95211029444261,1,
,,,exp2.png,,,,,,,,,,,,,,,,,0,0,0,0,,,,,0,0,0,0,0,1,1,1,,,,,,,,,,,,,,,,,,,,,,,2.0,1.6485288999974728,"[(2.0, 1.6485288999974728)]",508.6365365999518,None,2.0,,,,,,,,,sub_505,2024-09-16_14h46.04.962,Reversal,2022.1.2,59.95211029444261,1,
,,,exp3.png,,,,,,,,,,,,,,,,,0,0,0,0,,,,,0,0,0,0,0,2,2,2,,,,,,,,,,,,,,,,,,,,,,,79.0,1.3972203000448644,"[(79.0, 1.3972203000448644)]",511.6040884000249,None,,79.0,,,,,,,,sub_505,2024-09-16_14h46.04.962,Reversal,2022.1.2,59.95211029444261,1,
,,,exp4.png,,,,,,,,,,,,,,,,,0,0,0,0,,,,,0,0,0,0,0,3,3,3,,,,,,,,,,,,,,,,,,,,,,,20.0,1.1358422000193968,"[(20.0, 1.1358422000193968)]",514.0167395999888,None,,,20.0,,,,,,,sub_505,2024-09-16_14h46.04.962,Reversal,2022.1.2,59.95211029444261,1,
0,exp1.png,exp2.png,,,,,,,,,,,,,,,,,,1,0,1,0,0,0,0,0,,,,,,,,,False,20,81,False,exp1.png,exp2.png,trial_left_image,1,exp1.png,1,exp2.png,exp1.png,1,3,reversed,incorrect,0.09730062725495559,1,invalid_win,463.6431891999673,36,,,,,,,,,,,,,,,,sub_505,2024-09-16_14h46.04.962,Reversal,2022.1.2,59.95211029444261,1,
1,exp3.png,exp4.png,,,,,,,,,,,,,,,,,,1,0,1,0,0,1,1,1,,,,,,,,,False,21,82,True,exp4.png,exp3.png,trial_right_image,-1,exp3.png,1,exp3.png,exp4.png,1,1,non-reversed,correct,0.12897739355277993,0,invalid_lose,468.02549289993476,36,,,,,,,,,,,,,,,,sub_505,2024-09-16_14h46.04.962,Reversal,2022.1.2,59.95211029444261,1,
2,exp1.png,exp2.png,,,,,,,,,,,,,,,,,,1,0,1,0,0,2,2,2,,,,,,,,,False,22,83,False,exp1.png,exp2.png,trial_left_image,1,exp1.png,1,exp2.png,exp1.png,1,3,reversed,incorrect,0.7035771402097495,0,valid_lose,472.57533659995534,36,,,,,,,,,,,,,,,,sub_505,2024-09-16_14h46.04.962,Reversal,2022.1.2,59.95211029444261,1,
3,exp3.png,exp4.png,,,,,,,,,,,,,,,,,,1,0,1,0,0,3,3,3,,,,,,,,,False,23,84,True,exp4.png,exp3.png,trial_left_image,1,exp4.png,1,exp3.png,exp4.png,0,2,non-reversed,incorrect,0.9521608971521048,0,valid_lose,476.67570070002694,36,,,,,,,,,,,,,,,,sub_505,2024-09-16_14h46.04.962,Reversal,2022.1.2,59.95211029444261,1,
4,exp1.png,exp2.png,,,,,,,,,,,,,,,,,,1,0,1,0,0,4,4,4,,,,,,,,,False,24,85,True,exp2.png,exp1.png,trial_right_image,-1,exp1.png,1,exp2.png,exp1.png,1,3,reversed,incorrect,0.5134567440195669,0,valid_lose,481.17605070001446,36,,,,,,,,,,,,,,,,sub_505,2024-09-16_14h46.04.962,Reversal,2022.1.2,59.95211029444261,1,
5,exp3.png,exp4.png,,,,,,,,,,,,,,,,,,1,0,1,0,0,5,5,5,,,,,,,,,False,25,86,True,exp4.png,exp3.png,trial_right_image,-1,exp3.png,1,exp3.png,exp4.png,1,1,non-reversed,correct,0.971519963114768,1,valid_win,485.492252200027,37,,,,,,,,,,,,,,,,sub_505,2024-09-16_14h46.04.962,Reversal,2022.1.2,59.95211029444261,1,
6,exp1.png,exp2.png,,,,,,,,,,,,,,,,,,1,0,1,0,0,6,6,6,,,,,,,,,False,26,87,False,exp1.png,exp2.png,trial_right_image,-1,exp2.png,1,exp2.png,exp1.png,0,4,reversed,correct,0.9883437788708207,1,valid_win,490.55804949998856,38,,,,,,,,,,,,,,,,sub_505,2024-09-16_14h46.04.962,Reversal,2022.1.2,59.95211029444261,1,
7,exp3.png,exp4.png,,,,,,,,,,,,,,,,,,1,0,1,0,0,7,7,7,,,,,,,,,False,27,88,False,exp3.png,exp4.png,trial_left_image,1,exp3.png,1,exp3.png,exp4.png,1,1,non-reversed,correct,0.4045811159006444,1,valid_win,495.30899769999087,39,,,,,,,,,,,,,,,,sub_505,2024-09-16_14h46.04.962,Reversal,2022.1.2,59.95211029444261,1,
8,exp1.png,exp2.png,,,,,,,,,,,,,,,,,,1,0,1,0,0,8,8,8,,,,,,,,,False,28,89,True,exp2.png,exp1.png,trial_right_image,-1,exp1.png,1,exp2.png,exp1.png,1,3,reversed,incorrect,0.14041252171704277,1,invalid_win,500.2751321999822,40,,,,,,,,,,,,,,,,sub_505,2024-09-16_14h46.04.962,Reversal,2022.1.2,59.95211029444261,1,
9,exp3.png,exp4.png,,,,,,,,,,,,,,,,,,1,0,1,0,0,9,9,9,,,,,,,,,False,29,90,False,exp3.png,exp4.png,trial_left_image,1,exp3.png,1,exp3.png,exp4.png,1,1,non-reversed,correct,0.40073165781053155,1,valid_win,505.3414852999849,41,,,,,,,,,,,,,,,,sub_505,2024-09-16_14h46.04.962,Reversal,2022.1.2,59.95211029444261,1,
10,exp1.png,exp2.png,,,,,,,,,,,,,,,,,,1,0,1,0,0,10,10,10,,,,,,,,,False,30,91,True,exp2.png,exp1.png,trial_left_image,1,exp2.png,1,exp2.png,exp1.png,0,4,reversed,correct,0.08765938439230947,0,invalid_lose,509.90839260001667,41,,,,,,,,,,,,,,,,sub_505,2024-09-16_14h46.04.962,Reversal,2022.1.2,59.95211029444261,1,
11,exp3.png,exp4.png,,,,,,,,,,,,,,,,,,1,0,1,0,0,11,11,11,,,,,,,,,False,31,92,False,exp3.png,exp4.png,trial_left_image,1,exp3.png,1,exp3.png,exp4.png,1,1,non-reversed,correct,0.9215577854905531,1,valid_win,515.6588887999533,42,,,,,,,,,,,,,,,,sub_505,2024-09-16_14h46.04.962,Reversal,2022.1.2,59.95211029444261,1,
12,exp1.png,exp2.png,,,,,,,,,,,,,,,,,,1,0,1,0,0,12,12,12,,,,,,,,,False,32,93,False,exp1.png,exp2.png,trial_right_image,-1,exp2.png,1,exp2.png,exp1.png,0,4,reversed,correct,0.5526253351107391,1,valid_win,520.1750892000273,43,,,,,,,,,,,,,,,,sub_505,2024-09-16_14h46.04.962,Reversal,2022.1.2,59.95211029444261,1,
13,exp3.png,exp4.png,,,,,,,,,,,,,,,,,,1,0,1,0,0,13,13,13,,,,,,,,,False,33,94,True,exp4.png,exp3.png,trial_right_image,-1,exp3.png,1,exp3.png,exp4.png,1,1,non-reversed,correct,0.809337017906036,1,valid_win,525.0415730000241,44,,,,,,,,,,,,,,,,sub_505,2024-09-16_14h46.04.962,Reversal,2022.1.2,59.95211029444261,1,
14,exp1.png,exp2.png,,,,,,,,,,,,,,,,,,1,0,1,0,0,14,14,14,,,,,,,,,False,34,95,False,exp1.png,exp2.png,trial_right_image,-1,exp2.png,1,exp2.png,exp1.png,0,4,reversed,correct,0.34545043653355223,1,valid_win,529.9750380000332,45,,,,,,,,,,,,,,,,sub_505,2024-09-16_14h46.04.962,Reversal,2022.1.2,59.95211029444261,1,
15,exp3.png,exp4.png,,,,,,,,,,,,,,,,,,1,0,1,0,0,15,15,15,,,,,,,,,False,35,96,True,exp4.png,exp3.png,trial_right_image,-1,exp3.png,1,exp3.png,exp4.png,1,1,non-reversed,correct,0.6184496991969082,1,valid_win,534.5075708000222,46,,,,,,,,,,,,,,,,sub_505,2024-09-16_14h46.04.962,Reversal,2022.1.2,59.95211029444261,1,
16,exp1.png,exp2.png,,,,,,,,,,,,,,,,,,1,0,1,0,0,16,16,16,,,,,,,,,False,36,97,False,exp1.png,exp2.png,trial_right_image,-1,exp2.png,1,exp2.png,exp1.png,0,4,reversed,correct,0.23574517433317244,0,invalid_lose,538.758520500036,46,,,,,,,,,,,,,,,,sub_505,2024-09-16_14h46.04.962,Reversal,2022.1.2,59.95211029444261,1,
17,exp3.png,exp4.png,,,,,,,,,,,,,,,,,,1,0,1,0,0,17,17,17,,,,,,,,,False,37,98,True,exp4.png,exp3.png,trial_right_image,-1,exp3.png,1,exp3.png,exp4.png,1,1,non-reversed,correct,0.4081479228571442,1,valid_win,543.2254062999273,47,,,,,,,,,,,,,,,,sub_505,2024-09-16_14h46.04.962,Reversal,2022.1.2,59.95211029444261,1,
18,exp1.png,exp2.png,,,,,,,,,,,,,,,,,,1,0,1,0,0,18,18,18,,,,,,,,,False,38,99,False,exp1.png,exp2.png,trial_left_image,1,exp1.png,1,exp2.png,exp1.png,1,3,reversed,incorrect,0.1638464623796999,1,invalid_win,548.4912931999424,48,,,,,,,,,,,,,,,,sub_505,2024-09-16_14h46.04.962,Reversal,2022.1.2,59.95211029444261,1,
19,exp3.png,exp4.png,,,,,,,,,,,,,,,,,,1,0,1,0,0,19,19,19,,,,,,,,,False,39,100,True,exp4.png,exp3.png,trial_right_image,-1,exp3.png,1,exp3.png,exp4.png,1,1,non-reversed,correct,0.4729604032752672,1,valid_win,553.2411670000292,49,,,,,,,,,,,,,,,,sub_505,2024-09-16_14h46.04.962,Reversal,2022.1.2,59.95211029444261,1,
20,exp1.png,exp2.png,,,,,,,,,,,,,,,,,,1,0,1,0,0,20,20,20,,,,,,,,,True,,,,,,,,,,,,,,,,,,,,,,,,,,,,,,,,,,,,sub_505,2024-09-16_14h46.04.962,Reversal,2022.1.2,59.95211029444261,1,
,,,exp1.png,,,,,,,,,,,,,,,,,1,0,1,0,,,,,0,0,0,0,0,0,0,0,,,,,,,,,,,,,,,,,,,,,,84.0,84.0,2.7878522000974044,"[(84.0, 2.7878522000974044)]",610.2803692999296,None,,,,,,,,,,sub_505,2024-09-16_14h46.04.962,Reversal,2022.1.2,59.95211029444261,1,
,,,exp2.png,,,,,,,,,,,,,,,,,1,0,1,0,,,,,0,0,0,0,0,1,1,1,,,,,,,,,,,,,,,,,,,,,,,86.0,2.8996714000822976,"[(86.0, 2.8996714000822976)]",614.3227094999747,None,86.0,,,,,,,,,sub_505,2024-09-16_14h46.04.962,Reversal,2022.1.2,59.95211029444261,1,
,,,exp3.png,,,,,,,,,,,,,,,,,1,0,1,0,,,,,0,0,0,0,0,2,2,2,,,,,,,,,,,,,,,,,,,,,,,24.0,1.7817835999885574,"[(24.0, 1.7817835999885574)]",618.2348442999646,None,,24.0,,,,,,,,sub_505,2024-09-16_14h46.04.962,Reversal,2022.1.2,59.95211029444261,1,
,,,exp4.png,,,,,,,,,,,,,,,,,1,0,1,0,,,,,0,0,0,0,0,3,3,3,,,,,,,,,,,,,,,,,,,,,,,82.0,1.6528641999466345,"[(82.0, 1.6528641999466345)]",620.9656341000227,None,,,82.0,,,,,,,sub_505,2024-09-16_14h46.04.962,Reversal,2022.1.2,59.95211029444261,1,
0,exp1.png,exp2.png,,,,,,,,,,,,,,,,,,2,0,2,0,0,0,0,0,,,,,,,,,False,40,101,True,exp2.png,exp1.png,trial_left_image,1,exp2.png,1,exp2.png,exp1.png,0,4,reversed,correct,0.9973965474178981,1,valid_win,571.4405828999588,50,,,,,,,,,,,,,,,,sub_505,2024-09-16_14h46.04.962,Reversal,2022.1.2,59.95211029444261,1,
1,exp3.png,exp4.png,,,,,,,,,,,,,,,,,,2,0,2,0,0,1,1,1,,,,,,,,,False,41,102,True,exp4.png,exp3.png,trial_right_image,-1,exp3.png,1,exp3.png,exp4.png,1,1,non-reversed,correct,0.20061189245440691,0,invalid_lose,575.9238321000012,50,,,,,,,,,,,,,,,,sub_505,2024-09-16_14h46.04.962,Reversal,2022.1.2,59.95211029444261,1,
2,exp1.png,exp2.png,,,,,,,,,,,,,,,,,,2,0,2,0,0,2,2,2,,,,,,,,,False,42,103,True,exp2.png,exp1.png,trial_left_image,1,exp2.png,1,exp2.png,exp1.png,0,4,reversed,correct,0.11973454019163199,0,invalid_lose,582.740197999985,50,,,,,,,,,,,,,,,,sub_505,2024-09-16_14h46.04.962,Reversal,2022.1.2,59.95211029444261,1,
3,exp3.png,exp4.png,,,,,,,,,,,,,,,,,,2,0,2,0,0,3,3,3,,,,,,,,,False,43,104,True,exp4.png,exp3.png,trial_right_image,-1,exp3.png,1,exp3.png,exp4.png,1,1,non-reversed,correct,0.6985060324794033,1,valid_win,587.1905089999782,51,,,,,,,,,,,,,,,,sub_505,2024-09-16_14h46.04.962,Reversal,2022.1.2,59.95211029444261,1,
4,exp1.png,exp2.png,,,,,,,,,,,,,,,,,,2,0,2,0,0,4,4,4,,,,,,,,,False,44,105,False,exp1.png,exp2.png,trial_right_image,-1,exp2.png,1,exp2.png,exp1.png,0,4,reversed,correct,0.38069384808428064,1,valid_win,592.0568104999838,52,,,,,,,,,,,,,,,,sub_505,2024-09-16_14h46.04.962,Reversal,2022.1.2,59.95211029444261,1,
5,exp3.png,exp4.png,,,,,,,,,,,,,,,,,,2,0,2,0,0,5,5,5,,,,,,,,,False,45,106,True,exp4.png,exp3.png,trial_right_image,-1,exp3.png,1,exp3.png,exp4.png,1,1,non-reversed,correct,0.5481027985486616,1,valid_win,596.9234301999677,53,,,,,,,,,,,,,,,,sub_505,2024-09-16_14h46.04.962,Reversal,2022.1.2,59.95211029444261,1,
6,exp1.png,exp2.png,,,,,,,,,,,,,,,,,,2,0,2,0,0,6,6,6,,,,,,,,,False,46,107,False,exp1.png,exp2.png,trial_right_image,-1,exp2.png,1,exp2.png,exp1.png,0,4,reversed,correct,0.5836450833872407,1,valid_win,601.5074812000385,54,,,,,,,,,,,,,,,,sub_505,2024-09-16_14h46.04.962,Reversal,2022.1.2,59.95211029444261,1,
7,exp3.png,exp4.png,,,,,,,,,,,,,,,,,,2,0,2,0,0,7,7,7,,,,,,,,,False,47,108,False,exp3.png,exp4.png,trial_left_image,1,exp3.png,1,exp3.png,exp4.png,1,1,non-reversed,correct,0.531401867340914,1,valid_win,606.890308800037,55,,,,,,,,,,,,,,,,sub_505,2024-09-16_14h46.04.962,Reversal,2022.1.2,59.95211029444261,1,
8,exp1.png,exp2.png,,,,,,,,,,,,,,,,,,2,0,2,0,0,8,8,8,,,,,,,,,False,48,109,False,exp1.png,exp2.png,trial_right_image,-1,exp2.png,1,exp2.png,exp1.png,0,4,reversed,correct,0.44570013315851253,1,valid_win,611.4402316999622,56,,,,,,,,,,,,,,,,sub_505,2024-09-16_14h46.04.962,Reversal,2022.1.2,59.95211029444261,1,
9,exp3.png,exp4.png,,,,,,,,,,,,,,,,,,2,0,2,0,0,9,9,9,,,,,,,,,False,49,110,False,exp3.png,exp4.png,trial_left_image,1,exp3.png,1,exp3.png,exp4.png,1,1,non-reversed,correct,0.9324386638549963,1,valid_win,616.1564811000135,57,,,,,,,,,,,,,,,,sub_505,2024-09-16_14h46.04.962,Reversal,2022.1.2,59.95211029444261,1,
10,exp1.png,exp2.png,,,,,,,,,,,,,,,,,,2,0,2,0,0,10,10,10,,,,,,,,,False,50,111,True,exp2.png,exp1.png,trial_left_image,1,exp2.png,1,exp2.png,exp1.png,0,4,reversed,correct,0.13575420124468507,0,invalid_lose,621.5402725000167,57,,,,,,,,,,,,,,,,sub_505,2024-09-16_14h46.04.962,Reversal,2022.1.2,59.95211029444261,1,
11,exp3.png,exp4.png,,,,,,,,,,,,,,,,,,2,0,2,0,0,11,11,11,,,,,,,,,False,51,112,True,exp4.png,exp3.png,trial_right_image,-1,exp3.png,1,exp3.png,exp4.png,1,1,non-reversed,correct,0.9789742144109799,1,valid_win,626.2228920999914,58,,,,,,,,,,,,,,,,sub_505,2024-09-16_14h46.04.962,Reversal,2022.1.2,59.95211029444261,1,
12,exp1.png,exp2.png,,,,,,,,,,,,,,,,,,2,0,2,0,0,12,12,12,,,,,,,,,False,52,113,True,exp2.png,exp1.png,trial_left_image,1,exp2.png,1,exp2.png,exp1.png,0,4,reversed,correct,0.4393119391749737,1,valid_win,635.0227582999505,59,,,,,,,,,,,,,,,,sub_505,2024-09-16_14h46.04.962,Reversal,2022.1.2,59.95211029444261,1,
13,exp3.png,exp4.png,,,,,,,,,,,,,,,,,,2,0,2,0,0,13,13,13,,,,,,,,,False,53,114,True,exp4.png,exp3.png,trial_right_image,-1,exp3.png,1,exp3.png,exp4.png,1,1,non-reversed,correct,0.20902730882959553,0,invalid_lose,639.6060261999955,59,,,,,,,,,,,,,,,,sub_505,2024-09-16_14h46.04.962,Reversal,2022.1.2,59.95211029444261,1,
14,exp1.png,exp2.png,,,,,,,,,,,,,,,,,,2,0,2,0,0,14,14,14,,,,,,,,,False,54,115,False,exp1.png,exp2.png,trial_left_image,1,exp1.png,1,exp2.png,exp1.png,1,3,reversed,incorrect,0.7744804082096312,0,valid_lose,644.2391254999675,59,,,,,,,,,,,,,,,,sub_505,2024-09-16_14h46.04.962,Reversal,2022.1.2,59.95211029444261,1,
15,exp3.png,exp4.png,,,,,,,,,,,,,,,,,,2,0,2,0,0,15,15,15,,,,,,,,,False,55,116,False,exp3.png,exp4.png,trial_right_image,-1,exp4.png,1,exp3.png,exp4.png,0,2,non-reversed,incorrect,0.3310853334819356,0,valid_lose,648.8887932000216,59,,,,,,,,,,,,,,,,sub_505,2024-09-16_14h46.04.962,Reversal,2022.1.2,59.95211029444261,1,
16,exp1.png,exp2.png,,,,,,,,,,,,,,,,,,2,0,2,0,0,16,16,16,,,,,,,,,False,56,117,False,exp1.png,exp2.png,trial_right_image,-1,exp2.png,1,exp2.png,exp1.png,0,4,reversed,correct,0.3676690474248625,1,valid_win,653.888727499987,60,,,,,,,,,,,,,,,,sub_505,2024-09-16_14h46.04.962,Reversal,2022.1.2,59.95211029444261,1,
17,exp3.png,exp4.png,,,,,,,,,,,,,,,,,,2,0,2,0,0,17,17,17,,,,,,,,,False,57,118,True,exp4.png,exp3.png,trial_right_image,-1,exp3.png,1,exp3.png,exp4.png,1,1,non-reversed,correct,0.75578892457407,1,valid_win,658.922560499981,61,,,,,,,,,,,,,,,,sub_505,2024-09-16_14h46.04.962,Reversal,2022.1.2,59.95211029444261,1,
18,exp1.png,exp2.png,,,,,,,,,,,,,,,,,,2,0,2,0,0,18,18,18,,,,,,,,,False,58,119,False,exp1.png,exp2.png,trial_right_image,-1,exp2.png,1,exp2.png,exp1.png,0,4,reversed,correct,0.9243623646485402,1,valid_win,664.1224256999558,62,,,,,,,,,,,,,,,,sub_505,2024-09-16_14h46.04.962,Reversal,2022.1.2,59.95211029444261,1,
19,exp3.png,exp4.png,,,,,,,,,,,,,,,,,,2,0,2,0,0,19,19,19,,,,,,,,,False,59,120,False,exp3.png,exp4.png,trial_left_image,1,exp3.png,1,exp3.png,exp4.png,1,1,non-reversed,correct,0.08451570229547767,0,invalid_lose,668.6560674000066,62,,,,,,,,,,,,,,,,sub_505,2024-09-16_14h46.04.962,Reversal,2022.1.2,59.95211029444261,1,
20,exp1.png,exp2.png,,,,,,,,,,,,,,,,,,2,0,2,0,0,20,20,20,,,,,,,,,True,,,,,,,,,,,,,,,,,,,,,,,,,,,,,,,,,,,,sub_505,2024-09-16_14h46.04.962,Reversal,2022.1.2,59.95211029444261,1,
,,,exp1.png,,,,,,,,,,,,,,,,,2,0,2,0,,,,,0,0,0,0,0,0,0,0,,,,,,,,,,,,,,,,,,,,,,89.0,89.0,2.3910881000338122,"[(89.0, 2.3910881000338122)]",725.693776799948,None,,,,,,,,,,sub_505,2024-09-16_14h46.04.962,Reversal,2022.1.2,59.95211029444261,1,
,,,exp2.png,,,,,,,,,,,,,,,,,2,0,2,0,,,,,0,0,0,0,0,1,1,1,,,,,,,,,,,,,,,,,,,,,,,26.0,2.4843937000259757,"[(26.0, 2.4843937000259757)]",730.5965438999701,None,26.0,,,,,,,,,sub_505,2024-09-16_14h46.04.962,Reversal,2022.1.2,59.95211029444261,1,
,,,exp3.png,,,,,,,,,,,,,,,,,2,0,2,0,,,,,0,0,0,0,0,2,2,2,,,,,,,,,,,,,,,,,,,,,,,23.0,2.4325458999956027,"[(23.0, 2.4325458999956027)]",734.1169755000155,None,,23.0,,,,,,,,sub_505,2024-09-16_14h46.04.962,Reversal,2022.1.2,59.95211029444261,1,
,,,exp4.png,,,,,,,,,,,,,,,,,2,0,2,0,,,,,0,0,0,0,0,3,3,3,,,,,,,,,,,,,,,,,,,,,,,83.0,1.2506061000749469,"[(83.0, 1.2506061000749469)]",737.5971342999255,None,,,83.0,,,,,,,sub_505,2024-09-16_14h46.04.962,Reversal,2022.1.2,59.95211029444261,1,
,,,,,,,,,,,,,,,,,,,,,,,,,,,,,,,,,,,,,,,,,,,,,,,,,,,,,,,,62,,,,,,,,,,,77,39,38,321.67126059997827,0,,,,,,,
