trial_index,trial_image1_file,trial_image2_file,learning_outer_loop.thisRepN,learning_outer_loop.thisTrialN,learning_outer_loop.thisN,learning_outer_loop.thisIndex,learning_inner_loop.thisRepN,learning_inner_loop.thisTrialN,learning_inner_loop.thisN,learning_inner_loop.thisIndex,learning_estimation_outer_loop.thisRepN,learning_estimation_outer_loop.thisTrialN,learning_estimation_outer_loop.thisN,learning_estimation_outer_loop.thisIndex,learning_estimation_inner_loop.thisRepN,learning_estimation_inner_loop.thisTrialN,learning_estimation_inner_loop.thisN,learning_estimation_inner_loop.thisIndex,reversal_outer_loop.thisRepN,reversal_outer_loop.thisTrialN,reversal_outer_loop.thisN,reversal_outer_loop.thisIndex,reversal_inner_loop.thisRepN,reversal_inner_loop.thisTrialN,reversal_inner_loop.thisN,reversal_inner_loop.thisIndex,reversal_estimation_outer_loop.thisRepN,reversal_estimation_outer_loop.thisTrialN,reversal_estimation_outer_loop.thisN,reversal_estimation_outer_loop.thisIndex,reversal_estimation_inner_loop.thisRepN,reversal_estimation_inner_loop.thisTrialN,reversal_estimation_inner_loop.thisN,reversal_estimation_inner_loop.thisIndex,skipped,total_trial_counter,trial_num,left_right_flip,left_image_file,right_image_file,clicked_stimulus_side,side,clicked_stimulus,version,high_prob_image_file,low_prob_image_file,choice_a,choice_b,pair_type,correct,trial_feedback_random,reward,trial_type,overall_time_after_trial,score,estimation_exp1.png,estimation_exp2.png,estimation_exp3.png,estimation_exp4.png,total_learning_time,total_correct,learning_correct,reversal_correct,total_reversal_time,extra_block,participant,ver,date,expName,psychopyVersion,frameRate,
0,exp1.png,exp2.png,0,0,0,0,0,0,0,0,,,,,,,,,,,,,,,,,,,,,,,,,True,,,,,,,,,,,,,,,,,,,,,,,,,,,,,,,s_001,2,2020_Nov_01_1450,Reversal,3.2.4,59.9988720405558,
1,exp3.png,exp4.png,0,0,0,0,0,1,1,1,,,,,,,,,,,,,,,,,,,,,,,,,False,0,1,True,exp4.png,exp3.png,trial_left_image,1,exp4.png,2,exp3.png,exp4.png,0,4,reversed,incorrect,0.8857660438806171,0,valid_lose,5.178579800063744,0,,,,,,,,,,,s_001,2,2020_Nov_01_1450,Reversal,3.2.4,59.9988720405558,
2,exp1.png,exp2.png,0,0,0,0,0,2,2,2,,,,,,,,,,,,,,,,,,,,,,,,,False,1,2,False,exp1.png,exp2.png,trial_left_image,1,exp1.png,2,exp1.png,exp2.png,1,1,non-reversed,correct,0.10232196702425234,0,invalid_lose,11.826098200166598,0,,,,,,,,,,,s_001,2,2020_Nov_01_1450,Reversal,3.2.4,59.9988720405558,
3,exp3.png,exp4.png,0,0,0,0,0,3,3,3,,,,,,,,,,,,,,,,,,,,,,,,,False,2,3,True,exp4.png,exp3.png,trial_right_image,-1,exp3.png,2,exp3.png,exp4.png,1,3,reversed,correct,0.8795221892708085,1,valid_win,17.291288200067356,1,,,,,,,,,,,s_001,2,2020_Nov_01_1450,Reversal,3.2.4,59.9988720405558,
4,exp1.png,exp2.png,0,0,0,0,0,4,4,4,,,,,,,,,,,,,,,,,,,,,,,,,False,3,4,True,exp2.png,exp1.png,trial_left_image,1,exp2.png,2,exp1.png,exp2.png,0,2,non-reversed,incorrect,0.9690243721336043,0,valid_lose,22.57112990017049,1,,,,,,,,,,,s_001,2,2020_Nov_01_1450,Reversal,3.2.4,59.9988720405558,
5,exp3.png,exp4.png,0,0,0,0,0,5,5,5,,,,,,,,,,,,,,,,,,,,,,,,,False,4,5,True,exp4.png,exp3.png,trial_right_image,-1,exp3.png,2,exp3.png,exp4.png,1,3,reversed,correct,0.10276839520333458,0,invalid_lose,27.421274400083348,1,,,,,,,,,,,s_001,2,2020_Nov_01_1450,Reversal,3.2.4,59.9988720405558,
6,exp1.png,exp2.png,0,0,0,0,0,6,6,6,,,,,,,,,,,,,,,,,,,,,,,,,False,5,6,False,exp1.png,exp2.png,trial_right_image,-1,exp2.png,2,exp1.png,exp2.png,0,2,non-reversed,incorrect,0.11875191653393435,1,invalid_win,34.0026191000361,2,,,,,,,,,,,s_001,2,2020_Nov_01_1450,Reversal,3.2.4,59.9988720405558,
7,exp3.png,exp4.png,0,0,0,0,0,7,7,7,,,,,,,,,,,,,,,,,,,,,,,,,False,6,7,False,exp3.png,exp4.png,trial_right_image,-1,exp4.png,2,exp3.png,exp4.png,0,4,reversed,incorrect,0.13799493598572243,1,invalid_win,41.68132510012947,3,,,,,,,,,,,s_001,2,2020_Nov_01_1450,Reversal,3.2.4,59.9988720405558,
8,exp1.png,exp2.png,0,0,0,0,0,8,8,8,,,,,,,,,,,,,,,,,,,,,,,,,False,7,8,True,exp2.png,exp1.png,trial_left_image,1,exp2.png,2,exp1.png,exp2.png,0,2,non-reversed,incorrect,0.4456865043168565,0,valid_lose,47.14628230012022,3,,,,,,,,,,,s_001,2,2020_Nov_01_1450,Reversal,3.2.4,59.9988720405558,
9,exp3.png,exp4.png,0,0,0,0,0,9,9,9,,,,,,,,,,,,,,,,,,,,,,,,,False,8,9,False,exp3.png,exp4.png,trial_left_image,1,exp3.png,2,exp3.png,exp4.png,1,3,reversed,correct,0.6741659440405712,1,valid_win,54.228641099995,4,,,,,,,,,,,s_001,2,2020_Nov_01_1450,Reversal,3.2.4,59.9988720405558,
10,exp1.png,exp2.png,0,0,0,0,0,10,10,10,,,,,,,,,,,,,,,,,,,,,,,,,False,9,10,False,exp1.png,exp2.png,trial_right_image,-1,exp2.png,2,exp1.png,exp2.png,0,2,non-reversed,incorrect,0.3752835864466537,0,valid_lose,58.910224799998105,4,,,,,,,,,,,s_001,2,2020_Nov_01_1450,Reversal,3.2.4,59.9988720405558,
11,exp3.png,exp4.png,0,0,0,0,0,11,11,11,,,,,,,,,,,,,,,,,,,,,,,,,False,10,11,True,exp4.png,exp3.png,trial_left_image,1,exp4.png,2,exp3.png,exp4.png,0,4,reversed,incorrect,0.5525278687100635,0,valid_lose,64.75657060020603,4,,,,,,,,,,,s_001,2,2020_Nov_01_1450,Reversal,3.2.4,59.9988720405558,
12,exp1.png,exp2.png,0,0,0,0,0,12,12,12,,,,,,,,,,,,,,,,,,,,,,,,,False,11,12,True,exp2.png,exp1.png,trial_right_image,-1,exp1.png,2,exp1.png,exp2.png,1,1,non-reversed,correct,0.2929763340220901,1,valid_win,71.47157960012555,5,,,,,,,,,,,s_001,2,2020_Nov_01_1450,Reversal,3.2.4,59.9988720405558,
13,exp3.png,exp4.png,0,0,0,0,0,13,13,13,,,,,,,,,,,,,,,,,,,,,,,,,False,12,13,False,exp3.png,exp4.png,trial_right_image,-1,exp4.png,2,exp3.png,exp4.png,0,4,reversed,incorrect,0.7375788528346549,0,valid_lose,77.73582770000212,5,,,,,,,,,,,s_001,2,2020_Nov_01_1450,Reversal,3.2.4,59.9988720405558,
14,exp1.png,exp2.png,0,0,0,0,0,14,14,14,,,,,,,,,,,,,,,,,,,,,,,,,False,13,14,False,exp1.png,exp2.png,trial_left_image,1,exp1.png,2,exp1.png,exp2.png,1,1,non-reversed,correct,0.44861999418238185,1,valid_win,84.33545060013421,6,,,,,,,,,,,s_001,2,2020_Nov_01_1450,Reversal,3.2.4,59.9988720405558,
15,exp3.png,exp4.png,0,0,0,0,0,15,15,15,,,,,,,,,,,,,,,,,,,,,,,,,False,14,15,False,exp3.png,exp4.png,trial_left_image,1,exp3.png,2,exp3.png,exp4.png,1,3,reversed,correct,0.9572829948741828,1,valid_win,89.98309350013733,7,,,,,,,,,,,s_001,2,2020_Nov_01_1450,Reversal,3.2.4,59.9988720405558,
16,exp1.png,exp2.png,0,0,0,0,0,16,16,16,,,,,,,,,,,,,,,,,,,,,,,,,False,15,16,False,exp1.png,exp2.png,trial_right_image,-1,exp2.png,2,exp1.png,exp2.png,0,2,non-reversed,incorrect,0.21417982651321743,1,invalid_win,94.76402400014922,8,,,,,,,,,,,s_001,2,2020_Nov_01_1450,Reversal,3.2.4,59.9988720405558,
17,exp3.png,exp4.png,0,0,0,0,0,17,17,17,,,,,,,,,,,,,,,,,,,,,,,,,False,16,17,False,exp3.png,exp4.png,trial_right_image,-1,exp4.png,2,exp3.png,exp4.png,0,4,reversed,incorrect,0.7422900851527943,0,valid_lose,100.11329260002822,8,,,,,,,,,,,s_001,2,2020_Nov_01_1450,Reversal,3.2.4,59.9988720405558,
18,exp1.png,exp2.png,0,0,0,0,0,18,18,18,,,,,,,,,,,,,,,,,,,,,,,,,False,17,18,True,exp2.png,exp1.png,trial_right_image,-1,exp1.png,2,exp1.png,exp2.png,1,1,non-reversed,correct,0.024758960390348306,0,invalid_lose,106.8096702999901,8,,,,,,,,,,,s_001,2,2020_Nov_01_1450,Reversal,3.2.4,59.9988720405558,
19,exp3.png,exp4.png,0,0,0,0,0,19,19,19,,,,,,,,,,,,,,,,,,,,,,,,,False,18,19,True,exp4.png,exp3.png,trial_left_image,1,exp4.png,2,exp3.png,exp4.png,0,4,reversed,incorrect,0.6124353388352708,0,valid_lose,112.84062350005843,8,,,,,,,,,,,s_001,2,2020_Nov_01_1450,Reversal,3.2.4,59.9988720405558,
20,exp1.png,exp2.png,0,0,0,0,0,20,20,20,,,,,,,,,,,,,,,,,,,,,,,,,False,19,20,True,exp2.png,exp1.png,trial_left_image,1,exp2.png,2,exp1.png,exp2.png,0,2,non-reversed,incorrect,0.5288575874791251,0,valid_lose,117.67382240016013,8,,,,,,,,,,,s_001,2,2020_Nov_01_1450,Reversal,3.2.4,59.9988720405558,
,,,0,0,0,0,,,,,0,0,0,0,,,,,,,,,,,,,,,,,,,,,,,,,,,,,,,,,,,,,,,,,,50.0,50,30,62,,,,,,,s_001,2,2020_Nov_01_1450,Reversal,3.2.4,59.9988720405558,
0,exp1.png,exp2.png,1,0,1,0,0,0,0,0,,,,,,,,,,,,,,,,,,,,,,,,,True,,,,,,,,,,,,,,,,,,,,,,,,,,,,,,,s_001,2,2020_Nov_01_1450,Reversal,3.2.4,59.9988720405558,
1,exp3.png,exp4.png,1,0,1,0,0,1,1,1,,,,,,,,,,,,,,,,,,,,,,,,,False,20,21,True,exp4.png,exp3.png,trial_left_image,1,exp4.png,2,exp3.png,exp4.png,0,4,reversed,incorrect,0.5298953269010904,0,valid_lose,149.47959520015866,8,,,,,,,,,,,s_001,2,2020_Nov_01_1450,Reversal,3.2.4,59.9988720405558,
2,exp1.png,exp2.png,1,0,1,0,0,2,2,2,,,,,,,,,,,,,,,,,,,,,,,,,False,21,22,False,exp1.png,exp2.png,trial_right_image,-1,exp2.png,2,exp1.png,exp2.png,0,2,non-reversed,incorrect,0.5757070869855742,0,valid_lose,156.95934390020557,8,,,,,,,,,,,s_001,2,2020_Nov_01_1450,Reversal,3.2.4,59.9988720405558,
3,exp3.png,exp4.png,1,0,1,0,0,3,3,3,,,,,,,,,,,,,,,,,,,,,,,,,False,22,23,True,exp4.png,exp3.png,trial_right_image,-1,exp3.png,2,exp3.png,exp4.png,1,3,reversed,correct,0.6644626877551074,1,valid_win,163.09188910014927,9,,,,,,,,,,,s_001,2,2020_Nov_01_1450,Reversal,3.2.4,59.9988720405558,
4,exp1.png,exp2.png,1,0,1,0,0,4,4,4,,,,,,,,,,,,,,,,,,,,,,,,,False,23,24,False,exp1.png,exp2.png,trial_left_image,1,exp1.png,2,exp1.png,exp2.png,1,1,non-reversed,correct,0.4099404147636425,1,valid_win,168.5901087000966,10,,,,,,,,,,,s_001,2,2020_Nov_01_1450,Reversal,3.2.4,59.9988720405558,
5,exp3.png,exp4.png,1,0,1,0,0,5,5,5,,,,,,,,,,,,,,,,,,,,,,,,,False,24,25,False,exp3.png,exp4.png,trial_left_image,1,exp3.png,2,exp3.png,exp4.png,1,3,reversed,correct,0.5102332057336293,1,valid_win,175.37110830005258,11,,,,,,,,,,,s_001,2,2020_Nov_01_1450,Reversal,3.2.4,59.9988720405558,
6,exp1.png,exp2.png,1,0,1,0,0,6,6,6,,,,,,,,,,,,,,,,,,,,,,,,,False,25,26,False,exp1.png,exp2.png,trial_left_image,1,exp1.png,2,exp1.png,exp2.png,1,1,non-reversed,correct,0.4946093310853348,1,valid_win,180.28631420014426,12,,,,,,,,,,,s_001,2,2020_Nov_01_1450,Reversal,3.2.4,59.9988720405558,
7,exp3.png,exp4.png,1,0,1,0,0,7,7,7,,,,,,,,,,,,,,,,,,,,,,,,,False,26,27,True,exp4.png,exp3.png,trial_right_image,-1,exp3.png,2,exp3.png,exp4.png,1,3,reversed,correct,0.8051949448050474,1,valid_win,185.15053119999357,13,,,,,,,,,,,s_001,2,2020_Nov_01_1450,Reversal,3.2.4,59.9988720405558,
8,exp1.png,exp2.png,1,0,1,0,0,8,8,8,,,,,,,,,,,,,,,,,,,,,,,,,False,27,28,False,exp1.png,exp2.png,trial_left_image,1,exp1.png,2,exp1.png,exp2.png,1,1,non-reversed,correct,0.6936432995029024,1,valid_win,189.58297290001065,14,,,,,,,,,,,s_001,2,2020_Nov_01_1450,Reversal,3.2.4,59.9988720405558,
9,exp3.png,exp4.png,1,0,1,0,0,9,9,9,,,,,,,,,,,,,,,,,,,,,,,,,False,28,29,False,exp3.png,exp4.png,trial_left_image,1,exp3.png,2,exp3.png,exp4.png,1,3,reversed,correct,0.5020679516848626,1,valid_win,194.09695720020682,15,,,,,,,,,,,s_001,2,2020_Nov_01_1450,Reversal,3.2.4,59.9988720405558,
10,exp1.png,exp2.png,1,0,1,0,0,10,10,10,,,,,,,,,,,,,,,,,,,,,,,,,False,29,30,False,exp1.png,exp2.png,trial_left_image,1,exp1.png,2,exp1.png,exp2.png,1,1,non-reversed,correct,0.39673234650305456,1,valid_win,198.595348500181,16,,,,,,,,,,,s_001,2,2020_Nov_01_1450,Reversal,3.2.4,59.9988720405558,
11,exp3.png,exp4.png,1,0,1,0,0,11,11,11,,,,,,,,,,,,,,,,,,,,,,,,,False,30,31,True,exp4.png,exp3.png,trial_right_image,-1,exp3.png,2,exp3.png,exp4.png,1,3,reversed,correct,0.4955541066687711,1,valid_win,203.02736200019717,17,,,,,,,,,,,s_001,2,2020_Nov_01_1450,Reversal,3.2.4,59.9988720405558,
12,exp1.png,exp2.png,1,0,1,0,0,12,12,12,,,,,,,,,,,,,,,,,,,,,,,,,False,31,32,True,exp2.png,exp1.png,trial_right_image,-1,exp1.png,2,exp1.png,exp2.png,1,1,non-reversed,correct,0.506936880730696,1,valid_win,207.44237720011733,18,,,,,,,,,,,s_001,2,2020_Nov_01_1450,Reversal,3.2.4,59.9988720405558,
13,exp3.png,exp4.png,1,0,1,0,0,13,13,13,,,,,,,,,,,,,,,,,,,,,,,,,False,32,33,True,exp4.png,exp3.png,trial_right_image,-1,exp3.png,2,exp3.png,exp4.png,1,3,reversed,correct,0.883675802611833,1,valid_win,212.0406317000743,19,,,,,,,,,,,s_001,2,2020_Nov_01_1450,Reversal,3.2.4,59.9988720405558,
14,exp1.png,exp2.png,1,0,1,0,0,14,14,14,,,,,,,,,,,,,,,,,,,,,,,,,False,33,34,True,exp2.png,exp1.png,trial_right_image,-1,exp1.png,2,exp1.png,exp2.png,1,1,non-reversed,correct,0.781891708834324,1,valid_win,216.52267249999568,20,,,,,,,,,,,s_001,2,2020_Nov_01_1450,Reversal,3.2.4,59.9988720405558,
15,exp3.png,exp4.png,1,0,1,0,0,15,15,15,,,,,,,,,,,,,,,,,,,,,,,,,False,34,35,True,exp4.png,exp3.png,trial_right_image,-1,exp3.png,2,exp3.png,exp4.png,1,3,reversed,correct,0.46032770011672464,1,valid_win,220.97089910018258,21,,,,,,,,,,,s_001,2,2020_Nov_01_1450,Reversal,3.2.4,59.9988720405558,
16,exp1.png,exp2.png,1,0,1,0,0,16,16,16,,,,,,,,,,,,,,,,,,,,,,,,,False,35,36,False,exp1.png,exp2.png,trial_left_image,1,exp1.png,2,exp1.png,exp2.png,1,1,non-reversed,correct,0.9458943234879302,1,valid_win,225.51969550014473,22,,,,,,,,,,,s_001,2,2020_Nov_01_1450,Reversal,3.2.4,59.9988720405558,
17,exp3.png,exp4.png,1,0,1,0,0,17,17,17,,,,,,,,,,,,,,,,,,,,,,,,,False,36,37,True,exp4.png,exp3.png,trial_right_image,-1,exp3.png,2,exp3.png,exp4.png,1,3,reversed,correct,0.22728695217060313,0,invalid_lose,229.88462650007568,22,,,,,,,,,,,s_001,2,2020_Nov_01_1450,Reversal,3.2.4,59.9988720405558,
18,exp1.png,exp2.png,1,0,1,0,0,18,18,18,,,,,,,,,,,,,,,,,,,,,,,,,False,37,38,False,exp1.png,exp2.png,trial_right_image,-1,exp2.png,2,exp1.png,exp2.png,0,2,non-reversed,incorrect,0.78083789785385,0,valid_lose,234.46655650017783,22,,,,,,,,,,,s_001,2,2020_Nov_01_1450,Reversal,3.2.4,59.9988720405558,
19,exp3.png,exp4.png,1,0,1,0,0,19,19,19,,,,,,,,,,,,,,,,,,,,,,,,,False,38,39,False,exp3.png,exp4.png,trial_left_image,1,exp3.png,2,exp3.png,exp4.png,1,3,reversed,correct,0.8571663992012691,1,valid_win,238.933134800056,23,,,,,,,,,,,s_001,2,2020_Nov_01_1450,Reversal,3.2.4,59.9988720405558,
20,exp1.png,exp2.png,1,0,1,0,0,20,20,20,,,,,,,,,,,,,,,,,,,,,,,,,False,39,40,True,exp2.png,exp1.png,trial_right_image,-1,exp1.png,2,exp1.png,exp2.png,1,1,non-reversed,correct,0.13081860664335443,0,invalid_lose,243.380147700198,23,,,,,,,,,,,s_001,2,2020_Nov_01_1450,Reversal,3.2.4,59.9988720405558,
,,,1,0,1,0,,,,,0,0,0,0,,,,,,,,,,,,,,,,,,,,,,,,,,,,,,,,,,,,,,,,,,86,9,89,8,,,,,,,s_001,2,2020_Nov_01_1450,Reversal,3.2.4,59.9988720405558,
0,exp1.png,exp2.png,2,0,2,0,0,0,0,0,,,,,,,,,,,,,,,,,,,,,,,,,True,,,,,,,,,,,,,,,,,,,,,,,,,,,,,,,s_001,2,2020_Nov_01_1450,Reversal,3.2.4,59.9988720405558,
1,exp3.png,exp4.png,2,0,2,0,0,1,1,1,,,,,,,,,,,,,,,,,,,,,,,,,False,40,41,False,exp3.png,exp4.png,trial_left_image,1,exp3.png,2,exp3.png,exp4.png,1,3,reversed,correct,0.36188379802720616,1,valid_win,271.20525650004856,24,,,,,,,,,,,s_001,2,2020_Nov_01_1450,Reversal,3.2.4,59.9988720405558,
2,exp1.png,exp2.png,2,0,2,0,0,2,2,2,,,,,,,,,,,,,,,,,,,,,,,,,False,41,42,False,exp1.png,exp2.png,trial_left_image,1,exp1.png,2,exp1.png,exp2.png,1,1,non-reversed,correct,0.278472415235955,1,valid_win,275.6873727000784,25,,,,,,,,,,,s_001,2,2020_Nov_01_1450,Reversal,3.2.4,59.9988720405558,
3,exp3.png,exp4.png,2,0,2,0,0,3,3,3,,,,,,,,,,,,,,,,,,,,,,,,,False,42,43,True,exp4.png,exp3.png,trial_right_image,-1,exp3.png,2,exp3.png,exp4.png,1,3,reversed,correct,0.35965641095397116,1,valid_win,279.9857476002071,26,,,,,,,,,,,s_001,2,2020_Nov_01_1450,Reversal,3.2.4,59.9988720405558,
4,exp1.png,exp2.png,2,0,2,0,0,4,4,4,,,,,,,,,,,,,,,,,,,,,,,,,False,43,44,False,exp1.png,exp2.png,trial_left_image,1,exp1.png,2,exp1.png,exp2.png,1,1,non-reversed,correct,0.25558972710534134,1,valid_win,284.33431569999084,27,,,,,,,,,,,s_001,2,2020_Nov_01_1450,Reversal,3.2.4,59.9988720405558,
5,exp3.png,exp4.png,2,0,2,0,0,5,5,5,,,,,,,,,,,,,,,,,,,,,,,,,False,44,45,True,exp4.png,exp3.png,trial_right_image,-1,exp3.png,2,exp3.png,exp4.png,1,3,reversed,correct,0.06996343277397166,0,invalid_lose,288.6326071000658,27,,,,,,,,,,,s_001,2,2020_Nov_01_1450,Reversal,3.2.4,59.9988720405558,
6,exp1.png,exp2.png,2,0,2,0,0,6,6,6,,,,,,,,,,,,,,,,,,,,,,,,,False,45,46,True,exp2.png,exp1.png,trial_right_image,-1,exp1.png,2,exp1.png,exp2.png,1,1,non-reversed,correct,0.2485595296872829,0,invalid_lose,293.0812276999932,27,,,,,,,,,,,s_001,2,2020_Nov_01_1450,Reversal,3.2.4,59.9988720405558,
7,exp3.png,exp4.png,2,0,2,0,0,7,7,7,,,,,,,,,,,,,,,,,,,,,,,,,False,46,47,True,exp4.png,exp3.png,trial_right_image,-1,exp3.png,2,exp3.png,exp4.png,1,3,reversed,correct,0.2780082956967821,1,valid_win,298.48003239999525,28,,,,,,,,,,,s_001,2,2020_Nov_01_1450,Reversal,3.2.4,59.9988720405558,
8,exp1.png,exp2.png,2,0,2,0,0,8,8,8,,,,,,,,,,,,,,,,,,,,,,,,,False,47,48,False,exp1.png,exp2.png,trial_left_image,1,exp1.png,2,exp1.png,exp2.png,1,1,non-reversed,correct,0.9051828467522641,1,valid_win,302.8113694000058,29,,,,,,,,,,,s_001,2,2020_Nov_01_1450,Reversal,3.2.4,59.9988720405558,
9,exp3.png,exp4.png,2,0,2,0,0,9,9,9,,,,,,,,,,,,,,,,,,,,,,,,,False,48,49,False,exp3.png,exp4.png,trial_left_image,1,exp3.png,2,exp3.png,exp4.png,1,3,reversed,correct,0.2091309072762404,0,invalid_lose,307.2099420002196,29,,,,,,,,,,,s_001,2,2020_Nov_01_1450,Reversal,3.2.4,59.9988720405558,
10,exp1.png,exp2.png,2,0,2,0,0,10,10,10,,,,,,,,,,,,,,,,,,,,,,,,,False,49,50,True,exp2.png,exp1.png,trial_right_image,-1,exp1.png,2,exp1.png,exp2.png,1,1,non-reversed,correct,0.6980754837722418,1,valid_win,311.5068628001027,30,,,,,,,,,,,s_001,2,2020_Nov_01_1450,Reversal,3.2.4,59.9988720405558,
11,exp3.png,exp4.png,2,0,2,0,0,11,11,11,,,,,,,,,,,,,,,,,,,,,,,,,False,50,51,True,exp4.png,exp3.png,trial_left_image,1,exp4.png,2,exp3.png,exp4.png,0,4,reversed,incorrect,0.2352205025150782,1,invalid_win,318.4064170999918,31,,,,,,,,,,,s_001,2,2020_Nov_01_1450,Reversal,3.2.4,59.9988720405558,
12,exp1.png,exp2.png,2,0,2,0,0,12,12,12,,,,,,,,,,,,,,,,,,,,,,,,,False,51,52,True,exp2.png,exp1.png,trial_right_image,-1,exp1.png,2,exp1.png,exp2.png,1,1,non-reversed,correct,0.28872413968129906,1,valid_win,322.73773300019093,32,,,,,,,,,,,s_001,2,2020_Nov_01_1450,Reversal,3.2.4,59.9988720405558,
13,exp3.png,exp4.png,2,0,2,0,0,13,13,13,,,,,,,,,,,,,,,,,,,,,,,,,False,52,53,False,exp3.png,exp4.png,trial_right_image,-1,exp4.png,2,exp3.png,exp4.png,0,4,reversed,incorrect,0.044047860851907705,1,invalid_win,327.1030805001501,33,,,,,,,,,,,s_001,2,2020_Nov_01_1450,Reversal,3.2.4,59.9988720405558,
14,exp1.png,exp2.png,2,0,2,0,0,14,14,14,,,,,,,,,,,,,,,,,,,,,,,,,False,53,54,True,exp2.png,exp1.png,trial_right_image,-1,exp1.png,2,exp1.png,exp2.png,1,1,non-reversed,correct,0.5490889574788224,1,valid_win,331.4851387999952,34,,,,,,,,,,,s_001,2,2020_Nov_01_1450,Reversal,3.2.4,59.9988720405558,
15,exp3.png,exp4.png,2,0,2,0,0,15,15,15,,,,,,,,,,,,,,,,,,,,,,,,,False,54,55,True,exp4.png,exp3.png,trial_left_image,1,exp4.png,2,exp3.png,exp4.png,0,4,reversed,incorrect,0.6097557748925525,0,valid_lose,336.3489988001529,34,,,,,,,,,,,s_001,2,2020_Nov_01_1450,Reversal,3.2.4,59.9988720405558,
16,exp1.png,exp2.png,2,0,2,0,0,16,16,16,,,,,,,,,,,,,,,,,,,,,,,,,False,55,56,False,exp1.png,exp2.png,trial_left_image,1,exp1.png,2,exp1.png,exp2.png,1,1,non-reversed,correct,0.8716177460939226,1,valid_win,340.7314061000943,35,,,,,,,,,,,s_001,2,2020_Nov_01_1450,Reversal,3.2.4,59.9988720405558,
17,exp3.png,exp4.png,2,0,2,0,0,17,17,17,,,,,,,,,,,,,,,,,,,,,,,,,False,56,57,False,exp3.png,exp4.png,trial_left_image,1,exp3.png,2,exp3.png,exp4.png,1,3,reversed,correct,0.298530976047091,1,valid_win,345.0960762000177,36,,,,,,,,,,,s_001,2,2020_Nov_01_1450,Reversal,3.2.4,59.9988720405558,
18,exp1.png,exp2.png,2,0,2,0,0,18,18,18,,,,,,,,,,,,,,,,,,,,,,,,,False,57,58,True,exp2.png,exp1.png,trial_right_image,-1,exp1.png,2,exp1.png,exp2.png,1,1,non-reversed,correct,0.5987171675990673,1,valid_win,349.49593090009876,37,,,,,,,,,,,s_001,2,2020_Nov_01_1450,Reversal,3.2.4,59.9988720405558,
19,exp3.png,exp4.png,2,0,2,0,0,19,19,19,,,,,,,,,,,,,,,,,,,,,,,,,False,58,59,False,exp3.png,exp4.png,trial_right_image,-1,exp4.png,2,exp3.png,exp4.png,0,4,reversed,incorrect,0.42270786517889347,0,valid_lose,353.69488470000215,37,,,,,,,,,,,s_001,2,2020_Nov_01_1450,Reversal,3.2.4,59.9988720405558,
20,exp1.png,exp2.png,2,0,2,0,0,20,20,20,,,,,,,,,,,,,,,,,,,,,,,,,False,59,60,False,exp1.png,exp2.png,trial_left_image,1,exp1.png,2,exp1.png,exp2.png,1,1,non-reversed,correct,0.8254258316729899,1,valid_win,358.29258580016904,38,,,,,,,,,,,s_001,2,2020_Nov_01_1450,Reversal,3.2.4,59.9988720405558,
,,,2,0,2,0,,,,,0,0,0,0,,,,,,,,,,,,,,,,,,,,,,,,,,,,,,,,,,,,,,,,,,100,0,39,62,,,,,,,s_001,2,2020_Nov_01_1450,Reversal,3.2.4,59.9988720405558,
0,exp1.png,exp2.png,3,0,3,0,0,0,0,0,,,,,,,,,,,,,,,,,,,,,,,,,True,,,,,,,,,,,,,,,,,,,,,,,,,,,,,,,s_001,2,2020_Nov_01_1450,Reversal,3.2.4,59.9988720405558,
1,exp3.png,exp4.png,3,0,3,0,0,1,1,1,,,,,,,,,,,,,,,,,,,,,,,,,False,60,61,True,exp4.png,exp3.png,trial_left_image,1,exp4.png,2,exp3.png,exp4.png,0,4,reversed,incorrect,0.20005339480870232,1,invalid_win,385.38352030003443,39,,,,,,,,,,,s_001,2,2020_Nov_01_1450,Reversal,3.2.4,59.9988720405558,
2,exp1.png,exp2.png,3,0,3,0,0,2,2,2,,,,,,,,,,,,,,,,,,,,,,,,,False,61,62,False,exp1.png,exp2.png,trial_left_image,1,exp1.png,2,exp1.png,exp2.png,1,1,non-reversed,correct,0.06926357093466695,0,invalid_lose,389.89862420014106,39,,,,,,,,,,,s_001,2,2020_Nov_01_1450,Reversal,3.2.4,59.9988720405558,
3,exp3.png,exp4.png,3,0,3,0,0,3,3,3,,,,,,,,,,,,,,,,,,,,,,,,,False,62,63,True,exp4.png,exp3.png,trial_left_image,1,exp4.png,2,exp3.png,exp4.png,0,4,reversed,incorrect,0.9656633792125511,0,valid_lose,394.0963583001867,39,,,,,,,,,,,s_001,2,2020_Nov_01_1450,Reversal,3.2.4,59.9988720405558,
4,exp1.png,exp2.png,3,0,3,0,0,4,4,4,,,,,,,,,,,,,,,,,,,,,,,,,False,63,64,False,exp1.png,exp2.png,trial_left_image,1,exp1.png,2,exp1.png,exp2.png,1,1,non-reversed,correct,0.8054249155515668,1,valid_win,399.0944013001863,40,,,,,,,,,,,s_001,2,2020_Nov_01_1450,Reversal,3.2.4,59.9988720405558,
5,exp3.png,exp4.png,3,0,3,0,0,5,5,5,,,,,,,,,,,,,,,,,,,,,,,,,False,64,65,True,exp4.png,exp3.png,trial_left_image,1,exp4.png,2,exp3.png,exp4.png,0,4,reversed,incorrect,0.31145905269287644,0,valid_lose,403.42741580004804,40,,,,,,,,,,,s_001,2,2020_Nov_01_1450,Reversal,3.2.4,59.9988720405558,
6,exp1.png,exp2.png,3,0,3,0,0,6,6,6,,,,,,,,,,,,,,,,,,,,,,,,,False,65,66,False,exp1.png,exp2.png,trial_right_image,-1,exp2.png,2,exp1.png,exp2.png,0,2,non-reversed,incorrect,0.19689463283075248,1,invalid_win,407.90771100018173,41,,,,,,,,,,,s_001,2,2020_Nov_01_1450,Reversal,3.2.4,59.9988720405558,
7,exp3.png,exp4.png,3,0,3,0,0,7,7,7,,,,,,,,,,,,,,,,,,,,,,,,,False,66,67,False,exp3.png,exp4.png,trial_left_image,1,exp3.png,2,exp3.png,exp4.png,1,3,reversed,correct,0.11415384617671942,0,invalid_lose,412.3398748000618,41,,,,,,,,,,,s_001,2,2020_Nov_01_1450,Reversal,3.2.4,59.9988720405558,
8,exp1.png,exp2.png,3,0,3,0,0,8,8,8,,,,,,,,,,,,,,,,,,,,,,,,,False,67,68,True,exp2.png,exp1.png,trial_left_image,1,exp2.png,2,exp1.png,exp2.png,0,2,non-reversed,incorrect,0.12020595132175882,1,invalid_win,417.0727865002118,42,,,,,,,,,,,s_001,2,2020_Nov_01_1450,Reversal,3.2.4,59.9988720405558,
9,exp3.png,exp4.png,3,0,3,0,0,9,9,9,,,,,,,,,,,,,,,,,,,,,,,,,False,68,69,True,exp4.png,exp3.png,trial_right_image,-1,exp3.png,2,exp3.png,exp4.png,1,3,reversed,correct,0.14841965279928448,0,invalid_lose,421.5379681000486,42,,,,,,,,,,,s_001,2,2020_Nov_01_1450,Reversal,3.2.4,59.9988720405558,
10,exp1.png,exp2.png,3,0,3,0,0,10,10,10,,,,,,,,,,,,,,,,,,,,,,,,,False,69,70,False,exp1.png,exp2.png,trial_left_image,1,exp1.png,2,exp1.png,exp2.png,1,1,non-reversed,correct,0.2616825537580263,1,valid_win,427.9010171000846,43,,,,,,,,,,,s_001,2,2020_Nov_01_1450,Reversal,3.2.4,59.9988720405558,
11,exp3.png,exp4.png,3,0,3,0,0,11,11,11,,,,,,,,,,,,,,,,,,,,,,,,,False,70,71,False,exp3.png,exp4.png,trial_left_image,1,exp3.png,2,exp3.png,exp4.png,1,3,reversed,correct,0.19354779069659933,0,invalid_lose,432.33402420021594,43,,,,,,,,,,,s_001,2,2020_Nov_01_1450,Reversal,3.2.4,59.9988720405558,
12,exp1.png,exp2.png,3,0,3,0,0,12,12,12,,,,,,,,,,,,,,,,,,,,,,,,,False,71,72,False,exp1.png,exp2.png,trial_right_image,-1,exp2.png,2,exp1.png,exp2.png,0,2,non-reversed,incorrect,0.3941111718535344,0,valid_lose,438.2827957000118,43,,,,,,,,,,,s_001,2,2020_Nov_01_1450,Reversal,3.2.4,59.9988720405558,
13,exp3.png,exp4.png,3,0,3,0,0,13,13,13,,,,,,,,,,,,,,,,,,,,,,,,,False,72,73,True,exp4.png,exp3.png,trial_right_image,-1,exp3.png,2,exp3.png,exp4.png,1,3,reversed,correct,0.7264766906714002,1,valid_win,443.54748599999584,44,,,,,,,,,,,s_001,2,2020_Nov_01_1450,Reversal,3.2.4,59.9988720405558,
14,exp1.png,exp2.png,3,0,3,0,0,14,14,14,,,,,,,,,,,,,,,,,,,,,,,,,False,73,74,False,exp1.png,exp2.png,trial_left_image,1,exp1.png,2,exp1.png,exp2.png,1,1,non-reversed,correct,0.7115472927533103,1,valid_win,447.745755800046,45,,,,,,,,,,,s_001,2,2020_Nov_01_1450,Reversal,3.2.4,59.9988720405558,
15,exp3.png,exp4.png,3,0,3,0,0,15,15,15,,,,,,,,,,,,,,,,,,,,,,,,,False,74,75,True,exp4.png,exp3.png,trial_left_image,1,exp4.png,2,exp3.png,exp4.png,0,4,reversed,incorrect,0.65905960537089,0,valid_lose,452.5610957001336,45,,,,,,,,,,,s_001,2,2020_Nov_01_1450,Reversal,3.2.4,59.9988720405558,
16,exp1.png,exp2.png,3,0,3,0,0,16,16,16,,,,,,,,,,,,,,,,,,,,,,,,,False,75,76,True,exp2.png,exp1.png,trial_left_image,1,exp2.png,2,exp1.png,exp2.png,0,2,non-reversed,incorrect,0.4667956602928808,0,valid_lose,456.77656410005875,45,,,,,,,,,,,s_001,2,2020_Nov_01_1450,Reversal,3.2.4,59.9988720405558,
17,exp3.png,exp4.png,3,0,3,0,0,17,17,17,,,,,,,,,,,,,,,,,,,,,,,,,False,76,77,False,exp3.png,exp4.png,trial_left_image,1,exp3.png,2,exp3.png,exp4.png,1,3,reversed,correct,0.9226028819715434,1,valid_win,461.14122960017994,46,,,,,,,,,,,s_001,2,2020_Nov_01_1450,Reversal,3.2.4,59.9988720405558,
18,exp1.png,exp2.png,3,0,3,0,0,18,18,18,,,,,,,,,,,,,,,,,,,,,,,,,False,77,78,True,exp2.png,exp1.png,trial_left_image,1,exp2.png,2,exp1.png,exp2.png,0,2,non-reversed,incorrect,0.3574578103342716,0,valid_lose,465.47161450004205,46,,,,,,,,,,,s_001,2,2020_Nov_01_1450,Reversal,3.2.4,59.9988720405558,
19,exp3.png,exp4.png,3,0,3,0,0,19,19,19,,,,,,,,,,,,,,,,,,,,,,,,,False,78,79,True,exp4.png,exp3.png,trial_right_image,-1,exp3.png,2,exp3.png,exp4.png,1,3,reversed,correct,0.3935341343703198,1,valid_win,470.0051200001035,47,,,,,,,,,,,s_001,2,2020_Nov_01_1450,Reversal,3.2.4,59.9988720405558,
20,exp1.png,exp2.png,3,0,3,0,0,20,20,20,,,,,,,,,,,,,,,,,,,,,,,,,False,79,80,False,exp1.png,exp2.png,trial_left_image,1,exp1.png,2,exp1.png,exp2.png,1,1,non-reversed,correct,0.6649343943693191,1,valid_win,474.35378310014494,48,,,,,,,,,,,s_001,2,2020_Nov_01_1450,Reversal,3.2.4,59.9988720405558,
,,,3,0,3,0,,,,,0,0,0,0,,,,,,,,,,,,,,,,,,,,,,,,,,,,,,,,,,,,,,,,,,62,31,70,29,,,,,,,s_001,2,2020_Nov_01_1450,Reversal,3.2.4,59.9988720405558,
0,exp1.png,exp2.png,,,,,,,,,,,,,,,,,0,0,0,0,0,0,0,0,,,,,,,,,True,,,,,,,,,,,,,,,,,,,,,,,,,,,,,,,s_001,2,2020_Nov_01_1450,Reversal,3.2.4,59.9988720405558,
1,exp3.png,exp4.png,,,,,,,,,,,,,,,,,0,0,0,0,0,1,1,1,,,,,,,,,False,0,81,True,exp4.png,exp3.png,trial_right_image,-1,exp3.png,2,exp4.png,exp3.png,1,3,reversed,incorrect,0.861715673045428,0,valid_lose,490.3814561001491,48,,,,,487.0627044001594,,,,,,s_001,2,2020_Nov_01_1450,Reversal,3.2.4,59.9988720405558,
2,exp1.png,exp2.png,,,,,,,,,,,,,,,,,0,0,0,0,0,2,2,2,,,,,,,,,False,1,82,True,exp2.png,exp1.png,trial_right_image,-1,exp1.png,2,exp1.png,exp2.png,1,1,non-reversed,correct,0.0352724176437057,0,invalid_lose,498.0956352001522,48,,,,,,,,,,,s_001,2,2020_Nov_01_1450,Reversal,3.2.4,59.9988720405558,
3,exp3.png,exp4.png,,,,,,,,,,,,,,,,,0,0,0,0,0,3,3,3,,,,,,,,,False,2,83,False,exp3.png,exp4.png,trial_right_image,-1,exp4.png,2,exp4.png,exp3.png,0,4,reversed,correct,0.2859401841942215,1,valid_win,502.24283010000363,49,,,,,,,,,,,s_001,2,2020_Nov_01_1450,Reversal,3.2.4,59.9988720405558,
4,exp1.png,exp2.png,,,,,,,,,,,,,,,,,0,0,0,0,0,4,4,4,,,,,,,,,False,3,84,False,exp1.png,exp2.png,trial_right_image,-1,exp2.png,2,exp1.png,exp2.png,0,2,non-reversed,incorrect,0.5184490777492712,0,valid_lose,506.4259684002027,49,,,,,,,,,,,s_001,2,2020_Nov_01_1450,Reversal,3.2.4,59.9988720405558,
5,exp3.png,exp4.png,,,,,,,,,,,,,,,,,0,0,0,0,0,5,5,5,,,,,,,,,False,4,85,False,exp3.png,exp4.png,trial_right_image,-1,exp4.png,2,exp4.png,exp3.png,0,4,reversed,correct,0.7426454114653269,1,valid_win,510.99146740022115,50,,,,,,,,,,,s_001,2,2020_Nov_01_1450,Reversal,3.2.4,59.9988720405558,
6,exp1.png,exp2.png,,,,,,,,,,,,,,,,,0,0,0,0,0,6,6,6,,,,,,,,,False,5,86,False,exp1.png,exp2.png,trial_right_image,-1,exp2.png,2,exp1.png,exp2.png,0,2,non-reversed,incorrect,0.6328202491028476,0,valid_lose,515.0899688000791,50,,,,,,,,,,,s_001,2,2020_Nov_01_1450,Reversal,3.2.4,59.9988720405558,
7,exp3.png,exp4.png,,,,,,,,,,,,,,,,,0,0,0,0,0,7,7,7,,,,,,,,,False,6,87,True,exp4.png,exp3.png,trial_left_image,1,exp4.png,2,exp4.png,exp3.png,0,4,reversed,correct,0.5379582605354544,1,valid_win,519.488184100017,51,,,,,,,,,,,s_001,2,2020_Nov_01_1450,Reversal,3.2.4,59.9988720405558,
8,exp1.png,exp2.png,,,,,,,,,,,,,,,,,0,0,0,0,0,8,8,8,,,,,,,,,False,7,88,False,exp1.png,exp2.png,trial_left_image,1,exp1.png,2,exp1.png,exp2.png,1,1,non-reversed,correct,0.21407928807331844,0,invalid_lose,523.8039927000646,51,,,,,,,,,,,s_001,2,2020_Nov_01_1450,Reversal,3.2.4,59.9988720405558,
9,exp3.png,exp4.png,,,,,,,,,,,,,,,,,0,0,0,0,0,9,9,9,,,,,,,,,False,8,89,True,exp4.png,exp3.png,trial_left_image,1,exp4.png,2,exp4.png,exp3.png,0,4,reversed,correct,0.40510693594942326,1,valid_win,528.3009273000062,52,,,,,,,,,,,s_001,2,2020_Nov_01_1450,Reversal,3.2.4,59.9988720405558,
10,exp1.png,exp2.png,,,,,,,,,,,,,,,,,0,0,0,0,0,10,10,10,,,,,,,,,False,9,90,True,exp2.png,exp1.png,trial_right_image,-1,exp1.png,2,exp1.png,exp2.png,1,1,non-reversed,correct,0.3550440511598587,1,valid_win,532.6507985000499,53,,,,,,,,,,,s_001,2,2020_Nov_01_1450,Reversal,3.2.4,59.9988720405558,
11,exp3.png,exp4.png,,,,,,,,,,,,,,,,,0,0,0,0,0,11,11,11,,,,,,,,,False,10,91,True,exp4.png,exp3.png,trial_left_image,1,exp4.png,2,exp4.png,exp3.png,0,4,reversed,correct,0.2617848223008661,1,valid_win,537.0492293999996,54,,,,,,,,,,,s_001,2,2020_Nov_01_1450,Reversal,3.2.4,59.9988720405558,
12,exp1.png,exp2.png,,,,,,,,,,,,,,,,,0,0,0,0,0,12,12,12,,,,,,,,,False,11,92,True,exp2.png,exp1.png,trial_left_image,1,exp2.png,2,exp1.png,exp2.png,0,2,non-reversed,incorrect,0.18993326376456288,1,invalid_win,541.281048900215,55,,,,,,,,,,,s_001,2,2020_Nov_01_1450,Reversal,3.2.4,59.9988720405558,
13,exp3.png,exp4.png,,,,,,,,,,,,,,,,,0,0,0,0,0,13,13,13,,,,,,,,,False,12,93,True,exp4.png,exp3.png,trial_left_image,1,exp4.png,2,exp4.png,exp3.png,0,4,reversed,correct,0.5759614858234996,1,valid_win,545.6461903001182,56,,,,,,,,,,,s_001,2,2020_Nov_01_1450,Reversal,3.2.4,59.9988720405558,
14,exp1.png,exp2.png,,,,,,,,,,,,,,,,,0,0,0,0,0,14,14,14,,,,,,,,,False,13,94,True,exp2.png,exp1.png,trial_left_image,1,exp2.png,2,exp1.png,exp2.png,0,2,non-reversed,incorrect,0.5084392923466032,0,valid_lose,549.8784835000988,56,,,,,,,,,,,s_001,2,2020_Nov_01_1450,Reversal,3.2.4,59.9988720405558,
15,exp3.png,exp4.png,,,,,,,,,,,,,,,,,0,0,0,0,0,15,15,15,,,,,,,,,False,14,95,False,exp3.png,exp4.png,trial_right_image,-1,exp4.png,2,exp4.png,exp3.png,0,4,reversed,correct,0.06608539620461173,0,invalid_lose,554.227230500197,56,,,,,,,,,,,s_001,2,2020_Nov_01_1450,Reversal,3.2.4,59.9988720405558,
16,exp1.png,exp2.png,,,,,,,,,,,,,,,,,0,0,0,0,0,16,16,16,,,,,,,,,False,15,96,False,exp1.png,exp2.png,trial_left_image,1,exp1.png,2,exp1.png,exp2.png,1,1,non-reversed,correct,0.8075757299213419,1,valid_win,558.8416995001025,57,,,,,,,,,,,s_001,2,2020_Nov_01_1450,Reversal,3.2.4,59.9988720405558,
17,exp3.png,exp4.png,,,,,,,,,,,,,,,,,0,0,0,0,0,17,17,17,,,,,,,,,False,16,97,False,exp3.png,exp4.png,trial_left_image,1,exp3.png,2,exp4.png,exp3.png,1,3,reversed,incorrect,0.6198591993661626,0,valid_lose,563.338940900052,57,,,,,,,,,,,s_001,2,2020_Nov_01_1450,Reversal,3.2.4,59.9988720405558,
18,exp1.png,exp2.png,,,,,,,,,,,,,,,,,0,0,0,0,0,18,18,18,,,,,,,,,False,17,98,False,exp1.png,exp2.png,trial_right_image,-1,exp2.png,2,exp1.png,exp2.png,0,2,non-reversed,incorrect,0.6084414874027236,0,valid_lose,570.4365628000814,57,,,,,,,,,,,s_001,2,2020_Nov_01_1450,Reversal,3.2.4,59.9988720405558,
19,exp3.png,exp4.png,,,,,,,,,,,,,,,,,0,0,0,0,0,19,19,19,,,,,,,,,False,18,99,True,exp4.png,exp3.png,trial_left_image,1,exp4.png,2,exp4.png,exp3.png,0,4,reversed,correct,0.33665125844976684,1,valid_win,575.4849261001218,58,,,,,,,,,,,s_001,2,2020_Nov_01_1450,Reversal,3.2.4,59.9988720405558,
20,exp1.png,exp2.png,,,,,,,,,,,,,,,,,0,0,0,0,0,20,20,20,,,,,,,,,False,19,100,False,exp1.png,exp2.png,trial_left_image,1,exp1.png,2,exp1.png,exp2.png,1,1,non-reversed,correct,0.03768895542778383,0,invalid_lose,579.4836320001632,58,,,,,,,,,,,s_001,2,2020_Nov_01_1450,Reversal,3.2.4,59.9988720405558,
,,,,,,,,,,,,,,,,,,,0,0,0,0,,,,,0,0,0,0,,,,,,,,,,,,,,,,,,,,,,,,,,49,50.0,14,83,,,,,,,s_001,2,2020_Nov_01_1450,Reversal,3.2.4,59.9988720405558,
0,exp1.png,exp2.png,,,,,,,,,,,,,,,,,1,0,1,0,0,0,0,0,,,,,,,,,True,,,,,,,,,,,,,,,,,,,,,,,,,,,,,,,s_001,2,2020_Nov_01_1450,Reversal,3.2.4,59.9988720405558,
1,exp3.png,exp4.png,,,,,,,,,,,,,,,,,1,0,1,0,0,1,1,1,,,,,,,,,False,20,101,False,exp3.png,exp4.png,trial_right_image,-1,exp4.png,2,exp4.png,exp3.png,0,4,reversed,correct,0.8315058359005868,1,valid_win,602.7438008000609,59,,,,,,,,,,,s_001,2,2020_Nov_01_1450,Reversal,3.2.4,59.9988720405558,
2,exp1.png,exp2.png,,,,,,,,,,,,,,,,,1,0,1,0,0,2,2,2,,,,,,,,,False,21,102,False,exp1.png,exp2.png,trial_left_image,1,exp1.png,2,exp1.png,exp2.png,1,1,non-reversed,correct,0.32915228638537586,1,valid_win,608.1088760001585,60,,,,,,,,,,,s_001,2,2020_Nov_01_1450,Reversal,3.2.4,59.9988720405558,
3,exp3.png,exp4.png,,,,,,,,,,,,,,,,,1,0,1,0,0,3,3,3,,,,,,,,,False,22,103,False,exp3.png,exp4.png,trial_right_image,-1,exp4.png,2,exp4.png,exp3.png,0,4,reversed,correct,0.49209903934494126,1,valid_win,612.2405972999986,61,,,,,,,,,,,s_001,2,2020_Nov_01_1450,Reversal,3.2.4,59.9988720405558,
4,exp1.png,exp2.png,,,,,,,,,,,,,,,,,1,0,1,0,0,4,4,4,,,,,,,,,False,23,104,False,exp1.png,exp2.png,trial_left_image,1,exp1.png,2,exp1.png,exp2.png,1,1,non-reversed,correct,0.34108359882803496,1,valid_win,616.3225491000339,62,,,,,,,,,,,s_001,2,2020_Nov_01_1450,Reversal,3.2.4,59.9988720405558,
5,exp3.png,exp4.png,,,,,,,,,,,,,,,,,1,0,1,0,0,5,5,5,,,,,,,,,False,24,105,False,exp3.png,exp4.png,trial_right_image,-1,exp4.png,2,exp4.png,exp3.png,0,4,reversed,correct,0.08857852548143419,0,invalid_lose,620.7210105000995,62,,,,,,,,,,,s_001,2,2020_Nov_01_1450,Reversal,3.2.4,59.9988720405558,
6,exp1.png,exp2.png,,,,,,,,,,,,,,,,,1,0,1,0,0,6,6,6,,,,,,,,,False,25,106,False,exp1.png,exp2.png,trial_right_image,-1,exp2.png,2,exp1.png,exp2.png,0,2,non-reversed,incorrect,0.09746729950193822,1,invalid_win,625.2027092000935,63,,,,,,,,,,,s_001,2,2020_Nov_01_1450,Reversal,3.2.4,59.9988720405558,
7,exp3.png,exp4.png,,,,,,,,,,,,,,,,,1,0,1,0,0,7,7,7,,,,,,,,,False,26,107,True,exp4.png,exp3.png,trial_right_image,-1,exp3.png,2,exp4.png,exp3.png,1,3,reversed,incorrect,0.01502376516063042,1,invalid_win,629.6169249000959,64,,,,,,,,,,,s_001,2,2020_Nov_01_1450,Reversal,3.2.4,59.9988720405558,
8,exp1.png,exp2.png,,,,,,,,,,,,,,,,,1,0,1,0,0,8,8,8,,,,,,,,,False,27,108,True,exp2.png,exp1.png,trial_left_image,1,exp2.png,2,exp1.png,exp2.png,0,2,non-reversed,incorrect,0.9989919873397513,0,valid_lose,633.6491760001518,64,,,,,,,,,,,s_001,2,2020_Nov_01_1450,Reversal,3.2.4,59.9988720405558,
9,exp3.png,exp4.png,,,,,,,,,,,,,,,,,1,0,1,0,0,9,9,9,,,,,,,,,False,28,109,True,exp4.png,exp3.png,trial_left_image,1,exp4.png,2,exp4.png,exp3.png,0,4,reversed,correct,0.8485500057969849,1,valid_win,638.0983445001766,65,,,,,,,,,,,s_001,2,2020_Nov_01_1450,Reversal,3.2.4,59.9988720405558,
10,exp1.png,exp2.png,,,,,,,,,,,,,,,,,1,0,1,0,0,10,10,10,,,,,,,,,False,29,110,True,exp2.png,exp1.png,trial_right_image,-1,exp1.png,2,exp1.png,exp2.png,1,1,non-reversed,correct,0.33157909913995753,1,valid_win,642.08031390002,66,,,,,,,,,,,s_001,2,2020_Nov_01_1450,Reversal,3.2.4,59.9988720405558,
11,exp3.png,exp4.png,,,,,,,,,,,,,,,,,1,0,1,0,0,11,11,11,,,,,,,,,False,30,111,True,exp4.png,exp3.png,trial_left_image,1,exp4.png,2,exp4.png,exp3.png,0,4,reversed,correct,0.727574247999054,1,valid_win,646.2125278001186,67,,,,,,,,,,,s_001,2,2020_Nov_01_1450,Reversal,3.2.4,59.9988720405558,
12,exp1.png,exp2.png,,,,,,,,,,,,,,,,,1,0,1,0,0,12,12,12,,,,,,,,,False,31,112,True,exp2.png,exp1.png,trial_right_image,-1,exp1.png,2,exp1.png,exp2.png,1,1,non-reversed,correct,0.11793770344226728,0,invalid_lose,650.1110786001664,67,,,,,,,,,,,s_001,2,2020_Nov_01_1450,Reversal,3.2.4,59.9988720405558,
13,exp3.png,exp4.png,,,,,,,,,,,,,,,,,1,0,1,0,0,13,13,13,,,,,,,,,False,32,113,False,exp3.png,exp4.png,trial_right_image,-1,exp4.png,2,exp4.png,exp3.png,0,4,reversed,correct,0.36660155493327895,1,valid_win,654.0936045001727,68,,,,,,,,,,,s_001,2,2020_Nov_01_1450,Reversal,3.2.4,59.9988720405558,
14,exp1.png,exp2.png,,,,,,,,,,,,,,,,,1,0,1,0,0,14,14,14,,,,,,,,,False,33,114,True,exp2.png,exp1.png,trial_right_image,-1,exp1.png,2,exp1.png,exp2.png,1,1,non-reversed,correct,0.723030337856547,1,valid_win,658.5903414001223,69,,,,,,,,,,,s_001,2,2020_Nov_01_1450,Reversal,3.2.4,59.9988720405558,
15,exp3.png,exp4.png,,,,,,,,,,,,,,,,,1,0,1,0,0,15,15,15,,,,,,,,,False,34,115,False,exp3.png,exp4.png,trial_right_image,-1,exp4.png,2,exp4.png,exp3.png,0,4,reversed,correct,0.34037864407114493,1,valid_win,663.3232273000758,70,,,,,,,,,,,s_001,2,2020_Nov_01_1450,Reversal,3.2.4,59.9988720405558,
16,exp1.png,exp2.png,,,,,,,,,,,,,,,,,1,0,1,0,0,16,16,16,,,,,,,,,False,35,116,True,exp2.png,exp1.png,trial_right_image,-1,exp1.png,2,exp1.png,exp2.png,1,1,non-reversed,correct,0.7774185678646777,1,valid_win,667.6038615000434,71,,,,,,,,,,,s_001,2,2020_Nov_01_1450,Reversal,3.2.4,59.9988720405558,
17,exp3.png,exp4.png,,,,,,,,,,,,,,,,,1,0,1,0,0,17,17,17,,,,,,,,,False,36,117,False,exp3.png,exp4.png,trial_left_image,1,exp3.png,2,exp4.png,exp3.png,1,3,reversed,incorrect,0.3053148392493483,0,valid_lose,671.7358608001377,71,,,,,,,,,,,s_001,2,2020_Nov_01_1450,Reversal,3.2.4,59.9988720405558,
18,exp1.png,exp2.png,,,,,,,,,,,,,,,,,1,0,1,0,0,18,18,18,,,,,,,,,False,37,118,True,exp2.png,exp1.png,trial_left_image,1,exp2.png,2,exp1.png,exp2.png,0,2,non-reversed,incorrect,0.049336131593198274,1,invalid_win,675.6343357001897,72,,,,,,,,,,,s_001,2,2020_Nov_01_1450,Reversal,3.2.4,59.9988720405558,
19,exp3.png,exp4.png,,,,,,,,,,,,,,,,,1,0,1,0,0,19,19,19,,,,,,,,,False,38,119,False,exp3.png,exp4.png,trial_right_image,-1,exp4.png,2,exp4.png,exp3.png,0,4,reversed,correct,0.09110104894658666,0,invalid_lose,679.8176749001723,72,,,,,,,,,,,s_001,2,2020_Nov_01_1450,Reversal,3.2.4,59.9988720405558,
20,exp1.png,exp2.png,,,,,,,,,,,,,,,,,1,0,1,0,0,20,20,20,,,,,,,,,False,39,120,True,exp2.png,exp1.png,trial_left_image,1,exp2.png,2,exp1.png,exp2.png,0,2,non-reversed,incorrect,0.30589203448878566,0,valid_lose,684.5323364001233,72,,,,,,,,,,,s_001,2,2020_Nov_01_1450,Reversal,3.2.4,59.9988720405558,
,,,,,,,,,,,,,,,,,,,1,0,1,0,,,,,0,0,0,0,,,,,,,,,,,,,,,,,,,,,,,,,,87,22,21,78,,,,,,,s_001,2,2020_Nov_01_1450,Reversal,3.2.4,59.9988720405558,
0,exp1.png,exp2.png,,,,,,,,,,,,,,,,,2,0,2,0,0,0,0,0,,,,,,,,,True,,,,,,,,,,,,,,,,,,,,,,,,,,,,,,,s_001,2,2020_Nov_01_1450,Reversal,3.2.4,59.9988720405558,
1,exp3.png,exp4.png,,,,,,,,,,,,,,,,,2,0,2,0,0,1,1,1,,,,,,,,,False,40,121,False,exp3.png,exp4.png,trial_right_image,-1,exp4.png,2,exp4.png,exp3.png,0,4,reversed,correct,0.11102283637229815,0,invalid_lose,716.3055608000141,72,,,,,,,,,,,s_001,2,2020_Nov_01_1450,Reversal,3.2.4,59.9988720405558,
2,exp1.png,exp2.png,,,,,,,,,,,,,,,,,2,0,2,0,0,2,2,2,,,,,,,,,False,41,122,True,exp2.png,exp1.png,trial_right_image,-1,exp1.png,2,exp1.png,exp2.png,1,1,non-reversed,correct,0.9629692399402356,1,valid_win,721.3204917002004,73,,,,,,,,,,,s_001,2,2020_Nov_01_1450,Reversal,3.2.4,59.9988720405558,
3,exp3.png,exp4.png,,,,,,,,,,,,,,,,,2,0,2,0,0,3,3,3,,,,,,,,,False,42,123,False,exp3.png,exp4.png,trial_left_image,1,exp3.png,2,exp4.png,exp3.png,1,3,reversed,incorrect,0.44831688594694796,0,valid_lose,725.4522032001987,73,,,,,,,,,,,s_001,2,2020_Nov_01_1450,Reversal,3.2.4,59.9988720405558,
4,exp1.png,exp2.png,,,,,,,,,,,,,,,,,2,0,2,0,0,4,4,4,,,,,,,,,False,43,124,True,exp2.png,exp1.png,trial_left_image,1,exp2.png,2,exp1.png,exp2.png,0,2,non-reversed,incorrect,0.29954339935939844,0,valid_lose,730.2177544001024,73,,,,,,,,,,,s_001,2,2020_Nov_01_1450,Reversal,3.2.4,59.9988720405558,
5,exp3.png,exp4.png,,,,,,,,,,,,,,,,,2,0,2,0,0,5,5,5,,,,,,,,,False,44,125,False,exp3.png,exp4.png,trial_left_image,1,exp3.png,2,exp4.png,exp3.png,1,3,reversed,incorrect,0.8297582316119118,0,valid_lose,735.1657454001252,73,,,,,,,,,,,s_001,2,2020_Nov_01_1450,Reversal,3.2.4,59.9988720405558,
6,exp1.png,exp2.png,,,,,,,,,,,,,,,,,2,0,2,0,0,6,6,6,,,,,,,,,False,45,126,True,exp2.png,exp1.png,trial_left_image,1,exp2.png,2,exp1.png,exp2.png,0,2,non-reversed,incorrect,0.7453209113982683,0,valid_lose,739.6474055000581,73,,,,,,,,,,,s_001,2,2020_Nov_01_1450,Reversal,3.2.4,59.9988720405558,
7,exp3.png,exp4.png,,,,,,,,,,,,,,,,,2,0,2,0,0,7,7,7,,,,,,,,,False,46,127,False,exp3.png,exp4.png,trial_right_image,-1,exp4.png,2,exp4.png,exp3.png,0,4,reversed,correct,0.46478108894909653,1,valid_win,743.9793544001877,74,,,,,,,,,,,s_001,2,2020_Nov_01_1450,Reversal,3.2.4,59.9988720405558,
8,exp1.png,exp2.png,,,,,,,,,,,,,,,,,2,0,2,0,0,8,8,8,,,,,,,,,False,47,128,True,exp2.png,exp1.png,trial_right_image,-1,exp1.png,2,exp1.png,exp2.png,1,1,non-reversed,correct,0.677879322101524,1,valid_win,748.7267619001213,75,,,,,,,,,,,s_001,2,2020_Nov_01_1450,Reversal,3.2.4,59.9988720405558,
9,exp3.png,exp4.png,,,,,,,,,,,,,,,,,2,0,2,0,0,9,9,9,,,,,,,,,False,48,129,True,exp4.png,exp3.png,trial_left_image,1,exp4.png,2,exp4.png,exp3.png,0,4,reversed,correct,0.4801448079905478,1,valid_win,753.0263649001718,76,,,,,,,,,,,s_001,2,2020_Nov_01_1450,Reversal,3.2.4,59.9988720405558,
10,exp1.png,exp2.png,,,,,,,,,,,,,,,,,2,0,2,0,0,10,10,10,,,,,,,,,False,49,130,True,exp2.png,exp1.png,trial_right_image,-1,exp1.png,2,exp1.png,exp2.png,1,1,non-reversed,correct,0.7898034596097074,1,valid_win,757.1583354000468,77,,,,,,,,,,,s_001,2,2020_Nov_01_1450,Reversal,3.2.4,59.9988720405558,
11,exp3.png,exp4.png,,,,,,,,,,,,,,,,,2,0,2,0,0,11,11,11,,,,,,,,,False,50,131,True,exp4.png,exp3.png,trial_left_image,1,exp4.png,2,exp4.png,exp3.png,0,4,reversed,correct,0.9313355528970181,1,valid_win,761.3573205000721,78,,,,,,,,,,,s_001,2,2020_Nov_01_1450,Reversal,3.2.4,59.9988720405558,
12,exp1.png,exp2.png,,,,,,,,,,,,,,,,,2,0,2,0,0,12,12,12,,,,,,,,,False,51,132,True,exp2.png,exp1.png,trial_right_image,-1,exp1.png,2,exp1.png,exp2.png,1,1,non-reversed,correct,0.8016688400074263,1,valid_win,765.3709166999906,79,,,,,,,,,,,s_001,2,2020_Nov_01_1450,Reversal,3.2.4,59.9988720405558,
13,exp3.png,exp4.png,,,,,,,,,,,,,,,,,2,0,2,0,0,13,13,13,,,,,,,,,False,52,133,False,exp3.png,exp4.png,trial_right_image,-1,exp4.png,2,exp4.png,exp3.png,0,4,reversed,correct,0.0683418629580913,0,invalid_lose,769.9527275001165,79,,,,,,,,,,,s_001,2,2020_Nov_01_1450,Reversal,3.2.4,59.9988720405558,
14,exp1.png,exp2.png,,,,,,,,,,,,,,,,,2,0,2,0,0,14,14,14,,,,,,,,,False,53,134,False,exp1.png,exp2.png,trial_left_image,1,exp1.png,2,exp1.png,exp2.png,1,1,non-reversed,correct,0.047187899731500504,0,invalid_lose,774.4693885000888,79,,,,,,,,,,,s_001,2,2020_Nov_01_1450,Reversal,3.2.4,59.9988720405558,
15,exp3.png,exp4.png,,,,,,,,,,,,,,,,,2,0,2,0,0,15,15,15,,,,,,,,,False,54,135,False,exp3.png,exp4.png,trial_left_image,1,exp3.png,2,exp4.png,exp3.png,1,3,reversed,incorrect,0.314162502654876,0,valid_lose,778.6173766001593,79,,,,,,,,,,,s_001,2,2020_Nov_01_1450,Reversal,3.2.4,59.9988720405558,
16,exp1.png,exp2.png,,,,,,,,,,,,,,,,,2,0,2,0,0,16,16,16,,,,,,,,,False,55,136,False,exp1.png,exp2.png,trial_left_image,1,exp1.png,2,exp1.png,exp2.png,1,1,non-reversed,correct,0.5171961187572145,1,valid_win,782.5167342000641,80,,,,,,,,,,,s_001,2,2020_Nov_01_1450,Reversal,3.2.4,59.9988720405558,
17,exp3.png,exp4.png,,,,,,,,,,,,,,,,,2,0,2,0,0,17,17,17,,,,,,,,,False,56,137,True,exp4.png,exp3.png,trial_left_image,1,exp4.png,2,exp4.png,exp3.png,0,4,reversed,correct,0.6378655103481145,1,valid_win,786.7317828000523,81,,,,,,,,,,,s_001,2,2020_Nov_01_1450,Reversal,3.2.4,59.9988720405558,
18,exp1.png,exp2.png,,,,,,,,,,,,,,,,,2,0,2,0,0,18,18,18,,,,,,,,,False,57,138,False,exp1.png,exp2.png,trial_left_image,1,exp1.png,2,exp1.png,exp2.png,1,1,non-reversed,correct,0.5076318258298105,1,valid_win,790.6634578001685,82,,,,,,,,,,,s_001,2,2020_Nov_01_1450,Reversal,3.2.4,59.9988720405558,
19,exp3.png,exp4.png,,,,,,,,,,,,,,,,,2,0,2,0,0,19,19,19,,,,,,,,,False,58,139,False,exp3.png,exp4.png,trial_right_image,-1,exp4.png,2,exp4.png,exp3.png,0,4,reversed,correct,0.23571312416520696,0,invalid_lose,795.2950011000503,82,,,,,,,,,,,s_001,2,2020_Nov_01_1450,Reversal,3.2.4,59.9988720405558,
20,exp1.png,exp2.png,,,,,,,,,,,,,,,,,2,0,2,0,0,20,20,20,,,,,,,,,False,59,140,True,exp2.png,exp1.png,trial_left_image,1,exp2.png,2,exp1.png,exp2.png,0,2,non-reversed,incorrect,0.6826723345151138,0,valid_lose,799.4940989001188,82,,,,,,,,,,,s_001,2,2020_Nov_01_1450,Reversal,3.2.4,59.9988720405558,
,,,,,,,,,,,,,,,,,,,2,0,2,0,,,,,0,0,0,0,,,,,,,,,,,,,,,,,,,,,,,,,,82,11,13,80,,,,,,,s_001,2,2020_Nov_01_1450,Reversal,3.2.4,59.9988720405558,
,,,,,,,,,,,,,,,,,,,,,,,,,,,,,,,,,,,,,,,,,,,,,,,,,,,,,,,82,,,,,,93,52,41,326.508455199888,1,,,,,,,
