trial_index,trial_image1_file,trial_image2_file,learning_outer_loop.thisRepN,learning_outer_loop.thisTrialN,learning_outer_loop.thisN,learning_outer_loop.thisIndex,learning_inner_loop.thisRepN,learning_inner_loop.thisTrialN,learning_inner_loop.thisN,learning_inner_loop.thisIndex,learning_estimation_outer_loop.thisRepN,learning_estimation_outer_loop.thisTrialN,learning_estimation_outer_loop.thisN,learning_estimation_outer_loop.thisIndex,learning_estimation_inner_loop.thisRepN,learning_estimation_inner_loop.thisTrialN,learning_estimation_inner_loop.thisN,learning_estimation_inner_loop.thisIndex,reversal_outer_loop.thisRepN,reversal_outer_loop.thisTrialN,reversal_outer_loop.thisN,reversal_outer_loop.thisIndex,reversal_inner_loop.thisRepN,reversal_inner_loop.thisTrialN,reversal_inner_loop.thisN,reversal_inner_loop.thisIndex,reversal_estimation_outer_loop.thisRepN,reversal_estimation_outer_loop.thisTrialN,reversal_estimation_outer_loop.thisN,reversal_estimation_outer_loop.thisIndex,reversal_estimation_inner_loop.thisRepN,reversal_estimation_inner_loop.thisTrialN,reversal_estimation_inner_loop.thisN,reversal_estimation_inner_loop.thisIndex,skipped,total_trial_counter,trial_num,left_right_flip,left_image_file,right_image_file,clicked_stimulus_side,side,clicked_stimulus,version,high_prob_image_file,low_prob_image_file,choice_a,choice_b,pair_type,correct,trial_feedback_random,reward,trial_type,overall_time_after_trial,score,estimation_exp1.png,estimation_exp2.png,estimation_exp3.png,estimation_exp4.png,total_learning_time,total_correct,learning_correct,reversal_correct,total_reversal_time,extra_block,participant,ver,date,expName,psychopyVersion,frameRate,
0,exp1.png,exp2.png,0,0,0,0,0,0,0,0,,,,,,,,,,,,,,,,,,,,,,,,,False,0,1,True,exp2.png,exp1.png,trial_right_image,-1,exp1.png,3,exp2.png,exp1.png,0,4,reversed,incorrect,0.6637080171619067,0,valid_lose,8.411315000150353,0,,,,,,,,,,,s_009,3,2020_Nov_17_1525,Reversal,3.2.4,60.00704486673866,
1,exp3.png,exp4.png,0,0,0,0,0,1,1,1,,,,,,,,,,,,,,,,,,,,,,,,,False,1,2,False,exp3.png,exp4.png,trial_right_image,-1,exp4.png,3,exp4.png,exp3.png,1,1,non-reversed,correct,0.46477155385903846,1,valid_win,13.891581800067797,1,,,,,,,,,,,s_009,3,2020_Nov_17_1525,Reversal,3.2.4,60.00704486673866,
2,exp1.png,exp2.png,0,0,0,0,0,2,2,2,,,,,,,,,,,,,,,,,,,,,,,,,False,2,3,False,exp1.png,exp2.png,trial_left_image,1,exp1.png,3,exp2.png,exp1.png,0,4,reversed,incorrect,0.9208876285615967,0,valid_lose,19.70739210001193,1,,,,,,,,,,,s_009,3,2020_Nov_17_1525,Reversal,3.2.4,60.00704486673866,
3,exp3.png,exp4.png,0,0,0,0,0,3,3,3,,,,,,,,,,,,,,,,,,,,,,,,,False,3,4,False,exp3.png,exp4.png,trial_right_image,-1,exp4.png,3,exp4.png,exp3.png,1,1,non-reversed,correct,0.3391191816331178,1,valid_win,24.038165400037542,2,,,,,,,,,,,s_009,3,2020_Nov_17_1525,Reversal,3.2.4,60.00704486673866,
4,exp1.png,exp2.png,0,0,0,0,0,4,4,4,,,,,,,,,,,,,,,,,,,,,,,,,False,4,5,False,exp1.png,exp2.png,trial_right_image,-1,exp2.png,3,exp2.png,exp1.png,1,3,reversed,correct,0.8544524744311996,1,valid_win,28.337684800149873,3,,,,,,,,,,,s_009,3,2020_Nov_17_1525,Reversal,3.2.4,60.00704486673866,
5,exp3.png,exp4.png,0,0,0,0,0,5,5,5,,,,,,,,,,,,,,,,,,,,,,,,,False,5,6,False,exp3.png,exp4.png,trial_left_image,1,exp3.png,3,exp4.png,exp3.png,0,2,non-reversed,incorrect,0.2947450014231141,0,valid_lose,32.70286020007916,3,,,,,,,,,,,s_009,3,2020_Nov_17_1525,Reversal,3.2.4,60.00704486673866,
6,exp1.png,exp2.png,0,0,0,0,0,6,6,6,,,,,,,,,,,,,,,,,,,,,,,,,False,6,7,False,exp1.png,exp2.png,trial_left_image,1,exp1.png,3,exp2.png,exp1.png,0,4,reversed,incorrect,0.4783523965852,0,valid_lose,37.36788300005719,3,,,,,,,,,,,s_009,3,2020_Nov_17_1525,Reversal,3.2.4,60.00704486673866,
7,exp3.png,exp4.png,0,0,0,0,0,7,7,7,,,,,,,,,,,,,,,,,,,,,,,,,False,7,8,True,exp4.png,exp3.png,trial_left_image,1,exp4.png,3,exp4.png,exp3.png,1,1,non-reversed,correct,0.6212661165421381,1,valid_win,41.783394100144506,4,,,,,,,,,,,s_009,3,2020_Nov_17_1525,Reversal,3.2.4,60.00704486673866,
8,exp1.png,exp2.png,0,0,0,0,0,8,8,8,,,,,,,,,,,,,,,,,,,,,,,,,False,8,9,True,exp2.png,exp1.png,trial_right_image,-1,exp1.png,3,exp2.png,exp1.png,0,4,reversed,incorrect,0.6249358569442237,0,valid_lose,46.248455400113016,4,,,,,,,,,,,s_009,3,2020_Nov_17_1525,Reversal,3.2.4,60.00704486673866,
9,exp3.png,exp4.png,0,0,0,0,0,9,9,9,,,,,,,,,,,,,,,,,,,,,,,,,False,9,10,True,exp4.png,exp3.png,trial_left_image,1,exp4.png,3,exp4.png,exp3.png,1,1,non-reversed,correct,0.9744757546967031,1,valid_win,50.480786100029945,5,,,,,,,,,,,s_009,3,2020_Nov_17_1525,Reversal,3.2.4,60.00704486673866,
10,exp1.png,exp2.png,0,0,0,0,0,10,10,10,,,,,,,,,,,,,,,,,,,,,,,,,False,10,11,True,exp2.png,exp1.png,trial_left_image,1,exp2.png,3,exp2.png,exp1.png,1,3,reversed,correct,0.434619863004862,1,valid_win,55.11235990002751,6,,,,,,,,,,,s_009,3,2020_Nov_17_1525,Reversal,3.2.4,60.00704486673866,
11,exp3.png,exp4.png,0,0,0,0,0,11,11,11,,,,,,,,,,,,,,,,,,,,,,,,,False,11,12,False,exp3.png,exp4.png,trial_right_image,-1,exp4.png,3,exp4.png,exp3.png,1,1,non-reversed,correct,0.07926702013114295,0,invalid_lose,59.211138300132006,6,,,,,,,,,,,s_009,3,2020_Nov_17_1525,Reversal,3.2.4,60.00704486673866,
12,exp1.png,exp2.png,0,0,0,0,0,12,12,12,,,,,,,,,,,,,,,,,,,,,,,,,False,12,13,True,exp2.png,exp1.png,trial_right_image,-1,exp1.png,3,exp2.png,exp1.png,0,4,reversed,incorrect,0.795280743383047,0,valid_lose,63.176102800061926,6,,,,,,,,,,,s_009,3,2020_Nov_17_1525,Reversal,3.2.4,60.00704486673866,
13,exp3.png,exp4.png,0,0,0,0,0,13,13,13,,,,,,,,,,,,,,,,,,,,,,,,,False,13,14,False,exp3.png,exp4.png,trial_left_image,1,exp3.png,3,exp4.png,exp3.png,0,2,non-reversed,incorrect,0.23364776510869256,1,invalid_win,67.49134359997697,7,,,,,,,,,,,s_009,3,2020_Nov_17_1525,Reversal,3.2.4,60.00704486673866,
14,exp1.png,exp2.png,0,0,0,0,0,14,14,14,,,,,,,,,,,,,,,,,,,,,,,,,False,14,15,True,exp2.png,exp1.png,trial_left_image,1,exp2.png,3,exp2.png,exp1.png,1,3,reversed,correct,0.5748978057555645,1,valid_win,71.85652919998392,8,,,,,,,,,,,s_009,3,2020_Nov_17_1525,Reversal,3.2.4,60.00704486673866,
15,exp3.png,exp4.png,0,0,0,0,0,15,15,15,,,,,,,,,,,,,,,,,,,,,,,,,False,15,16,True,exp4.png,exp3.png,trial_left_image,1,exp4.png,3,exp4.png,exp3.png,1,1,non-reversed,correct,0.2752842167207846,1,valid_win,75.98842040007003,9,,,,,,,,,,,s_009,3,2020_Nov_17_1525,Reversal,3.2.4,60.00704486673866,
16,exp1.png,exp2.png,0,0,0,0,0,16,16,16,,,,,,,,,,,,,,,,,,,,,,,,,False,16,17,False,exp1.png,exp2.png,trial_left_image,1,exp1.png,3,exp2.png,exp1.png,0,4,reversed,incorrect,0.6040708857893867,0,valid_lose,79.97056660009548,9,,,,,,,,,,,s_009,3,2020_Nov_17_1525,Reversal,3.2.4,60.00704486673866,
17,exp3.png,exp4.png,0,0,0,0,0,17,17,17,,,,,,,,,,,,,,,,,,,,,,,,,False,17,18,True,exp4.png,exp3.png,trial_left_image,1,exp4.png,3,exp4.png,exp3.png,1,1,non-reversed,correct,0.07056718363686065,0,invalid_lose,84.3355471000541,9,,,,,,,,,,,s_009,3,2020_Nov_17_1525,Reversal,3.2.4,60.00704486673866,
18,exp1.png,exp2.png,0,0,0,0,0,18,18,18,,,,,,,,,,,,,,,,,,,,,,,,,False,18,19,False,exp1.png,exp2.png,trial_right_image,-1,exp2.png,3,exp2.png,exp1.png,1,3,reversed,correct,0.8390953232118904,1,valid_win,88.28479599999264,10,,,,,,,,,,,s_009,3,2020_Nov_17_1525,Reversal,3.2.4,60.00704486673866,
19,exp3.png,exp4.png,0,0,0,0,0,19,19,19,,,,,,,,,,,,,,,,,,,,,,,,,False,19,20,True,exp4.png,exp3.png,trial_right_image,-1,exp3.png,3,exp4.png,exp3.png,0,2,non-reversed,incorrect,0.49845150751612,0,valid_lose,92.49960420001298,10,,,,,,,,,,,s_009,3,2020_Nov_17_1525,Reversal,3.2.4,60.00704486673866,
20,exp1.png,exp2.png,0,0,0,0,0,20,20,20,,,,,,,,,,,,,,,,,,,,,,,,,True,,,,,,,,,,,,,,,,,,,,,,,,,,,,,,,s_009,3,2020_Nov_17_1525,Reversal,3.2.4,60.00704486673866,
,,,0,0,0,0,,,,,0,0,0,0,,,,,,,,,,,,,,,,,,,,,,,,,,,,,,,,,,,,,,,,,,77,78,49,51,,,,,,,s_009,3,2020_Nov_17_1525,Reversal,3.2.4,60.00704486673866,
0,exp1.png,exp2.png,1,0,1,0,0,0,0,0,,,,,,,,,,,,,,,,,,,,,,,,,False,20,21,False,exp1.png,exp2.png,trial_right_image,-1,exp2.png,3,exp2.png,exp1.png,1,3,reversed,correct,0.1312491954670273,0,invalid_lose,125.8380702000577,10,,,,,,,,,,,s_009,3,2020_Nov_17_1525,Reversal,3.2.4,60.00704486673866,
1,exp3.png,exp4.png,1,0,1,0,0,1,1,1,,,,,,,,,,,,,,,,,,,,,,,,,False,21,22,True,exp4.png,exp3.png,trial_left_image,1,exp4.png,3,exp4.png,exp3.png,1,1,non-reversed,correct,0.08290837170450727,0,invalid_lose,130.15230980003253,10,,,,,,,,,,,s_009,3,2020_Nov_17_1525,Reversal,3.2.4,60.00704486673866,
2,exp1.png,exp2.png,1,0,1,0,0,2,2,2,,,,,,,,,,,,,,,,,,,,,,,,,False,22,23,True,exp2.png,exp1.png,trial_left_image,1,exp2.png,3,exp2.png,exp1.png,1,3,reversed,correct,0.5635677692721693,1,valid_win,134.20249440008774,11,,,,,,,,,,,s_009,3,2020_Nov_17_1525,Reversal,3.2.4,60.00704486673866,
3,exp3.png,exp4.png,1,0,1,0,0,3,3,3,,,,,,,,,,,,,,,,,,,,,,,,,False,23,24,False,exp3.png,exp4.png,trial_right_image,-1,exp4.png,3,exp4.png,exp3.png,1,1,non-reversed,correct,0.17559040529006786,0,invalid_lose,138.55059700016864,11,,,,,,,,,,,s_009,3,2020_Nov_17_1525,Reversal,3.2.4,60.00704486673866,
4,exp1.png,exp2.png,1,0,1,0,0,4,4,4,,,,,,,,,,,,,,,,,,,,,,,,,False,24,25,True,exp2.png,exp1.png,trial_left_image,1,exp2.png,3,exp2.png,exp1.png,1,3,reversed,correct,0.1210737259259117,0,invalid_lose,142.96582560008392,11,,,,,,,,,,,s_009,3,2020_Nov_17_1525,Reversal,3.2.4,60.00704486673866,
5,exp3.png,exp4.png,1,0,1,0,0,5,5,5,,,,,,,,,,,,,,,,,,,,,,,,,False,25,26,False,exp3.png,exp4.png,trial_right_image,-1,exp4.png,3,exp4.png,exp3.png,1,1,non-reversed,correct,0.6019462192424918,1,valid_win,146.8980344000738,12,,,,,,,,,,,s_009,3,2020_Nov_17_1525,Reversal,3.2.4,60.00704486673866,
6,exp1.png,exp2.png,1,0,1,0,0,6,6,6,,,,,,,,,,,,,,,,,,,,,,,,,False,26,27,True,exp2.png,exp1.png,trial_left_image,1,exp2.png,3,exp2.png,exp1.png,1,3,reversed,correct,0.40008797426240594,1,valid_win,151.22965490003116,13,,,,,,,,,,,s_009,3,2020_Nov_17_1525,Reversal,3.2.4,60.00704486673866,
7,exp3.png,exp4.png,1,0,1,0,0,7,7,7,,,,,,,,,,,,,,,,,,,,,,,,,False,27,28,True,exp4.png,exp3.png,trial_left_image,1,exp4.png,3,exp4.png,exp3.png,1,1,non-reversed,correct,0.25352627823301566,1,valid_win,155.6269744001329,14,,,,,,,,,,,s_009,3,2020_Nov_17_1525,Reversal,3.2.4,60.00704486673866,
8,exp1.png,exp2.png,1,0,1,0,0,8,8,8,,,,,,,,,,,,,,,,,,,,,,,,,False,28,29,True,exp2.png,exp1.png,trial_right_image,-1,exp1.png,3,exp2.png,exp1.png,0,4,reversed,incorrect,0.6547632418531052,0,valid_lose,160.54275470017456,14,,,,,,,,,,,s_009,3,2020_Nov_17_1525,Reversal,3.2.4,60.00704486673866,
9,exp3.png,exp4.png,1,0,1,0,0,9,9,9,,,,,,,,,,,,,,,,,,,,,,,,,False,29,30,False,exp3.png,exp4.png,trial_left_image,1,exp3.png,3,exp4.png,exp3.png,0,2,non-reversed,incorrect,0.5116715345431079,0,valid_lose,164.75865159998648,14,,,,,,,,,,,s_009,3,2020_Nov_17_1525,Reversal,3.2.4,60.00704486673866,
10,exp1.png,exp2.png,1,0,1,0,0,10,10,10,,,,,,,,,,,,,,,,,,,,,,,,,False,30,31,False,exp1.png,exp2.png,trial_left_image,1,exp1.png,3,exp2.png,exp1.png,0,4,reversed,incorrect,0.23991886984025423,1,invalid_win,168.77383289998397,15,,,,,,,,,,,s_009,3,2020_Nov_17_1525,Reversal,3.2.4,60.00704486673866,
11,exp3.png,exp4.png,1,0,1,0,0,11,11,11,,,,,,,,,,,,,,,,,,,,,,,,,False,31,32,False,exp3.png,exp4.png,trial_left_image,1,exp3.png,3,exp4.png,exp3.png,0,2,non-reversed,incorrect,0.14564196702971377,1,invalid_win,173.10614489996806,16,,,,,,,,,,,s_009,3,2020_Nov_17_1525,Reversal,3.2.4,60.00704486673866,
12,exp1.png,exp2.png,1,0,1,0,0,12,12,12,,,,,,,,,,,,,,,,,,,,,,,,,False,32,33,True,exp2.png,exp1.png,trial_left_image,1,exp2.png,3,exp2.png,exp1.png,1,3,reversed,correct,0.4014719295453003,1,valid_win,177.4375637001358,17,,,,,,,,,,,s_009,3,2020_Nov_17_1525,Reversal,3.2.4,60.00704486673866,
13,exp3.png,exp4.png,1,0,1,0,0,13,13,13,,,,,,,,,,,,,,,,,,,,,,,,,False,33,34,True,exp4.png,exp3.png,trial_left_image,1,exp4.png,3,exp4.png,exp3.png,1,1,non-reversed,correct,0.8710070936999995,1,valid_win,181.70142910000868,18,,,,,,,,,,,s_009,3,2020_Nov_17_1525,Reversal,3.2.4,60.00704486673866,
14,exp1.png,exp2.png,1,0,1,0,0,14,14,14,,,,,,,,,,,,,,,,,,,,,,,,,False,34,35,False,exp1.png,exp2.png,trial_left_image,1,exp1.png,3,exp2.png,exp1.png,0,4,reversed,incorrect,0.11571303337341032,1,invalid_win,185.71794060012326,19,,,,,,,,,,,s_009,3,2020_Nov_17_1525,Reversal,3.2.4,60.00704486673866,
15,exp3.png,exp4.png,1,0,1,0,0,15,15,15,,,,,,,,,,,,,,,,,,,,,,,,,False,35,36,True,exp4.png,exp3.png,trial_left_image,1,exp4.png,3,exp4.png,exp3.png,1,1,non-reversed,correct,0.02456753413494439,0,invalid_lose,189.91712630004622,19,,,,,,,,,,,s_009,3,2020_Nov_17_1525,Reversal,3.2.4,60.00704486673866,
16,exp1.png,exp2.png,1,0,1,0,0,16,16,16,,,,,,,,,,,,,,,,,,,,,,,,,False,36,37,False,exp1.png,exp2.png,trial_left_image,1,exp1.png,3,exp2.png,exp1.png,0,4,reversed,incorrect,0.19400953948693267,1,invalid_win,194.19815609999932,20,,,,,,,,,,,s_009,3,2020_Nov_17_1525,Reversal,3.2.4,60.00704486673866,
17,exp3.png,exp4.png,1,0,1,0,0,17,17,17,,,,,,,,,,,,,,,,,,,,,,,,,False,37,38,True,exp4.png,exp3.png,trial_left_image,1,exp4.png,3,exp4.png,exp3.png,1,1,non-reversed,correct,0.2435829850538641,0,invalid_lose,198.6136016000528,20,,,,,,,,,,,s_009,3,2020_Nov_17_1525,Reversal,3.2.4,60.00704486673866,
18,exp1.png,exp2.png,1,0,1,0,0,18,18,18,,,,,,,,,,,,,,,,,,,,,,,,,False,38,39,False,exp1.png,exp2.png,trial_right_image,-1,exp2.png,3,exp2.png,exp1.png,1,3,reversed,correct,0.9669139960693022,1,valid_win,203.16183630004525,21,,,,,,,,,,,s_009,3,2020_Nov_17_1525,Reversal,3.2.4,60.00704486673866,
19,exp3.png,exp4.png,1,0,1,0,0,19,19,19,,,,,,,,,,,,,,,,,,,,,,,,,False,39,40,False,exp3.png,exp4.png,trial_left_image,1,exp3.png,3,exp4.png,exp3.png,0,2,non-reversed,incorrect,0.73704014516233,0,valid_lose,207.42732320004143,21,,,,,,,,,,,s_009,3,2020_Nov_17_1525,Reversal,3.2.4,60.00704486673866,
20,exp1.png,exp2.png,1,0,1,0,0,20,20,20,,,,,,,,,,,,,,,,,,,,,,,,,True,,,,,,,,,,,,,,,,,,,,,,,,,,,,,,,s_009,3,2020_Nov_17_1525,Reversal,3.2.4,60.00704486673866,
,,,1,0,1,0,,,,,0,0,0,0,,,,,,,,,,,,,,,,,,,,,,,,,,,,,,,,,,,,,,,,,,50.0,57,66,62,,,,,,,s_009,3,2020_Nov_17_1525,Reversal,3.2.4,60.00704486673866,
0,exp1.png,exp2.png,2,0,2,0,0,0,0,0,,,,,,,,,,,,,,,,,,,,,,,,,False,40,41,True,exp2.png,exp1.png,trial_right_image,-1,exp1.png,3,exp2.png,exp1.png,0,4,reversed,incorrect,0.3940994140510867,0,valid_lose,230.71973749995232,21,,,,,,,,,,,s_009,3,2020_Nov_17_1525,Reversal,3.2.4,60.00704486673866,
1,exp3.png,exp4.png,2,0,2,0,0,1,1,1,,,,,,,,,,,,,,,,,,,,,,,,,False,41,42,True,exp4.png,exp3.png,trial_right_image,-1,exp3.png,3,exp4.png,exp3.png,0,2,non-reversed,incorrect,0.9843889827085751,0,valid_lose,236.43426150013693,21,,,,,,,,,,,s_009,3,2020_Nov_17_1525,Reversal,3.2.4,60.00704486673866,
2,exp1.png,exp2.png,2,0,2,0,0,2,2,2,,,,,,,,,,,,,,,,,,,,,,,,,False,42,43,False,exp1.png,exp2.png,trial_right_image,-1,exp2.png,3,exp2.png,exp1.png,1,3,reversed,correct,0.1858072517746916,0,invalid_lose,241.69756400003098,21,,,,,,,,,,,s_009,3,2020_Nov_17_1525,Reversal,3.2.4,60.00704486673866,
3,exp3.png,exp4.png,2,0,2,0,0,3,3,3,,,,,,,,,,,,,,,,,,,,,,,,,False,43,44,True,exp4.png,exp3.png,trial_left_image,1,exp4.png,3,exp4.png,exp3.png,1,1,non-reversed,correct,0.1456771842481056,0,invalid_lose,247.2972238000948,21,,,,,,,,,,,s_009,3,2020_Nov_17_1525,Reversal,3.2.4,60.00704486673866,
4,exp1.png,exp2.png,2,0,2,0,0,4,4,4,,,,,,,,,,,,,,,,,,,,,,,,,False,44,45,False,exp1.png,exp2.png,trial_left_image,1,exp1.png,3,exp2.png,exp1.png,0,4,reversed,incorrect,0.3174942738363393,0,valid_lose,256.37704719998874,21,,,,,,,,,,,s_009,3,2020_Nov_17_1525,Reversal,3.2.4,60.00704486673866,
5,exp3.png,exp4.png,2,0,2,0,0,5,5,5,,,,,,,,,,,,,,,,,,,,,,,,,False,45,46,False,exp3.png,exp4.png,trial_left_image,1,exp3.png,3,exp4.png,exp3.png,0,2,non-reversed,incorrect,0.9099122215934272,0,valid_lose,261.6912198001519,21,,,,,,,,,,,s_009,3,2020_Nov_17_1525,Reversal,3.2.4,60.00704486673866,
6,exp1.png,exp2.png,2,0,2,0,0,6,6,6,,,,,,,,,,,,,,,,,,,,,,,,,False,46,47,True,exp2.png,exp1.png,trial_right_image,-1,exp1.png,3,exp2.png,exp1.png,0,4,reversed,incorrect,0.7235717012420477,0,valid_lose,267.48948430013843,21,,,,,,,,,,,s_009,3,2020_Nov_17_1525,Reversal,3.2.4,60.00704486673866,
7,exp3.png,exp4.png,2,0,2,0,0,7,7,7,,,,,,,,,,,,,,,,,,,,,,,,,False,47,48,True,exp4.png,exp3.png,trial_left_image,1,exp4.png,3,exp4.png,exp3.png,1,1,non-reversed,correct,0.1061921548483884,0,invalid_lose,274.8709980000276,21,,,,,,,,,,,s_009,3,2020_Nov_17_1525,Reversal,3.2.4,60.00704486673866,
8,exp1.png,exp2.png,2,0,2,0,0,8,8,8,,,,,,,,,,,,,,,,,,,,,,,,,False,48,49,False,exp1.png,exp2.png,trial_right_image,-1,exp2.png,3,exp2.png,exp1.png,1,3,reversed,correct,0.5962407363474378,1,valid_win,280.35291470005177,22,,,,,,,,,,,s_009,3,2020_Nov_17_1525,Reversal,3.2.4,60.00704486673866,
9,exp3.png,exp4.png,2,0,2,0,0,9,9,9,,,,,,,,,,,,,,,,,,,,,,,,,False,49,50,True,exp4.png,exp3.png,trial_left_image,1,exp4.png,3,exp4.png,exp3.png,1,1,non-reversed,correct,0.45783892794181014,1,valid_win,291.98254030011594,23,,,,,,,,,,,s_009,3,2020_Nov_17_1525,Reversal,3.2.4,60.00704486673866,
10,exp1.png,exp2.png,2,0,2,0,0,10,10,10,,,,,,,,,,,,,,,,,,,,,,,,,False,50,51,False,exp1.png,exp2.png,trial_left_image,1,exp1.png,3,exp2.png,exp1.png,0,4,reversed,incorrect,0.6865480378306735,0,valid_lose,298.94666370004416,23,,,,,,,,,,,s_009,3,2020_Nov_17_1525,Reversal,3.2.4,60.00704486673866,
11,exp3.png,exp4.png,2,0,2,0,0,11,11,11,,,,,,,,,,,,,,,,,,,,,,,,,False,51,52,False,exp3.png,exp4.png,trial_right_image,-1,exp4.png,3,exp4.png,exp3.png,1,1,non-reversed,correct,0.8507393769863872,1,valid_win,304.77843960002065,24,,,,,,,,,,,s_009,3,2020_Nov_17_1525,Reversal,3.2.4,60.00704486673866,
12,exp1.png,exp2.png,2,0,2,0,0,12,12,12,,,,,,,,,,,,,,,,,,,,,,,,,False,52,53,False,exp1.png,exp2.png,trial_right_image,-1,exp2.png,3,exp2.png,exp1.png,1,3,reversed,correct,0.32219796200019946,1,valid_win,310.1094849000219,25,,,,,,,,,,,s_009,3,2020_Nov_17_1525,Reversal,3.2.4,60.00704486673866,
13,exp3.png,exp4.png,2,0,2,0,0,13,13,13,,,,,,,,,,,,,,,,,,,,,,,,,False,53,54,False,exp3.png,exp4.png,trial_right_image,-1,exp4.png,3,exp4.png,exp3.png,1,1,non-reversed,correct,0.2840509495368546,1,valid_win,315.0728440999519,26,,,,,,,,,,,s_009,3,2020_Nov_17_1525,Reversal,3.2.4,60.00704486673866,
14,exp1.png,exp2.png,2,0,2,0,0,14,14,14,,,,,,,,,,,,,,,,,,,,,,,,,False,54,55,True,exp2.png,exp1.png,trial_left_image,1,exp2.png,3,exp2.png,exp1.png,1,3,reversed,correct,0.6562188593316713,1,valid_win,319.83926380006596,27,,,,,,,,,,,s_009,3,2020_Nov_17_1525,Reversal,3.2.4,60.00704486673866,
15,exp3.png,exp4.png,2,0,2,0,0,15,15,15,,,,,,,,,,,,,,,,,,,,,,,,,False,55,56,False,exp3.png,exp4.png,trial_right_image,-1,exp4.png,3,exp4.png,exp3.png,1,1,non-reversed,correct,0.9066471702244232,1,valid_win,324.421440300066,28,,,,,,,,,,,s_009,3,2020_Nov_17_1525,Reversal,3.2.4,60.00704486673866,
16,exp1.png,exp2.png,2,0,2,0,0,16,16,16,,,,,,,,,,,,,,,,,,,,,,,,,False,56,57,True,exp2.png,exp1.png,trial_left_image,1,exp2.png,3,exp2.png,exp1.png,1,3,reversed,correct,0.7012979481420207,1,valid_win,329.26983280014247,29,,,,,,,,,,,s_009,3,2020_Nov_17_1525,Reversal,3.2.4,60.00704486673866,
17,exp3.png,exp4.png,2,0,2,0,0,17,17,17,,,,,,,,,,,,,,,,,,,,,,,,,False,57,58,True,exp4.png,exp3.png,trial_left_image,1,exp4.png,3,exp4.png,exp3.png,1,1,non-reversed,correct,0.3247161869420474,1,valid_win,333.785571699962,30,,,,,,,,,,,s_009,3,2020_Nov_17_1525,Reversal,3.2.4,60.00704486673866,
18,exp1.png,exp2.png,2,0,2,0,0,18,18,18,,,,,,,,,,,,,,,,,,,,,,,,,False,58,59,True,exp2.png,exp1.png,trial_left_image,1,exp2.png,3,exp2.png,exp1.png,1,3,reversed,correct,0.9360700728724459,1,valid_win,338.3334099999629,31,,,,,,,,,,,s_009,3,2020_Nov_17_1525,Reversal,3.2.4,60.00704486673866,
19,exp3.png,exp4.png,2,0,2,0,0,19,19,19,,,,,,,,,,,,,,,,,,,,,,,,,False,59,60,False,exp3.png,exp4.png,trial_right_image,-1,exp4.png,3,exp4.png,exp3.png,1,1,non-reversed,correct,0.9078886422254043,1,valid_win,342.74739579996094,32,,,,,,,,,,,s_009,3,2020_Nov_17_1525,Reversal,3.2.4,60.00704486673866,
20,exp1.png,exp2.png,2,0,2,0,0,20,20,20,,,,,,,,,,,,,,,,,,,,,,,,,True,,,,,,,,,,,,,,,,,,,,,,,,,,,,,,,s_009,3,2020_Nov_17_1525,Reversal,3.2.4,60.00704486673866,
,,,2,0,2,0,,,,,0,0,0,0,,,,,,,,,,,,,,,,,,,,,,,,,,,,,,,,,,,,,,,,,,21,78,21,77,,,,,,,s_009,3,2020_Nov_17_1525,Reversal,3.2.4,60.00704486673866,
0,exp1.png,exp2.png,3,0,3,0,0,0,0,0,,,,,,,,,,,,,,,,,,,,,,,,,False,60,61,True,exp2.png,exp1.png,trial_left_image,1,exp2.png,3,exp2.png,exp1.png,1,3,reversed,correct,0.9775887315563747,1,valid_win,360.69126470014453,33,,,,,,,,,,,s_009,3,2020_Nov_17_1525,Reversal,3.2.4,60.00704486673866,
1,exp3.png,exp4.png,3,0,3,0,0,1,1,1,,,,,,,,,,,,,,,,,,,,,,,,,False,61,62,False,exp3.png,exp4.png,trial_right_image,-1,exp4.png,3,exp4.png,exp3.png,1,1,non-reversed,correct,0.9001551451616527,1,valid_win,364.99097339995205,34,,,,,,,,,,,s_009,3,2020_Nov_17_1525,Reversal,3.2.4,60.00704486673866,
2,exp1.png,exp2.png,3,0,3,0,0,2,2,2,,,,,,,,,,,,,,,,,,,,,,,,,False,62,63,True,exp2.png,exp1.png,trial_left_image,1,exp2.png,3,exp2.png,exp1.png,1,3,reversed,correct,0.7100332916536043,1,valid_win,369.40655259997584,35,,,,,,,,,,,s_009,3,2020_Nov_17_1525,Reversal,3.2.4,60.00704486673866,
3,exp3.png,exp4.png,3,0,3,0,0,3,3,3,,,,,,,,,,,,,,,,,,,,,,,,,False,63,64,True,exp4.png,exp3.png,trial_left_image,1,exp4.png,3,exp4.png,exp3.png,1,1,non-reversed,correct,0.38217027570320605,1,valid_win,373.7716745999642,36,,,,,,,,,,,s_009,3,2020_Nov_17_1525,Reversal,3.2.4,60.00704486673866,
4,exp1.png,exp2.png,3,0,3,0,0,4,4,4,,,,,,,,,,,,,,,,,,,,,,,,,False,64,65,True,exp2.png,exp1.png,trial_left_image,1,exp2.png,3,exp2.png,exp1.png,1,3,reversed,correct,0.6076880863294264,1,valid_win,378.0369828999974,37,,,,,,,,,,,s_009,3,2020_Nov_17_1525,Reversal,3.2.4,60.00704486673866,
5,exp3.png,exp4.png,3,0,3,0,0,5,5,5,,,,,,,,,,,,,,,,,,,,,,,,,False,65,66,False,exp3.png,exp4.png,trial_right_image,-1,exp4.png,3,exp4.png,exp3.png,1,1,non-reversed,correct,0.5352259153809618,1,valid_win,382.28516179998405,38,,,,,,,,,,,s_009,3,2020_Nov_17_1525,Reversal,3.2.4,60.00704486673866,
6,exp1.png,exp2.png,3,0,3,0,0,6,6,6,,,,,,,,,,,,,,,,,,,,,,,,,False,66,67,False,exp1.png,exp2.png,trial_left_image,1,exp1.png,3,exp2.png,exp1.png,0,4,reversed,incorrect,0.2655303242414696,0,valid_lose,386.7156218001619,38,,,,,,,,,,,s_009,3,2020_Nov_17_1525,Reversal,3.2.4,60.00704486673866,
7,exp3.png,exp4.png,3,0,3,0,0,7,7,7,,,,,,,,,,,,,,,,,,,,,,,,,False,67,68,True,exp4.png,exp3.png,trial_left_image,1,exp4.png,3,exp4.png,exp3.png,1,1,non-reversed,correct,0.8834600744994556,1,valid_win,391.19886320014484,39,,,,,,,,,,,s_009,3,2020_Nov_17_1525,Reversal,3.2.4,60.00704486673866,
8,exp1.png,exp2.png,3,0,3,0,0,8,8,8,,,,,,,,,,,,,,,,,,,,,,,,,False,68,69,False,exp1.png,exp2.png,trial_right_image,-1,exp2.png,3,exp2.png,exp1.png,1,3,reversed,correct,0.8285275242543152,1,valid_win,395.3473003001418,40,,,,,,,,,,,s_009,3,2020_Nov_17_1525,Reversal,3.2.4,60.00704486673866,
9,exp3.png,exp4.png,3,0,3,0,0,9,9,9,,,,,,,,,,,,,,,,,,,,,,,,,False,69,70,False,exp3.png,exp4.png,trial_right_image,-1,exp4.png,3,exp4.png,exp3.png,1,1,non-reversed,correct,0.9786438686169529,1,valid_win,399.44619689998217,41,,,,,,,,,,,s_009,3,2020_Nov_17_1525,Reversal,3.2.4,60.00704486673866,
10,exp1.png,exp2.png,3,0,3,0,0,10,10,10,,,,,,,,,,,,,,,,,,,,,,,,,False,70,71,False,exp1.png,exp2.png,trial_right_image,-1,exp2.png,3,exp2.png,exp1.png,1,3,reversed,correct,0.6946339668913736,1,valid_win,403.811158800032,42,,,,,,,,,,,s_009,3,2020_Nov_17_1525,Reversal,3.2.4,60.00704486673866,
11,exp3.png,exp4.png,3,0,3,0,0,11,11,11,,,,,,,,,,,,,,,,,,,,,,,,,False,71,72,True,exp4.png,exp3.png,trial_left_image,1,exp4.png,3,exp4.png,exp3.png,1,1,non-reversed,correct,0.6379186560696347,1,valid_win,408.259876600001,43,,,,,,,,,,,s_009,3,2020_Nov_17_1525,Reversal,3.2.4,60.00704486673866,
12,exp1.png,exp2.png,3,0,3,0,0,12,12,12,,,,,,,,,,,,,,,,,,,,,,,,,False,72,73,False,exp1.png,exp2.png,trial_right_image,-1,exp2.png,3,exp2.png,exp1.png,1,3,reversed,correct,0.5206385941863159,1,valid_win,412.3749579000287,44,,,,,,,,,,,s_009,3,2020_Nov_17_1525,Reversal,3.2.4,60.00704486673866,
13,exp3.png,exp4.png,3,0,3,0,0,13,13,13,,,,,,,,,,,,,,,,,,,,,,,,,False,73,74,True,exp4.png,exp3.png,trial_left_image,1,exp4.png,3,exp4.png,exp3.png,1,1,non-reversed,correct,0.03846829499471727,0,invalid_lose,416.856813600054,44,,,,,,,,,,,s_009,3,2020_Nov_17_1525,Reversal,3.2.4,60.00704486673866,
14,exp1.png,exp2.png,3,0,3,0,0,14,14,14,,,,,,,,,,,,,,,,,,,,,,,,,False,74,75,True,exp2.png,exp1.png,trial_left_image,1,exp2.png,3,exp2.png,exp1.png,1,3,reversed,correct,0.7378626208485631,1,valid_win,423.737562000053,45,,,,,,,,,,,s_009,3,2020_Nov_17_1525,Reversal,3.2.4,60.00704486673866,
15,exp3.png,exp4.png,3,0,3,0,0,15,15,15,,,,,,,,,,,,,,,,,,,,,,,,,False,75,76,False,exp3.png,exp4.png,trial_right_image,-1,exp4.png,3,exp4.png,exp3.png,1,1,non-reversed,correct,0.4923859464058882,1,valid_win,428.6695269001648,46,,,,,,,,,,,s_009,3,2020_Nov_17_1525,Reversal,3.2.4,60.00704486673866,
16,exp1.png,exp2.png,3,0,3,0,0,16,16,16,,,,,,,,,,,,,,,,,,,,,,,,,False,76,77,True,exp2.png,exp1.png,trial_left_image,1,exp2.png,3,exp2.png,exp1.png,1,3,reversed,correct,0.7116843594580319,1,valid_win,433.401353900088,47,,,,,,,,,,,s_009,3,2020_Nov_17_1525,Reversal,3.2.4,60.00704486673866,
17,exp3.png,exp4.png,3,0,3,0,0,17,17,17,,,,,,,,,,,,,,,,,,,,,,,,,False,77,78,False,exp3.png,exp4.png,trial_right_image,-1,exp4.png,3,exp4.png,exp3.png,1,1,non-reversed,correct,0.5076566272973088,1,valid_win,437.5170092000626,48,,,,,,,,,,,s_009,3,2020_Nov_17_1525,Reversal,3.2.4,60.00704486673866,
18,exp1.png,exp2.png,3,0,3,0,0,18,18,18,,,,,,,,,,,,,,,,,,,,,,,,,False,78,79,True,exp2.png,exp1.png,trial_left_image,1,exp2.png,3,exp2.png,exp1.png,1,3,reversed,correct,0.1894374636456333,0,invalid_lose,441.9151994001586,48,,,,,,,,,,,s_009,3,2020_Nov_17_1525,Reversal,3.2.4,60.00704486673866,
19,exp3.png,exp4.png,3,0,3,0,0,19,19,19,,,,,,,,,,,,,,,,,,,,,,,,,False,79,80,False,exp3.png,exp4.png,trial_right_image,-1,exp4.png,3,exp4.png,exp3.png,1,1,non-reversed,correct,0.3578684643236113,1,valid_win,447.2128105000593,49,,,,,,,,,,,s_009,3,2020_Nov_17_1525,Reversal,3.2.4,60.00704486673866,
20,exp1.png,exp2.png,3,0,3,0,0,20,20,20,,,,,,,,,,,,,,,,,,,,,,,,,True,,,,,,,,,,,,,,,,,,,,,,,,,,,,,,,s_009,3,2020_Nov_17_1525,Reversal,3.2.4,60.00704486673866,
,,,3,0,3,0,,,,,0,0,0,0,,,,,,,,,,,,,,,,,,,,,,,,,,,,,,,,,,,,,,,,,,20,62,17,78,,,,,,,s_009,3,2020_Nov_17_1525,Reversal,3.2.4,60.00704486673866,
0,exp1.png,exp2.png,,,,,,,,,,,,,,,,,0,0,0,0,0,0,0,0,,,,,,,,,False,0,81,True,exp2.png,exp1.png,trial_left_image,1,exp2.png,3,exp1.png,exp2.png,1,3,reversed,incorrect,0.7808979823627493,0,valid_lose,468.9895808000583,49,,,,,466.5800370001234,,,,,,s_009,3,2020_Nov_17_1525,Reversal,3.2.4,60.00704486673866,
1,exp3.png,exp4.png,,,,,,,,,,,,,,,,,0,0,0,0,0,1,1,1,,,,,,,,,False,1,82,False,exp3.png,exp4.png,trial_right_image,-1,exp4.png,3,exp4.png,exp3.png,1,1,non-reversed,correct,0.7294572743435086,1,valid_win,473.3208559001796,50,,,,,,,,,,,s_009,3,2020_Nov_17_1525,Reversal,3.2.4,60.00704486673866,
2,exp1.png,exp2.png,,,,,,,,,,,,,,,,,0,0,0,0,0,2,2,2,,,,,,,,,False,2,83,False,exp1.png,exp2.png,trial_right_image,-1,exp2.png,3,exp1.png,exp2.png,1,3,reversed,incorrect,0.15706110841863952,1,invalid_win,477.9185470000375,51,,,,,,,,,,,s_009,3,2020_Nov_17_1525,Reversal,3.2.4,60.00704486673866,
3,exp3.png,exp4.png,,,,,,,,,,,,,,,,,0,0,0,0,0,3,3,3,,,,,,,,,False,3,84,True,exp4.png,exp3.png,trial_left_image,1,exp4.png,3,exp4.png,exp3.png,1,1,non-reversed,correct,0.6631496670022087,1,valid_win,482.28386710002087,52,,,,,,,,,,,s_009,3,2020_Nov_17_1525,Reversal,3.2.4,60.00704486673866,
4,exp1.png,exp2.png,,,,,,,,,,,,,,,,,0,0,0,0,0,4,4,4,,,,,,,,,False,4,85,False,exp1.png,exp2.png,trial_right_image,-1,exp2.png,3,exp1.png,exp2.png,1,3,reversed,incorrect,0.9912777781116048,0,valid_lose,486.6835805999581,52,,,,,,,,,,,s_009,3,2020_Nov_17_1525,Reversal,3.2.4,60.00704486673866,
5,exp3.png,exp4.png,,,,,,,,,,,,,,,,,0,0,0,0,0,5,5,5,,,,,,,,,False,5,86,False,exp3.png,exp4.png,trial_right_image,-1,exp4.png,3,exp4.png,exp3.png,1,1,non-reversed,correct,0.37791782450609424,1,valid_win,491.38172259996645,53,,,,,,,,,,,s_009,3,2020_Nov_17_1525,Reversal,3.2.4,60.00704486673866,
6,exp1.png,exp2.png,,,,,,,,,,,,,,,,,0,0,0,0,0,6,6,6,,,,,,,,,False,6,87,False,exp1.png,exp2.png,trial_right_image,-1,exp2.png,3,exp1.png,exp2.png,1,3,reversed,incorrect,0.9012573098575959,0,valid_lose,495.58084570011124,53,,,,,,,,,,,s_009,3,2020_Nov_17_1525,Reversal,3.2.4,60.00704486673866,
7,exp3.png,exp4.png,,,,,,,,,,,,,,,,,0,0,0,0,0,7,7,7,,,,,,,,,False,7,88,True,exp4.png,exp3.png,trial_left_image,1,exp4.png,3,exp4.png,exp3.png,1,1,non-reversed,correct,0.8646087153386173,1,valid_win,500.1624048000667,54,,,,,,,,,,,s_009,3,2020_Nov_17_1525,Reversal,3.2.4,60.00704486673866,
8,exp1.png,exp2.png,,,,,,,,,,,,,,,,,0,0,0,0,0,8,8,8,,,,,,,,,False,8,89,True,exp2.png,exp1.png,trial_right_image,-1,exp1.png,3,exp1.png,exp2.png,0,4,reversed,correct,0.13193952239451578,0,invalid_lose,505.09378590015694,54,,,,,,,,,,,s_009,3,2020_Nov_17_1525,Reversal,3.2.4,60.00704486673866,
9,exp3.png,exp4.png,,,,,,,,,,,,,,,,,0,0,0,0,0,9,9,9,,,,,,,,,False,9,90,True,exp4.png,exp3.png,trial_left_image,1,exp4.png,3,exp4.png,exp3.png,1,1,non-reversed,correct,0.11372209996359495,0,invalid_lose,509.54247940005735,54,,,,,,,,,,,s_009,3,2020_Nov_17_1525,Reversal,3.2.4,60.00704486673866,
10,exp1.png,exp2.png,,,,,,,,,,,,,,,,,0,0,0,0,0,10,10,10,,,,,,,,,False,10,91,False,exp1.png,exp2.png,trial_right_image,-1,exp2.png,3,exp1.png,exp2.png,1,3,reversed,incorrect,0.3240047263845569,0,valid_lose,513.7413717999589,54,,,,,,,,,,,s_009,3,2020_Nov_17_1525,Reversal,3.2.4,60.00704486673866,
11,exp3.png,exp4.png,,,,,,,,,,,,,,,,,0,0,0,0,0,11,11,11,,,,,,,,,False,11,92,True,exp4.png,exp3.png,trial_left_image,1,exp4.png,3,exp4.png,exp3.png,1,1,non-reversed,correct,0.6136452150098679,1,valid_win,518.2064271001145,55,,,,,,,,,,,s_009,3,2020_Nov_17_1525,Reversal,3.2.4,60.00704486673866,
12,exp1.png,exp2.png,,,,,,,,,,,,,,,,,0,0,0,0,0,12,12,12,,,,,,,,,False,12,93,True,exp2.png,exp1.png,trial_left_image,1,exp2.png,3,exp1.png,exp2.png,1,3,reversed,incorrect,0.6090623449673196,0,valid_lose,522.6713179999497,55,,,,,,,,,,,s_009,3,2020_Nov_17_1525,Reversal,3.2.4,60.00704486673866,
13,exp3.png,exp4.png,,,,,,,,,,,,,,,,,0,0,0,0,0,13,13,13,,,,,,,,,False,13,94,False,exp3.png,exp4.png,trial_right_image,-1,exp4.png,3,exp4.png,exp3.png,1,1,non-reversed,correct,0.695395279484956,1,valid_win,527.0183214000426,56,,,,,,,,,,,s_009,3,2020_Nov_17_1525,Reversal,3.2.4,60.00704486673866,
14,exp1.png,exp2.png,,,,,,,,,,,,,,,,,0,0,0,0,0,14,14,14,,,,,,,,,False,14,95,False,exp1.png,exp2.png,trial_right_image,-1,exp2.png,3,exp1.png,exp2.png,1,3,reversed,incorrect,0.8111165629438137,0,valid_lose,531.3018261999823,56,,,,,,,,,,,s_009,3,2020_Nov_17_1525,Reversal,3.2.4,60.00704486673866,
15,exp3.png,exp4.png,,,,,,,,,,,,,,,,,0,0,0,0,0,15,15,15,,,,,,,,,False,15,96,True,exp4.png,exp3.png,trial_left_image,1,exp4.png,3,exp4.png,exp3.png,1,1,non-reversed,correct,0.03159939415796997,0,invalid_lose,537.4162044001278,56,,,,,,,,,,,s_009,3,2020_Nov_17_1525,Reversal,3.2.4,60.00704486673866,
16,exp1.png,exp2.png,,,,,,,,,,,,,,,,,0,0,0,0,0,16,16,16,,,,,,,,,False,16,97,True,exp2.png,exp1.png,trial_left_image,1,exp2.png,3,exp1.png,exp2.png,1,3,reversed,incorrect,0.2959378825862181,0,valid_lose,542.0301528000273,56,,,,,,,,,,,s_009,3,2020_Nov_17_1525,Reversal,3.2.4,60.00704486673866,
17,exp3.png,exp4.png,,,,,,,,,,,,,,,,,0,0,0,0,0,17,17,17,,,,,,,,,False,17,98,False,exp3.png,exp4.png,trial_right_image,-1,exp4.png,3,exp4.png,exp3.png,1,1,non-reversed,correct,0.9682420649049944,1,valid_win,546.5299496999942,57,,,,,,,,,,,s_009,3,2020_Nov_17_1525,Reversal,3.2.4,60.00704486673866,
18,exp1.png,exp2.png,,,,,,,,,,,,,,,,,0,0,0,0,0,18,18,18,,,,,,,,,False,18,99,False,exp1.png,exp2.png,trial_right_image,-1,exp2.png,3,exp1.png,exp2.png,1,3,reversed,incorrect,0.1995565003073545,1,invalid_win,551.1440489001106,58,,,,,,,,,,,s_009,3,2020_Nov_17_1525,Reversal,3.2.4,60.00704486673866,
19,exp3.png,exp4.png,,,,,,,,,,,,,,,,,0,0,0,0,0,19,19,19,,,,,,,,,False,19,100,True,exp4.png,exp3.png,trial_right_image,-1,exp3.png,3,exp4.png,exp3.png,0,2,non-reversed,incorrect,0.6990807446569398,0,valid_lose,555.8778558999766,58,,,,,,,,,,,s_009,3,2020_Nov_17_1525,Reversal,3.2.4,60.00704486673866,
20,exp1.png,exp2.png,,,,,,,,,,,,,,,,,0,0,0,0,0,20,20,20,,,,,,,,,True,,,,,,,,,,,,,,,,,,,,,,,,,,,,,,,s_009,3,2020_Nov_17_1525,Reversal,3.2.4,60.00704486673866,
,,,,,,,,,,,,,,,,,,,0,0,0,0,,,,,0,0,0,0,,,,,,,,,,,,,,,,,,,,,,,,,,25,61,33,59,,,,,,,s_009,3,2020_Nov_17_1525,Reversal,3.2.4,60.00704486673866,
0,exp1.png,exp2.png,,,,,,,,,,,,,,,,,1,0,1,0,0,0,0,0,,,,,,,,,False,20,101,True,exp2.png,exp1.png,trial_left_image,1,exp2.png,3,exp1.png,exp2.png,1,3,reversed,incorrect,0.6535950541698711,0,valid_lose,573.6874433001503,58,,,,,,,,,,,s_009,3,2020_Nov_17_1525,Reversal,3.2.4,60.00704486673866,
1,exp3.png,exp4.png,,,,,,,,,,,,,,,,,1,0,1,0,0,1,1,1,,,,,,,,,False,21,102,True,exp4.png,exp3.png,trial_left_image,1,exp4.png,3,exp4.png,exp3.png,1,1,non-reversed,correct,0.44656900555191437,1,valid_win,578.2013946999796,59,,,,,,,,,,,s_009,3,2020_Nov_17_1525,Reversal,3.2.4,60.00704486673866,
2,exp1.png,exp2.png,,,,,,,,,,,,,,,,,1,0,1,0,0,2,2,2,,,,,,,,,False,22,103,False,exp1.png,exp2.png,trial_right_image,-1,exp2.png,3,exp1.png,exp2.png,1,3,reversed,incorrect,0.2833135882172423,0,valid_lose,582.4012303000782,59,,,,,,,,,,,s_009,3,2020_Nov_17_1525,Reversal,3.2.4,60.00704486673866,
3,exp3.png,exp4.png,,,,,,,,,,,,,,,,,1,0,1,0,0,3,3,3,,,,,,,,,False,23,104,False,exp3.png,exp4.png,trial_right_image,-1,exp4.png,3,exp4.png,exp3.png,1,1,non-reversed,correct,0.2376908266352551,0,invalid_lose,592.5811742001679,59,,,,,,,,,,,s_009,3,2020_Nov_17_1525,Reversal,3.2.4,60.00704486673866,
4,exp1.png,exp2.png,,,,,,,,,,,,,,,,,1,0,1,0,0,4,4,4,,,,,,,,,False,24,105,False,exp1.png,exp2.png,trial_left_image,1,exp1.png,3,exp1.png,exp2.png,0,4,reversed,correct,0.4378636959779758,1,valid_win,599.410884300014,60,,,,,,,,,,,s_009,3,2020_Nov_17_1525,Reversal,3.2.4,60.00704486673866,
5,exp3.png,exp4.png,,,,,,,,,,,,,,,,,1,0,1,0,0,5,5,5,,,,,,,,,False,25,106,False,exp3.png,exp4.png,trial_left_image,1,exp3.png,3,exp4.png,exp3.png,0,2,non-reversed,incorrect,0.30407601443861765,0,valid_lose,604.5931768000592,60,,,,,,,,,,,s_009,3,2020_Nov_17_1525,Reversal,3.2.4,60.00704486673866,
6,exp1.png,exp2.png,,,,,,,,,,,,,,,,,1,0,1,0,0,6,6,6,,,,,,,,,False,26,107,False,exp1.png,exp2.png,trial_right_image,-1,exp2.png,3,exp1.png,exp2.png,1,3,reversed,incorrect,0.9207978893205765,0,valid_lose,609.0425859000534,60,,,,,,,,,,,s_009,3,2020_Nov_17_1525,Reversal,3.2.4,60.00704486673866,
7,exp3.png,exp4.png,,,,,,,,,,,,,,,,,1,0,1,0,0,7,7,7,,,,,,,,,False,27,108,False,exp3.png,exp4.png,trial_right_image,-1,exp4.png,3,exp4.png,exp3.png,1,1,non-reversed,correct,0.5633352441406989,1,valid_win,613.4741424000822,61,,,,,,,,,,,s_009,3,2020_Nov_17_1525,Reversal,3.2.4,60.00704486673866,
8,exp1.png,exp2.png,,,,,,,,,,,,,,,,,1,0,1,0,0,8,8,8,,,,,,,,,False,28,109,False,exp1.png,exp2.png,trial_right_image,-1,exp2.png,3,exp1.png,exp2.png,1,3,reversed,incorrect,0.9742063792692225,0,valid_lose,619.3209697001148,61,,,,,,,,,,,s_009,3,2020_Nov_17_1525,Reversal,3.2.4,60.00704486673866,
9,exp3.png,exp4.png,,,,,,,,,,,,,,,,,1,0,1,0,0,9,9,9,,,,,,,,,False,29,110,True,exp4.png,exp3.png,trial_left_image,1,exp4.png,3,exp4.png,exp3.png,1,1,non-reversed,correct,0.686325840148828,1,valid_win,623.5042670001276,62,,,,,,,,,,,s_009,3,2020_Nov_17_1525,Reversal,3.2.4,60.00704486673866,
10,exp1.png,exp2.png,,,,,,,,,,,,,,,,,1,0,1,0,0,10,10,10,,,,,,,,,False,30,111,True,exp2.png,exp1.png,trial_right_image,-1,exp1.png,3,exp1.png,exp2.png,0,4,reversed,correct,0.6500062859247911,1,valid_win,629.8685790000018,63,,,,,,,,,,,s_009,3,2020_Nov_17_1525,Reversal,3.2.4,60.00704486673866,
11,exp3.png,exp4.png,,,,,,,,,,,,,,,,,1,0,1,0,0,11,11,11,,,,,,,,,False,31,112,True,exp4.png,exp3.png,trial_left_image,1,exp4.png,3,exp4.png,exp3.png,1,1,non-reversed,correct,0.39912505911408236,1,valid_win,634.616905500181,64,,,,,,,,,,,s_009,3,2020_Nov_17_1525,Reversal,3.2.4,60.00704486673866,
12,exp1.png,exp2.png,,,,,,,,,,,,,,,,,1,0,1,0,0,12,12,12,,,,,,,,,False,32,113,False,exp1.png,exp2.png,trial_right_image,-1,exp2.png,3,exp1.png,exp2.png,1,3,reversed,incorrect,0.7359996714122129,0,valid_lose,639.0652891001664,64,,,,,,,,,,,s_009,3,2020_Nov_17_1525,Reversal,3.2.4,60.00704486673866,
13,exp3.png,exp4.png,,,,,,,,,,,,,,,,,1,0,1,0,0,13,13,13,,,,,,,,,False,33,114,True,exp4.png,exp3.png,trial_left_image,1,exp4.png,3,exp4.png,exp3.png,1,1,non-reversed,correct,0.23070046370905495,0,invalid_lose,643.1475379001349,64,,,,,,,,,,,s_009,3,2020_Nov_17_1525,Reversal,3.2.4,60.00704486673866,
14,exp1.png,exp2.png,,,,,,,,,,,,,,,,,1,0,1,0,0,14,14,14,,,,,,,,,False,34,115,True,exp2.png,exp1.png,trial_right_image,-1,exp1.png,3,exp1.png,exp2.png,0,4,reversed,correct,0.5840763761202971,1,valid_win,647.3298267000355,65,,,,,,,,,,,s_009,3,2020_Nov_17_1525,Reversal,3.2.4,60.00704486673866,
15,exp3.png,exp4.png,,,,,,,,,,,,,,,,,1,0,1,0,0,15,15,15,,,,,,,,,False,35,116,True,exp4.png,exp3.png,trial_left_image,1,exp4.png,3,exp4.png,exp3.png,1,1,non-reversed,correct,0.6963615533108408,1,valid_win,651.8945679001044,66,,,,,,,,,,,s_009,3,2020_Nov_17_1525,Reversal,3.2.4,60.00704486673866,
16,exp1.png,exp2.png,,,,,,,,,,,,,,,,,1,0,1,0,0,16,16,16,,,,,,,,,False,36,117,False,exp1.png,exp2.png,trial_right_image,-1,exp2.png,3,exp1.png,exp2.png,1,3,reversed,incorrect,0.13073572372980768,1,invalid_win,656.1928067000117,67,,,,,,,,,,,s_009,3,2020_Nov_17_1525,Reversal,3.2.4,60.00704486673866,
17,exp3.png,exp4.png,,,,,,,,,,,,,,,,,1,0,1,0,0,17,17,17,,,,,,,,,False,37,118,False,exp3.png,exp4.png,trial_right_image,-1,exp4.png,3,exp4.png,exp3.png,1,1,non-reversed,correct,0.7838279007767013,1,valid_win,660.4401104999706,68,,,,,,,,,,,s_009,3,2020_Nov_17_1525,Reversal,3.2.4,60.00704486673866,
18,exp1.png,exp2.png,,,,,,,,,,,,,,,,,1,0,1,0,0,18,18,18,,,,,,,,,False,38,119,True,exp2.png,exp1.png,trial_left_image,1,exp2.png,3,exp1.png,exp2.png,1,3,reversed,incorrect,0.8186578904953776,0,valid_lose,664.7895975001156,68,,,,,,,,,,,s_009,3,2020_Nov_17_1525,Reversal,3.2.4,60.00704486673866,
19,exp3.png,exp4.png,,,,,,,,,,,,,,,,,1,0,1,0,0,19,19,19,,,,,,,,,False,39,120,True,exp4.png,exp3.png,trial_left_image,1,exp4.png,3,exp4.png,exp3.png,1,1,non-reversed,correct,0.7479738354569059,1,valid_win,668.9386678000446,69,,,,,,,,,,,s_009,3,2020_Nov_17_1525,Reversal,3.2.4,60.00704486673866,
20,exp1.png,exp2.png,,,,,,,,,,,,,,,,,1,0,1,0,0,20,20,20,,,,,,,,,True,,,,,,,,,,,,,,,,,,,,,,,,,,,,,,,s_009,3,2020_Nov_17_1525,Reversal,3.2.4,60.00704486673866,
,,,,,,,,,,,,,,,,,,,1,0,1,0,,,,,0,0,0,0,,,,,,,,,,,,,,,,,,,,,,,,,,60,65,37,72,,,,,,,s_009,3,2020_Nov_17_1525,Reversal,3.2.4,60.00704486673866,
0,exp1.png,exp2.png,,,,,,,,,,,,,,,,,2,0,2,0,0,0,0,0,,,,,,,,,False,40,121,False,exp1.png,exp2.png,trial_right_image,-1,exp2.png,3,exp1.png,exp2.png,1,3,reversed,incorrect,0.11890499413492839,1,invalid_win,688.5324097999837,70,,,,,,,,,,,s_009,3,2020_Nov_17_1525,Reversal,3.2.4,60.00704486673866,
1,exp3.png,exp4.png,,,,,,,,,,,,,,,,,2,0,2,0,0,1,1,1,,,,,,,,,False,41,122,False,exp3.png,exp4.png,trial_left_image,1,exp3.png,3,exp4.png,exp3.png,0,2,non-reversed,incorrect,0.7305542354113532,0,valid_lose,692.3475425001234,70,,,,,,,,,,,s_009,3,2020_Nov_17_1525,Reversal,3.2.4,60.00704486673866,
2,exp1.png,exp2.png,,,,,,,,,,,,,,,,,2,0,2,0,0,2,2,2,,,,,,,,,False,42,123,False,exp1.png,exp2.png,trial_right_image,-1,exp2.png,3,exp1.png,exp2.png,1,3,reversed,incorrect,0.23061435164554023,1,invalid_win,696.2795045000967,71,,,,,,,,,,,s_009,3,2020_Nov_17_1525,Reversal,3.2.4,60.00704486673866,
3,exp3.png,exp4.png,,,,,,,,,,,,,,,,,2,0,2,0,0,3,3,3,,,,,,,,,False,43,124,False,exp3.png,exp4.png,trial_right_image,-1,exp4.png,3,exp4.png,exp3.png,1,1,non-reversed,correct,0.6954231217216147,1,valid_win,700.3280549000483,72,,,,,,,,,,,s_009,3,2020_Nov_17_1525,Reversal,3.2.4,60.00704486673866,
4,exp1.png,exp2.png,,,,,,,,,,,,,,,,,2,0,2,0,0,4,4,4,,,,,,,,,False,44,125,True,exp2.png,exp1.png,trial_left_image,1,exp2.png,3,exp1.png,exp2.png,1,3,reversed,incorrect,0.8703076229566682,0,valid_lose,705.376430900069,72,,,,,,,,,,,s_009,3,2020_Nov_17_1525,Reversal,3.2.4,60.00704486673866,
5,exp3.png,exp4.png,,,,,,,,,,,,,,,,,2,0,2,0,0,5,5,5,,,,,,,,,False,45,126,False,exp3.png,exp4.png,trial_right_image,-1,exp4.png,3,exp4.png,exp3.png,1,1,non-reversed,correct,0.5622891240177889,1,valid_win,709.2583127999678,73,,,,,,,,,,,s_009,3,2020_Nov_17_1525,Reversal,3.2.4,60.00704486673866,
6,exp1.png,exp2.png,,,,,,,,,,,,,,,,,2,0,2,0,0,6,6,6,,,,,,,,,False,46,127,True,exp2.png,exp1.png,trial_left_image,1,exp2.png,3,exp1.png,exp2.png,1,3,reversed,incorrect,0.23408556770428757,1,invalid_win,714.0056417000014,74,,,,,,,,,,,s_009,3,2020_Nov_17_1525,Reversal,3.2.4,60.00704486673866,
7,exp3.png,exp4.png,,,,,,,,,,,,,,,,,2,0,2,0,0,7,7,7,,,,,,,,,False,47,128,True,exp4.png,exp3.png,trial_left_image,1,exp4.png,3,exp4.png,exp3.png,1,1,non-reversed,correct,0.7302650750670179,1,valid_win,718.9551631000359,75,,,,,,,,,,,s_009,3,2020_Nov_17_1525,Reversal,3.2.4,60.00704486673866,
8,exp1.png,exp2.png,,,,,,,,,,,,,,,,,2,0,2,0,0,8,8,8,,,,,,,,,False,48,129,True,exp2.png,exp1.png,trial_left_image,1,exp2.png,3,exp1.png,exp2.png,1,3,reversed,incorrect,0.8719047160643457,0,valid_lose,724.0197932999581,75,,,,,,,,,,,s_009,3,2020_Nov_17_1525,Reversal,3.2.4,60.00704486673866,
9,exp3.png,exp4.png,,,,,,,,,,,,,,,,,2,0,2,0,0,9,9,9,,,,,,,,,False,49,130,False,exp3.png,exp4.png,trial_right_image,-1,exp4.png,3,exp4.png,exp3.png,1,1,non-reversed,correct,0.7388028118720016,1,valid_win,728.2022967000958,76,,,,,,,,,,,s_009,3,2020_Nov_17_1525,Reversal,3.2.4,60.00704486673866,
10,exp1.png,exp2.png,,,,,,,,,,,,,,,,,2,0,2,0,0,10,10,10,,,,,,,,,False,50,131,True,exp2.png,exp1.png,trial_left_image,1,exp2.png,3,exp1.png,exp2.png,1,3,reversed,incorrect,0.16635111628599175,1,invalid_win,733.2504602000117,77,,,,,,,,,,,s_009,3,2020_Nov_17_1525,Reversal,3.2.4,60.00704486673866,
11,exp3.png,exp4.png,,,,,,,,,,,,,,,,,2,0,2,0,0,11,11,11,,,,,,,,,False,51,132,False,exp3.png,exp4.png,trial_right_image,-1,exp4.png,3,exp4.png,exp3.png,1,1,non-reversed,correct,0.44064134033827385,1,valid_win,737.7312839999795,78,,,,,,,,,,,s_009,3,2020_Nov_17_1525,Reversal,3.2.4,60.00704486673866,
12,exp1.png,exp2.png,,,,,,,,,,,,,,,,,2,0,2,0,0,12,12,12,,,,,,,,,False,52,133,True,exp2.png,exp1.png,trial_left_image,1,exp2.png,3,exp1.png,exp2.png,1,3,reversed,incorrect,0.912794005023223,0,valid_lose,743.2139824000187,78,,,,,,,,,,,s_009,3,2020_Nov_17_1525,Reversal,3.2.4,60.00704486673866,
13,exp3.png,exp4.png,,,,,,,,,,,,,,,,,2,0,2,0,0,13,13,13,,,,,,,,,False,53,134,False,exp3.png,exp4.png,trial_right_image,-1,exp4.png,3,exp4.png,exp3.png,1,1,non-reversed,correct,0.10295896058803355,0,invalid_lose,747.329181500012,78,,,,,,,,,,,s_009,3,2020_Nov_17_1525,Reversal,3.2.4,60.00704486673866,
14,exp1.png,exp2.png,,,,,,,,,,,,,,,,,2,0,2,0,0,14,14,14,,,,,,,,,False,54,135,True,exp2.png,exp1.png,trial_left_image,1,exp2.png,3,exp1.png,exp2.png,1,3,reversed,incorrect,0.7825269276800172,0,valid_lose,752.9605046000797,78,,,,,,,,,,,s_009,3,2020_Nov_17_1525,Reversal,3.2.4,60.00704486673866,
15,exp3.png,exp4.png,,,,,,,,,,,,,,,,,2,0,2,0,0,15,15,15,,,,,,,,,False,55,136,True,exp4.png,exp3.png,trial_right_image,-1,exp3.png,3,exp4.png,exp3.png,0,2,non-reversed,incorrect,0.3327432185421474,0,valid_lose,757.2254318001214,78,,,,,,,,,,,s_009,3,2020_Nov_17_1525,Reversal,3.2.4,60.00704486673866,
16,exp1.png,exp2.png,,,,,,,,,,,,,,,,,2,0,2,0,0,16,16,16,,,,,,,,,False,56,137,False,exp1.png,exp2.png,trial_right_image,-1,exp2.png,3,exp1.png,exp2.png,1,3,reversed,incorrect,0.3955086046997113,0,valid_lose,761.3916726000607,78,,,,,,,,,,,s_009,3,2020_Nov_17_1525,Reversal,3.2.4,60.00704486673866,
17,exp3.png,exp4.png,,,,,,,,,,,,,,,,,2,0,2,0,0,17,17,17,,,,,,,,,False,57,138,True,exp4.png,exp3.png,trial_left_image,1,exp4.png,3,exp4.png,exp3.png,1,1,non-reversed,correct,0.924784536515198,1,valid_win,765.6892666001804,79,,,,,,,,,,,s_009,3,2020_Nov_17_1525,Reversal,3.2.4,60.00704486673866,
18,exp1.png,exp2.png,,,,,,,,,,,,,,,,,2,0,2,0,0,18,18,18,,,,,,,,,False,58,139,True,exp2.png,exp1.png,trial_left_image,1,exp2.png,3,exp1.png,exp2.png,1,3,reversed,incorrect,0.7845757721551287,0,valid_lose,769.7379909001756,79,,,,,,,,,,,s_009,3,2020_Nov_17_1525,Reversal,3.2.4,60.00704486673866,
19,exp3.png,exp4.png,,,,,,,,,,,,,,,,,2,0,2,0,0,19,19,19,,,,,,,,,False,59,140,False,exp3.png,exp4.png,trial_right_image,-1,exp4.png,3,exp4.png,exp3.png,1,1,non-reversed,correct,0.40870480281722854,1,valid_win,774.4031281999778,80,,,,,,,,,,,s_009,3,2020_Nov_17_1525,Reversal,3.2.4,60.00704486673866,
20,exp1.png,exp2.png,,,,,,,,,,,,,,,,,2,0,2,0,0,20,20,20,,,,,,,,,True,,,,,,,,,,,,,,,,,,,,,,,,,,,,,,,s_009,3,2020_Nov_17_1525,Reversal,3.2.4,60.00704486673866,
,,,,,,,,,,,,,,,,,,,2,0,2,0,,,,,0,0,0,0,,,,,,,,,,,,,,,,,,,,,,,,,,40,66,35,73,,,,,,,s_009,3,2020_Nov_17_1525,Reversal,3.2.4,60.00704486673866,
,,,,,,,,,,,,,,,,,,,,,,,,,,,,,,,,,,,,,,,,,,,,,,,,,,,,,,,80,,,,,,87,57,30,320.6998286000453,1,,,,,,,
