trial_index,trial_image1_file,trial_image2_file,learning_outer_loop.thisRepN,learning_outer_loop.thisTrialN,learning_outer_loop.thisN,learning_outer_loop.thisIndex,learning_inner_loop.thisRepN,learning_inner_loop.thisTrialN,learning_inner_loop.thisN,learning_inner_loop.thisIndex,learning_estimation_outer_loop.thisRepN,learning_estimation_outer_loop.thisTrialN,learning_estimation_outer_loop.thisN,learning_estimation_outer_loop.thisIndex,learning_estimation_inner_loop.thisRepN,learning_estimation_inner_loop.thisTrialN,learning_estimation_inner_loop.thisN,learning_estimation_inner_loop.thisIndex,reversal_outer_loop.thisRepN,reversal_outer_loop.thisTrialN,reversal_outer_loop.thisN,reversal_outer_loop.thisIndex,reversal_inner_loop.thisRepN,reversal_inner_loop.thisTrialN,reversal_inner_loop.thisN,reversal_inner_loop.thisIndex,reversal_estimation_outer_loop.thisRepN,reversal_estimation_outer_loop.thisTrialN,reversal_estimation_outer_loop.thisN,reversal_estimation_outer_loop.thisIndex,reversal_estimation_inner_loop.thisRepN,reversal_estimation_inner_loop.thisTrialN,reversal_estimation_inner_loop.thisN,reversal_estimation_inner_loop.thisIndex,skipped,total_trial_counter,trial_num,left_right_flip,left_image_file,right_image_file,clicked_stimulus_side,side,clicked_stimulus,version,high_prob_image_file,low_prob_image_file,choice_a,choice_b,pair_type,correct,trial_feedback_random,reward,trial_type,overall_time_after_trial,score,estimation_exp1.png,estimation_exp2.png,estimation_exp3.png,estimation_exp4.png,total_learning_time,total_correct,learning_correct,reversal_correct,total_reversal_time,extra_block,participant,ver,date,expName,psychopyVersion,frameRate,
0,exp1.png,exp2.png,0,0,0,0,0,0,0,0,,,,,,,,,,,,,,,,,,,,,,,,,True,,,,,,,,,,,,,,,,,,,,,,,,,,,,,,,s_007,3,2020_Nov_15_1637,Reversal,3.2.4,59.82074116700771,
1,exp3.png,exp4.png,0,0,0,0,0,1,1,1,,,,,,,,,,,,,,,,,,,,,,,,,False,0,1,True,exp4.png,exp3.png,trial_right_image,-1,exp3.png,3,exp4.png,exp3.png,0,2,non-reversed,incorrect,0.9260638975938812,0,valid_lose,3.7617373999673873,0,,,,,,,,,,,s_007,3,2020_Nov_15_1637,Reversal,3.2.4,59.82074116700771,
2,exp1.png,exp2.png,0,0,0,0,0,2,2,2,,,,,,,,,,,,,,,,,,,,,,,,,False,1,2,False,exp1.png,exp2.png,trial_right_image,-1,exp2.png,3,exp2.png,exp1.png,1,3,reversed,correct,0.11214455320872418,0,invalid_lose,8.277048800024204,0,,,,,,,,,,,s_007,3,2020_Nov_15_1637,Reversal,3.2.4,59.82074116700771,
3,exp3.png,exp4.png,0,0,0,0,0,3,3,3,,,,,,,,,,,,,,,,,,,,,,,,,False,2,3,False,exp3.png,exp4.png,trial_right_image,-1,exp4.png,3,exp4.png,exp3.png,1,1,non-reversed,correct,0.5727276507919539,1,valid_win,13.757607000065036,1,,,,,,,,,,,s_007,3,2020_Nov_15_1637,Reversal,3.2.4,59.82074116700771,
4,exp1.png,exp2.png,0,0,0,0,0,4,4,4,,,,,,,,,,,,,,,,,,,,,,,,,False,3,4,True,exp2.png,exp1.png,trial_right_image,-1,exp1.png,3,exp2.png,exp1.png,0,4,reversed,incorrect,0.7586921425068045,0,valid_lose,17.94034059997648,1,,,,,,,,,,,s_007,3,2020_Nov_15_1637,Reversal,3.2.4,59.82074116700771,
5,exp3.png,exp4.png,0,0,0,0,0,5,5,5,,,,,,,,,,,,,,,,,,,,,,,,,False,4,5,True,exp4.png,exp3.png,trial_left_image,1,exp4.png,3,exp4.png,exp3.png,1,1,non-reversed,correct,0.8195248076790096,1,valid_win,29.519088400062174,2,,,,,,,,,,,s_007,3,2020_Nov_15_1637,Reversal,3.2.4,59.82074116700771,
6,exp1.png,exp2.png,0,0,0,0,0,6,6,6,,,,,,,,,,,,,,,,,,,,,,,,,False,5,6,False,exp1.png,exp2.png,trial_right_image,-1,exp2.png,3,exp2.png,exp1.png,1,3,reversed,correct,0.17697104897990734,0,invalid_lose,35.46654519997537,2,,,,,,,,,,,s_007,3,2020_Nov_15_1637,Reversal,3.2.4,59.82074116700771,
7,exp3.png,exp4.png,0,0,0,0,0,7,7,7,,,,,,,,,,,,,,,,,,,,,,,,,False,6,7,False,exp3.png,exp4.png,trial_left_image,1,exp3.png,3,exp4.png,exp3.png,0,2,non-reversed,incorrect,0.06310844690041228,1,invalid_win,40.63374550000299,3,,,,,,,,,,,s_007,3,2020_Nov_15_1637,Reversal,3.2.4,59.82074116700771,
8,exp1.png,exp2.png,0,0,0,0,0,8,8,8,,,,,,,,,,,,,,,,,,,,,,,,,False,7,8,False,exp1.png,exp2.png,trial_left_image,1,exp1.png,3,exp2.png,exp1.png,0,4,reversed,incorrect,0.1918159186341063,1,invalid_win,45.21374849998392,4,,,,,,,,,,,s_007,3,2020_Nov_15_1637,Reversal,3.2.4,59.82074116700771,
9,exp3.png,exp4.png,0,0,0,0,0,9,9,9,,,,,,,,,,,,,,,,,,,,,,,,,False,8,9,True,exp4.png,exp3.png,trial_left_image,1,exp4.png,3,exp4.png,exp3.png,1,1,non-reversed,correct,0.9022583024452182,1,valid_win,49.57879459997639,5,,,,,,,,,,,s_007,3,2020_Nov_15_1637,Reversal,3.2.4,59.82074116700771,
10,exp1.png,exp2.png,0,0,0,0,0,10,10,10,,,,,,,,,,,,,,,,,,,,,,,,,False,9,10,True,exp2.png,exp1.png,trial_right_image,-1,exp1.png,3,exp2.png,exp1.png,0,4,reversed,incorrect,0.2072044231665563,1,invalid_win,53.64423830003943,6,,,,,,,,,,,s_007,3,2020_Nov_15_1637,Reversal,3.2.4,59.82074116700771,
11,exp3.png,exp4.png,0,0,0,0,0,11,11,11,,,,,,,,,,,,,,,,,,,,,,,,,False,10,11,False,exp3.png,exp4.png,trial_left_image,1,exp3.png,3,exp4.png,exp3.png,0,2,non-reversed,incorrect,0.9137518829720537,0,valid_lose,57.99402390001342,6,,,,,,,,,,,s_007,3,2020_Nov_15_1637,Reversal,3.2.4,59.82074116700771,
12,exp1.png,exp2.png,0,0,0,0,0,12,12,12,,,,,,,,,,,,,,,,,,,,,,,,,False,11,12,False,exp1.png,exp2.png,trial_left_image,1,exp1.png,3,exp2.png,exp1.png,0,4,reversed,incorrect,0.7763784049567336,0,valid_lose,61.92564140004106,6,,,,,,,,,,,s_007,3,2020_Nov_15_1637,Reversal,3.2.4,59.82074116700771,
13,exp3.png,exp4.png,0,0,0,0,0,13,13,13,,,,,,,,,,,,,,,,,,,,,,,,,False,12,13,True,exp4.png,exp3.png,trial_right_image,-1,exp3.png,3,exp4.png,exp3.png,0,2,non-reversed,incorrect,0.22102769262543576,1,invalid_win,66.34024180006236,7,,,,,,,,,,,s_007,3,2020_Nov_15_1637,Reversal,3.2.4,59.82074116700771,
14,exp1.png,exp2.png,0,0,0,0,0,14,14,14,,,,,,,,,,,,,,,,,,,,,,,,,False,13,14,False,exp1.png,exp2.png,trial_left_image,1,exp1.png,3,exp2.png,exp1.png,0,4,reversed,incorrect,0.8644287799759972,0,valid_lose,70.28877890005242,7,,,,,,,,,,,s_007,3,2020_Nov_15_1637,Reversal,3.2.4,59.82074116700771,
15,exp3.png,exp4.png,0,0,0,0,0,15,15,15,,,,,,,,,,,,,,,,,,,,,,,,,False,14,15,True,exp4.png,exp3.png,trial_right_image,-1,exp3.png,3,exp4.png,exp3.png,0,2,non-reversed,incorrect,0.5619927303906577,0,valid_lose,77.62061039998662,7,,,,,,,,,,,s_007,3,2020_Nov_15_1637,Reversal,3.2.4,59.82074116700771,
16,exp1.png,exp2.png,0,0,0,0,0,16,16,16,,,,,,,,,,,,,,,,,,,,,,,,,False,15,16,True,exp2.png,exp1.png,trial_right_image,-1,exp1.png,3,exp2.png,exp1.png,0,4,reversed,incorrect,0.1374635895273828,1,invalid_win,81.51836360001471,8,,,,,,,,,,,s_007,3,2020_Nov_15_1637,Reversal,3.2.4,59.82074116700771,
17,exp3.png,exp4.png,0,0,0,0,0,17,17,17,,,,,,,,,,,,,,,,,,,,,,,,,False,16,17,False,exp3.png,exp4.png,trial_left_image,1,exp3.png,3,exp4.png,exp3.png,0,2,non-reversed,incorrect,0.8400531551879059,0,valid_lose,86.36739080003463,8,,,,,,,,,,,s_007,3,2020_Nov_15_1637,Reversal,3.2.4,59.82074116700771,
18,exp1.png,exp2.png,0,0,0,0,0,18,18,18,,,,,,,,,,,,,,,,,,,,,,,,,False,17,18,False,exp1.png,exp2.png,trial_right_image,-1,exp2.png,3,exp2.png,exp1.png,1,3,reversed,correct,0.4706848476243506,1,valid_win,90.41551199997775,9,,,,,,,,,,,s_007,3,2020_Nov_15_1637,Reversal,3.2.4,59.82074116700771,
19,exp3.png,exp4.png,0,0,0,0,0,19,19,19,,,,,,,,,,,,,,,,,,,,,,,,,False,18,19,True,exp4.png,exp3.png,trial_left_image,1,exp4.png,3,exp4.png,exp3.png,1,1,non-reversed,correct,0.39289791169777477,1,valid_win,94.61376830004156,10,,,,,,,,,,,s_007,3,2020_Nov_15_1637,Reversal,3.2.4,59.82074116700771,
20,exp1.png,exp2.png,0,0,0,0,0,20,20,20,,,,,,,,,,,,,,,,,,,,,,,,,False,19,20,True,exp2.png,exp1.png,trial_left_image,1,exp2.png,3,exp2.png,exp1.png,1,3,reversed,correct,0.4214994264903247,1,valid_win,98.67902729997877,11,,,,,,,,,,,s_007,3,2020_Nov_15_1637,Reversal,3.2.4,59.82074116700771,
,,,0,0,0,0,,,,,0,0,0,0,,,,,,,,,,,,,,,,,,,,,,,,,,,,,,,,,,,,,,,,,,72,31,39,60,,,,,,,s_007,3,2020_Nov_15_1637,Reversal,3.2.4,59.82074116700771,
0,exp1.png,exp2.png,1,0,1,0,0,0,0,0,,,,,,,,,,,,,,,,,,,,,,,,,True,,,,,,,,,,,,,,,,,,,,,,,,,,,,,,,s_007,3,2020_Nov_15_1637,Reversal,3.2.4,59.82074116700771,
1,exp3.png,exp4.png,1,0,1,0,0,1,1,1,,,,,,,,,,,,,,,,,,,,,,,,,False,20,21,False,exp3.png,exp4.png,trial_right_image,-1,exp4.png,3,exp4.png,exp3.png,1,1,non-reversed,correct,0.5327826995227011,1,valid_win,130.80242199997883,12,,,,,,,,,,,s_007,3,2020_Nov_15_1637,Reversal,3.2.4,59.82074116700771,
2,exp1.png,exp2.png,1,0,1,0,0,2,2,2,,,,,,,,,,,,,,,,,,,,,,,,,False,21,22,True,exp2.png,exp1.png,trial_right_image,-1,exp1.png,3,exp2.png,exp1.png,0,4,reversed,incorrect,0.11924514341756454,1,invalid_win,135.08460419997573,13,,,,,,,,,,,s_007,3,2020_Nov_15_1637,Reversal,3.2.4,59.82074116700771,
3,exp3.png,exp4.png,1,0,1,0,0,3,3,3,,,,,,,,,,,,,,,,,,,,,,,,,False,22,23,False,exp3.png,exp4.png,trial_left_image,1,exp3.png,3,exp4.png,exp3.png,0,2,non-reversed,incorrect,0.6622692997962367,0,valid_lose,139.8165214000037,13,,,,,,,,,,,s_007,3,2020_Nov_15_1637,Reversal,3.2.4,59.82074116700771,
4,exp1.png,exp2.png,1,0,1,0,0,4,4,4,,,,,,,,,,,,,,,,,,,,,,,,,False,23,24,True,exp2.png,exp1.png,trial_right_image,-1,exp1.png,3,exp2.png,exp1.png,0,4,reversed,incorrect,0.23384439156821712,1,invalid_win,144.09780420002062,14,,,,,,,,,,,s_007,3,2020_Nov_15_1637,Reversal,3.2.4,59.82074116700771,
5,exp3.png,exp4.png,1,0,1,0,0,5,5,5,,,,,,,,,,,,,,,,,,,,,,,,,False,24,25,False,exp3.png,exp4.png,trial_right_image,-1,exp4.png,3,exp4.png,exp3.png,1,1,non-reversed,correct,0.6842157455650107,1,valid_win,149.12938419997226,15,,,,,,,,,,,s_007,3,2020_Nov_15_1637,Reversal,3.2.4,59.82074116700771,
6,exp1.png,exp2.png,1,0,1,0,0,6,6,6,,,,,,,,,,,,,,,,,,,,,,,,,False,25,26,True,exp2.png,exp1.png,trial_right_image,-1,exp1.png,3,exp2.png,exp1.png,0,4,reversed,incorrect,0.3439947866921712,0,valid_lose,153.29461690003518,15,,,,,,,,,,,s_007,3,2020_Nov_15_1637,Reversal,3.2.4,59.82074116700771,
7,exp3.png,exp4.png,1,0,1,0,0,7,7,7,,,,,,,,,,,,,,,,,,,,,,,,,False,26,27,False,exp3.png,exp4.png,trial_right_image,-1,exp4.png,3,exp4.png,exp3.png,1,1,non-reversed,correct,0.9238225099586034,1,valid_win,157.54221780004445,16,,,,,,,,,,,s_007,3,2020_Nov_15_1637,Reversal,3.2.4,59.82074116700771,
8,exp1.png,exp2.png,1,0,1,0,0,8,8,8,,,,,,,,,,,,,,,,,,,,,,,,,False,27,28,False,exp1.png,exp2.png,trial_left_image,1,exp1.png,3,exp2.png,exp1.png,0,4,reversed,incorrect,0.15206238686096918,1,invalid_win,161.6248925999971,17,,,,,,,,,,,s_007,3,2020_Nov_15_1637,Reversal,3.2.4,59.82074116700771,
9,exp3.png,exp4.png,1,0,1,0,0,9,9,9,,,,,,,,,,,,,,,,,,,,,,,,,False,28,29,True,exp4.png,exp3.png,trial_left_image,1,exp4.png,3,exp4.png,exp3.png,1,1,non-reversed,correct,0.05330497902601383,0,invalid_lose,165.9731103000231,17,,,,,,,,,,,s_007,3,2020_Nov_15_1637,Reversal,3.2.4,59.82074116700771,
10,exp1.png,exp2.png,1,0,1,0,0,10,10,10,,,,,,,,,,,,,,,,,,,,,,,,,False,29,30,True,exp2.png,exp1.png,trial_left_image,1,exp2.png,3,exp2.png,exp1.png,1,3,reversed,correct,0.5930083693209722,1,valid_win,170.00520230003167,18,,,,,,,,,,,s_007,3,2020_Nov_15_1637,Reversal,3.2.4,59.82074116700771,
11,exp3.png,exp4.png,1,0,1,0,0,11,11,11,,,,,,,,,,,,,,,,,,,,,,,,,False,30,31,False,exp3.png,exp4.png,trial_right_image,-1,exp4.png,3,exp4.png,exp3.png,1,1,non-reversed,correct,0.5937902852515847,1,valid_win,174.3708869999973,19,,,,,,,,,,,s_007,3,2020_Nov_15_1637,Reversal,3.2.4,59.82074116700771,
12,exp1.png,exp2.png,1,0,1,0,0,12,12,12,,,,,,,,,,,,,,,,,,,,,,,,,False,31,32,True,exp2.png,exp1.png,trial_right_image,-1,exp1.png,3,exp2.png,exp1.png,0,4,reversed,incorrect,0.07430894175244485,1,invalid_win,178.51953170006163,20,,,,,,,,,,,s_007,3,2020_Nov_15_1637,Reversal,3.2.4,59.82074116700771,
13,exp3.png,exp4.png,1,0,1,0,0,13,13,13,,,,,,,,,,,,,,,,,,,,,,,,,False,32,33,False,exp3.png,exp4.png,trial_right_image,-1,exp4.png,3,exp4.png,exp3.png,1,1,non-reversed,correct,0.5512669610796312,1,valid_win,182.7504745000042,21,,,,,,,,,,,s_007,3,2020_Nov_15_1637,Reversal,3.2.4,59.82074116700771,
14,exp1.png,exp2.png,1,0,1,0,0,14,14,14,,,,,,,,,,,,,,,,,,,,,,,,,False,33,34,True,exp2.png,exp1.png,trial_right_image,-1,exp1.png,3,exp2.png,exp1.png,0,4,reversed,incorrect,0.6493742681426549,0,valid_lose,186.88271889998578,21,,,,,,,,,,,s_007,3,2020_Nov_15_1637,Reversal,3.2.4,59.82074116700771,
15,exp3.png,exp4.png,1,0,1,0,0,15,15,15,,,,,,,,,,,,,,,,,,,,,,,,,False,34,35,False,exp3.png,exp4.png,trial_left_image,1,exp3.png,3,exp4.png,exp3.png,0,2,non-reversed,incorrect,0.9188980143537853,0,valid_lose,190.89936899999157,21,,,,,,,,,,,s_007,3,2020_Nov_15_1637,Reversal,3.2.4,59.82074116700771,
16,exp1.png,exp2.png,1,0,1,0,0,16,16,16,,,,,,,,,,,,,,,,,,,,,,,,,False,35,36,False,exp1.png,exp2.png,trial_left_image,1,exp1.png,3,exp2.png,exp1.png,0,4,reversed,incorrect,0.07333887075070022,1,invalid_win,194.83112740004435,22,,,,,,,,,,,s_007,3,2020_Nov_15_1637,Reversal,3.2.4,59.82074116700771,
17,exp3.png,exp4.png,1,0,1,0,0,17,17,17,,,,,,,,,,,,,,,,,,,,,,,,,False,36,37,False,exp3.png,exp4.png,trial_right_image,-1,exp4.png,3,exp4.png,exp3.png,1,1,non-reversed,correct,0.7484798438525807,1,valid_win,199.49532260000706,23,,,,,,,,,,,s_007,3,2020_Nov_15_1637,Reversal,3.2.4,59.82074116700771,
18,exp1.png,exp2.png,1,0,1,0,0,18,18,18,,,,,,,,,,,,,,,,,,,,,,,,,False,37,38,True,exp2.png,exp1.png,trial_right_image,-1,exp1.png,3,exp2.png,exp1.png,0,4,reversed,incorrect,0.2985169619886141,0,valid_lose,204.49390410003252,23,,,,,,,,,,,s_007,3,2020_Nov_15_1637,Reversal,3.2.4,59.82074116700771,
19,exp3.png,exp4.png,1,0,1,0,0,19,19,19,,,,,,,,,,,,,,,,,,,,,,,,,False,38,39,True,exp4.png,exp3.png,trial_left_image,1,exp4.png,3,exp4.png,exp3.png,1,1,non-reversed,correct,0.3896382647617317,1,valid_win,208.5093214000808,24,,,,,,,,,,,s_007,3,2020_Nov_15_1637,Reversal,3.2.4,59.82074116700771,
20,exp1.png,exp2.png,1,0,1,0,0,20,20,20,,,,,,,,,,,,,,,,,,,,,,,,,False,39,40,True,exp2.png,exp1.png,trial_right_image,-1,exp1.png,3,exp2.png,exp1.png,0,4,reversed,incorrect,0.8157194947176652,0,valid_lose,212.60790970001835,24,,,,,,,,,,,s_007,3,2020_Nov_15_1637,Reversal,3.2.4,59.82074116700771,
,,,1,0,1,0,,,,,0,0,0,0,,,,,,,,,,,,,,,,,,,,,,,,,,,,,,,,,,,,,,,,,,68,26,92,10,,,,,,,s_007,3,2020_Nov_15_1637,Reversal,3.2.4,59.82074116700771,
0,exp1.png,exp2.png,2,0,2,0,0,0,0,0,,,,,,,,,,,,,,,,,,,,,,,,,True,,,,,,,,,,,,,,,,,,,,,,,,,,,,,,,s_007,3,2020_Nov_15_1637,Reversal,3.2.4,59.82074116700771,
1,exp3.png,exp4.png,2,0,2,0,0,1,1,1,,,,,,,,,,,,,,,,,,,,,,,,,False,40,41,False,exp3.png,exp4.png,trial_right_image,-1,exp4.png,3,exp4.png,exp3.png,1,1,non-reversed,correct,0.3365571017384279,1,valid_win,235.13409589999355,25,,,,,,,,,,,s_007,3,2020_Nov_15_1637,Reversal,3.2.4,59.82074116700771,
2,exp1.png,exp2.png,2,0,2,0,0,2,2,2,,,,,,,,,,,,,,,,,,,,,,,,,False,41,42,True,exp2.png,exp1.png,trial_right_image,-1,exp1.png,3,exp2.png,exp1.png,0,4,reversed,incorrect,0.9448270356066524,0,valid_lose,239.68207850004546,25,,,,,,,,,,,s_007,3,2020_Nov_15_1637,Reversal,3.2.4,59.82074116700771,
3,exp3.png,exp4.png,2,0,2,0,0,3,3,3,,,,,,,,,,,,,,,,,,,,,,,,,False,42,43,False,exp3.png,exp4.png,trial_right_image,-1,exp4.png,3,exp4.png,exp3.png,1,1,non-reversed,correct,0.6836041348584095,1,valid_win,243.63115170004312,26,,,,,,,,,,,s_007,3,2020_Nov_15_1637,Reversal,3.2.4,59.82074116700771,
4,exp1.png,exp2.png,2,0,2,0,0,4,4,4,,,,,,,,,,,,,,,,,,,,,,,,,False,43,44,True,exp2.png,exp1.png,trial_left_image,1,exp2.png,3,exp2.png,exp1.png,1,3,reversed,correct,0.130537627717486,0,invalid_lose,247.646640400053,26,,,,,,,,,,,s_007,3,2020_Nov_15_1637,Reversal,3.2.4,59.82074116700771,
5,exp3.png,exp4.png,2,0,2,0,0,5,5,5,,,,,,,,,,,,,,,,,,,,,,,,,False,44,45,True,exp4.png,exp3.png,trial_right_image,-1,exp3.png,3,exp4.png,exp3.png,0,2,non-reversed,incorrect,0.5534699345701581,0,valid_lose,251.4953261000337,26,,,,,,,,,,,s_007,3,2020_Nov_15_1637,Reversal,3.2.4,59.82074116700771,
6,exp1.png,exp2.png,2,0,2,0,0,6,6,6,,,,,,,,,,,,,,,,,,,,,,,,,False,45,46,False,exp1.png,exp2.png,trial_left_image,1,exp1.png,3,exp2.png,exp1.png,0,4,reversed,incorrect,0.8419335991981873,0,valid_lose,255.95929370005615,26,,,,,,,,,,,s_007,3,2020_Nov_15_1637,Reversal,3.2.4,59.82074116700771,
7,exp3.png,exp4.png,2,0,2,0,0,7,7,7,,,,,,,,,,,,,,,,,,,,,,,,,False,46,47,False,exp3.png,exp4.png,trial_left_image,1,exp3.png,3,exp4.png,exp3.png,0,2,non-reversed,incorrect,0.8427246649005888,0,valid_lose,260.59076469996944,26,,,,,,,,,,,s_007,3,2020_Nov_15_1637,Reversal,3.2.4,59.82074116700771,
8,exp1.png,exp2.png,2,0,2,0,0,8,8,8,,,,,,,,,,,,,,,,,,,,,,,,,False,47,48,True,exp2.png,exp1.png,trial_right_image,-1,exp1.png,3,exp2.png,exp1.png,0,4,reversed,incorrect,0.9238785932988925,0,valid_lose,264.75641350005753,26,,,,,,,,,,,s_007,3,2020_Nov_15_1637,Reversal,3.2.4,59.82074116700771,
9,exp3.png,exp4.png,2,0,2,0,0,9,9,9,,,,,,,,,,,,,,,,,,,,,,,,,False,48,49,True,exp4.png,exp3.png,trial_left_image,1,exp4.png,3,exp4.png,exp3.png,1,1,non-reversed,correct,0.004663870138113313,0,invalid_lose,269.155723300064,26,,,,,,,,,,,s_007,3,2020_Nov_15_1637,Reversal,3.2.4,59.82074116700771,
10,exp1.png,exp2.png,2,0,2,0,0,10,10,10,,,,,,,,,,,,,,,,,,,,,,,,,False,49,50,False,exp1.png,exp2.png,trial_right_image,-1,exp2.png,3,exp2.png,exp1.png,1,3,reversed,correct,0.21221392199155442,0,invalid_lose,273.4875196000794,26,,,,,,,,,,,s_007,3,2020_Nov_15_1637,Reversal,3.2.4,59.82074116700771,
11,exp3.png,exp4.png,2,0,2,0,0,11,11,11,,,,,,,,,,,,,,,,,,,,,,,,,False,50,51,False,exp3.png,exp4.png,trial_right_image,-1,exp4.png,3,exp4.png,exp3.png,1,1,non-reversed,correct,0.48689969981280323,1,valid_win,278.36908249999397,27,,,,,,,,,,,s_007,3,2020_Nov_15_1637,Reversal,3.2.4,59.82074116700771,
12,exp1.png,exp2.png,2,0,2,0,0,12,12,12,,,,,,,,,,,,,,,,,,,,,,,,,False,51,52,False,exp1.png,exp2.png,trial_left_image,1,exp1.png,3,exp2.png,exp1.png,0,4,reversed,incorrect,0.7485730123006512,0,valid_lose,281.83615390001796,27,,,,,,,,,,,s_007,3,2020_Nov_15_1637,Reversal,3.2.4,59.82074116700771,
13,exp3.png,exp4.png,2,0,2,0,0,13,13,13,,,,,,,,,,,,,,,,,,,,,,,,,False,52,53,True,exp4.png,exp3.png,trial_left_image,1,exp4.png,3,exp4.png,exp3.png,1,1,non-reversed,correct,0.47013905258101885,1,valid_win,286.2339372000424,28,,,,,,,,,,,s_007,3,2020_Nov_15_1637,Reversal,3.2.4,59.82074116700771,
14,exp1.png,exp2.png,2,0,2,0,0,14,14,14,,,,,,,,,,,,,,,,,,,,,,,,,False,53,54,True,exp2.png,exp1.png,trial_left_image,1,exp2.png,3,exp2.png,exp1.png,1,3,reversed,correct,0.9308798457546554,1,valid_win,290.1485324000241,29,,,,,,,,,,,s_007,3,2020_Nov_15_1637,Reversal,3.2.4,59.82074116700771,
15,exp3.png,exp4.png,2,0,2,0,0,15,15,15,,,,,,,,,,,,,,,,,,,,,,,,,False,54,55,False,exp3.png,exp4.png,trial_right_image,-1,exp4.png,3,exp4.png,exp3.png,1,1,non-reversed,correct,0.8259983493398018,1,valid_win,294.48033819999546,30,,,,,,,,,,,s_007,3,2020_Nov_15_1637,Reversal,3.2.4,59.82074116700771,
16,exp1.png,exp2.png,2,0,2,0,0,16,16,16,,,,,,,,,,,,,,,,,,,,,,,,,False,55,56,True,exp2.png,exp1.png,trial_left_image,1,exp2.png,3,exp2.png,exp1.png,1,3,reversed,correct,0.03413558066962907,0,invalid_lose,298.89535570004955,30,,,,,,,,,,,s_007,3,2020_Nov_15_1637,Reversal,3.2.4,59.82074116700771,
17,exp3.png,exp4.png,2,0,2,0,0,17,17,17,,,,,,,,,,,,,,,,,,,,,,,,,False,56,57,False,exp3.png,exp4.png,trial_right_image,-1,exp4.png,3,exp4.png,exp3.png,1,1,non-reversed,correct,0.5875215757055041,1,valid_win,302.8118536999682,31,,,,,,,,,,,s_007,3,2020_Nov_15_1637,Reversal,3.2.4,59.82074116700771,
18,exp1.png,exp2.png,2,0,2,0,0,18,18,18,,,,,,,,,,,,,,,,,,,,,,,,,False,57,58,True,exp2.png,exp1.png,trial_right_image,-1,exp1.png,3,exp2.png,exp1.png,0,4,reversed,incorrect,0.45766796272465016,0,valid_lose,306.72613650001585,31,,,,,,,,,,,s_007,3,2020_Nov_15_1637,Reversal,3.2.4,59.82074116700771,
19,exp3.png,exp4.png,2,0,2,0,0,19,19,19,,,,,,,,,,,,,,,,,,,,,,,,,False,58,59,False,exp3.png,exp4.png,trial_right_image,-1,exp4.png,3,exp4.png,exp3.png,1,1,non-reversed,correct,0.7338945406790892,1,valid_win,310.75800150004216,32,,,,,,,,,,,s_007,3,2020_Nov_15_1637,Reversal,3.2.4,59.82074116700771,
20,exp1.png,exp2.png,2,0,2,0,0,20,20,20,,,,,,,,,,,,,,,,,,,,,,,,,False,59,60,True,exp2.png,exp1.png,trial_left_image,1,exp2.png,3,exp2.png,exp1.png,1,3,reversed,correct,0.1665159306055135,0,invalid_lose,314.7227853999939,32,,,,,,,,,,,s_007,3,2020_Nov_15_1637,Reversal,3.2.4,59.82074116700771,
,,,2,0,2,0,,,,,0,0,0,0,,,,,,,,,,,,,,,,,,,,,,,,,,,,,,,,,,,,,,,,,,6,61,12,92,,,,,,,s_007,3,2020_Nov_15_1637,Reversal,3.2.4,59.82074116700771,
0,exp1.png,exp2.png,3,0,3,0,0,0,0,0,,,,,,,,,,,,,,,,,,,,,,,,,True,,,,,,,,,,,,,,,,,,,,,,,,,,,,,,,s_007,3,2020_Nov_15_1637,Reversal,3.2.4,59.82074116700771,
1,exp3.png,exp4.png,3,0,3,0,0,1,1,1,,,,,,,,,,,,,,,,,,,,,,,,,False,60,61,False,exp3.png,exp4.png,trial_right_image,-1,exp4.png,3,exp4.png,exp3.png,1,1,non-reversed,correct,0.41697414074408956,1,valid_win,333.250664900057,33,,,,,,,,,,,s_007,3,2020_Nov_15_1637,Reversal,3.2.4,59.82074116700771,
2,exp1.png,exp2.png,3,0,3,0,0,2,2,2,,,,,,,,,,,,,,,,,,,,,,,,,False,61,62,False,exp1.png,exp2.png,trial_left_image,1,exp1.png,3,exp2.png,exp1.png,0,4,reversed,incorrect,0.8204951130203779,0,valid_lose,337.19902399997227,33,,,,,,,,,,,s_007,3,2020_Nov_15_1637,Reversal,3.2.4,59.82074116700771,
3,exp3.png,exp4.png,3,0,3,0,0,3,3,3,,,,,,,,,,,,,,,,,,,,,,,,,False,62,63,True,exp4.png,exp3.png,trial_right_image,-1,exp3.png,3,exp4.png,exp3.png,0,2,non-reversed,incorrect,0.6566461494605068,0,valid_lose,341.14752200001385,33,,,,,,,,,,,s_007,3,2020_Nov_15_1637,Reversal,3.2.4,59.82074116700771,
4,exp1.png,exp2.png,3,0,3,0,0,4,4,4,,,,,,,,,,,,,,,,,,,,,,,,,False,63,64,True,exp2.png,exp1.png,trial_left_image,1,exp2.png,3,exp2.png,exp1.png,1,3,reversed,correct,0.4166607377863185,1,valid_win,345.3631602000678,34,,,,,,,,,,,s_007,3,2020_Nov_15_1637,Reversal,3.2.4,59.82074116700771,
5,exp3.png,exp4.png,3,0,3,0,0,5,5,5,,,,,,,,,,,,,,,,,,,,,,,,,False,64,65,False,exp3.png,exp4.png,trial_right_image,-1,exp4.png,3,exp4.png,exp3.png,1,1,non-reversed,correct,0.10511725467462718,0,invalid_lose,349.4291973999934,34,,,,,,,,,,,s_007,3,2020_Nov_15_1637,Reversal,3.2.4,59.82074116700771,
6,exp1.png,exp2.png,3,0,3,0,0,6,6,6,,,,,,,,,,,,,,,,,,,,,,,,,False,65,66,False,exp1.png,exp2.png,trial_left_image,1,exp1.png,3,exp2.png,exp1.png,0,4,reversed,incorrect,0.6458047550428656,0,valid_lose,352.932407699991,34,,,,,,,,,,,s_007,3,2020_Nov_15_1637,Reversal,3.2.4,59.82074116700771,
7,exp3.png,exp4.png,3,0,3,0,0,7,7,7,,,,,,,,,,,,,,,,,,,,,,,,,False,66,67,True,exp4.png,exp3.png,trial_left_image,1,exp4.png,3,exp4.png,exp3.png,1,1,non-reversed,correct,0.4153038582763827,1,valid_win,357.8425066000782,35,,,,,,,,,,,s_007,3,2020_Nov_15_1637,Reversal,3.2.4,59.82074116700771,
8,exp1.png,exp2.png,3,0,3,0,0,8,8,8,,,,,,,,,,,,,,,,,,,,,,,,,False,67,68,True,exp2.png,exp1.png,trial_left_image,1,exp2.png,3,exp2.png,exp1.png,1,3,reversed,correct,0.05325248807943783,0,invalid_lose,362.0576631000731,35,,,,,,,,,,,s_007,3,2020_Nov_15_1637,Reversal,3.2.4,59.82074116700771,
9,exp3.png,exp4.png,3,0,3,0,0,9,9,9,,,,,,,,,,,,,,,,,,,,,,,,,False,68,69,False,exp3.png,exp4.png,trial_right_image,-1,exp4.png,3,exp4.png,exp3.png,1,1,non-reversed,correct,0.6386023608494024,1,valid_win,366.0562484000111,36,,,,,,,,,,,s_007,3,2020_Nov_15_1637,Reversal,3.2.4,59.82074116700771,
10,exp1.png,exp2.png,3,0,3,0,0,10,10,10,,,,,,,,,,,,,,,,,,,,,,,,,False,69,70,False,exp1.png,exp2.png,trial_right_image,-1,exp2.png,3,exp2.png,exp1.png,1,3,reversed,correct,0.5752824847084987,1,valid_win,369.3218618000392,37,,,,,,,,,,,s_007,3,2020_Nov_15_1637,Reversal,3.2.4,59.82074116700771,
11,exp3.png,exp4.png,3,0,3,0,0,11,11,11,,,,,,,,,,,,,,,,,,,,,,,,,False,70,71,True,exp4.png,exp3.png,trial_left_image,1,exp4.png,3,exp4.png,exp3.png,1,1,non-reversed,correct,0.9452917245845596,1,valid_win,373.3711580000818,38,,,,,,,,,,,s_007,3,2020_Nov_15_1637,Reversal,3.2.4,59.82074116700771,
12,exp1.png,exp2.png,3,0,3,0,0,12,12,12,,,,,,,,,,,,,,,,,,,,,,,,,False,71,72,False,exp1.png,exp2.png,trial_left_image,1,exp1.png,3,exp2.png,exp1.png,0,4,reversed,incorrect,0.6297770365018661,0,valid_lose,377.7179446000373,38,,,,,,,,,,,s_007,3,2020_Nov_15_1637,Reversal,3.2.4,59.82074116700771,
13,exp3.png,exp4.png,3,0,3,0,0,13,13,13,,,,,,,,,,,,,,,,,,,,,,,,,False,72,73,False,exp3.png,exp4.png,trial_right_image,-1,exp4.png,3,exp4.png,exp3.png,1,1,non-reversed,correct,0.4492739161040509,1,valid_win,382.3662584000267,39,,,,,,,,,,,s_007,3,2020_Nov_15_1637,Reversal,3.2.4,59.82074116700771,
14,exp1.png,exp2.png,3,0,3,0,0,14,14,14,,,,,,,,,,,,,,,,,,,,,,,,,False,73,74,True,exp2.png,exp1.png,trial_left_image,1,exp2.png,3,exp2.png,exp1.png,1,3,reversed,correct,0.639916408316123,1,valid_win,387.34897799999453,40,,,,,,,,,,,s_007,3,2020_Nov_15_1637,Reversal,3.2.4,59.82074116700771,
15,exp3.png,exp4.png,3,0,3,0,0,15,15,15,,,,,,,,,,,,,,,,,,,,,,,,,False,74,75,False,exp3.png,exp4.png,trial_right_image,-1,exp4.png,3,exp4.png,exp3.png,1,1,non-reversed,correct,0.24672622399600952,0,invalid_lose,391.3311339999782,40,,,,,,,,,,,s_007,3,2020_Nov_15_1637,Reversal,3.2.4,59.82074116700771,
16,exp1.png,exp2.png,3,0,3,0,0,16,16,16,,,,,,,,,,,,,,,,,,,,,,,,,False,75,76,True,exp2.png,exp1.png,trial_left_image,1,exp2.png,3,exp2.png,exp1.png,1,3,reversed,correct,0.38615822037065584,1,valid_win,395.4955650999909,41,,,,,,,,,,,s_007,3,2020_Nov_15_1637,Reversal,3.2.4,59.82074116700771,
17,exp3.png,exp4.png,3,0,3,0,0,17,17,17,,,,,,,,,,,,,,,,,,,,,,,,,False,76,77,True,exp4.png,exp3.png,trial_left_image,1,exp4.png,3,exp4.png,exp3.png,1,1,non-reversed,correct,0.20304252255970745,0,invalid_lose,399.74537879996933,41,,,,,,,,,,,s_007,3,2020_Nov_15_1637,Reversal,3.2.4,59.82074116700771,
18,exp1.png,exp2.png,3,0,3,0,0,18,18,18,,,,,,,,,,,,,,,,,,,,,,,,,False,77,78,True,exp2.png,exp1.png,trial_left_image,1,exp2.png,3,exp2.png,exp1.png,1,3,reversed,correct,0.03834178193867954,0,invalid_lose,403.7768532000482,41,,,,,,,,,,,s_007,3,2020_Nov_15_1637,Reversal,3.2.4,59.82074116700771,
19,exp3.png,exp4.png,3,0,3,0,0,19,19,19,,,,,,,,,,,,,,,,,,,,,,,,,False,78,79,False,exp3.png,exp4.png,trial_right_image,-1,exp4.png,3,exp4.png,exp3.png,1,1,non-reversed,correct,0.791316330422311,1,valid_win,408.9420340000652,42,,,,,,,,,,,s_007,3,2020_Nov_15_1637,Reversal,3.2.4,59.82074116700771,
20,exp1.png,exp2.png,3,0,3,0,0,20,20,20,,,,,,,,,,,,,,,,,,,,,,,,,False,79,80,True,exp2.png,exp1.png,trial_left_image,1,exp2.png,3,exp2.png,exp1.png,1,3,reversed,correct,0.7098715748933841,1,valid_win,412.93993710004725,43,,,,,,,,,,,s_007,3,2020_Nov_15_1637,Reversal,3.2.4,59.82074116700771,
,,,3,0,3,0,,,,,0,0,0,0,,,,,,,,,,,,,,,,,,,,,,,,,,,,,,,,,,,,,,,,,,8,85,7,91,,,,,,,s_007,3,2020_Nov_15_1637,Reversal,3.2.4,59.82074116700771,
0,exp1.png,exp2.png,,,,,,,,,,,,,,,,,0,0,0,0,0,0,0,0,,,,,,,,,True,,,,,,,,,,,,,,,,,,,,,,,,,,,,,,,s_007,3,2020_Nov_15_1637,Reversal,3.2.4,59.82074116700771,
1,exp3.png,exp4.png,,,,,,,,,,,,,,,,,0,0,0,0,0,1,1,1,,,,,,,,,False,0,81,False,exp3.png,exp4.png,trial_right_image,-1,exp4.png,3,exp4.png,exp3.png,1,1,non-reversed,correct,0.9934061394084458,1,valid_win,433.2995809999993,44,,,,,431.3730731999967,,,,,,s_007,3,2020_Nov_15_1637,Reversal,3.2.4,59.82074116700771,
2,exp1.png,exp2.png,,,,,,,,,,,,,,,,,0,0,0,0,0,2,2,2,,,,,,,,,False,1,82,False,exp1.png,exp2.png,trial_right_image,-1,exp2.png,3,exp1.png,exp2.png,1,3,reversed,incorrect,0.6744166681750533,0,valid_lose,437.28140099998564,44,,,,,,,,,,,s_007,3,2020_Nov_15_1637,Reversal,3.2.4,59.82074116700771,
3,exp3.png,exp4.png,,,,,,,,,,,,,,,,,0,0,0,0,0,3,3,3,,,,,,,,,False,2,83,True,exp4.png,exp3.png,trial_left_image,1,exp4.png,3,exp4.png,exp3.png,1,1,non-reversed,correct,0.4334825932541789,1,valid_win,441.49682350002695,45,,,,,,,,,,,s_007,3,2020_Nov_15_1637,Reversal,3.2.4,59.82074116700771,
4,exp1.png,exp2.png,,,,,,,,,,,,,,,,,0,0,0,0,0,4,4,4,,,,,,,,,False,3,84,True,exp2.png,exp1.png,trial_right_image,-1,exp1.png,3,exp1.png,exp2.png,0,4,reversed,correct,0.46965277632395563,1,valid_win,445.59556739998516,46,,,,,,,,,,,s_007,3,2020_Nov_15_1637,Reversal,3.2.4,59.82074116700771,
5,exp3.png,exp4.png,,,,,,,,,,,,,,,,,0,0,0,0,0,5,5,5,,,,,,,,,False,4,85,True,exp4.png,exp3.png,trial_left_image,1,exp4.png,3,exp4.png,exp3.png,1,1,non-reversed,correct,0.68205943222738,1,valid_win,449.89510710001923,47,,,,,,,,,,,s_007,3,2020_Nov_15_1637,Reversal,3.2.4,59.82074116700771,
6,exp1.png,exp2.png,,,,,,,,,,,,,,,,,0,0,0,0,0,6,6,6,,,,,,,,,False,5,86,False,exp1.png,exp2.png,trial_left_image,1,exp1.png,3,exp1.png,exp2.png,0,4,reversed,correct,0.6376192249831188,1,valid_win,454.5265111000044,48,,,,,,,,,,,s_007,3,2020_Nov_15_1637,Reversal,3.2.4,59.82074116700771,
7,exp3.png,exp4.png,,,,,,,,,,,,,,,,,0,0,0,0,0,7,7,7,,,,,,,,,False,6,87,True,exp4.png,exp3.png,trial_left_image,1,exp4.png,3,exp4.png,exp3.png,1,1,non-reversed,correct,0.06785497795365192,0,invalid_lose,458.72542560007423,48,,,,,,,,,,,s_007,3,2020_Nov_15_1637,Reversal,3.2.4,59.82074116700771,
8,exp1.png,exp2.png,,,,,,,,,,,,,,,,,0,0,0,0,0,8,8,8,,,,,,,,,False,7,88,True,exp2.png,exp1.png,trial_left_image,1,exp2.png,3,exp1.png,exp2.png,1,3,reversed,incorrect,0.9934157564725451,0,valid_lose,463.40697820007335,48,,,,,,,,,,,s_007,3,2020_Nov_15_1637,Reversal,3.2.4,59.82074116700771,
9,exp3.png,exp4.png,,,,,,,,,,,,,,,,,0,0,0,0,0,9,9,9,,,,,,,,,False,8,89,True,exp4.png,exp3.png,trial_left_image,1,exp4.png,3,exp4.png,exp3.png,1,1,non-reversed,correct,0.7188790744660717,1,valid_win,467.57145489996765,49,,,,,,,,,,,s_007,3,2020_Nov_15_1637,Reversal,3.2.4,59.82074116700771,
10,exp1.png,exp2.png,,,,,,,,,,,,,,,,,0,0,0,0,0,10,10,10,,,,,,,,,False,9,90,False,exp1.png,exp2.png,trial_left_image,1,exp1.png,3,exp1.png,exp2.png,0,4,reversed,correct,0.9001390707189258,1,valid_win,471.60456980008166,50,,,,,,,,,,,s_007,3,2020_Nov_15_1637,Reversal,3.2.4,59.82074116700771,
11,exp3.png,exp4.png,,,,,,,,,,,,,,,,,0,0,0,0,0,11,11,11,,,,,,,,,False,10,91,True,exp4.png,exp3.png,trial_left_image,1,exp4.png,3,exp4.png,exp3.png,1,1,non-reversed,correct,0.8016623491047427,1,valid_win,475.5518967000535,51,,,,,,,,,,,s_007,3,2020_Nov_15_1637,Reversal,3.2.4,59.82074116700771,
12,exp1.png,exp2.png,,,,,,,,,,,,,,,,,0,0,0,0,0,12,12,12,,,,,,,,,False,11,92,True,exp2.png,exp1.png,trial_right_image,-1,exp1.png,3,exp1.png,exp2.png,0,4,reversed,correct,0.2185537233445234,0,invalid_lose,479.8516993999947,51,,,,,,,,,,,s_007,3,2020_Nov_15_1637,Reversal,3.2.4,59.82074116700771,
13,exp3.png,exp4.png,,,,,,,,,,,,,,,,,0,0,0,0,0,13,13,13,,,,,,,,,False,12,93,True,exp4.png,exp3.png,trial_left_image,1,exp4.png,3,exp4.png,exp3.png,1,1,non-reversed,correct,0.09341234257652975,0,invalid_lose,483.94924840005115,51,,,,,,,,,,,s_007,3,2020_Nov_15_1637,Reversal,3.2.4,59.82074116700771,
14,exp1.png,exp2.png,,,,,,,,,,,,,,,,,0,0,0,0,0,14,14,14,,,,,,,,,False,13,94,False,exp1.png,exp2.png,trial_right_image,-1,exp2.png,3,exp1.png,exp2.png,1,3,reversed,incorrect,0.6634663853818561,0,valid_lose,488.0822421000339,51,,,,,,,,,,,s_007,3,2020_Nov_15_1637,Reversal,3.2.4,59.82074116700771,
15,exp3.png,exp4.png,,,,,,,,,,,,,,,,,0,0,0,0,0,15,15,15,,,,,,,,,False,14,95,False,exp3.png,exp4.png,trial_left_image,1,exp3.png,3,exp4.png,exp3.png,0,2,non-reversed,incorrect,0.7509694134598773,0,valid_lose,492.4638361000689,51,,,,,,,,,,,s_007,3,2020_Nov_15_1637,Reversal,3.2.4,59.82074116700771,
16,exp1.png,exp2.png,,,,,,,,,,,,,,,,,0,0,0,0,0,16,16,16,,,,,,,,,False,15,96,False,exp1.png,exp2.png,trial_left_image,1,exp1.png,3,exp1.png,exp2.png,0,4,reversed,correct,0.07673485485580323,0,invalid_lose,496.3123482000083,51,,,,,,,,,,,s_007,3,2020_Nov_15_1637,Reversal,3.2.4,59.82074116700771,
17,exp3.png,exp4.png,,,,,,,,,,,,,,,,,0,0,0,0,0,17,17,17,,,,,,,,,False,16,97,True,exp4.png,exp3.png,trial_right_image,-1,exp3.png,3,exp4.png,exp3.png,0,2,non-reversed,incorrect,0.4081938052860802,0,valid_lose,500.22753360006027,51,,,,,,,,,,,s_007,3,2020_Nov_15_1637,Reversal,3.2.4,59.82074116700771,
18,exp1.png,exp2.png,,,,,,,,,,,,,,,,,0,0,0,0,0,18,18,18,,,,,,,,,False,17,98,False,exp1.png,exp2.png,trial_right_image,-1,exp2.png,3,exp1.png,exp2.png,1,3,reversed,incorrect,0.7886087518783266,0,valid_lose,504.2093978000339,51,,,,,,,,,,,s_007,3,2020_Nov_15_1637,Reversal,3.2.4,59.82074116700771,
19,exp3.png,exp4.png,,,,,,,,,,,,,,,,,0,0,0,0,0,19,19,19,,,,,,,,,False,18,99,False,exp3.png,exp4.png,trial_right_image,-1,exp4.png,3,exp4.png,exp3.png,1,1,non-reversed,correct,0.8428963771313056,1,valid_win,508.2752099999925,52,,,,,,,,,,,s_007,3,2020_Nov_15_1637,Reversal,3.2.4,59.82074116700771,
20,exp1.png,exp2.png,,,,,,,,,,,,,,,,,0,0,0,0,0,20,20,20,,,,,,,,,False,19,100,False,exp1.png,exp2.png,trial_left_image,1,exp1.png,3,exp1.png,exp2.png,0,4,reversed,correct,0.1624140072552518,0,invalid_lose,512.1741015000734,52,,,,,,,,,,,s_007,3,2020_Nov_15_1637,Reversal,3.2.4,59.82074116700771,
,,,,,,,,,,,,,,,,,,,0,0,0,0,,,,,0,0,0,0,,,,,,,,,,,,,,,,,,,,,,,,,,63,37,11,86,,,,,,,s_007,3,2020_Nov_15_1637,Reversal,3.2.4,59.82074116700771,
0,exp1.png,exp2.png,,,,,,,,,,,,,,,,,1,0,1,0,0,0,0,0,,,,,,,,,True,,,,,,,,,,,,,,,,,,,,,,,,,,,,,,,s_007,3,2020_Nov_15_1637,Reversal,3.2.4,59.82074116700771,
1,exp3.png,exp4.png,,,,,,,,,,,,,,,,,1,0,1,0,0,1,1,1,,,,,,,,,False,20,101,True,exp4.png,exp3.png,trial_left_image,1,exp4.png,3,exp4.png,exp3.png,1,1,non-reversed,correct,0.031216120707700523,0,invalid_lose,535.4825957000721,52,,,,,,,,,,,s_007,3,2020_Nov_15_1637,Reversal,3.2.4,59.82074116700771,
2,exp1.png,exp2.png,,,,,,,,,,,,,,,,,1,0,1,0,0,2,2,2,,,,,,,,,False,21,102,False,exp1.png,exp2.png,trial_right_image,-1,exp2.png,3,exp1.png,exp2.png,1,3,reversed,incorrect,0.5866255775340904,0,valid_lose,539.5298263999866,52,,,,,,,,,,,s_007,3,2020_Nov_15_1637,Reversal,3.2.4,59.82074116700771,
3,exp3.png,exp4.png,,,,,,,,,,,,,,,,,1,0,1,0,0,3,3,3,,,,,,,,,False,22,103,True,exp4.png,exp3.png,trial_right_image,-1,exp3.png,3,exp4.png,exp3.png,0,2,non-reversed,incorrect,0.04155850107923931,1,invalid_win,543.4457268000115,53,,,,,,,,,,,s_007,3,2020_Nov_15_1637,Reversal,3.2.4,59.82074116700771,
4,exp1.png,exp2.png,,,,,,,,,,,,,,,,,1,0,1,0,0,4,4,4,,,,,,,,,False,23,104,True,exp2.png,exp1.png,trial_right_image,-1,exp1.png,3,exp1.png,exp2.png,0,4,reversed,correct,0.358688731659517,1,valid_win,547.4779254000168,54,,,,,,,,,,,s_007,3,2020_Nov_15_1637,Reversal,3.2.4,59.82074116700771,
5,exp3.png,exp4.png,,,,,,,,,,,,,,,,,1,0,1,0,0,5,5,5,,,,,,,,,False,24,105,False,exp3.png,exp4.png,trial_left_image,1,exp3.png,3,exp4.png,exp3.png,0,2,non-reversed,incorrect,0.3184776932698179,0,valid_lose,551.5259779000189,54,,,,,,,,,,,s_007,3,2020_Nov_15_1637,Reversal,3.2.4,59.82074116700771,
6,exp1.png,exp2.png,,,,,,,,,,,,,,,,,1,0,1,0,0,6,6,6,,,,,,,,,False,25,106,False,exp1.png,exp2.png,trial_left_image,1,exp1.png,3,exp1.png,exp2.png,0,4,reversed,correct,0.7384718264179726,1,valid_win,555.7427868000232,55,,,,,,,,,,,s_007,3,2020_Nov_15_1637,Reversal,3.2.4,59.82074116700771,
7,exp3.png,exp4.png,,,,,,,,,,,,,,,,,1,0,1,0,0,7,7,7,,,,,,,,,False,26,107,False,exp3.png,exp4.png,trial_left_image,1,exp3.png,3,exp4.png,exp3.png,0,2,non-reversed,incorrect,0.15327845003909146,1,invalid_win,559.7083187000826,56,,,,,,,,,,,s_007,3,2020_Nov_15_1637,Reversal,3.2.4,59.82074116700771,
8,exp1.png,exp2.png,,,,,,,,,,,,,,,,,1,0,1,0,0,8,8,8,,,,,,,,,False,27,108,True,exp2.png,exp1.png,trial_right_image,-1,exp1.png,3,exp1.png,exp2.png,0,4,reversed,correct,0.6961785653094807,1,valid_win,563.7901194000151,57,,,,,,,,,,,s_007,3,2020_Nov_15_1637,Reversal,3.2.4,59.82074116700771,
9,exp3.png,exp4.png,,,,,,,,,,,,,,,,,1,0,1,0,0,9,9,9,,,,,,,,,False,28,109,False,exp3.png,exp4.png,trial_right_image,-1,exp4.png,3,exp4.png,exp3.png,1,1,non-reversed,correct,0.4828052252745797,1,valid_win,567.6221471000463,58,,,,,,,,,,,s_007,3,2020_Nov_15_1637,Reversal,3.2.4,59.82074116700771,
10,exp1.png,exp2.png,,,,,,,,,,,,,,,,,1,0,1,0,0,10,10,10,,,,,,,,,False,29,110,False,exp1.png,exp2.png,trial_left_image,1,exp1.png,3,exp1.png,exp2.png,0,4,reversed,correct,0.8842571607594399,1,valid_win,571.8706482000416,59,,,,,,,,,,,s_007,3,2020_Nov_15_1637,Reversal,3.2.4,59.82074116700771,
11,exp3.png,exp4.png,,,,,,,,,,,,,,,,,1,0,1,0,0,11,11,11,,,,,,,,,False,30,111,True,exp4.png,exp3.png,trial_right_image,-1,exp3.png,3,exp4.png,exp3.png,0,2,non-reversed,incorrect,0.0934711031135469,1,invalid_win,577.1516677000327,60,,,,,,,,,,,s_007,3,2020_Nov_15_1637,Reversal,3.2.4,59.82074116700771,
12,exp1.png,exp2.png,,,,,,,,,,,,,,,,,1,0,1,0,0,12,12,12,,,,,,,,,False,31,112,False,exp1.png,exp2.png,trial_left_image,1,exp1.png,3,exp1.png,exp2.png,0,4,reversed,correct,0.9603522965903187,1,valid_win,581.0664076000685,61,,,,,,,,,,,s_007,3,2020_Nov_15_1637,Reversal,3.2.4,59.82074116700771,
13,exp3.png,exp4.png,,,,,,,,,,,,,,,,,1,0,1,0,0,13,13,13,,,,,,,,,False,32,113,False,exp3.png,exp4.png,trial_right_image,-1,exp4.png,3,exp4.png,exp3.png,1,1,non-reversed,correct,0.3979056862437025,1,valid_win,585.1316441000672,62,,,,,,,,,,,s_007,3,2020_Nov_15_1637,Reversal,3.2.4,59.82074116700771,
14,exp1.png,exp2.png,,,,,,,,,,,,,,,,,1,0,1,0,0,14,14,14,,,,,,,,,False,33,114,True,exp2.png,exp1.png,trial_left_image,1,exp2.png,3,exp1.png,exp2.png,1,3,reversed,incorrect,0.5663661227416514,0,valid_lose,589.1978445000714,62,,,,,,,,,,,s_007,3,2020_Nov_15_1637,Reversal,3.2.4,59.82074116700771,
15,exp3.png,exp4.png,,,,,,,,,,,,,,,,,1,0,1,0,0,15,15,15,,,,,,,,,False,34,115,True,exp4.png,exp3.png,trial_right_image,-1,exp3.png,3,exp4.png,exp3.png,0,2,non-reversed,incorrect,0.8239060619467209,0,valid_lose,593.913238100009,62,,,,,,,,,,,s_007,3,2020_Nov_15_1637,Reversal,3.2.4,59.82074116700771,
16,exp1.png,exp2.png,,,,,,,,,,,,,,,,,1,0,1,0,0,16,16,16,,,,,,,,,False,35,116,False,exp1.png,exp2.png,trial_left_image,1,exp1.png,3,exp1.png,exp2.png,0,4,reversed,correct,0.3156331036281351,1,valid_win,598.0942044999683,63,,,,,,,,,,,s_007,3,2020_Nov_15_1637,Reversal,3.2.4,59.82074116700771,
17,exp3.png,exp4.png,,,,,,,,,,,,,,,,,1,0,1,0,0,17,17,17,,,,,,,,,False,36,117,True,exp4.png,exp3.png,trial_right_image,-1,exp3.png,3,exp4.png,exp3.png,0,2,non-reversed,incorrect,0.477940534102675,0,valid_lose,602.0429875999689,63,,,,,,,,,,,s_007,3,2020_Nov_15_1637,Reversal,3.2.4,59.82074116700771,
18,exp1.png,exp2.png,,,,,,,,,,,,,,,,,1,0,1,0,0,18,18,18,,,,,,,,,False,37,118,True,exp2.png,exp1.png,trial_right_image,-1,exp1.png,3,exp1.png,exp2.png,0,4,reversed,correct,0.9980048089206249,1,valid_win,606.2259805999929,64,,,,,,,,,,,s_007,3,2020_Nov_15_1637,Reversal,3.2.4,59.82074116700771,
19,exp3.png,exp4.png,,,,,,,,,,,,,,,,,1,0,1,0,0,19,19,19,,,,,,,,,False,38,119,True,exp4.png,exp3.png,trial_left_image,1,exp4.png,3,exp4.png,exp3.png,1,1,non-reversed,correct,0.8172027594357213,1,valid_win,610.5567969999975,65,,,,,,,,,,,s_007,3,2020_Nov_15_1637,Reversal,3.2.4,59.82074116700771,
20,exp1.png,exp2.png,,,,,,,,,,,,,,,,,1,0,1,0,0,20,20,20,,,,,,,,,False,39,120,False,exp1.png,exp2.png,trial_left_image,1,exp1.png,3,exp1.png,exp2.png,0,4,reversed,correct,0.03457828894657,0,invalid_lose,615.4719638000242,65,,,,,,,,,,,s_007,3,2020_Nov_15_1637,Reversal,3.2.4,59.82074116700771,
,,,,,,,,,,,,,,,,,,,1,0,1,0,,,,,0,0,0,0,,,,,,,,,,,,,,,,,,,,,,,,,,93,8,50.0,50.0,,,,,,,s_007,3,2020_Nov_15_1637,Reversal,3.2.4,59.82074116700771,
0,exp1.png,exp2.png,,,,,,,,,,,,,,,,,2,0,2,0,0,0,0,0,,,,,,,,,True,,,,,,,,,,,,,,,,,,,,,,,,,,,,,,,s_007,3,2020_Nov_15_1637,Reversal,3.2.4,59.82074116700771,
1,exp3.png,exp4.png,,,,,,,,,,,,,,,,,2,0,2,0,0,1,1,1,,,,,,,,,False,40,121,False,exp3.png,exp4.png,trial_left_image,1,exp3.png,3,exp4.png,exp3.png,0,2,non-reversed,incorrect,0.9011179767478389,0,valid_lose,632.0008688999806,65,,,,,,,,,,,s_007,3,2020_Nov_15_1637,Reversal,3.2.4,59.82074116700771,
2,exp1.png,exp2.png,,,,,,,,,,,,,,,,,2,0,2,0,0,2,2,2,,,,,,,,,False,41,122,False,exp1.png,exp2.png,trial_left_image,1,exp1.png,3,exp1.png,exp2.png,0,4,reversed,correct,0.9411833905058586,1,valid_win,636.0317556000082,66,,,,,,,,,,,s_007,3,2020_Nov_15_1637,Reversal,3.2.4,59.82074116700771,
3,exp3.png,exp4.png,,,,,,,,,,,,,,,,,2,0,2,0,0,3,3,3,,,,,,,,,False,42,123,True,exp4.png,exp3.png,trial_right_image,-1,exp3.png,3,exp4.png,exp3.png,0,2,non-reversed,incorrect,0.6720625769267045,0,valid_lose,639.814066800056,66,,,,,,,,,,,s_007,3,2020_Nov_15_1637,Reversal,3.2.4,59.82074116700771,
4,exp1.png,exp2.png,,,,,,,,,,,,,,,,,2,0,2,0,0,4,4,4,,,,,,,,,False,43,124,False,exp1.png,exp2.png,trial_right_image,-1,exp2.png,3,exp1.png,exp2.png,1,3,reversed,incorrect,0.8528029557478974,0,valid_lose,642.7442725000437,66,,,,,,,,,,,s_007,3,2020_Nov_15_1637,Reversal,3.2.4,59.82074116700771,
5,exp3.png,exp4.png,,,,,,,,,,,,,,,,,2,0,2,0,0,5,5,5,,,,,,,,,False,44,125,False,exp3.png,exp4.png,trial_right_image,-1,exp4.png,3,exp4.png,exp3.png,1,1,non-reversed,correct,0.2018256124518124,0,invalid_lose,647.1283324999968,66,,,,,,,,,,,s_007,3,2020_Nov_15_1637,Reversal,3.2.4,59.82074116700771,
6,exp1.png,exp2.png,,,,,,,,,,,,,,,,,2,0,2,0,0,6,6,6,,,,,,,,,False,45,126,True,exp2.png,exp1.png,trial_right_image,-1,exp1.png,3,exp1.png,exp2.png,0,4,reversed,correct,0.2239729850519684,0,invalid_lose,650.0585436000256,66,,,,,,,,,,,s_007,3,2020_Nov_15_1637,Reversal,3.2.4,59.82074116700771,
7,exp3.png,exp4.png,,,,,,,,,,,,,,,,,2,0,2,0,0,7,7,7,,,,,,,,,False,46,127,False,exp3.png,exp4.png,trial_right_image,-1,exp4.png,3,exp4.png,exp3.png,1,1,non-reversed,correct,0.7837458535883643,1,valid_win,655.2249323000433,67,,,,,,,,,,,s_007,3,2020_Nov_15_1637,Reversal,3.2.4,59.82074116700771,
8,exp1.png,exp2.png,,,,,,,,,,,,,,,,,2,0,2,0,0,8,8,8,,,,,,,,,False,47,128,False,exp1.png,exp2.png,trial_right_image,-1,exp2.png,3,exp1.png,exp2.png,1,3,reversed,incorrect,0.8132101857391727,0,valid_lose,660.0234082000097,67,,,,,,,,,,,s_007,3,2020_Nov_15_1637,Reversal,3.2.4,59.82074116700771,
9,exp3.png,exp4.png,,,,,,,,,,,,,,,,,2,0,2,0,0,9,9,9,,,,,,,,,False,48,129,False,exp3.png,exp4.png,trial_left_image,1,exp3.png,3,exp4.png,exp3.png,0,2,non-reversed,incorrect,0.03681948637062171,1,invalid_win,664.1061919999775,68,,,,,,,,,,,s_007,3,2020_Nov_15_1637,Reversal,3.2.4,59.82074116700771,
10,exp1.png,exp2.png,,,,,,,,,,,,,,,,,2,0,2,0,0,10,10,10,,,,,,,,,False,49,130,True,exp2.png,exp1.png,trial_right_image,-1,exp1.png,3,exp1.png,exp2.png,0,4,reversed,correct,0.29442947477229553,1,valid_win,668.2541212000651,69,,,,,,,,,,,s_007,3,2020_Nov_15_1637,Reversal,3.2.4,59.82074116700771,
11,exp3.png,exp4.png,,,,,,,,,,,,,,,,,2,0,2,0,0,11,11,11,,,,,,,,,False,50,131,True,exp4.png,exp3.png,trial_left_image,1,exp4.png,3,exp4.png,exp3.png,1,1,non-reversed,correct,0.6570658210767342,1,valid_win,672.4194030000363,70,,,,,,,,,,,s_007,3,2020_Nov_15_1637,Reversal,3.2.4,59.82074116700771,
12,exp1.png,exp2.png,,,,,,,,,,,,,,,,,2,0,2,0,0,12,12,12,,,,,,,,,False,51,132,False,exp1.png,exp2.png,trial_right_image,-1,exp2.png,3,exp1.png,exp2.png,1,3,reversed,incorrect,0.31136239363263196,0,valid_lose,676.5018137000734,70,,,,,,,,,,,s_007,3,2020_Nov_15_1637,Reversal,3.2.4,59.82074116700771,
13,exp3.png,exp4.png,,,,,,,,,,,,,,,,,2,0,2,0,0,13,13,13,,,,,,,,,False,52,133,False,exp3.png,exp4.png,trial_left_image,1,exp3.png,3,exp4.png,exp3.png,0,2,non-reversed,incorrect,0.44911407774294765,0,valid_lose,681.0339074999793,70,,,,,,,,,,,s_007,3,2020_Nov_15_1637,Reversal,3.2.4,59.82074116700771,
14,exp1.png,exp2.png,,,,,,,,,,,,,,,,,2,0,2,0,0,14,14,14,,,,,,,,,False,53,134,True,exp2.png,exp1.png,trial_left_image,1,exp2.png,3,exp1.png,exp2.png,1,3,reversed,incorrect,0.5936983878705601,0,valid_lose,684.9328465000726,70,,,,,,,,,,,s_007,3,2020_Nov_15_1637,Reversal,3.2.4,59.82074116700771,
15,exp3.png,exp4.png,,,,,,,,,,,,,,,,,2,0,2,0,0,15,15,15,,,,,,,,,False,54,135,True,exp4.png,exp3.png,trial_left_image,1,exp4.png,3,exp4.png,exp3.png,1,1,non-reversed,correct,0.1421769373628463,0,invalid_lose,688.9646969999885,70,,,,,,,,,,,s_007,3,2020_Nov_15_1637,Reversal,3.2.4,59.82074116700771,
16,exp1.png,exp2.png,,,,,,,,,,,,,,,,,2,0,2,0,0,16,16,16,,,,,,,,,False,55,136,True,exp2.png,exp1.png,trial_right_image,-1,exp1.png,3,exp1.png,exp2.png,0,4,reversed,correct,0.009642675860281225,0,invalid_lose,693.0288566000527,70,,,,,,,,,,,s_007,3,2020_Nov_15_1637,Reversal,3.2.4,59.82074116700771,
17,exp3.png,exp4.png,,,,,,,,,,,,,,,,,2,0,2,0,0,17,17,17,,,,,,,,,False,56,137,True,exp4.png,exp3.png,trial_right_image,-1,exp3.png,3,exp4.png,exp3.png,0,2,non-reversed,incorrect,0.5079957534195154,0,valid_lose,696.86154730001,70,,,,,,,,,,,s_007,3,2020_Nov_15_1637,Reversal,3.2.4,59.82074116700771,
18,exp1.png,exp2.png,,,,,,,,,,,,,,,,,2,0,2,0,0,18,18,18,,,,,,,,,False,57,138,True,exp2.png,exp1.png,trial_right_image,-1,exp1.png,3,exp1.png,exp2.png,0,4,reversed,correct,0.1726250758889355,0,invalid_lose,701.0603883999866,70,,,,,,,,,,,s_007,3,2020_Nov_15_1637,Reversal,3.2.4,59.82074116700771,
19,exp3.png,exp4.png,,,,,,,,,,,,,,,,,2,0,2,0,0,19,19,19,,,,,,,,,False,58,139,False,exp3.png,exp4.png,trial_right_image,-1,exp4.png,3,exp4.png,exp3.png,1,1,non-reversed,correct,0.17270030551764648,0,invalid_lose,705.3578899999848,70,,,,,,,,,,,s_007,3,2020_Nov_15_1637,Reversal,3.2.4,59.82074116700771,
20,exp1.png,exp2.png,,,,,,,,,,,,,,,,,2,0,2,0,0,20,20,20,,,,,,,,,False,59,140,True,exp2.png,exp1.png,trial_left_image,1,exp2.png,3,exp1.png,exp2.png,1,3,reversed,incorrect,0.11633154788428646,1,invalid_win,709.4577084999764,71,,,,,,,,,,,s_007,3,2020_Nov_15_1637,Reversal,3.2.4,59.82074116700771,
,,,,,,,,,,,,,,,,,,,2,0,2,0,,,,,0,0,0,0,,,,,,,,,,,,,,,,,,,,,,,,,,16,50.0,19,70,,,,,,,s_007,3,2020_Nov_15_1637,Reversal,3.2.4,59.82074116700771,
,,,,,,,,,,,,,,,,,,,,,,,,,,,,,,,,,,,,,,,,,,,,,,,,,,,,,,,71,,,,,,82,46,36,290.79525810002815,1,,,,,,,
