trial_index,trial_image1_file,trial_image2_file,learning_outer_loop.thisRepN,learning_outer_loop.thisTrialN,learning_outer_loop.thisN,learning_outer_loop.thisIndex,learning_inner_loop.thisRepN,learning_inner_loop.thisTrialN,learning_inner_loop.thisN,learning_inner_loop.thisIndex,learning_estimation_outer_loop.thisRepN,learning_estimation_outer_loop.thisTrialN,learning_estimation_outer_loop.thisN,learning_estimation_outer_loop.thisIndex,learning_estimation_inner_loop.thisRepN,learning_estimation_inner_loop.thisTrialN,learning_estimation_inner_loop.thisN,learning_estimation_inner_loop.thisIndex,reversal_outer_loop.thisRepN,reversal_outer_loop.thisTrialN,reversal_outer_loop.thisN,reversal_outer_loop.thisIndex,reversal_inner_loop.thisRepN,reversal_inner_loop.thisTrialN,reversal_inner_loop.thisN,reversal_inner_loop.thisIndex,reversal_estimation_outer_loop.thisRepN,reversal_estimation_outer_loop.thisTrialN,reversal_estimation_outer_loop.thisN,reversal_estimation_outer_loop.thisIndex,reversal_estimation_inner_loop.thisRepN,reversal_estimation_inner_loop.thisTrialN,reversal_estimation_inner_loop.thisN,reversal_estimation_inner_loop.thisIndex,skipped,total_trial_counter,trial_num,left_right_flip,left_image_file,right_image_file,clicked_stimulus_side,side,clicked_stimulus,version,high_prob_image_file,low_prob_image_file,choice_a,choice_b,pair_type,correct,trial_feedback_random,reward,trial_type,overall_time_after_trial,score,estimation_exp1.png,estimation_exp2.png,estimation_exp3.png,estimation_exp4.png,total_learning_time,total_correct,learning_correct,reversal_correct,total_reversal_time,extra_block,participant,ver,date,expName,psychopyVersion,frameRate,
0,exp1.png,exp2.png,0,0,0,0,0,0,0,0,,,,,,,,,,,,,,,,,,,,,,,,,False,0,1,False,exp1.png,exp2.png,trial_right_image,-1,exp2.png,4,exp2.png,exp1.png,1,1,non-reversed,correct,0.524361034280099,1,valid_win,6.061291299993172,1,,,,,,,,,,,s_003,4,2020_Nov_05_1337,Reversal,3.2.4,59.87859017320491,
1,exp3.png,exp4.png,0,0,0,0,0,1,1,1,,,,,,,,,,,,,,,,,,,,,,,,,False,1,2,True,exp4.png,exp3.png,trial_right_image,-1,exp3.png,4,exp4.png,exp3.png,0,4,reversed,incorrect,0.898217051905873,0,valid_lose,12.142759800015483,1,,,,,,,,,,,s_003,4,2020_Nov_05_1337,Reversal,3.2.4,59.87859017320491,
2,exp1.png,exp2.png,0,0,0,0,0,2,2,2,,,,,,,,,,,,,,,,,,,,,,,,,False,2,3,True,exp2.png,exp1.png,trial_left_image,1,exp2.png,4,exp2.png,exp1.png,1,1,non-reversed,correct,0.11858050613349103,0,invalid_lose,17.407666000013705,1,,,,,,,,,,,s_003,4,2020_Nov_05_1337,Reversal,3.2.4,59.87859017320491,
3,exp3.png,exp4.png,0,0,0,0,0,3,3,3,,,,,,,,,,,,,,,,,,,,,,,,,False,3,4,False,exp3.png,exp4.png,trial_right_image,-1,exp4.png,4,exp4.png,exp3.png,1,3,reversed,correct,0.08842559296497743,0,invalid_lose,24.13902170001529,1,,,,,,,,,,,s_003,4,2020_Nov_05_1337,Reversal,3.2.4,59.87859017320491,
4,exp1.png,exp2.png,0,0,0,0,0,4,4,4,,,,,,,,,,,,,,,,,,,,,,,,,False,4,5,True,exp2.png,exp1.png,trial_left_image,1,exp2.png,4,exp2.png,exp1.png,1,1,non-reversed,correct,0.62891132322327,1,valid_win,32.38571729999967,2,,,,,,,,,,,s_003,4,2020_Nov_05_1337,Reversal,3.2.4,59.87859017320491,
5,exp3.png,exp4.png,0,0,0,0,0,5,5,5,,,,,,,,,,,,,,,,,,,,,,,,,False,5,6,False,exp3.png,exp4.png,trial_left_image,1,exp3.png,4,exp4.png,exp3.png,0,4,reversed,incorrect,0.08260992793377853,1,invalid_win,38.182987700012745,3,,,,,,,,,,,s_003,4,2020_Nov_05_1337,Reversal,3.2.4,59.87859017320491,
6,exp1.png,exp2.png,0,0,0,0,0,6,6,6,,,,,,,,,,,,,,,,,,,,,,,,,False,6,7,True,exp2.png,exp1.png,trial_left_image,1,exp2.png,4,exp2.png,exp1.png,1,1,non-reversed,correct,0.4340534562009051,1,valid_win,43.414225100015756,4,,,,,,,,,,,s_003,4,2020_Nov_05_1337,Reversal,3.2.4,59.87859017320491,
7,exp3.png,exp4.png,0,0,0,0,0,7,7,7,,,,,,,,,,,,,,,,,,,,,,,,,False,7,8,False,exp3.png,exp4.png,trial_left_image,1,exp3.png,4,exp4.png,exp3.png,0,4,reversed,incorrect,0.6228549931216949,0,valid_lose,49.1299871999945,4,,,,,,,,,,,s_003,4,2020_Nov_05_1337,Reversal,3.2.4,59.87859017320491,
8,exp1.png,exp2.png,0,0,0,0,0,8,8,8,,,,,,,,,,,,,,,,,,,,,,,,,False,8,9,True,exp2.png,exp1.png,trial_left_image,1,exp2.png,4,exp2.png,exp1.png,1,1,non-reversed,correct,0.892400964763128,1,valid_win,56.37757420001435,5,,,,,,,,,,,s_003,4,2020_Nov_05_1337,Reversal,3.2.4,59.87859017320491,
9,exp3.png,exp4.png,0,0,0,0,0,9,9,9,,,,,,,,,,,,,,,,,,,,,,,,,False,9,10,False,exp3.png,exp4.png,trial_right_image,-1,exp4.png,4,exp4.png,exp3.png,1,3,reversed,correct,0.21019415857724721,0,invalid_lose,62.009081199998036,5,,,,,,,,,,,s_003,4,2020_Nov_05_1337,Reversal,3.2.4,59.87859017320491,
10,exp1.png,exp2.png,0,0,0,0,0,10,10,10,,,,,,,,,,,,,,,,,,,,,,,,,False,10,11,False,exp1.png,exp2.png,trial_right_image,-1,exp2.png,4,exp2.png,exp1.png,1,1,non-reversed,correct,0.2319896604679127,0,invalid_lose,68.9388684000005,5,,,,,,,,,,,s_003,4,2020_Nov_05_1337,Reversal,3.2.4,59.87859017320491,
11,exp3.png,exp4.png,0,0,0,0,0,11,11,11,,,,,,,,,,,,,,,,,,,,,,,,,False,11,12,True,exp4.png,exp3.png,trial_right_image,-1,exp3.png,4,exp4.png,exp3.png,0,4,reversed,incorrect,0.051084460637006,1,invalid_win,78.28682120001758,6,,,,,,,,,,,s_003,4,2020_Nov_05_1337,Reversal,3.2.4,59.87859017320491,
12,exp1.png,exp2.png,0,0,0,0,0,12,12,12,,,,,,,,,,,,,,,,,,,,,,,,,False,12,13,True,exp2.png,exp1.png,trial_left_image,1,exp2.png,4,exp2.png,exp1.png,1,1,non-reversed,correct,0.1630188565062568,0,invalid_lose,83.41947990001063,6,,,,,,,,,,,s_003,4,2020_Nov_05_1337,Reversal,3.2.4,59.87859017320491,
13,exp3.png,exp4.png,0,0,0,0,0,13,13,13,,,,,,,,,,,,,,,,,,,,,,,,,False,13,14,False,exp3.png,exp4.png,trial_left_image,1,exp3.png,4,exp4.png,exp3.png,0,4,reversed,incorrect,0.6341499597914337,0,valid_lose,88.18384300000616,6,,,,,,,,,,,s_003,4,2020_Nov_05_1337,Reversal,3.2.4,59.87859017320491,
14,exp1.png,exp2.png,0,0,0,0,0,14,14,14,,,,,,,,,,,,,,,,,,,,,,,,,False,14,15,True,exp2.png,exp1.png,trial_right_image,-1,exp1.png,4,exp2.png,exp1.png,0,2,non-reversed,incorrect,0.14075459372097476,1,invalid_win,95.5648019000073,7,,,,,,,,,,,s_003,4,2020_Nov_05_1337,Reversal,3.2.4,59.87859017320491,
15,exp3.png,exp4.png,0,0,0,0,0,15,15,15,,,,,,,,,,,,,,,,,,,,,,,,,False,15,16,False,exp3.png,exp4.png,trial_left_image,1,exp3.png,4,exp4.png,exp3.png,0,4,reversed,incorrect,0.6541306275228259,0,valid_lose,105.12824270001147,7,,,,,,,,,,,s_003,4,2020_Nov_05_1337,Reversal,3.2.4,59.87859017320491,
16,exp1.png,exp2.png,0,0,0,0,0,16,16,16,,,,,,,,,,,,,,,,,,,,,,,,,False,16,17,False,exp1.png,exp2.png,trial_right_image,-1,exp2.png,4,exp2.png,exp1.png,1,1,non-reversed,correct,0.31003105254426755,1,valid_win,113.00741210000706,8,,,,,,,,,,,s_003,4,2020_Nov_05_1337,Reversal,3.2.4,59.87859017320491,
17,exp3.png,exp4.png,0,0,0,0,0,17,17,17,,,,,,,,,,,,,,,,,,,,,,,,,False,17,18,True,exp4.png,exp3.png,trial_left_image,1,exp4.png,4,exp4.png,exp3.png,1,3,reversed,correct,0.6964034854460545,1,valid_win,130.60125649999827,9,,,,,,,,,,,s_003,4,2020_Nov_05_1337,Reversal,3.2.4,59.87859017320491,
18,exp1.png,exp2.png,0,0,0,0,0,18,18,18,,,,,,,,,,,,,,,,,,,,,,,,,False,18,19,False,exp1.png,exp2.png,trial_left_image,1,exp1.png,4,exp2.png,exp1.png,0,2,non-reversed,incorrect,0.9857392356599017,0,valid_lose,136.38406350000878,9,,,,,,,,,,,s_003,4,2020_Nov_05_1337,Reversal,3.2.4,59.87859017320491,
19,exp3.png,exp4.png,0,0,0,0,0,19,19,19,,,,,,,,,,,,,,,,,,,,,,,,,False,19,20,True,exp4.png,exp3.png,trial_right_image,-1,exp3.png,4,exp4.png,exp3.png,0,4,reversed,incorrect,0.27401513608297656,0,valid_lose,142.4822193,9,,,,,,,,,,,s_003,4,2020_Nov_05_1337,Reversal,3.2.4,59.87859017320491,
20,exp1.png,exp2.png,0,0,0,0,0,20,20,20,,,,,,,,,,,,,,,,,,,,,,,,,True,,,,,,,,,,,,,,,,,,,,,,,,,,,,,,,s_003,4,2020_Nov_05_1337,Reversal,3.2.4,59.87859017320491,
,,,0,0,0,0,,,,,0,0,0,0,,,,,,,,,,,,,,,,,,,,,,,,,,,,,,,,,,,,,,,,,,23,77,28,50.0,,,,,,,s_003,4,2020_Nov_05_1337,Reversal,3.2.4,59.87859017320491,
0,exp1.png,exp2.png,1,0,1,0,0,0,0,0,,,,,,,,,,,,,,,,,,,,,,,,,False,20,21,False,exp1.png,exp2.png,trial_right_image,-1,exp2.png,4,exp2.png,exp1.png,1,1,non-reversed,correct,0.8758185998990018,1,valid_win,177.78680259999237,10,,,,,,,,,,,s_003,4,2020_Nov_05_1337,Reversal,3.2.4,59.87859017320491,
1,exp3.png,exp4.png,1,0,1,0,0,1,1,1,,,,,,,,,,,,,,,,,,,,,,,,,False,21,22,True,exp4.png,exp3.png,trial_left_image,1,exp4.png,4,exp4.png,exp3.png,1,3,reversed,correct,0.1108243269457273,0,invalid_lose,184.7178804000141,10,,,,,,,,,,,s_003,4,2020_Nov_05_1337,Reversal,3.2.4,59.87859017320491,
2,exp1.png,exp2.png,1,0,1,0,0,2,2,2,,,,,,,,,,,,,,,,,,,,,,,,,False,22,23,True,exp2.png,exp1.png,trial_left_image,1,exp2.png,4,exp2.png,exp1.png,1,1,non-reversed,correct,0.8821313482894716,1,valid_win,189.53320540001732,11,,,,,,,,,,,s_003,4,2020_Nov_05_1337,Reversal,3.2.4,59.87859017320491,
3,exp3.png,exp4.png,1,0,1,0,0,3,3,3,,,,,,,,,,,,,,,,,,,,,,,,,False,23,24,False,exp3.png,exp4.png,trial_left_image,1,exp3.png,4,exp4.png,exp3.png,0,4,reversed,incorrect,0.18096640762434157,1,invalid_win,195.9306370000122,12,,,,,,,,,,,s_003,4,2020_Nov_05_1337,Reversal,3.2.4,59.87859017320491,
4,exp1.png,exp2.png,1,0,1,0,0,4,4,4,,,,,,,,,,,,,,,,,,,,,,,,,False,24,25,False,exp1.png,exp2.png,trial_right_image,-1,exp2.png,4,exp2.png,exp1.png,1,1,non-reversed,correct,0.2491314405597509,0,invalid_lose,202.2440443999949,12,,,,,,,,,,,s_003,4,2020_Nov_05_1337,Reversal,3.2.4,59.87859017320491,
5,exp3.png,exp4.png,1,0,1,0,0,5,5,5,,,,,,,,,,,,,,,,,,,,,,,,,False,25,26,False,exp3.png,exp4.png,trial_right_image,-1,exp4.png,4,exp4.png,exp3.png,1,3,reversed,correct,0.8668696615995122,1,valid_win,212.4573045000143,13,,,,,,,,,,,s_003,4,2020_Nov_05_1337,Reversal,3.2.4,59.87859017320491,
6,exp1.png,exp2.png,1,0,1,0,0,6,6,6,,,,,,,,,,,,,,,,,,,,,,,,,False,26,27,True,exp2.png,exp1.png,trial_left_image,1,exp2.png,4,exp2.png,exp1.png,1,1,non-reversed,correct,0.4491074116137719,1,valid_win,219.68960280000465,14,,,,,,,,,,,s_003,4,2020_Nov_05_1337,Reversal,3.2.4,59.87859017320491,
7,exp3.png,exp4.png,1,0,1,0,0,7,7,7,,,,,,,,,,,,,,,,,,,,,,,,,False,27,28,False,exp3.png,exp4.png,trial_right_image,-1,exp4.png,4,exp4.png,exp3.png,1,3,reversed,correct,0.05250646942259252,0,invalid_lose,234.91721899999538,14,,,,,,,,,,,s_003,4,2020_Nov_05_1337,Reversal,3.2.4,59.87859017320491,
8,exp1.png,exp2.png,1,0,1,0,0,8,8,8,,,,,,,,,,,,,,,,,,,,,,,,,False,28,29,True,exp2.png,exp1.png,trial_left_image,1,exp2.png,4,exp2.png,exp1.png,1,1,non-reversed,correct,0.6136555282608607,1,valid_win,241.49859259999357,15,,,,,,,,,,,s_003,4,2020_Nov_05_1337,Reversal,3.2.4,59.87859017320491,
9,exp3.png,exp4.png,1,0,1,0,0,9,9,9,,,,,,,,,,,,,,,,,,,,,,,,,False,29,30,True,exp4.png,exp3.png,trial_left_image,1,exp4.png,4,exp4.png,exp3.png,1,3,reversed,correct,0.8218889749709422,1,valid_win,246.89708450000035,16,,,,,,,,,,,s_003,4,2020_Nov_05_1337,Reversal,3.2.4,59.87859017320491,
10,exp1.png,exp2.png,1,0,1,0,0,10,10,10,,,,,,,,,,,,,,,,,,,,,,,,,False,30,31,False,exp1.png,exp2.png,trial_right_image,-1,exp2.png,4,exp2.png,exp1.png,1,1,non-reversed,correct,0.787044916504725,1,valid_win,253.72861379999085,17,,,,,,,,,,,s_003,4,2020_Nov_05_1337,Reversal,3.2.4,59.87859017320491,
11,exp3.png,exp4.png,1,0,1,0,0,11,11,11,,,,,,,,,,,,,,,,,,,,,,,,,False,31,32,False,exp3.png,exp4.png,trial_right_image,-1,exp4.png,4,exp4.png,exp3.png,1,3,reversed,correct,0.5565276218349121,1,valid_win,261.4420463000133,18,,,,,,,,,,,s_003,4,2020_Nov_05_1337,Reversal,3.2.4,59.87859017320491,
12,exp1.png,exp2.png,1,0,1,0,0,12,12,12,,,,,,,,,,,,,,,,,,,,,,,,,False,32,33,False,exp1.png,exp2.png,trial_right_image,-1,exp2.png,4,exp2.png,exp1.png,1,1,non-reversed,correct,0.307300102345219,1,valid_win,266.47383100001025,19,,,,,,,,,,,s_003,4,2020_Nov_05_1337,Reversal,3.2.4,59.87859017320491,
13,exp3.png,exp4.png,1,0,1,0,0,13,13,13,,,,,,,,,,,,,,,,,,,,,,,,,False,33,34,True,exp4.png,exp3.png,trial_left_image,1,exp4.png,4,exp4.png,exp3.png,1,3,reversed,correct,0.22206521849456218,0,invalid_lose,274.33816189999925,19,,,,,,,,,,,s_003,4,2020_Nov_05_1337,Reversal,3.2.4,59.87859017320491,
14,exp1.png,exp2.png,1,0,1,0,0,14,14,14,,,,,,,,,,,,,,,,,,,,,,,,,False,34,35,False,exp1.png,exp2.png,trial_right_image,-1,exp2.png,4,exp2.png,exp1.png,1,1,non-reversed,correct,0.009796034886000227,0,invalid_lose,279.0172462000046,19,,,,,,,,,,,s_003,4,2020_Nov_05_1337,Reversal,3.2.4,59.87859017320491,
15,exp3.png,exp4.png,1,0,1,0,0,15,15,15,,,,,,,,,,,,,,,,,,,,,,,,,False,35,36,False,exp3.png,exp4.png,trial_right_image,-1,exp4.png,4,exp4.png,exp3.png,1,3,reversed,correct,0.8860459208097524,1,valid_win,283.9657786000171,20,,,,,,,,,,,s_003,4,2020_Nov_05_1337,Reversal,3.2.4,59.87859017320491,
16,exp1.png,exp2.png,1,0,1,0,0,16,16,16,,,,,,,,,,,,,,,,,,,,,,,,,False,36,37,True,exp2.png,exp1.png,trial_left_image,1,exp2.png,4,exp2.png,exp1.png,1,1,non-reversed,correct,0.9473925243903725,1,valid_win,290.8481861000182,21,,,,,,,,,,,s_003,4,2020_Nov_05_1337,Reversal,3.2.4,59.87859017320491,
17,exp3.png,exp4.png,1,0,1,0,0,17,17,17,,,,,,,,,,,,,,,,,,,,,,,,,False,37,38,True,exp4.png,exp3.png,trial_left_image,1,exp4.png,4,exp4.png,exp3.png,1,3,reversed,correct,0.29581251838506917,1,valid_win,300.34581450000405,22,,,,,,,,,,,s_003,4,2020_Nov_05_1337,Reversal,3.2.4,59.87859017320491,
18,exp1.png,exp2.png,1,0,1,0,0,18,18,18,,,,,,,,,,,,,,,,,,,,,,,,,False,38,39,True,exp2.png,exp1.png,trial_left_image,1,exp2.png,4,exp2.png,exp1.png,1,1,non-reversed,correct,0.8335362373023123,1,valid_win,306.71015319999424,23,,,,,,,,,,,s_003,4,2020_Nov_05_1337,Reversal,3.2.4,59.87859017320491,
19,exp3.png,exp4.png,1,0,1,0,0,19,19,19,,,,,,,,,,,,,,,,,,,,,,,,,False,39,40,True,exp4.png,exp3.png,trial_left_image,1,exp4.png,4,exp4.png,exp3.png,1,3,reversed,correct,0.48319943359765316,1,valid_win,312.8413315000071,24,,,,,,,,,,,s_003,4,2020_Nov_05_1337,Reversal,3.2.4,59.87859017320491,
20,exp1.png,exp2.png,1,0,1,0,0,20,20,20,,,,,,,,,,,,,,,,,,,,,,,,,True,,,,,,,,,,,,,,,,,,,,,,,,,,,,,,,s_003,4,2020_Nov_05_1337,Reversal,3.2.4,59.87859017320491,
,,,1,0,1,0,,,,,0,0,0,0,,,,,,,,,,,,,,,,,,,,,,,,,,,,,,,,,,,,,,,,,,25,70,30,63,,,,,,,s_003,4,2020_Nov_05_1337,Reversal,3.2.4,59.87859017320491,
0,exp1.png,exp2.png,2,0,2,0,0,0,0,0,,,,,,,,,,,,,,,,,,,,,,,,,False,40,41,False,exp1.png,exp2.png,trial_right_image,-1,exp2.png,4,exp2.png,exp1.png,1,1,non-reversed,correct,0.6931540174494186,1,valid_win,335.4156198000128,25,,,,,,,,,,,s_003,4,2020_Nov_05_1337,Reversal,3.2.4,59.87859017320491,
1,exp3.png,exp4.png,2,0,2,0,0,1,1,1,,,,,,,,,,,,,,,,,,,,,,,,,False,41,42,True,exp4.png,exp3.png,trial_left_image,1,exp4.png,4,exp4.png,exp3.png,1,3,reversed,correct,0.8368293635346589,1,valid_win,340.64871290000156,26,,,,,,,,,,,s_003,4,2020_Nov_05_1337,Reversal,3.2.4,59.87859017320491,
2,exp1.png,exp2.png,2,0,2,0,0,2,2,2,,,,,,,,,,,,,,,,,,,,,,,,,False,42,43,False,exp1.png,exp2.png,trial_right_image,-1,exp2.png,4,exp2.png,exp1.png,1,1,non-reversed,correct,0.39559043894235646,1,valid_win,344.9976602999959,27,,,,,,,,,,,s_003,4,2020_Nov_05_1337,Reversal,3.2.4,59.87859017320491,
3,exp3.png,exp4.png,2,0,2,0,0,3,3,3,,,,,,,,,,,,,,,,,,,,,,,,,False,43,44,False,exp3.png,exp4.png,trial_right_image,-1,exp4.png,4,exp4.png,exp3.png,1,3,reversed,correct,0.6068163147282986,1,valid_win,349.97882879999815,28,,,,,,,,,,,s_003,4,2020_Nov_05_1337,Reversal,3.2.4,59.87859017320491,
4,exp1.png,exp2.png,2,0,2,0,0,4,4,4,,,,,,,,,,,,,,,,,,,,,,,,,False,44,45,True,exp2.png,exp1.png,trial_left_image,1,exp2.png,4,exp2.png,exp1.png,1,1,non-reversed,correct,0.9814315260992641,1,valid_win,354.62604020000435,29,,,,,,,,,,,s_003,4,2020_Nov_05_1337,Reversal,3.2.4,59.87859017320491,
5,exp3.png,exp4.png,2,0,2,0,0,5,5,5,,,,,,,,,,,,,,,,,,,,,,,,,False,45,46,False,exp3.png,exp4.png,trial_right_image,-1,exp4.png,4,exp4.png,exp3.png,1,3,reversed,correct,0.18601451136389824,0,invalid_lose,359.2089904000168,29,,,,,,,,,,,s_003,4,2020_Nov_05_1337,Reversal,3.2.4,59.87859017320491,
6,exp1.png,exp2.png,2,0,2,0,0,6,6,6,,,,,,,,,,,,,,,,,,,,,,,,,False,46,47,True,exp2.png,exp1.png,trial_left_image,1,exp2.png,4,exp2.png,exp1.png,1,1,non-reversed,correct,0.6576810617841238,1,valid_win,363.62346329999855,30,,,,,,,,,,,s_003,4,2020_Nov_05_1337,Reversal,3.2.4,59.87859017320491,
7,exp3.png,exp4.png,2,0,2,0,0,7,7,7,,,,,,,,,,,,,,,,,,,,,,,,,False,47,48,True,exp4.png,exp3.png,trial_left_image,1,exp4.png,4,exp4.png,exp3.png,1,3,reversed,correct,0.41034894656070975,1,valid_win,368.1064291000075,31,,,,,,,,,,,s_003,4,2020_Nov_05_1337,Reversal,3.2.4,59.87859017320491,
8,exp1.png,exp2.png,2,0,2,0,0,8,8,8,,,,,,,,,,,,,,,,,,,,,,,,,False,48,49,True,exp2.png,exp1.png,trial_left_image,1,exp2.png,4,exp2.png,exp1.png,1,1,non-reversed,correct,0.41977299337634055,1,valid_win,372.83774540000013,32,,,,,,,,,,,s_003,4,2020_Nov_05_1337,Reversal,3.2.4,59.87859017320491,
9,exp3.png,exp4.png,2,0,2,0,0,9,9,9,,,,,,,,,,,,,,,,,,,,,,,,,False,49,50,False,exp3.png,exp4.png,trial_right_image,-1,exp4.png,4,exp4.png,exp3.png,1,3,reversed,correct,0.1521867341369212,0,invalid_lose,377.06959699999425,32,,,,,,,,,,,s_003,4,2020_Nov_05_1337,Reversal,3.2.4,59.87859017320491,
10,exp1.png,exp2.png,2,0,2,0,0,10,10,10,,,,,,,,,,,,,,,,,,,,,,,,,False,50,51,False,exp1.png,exp2.png,trial_right_image,-1,exp2.png,4,exp2.png,exp1.png,1,1,non-reversed,correct,0.7033464057550907,1,valid_win,381.46855069999583,33,,,,,,,,,,,s_003,4,2020_Nov_05_1337,Reversal,3.2.4,59.87859017320491,
11,exp3.png,exp4.png,2,0,2,0,0,11,11,11,,,,,,,,,,,,,,,,,,,,,,,,,False,51,52,False,exp3.png,exp4.png,trial_left_image,1,exp3.png,4,exp4.png,exp3.png,0,4,reversed,incorrect,0.25283216207158,0,valid_lose,386.01674200000707,33,,,,,,,,,,,s_003,4,2020_Nov_05_1337,Reversal,3.2.4,59.87859017320491,
12,exp1.png,exp2.png,2,0,2,0,0,12,12,12,,,,,,,,,,,,,,,,,,,,,,,,,False,52,53,False,exp1.png,exp2.png,trial_right_image,-1,exp2.png,4,exp2.png,exp1.png,1,1,non-reversed,correct,0.8045714543676332,1,valid_win,390.4984810000169,34,,,,,,,,,,,s_003,4,2020_Nov_05_1337,Reversal,3.2.4,59.87859017320491,
13,exp3.png,exp4.png,2,0,2,0,0,13,13,13,,,,,,,,,,,,,,,,,,,,,,,,,False,53,54,False,exp3.png,exp4.png,trial_left_image,1,exp3.png,4,exp4.png,exp3.png,0,4,reversed,incorrect,0.6809270564302693,0,valid_lose,394.7972788999905,34,,,,,,,,,,,s_003,4,2020_Nov_05_1337,Reversal,3.2.4,59.87859017320491,
14,exp1.png,exp2.png,2,0,2,0,0,14,14,14,,,,,,,,,,,,,,,,,,,,,,,,,False,54,55,True,exp2.png,exp1.png,trial_right_image,-1,exp1.png,4,exp2.png,exp1.png,0,2,non-reversed,incorrect,0.4118985232104616,0,valid_lose,399.01249449999887,34,,,,,,,,,,,s_003,4,2020_Nov_05_1337,Reversal,3.2.4,59.87859017320491,
15,exp3.png,exp4.png,2,0,2,0,0,15,15,15,,,,,,,,,,,,,,,,,,,,,,,,,False,55,56,True,exp4.png,exp3.png,trial_left_image,1,exp4.png,4,exp4.png,exp3.png,1,3,reversed,correct,0.9406560180649882,1,valid_win,403.79387439999846,35,,,,,,,,,,,s_003,4,2020_Nov_05_1337,Reversal,3.2.4,59.87859017320491,
16,exp1.png,exp2.png,2,0,2,0,0,16,16,16,,,,,,,,,,,,,,,,,,,,,,,,,False,56,57,True,exp2.png,exp1.png,trial_left_image,1,exp2.png,4,exp2.png,exp1.png,1,1,non-reversed,correct,0.8822579453743149,1,valid_win,408.80884040001547,36,,,,,,,,,,,s_003,4,2020_Nov_05_1337,Reversal,3.2.4,59.87859017320491,
17,exp3.png,exp4.png,2,0,2,0,0,17,17,17,,,,,,,,,,,,,,,,,,,,,,,,,False,57,58,True,exp4.png,exp3.png,trial_left_image,1,exp4.png,4,exp4.png,exp3.png,1,3,reversed,correct,0.16770558193727048,0,invalid_lose,415.3901923999947,36,,,,,,,,,,,s_003,4,2020_Nov_05_1337,Reversal,3.2.4,59.87859017320491,
18,exp1.png,exp2.png,2,0,2,0,0,18,18,18,,,,,,,,,,,,,,,,,,,,,,,,,False,58,59,True,exp2.png,exp1.png,trial_left_image,1,exp2.png,4,exp2.png,exp1.png,1,1,non-reversed,correct,0.6106891972672036,1,valid_win,420.92189009999856,37,,,,,,,,,,,s_003,4,2020_Nov_05_1337,Reversal,3.2.4,59.87859017320491,
19,exp3.png,exp4.png,2,0,2,0,0,19,19,19,,,,,,,,,,,,,,,,,,,,,,,,,False,59,60,False,exp3.png,exp4.png,trial_right_image,-1,exp4.png,4,exp4.png,exp3.png,1,3,reversed,correct,0.23638976878865003,0,invalid_lose,426.2199052000069,37,,,,,,,,,,,s_003,4,2020_Nov_05_1337,Reversal,3.2.4,59.87859017320491,
20,exp1.png,exp2.png,2,0,2,0,0,20,20,20,,,,,,,,,,,,,,,,,,,,,,,,,True,,,,,,,,,,,,,,,,,,,,,,,,,,,,,,,s_003,4,2020_Nov_05_1337,Reversal,3.2.4,59.87859017320491,
,,,2,0,2,0,,,,,0,0,0,0,,,,,,,,,,,,,,,,,,,,,,,,,,,,,,,,,,,,,,,,,,23,100,22,25,,,,,,,s_003,4,2020_Nov_05_1337,Reversal,3.2.4,59.87859017320491,
0,exp1.png,exp2.png,,,,,,,,,,,,,,,,,0,0,0,0,0,0,0,0,,,,,,,,,False,0,61,True,exp2.png,exp1.png,trial_left_image,1,exp2.png,4,exp2.png,exp1.png,1,1,non-reversed,correct,0.2853523839077381,1,valid_win,450.76143939999747,38,,,,,446.6430883000139,,,,,,s_003,4,2020_Nov_05_1337,Reversal,3.2.4,59.87859017320491,
1,exp3.png,exp4.png,,,,,,,,,,,,,,,,,0,0,0,0,0,1,1,1,,,,,,,,,False,1,62,False,exp3.png,exp4.png,trial_right_image,-1,exp4.png,4,exp3.png,exp4.png,1,3,reversed,incorrect,0.049330138406472934,1,invalid_win,455.3769544000097,39,,,,,,,,,,,s_003,4,2020_Nov_05_1337,Reversal,3.2.4,59.87859017320491,
2,exp1.png,exp2.png,,,,,,,,,,,,,,,,,0,0,0,0,0,2,2,2,,,,,,,,,False,2,63,True,exp2.png,exp1.png,trial_left_image,1,exp2.png,4,exp2.png,exp1.png,1,1,non-reversed,correct,0.5629155732126272,1,valid_win,459.65851169999223,40,,,,,,,,,,,s_003,4,2020_Nov_05_1337,Reversal,3.2.4,59.87859017320491,
3,exp3.png,exp4.png,,,,,,,,,,,,,,,,,0,0,0,0,0,3,3,3,,,,,,,,,False,3,64,False,exp3.png,exp4.png,trial_right_image,-1,exp4.png,4,exp3.png,exp4.png,1,3,reversed,incorrect,0.9773449460236084,0,valid_lose,466.872654900013,40,,,,,,,,,,,s_003,4,2020_Nov_05_1337,Reversal,3.2.4,59.87859017320491,
4,exp1.png,exp2.png,,,,,,,,,,,,,,,,,0,0,0,0,0,4,4,4,,,,,,,,,False,4,65,False,exp1.png,exp2.png,trial_left_image,1,exp1.png,4,exp2.png,exp1.png,0,2,non-reversed,incorrect,0.9812417467802622,0,valid_lose,471.63797760001034,40,,,,,,,,,,,s_003,4,2020_Nov_05_1337,Reversal,3.2.4,59.87859017320491,
5,exp3.png,exp4.png,,,,,,,,,,,,,,,,,0,0,0,0,0,5,5,5,,,,,,,,,False,5,66,True,exp4.png,exp3.png,trial_right_image,-1,exp3.png,4,exp3.png,exp4.png,0,4,reversed,correct,0.8296877299912911,1,valid_win,476.96939559999737,41,,,,,,,,,,,s_003,4,2020_Nov_05_1337,Reversal,3.2.4,59.87859017320491,
6,exp1.png,exp2.png,,,,,,,,,,,,,,,,,0,0,0,0,0,6,6,6,,,,,,,,,False,6,67,True,exp2.png,exp1.png,trial_left_image,1,exp2.png,4,exp2.png,exp1.png,1,1,non-reversed,correct,0.5324893655008958,1,valid_win,481.8845080000174,42,,,,,,,,,,,s_003,4,2020_Nov_05_1337,Reversal,3.2.4,59.87859017320491,
7,exp3.png,exp4.png,,,,,,,,,,,,,,,,,0,0,0,0,0,7,7,7,,,,,,,,,False,7,68,False,exp3.png,exp4.png,trial_left_image,1,exp3.png,4,exp3.png,exp4.png,0,4,reversed,correct,0.39084310789831744,1,valid_win,486.4996512999933,43,,,,,,,,,,,s_003,4,2020_Nov_05_1337,Reversal,3.2.4,59.87859017320491,
8,exp1.png,exp2.png,,,,,,,,,,,,,,,,,0,0,0,0,0,8,8,8,,,,,,,,,False,8,69,False,exp1.png,exp2.png,trial_right_image,-1,exp2.png,4,exp2.png,exp1.png,1,1,non-reversed,correct,0.4251725175268579,1,valid_win,491.5144299000094,44,,,,,,,,,,,s_003,4,2020_Nov_05_1337,Reversal,3.2.4,59.87859017320491,
9,exp3.png,exp4.png,,,,,,,,,,,,,,,,,0,0,0,0,0,9,9,9,,,,,,,,,False,9,70,True,exp4.png,exp3.png,trial_right_image,-1,exp3.png,4,exp3.png,exp4.png,0,4,reversed,correct,0.2507071628239519,1,valid_win,496.129449,45,,,,,,,,,,,s_003,4,2020_Nov_05_1337,Reversal,3.2.4,59.87859017320491,
10,exp1.png,exp2.png,,,,,,,,,,,,,,,,,0,0,0,0,0,10,10,10,,,,,,,,,False,10,71,False,exp1.png,exp2.png,trial_right_image,-1,exp2.png,4,exp2.png,exp1.png,1,1,non-reversed,correct,0.062269488839487575,0,invalid_lose,501.19443060000776,45,,,,,,,,,,,s_003,4,2020_Nov_05_1337,Reversal,3.2.4,59.87859017320491,
11,exp3.png,exp4.png,,,,,,,,,,,,,,,,,0,0,0,0,0,11,11,11,,,,,,,,,False,11,72,True,exp4.png,exp3.png,trial_right_image,-1,exp3.png,4,exp3.png,exp4.png,0,4,reversed,correct,0.23696828188593866,0,invalid_lose,507.42620799998986,45,,,,,,,,,,,s_003,4,2020_Nov_05_1337,Reversal,3.2.4,59.87859017320491,
12,exp1.png,exp2.png,,,,,,,,,,,,,,,,,0,0,0,0,0,12,12,12,,,,,,,,,False,12,73,True,exp2.png,exp1.png,trial_left_image,1,exp2.png,4,exp2.png,exp1.png,1,1,non-reversed,correct,0.8190043165189999,1,valid_win,512.4241055000166,46,,,,,,,,,,,s_003,4,2020_Nov_05_1337,Reversal,3.2.4,59.87859017320491,
13,exp3.png,exp4.png,,,,,,,,,,,,,,,,,0,0,0,0,0,13,13,13,,,,,,,,,False,13,74,True,exp4.png,exp3.png,trial_right_image,-1,exp3.png,4,exp3.png,exp4.png,0,4,reversed,correct,0.24640308118252796,0,invalid_lose,516.6225790000171,46,,,,,,,,,,,s_003,4,2020_Nov_05_1337,Reversal,3.2.4,59.87859017320491,
14,exp1.png,exp2.png,,,,,,,,,,,,,,,,,0,0,0,0,0,14,14,14,,,,,,,,,False,14,75,False,exp1.png,exp2.png,trial_right_image,-1,exp2.png,4,exp2.png,exp1.png,1,1,non-reversed,correct,0.6249646337948763,1,valid_win,521.4533242000034,47,,,,,,,,,,,s_003,4,2020_Nov_05_1337,Reversal,3.2.4,59.87859017320491,
15,exp3.png,exp4.png,,,,,,,,,,,,,,,,,0,0,0,0,0,15,15,15,,,,,,,,,False,15,76,False,exp3.png,exp4.png,trial_right_image,-1,exp4.png,4,exp3.png,exp4.png,1,3,reversed,incorrect,0.862573108769061,0,valid_lose,525.9526564000116,47,,,,,,,,,,,s_003,4,2020_Nov_05_1337,Reversal,3.2.4,59.87859017320491,
16,exp1.png,exp2.png,,,,,,,,,,,,,,,,,0,0,0,0,0,16,16,16,,,,,,,,,False,16,77,True,exp2.png,exp1.png,trial_left_image,1,exp2.png,4,exp2.png,exp1.png,1,1,non-reversed,correct,0.9870435578959921,1,valid_win,530.4841719999968,48,,,,,,,,,,,s_003,4,2020_Nov_05_1337,Reversal,3.2.4,59.87859017320491,
17,exp3.png,exp4.png,,,,,,,,,,,,,,,,,0,0,0,0,0,17,17,17,,,,,,,,,False,17,78,False,exp3.png,exp4.png,trial_right_image,-1,exp4.png,4,exp3.png,exp4.png,1,3,reversed,incorrect,0.0868320343884329,1,invalid_win,534.7999129999953,49,,,,,,,,,,,s_003,4,2020_Nov_05_1337,Reversal,3.2.4,59.87859017320491,
18,exp1.png,exp2.png,,,,,,,,,,,,,,,,,0,0,0,0,0,18,18,18,,,,,,,,,False,18,79,False,exp1.png,exp2.png,trial_right_image,-1,exp2.png,4,exp2.png,exp1.png,1,1,non-reversed,correct,0.3348774947647608,1,valid_win,539.8148169000051,50,,,,,,,,,,,s_003,4,2020_Nov_05_1337,Reversal,3.2.4,59.87859017320491,
19,exp3.png,exp4.png,,,,,,,,,,,,,,,,,0,0,0,0,0,19,19,19,,,,,,,,,False,19,80,True,exp4.png,exp3.png,trial_left_image,1,exp4.png,4,exp3.png,exp4.png,1,3,reversed,incorrect,0.20382047772359713,1,invalid_win,544.5465875999944,51,,,,,,,,,,,s_003,4,2020_Nov_05_1337,Reversal,3.2.4,59.87859017320491,
20,exp1.png,exp2.png,,,,,,,,,,,,,,,,,0,0,0,0,0,20,20,20,,,,,,,,,True,,,,,,,,,,,,,,,,,,,,,,,,,,,,,,,s_003,4,2020_Nov_05_1337,Reversal,3.2.4,59.87859017320491,
,,,,,,,,,,,,,,,,,,,0,0,0,0,,,,,0,0,0,0,,,,,,,,,,,,,,,,,,,,,,,,,,19,92,50.0,58,,,,,,,s_003,4,2020_Nov_05_1337,Reversal,3.2.4,59.87859017320491,
0,exp1.png,exp2.png,,,,,,,,,,,,,,,,,1,0,1,0,0,0,0,0,,,,,,,,,False,20,81,True,exp2.png,exp1.png,trial_left_image,1,exp2.png,4,exp2.png,exp1.png,1,1,non-reversed,correct,0.3726346494556816,1,valid_win,566.2060034000024,52,,,,,,,,,,,s_003,4,2020_Nov_05_1337,Reversal,3.2.4,59.87859017320491,
1,exp3.png,exp4.png,,,,,,,,,,,,,,,,,1,0,1,0,0,1,1,1,,,,,,,,,False,21,82,False,exp3.png,exp4.png,trial_right_image,-1,exp4.png,4,exp3.png,exp4.png,1,3,reversed,incorrect,0.016754413077873953,1,invalid_win,570.8712730999978,53,,,,,,,,,,,s_003,4,2020_Nov_05_1337,Reversal,3.2.4,59.87859017320491,
2,exp1.png,exp2.png,,,,,,,,,,,,,,,,,1,0,1,0,0,2,2,2,,,,,,,,,False,22,83,True,exp2.png,exp1.png,trial_left_image,1,exp2.png,4,exp2.png,exp1.png,1,1,non-reversed,correct,0.594123233402477,1,valid_win,575.2195000000065,54,,,,,,,,,,,s_003,4,2020_Nov_05_1337,Reversal,3.2.4,59.87859017320491,
3,exp3.png,exp4.png,,,,,,,,,,,,,,,,,1,0,1,0,0,3,3,3,,,,,,,,,False,23,84,True,exp4.png,exp3.png,trial_left_image,1,exp4.png,4,exp3.png,exp4.png,1,3,reversed,incorrect,0.3552156887011164,0,valid_lose,579.9351178999932,54,,,,,,,,,,,s_003,4,2020_Nov_05_1337,Reversal,3.2.4,59.87859017320491,
4,exp1.png,exp2.png,,,,,,,,,,,,,,,,,1,0,1,0,0,4,4,4,,,,,,,,,False,24,85,False,exp1.png,exp2.png,trial_right_image,-1,exp2.png,4,exp2.png,exp1.png,1,1,non-reversed,correct,0.8661539622718838,1,valid_win,584.6497590999934,55,,,,,,,,,,,s_003,4,2020_Nov_05_1337,Reversal,3.2.4,59.87859017320491,
5,exp3.png,exp4.png,,,,,,,,,,,,,,,,,1,0,1,0,0,5,5,5,,,,,,,,,False,25,86,True,exp4.png,exp3.png,trial_right_image,-1,exp3.png,4,exp3.png,exp4.png,0,4,reversed,correct,0.8596865736127299,1,valid_win,590.5310898000025,56,,,,,,,,,,,s_003,4,2020_Nov_05_1337,Reversal,3.2.4,59.87859017320491,
6,exp1.png,exp2.png,,,,,,,,,,,,,,,,,1,0,1,0,0,6,6,6,,,,,,,,,False,26,87,False,exp1.png,exp2.png,trial_right_image,-1,exp2.png,4,exp2.png,exp1.png,1,1,non-reversed,correct,0.4375946908584144,1,valid_win,594.8132980999944,57,,,,,,,,,,,s_003,4,2020_Nov_05_1337,Reversal,3.2.4,59.87859017320491,
7,exp3.png,exp4.png,,,,,,,,,,,,,,,,,1,0,1,0,0,7,7,7,,,,,,,,,False,27,88,True,exp4.png,exp3.png,trial_right_image,-1,exp3.png,4,exp3.png,exp4.png,0,4,reversed,correct,0.6713572224427488,1,valid_win,599.2613043000165,58,,,,,,,,,,,s_003,4,2020_Nov_05_1337,Reversal,3.2.4,59.87859017320491,
8,exp1.png,exp2.png,,,,,,,,,,,,,,,,,1,0,1,0,0,8,8,8,,,,,,,,,False,28,89,True,exp2.png,exp1.png,trial_left_image,1,exp2.png,4,exp2.png,exp1.png,1,1,non-reversed,correct,0.6638453442860148,1,valid_win,603.5933846000116,59,,,,,,,,,,,s_003,4,2020_Nov_05_1337,Reversal,3.2.4,59.87859017320491,
9,exp3.png,exp4.png,,,,,,,,,,,,,,,,,1,0,1,0,0,9,9,9,,,,,,,,,False,29,90,False,exp3.png,exp4.png,trial_left_image,1,exp3.png,4,exp3.png,exp4.png,0,4,reversed,correct,0.4093819050224834,1,valid_win,608.158462899999,60,,,,,,,,,,,s_003,4,2020_Nov_05_1337,Reversal,3.2.4,59.87859017320491,
10,exp1.png,exp2.png,,,,,,,,,,,,,,,,,1,0,1,0,0,10,10,10,,,,,,,,,False,30,91,True,exp2.png,exp1.png,trial_left_image,1,exp2.png,4,exp2.png,exp1.png,1,1,non-reversed,correct,0.9908261891688152,1,valid_win,612.6736865999992,61,,,,,,,,,,,s_003,4,2020_Nov_05_1337,Reversal,3.2.4,59.87859017320491,
11,exp3.png,exp4.png,,,,,,,,,,,,,,,,,1,0,1,0,0,11,11,11,,,,,,,,,False,31,92,False,exp3.png,exp4.png,trial_left_image,1,exp3.png,4,exp3.png,exp4.png,0,4,reversed,correct,0.8491926378906832,1,valid_win,617.272451900004,62,,,,,,,,,,,s_003,4,2020_Nov_05_1337,Reversal,3.2.4,59.87859017320491,
12,exp1.png,exp2.png,,,,,,,,,,,,,,,,,1,0,1,0,0,12,12,12,,,,,,,,,False,32,93,False,exp1.png,exp2.png,trial_right_image,-1,exp2.png,4,exp2.png,exp1.png,1,1,non-reversed,correct,0.7635446993131751,1,valid_win,622.3203199999989,63,,,,,,,,,,,s_003,4,2020_Nov_05_1337,Reversal,3.2.4,59.87859017320491,
13,exp3.png,exp4.png,,,,,,,,,,,,,,,,,1,0,1,0,0,13,13,13,,,,,,,,,False,33,94,False,exp3.png,exp4.png,trial_left_image,1,exp3.png,4,exp3.png,exp4.png,0,4,reversed,correct,0.017307394821841737,0,invalid_lose,626.9020975000167,63,,,,,,,,,,,s_003,4,2020_Nov_05_1337,Reversal,3.2.4,59.87859017320491,
14,exp1.png,exp2.png,,,,,,,,,,,,,,,,,1,0,1,0,0,14,14,14,,,,,,,,,False,34,95,True,exp2.png,exp1.png,trial_left_image,1,exp2.png,4,exp2.png,exp1.png,1,1,non-reversed,correct,0.34435936646759546,1,valid_win,633.9830358999898,64,,,,,,,,,,,s_003,4,2020_Nov_05_1337,Reversal,3.2.4,59.87859017320491,
15,exp3.png,exp4.png,,,,,,,,,,,,,,,,,1,0,1,0,0,15,15,15,,,,,,,,,False,35,96,False,exp3.png,exp4.png,trial_left_image,1,exp3.png,4,exp3.png,exp4.png,0,4,reversed,correct,0.4327786780399766,1,valid_win,638.3153141000075,65,,,,,,,,,,,s_003,4,2020_Nov_05_1337,Reversal,3.2.4,59.87859017320491,
16,exp1.png,exp2.png,,,,,,,,,,,,,,,,,1,0,1,0,0,16,16,16,,,,,,,,,False,36,97,False,exp1.png,exp2.png,trial_right_image,-1,exp2.png,4,exp2.png,exp1.png,1,1,non-reversed,correct,0.21652834390921905,0,invalid_lose,643.6965461999935,65,,,,,,,,,,,s_003,4,2020_Nov_05_1337,Reversal,3.2.4,59.87859017320491,
17,exp3.png,exp4.png,,,,,,,,,,,,,,,,,1,0,1,0,0,17,17,17,,,,,,,,,False,37,98,True,exp4.png,exp3.png,trial_right_image,-1,exp3.png,4,exp3.png,exp4.png,0,4,reversed,correct,0.2506464893385557,1,valid_win,648.0285641000082,66,,,,,,,,,,,s_003,4,2020_Nov_05_1337,Reversal,3.2.4,59.87859017320491,
18,exp1.png,exp2.png,,,,,,,,,,,,,,,,,1,0,1,0,0,18,18,18,,,,,,,,,False,38,99,False,exp1.png,exp2.png,trial_right_image,-1,exp2.png,4,exp2.png,exp1.png,1,1,non-reversed,correct,0.34839403540700387,1,valid_win,652.4440696999955,67,,,,,,,,,,,s_003,4,2020_Nov_05_1337,Reversal,3.2.4,59.87859017320491,
19,exp3.png,exp4.png,,,,,,,,,,,,,,,,,1,0,1,0,0,19,19,19,,,,,,,,,False,39,100,True,exp4.png,exp3.png,trial_right_image,-1,exp3.png,4,exp3.png,exp4.png,0,4,reversed,correct,0.4090654643178466,1,valid_win,656.7593924000103,68,,,,,,,,,,,s_003,4,2020_Nov_05_1337,Reversal,3.2.4,59.87859017320491,
20,exp1.png,exp2.png,,,,,,,,,,,,,,,,,1,0,1,0,0,20,20,20,,,,,,,,,True,,,,,,,,,,,,,,,,,,,,,,,,,,,,,,,s_003,4,2020_Nov_05_1337,Reversal,3.2.4,59.87859017320491,
,,,,,,,,,,,,,,,,,,,1,0,1,0,,,,,0,0,0,0,,,,,,,,,,,,,,,,,,,,,,,,,,50.0,94,91,50.0,,,,,,,s_003,4,2020_Nov_05_1337,Reversal,3.2.4,59.87859017320491,
0,exp1.png,exp2.png,,,,,,,,,,,,,,,,,2,0,2,0,0,0,0,0,,,,,,,,,False,40,101,False,exp1.png,exp2.png,trial_right_image,-1,exp2.png,4,exp2.png,exp1.png,1,1,non-reversed,correct,0.9137875369530406,1,valid_win,674.0529895999935,69,,,,,,,,,,,s_003,4,2020_Nov_05_1337,Reversal,3.2.4,59.87859017320491,
1,exp3.png,exp4.png,,,,,,,,,,,,,,,,,2,0,2,0,0,1,1,1,,,,,,,,,False,41,102,True,exp4.png,exp3.png,trial_right_image,-1,exp3.png,4,exp3.png,exp4.png,0,4,reversed,correct,0.25151880932633464,1,valid_win,678.3679097999993,70,,,,,,,,,,,s_003,4,2020_Nov_05_1337,Reversal,3.2.4,59.87859017320491,
2,exp1.png,exp2.png,,,,,,,,,,,,,,,,,2,0,2,0,0,2,2,2,,,,,,,,,False,42,103,True,exp2.png,exp1.png,trial_left_image,1,exp2.png,4,exp2.png,exp1.png,1,1,non-reversed,correct,0.9887672564740606,1,valid_win,682.9165640000138,71,,,,,,,,,,,s_003,4,2020_Nov_05_1337,Reversal,3.2.4,59.87859017320491,
3,exp3.png,exp4.png,,,,,,,,,,,,,,,,,2,0,2,0,0,3,3,3,,,,,,,,,False,43,104,False,exp3.png,exp4.png,trial_left_image,1,exp3.png,4,exp3.png,exp4.png,0,4,reversed,correct,0.04371509821323982,0,invalid_lose,688.081571000017,71,,,,,,,,,,,s_003,4,2020_Nov_05_1337,Reversal,3.2.4,59.87859017320491,
4,exp1.png,exp2.png,,,,,,,,,,,,,,,,,2,0,2,0,0,4,4,4,,,,,,,,,False,44,105,True,exp2.png,exp1.png,trial_left_image,1,exp2.png,4,exp2.png,exp1.png,1,1,non-reversed,correct,0.8617864114150396,1,valid_win,692.4637943000125,72,,,,,,,,,,,s_003,4,2020_Nov_05_1337,Reversal,3.2.4,59.87859017320491,
5,exp3.png,exp4.png,,,,,,,,,,,,,,,,,2,0,2,0,0,5,5,5,,,,,,,,,False,45,106,False,exp3.png,exp4.png,trial_left_image,1,exp3.png,4,exp3.png,exp4.png,0,4,reversed,correct,0.8474631379674175,1,valid_win,697.2620590000006,73,,,,,,,,,,,s_003,4,2020_Nov_05_1337,Reversal,3.2.4,59.87859017320491,
6,exp1.png,exp2.png,,,,,,,,,,,,,,,,,2,0,2,0,0,6,6,6,,,,,,,,,False,46,107,False,exp1.png,exp2.png,trial_right_image,-1,exp2.png,4,exp2.png,exp1.png,1,1,non-reversed,correct,0.8623386669104964,1,valid_win,702.1105026000005,74,,,,,,,,,,,s_003,4,2020_Nov_05_1337,Reversal,3.2.4,59.87859017320491,
7,exp3.png,exp4.png,,,,,,,,,,,,,,,,,2,0,2,0,0,7,7,7,,,,,,,,,False,47,108,True,exp4.png,exp3.png,trial_left_image,1,exp4.png,4,exp3.png,exp4.png,1,3,reversed,incorrect,0.2576980127052412,0,valid_lose,706.6421968000068,74,,,,,,,,,,,s_003,4,2020_Nov_05_1337,Reversal,3.2.4,59.87859017320491,
8,exp1.png,exp2.png,,,,,,,,,,,,,,,,,2,0,2,0,0,8,8,8,,,,,,,,,False,48,109,True,exp2.png,exp1.png,trial_left_image,1,exp2.png,4,exp2.png,exp1.png,1,1,non-reversed,correct,0.5815387607715811,1,valid_win,712.0073703000089,75,,,,,,,,,,,s_003,4,2020_Nov_05_1337,Reversal,3.2.4,59.87859017320491,
9,exp3.png,exp4.png,,,,,,,,,,,,,,,,,2,0,2,0,0,9,9,9,,,,,,,,,False,49,110,True,exp4.png,exp3.png,trial_left_image,1,exp4.png,4,exp3.png,exp4.png,1,3,reversed,incorrect,0.24526187488241602,1,invalid_win,716.3221091000014,76,,,,,,,,,,,s_003,4,2020_Nov_05_1337,Reversal,3.2.4,59.87859017320491,
10,exp1.png,exp2.png,,,,,,,,,,,,,,,,,2,0,2,0,0,10,10,10,,,,,,,,,False,50,111,False,exp1.png,exp2.png,trial_right_image,-1,exp2.png,4,exp2.png,exp1.png,1,1,non-reversed,correct,0.9683037518866797,1,valid_win,722.1202123000112,77,,,,,,,,,,,s_003,4,2020_Nov_05_1337,Reversal,3.2.4,59.87859017320491,
11,exp3.png,exp4.png,,,,,,,,,,,,,,,,,2,0,2,0,0,11,11,11,,,,,,,,,False,51,112,False,exp3.png,exp4.png,trial_right_image,-1,exp4.png,4,exp3.png,exp4.png,1,3,reversed,incorrect,0.5572884226005227,0,valid_lose,730.4839472000021,77,,,,,,,,,,,s_003,4,2020_Nov_05_1337,Reversal,3.2.4,59.87859017320491,
12,exp1.png,exp2.png,,,,,,,,,,,,,,,,,2,0,2,0,0,12,12,12,,,,,,,,,False,52,113,False,exp1.png,exp2.png,trial_right_image,-1,exp2.png,4,exp2.png,exp1.png,1,1,non-reversed,correct,0.4793970154169427,1,valid_win,734.9323534000141,78,,,,,,,,,,,s_003,4,2020_Nov_05_1337,Reversal,3.2.4,59.87859017320491,
13,exp3.png,exp4.png,,,,,,,,,,,,,,,,,2,0,2,0,0,13,13,13,,,,,,,,,False,53,114,False,exp3.png,exp4.png,trial_left_image,1,exp3.png,4,exp3.png,exp4.png,0,4,reversed,correct,0.27151492743808026,1,valid_win,739.4641367000004,79,,,,,,,,,,,s_003,4,2020_Nov_05_1337,Reversal,3.2.4,59.87859017320491,
14,exp1.png,exp2.png,,,,,,,,,,,,,,,,,2,0,2,0,0,14,14,14,,,,,,,,,False,54,115,False,exp1.png,exp2.png,trial_right_image,-1,exp2.png,4,exp2.png,exp1.png,1,1,non-reversed,correct,0.2634826605097309,1,valid_win,743.9297115000081,80,,,,,,,,,,,s_003,4,2020_Nov_05_1337,Reversal,3.2.4,59.87859017320491,
15,exp3.png,exp4.png,,,,,,,,,,,,,,,,,2,0,2,0,0,15,15,15,,,,,,,,,False,55,116,False,exp3.png,exp4.png,trial_right_image,-1,exp4.png,4,exp3.png,exp4.png,1,3,reversed,incorrect,0.554435528706741,0,valid_lose,748.0781929999939,80,,,,,,,,,,,s_003,4,2020_Nov_05_1337,Reversal,3.2.4,59.87859017320491,
16,exp1.png,exp2.png,,,,,,,,,,,,,,,,,2,0,2,0,0,16,16,16,,,,,,,,,False,56,117,True,exp2.png,exp1.png,trial_left_image,1,exp2.png,4,exp2.png,exp1.png,1,1,non-reversed,correct,0.5711013843902008,1,valid_win,752.7266459999955,81,,,,,,,,,,,s_003,4,2020_Nov_05_1337,Reversal,3.2.4,59.87859017320491,
17,exp3.png,exp4.png,,,,,,,,,,,,,,,,,2,0,2,0,0,17,17,17,,,,,,,,,False,57,118,True,exp4.png,exp3.png,trial_right_image,-1,exp3.png,4,exp3.png,exp4.png,0,4,reversed,correct,0.7207430948948079,1,valid_win,757.4415567000106,82,,,,,,,,,,,s_003,4,2020_Nov_05_1337,Reversal,3.2.4,59.87859017320491,
18,exp1.png,exp2.png,,,,,,,,,,,,,,,,,2,0,2,0,0,18,18,18,,,,,,,,,False,58,119,True,exp2.png,exp1.png,trial_left_image,1,exp2.png,4,exp2.png,exp1.png,1,1,non-reversed,correct,0.4748190524098853,1,valid_win,762.2232733000128,83,,,,,,,,,,,s_003,4,2020_Nov_05_1337,Reversal,3.2.4,59.87859017320491,
19,exp3.png,exp4.png,,,,,,,,,,,,,,,,,2,0,2,0,0,19,19,19,,,,,,,,,False,59,120,True,exp4.png,exp3.png,trial_right_image,-1,exp3.png,4,exp3.png,exp4.png,0,4,reversed,correct,0.3424008405261446,1,valid_win,766.588709100004,84,,,,,,,,,,,s_003,4,2020_Nov_05_1337,Reversal,3.2.4,59.87859017320491,
20,exp1.png,exp2.png,,,,,,,,,,,,,,,,,2,0,2,0,0,20,20,20,,,,,,,,,True,,,,,,,,,,,,,,,,,,,,,,,,,,,,,,,s_003,4,2020_Nov_05_1337,Reversal,3.2.4,59.87859017320491,
,,,,,,,,,,,,,,,,,,,2,0,2,0,,,,,0,0,0,0,,,,,,,,,,,,,,,,,,,,,,,,,,50.0,100,50.0,50.0,,,,,,,s_003,4,2020_Nov_05_1337,Reversal,3.2.4,59.87859017320491,
,,,,,,,,,,,,,,,,,,,,,,,,,,,,,,,,,,,,,,,,,,,,,,,,,,,,,,,84,,,,,,95,47,48,336.3718406999833,0,,,,,,,
