trial_index,trial_image1_file,trial_image2_file,learning_outer_loop.thisRepN,learning_outer_loop.thisTrialN,learning_outer_loop.thisN,learning_outer_loop.thisIndex,learning_inner_loop.thisRepN,learning_inner_loop.thisTrialN,learning_inner_loop.thisN,learning_inner_loop.thisIndex,learning_estimation_outer_loop.thisRepN,learning_estimation_outer_loop.thisTrialN,learning_estimation_outer_loop.thisN,learning_estimation_outer_loop.thisIndex,learning_estimation_inner_loop.thisRepN,learning_estimation_inner_loop.thisTrialN,learning_estimation_inner_loop.thisN,learning_estimation_inner_loop.thisIndex,reversal_outer_loop.thisRepN,reversal_outer_loop.thisTrialN,reversal_outer_loop.thisN,reversal_outer_loop.thisIndex,reversal_inner_loop.thisRepN,reversal_inner_loop.thisTrialN,reversal_inner_loop.thisN,reversal_inner_loop.thisIndex,reversal_estimation_outer_loop.thisRepN,reversal_estimation_outer_loop.thisTrialN,reversal_estimation_outer_loop.thisN,reversal_estimation_outer_loop.thisIndex,reversal_estimation_inner_loop.thisRepN,reversal_estimation_inner_loop.thisTrialN,reversal_estimation_inner_loop.thisN,reversal_estimation_inner_loop.thisIndex,skipped,total_trial_counter,trial_num,left_right_flip,left_image_file,right_image_file,clicked_stimulus_side,side,clicked_stimulus,version,high_prob_image_file,low_prob_image_file,choice_a,choice_b,pair_type,correct,trial_feedback_random,reward,trial_type,overall_time_after_trial,score,estimation_exp1.png,estimation_exp2.png,estimation_exp3.png,estimation_exp4.png,total_learning_time,total_correct,learning_correct,reversal_correct,total_reversal_time,extra_block,participant,ver,date,expName,psychopyVersion,frameRate,
0,exp1.png,exp2.png,0,0,0,0,0,0,0,0,,,,,,,,,,,,,,,,,,,,,,,,,True,,,,,,,,,,,,,,,,,,,,,,,,,,,,,,,s_002,3,2020_Nov_03_1644,Reversal,3.2.4,59.95656749474292,
1,exp3.png,exp4.png,0,0,0,0,0,1,1,1,,,,,,,,,,,,,,,,,,,,,,,,,False,0,1,True,exp4.png,exp3.png,trial_left_image,1,exp4.png,3,exp4.png,exp3.png,1,1,non-reversed,correct,0.8630949426785115,1,valid_win,6.913850900018588,1,,,,,,,,,,,s_002,3,2020_Nov_03_1644,Reversal,3.2.4,59.95656749474292,
2,exp1.png,exp2.png,0,0,0,0,0,2,2,2,,,,,,,,,,,,,,,,,,,,,,,,,False,1,2,False,exp1.png,exp2.png,trial_left_image,1,exp1.png,3,exp2.png,exp1.png,0,4,reversed,incorrect,0.18063578621696685,1,invalid_win,13.408547400031239,2,,,,,,,,,,,s_002,3,2020_Nov_03_1644,Reversal,3.2.4,59.95656749474292,
3,exp3.png,exp4.png,0,0,0,0,0,3,3,3,,,,,,,,,,,,,,,,,,,,,,,,,False,2,3,True,exp4.png,exp3.png,trial_right_image,-1,exp3.png,3,exp4.png,exp3.png,0,2,non-reversed,incorrect,0.665913593118157,0,valid_lose,21.254733100067824,2,,,,,,,,,,,s_002,3,2020_Nov_03_1644,Reversal,3.2.4,59.95656749474292,
4,exp1.png,exp2.png,0,0,0,0,0,4,4,4,,,,,,,,,,,,,,,,,,,,,,,,,False,3,4,False,exp1.png,exp2.png,trial_left_image,1,exp1.png,3,exp2.png,exp1.png,0,4,reversed,incorrect,0.3054370134732456,0,valid_lose,28.68702710000798,2,,,,,,,,,,,s_002,3,2020_Nov_03_1644,Reversal,3.2.4,59.95656749474292,
5,exp3.png,exp4.png,0,0,0,0,0,5,5,5,,,,,,,,,,,,,,,,,,,,,,,,,False,4,5,True,exp4.png,exp3.png,trial_right_image,-1,exp3.png,3,exp4.png,exp3.png,0,2,non-reversed,incorrect,0.8106009132436115,0,valid_lose,36.366454100003466,2,,,,,,,,,,,s_002,3,2020_Nov_03_1644,Reversal,3.2.4,59.95656749474292,
6,exp1.png,exp2.png,0,0,0,0,0,6,6,6,,,,,,,,,,,,,,,,,,,,,,,,,False,5,6,True,exp2.png,exp1.png,trial_right_image,-1,exp1.png,3,exp2.png,exp1.png,0,4,reversed,incorrect,0.5807787037344614,0,valid_lose,41.29925030004233,2,,,,,,,,,,,s_002,3,2020_Nov_03_1644,Reversal,3.2.4,59.95656749474292,
7,exp3.png,exp4.png,0,0,0,0,0,7,7,7,,,,,,,,,,,,,,,,,,,,,,,,,False,6,7,False,exp3.png,exp4.png,trial_right_image,-1,exp4.png,3,exp4.png,exp3.png,1,1,non-reversed,correct,0.5718092565040837,1,valid_win,49.096551900031045,3,,,,,,,,,,,s_002,3,2020_Nov_03_1644,Reversal,3.2.4,59.95656749474292,
8,exp1.png,exp2.png,0,0,0,0,0,8,8,8,,,,,,,,,,,,,,,,,,,,,,,,,False,7,8,True,exp2.png,exp1.png,trial_left_image,1,exp2.png,3,exp2.png,exp1.png,1,3,reversed,correct,0.027831992493856927,0,invalid_lose,56.72620999999344,3,,,,,,,,,,,s_002,3,2020_Nov_03_1644,Reversal,3.2.4,59.95656749474292,
9,exp3.png,exp4.png,0,0,0,0,0,9,9,9,,,,,,,,,,,,,,,,,,,,,,,,,False,8,9,True,exp4.png,exp3.png,trial_right_image,-1,exp3.png,3,exp4.png,exp3.png,0,2,non-reversed,incorrect,0.4013325548675908,0,valid_lose,70.07282340014353,3,,,,,,,,,,,s_002,3,2020_Nov_03_1644,Reversal,3.2.4,59.95656749474292,
10,exp1.png,exp2.png,0,0,0,0,0,10,10,10,,,,,,,,,,,,,,,,,,,,,,,,,False,9,10,False,exp1.png,exp2.png,trial_left_image,1,exp1.png,3,exp2.png,exp1.png,0,4,reversed,incorrect,0.3189763424943832,0,valid_lose,80.88489490002394,3,,,,,,,,,,,s_002,3,2020_Nov_03_1644,Reversal,3.2.4,59.95656749474292,
11,exp3.png,exp4.png,0,0,0,0,0,11,11,11,,,,,,,,,,,,,,,,,,,,,,,,,False,10,11,False,exp3.png,exp4.png,trial_left_image,1,exp3.png,3,exp4.png,exp3.png,0,2,non-reversed,incorrect,0.6071516032762693,0,valid_lose,86.71748340013437,3,,,,,,,,,,,s_002,3,2020_Nov_03_1644,Reversal,3.2.4,59.95656749474292,
12,exp1.png,exp2.png,0,0,0,0,0,12,12,12,,,,,,,,,,,,,,,,,,,,,,,,,False,11,12,True,exp2.png,exp1.png,trial_right_image,-1,exp1.png,3,exp2.png,exp1.png,0,4,reversed,incorrect,0.9893342118061718,0,valid_lose,92.63184779998846,3,,,,,,,,,,,s_002,3,2020_Nov_03_1644,Reversal,3.2.4,59.95656749474292,
13,exp3.png,exp4.png,0,0,0,0,0,13,13,13,,,,,,,,,,,,,,,,,,,,,,,,,False,12,13,False,exp3.png,exp4.png,trial_right_image,-1,exp4.png,3,exp4.png,exp3.png,1,1,non-reversed,correct,0.7528384463896295,1,valid_win,97.24704889999703,4,,,,,,,,,,,s_002,3,2020_Nov_03_1644,Reversal,3.2.4,59.95656749474292,
14,exp1.png,exp2.png,0,0,0,0,0,14,14,14,,,,,,,,,,,,,,,,,,,,,,,,,False,13,14,False,exp1.png,exp2.png,trial_right_image,-1,exp2.png,3,exp2.png,exp1.png,1,3,reversed,correct,0.3558976822885421,1,valid_win,102.09581450000405,5,,,,,,,,,,,s_002,3,2020_Nov_03_1644,Reversal,3.2.4,59.95656749474292,
15,exp3.png,exp4.png,0,0,0,0,0,15,15,15,,,,,,,,,,,,,,,,,,,,,,,,,False,14,15,False,exp3.png,exp4.png,trial_right_image,-1,exp4.png,3,exp4.png,exp3.png,1,1,non-reversed,correct,0.11440644006480649,0,invalid_lose,107.62685410003178,5,,,,,,,,,,,s_002,3,2020_Nov_03_1644,Reversal,3.2.4,59.95656749474292,
16,exp1.png,exp2.png,0,0,0,0,0,16,16,16,,,,,,,,,,,,,,,,,,,,,,,,,False,15,16,True,exp2.png,exp1.png,trial_right_image,-1,exp1.png,3,exp2.png,exp1.png,0,4,reversed,incorrect,0.8610569094545334,0,valid_lose,113.60798630001955,5,,,,,,,,,,,s_002,3,2020_Nov_03_1644,Reversal,3.2.4,59.95656749474292,
17,exp3.png,exp4.png,0,0,0,0,0,17,17,17,,,,,,,,,,,,,,,,,,,,,,,,,False,16,17,False,exp3.png,exp4.png,trial_right_image,-1,exp4.png,3,exp4.png,exp3.png,1,1,non-reversed,correct,0.340214094592987,1,valid_win,118.25667310017161,6,,,,,,,,,,,s_002,3,2020_Nov_03_1644,Reversal,3.2.4,59.95656749474292,
18,exp1.png,exp2.png,0,0,0,0,0,18,18,18,,,,,,,,,,,,,,,,,,,,,,,,,False,17,18,True,exp2.png,exp1.png,trial_left_image,1,exp2.png,3,exp2.png,exp1.png,1,3,reversed,correct,0.6525174856601129,1,valid_win,123.60483550000936,7,,,,,,,,,,,s_002,3,2020_Nov_03_1644,Reversal,3.2.4,59.95656749474292,
19,exp3.png,exp4.png,0,0,0,0,0,19,19,19,,,,,,,,,,,,,,,,,,,,,,,,,False,18,19,False,exp3.png,exp4.png,trial_right_image,-1,exp4.png,3,exp4.png,exp3.png,1,1,non-reversed,correct,0.22214647747225358,0,invalid_lose,130.735713200178,7,,,,,,,,,,,s_002,3,2020_Nov_03_1644,Reversal,3.2.4,59.95656749474292,
20,exp1.png,exp2.png,0,0,0,0,0,20,20,20,,,,,,,,,,,,,,,,,,,,,,,,,False,19,20,True,exp2.png,exp1.png,trial_left_image,1,exp2.png,3,exp2.png,exp1.png,1,3,reversed,correct,0.7030005716311661,1,valid_win,137.0339056001976,8,,,,,,,,,,,s_002,3,2020_Nov_03_1644,Reversal,3.2.4,59.95656749474292,
,,,0,0,0,0,,,,,0,0,0,0,,,,,,,,,,,,,,,,,,,,,,,,,,,,,,,,,,,,,,,,,,19,71,31,82,,,,,,,s_002,3,2020_Nov_03_1644,Reversal,3.2.4,59.95656749474292,
0,exp1.png,exp2.png,1,0,1,0,0,0,0,0,,,,,,,,,,,,,,,,,,,,,,,,,True,,,,,,,,,,,,,,,,,,,,,,,,,,,,,,,s_002,3,2020_Nov_03_1644,Reversal,3.2.4,59.95656749474292,
1,exp3.png,exp4.png,1,0,1,0,0,1,1,1,,,,,,,,,,,,,,,,,,,,,,,,,False,20,21,False,exp3.png,exp4.png,trial_left_image,1,exp3.png,3,exp4.png,exp3.png,0,2,non-reversed,incorrect,0.31299855486522943,0,valid_lose,171.7052313000895,8,,,,,,,,,,,s_002,3,2020_Nov_03_1644,Reversal,3.2.4,59.95656749474292,
2,exp1.png,exp2.png,1,0,1,0,0,2,2,2,,,,,,,,,,,,,,,,,,,,,,,,,False,21,22,True,exp2.png,exp1.png,trial_right_image,-1,exp1.png,3,exp2.png,exp1.png,0,4,reversed,incorrect,0.22707312295341187,1,invalid_win,179.08596540009603,9,,,,,,,,,,,s_002,3,2020_Nov_03_1644,Reversal,3.2.4,59.95656749474292,
3,exp3.png,exp4.png,1,0,1,0,0,3,3,3,,,,,,,,,,,,,,,,,,,,,,,,,False,22,23,False,exp3.png,exp4.png,trial_right_image,-1,exp4.png,3,exp4.png,exp3.png,1,1,non-reversed,correct,0.8867605529961473,1,valid_win,186.94917220016941,10,,,,,,,,,,,s_002,3,2020_Nov_03_1644,Reversal,3.2.4,59.95656749474292,
4,exp1.png,exp2.png,1,0,1,0,0,4,4,4,,,,,,,,,,,,,,,,,,,,,,,,,False,23,24,True,exp2.png,exp1.png,trial_right_image,-1,exp1.png,3,exp2.png,exp1.png,0,4,reversed,incorrect,0.5360900886213872,0,valid_lose,192.56371610006317,10,,,,,,,,,,,s_002,3,2020_Nov_03_1644,Reversal,3.2.4,59.95656749474292,
5,exp3.png,exp4.png,1,0,1,0,0,5,5,5,,,,,,,,,,,,,,,,,,,,,,,,,False,24,25,True,exp4.png,exp3.png,trial_left_image,1,exp4.png,3,exp4.png,exp3.png,1,1,non-reversed,correct,0.08852092885017337,0,invalid_lose,199.7794731000904,10,,,,,,,,,,,s_002,3,2020_Nov_03_1644,Reversal,3.2.4,59.95656749474292,
6,exp1.png,exp2.png,1,0,1,0,0,6,6,6,,,,,,,,,,,,,,,,,,,,,,,,,False,25,26,True,exp2.png,exp1.png,trial_left_image,1,exp2.png,3,exp2.png,exp1.png,1,3,reversed,correct,0.1340847231295026,0,invalid_lose,207.6589268001262,10,,,,,,,,,,,s_002,3,2020_Nov_03_1644,Reversal,3.2.4,59.95656749474292,
7,exp3.png,exp4.png,1,0,1,0,0,7,7,7,,,,,,,,,,,,,,,,,,,,,,,,,False,26,27,True,exp4.png,exp3.png,trial_right_image,-1,exp3.png,3,exp4.png,exp3.png,0,2,non-reversed,incorrect,0.7577834389978363,0,valid_lose,215.1739368000999,10,,,,,,,,,,,s_002,3,2020_Nov_03_1644,Reversal,3.2.4,59.95656749474292,
8,exp1.png,exp2.png,1,0,1,0,0,8,8,8,,,,,,,,,,,,,,,,,,,,,,,,,False,27,28,False,exp1.png,exp2.png,trial_left_image,1,exp1.png,3,exp2.png,exp1.png,0,4,reversed,incorrect,0.49919485871567193,0,valid_lose,220.17258500005119,10,,,,,,,,,,,s_002,3,2020_Nov_03_1644,Reversal,3.2.4,59.95656749474292,
9,exp3.png,exp4.png,1,0,1,0,0,9,9,9,,,,,,,,,,,,,,,,,,,,,,,,,False,28,29,True,exp4.png,exp3.png,trial_left_image,1,exp4.png,3,exp4.png,exp3.png,1,1,non-reversed,correct,0.11236045353122615,0,invalid_lose,224.75389729999006,10,,,,,,,,,,,s_002,3,2020_Nov_03_1644,Reversal,3.2.4,59.95656749474292,
10,exp1.png,exp2.png,1,0,1,0,0,10,10,10,,,,,,,,,,,,,,,,,,,,,,,,,False,29,30,False,exp1.png,exp2.png,trial_left_image,1,exp1.png,3,exp2.png,exp1.png,0,4,reversed,incorrect,0.693764949201139,0,valid_lose,230.13535000011325,10,,,,,,,,,,,s_002,3,2020_Nov_03_1644,Reversal,3.2.4,59.95656749474292,
11,exp3.png,exp4.png,1,0,1,0,0,11,11,11,,,,,,,,,,,,,,,,,,,,,,,,,False,30,31,False,exp3.png,exp4.png,trial_right_image,-1,exp4.png,3,exp4.png,exp3.png,1,1,non-reversed,correct,0.26082035047954644,1,valid_win,235.56718810019083,11,,,,,,,,,,,s_002,3,2020_Nov_03_1644,Reversal,3.2.4,59.95656749474292,
12,exp1.png,exp2.png,1,0,1,0,0,12,12,12,,,,,,,,,,,,,,,,,,,,,,,,,False,31,32,False,exp1.png,exp2.png,trial_right_image,-1,exp2.png,3,exp2.png,exp1.png,1,3,reversed,correct,0.729912291355869,1,valid_win,240.1153346002102,12,,,,,,,,,,,s_002,3,2020_Nov_03_1644,Reversal,3.2.4,59.95656749474292,
13,exp3.png,exp4.png,1,0,1,0,0,13,13,13,,,,,,,,,,,,,,,,,,,,,,,,,False,32,33,False,exp3.png,exp4.png,trial_right_image,-1,exp4.png,3,exp4.png,exp3.png,1,1,non-reversed,correct,0.897566977466791,1,valid_win,244.5306480000727,13,,,,,,,,,,,s_002,3,2020_Nov_03_1644,Reversal,3.2.4,59.95656749474292,
14,exp1.png,exp2.png,1,0,1,0,0,14,14,14,,,,,,,,,,,,,,,,,,,,,,,,,False,33,34,True,exp2.png,exp1.png,trial_left_image,1,exp2.png,3,exp2.png,exp1.png,1,3,reversed,correct,0.6742087811586361,1,valid_win,248.6952517000027,14,,,,,,,,,,,s_002,3,2020_Nov_03_1644,Reversal,3.2.4,59.95656749474292,
15,exp3.png,exp4.png,1,0,1,0,0,15,15,15,,,,,,,,,,,,,,,,,,,,,,,,,False,34,35,False,exp3.png,exp4.png,trial_right_image,-1,exp4.png,3,exp4.png,exp3.png,1,1,non-reversed,correct,0.8223290636965749,1,valid_win,253.09442930016667,15,,,,,,,,,,,s_002,3,2020_Nov_03_1644,Reversal,3.2.4,59.95656749474292,
16,exp1.png,exp2.png,1,0,1,0,0,16,16,16,,,,,,,,,,,,,,,,,,,,,,,,,False,35,36,True,exp2.png,exp1.png,trial_left_image,1,exp2.png,3,exp2.png,exp1.png,1,3,reversed,correct,0.33225322651581013,1,valid_win,257.9098813000601,16,,,,,,,,,,,s_002,3,2020_Nov_03_1644,Reversal,3.2.4,59.95656749474292,
17,exp3.png,exp4.png,1,0,1,0,0,17,17,17,,,,,,,,,,,,,,,,,,,,,,,,,False,36,37,True,exp4.png,exp3.png,trial_left_image,1,exp4.png,3,exp4.png,exp3.png,1,1,non-reversed,correct,0.6198615873008654,1,valid_win,262.1582673001103,17,,,,,,,,,,,s_002,3,2020_Nov_03_1644,Reversal,3.2.4,59.95656749474292,
18,exp1.png,exp2.png,1,0,1,0,0,18,18,18,,,,,,,,,,,,,,,,,,,,,,,,,False,37,38,False,exp1.png,exp2.png,trial_right_image,-1,exp2.png,3,exp2.png,exp1.png,1,3,reversed,correct,0.13727329048078607,0,invalid_lose,266.439836300211,17,,,,,,,,,,,s_002,3,2020_Nov_03_1644,Reversal,3.2.4,59.95656749474292,
19,exp3.png,exp4.png,1,0,1,0,0,19,19,19,,,,,,,,,,,,,,,,,,,,,,,,,False,38,39,True,exp4.png,exp3.png,trial_left_image,1,exp4.png,3,exp4.png,exp3.png,1,1,non-reversed,correct,0.028025229190637768,0,invalid_lose,271.1549117001705,17,,,,,,,,,,,s_002,3,2020_Nov_03_1644,Reversal,3.2.4,59.95656749474292,
20,exp1.png,exp2.png,1,0,1,0,0,20,20,20,,,,,,,,,,,,,,,,,,,,,,,,,False,39,40,False,exp1.png,exp2.png,trial_left_image,1,exp1.png,3,exp2.png,exp1.png,0,4,reversed,incorrect,0.5334641029433613,0,valid_lose,275.587058900157,17,,,,,,,,,,,s_002,3,2020_Nov_03_1644,Reversal,3.2.4,59.95656749474292,
,,,1,0,1,0,,,,,0,0,0,0,,,,,,,,,,,,,,,,,,,,,,,,,,,,,,,,,,,,,,,,,,27,72,30,86,,,,,,,s_002,3,2020_Nov_03_1644,Reversal,3.2.4,59.95656749474292,
0,exp1.png,exp2.png,2,0,2,0,0,0,0,0,,,,,,,,,,,,,,,,,,,,,,,,,True,,,,,,,,,,,,,,,,,,,,,,,,,,,,,,,s_002,3,2020_Nov_03_1644,Reversal,3.2.4,59.95656749474292,
1,exp3.png,exp4.png,2,0,2,0,0,1,1,1,,,,,,,,,,,,,,,,,,,,,,,,,False,40,41,False,exp3.png,exp4.png,trial_left_image,1,exp3.png,3,exp4.png,exp3.png,0,2,non-reversed,incorrect,0.7308777858855793,0,valid_lose,302.2262153001502,17,,,,,,,,,,,s_002,3,2020_Nov_03_1644,Reversal,3.2.4,59.95656749474292,
2,exp1.png,exp2.png,2,0,2,0,0,2,2,2,,,,,,,,,,,,,,,,,,,,,,,,,False,41,42,False,exp1.png,exp2.png,trial_right_image,-1,exp2.png,3,exp2.png,exp1.png,1,3,reversed,correct,0.4268113366103624,1,valid_win,307.41013370011933,18,,,,,,,,,,,s_002,3,2020_Nov_03_1644,Reversal,3.2.4,59.95656749474292,
3,exp3.png,exp4.png,2,0,2,0,0,3,3,3,,,,,,,,,,,,,,,,,,,,,,,,,False,42,43,True,exp4.png,exp3.png,trial_left_image,1,exp4.png,3,exp4.png,exp3.png,1,1,non-reversed,correct,0.5973936052971311,1,valid_win,313.78945000004023,19,,,,,,,,,,,s_002,3,2020_Nov_03_1644,Reversal,3.2.4,59.95656749474292,
4,exp1.png,exp2.png,2,0,2,0,0,4,4,4,,,,,,,,,,,,,,,,,,,,,,,,,False,43,44,True,exp2.png,exp1.png,trial_left_image,1,exp2.png,3,exp2.png,exp1.png,1,3,reversed,correct,0.5424793399622446,1,valid_win,319.35428390000015,20,,,,,,,,,,,s_002,3,2020_Nov_03_1644,Reversal,3.2.4,59.95656749474292,
5,exp3.png,exp4.png,2,0,2,0,0,5,5,5,,,,,,,,,,,,,,,,,,,,,,,,,False,44,45,False,exp3.png,exp4.png,trial_right_image,-1,exp4.png,3,exp4.png,exp3.png,1,1,non-reversed,correct,0.5420983149883096,1,valid_win,324.81905910000205,21,,,,,,,,,,,s_002,3,2020_Nov_03_1644,Reversal,3.2.4,59.95656749474292,
6,exp1.png,exp2.png,2,0,2,0,0,6,6,6,,,,,,,,,,,,,,,,,,,,,,,,,False,45,46,False,exp1.png,exp2.png,trial_right_image,-1,exp2.png,3,exp2.png,exp1.png,1,3,reversed,correct,0.19976991161107438,0,invalid_lose,330.0850609000772,21,,,,,,,,,,,s_002,3,2020_Nov_03_1644,Reversal,3.2.4,59.95656749474292,
7,exp3.png,exp4.png,2,0,2,0,0,7,7,7,,,,,,,,,,,,,,,,,,,,,,,,,False,46,47,True,exp4.png,exp3.png,trial_left_image,1,exp4.png,3,exp4.png,exp3.png,1,1,non-reversed,correct,0.6931802310785531,1,valid_win,335.433399700094,22,,,,,,,,,,,s_002,3,2020_Nov_03_1644,Reversal,3.2.4,59.95656749474292,
8,exp1.png,exp2.png,2,0,2,0,0,8,8,8,,,,,,,,,,,,,,,,,,,,,,,,,False,47,48,False,exp1.png,exp2.png,trial_right_image,-1,exp2.png,3,exp2.png,exp1.png,1,3,reversed,correct,0.8372378972658381,1,valid_win,341.89714870019816,23,,,,,,,,,,,s_002,3,2020_Nov_03_1644,Reversal,3.2.4,59.95656749474292,
9,exp3.png,exp4.png,2,0,2,0,0,9,9,9,,,,,,,,,,,,,,,,,,,,,,,,,False,48,49,False,exp3.png,exp4.png,trial_right_image,-1,exp4.png,3,exp4.png,exp3.png,1,1,non-reversed,correct,0.10122130531838047,0,invalid_lose,347.2605508000124,23,,,,,,,,,,,s_002,3,2020_Nov_03_1644,Reversal,3.2.4,59.95656749474292,
10,exp1.png,exp2.png,2,0,2,0,0,10,10,10,,,,,,,,,,,,,,,,,,,,,,,,,False,49,50,False,exp1.png,exp2.png,trial_right_image,-1,exp2.png,3,exp2.png,exp1.png,1,3,reversed,correct,0.5179431418068611,1,valid_win,352.2764579001814,24,,,,,,,,,,,s_002,3,2020_Nov_03_1644,Reversal,3.2.4,59.95656749474292,
11,exp3.png,exp4.png,2,0,2,0,0,11,11,11,,,,,,,,,,,,,,,,,,,,,,,,,False,50,51,False,exp3.png,exp4.png,trial_right_image,-1,exp4.png,3,exp4.png,exp3.png,1,1,non-reversed,correct,0.9929045353996367,1,valid_win,356.57387660001405,25,,,,,,,,,,,s_002,3,2020_Nov_03_1644,Reversal,3.2.4,59.95656749474292,
12,exp1.png,exp2.png,2,0,2,0,0,12,12,12,,,,,,,,,,,,,,,,,,,,,,,,,False,51,52,False,exp1.png,exp2.png,trial_right_image,-1,exp2.png,3,exp2.png,exp1.png,1,3,reversed,correct,0.5131717582143015,1,valid_win,361.07342880009674,26,,,,,,,,,,,s_002,3,2020_Nov_03_1644,Reversal,3.2.4,59.95656749474292,
13,exp3.png,exp4.png,2,0,2,0,0,13,13,13,,,,,,,,,,,,,,,,,,,,,,,,,False,52,53,True,exp4.png,exp3.png,trial_left_image,1,exp4.png,3,exp4.png,exp3.png,1,1,non-reversed,correct,0.18740947383179685,0,invalid_lose,366.8718501001131,26,,,,,,,,,,,s_002,3,2020_Nov_03_1644,Reversal,3.2.4,59.95656749474292,
14,exp1.png,exp2.png,2,0,2,0,0,14,14,14,,,,,,,,,,,,,,,,,,,,,,,,,False,53,54,True,exp2.png,exp1.png,trial_left_image,1,exp2.png,3,exp2.png,exp1.png,1,3,reversed,correct,0.9323837629377517,1,valid_win,371.83703210018575,27,,,,,,,,,,,s_002,3,2020_Nov_03_1644,Reversal,3.2.4,59.95656749474292,
15,exp3.png,exp4.png,2,0,2,0,0,15,15,15,,,,,,,,,,,,,,,,,,,,,,,,,False,54,55,True,exp4.png,exp3.png,trial_left_image,1,exp4.png,3,exp4.png,exp3.png,1,1,non-reversed,correct,0.1869016008132588,0,invalid_lose,377.63634950015694,27,,,,,,,,,,,s_002,3,2020_Nov_03_1644,Reversal,3.2.4,59.95656749474292,
16,exp1.png,exp2.png,2,0,2,0,0,16,16,16,,,,,,,,,,,,,,,,,,,,,,,,,False,55,56,True,exp2.png,exp1.png,trial_left_image,1,exp2.png,3,exp2.png,exp1.png,1,3,reversed,correct,0.06176870616997965,0,invalid_lose,382.35108460020274,27,,,,,,,,,,,s_002,3,2020_Nov_03_1644,Reversal,3.2.4,59.95656749474292,
17,exp3.png,exp4.png,2,0,2,0,0,17,17,17,,,,,,,,,,,,,,,,,,,,,,,,,False,56,57,True,exp4.png,exp3.png,trial_right_image,-1,exp3.png,3,exp4.png,exp3.png,0,2,non-reversed,incorrect,0.6286270973548059,0,valid_lose,389.96467230003327,27,,,,,,,,,,,s_002,3,2020_Nov_03_1644,Reversal,3.2.4,59.95656749474292,
18,exp1.png,exp2.png,2,0,2,0,0,18,18,18,,,,,,,,,,,,,,,,,,,,,,,,,False,57,58,True,exp2.png,exp1.png,trial_left_image,1,exp2.png,3,exp2.png,exp1.png,1,3,reversed,correct,0.002100686855093903,0,invalid_lose,394.34678500005975,27,,,,,,,,,,,s_002,3,2020_Nov_03_1644,Reversal,3.2.4,59.95656749474292,
19,exp3.png,exp4.png,2,0,2,0,0,19,19,19,,,,,,,,,,,,,,,,,,,,,,,,,False,58,59,False,exp3.png,exp4.png,trial_left_image,1,exp3.png,3,exp4.png,exp3.png,0,2,non-reversed,incorrect,0.018135640136504927,1,invalid_win,398.74453920009546,28,,,,,,,,,,,s_002,3,2020_Nov_03_1644,Reversal,3.2.4,59.95656749474292,
20,exp1.png,exp2.png,2,0,2,0,0,20,20,20,,,,,,,,,,,,,,,,,,,,,,,,,False,59,60,True,exp2.png,exp1.png,trial_right_image,-1,exp1.png,3,exp2.png,exp1.png,0,4,reversed,incorrect,0.18848530364248384,1,invalid_win,403.87624150002375,29,,,,,,,,,,,s_002,3,2020_Nov_03_1644,Reversal,3.2.4,59.95656749474292,
,,,2,0,2,0,,,,,0,0,0,0,,,,,,,,,,,,,,,,,,,,,,,,,,,,,,,,,,,,,,,,,,37,66,35,65,,,,,,,s_002,3,2020_Nov_03_1644,Reversal,3.2.4,59.95656749474292,
0,exp1.png,exp2.png,,,,,,,,,,,,,,,,,0,0,0,0,0,0,0,0,,,,,,,,,True,,,,,,,,,,,,,,,,,,,,,,,,,,,,,,,s_002,3,2020_Nov_03_1644,Reversal,3.2.4,59.95656749474292,
1,exp3.png,exp4.png,,,,,,,,,,,,,,,,,0,0,0,0,0,1,1,1,,,,,,,,,False,0,61,False,exp3.png,exp4.png,trial_right_image,-1,exp4.png,3,exp4.png,exp3.png,1,1,non-reversed,correct,0.5324103945640479,1,valid_win,435.45004680007696,30,,,,,430.32271960005164,,,,,,s_002,3,2020_Nov_03_1644,Reversal,3.2.4,59.95656749474292,
2,exp1.png,exp2.png,,,,,,,,,,,,,,,,,0,0,0,0,0,2,2,2,,,,,,,,,False,1,62,True,exp2.png,exp1.png,trial_left_image,1,exp2.png,3,exp1.png,exp2.png,1,3,reversed,incorrect,0.6527626446150268,0,valid_lose,445.41304950020276,30,,,,,,,,,,,s_002,3,2020_Nov_03_1644,Reversal,3.2.4,59.95656749474292,
3,exp3.png,exp4.png,,,,,,,,,,,,,,,,,0,0,0,0,0,3,3,3,,,,,,,,,False,2,63,False,exp3.png,exp4.png,trial_right_image,-1,exp4.png,3,exp4.png,exp3.png,1,1,non-reversed,correct,0.10517590055032322,0,invalid_lose,450.11071100016125,30,,,,,,,,,,,s_002,3,2020_Nov_03_1644,Reversal,3.2.4,59.95656749474292,
4,exp1.png,exp2.png,,,,,,,,,,,,,,,,,0,0,0,0,0,4,4,4,,,,,,,,,False,3,64,False,exp1.png,exp2.png,trial_right_image,-1,exp2.png,3,exp1.png,exp2.png,1,3,reversed,incorrect,0.13285829143759398,1,invalid_win,464.1737288001459,31,,,,,,,,,,,s_002,3,2020_Nov_03_1644,Reversal,3.2.4,59.95656749474292,
5,exp3.png,exp4.png,,,,,,,,,,,,,,,,,0,0,0,0,0,5,5,5,,,,,,,,,False,4,65,False,exp3.png,exp4.png,trial_left_image,1,exp3.png,3,exp4.png,exp3.png,0,2,non-reversed,incorrect,0.015251816091771508,1,invalid_win,473.7535123000853,32,,,,,,,,,,,s_002,3,2020_Nov_03_1644,Reversal,3.2.4,59.95656749474292,
6,exp1.png,exp2.png,,,,,,,,,,,,,,,,,0,0,0,0,0,6,6,6,,,,,,,,,False,5,66,False,exp1.png,exp2.png,trial_right_image,-1,exp2.png,3,exp1.png,exp2.png,1,3,reversed,incorrect,0.3022072236537031,0,valid_lose,480.0666648000479,32,,,,,,,,,,,s_002,3,2020_Nov_03_1644,Reversal,3.2.4,59.95656749474292,
7,exp3.png,exp4.png,,,,,,,,,,,,,,,,,0,0,0,0,0,7,7,7,,,,,,,,,False,6,67,True,exp4.png,exp3.png,trial_left_image,1,exp4.png,3,exp4.png,exp3.png,1,1,non-reversed,correct,0.03802696996457422,0,invalid_lose,485.14958150009625,32,,,,,,,,,,,s_002,3,2020_Nov_03_1644,Reversal,3.2.4,59.95656749474292,
8,exp1.png,exp2.png,,,,,,,,,,,,,,,,,0,0,0,0,0,8,8,8,,,,,,,,,False,7,68,True,exp2.png,exp1.png,trial_right_image,-1,exp1.png,3,exp1.png,exp2.png,0,4,reversed,correct,0.2731311687753305,1,valid_win,489.58178620017134,33,,,,,,,,,,,s_002,3,2020_Nov_03_1644,Reversal,3.2.4,59.95656749474292,
9,exp3.png,exp4.png,,,,,,,,,,,,,,,,,0,0,0,0,0,9,9,9,,,,,,,,,False,8,69,True,exp4.png,exp3.png,trial_right_image,-1,exp3.png,3,exp4.png,exp3.png,0,2,non-reversed,incorrect,0.8147043690276589,0,valid_lose,494.1621632000897,33,,,,,,,,,,,s_002,3,2020_Nov_03_1644,Reversal,3.2.4,59.95656749474292,
10,exp1.png,exp2.png,,,,,,,,,,,,,,,,,0,0,0,0,0,10,10,10,,,,,,,,,False,9,70,True,exp2.png,exp1.png,trial_left_image,1,exp2.png,3,exp1.png,exp2.png,1,3,reversed,incorrect,0.399324361699259,0,valid_lose,498.92839770019054,33,,,,,,,,,,,s_002,3,2020_Nov_03_1644,Reversal,3.2.4,59.95656749474292,
11,exp3.png,exp4.png,,,,,,,,,,,,,,,,,0,0,0,0,0,11,11,11,,,,,,,,,False,10,71,False,exp3.png,exp4.png,trial_left_image,1,exp3.png,3,exp4.png,exp3.png,0,2,non-reversed,incorrect,0.7075277190318818,0,valid_lose,503.2101171000395,33,,,,,,,,,,,s_002,3,2020_Nov_03_1644,Reversal,3.2.4,59.95656749474292,
12,exp1.png,exp2.png,,,,,,,,,,,,,,,,,0,0,0,0,0,12,12,12,,,,,,,,,False,11,72,False,exp1.png,exp2.png,trial_right_image,-1,exp2.png,3,exp1.png,exp2.png,1,3,reversed,incorrect,0.5408787444678506,0,valid_lose,507.12418030016124,33,,,,,,,,,,,s_002,3,2020_Nov_03_1644,Reversal,3.2.4,59.95656749474292,
13,exp3.png,exp4.png,,,,,,,,,,,,,,,,,0,0,0,0,0,13,13,13,,,,,,,,,False,12,73,True,exp4.png,exp3.png,trial_left_image,1,exp4.png,3,exp4.png,exp3.png,1,1,non-reversed,correct,0.05140954016042354,0,invalid_lose,511.6576774001587,33,,,,,,,,,,,s_002,3,2020_Nov_03_1644,Reversal,3.2.4,59.95656749474292,
14,exp1.png,exp2.png,,,,,,,,,,,,,,,,,0,0,0,0,0,14,14,14,,,,,,,,,False,13,74,True,exp2.png,exp1.png,trial_right_image,-1,exp1.png,3,exp1.png,exp2.png,0,4,reversed,correct,0.8154259356687522,1,valid_win,516.0716315000318,34,,,,,,,,,,,s_002,3,2020_Nov_03_1644,Reversal,3.2.4,59.95656749474292,
15,exp3.png,exp4.png,,,,,,,,,,,,,,,,,0,0,0,0,0,15,15,15,,,,,,,,,False,14,75,False,exp3.png,exp4.png,trial_left_image,1,exp3.png,3,exp4.png,exp3.png,0,2,non-reversed,incorrect,0.6195713611746401,0,valid_lose,520.2881090000737,34,,,,,,,,,,,s_002,3,2020_Nov_03_1644,Reversal,3.2.4,59.95656749474292,
16,exp1.png,exp2.png,,,,,,,,,,,,,,,,,0,0,0,0,0,16,16,16,,,,,,,,,False,15,76,True,exp2.png,exp1.png,trial_right_image,-1,exp1.png,3,exp1.png,exp2.png,0,4,reversed,correct,0.1279086216789055,0,invalid_lose,526.0195449001621,34,,,,,,,,,,,s_002,3,2020_Nov_03_1644,Reversal,3.2.4,59.95656749474292,
17,exp3.png,exp4.png,,,,,,,,,,,,,,,,,0,0,0,0,0,17,17,17,,,,,,,,,False,16,77,False,exp3.png,exp4.png,trial_left_image,1,exp3.png,3,exp4.png,exp3.png,0,2,non-reversed,incorrect,0.07269291828929758,1,invalid_win,530.4679342000745,35,,,,,,,,,,,s_002,3,2020_Nov_03_1644,Reversal,3.2.4,59.95656749474292,
18,exp1.png,exp2.png,,,,,,,,,,,,,,,,,0,0,0,0,0,18,18,18,,,,,,,,,False,17,78,True,exp2.png,exp1.png,trial_right_image,-1,exp1.png,3,exp1.png,exp2.png,0,4,reversed,correct,0.03635769404474287,0,invalid_lose,534.7497898000292,35,,,,,,,,,,,s_002,3,2020_Nov_03_1644,Reversal,3.2.4,59.95656749474292,
19,exp3.png,exp4.png,,,,,,,,,,,,,,,,,0,0,0,0,0,19,19,19,,,,,,,,,False,18,79,False,exp3.png,exp4.png,trial_left_image,1,exp3.png,3,exp4.png,exp3.png,0,2,non-reversed,incorrect,0.43303820454248676,0,valid_lose,539.5645677000284,35,,,,,,,,,,,s_002,3,2020_Nov_03_1644,Reversal,3.2.4,59.95656749474292,
20,exp1.png,exp2.png,,,,,,,,,,,,,,,,,0,0,0,0,0,20,20,20,,,,,,,,,False,19,80,True,exp2.png,exp1.png,trial_right_image,-1,exp1.png,3,exp1.png,exp2.png,0,4,reversed,correct,0.41124198612721485,1,valid_win,543.8794552001636,36,,,,,,,,,,,s_002,3,2020_Nov_03_1644,Reversal,3.2.4,59.95656749474292,
,,,,,,,,,,,,,,,,,,,0,0,0,0,,,,,0,0,0,0,,,,,,,,,,,,,,,,,,,,,,,,,,50.0,50.0,50.0,50.0,,,,,,,s_002,3,2020_Nov_03_1644,Reversal,3.2.4,59.95656749474292,
0,exp1.png,exp2.png,,,,,,,,,,,,,,,,,1,0,1,0,0,0,0,0,,,,,,,,,True,,,,,,,,,,,,,,,,,,,,,,,,,,,,,,,s_002,3,2020_Nov_03_1644,Reversal,3.2.4,59.95656749474292,
1,exp3.png,exp4.png,,,,,,,,,,,,,,,,,1,0,1,0,0,1,1,1,,,,,,,,,False,20,81,False,exp3.png,exp4.png,trial_right_image,-1,exp4.png,3,exp4.png,exp3.png,1,1,non-reversed,correct,0.18357475252917899,0,invalid_lose,558.8416347000748,36,,,,,,,,,,,s_002,3,2020_Nov_03_1644,Reversal,3.2.4,59.95656749474292,
2,exp1.png,exp2.png,,,,,,,,,,,,,,,,,1,0,1,0,0,2,2,2,,,,,,,,,False,21,82,False,exp1.png,exp2.png,trial_left_image,1,exp1.png,3,exp1.png,exp2.png,0,4,reversed,correct,0.5914957676581397,1,valid_win,563.5065547002014,37,,,,,,,,,,,s_002,3,2020_Nov_03_1644,Reversal,3.2.4,59.95656749474292,
3,exp3.png,exp4.png,,,,,,,,,,,,,,,,,1,0,1,0,0,3,3,3,,,,,,,,,False,22,83,False,exp3.png,exp4.png,trial_left_image,1,exp3.png,3,exp4.png,exp3.png,0,2,non-reversed,incorrect,0.7076156455316169,0,valid_lose,567.4386661001481,37,,,,,,,,,,,s_002,3,2020_Nov_03_1644,Reversal,3.2.4,59.95656749474292,
4,exp1.png,exp2.png,,,,,,,,,,,,,,,,,1,0,1,0,0,4,4,4,,,,,,,,,False,23,84,True,exp2.png,exp1.png,trial_right_image,-1,exp1.png,3,exp1.png,exp2.png,0,4,reversed,correct,0.711246673412735,1,valid_win,571.4872163000982,38,,,,,,,,,,,s_002,3,2020_Nov_03_1644,Reversal,3.2.4,59.95656749474292,
5,exp3.png,exp4.png,,,,,,,,,,,,,,,,,1,0,1,0,0,5,5,5,,,,,,,,,False,24,85,False,exp3.png,exp4.png,trial_left_image,1,exp3.png,3,exp4.png,exp3.png,0,2,non-reversed,incorrect,0.17985078656920395,1,invalid_win,575.5695274001919,39,,,,,,,,,,,s_002,3,2020_Nov_03_1644,Reversal,3.2.4,59.95656749474292,
6,exp1.png,exp2.png,,,,,,,,,,,,,,,,,1,0,1,0,0,6,6,6,,,,,,,,,False,25,86,False,exp1.png,exp2.png,trial_left_image,1,exp1.png,3,exp1.png,exp2.png,0,4,reversed,correct,0.1111986142593917,0,invalid_lose,579.584196700016,39,,,,,,,,,,,s_002,3,2020_Nov_03_1644,Reversal,3.2.4,59.95656749474292,
7,exp3.png,exp4.png,,,,,,,,,,,,,,,,,1,0,1,0,0,7,7,7,,,,,,,,,False,26,87,True,exp4.png,exp3.png,trial_right_image,-1,exp3.png,3,exp4.png,exp3.png,0,2,non-reversed,incorrect,0.7603750055736272,0,valid_lose,584.666140699992,39,,,,,,,,,,,s_002,3,2020_Nov_03_1644,Reversal,3.2.4,59.95656749474292,
8,exp1.png,exp2.png,,,,,,,,,,,,,,,,,1,0,1,0,0,8,8,8,,,,,,,,,False,27,88,True,exp2.png,exp1.png,trial_left_image,1,exp2.png,3,exp1.png,exp2.png,1,3,reversed,incorrect,0.6352185990059928,0,valid_lose,590.3482876000926,39,,,,,,,,,,,s_002,3,2020_Nov_03_1644,Reversal,3.2.4,59.95656749474292,
9,exp3.png,exp4.png,,,,,,,,,,,,,,,,,1,0,1,0,0,9,9,9,,,,,,,,,False,28,89,False,exp3.png,exp4.png,trial_right_image,-1,exp4.png,3,exp4.png,exp3.png,1,1,non-reversed,correct,0.9846485509407247,1,valid_win,594.3466134001501,40,,,,,,,,,,,s_002,3,2020_Nov_03_1644,Reversal,3.2.4,59.95656749474292,
10,exp1.png,exp2.png,,,,,,,,,,,,,,,,,1,0,1,0,0,10,10,10,,,,,,,,,False,29,90,True,exp2.png,exp1.png,trial_right_image,-1,exp1.png,3,exp1.png,exp2.png,0,4,reversed,correct,0.8282222032736729,1,valid_win,598.6783030000515,41,,,,,,,,,,,s_002,3,2020_Nov_03_1644,Reversal,3.2.4,59.95656749474292,
11,exp3.png,exp4.png,,,,,,,,,,,,,,,,,1,0,1,0,0,11,11,11,,,,,,,,,False,30,91,False,exp3.png,exp4.png,trial_right_image,-1,exp4.png,3,exp4.png,exp3.png,1,1,non-reversed,correct,0.07919199187274817,0,invalid_lose,603.5598331000656,41,,,,,,,,,,,s_002,3,2020_Nov_03_1644,Reversal,3.2.4,59.95656749474292,
12,exp1.png,exp2.png,,,,,,,,,,,,,,,,,1,0,1,0,0,12,12,12,,,,,,,,,False,31,92,True,exp2.png,exp1.png,trial_right_image,-1,exp1.png,3,exp1.png,exp2.png,0,4,reversed,correct,0.3636852193819189,1,valid_win,607.8252882000525,42,,,,,,,,,,,s_002,3,2020_Nov_03_1644,Reversal,3.2.4,59.95656749474292,
13,exp3.png,exp4.png,,,,,,,,,,,,,,,,,1,0,1,0,0,13,13,13,,,,,,,,,False,32,93,True,exp4.png,exp3.png,trial_right_image,-1,exp3.png,3,exp4.png,exp3.png,0,2,non-reversed,incorrect,0.7729000370963647,0,valid_lose,611.8572711001616,42,,,,,,,,,,,s_002,3,2020_Nov_03_1644,Reversal,3.2.4,59.95656749474292,
14,exp1.png,exp2.png,,,,,,,,,,,,,,,,,1,0,1,0,0,14,14,14,,,,,,,,,False,33,94,False,exp1.png,exp2.png,trial_left_image,1,exp1.png,3,exp1.png,exp2.png,0,4,reversed,correct,0.5074739051518141,1,valid_win,615.9210867001675,43,,,,,,,,,,,s_002,3,2020_Nov_03_1644,Reversal,3.2.4,59.95656749474292,
15,exp3.png,exp4.png,,,,,,,,,,,,,,,,,1,0,1,0,0,15,15,15,,,,,,,,,False,34,95,False,exp3.png,exp4.png,trial_left_image,1,exp3.png,3,exp4.png,exp3.png,0,2,non-reversed,incorrect,0.9273399667101749,0,valid_lose,620.071275500115,43,,,,,,,,,,,s_002,3,2020_Nov_03_1644,Reversal,3.2.4,59.95656749474292,
16,exp1.png,exp2.png,,,,,,,,,,,,,,,,,1,0,1,0,0,16,16,16,,,,,,,,,False,35,96,True,exp2.png,exp1.png,trial_right_image,-1,exp1.png,3,exp1.png,exp2.png,0,4,reversed,correct,0.1675793445709728,0,invalid_lose,624.4854846000671,43,,,,,,,,,,,s_002,3,2020_Nov_03_1644,Reversal,3.2.4,59.95656749474292,
17,exp3.png,exp4.png,,,,,,,,,,,,,,,,,1,0,1,0,0,17,17,17,,,,,,,,,False,36,97,True,exp4.png,exp3.png,trial_right_image,-1,exp3.png,3,exp4.png,exp3.png,0,2,non-reversed,incorrect,0.8353703971852849,0,valid_lose,630.6496584000997,43,,,,,,,,,,,s_002,3,2020_Nov_03_1644,Reversal,3.2.4,59.95656749474292,
18,exp1.png,exp2.png,,,,,,,,,,,,,,,,,1,0,1,0,0,18,18,18,,,,,,,,,False,37,98,True,exp2.png,exp1.png,trial_left_image,1,exp2.png,3,exp1.png,exp2.png,1,3,reversed,incorrect,0.22415492603015297,1,invalid_win,634.9325343000237,44,,,,,,,,,,,s_002,3,2020_Nov_03_1644,Reversal,3.2.4,59.95656749474292,
19,exp3.png,exp4.png,,,,,,,,,,,,,,,,,1,0,1,0,0,19,19,19,,,,,,,,,False,38,99,False,exp3.png,exp4.png,trial_left_image,1,exp3.png,3,exp4.png,exp3.png,0,2,non-reversed,incorrect,0.6593428290642624,0,valid_lose,639.3796694001649,44,,,,,,,,,,,s_002,3,2020_Nov_03_1644,Reversal,3.2.4,59.95656749474292,
20,exp1.png,exp2.png,,,,,,,,,,,,,,,,,1,0,1,0,0,20,20,20,,,,,,,,,False,39,100,True,exp2.png,exp1.png,trial_left_image,1,exp2.png,3,exp1.png,exp2.png,1,3,reversed,incorrect,0.36063884907307464,0,valid_lose,643.7129254001193,44,,,,,,,,,,,s_002,3,2020_Nov_03_1644,Reversal,3.2.4,59.95656749474292,
,,,,,,,,,,,,,,,,,,,1,0,1,0,,,,,0,0,0,0,,,,,,,,,,,,,,,,,,,,,,,,,,22,14,20,24,,,,,,,s_002,3,2020_Nov_03_1644,Reversal,3.2.4,59.95656749474292,
0,exp1.png,exp2.png,,,,,,,,,,,,,,,,,2,0,2,0,0,0,0,0,,,,,,,,,True,,,,,,,,,,,,,,,,,,,,,,,,,,,,,,,s_002,3,2020_Nov_03_1644,Reversal,3.2.4,59.95656749474292,
1,exp3.png,exp4.png,,,,,,,,,,,,,,,,,2,0,2,0,0,1,1,1,,,,,,,,,False,40,101,True,exp4.png,exp3.png,trial_left_image,1,exp4.png,3,exp4.png,exp3.png,1,1,non-reversed,correct,0.2192736493163876,0,invalid_lose,664.472529000137,44,,,,,,,,,,,s_002,3,2020_Nov_03_1644,Reversal,3.2.4,59.95656749474292,
2,exp1.png,exp2.png,,,,,,,,,,,,,,,,,2,0,2,0,0,2,2,2,,,,,,,,,False,41,102,True,exp2.png,exp1.png,trial_left_image,1,exp2.png,3,exp1.png,exp2.png,1,3,reversed,incorrect,0.7113251356027545,0,valid_lose,672.1198873000685,44,,,,,,,,,,,s_002,3,2020_Nov_03_1644,Reversal,3.2.4,59.95656749474292,
3,exp3.png,exp4.png,,,,,,,,,,,,,,,,,2,0,2,0,0,3,3,3,,,,,,,,,False,42,103,True,exp4.png,exp3.png,trial_right_image,-1,exp3.png,3,exp4.png,exp3.png,0,2,non-reversed,incorrect,0.48266886875167414,0,valid_lose,676.7023772001266,44,,,,,,,,,,,s_002,3,2020_Nov_03_1644,Reversal,3.2.4,59.95656749474292,
4,exp1.png,exp2.png,,,,,,,,,,,,,,,,,2,0,2,0,0,4,4,4,,,,,,,,,False,43,104,True,exp2.png,exp1.png,trial_right_image,-1,exp1.png,3,exp1.png,exp2.png,0,4,reversed,correct,0.5623362662530814,1,valid_win,681.033742700005,45,,,,,,,,,,,s_002,3,2020_Nov_03_1644,Reversal,3.2.4,59.95656749474292,
5,exp3.png,exp4.png,,,,,,,,,,,,,,,,,2,0,2,0,0,5,5,5,,,,,,,,,False,44,105,False,exp3.png,exp4.png,trial_left_image,1,exp3.png,3,exp4.png,exp3.png,0,2,non-reversed,incorrect,0.7107836301636333,0,valid_lose,688.0649132002145,45,,,,,,,,,,,s_002,3,2020_Nov_03_1644,Reversal,3.2.4,59.95656749474292,
6,exp1.png,exp2.png,,,,,,,,,,,,,,,,,2,0,2,0,0,6,6,6,,,,,,,,,False,45,106,False,exp1.png,exp2.png,trial_left_image,1,exp1.png,3,exp1.png,exp2.png,0,4,reversed,correct,0.1807510098866274,0,invalid_lose,694.3447984000668,45,,,,,,,,,,,s_002,3,2020_Nov_03_1644,Reversal,3.2.4,59.95656749474292,
7,exp3.png,exp4.png,,,,,,,,,,,,,,,,,2,0,2,0,0,7,7,7,,,,,,,,,False,46,107,True,exp4.png,exp3.png,trial_left_image,1,exp4.png,3,exp4.png,exp3.png,1,1,non-reversed,correct,0.37618184363880824,1,valid_win,698.7763898000121,46,,,,,,,,,,,s_002,3,2020_Nov_03_1644,Reversal,3.2.4,59.95656749474292,
8,exp1.png,exp2.png,,,,,,,,,,,,,,,,,2,0,2,0,0,8,8,8,,,,,,,,,False,47,108,True,exp2.png,exp1.png,trial_right_image,-1,exp1.png,3,exp1.png,exp2.png,0,4,reversed,correct,0.5067359780968846,1,valid_win,703.55888710008,47,,,,,,,,,,,s_002,3,2020_Nov_03_1644,Reversal,3.2.4,59.95656749474292,
9,exp3.png,exp4.png,,,,,,,,,,,,,,,,,2,0,2,0,0,9,9,9,,,,,,,,,False,48,109,True,exp4.png,exp3.png,trial_right_image,-1,exp3.png,3,exp4.png,exp3.png,0,2,non-reversed,incorrect,0.277662900878224,0,valid_lose,708.5243629000615,47,,,,,,,,,,,s_002,3,2020_Nov_03_1644,Reversal,3.2.4,59.95656749474292,
10,exp1.png,exp2.png,,,,,,,,,,,,,,,,,2,0,2,0,0,10,10,10,,,,,,,,,False,49,110,True,exp2.png,exp1.png,trial_right_image,-1,exp1.png,3,exp1.png,exp2.png,0,4,reversed,correct,0.3269511692497443,1,valid_win,713.2732210000977,48,,,,,,,,,,,s_002,3,2020_Nov_03_1644,Reversal,3.2.4,59.95656749474292,
11,exp3.png,exp4.png,,,,,,,,,,,,,,,,,2,0,2,0,0,11,11,11,,,,,,,,,False,50,111,False,exp3.png,exp4.png,trial_right_image,-1,exp4.png,3,exp4.png,exp3.png,1,1,non-reversed,correct,0.4063210812247995,1,valid_win,717.8863302001264,49,,,,,,,,,,,s_002,3,2020_Nov_03_1644,Reversal,3.2.4,59.95656749474292,
12,exp1.png,exp2.png,,,,,,,,,,,,,,,,,2,0,2,0,0,12,12,12,,,,,,,,,False,51,112,False,exp1.png,exp2.png,trial_left_image,1,exp1.png,3,exp1.png,exp2.png,0,4,reversed,correct,0.3420478583975841,1,valid_win,725.9341289000586,50,,,,,,,,,,,s_002,3,2020_Nov_03_1644,Reversal,3.2.4,59.95656749474292,
13,exp3.png,exp4.png,,,,,,,,,,,,,,,,,2,0,2,0,0,13,13,13,,,,,,,,,False,52,113,False,exp3.png,exp4.png,trial_right_image,-1,exp4.png,3,exp4.png,exp3.png,1,1,non-reversed,correct,0.2134320916241591,0,invalid_lose,730.4323511000257,50,,,,,,,,,,,s_002,3,2020_Nov_03_1644,Reversal,3.2.4,59.95656749474292,
14,exp1.png,exp2.png,,,,,,,,,,,,,,,,,2,0,2,0,0,14,14,14,,,,,,,,,False,53,114,True,exp2.png,exp1.png,trial_right_image,-1,exp1.png,3,exp1.png,exp2.png,0,4,reversed,correct,0.6391086781713438,1,valid_win,739.9803495001979,51,,,,,,,,,,,s_002,3,2020_Nov_03_1644,Reversal,3.2.4,59.95656749474292,
15,exp3.png,exp4.png,,,,,,,,,,,,,,,,,2,0,2,0,0,15,15,15,,,,,,,,,False,54,115,False,exp3.png,exp4.png,trial_right_image,-1,exp4.png,3,exp4.png,exp3.png,1,1,non-reversed,correct,0.057900549136655766,0,invalid_lose,744.8443696000613,51,,,,,,,,,,,s_002,3,2020_Nov_03_1644,Reversal,3.2.4,59.95656749474292,
16,exp1.png,exp2.png,,,,,,,,,,,,,,,,,2,0,2,0,0,16,16,16,,,,,,,,,False,55,116,False,exp1.png,exp2.png,trial_left_image,1,exp1.png,3,exp1.png,exp2.png,0,4,reversed,correct,0.8075928776684571,1,valid_win,750.8603383000009,52,,,,,,,,,,,s_002,3,2020_Nov_03_1644,Reversal,3.2.4,59.95656749474292,
17,exp3.png,exp4.png,,,,,,,,,,,,,,,,,2,0,2,0,0,17,17,17,,,,,,,,,False,56,117,False,exp3.png,exp4.png,trial_left_image,1,exp3.png,3,exp4.png,exp3.png,0,2,non-reversed,incorrect,0.07614987411165974,1,invalid_win,755.9236427000724,53,,,,,,,,,,,s_002,3,2020_Nov_03_1644,Reversal,3.2.4,59.95656749474292,
18,exp1.png,exp2.png,,,,,,,,,,,,,,,,,2,0,2,0,0,18,18,18,,,,,,,,,False,57,118,False,exp1.png,exp2.png,trial_left_image,1,exp1.png,3,exp1.png,exp2.png,0,4,reversed,correct,0.7952999791951559,1,valid_win,760.5389368000906,54,,,,,,,,,,,s_002,3,2020_Nov_03_1644,Reversal,3.2.4,59.95656749474292,
19,exp3.png,exp4.png,,,,,,,,,,,,,,,,,2,0,2,0,0,19,19,19,,,,,,,,,False,58,119,False,exp3.png,exp4.png,trial_left_image,1,exp3.png,3,exp4.png,exp3.png,0,2,non-reversed,incorrect,0.5215455107551291,0,valid_lose,764.8545599000063,54,,,,,,,,,,,s_002,3,2020_Nov_03_1644,Reversal,3.2.4,59.95656749474292,
20,exp1.png,exp2.png,,,,,,,,,,,,,,,,,2,0,2,0,0,20,20,20,,,,,,,,,False,59,120,True,exp2.png,exp1.png,trial_right_image,-1,exp1.png,3,exp1.png,exp2.png,0,4,reversed,correct,0.4315885805976637,1,valid_win,770.8368599000387,55,,,,,,,,,,,s_002,3,2020_Nov_03_1644,Reversal,3.2.4,59.95656749474292,
,,,,,,,,,,,,,,,,,,,2,0,2,0,,,,,0,0,0,0,,,,,,,,,,,,,,,,,,,,,,,,,,83,12,28,73,,,,,,,s_002,3,2020_Nov_03_1644,Reversal,3.2.4,59.95656749474292,
,,,,,,,,,,,,,,,,,,,,,,,,,,,,,,,,,,,,,,,,,,,,,,,,,,,,,,,55,,,,,,72,39,33,367.5702818001155,0,,,,,,,
