trial_index,trial_image1_file,trial_image2_file,learning_outer_loop.thisRepN,learning_outer_loop.thisTrialN,learning_outer_loop.thisN,learning_outer_loop.thisIndex,learning_inner_loop.thisRepN,learning_inner_loop.thisTrialN,learning_inner_loop.thisN,learning_inner_loop.thisIndex,learning_estimation_outer_loop.thisRepN,learning_estimation_outer_loop.thisTrialN,learning_estimation_outer_loop.thisN,learning_estimation_outer_loop.thisIndex,learning_estimation_inner_loop.thisRepN,learning_estimation_inner_loop.thisTrialN,learning_estimation_inner_loop.thisN,learning_estimation_inner_loop.thisIndex,reversal_outer_loop.thisRepN,reversal_outer_loop.thisTrialN,reversal_outer_loop.thisN,reversal_outer_loop.thisIndex,reversal_inner_loop.thisRepN,reversal_inner_loop.thisTrialN,reversal_inner_loop.thisN,reversal_inner_loop.thisIndex,reversal_estimation_outer_loop.thisRepN,reversal_estimation_outer_loop.thisTrialN,reversal_estimation_outer_loop.thisN,reversal_estimation_outer_loop.thisIndex,reversal_estimation_inner_loop.thisRepN,reversal_estimation_inner_loop.thisTrialN,reversal_estimation_inner_loop.thisN,reversal_estimation_inner_loop.thisIndex,skipped,total_trial_counter,trial_num,left_right_flip,left_image_file,right_image_file,clicked_stimulus_side,side,clicked_stimulus,version,high_prob_image_file,low_prob_image_file,choice_a,choice_b,pair_type,correct,trial_feedback_random,reward,trial_type,overall_time_after_trial,score,estimation_exp1.png,estimation_exp2.png,estimation_exp3.png,estimation_exp4.png,total_learning_time,total_correct,learning_correct,reversal_correct,total_reversal_time,extra_block,end_experiment.keys,end_experiment.rt,participant,ver,date,expName,psychopyVersion,frameRate
0,exp1.png,exp2.png,0,0,0,0,0,0,0,0,,,,,,,,,,,,,,,,,,,,,,,,,TRUE,,,,,,,,,,,,,,,,,,,,,,,,,,,,,,,,,s_006,1,2020_Nov_15_1119,Reversal,3.2.4,60.15974818
1,exp3.png,exp4.png,0,0,0,0,0,1,1,1,,,,,,,,,,,,,,,,,,,,,,,,,FALSE,0,1,FALSE,exp3.png,exp4.png,trial_right_image,-1,exp4.png,1,exp3.png,exp4.png,0,2,non-reversed,incorrect,0.907175899,0,valid_lose,3.9116424,0,,,,,,,,,,,,,s_006,1,2020_Nov_15_1119,Reversal,3.2.4,60.15974818
2,exp1.png,exp2.png,0,0,0,0,0,2,2,2,,,,,,,,,,,,,,,,,,,,,,,,,FALSE,1,2,TRUE,exp2.png,exp1.png,trial_right_image,-1,exp1.png,1,exp1.png,exp2.png,1,3,reversed,correct,0.577620005,1,valid_win,8.7921752,1,,,,,,,,,,,,,s_006,1,2020_Nov_15_1119,Reversal,3.2.4,60.15974818
3,exp3.png,exp4.png,0,0,0,0,0,3,3,3,,,,,,,,,,,,,,,,,,,,,,,,,FALSE,2,3,TRUE,exp4.png,exp3.png,trial_left_image,1,exp4.png,1,exp3.png,exp4.png,0,2,non-reversed,incorrect,0.62634499,0,valid_lose,15.7568685,1,,,,,,,,,,,,,s_006,1,2020_Nov_15_1119,Reversal,3.2.4,60.15974818
4,exp1.png,exp2.png,0,0,0,0,0,4,4,4,,,,,,,,,,,,,,,,,,,,,,,,,FALSE,3,4,FALSE,exp1.png,exp2.png,trial_left_image,1,exp1.png,1,exp1.png,exp2.png,1,3,reversed,correct,0.476191411,1,valid_win,21.0558828,2,,,,,,,,,,,,,s_006,1,2020_Nov_15_1119,Reversal,3.2.4,60.15974818
5,exp3.png,exp4.png,0,0,0,0,0,5,5,5,,,,,,,,,,,,,,,,,,,,,,,,,FALSE,4,5,TRUE,exp4.png,exp3.png,trial_right_image,-1,exp3.png,1,exp3.png,exp4.png,1,1,non-reversed,correct,0.672086997,1,valid_win,25.2704737,3,,,,,,,,,,,,,s_006,1,2020_Nov_15_1119,Reversal,3.2.4,60.15974818
6,exp1.png,exp2.png,0,0,0,0,0,6,6,6,,,,,,,,,,,,,,,,,,,,,,,,,FALSE,5,6,TRUE,exp2.png,exp1.png,trial_right_image,-1,exp1.png,1,exp1.png,exp2.png,1,3,reversed,correct,0.157963312,0,invalid_lose,29.485225,3,,,,,,,,,,,,,s_006,1,2020_Nov_15_1119,Reversal,3.2.4,60.15974818
7,exp3.png,exp4.png,0,0,0,0,0,7,7,7,,,,,,,,,,,,,,,,,,,,,,,,,FALSE,6,7,FALSE,exp3.png,exp4.png,trial_left_image,1,exp3.png,1,exp3.png,exp4.png,1,1,non-reversed,correct,0.178356806,0,invalid_lose,34.2348121,3,,,,,,,,,,,,,s_006,1,2020_Nov_15_1119,Reversal,3.2.4,60.15974818
8,exp1.png,exp2.png,0,0,0,0,0,8,8,8,,,,,,,,,,,,,,,,,,,,,,,,,FALSE,7,8,FALSE,exp1.png,exp2.png,trial_right_image,-1,exp2.png,1,exp1.png,exp2.png,0,4,reversed,incorrect,0.016597933,1,invalid_win,40.9491737,4,,,,,,,,,,,,,s_006,1,2020_Nov_15_1119,Reversal,3.2.4,60.15974818
9,exp3.png,exp4.png,0,0,0,0,0,9,9,9,,,,,,,,,,,,,,,,,,,,,,,,,FALSE,8,9,FALSE,exp3.png,exp4.png,trial_right_image,-1,exp4.png,1,exp3.png,exp4.png,0,2,non-reversed,incorrect,0.52156291,0,valid_lose,47.0632012,4,,,,,,,,,,,,,s_006,1,2020_Nov_15_1119,Reversal,3.2.4,60.15974818
10,exp1.png,exp2.png,0,0,0,0,0,10,10,10,,,,,,,,,,,,,,,,,,,,,,,,,FALSE,9,10,TRUE,exp2.png,exp1.png,trial_left_image,1,exp2.png,1,exp1.png,exp2.png,0,4,reversed,incorrect,0.155206276,1,invalid_win,52.3942127,5,,,,,,,,,,,,,s_006,1,2020_Nov_15_1119,Reversal,3.2.4,60.15974818
11,exp3.png,exp4.png,0,0,0,0,0,11,11,11,,,,,,,,,,,,,,,,,,,,,,,,,FALSE,10,11,FALSE,exp3.png,exp4.png,trial_left_image,1,exp3.png,1,exp3.png,exp4.png,1,1,non-reversed,correct,0.605355411,1,valid_win,59.1253386,6,,,,,,,,,,,,,s_006,1,2020_Nov_15_1119,Reversal,3.2.4,60.15974818
12,exp1.png,exp2.png,0,0,0,0,0,12,12,12,,,,,,,,,,,,,,,,,,,,,,,,,FALSE,11,12,FALSE,exp1.png,exp2.png,trial_right_image,-1,exp2.png,1,exp1.png,exp2.png,0,4,reversed,incorrect,0.236400461,1,invalid_win,64.6248099,7,,,,,,,,,,,,,s_006,1,2020_Nov_15_1119,Reversal,3.2.4,60.15974818
13,exp3.png,exp4.png,0,0,0,0,0,13,13,13,,,,,,,,,,,,,,,,,,,,,,,,,FALSE,12,13,TRUE,exp4.png,exp3.png,trial_right_image,-1,exp3.png,1,exp3.png,exp4.png,1,1,non-reversed,correct,0.635436183,1,valid_win,71.1218403,8,,,,,,,,,,,,,s_006,1,2020_Nov_15_1119,Reversal,3.2.4,60.15974818
14,exp1.png,exp2.png,0,0,0,0,0,14,14,14,,,,,,,,,,,,,,,,,,,,,,,,,FALSE,13,14,TRUE,exp2.png,exp1.png,trial_left_image,1,exp2.png,1,exp1.png,exp2.png,0,4,reversed,incorrect,0.603270889,0,valid_lose,75.9200967,8,,,,,,,,,,,,,s_006,1,2020_Nov_15_1119,Reversal,3.2.4,60.15974818
15,exp3.png,exp4.png,0,0,0,0,0,15,15,15,,,,,,,,,,,,,,,,,,,,,,,,,FALSE,14,15,TRUE,exp4.png,exp3.png,trial_right_image,-1,exp3.png,1,exp3.png,exp4.png,1,1,non-reversed,correct,0.152159856,0,invalid_lose,80.9187047,8,,,,,,,,,,,,,s_006,1,2020_Nov_15_1119,Reversal,3.2.4,60.15974818
16,exp1.png,exp2.png,0,0,0,0,0,16,16,16,,,,,,,,,,,,,,,,,,,,,,,,,FALSE,15,16,TRUE,exp2.png,exp1.png,trial_left_image,1,exp2.png,1,exp1.png,exp2.png,0,4,reversed,incorrect,0.416587543,0,valid_lose,86.3663106,8,,,,,,,,,,,,,s_006,1,2020_Nov_15_1119,Reversal,3.2.4,60.15974818
17,exp3.png,exp4.png,0,0,0,0,0,17,17,17,,,,,,,,,,,,,,,,,,,,,,,,,FALSE,16,17,FALSE,exp3.png,exp4.png,trial_right_image,-1,exp4.png,1,exp3.png,exp4.png,0,2,non-reversed,incorrect,0.349180658,0,valid_lose,90.7315511,8,,,,,,,,,,,,,s_006,1,2020_Nov_15_1119,Reversal,3.2.4,60.15974818
18,exp1.png,exp2.png,0,0,0,0,0,18,18,18,,,,,,,,,,,,,,,,,,,,,,,,,FALSE,17,18,FALSE,exp1.png,exp2.png,trial_right_image,-1,exp2.png,1,exp1.png,exp2.png,0,4,reversed,incorrect,0.728866617,0,valid_lose,94.6304954,8,,,,,,,,,,,,,s_006,1,2020_Nov_15_1119,Reversal,3.2.4,60.15974818
19,exp3.png,exp4.png,0,0,0,0,0,19,19,19,,,,,,,,,,,,,,,,,,,,,,,,,FALSE,18,19,TRUE,exp4.png,exp3.png,trial_right_image,-1,exp3.png,1,exp3.png,exp4.png,1,1,non-reversed,correct,0.451689311,1,valid_win,98.5125222,9,,,,,,,,,,,,,s_006,1,2020_Nov_15_1119,Reversal,3.2.4,60.15974818
20,exp1.png,exp2.png,0,0,0,0,0,20,20,20,,,,,,,,,,,,,,,,,,,,,,,,,FALSE,19,20,FALSE,exp1.png,exp2.png,trial_right_image,-1,exp2.png,1,exp1.png,exp2.png,0,4,reversed,incorrect,0.536189333,0,valid_lose,103.0611427,9,,,,,,,,,,,,,s_006,1,2020_Nov_15_1119,Reversal,3.2.4,60.15974818
,,,0,0,0,0,,,,,0,0,0,0,,,,,,,,,,,,,,,,,,,,,,,,,,,,,,,,,,,,,,,,,,24,63,64,31,,,,,,,,,s_006,1,2020_Nov_15_1119,Reversal,3.2.4,60.15974818
0,exp1.png,exp2.png,1,0,1,0,0,0,0,0,,,,,,,,,,,,,,,,,,,,,,,,,TRUE,,,,,,,,,,,,,,,,,,,,,,,,,,,,,,,,,s_006,1,2020_Nov_15_1119,Reversal,3.2.4,60.15974818
1,exp3.png,exp4.png,1,0,1,0,0,1,1,1,,,,,,,,,,,,,,,,,,,,,,,,,FALSE,20,21,TRUE,exp4.png,exp3.png,trial_right_image,-1,exp3.png,1,exp3.png,exp4.png,1,1,non-reversed,correct,0.545303456,1,valid_win,137.1329604,10,,,,,,,,,,,,,s_006,1,2020_Nov_15_1119,Reversal,3.2.4,60.15974818
2,exp1.png,exp2.png,1,0,1,0,0,2,2,2,,,,,,,,,,,,,,,,,,,,,,,,,FALSE,21,22,FALSE,exp1.png,exp2.png,trial_right_image,-1,exp2.png,1,exp1.png,exp2.png,0,4,reversed,incorrect,0.806044609,0,valid_lose,142.4636372,10,,,,,,,,,,,,,s_006,1,2020_Nov_15_1119,Reversal,3.2.4,60.15974818
3,exp3.png,exp4.png,1,0,1,0,0,3,3,3,,,,,,,,,,,,,,,,,,,,,,,,,FALSE,22,23,FALSE,exp3.png,exp4.png,trial_left_image,1,exp3.png,1,exp3.png,exp4.png,1,1,non-reversed,correct,0.207802361,0,invalid_lose,147.5800485,10,,,,,,,,,,,,,s_006,1,2020_Nov_15_1119,Reversal,3.2.4,60.15974818
4,exp1.png,exp2.png,1,0,1,0,0,4,4,4,,,,,,,,,,,,,,,,,,,,,,,,,FALSE,23,24,FALSE,exp1.png,exp2.png,trial_right_image,-1,exp2.png,1,exp1.png,exp2.png,0,4,reversed,incorrect,0.164143121,1,invalid_win,153.0608291,11,,,,,,,,,,,,,s_006,1,2020_Nov_15_1119,Reversal,3.2.4,60.15974818
5,exp3.png,exp4.png,1,0,1,0,0,5,5,5,,,,,,,,,,,,,,,,,,,,,,,,,FALSE,24,25,TRUE,exp4.png,exp3.png,trial_right_image,-1,exp3.png,1,exp3.png,exp4.png,1,1,non-reversed,correct,0.55194697,1,valid_win,158.925664,12,,,,,,,,,,,,,s_006,1,2020_Nov_15_1119,Reversal,3.2.4,60.15974818
6,exp1.png,exp2.png,1,0,1,0,0,6,6,6,,,,,,,,,,,,,,,,,,,,,,,,,FALSE,25,26,TRUE,exp2.png,exp1.png,trial_left_image,1,exp2.png,1,exp1.png,exp2.png,0,4,reversed,incorrect,0.955944046,0,valid_lose,166.123972,12,,,,,,,,,,,,,s_006,1,2020_Nov_15_1119,Reversal,3.2.4,60.15974818
7,exp3.png,exp4.png,1,0,1,0,0,7,7,7,,,,,,,,,,,,,,,,,,,,,,,,,FALSE,26,27,TRUE,exp4.png,exp3.png,trial_right_image,-1,exp3.png,1,exp3.png,exp4.png,1,1,non-reversed,correct,0.939842603,1,valid_win,170.7536641,13,,,,,,,,,,,,,s_006,1,2020_Nov_15_1119,Reversal,3.2.4,60.15974818
8,exp1.png,exp2.png,1,0,1,0,0,8,8,8,,,,,,,,,,,,,,,,,,,,,,,,,FALSE,27,28,TRUE,exp2.png,exp1.png,trial_right_image,-1,exp1.png,1,exp1.png,exp2.png,1,3,reversed,correct,0.475432752,1,valid_win,176.5688464,14,,,,,,,,,,,,,s_006,1,2020_Nov_15_1119,Reversal,3.2.4,60.15974818
9,exp3.png,exp4.png,1,0,1,0,0,9,9,9,,,,,,,,,,,,,,,,,,,,,,,,,FALSE,28,29,TRUE,exp4.png,exp3.png,trial_right_image,-1,exp3.png,1,exp3.png,exp4.png,1,1,non-reversed,correct,0.899446754,1,valid_win,181.9170807,15,,,,,,,,,,,,,s_006,1,2020_Nov_15_1119,Reversal,3.2.4,60.15974818
10,exp1.png,exp2.png,1,0,1,0,0,10,10,10,,,,,,,,,,,,,,,,,,,,,,,,,FALSE,29,30,FALSE,exp1.png,exp2.png,trial_right_image,-1,exp2.png,1,exp1.png,exp2.png,0,4,reversed,incorrect,0.414661602,0,valid_lose,186.816135,15,,,,,,,,,,,,,s_006,1,2020_Nov_15_1119,Reversal,3.2.4,60.15974818
11,exp3.png,exp4.png,1,0,1,0,0,11,11,11,,,,,,,,,,,,,,,,,,,,,,,,,FALSE,30,31,FALSE,exp3.png,exp4.png,trial_left_image,1,exp3.png,1,exp3.png,exp4.png,1,1,non-reversed,correct,0.828421911,1,valid_win,191.013622,16,,,,,,,,,,,,,s_006,1,2020_Nov_15_1119,Reversal,3.2.4,60.15974818
12,exp1.png,exp2.png,1,0,1,0,0,12,12,12,,,,,,,,,,,,,,,,,,,,,,,,,FALSE,31,32,TRUE,exp2.png,exp1.png,trial_right_image,-1,exp1.png,1,exp1.png,exp2.png,1,3,reversed,correct,0.696043878,1,valid_win,195.1292185,17,,,,,,,,,,,,,s_006,1,2020_Nov_15_1119,Reversal,3.2.4,60.15974818
13,exp3.png,exp4.png,1,0,1,0,0,13,13,13,,,,,,,,,,,,,,,,,,,,,,,,,FALSE,32,33,FALSE,exp3.png,exp4.png,trial_left_image,1,exp3.png,1,exp3.png,exp4.png,1,1,non-reversed,correct,0.099281056,0,invalid_lose,200.2110439,17,,,,,,,,,,,,,s_006,1,2020_Nov_15_1119,Reversal,3.2.4,60.15974818
14,exp1.png,exp2.png,1,0,1,0,0,14,14,14,,,,,,,,,,,,,,,,,,,,,,,,,FALSE,33,34,TRUE,exp2.png,exp1.png,trial_right_image,-1,exp1.png,1,exp1.png,exp2.png,1,3,reversed,correct,0.039580538,0,invalid_lose,204.7769482,17,,,,,,,,,,,,,s_006,1,2020_Nov_15_1119,Reversal,3.2.4,60.15974818
15,exp3.png,exp4.png,1,0,1,0,0,15,15,15,,,,,,,,,,,,,,,,,,,,,,,,,FALSE,34,35,TRUE,exp4.png,exp3.png,trial_right_image,-1,exp3.png,1,exp3.png,exp4.png,1,1,non-reversed,correct,0.852678469,1,valid_win,209.2257108,18,,,,,,,,,,,,,s_006,1,2020_Nov_15_1119,Reversal,3.2.4,60.15974818
16,exp1.png,exp2.png,1,0,1,0,0,16,16,16,,,,,,,,,,,,,,,,,,,,,,,,,FALSE,35,36,FALSE,exp1.png,exp2.png,trial_right_image,-1,exp2.png,1,exp1.png,exp2.png,0,4,reversed,incorrect,0.746280444,0,valid_lose,214.907204,18,,,,,,,,,,,,,s_006,1,2020_Nov_15_1119,Reversal,3.2.4,60.15974818
17,exp3.png,exp4.png,1,0,1,0,0,17,17,17,,,,,,,,,,,,,,,,,,,,,,,,,FALSE,36,37,FALSE,exp3.png,exp4.png,trial_left_image,1,exp3.png,1,exp3.png,exp4.png,1,1,non-reversed,correct,0.046254397,0,invalid_lose,219.1389998,18,,,,,,,,,,,,,s_006,1,2020_Nov_15_1119,Reversal,3.2.4,60.15974818
18,exp1.png,exp2.png,1,0,1,0,0,18,18,18,,,,,,,,,,,,,,,,,,,,,,,,,FALSE,37,38,FALSE,exp1.png,exp2.png,trial_right_image,-1,exp2.png,1,exp1.png,exp2.png,0,4,reversed,incorrect,0.238139746,1,invalid_win,223.1545614,19,,,,,,,,,,,,,s_006,1,2020_Nov_15_1119,Reversal,3.2.4,60.15974818
19,exp3.png,exp4.png,1,0,1,0,0,19,19,19,,,,,,,,,,,,,,,,,,,,,,,,,FALSE,38,39,FALSE,exp3.png,exp4.png,trial_left_image,1,exp3.png,1,exp3.png,exp4.png,1,1,non-reversed,correct,0.846583739,1,valid_win,228.0029168,20,,,,,,,,,,,,,s_006,1,2020_Nov_15_1119,Reversal,3.2.4,60.15974818
20,exp1.png,exp2.png,1,0,1,0,0,20,20,20,,,,,,,,,,,,,,,,,,,,,,,,,FALSE,39,40,TRUE,exp2.png,exp1.png,trial_left_image,1,exp2.png,1,exp1.png,exp2.png,0,4,reversed,incorrect,0.936168978,0,valid_lose,233.317269,20,,,,,,,,,,,,,s_006,1,2020_Nov_15_1119,Reversal,3.2.4,60.15974818
,,,1,0,1,0,,,,,0,0,0,0,,,,,,,,,,,,,,,,,,,,,,,,,,,,,,,,,,,,,,,,,,60,37,74,50,,,,,,,,,s_006,1,2020_Nov_15_1119,Reversal,3.2.4,60.15974818
0,exp1.png,exp2.png,2,0,2,0,0,0,0,0,,,,,,,,,,,,,,,,,,,,,,,,,TRUE,,,,,,,,,,,,,,,,,,,,,,,,,,,,,,,,,s_006,1,2020_Nov_15_1119,Reversal,3.2.4,60.15974818
1,exp3.png,exp4.png,2,0,2,0,0,1,1,1,,,,,,,,,,,,,,,,,,,,,,,,,FALSE,40,41,TRUE,exp4.png,exp3.png,trial_right_image,-1,exp3.png,1,exp3.png,exp4.png,1,1,non-reversed,correct,0.226563723,0,invalid_lose,253.3936976,20,,,,,,,,,,,,,s_006,1,2020_Nov_15_1119,Reversal,3.2.4,60.15974818
2,exp1.png,exp2.png,2,0,2,0,0,2,2,2,,,,,,,,,,,,,,,,,,,,,,,,,FALSE,41,42,TRUE,exp2.png,exp1.png,trial_right_image,-1,exp1.png,1,exp1.png,exp2.png,1,3,reversed,correct,0.956175144,1,valid_win,258.9907501,21,,,,,,,,,,,,,s_006,1,2020_Nov_15_1119,Reversal,3.2.4,60.15974818
3,exp3.png,exp4.png,2,0,2,0,0,3,3,3,,,,,,,,,,,,,,,,,,,,,,,,,FALSE,42,43,TRUE,exp4.png,exp3.png,trial_right_image,-1,exp3.png,1,exp3.png,exp4.png,1,1,non-reversed,correct,0.668380358,1,valid_win,264.5732015,22,,,,,,,,,,,,,s_006,1,2020_Nov_15_1119,Reversal,3.2.4,60.15974818
4,exp1.png,exp2.png,2,0,2,0,0,4,4,4,,,,,,,,,,,,,,,,,,,,,,,,,FALSE,43,44,FALSE,exp1.png,exp2.png,trial_left_image,1,exp1.png,1,exp1.png,exp2.png,1,3,reversed,correct,0.449175982,1,valid_win,271.2211696,23,,,,,,,,,,,,,s_006,1,2020_Nov_15_1119,Reversal,3.2.4,60.15974818
5,exp3.png,exp4.png,2,0,2,0,0,5,5,5,,,,,,,,,,,,,,,,,,,,,,,,,FALSE,44,45,TRUE,exp4.png,exp3.png,trial_right_image,-1,exp3.png,1,exp3.png,exp4.png,1,1,non-reversed,correct,0.901917581,1,valid_win,276.852492,24,,,,,,,,,,,,,s_006,1,2020_Nov_15_1119,Reversal,3.2.4,60.15974818
6,exp1.png,exp2.png,2,0,2,0,0,6,6,6,,,,,,,,,,,,,,,,,,,,,,,,,FALSE,45,46,TRUE,exp2.png,exp1.png,trial_right_image,-1,exp1.png,1,exp1.png,exp2.png,1,3,reversed,correct,0.814786627,1,valid_win,284.1824837,25,,,,,,,,,,,,,s_006,1,2020_Nov_15_1119,Reversal,3.2.4,60.15974818
7,exp3.png,exp4.png,2,0,2,0,0,7,7,7,,,,,,,,,,,,,,,,,,,,,,,,,FALSE,46,47,FALSE,exp3.png,exp4.png,trial_left_image,1,exp3.png,1,exp3.png,exp4.png,1,1,non-reversed,correct,0.059092107,0,invalid_lose,288.8320089,25,,,,,,,,,,,,,s_006,1,2020_Nov_15_1119,Reversal,3.2.4,60.15974818
8,exp1.png,exp2.png,2,0,2,0,0,8,8,8,,,,,,,,,,,,,,,,,,,,,,,,,FALSE,47,48,TRUE,exp2.png,exp1.png,trial_right_image,-1,exp1.png,1,exp1.png,exp2.png,1,3,reversed,correct,0.749809223,1,valid_win,295.2625784,26,,,,,,,,,,,,,s_006,1,2020_Nov_15_1119,Reversal,3.2.4,60.15974818
9,exp3.png,exp4.png,2,0,2,0,0,9,9,9,,,,,,,,,,,,,,,,,,,,,,,,,FALSE,48,49,FALSE,exp3.png,exp4.png,trial_left_image,1,exp3.png,1,exp3.png,exp4.png,1,1,non-reversed,correct,0.093977164,0,invalid_lose,299.4996698,26,,,,,,,,,,,,,s_006,1,2020_Nov_15_1119,Reversal,3.2.4,60.15974818
10,exp1.png,exp2.png,2,0,2,0,0,10,10,10,,,,,,,,,,,,,,,,,,,,,,,,,FALSE,49,50,FALSE,exp1.png,exp2.png,trial_left_image,1,exp1.png,1,exp1.png,exp2.png,1,3,reversed,correct,0.133886264,0,invalid_lose,303.9597258,26,,,,,,,,,,,,,s_006,1,2020_Nov_15_1119,Reversal,3.2.4,60.15974818
11,exp3.png,exp4.png,2,0,2,0,0,11,11,11,,,,,,,,,,,,,,,,,,,,,,,,,FALSE,50,51,FALSE,exp3.png,exp4.png,trial_left_image,1,exp3.png,1,exp3.png,exp4.png,1,1,non-reversed,correct,0.679715554,1,valid_win,308.5078017,27,,,,,,,,,,,,,s_006,1,2020_Nov_15_1119,Reversal,3.2.4,60.15974818
12,exp1.png,exp2.png,2,0,2,0,0,12,12,12,,,,,,,,,,,,,,,,,,,,,,,,,FALSE,51,52,FALSE,exp1.png,exp2.png,trial_left_image,1,exp1.png,1,exp1.png,exp2.png,1,3,reversed,correct,0.425600462,1,valid_win,313.4732913,28,,,,,,,,,,,,,s_006,1,2020_Nov_15_1119,Reversal,3.2.4,60.15974818
13,exp3.png,exp4.png,2,0,2,0,0,13,13,13,,,,,,,,,,,,,,,,,,,,,,,,,FALSE,52,53,FALSE,exp3.png,exp4.png,trial_left_image,1,exp3.png,1,exp3.png,exp4.png,1,1,non-reversed,correct,0.22617893,0,invalid_lose,317.9226746,28,,,,,,,,,,,,,s_006,1,2020_Nov_15_1119,Reversal,3.2.4,60.15974818
14,exp1.png,exp2.png,2,0,2,0,0,14,14,14,,,,,,,,,,,,,,,,,,,,,,,,,FALSE,53,54,FALSE,exp1.png,exp2.png,trial_left_image,1,exp1.png,1,exp1.png,exp2.png,1,3,reversed,correct,0.419295065,1,valid_win,322.5364519,29,,,,,,,,,,,,,s_006,1,2020_Nov_15_1119,Reversal,3.2.4,60.15974818
15,exp3.png,exp4.png,2,0,2,0,0,15,15,15,,,,,,,,,,,,,,,,,,,,,,,,,FALSE,54,55,TRUE,exp4.png,exp3.png,trial_right_image,-1,exp3.png,1,exp3.png,exp4.png,1,1,non-reversed,correct,0.067609984,0,invalid_lose,328.1186098,29,,,,,,,,,,,,,s_006,1,2020_Nov_15_1119,Reversal,3.2.4,60.15974818
16,exp1.png,exp2.png,2,0,2,0,0,16,16,16,,,,,,,,,,,,,,,,,,,,,,,,,FALSE,55,56,FALSE,exp1.png,exp2.png,trial_left_image,1,exp1.png,1,exp1.png,exp2.png,1,3,reversed,correct,0.409057257,1,valid_win,333.0825323,30,,,,,,,,,,,,,s_006,1,2020_Nov_15_1119,Reversal,3.2.4,60.15974818
17,exp3.png,exp4.png,2,0,2,0,0,17,17,17,,,,,,,,,,,,,,,,,,,,,,,,,FALSE,56,57,FALSE,exp3.png,exp4.png,trial_left_image,1,exp3.png,1,exp3.png,exp4.png,1,1,non-reversed,correct,0.822289772,1,valid_win,338.2489871,31,,,,,,,,,,,,,s_006,1,2020_Nov_15_1119,Reversal,3.2.4,60.15974818
18,exp1.png,exp2.png,2,0,2,0,0,18,18,18,,,,,,,,,,,,,,,,,,,,,,,,,FALSE,57,58,TRUE,exp2.png,exp1.png,trial_left_image,1,exp2.png,1,exp1.png,exp2.png,0,4,reversed,incorrect,0.373654498,0,valid_lose,343.6459322,31,,,,,,,,,,,,,s_006,1,2020_Nov_15_1119,Reversal,3.2.4,60.15974818
19,exp3.png,exp4.png,2,0,2,0,0,19,19,19,,,,,,,,,,,,,,,,,,,,,,,,,FALSE,58,59,TRUE,exp4.png,exp3.png,trial_left_image,1,exp4.png,1,exp3.png,exp4.png,0,2,non-reversed,incorrect,0.207383043,1,invalid_win,349.577186,32,,,,,,,,,,,,,s_006,1,2020_Nov_15_1119,Reversal,3.2.4,60.15974818
20,exp1.png,exp2.png,2,0,2,0,0,20,20,20,,,,,,,,,,,,,,,,,,,,,,,,,FALSE,59,60,TRUE,exp2.png,exp1.png,trial_right_image,-1,exp1.png,1,exp1.png,exp2.png,1,3,reversed,correct,0.611842399,1,valid_win,353.3587193,33,,,,,,,,,,,,,s_006,1,2020_Nov_15_1119,Reversal,3.2.4,60.15974818
,,,2,0,2,0,,,,,0,0,0,0,,,,,,,,,,,,,,,,,,,,,,,,,,,,,,,,,,,,,,,,,,62,36,64,32,,,,,,,,,s_006,1,2020_Nov_15_1119,Reversal,3.2.4,60.15974818
0,exp1.png,exp2.png,,,,,,,,,,,,,,,,,0,0,0,0,0,0,0,0,,,,,,,,,TRUE,,,,,,,,,,,,,,,,,,,,,,,,,,,,,,,,,s_006,1,2020_Nov_15_1119,Reversal,3.2.4,60.15974818
1,exp3.png,exp4.png,,,,,,,,,,,,,,,,,0,0,0,0,0,1,1,1,,,,,,,,,FALSE,0,61,FALSE,exp3.png,exp4.png,trial_right_image,-1,exp4.png,1,exp3.png,exp4.png,0,2,non-reversed,incorrect,0.489293998,0,valid_lose,369.2213027,33,,,,,366.4755244,,,,,,,,s_006,1,2020_Nov_15_1119,Reversal,3.2.4,60.15974818
2,exp1.png,exp2.png,,,,,,,,,,,,,,,,,0,0,0,0,0,2,2,2,,,,,,,,,FALSE,1,62,TRUE,exp2.png,exp1.png,trial_right_image,-1,exp1.png,1,exp2.png,exp1.png,1,3,reversed,incorrect,0.638153042,0,valid_lose,375.7189723,33,,,,,,,,,,,,,s_006,1,2020_Nov_15_1119,Reversal,3.2.4,60.15974818
3,exp3.png,exp4.png,,,,,,,,,,,,,,,,,0,0,0,0,0,3,3,3,,,,,,,,,FALSE,2,63,FALSE,exp3.png,exp4.png,trial_left_image,1,exp3.png,1,exp3.png,exp4.png,1,1,non-reversed,correct,0.368575246,1,valid_win,380.2183811,34,,,,,,,,,,,,,s_006,1,2020_Nov_15_1119,Reversal,3.2.4,60.15974818
4,exp1.png,exp2.png,,,,,,,,,,,,,,,,,0,0,0,0,0,4,4,4,,,,,,,,,FALSE,3,64,FALSE,exp1.png,exp2.png,trial_right_image,-1,exp2.png,1,exp2.png,exp1.png,0,4,reversed,correct,0.345776886,1,valid_win,384.049668,35,,,,,,,,,,,,,s_006,1,2020_Nov_15_1119,Reversal,3.2.4,60.15974818
5,exp3.png,exp4.png,,,,,,,,,,,,,,,,,0,0,0,0,0,5,5,5,,,,,,,,,FALSE,4,65,TRUE,exp4.png,exp3.png,trial_left_image,1,exp4.png,1,exp3.png,exp4.png,0,2,non-reversed,incorrect,0.046543337,1,invalid_win,388.1985586,36,,,,,,,,,,,,,s_006,1,2020_Nov_15_1119,Reversal,3.2.4,60.15974818
6,exp1.png,exp2.png,,,,,,,,,,,,,,,,,0,0,0,0,0,6,6,6,,,,,,,,,FALSE,5,66,FALSE,exp1.png,exp2.png,trial_right_image,-1,exp2.png,1,exp2.png,exp1.png,0,4,reversed,correct,0.619712798,1,valid_win,392.0808057,37,,,,,,,,,,,,,s_006,1,2020_Nov_15_1119,Reversal,3.2.4,60.15974818
7,exp3.png,exp4.png,,,,,,,,,,,,,,,,,0,0,0,0,0,7,7,7,,,,,,,,,FALSE,6,67,TRUE,exp4.png,exp3.png,trial_left_image,1,exp4.png,1,exp3.png,exp4.png,0,2,non-reversed,incorrect,0.50026731,0,valid_lose,396.0454352,37,,,,,,,,,,,,,s_006,1,2020_Nov_15_1119,Reversal,3.2.4,60.15974818
8,exp1.png,exp2.png,,,,,,,,,,,,,,,,,0,0,0,0,0,8,8,8,,,,,,,,,FALSE,7,68,FALSE,exp1.png,exp2.png,trial_right_image,-1,exp2.png,1,exp2.png,exp1.png,0,4,reversed,correct,0.258176968,1,valid_win,399.9622066,38,,,,,,,,,,,,,s_006,1,2020_Nov_15_1119,Reversal,3.2.4,60.15974818
9,exp3.png,exp4.png,,,,,,,,,,,,,,,,,0,0,0,0,0,9,9,9,,,,,,,,,FALSE,8,69,FALSE,exp3.png,exp4.png,trial_right_image,-1,exp4.png,1,exp3.png,exp4.png,0,2,non-reversed,incorrect,0.612835158,0,valid_lose,403.8756941,38,,,,,,,,,,,,,s_006,1,2020_Nov_15_1119,Reversal,3.2.4,60.15974818
10,exp1.png,exp2.png,,,,,,,,,,,,,,,,,0,0,0,0,0,10,10,10,,,,,,,,,FALSE,9,70,TRUE,exp2.png,exp1.png,trial_left_image,1,exp2.png,1,exp2.png,exp1.png,0,4,reversed,correct,0.00799592,0,invalid_lose,407.8581522,38,,,,,,,,,,,,,s_006,1,2020_Nov_15_1119,Reversal,3.2.4,60.15974818
11,exp3.png,exp4.png,,,,,,,,,,,,,,,,,0,0,0,0,0,11,11,11,,,,,,,,,FALSE,10,71,TRUE,exp4.png,exp3.png,trial_left_image,1,exp4.png,1,exp3.png,exp4.png,0,2,non-reversed,incorrect,0.437161245,0,valid_lose,411.8061304,38,,,,,,,,,,,,,s_006,1,2020_Nov_15_1119,Reversal,3.2.4,60.15974818
12,exp1.png,exp2.png,,,,,,,,,,,,,,,,,0,0,0,0,0,12,12,12,,,,,,,,,FALSE,11,72,TRUE,exp2.png,exp1.png,trial_right_image,-1,exp1.png,1,exp2.png,exp1.png,1,3,reversed,incorrect,0.573011931,0,valid_lose,415.7240488,38,,,,,,,,,,,,,s_006,1,2020_Nov_15_1119,Reversal,3.2.4,60.15974818
13,exp3.png,exp4.png,,,,,,,,,,,,,,,,,0,0,0,0,0,13,13,13,,,,,,,,,FALSE,12,73,TRUE,exp4.png,exp3.png,trial_right_image,-1,exp3.png,1,exp3.png,exp4.png,1,1,non-reversed,correct,0.864561473,1,valid_win,419.6710369,39,,,,,,,,,,,,,s_006,1,2020_Nov_15_1119,Reversal,3.2.4,60.15974818
14,exp1.png,exp2.png,,,,,,,,,,,,,,,,,0,0,0,0,0,14,14,14,,,,,,,,,FALSE,13,74,FALSE,exp1.png,exp2.png,trial_left_image,1,exp1.png,1,exp2.png,exp1.png,1,3,reversed,incorrect,0.96867087,0,valid_lose,423.6194952,39,,,,,,,,,,,,,s_006,1,2020_Nov_15_1119,Reversal,3.2.4,60.15974818
15,exp3.png,exp4.png,,,,,,,,,,,,,,,,,0,0,0,0,0,15,15,15,,,,,,,,,FALSE,14,75,FALSE,exp3.png,exp4.png,trial_right_image,-1,exp4.png,1,exp3.png,exp4.png,0,2,non-reversed,incorrect,0.664122049,0,valid_lose,427.8676744,39,,,,,,,,,,,,,s_006,1,2020_Nov_15_1119,Reversal,3.2.4,60.15974818
16,exp1.png,exp2.png,,,,,,,,,,,,,,,,,0,0,0,0,0,16,16,16,,,,,,,,,FALSE,15,76,TRUE,exp2.png,exp1.png,trial_right_image,-1,exp1.png,1,exp2.png,exp1.png,1,3,reversed,incorrect,0.944013744,0,valid_lose,431.7002695,39,,,,,,,,,,,,,s_006,1,2020_Nov_15_1119,Reversal,3.2.4,60.15974818
17,exp3.png,exp4.png,,,,,,,,,,,,,,,,,0,0,0,0,0,17,17,17,,,,,,,,,FALSE,16,77,TRUE,exp4.png,exp3.png,trial_right_image,-1,exp3.png,1,exp3.png,exp4.png,1,1,non-reversed,correct,0.042517904,0,invalid_lose,435.5488912,39,,,,,,,,,,,,,s_006,1,2020_Nov_15_1119,Reversal,3.2.4,60.15974818
18,exp1.png,exp2.png,,,,,,,,,,,,,,,,,0,0,0,0,0,18,18,18,,,,,,,,,FALSE,17,78,TRUE,exp2.png,exp1.png,trial_right_image,-1,exp1.png,1,exp2.png,exp1.png,1,3,reversed,incorrect,0.311466094,0,valid_lose,439.4312237,39,,,,,,,,,,,,,s_006,1,2020_Nov_15_1119,Reversal,3.2.4,60.15974818
19,exp3.png,exp4.png,,,,,,,,,,,,,,,,,0,0,0,0,0,19,19,19,,,,,,,,,FALSE,18,79,FALSE,exp3.png,exp4.png,trial_right_image,-1,exp4.png,1,exp3.png,exp4.png,0,2,non-reversed,incorrect,0.075130795,1,invalid_win,443.6806894,40,,,,,,,,,,,,,s_006,1,2020_Nov_15_1119,Reversal,3.2.4,60.15974818
20,exp1.png,exp2.png,,,,,,,,,,,,,,,,,0,0,0,0,0,20,20,20,,,,,,,,,FALSE,19,80,FALSE,exp1.png,exp2.png,trial_right_image,-1,exp2.png,1,exp2.png,exp1.png,0,4,reversed,correct,0.049179387,0,invalid_lose,447.5785269,40,,,,,,,,,,,,,s_006,1,2020_Nov_15_1119,Reversal,3.2.4,60.15974818
,,,,,,,,,,,,,,,,,,,0,0,0,0,,,,,0,0,0,0,,,,,,,,,,,,,,,,,,,,,,,,,,50,50,50,50,,,,,,,,,s_006,1,2020_Nov_15_1119,Reversal,3.2.4,60.15974818
0,exp1.png,exp2.png,,,,,,,,,,,,,,,,,1,0,1,0,0,0,0,0,,,,,,,,,TRUE,,,,,,,,,,,,,,,,,,,,,,,,,,,,,,,,,s_006,1,2020_Nov_15_1119,Reversal,3.2.4,60.15974818
1,exp3.png,exp4.png,,,,,,,,,,,,,,,,,1,0,1,0,0,1,1,1,,,,,,,,,FALSE,20,81,FALSE,exp3.png,exp4.png,trial_left_image,1,exp3.png,1,exp3.png,exp4.png,1,1,non-reversed,correct,0.502242628,1,valid_win,457.6423822,41,,,,,,,,,,,,,s_006,1,2020_Nov_15_1119,Reversal,3.2.4,60.15974818
2,exp1.png,exp2.png,,,,,,,,,,,,,,,,,1,0,1,0,0,2,2,2,,,,,,,,,FALSE,21,82,FALSE,exp1.png,exp2.png,trial_left_image,1,exp1.png,1,exp2.png,exp1.png,1,3,reversed,incorrect,0.034774513,1,invalid_win,461.8733701,42,,,,,,,,,,,,,s_006,1,2020_Nov_15_1119,Reversal,3.2.4,60.15974818
3,exp3.png,exp4.png,,,,,,,,,,,,,,,,,1,0,1,0,0,3,3,3,,,,,,,,,FALSE,22,83,FALSE,exp3.png,exp4.png,trial_right_image,-1,exp4.png,1,exp3.png,exp4.png,0,2,non-reversed,incorrect,0.299017192,0,valid_lose,465.888814,42,,,,,,,,,,,,,s_006,1,2020_Nov_15_1119,Reversal,3.2.4,60.15974818
4,exp1.png,exp2.png,,,,,,,,,,,,,,,,,1,0,1,0,0,4,4,4,,,,,,,,,FALSE,23,84,TRUE,exp2.png,exp1.png,trial_right_image,-1,exp1.png,1,exp2.png,exp1.png,1,3,reversed,incorrect,0.241075586,1,invalid_win,469.7868865,43,,,,,,,,,,,,,s_006,1,2020_Nov_15_1119,Reversal,3.2.4,60.15974818
5,exp3.png,exp4.png,,,,,,,,,,,,,,,,,1,0,1,0,0,5,5,5,,,,,,,,,FALSE,24,85,TRUE,exp4.png,exp3.png,trial_right_image,-1,exp3.png,1,exp3.png,exp4.png,1,1,non-reversed,correct,0.393661347,1,valid_win,473.6863844,44,,,,,,,,,,,,,s_006,1,2020_Nov_15_1119,Reversal,3.2.4,60.15974818
6,exp1.png,exp2.png,,,,,,,,,,,,,,,,,1,0,1,0,0,6,6,6,,,,,,,,,FALSE,25,86,TRUE,exp2.png,exp1.png,trial_left_image,1,exp2.png,1,exp2.png,exp1.png,0,4,reversed,correct,0.863957834,1,valid_win,477.6353727,45,,,,,,,,,,,,,s_006,1,2020_Nov_15_1119,Reversal,3.2.4,60.15974818
7,exp3.png,exp4.png,,,,,,,,,,,,,,,,,1,0,1,0,0,7,7,7,,,,,,,,,FALSE,26,87,TRUE,exp4.png,exp3.png,trial_left_image,1,exp4.png,1,exp3.png,exp4.png,0,2,non-reversed,incorrect,0.259996893,0,valid_lose,481.5504791,45,,,,,,,,,,,,,s_006,1,2020_Nov_15_1119,Reversal,3.2.4,60.15974818
8,exp1.png,exp2.png,,,,,,,,,,,,,,,,,1,0,1,0,0,8,8,8,,,,,,,,,FALSE,27,88,TRUE,exp2.png,exp1.png,trial_left_image,1,exp2.png,1,exp2.png,exp1.png,0,4,reversed,correct,0.324056675,1,valid_win,485.4159841,46,,,,,,,,,,,,,s_006,1,2020_Nov_15_1119,Reversal,3.2.4,60.15974818
9,exp3.png,exp4.png,,,,,,,,,,,,,,,,,1,0,1,0,0,9,9,9,,,,,,,,,FALSE,28,89,FALSE,exp3.png,exp4.png,trial_right_image,-1,exp4.png,1,exp3.png,exp4.png,0,2,non-reversed,incorrect,0.429701938,0,valid_lose,489.2810224,46,,,,,,,,,,,,,s_006,1,2020_Nov_15_1119,Reversal,3.2.4,60.15974818
10,exp1.png,exp2.png,,,,,,,,,,,,,,,,,1,0,1,0,0,10,10,10,,,,,,,,,FALSE,29,90,TRUE,exp2.png,exp1.png,trial_right_image,-1,exp1.png,1,exp2.png,exp1.png,1,3,reversed,incorrect,0.46082792,0,valid_lose,493.1470371,46,,,,,,,,,,,,,s_006,1,2020_Nov_15_1119,Reversal,3.2.4,60.15974818
11,exp3.png,exp4.png,,,,,,,,,,,,,,,,,1,0,1,0,0,11,11,11,,,,,,,,,FALSE,30,91,FALSE,exp3.png,exp4.png,trial_right_image,-1,exp4.png,1,exp3.png,exp4.png,0,2,non-reversed,incorrect,0.692490869,0,valid_lose,497.0624874,46,,,,,,,,,,,,,s_006,1,2020_Nov_15_1119,Reversal,3.2.4,60.15974818
12,exp1.png,exp2.png,,,,,,,,,,,,,,,,,1,0,1,0,0,12,12,12,,,,,,,,,FALSE,31,92,FALSE,exp1.png,exp2.png,trial_left_image,1,exp1.png,1,exp2.png,exp1.png,1,3,reversed,incorrect,0.069564991,1,invalid_win,501.009978,47,,,,,,,,,,,,,s_006,1,2020_Nov_15_1119,Reversal,3.2.4,60.15974818
13,exp3.png,exp4.png,,,,,,,,,,,,,,,,,1,0,1,0,0,13,13,13,,,,,,,,,FALSE,32,93,TRUE,exp4.png,exp3.png,trial_right_image,-1,exp3.png,1,exp3.png,exp4.png,1,1,non-reversed,correct,0.340542475,1,valid_win,504.9751002,48,,,,,,,,,,,,,s_006,1,2020_Nov_15_1119,Reversal,3.2.4,60.15974818
14,exp1.png,exp2.png,,,,,,,,,,,,,,,,,1,0,1,0,0,14,14,14,,,,,,,,,FALSE,33,94,FALSE,exp1.png,exp2.png,trial_left_image,1,exp1.png,1,exp2.png,exp1.png,1,3,reversed,incorrect,0.795539468,0,valid_lose,508.9741419,48,,,,,,,,,,,,,s_006,1,2020_Nov_15_1119,Reversal,3.2.4,60.15974818
15,exp3.png,exp4.png,,,,,,,,,,,,,,,,,1,0,1,0,0,15,15,15,,,,,,,,,FALSE,34,95,TRUE,exp4.png,exp3.png,trial_right_image,-1,exp3.png,1,exp3.png,exp4.png,1,1,non-reversed,correct,0.488582424,1,valid_win,512.972495,49,,,,,,,,,,,,,s_006,1,2020_Nov_15_1119,Reversal,3.2.4,60.15974818
16,exp1.png,exp2.png,,,,,,,,,,,,,,,,,1,0,1,0,0,16,16,16,,,,,,,,,FALSE,35,96,TRUE,exp2.png,exp1.png,trial_right_image,-1,exp1.png,1,exp2.png,exp1.png,1,3,reversed,incorrect,0.923005481,0,valid_lose,516.9549242,49,,,,,,,,,,,,,s_006,1,2020_Nov_15_1119,Reversal,3.2.4,60.15974818
17,exp3.png,exp4.png,,,,,,,,,,,,,,,,,1,0,1,0,0,17,17,17,,,,,,,,,FALSE,36,97,FALSE,exp3.png,exp4.png,trial_left_image,1,exp3.png,1,exp3.png,exp4.png,1,1,non-reversed,correct,0.223956213,0,invalid_lose,521.1700272,49,,,,,,,,,,,,,s_006,1,2020_Nov_15_1119,Reversal,3.2.4,60.15974818
18,exp1.png,exp2.png,,,,,,,,,,,,,,,,,1,0,1,0,0,18,18,18,,,,,,,,,FALSE,37,98,TRUE,exp2.png,exp1.png,trial_right_image,-1,exp1.png,1,exp2.png,exp1.png,1,3,reversed,incorrect,0.666140683,0,valid_lose,525.118755,49,,,,,,,,,,,,,s_006,1,2020_Nov_15_1119,Reversal,3.2.4,60.15974818
19,exp3.png,exp4.png,,,,,,,,,,,,,,,,,1,0,1,0,0,19,19,19,,,,,,,,,FALSE,38,99,FALSE,exp3.png,exp4.png,trial_left_image,1,exp3.png,1,exp3.png,exp4.png,1,1,non-reversed,correct,0.978900674,1,valid_win,529.0503305,50,,,,,,,,,,,,,s_006,1,2020_Nov_15_1119,Reversal,3.2.4,60.15974818
20,exp1.png,exp2.png,,,,,,,,,,,,,,,,,1,0,1,0,0,20,20,20,,,,,,,,,FALSE,39,100,FALSE,exp1.png,exp2.png,trial_right_image,-1,exp2.png,1,exp2.png,exp1.png,0,4,reversed,correct,0.678201539,1,valid_win,533.0987351,51,,,,,,,,,,,,,s_006,1,2020_Nov_15_1119,Reversal,3.2.4,60.15974818
,,,,,,,,,,,,,,,,,,,1,0,1,0,,,,,0,0,0,0,,,,,,,,,,,,,,,,,,,,,,,,,,50,50,50,50,,,,,,,,,s_006,1,2020_Nov_15_1119,Reversal,3.2.4,60.15974818
0,exp1.png,exp2.png,,,,,,,,,,,,,,,,,2,0,2,0,0,0,0,0,,,,,,,,,TRUE,,,,,,,,,,,,,,,,,,,,,,,,,,,,,,,,,s_006,1,2020_Nov_15_1119,Reversal,3.2.4,60.15974818
1,exp3.png,exp4.png,,,,,,,,,,,,,,,,,2,0,2,0,0,1,1,1,,,,,,,,,FALSE,40,101,TRUE,exp4.png,exp3.png,trial_right_image,-1,exp3.png,1,exp3.png,exp4.png,1,1,non-reversed,correct,0.838791432,1,valid_win,542.2468222,52,,,,,,,,,,,,,s_006,1,2020_Nov_15_1119,Reversal,3.2.4,60.15974818
2,exp1.png,exp2.png,,,,,,,,,,,,,,,,,2,0,2,0,0,2,2,2,,,,,,,,,FALSE,41,102,TRUE,exp2.png,exp1.png,trial_right_image,-1,exp1.png,1,exp2.png,exp1.png,1,3,reversed,incorrect,0.096989918,1,invalid_win,547.3949416,53,,,,,,,,,,,,,s_006,1,2020_Nov_15_1119,Reversal,3.2.4,60.15974818
3,exp3.png,exp4.png,,,,,,,,,,,,,,,,,2,0,2,0,0,3,3,3,,,,,,,,,FALSE,42,103,FALSE,exp3.png,exp4.png,trial_left_image,1,exp3.png,1,exp3.png,exp4.png,1,1,non-reversed,correct,0.271723487,1,valid_win,555.509398,54,,,,,,,,,,,,,s_006,1,2020_Nov_15_1119,Reversal,3.2.4,60.15974818
4,exp1.png,exp2.png,,,,,,,,,,,,,,,,,2,0,2,0,0,4,4,4,,,,,,,,,FALSE,43,104,TRUE,exp2.png,exp1.png,trial_right_image,-1,exp1.png,1,exp2.png,exp1.png,1,3,reversed,incorrect,0.480831579,0,valid_lose,560.8393748,54,,,,,,,,,,,,,s_006,1,2020_Nov_15_1119,Reversal,3.2.4,60.15974818
5,exp3.png,exp4.png,,,,,,,,,,,,,,,,,2,0,2,0,0,5,5,5,,,,,,,,,FALSE,44,105,FALSE,exp3.png,exp4.png,trial_left_image,1,exp3.png,1,exp3.png,exp4.png,1,1,non-reversed,correct,0.354017146,1,valid_win,565.1213596,55,,,,,,,,,,,,,s_006,1,2020_Nov_15_1119,Reversal,3.2.4,60.15974818
6,exp1.png,exp2.png,,,,,,,,,,,,,,,,,2,0,2,0,0,6,6,6,,,,,,,,,FALSE,45,106,FALSE,exp1.png,exp2.png,trial_left_image,1,exp1.png,1,exp2.png,exp1.png,1,3,reversed,incorrect,0.374838234,0,valid_lose,570.42142,55,,,,,,,,,,,,,s_006,1,2020_Nov_15_1119,Reversal,3.2.4,60.15974818
7,exp3.png,exp4.png,,,,,,,,,,,,,,,,,2,0,2,0,0,7,7,7,,,,,,,,,FALSE,46,107,TRUE,exp4.png,exp3.png,trial_right_image,-1,exp3.png,1,exp3.png,exp4.png,1,1,non-reversed,correct,0.505825433,1,valid_win,575.2030437,56,,,,,,,,,,,,,s_006,1,2020_Nov_15_1119,Reversal,3.2.4,60.15974818
8,exp1.png,exp2.png,,,,,,,,,,,,,,,,,2,0,2,0,0,8,8,8,,,,,,,,,FALSE,47,108,FALSE,exp1.png,exp2.png,trial_right_image,-1,exp2.png,1,exp2.png,exp1.png,0,4,reversed,correct,0.244479778,0,invalid_lose,580.0006426,56,,,,,,,,,,,,,s_006,1,2020_Nov_15_1119,Reversal,3.2.4,60.15974818
9,exp3.png,exp4.png,,,,,,,,,,,,,,,,,2,0,2,0,0,9,9,9,,,,,,,,,FALSE,48,109,TRUE,exp4.png,exp3.png,trial_right_image,-1,exp3.png,1,exp3.png,exp4.png,1,1,non-reversed,correct,0.252538111,1,valid_win,584.6814036,57,,,,,,,,,,,,,s_006,1,2020_Nov_15_1119,Reversal,3.2.4,60.15974818
10,exp1.png,exp2.png,,,,,,,,,,,,,,,,,2,0,2,0,0,10,10,10,,,,,,,,,FALSE,49,110,FALSE,exp1.png,exp2.png,trial_left_image,1,exp1.png,1,exp2.png,exp1.png,1,3,reversed,incorrect,0.982042294,0,valid_lose,589.1635633,57,,,,,,,,,,,,,s_006,1,2020_Nov_15_1119,Reversal,3.2.4,60.15974818
11,exp3.png,exp4.png,,,,,,,,,,,,,,,,,2,0,2,0,0,11,11,11,,,,,,,,,FALSE,50,111,TRUE,exp4.png,exp3.png,trial_left_image,1,exp4.png,1,exp3.png,exp4.png,0,2,non-reversed,incorrect,0.850016571,0,valid_lose,592.8630417,57,,,,,,,,,,,,,s_006,1,2020_Nov_15_1119,Reversal,3.2.4,60.15974818
12,exp1.png,exp2.png,,,,,,,,,,,,,,,,,2,0,2,0,0,12,12,12,,,,,,,,,FALSE,51,112,FALSE,exp1.png,exp2.png,trial_right_image,-1,exp2.png,1,exp2.png,exp1.png,0,4,reversed,correct,0.564767509,1,valid_win,595.7935856,58,,,,,,,,,,,,,s_006,1,2020_Nov_15_1119,Reversal,3.2.4,60.15974818
13,exp3.png,exp4.png,,,,,,,,,,,,,,,,,2,0,2,0,0,13,13,13,,,,,,,,,FALSE,52,113,TRUE,exp4.png,exp3.png,trial_right_image,-1,exp3.png,1,exp3.png,exp4.png,1,1,non-reversed,correct,0.264390588,1,valid_win,598.7952582,59,,,,,,,,,,,,,s_006,1,2020_Nov_15_1119,Reversal,3.2.4,60.15974818
14,exp1.png,exp2.png,,,,,,,,,,,,,,,,,2,0,2,0,0,14,14,14,,,,,,,,,FALSE,53,114,FALSE,exp1.png,exp2.png,trial_left_image,1,exp1.png,1,exp2.png,exp1.png,1,3,reversed,incorrect,0.936537609,0,valid_lose,602.0437434,59,,,,,,,,,,,,,s_006,1,2020_Nov_15_1119,Reversal,3.2.4,60.15974818
15,exp3.png,exp4.png,,,,,,,,,,,,,,,,,2,0,2,0,0,15,15,15,,,,,,,,,FALSE,54,115,TRUE,exp4.png,exp3.png,trial_left_image,1,exp4.png,1,exp3.png,exp4.png,0,2,non-reversed,incorrect,0.88808468,0,valid_lose,605.3588426,59,,,,,,,,,,,,,s_006,1,2020_Nov_15_1119,Reversal,3.2.4,60.15974818
16,exp1.png,exp2.png,,,,,,,,,,,,,,,,,2,0,2,0,0,16,16,16,,,,,,,,,FALSE,55,116,TRUE,exp2.png,exp1.png,trial_right_image,-1,exp1.png,1,exp2.png,exp1.png,1,3,reversed,incorrect,0.724394833,0,valid_lose,608.6736245,59,,,,,,,,,,,,,s_006,1,2020_Nov_15_1119,Reversal,3.2.4,60.15974818
17,exp3.png,exp4.png,,,,,,,,,,,,,,,,,2,0,2,0,0,17,17,17,,,,,,,,,FALSE,56,117,TRUE,exp4.png,exp3.png,trial_right_image,-1,exp3.png,1,exp3.png,exp4.png,1,1,non-reversed,correct,0.142644267,0,invalid_lose,611.7277251,59,,,,,,,,,,,,,s_006,1,2020_Nov_15_1119,Reversal,3.2.4,60.15974818
18,exp1.png,exp2.png,,,,,,,,,,,,,,,,,2,0,2,0,0,18,18,18,,,,,,,,,FALSE,57,118,FALSE,exp1.png,exp2.png,trial_right_image,-1,exp2.png,1,exp2.png,exp1.png,0,4,reversed,correct,0.197143251,0,invalid_lose,614.9894298,59,,,,,,,,,,,,,s_006,1,2020_Nov_15_1119,Reversal,3.2.4,60.15974818
19,exp3.png,exp4.png,,,,,,,,,,,,,,,,,2,0,2,0,0,19,19,19,,,,,,,,,FALSE,58,119,FALSE,exp3.png,exp4.png,trial_right_image,-1,exp4.png,1,exp3.png,exp4.png,0,2,non-reversed,incorrect,0.748890263,0,valid_lose,618.1704111,59,,,,,,,,,,,,,s_006,1,2020_Nov_15_1119,Reversal,3.2.4,60.15974818
20,exp1.png,exp2.png,,,,,,,,,,,,,,,,,2,0,2,0,0,20,20,20,,,,,,,,,FALSE,59,120,FALSE,exp1.png,exp2.png,trial_left_image,1,exp1.png,1,exp2.png,exp1.png,1,3,reversed,incorrect,0.789217988,0,valid_lose,622.5190608,59,,,,,,,,,,,,,s_006,1,2020_Nov_15_1119,Reversal,3.2.4,60.15974818
,,,,,,,,,,,,,,,,,,,2,0,2,0,,,,,0,0,0,0,,,,,,,,,,,,,,,,,,,,,,,,,,50,50,50,50,,,,,,,,,s_006,1,2020_Nov_15_1119,Reversal,3.2.4,60.15974818
,,,,,,,,,,,,,,,,,,,,,,,,,,,,,,,,,,,,,,,,,,,,,,,,,,,,,,,59,,,,,,67,40,27,262.6898954,0,space,25.1232281,s_006,1,2020_Nov_15_1119,Reversal,3.2.4,60.15974818
