trial_index,trial_image1_file,trial_image2_file,learning_outer_loop.thisRepN,learning_outer_loop.thisTrialN,learning_outer_loop.thisN,learning_outer_loop.thisIndex,learning_inner_loop.thisRepN,learning_inner_loop.thisTrialN,learning_inner_loop.thisN,learning_inner_loop.thisIndex,learning_estimation_outer_loop.thisRepN,learning_estimation_outer_loop.thisTrialN,learning_estimation_outer_loop.thisN,learning_estimation_outer_loop.thisIndex,learning_estimation_inner_loop.thisRepN,learning_estimation_inner_loop.thisTrialN,learning_estimation_inner_loop.thisN,learning_estimation_inner_loop.thisIndex,reversal_outer_loop.thisRepN,reversal_outer_loop.thisTrialN,reversal_outer_loop.thisN,reversal_outer_loop.thisIndex,reversal_inner_loop.thisRepN,reversal_inner_loop.thisTrialN,reversal_inner_loop.thisN,reversal_inner_loop.thisIndex,reversal_estimation_outer_loop.thisRepN,reversal_estimation_outer_loop.thisTrialN,reversal_estimation_outer_loop.thisN,reversal_estimation_outer_loop.thisIndex,reversal_estimation_inner_loop.thisRepN,reversal_estimation_inner_loop.thisTrialN,reversal_estimation_inner_loop.thisN,reversal_estimation_inner_loop.thisIndex,skipped,total_trial_counter,trial_num,left_right_flip,left_image_file,right_image_file,clicked_stimulus_side,side,clicked_stimulus,version,high_prob_image_file,low_prob_image_file,choice_a,choice_b,pair_type,correct,trial_feedback_random,reward,trial_type,overall_time_after_trial,score,estimation_exp1.png,estimation_exp2.png,estimation_exp3.png,estimation_exp4.png,total_learning_time,total_correct,learning_correct,reversal_correct,total_reversal_time,extra_block,participant,ver,date,expName,psychopyVersion,frameRate,
0,exp1.png,exp2.png,0,0,0,0,0,0,0,0,,,,,,,,,,,,,,,,,,,,,,,,,True,,,,,,,,,,,,,,,,,,,,,,,,,,,,,,,s_011,4,2020_Nov_25_1906,Reversal,3.2.4,60.03373896310945,
1,exp3.png,exp4.png,0,0,0,0,0,1,1,1,,,,,,,,,,,,,,,,,,,,,,,,,False,0,1,True,exp4.png,exp3.png,trial_right_image,-1,exp3.png,4,exp4.png,exp3.png,0,4,reversed,incorrect,0.8567259529727976,0,valid_lose,4.894104199993308,0,,,,,,,,,,,s_011,4,2020_Nov_25_1906,Reversal,3.2.4,60.03373896310945,
2,exp1.png,exp2.png,0,0,0,0,0,2,2,2,,,,,,,,,,,,,,,,,,,,,,,,,False,1,2,True,exp2.png,exp1.png,trial_right_image,-1,exp1.png,4,exp2.png,exp1.png,0,2,non-reversed,incorrect,0.17226356441034674,1,invalid_win,14.722670899995137,1,,,,,,,,,,,s_011,4,2020_Nov_25_1906,Reversal,3.2.4,60.03373896310945,
3,exp3.png,exp4.png,0,0,0,0,0,3,3,3,,,,,,,,,,,,,,,,,,,,,,,,,False,2,3,False,exp3.png,exp4.png,trial_left_image,1,exp3.png,4,exp4.png,exp3.png,0,4,reversed,incorrect,0.13486745812709466,1,invalid_win,23.154784199999995,2,,,,,,,,,,,s_011,4,2020_Nov_25_1906,Reversal,3.2.4,60.03373896310945,
4,exp1.png,exp2.png,0,0,0,0,0,4,4,4,,,,,,,,,,,,,,,,,,,,,,,,,False,3,4,False,exp1.png,exp2.png,trial_left_image,1,exp1.png,4,exp2.png,exp1.png,0,2,non-reversed,incorrect,0.1143541306949839,1,invalid_win,31.568679799995152,3,,,,,,,,,,,s_011,4,2020_Nov_25_1906,Reversal,3.2.4,60.03373896310945,
5,exp3.png,exp4.png,0,0,0,0,0,5,5,5,,,,,,,,,,,,,,,,,,,,,,,,,False,4,5,False,exp3.png,exp4.png,trial_left_image,1,exp3.png,4,exp4.png,exp3.png,0,4,reversed,incorrect,0.8038881305352126,0,valid_lose,37.716542199996184,3,,,,,,,,,,,s_011,4,2020_Nov_25_1906,Reversal,3.2.4,60.03373896310945,
6,exp1.png,exp2.png,0,0,0,0,0,6,6,6,,,,,,,,,,,,,,,,,,,,,,,,,False,5,6,False,exp1.png,exp2.png,trial_left_image,1,exp1.png,4,exp2.png,exp1.png,0,2,non-reversed,incorrect,0.2515030340838814,0,valid_lose,48.32823970000027,3,,,,,,,,,,,s_011,4,2020_Nov_25_1906,Reversal,3.2.4,60.03373896310945,
7,exp3.png,exp4.png,0,0,0,0,0,7,7,7,,,,,,,,,,,,,,,,,,,,,,,,,False,6,7,True,exp4.png,exp3.png,trial_left_image,1,exp4.png,4,exp4.png,exp3.png,1,3,reversed,correct,0.48545499363913525,1,valid_win,55.91059580000001,4,,,,,,,,,,,s_011,4,2020_Nov_25_1906,Reversal,3.2.4,60.03373896310945,
8,exp1.png,exp2.png,0,0,0,0,0,8,8,8,,,,,,,,,,,,,,,,,,,,,,,,,False,7,8,False,exp1.png,exp2.png,trial_right_image,-1,exp2.png,4,exp2.png,exp1.png,1,1,non-reversed,correct,0.05816313402635409,0,invalid_lose,63.50808529999631,4,,,,,,,,,,,s_011,4,2020_Nov_25_1906,Reversal,3.2.4,60.03373896310945,
9,exp3.png,exp4.png,0,0,0,0,0,9,9,9,,,,,,,,,,,,,,,,,,,,,,,,,False,8,9,True,exp4.png,exp3.png,trial_left_image,1,exp4.png,4,exp4.png,exp3.png,1,3,reversed,correct,0.4131106207990425,1,valid_win,69.53902650000236,5,,,,,,,,,,,s_011,4,2020_Nov_25_1906,Reversal,3.2.4,60.03373896310945,
10,exp1.png,exp2.png,0,0,0,0,0,10,10,10,,,,,,,,,,,,,,,,,,,,,,,,,False,9,10,True,exp2.png,exp1.png,trial_right_image,-1,exp1.png,4,exp2.png,exp1.png,0,2,non-reversed,incorrect,0.029987761451001127,1,invalid_win,76.02056669999729,6,,,,,,,,,,,s_011,4,2020_Nov_25_1906,Reversal,3.2.4,60.03373896310945,
11,exp3.png,exp4.png,0,0,0,0,0,11,11,11,,,,,,,,,,,,,,,,,,,,,,,,,False,10,11,True,exp4.png,exp3.png,trial_left_image,1,exp4.png,4,exp4.png,exp3.png,1,3,reversed,correct,0.7974967660988455,1,valid_win,81.76856060000136,7,,,,,,,,,,,s_011,4,2020_Nov_25_1906,Reversal,3.2.4,60.03373896310945,
12,exp1.png,exp2.png,0,0,0,0,0,12,12,12,,,,,,,,,,,,,,,,,,,,,,,,,False,11,12,False,exp1.png,exp2.png,trial_left_image,1,exp1.png,4,exp2.png,exp1.png,0,2,non-reversed,incorrect,0.6156780008463194,0,valid_lose,87.39981139999873,7,,,,,,,,,,,s_011,4,2020_Nov_25_1906,Reversal,3.2.4,60.03373896310945,
13,exp3.png,exp4.png,0,0,0,0,0,13,13,13,,,,,,,,,,,,,,,,,,,,,,,,,False,12,13,True,exp4.png,exp3.png,trial_left_image,1,exp4.png,4,exp4.png,exp3.png,1,3,reversed,correct,0.1452107458474956,0,invalid_lose,94.96373560000211,7,,,,,,,,,,,s_011,4,2020_Nov_25_1906,Reversal,3.2.4,60.03373896310945,
14,exp1.png,exp2.png,0,0,0,0,0,14,14,14,,,,,,,,,,,,,,,,,,,,,,,,,False,13,14,False,exp1.png,exp2.png,trial_left_image,1,exp1.png,4,exp2.png,exp1.png,0,2,non-reversed,incorrect,0.7090062957657818,0,valid_lose,102.56106259999797,7,,,,,,,,,,,s_011,4,2020_Nov_25_1906,Reversal,3.2.4,60.03373896310945,
15,exp3.png,exp4.png,0,0,0,0,0,15,15,15,,,,,,,,,,,,,,,,,,,,,,,,,False,14,15,False,exp3.png,exp4.png,trial_right_image,-1,exp4.png,4,exp4.png,exp3.png,1,3,reversed,correct,0.47530535356444525,1,valid_win,110.15850019999198,8,,,,,,,,,,,s_011,4,2020_Nov_25_1906,Reversal,3.2.4,60.03373896310945,
16,exp1.png,exp2.png,0,0,0,0,0,16,16,16,,,,,,,,,,,,,,,,,,,,,,,,,False,15,16,True,exp2.png,exp1.png,trial_right_image,-1,exp1.png,4,exp2.png,exp1.png,0,2,non-reversed,incorrect,0.03313109578446327,1,invalid_win,115.75597669999115,9,,,,,,,,,,,s_011,4,2020_Nov_25_1906,Reversal,3.2.4,60.03373896310945,
17,exp3.png,exp4.png,0,0,0,0,0,17,17,17,,,,,,,,,,,,,,,,,,,,,,,,,False,16,17,True,exp4.png,exp3.png,trial_left_image,1,exp4.png,4,exp4.png,exp3.png,1,3,reversed,correct,0.6172967473381529,1,valid_win,120.9717457999941,10,,,,,,,,,,,s_011,4,2020_Nov_25_1906,Reversal,3.2.4,60.03373896310945,
18,exp1.png,exp2.png,0,0,0,0,0,18,18,18,,,,,,,,,,,,,,,,,,,,,,,,,False,17,18,True,exp2.png,exp1.png,trial_right_image,-1,exp1.png,4,exp2.png,exp1.png,0,2,non-reversed,incorrect,0.9618311987712242,0,valid_lose,126.25299339999037,10,,,,,,,,,,,s_011,4,2020_Nov_25_1906,Reversal,3.2.4,60.03373896310945,
19,exp3.png,exp4.png,0,0,0,0,0,19,19,19,,,,,,,,,,,,,,,,,,,,,,,,,False,18,19,False,exp3.png,exp4.png,trial_left_image,1,exp3.png,4,exp4.png,exp3.png,0,4,reversed,incorrect,0.68948252793382,0,valid_lose,138.2324452999892,10,,,,,,,,,,,s_011,4,2020_Nov_25_1906,Reversal,3.2.4,60.03373896310945,
20,exp1.png,exp2.png,0,0,0,0,0,20,20,20,,,,,,,,,,,,,,,,,,,,,,,,,False,19,20,False,exp1.png,exp2.png,trial_right_image,-1,exp2.png,4,exp2.png,exp1.png,1,1,non-reversed,correct,0.9269162799088281,1,valid_win,146.74676650000038,11,,,,,,,,,,,s_011,4,2020_Nov_25_1906,Reversal,3.2.4,60.03373896310945,
,,,0,0,0,0,,,,,0,0,0,0,,,,,,,,,,,,,,,,,,,,,,,,,,,,,,,,,,,,,,,,,,84,17,27,79,,,,,,,s_011,4,2020_Nov_25_1906,Reversal,3.2.4,60.03373896310945,
0,exp1.png,exp2.png,1,0,1,0,0,0,0,0,,,,,,,,,,,,,,,,,,,,,,,,,True,,,,,,,,,,,,,,,,,,,,,,,,,,,,,,,s_011,4,2020_Nov_25_1906,Reversal,3.2.4,60.03373896310945,
1,exp3.png,exp4.png,1,0,1,0,0,1,1,1,,,,,,,,,,,,,,,,,,,,,,,,,False,20,21,True,exp4.png,exp3.png,trial_left_image,1,exp4.png,4,exp4.png,exp3.png,1,3,reversed,correct,0.6177093982108236,1,valid_win,185.15003199999046,12,,,,,,,,,,,s_011,4,2020_Nov_25_1906,Reversal,3.2.4,60.03373896310945,
2,exp1.png,exp2.png,1,0,1,0,0,2,2,2,,,,,,,,,,,,,,,,,,,,,,,,,False,21,22,True,exp2.png,exp1.png,trial_right_image,-1,exp1.png,4,exp2.png,exp1.png,0,2,non-reversed,incorrect,0.9149644522285167,0,valid_lose,190.0486089999904,12,,,,,,,,,,,s_011,4,2020_Nov_25_1906,Reversal,3.2.4,60.03373896310945,
3,exp3.png,exp4.png,1,0,1,0,0,3,3,3,,,,,,,,,,,,,,,,,,,,,,,,,False,22,23,True,exp4.png,exp3.png,trial_left_image,1,exp4.png,4,exp4.png,exp3.png,1,3,reversed,correct,0.7638216800028187,1,valid_win,196.99593730000197,13,,,,,,,,,,,s_011,4,2020_Nov_25_1906,Reversal,3.2.4,60.03373896310945,
4,exp1.png,exp2.png,1,0,1,0,0,4,4,4,,,,,,,,,,,,,,,,,,,,,,,,,False,23,24,True,exp2.png,exp1.png,trial_right_image,-1,exp1.png,4,exp2.png,exp1.png,0,2,non-reversed,incorrect,0.6899660116642021,0,valid_lose,204.02643319999333,13,,,,,,,,,,,s_011,4,2020_Nov_25_1906,Reversal,3.2.4,60.03373896310945,
5,exp3.png,exp4.png,1,0,1,0,0,5,5,5,,,,,,,,,,,,,,,,,,,,,,,,,False,24,25,False,exp3.png,exp4.png,trial_right_image,-1,exp4.png,4,exp4.png,exp3.png,1,3,reversed,correct,0.2705227218928635,1,valid_win,209.59153429999424,14,,,,,,,,,,,s_011,4,2020_Nov_25_1906,Reversal,3.2.4,60.03373896310945,
6,exp1.png,exp2.png,1,0,1,0,0,6,6,6,,,,,,,,,,,,,,,,,,,,,,,,,False,25,26,True,exp2.png,exp1.png,trial_left_image,1,exp2.png,4,exp2.png,exp1.png,1,1,non-reversed,correct,0.790776908027197,1,valid_win,214.52319209999405,15,,,,,,,,,,,s_011,4,2020_Nov_25_1906,Reversal,3.2.4,60.03373896310945,
7,exp3.png,exp4.png,1,0,1,0,0,7,7,7,,,,,,,,,,,,,,,,,,,,,,,,,False,26,27,True,exp4.png,exp3.png,trial_left_image,1,exp4.png,4,exp4.png,exp3.png,1,3,reversed,correct,0.9628437788556137,1,valid_win,220.0026702000032,16,,,,,,,,,,,s_011,4,2020_Nov_25_1906,Reversal,3.2.4,60.03373896310945,
8,exp1.png,exp2.png,1,0,1,0,0,8,8,8,,,,,,,,,,,,,,,,,,,,,,,,,False,27,28,True,exp2.png,exp1.png,trial_left_image,1,exp2.png,4,exp2.png,exp1.png,1,1,non-reversed,correct,0.7506968489481044,1,valid_win,225.61828789999709,17,,,,,,,,,,,s_011,4,2020_Nov_25_1906,Reversal,3.2.4,60.03373896310945,
9,exp3.png,exp4.png,1,0,1,0,0,9,9,9,,,,,,,,,,,,,,,,,,,,,,,,,False,28,29,False,exp3.png,exp4.png,trial_right_image,-1,exp4.png,4,exp4.png,exp3.png,1,3,reversed,correct,0.4457790509938926,1,valid_win,231.13466749999498,18,,,,,,,,,,,s_011,4,2020_Nov_25_1906,Reversal,3.2.4,60.03373896310945,
10,exp1.png,exp2.png,1,0,1,0,0,10,10,10,,,,,,,,,,,,,,,,,,,,,,,,,False,29,30,True,exp2.png,exp1.png,trial_left_image,1,exp2.png,4,exp2.png,exp1.png,1,1,non-reversed,correct,0.6951104237198004,1,valid_win,236.44945230000303,19,,,,,,,,,,,s_011,4,2020_Nov_25_1906,Reversal,3.2.4,60.03373896310945,
11,exp3.png,exp4.png,1,0,1,0,0,11,11,11,,,,,,,,,,,,,,,,,,,,,,,,,False,30,31,True,exp4.png,exp3.png,trial_left_image,1,exp4.png,4,exp4.png,exp3.png,1,3,reversed,correct,0.006849083757148211,0,invalid_lose,241.7628676000022,19,,,,,,,,,,,s_011,4,2020_Nov_25_1906,Reversal,3.2.4,60.03373896310945,
12,exp1.png,exp2.png,1,0,1,0,0,12,12,12,,,,,,,,,,,,,,,,,,,,,,,,,False,31,32,False,exp1.png,exp2.png,trial_right_image,-1,exp2.png,4,exp2.png,exp1.png,1,1,non-reversed,correct,0.6690056526288131,1,valid_win,247.62884589999157,20,,,,,,,,,,,s_011,4,2020_Nov_25_1906,Reversal,3.2.4,60.03373896310945,
13,exp3.png,exp4.png,1,0,1,0,0,13,13,13,,,,,,,,,,,,,,,,,,,,,,,,,False,32,33,False,exp3.png,exp4.png,trial_left_image,1,exp3.png,4,exp4.png,exp3.png,0,4,reversed,incorrect,0.4990615841289723,0,valid_lose,252.9105614,20,,,,,,,,,,,s_011,4,2020_Nov_25_1906,Reversal,3.2.4,60.03373896310945,
14,exp1.png,exp2.png,1,0,1,0,0,14,14,14,,,,,,,,,,,,,,,,,,,,,,,,,False,33,34,False,exp1.png,exp2.png,trial_right_image,-1,exp2.png,4,exp2.png,exp1.png,1,1,non-reversed,correct,0.8764054491927363,1,valid_win,259.80776359999436,21,,,,,,,,,,,s_011,4,2020_Nov_25_1906,Reversal,3.2.4,60.03373896310945,
15,exp3.png,exp4.png,1,0,1,0,0,15,15,15,,,,,,,,,,,,,,,,,,,,,,,,,False,34,35,False,exp3.png,exp4.png,trial_right_image,-1,exp4.png,4,exp4.png,exp3.png,1,3,reversed,correct,0.565550455878552,1,valid_win,265.0731830000004,22,,,,,,,,,,,s_011,4,2020_Nov_25_1906,Reversal,3.2.4,60.03373896310945,
16,exp1.png,exp2.png,1,0,1,0,0,16,16,16,,,,,,,,,,,,,,,,,,,,,,,,,False,35,36,False,exp1.png,exp2.png,trial_right_image,-1,exp2.png,4,exp2.png,exp1.png,1,1,non-reversed,correct,0.742466720067079,1,valid_win,270.88796100000036,23,,,,,,,,,,,s_011,4,2020_Nov_25_1906,Reversal,3.2.4,60.03373896310945,
17,exp3.png,exp4.png,1,0,1,0,0,17,17,17,,,,,,,,,,,,,,,,,,,,,,,,,False,36,37,False,exp3.png,exp4.png,trial_right_image,-1,exp4.png,4,exp4.png,exp3.png,1,3,reversed,correct,0.9794357843640287,1,valid_win,276.41947860000073,24,,,,,,,,,,,s_011,4,2020_Nov_25_1906,Reversal,3.2.4,60.03373896310945,
18,exp1.png,exp2.png,1,0,1,0,0,18,18,18,,,,,,,,,,,,,,,,,,,,,,,,,False,37,38,False,exp1.png,exp2.png,trial_right_image,-1,exp2.png,4,exp2.png,exp1.png,1,1,non-reversed,correct,0.10024154949830044,0,invalid_lose,282.2494980999909,24,,,,,,,,,,,s_011,4,2020_Nov_25_1906,Reversal,3.2.4,60.03373896310945,
19,exp3.png,exp4.png,1,0,1,0,0,19,19,19,,,,,,,,,,,,,,,,,,,,,,,,,False,38,39,True,exp4.png,exp3.png,trial_left_image,1,exp4.png,4,exp4.png,exp3.png,1,3,reversed,correct,0.22208678007428428,0,invalid_lose,288.94835609999427,24,,,,,,,,,,,s_011,4,2020_Nov_25_1906,Reversal,3.2.4,60.03373896310945,
20,exp1.png,exp2.png,1,0,1,0,0,20,20,20,,,,,,,,,,,,,,,,,,,,,,,,,False,39,40,False,exp1.png,exp2.png,trial_left_image,1,exp1.png,4,exp2.png,exp1.png,0,2,non-reversed,incorrect,0.3333612500593529,0,valid_lose,294.4800047000026,24,,,,,,,,,,,s_011,4,2020_Nov_25_1906,Reversal,3.2.4,60.03373896310945,
,,,1,0,1,0,,,,,0,0,0,0,,,,,,,,,,,,,,,,,,,,,,,,,,,,,,,,,,,,,,,,,,22,79,23,79,,,,,,,s_011,4,2020_Nov_25_1906,Reversal,3.2.4,60.03373896310945,
0,exp1.png,exp2.png,2,0,2,0,0,0,0,0,,,,,,,,,,,,,,,,,,,,,,,,,True,,,,,,,,,,,,,,,,,,,,,,,,,,,,,,,s_011,4,2020_Nov_25_1906,Reversal,3.2.4,60.03373896310945,
1,exp3.png,exp4.png,2,0,2,0,0,1,1,1,,,,,,,,,,,,,,,,,,,,,,,,,False,40,41,True,exp4.png,exp3.png,trial_left_image,1,exp4.png,4,exp4.png,exp3.png,1,3,reversed,correct,0.8353672338909681,1,valid_win,317.8884970999934,25,,,,,,,,,,,s_011,4,2020_Nov_25_1906,Reversal,3.2.4,60.03373896310945,
2,exp1.png,exp2.png,2,0,2,0,0,2,2,2,,,,,,,,,,,,,,,,,,,,,,,,,False,41,42,False,exp1.png,exp2.png,trial_right_image,-1,exp2.png,4,exp2.png,exp1.png,1,1,non-reversed,correct,0.8137793762213877,1,valid_win,322.8369390000007,26,,,,,,,,,,,s_011,4,2020_Nov_25_1906,Reversal,3.2.4,60.03373896310945,
3,exp3.png,exp4.png,2,0,2,0,0,3,3,3,,,,,,,,,,,,,,,,,,,,,,,,,False,42,43,False,exp3.png,exp4.png,trial_right_image,-1,exp4.png,4,exp4.png,exp3.png,1,3,reversed,correct,0.697074300738761,1,valid_win,331.78404159999627,27,,,,,,,,,,,s_011,4,2020_Nov_25_1906,Reversal,3.2.4,60.03373896310945,
4,exp1.png,exp2.png,2,0,2,0,0,4,4,4,,,,,,,,,,,,,,,,,,,,,,,,,False,43,44,True,exp2.png,exp1.png,trial_left_image,1,exp2.png,4,exp2.png,exp1.png,1,1,non-reversed,correct,0.9413062676278843,1,valid_win,337.748351599992,28,,,,,,,,,,,s_011,4,2020_Nov_25_1906,Reversal,3.2.4,60.03373896310945,
5,exp3.png,exp4.png,2,0,2,0,0,5,5,5,,,,,,,,,,,,,,,,,,,,,,,,,False,44,45,False,exp3.png,exp4.png,trial_right_image,-1,exp4.png,4,exp4.png,exp3.png,1,3,reversed,correct,0.5517255326440232,1,valid_win,342.5804244000028,29,,,,,,,,,,,s_011,4,2020_Nov_25_1906,Reversal,3.2.4,60.03373896310945,
6,exp1.png,exp2.png,2,0,2,0,0,6,6,6,,,,,,,,,,,,,,,,,,,,,,,,,False,45,46,False,exp1.png,exp2.png,trial_left_image,1,exp1.png,4,exp2.png,exp1.png,0,2,non-reversed,incorrect,0.48805491871555506,0,valid_lose,347.4953186999919,29,,,,,,,,,,,s_011,4,2020_Nov_25_1906,Reversal,3.2.4,60.03373896310945,
7,exp3.png,exp4.png,2,0,2,0,0,7,7,7,,,,,,,,,,,,,,,,,,,,,,,,,False,46,47,True,exp4.png,exp3.png,trial_left_image,1,exp4.png,4,exp4.png,exp3.png,1,3,reversed,correct,0.7194695693105606,1,valid_win,352.26004219999595,30,,,,,,,,,,,s_011,4,2020_Nov_25_1906,Reversal,3.2.4,60.03373896310945,
8,exp1.png,exp2.png,2,0,2,0,0,8,8,8,,,,,,,,,,,,,,,,,,,,,,,,,False,47,48,False,exp1.png,exp2.png,trial_right_image,-1,exp2.png,4,exp2.png,exp1.png,1,1,non-reversed,correct,0.14846131029713927,0,invalid_lose,356.7589462999895,30,,,,,,,,,,,s_011,4,2020_Nov_25_1906,Reversal,3.2.4,60.03373896310945,
9,exp3.png,exp4.png,2,0,2,0,0,9,9,9,,,,,,,,,,,,,,,,,,,,,,,,,False,48,49,True,exp4.png,exp3.png,trial_left_image,1,exp4.png,4,exp4.png,exp3.png,1,3,reversed,correct,0.6480476460456559,1,valid_win,362.0235777999915,31,,,,,,,,,,,s_011,4,2020_Nov_25_1906,Reversal,3.2.4,60.03373896310945,
10,exp1.png,exp2.png,2,0,2,0,0,10,10,10,,,,,,,,,,,,,,,,,,,,,,,,,False,49,50,False,exp1.png,exp2.png,trial_left_image,1,exp1.png,4,exp2.png,exp1.png,0,2,non-reversed,incorrect,0.2646152983230071,0,valid_lose,369.1876407999953,31,,,,,,,,,,,s_011,4,2020_Nov_25_1906,Reversal,3.2.4,60.03373896310945,
11,exp3.png,exp4.png,2,0,2,0,0,11,11,11,,,,,,,,,,,,,,,,,,,,,,,,,False,50,51,False,exp3.png,exp4.png,trial_right_image,-1,exp4.png,4,exp4.png,exp3.png,1,3,reversed,correct,0.773681016003262,1,valid_win,377.2018412000034,32,,,,,,,,,,,s_011,4,2020_Nov_25_1906,Reversal,3.2.4,60.03373896310945,
12,exp1.png,exp2.png,2,0,2,0,0,12,12,12,,,,,,,,,,,,,,,,,,,,,,,,,False,51,52,True,exp2.png,exp1.png,trial_right_image,-1,exp1.png,4,exp2.png,exp1.png,0,2,non-reversed,incorrect,0.8991322322529179,0,valid_lose,384.5829670999956,32,,,,,,,,,,,s_011,4,2020_Nov_25_1906,Reversal,3.2.4,60.03373896310945,
13,exp3.png,exp4.png,2,0,2,0,0,13,13,13,,,,,,,,,,,,,,,,,,,,,,,,,False,52,53,True,exp4.png,exp3.png,trial_left_image,1,exp4.png,4,exp4.png,exp3.png,1,3,reversed,correct,0.7670655066397066,1,valid_win,390.2973498999927,33,,,,,,,,,,,s_011,4,2020_Nov_25_1906,Reversal,3.2.4,60.03373896310945,
14,exp1.png,exp2.png,2,0,2,0,0,14,14,14,,,,,,,,,,,,,,,,,,,,,,,,,False,53,54,True,exp2.png,exp1.png,trial_left_image,1,exp2.png,4,exp2.png,exp1.png,1,1,non-reversed,correct,0.7151122918259085,1,valid_win,395.5291436999978,34,,,,,,,,,,,s_011,4,2020_Nov_25_1906,Reversal,3.2.4,60.03373896310945,
15,exp3.png,exp4.png,2,0,2,0,0,15,15,15,,,,,,,,,,,,,,,,,,,,,,,,,False,54,55,True,exp4.png,exp3.png,trial_left_image,1,exp4.png,4,exp4.png,exp3.png,1,3,reversed,correct,0.057519854166057316,0,invalid_lose,400.84393580000324,34,,,,,,,,,,,s_011,4,2020_Nov_25_1906,Reversal,3.2.4,60.03373896310945,
16,exp1.png,exp2.png,2,0,2,0,0,16,16,16,,,,,,,,,,,,,,,,,,,,,,,,,False,55,56,False,exp1.png,exp2.png,trial_right_image,-1,exp2.png,4,exp2.png,exp1.png,1,1,non-reversed,correct,0.2370039449623207,0,invalid_lose,406.22527369999443,34,,,,,,,,,,,s_011,4,2020_Nov_25_1906,Reversal,3.2.4,60.03373896310945,
17,exp3.png,exp4.png,2,0,2,0,0,17,17,17,,,,,,,,,,,,,,,,,,,,,,,,,False,56,57,False,exp3.png,exp4.png,trial_right_image,-1,exp4.png,4,exp4.png,exp3.png,1,3,reversed,correct,0.964683357272579,1,valid_win,413.8562394999899,35,,,,,,,,,,,s_011,4,2020_Nov_25_1906,Reversal,3.2.4,60.03373896310945,
18,exp1.png,exp2.png,2,0,2,0,0,18,18,18,,,,,,,,,,,,,,,,,,,,,,,,,False,57,58,False,exp1.png,exp2.png,trial_left_image,1,exp1.png,4,exp2.png,exp1.png,0,2,non-reversed,incorrect,0.9824940409749987,0,valid_lose,420.3708342999889,35,,,,,,,,,,,s_011,4,2020_Nov_25_1906,Reversal,3.2.4,60.03373896310945,
19,exp3.png,exp4.png,2,0,2,0,0,19,19,19,,,,,,,,,,,,,,,,,,,,,,,,,False,58,59,True,exp4.png,exp3.png,trial_left_image,1,exp4.png,4,exp4.png,exp3.png,1,3,reversed,correct,0.06390545921825841,0,invalid_lose,425.46905879999395,35,,,,,,,,,,,s_011,4,2020_Nov_25_1906,Reversal,3.2.4,60.03373896310945,
20,exp1.png,exp2.png,2,0,2,0,0,20,20,20,,,,,,,,,,,,,,,,,,,,,,,,,False,59,60,True,exp2.png,exp1.png,trial_right_image,-1,exp1.png,4,exp2.png,exp1.png,0,2,non-reversed,incorrect,0.6868358416977539,0,valid_lose,431.7169331999903,35,,,,,,,,,,,s_011,4,2020_Nov_25_1906,Reversal,3.2.4,60.03373896310945,
,,,2,0,2,0,,,,,0,0,0,0,,,,,,,,,,,,,,,,,,,,,,,,,,,,,,,,,,,,,,,,,,20,81,23,77,,,,,,,s_011,4,2020_Nov_25_1906,Reversal,3.2.4,60.03373896310945,
0,exp1.png,exp2.png,3,0,3,0,0,0,0,0,,,,,,,,,,,,,,,,,,,,,,,,,True,,,,,,,,,,,,,,,,,,,,,,,,,,,,,,,s_011,4,2020_Nov_25_1906,Reversal,3.2.4,60.03373896310945,
1,exp3.png,exp4.png,3,0,3,0,0,1,1,1,,,,,,,,,,,,,,,,,,,,,,,,,False,60,61,False,exp3.png,exp4.png,trial_right_image,-1,exp4.png,4,exp4.png,exp3.png,1,3,reversed,correct,0.4486257376793643,1,valid_win,449.0095663999964,36,,,,,,,,,,,s_011,4,2020_Nov_25_1906,Reversal,3.2.4,60.03373896310945,
2,exp1.png,exp2.png,3,0,3,0,0,2,2,2,,,,,,,,,,,,,,,,,,,,,,,,,False,61,62,False,exp1.png,exp2.png,trial_right_image,-1,exp2.png,4,exp2.png,exp1.png,1,1,non-reversed,correct,0.32921597726204854,1,valid_win,453.7093538999907,37,,,,,,,,,,,s_011,4,2020_Nov_25_1906,Reversal,3.2.4,60.03373896310945,
3,exp3.png,exp4.png,3,0,3,0,0,3,3,3,,,,,,,,,,,,,,,,,,,,,,,,,False,62,63,True,exp4.png,exp3.png,trial_left_image,1,exp4.png,4,exp4.png,exp3.png,1,3,reversed,correct,0.6004778976464863,1,valid_win,458.69110419999924,38,,,,,,,,,,,s_011,4,2020_Nov_25_1906,Reversal,3.2.4,60.03373896310945,
4,exp1.png,exp2.png,3,0,3,0,0,4,4,4,,,,,,,,,,,,,,,,,,,,,,,,,False,63,64,False,exp1.png,exp2.png,trial_right_image,-1,exp2.png,4,exp2.png,exp1.png,1,1,non-reversed,correct,0.7539100891421093,1,valid_win,463.472726699998,39,,,,,,,,,,,s_011,4,2020_Nov_25_1906,Reversal,3.2.4,60.03373896310945,
5,exp3.png,exp4.png,3,0,3,0,0,5,5,5,,,,,,,,,,,,,,,,,,,,,,,,,False,64,65,False,exp3.png,exp4.png,trial_right_image,-1,exp4.png,4,exp4.png,exp3.png,1,3,reversed,correct,0.4118393424615535,1,valid_win,468.3879556000029,40,,,,,,,,,,,s_011,4,2020_Nov_25_1906,Reversal,3.2.4,60.03373896310945,
6,exp1.png,exp2.png,3,0,3,0,0,6,6,6,,,,,,,,,,,,,,,,,,,,,,,,,False,65,66,False,exp1.png,exp2.png,trial_right_image,-1,exp2.png,4,exp2.png,exp1.png,1,1,non-reversed,correct,0.8128579492684218,1,valid_win,473.83595939999213,41,,,,,,,,,,,s_011,4,2020_Nov_25_1906,Reversal,3.2.4,60.03373896310945,
7,exp3.png,exp4.png,3,0,3,0,0,7,7,7,,,,,,,,,,,,,,,,,,,,,,,,,False,66,67,False,exp3.png,exp4.png,trial_left_image,1,exp3.png,4,exp4.png,exp3.png,0,4,reversed,incorrect,0.768849035593834,0,valid_lose,483.38302029999613,41,,,,,,,,,,,s_011,4,2020_Nov_25_1906,Reversal,3.2.4,60.03373896310945,
8,exp1.png,exp2.png,3,0,3,0,0,8,8,8,,,,,,,,,,,,,,,,,,,,,,,,,False,67,68,True,exp2.png,exp1.png,trial_left_image,1,exp2.png,4,exp2.png,exp1.png,1,1,non-reversed,correct,0.16201913481106578,0,invalid_lose,489.14761459999136,41,,,,,,,,,,,s_011,4,2020_Nov_25_1906,Reversal,3.2.4,60.03373896310945,
9,exp3.png,exp4.png,3,0,3,0,0,9,9,9,,,,,,,,,,,,,,,,,,,,,,,,,False,68,69,True,exp4.png,exp3.png,trial_left_image,1,exp4.png,4,exp4.png,exp3.png,1,3,reversed,correct,0.24786341338190654,0,invalid_lose,494.8445154999936,41,,,,,,,,,,,s_011,4,2020_Nov_25_1906,Reversal,3.2.4,60.03373896310945,
10,exp1.png,exp2.png,3,0,3,0,0,10,10,10,,,,,,,,,,,,,,,,,,,,,,,,,False,69,70,True,exp2.png,exp1.png,trial_left_image,1,exp2.png,4,exp2.png,exp1.png,1,1,non-reversed,correct,0.19992397652486404,0,invalid_lose,500.5270801000006,41,,,,,,,,,,,s_011,4,2020_Nov_25_1906,Reversal,3.2.4,60.03373896310945,
11,exp3.png,exp4.png,3,0,3,0,0,11,11,11,,,,,,,,,,,,,,,,,,,,,,,,,False,70,71,False,exp3.png,exp4.png,trial_right_image,-1,exp4.png,4,exp4.png,exp3.png,1,3,reversed,correct,0.28673494926031207,1,valid_win,508.3408817000018,42,,,,,,,,,,,s_011,4,2020_Nov_25_1906,Reversal,3.2.4,60.03373896310945,
12,exp1.png,exp2.png,3,0,3,0,0,12,12,12,,,,,,,,,,,,,,,,,,,,,,,,,False,71,72,True,exp2.png,exp1.png,trial_right_image,-1,exp1.png,4,exp2.png,exp1.png,0,2,non-reversed,incorrect,0.6665870054457469,0,valid_lose,514.0890768999961,42,,,,,,,,,,,s_011,4,2020_Nov_25_1906,Reversal,3.2.4,60.03373896310945,
13,exp3.png,exp4.png,3,0,3,0,0,13,13,13,,,,,,,,,,,,,,,,,,,,,,,,,False,72,73,False,exp3.png,exp4.png,trial_right_image,-1,exp4.png,4,exp4.png,exp3.png,1,3,reversed,correct,0.7353698855349973,1,valid_win,519.5537353999971,43,,,,,,,,,,,s_011,4,2020_Nov_25_1906,Reversal,3.2.4,60.03373896310945,
14,exp1.png,exp2.png,3,0,3,0,0,14,14,14,,,,,,,,,,,,,,,,,,,,,,,,,False,73,74,False,exp1.png,exp2.png,trial_right_image,-1,exp2.png,4,exp2.png,exp1.png,1,1,non-reversed,correct,0.869902248758135,1,valid_win,524.7677227999957,44,,,,,,,,,,,s_011,4,2020_Nov_25_1906,Reversal,3.2.4,60.03373896310945,
15,exp3.png,exp4.png,3,0,3,0,0,15,15,15,,,,,,,,,,,,,,,,,,,,,,,,,False,74,75,True,exp4.png,exp3.png,trial_left_image,1,exp4.png,4,exp4.png,exp3.png,1,3,reversed,correct,0.34118415908890176,1,valid_win,530.2337556999992,45,,,,,,,,,,,s_011,4,2020_Nov_25_1906,Reversal,3.2.4,60.03373896310945,
16,exp1.png,exp2.png,3,0,3,0,0,16,16,16,,,,,,,,,,,,,,,,,,,,,,,,,False,75,76,False,exp1.png,exp2.png,trial_right_image,-1,exp2.png,4,exp2.png,exp1.png,1,1,non-reversed,correct,0.2573904979183228,1,valid_win,535.9649723999901,46,,,,,,,,,,,s_011,4,2020_Nov_25_1906,Reversal,3.2.4,60.03373896310945,
17,exp3.png,exp4.png,3,0,3,0,0,17,17,17,,,,,,,,,,,,,,,,,,,,,,,,,False,76,77,True,exp4.png,exp3.png,trial_left_image,1,exp4.png,4,exp4.png,exp3.png,1,3,reversed,correct,0.9686760278766027,1,valid_win,541.3131884999893,47,,,,,,,,,,,s_011,4,2020_Nov_25_1906,Reversal,3.2.4,60.03373896310945,
18,exp1.png,exp2.png,3,0,3,0,0,18,18,18,,,,,,,,,,,,,,,,,,,,,,,,,False,77,78,True,exp2.png,exp1.png,trial_left_image,1,exp2.png,4,exp2.png,exp1.png,1,1,non-reversed,correct,0.8129976905691396,1,valid_win,548.3441512999998,48,,,,,,,,,,,s_011,4,2020_Nov_25_1906,Reversal,3.2.4,60.03373896310945,
19,exp3.png,exp4.png,3,0,3,0,0,19,19,19,,,,,,,,,,,,,,,,,,,,,,,,,False,78,79,True,exp4.png,exp3.png,trial_left_image,1,exp4.png,4,exp4.png,exp3.png,1,3,reversed,correct,0.7722898169476744,1,valid_win,553.2256079999934,49,,,,,,,,,,,s_011,4,2020_Nov_25_1906,Reversal,3.2.4,60.03373896310945,
20,exp1.png,exp2.png,3,0,3,0,0,20,20,20,,,,,,,,,,,,,,,,,,,,,,,,,False,79,80,True,exp2.png,exp1.png,trial_left_image,1,exp2.png,4,exp2.png,exp1.png,1,1,non-reversed,correct,0.40801708327487707,1,valid_win,558.5238667999947,50,,,,,,,,,,,s_011,4,2020_Nov_25_1906,Reversal,3.2.4,60.03373896310945,
,,,3,0,3,0,,,,,0,0,0,0,,,,,,,,,,,,,,,,,,,,,,,,,,,,,,,,,,,,,,,,,,4,93,9,88,,,,,,,s_011,4,2020_Nov_25_1906,Reversal,3.2.4,60.03373896310945,
0,exp1.png,exp2.png,,,,,,,,,,,,,,,,,0,0,0,0,0,0,0,0,,,,,,,,,True,,,,,,,,,,,,,,,,,,,,,,,,,,,,,,,s_011,4,2020_Nov_25_1906,Reversal,3.2.4,60.03373896310945,
1,exp3.png,exp4.png,,,,,,,,,,,,,,,,,0,0,0,0,0,1,1,1,,,,,,,,,False,0,81,False,exp3.png,exp4.png,trial_right_image,-1,exp4.png,4,exp3.png,exp4.png,1,3,reversed,incorrect,0.271517148432715,0,valid_lose,587.7975877999997,50,,,,,584.611256499993,,,,,,s_011,4,2020_Nov_25_1906,Reversal,3.2.4,60.03373896310945,
2,exp1.png,exp2.png,,,,,,,,,,,,,,,,,0,0,0,0,0,2,2,2,,,,,,,,,False,1,82,True,exp2.png,exp1.png,trial_left_image,1,exp2.png,4,exp2.png,exp1.png,1,1,non-reversed,correct,0.4237997614507485,1,valid_win,593.5960550000018,51,,,,,,,,,,,s_011,4,2020_Nov_25_1906,Reversal,3.2.4,60.03373896310945,
3,exp3.png,exp4.png,,,,,,,,,,,,,,,,,0,0,0,0,0,3,3,3,,,,,,,,,False,2,83,False,exp3.png,exp4.png,trial_left_image,1,exp3.png,4,exp3.png,exp4.png,0,4,reversed,correct,0.805550525382623,1,valid_win,599.3272750999895,52,,,,,,,,,,,s_011,4,2020_Nov_25_1906,Reversal,3.2.4,60.03373896310945,
4,exp1.png,exp2.png,,,,,,,,,,,,,,,,,0,0,0,0,0,4,4,4,,,,,,,,,False,3,84,False,exp1.png,exp2.png,trial_right_image,-1,exp2.png,4,exp2.png,exp1.png,1,1,non-reversed,correct,0.44336698829722276,1,valid_win,604.8921510999935,53,,,,,,,,,,,s_011,4,2020_Nov_25_1906,Reversal,3.2.4,60.03373896310945,
5,exp3.png,exp4.png,,,,,,,,,,,,,,,,,0,0,0,0,0,5,5,5,,,,,,,,,False,4,85,False,exp3.png,exp4.png,trial_left_image,1,exp3.png,4,exp3.png,exp4.png,0,4,reversed,correct,0.9090399996416222,1,valid_win,610.2730715999933,54,,,,,,,,,,,s_011,4,2020_Nov_25_1906,Reversal,3.2.4,60.03373896310945,
6,exp1.png,exp2.png,,,,,,,,,,,,,,,,,0,0,0,0,0,6,6,6,,,,,,,,,False,5,86,False,exp1.png,exp2.png,trial_right_image,-1,exp2.png,4,exp2.png,exp1.png,1,1,non-reversed,correct,0.8050536789021501,1,valid_win,615.4215672999999,55,,,,,,,,,,,s_011,4,2020_Nov_25_1906,Reversal,3.2.4,60.03373896310945,
7,exp3.png,exp4.png,,,,,,,,,,,,,,,,,0,0,0,0,0,7,7,7,,,,,,,,,False,6,87,False,exp3.png,exp4.png,trial_left_image,1,exp3.png,4,exp3.png,exp4.png,0,4,reversed,correct,0.16601456842016538,0,invalid_lose,621.5861803000007,55,,,,,,,,,,,s_011,4,2020_Nov_25_1906,Reversal,3.2.4,60.03373896310945,
8,exp1.png,exp2.png,,,,,,,,,,,,,,,,,0,0,0,0,0,8,8,8,,,,,,,,,False,7,88,True,exp2.png,exp1.png,trial_left_image,1,exp2.png,4,exp2.png,exp1.png,1,1,non-reversed,correct,0.3134633737820106,1,valid_win,627.1009454000014,56,,,,,,,,,,,s_011,4,2020_Nov_25_1906,Reversal,3.2.4,60.03373896310945,
9,exp3.png,exp4.png,,,,,,,,,,,,,,,,,0,0,0,0,0,9,9,9,,,,,,,,,False,8,89,False,exp3.png,exp4.png,trial_right_image,-1,exp4.png,4,exp3.png,exp4.png,1,3,reversed,incorrect,0.657471082715361,0,valid_lose,633.8154901999951,56,,,,,,,,,,,s_011,4,2020_Nov_25_1906,Reversal,3.2.4,60.03373896310945,
10,exp1.png,exp2.png,,,,,,,,,,,,,,,,,0,0,0,0,0,10,10,10,,,,,,,,,False,9,90,True,exp2.png,exp1.png,trial_left_image,1,exp2.png,4,exp2.png,exp1.png,1,1,non-reversed,correct,0.32726505650903204,1,valid_win,639.0464699000004,57,,,,,,,,,,,s_011,4,2020_Nov_25_1906,Reversal,3.2.4,60.03373896310945,
11,exp3.png,exp4.png,,,,,,,,,,,,,,,,,0,0,0,0,0,11,11,11,,,,,,,,,False,10,91,True,exp4.png,exp3.png,trial_left_image,1,exp4.png,4,exp3.png,exp4.png,1,3,reversed,incorrect,0.47406243525938496,0,valid_lose,645.4947147999919,57,,,,,,,,,,,s_011,4,2020_Nov_25_1906,Reversal,3.2.4,60.03373896310945,
12,exp1.png,exp2.png,,,,,,,,,,,,,,,,,0,0,0,0,0,12,12,12,,,,,,,,,False,11,92,True,exp2.png,exp1.png,trial_left_image,1,exp2.png,4,exp2.png,exp1.png,1,1,non-reversed,correct,0.29779391032981295,1,valid_win,650.8928314999939,58,,,,,,,,,,,s_011,4,2020_Nov_25_1906,Reversal,3.2.4,60.03373896310945,
13,exp3.png,exp4.png,,,,,,,,,,,,,,,,,0,0,0,0,0,13,13,13,,,,,,,,,False,12,93,True,exp4.png,exp3.png,trial_right_image,-1,exp3.png,4,exp3.png,exp4.png,0,4,reversed,correct,0.07084029651798618,0,invalid_lose,656.2913215000008,58,,,,,,,,,,,s_011,4,2020_Nov_25_1906,Reversal,3.2.4,60.03373896310945,
14,exp1.png,exp2.png,,,,,,,,,,,,,,,,,0,0,0,0,0,14,14,14,,,,,,,,,False,13,94,False,exp1.png,exp2.png,trial_right_image,-1,exp2.png,4,exp2.png,exp1.png,1,1,non-reversed,correct,0.46510812924102396,1,valid_win,662.7222066999966,59,,,,,,,,,,,s_011,4,2020_Nov_25_1906,Reversal,3.2.4,60.03373896310945,
15,exp3.png,exp4.png,,,,,,,,,,,,,,,,,0,0,0,0,0,15,15,15,,,,,,,,,False,14,95,True,exp4.png,exp3.png,trial_right_image,-1,exp3.png,4,exp3.png,exp4.png,0,4,reversed,correct,0.43211051899135433,1,valid_win,667.5869424999983,60,,,,,,,,,,,s_011,4,2020_Nov_25_1906,Reversal,3.2.4,60.03373896310945,
16,exp1.png,exp2.png,,,,,,,,,,,,,,,,,0,0,0,0,0,16,16,16,,,,,,,,,False,15,96,False,exp1.png,exp2.png,trial_right_image,-1,exp2.png,4,exp2.png,exp1.png,1,1,non-reversed,correct,0.6774305920466395,1,valid_win,672.667348899995,61,,,,,,,,,,,s_011,4,2020_Nov_25_1906,Reversal,3.2.4,60.03373896310945,
17,exp3.png,exp4.png,,,,,,,,,,,,,,,,,0,0,0,0,0,17,17,17,,,,,,,,,False,16,97,False,exp3.png,exp4.png,trial_right_image,-1,exp4.png,4,exp3.png,exp4.png,1,3,reversed,incorrect,0.03421522013432032,1,invalid_win,677.1672697000031,62,,,,,,,,,,,s_011,4,2020_Nov_25_1906,Reversal,3.2.4,60.03373896310945,
18,exp1.png,exp2.png,,,,,,,,,,,,,,,,,0,0,0,0,0,18,18,18,,,,,,,,,False,17,98,True,exp2.png,exp1.png,trial_left_image,1,exp2.png,4,exp2.png,exp1.png,1,1,non-reversed,correct,0.2789543408441326,1,valid_win,683.0488687999896,63,,,,,,,,,,,s_011,4,2020_Nov_25_1906,Reversal,3.2.4,60.03373896310945,
19,exp3.png,exp4.png,,,,,,,,,,,,,,,,,0,0,0,0,0,19,19,19,,,,,,,,,False,18,99,True,exp4.png,exp3.png,trial_left_image,1,exp4.png,4,exp3.png,exp4.png,1,3,reversed,incorrect,0.756491921227469,0,valid_lose,688.0639019999944,63,,,,,,,,,,,s_011,4,2020_Nov_25_1906,Reversal,3.2.4,60.03373896310945,
20,exp1.png,exp2.png,,,,,,,,,,,,,,,,,0,0,0,0,0,20,20,20,,,,,,,,,False,19,100,True,exp2.png,exp1.png,trial_left_image,1,exp2.png,4,exp2.png,exp1.png,1,1,non-reversed,correct,0.6251379393469966,1,valid_win,693.2117757999949,64,,,,,,,,,,,s_011,4,2020_Nov_25_1906,Reversal,3.2.4,60.03373896310945,
,,,,,,,,,,,,,,,,,,,0,0,0,0,,,,,0,0,0,0,,,,,,,,,,,,,,,,,,,,,,,,,,13,84,54,50.0,,,,,,,s_011,4,2020_Nov_25_1906,Reversal,3.2.4,60.03373896310945,
0,exp1.png,exp2.png,,,,,,,,,,,,,,,,,1,0,1,0,0,0,0,0,,,,,,,,,True,,,,,,,,,,,,,,,,,,,,,,,,,,,,,,,s_011,4,2020_Nov_25_1906,Reversal,3.2.4,60.03373896310945,
1,exp3.png,exp4.png,,,,,,,,,,,,,,,,,1,0,1,0,0,1,1,1,,,,,,,,,False,20,101,True,exp4.png,exp3.png,trial_left_image,1,exp4.png,4,exp3.png,exp4.png,1,3,reversed,incorrect,0.29762180056308085,0,valid_lose,712.9893272999907,64,,,,,,,,,,,s_011,4,2020_Nov_25_1906,Reversal,3.2.4,60.03373896310945,
2,exp1.png,exp2.png,,,,,,,,,,,,,,,,,1,0,1,0,0,2,2,2,,,,,,,,,False,21,102,False,exp1.png,exp2.png,trial_right_image,-1,exp2.png,4,exp2.png,exp1.png,1,1,non-reversed,correct,0.5860293906643455,1,valid_win,717.9366900000023,65,,,,,,,,,,,s_011,4,2020_Nov_25_1906,Reversal,3.2.4,60.03373896310945,
3,exp3.png,exp4.png,,,,,,,,,,,,,,,,,1,0,1,0,0,3,3,3,,,,,,,,,False,22,103,False,exp3.png,exp4.png,trial_right_image,-1,exp4.png,4,exp3.png,exp4.png,1,3,reversed,incorrect,0.5794410253254461,0,valid_lose,722.8686443999904,65,,,,,,,,,,,s_011,4,2020_Nov_25_1906,Reversal,3.2.4,60.03373896310945,
4,exp1.png,exp2.png,,,,,,,,,,,,,,,,,1,0,1,0,0,4,4,4,,,,,,,,,False,23,104,True,exp2.png,exp1.png,trial_left_image,1,exp2.png,4,exp2.png,exp1.png,1,1,non-reversed,correct,0.3689832754897937,1,valid_win,727.9333977999922,66,,,,,,,,,,,s_011,4,2020_Nov_25_1906,Reversal,3.2.4,60.03373896310945,
5,exp3.png,exp4.png,,,,,,,,,,,,,,,,,1,0,1,0,0,5,5,5,,,,,,,,,False,24,105,False,exp3.png,exp4.png,trial_left_image,1,exp3.png,4,exp3.png,exp4.png,0,4,reversed,correct,0.35520245820650265,1,valid_win,732.8989395999961,67,,,,,,,,,,,s_011,4,2020_Nov_25_1906,Reversal,3.2.4,60.03373896310945,
6,exp1.png,exp2.png,,,,,,,,,,,,,,,,,1,0,1,0,0,6,6,6,,,,,,,,,False,25,106,True,exp2.png,exp1.png,trial_left_image,1,exp2.png,4,exp2.png,exp1.png,1,1,non-reversed,correct,0.03972191428441374,0,invalid_lose,738.1138708999933,67,,,,,,,,,,,s_011,4,2020_Nov_25_1906,Reversal,3.2.4,60.03373896310945,
7,exp3.png,exp4.png,,,,,,,,,,,,,,,,,1,0,1,0,0,7,7,7,,,,,,,,,False,26,107,False,exp3.png,exp4.png,trial_left_image,1,exp3.png,4,exp3.png,exp4.png,0,4,reversed,correct,0.09304679249360803,0,invalid_lose,743.944808100001,67,,,,,,,,,,,s_011,4,2020_Nov_25_1906,Reversal,3.2.4,60.03373896310945,
8,exp1.png,exp2.png,,,,,,,,,,,,,,,,,1,0,1,0,0,8,8,8,,,,,,,,,False,27,108,True,exp2.png,exp1.png,trial_left_image,1,exp2.png,4,exp2.png,exp1.png,1,1,non-reversed,correct,0.23561293211774692,0,invalid_lose,750.1925793999981,67,,,,,,,,,,,s_011,4,2020_Nov_25_1906,Reversal,3.2.4,60.03373896310945,
9,exp3.png,exp4.png,,,,,,,,,,,,,,,,,1,0,1,0,0,9,9,9,,,,,,,,,False,28,109,True,exp4.png,exp3.png,trial_left_image,1,exp4.png,4,exp3.png,exp4.png,1,3,reversed,incorrect,0.7858834929211059,0,valid_lose,758.3730809999979,67,,,,,,,,,,,s_011,4,2020_Nov_25_1906,Reversal,3.2.4,60.03373896310945,
10,exp1.png,exp2.png,,,,,,,,,,,,,,,,,1,0,1,0,0,10,10,10,,,,,,,,,False,29,110,False,exp1.png,exp2.png,trial_left_image,1,exp1.png,4,exp2.png,exp1.png,0,2,non-reversed,incorrect,0.06932237682090525,1,invalid_win,764.7711973999976,68,,,,,,,,,,,s_011,4,2020_Nov_25_1906,Reversal,3.2.4,60.03373896310945,
11,exp3.png,exp4.png,,,,,,,,,,,,,,,,,1,0,1,0,0,11,11,11,,,,,,,,,False,30,111,True,exp4.png,exp3.png,trial_right_image,-1,exp3.png,4,exp3.png,exp4.png,0,4,reversed,correct,0.940331389620819,1,valid_win,769.3860346000001,69,,,,,,,,,,,s_011,4,2020_Nov_25_1906,Reversal,3.2.4,60.03373896310945,
12,exp1.png,exp2.png,,,,,,,,,,,,,,,,,1,0,1,0,0,12,12,12,,,,,,,,,False,31,112,False,exp1.png,exp2.png,trial_left_image,1,exp1.png,4,exp2.png,exp1.png,0,2,non-reversed,incorrect,0.16228318240319162,1,invalid_win,775.0342929999897,70,,,,,,,,,,,s_011,4,2020_Nov_25_1906,Reversal,3.2.4,60.03373896310945,
13,exp3.png,exp4.png,,,,,,,,,,,,,,,,,1,0,1,0,0,13,13,13,,,,,,,,,False,32,113,True,exp4.png,exp3.png,trial_right_image,-1,exp3.png,4,exp3.png,exp4.png,0,4,reversed,correct,0.9642966134279388,1,valid_win,779.6329011999915,71,,,,,,,,,,,s_011,4,2020_Nov_25_1906,Reversal,3.2.4,60.03373896310945,
14,exp1.png,exp2.png,,,,,,,,,,,,,,,,,1,0,1,0,0,14,14,14,,,,,,,,,False,33,114,False,exp1.png,exp2.png,trial_left_image,1,exp1.png,4,exp2.png,exp1.png,0,2,non-reversed,incorrect,0.8590817462087694,0,valid_lose,785.2140792999999,71,,,,,,,,,,,s_011,4,2020_Nov_25_1906,Reversal,3.2.4,60.03373896310945,
15,exp3.png,exp4.png,,,,,,,,,,,,,,,,,1,0,1,0,0,15,15,15,,,,,,,,,False,34,115,False,exp3.png,exp4.png,trial_right_image,-1,exp4.png,4,exp3.png,exp4.png,1,3,reversed,incorrect,0.6124879913077654,0,valid_lose,792.1619285999914,71,,,,,,,,,,,s_011,4,2020_Nov_25_1906,Reversal,3.2.4,60.03373896310945,
16,exp1.png,exp2.png,,,,,,,,,,,,,,,,,1,0,1,0,0,16,16,16,,,,,,,,,False,35,116,False,exp1.png,exp2.png,trial_right_image,-1,exp2.png,4,exp2.png,exp1.png,1,1,non-reversed,correct,0.9818066861345762,1,valid_win,797.7265527999989,72,,,,,,,,,,,s_011,4,2020_Nov_25_1906,Reversal,3.2.4,60.03373896310945,
17,exp3.png,exp4.png,,,,,,,,,,,,,,,,,1,0,1,0,0,17,17,17,,,,,,,,,False,36,117,False,exp3.png,exp4.png,trial_right_image,-1,exp4.png,4,exp3.png,exp4.png,1,3,reversed,incorrect,0.8998351844120354,0,valid_lose,802.2416511999909,72,,,,,,,,,,,s_011,4,2020_Nov_25_1906,Reversal,3.2.4,60.03373896310945,
18,exp1.png,exp2.png,,,,,,,,,,,,,,,,,1,0,1,0,0,18,18,18,,,,,,,,,False,37,118,True,exp2.png,exp1.png,trial_right_image,-1,exp1.png,4,exp2.png,exp1.png,0,2,non-reversed,incorrect,0.7149761898869104,0,valid_lose,807.7731545999995,72,,,,,,,,,,,s_011,4,2020_Nov_25_1906,Reversal,3.2.4,60.03373896310945,
19,exp3.png,exp4.png,,,,,,,,,,,,,,,,,1,0,1,0,0,19,19,19,,,,,,,,,False,38,119,True,exp4.png,exp3.png,trial_left_image,1,exp4.png,4,exp3.png,exp4.png,1,3,reversed,incorrect,0.3304493217869211,0,valid_lose,812.8883368999959,72,,,,,,,,,,,s_011,4,2020_Nov_25_1906,Reversal,3.2.4,60.03373896310945,
20,exp1.png,exp2.png,,,,,,,,,,,,,,,,,1,0,1,0,0,20,20,20,,,,,,,,,False,39,120,True,exp2.png,exp1.png,trial_right_image,-1,exp1.png,4,exp2.png,exp1.png,0,2,non-reversed,incorrect,0.030457536039675492,1,invalid_win,818.3695535000006,73,,,,,,,,,,,s_011,4,2020_Nov_25_1906,Reversal,3.2.4,60.03373896310945,
,,,,,,,,,,,,,,,,,,,1,0,1,0,,,,,0,0,0,0,,,,,,,,,,,,,,,,,,,,,,,,,,61,38,50.0,50.0,,,,,,,s_011,4,2020_Nov_25_1906,Reversal,3.2.4,60.03373896310945,
0,exp1.png,exp2.png,,,,,,,,,,,,,,,,,2,0,2,0,0,0,0,0,,,,,,,,,True,,,,,,,,,,,,,,,,,,,,,,,,,,,,,,,s_011,4,2020_Nov_25_1906,Reversal,3.2.4,60.03373896310945,
1,exp3.png,exp4.png,,,,,,,,,,,,,,,,,2,0,2,0,0,1,1,1,,,,,,,,,False,40,121,False,exp3.png,exp4.png,trial_right_image,-1,exp4.png,4,exp3.png,exp4.png,1,3,reversed,incorrect,0.2570732456397281,0,valid_lose,835.4139070999954,73,,,,,,,,,,,s_011,4,2020_Nov_25_1906,Reversal,3.2.4,60.03373896310945,
2,exp1.png,exp2.png,,,,,,,,,,,,,,,,,2,0,2,0,0,2,2,2,,,,,,,,,False,41,122,True,exp2.png,exp1.png,trial_right_image,-1,exp1.png,4,exp2.png,exp1.png,0,2,non-reversed,incorrect,0.9134720429703468,0,valid_lose,840.7122197999997,73,,,,,,,,,,,s_011,4,2020_Nov_25_1906,Reversal,3.2.4,60.03373896310945,
3,exp3.png,exp4.png,,,,,,,,,,,,,,,,,2,0,2,0,0,3,3,3,,,,,,,,,False,42,123,True,exp4.png,exp3.png,trial_right_image,-1,exp3.png,4,exp3.png,exp4.png,0,4,reversed,correct,0.04185872552608805,0,invalid_lose,847.0754087999958,73,,,,,,,,,,,s_011,4,2020_Nov_25_1906,Reversal,3.2.4,60.03373896310945,
4,exp1.png,exp2.png,,,,,,,,,,,,,,,,,2,0,2,0,0,4,4,4,,,,,,,,,False,43,124,True,exp2.png,exp1.png,trial_left_image,1,exp2.png,4,exp2.png,exp1.png,1,1,non-reversed,correct,0.7798771812953252,1,valid_win,853.4744685999904,74,,,,,,,,,,,s_011,4,2020_Nov_25_1906,Reversal,3.2.4,60.03373896310945,
5,exp3.png,exp4.png,,,,,,,,,,,,,,,,,2,0,2,0,0,5,5,5,,,,,,,,,False,44,125,False,exp3.png,exp4.png,trial_right_image,-1,exp4.png,4,exp3.png,exp4.png,1,3,reversed,incorrect,0.6041654174086571,0,valid_lose,858.1230312999978,74,,,,,,,,,,,s_011,4,2020_Nov_25_1906,Reversal,3.2.4,60.03373896310945,
6,exp1.png,exp2.png,,,,,,,,,,,,,,,,,2,0,2,0,0,6,6,6,,,,,,,,,False,45,126,True,exp2.png,exp1.png,trial_left_image,1,exp2.png,4,exp2.png,exp1.png,1,1,non-reversed,correct,0.28059014184952047,1,valid_win,862.9882144000003,75,,,,,,,,,,,s_011,4,2020_Nov_25_1906,Reversal,3.2.4,60.03373896310945,
7,exp3.png,exp4.png,,,,,,,,,,,,,,,,,2,0,2,0,0,7,7,7,,,,,,,,,False,46,127,True,exp4.png,exp3.png,trial_right_image,-1,exp3.png,4,exp3.png,exp4.png,0,4,reversed,correct,0.6118165492115437,1,valid_win,867.5532667999942,76,,,,,,,,,,,s_011,4,2020_Nov_25_1906,Reversal,3.2.4,60.03373896310945,
8,exp1.png,exp2.png,,,,,,,,,,,,,,,,,2,0,2,0,0,8,8,8,,,,,,,,,False,47,128,True,exp2.png,exp1.png,trial_left_image,1,exp2.png,4,exp2.png,exp1.png,1,1,non-reversed,correct,0.3891366951382057,1,valid_win,872.3847555999964,77,,,,,,,,,,,s_011,4,2020_Nov_25_1906,Reversal,3.2.4,60.03373896310945,
9,exp3.png,exp4.png,,,,,,,,,,,,,,,,,2,0,2,0,0,9,9,9,,,,,,,,,False,48,129,False,exp3.png,exp4.png,trial_left_image,1,exp3.png,4,exp3.png,exp4.png,0,4,reversed,correct,0.8698286327649686,1,valid_win,877.9994902999897,78,,,,,,,,,,,s_011,4,2020_Nov_25_1906,Reversal,3.2.4,60.03373896310945,
10,exp1.png,exp2.png,,,,,,,,,,,,,,,,,2,0,2,0,0,10,10,10,,,,,,,,,False,49,130,True,exp2.png,exp1.png,trial_left_image,1,exp2.png,4,exp2.png,exp1.png,1,1,non-reversed,correct,0.19088945761604603,0,invalid_lose,883.1646083999949,78,,,,,,,,,,,s_011,4,2020_Nov_25_1906,Reversal,3.2.4,60.03373896310945,
11,exp3.png,exp4.png,,,,,,,,,,,,,,,,,2,0,2,0,0,11,11,11,,,,,,,,,False,50,131,False,exp3.png,exp4.png,trial_right_image,-1,exp4.png,4,exp3.png,exp4.png,1,3,reversed,incorrect,0.8339543451679711,0,valid_lose,891.6283276000031,78,,,,,,,,,,,s_011,4,2020_Nov_25_1906,Reversal,3.2.4,60.03373896310945,
12,exp1.png,exp2.png,,,,,,,,,,,,,,,,,2,0,2,0,0,12,12,12,,,,,,,,,False,51,132,False,exp1.png,exp2.png,trial_right_image,-1,exp2.png,4,exp2.png,exp1.png,1,1,non-reversed,correct,0.8510284355203471,1,valid_win,897.9434285000025,79,,,,,,,,,,,s_011,4,2020_Nov_25_1906,Reversal,3.2.4,60.03373896310945,
13,exp3.png,exp4.png,,,,,,,,,,,,,,,,,2,0,2,0,0,13,13,13,,,,,,,,,False,52,133,False,exp3.png,exp4.png,trial_right_image,-1,exp4.png,4,exp3.png,exp4.png,1,3,reversed,incorrect,0.30377879278315256,0,valid_lose,903.341324699999,79,,,,,,,,,,,s_011,4,2020_Nov_25_1906,Reversal,3.2.4,60.03373896310945,
14,exp1.png,exp2.png,,,,,,,,,,,,,,,,,2,0,2,0,0,14,14,14,,,,,,,,,False,53,134,True,exp2.png,exp1.png,trial_left_image,1,exp2.png,4,exp2.png,exp1.png,1,1,non-reversed,correct,0.27161631240943973,1,valid_win,908.0060675999994,80,,,,,,,,,,,s_011,4,2020_Nov_25_1906,Reversal,3.2.4,60.03373896310945,
15,exp3.png,exp4.png,,,,,,,,,,,,,,,,,2,0,2,0,0,15,15,15,,,,,,,,,False,54,135,True,exp4.png,exp3.png,trial_right_image,-1,exp3.png,4,exp3.png,exp4.png,0,4,reversed,correct,0.37273687728802996,1,valid_win,912.7043507999915,81,,,,,,,,,,,s_011,4,2020_Nov_25_1906,Reversal,3.2.4,60.03373896310945,
16,exp1.png,exp2.png,,,,,,,,,,,,,,,,,2,0,2,0,0,16,16,16,,,,,,,,,False,55,136,False,exp1.png,exp2.png,trial_right_image,-1,exp2.png,4,exp2.png,exp1.png,1,1,non-reversed,correct,0.7138720719598842,1,valid_win,918.801900099992,82,,,,,,,,,,,s_011,4,2020_Nov_25_1906,Reversal,3.2.4,60.03373896310945,
17,exp3.png,exp4.png,,,,,,,,,,,,,,,,,2,0,2,0,0,17,17,17,,,,,,,,,False,56,137,False,exp3.png,exp4.png,trial_left_image,1,exp3.png,4,exp3.png,exp4.png,0,4,reversed,correct,0.7068318656321526,1,valid_win,923.7662335999921,83,,,,,,,,,,,s_011,4,2020_Nov_25_1906,Reversal,3.2.4,60.03373896310945,
18,exp1.png,exp2.png,,,,,,,,,,,,,,,,,2,0,2,0,0,18,18,18,,,,,,,,,False,57,138,False,exp1.png,exp2.png,trial_right_image,-1,exp2.png,4,exp2.png,exp1.png,1,1,non-reversed,correct,0.4517750744658168,1,valid_win,928.5646276999905,84,,,,,,,,,,,s_011,4,2020_Nov_25_1906,Reversal,3.2.4,60.03373896310945,
19,exp3.png,exp4.png,,,,,,,,,,,,,,,,,2,0,2,0,0,19,19,19,,,,,,,,,False,58,139,False,exp3.png,exp4.png,trial_left_image,1,exp3.png,4,exp3.png,exp4.png,0,4,reversed,correct,0.048989381407465116,0,invalid_lose,933.430694900002,84,,,,,,,,,,,s_011,4,2020_Nov_25_1906,Reversal,3.2.4,60.03373896310945,
20,exp1.png,exp2.png,,,,,,,,,,,,,,,,,2,0,2,0,0,20,20,20,,,,,,,,,False,59,140,True,exp2.png,exp1.png,trial_left_image,1,exp2.png,4,exp2.png,exp1.png,1,1,non-reversed,correct,0.778983671121982,1,valid_win,939.3789742999943,85,,,,,,,,,,,s_011,4,2020_Nov_25_1906,Reversal,3.2.4,60.03373896310945,
,,,,,,,,,,,,,,,,,,,2,0,2,0,,,,,0,0,0,0,,,,,,,,,,,,,,,,,,,,,,,,,,27,78,67,35,,,,,,,s_011,4,2020_Nov_25_1906,Reversal,3.2.4,60.03373896310945,
,,,,,,,,,,,,,,,,,,,,,,,,,,,,,,,,,,,,,,,,,,,,,,,,,,,,,,,85,,,,,,96,57,39,371.5271735999995,1,,,,,,,
