trial_index,trial_image1_file,trial_image2_file,learning_outer_loop.thisRepN,learning_outer_loop.thisTrialN,learning_outer_loop.thisN,learning_outer_loop.thisIndex,learning_inner_loop.thisRepN,learning_inner_loop.thisTrialN,learning_inner_loop.thisN,learning_inner_loop.thisIndex,learning_estimation_outer_loop.thisRepN,learning_estimation_outer_loop.thisTrialN,learning_estimation_outer_loop.thisN,learning_estimation_outer_loop.thisIndex,learning_estimation_inner_loop.thisRepN,learning_estimation_inner_loop.thisTrialN,learning_estimation_inner_loop.thisN,learning_estimation_inner_loop.thisIndex,reversal_outer_loop.thisRepN,reversal_outer_loop.thisTrialN,reversal_outer_loop.thisN,reversal_outer_loop.thisIndex,reversal_inner_loop.thisRepN,reversal_inner_loop.thisTrialN,reversal_inner_loop.thisN,reversal_inner_loop.thisIndex,reversal_estimation_outer_loop.thisRepN,reversal_estimation_outer_loop.thisTrialN,reversal_estimation_outer_loop.thisN,reversal_estimation_outer_loop.thisIndex,reversal_estimation_inner_loop.thisRepN,reversal_estimation_inner_loop.thisTrialN,reversal_estimation_inner_loop.thisN,reversal_estimation_inner_loop.thisIndex,skipped,total_trial_counter,trial_num,left_right_flip,left_image_file,right_image_file,clicked_stimulus_side,side,clicked_stimulus,version,high_prob_image_file,low_prob_image_file,choice_a,choice_b,pair_type,correct,trial_feedback_random,reward,trial_type,overall_time_after_trial,score,estimation_exp1.png,estimation_exp2.png,estimation_exp3.png,estimation_exp4.png,total_learning_time,total_correct,learning_correct,reversal_correct,total_reversal_time,extra_block,participant,ver,date,expName,psychopyVersion,frameRate,
0,exp1.png,exp2.png,0,0,0,0,0,0,0,0,,,,,,,,,,,,,,,,,,,,,,,,,False,0,1,False,exp1.png,exp2.png,trial_left_image,1,exp1.png,1,exp1.png,exp2.png,1,3,reversed,correct,0.1549261426233508,0,invalid_lose,13.425446199951693,0,,,,,,,,,,,s_017,1,2020_Dec_08_0902,Reversal,3.2.4,60.005820573988345,
1,exp3.png,exp4.png,0,0,0,0,0,1,1,1,,,,,,,,,,,,,,,,,,,,,,,,,False,1,2,True,exp4.png,exp3.png,trial_right_image,-1,exp3.png,1,exp3.png,exp4.png,1,1,non-reversed,correct,0.8377759508020269,1,valid_win,20.256598999956623,1,,,,,,,,,,,s_017,1,2020_Dec_08_0902,Reversal,3.2.4,60.005820573988345,
2,exp1.png,exp2.png,0,0,0,0,0,2,2,2,,,,,,,,,,,,,,,,,,,,,,,,,False,2,3,False,exp1.png,exp2.png,trial_left_image,1,exp1.png,1,exp1.png,exp2.png,1,3,reversed,correct,0.6371745216918678,1,valid_win,31.769211699953303,2,,,,,,,,,,,s_017,1,2020_Dec_08_0902,Reversal,3.2.4,60.005820573988345,
3,exp3.png,exp4.png,0,0,0,0,0,3,3,3,,,,,,,,,,,,,,,,,,,,,,,,,False,3,4,True,exp4.png,exp3.png,trial_right_image,-1,exp3.png,1,exp3.png,exp4.png,1,1,non-reversed,correct,0.4165978928395875,1,valid_win,37.6825308999978,3,,,,,,,,,,,s_017,1,2020_Dec_08_0902,Reversal,3.2.4,60.005820573988345,
4,exp1.png,exp2.png,0,0,0,0,0,4,4,4,,,,,,,,,,,,,,,,,,,,,,,,,False,4,5,False,exp1.png,exp2.png,trial_left_image,1,exp1.png,1,exp1.png,exp2.png,1,3,reversed,correct,0.20731689385521135,0,invalid_lose,43.66526649997104,3,,,,,,,,,,,s_017,1,2020_Dec_08_0902,Reversal,3.2.4,60.005820573988345,
5,exp3.png,exp4.png,0,0,0,0,0,5,5,5,,,,,,,,,,,,,,,,,,,,,,,,,False,5,6,False,exp3.png,exp4.png,trial_right_image,-1,exp4.png,1,exp3.png,exp4.png,0,2,non-reversed,incorrect,0.7687400668910048,0,valid_lose,50.04509719996713,3,,,,,,,,,,,s_017,1,2020_Dec_08_0902,Reversal,3.2.4,60.005820573988345,
6,exp1.png,exp2.png,0,0,0,0,0,6,6,6,,,,,,,,,,,,,,,,,,,,,,,,,False,6,7,False,exp1.png,exp2.png,trial_left_image,1,exp1.png,1,exp1.png,exp2.png,1,3,reversed,correct,0.8240982114926433,1,valid_win,55.51092589995824,4,,,,,,,,,,,s_017,1,2020_Dec_08_0902,Reversal,3.2.4,60.005820573988345,
7,exp3.png,exp4.png,0,0,0,0,0,7,7,7,,,,,,,,,,,,,,,,,,,,,,,,,False,7,8,True,exp4.png,exp3.png,trial_left_image,1,exp4.png,1,exp3.png,exp4.png,0,2,non-reversed,incorrect,0.7797457781152981,0,valid_lose,67.95654739998281,4,,,,,,,,,,,s_017,1,2020_Dec_08_0902,Reversal,3.2.4,60.005820573988345,
8,exp1.png,exp2.png,0,0,0,0,0,8,8,8,,,,,,,,,,,,,,,,,,,,,,,,,False,8,9,True,exp2.png,exp1.png,trial_right_image,-1,exp1.png,1,exp1.png,exp2.png,1,3,reversed,correct,0.5337634278222024,1,valid_win,72.83815189998131,5,,,,,,,,,,,s_017,1,2020_Dec_08_0902,Reversal,3.2.4,60.005820573988345,
9,exp3.png,exp4.png,0,0,0,0,0,9,9,9,,,,,,,,,,,,,,,,,,,,,,,,,False,9,10,True,exp4.png,exp3.png,trial_right_image,-1,exp3.png,1,exp3.png,exp4.png,1,1,non-reversed,correct,0.21610812665445145,0,invalid_lose,78.41998969996348,5,,,,,,,,,,,s_017,1,2020_Dec_08_0902,Reversal,3.2.4,60.005820573988345,
10,exp1.png,exp2.png,0,0,0,0,0,10,10,10,,,,,,,,,,,,,,,,,,,,,,,,,False,10,11,True,exp2.png,exp1.png,trial_right_image,-1,exp1.png,1,exp1.png,exp2.png,1,3,reversed,correct,0.6126934752447227,1,valid_win,85.46792079997249,6,,,,,,,,,,,s_017,1,2020_Dec_08_0902,Reversal,3.2.4,60.005820573988345,
11,exp3.png,exp4.png,0,0,0,0,0,11,11,11,,,,,,,,,,,,,,,,,,,,,,,,,False,11,12,True,exp4.png,exp3.png,trial_left_image,1,exp4.png,1,exp3.png,exp4.png,0,2,non-reversed,incorrect,0.006904384599159874,1,invalid_win,100.22866409999551,7,,,,,,,,,,,s_017,1,2020_Dec_08_0902,Reversal,3.2.4,60.005820573988345,
12,exp1.png,exp2.png,0,0,0,0,0,12,12,12,,,,,,,,,,,,,,,,,,,,,,,,,False,12,13,False,exp1.png,exp2.png,trial_left_image,1,exp1.png,1,exp1.png,exp2.png,1,3,reversed,correct,0.161031081985612,0,invalid_lose,109.22616889997153,7,,,,,,,,,,,s_017,1,2020_Dec_08_0902,Reversal,3.2.4,60.005820573988345,
13,exp3.png,exp4.png,0,0,0,0,0,13,13,13,,,,,,,,,,,,,,,,,,,,,,,,,False,13,14,True,exp4.png,exp3.png,trial_left_image,1,exp4.png,1,exp3.png,exp4.png,0,2,non-reversed,incorrect,0.38438028727583917,0,valid_lose,117.15748209995218,7,,,,,,,,,,,s_017,1,2020_Dec_08_0902,Reversal,3.2.4,60.005820573988345,
14,exp1.png,exp2.png,0,0,0,0,0,14,14,14,,,,,,,,,,,,,,,,,,,,,,,,,False,14,15,False,exp1.png,exp2.png,trial_left_image,1,exp1.png,1,exp1.png,exp2.png,1,3,reversed,correct,0.6022066849286359,1,valid_win,124.67100299999584,8,,,,,,,,,,,s_017,1,2020_Dec_08_0902,Reversal,3.2.4,60.005820573988345,
15,exp3.png,exp4.png,0,0,0,0,0,15,15,15,,,,,,,,,,,,,,,,,,,,,,,,,False,15,16,False,exp3.png,exp4.png,trial_left_image,1,exp3.png,1,exp3.png,exp4.png,1,1,non-reversed,correct,0.48233639136434747,1,valid_win,131.2850001999759,9,,,,,,,,,,,s_017,1,2020_Dec_08_0902,Reversal,3.2.4,60.005820573988345,
16,exp1.png,exp2.png,0,0,0,0,0,16,16,16,,,,,,,,,,,,,,,,,,,,,,,,,False,16,17,False,exp1.png,exp2.png,trial_left_image,1,exp1.png,1,exp1.png,exp2.png,1,3,reversed,correct,0.9666437133404878,1,valid_win,139.51552729995456,10,,,,,,,,,,,s_017,1,2020_Dec_08_0902,Reversal,3.2.4,60.005820573988345,
17,exp3.png,exp4.png,0,0,0,0,0,17,17,17,,,,,,,,,,,,,,,,,,,,,,,,,False,17,18,False,exp3.png,exp4.png,trial_left_image,1,exp3.png,1,exp3.png,exp4.png,1,1,non-reversed,correct,0.42874218099002326,1,valid_win,148.1951023999718,11,,,,,,,,,,,s_017,1,2020_Dec_08_0902,Reversal,3.2.4,60.005820573988345,
18,exp1.png,exp2.png,0,0,0,0,0,18,18,18,,,,,,,,,,,,,,,,,,,,,,,,,False,18,19,True,exp2.png,exp1.png,trial_right_image,-1,exp1.png,1,exp1.png,exp2.png,1,3,reversed,correct,0.6085751245517239,1,valid_win,155.79507589997957,12,,,,,,,,,,,s_017,1,2020_Dec_08_0902,Reversal,3.2.4,60.005820573988345,
19,exp3.png,exp4.png,0,0,0,0,0,19,19,19,,,,,,,,,,,,,,,,,,,,,,,,,False,19,20,True,exp4.png,exp3.png,trial_right_image,-1,exp3.png,1,exp3.png,exp4.png,1,1,non-reversed,correct,0.19001125036622746,0,invalid_lose,163.77440449997084,12,,,,,,,,,,,s_017,1,2020_Dec_08_0902,Reversal,3.2.4,60.005820573988345,
20,exp1.png,exp2.png,0,0,0,0,0,20,20,20,,,,,,,,,,,,,,,,,,,,,,,,,True,,,,,,,,,,,,,,,,,,,,,,,,,,,,,,,s_017,1,2020_Dec_08_0902,Reversal,3.2.4,60.005820573988345,
,,,0,0,0,0,,,,,0,0,0,0,,,,,,,,,,,,,,,,,,,,,,,,,,,,,,,,,,,,,,,,,,43,14,68,17,,,,,,,s_017,1,2020_Dec_08_0902,Reversal,3.2.4,60.005820573988345,
0,exp1.png,exp2.png,1,0,1,0,0,0,0,0,,,,,,,,,,,,,,,,,,,,,,,,,False,20,21,False,exp1.png,exp2.png,trial_left_image,1,exp1.png,1,exp1.png,exp2.png,1,3,reversed,correct,0.9615129328826783,1,valid_win,247.2299835999729,13,,,,,,,,,,,s_017,1,2020_Dec_08_0902,Reversal,3.2.4,60.005820573988345,
1,exp3.png,exp4.png,1,0,1,0,0,1,1,1,,,,,,,,,,,,,,,,,,,,,,,,,False,21,22,True,exp4.png,exp3.png,trial_right_image,-1,exp3.png,1,exp3.png,exp4.png,1,1,non-reversed,correct,0.6454242960682065,1,valid_win,253.3438562999945,14,,,,,,,,,,,s_017,1,2020_Dec_08_0902,Reversal,3.2.4,60.005820573988345,
2,exp1.png,exp2.png,1,0,1,0,0,2,2,2,,,,,,,,,,,,,,,,,,,,,,,,,False,22,23,False,exp1.png,exp2.png,trial_left_image,1,exp1.png,1,exp1.png,exp2.png,1,3,reversed,correct,0.991272161069534,1,valid_win,258.29284249997,15,,,,,,,,,,,s_017,1,2020_Dec_08_0902,Reversal,3.2.4,60.005820573988345,
3,exp3.png,exp4.png,1,0,1,0,0,3,3,3,,,,,,,,,,,,,,,,,,,,,,,,,False,23,24,False,exp3.png,exp4.png,trial_left_image,1,exp3.png,1,exp3.png,exp4.png,1,1,non-reversed,correct,0.764481578628884,1,valid_win,263.44105219998164,16,,,,,,,,,,,s_017,1,2020_Dec_08_0902,Reversal,3.2.4,60.005820573988345,
4,exp1.png,exp2.png,1,0,1,0,0,4,4,4,,,,,,,,,,,,,,,,,,,,,,,,,False,24,25,False,exp1.png,exp2.png,trial_left_image,1,exp1.png,1,exp1.png,exp2.png,1,3,reversed,correct,0.36478608706236615,1,valid_win,268.90504389995476,17,,,,,,,,,,,s_017,1,2020_Dec_08_0902,Reversal,3.2.4,60.005820573988345,
5,exp3.png,exp4.png,1,0,1,0,0,5,5,5,,,,,,,,,,,,,,,,,,,,,,,,,False,25,26,False,exp3.png,exp4.png,trial_left_image,1,exp3.png,1,exp3.png,exp4.png,1,1,non-reversed,correct,0.398666355449099,1,valid_win,273.78734129999066,18,,,,,,,,,,,s_017,1,2020_Dec_08_0902,Reversal,3.2.4,60.005820573988345,
6,exp1.png,exp2.png,1,0,1,0,0,6,6,6,,,,,,,,,,,,,,,,,,,,,,,,,False,26,27,True,exp2.png,exp1.png,trial_right_image,-1,exp1.png,1,exp1.png,exp2.png,1,3,reversed,correct,0.8443755377715346,1,valid_win,278.43509839999024,19,,,,,,,,,,,s_017,1,2020_Dec_08_0902,Reversal,3.2.4,60.005820573988345,
7,exp3.png,exp4.png,1,0,1,0,0,7,7,7,,,,,,,,,,,,,,,,,,,,,,,,,False,27,28,True,exp4.png,exp3.png,trial_right_image,-1,exp3.png,1,exp3.png,exp4.png,1,1,non-reversed,correct,0.841997059600928,1,valid_win,282.95073969999794,20,,,,,,,,,,,s_017,1,2020_Dec_08_0902,Reversal,3.2.4,60.005820573988345,
8,exp1.png,exp2.png,1,0,1,0,0,8,8,8,,,,,,,,,,,,,,,,,,,,,,,,,False,28,29,False,exp1.png,exp2.png,trial_right_image,-1,exp2.png,1,exp1.png,exp2.png,0,4,reversed,incorrect,0.5824111313759699,0,valid_lose,285.86346969997976,20,,,,,,,,,,,s_017,1,2020_Dec_08_0902,Reversal,3.2.4,60.005820573988345,
9,exp3.png,exp4.png,1,0,1,0,0,9,9,9,,,,,,,,,,,,,,,,,,,,,,,,,False,29,30,False,exp3.png,exp4.png,trial_left_image,1,exp3.png,1,exp3.png,exp4.png,1,1,non-reversed,correct,0.9349660267804174,1,valid_win,291.11356099997647,21,,,,,,,,,,,s_017,1,2020_Dec_08_0902,Reversal,3.2.4,60.005820573988345,
10,exp1.png,exp2.png,1,0,1,0,0,10,10,10,,,,,,,,,,,,,,,,,,,,,,,,,False,30,31,True,exp2.png,exp1.png,trial_right_image,-1,exp1.png,1,exp1.png,exp2.png,1,3,reversed,correct,0.18852875586589035,0,invalid_lose,295.7133358999854,21,,,,,,,,,,,s_017,1,2020_Dec_08_0902,Reversal,3.2.4,60.005820573988345,
11,exp3.png,exp4.png,1,0,1,0,0,11,11,11,,,,,,,,,,,,,,,,,,,,,,,,,False,31,32,False,exp3.png,exp4.png,trial_left_image,1,exp3.png,1,exp3.png,exp4.png,1,1,non-reversed,correct,0.14241511762541625,0,invalid_lose,300.32813489995897,21,,,,,,,,,,,s_017,1,2020_Dec_08_0902,Reversal,3.2.4,60.005820573988345,
12,exp1.png,exp2.png,1,0,1,0,0,12,12,12,,,,,,,,,,,,,,,,,,,,,,,,,False,32,33,True,exp2.png,exp1.png,trial_right_image,-1,exp1.png,1,exp1.png,exp2.png,1,3,reversed,correct,0.30094764203383284,1,valid_win,304.4938148999936,22,,,,,,,,,,,s_017,1,2020_Dec_08_0902,Reversal,3.2.4,60.005820573988345,
13,exp3.png,exp4.png,1,0,1,0,0,13,13,13,,,,,,,,,,,,,,,,,,,,,,,,,False,33,34,True,exp4.png,exp3.png,trial_right_image,-1,exp3.png,1,exp3.png,exp4.png,1,1,non-reversed,correct,0.8482755845945452,1,valid_win,311.75648539996473,23,,,,,,,,,,,s_017,1,2020_Dec_08_0902,Reversal,3.2.4,60.005820573988345,
14,exp1.png,exp2.png,1,0,1,0,0,14,14,14,,,,,,,,,,,,,,,,,,,,,,,,,False,34,35,False,exp1.png,exp2.png,trial_left_image,1,exp1.png,1,exp1.png,exp2.png,1,3,reversed,correct,0.3452644215522779,1,valid_win,316.5390598999802,24,,,,,,,,,,,s_017,1,2020_Dec_08_0902,Reversal,3.2.4,60.005820573988345,
15,exp3.png,exp4.png,1,0,1,0,0,15,15,15,,,,,,,,,,,,,,,,,,,,,,,,,False,35,36,True,exp4.png,exp3.png,trial_right_image,-1,exp3.png,1,exp3.png,exp4.png,1,1,non-reversed,correct,0.7675655460227907,1,valid_win,322.42117479996523,25,,,,,,,,,,,s_017,1,2020_Dec_08_0902,Reversal,3.2.4,60.005820573988345,
16,exp1.png,exp2.png,1,0,1,0,0,16,16,16,,,,,,,,,,,,,,,,,,,,,,,,,False,36,37,True,exp2.png,exp1.png,trial_right_image,-1,exp1.png,1,exp1.png,exp2.png,1,3,reversed,correct,0.33503272262163386,1,valid_win,328.48543119995156,26,,,,,,,,,,,s_017,1,2020_Dec_08_0902,Reversal,3.2.4,60.005820573988345,
17,exp3.png,exp4.png,1,0,1,0,0,17,17,17,,,,,,,,,,,,,,,,,,,,,,,,,False,37,38,True,exp4.png,exp3.png,trial_right_image,-1,exp3.png,1,exp3.png,exp4.png,1,1,non-reversed,correct,0.347303354749816,1,valid_win,333.0999038000009,27,,,,,,,,,,,s_017,1,2020_Dec_08_0902,Reversal,3.2.4,60.005820573988345,
18,exp1.png,exp2.png,1,0,1,0,0,18,18,18,,,,,,,,,,,,,,,,,,,,,,,,,False,38,39,True,exp2.png,exp1.png,trial_right_image,-1,exp1.png,1,exp1.png,exp2.png,1,3,reversed,correct,0.42592978366498335,1,valid_win,337.38112599996384,28,,,,,,,,,,,s_017,1,2020_Dec_08_0902,Reversal,3.2.4,60.005820573988345,
19,exp3.png,exp4.png,1,0,1,0,0,19,19,19,,,,,,,,,,,,,,,,,,,,,,,,,False,39,40,False,exp3.png,exp4.png,trial_left_image,1,exp3.png,1,exp3.png,exp4.png,1,1,non-reversed,correct,0.9207561553194915,1,valid_win,342.54734079999616,29,,,,,,,,,,,s_017,1,2020_Dec_08_0902,Reversal,3.2.4,60.005820573988345,
20,exp1.png,exp2.png,1,0,1,0,0,20,20,20,,,,,,,,,,,,,,,,,,,,,,,,,True,,,,,,,,,,,,,,,,,,,,,,,,,,,,,,,s_017,1,2020_Dec_08_0902,Reversal,3.2.4,60.005820573988345,
,,,1,0,1,0,,,,,0,0,0,0,,,,,,,,,,,,,,,,,,,,,,,,,,,,,,,,,,,,,,,,,,79,24,70,24,,,,,,,s_017,1,2020_Dec_08_0902,Reversal,3.2.4,60.005820573988345,
0,exp1.png,exp2.png,2,0,2,0,0,0,0,0,,,,,,,,,,,,,,,,,,,,,,,,,False,40,41,False,exp1.png,exp2.png,trial_left_image,1,exp1.png,1,exp1.png,exp2.png,1,3,reversed,correct,0.5075132545803503,1,valid_win,365.5558318999829,30,,,,,,,,,,,s_017,1,2020_Dec_08_0902,Reversal,3.2.4,60.005820573988345,
1,exp3.png,exp4.png,2,0,2,0,0,1,1,1,,,,,,,,,,,,,,,,,,,,,,,,,False,41,42,True,exp4.png,exp3.png,trial_right_image,-1,exp3.png,1,exp3.png,exp4.png,1,1,non-reversed,correct,0.37861568194940687,1,valid_win,371.6039730999619,31,,,,,,,,,,,s_017,1,2020_Dec_08_0902,Reversal,3.2.4,60.005820573988345,
2,exp1.png,exp2.png,2,0,2,0,0,2,2,2,,,,,,,,,,,,,,,,,,,,,,,,,False,42,43,False,exp1.png,exp2.png,trial_left_image,1,exp1.png,1,exp1.png,exp2.png,1,3,reversed,correct,0.189428918437333,0,invalid_lose,376.10213829996064,31,,,,,,,,,,,s_017,1,2020_Dec_08_0902,Reversal,3.2.4,60.005820573988345,
3,exp3.png,exp4.png,2,0,2,0,0,3,3,3,,,,,,,,,,,,,,,,,,,,,,,,,False,43,44,False,exp3.png,exp4.png,trial_left_image,1,exp3.png,1,exp3.png,exp4.png,1,1,non-reversed,correct,0.28109032462131844,1,valid_win,382.6165263999719,32,,,,,,,,,,,s_017,1,2020_Dec_08_0902,Reversal,3.2.4,60.005820573988345,
4,exp1.png,exp2.png,2,0,2,0,0,4,4,4,,,,,,,,,,,,,,,,,,,,,,,,,False,44,45,True,exp2.png,exp1.png,trial_right_image,-1,exp1.png,1,exp1.png,exp2.png,1,3,reversed,correct,0.829880143877767,1,valid_win,386.84908559999894,33,,,,,,,,,,,s_017,1,2020_Dec_08_0902,Reversal,3.2.4,60.005820573988345,
5,exp3.png,exp4.png,2,0,2,0,0,5,5,5,,,,,,,,,,,,,,,,,,,,,,,,,False,45,46,True,exp4.png,exp3.png,trial_right_image,-1,exp3.png,1,exp3.png,exp4.png,1,1,non-reversed,correct,0.7395317036544713,1,valid_win,393.57981899997685,34,,,,,,,,,,,s_017,1,2020_Dec_08_0902,Reversal,3.2.4,60.005820573988345,
6,exp1.png,exp2.png,2,0,2,0,0,6,6,6,,,,,,,,,,,,,,,,,,,,,,,,,False,46,47,False,exp1.png,exp2.png,trial_left_image,1,exp1.png,1,exp1.png,exp2.png,1,3,reversed,correct,0.6377832043102909,1,valid_win,399.26124379999237,35,,,,,,,,,,,s_017,1,2020_Dec_08_0902,Reversal,3.2.4,60.005820573988345,
7,exp3.png,exp4.png,2,0,2,0,0,7,7,7,,,,,,,,,,,,,,,,,,,,,,,,,False,47,48,False,exp3.png,exp4.png,trial_left_image,1,exp3.png,1,exp3.png,exp4.png,1,1,non-reversed,correct,0.6525887182154576,1,valid_win,404.3266988999676,36,,,,,,,,,,,s_017,1,2020_Dec_08_0902,Reversal,3.2.4,60.005820573988345,
8,exp1.png,exp2.png,2,0,2,0,0,8,8,8,,,,,,,,,,,,,,,,,,,,,,,,,False,48,49,False,exp1.png,exp2.png,trial_left_image,1,exp1.png,1,exp1.png,exp2.png,1,3,reversed,correct,0.823586335475802,1,valid_win,408.70694829995045,37,,,,,,,,,,,s_017,1,2020_Dec_08_0902,Reversal,3.2.4,60.005820573988345,
9,exp3.png,exp4.png,2,0,2,0,0,9,9,9,,,,,,,,,,,,,,,,,,,,,,,,,False,49,50,False,exp3.png,exp4.png,trial_left_image,1,exp3.png,1,exp3.png,exp4.png,1,1,non-reversed,correct,0.8150732109034053,1,valid_win,412.92251780000515,38,,,,,,,,,,,s_017,1,2020_Dec_08_0902,Reversal,3.2.4,60.005820573988345,
10,exp1.png,exp2.png,2,0,2,0,0,10,10,10,,,,,,,,,,,,,,,,,,,,,,,,,False,50,51,False,exp1.png,exp2.png,trial_left_image,1,exp1.png,1,exp1.png,exp2.png,1,3,reversed,correct,0.404635899276618,1,valid_win,417.20538719999604,39,,,,,,,,,,,s_017,1,2020_Dec_08_0902,Reversal,3.2.4,60.005820573988345,
11,exp3.png,exp4.png,2,0,2,0,0,11,11,11,,,,,,,,,,,,,,,,,,,,,,,,,False,51,52,False,exp3.png,exp4.png,trial_left_image,1,exp3.png,1,exp3.png,exp4.png,1,1,non-reversed,correct,0.21033329126637135,0,invalid_lose,421.55337330000475,39,,,,,,,,,,,s_017,1,2020_Dec_08_0902,Reversal,3.2.4,60.005820573988345,
12,exp1.png,exp2.png,2,0,2,0,0,12,12,12,,,,,,,,,,,,,,,,,,,,,,,,,False,52,53,True,exp2.png,exp1.png,trial_right_image,-1,exp1.png,1,exp1.png,exp2.png,1,3,reversed,correct,0.21567996765044362,0,invalid_lose,426.88474139996106,39,,,,,,,,,,,s_017,1,2020_Dec_08_0902,Reversal,3.2.4,60.005820573988345,
13,exp3.png,exp4.png,2,0,2,0,0,13,13,13,,,,,,,,,,,,,,,,,,,,,,,,,False,53,54,True,exp4.png,exp3.png,trial_right_image,-1,exp3.png,1,exp3.png,exp4.png,1,1,non-reversed,correct,0.13022299246954927,0,invalid_lose,432.6650549999904,39,,,,,,,,,,,s_017,1,2020_Dec_08_0902,Reversal,3.2.4,60.005820573988345,
14,exp1.png,exp2.png,2,0,2,0,0,14,14,14,,,,,,,,,,,,,,,,,,,,,,,,,False,54,55,True,exp2.png,exp1.png,trial_right_image,-1,exp1.png,1,exp1.png,exp2.png,1,3,reversed,correct,0.9341232644738195,1,valid_win,439.2812297999626,40,,,,,,,,,,,s_017,1,2020_Dec_08_0902,Reversal,3.2.4,60.005820573988345,
15,exp3.png,exp4.png,2,0,2,0,0,15,15,15,,,,,,,,,,,,,,,,,,,,,,,,,False,55,56,True,exp4.png,exp3.png,trial_right_image,-1,exp3.png,1,exp3.png,exp4.png,1,1,non-reversed,correct,0.19904073930981658,0,invalid_lose,444.4459828999825,40,,,,,,,,,,,s_017,1,2020_Dec_08_0902,Reversal,3.2.4,60.005820573988345,
16,exp1.png,exp2.png,2,0,2,0,0,16,16,16,,,,,,,,,,,,,,,,,,,,,,,,,False,56,57,True,exp2.png,exp1.png,trial_right_image,-1,exp1.png,1,exp1.png,exp2.png,1,3,reversed,correct,0.879559880990802,1,valid_win,449.144123999984,41,,,,,,,,,,,s_017,1,2020_Dec_08_0902,Reversal,3.2.4,60.005820573988345,
17,exp3.png,exp4.png,2,0,2,0,0,17,17,17,,,,,,,,,,,,,,,,,,,,,,,,,False,57,58,False,exp3.png,exp4.png,trial_left_image,1,exp3.png,1,exp3.png,exp4.png,1,1,non-reversed,correct,0.7926058360450229,1,valid_win,453.67496279999614,42,,,,,,,,,,,s_017,1,2020_Dec_08_0902,Reversal,3.2.4,60.005820573988345,
18,exp1.png,exp2.png,2,0,2,0,0,18,18,18,,,,,,,,,,,,,,,,,,,,,,,,,False,58,59,True,exp2.png,exp1.png,trial_right_image,-1,exp1.png,1,exp1.png,exp2.png,1,3,reversed,correct,0.4654364559244215,1,valid_win,458.2575087999576,43,,,,,,,,,,,s_017,1,2020_Dec_08_0902,Reversal,3.2.4,60.005820573988345,
19,exp3.png,exp4.png,2,0,2,0,0,19,19,19,,,,,,,,,,,,,,,,,,,,,,,,,False,59,60,True,exp4.png,exp3.png,trial_right_image,-1,exp3.png,1,exp3.png,exp4.png,1,1,non-reversed,correct,0.05708934454456116,0,invalid_lose,464.88875059998827,43,,,,,,,,,,,s_017,1,2020_Dec_08_0902,Reversal,3.2.4,60.005820573988345,
20,exp1.png,exp2.png,2,0,2,0,0,20,20,20,,,,,,,,,,,,,,,,,,,,,,,,,True,,,,,,,,,,,,,,,,,,,,,,,,,,,,,,,s_017,1,2020_Dec_08_0902,Reversal,3.2.4,60.005820573988345,
,,,2,0,2,0,,,,,0,0,0,0,,,,,,,,,,,,,,,,,,,,,,,,,,,,,,,,,,,,,,,,,,56,36,61,39,,,,,,,s_017,1,2020_Dec_08_0902,Reversal,3.2.4,60.005820573988345,
0,exp1.png,exp2.png,,,,,,,,,,,,,,,,,0,0,0,0,0,0,0,0,,,,,,,,,False,0,61,True,exp2.png,exp1.png,trial_right_image,-1,exp1.png,1,exp2.png,exp1.png,1,3,reversed,incorrect,0.6993684559795482,0,valid_lose,481.83263859996805,43,,,,,479.87382109998725,,,,,,s_017,1,2020_Dec_08_0902,Reversal,3.2.4,60.005820573988345,
1,exp3.png,exp4.png,,,,,,,,,,,,,,,,,0,0,0,0,0,1,1,1,,,,,,,,,False,1,62,True,exp4.png,exp3.png,trial_right_image,-1,exp3.png,1,exp3.png,exp4.png,1,1,non-reversed,correct,0.25624283458298314,1,valid_win,488.56438389996765,44,,,,,,,,,,,s_017,1,2020_Dec_08_0902,Reversal,3.2.4,60.005820573988345,
2,exp1.png,exp2.png,,,,,,,,,,,,,,,,,0,0,0,0,0,2,2,2,,,,,,,,,False,2,63,False,exp1.png,exp2.png,trial_left_image,1,exp1.png,1,exp2.png,exp1.png,1,3,reversed,incorrect,0.33303944081616565,0,valid_lose,492.8450185999973,44,,,,,,,,,,,s_017,1,2020_Dec_08_0902,Reversal,3.2.4,60.005820573988345,
3,exp3.png,exp4.png,,,,,,,,,,,,,,,,,0,0,0,0,0,3,3,3,,,,,,,,,False,3,64,False,exp3.png,exp4.png,trial_left_image,1,exp3.png,1,exp3.png,exp4.png,1,1,non-reversed,correct,0.18988683694047448,0,invalid_lose,497.4442821999546,44,,,,,,,,,,,s_017,1,2020_Dec_08_0902,Reversal,3.2.4,60.005820573988345,
4,exp1.png,exp2.png,,,,,,,,,,,,,,,,,0,0,0,0,0,4,4,4,,,,,,,,,False,4,65,False,exp1.png,exp2.png,trial_left_image,1,exp1.png,1,exp2.png,exp1.png,1,3,reversed,incorrect,0.10555772230871019,1,invalid_win,501.7925229999819,45,,,,,,,,,,,s_017,1,2020_Dec_08_0902,Reversal,3.2.4,60.005820573988345,
5,exp3.png,exp4.png,,,,,,,,,,,,,,,,,0,0,0,0,0,5,5,5,,,,,,,,,False,5,66,False,exp3.png,exp4.png,trial_left_image,1,exp3.png,1,exp3.png,exp4.png,1,1,non-reversed,correct,0.2394284630737985,0,invalid_lose,505.89135970000643,45,,,,,,,,,,,s_017,1,2020_Dec_08_0902,Reversal,3.2.4,60.005820573988345,
6,exp1.png,exp2.png,,,,,,,,,,,,,,,,,0,0,0,0,0,6,6,6,,,,,,,,,False,6,67,False,exp1.png,exp2.png,trial_left_image,1,exp1.png,1,exp2.png,exp1.png,1,3,reversed,incorrect,0.021848094032351995,1,invalid_win,509.99010249995627,46,,,,,,,,,,,s_017,1,2020_Dec_08_0902,Reversal,3.2.4,60.005820573988345,
7,exp3.png,exp4.png,,,,,,,,,,,,,,,,,0,0,0,0,0,7,7,7,,,,,,,,,False,7,68,True,exp4.png,exp3.png,trial_right_image,-1,exp3.png,1,exp3.png,exp4.png,1,1,non-reversed,correct,0.8712113989188786,1,valid_win,514.372146299982,47,,,,,,,,,,,s_017,1,2020_Dec_08_0902,Reversal,3.2.4,60.005820573988345,
8,exp1.png,exp2.png,,,,,,,,,,,,,,,,,0,0,0,0,0,8,8,8,,,,,,,,,False,8,69,False,exp1.png,exp2.png,trial_left_image,1,exp1.png,1,exp2.png,exp1.png,1,3,reversed,incorrect,0.06882031248370679,1,invalid_win,519.0710016000085,48,,,,,,,,,,,s_017,1,2020_Dec_08_0902,Reversal,3.2.4,60.005820573988345,
9,exp3.png,exp4.png,,,,,,,,,,,,,,,,,0,0,0,0,0,9,9,9,,,,,,,,,False,9,70,True,exp4.png,exp3.png,trial_right_image,-1,exp3.png,1,exp3.png,exp4.png,1,1,non-reversed,correct,0.7527956425236626,1,valid_win,523.4025505000027,49,,,,,,,,,,,s_017,1,2020_Dec_08_0902,Reversal,3.2.4,60.005820573988345,
10,exp1.png,exp2.png,,,,,,,,,,,,,,,,,0,0,0,0,0,10,10,10,,,,,,,,,False,10,71,True,exp2.png,exp1.png,trial_right_image,-1,exp1.png,1,exp2.png,exp1.png,1,3,reversed,incorrect,0.8066447746212124,0,valid_lose,528.3841628999799,49,,,,,,,,,,,s_017,1,2020_Dec_08_0902,Reversal,3.2.4,60.005820573988345,
11,exp3.png,exp4.png,,,,,,,,,,,,,,,,,0,0,0,0,0,11,11,11,,,,,,,,,False,11,72,False,exp3.png,exp4.png,trial_left_image,1,exp3.png,1,exp3.png,exp4.png,1,1,non-reversed,correct,0.47183555320626647,1,valid_win,532.7647040999727,50,,,,,,,,,,,s_017,1,2020_Dec_08_0902,Reversal,3.2.4,60.005820573988345,
12,exp1.png,exp2.png,,,,,,,,,,,,,,,,,0,0,0,0,0,12,12,12,,,,,,,,,False,12,73,True,exp2.png,exp1.png,trial_right_image,-1,exp1.png,1,exp2.png,exp1.png,1,3,reversed,incorrect,0.4654479583015839,0,valid_lose,536.8970133999828,50,,,,,,,,,,,s_017,1,2020_Dec_08_0902,Reversal,3.2.4,60.005820573988345,
13,exp3.png,exp4.png,,,,,,,,,,,,,,,,,0,0,0,0,0,13,13,13,,,,,,,,,False,13,74,False,exp3.png,exp4.png,trial_left_image,1,exp3.png,1,exp3.png,exp4.png,1,1,non-reversed,correct,0.25271288485208787,1,valid_win,541.5291731999605,51,,,,,,,,,,,s_017,1,2020_Dec_08_0902,Reversal,3.2.4,60.005820573988345,
14,exp1.png,exp2.png,,,,,,,,,,,,,,,,,0,0,0,0,0,14,14,14,,,,,,,,,False,14,75,True,exp2.png,exp1.png,trial_right_image,-1,exp1.png,1,exp2.png,exp1.png,1,3,reversed,incorrect,0.2783981112349938,0,valid_lose,545.7270029999781,51,,,,,,,,,,,s_017,1,2020_Dec_08_0902,Reversal,3.2.4,60.005820573988345,
15,exp3.png,exp4.png,,,,,,,,,,,,,,,,,0,0,0,0,0,15,15,15,,,,,,,,,False,15,76,False,exp3.png,exp4.png,trial_left_image,1,exp3.png,1,exp3.png,exp4.png,1,1,non-reversed,correct,0.3326404907868279,1,valid_win,550.227004299988,52,,,,,,,,,,,s_017,1,2020_Dec_08_0902,Reversal,3.2.4,60.005820573988345,
16,exp1.png,exp2.png,,,,,,,,,,,,,,,,,0,0,0,0,0,16,16,16,,,,,,,,,False,16,77,True,exp2.png,exp1.png,trial_right_image,-1,exp1.png,1,exp2.png,exp1.png,1,3,reversed,incorrect,0.16789237731434037,1,invalid_win,554.3590779999504,53,,,,,,,,,,,s_017,1,2020_Dec_08_0902,Reversal,3.2.4,60.005820573988345,
17,exp3.png,exp4.png,,,,,,,,,,,,,,,,,0,0,0,0,0,17,17,17,,,,,,,,,False,17,78,True,exp4.png,exp3.png,trial_right_image,-1,exp3.png,1,exp3.png,exp4.png,1,1,non-reversed,correct,0.49902085737500546,1,valid_win,559.9063042000053,54,,,,,,,,,,,s_017,1,2020_Dec_08_0902,Reversal,3.2.4,60.005820573988345,
18,exp1.png,exp2.png,,,,,,,,,,,,,,,,,0,0,0,0,0,18,18,18,,,,,,,,,False,18,79,False,exp1.png,exp2.png,trial_left_image,1,exp1.png,1,exp2.png,exp1.png,1,3,reversed,incorrect,0.03143040622467619,1,invalid_win,564.204897299991,55,,,,,,,,,,,s_017,1,2020_Dec_08_0902,Reversal,3.2.4,60.005820573988345,
19,exp3.png,exp4.png,,,,,,,,,,,,,,,,,0,0,0,0,0,19,19,19,,,,,,,,,False,19,80,True,exp4.png,exp3.png,trial_right_image,-1,exp3.png,1,exp3.png,exp4.png,1,1,non-reversed,correct,0.048060799142673916,0,invalid_lose,568.3536101999925,55,,,,,,,,,,,s_017,1,2020_Dec_08_0902,Reversal,3.2.4,60.005820573988345,
20,exp1.png,exp2.png,,,,,,,,,,,,,,,,,0,0,0,0,0,20,20,20,,,,,,,,,True,,,,,,,,,,,,,,,,,,,,,,,,,,,,,,,s_017,1,2020_Dec_08_0902,Reversal,3.2.4,60.005820573988345,
,,,,,,,,,,,,,,,,,,,0,0,0,0,,,,,0,0,0,0,,,,,,,,,,,,,,,,,,,,,,,,,,24,76,24,76,,,,,,,s_017,1,2020_Dec_08_0902,Reversal,3.2.4,60.005820573988345,
0,exp1.png,exp2.png,,,,,,,,,,,,,,,,,1,0,1,0,0,0,0,0,,,,,,,,,False,20,81,True,exp2.png,exp1.png,trial_right_image,-1,exp1.png,1,exp2.png,exp1.png,1,3,reversed,incorrect,0.5589981250259973,0,valid_lose,587.9970943999942,55,,,,,,,,,,,s_017,1,2020_Dec_08_0902,Reversal,3.2.4,60.005820573988345,
1,exp3.png,exp4.png,,,,,,,,,,,,,,,,,1,0,1,0,0,1,1,1,,,,,,,,,False,21,82,True,exp4.png,exp3.png,trial_right_image,-1,exp3.png,1,exp3.png,exp4.png,1,1,non-reversed,correct,0.016458101063662745,0,invalid_lose,592.3796307999874,55,,,,,,,,,,,s_017,1,2020_Dec_08_0902,Reversal,3.2.4,60.005820573988345,
2,exp1.png,exp2.png,,,,,,,,,,,,,,,,,1,0,1,0,0,2,2,2,,,,,,,,,False,22,83,False,exp1.png,exp2.png,trial_left_image,1,exp1.png,1,exp2.png,exp1.png,1,3,reversed,incorrect,0.3402294730499372,0,valid_lose,596.5104982999619,55,,,,,,,,,,,s_017,1,2020_Dec_08_0902,Reversal,3.2.4,60.005820573988345,
3,exp3.png,exp4.png,,,,,,,,,,,,,,,,,1,0,1,0,0,3,3,3,,,,,,,,,False,23,84,False,exp3.png,exp4.png,trial_left_image,1,exp3.png,1,exp3.png,exp4.png,1,1,non-reversed,correct,0.4296608704172046,1,valid_win,601.4256540999631,56,,,,,,,,,,,s_017,1,2020_Dec_08_0902,Reversal,3.2.4,60.005820573988345,
4,exp1.png,exp2.png,,,,,,,,,,,,,,,,,1,0,1,0,0,4,4,4,,,,,,,,,False,24,85,True,exp2.png,exp1.png,trial_right_image,-1,exp1.png,1,exp2.png,exp1.png,1,3,reversed,incorrect,0.07662654318881423,1,invalid_win,605.6745612999657,57,,,,,,,,,,,s_017,1,2020_Dec_08_0902,Reversal,3.2.4,60.005820573988345,
5,exp3.png,exp4.png,,,,,,,,,,,,,,,,,1,0,1,0,0,5,5,5,,,,,,,,,False,25,86,True,exp4.png,exp3.png,trial_right_image,-1,exp3.png,1,exp3.png,exp4.png,1,1,non-reversed,correct,0.22180155857039008,0,invalid_lose,610.7548871999606,57,,,,,,,,,,,s_017,1,2020_Dec_08_0902,Reversal,3.2.4,60.005820573988345,
6,exp1.png,exp2.png,,,,,,,,,,,,,,,,,1,0,1,0,0,6,6,6,,,,,,,,,False,26,87,False,exp1.png,exp2.png,trial_left_image,1,exp1.png,1,exp2.png,exp1.png,1,3,reversed,incorrect,0.15681796485030874,1,invalid_win,615.8885853999527,58,,,,,,,,,,,s_017,1,2020_Dec_08_0902,Reversal,3.2.4,60.005820573988345,
7,exp3.png,exp4.png,,,,,,,,,,,,,,,,,1,0,1,0,0,7,7,7,,,,,,,,,False,27,88,False,exp3.png,exp4.png,trial_left_image,1,exp3.png,1,exp3.png,exp4.png,1,1,non-reversed,correct,0.4422739574260244,1,valid_win,620.7517685999628,59,,,,,,,,,,,s_017,1,2020_Dec_08_0902,Reversal,3.2.4,60.005820573988345,
8,exp1.png,exp2.png,,,,,,,,,,,,,,,,,1,0,1,0,0,8,8,8,,,,,,,,,False,28,89,True,exp2.png,exp1.png,trial_right_image,-1,exp1.png,1,exp2.png,exp1.png,1,3,reversed,incorrect,0.05429089894019723,1,invalid_win,624.8501741999644,60,,,,,,,,,,,s_017,1,2020_Dec_08_0902,Reversal,3.2.4,60.005820573988345,
9,exp3.png,exp4.png,,,,,,,,,,,,,,,,,1,0,1,0,0,9,9,9,,,,,,,,,False,29,90,True,exp4.png,exp3.png,trial_right_image,-1,exp3.png,1,exp3.png,exp4.png,1,1,non-reversed,correct,0.3043897892905246,1,valid_win,629.3328763999743,61,,,,,,,,,,,s_017,1,2020_Dec_08_0902,Reversal,3.2.4,60.005820573988345,
10,exp1.png,exp2.png,,,,,,,,,,,,,,,,,1,0,1,0,0,10,10,10,,,,,,,,,False,30,91,True,exp2.png,exp1.png,trial_right_image,-1,exp1.png,1,exp2.png,exp1.png,1,3,reversed,incorrect,0.9470212329860687,0,valid_lose,633.7140879000071,61,,,,,,,,,,,s_017,1,2020_Dec_08_0902,Reversal,3.2.4,60.005820573988345,
11,exp3.png,exp4.png,,,,,,,,,,,,,,,,,1,0,1,0,0,11,11,11,,,,,,,,,False,31,92,True,exp4.png,exp3.png,trial_right_image,-1,exp3.png,1,exp3.png,exp4.png,1,1,non-reversed,correct,0.7412813740143079,1,valid_win,638.8296188999666,62,,,,,,,,,,,s_017,1,2020_Dec_08_0902,Reversal,3.2.4,60.005820573988345,
12,exp1.png,exp2.png,,,,,,,,,,,,,,,,,1,0,1,0,0,12,12,12,,,,,,,,,False,32,93,False,exp1.png,exp2.png,trial_left_image,1,exp1.png,1,exp2.png,exp1.png,1,3,reversed,incorrect,0.47354916216784626,0,valid_lose,645.4946869999985,62,,,,,,,,,,,s_017,1,2020_Dec_08_0902,Reversal,3.2.4,60.005820573988345,
13,exp3.png,exp4.png,,,,,,,,,,,,,,,,,1,0,1,0,0,13,13,13,,,,,,,,,False,33,94,False,exp3.png,exp4.png,trial_left_image,1,exp3.png,1,exp3.png,exp4.png,1,1,non-reversed,correct,0.43393631801386345,1,valid_win,650.2588396999636,63,,,,,,,,,,,s_017,1,2020_Dec_08_0902,Reversal,3.2.4,60.005820573988345,
14,exp1.png,exp2.png,,,,,,,,,,,,,,,,,1,0,1,0,0,14,14,14,,,,,,,,,False,34,95,True,exp2.png,exp1.png,trial_right_image,-1,exp1.png,1,exp2.png,exp1.png,1,3,reversed,incorrect,0.10730325806235008,1,invalid_win,654.4745123999892,64,,,,,,,,,,,s_017,1,2020_Dec_08_0902,Reversal,3.2.4,60.005820573988345,
15,exp3.png,exp4.png,,,,,,,,,,,,,,,,,1,0,1,0,0,15,15,15,,,,,,,,,False,35,96,False,exp3.png,exp4.png,trial_left_image,1,exp3.png,1,exp3.png,exp4.png,1,1,non-reversed,correct,0.26697680476595165,1,valid_win,658.8567863999633,65,,,,,,,,,,,s_017,1,2020_Dec_08_0902,Reversal,3.2.4,60.005820573988345,
16,exp1.png,exp2.png,,,,,,,,,,,,,,,,,1,0,1,0,0,16,16,16,,,,,,,,,False,36,97,False,exp1.png,exp2.png,trial_left_image,1,exp1.png,1,exp2.png,exp1.png,1,3,reversed,incorrect,0.603521493648974,0,valid_lose,664.0717549999827,65,,,,,,,,,,,s_017,1,2020_Dec_08_0902,Reversal,3.2.4,60.005820573988345,
17,exp3.png,exp4.png,,,,,,,,,,,,,,,,,1,0,1,0,0,17,17,17,,,,,,,,,False,37,98,False,exp3.png,exp4.png,trial_left_image,1,exp3.png,1,exp3.png,exp4.png,1,1,non-reversed,correct,0.4569857025302435,1,valid_win,668.8186174999573,66,,,,,,,,,,,s_017,1,2020_Dec_08_0902,Reversal,3.2.4,60.005820573988345,
18,exp1.png,exp2.png,,,,,,,,,,,,,,,,,1,0,1,0,0,18,18,18,,,,,,,,,False,38,99,False,exp1.png,exp2.png,trial_left_image,1,exp1.png,1,exp2.png,exp1.png,1,3,reversed,incorrect,0.18414188121981345,1,invalid_win,674.1354912999668,67,,,,,,,,,,,s_017,1,2020_Dec_08_0902,Reversal,3.2.4,60.005820573988345,
19,exp3.png,exp4.png,,,,,,,,,,,,,,,,,1,0,1,0,0,19,19,19,,,,,,,,,False,39,100,True,exp4.png,exp3.png,trial_right_image,-1,exp3.png,1,exp3.png,exp4.png,1,1,non-reversed,correct,0.6636430269644217,1,valid_win,678.5332834000001,68,,,,,,,,,,,s_017,1,2020_Dec_08_0902,Reversal,3.2.4,60.005820573988345,
20,exp1.png,exp2.png,,,,,,,,,,,,,,,,,1,0,1,0,0,20,20,20,,,,,,,,,True,,,,,,,,,,,,,,,,,,,,,,,,,,,,,,,s_017,1,2020_Dec_08_0902,Reversal,3.2.4,60.005820573988345,
,,,,,,,,,,,,,,,,,,,1,0,1,0,,,,,0,0,0,0,,,,,,,,,,,,,,,,,,,,,,,,,,70,29,66,33,,,,,,,s_017,1,2020_Dec_08_0902,Reversal,3.2.4,60.005820573988345,
0,exp1.png,exp2.png,,,,,,,,,,,,,,,,,2,0,2,0,0,0,0,0,,,,,,,,,False,40,101,False,exp1.png,exp2.png,trial_left_image,1,exp1.png,1,exp2.png,exp1.png,1,3,reversed,incorrect,0.22219497283220557,1,invalid_win,695.1440225999686,69,,,,,,,,,,,s_017,1,2020_Dec_08_0902,Reversal,3.2.4,60.005820573988345,
1,exp3.png,exp4.png,,,,,,,,,,,,,,,,,2,0,2,0,0,1,1,1,,,,,,,,,False,41,102,True,exp4.png,exp3.png,trial_right_image,-1,exp3.png,1,exp3.png,exp4.png,1,1,non-reversed,correct,0.5802095413538999,1,valid_win,699.874837499985,70,,,,,,,,,,,s_017,1,2020_Dec_08_0902,Reversal,3.2.4,60.005820573988345,
2,exp1.png,exp2.png,,,,,,,,,,,,,,,,,2,0,2,0,0,2,2,2,,,,,,,,,False,42,103,True,exp2.png,exp1.png,trial_right_image,-1,exp1.png,1,exp2.png,exp1.png,1,3,reversed,incorrect,0.3452970590534963,0,valid_lose,704.7898447999614,70,,,,,,,,,,,s_017,1,2020_Dec_08_0902,Reversal,3.2.4,60.005820573988345,
3,exp3.png,exp4.png,,,,,,,,,,,,,,,,,2,0,2,0,0,3,3,3,,,,,,,,,False,43,104,True,exp4.png,exp3.png,trial_right_image,-1,exp3.png,1,exp3.png,exp4.png,1,1,non-reversed,correct,0.6525595219009507,1,valid_win,709.689030199952,71,,,,,,,,,,,s_017,1,2020_Dec_08_0902,Reversal,3.2.4,60.005820573988345,
4,exp1.png,exp2.png,,,,,,,,,,,,,,,,,2,0,2,0,0,4,4,4,,,,,,,,,False,44,105,False,exp1.png,exp2.png,trial_left_image,1,exp1.png,1,exp2.png,exp1.png,1,3,reversed,incorrect,0.7870504393995411,0,valid_lose,715.104180699971,71,,,,,,,,,,,s_017,1,2020_Dec_08_0902,Reversal,3.2.4,60.005820573988345,
5,exp3.png,exp4.png,,,,,,,,,,,,,,,,,2,0,2,0,0,5,5,5,,,,,,,,,False,45,106,True,exp4.png,exp3.png,trial_right_image,-1,exp3.png,1,exp3.png,exp4.png,1,1,non-reversed,correct,0.21342203537232052,0,invalid_lose,719.2360621999833,71,,,,,,,,,,,s_017,1,2020_Dec_08_0902,Reversal,3.2.4,60.005820573988345,
6,exp1.png,exp2.png,,,,,,,,,,,,,,,,,2,0,2,0,0,6,6,6,,,,,,,,,False,46,107,True,exp2.png,exp1.png,trial_right_image,-1,exp1.png,1,exp2.png,exp1.png,1,3,reversed,incorrect,0.7478535087012156,0,valid_lose,724.4846203000052,71,,,,,,,,,,,s_017,1,2020_Dec_08_0902,Reversal,3.2.4,60.005820573988345,
7,exp3.png,exp4.png,,,,,,,,,,,,,,,,,2,0,2,0,0,7,7,7,,,,,,,,,False,47,108,False,exp3.png,exp4.png,trial_left_image,1,exp3.png,1,exp3.png,exp4.png,1,1,non-reversed,correct,0.21734783572051775,0,invalid_lose,729.3990579999518,71,,,,,,,,,,,s_017,1,2020_Dec_08_0902,Reversal,3.2.4,60.005820573988345,
8,exp1.png,exp2.png,,,,,,,,,,,,,,,,,2,0,2,0,0,8,8,8,,,,,,,,,False,48,109,False,exp1.png,exp2.png,trial_left_image,1,exp1.png,1,exp2.png,exp1.png,1,3,reversed,incorrect,0.1867294112385216,1,invalid_win,734.0474506999599,72,,,,,,,,,,,s_017,1,2020_Dec_08_0902,Reversal,3.2.4,60.005820573988345,
9,exp3.png,exp4.png,,,,,,,,,,,,,,,,,2,0,2,0,0,9,9,9,,,,,,,,,False,49,110,True,exp4.png,exp3.png,trial_right_image,-1,exp3.png,1,exp3.png,exp4.png,1,1,non-reversed,correct,0.5032852922289458,1,valid_win,738.8127972999937,73,,,,,,,,,,,s_017,1,2020_Dec_08_0902,Reversal,3.2.4,60.005820573988345,
10,exp1.png,exp2.png,,,,,,,,,,,,,,,,,2,0,2,0,0,10,10,10,,,,,,,,,False,50,111,False,exp1.png,exp2.png,trial_left_image,1,exp1.png,1,exp2.png,exp1.png,1,3,reversed,incorrect,0.9677594982061786,0,valid_lose,743.7440598999965,73,,,,,,,,,,,s_017,1,2020_Dec_08_0902,Reversal,3.2.4,60.005820573988345,
11,exp3.png,exp4.png,,,,,,,,,,,,,,,,,2,0,2,0,0,11,11,11,,,,,,,,,False,51,112,False,exp3.png,exp4.png,trial_left_image,1,exp3.png,1,exp3.png,exp4.png,1,1,non-reversed,correct,0.26475585344090413,1,valid_win,748.3262365999981,74,,,,,,,,,,,s_017,1,2020_Dec_08_0902,Reversal,3.2.4,60.005820573988345,
12,exp1.png,exp2.png,,,,,,,,,,,,,,,,,2,0,2,0,0,12,12,12,,,,,,,,,False,52,113,True,exp2.png,exp1.png,trial_right_image,-1,exp1.png,1,exp2.png,exp1.png,1,3,reversed,incorrect,0.24678219062961182,1,invalid_win,753.2587713999674,75,,,,,,,,,,,s_017,1,2020_Dec_08_0902,Reversal,3.2.4,60.005820573988345,
13,exp3.png,exp4.png,,,,,,,,,,,,,,,,,2,0,2,0,0,13,13,13,,,,,,,,,False,53,114,True,exp4.png,exp3.png,trial_right_image,-1,exp3.png,1,exp3.png,exp4.png,1,1,non-reversed,correct,0.9956831563503448,1,valid_win,757.9062514999532,76,,,,,,,,,,,s_017,1,2020_Dec_08_0902,Reversal,3.2.4,60.005820573988345,
14,exp1.png,exp2.png,,,,,,,,,,,,,,,,,2,0,2,0,0,14,14,14,,,,,,,,,False,54,115,True,exp2.png,exp1.png,trial_right_image,-1,exp1.png,1,exp2.png,exp1.png,1,3,reversed,incorrect,0.47131807370566914,0,valid_lose,762.9882230999647,76,,,,,,,,,,,s_017,1,2020_Dec_08_0902,Reversal,3.2.4,60.005820573988345,
15,exp3.png,exp4.png,,,,,,,,,,,,,,,,,2,0,2,0,0,15,15,15,,,,,,,,,False,55,116,False,exp3.png,exp4.png,trial_left_image,1,exp3.png,1,exp3.png,exp4.png,1,1,non-reversed,correct,0.25187894585826376,1,valid_win,770.1851696999511,77,,,,,,,,,,,s_017,1,2020_Dec_08_0902,Reversal,3.2.4,60.005820573988345,
16,exp1.png,exp2.png,,,,,,,,,,,,,,,,,2,0,2,0,0,16,16,16,,,,,,,,,False,56,117,True,exp2.png,exp1.png,trial_right_image,-1,exp1.png,1,exp2.png,exp1.png,1,3,reversed,incorrect,0.8760555116720367,0,valid_lose,774.5675009999541,77,,,,,,,,,,,s_017,1,2020_Dec_08_0902,Reversal,3.2.4,60.005820573988345,
17,exp3.png,exp4.png,,,,,,,,,,,,,,,,,2,0,2,0,0,17,17,17,,,,,,,,,False,57,118,False,exp3.png,exp4.png,trial_left_image,1,exp3.png,1,exp3.png,exp4.png,1,1,non-reversed,correct,0.6124779446948081,1,valid_win,778.9168942999677,78,,,,,,,,,,,s_017,1,2020_Dec_08_0902,Reversal,3.2.4,60.005820573988345,
18,exp1.png,exp2.png,,,,,,,,,,,,,,,,,2,0,2,0,0,18,18,18,,,,,,,,,False,58,119,False,exp1.png,exp2.png,trial_left_image,1,exp1.png,1,exp2.png,exp1.png,1,3,reversed,incorrect,0.1295556651016816,1,invalid_win,784.9806287999963,79,,,,,,,,,,,s_017,1,2020_Dec_08_0902,Reversal,3.2.4,60.005820573988345,
19,exp3.png,exp4.png,,,,,,,,,,,,,,,,,2,0,2,0,0,19,19,19,,,,,,,,,False,59,120,False,exp3.png,exp4.png,trial_left_image,1,exp3.png,1,exp3.png,exp4.png,1,1,non-reversed,correct,0.7711268709271325,1,valid_win,790.3953949999996,80,,,,,,,,,,,s_017,1,2020_Dec_08_0902,Reversal,3.2.4,60.005820573988345,
20,exp1.png,exp2.png,,,,,,,,,,,,,,,,,2,0,2,0,0,20,20,20,,,,,,,,,True,,,,,,,,,,,,,,,,,,,,,,,,,,,,,,,s_017,1,2020_Dec_08_0902,Reversal,3.2.4,60.005820573988345,
,,,,,,,,,,,,,,,,,,,2,0,2,0,,,,,0,0,0,0,,,,,,,,,,,,,,,,,,,,,,,,,,69,38,69,36,,,,,,,s_017,1,2020_Dec_08_0902,Reversal,3.2.4,60.005820573988345,
,,,,,,,,,,,,,,,,,,,,,,,,,,,,,,,,,,,,,,,,,,,,,,,,,,,,,,,80,,,,,,85,55,30,330.9122389999684,0,,,,,,,
