trial_index,trial_image1_file,trial_image2_file,learning_outer_loop.thisRepN,learning_outer_loop.thisTrialN,learning_outer_loop.thisN,learning_outer_loop.thisIndex,learning_inner_loop.thisRepN,learning_inner_loop.thisTrialN,learning_inner_loop.thisN,learning_inner_loop.thisIndex,learning_estimation_outer_loop.thisRepN,learning_estimation_outer_loop.thisTrialN,learning_estimation_outer_loop.thisN,learning_estimation_outer_loop.thisIndex,learning_estimation_inner_loop.thisRepN,learning_estimation_inner_loop.thisTrialN,learning_estimation_inner_loop.thisN,learning_estimation_inner_loop.thisIndex,reversal_outer_loop.thisRepN,reversal_outer_loop.thisTrialN,reversal_outer_loop.thisN,reversal_outer_loop.thisIndex,reversal_inner_loop.thisRepN,reversal_inner_loop.thisTrialN,reversal_inner_loop.thisN,reversal_inner_loop.thisIndex,reversal_estimation_outer_loop.thisRepN,reversal_estimation_outer_loop.thisTrialN,reversal_estimation_outer_loop.thisN,reversal_estimation_outer_loop.thisIndex,reversal_estimation_inner_loop.thisRepN,reversal_estimation_inner_loop.thisTrialN,reversal_estimation_inner_loop.thisN,reversal_estimation_inner_loop.thisIndex,skipped,total_trial_counter,trial_num,left_right_flip,left_image_file,right_image_file,clicked_stimulus_side,side,clicked_stimulus,version,high_prob_image_file,low_prob_image_file,choice_a,choice_b,pair_type,correct,trial_feedback_random,reward,trial_type,overall_time_after_trial,score,estimation_exp1.png,estimation_exp2.png,estimation_exp3.png,estimation_exp4.png,total_learning_time,total_correct,learning_correct,reversal_correct,total_reversal_time,extra_block,participant,ver,date,expName,psychopyVersion,frameRate,
0,exp1.png,exp2.png,0,0,0,0,0,0,0,0,,,,,,,,,,,,,,,,,,,,,,,,,True,,,,,,,,,,,,,,,,,,,,,,,,,,,,,,,s_019,2,2020_Dec_09_1042,Reversal,3.2.4,60.066192944307275,
1,exp3.png,exp4.png,0,0,0,0,0,1,1,1,,,,,,,,,,,,,,,,,,,,,,,,,False,0,1,False,exp3.png,exp4.png,trial_right_image,-1,exp4.png,2,exp3.png,exp4.png,0,4,reversed,incorrect,0.43800682398318014,0,valid_lose,4.394410000000789,0,,,,,,,,,,,s_019,2,2020_Dec_09_1042,Reversal,3.2.4,60.066192944307275,
2,exp1.png,exp2.png,0,0,0,0,0,2,2,2,,,,,,,,,,,,,,,,,,,,,,,,,False,1,2,False,exp1.png,exp2.png,trial_right_image,-1,exp2.png,2,exp1.png,exp2.png,0,2,non-reversed,incorrect,0.37006022030094965,0,valid_lose,8.743975400000636,0,,,,,,,,,,,s_019,2,2020_Dec_09_1042,Reversal,3.2.4,60.066192944307275,
3,exp3.png,exp4.png,0,0,0,0,0,3,3,3,,,,,,,,,,,,,,,,,,,,,,,,,False,2,3,True,exp4.png,exp3.png,trial_right_image,-1,exp3.png,2,exp3.png,exp4.png,1,3,reversed,correct,0.4555567637170087,1,valid_win,13.191664699996181,1,,,,,,,,,,,s_019,2,2020_Dec_09_1042,Reversal,3.2.4,60.066192944307275,
4,exp1.png,exp2.png,0,0,0,0,0,4,4,4,,,,,,,,,,,,,,,,,,,,,,,,,False,3,4,True,exp2.png,exp1.png,trial_left_image,1,exp2.png,2,exp1.png,exp2.png,0,2,non-reversed,incorrect,0.7745967251335321,0,valid_lose,17.59088509999856,1,,,,,,,,,,,s_019,2,2020_Dec_09_1042,Reversal,3.2.4,60.066192944307275,
5,exp3.png,exp4.png,0,0,0,0,0,5,5,5,,,,,,,,,,,,,,,,,,,,,,,,,False,4,5,True,exp4.png,exp3.png,trial_right_image,-1,exp3.png,2,exp3.png,exp4.png,1,3,reversed,correct,0.5321762235933627,1,valid_win,21.67243040000176,2,,,,,,,,,,,s_019,2,2020_Dec_09_1042,Reversal,3.2.4,60.066192944307275,
6,exp1.png,exp2.png,0,0,0,0,0,6,6,6,,,,,,,,,,,,,,,,,,,,,,,,,False,5,6,True,exp2.png,exp1.png,trial_right_image,-1,exp1.png,2,exp1.png,exp2.png,1,1,non-reversed,correct,0.6797997971822292,1,valid_win,25.554402000001573,3,,,,,,,,,,,s_019,2,2020_Dec_09_1042,Reversal,3.2.4,60.066192944307275,
7,exp3.png,exp4.png,0,0,0,0,0,7,7,7,,,,,,,,,,,,,,,,,,,,,,,,,False,6,7,False,exp3.png,exp4.png,trial_right_image,-1,exp4.png,2,exp3.png,exp4.png,0,4,reversed,incorrect,0.7101637363407323,0,valid_lose,29.06975589999638,3,,,,,,,,,,,s_019,2,2020_Dec_09_1042,Reversal,3.2.4,60.066192944307275,
8,exp1.png,exp2.png,0,0,0,0,0,8,8,8,,,,,,,,,,,,,,,,,,,,,,,,,False,7,8,False,exp1.png,exp2.png,trial_right_image,-1,exp2.png,2,exp1.png,exp2.png,0,2,non-reversed,incorrect,0.2890789924741074,0,valid_lose,33.2184871999998,3,,,,,,,,,,,s_019,2,2020_Dec_09_1042,Reversal,3.2.4,60.066192944307275,
9,exp3.png,exp4.png,0,0,0,0,0,9,9,9,,,,,,,,,,,,,,,,,,,,,,,,,False,8,9,False,exp3.png,exp4.png,trial_left_image,1,exp3.png,2,exp3.png,exp4.png,1,3,reversed,correct,0.043335129312343845,0,invalid_lose,37.583648200001335,3,,,,,,,,,,,s_019,2,2020_Dec_09_1042,Reversal,3.2.4,60.066192944307275,
10,exp1.png,exp2.png,0,0,0,0,0,10,10,10,,,,,,,,,,,,,,,,,,,,,,,,,False,9,10,False,exp1.png,exp2.png,trial_left_image,1,exp1.png,2,exp1.png,exp2.png,1,1,non-reversed,correct,0.937066158256933,1,valid_win,41.44894999999815,4,,,,,,,,,,,s_019,2,2020_Dec_09_1042,Reversal,3.2.4,60.066192944307275,
11,exp3.png,exp4.png,0,0,0,0,0,11,11,11,,,,,,,,,,,,,,,,,,,,,,,,,False,10,11,False,exp3.png,exp4.png,trial_right_image,-1,exp4.png,2,exp3.png,exp4.png,0,4,reversed,incorrect,0.6639453305836384,0,valid_lose,45.31429029999708,4,,,,,,,,,,,s_019,2,2020_Dec_09_1042,Reversal,3.2.4,60.066192944307275,
12,exp1.png,exp2.png,0,0,0,0,0,12,12,12,,,,,,,,,,,,,,,,,,,,,,,,,False,11,12,True,exp2.png,exp1.png,trial_right_image,-1,exp1.png,2,exp1.png,exp2.png,1,1,non-reversed,correct,0.6233949713529998,1,valid_win,48.22794740000245,5,,,,,,,,,,,s_019,2,2020_Dec_09_1042,Reversal,3.2.4,60.066192944307275,
13,exp3.png,exp4.png,0,0,0,0,0,13,13,13,,,,,,,,,,,,,,,,,,,,,,,,,False,12,13,True,exp4.png,exp3.png,trial_right_image,-1,exp3.png,2,exp3.png,exp4.png,1,3,reversed,correct,0.244866641351699,0,invalid_lose,51.177114999998594,5,,,,,,,,,,,s_019,2,2020_Dec_09_1042,Reversal,3.2.4,60.066192944307275,
14,exp1.png,exp2.png,0,0,0,0,0,14,14,14,,,,,,,,,,,,,,,,,,,,,,,,,False,13,14,True,exp2.png,exp1.png,trial_right_image,-1,exp1.png,2,exp1.png,exp2.png,1,1,non-reversed,correct,0.5590639662189862,1,valid_win,54.2108384000021,6,,,,,,,,,,,s_019,2,2020_Dec_09_1042,Reversal,3.2.4,60.066192944307275,
15,exp3.png,exp4.png,0,0,0,0,0,15,15,15,,,,,,,,,,,,,,,,,,,,,,,,,False,14,15,True,exp4.png,exp3.png,trial_right_image,-1,exp3.png,2,exp3.png,exp4.png,1,3,reversed,correct,0.8405001075004545,1,valid_win,58.36002700000245,7,,,,,,,,,,,s_019,2,2020_Dec_09_1042,Reversal,3.2.4,60.066192944307275,
16,exp1.png,exp2.png,0,0,0,0,0,16,16,16,,,,,,,,,,,,,,,,,,,,,,,,,False,15,16,True,exp2.png,exp1.png,trial_right_image,-1,exp1.png,2,exp1.png,exp2.png,1,1,non-reversed,correct,0.6482024609451994,1,valid_win,61.29003119999834,8,,,,,,,,,,,s_019,2,2020_Dec_09_1042,Reversal,3.2.4,60.066192944307275,
17,exp3.png,exp4.png,0,0,0,0,0,17,17,17,,,,,,,,,,,,,,,,,,,,,,,,,False,16,17,False,exp3.png,exp4.png,trial_right_image,-1,exp4.png,2,exp3.png,exp4.png,0,4,reversed,incorrect,0.36711697879393357,0,valid_lose,64.22221100000024,8,,,,,,,,,,,s_019,2,2020_Dec_09_1042,Reversal,3.2.4,60.066192944307275,
18,exp1.png,exp2.png,0,0,0,0,0,18,18,18,,,,,,,,,,,,,,,,,,,,,,,,,False,17,18,True,exp2.png,exp1.png,trial_right_image,-1,exp1.png,2,exp1.png,exp2.png,1,1,non-reversed,correct,0.30194061190396604,1,valid_win,67.15524610000284,9,,,,,,,,,,,s_019,2,2020_Dec_09_1042,Reversal,3.2.4,60.066192944307275,
19,exp3.png,exp4.png,0,0,0,0,0,19,19,19,,,,,,,,,,,,,,,,,,,,,,,,,False,18,19,False,exp3.png,exp4.png,trial_right_image,-1,exp4.png,2,exp3.png,exp4.png,0,4,reversed,incorrect,0.2340470993622199,1,invalid_win,70.23942610000086,10,,,,,,,,,,,s_019,2,2020_Dec_09_1042,Reversal,3.2.4,60.066192944307275,
20,exp1.png,exp2.png,0,0,0,0,0,20,20,20,,,,,,,,,,,,,,,,,,,,,,,,,False,19,20,False,exp1.png,exp2.png,trial_right_image,-1,exp2.png,2,exp1.png,exp2.png,0,2,non-reversed,incorrect,0.19420042797099035,1,invalid_win,73.44997919999878,11,,,,,,,,,,,s_019,2,2020_Dec_09_1042,Reversal,3.2.4,60.066192944307275,
,,,0,0,0,0,,,,,0,0,0,0,,,,,,,,,,,,,,,,,,,,,,,,,,,,,,,,,,,,,,,,,,61,57,54,54,,,,,,,s_019,2,2020_Dec_09_1042,Reversal,3.2.4,60.066192944307275,
0,exp1.png,exp2.png,1,0,1,0,0,0,0,0,,,,,,,,,,,,,,,,,,,,,,,,,True,,,,,,,,,,,,,,,,,,,,,,,,,,,,,,,s_019,2,2020_Dec_09_1042,Reversal,3.2.4,60.066192944307275,
1,exp3.png,exp4.png,1,0,1,0,0,1,1,1,,,,,,,,,,,,,,,,,,,,,,,,,False,20,21,False,exp3.png,exp4.png,trial_right_image,-1,exp4.png,2,exp3.png,exp4.png,0,4,reversed,incorrect,0.1344865696798555,1,invalid_win,99.71273279999878,12,,,,,,,,,,,s_019,2,2020_Dec_09_1042,Reversal,3.2.4,60.066192944307275,
2,exp1.png,exp2.png,1,0,1,0,0,2,2,2,,,,,,,,,,,,,,,,,,,,,,,,,False,21,22,False,exp1.png,exp2.png,trial_right_image,-1,exp2.png,2,exp1.png,exp2.png,0,2,non-reversed,incorrect,0.3492750638732752,0,valid_lose,103.64546320000227,12,,,,,,,,,,,s_019,2,2020_Dec_09_1042,Reversal,3.2.4,60.066192944307275,
3,exp3.png,exp4.png,1,0,1,0,0,3,3,3,,,,,,,,,,,,,,,,,,,,,,,,,False,22,23,False,exp3.png,exp4.png,trial_right_image,-1,exp4.png,2,exp3.png,exp4.png,0,4,reversed,incorrect,0.28990873787404725,0,valid_lose,108.04335459999857,12,,,,,,,,,,,s_019,2,2020_Dec_09_1042,Reversal,3.2.4,60.066192944307275,
4,exp1.png,exp2.png,1,0,1,0,0,4,4,4,,,,,,,,,,,,,,,,,,,,,,,,,False,23,24,True,exp2.png,exp1.png,trial_right_image,-1,exp1.png,2,exp1.png,exp2.png,1,1,non-reversed,correct,0.717556620437799,1,valid_win,111.07537559999764,13,,,,,,,,,,,s_019,2,2020_Dec_09_1042,Reversal,3.2.4,60.066192944307275,
5,exp3.png,exp4.png,1,0,1,0,0,5,5,5,,,,,,,,,,,,,,,,,,,,,,,,,False,24,25,True,exp4.png,exp3.png,trial_right_image,-1,exp3.png,2,exp3.png,exp4.png,1,3,reversed,correct,0.9045246053146025,1,valid_win,114.0223823999986,14,,,,,,,,,,,s_019,2,2020_Dec_09_1042,Reversal,3.2.4,60.066192944307275,
6,exp1.png,exp2.png,1,0,1,0,0,6,6,6,,,,,,,,,,,,,,,,,,,,,,,,,False,25,26,True,exp2.png,exp1.png,trial_right_image,-1,exp1.png,2,exp1.png,exp2.png,1,1,non-reversed,correct,0.9240409027307936,1,valid_win,118.10636610000074,15,,,,,,,,,,,s_019,2,2020_Dec_09_1042,Reversal,3.2.4,60.066192944307275,
7,exp3.png,exp4.png,1,0,1,0,0,7,7,7,,,,,,,,,,,,,,,,,,,,,,,,,False,26,27,False,exp3.png,exp4.png,trial_right_image,-1,exp4.png,2,exp3.png,exp4.png,0,4,reversed,incorrect,0.042437961751205955,1,invalid_win,121.77964369999972,16,,,,,,,,,,,s_019,2,2020_Dec_09_1042,Reversal,3.2.4,60.066192944307275,
8,exp1.png,exp2.png,1,0,1,0,0,8,8,8,,,,,,,,,,,,,,,,,,,,,,,,,False,27,28,True,exp2.png,exp1.png,trial_left_image,1,exp2.png,2,exp1.png,exp2.png,0,2,non-reversed,incorrect,0.18475916072792786,1,invalid_win,125.58759989999817,17,,,,,,,,,,,s_019,2,2020_Dec_09_1042,Reversal,3.2.4,60.066192944307275,
9,exp3.png,exp4.png,1,0,1,0,0,9,9,9,,,,,,,,,,,,,,,,,,,,,,,,,False,28,29,True,exp4.png,exp3.png,trial_right_image,-1,exp3.png,2,exp3.png,exp4.png,1,3,reversed,correct,0.2978781873072641,1,valid_win,129.136820599997,18,,,,,,,,,,,s_019,2,2020_Dec_09_1042,Reversal,3.2.4,60.066192944307275,
10,exp1.png,exp2.png,1,0,1,0,0,10,10,10,,,,,,,,,,,,,,,,,,,,,,,,,False,29,30,True,exp2.png,exp1.png,trial_right_image,-1,exp1.png,2,exp1.png,exp2.png,1,1,non-reversed,correct,0.38498239417874835,1,valid_win,132.98469399999885,19,,,,,,,,,,,s_019,2,2020_Dec_09_1042,Reversal,3.2.4,60.066192944307275,
11,exp3.png,exp4.png,1,0,1,0,0,11,11,11,,,,,,,,,,,,,,,,,,,,,,,,,False,30,31,False,exp3.png,exp4.png,trial_right_image,-1,exp4.png,2,exp3.png,exp4.png,0,4,reversed,incorrect,0.06913089170555708,1,invalid_win,136.8500963999977,20,,,,,,,,,,,s_019,2,2020_Dec_09_1042,Reversal,3.2.4,60.066192944307275,
12,exp1.png,exp2.png,1,0,1,0,0,12,12,12,,,,,,,,,,,,,,,,,,,,,,,,,False,31,32,False,exp1.png,exp2.png,trial_right_image,-1,exp2.png,2,exp1.png,exp2.png,0,2,non-reversed,incorrect,0.8229208378423147,0,valid_lose,140.63192469999922,20,,,,,,,,,,,s_019,2,2020_Dec_09_1042,Reversal,3.2.4,60.066192944307275,
13,exp3.png,exp4.png,1,0,1,0,0,13,13,13,,,,,,,,,,,,,,,,,,,,,,,,,False,32,33,False,exp3.png,exp4.png,trial_right_image,-1,exp4.png,2,exp3.png,exp4.png,0,4,reversed,incorrect,0.83376441969608,0,valid_lose,144.130917399998,20,,,,,,,,,,,s_019,2,2020_Dec_09_1042,Reversal,3.2.4,60.066192944307275,
14,exp1.png,exp2.png,1,0,1,0,0,14,14,14,,,,,,,,,,,,,,,,,,,,,,,,,False,33,34,True,exp2.png,exp1.png,trial_right_image,-1,exp1.png,2,exp1.png,exp2.png,1,1,non-reversed,correct,0.7408692372755754,1,valid_win,147.62856559999636,21,,,,,,,,,,,s_019,2,2020_Dec_09_1042,Reversal,3.2.4,60.066192944307275,
15,exp3.png,exp4.png,1,0,1,0,0,15,15,15,,,,,,,,,,,,,,,,,,,,,,,,,False,34,35,False,exp3.png,exp4.png,trial_right_image,-1,exp4.png,2,exp3.png,exp4.png,0,4,reversed,incorrect,0.9992759388741589,0,valid_lose,151.44490960000257,21,,,,,,,,,,,s_019,2,2020_Dec_09_1042,Reversal,3.2.4,60.066192944307275,
16,exp1.png,exp2.png,1,0,1,0,0,16,16,16,,,,,,,,,,,,,,,,,,,,,,,,,False,35,36,True,exp2.png,exp1.png,trial_left_image,1,exp2.png,2,exp1.png,exp2.png,0,2,non-reversed,incorrect,0.9685515549564202,0,valid_lose,154.5504660000006,21,,,,,,,,,,,s_019,2,2020_Dec_09_1042,Reversal,3.2.4,60.066192944307275,
17,exp3.png,exp4.png,1,0,1,0,0,17,17,17,,,,,,,,,,,,,,,,,,,,,,,,,False,36,37,True,exp4.png,exp3.png,trial_left_image,1,exp4.png,2,exp3.png,exp4.png,0,4,reversed,incorrect,0.8309442058664316,0,valid_lose,157.47425300000032,21,,,,,,,,,,,s_019,2,2020_Dec_09_1042,Reversal,3.2.4,60.066192944307275,
18,exp1.png,exp2.png,1,0,1,0,0,18,18,18,,,,,,,,,,,,,,,,,,,,,,,,,False,37,38,False,exp1.png,exp2.png,trial_right_image,-1,exp2.png,2,exp1.png,exp2.png,0,2,non-reversed,incorrect,0.7165208379144845,0,valid_lose,161.5085884,21,,,,,,,,,,,s_019,2,2020_Dec_09_1042,Reversal,3.2.4,60.066192944307275,
19,exp3.png,exp4.png,1,0,1,0,0,19,19,19,,,,,,,,,,,,,,,,,,,,,,,,,False,38,39,False,exp3.png,exp4.png,trial_right_image,-1,exp4.png,2,exp3.png,exp4.png,0,4,reversed,incorrect,0.4202829355469304,0,valid_lose,164.5035929000005,21,,,,,,,,,,,s_019,2,2020_Dec_09_1042,Reversal,3.2.4,60.066192944307275,
20,exp1.png,exp2.png,1,0,1,0,0,20,20,20,,,,,,,,,,,,,,,,,,,,,,,,,False,39,40,True,exp2.png,exp1.png,trial_right_image,-1,exp1.png,2,exp1.png,exp2.png,1,1,non-reversed,correct,0.6271168464941309,1,valid_win,167.4543988000005,22,,,,,,,,,,,s_019,2,2020_Dec_09_1042,Reversal,3.2.4,60.066192944307275,
,,,1,0,1,0,,,,,0,0,0,0,,,,,,,,,,,,,,,,,,,,,,,,,,,,,,,,,,,,,,,,,,50.0,50.0,50.0,50.0,,,,,,,s_019,2,2020_Dec_09_1042,Reversal,3.2.4,60.066192944307275,
0,exp1.png,exp2.png,2,0,2,0,0,0,0,0,,,,,,,,,,,,,,,,,,,,,,,,,True,,,,,,,,,,,,,,,,,,,,,,,,,,,,,,,s_019,2,2020_Dec_09_1042,Reversal,3.2.4,60.066192944307275,
1,exp3.png,exp4.png,2,0,2,0,0,1,1,1,,,,,,,,,,,,,,,,,,,,,,,,,False,40,41,True,exp4.png,exp3.png,trial_right_image,-1,exp3.png,2,exp3.png,exp4.png,1,3,reversed,correct,0.5644528552624534,1,valid_win,176.6865800000014,23,,,,,,,,,,,s_019,2,2020_Dec_09_1042,Reversal,3.2.4,60.066192944307275,
2,exp1.png,exp2.png,2,0,2,0,0,2,2,2,,,,,,,,,,,,,,,,,,,,,,,,,False,41,42,False,exp1.png,exp2.png,trial_right_image,-1,exp2.png,2,exp1.png,exp2.png,0,2,non-reversed,incorrect,0.23786442452422596,1,invalid_win,180.00258079999912,24,,,,,,,,,,,s_019,2,2020_Dec_09_1042,Reversal,3.2.4,60.066192944307275,
3,exp3.png,exp4.png,2,0,2,0,0,3,3,3,,,,,,,,,,,,,,,,,,,,,,,,,False,42,43,False,exp3.png,exp4.png,trial_right_image,-1,exp4.png,2,exp3.png,exp4.png,0,4,reversed,incorrect,0.5954233201912112,0,valid_lose,183.9507425999982,24,,,,,,,,,,,s_019,2,2020_Dec_09_1042,Reversal,3.2.4,60.066192944307275,
4,exp1.png,exp2.png,2,0,2,0,0,4,4,4,,,,,,,,,,,,,,,,,,,,,,,,,False,43,44,False,exp1.png,exp2.png,trial_left_image,1,exp1.png,2,exp1.png,exp2.png,1,1,non-reversed,correct,0.016890299859221747,0,invalid_lose,188.26600569999573,24,,,,,,,,,,,s_019,2,2020_Dec_09_1042,Reversal,3.2.4,60.066192944307275,
5,exp3.png,exp4.png,2,0,2,0,0,5,5,5,,,,,,,,,,,,,,,,,,,,,,,,,False,44,45,False,exp3.png,exp4.png,trial_right_image,-1,exp4.png,2,exp3.png,exp4.png,0,4,reversed,incorrect,0.5078292792440613,0,valid_lose,192.19840409999597,24,,,,,,,,,,,s_019,2,2020_Dec_09_1042,Reversal,3.2.4,60.066192944307275,
6,exp1.png,exp2.png,2,0,2,0,0,6,6,6,,,,,,,,,,,,,,,,,,,,,,,,,False,45,46,False,exp1.png,exp2.png,trial_right_image,-1,exp2.png,2,exp1.png,exp2.png,0,2,non-reversed,incorrect,0.6223424444263522,0,valid_lose,196.2140023999964,24,,,,,,,,,,,s_019,2,2020_Dec_09_1042,Reversal,3.2.4,60.066192944307275,
7,exp3.png,exp4.png,2,0,2,0,0,7,7,7,,,,,,,,,,,,,,,,,,,,,,,,,False,46,47,True,exp4.png,exp3.png,trial_right_image,-1,exp3.png,2,exp3.png,exp4.png,1,3,reversed,correct,0.4462824372572509,1,valid_win,199.2301537999956,25,,,,,,,,,,,s_019,2,2020_Dec_09_1042,Reversal,3.2.4,60.066192944307275,
8,exp1.png,exp2.png,2,0,2,0,0,8,8,8,,,,,,,,,,,,,,,,,,,,,,,,,False,47,48,True,exp2.png,exp1.png,trial_right_image,-1,exp1.png,2,exp1.png,exp2.png,1,1,non-reversed,correct,0.3463025018233412,1,valid_win,203.22775060000276,26,,,,,,,,,,,s_019,2,2020_Dec_09_1042,Reversal,3.2.4,60.066192944307275,
9,exp3.png,exp4.png,2,0,2,0,0,9,9,9,,,,,,,,,,,,,,,,,,,,,,,,,False,48,49,True,exp4.png,exp3.png,trial_right_image,-1,exp3.png,2,exp3.png,exp4.png,1,3,reversed,correct,0.5052444489775708,1,valid_win,207.07517799999914,27,,,,,,,,,,,s_019,2,2020_Dec_09_1042,Reversal,3.2.4,60.066192944307275,
10,exp1.png,exp2.png,2,0,2,0,0,10,10,10,,,,,,,,,,,,,,,,,,,,,,,,,False,49,50,True,exp2.png,exp1.png,trial_right_image,-1,exp1.png,2,exp1.png,exp2.png,1,1,non-reversed,correct,0.7445367075956034,1,valid_win,210.85897799999657,28,,,,,,,,,,,s_019,2,2020_Dec_09_1042,Reversal,3.2.4,60.066192944307275,
11,exp3.png,exp4.png,2,0,2,0,0,11,11,11,,,,,,,,,,,,,,,,,,,,,,,,,False,50,51,True,exp4.png,exp3.png,trial_right_image,-1,exp3.png,2,exp3.png,exp4.png,1,3,reversed,correct,0.278024823065641,1,valid_win,213.78889699999854,29,,,,,,,,,,,s_019,2,2020_Dec_09_1042,Reversal,3.2.4,60.066192944307275,
12,exp1.png,exp2.png,2,0,2,0,0,12,12,12,,,,,,,,,,,,,,,,,,,,,,,,,False,51,52,True,exp2.png,exp1.png,trial_right_image,-1,exp1.png,2,exp1.png,exp2.png,1,1,non-reversed,correct,0.6429803580779291,1,valid_win,216.80618870000035,30,,,,,,,,,,,s_019,2,2020_Dec_09_1042,Reversal,3.2.4,60.066192944307275,
13,exp3.png,exp4.png,2,0,2,0,0,13,13,13,,,,,,,,,,,,,,,,,,,,,,,,,False,52,53,True,exp4.png,exp3.png,trial_right_image,-1,exp3.png,2,exp3.png,exp4.png,1,3,reversed,correct,0.337924696579183,1,valid_win,220.10521529999824,31,,,,,,,,,,,s_019,2,2020_Dec_09_1042,Reversal,3.2.4,60.066192944307275,
14,exp1.png,exp2.png,2,0,2,0,0,14,14,14,,,,,,,,,,,,,,,,,,,,,,,,,False,53,54,False,exp1.png,exp2.png,trial_right_image,-1,exp2.png,2,exp1.png,exp2.png,0,2,non-reversed,incorrect,0.28592160312451287,0,valid_lose,223.6207568999962,31,,,,,,,,,,,s_019,2,2020_Dec_09_1042,Reversal,3.2.4,60.066192944307275,
15,exp3.png,exp4.png,2,0,2,0,0,15,15,15,,,,,,,,,,,,,,,,,,,,,,,,,False,54,55,False,exp3.png,exp4.png,trial_left_image,1,exp3.png,2,exp3.png,exp4.png,1,3,reversed,correct,0.3379389902008124,1,valid_win,226.56781279999996,32,,,,,,,,,,,s_019,2,2020_Dec_09_1042,Reversal,3.2.4,60.066192944307275,
16,exp1.png,exp2.png,2,0,2,0,0,16,16,16,,,,,,,,,,,,,,,,,,,,,,,,,False,55,56,False,exp1.png,exp2.png,trial_right_image,-1,exp2.png,2,exp1.png,exp2.png,0,2,non-reversed,incorrect,0.9010973333225032,0,valid_lose,229.4999026000005,32,,,,,,,,,,,s_019,2,2020_Dec_09_1042,Reversal,3.2.4,60.066192944307275,
17,exp3.png,exp4.png,2,0,2,0,0,17,17,17,,,,,,,,,,,,,,,,,,,,,,,,,False,56,57,True,exp4.png,exp3.png,trial_right_image,-1,exp3.png,2,exp3.png,exp4.png,1,3,reversed,correct,0.2519387465377134,1,valid_win,232.66754760000185,33,,,,,,,,,,,s_019,2,2020_Dec_09_1042,Reversal,3.2.4,60.066192944307275,
18,exp1.png,exp2.png,2,0,2,0,0,18,18,18,,,,,,,,,,,,,,,,,,,,,,,,,False,57,58,True,exp2.png,exp1.png,trial_right_image,-1,exp1.png,2,exp1.png,exp2.png,1,1,non-reversed,correct,0.7795765169753621,1,valid_win,237.09815820000222,34,,,,,,,,,,,s_019,2,2020_Dec_09_1042,Reversal,3.2.4,60.066192944307275,
19,exp3.png,exp4.png,2,0,2,0,0,19,19,19,,,,,,,,,,,,,,,,,,,,,,,,,False,58,59,False,exp3.png,exp4.png,trial_right_image,-1,exp4.png,2,exp3.png,exp4.png,0,4,reversed,incorrect,0.88569745578709,0,valid_lose,240.41494599999714,34,,,,,,,,,,,s_019,2,2020_Dec_09_1042,Reversal,3.2.4,60.066192944307275,
20,exp1.png,exp2.png,2,0,2,0,0,20,20,20,,,,,,,,,,,,,,,,,,,,,,,,,False,59,60,False,exp1.png,exp2.png,trial_right_image,-1,exp2.png,2,exp1.png,exp2.png,0,2,non-reversed,incorrect,0.9040615937198971,0,valid_lose,244.54553060000035,34,,,,,,,,,,,s_019,2,2020_Dec_09_1042,Reversal,3.2.4,60.066192944307275,
,,,2,0,2,0,,,,,0,0,0,0,,,,,,,,,,,,,,,,,,,,,,,,,,,,,,,,,,,,,,,,,,50,50.0,50.0,50.0,,,,,,,s_019,2,2020_Dec_09_1042,Reversal,3.2.4,60.066192944307275,
0,exp1.png,exp2.png,3,0,3,0,0,0,0,0,,,,,,,,,,,,,,,,,,,,,,,,,True,,,,,,,,,,,,,,,,,,,,,,,,,,,,,,,s_019,2,2020_Dec_09_1042,Reversal,3.2.4,60.066192944307275,
1,exp3.png,exp4.png,3,0,3,0,0,1,1,1,,,,,,,,,,,,,,,,,,,,,,,,,False,60,61,True,exp4.png,exp3.png,trial_right_image,-1,exp3.png,2,exp3.png,exp4.png,1,3,reversed,correct,0.4504568793540784,1,valid_win,261.7075093999956,35,,,,,,,,,,,s_019,2,2020_Dec_09_1042,Reversal,3.2.4,60.066192944307275,
2,exp1.png,exp2.png,3,0,3,0,0,2,2,2,,,,,,,,,,,,,,,,,,,,,,,,,False,61,62,True,exp2.png,exp1.png,trial_right_image,-1,exp1.png,2,exp1.png,exp2.png,1,1,non-reversed,correct,0.6169627020460866,1,valid_win,265.65542789999745,36,,,,,,,,,,,s_019,2,2020_Dec_09_1042,Reversal,3.2.4,60.066192944307275,
3,exp3.png,exp4.png,3,0,3,0,0,3,3,3,,,,,,,,,,,,,,,,,,,,,,,,,False,62,63,False,exp3.png,exp4.png,trial_right_image,-1,exp4.png,2,exp3.png,exp4.png,0,4,reversed,incorrect,0.038221757138073964,1,invalid_win,269.5706871000002,37,,,,,,,,,,,s_019,2,2020_Dec_09_1042,Reversal,3.2.4,60.066192944307275,
4,exp1.png,exp2.png,3,0,3,0,0,4,4,4,,,,,,,,,,,,,,,,,,,,,,,,,False,63,64,False,exp1.png,exp2.png,trial_left_image,1,exp1.png,2,exp1.png,exp2.png,1,1,non-reversed,correct,0.3030486725408702,1,valid_win,273.0687246000016,38,,,,,,,,,,,s_019,2,2020_Dec_09_1042,Reversal,3.2.4,60.066192944307275,
5,exp3.png,exp4.png,3,0,3,0,0,5,5,5,,,,,,,,,,,,,,,,,,,,,,,,,False,64,65,False,exp3.png,exp4.png,trial_right_image,-1,exp4.png,2,exp3.png,exp4.png,0,4,reversed,incorrect,0.5756974355366303,0,valid_lose,276.88480990000244,38,,,,,,,,,,,s_019,2,2020_Dec_09_1042,Reversal,3.2.4,60.066192944307275,
6,exp1.png,exp2.png,3,0,3,0,0,6,6,6,,,,,,,,,,,,,,,,,,,,,,,,,False,65,66,True,exp2.png,exp1.png,trial_right_image,-1,exp1.png,2,exp1.png,exp2.png,1,1,non-reversed,correct,0.6363793807489381,1,valid_win,280.7011069,39,,,,,,,,,,,s_019,2,2020_Dec_09_1042,Reversal,3.2.4,60.066192944307275,
7,exp3.png,exp4.png,3,0,3,0,0,7,7,7,,,,,,,,,,,,,,,,,,,,,,,,,False,66,67,False,exp3.png,exp4.png,trial_right_image,-1,exp4.png,2,exp3.png,exp4.png,0,4,reversed,incorrect,0.7484195680224671,0,valid_lose,283.967229599999,39,,,,,,,,,,,s_019,2,2020_Dec_09_1042,Reversal,3.2.4,60.066192944307275,
8,exp1.png,exp2.png,3,0,3,0,0,8,8,8,,,,,,,,,,,,,,,,,,,,,,,,,False,67,68,False,exp1.png,exp2.png,trial_right_image,-1,exp2.png,2,exp1.png,exp2.png,0,2,non-reversed,incorrect,0.9604851997533914,0,valid_lose,287.1575849000001,39,,,,,,,,,,,s_019,2,2020_Dec_09_1042,Reversal,3.2.4,60.066192944307275,
9,exp3.png,exp4.png,3,0,3,0,0,9,9,9,,,,,,,,,,,,,,,,,,,,,,,,,False,68,69,False,exp3.png,exp4.png,trial_right_image,-1,exp4.png,2,exp3.png,exp4.png,0,4,reversed,incorrect,0.5722551165225561,0,valid_lose,290.313934699996,39,,,,,,,,,,,s_019,2,2020_Dec_09_1042,Reversal,3.2.4,60.066192944307275,
10,exp1.png,exp2.png,3,0,3,0,0,10,10,10,,,,,,,,,,,,,,,,,,,,,,,,,False,69,70,False,exp1.png,exp2.png,trial_right_image,-1,exp2.png,2,exp1.png,exp2.png,0,2,non-reversed,incorrect,0.4942927188108528,0,valid_lose,293.6294691000003,39,,,,,,,,,,,s_019,2,2020_Dec_09_1042,Reversal,3.2.4,60.066192944307275,
11,exp3.png,exp4.png,3,0,3,0,0,11,11,11,,,,,,,,,,,,,,,,,,,,,,,,,False,70,71,False,exp3.png,exp4.png,trial_right_image,-1,exp4.png,2,exp3.png,exp4.png,0,4,reversed,incorrect,0.08577316879943886,1,invalid_win,297.49554910000006,40,,,,,,,,,,,s_019,2,2020_Dec_09_1042,Reversal,3.2.4,60.066192944307275,
12,exp1.png,exp2.png,3,0,3,0,0,12,12,12,,,,,,,,,,,,,,,,,,,,,,,,,False,71,72,True,exp2.png,exp1.png,trial_right_image,-1,exp1.png,2,exp1.png,exp2.png,1,1,non-reversed,correct,0.37010658240589167,1,valid_win,301.34483239999827,41,,,,,,,,,,,s_019,2,2020_Dec_09_1042,Reversal,3.2.4,60.066192944307275,
13,exp3.png,exp4.png,3,0,3,0,0,13,13,13,,,,,,,,,,,,,,,,,,,,,,,,,False,72,73,False,exp3.png,exp4.png,trial_left_image,1,exp3.png,2,exp3.png,exp4.png,1,3,reversed,correct,0.14175691805534574,0,invalid_lose,304.56816860000254,41,,,,,,,,,,,s_019,2,2020_Dec_09_1042,Reversal,3.2.4,60.066192944307275,
14,exp1.png,exp2.png,3,0,3,0,0,14,14,14,,,,,,,,,,,,,,,,,,,,,,,,,False,73,74,True,exp2.png,exp1.png,trial_left_image,1,exp2.png,2,exp1.png,exp2.png,0,2,non-reversed,incorrect,0.21877158138606068,1,invalid_win,307.6763699000003,42,,,,,,,,,,,s_019,2,2020_Dec_09_1042,Reversal,3.2.4,60.066192944307275,
15,exp3.png,exp4.png,3,0,3,0,0,15,15,15,,,,,,,,,,,,,,,,,,,,,,,,,False,74,75,True,exp4.png,exp3.png,trial_left_image,1,exp4.png,2,exp3.png,exp4.png,0,4,reversed,incorrect,0.05180940464857908,1,invalid_win,310.97485479999887,43,,,,,,,,,,,s_019,2,2020_Dec_09_1042,Reversal,3.2.4,60.066192944307275,
16,exp1.png,exp2.png,3,0,3,0,0,16,16,16,,,,,,,,,,,,,,,,,,,,,,,,,False,75,76,False,exp1.png,exp2.png,trial_right_image,-1,exp2.png,2,exp1.png,exp2.png,0,2,non-reversed,incorrect,0.43230864054452267,0,valid_lose,314.25997169999755,43,,,,,,,,,,,s_019,2,2020_Dec_09_1042,Reversal,3.2.4,60.066192944307275,
17,exp3.png,exp4.png,3,0,3,0,0,17,17,17,,,,,,,,,,,,,,,,,,,,,,,,,False,76,77,True,exp4.png,exp3.png,trial_left_image,1,exp4.png,2,exp3.png,exp4.png,0,4,reversed,incorrect,0.8940417589535444,0,valid_lose,318.0556424000024,43,,,,,,,,,,,s_019,2,2020_Dec_09_1042,Reversal,3.2.4,60.066192944307275,
18,exp1.png,exp2.png,3,0,3,0,0,18,18,18,,,,,,,,,,,,,,,,,,,,,,,,,False,77,78,True,exp2.png,exp1.png,trial_right_image,-1,exp1.png,2,exp1.png,exp2.png,1,1,non-reversed,correct,0.4671199527541118,1,valid_win,321.202939099996,44,,,,,,,,,,,s_019,2,2020_Dec_09_1042,Reversal,3.2.4,60.066192944307275,
19,exp3.png,exp4.png,3,0,3,0,0,19,19,19,,,,,,,,,,,,,,,,,,,,,,,,,False,78,79,True,exp4.png,exp3.png,trial_right_image,-1,exp3.png,2,exp3.png,exp4.png,1,3,reversed,correct,0.49025512741724964,1,valid_win,324.6087561999957,45,,,,,,,,,,,s_019,2,2020_Dec_09_1042,Reversal,3.2.4,60.066192944307275,
20,exp1.png,exp2.png,3,0,3,0,0,20,20,20,,,,,,,,,,,,,,,,,,,,,,,,,False,79,80,True,exp2.png,exp1.png,trial_right_image,-1,exp1.png,2,exp1.png,exp2.png,1,1,non-reversed,correct,0.5994536123320118,1,valid_win,328.5017538999964,46,,,,,,,,,,,s_019,2,2020_Dec_09_1042,Reversal,3.2.4,60.066192944307275,
,,,3,0,3,0,,,,,0,0,0,0,,,,,,,,,,,,,,,,,,,,,,,,,,,,,,,,,,,,,,,,,,50.0,50.0,50.0,50.0,,,,,,,s_019,2,2020_Dec_09_1042,Reversal,3.2.4,60.066192944307275,
0,exp1.png,exp2.png,,,,,,,,,,,,,,,,,0,0,0,0,0,0,0,0,,,,,,,,,True,,,,,,,,,,,,,,,,,,,,,,,,,,,,,,,s_019,2,2020_Dec_09_1042,Reversal,3.2.4,60.066192944307275,
1,exp3.png,exp4.png,,,,,,,,,,,,,,,,,0,0,0,0,0,1,1,1,,,,,,,,,False,0,81,False,exp3.png,exp4.png,trial_right_image,-1,exp4.png,2,exp4.png,exp3.png,0,4,reversed,correct,0.04468224596424264,0,invalid_lose,336.26627369999915,46,,,,,334.8069816999996,,,,,,s_019,2,2020_Dec_09_1042,Reversal,3.2.4,60.066192944307275,
2,exp1.png,exp2.png,,,,,,,,,,,,,,,,,0,0,0,0,0,2,2,2,,,,,,,,,False,1,82,True,exp2.png,exp1.png,trial_left_image,1,exp2.png,2,exp1.png,exp2.png,0,2,non-reversed,incorrect,0.6860779177148851,0,valid_lose,339.6481829999975,46,,,,,,,,,,,s_019,2,2020_Dec_09_1042,Reversal,3.2.4,60.066192944307275,
3,exp3.png,exp4.png,,,,,,,,,,,,,,,,,0,0,0,0,0,3,3,3,,,,,,,,,False,2,83,False,exp3.png,exp4.png,trial_right_image,-1,exp4.png,2,exp4.png,exp3.png,0,4,reversed,correct,0.1896011169169579,0,invalid_lose,342.702801499996,46,,,,,,,,,,,s_019,2,2020_Dec_09_1042,Reversal,3.2.4,60.066192944307275,
4,exp1.png,exp2.png,,,,,,,,,,,,,,,,,0,0,0,0,0,4,4,4,,,,,,,,,False,3,84,True,exp2.png,exp1.png,trial_right_image,-1,exp1.png,2,exp1.png,exp2.png,1,1,non-reversed,correct,0.2775602415477687,1,valid_win,345.6276310999965,47,,,,,,,,,,,s_019,2,2020_Dec_09_1042,Reversal,3.2.4,60.066192944307275,
5,exp3.png,exp4.png,,,,,,,,,,,,,,,,,0,0,0,0,0,5,5,5,,,,,,,,,False,4,85,True,exp4.png,exp3.png,trial_right_image,-1,exp3.png,2,exp4.png,exp3.png,1,3,reversed,incorrect,0.2674850678873386,0,valid_lose,348.5752657999983,47,,,,,,,,,,,s_019,2,2020_Dec_09_1042,Reversal,3.2.4,60.066192944307275,
6,exp1.png,exp2.png,,,,,,,,,,,,,,,,,0,0,0,0,0,6,6,6,,,,,,,,,False,5,86,False,exp1.png,exp2.png,trial_right_image,-1,exp2.png,2,exp1.png,exp2.png,0,2,non-reversed,incorrect,0.12085526588428219,1,invalid_win,352.4440889999969,48,,,,,,,,,,,s_019,2,2020_Dec_09_1042,Reversal,3.2.4,60.066192944307275,
7,exp3.png,exp4.png,,,,,,,,,,,,,,,,,0,0,0,0,0,7,7,7,,,,,,,,,False,6,87,False,exp3.png,exp4.png,trial_right_image,-1,exp4.png,2,exp4.png,exp3.png,0,4,reversed,correct,0.0799144297208777,0,invalid_lose,355.77731230000063,48,,,,,,,,,,,s_019,2,2020_Dec_09_1042,Reversal,3.2.4,60.066192944307275,
8,exp1.png,exp2.png,,,,,,,,,,,,,,,,,0,0,0,0,0,8,8,8,,,,,,,,,False,7,88,False,exp1.png,exp2.png,trial_right_image,-1,exp2.png,2,exp1.png,exp2.png,0,2,non-reversed,incorrect,0.0992874733450283,1,invalid_win,359.1406846000027,49,,,,,,,,,,,s_019,2,2020_Dec_09_1042,Reversal,3.2.4,60.066192944307275,
9,exp3.png,exp4.png,,,,,,,,,,,,,,,,,0,0,0,0,0,9,9,9,,,,,,,,,False,8,89,False,exp3.png,exp4.png,trial_right_image,-1,exp4.png,2,exp4.png,exp3.png,0,4,reversed,correct,0.3866711094204761,1,valid_win,362.07180430000153,50,,,,,,,,,,,s_019,2,2020_Dec_09_1042,Reversal,3.2.4,60.066192944307275,
10,exp1.png,exp2.png,,,,,,,,,,,,,,,,,0,0,0,0,0,10,10,10,,,,,,,,,False,9,90,True,exp2.png,exp1.png,trial_right_image,-1,exp1.png,2,exp1.png,exp2.png,1,1,non-reversed,correct,0.2893335603147723,1,valid_win,365.1952904999998,51,,,,,,,,,,,s_019,2,2020_Dec_09_1042,Reversal,3.2.4,60.066192944307275,
11,exp3.png,exp4.png,,,,,,,,,,,,,,,,,0,0,0,0,0,11,11,11,,,,,,,,,False,10,91,False,exp3.png,exp4.png,trial_right_image,-1,exp4.png,2,exp4.png,exp3.png,0,4,reversed,correct,0.24600386492302007,0,invalid_lose,368.47040829999605,51,,,,,,,,,,,s_019,2,2020_Dec_09_1042,Reversal,3.2.4,60.066192944307275,
12,exp1.png,exp2.png,,,,,,,,,,,,,,,,,0,0,0,0,0,12,12,12,,,,,,,,,False,11,92,True,exp2.png,exp1.png,trial_left_image,1,exp2.png,2,exp1.png,exp2.png,0,2,non-reversed,incorrect,0.08260313871625657,1,invalid_win,371.40292339999723,52,,,,,,,,,,,s_019,2,2020_Dec_09_1042,Reversal,3.2.4,60.066192944307275,
13,exp3.png,exp4.png,,,,,,,,,,,,,,,,,0,0,0,0,0,13,13,13,,,,,,,,,False,12,93,True,exp4.png,exp3.png,trial_right_image,-1,exp3.png,2,exp4.png,exp3.png,1,3,reversed,incorrect,0.022741625863920478,1,invalid_win,374.35122079999564,53,,,,,,,,,,,s_019,2,2020_Dec_09_1042,Reversal,3.2.4,60.066192944307275,
14,exp1.png,exp2.png,,,,,,,,,,,,,,,,,0,0,0,0,0,14,14,14,,,,,,,,,False,13,94,True,exp2.png,exp1.png,trial_right_image,-1,exp1.png,2,exp1.png,exp2.png,1,1,non-reversed,correct,0.12251161689183065,0,invalid_lose,377.6519266999967,53,,,,,,,,,,,s_019,2,2020_Dec_09_1042,Reversal,3.2.4,60.066192944307275,
15,exp3.png,exp4.png,,,,,,,,,,,,,,,,,0,0,0,0,0,15,15,15,,,,,,,,,False,14,95,True,exp4.png,exp3.png,trial_right_image,-1,exp3.png,2,exp4.png,exp3.png,1,3,reversed,incorrect,0.6990358387547819,0,valid_lose,380.9177378000022,53,,,,,,,,,,,s_019,2,2020_Dec_09_1042,Reversal,3.2.4,60.066192944307275,
16,exp1.png,exp2.png,,,,,,,,,,,,,,,,,0,0,0,0,0,16,16,16,,,,,,,,,False,15,96,True,exp2.png,exp1.png,trial_right_image,-1,exp1.png,2,exp1.png,exp2.png,1,1,non-reversed,correct,0.8668525751336328,1,valid_win,383.8480905999968,54,,,,,,,,,,,s_019,2,2020_Dec_09_1042,Reversal,3.2.4,60.066192944307275,
17,exp3.png,exp4.png,,,,,,,,,,,,,,,,,0,0,0,0,0,17,17,17,,,,,,,,,False,16,97,True,exp4.png,exp3.png,trial_right_image,-1,exp3.png,2,exp4.png,exp3.png,1,3,reversed,incorrect,0.5046465812340284,0,valid_lose,386.8979887000023,54,,,,,,,,,,,s_019,2,2020_Dec_09_1042,Reversal,3.2.4,60.066192944307275,
18,exp1.png,exp2.png,,,,,,,,,,,,,,,,,0,0,0,0,0,18,18,18,,,,,,,,,False,17,98,False,exp1.png,exp2.png,trial_right_image,-1,exp2.png,2,exp1.png,exp2.png,0,2,non-reversed,incorrect,0.5813140166609236,0,valid_lose,389.8291173999969,54,,,,,,,,,,,s_019,2,2020_Dec_09_1042,Reversal,3.2.4,60.066192944307275,
19,exp3.png,exp4.png,,,,,,,,,,,,,,,,,0,0,0,0,0,19,19,19,,,,,,,,,False,18,99,False,exp3.png,exp4.png,trial_right_image,-1,exp4.png,2,exp4.png,exp3.png,0,4,reversed,correct,0.5955091837279867,1,valid_win,393.58006939999905,55,,,,,,,,,,,s_019,2,2020_Dec_09_1042,Reversal,3.2.4,60.066192944307275,
20,exp1.png,exp2.png,,,,,,,,,,,,,,,,,0,0,0,0,0,20,20,20,,,,,,,,,False,19,100,False,exp1.png,exp2.png,trial_left_image,1,exp1.png,2,exp1.png,exp2.png,1,1,non-reversed,correct,0.6148998732797123,1,valid_win,397.4952542999963,56,,,,,,,,,,,s_019,2,2020_Dec_09_1042,Reversal,3.2.4,60.066192944307275,
,,,,,,,,,,,,,,,,,,,0,0,0,0,,,,,0,0,0,0,,,,,,,,,,,,,,,,,,,,,,,,,,50.0,50.0,50.0,50.0,,,,,,,s_019,2,2020_Dec_09_1042,Reversal,3.2.4,60.066192944307275,
0,exp1.png,exp2.png,,,,,,,,,,,,,,,,,1,0,1,0,0,0,0,0,,,,,,,,,True,,,,,,,,,,,,,,,,,,,,,,,,,,,,,,,s_019,2,2020_Dec_09_1042,Reversal,3.2.4,60.066192944307275,
1,exp3.png,exp4.png,,,,,,,,,,,,,,,,,1,0,1,0,0,1,1,1,,,,,,,,,False,20,101,False,exp3.png,exp4.png,trial_left_image,1,exp3.png,2,exp4.png,exp3.png,1,3,reversed,incorrect,0.02231139244426994,1,invalid_win,405.0072270000019,57,,,,,,,,,,,s_019,2,2020_Dec_09_1042,Reversal,3.2.4,60.066192944307275,
2,exp1.png,exp2.png,,,,,,,,,,,,,,,,,1,0,1,0,0,2,2,2,,,,,,,,,False,21,102,False,exp1.png,exp2.png,trial_left_image,1,exp1.png,2,exp1.png,exp2.png,1,1,non-reversed,correct,0.8272912563481011,1,valid_win,408.22418769999786,58,,,,,,,,,,,s_019,2,2020_Dec_09_1042,Reversal,3.2.4,60.066192944307275,
3,exp3.png,exp4.png,,,,,,,,,,,,,,,,,1,0,1,0,0,3,3,3,,,,,,,,,False,22,103,False,exp3.png,exp4.png,trial_left_image,1,exp3.png,2,exp4.png,exp3.png,1,3,reversed,incorrect,0.06488482955930741,1,invalid_win,411.13846969999577,59,,,,,,,,,,,s_019,2,2020_Dec_09_1042,Reversal,3.2.4,60.066192944307275,
4,exp1.png,exp2.png,,,,,,,,,,,,,,,,,1,0,1,0,0,4,4,4,,,,,,,,,False,23,104,False,exp1.png,exp2.png,trial_left_image,1,exp1.png,2,exp1.png,exp2.png,1,1,non-reversed,correct,0.7125116856694321,1,valid_win,414.98940059999586,60,,,,,,,,,,,s_019,2,2020_Dec_09_1042,Reversal,3.2.4,60.066192944307275,
5,exp3.png,exp4.png,,,,,,,,,,,,,,,,,1,0,1,0,0,5,5,5,,,,,,,,,False,24,105,False,exp3.png,exp4.png,trial_left_image,1,exp3.png,2,exp4.png,exp3.png,1,3,reversed,incorrect,0.8982845550197698,0,valid_lose,418.9546638999964,60,,,,,,,,,,,s_019,2,2020_Dec_09_1042,Reversal,3.2.4,60.066192944307275,
6,exp1.png,exp2.png,,,,,,,,,,,,,,,,,1,0,1,0,0,6,6,6,,,,,,,,,False,25,106,True,exp2.png,exp1.png,trial_right_image,-1,exp1.png,2,exp1.png,exp2.png,1,1,non-reversed,correct,0.08929402794001329,0,invalid_lose,421.9081993,60,,,,,,,,,,,s_019,2,2020_Dec_09_1042,Reversal,3.2.4,60.066192944307275,
7,exp3.png,exp4.png,,,,,,,,,,,,,,,,,1,0,1,0,0,7,7,7,,,,,,,,,False,26,107,True,exp4.png,exp3.png,trial_left_image,1,exp4.png,2,exp4.png,exp3.png,0,4,reversed,correct,0.17446449609975323,0,invalid_lose,425.78622929999983,60,,,,,,,,,,,s_019,2,2020_Dec_09_1042,Reversal,3.2.4,60.066192944307275,
8,exp1.png,exp2.png,,,,,,,,,,,,,,,,,1,0,1,0,0,8,8,8,,,,,,,,,False,27,108,True,exp2.png,exp1.png,trial_left_image,1,exp2.png,2,exp1.png,exp2.png,0,2,non-reversed,incorrect,0.8685319809158271,0,valid_lose,428.7329738999979,60,,,,,,,,,,,s_019,2,2020_Dec_09_1042,Reversal,3.2.4,60.066192944307275,
9,exp3.png,exp4.png,,,,,,,,,,,,,,,,,1,0,1,0,0,9,9,9,,,,,,,,,False,28,109,True,exp4.png,exp3.png,trial_left_image,1,exp4.png,2,exp4.png,exp3.png,0,4,reversed,correct,0.43959777079447115,1,valid_win,432.6501863000012,61,,,,,,,,,,,s_019,2,2020_Dec_09_1042,Reversal,3.2.4,60.066192944307275,
10,exp1.png,exp2.png,,,,,,,,,,,,,,,,,1,0,1,0,0,10,10,10,,,,,,,,,False,29,110,False,exp1.png,exp2.png,trial_left_image,1,exp1.png,2,exp1.png,exp2.png,1,1,non-reversed,correct,0.41137039022220523,1,valid_win,436.03233969999565,62,,,,,,,,,,,s_019,2,2020_Dec_09_1042,Reversal,3.2.4,60.066192944307275,
11,exp3.png,exp4.png,,,,,,,,,,,,,,,,,1,0,1,0,0,11,11,11,,,,,,,,,False,30,111,False,exp3.png,exp4.png,trial_left_image,1,exp3.png,2,exp4.png,exp3.png,1,3,reversed,incorrect,0.06568855679414476,1,invalid_win,439.39798449999944,63,,,,,,,,,,,s_019,2,2020_Dec_09_1042,Reversal,3.2.4,60.066192944307275,
12,exp1.png,exp2.png,,,,,,,,,,,,,,,,,1,0,1,0,0,12,12,12,,,,,,,,,False,31,112,True,exp2.png,exp1.png,trial_left_image,1,exp2.png,2,exp1.png,exp2.png,0,2,non-reversed,incorrect,0.05594003907407641,1,invalid_win,442.54696590000094,64,,,,,,,,,,,s_019,2,2020_Dec_09_1042,Reversal,3.2.4,60.066192944307275,
13,exp3.png,exp4.png,,,,,,,,,,,,,,,,,1,0,1,0,0,13,13,13,,,,,,,,,False,32,113,True,exp4.png,exp3.png,trial_right_image,-1,exp3.png,2,exp4.png,exp3.png,1,3,reversed,incorrect,0.9978836566582828,0,valid_lose,445.6624298999959,64,,,,,,,,,,,s_019,2,2020_Dec_09_1042,Reversal,3.2.4,60.066192944307275,
14,exp1.png,exp2.png,,,,,,,,,,,,,,,,,1,0,1,0,0,14,14,14,,,,,,,,,False,33,114,False,exp1.png,exp2.png,trial_right_image,-1,exp2.png,2,exp1.png,exp2.png,0,2,non-reversed,incorrect,0.07270888738822223,1,invalid_win,448.624762499996,65,,,,,,,,,,,s_019,2,2020_Dec_09_1042,Reversal,3.2.4,60.066192944307275,
15,exp3.png,exp4.png,,,,,,,,,,,,,,,,,1,0,1,0,0,15,15,15,,,,,,,,,False,34,115,True,exp4.png,exp3.png,trial_right_image,-1,exp3.png,2,exp4.png,exp3.png,1,3,reversed,incorrect,0.6789990684544905,0,valid_lose,451.557936899997,65,,,,,,,,,,,s_019,2,2020_Dec_09_1042,Reversal,3.2.4,60.066192944307275,
16,exp1.png,exp2.png,,,,,,,,,,,,,,,,,1,0,1,0,0,16,16,16,,,,,,,,,False,35,116,True,exp2.png,exp1.png,trial_right_image,-1,exp1.png,2,exp1.png,exp2.png,1,1,non-reversed,correct,0.6134384287678527,1,valid_win,454.82473200000095,66,,,,,,,,,,,s_019,2,2020_Dec_09_1042,Reversal,3.2.4,60.066192944307275,
17,exp3.png,exp4.png,,,,,,,,,,,,,,,,,1,0,1,0,0,17,17,17,,,,,,,,,False,36,117,False,exp3.png,exp4.png,trial_left_image,1,exp3.png,2,exp4.png,exp3.png,1,3,reversed,incorrect,0.20049287517306025,1,invalid_win,457.7486018999989,67,,,,,,,,,,,s_019,2,2020_Dec_09_1042,Reversal,3.2.4,60.066192944307275,
18,exp1.png,exp2.png,,,,,,,,,,,,,,,,,1,0,1,0,0,18,18,18,,,,,,,,,False,37,118,True,exp2.png,exp1.png,trial_left_image,1,exp2.png,2,exp1.png,exp2.png,0,2,non-reversed,incorrect,0.9346685964698371,0,valid_lose,460.65526359999785,67,,,,,,,,,,,s_019,2,2020_Dec_09_1042,Reversal,3.2.4,60.066192944307275,
19,exp3.png,exp4.png,,,,,,,,,,,,,,,,,1,0,1,0,0,19,19,19,,,,,,,,,False,38,119,False,exp3.png,exp4.png,trial_left_image,1,exp3.png,2,exp4.png,exp3.png,1,3,reversed,incorrect,0.4938348774324095,0,valid_lose,463.7565211999972,67,,,,,,,,,,,s_019,2,2020_Dec_09_1042,Reversal,3.2.4,60.066192944307275,
20,exp1.png,exp2.png,,,,,,,,,,,,,,,,,1,0,1,0,0,20,20,20,,,,,,,,,False,39,120,True,exp2.png,exp1.png,trial_right_image,-1,exp1.png,2,exp1.png,exp2.png,1,1,non-reversed,correct,0.542140316984688,1,valid_win,467.2716733999987,68,,,,,,,,,,,s_019,2,2020_Dec_09_1042,Reversal,3.2.4,60.066192944307275,
,,,,,,,,,,,,,,,,,,,1,0,1,0,,,,,0,0,0,0,,,,,,,,,,,,,,,,,,,,,,,,,,50.0,50.0,50.0,50.0,,,,,,,s_019,2,2020_Dec_09_1042,Reversal,3.2.4,60.066192944307275,
0,exp1.png,exp2.png,,,,,,,,,,,,,,,,,2,0,2,0,0,0,0,0,,,,,,,,,True,,,,,,,,,,,,,,,,,,,,,,,,,,,,,,,s_019,2,2020_Dec_09_1042,Reversal,3.2.4,60.066192944307275,
1,exp3.png,exp4.png,,,,,,,,,,,,,,,,,2,0,2,0,0,1,1,1,,,,,,,,,False,40,121,False,exp3.png,exp4.png,trial_right_image,-1,exp4.png,2,exp4.png,exp3.png,0,4,reversed,correct,0.17538517437253853,0,invalid_lose,473.86840619999566,68,,,,,,,,,,,s_019,2,2020_Dec_09_1042,Reversal,3.2.4,60.066192944307275,
2,exp1.png,exp2.png,,,,,,,,,,,,,,,,,2,0,2,0,0,2,2,2,,,,,,,,,False,41,122,False,exp1.png,exp2.png,trial_right_image,-1,exp2.png,2,exp1.png,exp2.png,0,2,non-reversed,incorrect,0.825050384482835,0,valid_lose,477.0017974000002,68,,,,,,,,,,,s_019,2,2020_Dec_09_1042,Reversal,3.2.4,60.066192944307275,
3,exp3.png,exp4.png,,,,,,,,,,,,,,,,,2,0,2,0,0,3,3,3,,,,,,,,,False,42,123,True,exp4.png,exp3.png,trial_left_image,1,exp4.png,2,exp4.png,exp3.png,0,4,reversed,correct,0.40661030057653846,1,valid_win,481.05082160000165,69,,,,,,,,,,,s_019,2,2020_Dec_09_1042,Reversal,3.2.4,60.066192944307275,
4,exp1.png,exp2.png,,,,,,,,,,,,,,,,,2,0,2,0,0,4,4,4,,,,,,,,,False,43,124,True,exp2.png,exp1.png,trial_left_image,1,exp2.png,2,exp1.png,exp2.png,0,2,non-reversed,incorrect,0.8759197703263614,0,valid_lose,485.2656582999989,69,,,,,,,,,,,s_019,2,2020_Dec_09_1042,Reversal,3.2.4,60.066192944307275,
5,exp3.png,exp4.png,,,,,,,,,,,,,,,,,2,0,2,0,0,5,5,5,,,,,,,,,False,44,125,True,exp4.png,exp3.png,trial_right_image,-1,exp3.png,2,exp4.png,exp3.png,1,3,reversed,incorrect,0.809595005476551,0,valid_lose,488.21124399999826,69,,,,,,,,,,,s_019,2,2020_Dec_09_1042,Reversal,3.2.4,60.066192944307275,
6,exp1.png,exp2.png,,,,,,,,,,,,,,,,,2,0,2,0,0,6,6,6,,,,,,,,,False,45,126,False,exp1.png,exp2.png,trial_right_image,-1,exp2.png,2,exp1.png,exp2.png,0,2,non-reversed,incorrect,0.7455327235661892,0,valid_lose,491.26254589999735,69,,,,,,,,,,,s_019,2,2020_Dec_09_1042,Reversal,3.2.4,60.066192944307275,
7,exp3.png,exp4.png,,,,,,,,,,,,,,,,,2,0,2,0,0,7,7,7,,,,,,,,,False,46,127,True,exp4.png,exp3.png,trial_right_image,-1,exp3.png,2,exp4.png,exp3.png,1,3,reversed,incorrect,0.6052943429689035,0,valid_lose,494.21107810000103,69,,,,,,,,,,,s_019,2,2020_Dec_09_1042,Reversal,3.2.4,60.066192944307275,
8,exp1.png,exp2.png,,,,,,,,,,,,,,,,,2,0,2,0,0,8,8,8,,,,,,,,,False,47,128,True,exp2.png,exp1.png,trial_right_image,-1,exp1.png,2,exp1.png,exp2.png,1,1,non-reversed,correct,0.47584107922835917,1,valid_win,497.37834609999845,70,,,,,,,,,,,s_019,2,2020_Dec_09_1042,Reversal,3.2.4,60.066192944307275,
9,exp3.png,exp4.png,,,,,,,,,,,,,,,,,2,0,2,0,0,9,9,9,,,,,,,,,False,48,129,True,exp4.png,exp3.png,trial_right_image,-1,exp3.png,2,exp4.png,exp3.png,1,3,reversed,incorrect,0.34581074781179355,0,valid_lose,500.477558999999,70,,,,,,,,,,,s_019,2,2020_Dec_09_1042,Reversal,3.2.4,60.066192944307275,
10,exp1.png,exp2.png,,,,,,,,,,,,,,,,,2,0,2,0,0,10,10,10,,,,,,,,,False,49,130,False,exp1.png,exp2.png,trial_left_image,1,exp1.png,2,exp1.png,exp2.png,1,1,non-reversed,correct,0.07336161263081165,0,invalid_lose,503.9002302000008,70,,,,,,,,,,,s_019,2,2020_Dec_09_1042,Reversal,3.2.4,60.066192944307275,
11,exp3.png,exp4.png,,,,,,,,,,,,,,,,,2,0,2,0,0,11,11,11,,,,,,,,,False,50,131,False,exp3.png,exp4.png,trial_left_image,1,exp3.png,2,exp4.png,exp3.png,1,3,reversed,incorrect,0.7820609319059736,0,valid_lose,506.8217255999989,70,,,,,,,,,,,s_019,2,2020_Dec_09_1042,Reversal,3.2.4,60.066192944307275,
12,exp1.png,exp2.png,,,,,,,,,,,,,,,,,2,0,2,0,0,12,12,12,,,,,,,,,False,51,132,True,exp2.png,exp1.png,trial_left_image,1,exp2.png,2,exp1.png,exp2.png,0,2,non-reversed,incorrect,0.34312968949409817,0,valid_lose,509.7709085000024,70,,,,,,,,,,,s_019,2,2020_Dec_09_1042,Reversal,3.2.4,60.066192944307275,
13,exp3.png,exp4.png,,,,,,,,,,,,,,,,,2,0,2,0,0,13,13,13,,,,,,,,,False,52,133,True,exp4.png,exp3.png,trial_left_image,1,exp4.png,2,exp4.png,exp3.png,0,4,reversed,correct,0.36345516734906325,1,valid_win,512.9219045999998,71,,,,,,,,,,,s_019,2,2020_Dec_09_1042,Reversal,3.2.4,60.066192944307275,
14,exp1.png,exp2.png,,,,,,,,,,,,,,,,,2,0,2,0,0,14,14,14,,,,,,,,,False,53,134,False,exp1.png,exp2.png,trial_left_image,1,exp1.png,2,exp1.png,exp2.png,1,1,non-reversed,correct,0.3330390647167769,1,valid_win,516.2050968999974,72,,,,,,,,,,,s_019,2,2020_Dec_09_1042,Reversal,3.2.4,60.066192944307275,
15,exp3.png,exp4.png,,,,,,,,,,,,,,,,,2,0,2,0,0,15,15,15,,,,,,,,,False,54,135,True,exp4.png,exp3.png,trial_left_image,1,exp4.png,2,exp4.png,exp3.png,0,4,reversed,correct,0.3283659475166091,1,valid_win,519.1674432,73,,,,,,,,,,,s_019,2,2020_Dec_09_1042,Reversal,3.2.4,60.066192944307275,
16,exp1.png,exp2.png,,,,,,,,,,,,,,,,,2,0,2,0,0,16,16,16,,,,,,,,,False,55,136,False,exp1.png,exp2.png,trial_left_image,1,exp1.png,2,exp1.png,exp2.png,1,1,non-reversed,correct,0.7681161650539197,1,valid_win,522.3382213000004,74,,,,,,,,,,,s_019,2,2020_Dec_09_1042,Reversal,3.2.4,60.066192944307275,
17,exp3.png,exp4.png,,,,,,,,,,,,,,,,,2,0,2,0,0,17,17,17,,,,,,,,,False,56,137,False,exp3.png,exp4.png,trial_left_image,1,exp3.png,2,exp4.png,exp3.png,1,3,reversed,incorrect,0.6426962391244566,0,valid_lose,525.4353246000028,74,,,,,,,,,,,s_019,2,2020_Dec_09_1042,Reversal,3.2.4,60.066192944307275,
18,exp1.png,exp2.png,,,,,,,,,,,,,,,,,2,0,2,0,0,18,18,18,,,,,,,,,False,57,138,True,exp2.png,exp1.png,trial_left_image,1,exp2.png,2,exp1.png,exp2.png,0,2,non-reversed,incorrect,0.7947521646769432,0,valid_lose,528.3660161000007,74,,,,,,,,,,,s_019,2,2020_Dec_09_1042,Reversal,3.2.4,60.066192944307275,
19,exp3.png,exp4.png,,,,,,,,,,,,,,,,,2,0,2,0,0,19,19,19,,,,,,,,,False,58,139,False,exp3.png,exp4.png,trial_left_image,1,exp3.png,2,exp4.png,exp3.png,1,3,reversed,incorrect,0.41263362564615946,0,valid_lose,531.3148197999981,74,,,,,,,,,,,s_019,2,2020_Dec_09_1042,Reversal,3.2.4,60.066192944307275,
20,exp1.png,exp2.png,,,,,,,,,,,,,,,,,2,0,2,0,0,20,20,20,,,,,,,,,False,59,140,False,exp1.png,exp2.png,trial_left_image,1,exp1.png,2,exp1.png,exp2.png,1,1,non-reversed,correct,0.2297831788535346,0,invalid_lose,534.4490727000011,74,,,,,,,,,,,s_019,2,2020_Dec_09_1042,Reversal,3.2.4,60.066192944307275,
,,,,,,,,,,,,,,,,,,,2,0,2,0,,,,,0,0,0,0,,,,,,,,,,,,,,,,,,,,,,,,,,50.0,50.0,50.0,50.0,,,,,,,s_019,2,2020_Dec_09_1042,Reversal,3.2.4,60.066192944307275,
,,,,,,,,,,,,,,,,,,,,,,,,,,,,,,,,,,,,,,,,,,,,,,,,,,,,,,,74,,,,,,67,39,28,206.30453670000134,1,,,,,,,
