trial_index,trial_image1_file,trial_image2_file,learning_outer_loop.thisRepN,learning_outer_loop.thisTrialN,learning_outer_loop.thisN,learning_outer_loop.thisIndex,learning_inner_loop.thisRepN,learning_inner_loop.thisTrialN,learning_inner_loop.thisN,learning_inner_loop.thisIndex,learning_estimation_outer_loop.thisRepN,learning_estimation_outer_loop.thisTrialN,learning_estimation_outer_loop.thisN,learning_estimation_outer_loop.thisIndex,learning_estimation_inner_loop.thisRepN,learning_estimation_inner_loop.thisTrialN,learning_estimation_inner_loop.thisN,learning_estimation_inner_loop.thisIndex,reversal_outer_loop.thisRepN,reversal_outer_loop.thisTrialN,reversal_outer_loop.thisN,reversal_outer_loop.thisIndex,reversal_inner_loop.thisRepN,reversal_inner_loop.thisTrialN,reversal_inner_loop.thisN,reversal_inner_loop.thisIndex,reversal_estimation_outer_loop.thisRepN,reversal_estimation_outer_loop.thisTrialN,reversal_estimation_outer_loop.thisN,reversal_estimation_outer_loop.thisIndex,reversal_estimation_inner_loop.thisRepN,reversal_estimation_inner_loop.thisTrialN,reversal_estimation_inner_loop.thisN,reversal_estimation_inner_loop.thisIndex,skipped,total_trial_counter,trial_num,left_right_flip,left_image_file,right_image_file,clicked_stimulus_side,side,clicked_stimulus,version,high_prob_image_file,low_prob_image_file,choice_a,choice_b,pair_type,correct,trial_feedback_random,reward,trial_type,overall_time_after_trial,score,estimation_exp1.png,estimation_exp2.png,estimation_exp3.png,estimation_exp4.png,total_learning_time,total_correct,learning_correct,reversal_correct,total_reversal_time,extra_block,participant,ver,date,expName,psychopyVersion,frameRate,
0,exp1.png,exp2.png,0,0,0,0,0,0,0,0,,,,,,,,,,,,,,,,,,,,,,,,,False,0,1,True,exp2.png,exp1.png,trial_right_image,-1,exp1.png,4,exp2.png,exp1.png,0,2,non-reversed,incorrect,0.2050874993358196,1,invalid_win,10.625848399999086,1,,,,,,,,,,,s_013,4,2020_Dec_01_1752,Reversal,3.2.4,59.949270927128154,
1,exp3.png,exp4.png,0,0,0,0,0,1,1,1,,,,,,,,,,,,,,,,,,,,,,,,,False,1,2,True,exp4.png,exp3.png,trial_right_image,-1,exp3.png,4,exp4.png,exp3.png,0,4,reversed,incorrect,0.24933879050729557,1,invalid_win,16.140691399999923,2,,,,,,,,,,,s_013,4,2020_Dec_01_1752,Reversal,3.2.4,59.949270927128154,
2,exp1.png,exp2.png,0,0,0,0,0,2,2,2,,,,,,,,,,,,,,,,,,,,,,,,,False,2,3,False,exp1.png,exp2.png,trial_left_image,1,exp1.png,4,exp2.png,exp1.png,0,2,non-reversed,incorrect,0.13414175979559484,1,invalid_win,21.58853900000031,3,,,,,,,,,,,s_013,4,2020_Dec_01_1752,Reversal,3.2.4,59.949270927128154,
3,exp3.png,exp4.png,0,0,0,0,0,3,3,3,,,,,,,,,,,,,,,,,,,,,,,,,False,3,4,False,exp3.png,exp4.png,trial_left_image,1,exp3.png,4,exp4.png,exp3.png,0,4,reversed,incorrect,0.4663519018184077,0,valid_lose,26.58743499999946,3,,,,,,,,,,,s_013,4,2020_Dec_01_1752,Reversal,3.2.4,59.949270927128154,
4,exp1.png,exp2.png,0,0,0,0,0,4,4,4,,,,,,,,,,,,,,,,,,,,,,,,,False,4,5,False,exp1.png,exp2.png,trial_right_image,-1,exp2.png,4,exp2.png,exp1.png,1,1,non-reversed,correct,0.5291928202389258,1,valid_win,32.15169429999878,4,,,,,,,,,,,s_013,4,2020_Dec_01_1752,Reversal,3.2.4,59.949270927128154,
5,exp3.png,exp4.png,0,0,0,0,0,5,5,5,,,,,,,,,,,,,,,,,,,,,,,,,False,5,6,False,exp3.png,exp4.png,trial_left_image,1,exp3.png,4,exp4.png,exp3.png,0,4,reversed,incorrect,0.5557492536429729,0,valid_lose,36.81673699999919,4,,,,,,,,,,,s_013,4,2020_Dec_01_1752,Reversal,3.2.4,59.949270927128154,
6,exp1.png,exp2.png,0,0,0,0,0,6,6,6,,,,,,,,,,,,,,,,,,,,,,,,,False,6,7,False,exp1.png,exp2.png,trial_right_image,-1,exp2.png,4,exp2.png,exp1.png,1,1,non-reversed,correct,0.05239122583078326,0,invalid_lose,41.46535659999972,4,,,,,,,,,,,s_013,4,2020_Dec_01_1752,Reversal,3.2.4,59.949270927128154,
7,exp3.png,exp4.png,0,0,0,0,0,7,7,7,,,,,,,,,,,,,,,,,,,,,,,,,False,7,8,False,exp3.png,exp4.png,trial_right_image,-1,exp4.png,4,exp4.png,exp3.png,1,3,reversed,correct,0.3919120446744463,1,valid_win,45.64743199999975,5,,,,,,,,,,,s_013,4,2020_Dec_01_1752,Reversal,3.2.4,59.949270927128154,
8,exp1.png,exp2.png,0,0,0,0,0,8,8,8,,,,,,,,,,,,,,,,,,,,,,,,,False,8,9,True,exp2.png,exp1.png,trial_right_image,-1,exp1.png,4,exp2.png,exp1.png,0,2,non-reversed,incorrect,0.018557825219609914,1,invalid_win,50.69618739999896,6,,,,,,,,,,,s_013,4,2020_Dec_01_1752,Reversal,3.2.4,59.949270927128154,
9,exp3.png,exp4.png,0,0,0,0,0,9,9,9,,,,,,,,,,,,,,,,,,,,,,,,,False,9,10,True,exp4.png,exp3.png,trial_right_image,-1,exp3.png,4,exp4.png,exp3.png,0,4,reversed,incorrect,0.05360872720645349,1,invalid_win,55.3937322999991,7,,,,,,,,,,,s_013,4,2020_Dec_01_1752,Reversal,3.2.4,59.949270927128154,
10,exp1.png,exp2.png,0,0,0,0,0,10,10,10,,,,,,,,,,,,,,,,,,,,,,,,,False,10,11,False,exp1.png,exp2.png,trial_right_image,-1,exp2.png,4,exp2.png,exp1.png,1,1,non-reversed,correct,0.9863312942185659,1,valid_win,60.17593490000036,8,,,,,,,,,,,s_013,4,2020_Dec_01_1752,Reversal,3.2.4,59.949270927128154,
11,exp3.png,exp4.png,0,0,0,0,0,11,11,11,,,,,,,,,,,,,,,,,,,,,,,,,False,11,12,True,exp4.png,exp3.png,trial_right_image,-1,exp3.png,4,exp4.png,exp3.png,0,4,reversed,incorrect,0.9415781015170972,0,valid_lose,64.34106149999934,8,,,,,,,,,,,s_013,4,2020_Dec_01_1752,Reversal,3.2.4,59.949270927128154,
12,exp1.png,exp2.png,0,0,0,0,0,12,12,12,,,,,,,,,,,,,,,,,,,,,,,,,False,12,13,False,exp1.png,exp2.png,trial_left_image,1,exp1.png,4,exp2.png,exp1.png,0,2,non-reversed,incorrect,0.6447747872857491,0,valid_lose,69.60618079999949,8,,,,,,,,,,,s_013,4,2020_Dec_01_1752,Reversal,3.2.4,59.949270927128154,
13,exp3.png,exp4.png,0,0,0,0,0,13,13,13,,,,,,,,,,,,,,,,,,,,,,,,,False,13,14,True,exp4.png,exp3.png,trial_right_image,-1,exp3.png,4,exp4.png,exp3.png,0,4,reversed,incorrect,0.6810216915659573,0,valid_lose,74.27069569999912,8,,,,,,,,,,,s_013,4,2020_Dec_01_1752,Reversal,3.2.4,59.949270927128154,
14,exp1.png,exp2.png,0,0,0,0,0,14,14,14,,,,,,,,,,,,,,,,,,,,,,,,,False,14,15,True,exp2.png,exp1.png,trial_right_image,-1,exp1.png,4,exp2.png,exp1.png,0,2,non-reversed,incorrect,0.8633444131492686,0,valid_lose,78.58588969999983,8,,,,,,,,,,,s_013,4,2020_Dec_01_1752,Reversal,3.2.4,59.949270927128154,
15,exp3.png,exp4.png,0,0,0,0,0,15,15,15,,,,,,,,,,,,,,,,,,,,,,,,,False,15,16,True,exp4.png,exp3.png,trial_left_image,1,exp4.png,4,exp4.png,exp3.png,1,3,reversed,correct,0.5901093468388635,1,valid_win,82.81788509999933,9,,,,,,,,,,,s_013,4,2020_Dec_01_1752,Reversal,3.2.4,59.949270927128154,
16,exp1.png,exp2.png,0,0,0,0,0,16,16,16,,,,,,,,,,,,,,,,,,,,,,,,,False,16,17,False,exp1.png,exp2.png,trial_left_image,1,exp1.png,4,exp2.png,exp1.png,0,2,non-reversed,incorrect,0.8608558438258973,0,valid_lose,87.18281899999965,9,,,,,,,,,,,s_013,4,2020_Dec_01_1752,Reversal,3.2.4,59.949270927128154,
17,exp3.png,exp4.png,0,0,0,0,0,17,17,17,,,,,,,,,,,,,,,,,,,,,,,,,False,17,18,True,exp4.png,exp3.png,trial_right_image,-1,exp3.png,4,exp4.png,exp3.png,0,4,reversed,incorrect,0.9747207250697195,0,valid_lose,91.16474869999911,9,,,,,,,,,,,s_013,4,2020_Dec_01_1752,Reversal,3.2.4,59.949270927128154,
18,exp1.png,exp2.png,0,0,0,0,0,18,18,18,,,,,,,,,,,,,,,,,,,,,,,,,False,18,19,True,exp2.png,exp1.png,trial_left_image,1,exp2.png,4,exp2.png,exp1.png,1,1,non-reversed,correct,0.5447031124570423,1,valid_win,95.26381190000029,10,,,,,,,,,,,s_013,4,2020_Dec_01_1752,Reversal,3.2.4,59.949270927128154,
19,exp3.png,exp4.png,0,0,0,0,0,19,19,19,,,,,,,,,,,,,,,,,,,,,,,,,False,19,20,False,exp3.png,exp4.png,trial_right_image,-1,exp4.png,4,exp4.png,exp3.png,1,3,reversed,correct,0.18003504803782477,0,invalid_lose,99.4119828999992,10,,,,,,,,,,,s_013,4,2020_Dec_01_1752,Reversal,3.2.4,59.949270927128154,
20,exp1.png,exp2.png,0,0,0,0,0,20,20,20,,,,,,,,,,,,,,,,,,,,,,,,,True,,,,,,,,,,,,,,,,,,,,,,,,,,,,,,,s_013,4,2020_Dec_01_1752,Reversal,3.2.4,59.949270927128154,
,,,0,0,0,0,,,,,0,0,0,0,,,,,,,,,,,,,,,,,,,,,,,,,,,,,,,,,,,,,,,,,,50.0,50.0,50.0,50.0,,,,,,,s_013,4,2020_Dec_01_1752,Reversal,3.2.4,59.949270927128154,
0,exp1.png,exp2.png,1,0,1,0,0,0,0,0,,,,,,,,,,,,,,,,,,,,,,,,,False,20,21,False,exp1.png,exp2.png,trial_right_image,-1,exp2.png,4,exp2.png,exp1.png,1,1,non-reversed,correct,0.008889376759041334,0,invalid_lose,121.65489909999997,10,,,,,,,,,,,s_013,4,2020_Dec_01_1752,Reversal,3.2.4,59.949270927128154,
1,exp3.png,exp4.png,1,0,1,0,0,1,1,1,,,,,,,,,,,,,,,,,,,,,,,,,False,21,22,True,exp4.png,exp3.png,trial_right_image,-1,exp3.png,4,exp4.png,exp3.png,0,4,reversed,incorrect,0.46012621027056966,0,valid_lose,125.55349879999994,10,,,,,,,,,,,s_013,4,2020_Dec_01_1752,Reversal,3.2.4,59.949270927128154,
2,exp1.png,exp2.png,1,0,1,0,0,2,2,2,,,,,,,,,,,,,,,,,,,,,,,,,False,22,23,False,exp1.png,exp2.png,trial_left_image,1,exp1.png,4,exp2.png,exp1.png,0,2,non-reversed,incorrect,0.43154689092980936,0,valid_lose,129.38590449999901,10,,,,,,,,,,,s_013,4,2020_Dec_01_1752,Reversal,3.2.4,59.949270927128154,
3,exp3.png,exp4.png,1,0,1,0,0,3,3,3,,,,,,,,,,,,,,,,,,,,,,,,,False,23,24,True,exp4.png,exp3.png,trial_right_image,-1,exp3.png,4,exp4.png,exp3.png,0,4,reversed,incorrect,0.9531368245056847,0,valid_lose,133.3493658999996,10,,,,,,,,,,,s_013,4,2020_Dec_01_1752,Reversal,3.2.4,59.949270927128154,
4,exp1.png,exp2.png,1,0,1,0,0,4,4,4,,,,,,,,,,,,,,,,,,,,,,,,,False,24,25,False,exp1.png,exp2.png,trial_right_image,-1,exp2.png,4,exp2.png,exp1.png,1,1,non-reversed,correct,0.21767172869202656,0,invalid_lose,137.19963859999916,10,,,,,,,,,,,s_013,4,2020_Dec_01_1752,Reversal,3.2.4,59.949270927128154,
5,exp3.png,exp4.png,1,0,1,0,0,5,5,5,,,,,,,,,,,,,,,,,,,,,,,,,False,25,26,True,exp4.png,exp3.png,trial_left_image,1,exp4.png,4,exp4.png,exp3.png,1,3,reversed,correct,0.1255122277555374,0,invalid_lose,141.23133810000036,10,,,,,,,,,,,s_013,4,2020_Dec_01_1752,Reversal,3.2.4,59.949270927128154,
6,exp1.png,exp2.png,1,0,1,0,0,6,6,6,,,,,,,,,,,,,,,,,,,,,,,,,False,26,27,False,exp1.png,exp2.png,trial_right_image,-1,exp2.png,4,exp2.png,exp1.png,1,1,non-reversed,correct,0.18742499219895103,0,invalid_lose,144.84657949999928,10,,,,,,,,,,,s_013,4,2020_Dec_01_1752,Reversal,3.2.4,59.949270927128154,
7,exp3.png,exp4.png,1,0,1,0,0,7,7,7,,,,,,,,,,,,,,,,,,,,,,,,,False,27,28,False,exp3.png,exp4.png,trial_right_image,-1,exp4.png,4,exp4.png,exp3.png,1,3,reversed,correct,0.8128619186159948,1,valid_win,149.21236680000038,11,,,,,,,,,,,s_013,4,2020_Dec_01_1752,Reversal,3.2.4,59.949270927128154,
8,exp1.png,exp2.png,1,0,1,0,0,8,8,8,,,,,,,,,,,,,,,,,,,,,,,,,False,28,29,True,exp2.png,exp1.png,trial_right_image,-1,exp1.png,4,exp2.png,exp1.png,0,2,non-reversed,incorrect,0.7440229563916264,0,valid_lose,153.3105128999996,11,,,,,,,,,,,s_013,4,2020_Dec_01_1752,Reversal,3.2.4,59.949270927128154,
9,exp3.png,exp4.png,1,0,1,0,0,9,9,9,,,,,,,,,,,,,,,,,,,,,,,,,False,29,30,False,exp3.png,exp4.png,trial_left_image,1,exp3.png,4,exp4.png,exp3.png,0,4,reversed,incorrect,0.20846057205134416,1,invalid_win,157.29255889999877,12,,,,,,,,,,,s_013,4,2020_Dec_01_1752,Reversal,3.2.4,59.949270927128154,
10,exp1.png,exp2.png,1,0,1,0,0,10,10,10,,,,,,,,,,,,,,,,,,,,,,,,,False,30,31,True,exp2.png,exp1.png,trial_left_image,1,exp2.png,4,exp2.png,exp1.png,1,1,non-reversed,correct,0.048590197979156535,0,invalid_lose,161.34193520000008,12,,,,,,,,,,,s_013,4,2020_Dec_01_1752,Reversal,3.2.4,59.949270927128154,
11,exp3.png,exp4.png,1,0,1,0,0,11,11,11,,,,,,,,,,,,,,,,,,,,,,,,,False,31,32,False,exp3.png,exp4.png,trial_right_image,-1,exp4.png,4,exp4.png,exp3.png,1,3,reversed,correct,0.7824010172513168,1,valid_win,165.13998319999882,13,,,,,,,,,,,s_013,4,2020_Dec_01_1752,Reversal,3.2.4,59.949270927128154,
12,exp1.png,exp2.png,1,0,1,0,0,12,12,12,,,,,,,,,,,,,,,,,,,,,,,,,False,32,33,True,exp2.png,exp1.png,trial_right_image,-1,exp1.png,4,exp2.png,exp1.png,0,2,non-reversed,incorrect,0.7538336763901029,0,valid_lose,168.97184939999897,13,,,,,,,,,,,s_013,4,2020_Dec_01_1752,Reversal,3.2.4,59.949270927128154,
13,exp3.png,exp4.png,1,0,1,0,0,13,13,13,,,,,,,,,,,,,,,,,,,,,,,,,False,33,34,True,exp4.png,exp3.png,trial_right_image,-1,exp3.png,4,exp4.png,exp3.png,0,4,reversed,incorrect,0.027767331159885167,1,invalid_win,172.88742850000017,14,,,,,,,,,,,s_013,4,2020_Dec_01_1752,Reversal,3.2.4,59.949270927128154,
14,exp1.png,exp2.png,1,0,1,0,0,14,14,14,,,,,,,,,,,,,,,,,,,,,,,,,False,34,35,False,exp1.png,exp2.png,trial_left_image,1,exp1.png,4,exp2.png,exp1.png,0,2,non-reversed,incorrect,0.49958602603596836,0,valid_lose,176.70290000000023,14,,,,,,,,,,,s_013,4,2020_Dec_01_1752,Reversal,3.2.4,59.949270927128154,
15,exp3.png,exp4.png,1,0,1,0,0,15,15,15,,,,,,,,,,,,,,,,,,,,,,,,,False,35,36,True,exp4.png,exp3.png,trial_right_image,-1,exp3.png,4,exp4.png,exp3.png,0,4,reversed,incorrect,0.8449687843167872,0,valid_lose,180.51833989999977,14,,,,,,,,,,,s_013,4,2020_Dec_01_1752,Reversal,3.2.4,59.949270927128154,
16,exp1.png,exp2.png,1,0,1,0,0,16,16,16,,,,,,,,,,,,,,,,,,,,,,,,,False,36,37,False,exp1.png,exp2.png,trial_right_image,-1,exp2.png,4,exp2.png,exp1.png,1,1,non-reversed,correct,0.1410385627311429,0,invalid_lose,184.61668279999867,14,,,,,,,,,,,s_013,4,2020_Dec_01_1752,Reversal,3.2.4,59.949270927128154,
17,exp3.png,exp4.png,1,0,1,0,0,17,17,17,,,,,,,,,,,,,,,,,,,,,,,,,False,37,38,True,exp4.png,exp3.png,trial_left_image,1,exp4.png,4,exp4.png,exp3.png,1,3,reversed,correct,0.7058593177728875,1,valid_win,188.5322834999988,15,,,,,,,,,,,s_013,4,2020_Dec_01_1752,Reversal,3.2.4,59.949270927128154,
18,exp1.png,exp2.png,1,0,1,0,0,18,18,18,,,,,,,,,,,,,,,,,,,,,,,,,False,38,39,False,exp1.png,exp2.png,trial_left_image,1,exp1.png,4,exp2.png,exp1.png,0,2,non-reversed,incorrect,0.056687733244872085,1,invalid_win,192.74729399999887,16,,,,,,,,,,,s_013,4,2020_Dec_01_1752,Reversal,3.2.4,59.949270927128154,
19,exp3.png,exp4.png,1,0,1,0,0,19,19,19,,,,,,,,,,,,,,,,,,,,,,,,,False,39,40,True,exp4.png,exp3.png,trial_right_image,-1,exp3.png,4,exp4.png,exp3.png,0,4,reversed,incorrect,0.6834269698590651,0,valid_lose,196.7795256999998,16,,,,,,,,,,,s_013,4,2020_Dec_01_1752,Reversal,3.2.4,59.949270927128154,
20,exp1.png,exp2.png,1,0,1,0,0,20,20,20,,,,,,,,,,,,,,,,,,,,,,,,,True,,,,,,,,,,,,,,,,,,,,,,,,,,,,,,,s_013,4,2020_Dec_01_1752,Reversal,3.2.4,59.949270927128154,
,,,1,0,1,0,,,,,0,0,0,0,,,,,,,,,,,,,,,,,,,,,,,,,,,,,,,,,,,,,,,,,,68,31,16,67,,,,,,,s_013,4,2020_Dec_01_1752,Reversal,3.2.4,59.949270927128154,
0,exp1.png,exp2.png,2,0,2,0,0,0,0,0,,,,,,,,,,,,,,,,,,,,,,,,,False,40,41,True,exp2.png,exp1.png,trial_right_image,-1,exp1.png,4,exp2.png,exp1.png,0,2,non-reversed,incorrect,0.36195288785274027,0,valid_lose,212.17435589999877,16,,,,,,,,,,,s_013,4,2020_Dec_01_1752,Reversal,3.2.4,59.949270927128154,
1,exp3.png,exp4.png,2,0,2,0,0,1,1,1,,,,,,,,,,,,,,,,,,,,,,,,,False,41,42,True,exp4.png,exp3.png,trial_left_image,1,exp4.png,4,exp4.png,exp3.png,1,3,reversed,correct,0.8777752434862448,1,valid_win,216.3894967999986,17,,,,,,,,,,,s_013,4,2020_Dec_01_1752,Reversal,3.2.4,59.949270927128154,
2,exp1.png,exp2.png,2,0,2,0,0,2,2,2,,,,,,,,,,,,,,,,,,,,,,,,,False,42,43,False,exp1.png,exp2.png,trial_right_image,-1,exp2.png,4,exp2.png,exp1.png,1,1,non-reversed,correct,0.9700623986025616,1,valid_win,220.60473249999995,18,,,,,,,,,,,s_013,4,2020_Dec_01_1752,Reversal,3.2.4,59.949270927128154,
3,exp3.png,exp4.png,2,0,2,0,0,3,3,3,,,,,,,,,,,,,,,,,,,,,,,,,False,43,44,False,exp3.png,exp4.png,trial_right_image,-1,exp4.png,4,exp4.png,exp3.png,1,3,reversed,correct,0.1120315773237438,0,invalid_lose,224.98645229999966,18,,,,,,,,,,,s_013,4,2020_Dec_01_1752,Reversal,3.2.4,59.949270927128154,
4,exp1.png,exp2.png,2,0,2,0,0,4,4,4,,,,,,,,,,,,,,,,,,,,,,,,,False,44,45,True,exp2.png,exp1.png,trial_left_image,1,exp2.png,4,exp2.png,exp1.png,1,1,non-reversed,correct,0.8611594501074104,1,valid_win,229.1515916999997,19,,,,,,,,,,,s_013,4,2020_Dec_01_1752,Reversal,3.2.4,59.949270927128154,
5,exp3.png,exp4.png,2,0,2,0,0,5,5,5,,,,,,,,,,,,,,,,,,,,,,,,,False,45,46,False,exp3.png,exp4.png,trial_left_image,1,exp3.png,4,exp4.png,exp3.png,0,4,reversed,incorrect,0.593354609268586,0,valid_lose,233.10011200000008,19,,,,,,,,,,,s_013,4,2020_Dec_01_1752,Reversal,3.2.4,59.949270927128154,
6,exp1.png,exp2.png,2,0,2,0,0,6,6,6,,,,,,,,,,,,,,,,,,,,,,,,,False,46,47,False,exp1.png,exp2.png,trial_right_image,-1,exp2.png,4,exp2.png,exp1.png,1,1,non-reversed,correct,0.7330362236931588,1,valid_win,237.09985119999874,20,,,,,,,,,,,s_013,4,2020_Dec_01_1752,Reversal,3.2.4,59.949270927128154,
7,exp3.png,exp4.png,2,0,2,0,0,7,7,7,,,,,,,,,,,,,,,,,,,,,,,,,False,47,48,True,exp4.png,exp3.png,trial_left_image,1,exp4.png,4,exp4.png,exp3.png,1,3,reversed,correct,0.6784117273483544,1,valid_win,241.38131369999974,21,,,,,,,,,,,s_013,4,2020_Dec_01_1752,Reversal,3.2.4,59.949270927128154,
8,exp1.png,exp2.png,2,0,2,0,0,8,8,8,,,,,,,,,,,,,,,,,,,,,,,,,False,48,49,False,exp1.png,exp2.png,trial_right_image,-1,exp2.png,4,exp2.png,exp1.png,1,1,non-reversed,correct,0.9620404879920128,1,valid_win,245.2459773999999,22,,,,,,,,,,,s_013,4,2020_Dec_01_1752,Reversal,3.2.4,59.949270927128154,
9,exp3.png,exp4.png,2,0,2,0,0,9,9,9,,,,,,,,,,,,,,,,,,,,,,,,,False,49,50,True,exp4.png,exp3.png,trial_left_image,1,exp4.png,4,exp4.png,exp3.png,1,3,reversed,correct,0.2542211882059072,1,valid_win,249.2946749999992,23,,,,,,,,,,,s_013,4,2020_Dec_01_1752,Reversal,3.2.4,59.949270927128154,
10,exp1.png,exp2.png,2,0,2,0,0,10,10,10,,,,,,,,,,,,,,,,,,,,,,,,,False,50,51,True,exp2.png,exp1.png,trial_left_image,1,exp2.png,4,exp2.png,exp1.png,1,1,non-reversed,correct,0.4327756674011297,1,valid_win,253.81029299999864,24,,,,,,,,,,,s_013,4,2020_Dec_01_1752,Reversal,3.2.4,59.949270927128154,
11,exp3.png,exp4.png,2,0,2,0,0,11,11,11,,,,,,,,,,,,,,,,,,,,,,,,,False,51,52,True,exp4.png,exp3.png,trial_left_image,1,exp4.png,4,exp4.png,exp3.png,1,3,reversed,correct,0.059682445858640465,0,invalid_lose,257.97385719999875,24,,,,,,,,,,,s_013,4,2020_Dec_01_1752,Reversal,3.2.4,59.949270927128154,
12,exp1.png,exp2.png,2,0,2,0,0,12,12,12,,,,,,,,,,,,,,,,,,,,,,,,,False,52,53,True,exp2.png,exp1.png,trial_right_image,-1,exp1.png,4,exp2.png,exp1.png,0,2,non-reversed,incorrect,0.7029628389146947,0,valid_lose,262.2904705000001,24,,,,,,,,,,,s_013,4,2020_Dec_01_1752,Reversal,3.2.4,59.949270927128154,
13,exp3.png,exp4.png,2,0,2,0,0,13,13,13,,,,,,,,,,,,,,,,,,,,,,,,,False,53,54,False,exp3.png,exp4.png,trial_right_image,-1,exp4.png,4,exp4.png,exp3.png,1,3,reversed,correct,0.5468603389041626,1,valid_win,266.1891029999988,25,,,,,,,,,,,s_013,4,2020_Dec_01_1752,Reversal,3.2.4,59.949270927128154,
14,exp1.png,exp2.png,2,0,2,0,0,14,14,14,,,,,,,,,,,,,,,,,,,,,,,,,False,54,55,False,exp1.png,exp2.png,trial_left_image,1,exp1.png,4,exp2.png,exp1.png,0,2,non-reversed,incorrect,0.1173423333025001,1,invalid_win,270.18768479999926,26,,,,,,,,,,,s_013,4,2020_Dec_01_1752,Reversal,3.2.4,59.949270927128154,
15,exp3.png,exp4.png,2,0,2,0,0,15,15,15,,,,,,,,,,,,,,,,,,,,,,,,,False,55,56,True,exp4.png,exp3.png,trial_right_image,-1,exp3.png,4,exp4.png,exp3.png,0,4,reversed,incorrect,0.6405218380270464,0,valid_lose,274.219685,26,,,,,,,,,,,s_013,4,2020_Dec_01_1752,Reversal,3.2.4,59.949270927128154,
16,exp1.png,exp2.png,2,0,2,0,0,16,16,16,,,,,,,,,,,,,,,,,,,,,,,,,False,56,57,False,exp1.png,exp2.png,trial_left_image,1,exp1.png,4,exp2.png,exp1.png,0,2,non-reversed,incorrect,0.5143725549300052,0,valid_lose,278.31871390000015,26,,,,,,,,,,,s_013,4,2020_Dec_01_1752,Reversal,3.2.4,59.949270927128154,
17,exp3.png,exp4.png,2,0,2,0,0,17,17,17,,,,,,,,,,,,,,,,,,,,,,,,,False,57,58,False,exp3.png,exp4.png,trial_right_image,-1,exp4.png,4,exp4.png,exp3.png,1,3,reversed,correct,0.27157026133734585,1,valid_win,282.19900309999866,27,,,,,,,,,,,s_013,4,2020_Dec_01_1752,Reversal,3.2.4,59.949270927128154,
18,exp1.png,exp2.png,2,0,2,0,0,18,18,18,,,,,,,,,,,,,,,,,,,,,,,,,False,58,59,False,exp1.png,exp2.png,trial_left_image,1,exp1.png,4,exp2.png,exp1.png,0,2,non-reversed,incorrect,0.9628776687206471,0,valid_lose,286.1323013000001,27,,,,,,,,,,,s_013,4,2020_Dec_01_1752,Reversal,3.2.4,59.949270927128154,
19,exp3.png,exp4.png,2,0,2,0,0,19,19,19,,,,,,,,,,,,,,,,,,,,,,,,,False,59,60,True,exp4.png,exp3.png,trial_right_image,-1,exp3.png,4,exp4.png,exp3.png,0,4,reversed,incorrect,0.3935488201089752,0,valid_lose,289.81488309999986,27,,,,,,,,,,,s_013,4,2020_Dec_01_1752,Reversal,3.2.4,59.949270927128154,
20,exp1.png,exp2.png,2,0,2,0,0,20,20,20,,,,,,,,,,,,,,,,,,,,,,,,,True,,,,,,,,,,,,,,,,,,,,,,,,,,,,,,,s_013,4,2020_Dec_01_1752,Reversal,3.2.4,59.949270927128154,
,,,2,0,2,0,,,,,0,0,0,0,,,,,,,,,,,,,,,,,,,,,,,,,,,,,,,,,,,,,,,,,,70,88,28,19,,,,,,,s_013,4,2020_Dec_01_1752,Reversal,3.2.4,59.949270927128154,
0,exp1.png,exp2.png,3,0,3,0,0,0,0,0,,,,,,,,,,,,,,,,,,,,,,,,,False,60,61,True,exp2.png,exp1.png,trial_right_image,-1,exp1.png,4,exp2.png,exp1.png,0,2,non-reversed,incorrect,0.9451397009625273,0,valid_lose,302.79369140000017,27,,,,,,,,,,,s_013,4,2020_Dec_01_1752,Reversal,3.2.4,59.949270927128154,
1,exp3.png,exp4.png,3,0,3,0,0,1,1,1,,,,,,,,,,,,,,,,,,,,,,,,,False,61,62,True,exp4.png,exp3.png,trial_right_image,-1,exp3.png,4,exp4.png,exp3.png,0,4,reversed,incorrect,0.7912858601095779,0,valid_lose,306.72567340000023,27,,,,,,,,,,,s_013,4,2020_Dec_01_1752,Reversal,3.2.4,59.949270927128154,
2,exp1.png,exp2.png,3,0,3,0,0,2,2,2,,,,,,,,,,,,,,,,,,,,,,,,,False,62,63,True,exp2.png,exp1.png,trial_left_image,1,exp2.png,4,exp2.png,exp1.png,1,1,non-reversed,correct,0.9090118157419932,1,valid_win,310.65751249999994,28,,,,,,,,,,,s_013,4,2020_Dec_01_1752,Reversal,3.2.4,59.949270927128154,
3,exp3.png,exp4.png,3,0,3,0,0,3,3,3,,,,,,,,,,,,,,,,,,,,,,,,,False,63,64,False,exp3.png,exp4.png,trial_right_image,-1,exp4.png,4,exp4.png,exp3.png,1,3,reversed,correct,0.20647283463492516,0,invalid_lose,314.75587639999867,28,,,,,,,,,,,s_013,4,2020_Dec_01_1752,Reversal,3.2.4,59.949270927128154,
4,exp1.png,exp2.png,3,0,3,0,0,4,4,4,,,,,,,,,,,,,,,,,,,,,,,,,False,64,65,False,exp1.png,exp2.png,trial_left_image,1,exp1.png,4,exp2.png,exp1.png,0,2,non-reversed,incorrect,0.4700373780948208,0,valid_lose,318.7050791999991,28,,,,,,,,,,,s_013,4,2020_Dec_01_1752,Reversal,3.2.4,59.949270927128154,
5,exp3.png,exp4.png,3,0,3,0,0,5,5,5,,,,,,,,,,,,,,,,,,,,,,,,,False,65,66,False,exp3.png,exp4.png,trial_left_image,1,exp3.png,4,exp4.png,exp3.png,0,4,reversed,incorrect,0.1589011725366789,1,invalid_win,322.62034329999915,29,,,,,,,,,,,s_013,4,2020_Dec_01_1752,Reversal,3.2.4,59.949270927128154,
6,exp1.png,exp2.png,3,0,3,0,0,6,6,6,,,,,,,,,,,,,,,,,,,,,,,,,False,66,67,False,exp1.png,exp2.png,trial_right_image,-1,exp2.png,4,exp2.png,exp1.png,1,1,non-reversed,correct,0.9734598099355544,1,valid_win,326.6353390999993,30,,,,,,,,,,,s_013,4,2020_Dec_01_1752,Reversal,3.2.4,59.949270927128154,
7,exp3.png,exp4.png,3,0,3,0,0,7,7,7,,,,,,,,,,,,,,,,,,,,,,,,,False,67,68,True,exp4.png,exp3.png,trial_right_image,-1,exp3.png,4,exp4.png,exp3.png,0,4,reversed,incorrect,0.3034102051637786,0,valid_lose,330.81611840000005,30,,,,,,,,,,,s_013,4,2020_Dec_01_1752,Reversal,3.2.4,59.949270927128154,
8,exp1.png,exp2.png,3,0,3,0,0,8,8,8,,,,,,,,,,,,,,,,,,,,,,,,,False,68,69,False,exp1.png,exp2.png,trial_left_image,1,exp1.png,4,exp2.png,exp1.png,0,2,non-reversed,incorrect,0.2501643832804974,0,valid_lose,335.0320039999988,30,,,,,,,,,,,s_013,4,2020_Dec_01_1752,Reversal,3.2.4,59.949270927128154,
9,exp3.png,exp4.png,3,0,3,0,0,9,9,9,,,,,,,,,,,,,,,,,,,,,,,,,False,69,70,True,exp4.png,exp3.png,trial_right_image,-1,exp3.png,4,exp4.png,exp3.png,0,4,reversed,incorrect,0.4532813340983839,0,valid_lose,338.8798848999995,30,,,,,,,,,,,s_013,4,2020_Dec_01_1752,Reversal,3.2.4,59.949270927128154,
10,exp1.png,exp2.png,3,0,3,0,0,10,10,10,,,,,,,,,,,,,,,,,,,,,,,,,False,70,71,True,exp2.png,exp1.png,trial_left_image,1,exp2.png,4,exp2.png,exp1.png,1,1,non-reversed,correct,0.12251712618454291,0,invalid_lose,342.7130965999986,30,,,,,,,,,,,s_013,4,2020_Dec_01_1752,Reversal,3.2.4,59.949270927128154,
11,exp3.png,exp4.png,3,0,3,0,0,11,11,11,,,,,,,,,,,,,,,,,,,,,,,,,False,71,72,False,exp3.png,exp4.png,trial_right_image,-1,exp4.png,4,exp4.png,exp3.png,1,3,reversed,correct,0.029495109059594404,0,invalid_lose,346.5787287000003,30,,,,,,,,,,,s_013,4,2020_Dec_01_1752,Reversal,3.2.4,59.949270927128154,
12,exp1.png,exp2.png,3,0,3,0,0,12,12,12,,,,,,,,,,,,,,,,,,,,,,,,,False,72,73,False,exp1.png,exp2.png,trial_right_image,-1,exp2.png,4,exp2.png,exp1.png,1,1,non-reversed,correct,0.7368560589543555,1,valid_win,350.5438742999995,31,,,,,,,,,,,s_013,4,2020_Dec_01_1752,Reversal,3.2.4,59.949270927128154,
13,exp3.png,exp4.png,3,0,3,0,0,13,13,13,,,,,,,,,,,,,,,,,,,,,,,,,False,73,74,False,exp3.png,exp4.png,trial_right_image,-1,exp4.png,4,exp4.png,exp3.png,1,3,reversed,correct,0.16812629312160476,0,invalid_lose,354.64257559999896,31,,,,,,,,,,,s_013,4,2020_Dec_01_1752,Reversal,3.2.4,59.949270927128154,
14,exp1.png,exp2.png,3,0,3,0,0,14,14,14,,,,,,,,,,,,,,,,,,,,,,,,,False,74,75,False,exp1.png,exp2.png,trial_left_image,1,exp1.png,4,exp2.png,exp1.png,0,2,non-reversed,incorrect,0.01737003049049013,1,invalid_win,358.84107719999884,32,,,,,,,,,,,s_013,4,2020_Dec_01_1752,Reversal,3.2.4,59.949270927128154,
15,exp3.png,exp4.png,3,0,3,0,0,15,15,15,,,,,,,,,,,,,,,,,,,,,,,,,False,75,76,True,exp4.png,exp3.png,trial_left_image,1,exp4.png,4,exp4.png,exp3.png,1,3,reversed,correct,0.963399046871754,1,valid_win,363.15607929999896,33,,,,,,,,,,,s_013,4,2020_Dec_01_1752,Reversal,3.2.4,59.949270927128154,
16,exp1.png,exp2.png,3,0,3,0,0,16,16,16,,,,,,,,,,,,,,,,,,,,,,,,,False,76,77,True,exp2.png,exp1.png,trial_right_image,-1,exp1.png,4,exp2.png,exp1.png,0,2,non-reversed,incorrect,0.19739930313849963,1,invalid_win,367.6718404000003,34,,,,,,,,,,,s_013,4,2020_Dec_01_1752,Reversal,3.2.4,59.949270927128154,
17,exp3.png,exp4.png,3,0,3,0,0,17,17,17,,,,,,,,,,,,,,,,,,,,,,,,,False,77,78,True,exp4.png,exp3.png,trial_left_image,1,exp4.png,4,exp4.png,exp3.png,1,3,reversed,correct,0.26306295031802207,1,valid_win,372.6864396000001,35,,,,,,,,,,,s_013,4,2020_Dec_01_1752,Reversal,3.2.4,59.949270927128154,
18,exp1.png,exp2.png,3,0,3,0,0,18,18,18,,,,,,,,,,,,,,,,,,,,,,,,,False,78,79,True,exp2.png,exp1.png,trial_right_image,-1,exp1.png,4,exp2.png,exp1.png,0,2,non-reversed,incorrect,0.4557249042606294,0,valid_lose,377.5683071000003,35,,,,,,,,,,,s_013,4,2020_Dec_01_1752,Reversal,3.2.4,59.949270927128154,
19,exp3.png,exp4.png,3,0,3,0,0,19,19,19,,,,,,,,,,,,,,,,,,,,,,,,,False,79,80,False,exp3.png,exp4.png,trial_right_image,-1,exp4.png,4,exp4.png,exp3.png,1,3,reversed,correct,0.4617908991304521,1,valid_win,381.7499829999997,36,,,,,,,,,,,s_013,4,2020_Dec_01_1752,Reversal,3.2.4,59.949270927128154,
20,exp1.png,exp2.png,3,0,3,0,0,20,20,20,,,,,,,,,,,,,,,,,,,,,,,,,True,,,,,,,,,,,,,,,,,,,,,,,,,,,,,,,s_013,4,2020_Dec_01_1752,Reversal,3.2.4,59.949270927128154,
,,,3,0,3,0,,,,,0,0,0,0,,,,,,,,,,,,,,,,,,,,,,,,,,,,,,,,,,,,,,,,,,78,74,44,42,,,,,,,s_013,4,2020_Dec_01_1752,Reversal,3.2.4,59.949270927128154,
0,exp1.png,exp2.png,,,,,,,,,,,,,,,,,0,0,0,0,0,0,0,0,,,,,,,,,False,0,81,False,exp1.png,exp2.png,trial_right_image,-1,exp2.png,4,exp2.png,exp1.png,1,1,non-reversed,correct,0.5051211677977229,1,valid_win,395.9117791999997,37,,,,,394.26712699999916,,,,,,s_013,4,2020_Dec_01_1752,Reversal,3.2.4,59.949270927128154,
1,exp3.png,exp4.png,,,,,,,,,,,,,,,,,0,0,0,0,0,1,1,1,,,,,,,,,False,1,82,False,exp3.png,exp4.png,trial_right_image,-1,exp4.png,4,exp3.png,exp4.png,1,3,reversed,incorrect,0.049565579563289,1,invalid_win,399.53178579999985,38,,,,,,,,,,,s_013,4,2020_Dec_01_1752,Reversal,3.2.4,59.949270927128154,
2,exp1.png,exp2.png,,,,,,,,,,,,,,,,,0,0,0,0,0,2,2,2,,,,,,,,,False,2,83,True,exp2.png,exp1.png,trial_left_image,1,exp2.png,4,exp2.png,exp1.png,1,1,non-reversed,correct,0.025043970413886174,0,invalid_lose,403.6765118000003,38,,,,,,,,,,,s_013,4,2020_Dec_01_1752,Reversal,3.2.4,59.949270927128154,
3,exp3.png,exp4.png,,,,,,,,,,,,,,,,,0,0,0,0,0,3,3,3,,,,,,,,,False,3,84,True,exp4.png,exp3.png,trial_right_image,-1,exp3.png,4,exp3.png,exp4.png,0,4,reversed,correct,0.600011022556644,1,valid_win,407.8401195999995,39,,,,,,,,,,,s_013,4,2020_Dec_01_1752,Reversal,3.2.4,59.949270927128154,
4,exp1.png,exp2.png,,,,,,,,,,,,,,,,,0,0,0,0,0,4,4,4,,,,,,,,,False,4,85,True,exp2.png,exp1.png,trial_left_image,1,exp2.png,4,exp2.png,exp1.png,1,1,non-reversed,correct,0.8840753314708223,1,valid_win,411.95658249999906,40,,,,,,,,,,,s_013,4,2020_Dec_01_1752,Reversal,3.2.4,59.949270927128154,
5,exp3.png,exp4.png,,,,,,,,,,,,,,,,,0,0,0,0,0,5,5,5,,,,,,,,,False,5,86,True,exp4.png,exp3.png,trial_left_image,1,exp4.png,4,exp3.png,exp4.png,1,3,reversed,incorrect,0.2065624636350497,1,invalid_win,416.3382556999986,41,,,,,,,,,,,s_013,4,2020_Dec_01_1752,Reversal,3.2.4,59.949270927128154,
6,exp1.png,exp2.png,,,,,,,,,,,,,,,,,0,0,0,0,0,6,6,6,,,,,,,,,False,6,87,True,exp2.png,exp1.png,trial_right_image,-1,exp1.png,4,exp2.png,exp1.png,0,2,non-reversed,incorrect,0.5941363507383629,0,valid_lose,420.6207311999988,41,,,,,,,,,,,s_013,4,2020_Dec_01_1752,Reversal,3.2.4,59.949270927128154,
7,exp3.png,exp4.png,,,,,,,,,,,,,,,,,0,0,0,0,0,7,7,7,,,,,,,,,False,7,88,True,exp4.png,exp3.png,trial_left_image,1,exp4.png,4,exp3.png,exp4.png,1,3,reversed,incorrect,0.32353229117492055,0,valid_lose,425.1691541,41,,,,,,,,,,,s_013,4,2020_Dec_01_1752,Reversal,3.2.4,59.949270927128154,
8,exp1.png,exp2.png,,,,,,,,,,,,,,,,,0,0,0,0,0,8,8,8,,,,,,,,,False,8,89,False,exp1.png,exp2.png,trial_right_image,-1,exp2.png,4,exp2.png,exp1.png,1,1,non-reversed,correct,0.4235642694213503,1,valid_win,429.1506903999998,42,,,,,,,,,,,s_013,4,2020_Dec_01_1752,Reversal,3.2.4,59.949270927128154,
9,exp3.png,exp4.png,,,,,,,,,,,,,,,,,0,0,0,0,0,9,9,9,,,,,,,,,False,9,90,False,exp3.png,exp4.png,trial_right_image,-1,exp4.png,4,exp3.png,exp4.png,1,3,reversed,incorrect,0.7281509413200868,0,valid_lose,432.99939040000027,42,,,,,,,,,,,s_013,4,2020_Dec_01_1752,Reversal,3.2.4,59.949270927128154,
10,exp1.png,exp2.png,,,,,,,,,,,,,,,,,0,0,0,0,0,10,10,10,,,,,,,,,False,10,91,True,exp2.png,exp1.png,trial_right_image,-1,exp1.png,4,exp2.png,exp1.png,0,2,non-reversed,incorrect,0.4594489837659771,0,valid_lose,437.29795339999873,42,,,,,,,,,,,s_013,4,2020_Dec_01_1752,Reversal,3.2.4,59.949270927128154,
11,exp3.png,exp4.png,,,,,,,,,,,,,,,,,0,0,0,0,0,11,11,11,,,,,,,,,False,11,92,False,exp3.png,exp4.png,trial_left_image,1,exp3.png,4,exp3.png,exp4.png,0,4,reversed,correct,0.6757461147878716,1,valid_win,441.29745449999973,43,,,,,,,,,,,s_013,4,2020_Dec_01_1752,Reversal,3.2.4,59.949270927128154,
12,exp1.png,exp2.png,,,,,,,,,,,,,,,,,0,0,0,0,0,12,12,12,,,,,,,,,False,12,93,False,exp1.png,exp2.png,trial_left_image,1,exp1.png,4,exp2.png,exp1.png,0,2,non-reversed,incorrect,0.36047779841964867,0,valid_lose,445.7284746999994,43,,,,,,,,,,,s_013,4,2020_Dec_01_1752,Reversal,3.2.4,59.949270927128154,
13,exp3.png,exp4.png,,,,,,,,,,,,,,,,,0,0,0,0,0,13,13,13,,,,,,,,,False,13,94,True,exp4.png,exp3.png,trial_right_image,-1,exp3.png,4,exp3.png,exp4.png,0,4,reversed,correct,0.2702761629900632,1,valid_win,449.9770757999995,44,,,,,,,,,,,s_013,4,2020_Dec_01_1752,Reversal,3.2.4,59.949270927128154,
14,exp1.png,exp2.png,,,,,,,,,,,,,,,,,0,0,0,0,0,14,14,14,,,,,,,,,False,14,95,False,exp1.png,exp2.png,trial_right_image,-1,exp2.png,4,exp2.png,exp1.png,1,1,non-reversed,correct,0.8321967441845921,1,valid_win,453.59262839999974,45,,,,,,,,,,,s_013,4,2020_Dec_01_1752,Reversal,3.2.4,59.949270927128154,
15,exp3.png,exp4.png,,,,,,,,,,,,,,,,,0,0,0,0,0,15,15,15,,,,,,,,,False,15,96,True,exp4.png,exp3.png,trial_right_image,-1,exp3.png,4,exp3.png,exp4.png,0,4,reversed,correct,0.04533370047703944,0,invalid_lose,457.44125519999943,45,,,,,,,,,,,s_013,4,2020_Dec_01_1752,Reversal,3.2.4,59.949270927128154,
16,exp1.png,exp2.png,,,,,,,,,,,,,,,,,0,0,0,0,0,16,16,16,,,,,,,,,False,16,97,False,exp1.png,exp2.png,trial_left_image,1,exp1.png,4,exp2.png,exp1.png,0,2,non-reversed,incorrect,0.5915405228318635,0,valid_lose,462.73951529999977,45,,,,,,,,,,,s_013,4,2020_Dec_01_1752,Reversal,3.2.4,59.949270927128154,
17,exp3.png,exp4.png,,,,,,,,,,,,,,,,,0,0,0,0,0,17,17,17,,,,,,,,,False,17,98,True,exp4.png,exp3.png,trial_right_image,-1,exp3.png,4,exp3.png,exp4.png,0,4,reversed,correct,0.6446568719009467,1,valid_win,466.55471729999954,46,,,,,,,,,,,s_013,4,2020_Dec_01_1752,Reversal,3.2.4,59.949270927128154,
18,exp1.png,exp2.png,,,,,,,,,,,,,,,,,0,0,0,0,0,18,18,18,,,,,,,,,False,18,99,False,exp1.png,exp2.png,trial_right_image,-1,exp2.png,4,exp2.png,exp1.png,1,1,non-reversed,correct,0.5407233960042394,1,valid_win,470.51998099999946,47,,,,,,,,,,,s_013,4,2020_Dec_01_1752,Reversal,3.2.4,59.949270927128154,
19,exp3.png,exp4.png,,,,,,,,,,,,,,,,,0,0,0,0,0,19,19,19,,,,,,,,,False,19,100,False,exp3.png,exp4.png,trial_right_image,-1,exp4.png,4,exp3.png,exp4.png,1,3,reversed,incorrect,0.43412898873021666,0,valid_lose,474.535772199999,47,,,,,,,,,,,s_013,4,2020_Dec_01_1752,Reversal,3.2.4,59.949270927128154,
20,exp1.png,exp2.png,,,,,,,,,,,,,,,,,0,0,0,0,0,20,20,20,,,,,,,,,True,,,,,,,,,,,,,,,,,,,,,,,,,,,,,,,s_013,4,2020_Dec_01_1752,Reversal,3.2.4,59.949270927128154,
,,,,,,,,,,,,,,,,,,,0,0,0,0,,,,,0,0,0,0,,,,,,,,,,,,,,,,,,,,,,,,,,51,50.0,50.0,50.0,,,,,,,s_013,4,2020_Dec_01_1752,Reversal,3.2.4,59.949270927128154,
0,exp1.png,exp2.png,,,,,,,,,,,,,,,,,1,0,1,0,0,0,0,0,,,,,,,,,False,20,101,False,exp1.png,exp2.png,trial_right_image,-1,exp2.png,4,exp2.png,exp1.png,1,1,non-reversed,correct,0.4855510714186325,1,valid_win,483.7320065999993,48,,,,,,,,,,,s_013,4,2020_Dec_01_1752,Reversal,3.2.4,59.949270927128154,
1,exp3.png,exp4.png,,,,,,,,,,,,,,,,,1,0,1,0,0,1,1,1,,,,,,,,,False,21,102,True,exp4.png,exp3.png,trial_right_image,-1,exp3.png,4,exp3.png,exp4.png,0,4,reversed,correct,0.658893819892194,1,valid_win,489.1303029999999,49,,,,,,,,,,,s_013,4,2020_Dec_01_1752,Reversal,3.2.4,59.949270927128154,
2,exp1.png,exp2.png,,,,,,,,,,,,,,,,,1,0,1,0,0,2,2,2,,,,,,,,,False,22,103,True,exp2.png,exp1.png,trial_right_image,-1,exp1.png,4,exp2.png,exp1.png,0,2,non-reversed,incorrect,0.9563582091973293,0,valid_lose,494.02733780000017,49,,,,,,,,,,,s_013,4,2020_Dec_01_1752,Reversal,3.2.4,59.949270927128154,
3,exp3.png,exp4.png,,,,,,,,,,,,,,,,,1,0,1,0,0,3,3,3,,,,,,,,,False,23,104,True,exp4.png,exp3.png,trial_right_image,-1,exp3.png,4,exp3.png,exp4.png,0,4,reversed,correct,0.787185188480659,1,valid_win,500.90860749999956,50,,,,,,,,,,,s_013,4,2020_Dec_01_1752,Reversal,3.2.4,59.949270927128154,
4,exp1.png,exp2.png,,,,,,,,,,,,,,,,,1,0,1,0,0,4,4,4,,,,,,,,,False,24,105,True,exp2.png,exp1.png,trial_left_image,1,exp2.png,4,exp2.png,exp1.png,1,1,non-reversed,correct,0.44197386020865126,1,valid_win,504.90824149999935,51,,,,,,,,,,,s_013,4,2020_Dec_01_1752,Reversal,3.2.4,59.949270927128154,
5,exp3.png,exp4.png,,,,,,,,,,,,,,,,,1,0,1,0,0,5,5,5,,,,,,,,,False,25,106,True,exp4.png,exp3.png,trial_left_image,1,exp4.png,4,exp3.png,exp4.png,1,3,reversed,incorrect,0.0012393860920792976,1,invalid_win,510.6068013999993,52,,,,,,,,,,,s_013,4,2020_Dec_01_1752,Reversal,3.2.4,59.949270927128154,
6,exp1.png,exp2.png,,,,,,,,,,,,,,,,,1,0,1,0,0,6,6,6,,,,,,,,,False,26,107,True,exp2.png,exp1.png,trial_right_image,-1,exp1.png,4,exp2.png,exp1.png,0,2,non-reversed,incorrect,0.9132398981828904,0,valid_lose,514.8717804999997,52,,,,,,,,,,,s_013,4,2020_Dec_01_1752,Reversal,3.2.4,59.949270927128154,
7,exp3.png,exp4.png,,,,,,,,,,,,,,,,,1,0,1,0,0,7,7,7,,,,,,,,,False,27,108,False,exp3.png,exp4.png,trial_right_image,-1,exp4.png,4,exp3.png,exp4.png,1,3,reversed,incorrect,0.12287580067029968,1,invalid_win,521.4030700999992,53,,,,,,,,,,,s_013,4,2020_Dec_01_1752,Reversal,3.2.4,59.949270927128154,
8,exp1.png,exp2.png,,,,,,,,,,,,,,,,,1,0,1,0,0,8,8,8,,,,,,,,,False,28,109,False,exp1.png,exp2.png,trial_right_image,-1,exp2.png,4,exp2.png,exp1.png,1,1,non-reversed,correct,0.5096728081412657,1,valid_win,528.8998302,54,,,,,,,,,,,s_013,4,2020_Dec_01_1752,Reversal,3.2.4,59.949270927128154,
9,exp3.png,exp4.png,,,,,,,,,,,,,,,,,1,0,1,0,0,9,9,9,,,,,,,,,False,29,110,True,exp4.png,exp3.png,trial_right_image,-1,exp3.png,4,exp3.png,exp4.png,0,4,reversed,correct,0.04586590984936012,0,invalid_lose,532.8310697999987,54,,,,,,,,,,,s_013,4,2020_Dec_01_1752,Reversal,3.2.4,59.949270927128154,
10,exp1.png,exp2.png,,,,,,,,,,,,,,,,,1,0,1,0,0,10,10,10,,,,,,,,,False,30,111,True,exp2.png,exp1.png,trial_left_image,1,exp2.png,4,exp2.png,exp1.png,1,1,non-reversed,correct,0.8103741771954247,1,valid_win,540.1462770999988,55,,,,,,,,,,,s_013,4,2020_Dec_01_1752,Reversal,3.2.4,59.949270927128154,
11,exp3.png,exp4.png,,,,,,,,,,,,,,,,,1,0,1,0,0,11,11,11,,,,,,,,,False,31,112,False,exp3.png,exp4.png,trial_left_image,1,exp3.png,4,exp3.png,exp4.png,0,4,reversed,correct,0.30122272525340743,1,valid_win,544.3952176000003,56,,,,,,,,,,,s_013,4,2020_Dec_01_1752,Reversal,3.2.4,59.949270927128154,
12,exp1.png,exp2.png,,,,,,,,,,,,,,,,,1,0,1,0,0,12,12,12,,,,,,,,,False,32,113,False,exp1.png,exp2.png,trial_left_image,1,exp1.png,4,exp2.png,exp1.png,0,2,non-reversed,incorrect,0.14509943085410193,1,invalid_win,548.2275059999993,57,,,,,,,,,,,s_013,4,2020_Dec_01_1752,Reversal,3.2.4,59.949270927128154,
13,exp3.png,exp4.png,,,,,,,,,,,,,,,,,1,0,1,0,0,13,13,13,,,,,,,,,False,33,114,False,exp3.png,exp4.png,trial_right_image,-1,exp4.png,4,exp3.png,exp4.png,1,3,reversed,incorrect,0.5188181615519413,0,valid_lose,551.8093853999999,57,,,,,,,,,,,s_013,4,2020_Dec_01_1752,Reversal,3.2.4,59.949270927128154,
14,exp1.png,exp2.png,,,,,,,,,,,,,,,,,1,0,1,0,0,14,14,14,,,,,,,,,False,34,115,True,exp2.png,exp1.png,trial_left_image,1,exp2.png,4,exp2.png,exp1.png,1,1,non-reversed,correct,0.9862910886058788,1,valid_win,556.2340511000002,58,,,,,,,,,,,s_013,4,2020_Dec_01_1752,Reversal,3.2.4,59.949270927128154,
15,exp3.png,exp4.png,,,,,,,,,,,,,,,,,1,0,1,0,0,15,15,15,,,,,,,,,False,35,116,False,exp3.png,exp4.png,trial_right_image,-1,exp4.png,4,exp3.png,exp4.png,1,3,reversed,incorrect,0.8562446721643746,0,valid_lose,561.1726598999994,58,,,,,,,,,,,s_013,4,2020_Dec_01_1752,Reversal,3.2.4,59.949270927128154,
16,exp1.png,exp2.png,,,,,,,,,,,,,,,,,1,0,1,0,0,16,16,16,,,,,,,,,False,36,117,True,exp2.png,exp1.png,trial_left_image,1,exp2.png,4,exp2.png,exp1.png,1,1,non-reversed,correct,0.36499994977588135,1,valid_win,565.1711999999989,59,,,,,,,,,,,s_013,4,2020_Dec_01_1752,Reversal,3.2.4,59.949270927128154,
17,exp3.png,exp4.png,,,,,,,,,,,,,,,,,1,0,1,0,0,17,17,17,,,,,,,,,False,37,118,False,exp3.png,exp4.png,trial_right_image,-1,exp4.png,4,exp3.png,exp4.png,1,3,reversed,incorrect,0.7505200378828019,0,valid_lose,569.203652799999,59,,,,,,,,,,,s_013,4,2020_Dec_01_1752,Reversal,3.2.4,59.949270927128154,
18,exp1.png,exp2.png,,,,,,,,,,,,,,,,,1,0,1,0,0,18,18,18,,,,,,,,,False,38,119,False,exp1.png,exp2.png,trial_left_image,1,exp1.png,4,exp2.png,exp1.png,0,2,non-reversed,incorrect,0.31026456616077747,0,valid_lose,573.4687183999995,59,,,,,,,,,,,s_013,4,2020_Dec_01_1752,Reversal,3.2.4,59.949270927128154,
19,exp3.png,exp4.png,,,,,,,,,,,,,,,,,1,0,1,0,0,19,19,19,,,,,,,,,False,39,120,False,exp3.png,exp4.png,trial_right_image,-1,exp4.png,4,exp3.png,exp4.png,1,3,reversed,incorrect,0.7971643511267184,0,valid_lose,576.7677532999987,59,,,,,,,,,,,s_013,4,2020_Dec_01_1752,Reversal,3.2.4,59.949270927128154,
20,exp1.png,exp2.png,,,,,,,,,,,,,,,,,1,0,1,0,0,20,20,20,,,,,,,,,True,,,,,,,,,,,,,,,,,,,,,,,,,,,,,,,s_013,4,2020_Dec_01_1752,Reversal,3.2.4,59.949270927128154,
,,,,,,,,,,,,,,,,,,,1,0,1,0,,,,,0,0,0,0,,,,,,,,,,,,,,,,,,,,,,,,,,50.0,50.0,50.0,50.0,,,,,,,s_013,4,2020_Dec_01_1752,Reversal,3.2.4,59.949270927128154,
0,exp1.png,exp2.png,,,,,,,,,,,,,,,,,2,0,2,0,0,0,0,0,,,,,,,,,False,40,121,False,exp1.png,exp2.png,trial_right_image,-1,exp2.png,4,exp2.png,exp1.png,1,1,non-reversed,correct,0.012017149911118574,0,invalid_lose,584.5980643999992,59,,,,,,,,,,,s_013,4,2020_Dec_01_1752,Reversal,3.2.4,59.949270927128154,
1,exp3.png,exp4.png,,,,,,,,,,,,,,,,,2,0,2,0,0,1,1,1,,,,,,,,,False,41,122,True,exp4.png,exp3.png,trial_left_image,1,exp4.png,4,exp3.png,exp4.png,1,3,reversed,incorrect,0.7062390164363765,0,valid_lose,589.5295731999995,59,,,,,,,,,,,s_013,4,2020_Dec_01_1752,Reversal,3.2.4,59.949270927128154,
2,exp1.png,exp2.png,,,,,,,,,,,,,,,,,2,0,2,0,0,2,2,2,,,,,,,,,False,42,123,False,exp1.png,exp2.png,trial_right_image,-1,exp2.png,4,exp2.png,exp1.png,1,1,non-reversed,correct,0.41338829308665315,1,valid_win,593.5291423999988,60,,,,,,,,,,,s_013,4,2020_Dec_01_1752,Reversal,3.2.4,59.949270927128154,
3,exp3.png,exp4.png,,,,,,,,,,,,,,,,,2,0,2,0,0,3,3,3,,,,,,,,,False,43,124,True,exp4.png,exp3.png,trial_right_image,-1,exp3.png,4,exp3.png,exp4.png,0,4,reversed,correct,0.4887784173179073,1,valid_win,598.5267733000001,61,,,,,,,,,,,s_013,4,2020_Dec_01_1752,Reversal,3.2.4,59.949270927128154,
4,exp1.png,exp2.png,,,,,,,,,,,,,,,,,2,0,2,0,0,4,4,4,,,,,,,,,False,44,125,True,exp2.png,exp1.png,trial_right_image,-1,exp1.png,4,exp2.png,exp1.png,0,2,non-reversed,incorrect,0.5950984936955808,0,valid_lose,603.1085691999997,61,,,,,,,,,,,s_013,4,2020_Dec_01_1752,Reversal,3.2.4,59.949270927128154,
5,exp3.png,exp4.png,,,,,,,,,,,,,,,,,2,0,2,0,0,5,5,5,,,,,,,,,False,45,126,False,exp3.png,exp4.png,trial_right_image,-1,exp4.png,4,exp3.png,exp4.png,1,3,reversed,incorrect,0.6853344348858976,0,valid_lose,610.2060614000002,61,,,,,,,,,,,s_013,4,2020_Dec_01_1752,Reversal,3.2.4,59.949270927128154,
6,exp1.png,exp2.png,,,,,,,,,,,,,,,,,2,0,2,0,0,6,6,6,,,,,,,,,False,46,127,True,exp2.png,exp1.png,trial_right_image,-1,exp1.png,4,exp2.png,exp1.png,0,2,non-reversed,incorrect,0.37680759619587056,0,valid_lose,614.0549405999991,61,,,,,,,,,,,s_013,4,2020_Dec_01_1752,Reversal,3.2.4,59.949270927128154,
7,exp3.png,exp4.png,,,,,,,,,,,,,,,,,2,0,2,0,0,7,7,7,,,,,,,,,False,47,128,False,exp3.png,exp4.png,trial_right_image,-1,exp4.png,4,exp3.png,exp4.png,1,3,reversed,incorrect,0.4023340181286461,0,valid_lose,619.0865684,61,,,,,,,,,,,s_013,4,2020_Dec_01_1752,Reversal,3.2.4,59.949270927128154,
8,exp1.png,exp2.png,,,,,,,,,,,,,,,,,2,0,2,0,0,8,8,8,,,,,,,,,False,48,129,False,exp1.png,exp2.png,trial_right_image,-1,exp2.png,4,exp2.png,exp1.png,1,1,non-reversed,correct,0.536831699661293,1,valid_win,623.4519021999986,62,,,,,,,,,,,s_013,4,2020_Dec_01_1752,Reversal,3.2.4,59.949270927128154,
9,exp3.png,exp4.png,,,,,,,,,,,,,,,,,2,0,2,0,0,9,9,9,,,,,,,,,False,49,130,True,exp4.png,exp3.png,trial_right_image,-1,exp3.png,4,exp3.png,exp4.png,0,4,reversed,correct,0.8798299874204438,1,valid_win,627.4004570999987,63,,,,,,,,,,,s_013,4,2020_Dec_01_1752,Reversal,3.2.4,59.949270927128154,
10,exp1.png,exp2.png,,,,,,,,,,,,,,,,,2,0,2,0,0,10,10,10,,,,,,,,,False,50,131,True,exp2.png,exp1.png,trial_right_image,-1,exp1.png,4,exp2.png,exp1.png,0,2,non-reversed,incorrect,0.39758496245833785,0,valid_lose,631.4489737999993,63,,,,,,,,,,,s_013,4,2020_Dec_01_1752,Reversal,3.2.4,59.949270927128154,
11,exp3.png,exp4.png,,,,,,,,,,,,,,,,,2,0,2,0,0,11,11,11,,,,,,,,,False,51,132,True,exp4.png,exp3.png,trial_right_image,-1,exp3.png,4,exp3.png,exp4.png,0,4,reversed,correct,0.6095108185085196,1,valid_win,635.3481377999997,64,,,,,,,,,,,s_013,4,2020_Dec_01_1752,Reversal,3.2.4,59.949270927128154,
12,exp1.png,exp2.png,,,,,,,,,,,,,,,,,2,0,2,0,0,12,12,12,,,,,,,,,False,52,133,True,exp2.png,exp1.png,trial_right_image,-1,exp1.png,4,exp2.png,exp1.png,0,2,non-reversed,incorrect,0.30363522461633063,0,valid_lose,638.7798752999988,64,,,,,,,,,,,s_013,4,2020_Dec_01_1752,Reversal,3.2.4,59.949270927128154,
13,exp3.png,exp4.png,,,,,,,,,,,,,,,,,2,0,2,0,0,13,13,13,,,,,,,,,False,53,134,False,exp3.png,exp4.png,trial_right_image,-1,exp4.png,4,exp3.png,exp4.png,1,3,reversed,incorrect,0.5541591252800164,0,valid_lose,642.0109257000004,64,,,,,,,,,,,s_013,4,2020_Dec_01_1752,Reversal,3.2.4,59.949270927128154,
14,exp1.png,exp2.png,,,,,,,,,,,,,,,,,2,0,2,0,0,14,14,14,,,,,,,,,False,54,135,False,exp1.png,exp2.png,trial_left_image,1,exp1.png,4,exp2.png,exp1.png,0,2,non-reversed,incorrect,0.4698830292270998,0,valid_lose,645.8771779999988,64,,,,,,,,,,,s_013,4,2020_Dec_01_1752,Reversal,3.2.4,59.949270927128154,
15,exp3.png,exp4.png,,,,,,,,,,,,,,,,,2,0,2,0,0,15,15,15,,,,,,,,,False,55,136,True,exp4.png,exp3.png,trial_right_image,-1,exp3.png,4,exp3.png,exp4.png,0,4,reversed,correct,0.46633213054378353,1,valid_win,649.5764387999989,65,,,,,,,,,,,s_013,4,2020_Dec_01_1752,Reversal,3.2.4,59.949270927128154,
16,exp1.png,exp2.png,,,,,,,,,,,,,,,,,2,0,2,0,0,16,16,16,,,,,,,,,False,56,137,False,exp1.png,exp2.png,trial_right_image,-1,exp2.png,4,exp2.png,exp1.png,1,1,non-reversed,correct,0.17158512496694533,0,invalid_lose,653.9079916999999,65,,,,,,,,,,,s_013,4,2020_Dec_01_1752,Reversal,3.2.4,59.949270927128154,
17,exp3.png,exp4.png,,,,,,,,,,,,,,,,,2,0,2,0,0,17,17,17,,,,,,,,,False,57,138,True,exp4.png,exp3.png,trial_right_image,-1,exp3.png,4,exp3.png,exp4.png,0,4,reversed,correct,0.8573398932507145,1,valid_win,657.1071133999994,66,,,,,,,,,,,s_013,4,2020_Dec_01_1752,Reversal,3.2.4,59.949270927128154,
18,exp1.png,exp2.png,,,,,,,,,,,,,,,,,2,0,2,0,0,18,18,18,,,,,,,,,False,58,139,False,exp1.png,exp2.png,trial_right_image,-1,exp2.png,4,exp2.png,exp1.png,1,1,non-reversed,correct,0.5907278440535965,1,valid_win,661.2057683000003,67,,,,,,,,,,,s_013,4,2020_Dec_01_1752,Reversal,3.2.4,59.949270927128154,
19,exp3.png,exp4.png,,,,,,,,,,,,,,,,,2,0,2,0,0,19,19,19,,,,,,,,,False,59,140,False,exp3.png,exp4.png,trial_right_image,-1,exp4.png,4,exp3.png,exp4.png,1,3,reversed,incorrect,0.9724674734126479,0,valid_lose,665.8373593999986,67,,,,,,,,,,,s_013,4,2020_Dec_01_1752,Reversal,3.2.4,59.949270927128154,
20,exp1.png,exp2.png,,,,,,,,,,,,,,,,,2,0,2,0,0,20,20,20,,,,,,,,,True,,,,,,,,,,,,,,,,,,,,,,,,,,,,,,,s_013,4,2020_Dec_01_1752,Reversal,3.2.4,59.949270927128154,
,,,,,,,,,,,,,,,,,,,2,0,2,0,,,,,0,0,0,0,,,,,,,,,,,,,,,,,,,,,,,,,,50.0,50.0,50.0,50.0,,,,,,,s_013,4,2020_Dec_01_1752,Reversal,3.2.4,59.949270927128154,
,,,,,,,,,,,,,,,,,,,,,,,,,,,,,,,,,,,,,,,,,,,,,,,,,,,,,,,67,,,,,,69,38,31,277.0078797999995,1,,,,,,,
