trial_index,trial_image1_file,trial_image2_file,learning_outer_loop.thisRepN,learning_outer_loop.thisTrialN,learning_outer_loop.thisN,learning_outer_loop.thisIndex,learning_inner_loop.thisRepN,learning_inner_loop.thisTrialN,learning_inner_loop.thisN,learning_inner_loop.thisIndex,learning_estimation_outer_loop.thisRepN,learning_estimation_outer_loop.thisTrialN,learning_estimation_outer_loop.thisN,learning_estimation_outer_loop.thisIndex,learning_estimation_inner_loop.thisRepN,learning_estimation_inner_loop.thisTrialN,learning_estimation_inner_loop.thisN,learning_estimation_inner_loop.thisIndex,reversal_outer_loop.thisRepN,reversal_outer_loop.thisTrialN,reversal_outer_loop.thisN,reversal_outer_loop.thisIndex,reversal_inner_loop.thisRepN,reversal_inner_loop.thisTrialN,reversal_inner_loop.thisN,reversal_inner_loop.thisIndex,reversal_estimation_outer_loop.thisRepN,reversal_estimation_outer_loop.thisTrialN,reversal_estimation_outer_loop.thisN,reversal_estimation_outer_loop.thisIndex,reversal_estimation_inner_loop.thisRepN,reversal_estimation_inner_loop.thisTrialN,reversal_estimation_inner_loop.thisN,reversal_estimation_inner_loop.thisIndex,skipped,total_trial_counter,trial_num,left_right_flip,left_image_file,right_image_file,clicked_stimulus_side,side,clicked_stimulus,version,high_prob_image_file,low_prob_image_file,choice_a,choice_b,pair_type,correct,trial_feedback_random,reward,trial_type,overall_time_after_trial,score,estimation_exp1.png,estimation_exp2.png,estimation_exp3.png,estimation_exp4.png,total_learning_time,total_correct,learning_correct,reversal_correct,total_reversal_time,extra_block,participant,ver,date,expName,psychopyVersion,frameRate,
0,exp1.png,exp2.png,0,0,0,0,0,0,0,0,,,,,,,,,,,,,,,,,,,,,,,,,False,0,1,True,exp2.png,exp1.png,trial_left_image,1,exp2.png,1,exp1.png,exp2.png,0,4,reversed,incorrect,0.8791074599890285,0,valid_lose,6.027864800009411,0,,,,,,,,,,,s_012,1,2020_Nov_30_1212,Reversal,3.2.4,60.0986098012108,
1,exp3.png,exp4.png,0,0,0,0,0,1,1,1,,,,,,,,,,,,,,,,,,,,,,,,,False,1,2,True,exp4.png,exp3.png,trial_right_image,-1,exp3.png,1,exp3.png,exp4.png,1,1,non-reversed,correct,0.7249036165977054,1,valid_win,11.843231600010768,1,,,,,,,,,,,s_012,1,2020_Nov_30_1212,Reversal,3.2.4,60.0986098012108,
2,exp1.png,exp2.png,0,0,0,0,0,2,2,2,,,,,,,,,,,,,,,,,,,,,,,,,False,2,3,False,exp1.png,exp2.png,trial_right_image,-1,exp2.png,1,exp1.png,exp2.png,0,4,reversed,incorrect,0.3069033002691477,0,valid_lose,17.973966300021857,1,,,,,,,,,,,s_012,1,2020_Nov_30_1212,Reversal,3.2.4,60.0986098012108,
3,exp3.png,exp4.png,0,0,0,0,0,3,3,3,,,,,,,,,,,,,,,,,,,,,,,,,False,3,4,False,exp3.png,exp4.png,trial_left_image,1,exp3.png,1,exp3.png,exp4.png,1,1,non-reversed,correct,0.7012932588051487,1,valid_win,24.186388200032525,2,,,,,,,,,,,s_012,1,2020_Nov_30_1212,Reversal,3.2.4,60.0986098012108,
4,exp1.png,exp2.png,0,0,0,0,0,4,4,4,,,,,,,,,,,,,,,,,,,,,,,,,False,4,5,True,exp2.png,exp1.png,trial_right_image,-1,exp1.png,1,exp1.png,exp2.png,1,3,reversed,correct,0.37381372542944136,1,valid_win,29.786754500004463,3,,,,,,,,,,,s_012,1,2020_Nov_30_1212,Reversal,3.2.4,60.0986098012108,
5,exp3.png,exp4.png,0,0,0,0,0,5,5,5,,,,,,,,,,,,,,,,,,,,,,,,,False,5,6,False,exp3.png,exp4.png,trial_right_image,-1,exp4.png,1,exp3.png,exp4.png,0,2,non-reversed,incorrect,0.6350506645055478,0,valid_lose,34.74994260002859,3,,,,,,,,,,,s_012,1,2020_Nov_30_1212,Reversal,3.2.4,60.0986098012108,
6,exp1.png,exp2.png,0,0,0,0,0,6,6,6,,,,,,,,,,,,,,,,,,,,,,,,,False,6,7,True,exp2.png,exp1.png,trial_left_image,1,exp2.png,1,exp1.png,exp2.png,0,4,reversed,incorrect,0.7916813571805411,0,valid_lose,40.13345520000439,3,,,,,,,,,,,s_012,1,2020_Nov_30_1212,Reversal,3.2.4,60.0986098012108,
7,exp3.png,exp4.png,0,0,0,0,0,7,7,7,,,,,,,,,,,,,,,,,,,,,,,,,False,7,8,False,exp3.png,exp4.png,trial_right_image,-1,exp4.png,1,exp3.png,exp4.png,0,2,non-reversed,incorrect,0.4895306098998401,0,valid_lose,45.414002100005746,3,,,,,,,,,,,s_012,1,2020_Nov_30_1212,Reversal,3.2.4,60.0986098012108,
8,exp1.png,exp2.png,0,0,0,0,0,8,8,8,,,,,,,,,,,,,,,,,,,,,,,,,False,8,9,True,exp2.png,exp1.png,trial_left_image,1,exp2.png,1,exp1.png,exp2.png,0,4,reversed,incorrect,0.4613238187159102,0,valid_lose,51.228169700014405,3,,,,,,,,,,,s_012,1,2020_Nov_30_1212,Reversal,3.2.4,60.0986098012108,
9,exp3.png,exp4.png,0,0,0,0,0,9,9,9,,,,,,,,,,,,,,,,,,,,,,,,,False,9,10,False,exp3.png,exp4.png,trial_right_image,-1,exp4.png,1,exp3.png,exp4.png,0,2,non-reversed,incorrect,0.18729774712946767,1,invalid_win,57.59378540003672,4,,,,,,,,,,,s_012,1,2020_Nov_30_1212,Reversal,3.2.4,60.0986098012108,
10,exp1.png,exp2.png,0,0,0,0,0,10,10,10,,,,,,,,,,,,,,,,,,,,,,,,,False,10,11,False,exp1.png,exp2.png,trial_left_image,1,exp1.png,1,exp1.png,exp2.png,1,3,reversed,correct,0.8484217408589405,1,valid_win,65.29113090003375,5,,,,,,,,,,,s_012,1,2020_Nov_30_1212,Reversal,3.2.4,60.0986098012108,
11,exp3.png,exp4.png,0,0,0,0,0,11,11,11,,,,,,,,,,,,,,,,,,,,,,,,,False,11,12,False,exp3.png,exp4.png,trial_left_image,1,exp3.png,1,exp3.png,exp4.png,1,1,non-reversed,correct,0.8875419537755815,1,valid_win,71.37268890003907,6,,,,,,,,,,,s_012,1,2020_Nov_30_1212,Reversal,3.2.4,60.0986098012108,
12,exp1.png,exp2.png,0,0,0,0,0,12,12,12,,,,,,,,,,,,,,,,,,,,,,,,,False,12,13,True,exp2.png,exp1.png,trial_right_image,-1,exp1.png,1,exp1.png,exp2.png,1,3,reversed,correct,0.8926164681723406,1,valid_win,77.28596130001824,7,,,,,,,,,,,s_012,1,2020_Nov_30_1212,Reversal,3.2.4,60.0986098012108,
13,exp3.png,exp4.png,0,0,0,0,0,13,13,13,,,,,,,,,,,,,,,,,,,,,,,,,False,13,14,True,exp4.png,exp3.png,trial_right_image,-1,exp3.png,1,exp3.png,exp4.png,1,1,non-reversed,correct,0.9827372719665156,1,valid_win,82.78531130001647,8,,,,,,,,,,,s_012,1,2020_Nov_30_1212,Reversal,3.2.4,60.0986098012108,
14,exp1.png,exp2.png,0,0,0,0,0,14,14,14,,,,,,,,,,,,,,,,,,,,,,,,,False,14,15,True,exp2.png,exp1.png,trial_left_image,1,exp2.png,1,exp1.png,exp2.png,0,4,reversed,incorrect,0.19099022877255922,1,invalid_win,87.88357020000694,9,,,,,,,,,,,s_012,1,2020_Nov_30_1212,Reversal,3.2.4,60.0986098012108,
15,exp3.png,exp4.png,0,0,0,0,0,15,15,15,,,,,,,,,,,,,,,,,,,,,,,,,False,15,16,True,exp4.png,exp3.png,trial_right_image,-1,exp3.png,1,exp3.png,exp4.png,1,1,non-reversed,correct,0.7133101405131554,1,valid_win,93.6980470000417,10,,,,,,,,,,,s_012,1,2020_Nov_30_1212,Reversal,3.2.4,60.0986098012108,
16,exp1.png,exp2.png,0,0,0,0,0,16,16,16,,,,,,,,,,,,,,,,,,,,,,,,,False,16,17,True,exp2.png,exp1.png,trial_left_image,1,exp2.png,1,exp1.png,exp2.png,0,4,reversed,incorrect,0.8450931599940972,0,valid_lose,99.17829520005034,10,,,,,,,,,,,s_012,1,2020_Nov_30_1212,Reversal,3.2.4,60.0986098012108,
17,exp3.png,exp4.png,0,0,0,0,0,17,17,17,,,,,,,,,,,,,,,,,,,,,,,,,False,17,18,False,exp3.png,exp4.png,trial_left_image,1,exp3.png,1,exp3.png,exp4.png,1,1,non-reversed,correct,0.334728233620052,1,valid_win,104.40977730002487,11,,,,,,,,,,,s_012,1,2020_Nov_30_1212,Reversal,3.2.4,60.0986098012108,
18,exp1.png,exp2.png,0,0,0,0,0,18,18,18,,,,,,,,,,,,,,,,,,,,,,,,,False,18,19,False,exp1.png,exp2.png,trial_right_image,-1,exp2.png,1,exp1.png,exp2.png,0,4,reversed,incorrect,0.502041579611577,0,valid_lose,109.65933330002008,11,,,,,,,,,,,s_012,1,2020_Nov_30_1212,Reversal,3.2.4,60.0986098012108,
19,exp3.png,exp4.png,0,0,0,0,0,19,19,19,,,,,,,,,,,,,,,,,,,,,,,,,False,19,20,False,exp3.png,exp4.png,trial_right_image,-1,exp4.png,1,exp3.png,exp4.png,0,2,non-reversed,incorrect,0.45592861465388224,0,valid_lose,114.65764460002538,11,,,,,,,,,,,s_012,1,2020_Nov_30_1212,Reversal,3.2.4,60.0986098012108,
20,exp1.png,exp2.png,0,0,0,0,0,20,20,20,,,,,,,,,,,,,,,,,,,,,,,,,True,,,,,,,,,,,,,,,,,,,,,,,,,,,,,,,s_012,1,2020_Nov_30_1212,Reversal,3.2.4,60.0986098012108,
,,,0,0,0,0,,,,,0,0,0,0,,,,,,,,,,,,,,,,,,,,,,,,,,,,,,,,,,,,,,,,,,68,68,30,12,,,,,,,s_012,1,2020_Nov_30_1212,Reversal,3.2.4,60.0986098012108,
0,exp1.png,exp2.png,1,0,1,0,0,0,0,0,,,,,,,,,,,,,,,,,,,,,,,,,False,20,21,False,exp1.png,exp2.png,trial_right_image,-1,exp2.png,1,exp1.png,exp2.png,0,4,reversed,incorrect,0.7638001567823586,0,valid_lose,149.87864400004037,11,,,,,,,,,,,s_012,1,2020_Nov_30_1212,Reversal,3.2.4,60.0986098012108,
1,exp3.png,exp4.png,1,0,1,0,0,1,1,1,,,,,,,,,,,,,,,,,,,,,,,,,False,21,22,False,exp3.png,exp4.png,trial_right_image,-1,exp4.png,1,exp3.png,exp4.png,0,2,non-reversed,incorrect,0.9189531484452107,0,valid_lose,155.4274728000164,11,,,,,,,,,,,s_012,1,2020_Nov_30_1212,Reversal,3.2.4,60.0986098012108,
2,exp1.png,exp2.png,1,0,1,0,0,2,2,2,,,,,,,,,,,,,,,,,,,,,,,,,False,22,23,False,exp1.png,exp2.png,trial_left_image,1,exp1.png,1,exp1.png,exp2.png,1,3,reversed,correct,0.8273986381441546,1,valid_win,160.39208880002843,12,,,,,,,,,,,s_012,1,2020_Nov_30_1212,Reversal,3.2.4,60.0986098012108,
3,exp3.png,exp4.png,1,0,1,0,0,3,3,3,,,,,,,,,,,,,,,,,,,,,,,,,False,23,24,True,exp4.png,exp3.png,trial_right_image,-1,exp3.png,1,exp3.png,exp4.png,1,1,non-reversed,correct,0.6243623607202613,1,valid_win,165.9060958000482,13,,,,,,,,,,,s_012,1,2020_Nov_30_1212,Reversal,3.2.4,60.0986098012108,
4,exp1.png,exp2.png,1,0,1,0,0,4,4,4,,,,,,,,,,,,,,,,,,,,,,,,,False,24,25,False,exp1.png,exp2.png,trial_left_image,1,exp1.png,1,exp1.png,exp2.png,1,3,reversed,correct,0.9924012358783503,1,valid_win,171.155158700014,14,,,,,,,,,,,s_012,1,2020_Nov_30_1212,Reversal,3.2.4,60.0986098012108,
5,exp3.png,exp4.png,1,0,1,0,0,5,5,5,,,,,,,,,,,,,,,,,,,,,,,,,False,25,26,True,exp4.png,exp3.png,trial_right_image,-1,exp3.png,1,exp3.png,exp4.png,1,1,non-reversed,correct,0.1778809973374963,0,invalid_lose,178.65246050001588,14,,,,,,,,,,,s_012,1,2020_Nov_30_1212,Reversal,3.2.4,60.0986098012108,
6,exp1.png,exp2.png,1,0,1,0,0,6,6,6,,,,,,,,,,,,,,,,,,,,,,,,,False,26,27,False,exp1.png,exp2.png,trial_left_image,1,exp1.png,1,exp1.png,exp2.png,1,3,reversed,correct,0.10000784989070954,0,invalid_lose,184.2006066000322,14,,,,,,,,,,,s_012,1,2020_Nov_30_1212,Reversal,3.2.4,60.0986098012108,
7,exp3.png,exp4.png,1,0,1,0,0,7,7,7,,,,,,,,,,,,,,,,,,,,,,,,,False,27,28,True,exp4.png,exp3.png,trial_left_image,1,exp4.png,1,exp3.png,exp4.png,0,2,non-reversed,incorrect,0.3718365901028581,0,valid_lose,190.2653244000394,14,,,,,,,,,,,s_012,1,2020_Nov_30_1212,Reversal,3.2.4,60.0986098012108,
8,exp1.png,exp2.png,1,0,1,0,0,8,8,8,,,,,,,,,,,,,,,,,,,,,,,,,False,28,29,False,exp1.png,exp2.png,trial_left_image,1,exp1.png,1,exp1.png,exp2.png,1,3,reversed,correct,0.1585061643986948,0,invalid_lose,195.69674550002674,14,,,,,,,,,,,s_012,1,2020_Nov_30_1212,Reversal,3.2.4,60.0986098012108,
9,exp3.png,exp4.png,1,0,1,0,0,9,9,9,,,,,,,,,,,,,,,,,,,,,,,,,False,29,30,True,exp4.png,exp3.png,trial_left_image,1,exp4.png,1,exp3.png,exp4.png,0,2,non-reversed,incorrect,0.001877747573437949,1,invalid_win,202.07795440003974,15,,,,,,,,,,,s_012,1,2020_Nov_30_1212,Reversal,3.2.4,60.0986098012108,
10,exp1.png,exp2.png,1,0,1,0,0,10,10,10,,,,,,,,,,,,,,,,,,,,,,,,,False,30,31,True,exp2.png,exp1.png,trial_left_image,1,exp2.png,1,exp1.png,exp2.png,0,4,reversed,incorrect,0.8450976626901142,0,valid_lose,207.4094052000437,15,,,,,,,,,,,s_012,1,2020_Nov_30_1212,Reversal,3.2.4,60.0986098012108,
11,exp3.png,exp4.png,1,0,1,0,0,11,11,11,,,,,,,,,,,,,,,,,,,,,,,,,False,31,32,True,exp4.png,exp3.png,trial_left_image,1,exp4.png,1,exp3.png,exp4.png,0,2,non-reversed,incorrect,0.20892295000907446,1,invalid_win,212.4064997000387,16,,,,,,,,,,,s_012,1,2020_Nov_30_1212,Reversal,3.2.4,60.0986098012108,
12,exp1.png,exp2.png,1,0,1,0,0,12,12,12,,,,,,,,,,,,,,,,,,,,,,,,,False,32,33,True,exp2.png,exp1.png,trial_right_image,-1,exp1.png,1,exp1.png,exp2.png,1,3,reversed,correct,0.23456979455672122,0,invalid_lose,217.28922970005078,16,,,,,,,,,,,s_012,1,2020_Nov_30_1212,Reversal,3.2.4,60.0986098012108,
13,exp3.png,exp4.png,1,0,1,0,0,13,13,13,,,,,,,,,,,,,,,,,,,,,,,,,False,33,34,False,exp3.png,exp4.png,trial_left_image,1,exp3.png,1,exp3.png,exp4.png,1,1,non-reversed,correct,0.7671099500560693,1,valid_win,222.7209463000181,17,,,,,,,,,,,s_012,1,2020_Nov_30_1212,Reversal,3.2.4,60.0986098012108,
14,exp1.png,exp2.png,1,0,1,0,0,14,14,14,,,,,,,,,,,,,,,,,,,,,,,,,False,34,35,True,exp2.png,exp1.png,trial_left_image,1,exp2.png,1,exp1.png,exp2.png,0,4,reversed,incorrect,0.3068862526210697,0,valid_lose,227.66921930003446,17,,,,,,,,,,,s_012,1,2020_Nov_30_1212,Reversal,3.2.4,60.0986098012108,
15,exp3.png,exp4.png,1,0,1,0,0,15,15,15,,,,,,,,,,,,,,,,,,,,,,,,,False,35,36,False,exp3.png,exp4.png,trial_left_image,1,exp3.png,1,exp3.png,exp4.png,1,1,non-reversed,correct,0.5827582915538331,1,valid_win,233.25060120003764,18,,,,,,,,,,,s_012,1,2020_Nov_30_1212,Reversal,3.2.4,60.0986098012108,
16,exp1.png,exp2.png,1,0,1,0,0,16,16,16,,,,,,,,,,,,,,,,,,,,,,,,,False,36,37,True,exp2.png,exp1.png,trial_right_image,-1,exp1.png,1,exp1.png,exp2.png,1,3,reversed,correct,0.4234812293672816,1,valid_win,238.2479240000248,19,,,,,,,,,,,s_012,1,2020_Nov_30_1212,Reversal,3.2.4,60.0986098012108,
17,exp3.png,exp4.png,1,0,1,0,0,17,17,17,,,,,,,,,,,,,,,,,,,,,,,,,False,37,38,False,exp3.png,exp4.png,trial_left_image,1,exp3.png,1,exp3.png,exp4.png,1,1,non-reversed,correct,0.96919239839025,1,valid_win,243.61369800003013,20,,,,,,,,,,,s_012,1,2020_Nov_30_1212,Reversal,3.2.4,60.0986098012108,
18,exp1.png,exp2.png,1,0,1,0,0,18,18,18,,,,,,,,,,,,,,,,,,,,,,,,,False,38,39,True,exp2.png,exp1.png,trial_right_image,-1,exp1.png,1,exp1.png,exp2.png,1,3,reversed,correct,0.2274127896058168,0,invalid_lose,248.66258790000575,20,,,,,,,,,,,s_012,1,2020_Nov_30_1212,Reversal,3.2.4,60.0986098012108,
19,exp3.png,exp4.png,1,0,1,0,0,19,19,19,,,,,,,,,,,,,,,,,,,,,,,,,False,39,40,False,exp3.png,exp4.png,trial_left_image,1,exp3.png,1,exp3.png,exp4.png,1,1,non-reversed,correct,0.40318047682044733,1,valid_win,256.02647530002287,21,,,,,,,,,,,s_012,1,2020_Nov_30_1212,Reversal,3.2.4,60.0986098012108,
20,exp1.png,exp2.png,1,0,1,0,0,20,20,20,,,,,,,,,,,,,,,,,,,,,,,,,True,,,,,,,,,,,,,,,,,,,,,,,,,,,,,,,s_012,1,2020_Nov_30_1212,Reversal,3.2.4,60.0986098012108,
,,,1,0,1,0,,,,,0,0,0,0,,,,,,,,,,,,,,,,,,,,,,,,,,,,,,,,,,,,,,,,,,69,0,84,0,,,,,,,s_012,1,2020_Nov_30_1212,Reversal,3.2.4,60.0986098012108,
0,exp1.png,exp2.png,2,0,2,0,0,0,0,0,,,,,,,,,,,,,,,,,,,,,,,,,False,40,41,False,exp1.png,exp2.png,trial_left_image,1,exp1.png,1,exp1.png,exp2.png,1,3,reversed,correct,0.8988748414391925,1,valid_win,278.88493450003443,22,,,,,,,,,,,s_012,1,2020_Nov_30_1212,Reversal,3.2.4,60.0986098012108,
1,exp3.png,exp4.png,2,0,2,0,0,1,1,1,,,,,,,,,,,,,,,,,,,,,,,,,False,41,42,True,exp4.png,exp3.png,trial_right_image,-1,exp3.png,1,exp3.png,exp4.png,1,1,non-reversed,correct,0.46010361183680826,1,valid_win,286.9489293000079,23,,,,,,,,,,,s_012,1,2020_Nov_30_1212,Reversal,3.2.4,60.0986098012108,
2,exp1.png,exp2.png,2,0,2,0,0,2,2,2,,,,,,,,,,,,,,,,,,,,,,,,,False,42,43,True,exp2.png,exp1.png,trial_right_image,-1,exp1.png,1,exp1.png,exp2.png,1,3,reversed,correct,0.7506660448524596,1,valid_win,293.0471268000547,24,,,,,,,,,,,s_012,1,2020_Nov_30_1212,Reversal,3.2.4,60.0986098012108,
3,exp3.png,exp4.png,2,0,2,0,0,3,3,3,,,,,,,,,,,,,,,,,,,,,,,,,False,43,44,False,exp3.png,exp4.png,trial_left_image,1,exp3.png,1,exp3.png,exp4.png,1,1,non-reversed,correct,0.2914741588941355,1,valid_win,298.7449867000105,25,,,,,,,,,,,s_012,1,2020_Nov_30_1212,Reversal,3.2.4,60.0986098012108,
4,exp1.png,exp2.png,2,0,2,0,0,4,4,4,,,,,,,,,,,,,,,,,,,,,,,,,False,44,45,True,exp2.png,exp1.png,trial_right_image,-1,exp1.png,1,exp1.png,exp2.png,1,3,reversed,correct,0.05207529331086125,0,invalid_lose,306.37466560001485,25,,,,,,,,,,,s_012,1,2020_Nov_30_1212,Reversal,3.2.4,60.0986098012108,
5,exp3.png,exp4.png,2,0,2,0,0,5,5,5,,,,,,,,,,,,,,,,,,,,,,,,,False,45,46,False,exp3.png,exp4.png,trial_left_image,1,exp3.png,1,exp3.png,exp4.png,1,1,non-reversed,correct,0.052012519705583626,0,invalid_lose,314.422041700047,25,,,,,,,,,,,s_012,1,2020_Nov_30_1212,Reversal,3.2.4,60.0986098012108,
6,exp1.png,exp2.png,2,0,2,0,0,6,6,6,,,,,,,,,,,,,,,,,,,,,,,,,False,46,47,False,exp1.png,exp2.png,trial_right_image,-1,exp2.png,1,exp1.png,exp2.png,0,4,reversed,incorrect,0.6631522355007812,0,valid_lose,320.720766500046,25,,,,,,,,,,,s_012,1,2020_Nov_30_1212,Reversal,3.2.4,60.0986098012108,
7,exp3.png,exp4.png,2,0,2,0,0,7,7,7,,,,,,,,,,,,,,,,,,,,,,,,,False,47,48,False,exp3.png,exp4.png,trial_right_image,-1,exp4.png,1,exp3.png,exp4.png,0,2,non-reversed,incorrect,0.1390151395739373,1,invalid_win,328.60041880002245,26,,,,,,,,,,,s_012,1,2020_Nov_30_1212,Reversal,3.2.4,60.0986098012108,
8,exp1.png,exp2.png,2,0,2,0,0,8,8,8,,,,,,,,,,,,,,,,,,,,,,,,,False,48,49,False,exp1.png,exp2.png,trial_left_image,1,exp1.png,1,exp1.png,exp2.png,1,3,reversed,correct,0.7613720339988164,1,valid_win,341.1806816000026,27,,,,,,,,,,,s_012,1,2020_Nov_30_1212,Reversal,3.2.4,60.0986098012108,
9,exp3.png,exp4.png,2,0,2,0,0,9,9,9,,,,,,,,,,,,,,,,,,,,,,,,,False,49,50,True,exp4.png,exp3.png,trial_right_image,-1,exp3.png,1,exp3.png,exp4.png,1,1,non-reversed,correct,0.8186322174410469,1,valid_win,348.31129260000307,28,,,,,,,,,,,s_012,1,2020_Nov_30_1212,Reversal,3.2.4,60.0986098012108,
10,exp1.png,exp2.png,2,0,2,0,0,10,10,10,,,,,,,,,,,,,,,,,,,,,,,,,False,50,51,True,exp2.png,exp1.png,trial_right_image,-1,exp1.png,1,exp1.png,exp2.png,1,3,reversed,correct,0.3206953469788514,1,valid_win,355.84232890000567,29,,,,,,,,,,,s_012,1,2020_Nov_30_1212,Reversal,3.2.4,60.0986098012108,
11,exp3.png,exp4.png,2,0,2,0,0,11,11,11,,,,,,,,,,,,,,,,,,,,,,,,,False,51,52,True,exp4.png,exp3.png,trial_left_image,1,exp4.png,1,exp3.png,exp4.png,0,2,non-reversed,incorrect,0.11483111727086825,1,invalid_win,367.9873812000151,30,,,,,,,,,,,s_012,1,2020_Nov_30_1212,Reversal,3.2.4,60.0986098012108,
12,exp1.png,exp2.png,2,0,2,0,0,12,12,12,,,,,,,,,,,,,,,,,,,,,,,,,False,52,53,False,exp1.png,exp2.png,trial_right_image,-1,exp2.png,1,exp1.png,exp2.png,0,4,reversed,incorrect,0.9175281073235418,0,valid_lose,375.91885660000844,30,,,,,,,,,,,s_012,1,2020_Nov_30_1212,Reversal,3.2.4,60.0986098012108,
13,exp3.png,exp4.png,2,0,2,0,0,13,13,13,,,,,,,,,,,,,,,,,,,,,,,,,False,53,54,True,exp4.png,exp3.png,trial_left_image,1,exp4.png,1,exp3.png,exp4.png,0,2,non-reversed,incorrect,0.27129113391816484,0,valid_lose,382.63326620002044,30,,,,,,,,,,,s_012,1,2020_Nov_30_1212,Reversal,3.2.4,60.0986098012108,
14,exp1.png,exp2.png,2,0,2,0,0,14,14,14,,,,,,,,,,,,,,,,,,,,,,,,,False,54,55,True,exp2.png,exp1.png,trial_right_image,-1,exp1.png,1,exp1.png,exp2.png,1,3,reversed,correct,0.21927347722870372,0,invalid_lose,389.6473974000546,30,,,,,,,,,,,s_012,1,2020_Nov_30_1212,Reversal,3.2.4,60.0986098012108,
15,exp3.png,exp4.png,2,0,2,0,0,15,15,15,,,,,,,,,,,,,,,,,,,,,,,,,False,55,56,True,exp4.png,exp3.png,trial_left_image,1,exp4.png,1,exp3.png,exp4.png,0,2,non-reversed,incorrect,0.430612102901744,0,valid_lose,399.64410040003713,30,,,,,,,,,,,s_012,1,2020_Nov_30_1212,Reversal,3.2.4,60.0986098012108,
16,exp1.png,exp2.png,2,0,2,0,0,16,16,16,,,,,,,,,,,,,,,,,,,,,,,,,False,56,57,False,exp1.png,exp2.png,trial_left_image,1,exp1.png,1,exp1.png,exp2.png,1,3,reversed,correct,0.8031361348243194,1,valid_win,406.926101500052,31,,,,,,,,,,,s_012,1,2020_Nov_30_1212,Reversal,3.2.4,60.0986098012108,
17,exp3.png,exp4.png,2,0,2,0,0,17,17,17,,,,,,,,,,,,,,,,,,,,,,,,,False,57,58,False,exp3.png,exp4.png,trial_right_image,-1,exp4.png,1,exp3.png,exp4.png,0,2,non-reversed,incorrect,0.37638365195033585,0,valid_lose,425.8183706999989,31,,,,,,,,,,,s_012,1,2020_Nov_30_1212,Reversal,3.2.4,60.0986098012108,
18,exp1.png,exp2.png,2,0,2,0,0,18,18,18,,,,,,,,,,,,,,,,,,,,,,,,,False,58,59,False,exp1.png,exp2.png,trial_left_image,1,exp1.png,1,exp1.png,exp2.png,1,3,reversed,correct,0.060487903777790675,0,invalid_lose,433.3992015000549,31,,,,,,,,,,,s_012,1,2020_Nov_30_1212,Reversal,3.2.4,60.0986098012108,
19,exp3.png,exp4.png,2,0,2,0,0,19,19,19,,,,,,,,,,,,,,,,,,,,,,,,,False,59,60,True,exp4.png,exp3.png,trial_left_image,1,exp4.png,1,exp3.png,exp4.png,0,2,non-reversed,incorrect,0.11423797483637776,1,invalid_win,445.0788662000559,32,,,,,,,,,,,s_012,1,2020_Nov_30_1212,Reversal,3.2.4,60.0986098012108,
20,exp1.png,exp2.png,2,0,2,0,0,20,20,20,,,,,,,,,,,,,,,,,,,,,,,,,True,,,,,,,,,,,,,,,,,,,,,,,,,,,,,,,s_012,1,2020_Nov_30_1212,Reversal,3.2.4,60.0986098012108,
,,,2,0,2,0,,,,,0,0,0,0,,,,,,,,,,,,,,,,,,,,,,,,,,,,,,,,,,,,,,,,,,50.0,100,0,50.0,,,,,,,s_012,1,2020_Nov_30_1212,Reversal,3.2.4,60.0986098012108,
0,exp1.png,exp2.png,3,0,3,0,0,0,0,0,,,,,,,,,,,,,,,,,,,,,,,,,False,60,61,True,exp2.png,exp1.png,trial_left_image,1,exp2.png,1,exp1.png,exp2.png,0,4,reversed,incorrect,0.37617338731593186,0,valid_lose,474.0186441000551,32,,,,,,,,,,,s_012,1,2020_Nov_30_1212,Reversal,3.2.4,60.0986098012108,
1,exp3.png,exp4.png,3,0,3,0,0,1,1,1,,,,,,,,,,,,,,,,,,,,,,,,,False,61,62,True,exp4.png,exp3.png,trial_left_image,1,exp4.png,1,exp3.png,exp4.png,0,2,non-reversed,incorrect,0.9961585159398931,0,valid_lose,481.099831700034,32,,,,,,,,,,,s_012,1,2020_Nov_30_1212,Reversal,3.2.4,60.0986098012108,
2,exp1.png,exp2.png,3,0,3,0,0,2,2,2,,,,,,,,,,,,,,,,,,,,,,,,,False,62,63,False,exp1.png,exp2.png,trial_left_image,1,exp1.png,1,exp1.png,exp2.png,1,3,reversed,correct,0.8310922912104056,1,valid_win,488.7971211000113,33,,,,,,,,,,,s_012,1,2020_Nov_30_1212,Reversal,3.2.4,60.0986098012108,
3,exp3.png,exp4.png,3,0,3,0,0,3,3,3,,,,,,,,,,,,,,,,,,,,,,,,,False,63,64,False,exp3.png,exp4.png,trial_left_image,1,exp3.png,1,exp3.png,exp4.png,1,1,non-reversed,correct,0.7353106056554527,1,valid_win,495.01154610002413,34,,,,,,,,,,,s_012,1,2020_Nov_30_1212,Reversal,3.2.4,60.0986098012108,
4,exp1.png,exp2.png,3,0,3,0,0,4,4,4,,,,,,,,,,,,,,,,,,,,,,,,,False,64,65,False,exp1.png,exp2.png,trial_left_image,1,exp1.png,1,exp1.png,exp2.png,1,3,reversed,correct,0.44471225306374196,1,valid_win,501.7758771000081,35,,,,,,,,,,,s_012,1,2020_Nov_30_1212,Reversal,3.2.4,60.0986098012108,
5,exp3.png,exp4.png,3,0,3,0,0,5,5,5,,,,,,,,,,,,,,,,,,,,,,,,,False,65,66,False,exp3.png,exp4.png,trial_left_image,1,exp3.png,1,exp3.png,exp4.png,1,1,non-reversed,correct,0.753158412435248,1,valid_win,507.58988990000216,36,,,,,,,,,,,s_012,1,2020_Nov_30_1212,Reversal,3.2.4,60.0986098012108,
6,exp1.png,exp2.png,3,0,3,0,0,6,6,6,,,,,,,,,,,,,,,,,,,,,,,,,False,66,67,False,exp1.png,exp2.png,trial_left_image,1,exp1.png,1,exp1.png,exp2.png,1,3,reversed,correct,0.8234659818353279,1,valid_win,513.1052936000051,37,,,,,,,,,,,s_012,1,2020_Nov_30_1212,Reversal,3.2.4,60.0986098012108,
7,exp3.png,exp4.png,3,0,3,0,0,7,7,7,,,,,,,,,,,,,,,,,,,,,,,,,False,67,68,True,exp4.png,exp3.png,trial_right_image,-1,exp3.png,1,exp3.png,exp4.png,1,1,non-reversed,correct,0.16907353509111112,0,invalid_lose,518.2702773000346,37,,,,,,,,,,,s_012,1,2020_Nov_30_1212,Reversal,3.2.4,60.0986098012108,
8,exp1.png,exp2.png,3,0,3,0,0,8,8,8,,,,,,,,,,,,,,,,,,,,,,,,,False,68,69,True,exp2.png,exp1.png,trial_right_image,-1,exp1.png,1,exp1.png,exp2.png,1,3,reversed,correct,0.8530164040149927,1,valid_win,523.5517920000129,38,,,,,,,,,,,s_012,1,2020_Nov_30_1212,Reversal,3.2.4,60.0986098012108,
9,exp3.png,exp4.png,3,0,3,0,0,9,9,9,,,,,,,,,,,,,,,,,,,,,,,,,False,69,70,True,exp4.png,exp3.png,trial_right_image,-1,exp3.png,1,exp3.png,exp4.png,1,1,non-reversed,correct,0.5007022726840504,1,valid_win,528.5333549000206,39,,,,,,,,,,,s_012,1,2020_Nov_30_1212,Reversal,3.2.4,60.0986098012108,
10,exp1.png,exp2.png,3,0,3,0,0,10,10,10,,,,,,,,,,,,,,,,,,,,,,,,,False,70,71,True,exp2.png,exp1.png,trial_right_image,-1,exp1.png,1,exp1.png,exp2.png,1,3,reversed,correct,0.6514595095850302,1,valid_win,533.2823222000152,40,,,,,,,,,,,s_012,1,2020_Nov_30_1212,Reversal,3.2.4,60.0986098012108,
11,exp3.png,exp4.png,3,0,3,0,0,11,11,11,,,,,,,,,,,,,,,,,,,,,,,,,False,71,72,False,exp3.png,exp4.png,trial_left_image,1,exp3.png,1,exp3.png,exp4.png,1,1,non-reversed,correct,0.5234504377851673,1,valid_win,538.3291316000395,41,,,,,,,,,,,s_012,1,2020_Nov_30_1212,Reversal,3.2.4,60.0986098012108,
12,exp1.png,exp2.png,3,0,3,0,0,12,12,12,,,,,,,,,,,,,,,,,,,,,,,,,False,72,73,True,exp2.png,exp1.png,trial_right_image,-1,exp1.png,1,exp1.png,exp2.png,1,3,reversed,correct,0.6413609875457962,1,valid_win,543.1451135000098,42,,,,,,,,,,,s_012,1,2020_Nov_30_1212,Reversal,3.2.4,60.0986098012108,
13,exp3.png,exp4.png,3,0,3,0,0,13,13,13,,,,,,,,,,,,,,,,,,,,,,,,,False,73,74,False,exp3.png,exp4.png,trial_left_image,1,exp3.png,1,exp3.png,exp4.png,1,1,non-reversed,correct,0.49510296493607375,1,valid_win,547.5269678000477,43,,,,,,,,,,,s_012,1,2020_Nov_30_1212,Reversal,3.2.4,60.0986098012108,
14,exp1.png,exp2.png,3,0,3,0,0,14,14,14,,,,,,,,,,,,,,,,,,,,,,,,,False,74,75,False,exp1.png,exp2.png,trial_left_image,1,exp1.png,1,exp1.png,exp2.png,1,3,reversed,correct,0.794117628688783,1,valid_win,553.1420781000052,44,,,,,,,,,,,s_012,1,2020_Nov_30_1212,Reversal,3.2.4,60.0986098012108,
15,exp3.png,exp4.png,3,0,3,0,0,15,15,15,,,,,,,,,,,,,,,,,,,,,,,,,False,75,76,True,exp4.png,exp3.png,trial_right_image,-1,exp3.png,1,exp3.png,exp4.png,1,1,non-reversed,correct,0.06967277663753935,0,invalid_lose,557.9400857000146,44,,,,,,,,,,,s_012,1,2020_Nov_30_1212,Reversal,3.2.4,60.0986098012108,
16,exp1.png,exp2.png,3,0,3,0,0,16,16,16,,,,,,,,,,,,,,,,,,,,,,,,,False,76,77,True,exp2.png,exp1.png,trial_right_image,-1,exp1.png,1,exp1.png,exp2.png,1,3,reversed,correct,0.5999985397606749,1,valid_win,562.8221503000241,45,,,,,,,,,,,s_012,1,2020_Nov_30_1212,Reversal,3.2.4,60.0986098012108,
17,exp3.png,exp4.png,3,0,3,0,0,17,17,17,,,,,,,,,,,,,,,,,,,,,,,,,False,77,78,False,exp3.png,exp4.png,trial_left_image,1,exp3.png,1,exp3.png,exp4.png,1,1,non-reversed,correct,0.25433854837787284,1,valid_win,567.754391000024,46,,,,,,,,,,,s_012,1,2020_Nov_30_1212,Reversal,3.2.4,60.0986098012108,
18,exp1.png,exp2.png,3,0,3,0,0,18,18,18,,,,,,,,,,,,,,,,,,,,,,,,,False,78,79,False,exp1.png,exp2.png,trial_left_image,1,exp1.png,1,exp1.png,exp2.png,1,3,reversed,correct,0.5635583345186357,1,valid_win,572.9348809000221,47,,,,,,,,,,,s_012,1,2020_Nov_30_1212,Reversal,3.2.4,60.0986098012108,
19,exp3.png,exp4.png,3,0,3,0,0,19,19,19,,,,,,,,,,,,,,,,,,,,,,,,,False,79,80,True,exp4.png,exp3.png,trial_right_image,-1,exp3.png,1,exp3.png,exp4.png,1,1,non-reversed,correct,0.20293626071257975,0,invalid_lose,577.7337927000481,47,,,,,,,,,,,s_012,1,2020_Nov_30_1212,Reversal,3.2.4,60.0986098012108,
20,exp1.png,exp2.png,3,0,3,0,0,20,20,20,,,,,,,,,,,,,,,,,,,,,,,,,True,,,,,,,,,,,,,,,,,,,,,,,,,,,,,,,s_012,1,2020_Nov_30_1212,Reversal,3.2.4,60.0986098012108,
,,,3,0,3,0,,,,,0,0,0,0,,,,,,,,,,,,,,,,,,,,,,,,,,,,,,,,,,,,,,,,,,100,0,73,0,,,,,,,s_012,1,2020_Nov_30_1212,Reversal,3.2.4,60.0986098012108,
0,exp1.png,exp2.png,,,,,,,,,,,,,,,,,0,0,0,0,0,0,0,0,,,,,,,,,False,0,81,True,exp2.png,exp1.png,trial_right_image,-1,exp1.png,1,exp2.png,exp1.png,1,3,reversed,incorrect,0.4853592394944568,0,valid_lose,597.6935418000212,47,,,,,593.2710504000424,,,,,,s_012,1,2020_Nov_30_1212,Reversal,3.2.4,60.0986098012108,
1,exp3.png,exp4.png,,,,,,,,,,,,,,,,,0,0,0,0,0,1,1,1,,,,,,,,,False,1,82,True,exp4.png,exp3.png,trial_left_image,1,exp4.png,1,exp3.png,exp4.png,0,2,non-reversed,incorrect,0.7405549062894619,0,valid_lose,603.09209010005,47,,,,,,,,,,,s_012,1,2020_Nov_30_1212,Reversal,3.2.4,60.0986098012108,
2,exp1.png,exp2.png,,,,,,,,,,,,,,,,,0,0,0,0,0,2,2,2,,,,,,,,,False,2,83,True,exp2.png,exp1.png,trial_left_image,1,exp2.png,1,exp2.png,exp1.png,0,4,reversed,correct,0.17537947492028028,0,invalid_lose,615.0205719000078,47,,,,,,,,,,,s_012,1,2020_Nov_30_1212,Reversal,3.2.4,60.0986098012108,
3,exp3.png,exp4.png,,,,,,,,,,,,,,,,,0,0,0,0,0,3,3,3,,,,,,,,,False,3,84,False,exp3.png,exp4.png,trial_left_image,1,exp3.png,1,exp3.png,exp4.png,1,1,non-reversed,correct,0.7673092866584822,1,valid_win,620.8673951000092,48,,,,,,,,,,,s_012,1,2020_Nov_30_1212,Reversal,3.2.4,60.0986098012108,
4,exp1.png,exp2.png,,,,,,,,,,,,,,,,,0,0,0,0,0,4,4,4,,,,,,,,,False,4,85,True,exp2.png,exp1.png,trial_left_image,1,exp2.png,1,exp2.png,exp1.png,0,4,reversed,correct,0.2848042453980225,1,valid_win,626.9832121000509,49,,,,,,,,,,,s_012,1,2020_Nov_30_1212,Reversal,3.2.4,60.0986098012108,
5,exp3.png,exp4.png,,,,,,,,,,,,,,,,,0,0,0,0,0,5,5,5,,,,,,,,,False,5,86,True,exp4.png,exp3.png,trial_right_image,-1,exp3.png,1,exp3.png,exp4.png,1,1,non-reversed,correct,0.04177755410830841,0,invalid_lose,631.9805067999987,49,,,,,,,,,,,s_012,1,2020_Nov_30_1212,Reversal,3.2.4,60.0986098012108,
6,exp1.png,exp2.png,,,,,,,,,,,,,,,,,0,0,0,0,0,6,6,6,,,,,,,,,False,6,87,False,exp1.png,exp2.png,trial_right_image,-1,exp2.png,1,exp2.png,exp1.png,0,4,reversed,correct,0.2114505362032264,0,invalid_lose,637.7130805000197,49,,,,,,,,,,,s_012,1,2020_Nov_30_1212,Reversal,3.2.4,60.0986098012108,
7,exp3.png,exp4.png,,,,,,,,,,,,,,,,,0,0,0,0,0,7,7,7,,,,,,,,,False,7,88,False,exp3.png,exp4.png,trial_left_image,1,exp3.png,1,exp3.png,exp4.png,1,1,non-reversed,correct,0.5545432500762587,1,valid_win,644.5261013000272,50,,,,,,,,,,,s_012,1,2020_Nov_30_1212,Reversal,3.2.4,60.0986098012108,
8,exp1.png,exp2.png,,,,,,,,,,,,,,,,,0,0,0,0,0,8,8,8,,,,,,,,,False,8,89,True,exp2.png,exp1.png,trial_left_image,1,exp2.png,1,exp2.png,exp1.png,0,4,reversed,correct,0.4929738209335621,1,valid_win,649.1409899000428,51,,,,,,,,,,,s_012,1,2020_Nov_30_1212,Reversal,3.2.4,60.0986098012108,
9,exp3.png,exp4.png,,,,,,,,,,,,,,,,,0,0,0,0,0,9,9,9,,,,,,,,,False,9,90,True,exp4.png,exp3.png,trial_right_image,-1,exp3.png,1,exp3.png,exp4.png,1,1,non-reversed,correct,0.5719009020627417,1,valid_win,653.9074589000084,52,,,,,,,,,,,s_012,1,2020_Nov_30_1212,Reversal,3.2.4,60.0986098012108,
10,exp1.png,exp2.png,,,,,,,,,,,,,,,,,0,0,0,0,0,10,10,10,,,,,,,,,False,10,91,False,exp1.png,exp2.png,trial_right_image,-1,exp2.png,1,exp2.png,exp1.png,0,4,reversed,correct,0.5603654912616929,1,valid_win,658.8380380000453,53,,,,,,,,,,,s_012,1,2020_Nov_30_1212,Reversal,3.2.4,60.0986098012108,
11,exp3.png,exp4.png,,,,,,,,,,,,,,,,,0,0,0,0,0,11,11,11,,,,,,,,,False,11,92,True,exp4.png,exp3.png,trial_right_image,-1,exp3.png,1,exp3.png,exp4.png,1,1,non-reversed,correct,0.5860861312919853,1,valid_win,663.3698507000227,54,,,,,,,,,,,s_012,1,2020_Nov_30_1212,Reversal,3.2.4,60.0986098012108,
12,exp1.png,exp2.png,,,,,,,,,,,,,,,,,0,0,0,0,0,12,12,12,,,,,,,,,False,12,93,False,exp1.png,exp2.png,trial_right_image,-1,exp2.png,1,exp2.png,exp1.png,0,4,reversed,correct,0.9179650320664188,1,valid_win,667.6194044000003,55,,,,,,,,,,,s_012,1,2020_Nov_30_1212,Reversal,3.2.4,60.0986098012108,
13,exp3.png,exp4.png,,,,,,,,,,,,,,,,,0,0,0,0,0,13,13,13,,,,,,,,,False,13,94,True,exp4.png,exp3.png,trial_right_image,-1,exp3.png,1,exp3.png,exp4.png,1,1,non-reversed,correct,0.7560891402454205,1,valid_win,671.9012167000328,56,,,,,,,,,,,s_012,1,2020_Nov_30_1212,Reversal,3.2.4,60.0986098012108,
14,exp1.png,exp2.png,,,,,,,,,,,,,,,,,0,0,0,0,0,14,14,14,,,,,,,,,False,14,95,False,exp1.png,exp2.png,trial_right_image,-1,exp2.png,1,exp2.png,exp1.png,0,4,reversed,correct,0.8139598538178908,1,valid_win,677.1495452000527,57,,,,,,,,,,,s_012,1,2020_Nov_30_1212,Reversal,3.2.4,60.0986098012108,
15,exp3.png,exp4.png,,,,,,,,,,,,,,,,,0,0,0,0,0,15,15,15,,,,,,,,,False,15,96,False,exp3.png,exp4.png,trial_left_image,1,exp3.png,1,exp3.png,exp4.png,1,1,non-reversed,correct,0.6733617059186113,1,valid_win,682.1646720000426,58,,,,,,,,,,,s_012,1,2020_Nov_30_1212,Reversal,3.2.4,60.0986098012108,
16,exp1.png,exp2.png,,,,,,,,,,,,,,,,,0,0,0,0,0,16,16,16,,,,,,,,,False,16,97,False,exp1.png,exp2.png,trial_right_image,-1,exp2.png,1,exp2.png,exp1.png,0,4,reversed,correct,0.5079526970045465,1,valid_win,686.7127800000017,59,,,,,,,,,,,s_012,1,2020_Nov_30_1212,Reversal,3.2.4,60.0986098012108,
17,exp3.png,exp4.png,,,,,,,,,,,,,,,,,0,0,0,0,0,17,17,17,,,,,,,,,False,17,98,True,exp4.png,exp3.png,trial_right_image,-1,exp3.png,1,exp3.png,exp4.png,1,1,non-reversed,correct,0.729898800955538,1,valid_win,691.3617129000486,60,,,,,,,,,,,s_012,1,2020_Nov_30_1212,Reversal,3.2.4,60.0986098012108,
18,exp1.png,exp2.png,,,,,,,,,,,,,,,,,0,0,0,0,0,18,18,18,,,,,,,,,False,18,99,False,exp1.png,exp2.png,trial_right_image,-1,exp2.png,1,exp2.png,exp1.png,0,4,reversed,correct,0.799501032795997,1,valid_win,695.9935586000211,61,,,,,,,,,,,s_012,1,2020_Nov_30_1212,Reversal,3.2.4,60.0986098012108,
19,exp3.png,exp4.png,,,,,,,,,,,,,,,,,0,0,0,0,0,19,19,19,,,,,,,,,False,19,100,False,exp3.png,exp4.png,trial_left_image,1,exp3.png,1,exp3.png,exp4.png,1,1,non-reversed,correct,0.36043946690877415,1,valid_win,700.4914611999993,62,,,,,,,,,,,s_012,1,2020_Nov_30_1212,Reversal,3.2.4,60.0986098012108,
20,exp1.png,exp2.png,,,,,,,,,,,,,,,,,0,0,0,0,0,20,20,20,,,,,,,,,True,,,,,,,,,,,,,,,,,,,,,,,,,,,,,,,s_012,1,2020_Nov_30_1212,Reversal,3.2.4,60.0986098012108,
,,,,,,,,,,,,,,,,,,,0,0,0,0,,,,,0,0,0,0,,,,,,,,,,,,,,,,,,,,,,,,,,8,92,92,5,,,,,,,s_012,1,2020_Nov_30_1212,Reversal,3.2.4,60.0986098012108,
0,exp1.png,exp2.png,,,,,,,,,,,,,,,,,1,0,1,0,0,0,0,0,,,,,,,,,False,20,101,True,exp2.png,exp1.png,trial_right_image,-1,exp1.png,1,exp2.png,exp1.png,1,3,reversed,incorrect,0.9967608257904872,0,valid_lose,720.6514446000219,62,,,,,,,,,,,s_012,1,2020_Nov_30_1212,Reversal,3.2.4,60.0986098012108,
1,exp3.png,exp4.png,,,,,,,,,,,,,,,,,1,0,1,0,0,1,1,1,,,,,,,,,False,21,102,False,exp3.png,exp4.png,trial_right_image,-1,exp4.png,1,exp3.png,exp4.png,0,2,non-reversed,incorrect,0.17413833528896772,1,invalid_win,726.1993359000189,63,,,,,,,,,,,s_012,1,2020_Nov_30_1212,Reversal,3.2.4,60.0986098012108,
2,exp1.png,exp2.png,,,,,,,,,,,,,,,,,1,0,1,0,0,2,2,2,,,,,,,,,False,22,103,True,exp2.png,exp1.png,trial_left_image,1,exp2.png,1,exp2.png,exp1.png,0,4,reversed,correct,0.85140510814414,1,valid_win,731.7810309000197,64,,,,,,,,,,,s_012,1,2020_Nov_30_1212,Reversal,3.2.4,60.0986098012108,
3,exp3.png,exp4.png,,,,,,,,,,,,,,,,,1,0,1,0,0,3,3,3,,,,,,,,,False,23,104,False,exp3.png,exp4.png,trial_right_image,-1,exp4.png,1,exp3.png,exp4.png,0,2,non-reversed,incorrect,0.6790321947741608,0,valid_lose,736.0780382000376,64,,,,,,,,,,,s_012,1,2020_Nov_30_1212,Reversal,3.2.4,60.0986098012108,
4,exp1.png,exp2.png,,,,,,,,,,,,,,,,,1,0,1,0,0,4,4,4,,,,,,,,,False,24,105,False,exp1.png,exp2.png,trial_right_image,-1,exp2.png,1,exp2.png,exp1.png,0,4,reversed,correct,0.9111340077257774,1,valid_win,741.1933159000473,65,,,,,,,,,,,s_012,1,2020_Nov_30_1212,Reversal,3.2.4,60.0986098012108,
5,exp3.png,exp4.png,,,,,,,,,,,,,,,,,1,0,1,0,0,5,5,5,,,,,,,,,False,25,106,False,exp3.png,exp4.png,trial_right_image,-1,exp4.png,1,exp3.png,exp4.png,0,2,non-reversed,incorrect,0.9319876813533624,0,valid_lose,745.3432323000161,65,,,,,,,,,,,s_012,1,2020_Nov_30_1212,Reversal,3.2.4,60.0986098012108,
6,exp1.png,exp2.png,,,,,,,,,,,,,,,,,1,0,1,0,0,6,6,6,,,,,,,,,False,26,107,False,exp1.png,exp2.png,trial_right_image,-1,exp2.png,1,exp2.png,exp1.png,0,4,reversed,correct,0.9311448506473674,1,valid_win,750.4247272000066,66,,,,,,,,,,,s_012,1,2020_Nov_30_1212,Reversal,3.2.4,60.0986098012108,
7,exp3.png,exp4.png,,,,,,,,,,,,,,,,,1,0,1,0,0,7,7,7,,,,,,,,,False,27,108,True,exp4.png,exp3.png,trial_right_image,-1,exp3.png,1,exp3.png,exp4.png,1,1,non-reversed,correct,0.7147935707368632,1,valid_win,754.8571303000208,67,,,,,,,,,,,s_012,1,2020_Nov_30_1212,Reversal,3.2.4,60.0986098012108,
8,exp1.png,exp2.png,,,,,,,,,,,,,,,,,1,0,1,0,0,8,8,8,,,,,,,,,False,28,109,True,exp2.png,exp1.png,trial_left_image,1,exp2.png,1,exp2.png,exp1.png,0,4,reversed,correct,0.8228977610521078,1,valid_win,760.7877695000498,68,,,,,,,,,,,s_012,1,2020_Nov_30_1212,Reversal,3.2.4,60.0986098012108,
9,exp3.png,exp4.png,,,,,,,,,,,,,,,,,1,0,1,0,0,9,9,9,,,,,,,,,False,29,110,False,exp3.png,exp4.png,trial_left_image,1,exp3.png,1,exp3.png,exp4.png,1,1,non-reversed,correct,0.3105226493129498,1,valid_win,765.1190347000374,69,,,,,,,,,,,s_012,1,2020_Nov_30_1212,Reversal,3.2.4,60.0986098012108,
10,exp1.png,exp2.png,,,,,,,,,,,,,,,,,1,0,1,0,0,10,10,10,,,,,,,,,False,30,111,True,exp2.png,exp1.png,trial_left_image,1,exp2.png,1,exp2.png,exp1.png,0,4,reversed,correct,0.5295806614403816,1,valid_win,770.4668336000177,70,,,,,,,,,,,s_012,1,2020_Nov_30_1212,Reversal,3.2.4,60.0986098012108,
11,exp3.png,exp4.png,,,,,,,,,,,,,,,,,1,0,1,0,0,11,11,11,,,,,,,,,False,31,112,False,exp3.png,exp4.png,trial_left_image,1,exp3.png,1,exp3.png,exp4.png,1,1,non-reversed,correct,0.29465305818600895,1,valid_win,774.7666771000368,71,,,,,,,,,,,s_012,1,2020_Nov_30_1212,Reversal,3.2.4,60.0986098012108,
12,exp1.png,exp2.png,,,,,,,,,,,,,,,,,1,0,1,0,0,12,12,12,,,,,,,,,False,32,113,False,exp1.png,exp2.png,trial_right_image,-1,exp2.png,1,exp2.png,exp1.png,0,4,reversed,correct,0.47367008069311145,1,valid_win,779.696676600026,72,,,,,,,,,,,s_012,1,2020_Nov_30_1212,Reversal,3.2.4,60.0986098012108,
13,exp3.png,exp4.png,,,,,,,,,,,,,,,,,1,0,1,0,0,13,13,13,,,,,,,,,False,33,114,False,exp3.png,exp4.png,trial_left_image,1,exp3.png,1,exp3.png,exp4.png,1,1,non-reversed,correct,0.8672857004340764,1,valid_win,784.1963906000019,73,,,,,,,,,,,s_012,1,2020_Nov_30_1212,Reversal,3.2.4,60.0986098012108,
14,exp1.png,exp2.png,,,,,,,,,,,,,,,,,1,0,1,0,0,14,14,14,,,,,,,,,False,34,115,True,exp2.png,exp1.png,trial_left_image,1,exp2.png,1,exp2.png,exp1.png,0,4,reversed,correct,0.05848495793640729,0,invalid_lose,789.7439225999988,73,,,,,,,,,,,s_012,1,2020_Nov_30_1212,Reversal,3.2.4,60.0986098012108,
15,exp3.png,exp4.png,,,,,,,,,,,,,,,,,1,0,1,0,0,15,15,15,,,,,,,,,False,35,116,True,exp4.png,exp3.png,trial_right_image,-1,exp3.png,1,exp3.png,exp4.png,1,1,non-reversed,correct,0.4303685935604483,1,valid_win,794.5093964000116,74,,,,,,,,,,,s_012,1,2020_Nov_30_1212,Reversal,3.2.4,60.0986098012108,
16,exp1.png,exp2.png,,,,,,,,,,,,,,,,,1,0,1,0,0,16,16,16,,,,,,,,,False,36,117,False,exp1.png,exp2.png,trial_right_image,-1,exp2.png,1,exp2.png,exp1.png,0,4,reversed,correct,0.3634513076248528,1,valid_win,798.8081280000042,75,,,,,,,,,,,s_012,1,2020_Nov_30_1212,Reversal,3.2.4,60.0986098012108,
17,exp3.png,exp4.png,,,,,,,,,,,,,,,,,1,0,1,0,0,17,17,17,,,,,,,,,False,37,118,True,exp4.png,exp3.png,trial_right_image,-1,exp3.png,1,exp3.png,exp4.png,1,1,non-reversed,correct,0.603336071149436,1,valid_win,803.1735363000189,76,,,,,,,,,,,s_012,1,2020_Nov_30_1212,Reversal,3.2.4,60.0986098012108,
18,exp1.png,exp2.png,,,,,,,,,,,,,,,,,1,0,1,0,0,18,18,18,,,,,,,,,False,38,119,True,exp2.png,exp1.png,trial_left_image,1,exp2.png,1,exp2.png,exp1.png,0,4,reversed,correct,0.2650351510715837,1,valid_win,808.1549238000298,77,,,,,,,,,,,s_012,1,2020_Nov_30_1212,Reversal,3.2.4,60.0986098012108,
19,exp3.png,exp4.png,,,,,,,,,,,,,,,,,1,0,1,0,0,19,19,19,,,,,,,,,False,39,120,True,exp4.png,exp3.png,trial_right_image,-1,exp3.png,1,exp3.png,exp4.png,1,1,non-reversed,correct,0.7133529643753169,1,valid_win,812.4038314000354,78,,,,,,,,,,,s_012,1,2020_Nov_30_1212,Reversal,3.2.4,60.0986098012108,
20,exp1.png,exp2.png,,,,,,,,,,,,,,,,,1,0,1,0,0,20,20,20,,,,,,,,,True,,,,,,,,,,,,,,,,,,,,,,,,,,,,,,,s_012,1,2020_Nov_30_1212,Reversal,3.2.4,60.0986098012108,
,,,,,,,,,,,,,,,,,,,1,0,1,0,,,,,0,0,0,0,,,,,,,,,,,,,,,,,,,,,,,,,,10,89,88,9,,,,,,,s_012,1,2020_Nov_30_1212,Reversal,3.2.4,60.0986098012108,
0,exp1.png,exp2.png,,,,,,,,,,,,,,,,,2,0,2,0,0,0,0,0,,,,,,,,,False,40,121,True,exp2.png,exp1.png,trial_right_image,-1,exp1.png,1,exp2.png,exp1.png,1,3,reversed,incorrect,0.694066327960435,0,valid_lose,829.4298624000512,78,,,,,,,,,,,s_012,1,2020_Nov_30_1212,Reversal,3.2.4,60.0986098012108,
1,exp3.png,exp4.png,,,,,,,,,,,,,,,,,2,0,2,0,0,1,1,1,,,,,,,,,False,41,122,False,exp3.png,exp4.png,trial_left_image,1,exp3.png,1,exp3.png,exp4.png,1,1,non-reversed,correct,0.09659061743616071,0,invalid_lose,834.3109292000299,78,,,,,,,,,,,s_012,1,2020_Nov_30_1212,Reversal,3.2.4,60.0986098012108,
2,exp1.png,exp2.png,,,,,,,,,,,,,,,,,2,0,2,0,0,2,2,2,,,,,,,,,False,42,123,False,exp1.png,exp2.png,trial_right_image,-1,exp2.png,1,exp2.png,exp1.png,0,4,reversed,correct,0.4462163469644864,1,valid_win,839.6750962000224,79,,,,,,,,,,,s_012,1,2020_Nov_30_1212,Reversal,3.2.4,60.0986098012108,
3,exp3.png,exp4.png,,,,,,,,,,,,,,,,,2,0,2,0,0,3,3,3,,,,,,,,,False,43,124,True,exp4.png,exp3.png,trial_left_image,1,exp4.png,1,exp3.png,exp4.png,0,2,non-reversed,incorrect,0.7155638449837107,0,valid_lose,844.0081001000362,79,,,,,,,,,,,s_012,1,2020_Nov_30_1212,Reversal,3.2.4,60.0986098012108,
4,exp1.png,exp2.png,,,,,,,,,,,,,,,,,2,0,2,0,0,4,4,4,,,,,,,,,False,44,125,True,exp2.png,exp1.png,trial_left_image,1,exp2.png,1,exp2.png,exp1.png,0,4,reversed,correct,0.19164526643764146,0,invalid_lose,849.3219482999993,79,,,,,,,,,,,s_012,1,2020_Nov_30_1212,Reversal,3.2.4,60.0986098012108,
5,exp3.png,exp4.png,,,,,,,,,,,,,,,,,2,0,2,0,0,5,5,5,,,,,,,,,False,45,126,True,exp4.png,exp3.png,trial_right_image,-1,exp3.png,1,exp3.png,exp4.png,1,1,non-reversed,correct,0.32983188231001437,1,valid_win,853.655872900039,80,,,,,,,,,,,s_012,1,2020_Nov_30_1212,Reversal,3.2.4,60.0986098012108,
6,exp1.png,exp2.png,,,,,,,,,,,,,,,,,2,0,2,0,0,6,6,6,,,,,,,,,False,46,127,False,exp1.png,exp2.png,trial_left_image,1,exp1.png,1,exp2.png,exp1.png,1,3,reversed,incorrect,0.09049749646870553,1,invalid_win,858.0045643000049,81,,,,,,,,,,,s_012,1,2020_Nov_30_1212,Reversal,3.2.4,60.0986098012108,
7,exp3.png,exp4.png,,,,,,,,,,,,,,,,,2,0,2,0,0,7,7,7,,,,,,,,,False,47,128,False,exp3.png,exp4.png,trial_left_image,1,exp3.png,1,exp3.png,exp4.png,1,1,non-reversed,correct,0.1802262175203455,0,invalid_lose,862.2198491000454,81,,,,,,,,,,,s_012,1,2020_Nov_30_1212,Reversal,3.2.4,60.0986098012108,
8,exp1.png,exp2.png,,,,,,,,,,,,,,,,,2,0,2,0,0,8,8,8,,,,,,,,,False,48,129,True,exp2.png,exp1.png,trial_left_image,1,exp2.png,1,exp2.png,exp1.png,0,4,reversed,correct,0.5136561791833812,1,valid_win,866.3518215000513,82,,,,,,,,,,,s_012,1,2020_Nov_30_1212,Reversal,3.2.4,60.0986098012108,
9,exp3.png,exp4.png,,,,,,,,,,,,,,,,,2,0,2,0,0,9,9,9,,,,,,,,,False,49,130,True,exp4.png,exp3.png,trial_right_image,-1,exp3.png,1,exp3.png,exp4.png,1,1,non-reversed,correct,0.8223690380780504,1,valid_win,870.4499408000265,83,,,,,,,,,,,s_012,1,2020_Nov_30_1212,Reversal,3.2.4,60.0986098012108,
10,exp1.png,exp2.png,,,,,,,,,,,,,,,,,2,0,2,0,0,10,10,10,,,,,,,,,False,50,131,False,exp1.png,exp2.png,trial_left_image,1,exp1.png,1,exp2.png,exp1.png,1,3,reversed,incorrect,0.09666497152373488,1,invalid_win,874.6154665000504,84,,,,,,,,,,,s_012,1,2020_Nov_30_1212,Reversal,3.2.4,60.0986098012108,
11,exp3.png,exp4.png,,,,,,,,,,,,,,,,,2,0,2,0,0,11,11,11,,,,,,,,,False,51,132,False,exp3.png,exp4.png,trial_right_image,-1,exp4.png,1,exp3.png,exp4.png,0,2,non-reversed,incorrect,0.6004851066953304,0,valid_lose,878.648256000015,84,,,,,,,,,,,s_012,1,2020_Nov_30_1212,Reversal,3.2.4,60.0986098012108,
12,exp1.png,exp2.png,,,,,,,,,,,,,,,,,2,0,2,0,0,12,12,12,,,,,,,,,False,52,133,True,exp2.png,exp1.png,trial_left_image,1,exp2.png,1,exp2.png,exp1.png,0,4,reversed,correct,0.730267653213931,1,valid_win,882.5133223000448,85,,,,,,,,,,,s_012,1,2020_Nov_30_1212,Reversal,3.2.4,60.0986098012108,
13,exp3.png,exp4.png,,,,,,,,,,,,,,,,,2,0,2,0,0,13,13,13,,,,,,,,,False,53,134,True,exp4.png,exp3.png,trial_left_image,1,exp4.png,1,exp3.png,exp4.png,0,2,non-reversed,incorrect,0.07850343838499185,1,invalid_win,886.7768103000126,86,,,,,,,,,,,s_012,1,2020_Nov_30_1212,Reversal,3.2.4,60.0986098012108,
14,exp1.png,exp2.png,,,,,,,,,,,,,,,,,2,0,2,0,0,14,14,14,,,,,,,,,False,54,135,True,exp2.png,exp1.png,trial_right_image,-1,exp1.png,1,exp2.png,exp1.png,1,3,reversed,incorrect,0.6224294202376761,0,valid_lose,891.4418294000207,86,,,,,,,,,,,s_012,1,2020_Nov_30_1212,Reversal,3.2.4,60.0986098012108,
15,exp3.png,exp4.png,,,,,,,,,,,,,,,,,2,0,2,0,0,15,15,15,,,,,,,,,False,55,136,False,exp3.png,exp4.png,trial_left_image,1,exp3.png,1,exp3.png,exp4.png,1,1,non-reversed,correct,0.8689850007104304,1,valid_win,896.0245834000525,87,,,,,,,,,,,s_012,1,2020_Nov_30_1212,Reversal,3.2.4,60.0986098012108,
16,exp1.png,exp2.png,,,,,,,,,,,,,,,,,2,0,2,0,0,16,16,16,,,,,,,,,False,56,137,False,exp1.png,exp2.png,trial_left_image,1,exp1.png,1,exp2.png,exp1.png,1,3,reversed,incorrect,0.18450278418864796,1,invalid_win,900.1402263000491,88,,,,,,,,,,,s_012,1,2020_Nov_30_1212,Reversal,3.2.4,60.0986098012108,
17,exp3.png,exp4.png,,,,,,,,,,,,,,,,,2,0,2,0,0,17,17,17,,,,,,,,,False,57,138,False,exp3.png,exp4.png,trial_left_image,1,exp3.png,1,exp3.png,exp4.png,1,1,non-reversed,correct,0.3187726712209302,1,valid_win,904.1888146000565,89,,,,,,,,,,,s_012,1,2020_Nov_30_1212,Reversal,3.2.4,60.0986098012108,
18,exp1.png,exp2.png,,,,,,,,,,,,,,,,,2,0,2,0,0,18,18,18,,,,,,,,,False,58,139,False,exp1.png,exp2.png,trial_left_image,1,exp1.png,1,exp2.png,exp1.png,1,3,reversed,incorrect,0.20121524654505274,1,invalid_win,908.2043262000079,90,,,,,,,,,,,s_012,1,2020_Nov_30_1212,Reversal,3.2.4,60.0986098012108,
19,exp3.png,exp4.png,,,,,,,,,,,,,,,,,2,0,2,0,0,19,19,19,,,,,,,,,False,59,140,True,exp4.png,exp3.png,trial_left_image,1,exp4.png,1,exp3.png,exp4.png,0,2,non-reversed,incorrect,0.5578430179033607,0,valid_lose,912.3193556000479,90,,,,,,,,,,,s_012,1,2020_Nov_30_1212,Reversal,3.2.4,60.0986098012108,
20,exp1.png,exp2.png,,,,,,,,,,,,,,,,,2,0,2,0,0,20,20,20,,,,,,,,,True,,,,,,,,,,,,,,,,,,,,,,,,,,,,,,,s_012,1,2020_Nov_30_1212,Reversal,3.2.4,60.0986098012108,
,,,,,,,,,,,,,,,,,,,2,0,2,0,,,,,0,0,0,0,,,,,,,,,,,,,,,,,,,,,,,,,,64,25,73,50.0,,,,,,,s_012,1,2020_Nov_30_1212,Reversal,3.2.4,60.0986098012108,
,,,,,,,,,,,,,,,,,,,,,,,,,,,,,,,,,,,,,,,,,,,,,,,,,,,,,,,90,,,,,,96,52,44,330.70916279999074,1,,,,,,,
