trial_index,trial_image1_file,trial_image2_file,learning_outer_loop.thisRepN,learning_outer_loop.thisTrialN,learning_outer_loop.thisN,learning_outer_loop.thisIndex,learning_inner_loop.thisRepN,learning_inner_loop.thisTrialN,learning_inner_loop.thisN,learning_inner_loop.thisIndex,learning_estimation_outer_loop.thisRepN,learning_estimation_outer_loop.thisTrialN,learning_estimation_outer_loop.thisN,learning_estimation_outer_loop.thisIndex,learning_estimation_inner_loop.thisRepN,learning_estimation_inner_loop.thisTrialN,learning_estimation_inner_loop.thisN,learning_estimation_inner_loop.thisIndex,reversal_outer_loop.thisRepN,reversal_outer_loop.thisTrialN,reversal_outer_loop.thisN,reversal_outer_loop.thisIndex,reversal_inner_loop.thisRepN,reversal_inner_loop.thisTrialN,reversal_inner_loop.thisN,reversal_inner_loop.thisIndex,reversal_estimation_outer_loop.thisRepN,reversal_estimation_outer_loop.thisTrialN,reversal_estimation_outer_loop.thisN,reversal_estimation_outer_loop.thisIndex,reversal_estimation_inner_loop.thisRepN,reversal_estimation_inner_loop.thisTrialN,reversal_estimation_inner_loop.thisN,reversal_estimation_inner_loop.thisIndex,skipped,total_trial_counter,trial_num,left_right_flip,left_image_file,right_image_file,clicked_stimulus_side,side,clicked_stimulus,version,high_prob_image_file,low_prob_image_file,choice_a,choice_b,pair_type,correct,trial_feedback_random,reward,trial_type,overall_time_after_trial,score,estimation_exp1.png,estimation_exp2.png,estimation_exp3.png,estimation_exp4.png,total_learning_time,total_correct,learning_correct,reversal_correct,total_reversal_time,extra_block,participant,ver,date,expName,psychopyVersion,frameRate,
0,exp1.png,exp2.png,0,0,0,0,0,0,0,0,,,,,,,,,,,,,,,,,,,,,,,,,True,,,,,,,,,,,,,,,,,,,,,,,,,,,,,,,s_016,1,2020_Dec_03_1439,Reversal,3.2.4,60.16347619648182,
1,exp3.png,exp4.png,0,0,0,0,0,1,1,1,,,,,,,,,,,,,,,,,,,,,,,,,False,0,1,True,exp4.png,exp3.png,trial_right_image,-1,exp3.png,1,exp3.png,exp4.png,1,1,non-reversed,correct,0.416787705267073,1,valid_win,12.292104400003154,1,,,,,,,,,,,s_016,1,2020_Dec_03_1439,Reversal,3.2.4,60.16347619648182,
2,exp1.png,exp2.png,0,0,0,0,0,2,2,2,,,,,,,,,,,,,,,,,,,,,,,,,False,1,2,True,exp2.png,exp1.png,trial_right_image,-1,exp1.png,1,exp1.png,exp2.png,1,3,reversed,correct,0.1608576072161494,0,invalid_lose,19.038712400000804,1,,,,,,,,,,,s_016,1,2020_Dec_03_1439,Reversal,3.2.4,60.16347619648182,
3,exp3.png,exp4.png,0,0,0,0,0,3,3,3,,,,,,,,,,,,,,,,,,,,,,,,,False,2,3,False,exp3.png,exp4.png,trial_right_image,-1,exp4.png,1,exp3.png,exp4.png,0,2,non-reversed,incorrect,0.05413399820152753,1,invalid_win,28.019999300002382,2,,,,,,,,,,,s_016,1,2020_Dec_03_1439,Reversal,3.2.4,60.16347619648182,
4,exp1.png,exp2.png,0,0,0,0,0,4,4,4,,,,,,,,,,,,,,,,,,,,,,,,,False,3,4,True,exp2.png,exp1.png,trial_left_image,1,exp2.png,1,exp1.png,exp2.png,0,4,reversed,incorrect,0.22917227028471587,1,invalid_win,35.90057660000093,3,,,,,,,,,,,s_016,1,2020_Dec_03_1439,Reversal,3.2.4,60.16347619648182,
5,exp3.png,exp4.png,0,0,0,0,0,5,5,5,,,,,,,,,,,,,,,,,,,,,,,,,False,4,5,False,exp3.png,exp4.png,trial_right_image,-1,exp4.png,1,exp3.png,exp4.png,0,2,non-reversed,incorrect,0.6085311325202973,0,valid_lose,46.67993270000079,3,,,,,,,,,,,s_016,1,2020_Dec_03_1439,Reversal,3.2.4,60.16347619648182,
6,exp1.png,exp2.png,0,0,0,0,0,6,6,6,,,,,,,,,,,,,,,,,,,,,,,,,False,5,6,False,exp1.png,exp2.png,trial_right_image,-1,exp2.png,1,exp1.png,exp2.png,0,4,reversed,incorrect,0.6215921789470179,0,valid_lose,52.42816480000329,3,,,,,,,,,,,s_016,1,2020_Dec_03_1439,Reversal,3.2.4,60.16347619648182,
7,exp3.png,exp4.png,0,0,0,0,0,7,7,7,,,,,,,,,,,,,,,,,,,,,,,,,False,6,7,True,exp4.png,exp3.png,trial_left_image,1,exp4.png,1,exp3.png,exp4.png,0,2,non-reversed,incorrect,0.841952737893888,0,valid_lose,60.29220870000063,3,,,,,,,,,,,s_016,1,2020_Dec_03_1439,Reversal,3.2.4,60.16347619648182,
8,exp1.png,exp2.png,0,0,0,0,0,8,8,8,,,,,,,,,,,,,,,,,,,,,,,,,False,7,8,True,exp2.png,exp1.png,trial_right_image,-1,exp1.png,1,exp1.png,exp2.png,1,3,reversed,correct,0.6464664292867819,1,valid_win,68.8900175000017,4,,,,,,,,,,,s_016,1,2020_Dec_03_1439,Reversal,3.2.4,60.16347619648182,
9,exp3.png,exp4.png,0,0,0,0,0,9,9,9,,,,,,,,,,,,,,,,,,,,,,,,,False,8,9,True,exp4.png,exp3.png,trial_left_image,1,exp4.png,1,exp3.png,exp4.png,0,2,non-reversed,incorrect,0.623862726154423,0,valid_lose,78.30279660000087,4,,,,,,,,,,,s_016,1,2020_Dec_03_1439,Reversal,3.2.4,60.16347619648182,
10,exp1.png,exp2.png,0,0,0,0,0,10,10,10,,,,,,,,,,,,,,,,,,,,,,,,,False,9,10,False,exp1.png,exp2.png,trial_left_image,1,exp1.png,1,exp1.png,exp2.png,1,3,reversed,correct,0.23183754482846852,0,invalid_lose,85.83365340000091,4,,,,,,,,,,,s_016,1,2020_Dec_03_1439,Reversal,3.2.4,60.16347619648182,
11,exp3.png,exp4.png,0,0,0,0,0,11,11,11,,,,,,,,,,,,,,,,,,,,,,,,,False,10,11,True,exp4.png,exp3.png,trial_left_image,1,exp4.png,1,exp3.png,exp4.png,0,2,non-reversed,incorrect,0.808861055780583,0,valid_lose,93.89782770000238,4,,,,,,,,,,,s_016,1,2020_Dec_03_1439,Reversal,3.2.4,60.16347619648182,
12,exp1.png,exp2.png,0,0,0,0,0,12,12,12,,,,,,,,,,,,,,,,,,,,,,,,,False,11,12,True,exp2.png,exp1.png,trial_left_image,1,exp2.png,1,exp1.png,exp2.png,0,4,reversed,incorrect,0.23051318434639212,1,invalid_win,101.8450862000027,5,,,,,,,,,,,s_016,1,2020_Dec_03_1439,Reversal,3.2.4,60.16347619648182,
13,exp3.png,exp4.png,0,0,0,0,0,13,13,13,,,,,,,,,,,,,,,,,,,,,,,,,False,12,13,True,exp4.png,exp3.png,trial_right_image,-1,exp3.png,1,exp3.png,exp4.png,1,1,non-reversed,correct,0.4648224829431118,1,valid_win,108.9255946000012,6,,,,,,,,,,,s_016,1,2020_Dec_03_1439,Reversal,3.2.4,60.16347619648182,
14,exp1.png,exp2.png,0,0,0,0,0,14,14,14,,,,,,,,,,,,,,,,,,,,,,,,,False,13,14,False,exp1.png,exp2.png,trial_left_image,1,exp1.png,1,exp1.png,exp2.png,1,3,reversed,correct,0.7836034982725534,1,valid_win,114.60783150000134,7,,,,,,,,,,,s_016,1,2020_Dec_03_1439,Reversal,3.2.4,60.16347619648182,
15,exp3.png,exp4.png,0,0,0,0,0,15,15,15,,,,,,,,,,,,,,,,,,,,,,,,,False,14,15,False,exp3.png,exp4.png,trial_left_image,1,exp3.png,1,exp3.png,exp4.png,1,1,non-reversed,correct,0.9122513962312013,1,valid_win,120.47201680000217,8,,,,,,,,,,,s_016,1,2020_Dec_03_1439,Reversal,3.2.4,60.16347619648182,
16,exp1.png,exp2.png,0,0,0,0,0,16,16,16,,,,,,,,,,,,,,,,,,,,,,,,,False,15,16,False,exp1.png,exp2.png,trial_left_image,1,exp1.png,1,exp1.png,exp2.png,1,3,reversed,correct,0.6267346717165949,1,valid_win,126.86962520000088,9,,,,,,,,,,,s_016,1,2020_Dec_03_1439,Reversal,3.2.4,60.16347619648182,
17,exp3.png,exp4.png,0,0,0,0,0,17,17,17,,,,,,,,,,,,,,,,,,,,,,,,,False,16,17,True,exp4.png,exp3.png,trial_right_image,-1,exp3.png,1,exp3.png,exp4.png,1,1,non-reversed,correct,0.3850788057417456,1,valid_win,134.58374300000287,10,,,,,,,,,,,s_016,1,2020_Dec_03_1439,Reversal,3.2.4,60.16347619648182,
18,exp1.png,exp2.png,0,0,0,0,0,18,18,18,,,,,,,,,,,,,,,,,,,,,,,,,False,17,18,False,exp1.png,exp2.png,trial_left_image,1,exp1.png,1,exp1.png,exp2.png,1,3,reversed,correct,0.720234264513475,1,valid_win,140.49852290000126,11,,,,,,,,,,,s_016,1,2020_Dec_03_1439,Reversal,3.2.4,60.16347619648182,
19,exp3.png,exp4.png,0,0,0,0,0,19,19,19,,,,,,,,,,,,,,,,,,,,,,,,,False,18,19,False,exp3.png,exp4.png,trial_left_image,1,exp3.png,1,exp3.png,exp4.png,1,1,non-reversed,correct,0.28828451260138965,1,valid_win,148.34591230000296,12,,,,,,,,,,,s_016,1,2020_Dec_03_1439,Reversal,3.2.4,60.16347619648182,
20,exp1.png,exp2.png,0,0,0,0,0,20,20,20,,,,,,,,,,,,,,,,,,,,,,,,,False,19,20,False,exp1.png,exp2.png,trial_left_image,1,exp1.png,1,exp1.png,exp2.png,1,3,reversed,correct,0.8796269384514384,1,valid_win,154.07662970000092,13,,,,,,,,,,,s_016,1,2020_Dec_03_1439,Reversal,3.2.4,60.16347619648182,
,,,0,0,0,0,,,,,0,0,0,0,,,,,,,,,,,,,,,,,,,,,,,,,,,,,,,,,,,,,,,,,,0,100,0,3,,,,,,,s_016,1,2020_Dec_03_1439,Reversal,3.2.4,60.16347619648182,
0,exp1.png,exp2.png,1,0,1,0,0,0,0,0,,,,,,,,,,,,,,,,,,,,,,,,,True,,,,,,,,,,,,,,,,,,,,,,,,,,,,,,,s_016,1,2020_Dec_03_1439,Reversal,3.2.4,60.16347619648182,
1,exp3.png,exp4.png,1,0,1,0,0,1,1,1,,,,,,,,,,,,,,,,,,,,,,,,,False,20,21,False,exp3.png,exp4.png,trial_right_image,-1,exp4.png,1,exp3.png,exp4.png,0,2,non-reversed,incorrect,0.5198413508545633,0,valid_lose,190.24806760000138,13,,,,,,,,,,,s_016,1,2020_Dec_03_1439,Reversal,3.2.4,60.16347619648182,
2,exp1.png,exp2.png,1,0,1,0,0,2,2,2,,,,,,,,,,,,,,,,,,,,,,,,,False,21,22,True,exp2.png,exp1.png,trial_left_image,1,exp2.png,1,exp1.png,exp2.png,0,4,reversed,incorrect,0.038172625217670064,1,invalid_win,195.13047070000175,14,,,,,,,,,,,s_016,1,2020_Dec_03_1439,Reversal,3.2.4,60.16347619648182,
3,exp3.png,exp4.png,1,0,1,0,0,3,3,3,,,,,,,,,,,,,,,,,,,,,,,,,False,22,23,False,exp3.png,exp4.png,trial_right_image,-1,exp4.png,1,exp3.png,exp4.png,0,2,non-reversed,incorrect,0.5567800826534869,0,valid_lose,199.92824030000338,14,,,,,,,,,,,s_016,1,2020_Dec_03_1439,Reversal,3.2.4,60.16347619648182,
4,exp1.png,exp2.png,1,0,1,0,0,4,4,4,,,,,,,,,,,,,,,,,,,,,,,,,False,23,24,True,exp2.png,exp1.png,trial_right_image,-1,exp1.png,1,exp1.png,exp2.png,1,3,reversed,correct,0.7651304804541694,1,valid_win,204.94276340000215,15,,,,,,,,,,,s_016,1,2020_Dec_03_1439,Reversal,3.2.4,60.16347619648182,
5,exp3.png,exp4.png,1,0,1,0,0,5,5,5,,,,,,,,,,,,,,,,,,,,,,,,,False,24,25,False,exp3.png,exp4.png,trial_right_image,-1,exp4.png,1,exp3.png,exp4.png,0,2,non-reversed,incorrect,0.544426552087612,0,valid_lose,210.04215470000054,15,,,,,,,,,,,s_016,1,2020_Dec_03_1439,Reversal,3.2.4,60.16347619648182,
6,exp1.png,exp2.png,1,0,1,0,0,6,6,6,,,,,,,,,,,,,,,,,,,,,,,,,False,25,26,True,exp2.png,exp1.png,trial_left_image,1,exp2.png,1,exp1.png,exp2.png,0,4,reversed,incorrect,0.29374389604392137,0,valid_lose,215.05589220000184,15,,,,,,,,,,,s_016,1,2020_Dec_03_1439,Reversal,3.2.4,60.16347619648182,
7,exp3.png,exp4.png,1,0,1,0,0,7,7,7,,,,,,,,,,,,,,,,,,,,,,,,,False,26,27,False,exp3.png,exp4.png,trial_left_image,1,exp3.png,1,exp3.png,exp4.png,1,1,non-reversed,correct,0.49851857908915465,1,valid_win,219.87110720000055,16,,,,,,,,,,,s_016,1,2020_Dec_03_1439,Reversal,3.2.4,60.16347619648182,
8,exp1.png,exp2.png,1,0,1,0,0,8,8,8,,,,,,,,,,,,,,,,,,,,,,,,,False,27,28,True,exp2.png,exp1.png,trial_right_image,-1,exp1.png,1,exp1.png,exp2.png,1,3,reversed,correct,0.1217417427541424,0,invalid_lose,225.03676690000066,16,,,,,,,,,,,s_016,1,2020_Dec_03_1439,Reversal,3.2.4,60.16347619648182,
9,exp3.png,exp4.png,1,0,1,0,0,9,9,9,,,,,,,,,,,,,,,,,,,,,,,,,False,28,29,False,exp3.png,exp4.png,trial_left_image,1,exp3.png,1,exp3.png,exp4.png,1,1,non-reversed,correct,0.444373677057355,1,valid_win,229.1843312000019,17,,,,,,,,,,,s_016,1,2020_Dec_03_1439,Reversal,3.2.4,60.16347619648182,
10,exp1.png,exp2.png,1,0,1,0,0,10,10,10,,,,,,,,,,,,,,,,,,,,,,,,,False,29,30,False,exp1.png,exp2.png,trial_right_image,-1,exp2.png,1,exp1.png,exp2.png,0,4,reversed,incorrect,0.32460592401927757,0,valid_lose,233.79984940000213,17,,,,,,,,,,,s_016,1,2020_Dec_03_1439,Reversal,3.2.4,60.16347619648182,
11,exp3.png,exp4.png,1,0,1,0,0,11,11,11,,,,,,,,,,,,,,,,,,,,,,,,,False,30,31,False,exp3.png,exp4.png,trial_left_image,1,exp3.png,1,exp3.png,exp4.png,1,1,non-reversed,correct,0.6230455424707099,1,valid_win,238.04850210000222,18,,,,,,,,,,,s_016,1,2020_Dec_03_1439,Reversal,3.2.4,60.16347619648182,
12,exp1.png,exp2.png,1,0,1,0,0,12,12,12,,,,,,,,,,,,,,,,,,,,,,,,,False,31,32,True,exp2.png,exp1.png,trial_right_image,-1,exp1.png,1,exp1.png,exp2.png,1,3,reversed,correct,0.7786397447612841,1,valid_win,242.8295005,19,,,,,,,,,,,s_016,1,2020_Dec_03_1439,Reversal,3.2.4,60.16347619648182,
13,exp3.png,exp4.png,1,0,1,0,0,13,13,13,,,,,,,,,,,,,,,,,,,,,,,,,False,32,33,True,exp4.png,exp3.png,trial_left_image,1,exp4.png,1,exp3.png,exp4.png,0,2,non-reversed,incorrect,0.6895919225566773,0,valid_lose,248.07947930000228,19,,,,,,,,,,,s_016,1,2020_Dec_03_1439,Reversal,3.2.4,60.16347619648182,
14,exp1.png,exp2.png,1,0,1,0,0,14,14,14,,,,,,,,,,,,,,,,,,,,,,,,,False,33,34,True,exp2.png,exp1.png,trial_left_image,1,exp2.png,1,exp1.png,exp2.png,0,4,reversed,incorrect,0.8289939296807961,0,valid_lose,252.02670410000064,19,,,,,,,,,,,s_016,1,2020_Dec_03_1439,Reversal,3.2.4,60.16347619648182,
15,exp3.png,exp4.png,1,0,1,0,0,15,15,15,,,,,,,,,,,,,,,,,,,,,,,,,False,34,35,False,exp3.png,exp4.png,trial_left_image,1,exp3.png,1,exp3.png,exp4.png,1,1,non-reversed,correct,0.7623217511223085,1,valid_win,257.126140700002,20,,,,,,,,,,,s_016,1,2020_Dec_03_1439,Reversal,3.2.4,60.16347619648182,
16,exp1.png,exp2.png,1,0,1,0,0,16,16,16,,,,,,,,,,,,,,,,,,,,,,,,,False,35,36,False,exp1.png,exp2.png,trial_right_image,-1,exp2.png,1,exp1.png,exp2.png,0,4,reversed,incorrect,0.6061637307859655,0,valid_lose,263.05653090000123,20,,,,,,,,,,,s_016,1,2020_Dec_03_1439,Reversal,3.2.4,60.16347619648182,
17,exp3.png,exp4.png,1,0,1,0,0,17,17,17,,,,,,,,,,,,,,,,,,,,,,,,,False,36,37,False,exp3.png,exp4.png,trial_right_image,-1,exp4.png,1,exp3.png,exp4.png,0,2,non-reversed,incorrect,0.8477555117283497,0,valid_lose,268.8204813000011,20,,,,,,,,,,,s_016,1,2020_Dec_03_1439,Reversal,3.2.4,60.16347619648182,
18,exp1.png,exp2.png,1,0,1,0,0,18,18,18,,,,,,,,,,,,,,,,,,,,,,,,,False,37,38,True,exp2.png,exp1.png,trial_left_image,1,exp2.png,1,exp1.png,exp2.png,0,4,reversed,incorrect,0.534931766482667,0,valid_lose,274.48660870000094,20,,,,,,,,,,,s_016,1,2020_Dec_03_1439,Reversal,3.2.4,60.16347619648182,
19,exp3.png,exp4.png,1,0,1,0,0,19,19,19,,,,,,,,,,,,,,,,,,,,,,,,,False,38,39,True,exp4.png,exp3.png,trial_left_image,1,exp4.png,1,exp3.png,exp4.png,0,2,non-reversed,incorrect,0.30816945027441645,0,valid_lose,279.417346000002,20,,,,,,,,,,,s_016,1,2020_Dec_03_1439,Reversal,3.2.4,60.16347619648182,
20,exp1.png,exp2.png,1,0,1,0,0,20,20,20,,,,,,,,,,,,,,,,,,,,,,,,,False,39,40,True,exp2.png,exp1.png,trial_left_image,1,exp2.png,1,exp1.png,exp2.png,0,4,reversed,incorrect,0.5820607227761798,0,valid_lose,284.964985300001,20,,,,,,,,,,,s_016,1,2020_Dec_03_1439,Reversal,3.2.4,60.16347619648182,
,,,1,0,1,0,,,,,0,0,0,0,,,,,,,,,,,,,,,,,,,,,,,,,,,,,,,,,,,,,,,,,,97,7,100,18,,,,,,,s_016,1,2020_Dec_03_1439,Reversal,3.2.4,60.16347619648182,
0,exp1.png,exp2.png,2,0,2,0,0,0,0,0,,,,,,,,,,,,,,,,,,,,,,,,,True,,,,,,,,,,,,,,,,,,,,,,,,,,,,,,,s_016,1,2020_Dec_03_1439,Reversal,3.2.4,60.16347619648182,
1,exp3.png,exp4.png,2,0,2,0,0,1,1,1,,,,,,,,,,,,,,,,,,,,,,,,,False,40,41,False,exp3.png,exp4.png,trial_right_image,-1,exp4.png,1,exp3.png,exp4.png,0,2,non-reversed,incorrect,0.27976153654998415,0,valid_lose,311.5574396000011,20,,,,,,,,,,,s_016,1,2020_Dec_03_1439,Reversal,3.2.4,60.16347619648182,
2,exp1.png,exp2.png,2,0,2,0,0,2,2,2,,,,,,,,,,,,,,,,,,,,,,,,,False,41,42,False,exp1.png,exp2.png,trial_left_image,1,exp1.png,1,exp1.png,exp2.png,1,3,reversed,correct,0.22165085810716112,0,invalid_lose,316.971748400003,20,,,,,,,,,,,s_016,1,2020_Dec_03_1439,Reversal,3.2.4,60.16347619648182,
3,exp3.png,exp4.png,2,0,2,0,0,3,3,3,,,,,,,,,,,,,,,,,,,,,,,,,False,42,43,False,exp3.png,exp4.png,trial_right_image,-1,exp4.png,1,exp3.png,exp4.png,0,2,non-reversed,incorrect,0.28672495563983935,0,valid_lose,321.7369221000008,20,,,,,,,,,,,s_016,1,2020_Dec_03_1439,Reversal,3.2.4,60.16347619648182,
4,exp1.png,exp2.png,2,0,2,0,0,4,4,4,,,,,,,,,,,,,,,,,,,,,,,,,False,43,44,True,exp2.png,exp1.png,trial_left_image,1,exp2.png,1,exp1.png,exp2.png,0,4,reversed,incorrect,0.7237554497848496,0,valid_lose,325.76891590000014,20,,,,,,,,,,,s_016,1,2020_Dec_03_1439,Reversal,3.2.4,60.16347619648182,
5,exp3.png,exp4.png,2,0,2,0,0,5,5,5,,,,,,,,,,,,,,,,,,,,,,,,,False,44,45,True,exp4.png,exp3.png,trial_left_image,1,exp4.png,1,exp3.png,exp4.png,0,2,non-reversed,incorrect,0.7232362204794138,0,valid_lose,331.00058290000015,20,,,,,,,,,,,s_016,1,2020_Dec_03_1439,Reversal,3.2.4,60.16347619648182,
6,exp1.png,exp2.png,2,0,2,0,0,6,6,6,,,,,,,,,,,,,,,,,,,,,,,,,False,45,46,True,exp2.png,exp1.png,trial_right_image,-1,exp1.png,1,exp1.png,exp2.png,1,3,reversed,correct,0.3672708470932462,1,valid_win,335.4321520000012,21,,,,,,,,,,,s_016,1,2020_Dec_03_1439,Reversal,3.2.4,60.16347619648182,
7,exp3.png,exp4.png,2,0,2,0,0,7,7,7,,,,,,,,,,,,,,,,,,,,,,,,,False,46,47,False,exp3.png,exp4.png,trial_left_image,1,exp3.png,1,exp3.png,exp4.png,1,1,non-reversed,correct,0.4436437477643873,1,valid_win,340.01498530000026,22,,,,,,,,,,,s_016,1,2020_Dec_03_1439,Reversal,3.2.4,60.16347619648182,
8,exp1.png,exp2.png,2,0,2,0,0,8,8,8,,,,,,,,,,,,,,,,,,,,,,,,,False,47,48,False,exp1.png,exp2.png,trial_right_image,-1,exp2.png,1,exp1.png,exp2.png,0,4,reversed,incorrect,0.7725461981947136,0,valid_lose,344.5626181000007,22,,,,,,,,,,,s_016,1,2020_Dec_03_1439,Reversal,3.2.4,60.16347619648182,
9,exp3.png,exp4.png,2,0,2,0,0,9,9,9,,,,,,,,,,,,,,,,,,,,,,,,,False,48,49,False,exp3.png,exp4.png,trial_left_image,1,exp3.png,1,exp3.png,exp4.png,1,1,non-reversed,correct,0.6522866422902962,1,valid_win,348.4937912000023,23,,,,,,,,,,,s_016,1,2020_Dec_03_1439,Reversal,3.2.4,60.16347619648182,
10,exp1.png,exp2.png,2,0,2,0,0,10,10,10,,,,,,,,,,,,,,,,,,,,,,,,,False,49,50,False,exp1.png,exp2.png,trial_right_image,-1,exp2.png,1,exp1.png,exp2.png,0,4,reversed,incorrect,0.9582953461326036,0,valid_lose,352.5091353000025,23,,,,,,,,,,,s_016,1,2020_Dec_03_1439,Reversal,3.2.4,60.16347619648182,
11,exp3.png,exp4.png,2,0,2,0,0,11,11,11,,,,,,,,,,,,,,,,,,,,,,,,,False,50,51,True,exp4.png,exp3.png,trial_left_image,1,exp4.png,1,exp3.png,exp4.png,0,2,non-reversed,incorrect,0.38802352644105176,0,valid_lose,356.42576270000063,23,,,,,,,,,,,s_016,1,2020_Dec_03_1439,Reversal,3.2.4,60.16347619648182,
12,exp1.png,exp2.png,2,0,2,0,0,12,12,12,,,,,,,,,,,,,,,,,,,,,,,,,False,51,52,True,exp2.png,exp1.png,trial_right_image,-1,exp1.png,1,exp1.png,exp2.png,1,3,reversed,correct,0.42559571920316774,1,valid_win,361.2246742000025,24,,,,,,,,,,,s_016,1,2020_Dec_03_1439,Reversal,3.2.4,60.16347619648182,
13,exp3.png,exp4.png,2,0,2,0,0,13,13,13,,,,,,,,,,,,,,,,,,,,,,,,,False,52,53,False,exp3.png,exp4.png,trial_right_image,-1,exp4.png,1,exp3.png,exp4.png,0,2,non-reversed,incorrect,0.9198369840586633,0,valid_lose,366.63904110000294,24,,,,,,,,,,,s_016,1,2020_Dec_03_1439,Reversal,3.2.4,60.16347619648182,
14,exp1.png,exp2.png,2,0,2,0,0,14,14,14,,,,,,,,,,,,,,,,,,,,,,,,,False,53,54,True,exp2.png,exp1.png,trial_right_image,-1,exp1.png,1,exp1.png,exp2.png,1,3,reversed,correct,0.13169153691600433,0,invalid_lose,371.27003400000103,24,,,,,,,,,,,s_016,1,2020_Dec_03_1439,Reversal,3.2.4,60.16347619648182,
15,exp3.png,exp4.png,2,0,2,0,0,15,15,15,,,,,,,,,,,,,,,,,,,,,,,,,False,54,55,True,exp4.png,exp3.png,trial_left_image,1,exp4.png,1,exp3.png,exp4.png,0,2,non-reversed,incorrect,0.8410156620046154,0,valid_lose,375.3195706000006,24,,,,,,,,,,,s_016,1,2020_Dec_03_1439,Reversal,3.2.4,60.16347619648182,
16,exp1.png,exp2.png,2,0,2,0,0,16,16,16,,,,,,,,,,,,,,,,,,,,,,,,,False,55,56,True,exp2.png,exp1.png,trial_right_image,-1,exp1.png,1,exp1.png,exp2.png,1,3,reversed,correct,0.31457948803041635,1,valid_win,380.2171119000013,25,,,,,,,,,,,s_016,1,2020_Dec_03_1439,Reversal,3.2.4,60.16347619648182,
17,exp3.png,exp4.png,2,0,2,0,0,17,17,17,,,,,,,,,,,,,,,,,,,,,,,,,False,56,57,False,exp3.png,exp4.png,trial_right_image,-1,exp4.png,1,exp3.png,exp4.png,0,2,non-reversed,incorrect,0.0031916840628061216,1,invalid_win,384.43337020000035,26,,,,,,,,,,,s_016,1,2020_Dec_03_1439,Reversal,3.2.4,60.16347619648182,
18,exp1.png,exp2.png,2,0,2,0,0,18,18,18,,,,,,,,,,,,,,,,,,,,,,,,,False,57,58,False,exp1.png,exp2.png,trial_right_image,-1,exp2.png,1,exp1.png,exp2.png,0,4,reversed,incorrect,0.9416225211705498,0,valid_lose,390.6802064000003,26,,,,,,,,,,,s_016,1,2020_Dec_03_1439,Reversal,3.2.4,60.16347619648182,
19,exp3.png,exp4.png,2,0,2,0,0,19,19,19,,,,,,,,,,,,,,,,,,,,,,,,,False,58,59,True,exp4.png,exp3.png,trial_right_image,-1,exp3.png,1,exp3.png,exp4.png,1,1,non-reversed,correct,0.7744586595835968,1,valid_win,395.39612150000175,27,,,,,,,,,,,s_016,1,2020_Dec_03_1439,Reversal,3.2.4,60.16347619648182,
20,exp1.png,exp2.png,2,0,2,0,0,20,20,20,,,,,,,,,,,,,,,,,,,,,,,,,False,59,60,True,exp2.png,exp1.png,trial_right_image,-1,exp1.png,1,exp1.png,exp2.png,1,3,reversed,correct,0.6194059765236241,1,valid_win,400.5104699000003,28,,,,,,,,,,,s_016,1,2020_Dec_03_1439,Reversal,3.2.4,60.16347619648182,
,,,2,0,2,0,,,,,0,0,0,0,,,,,,,,,,,,,,,,,,,,,,,,,,,,,,,,,,,,,,,,,,13,100,23,94,,,,,,,s_016,1,2020_Dec_03_1439,Reversal,3.2.4,60.16347619648182,
0,exp1.png,exp2.png,3,0,3,0,0,0,0,0,,,,,,,,,,,,,,,,,,,,,,,,,True,,,,,,,,,,,,,,,,,,,,,,,,,,,,,,,s_016,1,2020_Dec_03_1439,Reversal,3.2.4,60.16347619648182,
1,exp3.png,exp4.png,3,0,3,0,0,1,1,1,,,,,,,,,,,,,,,,,,,,,,,,,False,60,61,False,exp3.png,exp4.png,trial_right_image,-1,exp4.png,1,exp3.png,exp4.png,0,2,non-reversed,incorrect,0.27692985887362487,0,valid_lose,418.1379726000014,28,,,,,,,,,,,s_016,1,2020_Dec_03_1439,Reversal,3.2.4,60.16347619648182,
2,exp1.png,exp2.png,3,0,3,0,0,2,2,2,,,,,,,,,,,,,,,,,,,,,,,,,False,61,62,True,exp2.png,exp1.png,trial_right_image,-1,exp1.png,1,exp1.png,exp2.png,1,3,reversed,correct,0.40374402284229105,1,valid_win,422.76895250000234,29,,,,,,,,,,,s_016,1,2020_Dec_03_1439,Reversal,3.2.4,60.16347619648182,
3,exp3.png,exp4.png,3,0,3,0,0,3,3,3,,,,,,,,,,,,,,,,,,,,,,,,,False,62,63,False,exp3.png,exp4.png,trial_right_image,-1,exp4.png,1,exp3.png,exp4.png,0,2,non-reversed,incorrect,0.47995041098773494,0,valid_lose,426.9182475000016,29,,,,,,,,,,,s_016,1,2020_Dec_03_1439,Reversal,3.2.4,60.16347619648182,
4,exp1.png,exp2.png,3,0,3,0,0,4,4,4,,,,,,,,,,,,,,,,,,,,,,,,,False,63,64,False,exp1.png,exp2.png,trial_left_image,1,exp1.png,1,exp1.png,exp2.png,1,3,reversed,correct,0.5348144525317103,1,valid_win,431.2170616000003,30,,,,,,,,,,,s_016,1,2020_Dec_03_1439,Reversal,3.2.4,60.16347619648182,
5,exp3.png,exp4.png,3,0,3,0,0,5,5,5,,,,,,,,,,,,,,,,,,,,,,,,,False,64,65,True,exp4.png,exp3.png,trial_right_image,-1,exp3.png,1,exp3.png,exp4.png,1,1,non-reversed,correct,0.6941233524248256,1,valid_win,436.93270570000095,31,,,,,,,,,,,s_016,1,2020_Dec_03_1439,Reversal,3.2.4,60.16347619648182,
6,exp1.png,exp2.png,3,0,3,0,0,6,6,6,,,,,,,,,,,,,,,,,,,,,,,,,False,65,66,False,exp1.png,exp2.png,trial_left_image,1,exp1.png,1,exp1.png,exp2.png,1,3,reversed,correct,0.8914135593071291,1,valid_win,442.6621519,32,,,,,,,,,,,s_016,1,2020_Dec_03_1439,Reversal,3.2.4,60.16347619648182,
7,exp3.png,exp4.png,3,0,3,0,0,7,7,7,,,,,,,,,,,,,,,,,,,,,,,,,False,66,67,True,exp4.png,exp3.png,trial_right_image,-1,exp3.png,1,exp3.png,exp4.png,1,1,non-reversed,correct,0.24671031371385288,0,invalid_lose,447.4608788000005,32,,,,,,,,,,,s_016,1,2020_Dec_03_1439,Reversal,3.2.4,60.16347619648182,
8,exp1.png,exp2.png,3,0,3,0,0,8,8,8,,,,,,,,,,,,,,,,,,,,,,,,,False,67,68,False,exp1.png,exp2.png,trial_left_image,1,exp1.png,1,exp1.png,exp2.png,1,3,reversed,correct,0.38488363607810683,1,valid_win,452.2263880999999,33,,,,,,,,,,,s_016,1,2020_Dec_03_1439,Reversal,3.2.4,60.16347619648182,
9,exp3.png,exp4.png,3,0,3,0,0,9,9,9,,,,,,,,,,,,,,,,,,,,,,,,,False,68,69,False,exp3.png,exp4.png,trial_right_image,-1,exp4.png,1,exp3.png,exp4.png,0,2,non-reversed,incorrect,0.08313446174886385,1,invalid_win,456.72425870000006,34,,,,,,,,,,,s_016,1,2020_Dec_03_1439,Reversal,3.2.4,60.16347619648182,
10,exp1.png,exp2.png,3,0,3,0,0,10,10,10,,,,,,,,,,,,,,,,,,,,,,,,,False,69,70,False,exp1.png,exp2.png,trial_right_image,-1,exp2.png,1,exp1.png,exp2.png,0,4,reversed,incorrect,0.7624200012654254,0,valid_lose,461.3068372000016,34,,,,,,,,,,,s_016,1,2020_Dec_03_1439,Reversal,3.2.4,60.16347619648182,
11,exp3.png,exp4.png,3,0,3,0,0,11,11,11,,,,,,,,,,,,,,,,,,,,,,,,,False,70,71,True,exp4.png,exp3.png,trial_right_image,-1,exp3.png,1,exp3.png,exp4.png,1,1,non-reversed,correct,0.9322216410506234,1,valid_win,466.6382209000003,35,,,,,,,,,,,s_016,1,2020_Dec_03_1439,Reversal,3.2.4,60.16347619648182,
12,exp1.png,exp2.png,3,0,3,0,0,12,12,12,,,,,,,,,,,,,,,,,,,,,,,,,False,71,72,True,exp2.png,exp1.png,trial_right_image,-1,exp1.png,1,exp1.png,exp2.png,1,3,reversed,correct,0.7541473233184623,1,valid_win,470.8019387000022,36,,,,,,,,,,,s_016,1,2020_Dec_03_1439,Reversal,3.2.4,60.16347619648182,
13,exp3.png,exp4.png,3,0,3,0,0,13,13,13,,,,,,,,,,,,,,,,,,,,,,,,,False,72,73,False,exp3.png,exp4.png,trial_right_image,-1,exp4.png,1,exp3.png,exp4.png,0,2,non-reversed,incorrect,0.22327140999609896,1,invalid_win,476.2671315000007,37,,,,,,,,,,,s_016,1,2020_Dec_03_1439,Reversal,3.2.4,60.16347619648182,
14,exp1.png,exp2.png,3,0,3,0,0,14,14,14,,,,,,,,,,,,,,,,,,,,,,,,,False,73,74,False,exp1.png,exp2.png,trial_right_image,-1,exp2.png,1,exp1.png,exp2.png,0,4,reversed,incorrect,0.8495215065113981,0,valid_lose,480.40024110000013,37,,,,,,,,,,,s_016,1,2020_Dec_03_1439,Reversal,3.2.4,60.16347619648182,
15,exp3.png,exp4.png,3,0,3,0,0,15,15,15,,,,,,,,,,,,,,,,,,,,,,,,,False,74,75,True,exp4.png,exp3.png,trial_right_image,-1,exp3.png,1,exp3.png,exp4.png,1,1,non-reversed,correct,0.04693729853491302,0,invalid_lose,490.4630057000031,37,,,,,,,,,,,s_016,1,2020_Dec_03_1439,Reversal,3.2.4,60.16347619648182,
16,exp1.png,exp2.png,3,0,3,0,0,16,16,16,,,,,,,,,,,,,,,,,,,,,,,,,False,75,76,True,exp2.png,exp1.png,trial_left_image,1,exp2.png,1,exp1.png,exp2.png,0,4,reversed,incorrect,0.37632482542728796,0,valid_lose,494.51168510000207,37,,,,,,,,,,,s_016,1,2020_Dec_03_1439,Reversal,3.2.4,60.16347619648182,
17,exp3.png,exp4.png,3,0,3,0,0,17,17,17,,,,,,,,,,,,,,,,,,,,,,,,,False,76,77,True,exp4.png,exp3.png,trial_right_image,-1,exp3.png,1,exp3.png,exp4.png,1,1,non-reversed,correct,0.7865723871790474,1,valid_win,498.8603795000017,38,,,,,,,,,,,s_016,1,2020_Dec_03_1439,Reversal,3.2.4,60.16347619648182,
18,exp1.png,exp2.png,3,0,3,0,0,18,18,18,,,,,,,,,,,,,,,,,,,,,,,,,False,77,78,True,exp2.png,exp1.png,trial_right_image,-1,exp1.png,1,exp1.png,exp2.png,1,3,reversed,correct,0.7739873075334137,1,valid_win,503.9591474000008,39,,,,,,,,,,,s_016,1,2020_Dec_03_1439,Reversal,3.2.4,60.16347619648182,
19,exp3.png,exp4.png,3,0,3,0,0,19,19,19,,,,,,,,,,,,,,,,,,,,,,,,,False,78,79,True,exp4.png,exp3.png,trial_right_image,-1,exp3.png,1,exp3.png,exp4.png,1,1,non-reversed,correct,0.6874510212790265,1,valid_win,508.04096260000006,40,,,,,,,,,,,s_016,1,2020_Dec_03_1439,Reversal,3.2.4,60.16347619648182,
20,exp1.png,exp2.png,3,0,3,0,0,20,20,20,,,,,,,,,,,,,,,,,,,,,,,,,False,79,80,False,exp1.png,exp2.png,trial_right_image,-1,exp2.png,1,exp1.png,exp2.png,0,4,reversed,incorrect,0.3533090111426326,0,valid_lose,512.6895509000024,40,,,,,,,,,,,s_016,1,2020_Dec_03_1439,Reversal,3.2.4,60.16347619648182,
,,,3,0,3,0,,,,,0,0,0,0,,,,,,,,,,,,,,,,,,,,,,,,,,,,,,,,,,,,,,,,,,6,85,89,13,,,,,,,s_016,1,2020_Dec_03_1439,Reversal,3.2.4,60.16347619648182,
0,exp1.png,exp2.png,,,,,,,,,,,,,,,,,0,0,0,0,0,0,0,0,,,,,,,,,True,,,,,,,,,,,,,,,,,,,,,,,,,,,,,,,s_016,1,2020_Dec_03_1439,Reversal,3.2.4,60.16347619648182,
1,exp3.png,exp4.png,,,,,,,,,,,,,,,,,0,0,0,0,0,1,1,1,,,,,,,,,False,0,81,False,exp3.png,exp4.png,trial_right_image,-1,exp4.png,1,exp3.png,exp4.png,0,2,non-reversed,incorrect,0.49213059679348026,0,valid_lose,529.6836231000016,40,,,,,526.8029285000011,,,,,,s_016,1,2020_Dec_03_1439,Reversal,3.2.4,60.16347619648182,
2,exp1.png,exp2.png,,,,,,,,,,,,,,,,,0,0,0,0,0,2,2,2,,,,,,,,,False,1,82,True,exp2.png,exp1.png,trial_left_image,1,exp2.png,1,exp2.png,exp1.png,0,4,reversed,correct,0.27032435253814036,1,valid_win,534.7012914000006,41,,,,,,,,,,,s_016,1,2020_Dec_03_1439,Reversal,3.2.4,60.16347619648182,
3,exp3.png,exp4.png,,,,,,,,,,,,,,,,,0,0,0,0,0,3,3,3,,,,,,,,,False,2,83,True,exp4.png,exp3.png,trial_left_image,1,exp4.png,1,exp3.png,exp4.png,0,2,non-reversed,incorrect,0.18079878764925705,1,invalid_win,538.7140504000017,42,,,,,,,,,,,s_016,1,2020_Dec_03_1439,Reversal,3.2.4,60.16347619648182,
4,exp1.png,exp2.png,,,,,,,,,,,,,,,,,0,0,0,0,0,4,4,4,,,,,,,,,False,3,84,True,exp2.png,exp1.png,trial_left_image,1,exp2.png,1,exp2.png,exp1.png,0,4,reversed,correct,0.5529733054577143,1,valid_win,543.9109314000016,43,,,,,,,,,,,s_016,1,2020_Dec_03_1439,Reversal,3.2.4,60.16347619648182,
5,exp3.png,exp4.png,,,,,,,,,,,,,,,,,0,0,0,0,0,5,5,5,,,,,,,,,False,4,85,False,exp3.png,exp4.png,trial_left_image,1,exp3.png,1,exp3.png,exp4.png,1,1,non-reversed,correct,0.06945697164103881,0,invalid_lose,548.3102502000002,43,,,,,,,,,,,s_016,1,2020_Dec_03_1439,Reversal,3.2.4,60.16347619648182,
6,exp1.png,exp2.png,,,,,,,,,,,,,,,,,0,0,0,0,0,6,6,6,,,,,,,,,False,5,86,True,exp2.png,exp1.png,trial_right_image,-1,exp1.png,1,exp2.png,exp1.png,1,3,reversed,incorrect,0.344515181077901,0,valid_lose,553.408843600002,43,,,,,,,,,,,s_016,1,2020_Dec_03_1439,Reversal,3.2.4,60.16347619648182,
7,exp3.png,exp4.png,,,,,,,,,,,,,,,,,0,0,0,0,0,7,7,7,,,,,,,,,False,6,87,False,exp3.png,exp4.png,trial_left_image,1,exp3.png,1,exp3.png,exp4.png,1,1,non-reversed,correct,0.3948447617087134,1,valid_win,557.3238090000013,44,,,,,,,,,,,s_016,1,2020_Dec_03_1439,Reversal,3.2.4,60.16347619648182,
8,exp1.png,exp2.png,,,,,,,,,,,,,,,,,0,0,0,0,0,8,8,8,,,,,,,,,False,7,88,False,exp1.png,exp2.png,trial_left_image,1,exp1.png,1,exp2.png,exp1.png,1,3,reversed,incorrect,0.17536358071535196,1,invalid_win,561.3059320000029,45,,,,,,,,,,,s_016,1,2020_Dec_03_1439,Reversal,3.2.4,60.16347619648182,
9,exp3.png,exp4.png,,,,,,,,,,,,,,,,,0,0,0,0,0,9,9,9,,,,,,,,,False,8,89,True,exp4.png,exp3.png,trial_right_image,-1,exp3.png,1,exp3.png,exp4.png,1,1,non-reversed,correct,0.4118249908184415,1,valid_win,565.2219723000017,46,,,,,,,,,,,s_016,1,2020_Dec_03_1439,Reversal,3.2.4,60.16347619648182,
10,exp1.png,exp2.png,,,,,,,,,,,,,,,,,0,0,0,0,0,10,10,10,,,,,,,,,False,9,90,True,exp2.png,exp1.png,trial_right_image,-1,exp1.png,1,exp2.png,exp1.png,1,3,reversed,incorrect,0.8854489979772961,0,valid_lose,569.6862325000002,46,,,,,,,,,,,s_016,1,2020_Dec_03_1439,Reversal,3.2.4,60.16347619648182,
11,exp3.png,exp4.png,,,,,,,,,,,,,,,,,0,0,0,0,0,11,11,11,,,,,,,,,False,10,91,False,exp3.png,exp4.png,trial_left_image,1,exp3.png,1,exp3.png,exp4.png,1,1,non-reversed,correct,0.6448367845379911,1,valid_win,573.5355828000029,47,,,,,,,,,,,s_016,1,2020_Dec_03_1439,Reversal,3.2.4,60.16347619648182,
12,exp1.png,exp2.png,,,,,,,,,,,,,,,,,0,0,0,0,0,12,12,12,,,,,,,,,False,11,92,False,exp1.png,exp2.png,trial_right_image,-1,exp2.png,1,exp2.png,exp1.png,0,4,reversed,correct,0.648134925131977,1,valid_win,578.5667453000024,48,,,,,,,,,,,s_016,1,2020_Dec_03_1439,Reversal,3.2.4,60.16347619648182,
13,exp3.png,exp4.png,,,,,,,,,,,,,,,,,0,0,0,0,0,13,13,13,,,,,,,,,False,12,93,False,exp3.png,exp4.png,trial_right_image,-1,exp4.png,1,exp3.png,exp4.png,0,2,non-reversed,incorrect,0.4726574394655585,0,valid_lose,583.5328752000023,48,,,,,,,,,,,s_016,1,2020_Dec_03_1439,Reversal,3.2.4,60.16347619648182,
14,exp1.png,exp2.png,,,,,,,,,,,,,,,,,0,0,0,0,0,14,14,14,,,,,,,,,False,13,94,True,exp2.png,exp1.png,trial_left_image,1,exp2.png,1,exp2.png,exp1.png,0,4,reversed,correct,0.41266141850946503,1,valid_win,587.397091400002,49,,,,,,,,,,,s_016,1,2020_Dec_03_1439,Reversal,3.2.4,60.16347619648182,
15,exp3.png,exp4.png,,,,,,,,,,,,,,,,,0,0,0,0,0,15,15,15,,,,,,,,,False,14,95,False,exp3.png,exp4.png,trial_right_image,-1,exp4.png,1,exp3.png,exp4.png,0,2,non-reversed,incorrect,0.13684277837803183,1,invalid_win,592.0629814000022,50,,,,,,,,,,,s_016,1,2020_Dec_03_1439,Reversal,3.2.4,60.16347619648182,
16,exp1.png,exp2.png,,,,,,,,,,,,,,,,,0,0,0,0,0,16,16,16,,,,,,,,,False,15,96,True,exp2.png,exp1.png,trial_right_image,-1,exp1.png,1,exp2.png,exp1.png,1,3,reversed,incorrect,0.3874785548348997,0,valid_lose,596.7926490000027,50,,,,,,,,,,,s_016,1,2020_Dec_03_1439,Reversal,3.2.4,60.16347619648182,
17,exp3.png,exp4.png,,,,,,,,,,,,,,,,,0,0,0,0,0,17,17,17,,,,,,,,,False,16,97,True,exp4.png,exp3.png,trial_left_image,1,exp4.png,1,exp3.png,exp4.png,0,2,non-reversed,incorrect,0.2507247927635068,0,valid_lose,602.375066800003,50,,,,,,,,,,,s_016,1,2020_Dec_03_1439,Reversal,3.2.4,60.16347619648182,
18,exp1.png,exp2.png,,,,,,,,,,,,,,,,,0,0,0,0,0,18,18,18,,,,,,,,,False,17,98,False,exp1.png,exp2.png,trial_right_image,-1,exp2.png,1,exp2.png,exp1.png,0,4,reversed,correct,0.08765491072817189,0,invalid_lose,606.3583391000029,50,,,,,,,,,,,s_016,1,2020_Dec_03_1439,Reversal,3.2.4,60.16347619648182,
19,exp3.png,exp4.png,,,,,,,,,,,,,,,,,0,0,0,0,0,19,19,19,,,,,,,,,False,18,99,True,exp4.png,exp3.png,trial_left_image,1,exp4.png,1,exp3.png,exp4.png,0,2,non-reversed,incorrect,0.11347016995029369,1,invalid_win,610.2402204000027,51,,,,,,,,,,,s_016,1,2020_Dec_03_1439,Reversal,3.2.4,60.16347619648182,
20,exp1.png,exp2.png,,,,,,,,,,,,,,,,,0,0,0,0,0,20,20,20,,,,,,,,,False,19,100,False,exp1.png,exp2.png,trial_right_image,-1,exp2.png,1,exp2.png,exp1.png,0,4,reversed,correct,0.13838200412333124,0,invalid_lose,614.3889879000017,51,,,,,,,,,,,s_016,1,2020_Dec_03_1439,Reversal,3.2.4,60.16347619648182,
,,,,,,,,,,,,,,,,,,,0,0,0,0,,,,,0,0,0,0,,,,,,,,,,,,,,,,,,,,,,,,,,80,87,11,9,,,,,,,s_016,1,2020_Dec_03_1439,Reversal,3.2.4,60.16347619648182,
0,exp1.png,exp2.png,,,,,,,,,,,,,,,,,1,0,1,0,0,0,0,0,,,,,,,,,True,,,,,,,,,,,,,,,,,,,,,,,,,,,,,,,s_016,1,2020_Dec_03_1439,Reversal,3.2.4,60.16347619648182,
1,exp3.png,exp4.png,,,,,,,,,,,,,,,,,1,0,1,0,0,1,1,1,,,,,,,,,False,20,101,False,exp3.png,exp4.png,trial_right_image,-1,exp4.png,1,exp3.png,exp4.png,0,2,non-reversed,incorrect,0.6902501242784937,0,valid_lose,628.517287300001,51,,,,,,,,,,,s_016,1,2020_Dec_03_1439,Reversal,3.2.4,60.16347619648182,
2,exp1.png,exp2.png,,,,,,,,,,,,,,,,,1,0,1,0,0,2,2,2,,,,,,,,,False,21,102,False,exp1.png,exp2.png,trial_left_image,1,exp1.png,1,exp2.png,exp1.png,1,3,reversed,incorrect,0.5988601215413457,0,valid_lose,632.348665700003,51,,,,,,,,,,,s_016,1,2020_Dec_03_1439,Reversal,3.2.4,60.16347619648182,
3,exp3.png,exp4.png,,,,,,,,,,,,,,,,,1,0,1,0,0,3,3,3,,,,,,,,,False,22,103,True,exp4.png,exp3.png,trial_right_image,-1,exp3.png,1,exp3.png,exp4.png,1,1,non-reversed,correct,0.18148160602850605,0,invalid_lose,636.497844700003,51,,,,,,,,,,,s_016,1,2020_Dec_03_1439,Reversal,3.2.4,60.16347619648182,
4,exp1.png,exp2.png,,,,,,,,,,,,,,,,,1,0,1,0,0,4,4,4,,,,,,,,,False,23,104,True,exp2.png,exp1.png,trial_left_image,1,exp2.png,1,exp2.png,exp1.png,0,4,reversed,correct,0.11174405548984268,0,invalid_lose,640.5118271000028,51,,,,,,,,,,,s_016,1,2020_Dec_03_1439,Reversal,3.2.4,60.16347619648182,
5,exp3.png,exp4.png,,,,,,,,,,,,,,,,,1,0,1,0,0,5,5,5,,,,,,,,,False,24,105,False,exp3.png,exp4.png,trial_right_image,-1,exp4.png,1,exp3.png,exp4.png,0,2,non-reversed,incorrect,0.11351841998642376,1,invalid_win,646.4441346000021,52,,,,,,,,,,,s_016,1,2020_Dec_03_1439,Reversal,3.2.4,60.16347619648182,
6,exp1.png,exp2.png,,,,,,,,,,,,,,,,,1,0,1,0,0,6,6,6,,,,,,,,,False,25,106,True,exp2.png,exp1.png,trial_right_image,-1,exp1.png,1,exp2.png,exp1.png,1,3,reversed,incorrect,0.055983470143811886,1,invalid_win,653.4581316000003,53,,,,,,,,,,,s_016,1,2020_Dec_03_1439,Reversal,3.2.4,60.16347619648182,
7,exp3.png,exp4.png,,,,,,,,,,,,,,,,,1,0,1,0,0,7,7,7,,,,,,,,,False,26,107,False,exp3.png,exp4.png,trial_right_image,-1,exp4.png,1,exp3.png,exp4.png,0,2,non-reversed,incorrect,0.09750587508244446,1,invalid_win,657.8723583000028,54,,,,,,,,,,,s_016,1,2020_Dec_03_1439,Reversal,3.2.4,60.16347619648182,
8,exp1.png,exp2.png,,,,,,,,,,,,,,,,,1,0,1,0,0,8,8,8,,,,,,,,,False,27,108,True,exp2.png,exp1.png,trial_right_image,-1,exp1.png,1,exp2.png,exp1.png,1,3,reversed,incorrect,0.35794499897787313,0,valid_lose,662.3382296000018,54,,,,,,,,,,,s_016,1,2020_Dec_03_1439,Reversal,3.2.4,60.16347619648182,
9,exp3.png,exp4.png,,,,,,,,,,,,,,,,,1,0,1,0,0,9,9,9,,,,,,,,,False,28,109,True,exp4.png,exp3.png,trial_right_image,-1,exp3.png,1,exp3.png,exp4.png,1,1,non-reversed,correct,0.09541405215457621,0,invalid_lose,666.1543428000004,54,,,,,,,,,,,s_016,1,2020_Dec_03_1439,Reversal,3.2.4,60.16347619648182,
10,exp1.png,exp2.png,,,,,,,,,,,,,,,,,1,0,1,0,0,10,10,10,,,,,,,,,False,29,110,False,exp1.png,exp2.png,trial_left_image,1,exp1.png,1,exp2.png,exp1.png,1,3,reversed,incorrect,0.47578508889050997,0,valid_lose,670.1034432000015,54,,,,,,,,,,,s_016,1,2020_Dec_03_1439,Reversal,3.2.4,60.16347619648182,
11,exp3.png,exp4.png,,,,,,,,,,,,,,,,,1,0,1,0,0,11,11,11,,,,,,,,,False,30,111,True,exp4.png,exp3.png,trial_left_image,1,exp4.png,1,exp3.png,exp4.png,0,2,non-reversed,incorrect,0.6663345166659319,0,valid_lose,673.9341508000034,54,,,,,,,,,,,s_016,1,2020_Dec_03_1439,Reversal,3.2.4,60.16347619648182,
12,exp1.png,exp2.png,,,,,,,,,,,,,,,,,1,0,1,0,0,12,12,12,,,,,,,,,False,31,112,False,exp1.png,exp2.png,trial_right_image,-1,exp2.png,1,exp2.png,exp1.png,0,4,reversed,correct,0.799195513629283,1,valid_win,677.8989169000015,55,,,,,,,,,,,s_016,1,2020_Dec_03_1439,Reversal,3.2.4,60.16347619648182,
13,exp3.png,exp4.png,,,,,,,,,,,,,,,,,1,0,1,0,0,13,13,13,,,,,,,,,False,32,113,False,exp3.png,exp4.png,trial_right_image,-1,exp4.png,1,exp3.png,exp4.png,0,2,non-reversed,incorrect,0.6921249884856506,0,valid_lose,682.0984483000029,55,,,,,,,,,,,s_016,1,2020_Dec_03_1439,Reversal,3.2.4,60.16347619648182,
14,exp1.png,exp2.png,,,,,,,,,,,,,,,,,1,0,1,0,0,14,14,14,,,,,,,,,False,33,114,True,exp2.png,exp1.png,trial_right_image,-1,exp1.png,1,exp2.png,exp1.png,1,3,reversed,incorrect,0.006789462001398072,1,invalid_win,686.547845000001,56,,,,,,,,,,,s_016,1,2020_Dec_03_1439,Reversal,3.2.4,60.16347619648182,
15,exp3.png,exp4.png,,,,,,,,,,,,,,,,,1,0,1,0,0,15,15,15,,,,,,,,,False,34,115,True,exp4.png,exp3.png,trial_right_image,-1,exp3.png,1,exp3.png,exp4.png,1,1,non-reversed,correct,0.9265027037220289,1,valid_win,690.6283242999998,57,,,,,,,,,,,s_016,1,2020_Dec_03_1439,Reversal,3.2.4,60.16347619648182,
16,exp1.png,exp2.png,,,,,,,,,,,,,,,,,1,0,1,0,0,16,16,16,,,,,,,,,False,35,116,False,exp1.png,exp2.png,trial_right_image,-1,exp2.png,1,exp2.png,exp1.png,0,4,reversed,correct,0.35345739691013944,1,valid_win,695.344471700002,58,,,,,,,,,,,s_016,1,2020_Dec_03_1439,Reversal,3.2.4,60.16347619648182,
17,exp3.png,exp4.png,,,,,,,,,,,,,,,,,1,0,1,0,0,17,17,17,,,,,,,,,False,36,117,False,exp3.png,exp4.png,trial_right_image,-1,exp4.png,1,exp3.png,exp4.png,0,2,non-reversed,incorrect,0.988879635994042,0,valid_lose,699.5423663000001,58,,,,,,,,,,,s_016,1,2020_Dec_03_1439,Reversal,3.2.4,60.16347619648182,
18,exp1.png,exp2.png,,,,,,,,,,,,,,,,,1,0,1,0,0,18,18,18,,,,,,,,,False,37,118,True,exp2.png,exp1.png,trial_right_image,-1,exp1.png,1,exp2.png,exp1.png,1,3,reversed,incorrect,0.3943732456792831,0,valid_lose,703.6741638000021,58,,,,,,,,,,,s_016,1,2020_Dec_03_1439,Reversal,3.2.4,60.16347619648182,
19,exp3.png,exp4.png,,,,,,,,,,,,,,,,,1,0,1,0,0,19,19,19,,,,,,,,,False,38,119,False,exp3.png,exp4.png,trial_left_image,1,exp3.png,1,exp3.png,exp4.png,1,1,non-reversed,correct,0.1653522771682413,0,invalid_lose,707.6735877000028,58,,,,,,,,,,,s_016,1,2020_Dec_03_1439,Reversal,3.2.4,60.16347619648182,
20,exp1.png,exp2.png,,,,,,,,,,,,,,,,,1,0,1,0,0,20,20,20,,,,,,,,,False,39,120,True,exp2.png,exp1.png,trial_left_image,1,exp2.png,1,exp2.png,exp1.png,0,4,reversed,correct,0.8414759393745431,1,valid_win,712.7870335000007,59,,,,,,,,,,,s_016,1,2020_Dec_03_1439,Reversal,3.2.4,60.16347619648182,
,,,,,,,,,,,,,,,,,,,1,0,1,0,,,,,0,0,0,0,,,,,,,,,,,,,,,,,,,,,,,,,,87,99,96,0,,,,,,,s_016,1,2020_Dec_03_1439,Reversal,3.2.4,60.16347619648182,
0,exp1.png,exp2.png,,,,,,,,,,,,,,,,,2,0,2,0,0,0,0,0,,,,,,,,,True,,,,,,,,,,,,,,,,,,,,,,,,,,,,,,,s_016,1,2020_Dec_03_1439,Reversal,3.2.4,60.16347619648182,
1,exp3.png,exp4.png,,,,,,,,,,,,,,,,,2,0,2,0,0,1,1,1,,,,,,,,,False,40,121,True,exp4.png,exp3.png,trial_left_image,1,exp4.png,1,exp3.png,exp4.png,0,2,non-reversed,incorrect,0.037891836116899946,1,invalid_win,732.2969620000003,60,,,,,,,,,,,s_016,1,2020_Dec_03_1439,Reversal,3.2.4,60.16347619648182,
2,exp1.png,exp2.png,,,,,,,,,,,,,,,,,2,0,2,0,0,2,2,2,,,,,,,,,False,41,122,True,exp2.png,exp1.png,trial_right_image,-1,exp1.png,1,exp2.png,exp1.png,1,3,reversed,incorrect,0.911759310678998,0,valid_lose,736.3299468000005,60,,,,,,,,,,,s_016,1,2020_Dec_03_1439,Reversal,3.2.4,60.16347619648182,
3,exp3.png,exp4.png,,,,,,,,,,,,,,,,,2,0,2,0,0,3,3,3,,,,,,,,,False,42,123,False,exp3.png,exp4.png,trial_left_image,1,exp3.png,1,exp3.png,exp4.png,1,1,non-reversed,correct,0.6451976152171683,1,valid_win,740.3282964000027,61,,,,,,,,,,,s_016,1,2020_Dec_03_1439,Reversal,3.2.4,60.16347619648182,
4,exp1.png,exp2.png,,,,,,,,,,,,,,,,,2,0,2,0,0,4,4,4,,,,,,,,,False,43,124,True,exp2.png,exp1.png,trial_right_image,-1,exp1.png,1,exp2.png,exp1.png,1,3,reversed,incorrect,0.17779899883618622,1,invalid_win,744.6939640000019,62,,,,,,,,,,,s_016,1,2020_Dec_03_1439,Reversal,3.2.4,60.16347619648182,
5,exp3.png,exp4.png,,,,,,,,,,,,,,,,,2,0,2,0,0,5,5,5,,,,,,,,,False,44,125,False,exp3.png,exp4.png,trial_right_image,-1,exp4.png,1,exp3.png,exp4.png,0,2,non-reversed,incorrect,0.721588578752027,0,valid_lose,749.5088258000033,62,,,,,,,,,,,s_016,1,2020_Dec_03_1439,Reversal,3.2.4,60.16347619648182,
6,exp1.png,exp2.png,,,,,,,,,,,,,,,,,2,0,2,0,0,6,6,6,,,,,,,,,False,45,126,True,exp2.png,exp1.png,trial_left_image,1,exp2.png,1,exp2.png,exp1.png,0,4,reversed,correct,0.44353507234740497,1,valid_win,753.5910388000011,63,,,,,,,,,,,s_016,1,2020_Dec_03_1439,Reversal,3.2.4,60.16347619648182,
7,exp3.png,exp4.png,,,,,,,,,,,,,,,,,2,0,2,0,0,7,7,7,,,,,,,,,False,46,127,True,exp4.png,exp3.png,trial_right_image,-1,exp3.png,1,exp3.png,exp4.png,1,1,non-reversed,correct,0.6583461070521415,1,valid_win,757.6903041000005,64,,,,,,,,,,,s_016,1,2020_Dec_03_1439,Reversal,3.2.4,60.16347619648182,
8,exp1.png,exp2.png,,,,,,,,,,,,,,,,,2,0,2,0,0,8,8,8,,,,,,,,,False,47,128,False,exp1.png,exp2.png,trial_right_image,-1,exp2.png,1,exp2.png,exp1.png,0,4,reversed,correct,0.32208671765740127,1,valid_win,761.7383152000002,65,,,,,,,,,,,s_016,1,2020_Dec_03_1439,Reversal,3.2.4,60.16347619648182,
9,exp3.png,exp4.png,,,,,,,,,,,,,,,,,2,0,2,0,0,9,9,9,,,,,,,,,False,48,129,False,exp3.png,exp4.png,trial_left_image,1,exp3.png,1,exp3.png,exp4.png,1,1,non-reversed,correct,0.6469874743135929,1,valid_win,766.5022849000015,66,,,,,,,,,,,s_016,1,2020_Dec_03_1439,Reversal,3.2.4,60.16347619648182,
10,exp1.png,exp2.png,,,,,,,,,,,,,,,,,2,0,2,0,0,10,10,10,,,,,,,,,False,49,130,True,exp2.png,exp1.png,trial_right_image,-1,exp1.png,1,exp2.png,exp1.png,1,3,reversed,incorrect,0.8395953739683515,0,valid_lose,770.5354295000034,66,,,,,,,,,,,s_016,1,2020_Dec_03_1439,Reversal,3.2.4,60.16347619648182,
11,exp3.png,exp4.png,,,,,,,,,,,,,,,,,2,0,2,0,0,11,11,11,,,,,,,,,False,50,131,True,exp4.png,exp3.png,trial_left_image,1,exp4.png,1,exp3.png,exp4.png,0,2,non-reversed,incorrect,0.31266962223148176,0,valid_lose,774.7175429000017,66,,,,,,,,,,,s_016,1,2020_Dec_03_1439,Reversal,3.2.4,60.16347619648182,
12,exp1.png,exp2.png,,,,,,,,,,,,,,,,,2,0,2,0,0,12,12,12,,,,,,,,,False,51,132,False,exp1.png,exp2.png,trial_right_image,-1,exp2.png,1,exp2.png,exp1.png,0,4,reversed,correct,0.592224688244761,1,valid_win,778.2995100000007,67,,,,,,,,,,,s_016,1,2020_Dec_03_1439,Reversal,3.2.4,60.16347619648182,
13,exp3.png,exp4.png,,,,,,,,,,,,,,,,,2,0,2,0,0,13,13,13,,,,,,,,,False,52,133,True,exp4.png,exp3.png,trial_right_image,-1,exp3.png,1,exp3.png,exp4.png,1,1,non-reversed,correct,0.7925618096405544,1,valid_win,782.4140585000023,68,,,,,,,,,,,s_016,1,2020_Dec_03_1439,Reversal,3.2.4,60.16347619648182,
14,exp1.png,exp2.png,,,,,,,,,,,,,,,,,2,0,2,0,0,14,14,14,,,,,,,,,False,53,134,True,exp2.png,exp1.png,trial_right_image,-1,exp1.png,1,exp2.png,exp1.png,1,3,reversed,incorrect,0.7878750105098034,0,valid_lose,786.3129097000019,68,,,,,,,,,,,s_016,1,2020_Dec_03_1439,Reversal,3.2.4,60.16347619648182,
15,exp3.png,exp4.png,,,,,,,,,,,,,,,,,2,0,2,0,0,15,15,15,,,,,,,,,False,54,135,False,exp3.png,exp4.png,trial_right_image,-1,exp4.png,1,exp3.png,exp4.png,0,2,non-reversed,incorrect,0.10029688139088055,1,invalid_win,790.2129669000024,69,,,,,,,,,,,s_016,1,2020_Dec_03_1439,Reversal,3.2.4,60.16347619648182,
16,exp1.png,exp2.png,,,,,,,,,,,,,,,,,2,0,2,0,0,16,16,16,,,,,,,,,False,55,136,True,exp2.png,exp1.png,trial_right_image,-1,exp1.png,1,exp2.png,exp1.png,1,3,reversed,incorrect,0.6746746017426878,0,valid_lose,794.2593228000005,69,,,,,,,,,,,s_016,1,2020_Dec_03_1439,Reversal,3.2.4,60.16347619648182,
17,exp3.png,exp4.png,,,,,,,,,,,,,,,,,2,0,2,0,0,17,17,17,,,,,,,,,False,56,137,False,exp3.png,exp4.png,trial_right_image,-1,exp4.png,1,exp3.png,exp4.png,0,2,non-reversed,incorrect,0.37296997867742987,0,valid_lose,798.2089781000032,69,,,,,,,,,,,s_016,1,2020_Dec_03_1439,Reversal,3.2.4,60.16347619648182,
18,exp1.png,exp2.png,,,,,,,,,,,,,,,,,2,0,2,0,0,18,18,18,,,,,,,,,False,57,138,False,exp1.png,exp2.png,trial_right_image,-1,exp2.png,1,exp2.png,exp1.png,0,4,reversed,correct,0.78590903758166,1,valid_win,802.0242319000026,70,,,,,,,,,,,s_016,1,2020_Dec_03_1439,Reversal,3.2.4,60.16347619648182,
19,exp3.png,exp4.png,,,,,,,,,,,,,,,,,2,0,2,0,0,19,19,19,,,,,,,,,False,58,139,False,exp3.png,exp4.png,trial_right_image,-1,exp4.png,1,exp3.png,exp4.png,0,2,non-reversed,incorrect,0.251602266548806,0,valid_lose,805.9719444000002,70,,,,,,,,,,,s_016,1,2020_Dec_03_1439,Reversal,3.2.4,60.16347619648182,
20,exp1.png,exp2.png,,,,,,,,,,,,,,,,,2,0,2,0,0,20,20,20,,,,,,,,,False,59,140,False,exp1.png,exp2.png,trial_left_image,1,exp1.png,1,exp2.png,exp1.png,1,3,reversed,incorrect,0.9808831929644992,0,valid_lose,809.8378763000001,70,,,,,,,,,,,s_016,1,2020_Dec_03_1439,Reversal,3.2.4,60.16347619648182,
,,,,,,,,,,,,,,,,,,,2,0,2,0,,,,,0,0,0,0,,,,,,,,,,,,,,,,,,,,,,,,,,88,100,5,100,,,,,,,s_016,1,2020_Dec_03_1439,Reversal,3.2.4,60.16347619648182,
,,,,,,,,,,,,,,,,,,,,,,,,,,,,,,,,,,,,,,,,,,,,,,,,,,,,,,,70,,,,,,66,40,26,294.2471755000006,1,,,,,,,
