trial_index,trial_image1_file,trial_image2_file,learning_outer_loop.thisRepN,learning_outer_loop.thisTrialN,learning_outer_loop.thisN,learning_outer_loop.thisIndex,learning_inner_loop.thisRepN,learning_inner_loop.thisTrialN,learning_inner_loop.thisN,learning_inner_loop.thisIndex,learning_estimation_outer_loop.thisRepN,learning_estimation_outer_loop.thisTrialN,learning_estimation_outer_loop.thisN,learning_estimation_outer_loop.thisIndex,learning_estimation_inner_loop.thisRepN,learning_estimation_inner_loop.thisTrialN,learning_estimation_inner_loop.thisN,learning_estimation_inner_loop.thisIndex,reversal_outer_loop.thisRepN,reversal_outer_loop.thisTrialN,reversal_outer_loop.thisN,reversal_outer_loop.thisIndex,reversal_inner_loop.thisRepN,reversal_inner_loop.thisTrialN,reversal_inner_loop.thisN,reversal_inner_loop.thisIndex,reversal_estimation_outer_loop.thisRepN,reversal_estimation_outer_loop.thisTrialN,reversal_estimation_outer_loop.thisN,reversal_estimation_outer_loop.thisIndex,reversal_estimation_inner_loop.thisRepN,reversal_estimation_inner_loop.thisTrialN,reversal_estimation_inner_loop.thisN,reversal_estimation_inner_loop.thisIndex,skipped,total_trial_counter,trial_num,left_right_flip,left_image_file,right_image_file,clicked_stimulus_side,side,clicked_stimulus,version,high_prob_image_file,low_prob_image_file,choice_a,choice_b,pair_type,correct,trial_feedback_random,reward,trial_type,overall_time_after_trial,score,estimation_exp1.png,estimation_exp2.png,estimation_exp3.png,estimation_exp4.png,total_learning_time,total_correct,learning_correct,reversal_correct,total_reversal_time,extra_block,participant,ver,date,expName,psychopyVersion,frameRate,
0,exp1.png,exp2.png,0,0,0,0,0,0,0,0,,,,,,,,,,,,,,,,,,,,,,,,,False,0,1,False,exp1.png,exp2.png,trial_right_image,-1,exp2.png,4,exp2.png,exp1.png,1,1,non-reversed,correct,0.9517194283035378,1,valid_win,2.7791327000013553,1,,,,,,,,,,,s_029,4,2020_Dec_21_1651,Reversal,3.2.4,59.936694869271,
1,exp3.png,exp4.png,0,0,0,0,0,1,1,1,,,,,,,,,,,,,,,,,,,,,,,,,False,1,2,False,exp3.png,exp4.png,trial_right_image,-1,exp4.png,4,exp4.png,exp3.png,1,3,reversed,correct,0.17826941461880885,0,invalid_lose,11.825146699993638,1,,,,,,,,,,,s_029,4,2020_Dec_21_1651,Reversal,3.2.4,59.936694869271,
2,exp1.png,exp2.png,0,0,0,0,0,2,2,2,,,,,,,,,,,,,,,,,,,,,,,,,False,2,3,False,exp1.png,exp2.png,trial_right_image,-1,exp2.png,4,exp2.png,exp1.png,1,1,non-reversed,correct,0.9871594126196399,1,valid_win,16.874878900009207,2,,,,,,,,,,,s_029,4,2020_Dec_21_1651,Reversal,3.2.4,59.936694869271,
3,exp3.png,exp4.png,0,0,0,0,0,3,3,3,,,,,,,,,,,,,,,,,,,,,,,,,False,3,4,True,exp4.png,exp3.png,trial_right_image,-1,exp3.png,4,exp4.png,exp3.png,0,4,reversed,incorrect,0.7271263015644931,0,valid_lose,22.388146500015864,2,,,,,,,,,,,s_029,4,2020_Dec_21_1651,Reversal,3.2.4,59.936694869271,
4,exp1.png,exp2.png,0,0,0,0,0,4,4,4,,,,,,,,,,,,,,,,,,,,,,,,,False,4,5,False,exp1.png,exp2.png,trial_right_image,-1,exp2.png,4,exp2.png,exp1.png,1,1,non-reversed,correct,0.06837911078621106,0,invalid_lose,27.421425900014583,2,,,,,,,,,,,s_029,4,2020_Dec_21_1651,Reversal,3.2.4,59.936694869271,
5,exp3.png,exp4.png,0,0,0,0,0,5,5,5,,,,,,,,,,,,,,,,,,,,,,,,,False,5,6,True,exp4.png,exp3.png,trial_left_image,1,exp4.png,4,exp4.png,exp3.png,1,3,reversed,correct,0.19231501535313245,0,invalid_lose,34.2688283000025,2,,,,,,,,,,,s_029,4,2020_Dec_21_1651,Reversal,3.2.4,59.936694869271,
6,exp1.png,exp2.png,0,0,0,0,0,6,6,6,,,,,,,,,,,,,,,,,,,,,,,,,False,6,7,True,exp2.png,exp1.png,trial_left_image,1,exp2.png,4,exp2.png,exp1.png,1,1,non-reversed,correct,0.3144460079126936,1,valid_win,41.6337346000073,3,,,,,,,,,,,s_029,4,2020_Dec_21_1651,Reversal,3.2.4,59.936694869271,
7,exp3.png,exp4.png,0,0,0,0,0,7,7,7,,,,,,,,,,,,,,,,,,,,,,,,,False,7,8,False,exp3.png,exp4.png,trial_left_image,1,exp3.png,4,exp4.png,exp3.png,0,4,reversed,incorrect,0.24737625563595245,1,invalid_win,49.397311100008665,4,,,,,,,,,,,s_029,4,2020_Dec_21_1651,Reversal,3.2.4,59.936694869271,
8,exp1.png,exp2.png,0,0,0,0,0,8,8,8,,,,,,,,,,,,,,,,,,,,,,,,,False,8,9,True,exp2.png,exp1.png,trial_left_image,1,exp2.png,4,exp2.png,exp1.png,1,1,non-reversed,correct,0.28926774891535634,1,valid_win,55.54410800000187,5,,,,,,,,,,,s_029,4,2020_Dec_21_1651,Reversal,3.2.4,59.936694869271,
9,exp3.png,exp4.png,0,0,0,0,0,9,9,9,,,,,,,,,,,,,,,,,,,,,,,,,False,9,10,True,exp4.png,exp3.png,trial_right_image,-1,exp3.png,4,exp4.png,exp3.png,0,4,reversed,incorrect,0.7610749476709954,0,valid_lose,62.02658689999953,5,,,,,,,,,,,s_029,4,2020_Dec_21_1651,Reversal,3.2.4,59.936694869271,
10,exp1.png,exp2.png,0,0,0,0,0,10,10,10,,,,,,,,,,,,,,,,,,,,,,,,,False,10,11,False,exp1.png,exp2.png,trial_right_image,-1,exp2.png,4,exp2.png,exp1.png,1,1,non-reversed,correct,0.5389030016216371,1,valid_win,67.72390480001923,6,,,,,,,,,,,s_029,4,2020_Dec_21_1651,Reversal,3.2.4,59.936694869271,
11,exp3.png,exp4.png,0,0,0,0,0,11,11,11,,,,,,,,,,,,,,,,,,,,,,,,,False,11,12,False,exp3.png,exp4.png,trial_right_image,-1,exp4.png,4,exp4.png,exp3.png,1,3,reversed,correct,0.7750842954308145,1,valid_win,75.82057179999538,7,,,,,,,,,,,s_029,4,2020_Dec_21_1651,Reversal,3.2.4,59.936694869271,
12,exp1.png,exp2.png,0,0,0,0,0,12,12,12,,,,,,,,,,,,,,,,,,,,,,,,,False,12,13,True,exp2.png,exp1.png,trial_left_image,1,exp2.png,4,exp2.png,exp1.png,1,1,non-reversed,correct,0.6449444278700728,1,valid_win,80.88686009999947,8,,,,,,,,,,,s_029,4,2020_Dec_21_1651,Reversal,3.2.4,59.936694869271,
13,exp3.png,exp4.png,0,0,0,0,0,13,13,13,,,,,,,,,,,,,,,,,,,,,,,,,False,13,14,True,exp4.png,exp3.png,trial_left_image,1,exp4.png,4,exp4.png,exp3.png,1,3,reversed,correct,0.9814174769968439,1,valid_win,87.11629320000065,9,,,,,,,,,,,s_029,4,2020_Dec_21_1651,Reversal,3.2.4,59.936694869271,
14,exp1.png,exp2.png,0,0,0,0,0,14,14,14,,,,,,,,,,,,,,,,,,,,,,,,,False,14,15,False,exp1.png,exp2.png,trial_right_image,-1,exp2.png,4,exp2.png,exp1.png,1,1,non-reversed,correct,0.43477210406487454,1,valid_win,91.29982929999824,10,,,,,,,,,,,s_029,4,2020_Dec_21_1651,Reversal,3.2.4,59.936694869271,
15,exp3.png,exp4.png,0,0,0,0,0,15,15,15,,,,,,,,,,,,,,,,,,,,,,,,,False,15,16,True,exp4.png,exp3.png,trial_right_image,-1,exp3.png,4,exp4.png,exp3.png,0,4,reversed,incorrect,0.9575638040849725,0,valid_lose,95.41498440000578,10,,,,,,,,,,,s_029,4,2020_Dec_21_1651,Reversal,3.2.4,59.936694869271,
16,exp1.png,exp2.png,0,0,0,0,0,16,16,16,,,,,,,,,,,,,,,,,,,,,,,,,False,16,17,True,exp2.png,exp1.png,trial_right_image,-1,exp1.png,4,exp2.png,exp1.png,0,2,non-reversed,incorrect,0.3256888446432816,0,valid_lose,101.56323470000643,10,,,,,,,,,,,s_029,4,2020_Dec_21_1651,Reversal,3.2.4,59.936694869271,
17,exp3.png,exp4.png,0,0,0,0,0,17,17,17,,,,,,,,,,,,,,,,,,,,,,,,,False,17,18,False,exp3.png,exp4.png,trial_right_image,-1,exp4.png,4,exp4.png,exp3.png,1,3,reversed,correct,0.7996755434820476,1,valid_win,121.52299530000892,11,,,,,,,,,,,s_029,4,2020_Dec_21_1651,Reversal,3.2.4,59.936694869271,
18,exp1.png,exp2.png,0,0,0,0,0,18,18,18,,,,,,,,,,,,,,,,,,,,,,,,,False,18,19,True,exp2.png,exp1.png,trial_left_image,1,exp2.png,4,exp2.png,exp1.png,1,1,non-reversed,correct,0.4271091522310183,1,valid_win,127.621184299991,12,,,,,,,,,,,s_029,4,2020_Dec_21_1651,Reversal,3.2.4,59.936694869271,
19,exp3.png,exp4.png,0,0,0,0,0,19,19,19,,,,,,,,,,,,,,,,,,,,,,,,,False,19,20,False,exp3.png,exp4.png,trial_right_image,-1,exp4.png,4,exp4.png,exp3.png,1,3,reversed,correct,0.5636878856718651,1,valid_win,133.3357352000021,13,,,,,,,,,,,s_029,4,2020_Dec_21_1651,Reversal,3.2.4,59.936694869271,
20,exp1.png,exp2.png,0,0,0,0,0,20,20,20,,,,,,,,,,,,,,,,,,,,,,,,,True,,,,,,,,,,,,,,,,,,,,,,,,,,,,,,,s_029,4,2020_Dec_21_1651,Reversal,3.2.4,59.936694869271,
,,,0,0,0,0,,,,,0,0,0,0,,,,,,,,,,,,,,,,,,,,,,,,,,,,,,,,,,,,,,,,,,0,50.0,0,100,,,,,,,s_029,4,2020_Dec_21_1651,Reversal,3.2.4,59.936694869271,
0,exp1.png,exp2.png,1,0,1,0,0,0,0,0,,,,,,,,,,,,,,,,,,,,,,,,,False,20,21,True,exp2.png,exp1.png,trial_right_image,-1,exp1.png,4,exp2.png,exp1.png,0,2,non-reversed,incorrect,0.3841978123021398,0,valid_lose,159.92647730000317,13,,,,,,,,,,,s_029,4,2020_Dec_21_1651,Reversal,3.2.4,59.936694869271,
1,exp3.png,exp4.png,1,0,1,0,0,1,1,1,,,,,,,,,,,,,,,,,,,,,,,,,False,21,22,False,exp3.png,exp4.png,trial_right_image,-1,exp4.png,4,exp4.png,exp3.png,1,3,reversed,correct,0.6165488737099416,1,valid_win,165.40681020001648,14,,,,,,,,,,,s_029,4,2020_Dec_21_1651,Reversal,3.2.4,59.936694869271,
2,exp1.png,exp2.png,1,0,1,0,0,2,2,2,,,,,,,,,,,,,,,,,,,,,,,,,False,22,23,False,exp1.png,exp2.png,trial_right_image,-1,exp2.png,4,exp2.png,exp1.png,1,1,non-reversed,correct,0.987519311364662,1,valid_win,169.70653980001225,15,,,,,,,,,,,s_029,4,2020_Dec_21_1651,Reversal,3.2.4,59.936694869271,
3,exp3.png,exp4.png,1,0,1,0,0,3,3,3,,,,,,,,,,,,,,,,,,,,,,,,,False,23,24,False,exp3.png,exp4.png,trial_right_image,-1,exp4.png,4,exp4.png,exp3.png,1,3,reversed,correct,0.16365524752145044,0,invalid_lose,174.070572800003,15,,,,,,,,,,,s_029,4,2020_Dec_21_1651,Reversal,3.2.4,59.936694869271,
4,exp1.png,exp2.png,1,0,1,0,0,4,4,4,,,,,,,,,,,,,,,,,,,,,,,,,False,24,25,True,exp2.png,exp1.png,trial_left_image,1,exp2.png,4,exp2.png,exp1.png,1,1,non-reversed,correct,0.44771282574622684,1,valid_win,179.6533078000066,16,,,,,,,,,,,s_029,4,2020_Dec_21_1651,Reversal,3.2.4,59.936694869271,
5,exp3.png,exp4.png,1,0,1,0,0,5,5,5,,,,,,,,,,,,,,,,,,,,,,,,,False,25,26,False,exp3.png,exp4.png,trial_left_image,1,exp3.png,4,exp4.png,exp3.png,0,4,reversed,incorrect,0.9563438561667453,0,valid_lose,185.433357300004,16,,,,,,,,,,,s_029,4,2020_Dec_21_1651,Reversal,3.2.4,59.936694869271,
6,exp1.png,exp2.png,1,0,1,0,0,6,6,6,,,,,,,,,,,,,,,,,,,,,,,,,False,26,27,True,exp2.png,exp1.png,trial_left_image,1,exp2.png,4,exp2.png,exp1.png,1,1,non-reversed,correct,0.46124212785838603,1,valid_win,190.05002170000807,17,,,,,,,,,,,s_029,4,2020_Dec_21_1651,Reversal,3.2.4,59.936694869271,
7,exp3.png,exp4.png,1,0,1,0,0,7,7,7,,,,,,,,,,,,,,,,,,,,,,,,,False,27,28,False,exp3.png,exp4.png,trial_right_image,-1,exp4.png,4,exp4.png,exp3.png,1,3,reversed,correct,0.8066867023772992,1,valid_win,202.5621582000167,18,,,,,,,,,,,s_029,4,2020_Dec_21_1651,Reversal,3.2.4,59.936694869271,
8,exp1.png,exp2.png,1,0,1,0,0,8,8,8,,,,,,,,,,,,,,,,,,,,,,,,,False,28,29,True,exp2.png,exp1.png,trial_left_image,1,exp2.png,4,exp2.png,exp1.png,1,1,non-reversed,correct,0.948167571373714,1,valid_win,207.41116280001006,19,,,,,,,,,,,s_029,4,2020_Dec_21_1651,Reversal,3.2.4,59.936694869271,
9,exp3.png,exp4.png,1,0,1,0,0,9,9,9,,,,,,,,,,,,,,,,,,,,,,,,,False,29,30,True,exp4.png,exp3.png,trial_right_image,-1,exp3.png,4,exp4.png,exp3.png,0,4,reversed,incorrect,0.4400074581131166,0,valid_lose,215.6732897000038,19,,,,,,,,,,,s_029,4,2020_Dec_21_1651,Reversal,3.2.4,59.936694869271,
10,exp1.png,exp2.png,1,0,1,0,0,10,10,10,,,,,,,,,,,,,,,,,,,,,,,,,False,30,31,False,exp1.png,exp2.png,trial_right_image,-1,exp2.png,4,exp2.png,exp1.png,1,1,non-reversed,correct,0.9496552005522678,1,valid_win,219.9897094000189,20,,,,,,,,,,,s_029,4,2020_Dec_21_1651,Reversal,3.2.4,59.936694869271,
11,exp3.png,exp4.png,1,0,1,0,0,11,11,11,,,,,,,,,,,,,,,,,,,,,,,,,False,31,32,False,exp3.png,exp4.png,trial_right_image,-1,exp4.png,4,exp4.png,exp3.png,1,3,reversed,correct,0.48374303848182887,1,valid_win,226.9195377000142,21,,,,,,,,,,,s_029,4,2020_Dec_21_1651,Reversal,3.2.4,59.936694869271,
12,exp1.png,exp2.png,1,0,1,0,0,12,12,12,,,,,,,,,,,,,,,,,,,,,,,,,False,32,33,False,exp1.png,exp2.png,trial_right_image,-1,exp2.png,4,exp2.png,exp1.png,1,1,non-reversed,correct,0.09335884823758622,0,invalid_lose,231.3858326000045,21,,,,,,,,,,,s_029,4,2020_Dec_21_1651,Reversal,3.2.4,59.936694869271,
13,exp3.png,exp4.png,1,0,1,0,0,13,13,13,,,,,,,,,,,,,,,,,,,,,,,,,False,33,34,True,exp4.png,exp3.png,trial_right_image,-1,exp3.png,4,exp4.png,exp3.png,0,4,reversed,incorrect,0.3205408467955312,0,valid_lose,239.29848190001212,21,,,,,,,,,,,s_029,4,2020_Dec_21_1651,Reversal,3.2.4,59.936694869271,
14,exp1.png,exp2.png,1,0,1,0,0,14,14,14,,,,,,,,,,,,,,,,,,,,,,,,,False,34,35,True,exp2.png,exp1.png,trial_left_image,1,exp2.png,4,exp2.png,exp1.png,1,1,non-reversed,correct,0.5479534845094375,1,valid_win,244.01526909999666,22,,,,,,,,,,,s_029,4,2020_Dec_21_1651,Reversal,3.2.4,59.936694869271,
15,exp3.png,exp4.png,1,0,1,0,0,15,15,15,,,,,,,,,,,,,,,,,,,,,,,,,False,35,36,True,exp4.png,exp3.png,trial_left_image,1,exp4.png,4,exp4.png,exp3.png,1,3,reversed,correct,0.36610042333217085,1,valid_win,248.89509040000848,23,,,,,,,,,,,s_029,4,2020_Dec_21_1651,Reversal,3.2.4,59.936694869271,
16,exp1.png,exp2.png,1,0,1,0,0,16,16,16,,,,,,,,,,,,,,,,,,,,,,,,,False,36,37,False,exp1.png,exp2.png,trial_right_image,-1,exp2.png,4,exp2.png,exp1.png,1,1,non-reversed,correct,0.7071609913034163,1,valid_win,253.57849139999598,24,,,,,,,,,,,s_029,4,2020_Dec_21_1651,Reversal,3.2.4,59.936694869271,
17,exp3.png,exp4.png,1,0,1,0,0,17,17,17,,,,,,,,,,,,,,,,,,,,,,,,,False,37,38,True,exp4.png,exp3.png,trial_left_image,1,exp4.png,4,exp4.png,exp3.png,1,3,reversed,correct,0.3336652045670395,1,valid_win,268.0401975999994,25,,,,,,,,,,,s_029,4,2020_Dec_21_1651,Reversal,3.2.4,59.936694869271,
18,exp1.png,exp2.png,1,0,1,0,0,18,18,18,,,,,,,,,,,,,,,,,,,,,,,,,False,38,39,False,exp1.png,exp2.png,trial_right_image,-1,exp2.png,4,exp2.png,exp1.png,1,1,non-reversed,correct,0.41008632790695354,1,valid_win,272.4866825999925,26,,,,,,,,,,,s_029,4,2020_Dec_21_1651,Reversal,3.2.4,59.936694869271,
19,exp3.png,exp4.png,1,0,1,0,0,19,19,19,,,,,,,,,,,,,,,,,,,,,,,,,False,39,40,True,exp4.png,exp3.png,trial_left_image,1,exp4.png,4,exp4.png,exp3.png,1,3,reversed,correct,0.9261802525084019,1,valid_win,279.66821930001606,27,,,,,,,,,,,s_029,4,2020_Dec_21_1651,Reversal,3.2.4,59.936694869271,
20,exp1.png,exp2.png,1,0,1,0,0,20,20,20,,,,,,,,,,,,,,,,,,,,,,,,,True,,,,,,,,,,,,,,,,,,,,,,,,,,,,,,,s_029,4,2020_Dec_21_1651,Reversal,3.2.4,59.936694869271,
,,,1,0,1,0,,,,,0,0,0,0,,,,,,,,,,,,,,,,,,,,,,,,,,,,,,,,,,,,,,,,,,15,91,63,39,,,,,,,s_029,4,2020_Dec_21_1651,Reversal,3.2.4,59.936694869271,
0,exp1.png,exp2.png,2,0,2,0,0,0,0,0,,,,,,,,,,,,,,,,,,,,,,,,,False,40,41,False,exp1.png,exp2.png,trial_right_image,-1,exp2.png,4,exp2.png,exp1.png,1,1,non-reversed,correct,0.9319307497335046,1,valid_win,307.0099640999979,28,,,,,,,,,,,s_029,4,2020_Dec_21_1651,Reversal,3.2.4,59.936694869271,
1,exp3.png,exp4.png,2,0,2,0,0,1,1,1,,,,,,,,,,,,,,,,,,,,,,,,,False,41,42,True,exp4.png,exp3.png,trial_right_image,-1,exp3.png,4,exp4.png,exp3.png,0,4,reversed,incorrect,0.7399530020096914,0,valid_lose,312.6085116000031,28,,,,,,,,,,,s_029,4,2020_Dec_21_1651,Reversal,3.2.4,59.936694869271,
2,exp1.png,exp2.png,2,0,2,0,0,2,2,2,,,,,,,,,,,,,,,,,,,,,,,,,False,42,43,True,exp2.png,exp1.png,trial_left_image,1,exp2.png,4,exp2.png,exp1.png,1,1,non-reversed,correct,0.6575019485107614,1,valid_win,316.87337770001614,29,,,,,,,,,,,s_029,4,2020_Dec_21_1651,Reversal,3.2.4,59.936694869271,
3,exp3.png,exp4.png,2,0,2,0,0,3,3,3,,,,,,,,,,,,,,,,,,,,,,,,,False,43,44,True,exp4.png,exp3.png,trial_left_image,1,exp4.png,4,exp4.png,exp3.png,1,3,reversed,correct,0.445211767632827,1,valid_win,321.05595149999135,30,,,,,,,,,,,s_029,4,2020_Dec_21_1651,Reversal,3.2.4,59.936694869271,
4,exp1.png,exp2.png,2,0,2,0,0,4,4,4,,,,,,,,,,,,,,,,,,,,,,,,,False,44,45,True,exp2.png,exp1.png,trial_left_image,1,exp2.png,4,exp2.png,exp1.png,1,1,non-reversed,correct,0.40454782739373296,1,valid_win,325.1376514000003,31,,,,,,,,,,,s_029,4,2020_Dec_21_1651,Reversal,3.2.4,59.936694869271,
5,exp3.png,exp4.png,2,0,2,0,0,5,5,5,,,,,,,,,,,,,,,,,,,,,,,,,False,45,46,False,exp3.png,exp4.png,trial_right_image,-1,exp4.png,4,exp4.png,exp3.png,1,3,reversed,correct,0.24695813060289962,0,invalid_lose,329.3525573000079,31,,,,,,,,,,,s_029,4,2020_Dec_21_1651,Reversal,3.2.4,59.936694869271,
6,exp1.png,exp2.png,2,0,2,0,0,6,6,6,,,,,,,,,,,,,,,,,,,,,,,,,False,46,47,True,exp2.png,exp1.png,trial_left_image,1,exp2.png,4,exp2.png,exp1.png,1,1,non-reversed,correct,0.3318589864507644,1,valid_win,333.5336299999908,32,,,,,,,,,,,s_029,4,2020_Dec_21_1651,Reversal,3.2.4,59.936694869271,
7,exp3.png,exp4.png,2,0,2,0,0,7,7,7,,,,,,,,,,,,,,,,,,,,,,,,,False,47,48,False,exp3.png,exp4.png,trial_left_image,1,exp3.png,4,exp4.png,exp3.png,0,4,reversed,incorrect,0.8047422122004962,0,valid_lose,340.3652531999978,32,,,,,,,,,,,s_029,4,2020_Dec_21_1651,Reversal,3.2.4,59.936694869271,
8,exp1.png,exp2.png,2,0,2,0,0,8,8,8,,,,,,,,,,,,,,,,,,,,,,,,,False,48,49,True,exp2.png,exp1.png,trial_left_image,1,exp2.png,4,exp2.png,exp1.png,1,1,non-reversed,correct,0.2662047161301241,1,valid_win,344.46442679999745,33,,,,,,,,,,,s_029,4,2020_Dec_21_1651,Reversal,3.2.4,59.936694869271,
9,exp3.png,exp4.png,2,0,2,0,0,9,9,9,,,,,,,,,,,,,,,,,,,,,,,,,False,49,50,True,exp4.png,exp3.png,trial_left_image,1,exp4.png,4,exp4.png,exp3.png,1,3,reversed,correct,0.91343506213467,1,valid_win,348.6446441000153,34,,,,,,,,,,,s_029,4,2020_Dec_21_1651,Reversal,3.2.4,59.936694869271,
10,exp1.png,exp2.png,2,0,2,0,0,10,10,10,,,,,,,,,,,,,,,,,,,,,,,,,False,50,51,True,exp2.png,exp1.png,trial_left_image,1,exp2.png,4,exp2.png,exp1.png,1,1,non-reversed,correct,0.7708475509267593,1,valid_win,352.6448551999929,35,,,,,,,,,,,s_029,4,2020_Dec_21_1651,Reversal,3.2.4,59.936694869271,
11,exp3.png,exp4.png,2,0,2,0,0,11,11,11,,,,,,,,,,,,,,,,,,,,,,,,,False,51,52,True,exp4.png,exp3.png,trial_left_image,1,exp4.png,4,exp4.png,exp3.png,1,3,reversed,correct,0.7818709355369451,1,valid_win,356.99341060000006,36,,,,,,,,,,,s_029,4,2020_Dec_21_1651,Reversal,3.2.4,59.936694869271,
12,exp1.png,exp2.png,2,0,2,0,0,12,12,12,,,,,,,,,,,,,,,,,,,,,,,,,False,52,53,False,exp1.png,exp2.png,trial_right_image,-1,exp2.png,4,exp2.png,exp1.png,1,1,non-reversed,correct,0.07690678594699651,0,invalid_lose,361.22518750000745,36,,,,,,,,,,,s_029,4,2020_Dec_21_1651,Reversal,3.2.4,59.936694869271,
13,exp3.png,exp4.png,2,0,2,0,0,13,13,13,,,,,,,,,,,,,,,,,,,,,,,,,False,53,54,True,exp4.png,exp3.png,trial_right_image,-1,exp3.png,4,exp4.png,exp3.png,0,4,reversed,incorrect,0.9047031808313758,0,valid_lose,368.3550682000059,36,,,,,,,,,,,s_029,4,2020_Dec_21_1651,Reversal,3.2.4,59.936694869271,
14,exp1.png,exp2.png,2,0,2,0,0,14,14,14,,,,,,,,,,,,,,,,,,,,,,,,,False,54,55,False,exp1.png,exp2.png,trial_left_image,1,exp1.png,4,exp2.png,exp1.png,0,2,non-reversed,incorrect,0.9367337810651846,0,valid_lose,373.33810029999586,36,,,,,,,,,,,s_029,4,2020_Dec_21_1651,Reversal,3.2.4,59.936694869271,
15,exp3.png,exp4.png,2,0,2,0,0,15,15,15,,,,,,,,,,,,,,,,,,,,,,,,,False,55,56,False,exp3.png,exp4.png,trial_right_image,-1,exp4.png,4,exp4.png,exp3.png,1,3,reversed,correct,0.6165788190662032,1,valid_win,378.401826300018,37,,,,,,,,,,,s_029,4,2020_Dec_21_1651,Reversal,3.2.4,59.936694869271,
16,exp1.png,exp2.png,2,0,2,0,0,16,16,16,,,,,,,,,,,,,,,,,,,,,,,,,False,56,57,False,exp1.png,exp2.png,trial_right_image,-1,exp2.png,4,exp2.png,exp1.png,1,1,non-reversed,correct,0.43623477001364075,1,valid_win,382.4010431999923,38,,,,,,,,,,,s_029,4,2020_Dec_21_1651,Reversal,3.2.4,59.936694869271,
17,exp3.png,exp4.png,2,0,2,0,0,17,17,17,,,,,,,,,,,,,,,,,,,,,,,,,False,57,58,False,exp3.png,exp4.png,trial_right_image,-1,exp4.png,4,exp4.png,exp3.png,1,3,reversed,correct,0.007752567425825196,0,invalid_lose,386.50007149999146,38,,,,,,,,,,,s_029,4,2020_Dec_21_1651,Reversal,3.2.4,59.936694869271,
18,exp1.png,exp2.png,2,0,2,0,0,18,18,18,,,,,,,,,,,,,,,,,,,,,,,,,False,58,59,False,exp1.png,exp2.png,trial_right_image,-1,exp2.png,4,exp2.png,exp1.png,1,1,non-reversed,correct,0.8944000968068626,1,valid_win,390.58034059999045,39,,,,,,,,,,,s_029,4,2020_Dec_21_1651,Reversal,3.2.4,59.936694869271,
19,exp3.png,exp4.png,2,0,2,0,0,19,19,19,,,,,,,,,,,,,,,,,,,,,,,,,False,59,60,False,exp3.png,exp4.png,trial_right_image,-1,exp4.png,4,exp4.png,exp3.png,1,3,reversed,correct,0.21400185304769082,0,invalid_lose,394.58108030000585,39,,,,,,,,,,,s_029,4,2020_Dec_21_1651,Reversal,3.2.4,59.936694869271,
20,exp1.png,exp2.png,2,0,2,0,0,20,20,20,,,,,,,,,,,,,,,,,,,,,,,,,True,,,,,,,,,,,,,,,,,,,,,,,,,,,,,,,s_029,4,2020_Dec_21_1651,Reversal,3.2.4,59.936694869271,
,,,2,0,2,0,,,,,0,0,0,0,,,,,,,,,,,,,,,,,,,,,,,,,,,,,,,,,,,,,,,,,,0,100,50.0,50.0,,,,,,,s_029,4,2020_Dec_21_1651,Reversal,3.2.4,59.936694869271,
0,exp1.png,exp2.png,,,,,,,,,,,,,,,,,0,0,0,0,0,0,0,0,,,,,,,,,False,0,61,True,exp2.png,exp1.png,trial_left_image,1,exp2.png,4,exp2.png,exp1.png,1,1,non-reversed,correct,0.46191685783814074,1,valid_win,406.8265049000038,40,,,,,404.9561381000094,,,,,,s_029,4,2020_Dec_21_1651,Reversal,3.2.4,59.936694869271,
1,exp3.png,exp4.png,,,,,,,,,,,,,,,,,0,0,0,0,0,1,1,1,,,,,,,,,False,1,62,True,exp4.png,exp3.png,trial_left_image,1,exp4.png,4,exp3.png,exp4.png,1,3,reversed,incorrect,0.8675722871351794,0,valid_lose,410.92442359999404,40,,,,,,,,,,,s_029,4,2020_Dec_21_1651,Reversal,3.2.4,59.936694869271,
2,exp1.png,exp2.png,,,,,,,,,,,,,,,,,0,0,0,0,0,2,2,2,,,,,,,,,False,2,63,False,exp1.png,exp2.png,trial_right_image,-1,exp2.png,4,exp2.png,exp1.png,1,1,non-reversed,correct,0.8360955551747264,1,valid_win,415.0566507000185,41,,,,,,,,,,,s_029,4,2020_Dec_21_1651,Reversal,3.2.4,59.936694869271,
3,exp3.png,exp4.png,,,,,,,,,,,,,,,,,0,0,0,0,0,3,3,3,,,,,,,,,False,3,64,True,exp4.png,exp3.png,trial_right_image,-1,exp3.png,4,exp3.png,exp4.png,0,4,reversed,correct,0.6012852844051556,1,valid_win,419.0724440999911,42,,,,,,,,,,,s_029,4,2020_Dec_21_1651,Reversal,3.2.4,59.936694869271,
4,exp1.png,exp2.png,,,,,,,,,,,,,,,,,0,0,0,0,0,4,4,4,,,,,,,,,False,4,65,True,exp2.png,exp1.png,trial_left_image,1,exp2.png,4,exp2.png,exp1.png,1,1,non-reversed,correct,0.6609912289554458,1,valid_win,423.0881035999919,43,,,,,,,,,,,s_029,4,2020_Dec_21_1651,Reversal,3.2.4,59.936694869271,
5,exp3.png,exp4.png,,,,,,,,,,,,,,,,,0,0,0,0,0,5,5,5,,,,,,,,,False,5,66,True,exp4.png,exp3.png,trial_right_image,-1,exp3.png,4,exp3.png,exp4.png,0,4,reversed,correct,0.42403929312555033,1,valid_win,427.0194343000185,44,,,,,,,,,,,s_029,4,2020_Dec_21_1651,Reversal,3.2.4,59.936694869271,
6,exp1.png,exp2.png,,,,,,,,,,,,,,,,,0,0,0,0,0,6,6,6,,,,,,,,,False,6,67,False,exp1.png,exp2.png,trial_right_image,-1,exp2.png,4,exp2.png,exp1.png,1,1,non-reversed,correct,0.6637952449947284,1,valid_win,431.085312900017,45,,,,,,,,,,,s_029,4,2020_Dec_21_1651,Reversal,3.2.4,59.936694869271,
7,exp3.png,exp4.png,,,,,,,,,,,,,,,,,0,0,0,0,0,7,7,7,,,,,,,,,False,7,68,False,exp3.png,exp4.png,trial_left_image,1,exp3.png,4,exp3.png,exp4.png,0,4,reversed,correct,0.5337162159479271,1,valid_win,435.61617449999903,46,,,,,,,,,,,s_029,4,2020_Dec_21_1651,Reversal,3.2.4,59.936694869271,
8,exp1.png,exp2.png,,,,,,,,,,,,,,,,,0,0,0,0,0,8,8,8,,,,,,,,,False,8,69,False,exp1.png,exp2.png,trial_right_image,-1,exp2.png,4,exp2.png,exp1.png,1,1,non-reversed,correct,0.7314498106210057,1,valid_win,439.731760900002,47,,,,,,,,,,,s_029,4,2020_Dec_21_1651,Reversal,3.2.4,59.936694869271,
9,exp3.png,exp4.png,,,,,,,,,,,,,,,,,0,0,0,0,0,9,9,9,,,,,,,,,False,9,70,False,exp3.png,exp4.png,trial_left_image,1,exp3.png,4,exp3.png,exp4.png,0,4,reversed,correct,0.8597860372213602,1,valid_win,443.86317689999123,48,,,,,,,,,,,s_029,4,2020_Dec_21_1651,Reversal,3.2.4,59.936694869271,
10,exp1.png,exp2.png,,,,,,,,,,,,,,,,,0,0,0,0,0,10,10,10,,,,,,,,,False,10,71,True,exp2.png,exp1.png,trial_left_image,1,exp2.png,4,exp2.png,exp1.png,1,1,non-reversed,correct,0.7332410115647805,1,valid_win,448.2456619000004,49,,,,,,,,,,,s_029,4,2020_Dec_21_1651,Reversal,3.2.4,59.936694869271,
11,exp3.png,exp4.png,,,,,,,,,,,,,,,,,0,0,0,0,0,11,11,11,,,,,,,,,False,11,72,True,exp4.png,exp3.png,trial_right_image,-1,exp3.png,4,exp3.png,exp4.png,0,4,reversed,correct,0.36248641571525164,1,valid_win,452.2778087000188,50,,,,,,,,,,,s_029,4,2020_Dec_21_1651,Reversal,3.2.4,59.936694869271,
12,exp1.png,exp2.png,,,,,,,,,,,,,,,,,0,0,0,0,0,12,12,12,,,,,,,,,False,12,73,False,exp1.png,exp2.png,trial_right_image,-1,exp2.png,4,exp2.png,exp1.png,1,1,non-reversed,correct,0.4571667322507722,1,valid_win,456.6916978000081,51,,,,,,,,,,,s_029,4,2020_Dec_21_1651,Reversal,3.2.4,59.936694869271,
13,exp3.png,exp4.png,,,,,,,,,,,,,,,,,0,0,0,0,0,13,13,13,,,,,,,,,False,13,74,False,exp3.png,exp4.png,trial_left_image,1,exp3.png,4,exp3.png,exp4.png,0,4,reversed,correct,0.2765595372218279,1,valid_win,461.12519700001576,52,,,,,,,,,,,s_029,4,2020_Dec_21_1651,Reversal,3.2.4,59.936694869271,
14,exp1.png,exp2.png,,,,,,,,,,,,,,,,,0,0,0,0,0,14,14,14,,,,,,,,,False,14,75,False,exp1.png,exp2.png,trial_right_image,-1,exp2.png,4,exp2.png,exp1.png,1,1,non-reversed,correct,0.391734661220727,1,valid_win,465.6068490000034,53,,,,,,,,,,,s_029,4,2020_Dec_21_1651,Reversal,3.2.4,59.936694869271,
15,exp3.png,exp4.png,,,,,,,,,,,,,,,,,0,0,0,0,0,15,15,15,,,,,,,,,False,15,76,True,exp4.png,exp3.png,trial_right_image,-1,exp3.png,4,exp3.png,exp4.png,0,4,reversed,correct,0.2599661228290435,1,valid_win,470.02150940001593,54,,,,,,,,,,,s_029,4,2020_Dec_21_1651,Reversal,3.2.4,59.936694869271,
16,exp1.png,exp2.png,,,,,,,,,,,,,,,,,0,0,0,0,0,16,16,16,,,,,,,,,False,16,77,True,exp2.png,exp1.png,trial_left_image,1,exp2.png,4,exp2.png,exp1.png,1,1,non-reversed,correct,0.20242237632447657,0,invalid_lose,474.537473400007,54,,,,,,,,,,,s_029,4,2020_Dec_21_1651,Reversal,3.2.4,59.936694869271,
17,exp3.png,exp4.png,,,,,,,,,,,,,,,,,0,0,0,0,0,17,17,17,,,,,,,,,False,17,78,False,exp3.png,exp4.png,trial_left_image,1,exp3.png,4,exp3.png,exp4.png,0,4,reversed,correct,0.6854403992518369,1,valid_win,479.1510593999992,55,,,,,,,,,,,s_029,4,2020_Dec_21_1651,Reversal,3.2.4,59.936694869271,
18,exp1.png,exp2.png,,,,,,,,,,,,,,,,,0,0,0,0,0,18,18,18,,,,,,,,,False,18,79,True,exp2.png,exp1.png,trial_left_image,1,exp2.png,4,exp2.png,exp1.png,1,1,non-reversed,correct,0.9317845932105718,1,valid_win,483.20087679999415,56,,,,,,,,,,,s_029,4,2020_Dec_21_1651,Reversal,3.2.4,59.936694869271,
19,exp3.png,exp4.png,,,,,,,,,,,,,,,,,0,0,0,0,0,19,19,19,,,,,,,,,False,19,80,False,exp3.png,exp4.png,trial_left_image,1,exp3.png,4,exp3.png,exp4.png,0,4,reversed,correct,0.07373509080055063,0,invalid_lose,487.24848790001124,56,,,,,,,,,,,s_029,4,2020_Dec_21_1651,Reversal,3.2.4,59.936694869271,
20,exp1.png,exp2.png,,,,,,,,,,,,,,,,,0,0,0,0,0,20,20,20,,,,,,,,,True,,,,,,,,,,,,,,,,,,,,,,,,,,,,,,,s_029,4,2020_Dec_21_1651,Reversal,3.2.4,59.936694869271,
,,,,,,,,,,,,,,,,,,,0,0,0,0,,,,,0,0,0,0,,,,,,,,,,,,,,,,,,,,,,,,,,16,86,89,58,,,,,,,s_029,4,2020_Dec_21_1651,Reversal,3.2.4,59.936694869271,
0,exp1.png,exp2.png,,,,,,,,,,,,,,,,,1,0,1,0,0,0,0,0,,,,,,,,,False,20,81,True,exp2.png,exp1.png,trial_left_image,1,exp2.png,4,exp2.png,exp1.png,1,1,non-reversed,correct,0.07578735268153813,0,invalid_lose,506.8764635999978,56,,,,,,,,,,,s_029,4,2020_Dec_21_1651,Reversal,3.2.4,59.936694869271,
1,exp3.png,exp4.png,,,,,,,,,,,,,,,,,1,0,1,0,0,1,1,1,,,,,,,,,False,21,82,True,exp4.png,exp3.png,trial_right_image,-1,exp3.png,4,exp3.png,exp4.png,0,4,reversed,correct,0.3857758112736681,1,valid_win,511.3401361000142,57,,,,,,,,,,,s_029,4,2020_Dec_21_1651,Reversal,3.2.4,59.936694869271,
2,exp1.png,exp2.png,,,,,,,,,,,,,,,,,1,0,1,0,0,2,2,2,,,,,,,,,False,22,83,True,exp2.png,exp1.png,trial_left_image,1,exp2.png,4,exp2.png,exp1.png,1,1,non-reversed,correct,0.9780508523075059,1,valid_win,515.3736681000155,58,,,,,,,,,,,s_029,4,2020_Dec_21_1651,Reversal,3.2.4,59.936694869271,
3,exp3.png,exp4.png,,,,,,,,,,,,,,,,,1,0,1,0,0,3,3,3,,,,,,,,,False,23,84,True,exp4.png,exp3.png,trial_right_image,-1,exp3.png,4,exp3.png,exp4.png,0,4,reversed,correct,0.5334730675707692,1,valid_win,519.4219606000115,59,,,,,,,,,,,s_029,4,2020_Dec_21_1651,Reversal,3.2.4,59.936694869271,
4,exp1.png,exp2.png,,,,,,,,,,,,,,,,,1,0,1,0,0,4,4,4,,,,,,,,,False,24,85,True,exp2.png,exp1.png,trial_left_image,1,exp2.png,4,exp2.png,exp1.png,1,1,non-reversed,correct,0.23375138831023257,0,invalid_lose,523.4374653999985,59,,,,,,,,,,,s_029,4,2020_Dec_21_1651,Reversal,3.2.4,59.936694869271,
5,exp3.png,exp4.png,,,,,,,,,,,,,,,,,1,0,1,0,0,5,5,5,,,,,,,,,False,25,86,False,exp3.png,exp4.png,trial_left_image,1,exp3.png,4,exp3.png,exp4.png,0,4,reversed,correct,0.008024062300649115,0,invalid_lose,527.585859999992,59,,,,,,,,,,,s_029,4,2020_Dec_21_1651,Reversal,3.2.4,59.936694869271,
6,exp1.png,exp2.png,,,,,,,,,,,,,,,,,1,0,1,0,0,6,6,6,,,,,,,,,False,26,87,False,exp1.png,exp2.png,trial_left_image,1,exp1.png,4,exp2.png,exp1.png,0,2,non-reversed,incorrect,0.4531432647068294,0,valid_lose,531.6498823000002,59,,,,,,,,,,,s_029,4,2020_Dec_21_1651,Reversal,3.2.4,59.936694869271,
7,exp3.png,exp4.png,,,,,,,,,,,,,,,,,1,0,1,0,0,7,7,7,,,,,,,,,False,27,88,False,exp3.png,exp4.png,trial_left_image,1,exp3.png,4,exp3.png,exp4.png,0,4,reversed,correct,0.40617505503556794,1,valid_win,536.2660873999994,60,,,,,,,,,,,s_029,4,2020_Dec_21_1651,Reversal,3.2.4,59.936694869271,
8,exp1.png,exp2.png,,,,,,,,,,,,,,,,,1,0,1,0,0,8,8,8,,,,,,,,,False,28,89,True,exp2.png,exp1.png,trial_left_image,1,exp2.png,4,exp2.png,exp1.png,1,1,non-reversed,correct,0.9866136160430587,1,valid_win,540.298094800004,61,,,,,,,,,,,s_029,4,2020_Dec_21_1651,Reversal,3.2.4,59.936694869271,
9,exp3.png,exp4.png,,,,,,,,,,,,,,,,,1,0,1,0,0,9,9,9,,,,,,,,,False,29,90,False,exp3.png,exp4.png,trial_left_image,1,exp3.png,4,exp3.png,exp4.png,0,4,reversed,correct,0.5646913187353805,1,valid_win,544.7293948000006,62,,,,,,,,,,,s_029,4,2020_Dec_21_1651,Reversal,3.2.4,59.936694869271,
10,exp1.png,exp2.png,,,,,,,,,,,,,,,,,1,0,1,0,0,10,10,10,,,,,,,,,False,30,91,True,exp2.png,exp1.png,trial_left_image,1,exp2.png,4,exp2.png,exp1.png,1,1,non-reversed,correct,0.7901001120825577,1,valid_win,548.8457506000123,63,,,,,,,,,,,s_029,4,2020_Dec_21_1651,Reversal,3.2.4,59.936694869271,
11,exp3.png,exp4.png,,,,,,,,,,,,,,,,,1,0,1,0,0,11,11,11,,,,,,,,,False,31,92,False,exp3.png,exp4.png,trial_left_image,1,exp3.png,4,exp3.png,exp4.png,0,4,reversed,correct,0.15738575147991796,0,invalid_lose,552.9252558000153,63,,,,,,,,,,,s_029,4,2020_Dec_21_1651,Reversal,3.2.4,59.936694869271,
12,exp1.png,exp2.png,,,,,,,,,,,,,,,,,1,0,1,0,0,12,12,12,,,,,,,,,False,32,93,False,exp1.png,exp2.png,trial_right_image,-1,exp2.png,4,exp2.png,exp1.png,1,1,non-reversed,correct,0.1793073136370198,0,invalid_lose,557.1927670000005,63,,,,,,,,,,,s_029,4,2020_Dec_21_1651,Reversal,3.2.4,59.936694869271,
13,exp3.png,exp4.png,,,,,,,,,,,,,,,,,1,0,1,0,0,13,13,13,,,,,,,,,False,33,94,False,exp3.png,exp4.png,trial_left_image,1,exp3.png,4,exp3.png,exp4.png,0,4,reversed,correct,0.27467436846353355,1,valid_win,561.2246686000144,64,,,,,,,,,,,s_029,4,2020_Dec_21_1651,Reversal,3.2.4,59.936694869271,
14,exp1.png,exp2.png,,,,,,,,,,,,,,,,,1,0,1,0,0,14,14,14,,,,,,,,,False,34,95,True,exp2.png,exp1.png,trial_left_image,1,exp2.png,4,exp2.png,exp1.png,1,1,non-reversed,correct,0.3614916092689767,1,valid_win,565.3216506000026,65,,,,,,,,,,,s_029,4,2020_Dec_21_1651,Reversal,3.2.4,59.936694869271,
15,exp3.png,exp4.png,,,,,,,,,,,,,,,,,1,0,1,0,0,15,15,15,,,,,,,,,False,35,96,False,exp3.png,exp4.png,trial_left_image,1,exp3.png,4,exp3.png,exp4.png,0,4,reversed,correct,0.7112554096668496,1,valid_win,569.2536015000078,66,,,,,,,,,,,s_029,4,2020_Dec_21_1651,Reversal,3.2.4,59.936694869271,
16,exp1.png,exp2.png,,,,,,,,,,,,,,,,,1,0,1,0,0,16,16,16,,,,,,,,,False,36,97,True,exp2.png,exp1.png,trial_left_image,1,exp2.png,4,exp2.png,exp1.png,1,1,non-reversed,correct,0.38590614493455355,1,valid_win,573.3866037999978,67,,,,,,,,,,,s_029,4,2020_Dec_21_1651,Reversal,3.2.4,59.936694869271,
17,exp3.png,exp4.png,,,,,,,,,,,,,,,,,1,0,1,0,0,17,17,17,,,,,,,,,False,37,98,True,exp4.png,exp3.png,trial_right_image,-1,exp3.png,4,exp3.png,exp4.png,0,4,reversed,correct,0.881380821276564,1,valid_win,577.8511430000071,68,,,,,,,,,,,s_029,4,2020_Dec_21_1651,Reversal,3.2.4,59.936694869271,
18,exp1.png,exp2.png,,,,,,,,,,,,,,,,,1,0,1,0,0,18,18,18,,,,,,,,,False,38,99,False,exp1.png,exp2.png,trial_right_image,-1,exp2.png,4,exp2.png,exp1.png,1,1,non-reversed,correct,0.44817335925520485,1,valid_win,582.1008390999923,69,,,,,,,,,,,s_029,4,2020_Dec_21_1651,Reversal,3.2.4,59.936694869271,
19,exp3.png,exp4.png,,,,,,,,,,,,,,,,,1,0,1,0,0,19,19,19,,,,,,,,,False,39,100,False,exp3.png,exp4.png,trial_left_image,1,exp3.png,4,exp3.png,exp4.png,0,4,reversed,correct,0.04264041451114142,0,invalid_lose,586.0984548999986,69,,,,,,,,,,,s_029,4,2020_Dec_21_1651,Reversal,3.2.4,59.936694869271,
20,exp1.png,exp2.png,,,,,,,,,,,,,,,,,1,0,1,0,0,20,20,20,,,,,,,,,True,,,,,,,,,,,,,,,,,,,,,,,,,,,,,,,s_029,4,2020_Dec_21_1651,Reversal,3.2.4,59.936694869271,
,,,,,,,,,,,,,,,,,,,1,0,1,0,,,,,0,0,0,0,,,,,,,,,,,,,,,,,,,,,,,,,,19,76,84,62,,,,,,,s_029,4,2020_Dec_21_1651,Reversal,3.2.4,59.936694869271,
0,exp1.png,exp2.png,,,,,,,,,,,,,,,,,2,0,2,0,0,0,0,0,,,,,,,,,False,40,101,True,exp2.png,exp1.png,trial_left_image,1,exp2.png,4,exp2.png,exp1.png,1,1,non-reversed,correct,0.5304774985722418,1,valid_win,603.3600862000021,70,,,,,,,,,,,s_029,4,2020_Dec_21_1651,Reversal,3.2.4,59.936694869271,
1,exp3.png,exp4.png,,,,,,,,,,,,,,,,,2,0,2,0,0,1,1,1,,,,,,,,,False,41,102,True,exp4.png,exp3.png,trial_right_image,-1,exp3.png,4,exp3.png,exp4.png,0,4,reversed,correct,0.365630658278673,1,valid_win,607.7069162999978,71,,,,,,,,,,,s_029,4,2020_Dec_21_1651,Reversal,3.2.4,59.936694869271,
2,exp1.png,exp2.png,,,,,,,,,,,,,,,,,2,0,2,0,0,2,2,2,,,,,,,,,False,42,103,True,exp2.png,exp1.png,trial_left_image,1,exp2.png,4,exp2.png,exp1.png,1,1,non-reversed,correct,0.4601178567963994,1,valid_win,612.0246403999918,72,,,,,,,,,,,s_029,4,2020_Dec_21_1651,Reversal,3.2.4,59.936694869271,
3,exp3.png,exp4.png,,,,,,,,,,,,,,,,,2,0,2,0,0,3,3,3,,,,,,,,,False,43,104,True,exp4.png,exp3.png,trial_right_image,-1,exp3.png,4,exp3.png,exp4.png,0,4,reversed,correct,0.05706515634073284,0,invalid_lose,616.3877685999905,72,,,,,,,,,,,s_029,4,2020_Dec_21_1651,Reversal,3.2.4,59.936694869271,
4,exp1.png,exp2.png,,,,,,,,,,,,,,,,,2,0,2,0,0,4,4,4,,,,,,,,,False,44,105,True,exp2.png,exp1.png,trial_left_image,1,exp2.png,4,exp2.png,exp1.png,1,1,non-reversed,correct,0.6021244418093636,1,valid_win,620.4210726000019,73,,,,,,,,,,,s_029,4,2020_Dec_21_1651,Reversal,3.2.4,59.936694869271,
5,exp3.png,exp4.png,,,,,,,,,,,,,,,,,2,0,2,0,0,5,5,5,,,,,,,,,False,45,106,True,exp4.png,exp3.png,trial_left_image,1,exp4.png,4,exp3.png,exp4.png,1,3,reversed,incorrect,0.6037610369794918,0,valid_lose,624.4699031999917,73,,,,,,,,,,,s_029,4,2020_Dec_21_1651,Reversal,3.2.4,59.936694869271,
6,exp1.png,exp2.png,,,,,,,,,,,,,,,,,2,0,2,0,0,6,6,6,,,,,,,,,False,46,107,False,exp1.png,exp2.png,trial_right_image,-1,exp2.png,4,exp2.png,exp1.png,1,1,non-reversed,correct,0.5304529244605857,1,valid_win,628.6334166000015,74,,,,,,,,,,,s_029,4,2020_Dec_21_1651,Reversal,3.2.4,59.936694869271,
7,exp3.png,exp4.png,,,,,,,,,,,,,,,,,2,0,2,0,0,7,7,7,,,,,,,,,False,47,108,False,exp3.png,exp4.png,trial_left_image,1,exp3.png,4,exp3.png,exp4.png,0,4,reversed,correct,0.132158701620545,0,invalid_lose,632.7823138000094,74,,,,,,,,,,,s_029,4,2020_Dec_21_1651,Reversal,3.2.4,59.936694869271,
8,exp1.png,exp2.png,,,,,,,,,,,,,,,,,2,0,2,0,0,8,8,8,,,,,,,,,False,48,109,True,exp2.png,exp1.png,trial_left_image,1,exp2.png,4,exp2.png,exp1.png,1,1,non-reversed,correct,0.11201987483839182,0,invalid_lose,636.782472699997,74,,,,,,,,,,,s_029,4,2020_Dec_21_1651,Reversal,3.2.4,59.936694869271,
9,exp3.png,exp4.png,,,,,,,,,,,,,,,,,2,0,2,0,0,9,9,9,,,,,,,,,False,49,110,True,exp4.png,exp3.png,trial_right_image,-1,exp3.png,4,exp3.png,exp4.png,0,4,reversed,correct,0.7223215242591129,1,valid_win,641.079581500002,75,,,,,,,,,,,s_029,4,2020_Dec_21_1651,Reversal,3.2.4,59.936694869271,
10,exp1.png,exp2.png,,,,,,,,,,,,,,,,,2,0,2,0,0,10,10,10,,,,,,,,,False,50,111,True,exp2.png,exp1.png,trial_left_image,1,exp2.png,4,exp2.png,exp1.png,1,1,non-reversed,correct,0.18406632780681464,0,invalid_lose,645.0462916000106,75,,,,,,,,,,,s_029,4,2020_Dec_21_1651,Reversal,3.2.4,59.936694869271,
11,exp3.png,exp4.png,,,,,,,,,,,,,,,,,2,0,2,0,0,11,11,11,,,,,,,,,False,51,112,False,exp3.png,exp4.png,trial_left_image,1,exp3.png,4,exp3.png,exp4.png,0,4,reversed,correct,0.9055360462714954,1,valid_win,649.1785447000002,76,,,,,,,,,,,s_029,4,2020_Dec_21_1651,Reversal,3.2.4,59.936694869271,
12,exp1.png,exp2.png,,,,,,,,,,,,,,,,,2,0,2,0,0,12,12,12,,,,,,,,,False,52,113,False,exp1.png,exp2.png,trial_right_image,-1,exp2.png,4,exp2.png,exp1.png,1,1,non-reversed,correct,0.42190244864816784,1,valid_win,653.3598892000155,77,,,,,,,,,,,s_029,4,2020_Dec_21_1651,Reversal,3.2.4,59.936694869271,
13,exp3.png,exp4.png,,,,,,,,,,,,,,,,,2,0,2,0,0,13,13,13,,,,,,,,,False,53,114,False,exp3.png,exp4.png,trial_left_image,1,exp3.png,4,exp3.png,exp4.png,0,4,reversed,correct,0.7397329882800033,1,valid_win,658.3078139999998,78,,,,,,,,,,,s_029,4,2020_Dec_21_1651,Reversal,3.2.4,59.936694869271,
14,exp1.png,exp2.png,,,,,,,,,,,,,,,,,2,0,2,0,0,14,14,14,,,,,,,,,False,54,115,True,exp2.png,exp1.png,trial_left_image,1,exp2.png,4,exp2.png,exp1.png,1,1,non-reversed,correct,0.49064260527925474,1,valid_win,662.906333299994,79,,,,,,,,,,,s_029,4,2020_Dec_21_1651,Reversal,3.2.4,59.936694869271,
15,exp3.png,exp4.png,,,,,,,,,,,,,,,,,2,0,2,0,0,15,15,15,,,,,,,,,False,55,116,False,exp3.png,exp4.png,trial_left_image,1,exp3.png,4,exp3.png,exp4.png,0,4,reversed,correct,0.753072522624979,1,valid_win,667.1725224000111,80,,,,,,,,,,,s_029,4,2020_Dec_21_1651,Reversal,3.2.4,59.936694869271,
16,exp1.png,exp2.png,,,,,,,,,,,,,,,,,2,0,2,0,0,16,16,16,,,,,,,,,False,56,117,False,exp1.png,exp2.png,trial_right_image,-1,exp2.png,4,exp2.png,exp1.png,1,1,non-reversed,correct,0.7977607052235473,1,valid_win,671.3358396000112,81,,,,,,,,,,,s_029,4,2020_Dec_21_1651,Reversal,3.2.4,59.936694869271,
17,exp3.png,exp4.png,,,,,,,,,,,,,,,,,2,0,2,0,0,17,17,17,,,,,,,,,False,57,118,False,exp3.png,exp4.png,trial_left_image,1,exp3.png,4,exp3.png,exp4.png,0,4,reversed,correct,0.8484731739483037,1,valid_win,675.4359129999939,82,,,,,,,,,,,s_029,4,2020_Dec_21_1651,Reversal,3.2.4,59.936694869271,
18,exp1.png,exp2.png,,,,,,,,,,,,,,,,,2,0,2,0,0,18,18,18,,,,,,,,,False,58,119,False,exp1.png,exp2.png,trial_right_image,-1,exp2.png,4,exp2.png,exp1.png,1,1,non-reversed,correct,0.8748104771227749,1,valid_win,679.5157967999985,83,,,,,,,,,,,s_029,4,2020_Dec_21_1651,Reversal,3.2.4,59.936694869271,
19,exp3.png,exp4.png,,,,,,,,,,,,,,,,,2,0,2,0,0,19,19,19,,,,,,,,,False,59,120,False,exp3.png,exp4.png,trial_left_image,1,exp3.png,4,exp3.png,exp4.png,0,4,reversed,correct,0.9272625884642396,1,valid_win,683.4651269000024,84,,,,,,,,,,,s_029,4,2020_Dec_21_1651,Reversal,3.2.4,59.936694869271,
20,exp1.png,exp2.png,,,,,,,,,,,,,,,,,2,0,2,0,0,20,20,20,,,,,,,,,True,,,,,,,,,,,,,,,,,,,,,,,,,,,,,,,s_029,4,2020_Dec_21_1651,Reversal,3.2.4,59.936694869271,
,,,,,,,,,,,,,,,,,,,2,0,2,0,,,,,0,0,0,0,,,,,,,,,,,,,,,,,,,,,,,,,,10,87,86,64,,,,,,,s_029,4,2020_Dec_21_1651,Reversal,3.2.4,59.936694869271,
,,,,,,,,,,,,,,,,,,,,,,,,,,,,,,,,,,,,,,,,,,,,,,,,,,,,,,,84,,,,,,104,47,57,290.2881354999845,0,,,,,,,
