trial_index,trial_image1_file,trial_image2_file,learning_outer_loop.thisRepN,learning_outer_loop.thisTrialN,learning_outer_loop.thisN,learning_outer_loop.thisIndex,learning_inner_loop.thisRepN,learning_inner_loop.thisTrialN,learning_inner_loop.thisN,learning_inner_loop.thisIndex,learning_estimation_outer_loop.thisRepN,learning_estimation_outer_loop.thisTrialN,learning_estimation_outer_loop.thisN,learning_estimation_outer_loop.thisIndex,learning_estimation_inner_loop.thisRepN,learning_estimation_inner_loop.thisTrialN,learning_estimation_inner_loop.thisN,learning_estimation_inner_loop.thisIndex,reversal_outer_loop.thisRepN,reversal_outer_loop.thisTrialN,reversal_outer_loop.thisN,reversal_outer_loop.thisIndex,reversal_inner_loop.thisRepN,reversal_inner_loop.thisTrialN,reversal_inner_loop.thisN,reversal_inner_loop.thisIndex,reversal_estimation_outer_loop.thisRepN,reversal_estimation_outer_loop.thisTrialN,reversal_estimation_outer_loop.thisN,reversal_estimation_outer_loop.thisIndex,reversal_estimation_inner_loop.thisRepN,reversal_estimation_inner_loop.thisTrialN,reversal_estimation_inner_loop.thisN,reversal_estimation_inner_loop.thisIndex,skipped,total_trial_counter,trial_num,left_right_flip,left_image_file,right_image_file,clicked_stimulus_side,side,clicked_stimulus,version,high_prob_image_file,low_prob_image_file,choice_a,choice_b,pair_type,correct,trial_feedback_random,reward,trial_type,overall_time_after_trial,score,estimation_exp1.png,estimation_exp2.png,estimation_exp3.png,estimation_exp4.png,total_learning_time,total_correct,learning_correct,reversal_correct,total_reversal_time,extra_block,participant,ver,date,expName,psychopyVersion,frameRate,
0,exp1.png,exp2.png,0,0,0,0,0,0,0,0,,,,,,,,,,,,,,,,,,,,,,,,,True,,,,,,,,,,,,,,,,,,,,,,,,,,,,,,,s_028,1,2020_Dec_17_1618,Reversal,3.2.4,60.06200801376766,
1,exp3.png,exp4.png,0,0,0,0,0,1,1,1,,,,,,,,,,,,,,,,,,,,,,,,,False,0,1,True,exp4.png,exp3.png,trial_right_image,-1,exp3.png,1,exp3.png,exp4.png,1,1,non-reversed,correct,0.5322936522257663,1,valid_win,3.7119007000001147,1,,,,,,,,,,,s_028,1,2020_Dec_17_1618,Reversal,3.2.4,60.06200801376766,
2,exp1.png,exp2.png,0,0,0,0,0,2,2,2,,,,,,,,,,,,,,,,,,,,,,,,,False,1,2,True,exp2.png,exp1.png,trial_right_image,-1,exp1.png,1,exp1.png,exp2.png,1,3,reversed,correct,0.2806543839102429,1,valid_win,9.410425700014457,2,,,,,,,,,,,s_028,1,2020_Dec_17_1618,Reversal,3.2.4,60.06200801376766,
3,exp3.png,exp4.png,0,0,0,0,0,3,3,3,,,,,,,,,,,,,,,,,,,,,,,,,False,2,3,False,exp3.png,exp4.png,trial_left_image,1,exp3.png,1,exp3.png,exp4.png,1,1,non-reversed,correct,0.015095971445216572,0,invalid_lose,15.674638300086372,2,,,,,,,,,,,s_028,1,2020_Dec_17_1618,Reversal,3.2.4,60.06200801376766,
4,exp1.png,exp2.png,0,0,0,0,0,4,4,4,,,,,,,,,,,,,,,,,,,,,,,,,False,3,4,False,exp1.png,exp2.png,trial_left_image,1,exp1.png,1,exp1.png,exp2.png,1,3,reversed,correct,0.37821130282521065,1,valid_win,23.25579550000839,3,,,,,,,,,,,s_028,1,2020_Dec_17_1618,Reversal,3.2.4,60.06200801376766,
5,exp3.png,exp4.png,0,0,0,0,0,5,5,5,,,,,,,,,,,,,,,,,,,,,,,,,False,4,5,True,exp4.png,exp3.png,trial_left_image,1,exp4.png,1,exp3.png,exp4.png,0,2,non-reversed,incorrect,0.21260386090776096,1,invalid_win,30.636234200093895,4,,,,,,,,,,,s_028,1,2020_Dec_17_1618,Reversal,3.2.4,60.06200801376766,
6,exp1.png,exp2.png,0,0,0,0,0,6,6,6,,,,,,,,,,,,,,,,,,,,,,,,,False,5,6,False,exp1.png,exp2.png,trial_right_image,-1,exp2.png,1,exp1.png,exp2.png,0,4,reversed,incorrect,0.07510317659582288,1,invalid_win,35.168151000048965,5,,,,,,,,,,,s_028,1,2020_Dec_17_1618,Reversal,3.2.4,60.06200801376766,
7,exp3.png,exp4.png,0,0,0,0,0,7,7,7,,,,,,,,,,,,,,,,,,,,,,,,,False,6,7,True,exp4.png,exp3.png,trial_left_image,1,exp4.png,1,exp3.png,exp4.png,0,2,non-reversed,incorrect,0.9011434177302822,0,valid_lose,39.399976700078696,5,,,,,,,,,,,s_028,1,2020_Dec_17_1618,Reversal,3.2.4,60.06200801376766,
8,exp1.png,exp2.png,0,0,0,0,0,8,8,8,,,,,,,,,,,,,,,,,,,,,,,,,False,7,8,False,exp1.png,exp2.png,trial_right_image,-1,exp2.png,1,exp1.png,exp2.png,0,4,reversed,incorrect,0.8566805111155018,0,valid_lose,45.297852999996394,5,,,,,,,,,,,s_028,1,2020_Dec_17_1618,Reversal,3.2.4,60.06200801376766,
9,exp3.png,exp4.png,0,0,0,0,0,9,9,9,,,,,,,,,,,,,,,,,,,,,,,,,False,8,9,False,exp3.png,exp4.png,trial_right_image,-1,exp4.png,1,exp3.png,exp4.png,0,2,non-reversed,incorrect,0.9371111440009814,0,valid_lose,49.57980429998133,5,,,,,,,,,,,s_028,1,2020_Dec_17_1618,Reversal,3.2.4,60.06200801376766,
10,exp1.png,exp2.png,0,0,0,0,0,10,10,10,,,,,,,,,,,,,,,,,,,,,,,,,False,9,10,True,exp2.png,exp1.png,trial_right_image,-1,exp1.png,1,exp1.png,exp2.png,1,3,reversed,correct,0.8312091115983307,1,valid_win,53.59519120003097,6,,,,,,,,,,,s_028,1,2020_Dec_17_1618,Reversal,3.2.4,60.06200801376766,
11,exp3.png,exp4.png,0,0,0,0,0,11,11,11,,,,,,,,,,,,,,,,,,,,,,,,,False,10,11,True,exp4.png,exp3.png,trial_right_image,-1,exp3.png,1,exp3.png,exp4.png,1,1,non-reversed,correct,0.24209816307950005,0,invalid_lose,57.77738430001773,6,,,,,,,,,,,s_028,1,2020_Dec_17_1618,Reversal,3.2.4,60.06200801376766,
12,exp1.png,exp2.png,0,0,0,0,0,12,12,12,,,,,,,,,,,,,,,,,,,,,,,,,False,11,12,False,exp1.png,exp2.png,trial_left_image,1,exp1.png,1,exp1.png,exp2.png,1,3,reversed,correct,0.9799831602268841,1,valid_win,62.02598420006689,7,,,,,,,,,,,s_028,1,2020_Dec_17_1618,Reversal,3.2.4,60.06200801376766,
13,exp3.png,exp4.png,0,0,0,0,0,13,13,13,,,,,,,,,,,,,,,,,,,,,,,,,False,12,13,True,exp4.png,exp3.png,trial_right_image,-1,exp3.png,1,exp3.png,exp4.png,1,1,non-reversed,correct,0.5871650548930555,1,valid_win,69.1566663000267,8,,,,,,,,,,,s_028,1,2020_Dec_17_1618,Reversal,3.2.4,60.06200801376766,
14,exp1.png,exp2.png,0,0,0,0,0,14,14,14,,,,,,,,,,,,,,,,,,,,,,,,,False,13,14,True,exp2.png,exp1.png,trial_left_image,1,exp2.png,1,exp1.png,exp2.png,0,4,reversed,incorrect,0.47239335297075413,0,valid_lose,75.15479200007394,8,,,,,,,,,,,s_028,1,2020_Dec_17_1618,Reversal,3.2.4,60.06200801376766,
15,exp3.png,exp4.png,0,0,0,0,0,15,15,15,,,,,,,,,,,,,,,,,,,,,,,,,False,14,15,True,exp4.png,exp3.png,trial_right_image,-1,exp3.png,1,exp3.png,exp4.png,1,1,non-reversed,correct,0.254653898817638,1,valid_win,80.36935190006625,9,,,,,,,,,,,s_028,1,2020_Dec_17_1618,Reversal,3.2.4,60.06200801376766,
16,exp1.png,exp2.png,0,0,0,0,0,16,16,16,,,,,,,,,,,,,,,,,,,,,,,,,False,15,16,True,exp2.png,exp1.png,trial_left_image,1,exp2.png,1,exp1.png,exp2.png,0,4,reversed,incorrect,0.8462553153381619,0,valid_lose,87.53368530003354,9,,,,,,,,,,,s_028,1,2020_Dec_17_1618,Reversal,3.2.4,60.06200801376766,
17,exp3.png,exp4.png,0,0,0,0,0,17,17,17,,,,,,,,,,,,,,,,,,,,,,,,,False,16,17,False,exp3.png,exp4.png,trial_right_image,-1,exp4.png,1,exp3.png,exp4.png,0,2,non-reversed,incorrect,0.8809016311103295,0,valid_lose,93.9817597999936,9,,,,,,,,,,,s_028,1,2020_Dec_17_1618,Reversal,3.2.4,60.06200801376766,
18,exp1.png,exp2.png,0,0,0,0,0,18,18,18,,,,,,,,,,,,,,,,,,,,,,,,,False,17,18,False,exp1.png,exp2.png,trial_right_image,-1,exp2.png,1,exp1.png,exp2.png,0,4,reversed,incorrect,0.4254528852997773,0,valid_lose,97.81266150006559,9,,,,,,,,,,,s_028,1,2020_Dec_17_1618,Reversal,3.2.4,60.06200801376766,
19,exp3.png,exp4.png,0,0,0,0,0,19,19,19,,,,,,,,,,,,,,,,,,,,,,,,,False,18,19,False,exp3.png,exp4.png,trial_left_image,1,exp3.png,1,exp3.png,exp4.png,1,1,non-reversed,correct,0.6243742161590922,1,valid_win,100.92406960006338,10,,,,,,,,,,,s_028,1,2020_Dec_17_1618,Reversal,3.2.4,60.06200801376766,
20,exp1.png,exp2.png,0,0,0,0,0,20,20,20,,,,,,,,,,,,,,,,,,,,,,,,,False,19,20,False,exp1.png,exp2.png,trial_right_image,-1,exp2.png,1,exp1.png,exp2.png,0,4,reversed,incorrect,0.79846527161107,0,valid_lose,108.18808660004288,10,,,,,,,,,,,s_028,1,2020_Dec_17_1618,Reversal,3.2.4,60.06200801376766,
,,,0,0,0,0,,,,,0,0,0,0,,,,,,,,,,,,,,,,,,,,,,,,,,,,,,,,,,,,,,,,,,29,0,100,73,,,,,,,s_028,1,2020_Dec_17_1618,Reversal,3.2.4,60.06200801376766,
0,exp1.png,exp2.png,1,0,1,0,0,0,0,0,,,,,,,,,,,,,,,,,,,,,,,,,True,,,,,,,,,,,,,,,,,,,,,,,,,,,,,,,s_028,1,2020_Dec_17_1618,Reversal,3.2.4,60.06200801376766,
1,exp3.png,exp4.png,1,0,1,0,0,1,1,1,,,,,,,,,,,,,,,,,,,,,,,,,False,20,21,False,exp3.png,exp4.png,trial_left_image,1,exp3.png,1,exp3.png,exp4.png,1,1,non-reversed,correct,0.4021229966600306,1,valid_win,141.16589639999438,11,,,,,,,,,,,s_028,1,2020_Dec_17_1618,Reversal,3.2.4,60.06200801376766,
2,exp1.png,exp2.png,1,0,1,0,0,2,2,2,,,,,,,,,,,,,,,,,,,,,,,,,False,21,22,True,exp2.png,exp1.png,trial_right_image,-1,exp1.png,1,exp1.png,exp2.png,1,3,reversed,correct,0.4901929399942323,1,valid_win,146.79639100003988,12,,,,,,,,,,,s_028,1,2020_Dec_17_1618,Reversal,3.2.4,60.06200801376766,
3,exp3.png,exp4.png,1,0,1,0,0,3,3,3,,,,,,,,,,,,,,,,,,,,,,,,,False,22,23,True,exp4.png,exp3.png,trial_left_image,1,exp4.png,1,exp3.png,exp4.png,0,2,non-reversed,incorrect,0.0310459943152408,1,invalid_win,152.7116032000631,13,,,,,,,,,,,s_028,1,2020_Dec_17_1618,Reversal,3.2.4,60.06200801376766,
4,exp1.png,exp2.png,1,0,1,0,0,4,4,4,,,,,,,,,,,,,,,,,,,,,,,,,False,23,24,True,exp2.png,exp1.png,trial_right_image,-1,exp1.png,1,exp1.png,exp2.png,1,3,reversed,correct,0.43604879501628335,1,valid_win,158.45855119999032,14,,,,,,,,,,,s_028,1,2020_Dec_17_1618,Reversal,3.2.4,60.06200801376766,
5,exp3.png,exp4.png,1,0,1,0,0,5,5,5,,,,,,,,,,,,,,,,,,,,,,,,,False,24,25,False,exp3.png,exp4.png,trial_left_image,1,exp3.png,1,exp3.png,exp4.png,1,1,non-reversed,correct,0.6825103598692263,1,valid_win,165.34083190001547,15,,,,,,,,,,,s_028,1,2020_Dec_17_1618,Reversal,3.2.4,60.06200801376766,
6,exp1.png,exp2.png,1,0,1,0,0,6,6,6,,,,,,,,,,,,,,,,,,,,,,,,,False,25,26,False,exp1.png,exp2.png,trial_left_image,1,exp1.png,1,exp1.png,exp2.png,1,3,reversed,correct,0.9846100423225878,1,valid_win,170.50589660007972,16,,,,,,,,,,,s_028,1,2020_Dec_17_1618,Reversal,3.2.4,60.06200801376766,
7,exp3.png,exp4.png,1,0,1,0,0,7,7,7,,,,,,,,,,,,,,,,,,,,,,,,,False,26,27,True,exp4.png,exp3.png,trial_right_image,-1,exp3.png,1,exp3.png,exp4.png,1,1,non-reversed,correct,0.8274136515689282,1,valid_win,175.67104070005007,17,,,,,,,,,,,s_028,1,2020_Dec_17_1618,Reversal,3.2.4,60.06200801376766,
8,exp1.png,exp2.png,1,0,1,0,0,8,8,8,,,,,,,,,,,,,,,,,,,,,,,,,False,27,28,False,exp1.png,exp2.png,trial_left_image,1,exp1.png,1,exp1.png,exp2.png,1,3,reversed,correct,0.820787716811784,1,valid_win,180.4859487999929,18,,,,,,,,,,,s_028,1,2020_Dec_17_1618,Reversal,3.2.4,60.06200801376766,
9,exp3.png,exp4.png,1,0,1,0,0,9,9,9,,,,,,,,,,,,,,,,,,,,,,,,,False,28,29,False,exp3.png,exp4.png,trial_left_image,1,exp3.png,1,exp3.png,exp4.png,1,1,non-reversed,correct,0.8604402547545157,1,valid_win,185.2676193000516,19,,,,,,,,,,,s_028,1,2020_Dec_17_1618,Reversal,3.2.4,60.06200801376766,
10,exp1.png,exp2.png,1,0,1,0,0,10,10,10,,,,,,,,,,,,,,,,,,,,,,,,,False,29,30,True,exp2.png,exp1.png,trial_right_image,-1,exp1.png,1,exp1.png,exp2.png,1,3,reversed,correct,0.48407008207114666,1,valid_win,189.91483280004468,20,,,,,,,,,,,s_028,1,2020_Dec_17_1618,Reversal,3.2.4,60.06200801376766,
11,exp3.png,exp4.png,1,0,1,0,0,11,11,11,,,,,,,,,,,,,,,,,,,,,,,,,False,30,31,True,exp4.png,exp3.png,trial_right_image,-1,exp3.png,1,exp3.png,exp4.png,1,1,non-reversed,correct,0.7188610478352991,1,valid_win,194.31427370000165,21,,,,,,,,,,,s_028,1,2020_Dec_17_1618,Reversal,3.2.4,60.06200801376766,
12,exp1.png,exp2.png,1,0,1,0,0,12,12,12,,,,,,,,,,,,,,,,,,,,,,,,,False,31,32,True,exp2.png,exp1.png,trial_right_image,-1,exp1.png,1,exp1.png,exp2.png,1,3,reversed,correct,0.08078931544787404,0,invalid_lose,199.9623618000187,21,,,,,,,,,,,s_028,1,2020_Dec_17_1618,Reversal,3.2.4,60.06200801376766,
13,exp3.png,exp4.png,1,0,1,0,0,13,13,13,,,,,,,,,,,,,,,,,,,,,,,,,False,32,33,False,exp3.png,exp4.png,trial_left_image,1,exp3.png,1,exp3.png,exp4.png,1,1,non-reversed,correct,0.0070120244763121065,0,invalid_lose,204.7935183000518,21,,,,,,,,,,,s_028,1,2020_Dec_17_1618,Reversal,3.2.4,60.06200801376766,
14,exp1.png,exp2.png,1,0,1,0,0,14,14,14,,,,,,,,,,,,,,,,,,,,,,,,,False,33,34,False,exp1.png,exp2.png,trial_right_image,-1,exp2.png,1,exp1.png,exp2.png,0,4,reversed,incorrect,0.7098072654783444,0,valid_lose,209.65927180007566,21,,,,,,,,,,,s_028,1,2020_Dec_17_1618,Reversal,3.2.4,60.06200801376766,
15,exp3.png,exp4.png,1,0,1,0,0,15,15,15,,,,,,,,,,,,,,,,,,,,,,,,,False,34,35,False,exp3.png,exp4.png,trial_left_image,1,exp3.png,1,exp3.png,exp4.png,1,1,non-reversed,correct,0.4616380458693973,1,valid_win,214.60801219998393,22,,,,,,,,,,,s_028,1,2020_Dec_17_1618,Reversal,3.2.4,60.06200801376766,
16,exp1.png,exp2.png,1,0,1,0,0,16,16,16,,,,,,,,,,,,,,,,,,,,,,,,,False,35,36,True,exp2.png,exp1.png,trial_left_image,1,exp2.png,1,exp1.png,exp2.png,0,4,reversed,incorrect,0.5646909882003147,0,valid_lose,220.12231590005103,22,,,,,,,,,,,s_028,1,2020_Dec_17_1618,Reversal,3.2.4,60.06200801376766,
17,exp3.png,exp4.png,1,0,1,0,0,17,17,17,,,,,,,,,,,,,,,,,,,,,,,,,False,36,37,True,exp4.png,exp3.png,trial_right_image,-1,exp3.png,1,exp3.png,exp4.png,1,1,non-reversed,correct,0.4741052914207484,1,valid_win,225.30415650003124,23,,,,,,,,,,,s_028,1,2020_Dec_17_1618,Reversal,3.2.4,60.06200801376766,
18,exp1.png,exp2.png,1,0,1,0,0,18,18,18,,,,,,,,,,,,,,,,,,,,,,,,,False,37,38,False,exp1.png,exp2.png,trial_left_image,1,exp1.png,1,exp1.png,exp2.png,1,3,reversed,correct,0.7232604435160052,1,valid_win,229.80220250005368,24,,,,,,,,,,,s_028,1,2020_Dec_17_1618,Reversal,3.2.4,60.06200801376766,
19,exp3.png,exp4.png,1,0,1,0,0,19,19,19,,,,,,,,,,,,,,,,,,,,,,,,,False,38,39,False,exp3.png,exp4.png,trial_left_image,1,exp3.png,1,exp3.png,exp4.png,1,1,non-reversed,correct,0.6656847541219958,1,valid_win,234.31747030001134,25,,,,,,,,,,,s_028,1,2020_Dec_17_1618,Reversal,3.2.4,60.06200801376766,
20,exp1.png,exp2.png,1,0,1,0,0,20,20,20,,,,,,,,,,,,,,,,,,,,,,,,,False,39,40,True,exp2.png,exp1.png,trial_right_image,-1,exp1.png,1,exp1.png,exp2.png,1,3,reversed,correct,0.8199239134629799,1,valid_win,239.2993611000711,26,,,,,,,,,,,s_028,1,2020_Dec_17_1618,Reversal,3.2.4,60.06200801376766,
,,,1,0,1,0,,,,,0,0,0,0,,,,,,,,,,,,,,,,,,,,,,,,,,,,,,,,,,,,,,,,,,100,0,100,7,,,,,,,s_028,1,2020_Dec_17_1618,Reversal,3.2.4,60.06200801376766,
0,exp1.png,exp2.png,2,0,2,0,0,0,0,0,,,,,,,,,,,,,,,,,,,,,,,,,True,,,,,,,,,,,,,,,,,,,,,,,,,,,,,,,s_028,1,2020_Dec_17_1618,Reversal,3.2.4,60.06200801376766,
1,exp3.png,exp4.png,2,0,2,0,0,1,1,1,,,,,,,,,,,,,,,,,,,,,,,,,False,40,41,True,exp4.png,exp3.png,trial_right_image,-1,exp3.png,1,exp3.png,exp4.png,1,1,non-reversed,correct,0.5344143867988601,1,valid_win,258.593096000026,27,,,,,,,,,,,s_028,1,2020_Dec_17_1618,Reversal,3.2.4,60.06200801376766,
2,exp1.png,exp2.png,2,0,2,0,0,2,2,2,,,,,,,,,,,,,,,,,,,,,,,,,False,41,42,False,exp1.png,exp2.png,trial_left_image,1,exp1.png,1,exp1.png,exp2.png,1,3,reversed,correct,0.6866960172996547,1,valid_win,263.29118140006904,28,,,,,,,,,,,s_028,1,2020_Dec_17_1618,Reversal,3.2.4,60.06200801376766,
3,exp3.png,exp4.png,2,0,2,0,0,3,3,3,,,,,,,,,,,,,,,,,,,,,,,,,False,42,43,False,exp3.png,exp4.png,trial_left_image,1,exp3.png,1,exp3.png,exp4.png,1,1,non-reversed,correct,0.26829672732941023,1,valid_win,267.82224220002536,29,,,,,,,,,,,s_028,1,2020_Dec_17_1618,Reversal,3.2.4,60.06200801376766,
4,exp1.png,exp2.png,2,0,2,0,0,4,4,4,,,,,,,,,,,,,,,,,,,,,,,,,False,43,44,True,exp2.png,exp1.png,trial_right_image,-1,exp1.png,1,exp1.png,exp2.png,1,3,reversed,correct,0.7706105741242995,1,valid_win,272.87157359998673,30,,,,,,,,,,,s_028,1,2020_Dec_17_1618,Reversal,3.2.4,60.06200801376766,
5,exp3.png,exp4.png,2,0,2,0,0,5,5,5,,,,,,,,,,,,,,,,,,,,,,,,,False,44,45,False,exp3.png,exp4.png,trial_left_image,1,exp3.png,1,exp3.png,exp4.png,1,1,non-reversed,correct,0.03441624562230772,0,invalid_lose,277.3863400000846,30,,,,,,,,,,,s_028,1,2020_Dec_17_1618,Reversal,3.2.4,60.06200801376766,
6,exp1.png,exp2.png,2,0,2,0,0,6,6,6,,,,,,,,,,,,,,,,,,,,,,,,,False,45,46,True,exp2.png,exp1.png,trial_right_image,-1,exp1.png,1,exp1.png,exp2.png,1,3,reversed,correct,0.8912079862115526,1,valid_win,281.8847698000027,31,,,,,,,,,,,s_028,1,2020_Dec_17_1618,Reversal,3.2.4,60.06200801376766,
7,exp3.png,exp4.png,2,0,2,0,0,7,7,7,,,,,,,,,,,,,,,,,,,,,,,,,False,46,47,True,exp4.png,exp3.png,trial_right_image,-1,exp3.png,1,exp3.png,exp4.png,1,1,non-reversed,correct,0.1032491784797821,0,invalid_lose,286.78197790007107,31,,,,,,,,,,,s_028,1,2020_Dec_17_1618,Reversal,3.2.4,60.06200801376766,
8,exp1.png,exp2.png,2,0,2,0,0,8,8,8,,,,,,,,,,,,,,,,,,,,,,,,,False,47,48,False,exp1.png,exp2.png,trial_left_image,1,exp1.png,1,exp1.png,exp2.png,1,3,reversed,correct,0.8616760133605907,1,valid_win,291.7971707000397,32,,,,,,,,,,,s_028,1,2020_Dec_17_1618,Reversal,3.2.4,60.06200801376766,
9,exp3.png,exp4.png,2,0,2,0,0,9,9,9,,,,,,,,,,,,,,,,,,,,,,,,,False,48,49,False,exp3.png,exp4.png,trial_left_image,1,exp3.png,1,exp3.png,exp4.png,1,1,non-reversed,correct,0.06530283384670366,0,invalid_lose,296.278867200017,32,,,,,,,,,,,s_028,1,2020_Dec_17_1618,Reversal,3.2.4,60.06200801376766,
10,exp1.png,exp2.png,2,0,2,0,0,10,10,10,,,,,,,,,,,,,,,,,,,,,,,,,False,49,50,True,exp2.png,exp1.png,trial_right_image,-1,exp1.png,1,exp1.png,exp2.png,1,3,reversed,correct,0.6567969320120051,1,valid_win,301.02709059999324,33,,,,,,,,,,,s_028,1,2020_Dec_17_1618,Reversal,3.2.4,60.06200801376766,
11,exp3.png,exp4.png,2,0,2,0,0,11,11,11,,,,,,,,,,,,,,,,,,,,,,,,,False,50,51,True,exp4.png,exp3.png,trial_right_image,-1,exp3.png,1,exp3.png,exp4.png,1,1,non-reversed,correct,0.7815724652998849,1,valid_win,305.70963910000864,34,,,,,,,,,,,s_028,1,2020_Dec_17_1618,Reversal,3.2.4,60.06200801376766,
12,exp1.png,exp2.png,2,0,2,0,0,12,12,12,,,,,,,,,,,,,,,,,,,,,,,,,False,51,52,True,exp2.png,exp1.png,trial_right_image,-1,exp1.png,1,exp1.png,exp2.png,1,3,reversed,correct,0.6060029699997879,1,valid_win,310.1421251000138,35,,,,,,,,,,,s_028,1,2020_Dec_17_1618,Reversal,3.2.4,60.06200801376766,
13,exp3.png,exp4.png,2,0,2,0,0,13,13,13,,,,,,,,,,,,,,,,,,,,,,,,,False,52,53,False,exp3.png,exp4.png,trial_left_image,1,exp3.png,1,exp3.png,exp4.png,1,1,non-reversed,correct,0.7708376947157084,1,valid_win,314.65774920000695,36,,,,,,,,,,,s_028,1,2020_Dec_17_1618,Reversal,3.2.4,60.06200801376766,
14,exp1.png,exp2.png,2,0,2,0,0,14,14,14,,,,,,,,,,,,,,,,,,,,,,,,,False,53,54,True,exp2.png,exp1.png,trial_right_image,-1,exp1.png,1,exp1.png,exp2.png,1,3,reversed,correct,0.12894172216097155,0,invalid_lose,318.69298360007815,36,,,,,,,,,,,s_028,1,2020_Dec_17_1618,Reversal,3.2.4,60.06200801376766,
15,exp3.png,exp4.png,2,0,2,0,0,15,15,15,,,,,,,,,,,,,,,,,,,,,,,,,False,54,55,True,exp4.png,exp3.png,trial_right_image,-1,exp3.png,1,exp3.png,exp4.png,1,1,non-reversed,correct,0.39094208126976837,1,valid_win,322.9709834000096,37,,,,,,,,,,,s_028,1,2020_Dec_17_1618,Reversal,3.2.4,60.06200801376766,
16,exp1.png,exp2.png,2,0,2,0,0,16,16,16,,,,,,,,,,,,,,,,,,,,,,,,,False,55,56,False,exp1.png,exp2.png,trial_left_image,1,exp1.png,1,exp1.png,exp2.png,1,3,reversed,correct,0.24275662100671702,0,invalid_lose,327.6194989000214,37,,,,,,,,,,,s_028,1,2020_Dec_17_1618,Reversal,3.2.4,60.06200801376766,
17,exp3.png,exp4.png,2,0,2,0,0,17,17,17,,,,,,,,,,,,,,,,,,,,,,,,,False,56,57,False,exp3.png,exp4.png,trial_left_image,1,exp3.png,1,exp3.png,exp4.png,1,1,non-reversed,correct,0.7024346114303679,1,valid_win,332.61813690001145,38,,,,,,,,,,,s_028,1,2020_Dec_17_1618,Reversal,3.2.4,60.06200801376766,
18,exp1.png,exp2.png,2,0,2,0,0,18,18,18,,,,,,,,,,,,,,,,,,,,,,,,,False,57,58,False,exp1.png,exp2.png,trial_left_image,1,exp1.png,1,exp1.png,exp2.png,1,3,reversed,correct,0.5406063008974377,1,valid_win,338.96560950006824,39,,,,,,,,,,,s_028,1,2020_Dec_17_1618,Reversal,3.2.4,60.06200801376766,
19,exp3.png,exp4.png,2,0,2,0,0,19,19,19,,,,,,,,,,,,,,,,,,,,,,,,,False,58,59,False,exp3.png,exp4.png,trial_left_image,1,exp3.png,1,exp3.png,exp4.png,1,1,non-reversed,correct,0.6364016186859144,1,valid_win,343.51426890003495,40,,,,,,,,,,,s_028,1,2020_Dec_17_1618,Reversal,3.2.4,60.06200801376766,
20,exp1.png,exp2.png,2,0,2,0,0,20,20,20,,,,,,,,,,,,,,,,,,,,,,,,,False,59,60,True,exp2.png,exp1.png,trial_right_image,-1,exp1.png,1,exp1.png,exp2.png,1,3,reversed,correct,0.9470089784274619,1,valid_win,348.02910070004873,41,,,,,,,,,,,s_028,1,2020_Dec_17_1618,Reversal,3.2.4,60.06200801376766,
,,,2,0,2,0,,,,,0,0,0,0,,,,,,,,,,,,,,,,,,,,,,,,,,,,,,,,,,,,,,,,,,88,18,86,13,,,,,,,s_028,1,2020_Dec_17_1618,Reversal,3.2.4,60.06200801376766,
0,exp1.png,exp2.png,,,,,,,,,,,,,,,,,0,0,0,0,0,0,0,0,,,,,,,,,True,,,,,,,,,,,,,,,,,,,,,,,,,,,,,,,s_028,1,2020_Dec_17_1618,Reversal,3.2.4,60.06200801376766,
1,exp3.png,exp4.png,,,,,,,,,,,,,,,,,0,0,0,0,0,1,1,1,,,,,,,,,False,0,61,False,exp3.png,exp4.png,trial_left_image,1,exp3.png,1,exp3.png,exp4.png,1,1,non-reversed,correct,0.07697617370116827,0,invalid_lose,368.0394998000702,41,,,,,366.0057709000539,,,,,,s_028,1,2020_Dec_17_1618,Reversal,3.2.4,60.06200801376766,
2,exp1.png,exp2.png,,,,,,,,,,,,,,,,,0,0,0,0,0,2,2,2,,,,,,,,,False,1,62,False,exp1.png,exp2.png,trial_left_image,1,exp1.png,1,exp2.png,exp1.png,1,3,reversed,incorrect,0.10884876830626411,1,invalid_win,373.4371945000021,42,,,,,,,,,,,s_028,1,2020_Dec_17_1618,Reversal,3.2.4,60.06200801376766,
3,exp3.png,exp4.png,,,,,,,,,,,,,,,,,0,0,0,0,0,3,3,3,,,,,,,,,False,2,63,True,exp4.png,exp3.png,trial_right_image,-1,exp3.png,1,exp3.png,exp4.png,1,1,non-reversed,correct,0.47989780500530976,1,valid_win,377.9525685000699,43,,,,,,,,,,,s_028,1,2020_Dec_17_1618,Reversal,3.2.4,60.06200801376766,
4,exp1.png,exp2.png,,,,,,,,,,,,,,,,,0,0,0,0,0,4,4,4,,,,,,,,,False,3,64,True,exp2.png,exp1.png,trial_right_image,-1,exp1.png,1,exp2.png,exp1.png,1,3,reversed,incorrect,0.08604639993404894,1,invalid_win,382.4346359000774,44,,,,,,,,,,,s_028,1,2020_Dec_17_1618,Reversal,3.2.4,60.06200801376766,
5,exp3.png,exp4.png,,,,,,,,,,,,,,,,,0,0,0,0,0,5,5,5,,,,,,,,,False,4,65,True,exp4.png,exp3.png,trial_right_image,-1,exp3.png,1,exp3.png,exp4.png,1,1,non-reversed,correct,0.6790124154878064,1,valid_win,386.8494367999956,45,,,,,,,,,,,s_028,1,2020_Dec_17_1618,Reversal,3.2.4,60.06200801376766,
6,exp1.png,exp2.png,,,,,,,,,,,,,,,,,0,0,0,0,0,6,6,6,,,,,,,,,False,5,66,True,exp2.png,exp1.png,trial_right_image,-1,exp1.png,1,exp2.png,exp1.png,1,3,reversed,incorrect,0.818218339879357,0,valid_lose,391.54576340003405,45,,,,,,,,,,,s_028,1,2020_Dec_17_1618,Reversal,3.2.4,60.06200801376766,
7,exp3.png,exp4.png,,,,,,,,,,,,,,,,,0,0,0,0,0,7,7,7,,,,,,,,,False,6,67,True,exp4.png,exp3.png,trial_right_image,-1,exp3.png,1,exp3.png,exp4.png,1,1,non-reversed,correct,0.3216671393649402,1,valid_win,396.0616548000835,46,,,,,,,,,,,s_028,1,2020_Dec_17_1618,Reversal,3.2.4,60.06200801376766,
8,exp1.png,exp2.png,,,,,,,,,,,,,,,,,0,0,0,0,0,8,8,8,,,,,,,,,False,7,68,False,exp1.png,exp2.png,trial_left_image,1,exp1.png,1,exp2.png,exp1.png,1,3,reversed,incorrect,0.5718339449692407,0,valid_lose,400.57811820006464,46,,,,,,,,,,,s_028,1,2020_Dec_17_1618,Reversal,3.2.4,60.06200801376766,
9,exp3.png,exp4.png,,,,,,,,,,,,,,,,,0,0,0,0,0,9,9,9,,,,,,,,,False,8,69,True,exp4.png,exp3.png,trial_right_image,-1,exp3.png,1,exp3.png,exp4.png,1,1,non-reversed,correct,0.9195842118829454,1,valid_win,404.9764279000228,47,,,,,,,,,,,s_028,1,2020_Dec_17_1618,Reversal,3.2.4,60.06200801376766,
10,exp1.png,exp2.png,,,,,,,,,,,,,,,,,0,0,0,0,0,10,10,10,,,,,,,,,False,9,70,True,exp2.png,exp1.png,trial_right_image,-1,exp1.png,1,exp2.png,exp1.png,1,3,reversed,incorrect,0.952281188659479,0,valid_lose,409.3089509999845,47,,,,,,,,,,,s_028,1,2020_Dec_17_1618,Reversal,3.2.4,60.06200801376766,
11,exp3.png,exp4.png,,,,,,,,,,,,,,,,,0,0,0,0,0,11,11,11,,,,,,,,,False,10,71,False,exp3.png,exp4.png,trial_left_image,1,exp3.png,1,exp3.png,exp4.png,1,1,non-reversed,correct,0.12273345289744741,0,invalid_lose,413.7394460000796,47,,,,,,,,,,,s_028,1,2020_Dec_17_1618,Reversal,3.2.4,60.06200801376766,
12,exp1.png,exp2.png,,,,,,,,,,,,,,,,,0,0,0,0,0,12,12,12,,,,,,,,,False,11,72,False,exp1.png,exp2.png,trial_left_image,1,exp1.png,1,exp2.png,exp1.png,1,3,reversed,incorrect,0.28298847967348373,0,valid_lose,418.0554239000194,47,,,,,,,,,,,s_028,1,2020_Dec_17_1618,Reversal,3.2.4,60.06200801376766,
13,exp3.png,exp4.png,,,,,,,,,,,,,,,,,0,0,0,0,0,13,13,13,,,,,,,,,False,12,73,False,exp3.png,exp4.png,trial_right_image,-1,exp4.png,1,exp3.png,exp4.png,0,2,non-reversed,incorrect,0.8507950230487179,0,valid_lose,422.9373470999999,47,,,,,,,,,,,s_028,1,2020_Dec_17_1618,Reversal,3.2.4,60.06200801376766,
14,exp1.png,exp2.png,,,,,,,,,,,,,,,,,0,0,0,0,0,14,14,14,,,,,,,,,False,13,74,False,exp1.png,exp2.png,trial_left_image,1,exp1.png,1,exp2.png,exp1.png,1,3,reversed,incorrect,0.38286759775850954,0,valid_lose,427.2515244000824,47,,,,,,,,,,,s_028,1,2020_Dec_17_1618,Reversal,3.2.4,60.06200801376766,
15,exp3.png,exp4.png,,,,,,,,,,,,,,,,,0,0,0,0,0,15,15,15,,,,,,,,,False,14,75,True,exp4.png,exp3.png,trial_left_image,1,exp4.png,1,exp3.png,exp4.png,0,2,non-reversed,incorrect,0.19569495090245093,1,invalid_win,431.7176622999832,48,,,,,,,,,,,s_028,1,2020_Dec_17_1618,Reversal,3.2.4,60.06200801376766,
16,exp1.png,exp2.png,,,,,,,,,,,,,,,,,0,0,0,0,0,16,16,16,,,,,,,,,False,15,76,True,exp2.png,exp1.png,trial_left_image,1,exp2.png,1,exp2.png,exp1.png,0,4,reversed,correct,0.5757384628841375,1,valid_win,436.0159554000711,49,,,,,,,,,,,s_028,1,2020_Dec_17_1618,Reversal,3.2.4,60.06200801376766,
17,exp3.png,exp4.png,,,,,,,,,,,,,,,,,0,0,0,0,0,17,17,17,,,,,,,,,False,16,77,False,exp3.png,exp4.png,trial_right_image,-1,exp4.png,1,exp3.png,exp4.png,0,2,non-reversed,incorrect,0.09064025146424748,1,invalid_win,440.38120720000006,50,,,,,,,,,,,s_028,1,2020_Dec_17_1618,Reversal,3.2.4,60.06200801376766,
18,exp1.png,exp2.png,,,,,,,,,,,,,,,,,0,0,0,0,0,18,18,18,,,,,,,,,False,17,78,False,exp1.png,exp2.png,trial_left_image,1,exp1.png,1,exp2.png,exp1.png,1,3,reversed,incorrect,0.7009639794513874,0,valid_lose,444.5985682000173,50,,,,,,,,,,,s_028,1,2020_Dec_17_1618,Reversal,3.2.4,60.06200801376766,
19,exp3.png,exp4.png,,,,,,,,,,,,,,,,,0,0,0,0,0,19,19,19,,,,,,,,,False,18,79,False,exp3.png,exp4.png,trial_right_image,-1,exp4.png,1,exp3.png,exp4.png,0,2,non-reversed,incorrect,0.8217904721575797,0,valid_lose,448.77860850002617,50,,,,,,,,,,,s_028,1,2020_Dec_17_1618,Reversal,3.2.4,60.06200801376766,
20,exp1.png,exp2.png,,,,,,,,,,,,,,,,,0,0,0,0,0,20,20,20,,,,,,,,,False,19,80,True,exp2.png,exp1.png,trial_left_image,1,exp2.png,1,exp2.png,exp1.png,0,4,reversed,correct,0.3148253220268731,1,valid_win,453.29263650008943,51,,,,,,,,,,,s_028,1,2020_Dec_17_1618,Reversal,3.2.4,60.06200801376766,
,,,,,,,,,,,,,,,,,,,0,0,0,0,,,,,0,0,0,0,,,,,,,,,,,,,,,,,,,,,,,,,,39,62,33,68,,,,,,,s_028,1,2020_Dec_17_1618,Reversal,3.2.4,60.06200801376766,
0,exp1.png,exp2.png,,,,,,,,,,,,,,,,,1,0,1,0,0,0,0,0,,,,,,,,,True,,,,,,,,,,,,,,,,,,,,,,,,,,,,,,,s_028,1,2020_Dec_17_1618,Reversal,3.2.4,60.06200801376766,
1,exp3.png,exp4.png,,,,,,,,,,,,,,,,,1,0,1,0,0,1,1,1,,,,,,,,,False,20,81,True,exp4.png,exp3.png,trial_right_image,-1,exp3.png,1,exp3.png,exp4.png,1,1,non-reversed,correct,0.9564369015271237,1,valid_win,472.3372873000335,52,,,,,,,,,,,s_028,1,2020_Dec_17_1618,Reversal,3.2.4,60.06200801376766,
2,exp1.png,exp2.png,,,,,,,,,,,,,,,,,1,0,1,0,0,2,2,2,,,,,,,,,False,21,82,False,exp1.png,exp2.png,trial_left_image,1,exp1.png,1,exp2.png,exp1.png,1,3,reversed,incorrect,0.7781687358282272,0,valid_lose,477.3189050999936,52,,,,,,,,,,,s_028,1,2020_Dec_17_1618,Reversal,3.2.4,60.06200801376766,
3,exp3.png,exp4.png,,,,,,,,,,,,,,,,,1,0,1,0,0,3,3,3,,,,,,,,,False,22,83,False,exp3.png,exp4.png,trial_right_image,-1,exp4.png,1,exp3.png,exp4.png,0,2,non-reversed,incorrect,0.857936068950082,0,valid_lose,481.66650120005943,52,,,,,,,,,,,s_028,1,2020_Dec_17_1618,Reversal,3.2.4,60.06200801376766,
4,exp1.png,exp2.png,,,,,,,,,,,,,,,,,1,0,1,0,0,4,4,4,,,,,,,,,False,23,84,True,exp2.png,exp1.png,trial_left_image,1,exp2.png,1,exp2.png,exp1.png,0,4,reversed,correct,0.8722437569167235,1,valid_win,485.83145569998305,53,,,,,,,,,,,s_028,1,2020_Dec_17_1618,Reversal,3.2.4,60.06200801376766,
5,exp3.png,exp4.png,,,,,,,,,,,,,,,,,1,0,1,0,0,5,5,5,,,,,,,,,False,24,85,False,exp3.png,exp4.png,trial_left_image,1,exp3.png,1,exp3.png,exp4.png,1,1,non-reversed,correct,0.02923038265435629,0,invalid_lose,490.1982812000206,53,,,,,,,,,,,s_028,1,2020_Dec_17_1618,Reversal,3.2.4,60.06200801376766,
6,exp1.png,exp2.png,,,,,,,,,,,,,,,,,1,0,1,0,0,6,6,6,,,,,,,,,False,25,86,False,exp1.png,exp2.png,trial_left_image,1,exp1.png,1,exp2.png,exp1.png,1,3,reversed,incorrect,0.8468124129672242,0,valid_lose,495.01348960003816,53,,,,,,,,,,,s_028,1,2020_Dec_17_1618,Reversal,3.2.4,60.06200801376766,
7,exp3.png,exp4.png,,,,,,,,,,,,,,,,,1,0,1,0,0,7,7,7,,,,,,,,,False,26,87,True,exp4.png,exp3.png,trial_left_image,1,exp4.png,1,exp3.png,exp4.png,0,2,non-reversed,incorrect,0.049077835943956316,1,invalid_win,499.51156860007904,54,,,,,,,,,,,s_028,1,2020_Dec_17_1618,Reversal,3.2.4,60.06200801376766,
8,exp1.png,exp2.png,,,,,,,,,,,,,,,,,1,0,1,0,0,8,8,8,,,,,,,,,False,27,88,True,exp2.png,exp1.png,trial_right_image,-1,exp1.png,1,exp2.png,exp1.png,1,3,reversed,incorrect,0.09692376009629677,1,invalid_win,504.9416108999867,55,,,,,,,,,,,s_028,1,2020_Dec_17_1618,Reversal,3.2.4,60.06200801376766,
9,exp3.png,exp4.png,,,,,,,,,,,,,,,,,1,0,1,0,0,9,9,9,,,,,,,,,False,28,89,True,exp4.png,exp3.png,trial_left_image,1,exp4.png,1,exp3.png,exp4.png,0,2,non-reversed,incorrect,0.2304906123529169,1,invalid_win,509.1234072999796,56,,,,,,,,,,,s_028,1,2020_Dec_17_1618,Reversal,3.2.4,60.06200801376766,
10,exp1.png,exp2.png,,,,,,,,,,,,,,,,,1,0,1,0,0,10,10,10,,,,,,,,,False,29,90,False,exp1.png,exp2.png,trial_left_image,1,exp1.png,1,exp2.png,exp1.png,1,3,reversed,incorrect,0.7757401002475812,0,valid_lose,513.339614000055,56,,,,,,,,,,,s_028,1,2020_Dec_17_1618,Reversal,3.2.4,60.06200801376766,
11,exp3.png,exp4.png,,,,,,,,,,,,,,,,,1,0,1,0,0,11,11,11,,,,,,,,,False,30,91,False,exp3.png,exp4.png,trial_left_image,1,exp3.png,1,exp3.png,exp4.png,1,1,non-reversed,correct,0.8727730244545177,1,valid_win,517.2722719000885,57,,,,,,,,,,,s_028,1,2020_Dec_17_1618,Reversal,3.2.4,60.06200801376766,
12,exp1.png,exp2.png,,,,,,,,,,,,,,,,,1,0,1,0,0,12,12,12,,,,,,,,,False,31,92,True,exp2.png,exp1.png,trial_right_image,-1,exp1.png,1,exp2.png,exp1.png,1,3,reversed,incorrect,0.1413112362283312,1,invalid_win,521.2539303000085,58,,,,,,,,,,,s_028,1,2020_Dec_17_1618,Reversal,3.2.4,60.06200801376766,
13,exp3.png,exp4.png,,,,,,,,,,,,,,,,,1,0,1,0,0,13,13,13,,,,,,,,,False,32,93,True,exp4.png,exp3.png,trial_left_image,1,exp4.png,1,exp3.png,exp4.png,0,2,non-reversed,incorrect,0.5994644286896085,0,valid_lose,525.2192106000148,58,,,,,,,,,,,s_028,1,2020_Dec_17_1618,Reversal,3.2.4,60.06200801376766,
14,exp1.png,exp2.png,,,,,,,,,,,,,,,,,1,0,1,0,0,14,14,14,,,,,,,,,False,33,94,False,exp1.png,exp2.png,trial_left_image,1,exp1.png,1,exp2.png,exp1.png,1,3,reversed,incorrect,0.5500036495870811,0,valid_lose,529.2002665000036,58,,,,,,,,,,,s_028,1,2020_Dec_17_1618,Reversal,3.2.4,60.06200801376766,
15,exp3.png,exp4.png,,,,,,,,,,,,,,,,,1,0,1,0,0,15,15,15,,,,,,,,,False,34,95,False,exp3.png,exp4.png,trial_left_image,1,exp3.png,1,exp3.png,exp4.png,1,1,non-reversed,correct,0.03855218401120375,0,invalid_lose,533.0998996000271,58,,,,,,,,,,,s_028,1,2020_Dec_17_1618,Reversal,3.2.4,60.06200801376766,
16,exp1.png,exp2.png,,,,,,,,,,,,,,,,,1,0,1,0,0,16,16,16,,,,,,,,,False,35,96,False,exp1.png,exp2.png,trial_right_image,-1,exp2.png,1,exp2.png,exp1.png,0,4,reversed,correct,0.9029252805850344,1,valid_win,536.3536147000268,59,,,,,,,,,,,s_028,1,2020_Dec_17_1618,Reversal,3.2.4,60.06200801376766,
17,exp3.png,exp4.png,,,,,,,,,,,,,,,,,1,0,1,0,0,17,17,17,,,,,,,,,False,36,97,True,exp4.png,exp3.png,trial_right_image,-1,exp3.png,1,exp3.png,exp4.png,1,1,non-reversed,correct,0.4637653779857992,1,valid_win,539.9136484999908,60,,,,,,,,,,,s_028,1,2020_Dec_17_1618,Reversal,3.2.4,60.06200801376766,
18,exp1.png,exp2.png,,,,,,,,,,,,,,,,,1,0,1,0,0,18,18,18,,,,,,,,,False,37,98,False,exp1.png,exp2.png,trial_right_image,-1,exp2.png,1,exp2.png,exp1.png,0,4,reversed,correct,0.10944325022491519,0,invalid_lose,542.8608769000275,60,,,,,,,,,,,s_028,1,2020_Dec_17_1618,Reversal,3.2.4,60.06200801376766,
19,exp3.png,exp4.png,,,,,,,,,,,,,,,,,1,0,1,0,0,19,19,19,,,,,,,,,False,38,99,True,exp4.png,exp3.png,trial_left_image,1,exp4.png,1,exp3.png,exp4.png,0,2,non-reversed,incorrect,0.9576883850509034,0,valid_lose,545.793595300056,60,,,,,,,,,,,s_028,1,2020_Dec_17_1618,Reversal,3.2.4,60.06200801376766,
20,exp1.png,exp2.png,,,,,,,,,,,,,,,,,1,0,1,0,0,20,20,20,,,,,,,,,False,39,100,True,exp2.png,exp1.png,trial_left_image,1,exp2.png,1,exp2.png,exp1.png,0,4,reversed,correct,0.8693974497096131,1,valid_win,552.460279299994,61,,,,,,,,,,,s_028,1,2020_Dec_17_1618,Reversal,3.2.4,60.06200801376766,
,,,,,,,,,,,,,,,,,,,1,0,1,0,,,,,0,0,0,0,,,,,,,,,,,,,,,,,,,,,,,,,,77,29,73,35,,,,,,,s_028,1,2020_Dec_17_1618,Reversal,3.2.4,60.06200801376766,
0,exp1.png,exp2.png,,,,,,,,,,,,,,,,,2,0,2,0,0,0,0,0,,,,,,,,,True,,,,,,,,,,,,,,,,,,,,,,,,,,,,,,,s_028,1,2020_Dec_17_1618,Reversal,3.2.4,60.06200801376766,
1,exp3.png,exp4.png,,,,,,,,,,,,,,,,,2,0,2,0,0,1,1,1,,,,,,,,,False,40,101,True,exp4.png,exp3.png,trial_right_image,-1,exp3.png,1,exp3.png,exp4.png,1,1,non-reversed,correct,0.24224065233403902,0,invalid_lose,567.1053800000809,61,,,,,,,,,,,s_028,1,2020_Dec_17_1618,Reversal,3.2.4,60.06200801376766,
2,exp1.png,exp2.png,,,,,,,,,,,,,,,,,2,0,2,0,0,2,2,2,,,,,,,,,False,41,102,False,exp1.png,exp2.png,trial_right_image,-1,exp2.png,1,exp2.png,exp1.png,0,4,reversed,correct,0.4045150215314983,1,valid_win,571.2037198999897,62,,,,,,,,,,,s_028,1,2020_Dec_17_1618,Reversal,3.2.4,60.06200801376766,
3,exp3.png,exp4.png,,,,,,,,,,,,,,,,,2,0,2,0,0,3,3,3,,,,,,,,,False,42,103,False,exp3.png,exp4.png,trial_right_image,-1,exp4.png,1,exp3.png,exp4.png,0,2,non-reversed,incorrect,0.9131599664833556,0,valid_lose,576.6851497000316,62,,,,,,,,,,,s_028,1,2020_Dec_17_1618,Reversal,3.2.4,60.06200801376766,
4,exp1.png,exp2.png,,,,,,,,,,,,,,,,,2,0,2,0,0,4,4,4,,,,,,,,,False,43,104,True,exp2.png,exp1.png,trial_left_image,1,exp2.png,1,exp2.png,exp1.png,0,4,reversed,correct,0.31696834328029144,1,valid_win,582.1003877000185,63,,,,,,,,,,,s_028,1,2020_Dec_17_1618,Reversal,3.2.4,60.06200801376766,
5,exp3.png,exp4.png,,,,,,,,,,,,,,,,,2,0,2,0,0,5,5,5,,,,,,,,,False,44,105,False,exp3.png,exp4.png,trial_left_image,1,exp3.png,1,exp3.png,exp4.png,1,1,non-reversed,correct,0.4126330840699337,1,valid_win,586.7475522999885,64,,,,,,,,,,,s_028,1,2020_Dec_17_1618,Reversal,3.2.4,60.06200801376766,
6,exp1.png,exp2.png,,,,,,,,,,,,,,,,,2,0,2,0,0,6,6,6,,,,,,,,,False,45,106,False,exp1.png,exp2.png,trial_right_image,-1,exp2.png,1,exp2.png,exp1.png,0,4,reversed,correct,0.6579512522660856,1,valid_win,591.063889299985,65,,,,,,,,,,,s_028,1,2020_Dec_17_1618,Reversal,3.2.4,60.06200801376766,
7,exp3.png,exp4.png,,,,,,,,,,,,,,,,,2,0,2,0,0,7,7,7,,,,,,,,,False,46,107,False,exp3.png,exp4.png,trial_left_image,1,exp3.png,1,exp3.png,exp4.png,1,1,non-reversed,correct,0.8869691442593477,1,valid_win,595.4291060999967,66,,,,,,,,,,,s_028,1,2020_Dec_17_1618,Reversal,3.2.4,60.06200801376766,
8,exp1.png,exp2.png,,,,,,,,,,,,,,,,,2,0,2,0,0,8,8,8,,,,,,,,,False,47,108,True,exp2.png,exp1.png,trial_left_image,1,exp2.png,1,exp2.png,exp1.png,0,4,reversed,correct,0.9920109201362458,1,valid_win,599.7441205000505,67,,,,,,,,,,,s_028,1,2020_Dec_17_1618,Reversal,3.2.4,60.06200801376766,
9,exp3.png,exp4.png,,,,,,,,,,,,,,,,,2,0,2,0,0,9,9,9,,,,,,,,,False,48,109,True,exp4.png,exp3.png,trial_right_image,-1,exp3.png,1,exp3.png,exp4.png,1,1,non-reversed,correct,0.8937495351499429,1,valid_win,604.0430790000828,68,,,,,,,,,,,s_028,1,2020_Dec_17_1618,Reversal,3.2.4,60.06200801376766,
10,exp1.png,exp2.png,,,,,,,,,,,,,,,,,2,0,2,0,0,10,10,10,,,,,,,,,False,49,110,True,exp2.png,exp1.png,trial_left_image,1,exp2.png,1,exp2.png,exp1.png,0,4,reversed,correct,0.9768960882487239,1,valid_win,608.2913701999933,69,,,,,,,,,,,s_028,1,2020_Dec_17_1618,Reversal,3.2.4,60.06200801376766,
11,exp3.png,exp4.png,,,,,,,,,,,,,,,,,2,0,2,0,0,11,11,11,,,,,,,,,False,50,111,False,exp3.png,exp4.png,trial_left_image,1,exp3.png,1,exp3.png,exp4.png,1,1,non-reversed,correct,0.6968971967713831,1,valid_win,612.5402949000709,70,,,,,,,,,,,s_028,1,2020_Dec_17_1618,Reversal,3.2.4,60.06200801376766,
12,exp1.png,exp2.png,,,,,,,,,,,,,,,,,2,0,2,0,0,12,12,12,,,,,,,,,False,51,112,True,exp2.png,exp1.png,trial_left_image,1,exp2.png,1,exp2.png,exp1.png,0,4,reversed,correct,0.8145362287274138,1,valid_win,617.0001762000611,71,,,,,,,,,,,s_028,1,2020_Dec_17_1618,Reversal,3.2.4,60.06200801376766,
13,exp3.png,exp4.png,,,,,,,,,,,,,,,,,2,0,2,0,0,13,13,13,,,,,,,,,False,52,113,False,exp3.png,exp4.png,trial_left_image,1,exp3.png,1,exp3.png,exp4.png,1,1,non-reversed,correct,0.9113504343014331,1,valid_win,621.2196590000531,72,,,,,,,,,,,s_028,1,2020_Dec_17_1618,Reversal,3.2.4,60.06200801376766,
14,exp1.png,exp2.png,,,,,,,,,,,,,,,,,2,0,2,0,0,14,14,14,,,,,,,,,False,53,114,False,exp1.png,exp2.png,trial_right_image,-1,exp2.png,1,exp2.png,exp1.png,0,4,reversed,correct,0.254687470250088,1,valid_win,626.2353764000582,73,,,,,,,,,,,s_028,1,2020_Dec_17_1618,Reversal,3.2.4,60.06200801376766,
15,exp3.png,exp4.png,,,,,,,,,,,,,,,,,2,0,2,0,0,15,15,15,,,,,,,,,False,54,115,True,exp4.png,exp3.png,trial_right_image,-1,exp3.png,1,exp3.png,exp4.png,1,1,non-reversed,correct,0.9043034051151527,1,valid_win,630.3005364000564,74,,,,,,,,,,,s_028,1,2020_Dec_17_1618,Reversal,3.2.4,60.06200801376766,
16,exp1.png,exp2.png,,,,,,,,,,,,,,,,,2,0,2,0,0,16,16,16,,,,,,,,,False,55,116,True,exp2.png,exp1.png,trial_left_image,1,exp2.png,1,exp2.png,exp1.png,0,4,reversed,correct,0.10635922845820656,0,invalid_lose,634.397993999999,74,,,,,,,,,,,s_028,1,2020_Dec_17_1618,Reversal,3.2.4,60.06200801376766,
17,exp3.png,exp4.png,,,,,,,,,,,,,,,,,2,0,2,0,0,17,17,17,,,,,,,,,False,56,117,False,exp3.png,exp4.png,trial_right_image,-1,exp4.png,1,exp3.png,exp4.png,0,2,non-reversed,incorrect,0.19950893602074493,1,invalid_win,638.3302240000339,75,,,,,,,,,,,s_028,1,2020_Dec_17_1618,Reversal,3.2.4,60.06200801376766,
18,exp1.png,exp2.png,,,,,,,,,,,,,,,,,2,0,2,0,0,18,18,18,,,,,,,,,False,57,118,True,exp2.png,exp1.png,trial_right_image,-1,exp1.png,1,exp2.png,exp1.png,1,3,reversed,incorrect,0.8154067529396213,0,valid_lose,642.896379700047,75,,,,,,,,,,,s_028,1,2020_Dec_17_1618,Reversal,3.2.4,60.06200801376766,
19,exp3.png,exp4.png,,,,,,,,,,,,,,,,,2,0,2,0,0,19,19,19,,,,,,,,,False,58,119,False,exp3.png,exp4.png,trial_left_image,1,exp3.png,1,exp3.png,exp4.png,1,1,non-reversed,correct,0.8910756111554017,1,valid_win,647.0781584000215,76,,,,,,,,,,,s_028,1,2020_Dec_17_1618,Reversal,3.2.4,60.06200801376766,
20,exp1.png,exp2.png,,,,,,,,,,,,,,,,,2,0,2,0,0,20,20,20,,,,,,,,,False,59,120,True,exp2.png,exp1.png,trial_left_image,1,exp2.png,1,exp2.png,exp1.png,0,4,reversed,correct,0.9644518094892846,1,valid_win,651.1774421000155,77,,,,,,,,,,,s_028,1,2020_Dec_17_1618,Reversal,3.2.4,60.06200801376766,
,,,,,,,,,,,,,,,,,,,2,0,2,0,,,,,0,0,0,0,,,,,,,,,,,,,,,,,,,,,,,,,,51,50.0,50.0,50.0,,,,,,,s_028,1,2020_Dec_17_1618,Reversal,3.2.4,60.06200801376766,
,,,,,,,,,,,,,,,,,,,,,,,,,,,,,,,,,,,,,,,,,,,,,,,,,,,,,,,77,,,,,,81,47,34,294.0163169000298,0,,,,,,,
