trial_index,trial_image1_file,trial_image2_file,learning_outer_loop.thisRepN,learning_outer_loop.thisTrialN,learning_outer_loop.thisN,learning_outer_loop.thisIndex,learning_inner_loop.thisRepN,learning_inner_loop.thisTrialN,learning_inner_loop.thisN,learning_inner_loop.thisIndex,learning_estimation_outer_loop.thisRepN,learning_estimation_outer_loop.thisTrialN,learning_estimation_outer_loop.thisN,learning_estimation_outer_loop.thisIndex,learning_estimation_inner_loop.thisRepN,learning_estimation_inner_loop.thisTrialN,learning_estimation_inner_loop.thisN,learning_estimation_inner_loop.thisIndex,reversal_outer_loop.thisRepN,reversal_outer_loop.thisTrialN,reversal_outer_loop.thisN,reversal_outer_loop.thisIndex,reversal_inner_loop.thisRepN,reversal_inner_loop.thisTrialN,reversal_inner_loop.thisN,reversal_inner_loop.thisIndex,reversal_estimation_outer_loop.thisRepN,reversal_estimation_outer_loop.thisTrialN,reversal_estimation_outer_loop.thisN,reversal_estimation_outer_loop.thisIndex,reversal_estimation_inner_loop.thisRepN,reversal_estimation_inner_loop.thisTrialN,reversal_estimation_inner_loop.thisN,reversal_estimation_inner_loop.thisIndex,skipped,total_trial_counter,trial_num,left_right_flip,left_image_file,right_image_file,clicked_stimulus_side,side,clicked_stimulus,version,high_prob_image_file,low_prob_image_file,choice_a,choice_b,pair_type,correct,trial_feedback_random,reward,trial_type,overall_time_after_trial,score,estimation_exp1.png,estimation_exp2.png,estimation_exp3.png,estimation_exp4.png,total_learning_time,total_correct,learning_correct,reversal_correct,total_reversal_time,extra_block,participant,ver,date,expName,psychopyVersion,frameRate,
0,exp1.png,exp2.png,0,0,0,0,0,0,0,0,,,,,,,,,,,,,,,,,,,,,,,,,True,,,,,,,,,,,,,,,,,,,,,,,,,,,,,,,s_022,1,2020_Dec_14_0912,Reversal,3.2.4,60.027900978169534,
1,exp3.png,exp4.png,0,0,0,0,0,1,1,1,,,,,,,,,,,,,,,,,,,,,,,,,False,0,1,True,exp4.png,exp3.png,trial_left_image,1,exp4.png,1,exp3.png,exp4.png,0,2,non-reversed,incorrect,0.02200970209085973,1,invalid_win,14.075652599975001,1,,,,,,,,,,,s_022,1,2020_Dec_14_0912,Reversal,3.2.4,60.027900978169534,
2,exp1.png,exp2.png,0,0,0,0,0,2,2,2,,,,,,,,,,,,,,,,,,,,,,,,,False,1,2,False,exp1.png,exp2.png,trial_left_image,1,exp1.png,1,exp1.png,exp2.png,1,3,reversed,correct,0.7468523777459487,1,valid_win,22.122321599978022,2,,,,,,,,,,,s_022,1,2020_Dec_14_0912,Reversal,3.2.4,60.027900978169534,
3,exp3.png,exp4.png,0,0,0,0,0,3,3,3,,,,,,,,,,,,,,,,,,,,,,,,,False,2,3,False,exp3.png,exp4.png,trial_left_image,1,exp3.png,1,exp3.png,exp4.png,1,1,non-reversed,correct,0.04134034337579162,0,invalid_lose,36.18448279995937,2,,,,,,,,,,,s_022,1,2020_Dec_14_0912,Reversal,3.2.4,60.027900978169534,
4,exp1.png,exp2.png,0,0,0,0,0,4,4,4,,,,,,,,,,,,,,,,,,,,,,,,,False,3,4,False,exp1.png,exp2.png,trial_left_image,1,exp1.png,1,exp1.png,exp2.png,1,3,reversed,correct,0.20597504132090083,0,invalid_lose,42.64855269994587,2,,,,,,,,,,,s_022,1,2020_Dec_14_0912,Reversal,3.2.4,60.027900978169534,
5,exp3.png,exp4.png,0,0,0,0,0,5,5,5,,,,,,,,,,,,,,,,,,,,,,,,,False,4,5,False,exp3.png,exp4.png,trial_right_image,-1,exp4.png,1,exp3.png,exp4.png,0,2,non-reversed,incorrect,0.9751982754089223,0,valid_lose,48.26337279996369,2,,,,,,,,,,,s_022,1,2020_Dec_14_0912,Reversal,3.2.4,60.027900978169534,
6,exp1.png,exp2.png,0,0,0,0,0,6,6,6,,,,,,,,,,,,,,,,,,,,,,,,,False,5,6,True,exp2.png,exp1.png,trial_right_image,-1,exp1.png,1,exp1.png,exp2.png,1,3,reversed,correct,0.6001028334905597,1,valid_win,54.62806679995265,3,,,,,,,,,,,s_022,1,2020_Dec_14_0912,Reversal,3.2.4,60.027900978169534,
7,exp3.png,exp4.png,0,0,0,0,0,7,7,7,,,,,,,,,,,,,,,,,,,,,,,,,False,6,7,True,exp4.png,exp3.png,trial_left_image,1,exp4.png,1,exp3.png,exp4.png,0,2,non-reversed,incorrect,0.211625332524779,1,invalid_win,66.25790669996059,4,,,,,,,,,,,s_022,1,2020_Dec_14_0912,Reversal,3.2.4,60.027900978169534,
8,exp1.png,exp2.png,0,0,0,0,0,8,8,8,,,,,,,,,,,,,,,,,,,,,,,,,False,7,8,True,exp2.png,exp1.png,trial_right_image,-1,exp1.png,1,exp1.png,exp2.png,1,3,reversed,correct,0.4900426730517712,1,valid_win,70.55602259997977,5,,,,,,,,,,,s_022,1,2020_Dec_14_0912,Reversal,3.2.4,60.027900978169534,
9,exp3.png,exp4.png,0,0,0,0,0,9,9,9,,,,,,,,,,,,,,,,,,,,,,,,,False,8,9,True,exp4.png,exp3.png,trial_left_image,1,exp4.png,1,exp3.png,exp4.png,0,2,non-reversed,incorrect,0.3987273463890284,0,valid_lose,74.8546252999804,5,,,,,,,,,,,s_022,1,2020_Dec_14_0912,Reversal,3.2.4,60.027900978169534,
10,exp1.png,exp2.png,0,0,0,0,0,10,10,10,,,,,,,,,,,,,,,,,,,,,,,,,False,9,10,True,exp2.png,exp1.png,trial_left_image,1,exp2.png,1,exp1.png,exp2.png,0,4,reversed,incorrect,0.0769510953466096,1,invalid_win,85.20117129996652,6,,,,,,,,,,,s_022,1,2020_Dec_14_0912,Reversal,3.2.4,60.027900978169534,
11,exp3.png,exp4.png,0,0,0,0,0,11,11,11,,,,,,,,,,,,,,,,,,,,,,,,,False,10,11,False,exp3.png,exp4.png,trial_right_image,-1,exp4.png,1,exp3.png,exp4.png,0,2,non-reversed,incorrect,0.852726585782417,0,valid_lose,91.96552629995858,6,,,,,,,,,,,s_022,1,2020_Dec_14_0912,Reversal,3.2.4,60.027900978169534,
12,exp1.png,exp2.png,0,0,0,0,0,12,12,12,,,,,,,,,,,,,,,,,,,,,,,,,False,11,12,False,exp1.png,exp2.png,trial_left_image,1,exp1.png,1,exp1.png,exp2.png,1,3,reversed,correct,0.17478356811390106,0,invalid_lose,96.41371979995165,6,,,,,,,,,,,s_022,1,2020_Dec_14_0912,Reversal,3.2.4,60.027900978169534,
13,exp3.png,exp4.png,0,0,0,0,0,13,13,13,,,,,,,,,,,,,,,,,,,,,,,,,False,12,13,False,exp3.png,exp4.png,trial_left_image,1,exp3.png,1,exp3.png,exp4.png,1,1,non-reversed,correct,0.9110934005449872,1,valid_win,102.22860949998721,7,,,,,,,,,,,s_022,1,2020_Dec_14_0912,Reversal,3.2.4,60.027900978169534,
14,exp1.png,exp2.png,0,0,0,0,0,14,14,14,,,,,,,,,,,,,,,,,,,,,,,,,False,13,14,False,exp1.png,exp2.png,trial_right_image,-1,exp2.png,1,exp1.png,exp2.png,0,4,reversed,incorrect,0.9056685914386148,0,valid_lose,107.29395949997706,7,,,,,,,,,,,s_022,1,2020_Dec_14_0912,Reversal,3.2.4,60.027900978169534,
15,exp3.png,exp4.png,0,0,0,0,0,15,15,15,,,,,,,,,,,,,,,,,,,,,,,,,False,14,15,True,exp4.png,exp3.png,trial_right_image,-1,exp3.png,1,exp3.png,exp4.png,1,1,non-reversed,correct,0.6058852986833376,1,valid_win,112.60850679996656,8,,,,,,,,,,,s_022,1,2020_Dec_14_0912,Reversal,3.2.4,60.027900978169534,
16,exp1.png,exp2.png,0,0,0,0,0,16,16,16,,,,,,,,,,,,,,,,,,,,,,,,,False,15,16,True,exp2.png,exp1.png,trial_left_image,1,exp2.png,1,exp1.png,exp2.png,0,4,reversed,incorrect,0.39767312755456774,0,valid_lose,120.32273799995892,8,,,,,,,,,,,s_022,1,2020_Dec_14_0912,Reversal,3.2.4,60.027900978169534,
17,exp3.png,exp4.png,0,0,0,0,0,17,17,17,,,,,,,,,,,,,,,,,,,,,,,,,False,16,17,True,exp4.png,exp3.png,trial_right_image,-1,exp3.png,1,exp3.png,exp4.png,1,1,non-reversed,correct,0.20306925153003452,0,invalid_lose,124.85436379996827,8,,,,,,,,,,,s_022,1,2020_Dec_14_0912,Reversal,3.2.4,60.027900978169534,
18,exp1.png,exp2.png,0,0,0,0,0,18,18,18,,,,,,,,,,,,,,,,,,,,,,,,,False,17,18,False,exp1.png,exp2.png,trial_left_image,1,exp1.png,1,exp1.png,exp2.png,1,3,reversed,correct,0.8155142287193198,1,valid_win,130.10287329996936,9,,,,,,,,,,,s_022,1,2020_Dec_14_0912,Reversal,3.2.4,60.027900978169534,
19,exp3.png,exp4.png,0,0,0,0,0,19,19,19,,,,,,,,,,,,,,,,,,,,,,,,,False,18,19,False,exp3.png,exp4.png,trial_right_image,-1,exp4.png,1,exp3.png,exp4.png,0,2,non-reversed,incorrect,0.1312045024289682,1,invalid_win,134.4343934999779,10,,,,,,,,,,,s_022,1,2020_Dec_14_0912,Reversal,3.2.4,60.027900978169534,
20,exp1.png,exp2.png,0,0,0,0,0,20,20,20,,,,,,,,,,,,,,,,,,,,,,,,,False,19,20,True,exp2.png,exp1.png,trial_left_image,1,exp2.png,1,exp1.png,exp2.png,0,4,reversed,incorrect,0.2769900455868881,0,valid_lose,138.88282919995254,10,,,,,,,,,,,s_022,1,2020_Dec_14_0912,Reversal,3.2.4,60.027900978169534,
,,,0,0,0,0,,,,,0,0,0,0,,,,,,,,,,,,,,,,,,,,,,,,,,,,,,,,,,,,,,,,,,69,51,50.0,50.0,,,,,,,s_022,1,2020_Dec_14_0912,Reversal,3.2.4,60.027900978169534,
0,exp1.png,exp2.png,1,0,1,0,0,0,0,0,,,,,,,,,,,,,,,,,,,,,,,,,True,,,,,,,,,,,,,,,,,,,,,,,,,,,,,,,s_022,1,2020_Dec_14_0912,Reversal,3.2.4,60.027900978169534,
1,exp3.png,exp4.png,1,0,1,0,0,1,1,1,,,,,,,,,,,,,,,,,,,,,,,,,False,20,21,False,exp3.png,exp4.png,trial_right_image,-1,exp4.png,1,exp3.png,exp4.png,0,2,non-reversed,incorrect,0.8418214451629659,0,valid_lose,199.32775879994733,10,,,,,,,,,,,s_022,1,2020_Dec_14_0912,Reversal,3.2.4,60.027900978169534,
2,exp1.png,exp2.png,1,0,1,0,0,2,2,2,,,,,,,,,,,,,,,,,,,,,,,,,False,21,22,False,exp1.png,exp2.png,trial_left_image,1,exp1.png,1,exp1.png,exp2.png,1,3,reversed,correct,0.92747308159274,1,valid_win,204.40944259997923,11,,,,,,,,,,,s_022,1,2020_Dec_14_0912,Reversal,3.2.4,60.027900978169534,
3,exp3.png,exp4.png,1,0,1,0,0,3,3,3,,,,,,,,,,,,,,,,,,,,,,,,,False,22,23,True,exp4.png,exp3.png,trial_left_image,1,exp4.png,1,exp3.png,exp4.png,0,2,non-reversed,incorrect,0.5726284223536582,0,valid_lose,209.72622839995893,11,,,,,,,,,,,s_022,1,2020_Dec_14_0912,Reversal,3.2.4,60.027900978169534,
4,exp1.png,exp2.png,1,0,1,0,0,4,4,4,,,,,,,,,,,,,,,,,,,,,,,,,False,23,24,False,exp1.png,exp2.png,trial_right_image,-1,exp2.png,1,exp1.png,exp2.png,0,4,reversed,incorrect,0.014820502875014352,1,invalid_win,213.79024629999185,12,,,,,,,,,,,s_022,1,2020_Dec_14_0912,Reversal,3.2.4,60.027900978169534,
5,exp3.png,exp4.png,1,0,1,0,0,5,5,5,,,,,,,,,,,,,,,,,,,,,,,,,False,24,25,True,exp4.png,exp3.png,trial_left_image,1,exp4.png,1,exp3.png,exp4.png,0,2,non-reversed,incorrect,0.5793751995851152,0,valid_lose,220.12096119998023,12,,,,,,,,,,,s_022,1,2020_Dec_14_0912,Reversal,3.2.4,60.027900978169534,
6,exp1.png,exp2.png,1,0,1,0,0,6,6,6,,,,,,,,,,,,,,,,,,,,,,,,,False,25,26,False,exp1.png,exp2.png,trial_right_image,-1,exp2.png,1,exp1.png,exp2.png,0,4,reversed,incorrect,0.1540670500583312,1,invalid_win,224.53716619999614,13,,,,,,,,,,,s_022,1,2020_Dec_14_0912,Reversal,3.2.4,60.027900978169534,
7,exp3.png,exp4.png,1,0,1,0,0,7,7,7,,,,,,,,,,,,,,,,,,,,,,,,,False,26,27,False,exp3.png,exp4.png,trial_left_image,1,exp3.png,1,exp3.png,exp4.png,1,1,non-reversed,correct,0.8105602182689327,1,valid_win,232.16795909998473,14,,,,,,,,,,,s_022,1,2020_Dec_14_0912,Reversal,3.2.4,60.027900978169534,
8,exp1.png,exp2.png,1,0,1,0,0,8,8,8,,,,,,,,,,,,,,,,,,,,,,,,,False,27,28,True,exp2.png,exp1.png,trial_right_image,-1,exp1.png,1,exp1.png,exp2.png,1,3,reversed,correct,0.06818307877845142,0,invalid_lose,236.40025700000115,14,,,,,,,,,,,s_022,1,2020_Dec_14_0912,Reversal,3.2.4,60.027900978169534,
9,exp3.png,exp4.png,1,0,1,0,0,9,9,9,,,,,,,,,,,,,,,,,,,,,,,,,False,28,29,True,exp4.png,exp3.png,trial_right_image,-1,exp3.png,1,exp3.png,exp4.png,1,1,non-reversed,correct,0.3057628180805009,1,valid_win,243.36324619996594,15,,,,,,,,,,,s_022,1,2020_Dec_14_0912,Reversal,3.2.4,60.027900978169534,
10,exp1.png,exp2.png,1,0,1,0,0,10,10,10,,,,,,,,,,,,,,,,,,,,,,,,,False,29,30,False,exp1.png,exp2.png,trial_left_image,1,exp1.png,1,exp1.png,exp2.png,1,3,reversed,correct,0.011570310912123682,0,invalid_lose,248.59602179995272,15,,,,,,,,,,,s_022,1,2020_Dec_14_0912,Reversal,3.2.4,60.027900978169534,
11,exp3.png,exp4.png,1,0,1,0,0,11,11,11,,,,,,,,,,,,,,,,,,,,,,,,,False,30,31,False,exp3.png,exp4.png,trial_right_image,-1,exp4.png,1,exp3.png,exp4.png,0,2,non-reversed,incorrect,0.8849030566159628,0,valid_lose,253.0781619999907,15,,,,,,,,,,,s_022,1,2020_Dec_14_0912,Reversal,3.2.4,60.027900978169534,
12,exp1.png,exp2.png,1,0,1,0,0,12,12,12,,,,,,,,,,,,,,,,,,,,,,,,,False,31,32,True,exp2.png,exp1.png,trial_right_image,-1,exp1.png,1,exp1.png,exp2.png,1,3,reversed,correct,0.28295402941963765,1,valid_win,261.27354959998047,16,,,,,,,,,,,s_022,1,2020_Dec_14_0912,Reversal,3.2.4,60.027900978169534,
13,exp3.png,exp4.png,1,0,1,0,0,13,13,13,,,,,,,,,,,,,,,,,,,,,,,,,False,32,33,False,exp3.png,exp4.png,trial_right_image,-1,exp4.png,1,exp3.png,exp4.png,0,2,non-reversed,incorrect,0.8512589076632634,0,valid_lose,268.5057917999802,16,,,,,,,,,,,s_022,1,2020_Dec_14_0912,Reversal,3.2.4,60.027900978169534,
14,exp1.png,exp2.png,1,0,1,0,0,14,14,14,,,,,,,,,,,,,,,,,,,,,,,,,False,33,34,False,exp1.png,exp2.png,trial_left_image,1,exp1.png,1,exp1.png,exp2.png,1,3,reversed,correct,0.14388788923233287,0,invalid_lose,274.0693057999597,16,,,,,,,,,,,s_022,1,2020_Dec_14_0912,Reversal,3.2.4,60.027900978169534,
15,exp3.png,exp4.png,1,0,1,0,0,15,15,15,,,,,,,,,,,,,,,,,,,,,,,,,False,34,35,True,exp4.png,exp3.png,trial_left_image,1,exp4.png,1,exp3.png,exp4.png,0,2,non-reversed,incorrect,0.42209744491942514,0,valid_lose,281.5171951999655,16,,,,,,,,,,,s_022,1,2020_Dec_14_0912,Reversal,3.2.4,60.027900978169534,
16,exp1.png,exp2.png,1,0,1,0,0,16,16,16,,,,,,,,,,,,,,,,,,,,,,,,,False,35,36,True,exp2.png,exp1.png,trial_right_image,-1,exp1.png,1,exp1.png,exp2.png,1,3,reversed,correct,0.7854353219581209,1,valid_win,286.96624129998963,17,,,,,,,,,,,s_022,1,2020_Dec_14_0912,Reversal,3.2.4,60.027900978169534,
17,exp3.png,exp4.png,1,0,1,0,0,17,17,17,,,,,,,,,,,,,,,,,,,,,,,,,False,36,37,True,exp4.png,exp3.png,trial_right_image,-1,exp3.png,1,exp3.png,exp4.png,1,1,non-reversed,correct,0.2271171057677075,0,invalid_lose,293.7977131999796,17,,,,,,,,,,,s_022,1,2020_Dec_14_0912,Reversal,3.2.4,60.027900978169534,
18,exp1.png,exp2.png,1,0,1,0,0,18,18,18,,,,,,,,,,,,,,,,,,,,,,,,,False,37,38,True,exp2.png,exp1.png,trial_right_image,-1,exp1.png,1,exp1.png,exp2.png,1,3,reversed,correct,0.016913261551336323,0,invalid_lose,298.31239849998383,17,,,,,,,,,,,s_022,1,2020_Dec_14_0912,Reversal,3.2.4,60.027900978169534,
19,exp3.png,exp4.png,1,0,1,0,0,19,19,19,,,,,,,,,,,,,,,,,,,,,,,,,False,38,39,True,exp4.png,exp3.png,trial_left_image,1,exp4.png,1,exp3.png,exp4.png,0,2,non-reversed,incorrect,0.36917653098458303,0,valid_lose,304.14372929994715,17,,,,,,,,,,,s_022,1,2020_Dec_14_0912,Reversal,3.2.4,60.027900978169534,
20,exp1.png,exp2.png,1,0,1,0,0,20,20,20,,,,,,,,,,,,,,,,,,,,,,,,,False,39,40,False,exp1.png,exp2.png,trial_left_image,1,exp1.png,1,exp1.png,exp2.png,1,3,reversed,correct,0.3663467944614267,1,valid_win,309.09198559995275,18,,,,,,,,,,,s_022,1,2020_Dec_14_0912,Reversal,3.2.4,60.027900978169534,
,,,1,0,1,0,,,,,0,0,0,0,,,,,,,,,,,,,,,,,,,,,,,,,,,,,,,,,,,,,,,,,,100,50.0,0,50,,,,,,,s_022,1,2020_Dec_14_0912,Reversal,3.2.4,60.027900978169534,
0,exp1.png,exp2.png,2,0,2,0,0,0,0,0,,,,,,,,,,,,,,,,,,,,,,,,,True,,,,,,,,,,,,,,,,,,,,,,,,,,,,,,,s_022,1,2020_Dec_14_0912,Reversal,3.2.4,60.027900978169534,
1,exp3.png,exp4.png,2,0,2,0,0,1,1,1,,,,,,,,,,,,,,,,,,,,,,,,,False,40,41,False,exp3.png,exp4.png,trial_right_image,-1,exp4.png,1,exp3.png,exp4.png,0,2,non-reversed,incorrect,0.11129455833621371,1,invalid_win,363.2243634999613,19,,,,,,,,,,,s_022,1,2020_Dec_14_0912,Reversal,3.2.4,60.027900978169534,
2,exp1.png,exp2.png,2,0,2,0,0,2,2,2,,,,,,,,,,,,,,,,,,,,,,,,,False,41,42,True,exp2.png,exp1.png,trial_right_image,-1,exp1.png,1,exp1.png,exp2.png,1,3,reversed,correct,0.7934033858975955,1,valid_win,368.28866549994564,20,,,,,,,,,,,s_022,1,2020_Dec_14_0912,Reversal,3.2.4,60.027900978169534,
3,exp3.png,exp4.png,2,0,2,0,0,3,3,3,,,,,,,,,,,,,,,,,,,,,,,,,False,42,43,True,exp4.png,exp3.png,trial_left_image,1,exp4.png,1,exp3.png,exp4.png,0,2,non-reversed,incorrect,0.5111073046310212,0,valid_lose,375.03654829994775,20,,,,,,,,,,,s_022,1,2020_Dec_14_0912,Reversal,3.2.4,60.027900978169534,
4,exp1.png,exp2.png,2,0,2,0,0,4,4,4,,,,,,,,,,,,,,,,,,,,,,,,,False,43,44,True,exp2.png,exp1.png,trial_right_image,-1,exp1.png,1,exp1.png,exp2.png,1,3,reversed,correct,0.40721700167910335,1,valid_win,379.75174649996916,21,,,,,,,,,,,s_022,1,2020_Dec_14_0912,Reversal,3.2.4,60.027900978169534,
5,exp3.png,exp4.png,2,0,2,0,0,5,5,5,,,,,,,,,,,,,,,,,,,,,,,,,False,44,45,False,exp3.png,exp4.png,trial_left_image,1,exp3.png,1,exp3.png,exp4.png,1,1,non-reversed,correct,0.9885132268206794,1,valid_win,388.06431089999387,22,,,,,,,,,,,s_022,1,2020_Dec_14_0912,Reversal,3.2.4,60.027900978169534,
6,exp1.png,exp2.png,2,0,2,0,0,6,6,6,,,,,,,,,,,,,,,,,,,,,,,,,False,45,46,False,exp1.png,exp2.png,trial_left_image,1,exp1.png,1,exp1.png,exp2.png,1,3,reversed,correct,0.7961060607359284,1,valid_win,393.4291508999886,23,,,,,,,,,,,s_022,1,2020_Dec_14_0912,Reversal,3.2.4,60.027900978169534,
7,exp3.png,exp4.png,2,0,2,0,0,7,7,7,,,,,,,,,,,,,,,,,,,,,,,,,False,46,47,False,exp3.png,exp4.png,trial_left_image,1,exp3.png,1,exp3.png,exp4.png,1,1,non-reversed,correct,0.038669280979228615,0,invalid_lose,400.84451699996134,23,,,,,,,,,,,s_022,1,2020_Dec_14_0912,Reversal,3.2.4,60.027900978169534,
8,exp1.png,exp2.png,2,0,2,0,0,8,8,8,,,,,,,,,,,,,,,,,,,,,,,,,False,47,48,True,exp2.png,exp1.png,trial_right_image,-1,exp1.png,1,exp1.png,exp2.png,1,3,reversed,correct,0.12986736523299214,0,invalid_lose,405.6768313999637,23,,,,,,,,,,,s_022,1,2020_Dec_14_0912,Reversal,3.2.4,60.027900978169534,
9,exp3.png,exp4.png,2,0,2,0,0,9,9,9,,,,,,,,,,,,,,,,,,,,,,,,,False,48,49,True,exp4.png,exp3.png,trial_right_image,-1,exp3.png,1,exp3.png,exp4.png,1,1,non-reversed,correct,0.002425213827839112,0,invalid_lose,410.75787189998664,23,,,,,,,,,,,s_022,1,2020_Dec_14_0912,Reversal,3.2.4,60.027900978169534,
10,exp1.png,exp2.png,2,0,2,0,0,10,10,10,,,,,,,,,,,,,,,,,,,,,,,,,False,49,50,True,exp2.png,exp1.png,trial_right_image,-1,exp1.png,1,exp1.png,exp2.png,1,3,reversed,correct,0.41662556899517866,1,valid_win,415.6395740999724,24,,,,,,,,,,,s_022,1,2020_Dec_14_0912,Reversal,3.2.4,60.027900978169534,
11,exp3.png,exp4.png,2,0,2,0,0,11,11,11,,,,,,,,,,,,,,,,,,,,,,,,,False,50,51,True,exp4.png,exp3.png,trial_left_image,1,exp4.png,1,exp3.png,exp4.png,0,2,non-reversed,incorrect,0.6643021584248407,0,valid_lose,422.2379955999786,24,,,,,,,,,,,s_022,1,2020_Dec_14_0912,Reversal,3.2.4,60.027900978169534,
12,exp1.png,exp2.png,2,0,2,0,0,12,12,12,,,,,,,,,,,,,,,,,,,,,,,,,False,51,52,False,exp1.png,exp2.png,trial_left_image,1,exp1.png,1,exp1.png,exp2.png,1,3,reversed,correct,0.11450094297265911,0,invalid_lose,428.9851966999704,24,,,,,,,,,,,s_022,1,2020_Dec_14_0912,Reversal,3.2.4,60.027900978169534,
13,exp3.png,exp4.png,2,0,2,0,0,13,13,13,,,,,,,,,,,,,,,,,,,,,,,,,False,52,53,False,exp3.png,exp4.png,trial_right_image,-1,exp4.png,1,exp3.png,exp4.png,0,2,non-reversed,incorrect,0.2612857192050325,0,valid_lose,435.7827375999768,24,,,,,,,,,,,s_022,1,2020_Dec_14_0912,Reversal,3.2.4,60.027900978169534,
14,exp1.png,exp2.png,2,0,2,0,0,14,14,14,,,,,,,,,,,,,,,,,,,,,,,,,False,53,54,False,exp1.png,exp2.png,trial_left_image,1,exp1.png,1,exp1.png,exp2.png,1,3,reversed,correct,0.9081368874042727,1,valid_win,440.33162799995625,25,,,,,,,,,,,s_022,1,2020_Dec_14_0912,Reversal,3.2.4,60.027900978169534,
15,exp3.png,exp4.png,2,0,2,0,0,15,15,15,,,,,,,,,,,,,,,,,,,,,,,,,False,54,55,True,exp4.png,exp3.png,trial_right_image,-1,exp3.png,1,exp3.png,exp4.png,1,1,non-reversed,correct,0.21527036643351427,0,invalid_lose,446.46241809998173,25,,,,,,,,,,,s_022,1,2020_Dec_14_0912,Reversal,3.2.4,60.027900978169534,
16,exp1.png,exp2.png,2,0,2,0,0,16,16,16,,,,,,,,,,,,,,,,,,,,,,,,,False,55,56,False,exp1.png,exp2.png,trial_left_image,1,exp1.png,1,exp1.png,exp2.png,1,3,reversed,correct,0.6385278629315445,1,valid_win,450.9777191999601,26,,,,,,,,,,,s_022,1,2020_Dec_14_0912,Reversal,3.2.4,60.027900978169534,
17,exp3.png,exp4.png,2,0,2,0,0,17,17,17,,,,,,,,,,,,,,,,,,,,,,,,,False,56,57,False,exp3.png,exp4.png,trial_right_image,-1,exp4.png,1,exp3.png,exp4.png,0,2,non-reversed,incorrect,0.7564101409799848,0,valid_lose,459.09163869998883,26,,,,,,,,,,,s_022,1,2020_Dec_14_0912,Reversal,3.2.4,60.027900978169534,
18,exp1.png,exp2.png,2,0,2,0,0,18,18,18,,,,,,,,,,,,,,,,,,,,,,,,,False,57,58,True,exp2.png,exp1.png,trial_right_image,-1,exp1.png,1,exp1.png,exp2.png,1,3,reversed,correct,0.24284058863338165,0,invalid_lose,464.08981509995647,26,,,,,,,,,,,s_022,1,2020_Dec_14_0912,Reversal,3.2.4,60.027900978169534,
19,exp3.png,exp4.png,2,0,2,0,0,19,19,19,,,,,,,,,,,,,,,,,,,,,,,,,False,58,59,True,exp4.png,exp3.png,trial_left_image,1,exp4.png,1,exp3.png,exp4.png,0,2,non-reversed,incorrect,0.48313291047233764,0,valid_lose,470.87078619998647,26,,,,,,,,,,,s_022,1,2020_Dec_14_0912,Reversal,3.2.4,60.027900978169534,
20,exp1.png,exp2.png,2,0,2,0,0,20,20,20,,,,,,,,,,,,,,,,,,,,,,,,,False,59,60,False,exp1.png,exp2.png,trial_left_image,1,exp1.png,1,exp1.png,exp2.png,1,3,reversed,correct,0.8335064533108306,1,valid_win,475.6190988999442,27,,,,,,,,,,,s_022,1,2020_Dec_14_0912,Reversal,3.2.4,60.027900978169534,
,,,2,0,2,0,,,,,0,0,0,0,,,,,,,,,,,,,,,,,,,,,,,,,,,,,,,,,,,,,,,,,,76,0,13,11,,,,,,,s_022,1,2020_Dec_14_0912,Reversal,3.2.4,60.027900978169534,
0,exp1.png,exp2.png,3,0,3,0,0,0,0,0,,,,,,,,,,,,,,,,,,,,,,,,,True,,,,,,,,,,,,,,,,,,,,,,,,,,,,,,,s_022,1,2020_Dec_14_0912,Reversal,3.2.4,60.027900978169534,
1,exp3.png,exp4.png,3,0,3,0,0,1,1,1,,,,,,,,,,,,,,,,,,,,,,,,,False,60,61,False,exp3.png,exp4.png,trial_left_image,1,exp3.png,1,exp3.png,exp4.png,1,1,non-reversed,correct,0.7205679075133032,1,valid_win,551.2443465999677,28,,,,,,,,,,,s_022,1,2020_Dec_14_0912,Reversal,3.2.4,60.027900978169534,
2,exp1.png,exp2.png,3,0,3,0,0,2,2,2,,,,,,,,,,,,,,,,,,,,,,,,,False,61,62,True,exp2.png,exp1.png,trial_right_image,-1,exp1.png,1,exp1.png,exp2.png,1,3,reversed,correct,0.08891960709201052,0,invalid_lose,556.242314299976,28,,,,,,,,,,,s_022,1,2020_Dec_14_0912,Reversal,3.2.4,60.027900978169534,
3,exp3.png,exp4.png,3,0,3,0,0,3,3,3,,,,,,,,,,,,,,,,,,,,,,,,,False,62,63,True,exp4.png,exp3.png,trial_right_image,-1,exp3.png,1,exp3.png,exp4.png,1,1,non-reversed,correct,0.35791639431119515,1,valid_win,564.655843799992,29,,,,,,,,,,,s_022,1,2020_Dec_14_0912,Reversal,3.2.4,60.027900978169534,
4,exp1.png,exp2.png,3,0,3,0,0,4,4,4,,,,,,,,,,,,,,,,,,,,,,,,,False,63,64,True,exp2.png,exp1.png,trial_right_image,-1,exp1.png,1,exp1.png,exp2.png,1,3,reversed,correct,0.44444086355693657,1,valid_win,569.187743699993,30,,,,,,,,,,,s_022,1,2020_Dec_14_0912,Reversal,3.2.4,60.027900978169534,
5,exp3.png,exp4.png,3,0,3,0,0,5,5,5,,,,,,,,,,,,,,,,,,,,,,,,,False,64,65,True,exp4.png,exp3.png,trial_right_image,-1,exp3.png,1,exp3.png,exp4.png,1,1,non-reversed,correct,0.8458505292032442,1,valid_win,573.9030806999654,31,,,,,,,,,,,s_022,1,2020_Dec_14_0912,Reversal,3.2.4,60.027900978169534,
6,exp1.png,exp2.png,3,0,3,0,0,6,6,6,,,,,,,,,,,,,,,,,,,,,,,,,False,65,66,False,exp1.png,exp2.png,trial_left_image,1,exp1.png,1,exp1.png,exp2.png,1,3,reversed,correct,0.45545930439622195,1,valid_win,578.7679691999801,32,,,,,,,,,,,s_022,1,2020_Dec_14_0912,Reversal,3.2.4,60.027900978169534,
7,exp3.png,exp4.png,3,0,3,0,0,7,7,7,,,,,,,,,,,,,,,,,,,,,,,,,False,66,67,True,exp4.png,exp3.png,trial_right_image,-1,exp3.png,1,exp3.png,exp4.png,1,1,non-reversed,correct,0.016234152302077254,0,invalid_lose,584.2829695999972,32,,,,,,,,,,,s_022,1,2020_Dec_14_0912,Reversal,3.2.4,60.027900978169534,
8,exp1.png,exp2.png,3,0,3,0,0,8,8,8,,,,,,,,,,,,,,,,,,,,,,,,,False,67,68,False,exp1.png,exp2.png,trial_left_image,1,exp1.png,1,exp1.png,exp2.png,1,3,reversed,correct,0.21618344011338686,0,invalid_lose,588.9314735999797,32,,,,,,,,,,,s_022,1,2020_Dec_14_0912,Reversal,3.2.4,60.027900978169534,
9,exp3.png,exp4.png,3,0,3,0,0,9,9,9,,,,,,,,,,,,,,,,,,,,,,,,,False,68,69,True,exp4.png,exp3.png,trial_right_image,-1,exp3.png,1,exp3.png,exp4.png,1,1,non-reversed,correct,0.7586942653932962,1,valid_win,594.2960131999571,33,,,,,,,,,,,s_022,1,2020_Dec_14_0912,Reversal,3.2.4,60.027900978169534,
10,exp1.png,exp2.png,3,0,3,0,0,10,10,10,,,,,,,,,,,,,,,,,,,,,,,,,False,69,70,False,exp1.png,exp2.png,trial_left_image,1,exp1.png,1,exp1.png,exp2.png,1,3,reversed,correct,0.43622953859947533,1,valid_win,598.8613447999815,34,,,,,,,,,,,s_022,1,2020_Dec_14_0912,Reversal,3.2.4,60.027900978169534,
11,exp3.png,exp4.png,3,0,3,0,0,11,11,11,,,,,,,,,,,,,,,,,,,,,,,,,False,70,71,False,exp3.png,exp4.png,trial_right_image,-1,exp4.png,1,exp3.png,exp4.png,0,2,non-reversed,incorrect,0.636151950881743,0,valid_lose,608.7246492999839,34,,,,,,,,,,,s_022,1,2020_Dec_14_0912,Reversal,3.2.4,60.027900978169534,
12,exp1.png,exp2.png,3,0,3,0,0,12,12,12,,,,,,,,,,,,,,,,,,,,,,,,,False,71,72,False,exp1.png,exp2.png,trial_left_image,1,exp1.png,1,exp1.png,exp2.png,1,3,reversed,correct,0.8189716643883127,1,valid_win,613.1728279999807,35,,,,,,,,,,,s_022,1,2020_Dec_14_0912,Reversal,3.2.4,60.027900978169534,
13,exp3.png,exp4.png,3,0,3,0,0,13,13,13,,,,,,,,,,,,,,,,,,,,,,,,,False,72,73,True,exp4.png,exp3.png,trial_right_image,-1,exp3.png,1,exp3.png,exp4.png,1,1,non-reversed,correct,0.39585569885843674,1,valid_win,618.5381101999665,36,,,,,,,,,,,s_022,1,2020_Dec_14_0912,Reversal,3.2.4,60.027900978169534,
14,exp1.png,exp2.png,3,0,3,0,0,14,14,14,,,,,,,,,,,,,,,,,,,,,,,,,False,73,74,True,exp2.png,exp1.png,trial_right_image,-1,exp1.png,1,exp1.png,exp2.png,1,3,reversed,correct,0.64755707877474,1,valid_win,623.1860295999795,37,,,,,,,,,,,s_022,1,2020_Dec_14_0912,Reversal,3.2.4,60.027900978169534,
15,exp3.png,exp4.png,3,0,3,0,0,15,15,15,,,,,,,,,,,,,,,,,,,,,,,,,False,74,75,False,exp3.png,exp4.png,trial_right_image,-1,exp4.png,1,exp3.png,exp4.png,0,2,non-reversed,incorrect,0.2937989369114803,0,valid_lose,631.4666987999808,37,,,,,,,,,,,s_022,1,2020_Dec_14_0912,Reversal,3.2.4,60.027900978169534,
16,exp1.png,exp2.png,3,0,3,0,0,16,16,16,,,,,,,,,,,,,,,,,,,,,,,,,False,75,76,False,exp1.png,exp2.png,trial_left_image,1,exp1.png,1,exp1.png,exp2.png,1,3,reversed,correct,0.9630160960973132,1,valid_win,635.9659057999961,38,,,,,,,,,,,s_022,1,2020_Dec_14_0912,Reversal,3.2.4,60.027900978169534,
17,exp3.png,exp4.png,3,0,3,0,0,17,17,17,,,,,,,,,,,,,,,,,,,,,,,,,False,76,77,False,exp3.png,exp4.png,trial_left_image,1,exp3.png,1,exp3.png,exp4.png,1,1,non-reversed,correct,0.334175729143094,1,valid_win,643.3630852999631,39,,,,,,,,,,,s_022,1,2020_Dec_14_0912,Reversal,3.2.4,60.027900978169534,
18,exp1.png,exp2.png,3,0,3,0,0,18,18,18,,,,,,,,,,,,,,,,,,,,,,,,,False,77,78,False,exp1.png,exp2.png,trial_left_image,1,exp1.png,1,exp1.png,exp2.png,1,3,reversed,correct,0.8026624385310339,1,valid_win,647.8278217999614,40,,,,,,,,,,,s_022,1,2020_Dec_14_0912,Reversal,3.2.4,60.027900978169534,
19,exp3.png,exp4.png,3,0,3,0,0,19,19,19,,,,,,,,,,,,,,,,,,,,,,,,,False,78,79,True,exp4.png,exp3.png,trial_right_image,-1,exp3.png,1,exp3.png,exp4.png,1,1,non-reversed,correct,0.8689352264033706,1,valid_win,652.8744752999628,41,,,,,,,,,,,s_022,1,2020_Dec_14_0912,Reversal,3.2.4,60.027900978169534,
20,exp1.png,exp2.png,3,0,3,0,0,20,20,20,,,,,,,,,,,,,,,,,,,,,,,,,False,79,80,True,exp2.png,exp1.png,trial_right_image,-1,exp1.png,1,exp1.png,exp2.png,1,3,reversed,correct,0.5004779420463191,1,valid_win,659.3570634999778,42,,,,,,,,,,,s_022,1,2020_Dec_14_0912,Reversal,3.2.4,60.027900978169534,
,,,3,0,3,0,,,,,0,0,0,0,,,,,,,,,,,,,,,,,,,,,,,,,,,,,,,,,,,,,,,,,,88,23,83,84,,,,,,,s_022,1,2020_Dec_14_0912,Reversal,3.2.4,60.027900978169534,
0,exp1.png,exp2.png,,,,,,,,,,,,,,,,,0,0,0,0,0,0,0,0,,,,,,,,,True,,,,,,,,,,,,,,,,,,,,,,,,,,,,,,,s_022,1,2020_Dec_14_0912,Reversal,3.2.4,60.027900978169534,
1,exp3.png,exp4.png,,,,,,,,,,,,,,,,,0,0,0,0,0,1,1,1,,,,,,,,,False,0,81,True,exp4.png,exp3.png,trial_right_image,-1,exp3.png,1,exp3.png,exp4.png,1,1,non-reversed,correct,0.5024728439933218,1,valid_win,698.0275583999464,43,,,,,695.6909857999999,,,,,,s_022,1,2020_Dec_14_0912,Reversal,3.2.4,60.027900978169534,
2,exp1.png,exp2.png,,,,,,,,,,,,,,,,,0,0,0,0,0,2,2,2,,,,,,,,,False,1,82,True,exp2.png,exp1.png,trial_right_image,-1,exp1.png,1,exp2.png,exp1.png,1,3,reversed,incorrect,0.2073912037179999,1,invalid_win,702.3094933999819,44,,,,,,,,,,,s_022,1,2020_Dec_14_0912,Reversal,3.2.4,60.027900978169534,
3,exp3.png,exp4.png,,,,,,,,,,,,,,,,,0,0,0,0,0,3,3,3,,,,,,,,,False,2,83,True,exp4.png,exp3.png,trial_right_image,-1,exp3.png,1,exp3.png,exp4.png,1,1,non-reversed,correct,0.3986196483589243,1,valid_win,706.858120799996,45,,,,,,,,,,,s_022,1,2020_Dec_14_0912,Reversal,3.2.4,60.027900978169534,
4,exp1.png,exp2.png,,,,,,,,,,,,,,,,,0,0,0,0,0,4,4,4,,,,,,,,,False,3,84,True,exp2.png,exp1.png,trial_right_image,-1,exp1.png,1,exp2.png,exp1.png,1,3,reversed,incorrect,0.3458442861883134,0,valid_lose,711.2063269999926,45,,,,,,,,,,,s_022,1,2020_Dec_14_0912,Reversal,3.2.4,60.027900978169534,
5,exp3.png,exp4.png,,,,,,,,,,,,,,,,,0,0,0,0,0,5,5,5,,,,,,,,,False,4,85,True,exp4.png,exp3.png,trial_right_image,-1,exp3.png,1,exp3.png,exp4.png,1,1,non-reversed,correct,0.9271989544832911,1,valid_win,715.7385417999467,46,,,,,,,,,,,s_022,1,2020_Dec_14_0912,Reversal,3.2.4,60.027900978169534,
6,exp1.png,exp2.png,,,,,,,,,,,,,,,,,0,0,0,0,0,6,6,6,,,,,,,,,False,5,86,False,exp1.png,exp2.png,trial_left_image,1,exp1.png,1,exp2.png,exp1.png,1,3,reversed,incorrect,0.3241664783080279,0,valid_lose,720.2034115999704,46,,,,,,,,,,,s_022,1,2020_Dec_14_0912,Reversal,3.2.4,60.027900978169534,
7,exp3.png,exp4.png,,,,,,,,,,,,,,,,,0,0,0,0,0,7,7,7,,,,,,,,,False,6,87,True,exp4.png,exp3.png,trial_right_image,-1,exp3.png,1,exp3.png,exp4.png,1,1,non-reversed,correct,0.946731589506337,1,valid_win,724.7683595999843,47,,,,,,,,,,,s_022,1,2020_Dec_14_0912,Reversal,3.2.4,60.027900978169534,
8,exp1.png,exp2.png,,,,,,,,,,,,,,,,,0,0,0,0,0,8,8,8,,,,,,,,,False,7,88,True,exp2.png,exp1.png,trial_right_image,-1,exp1.png,1,exp2.png,exp1.png,1,3,reversed,incorrect,0.2803338267182849,0,valid_lose,729.3503457999905,47,,,,,,,,,,,s_022,1,2020_Dec_14_0912,Reversal,3.2.4,60.027900978169534,
9,exp3.png,exp4.png,,,,,,,,,,,,,,,,,0,0,0,0,0,9,9,9,,,,,,,,,False,8,89,True,exp4.png,exp3.png,trial_right_image,-1,exp3.png,1,exp3.png,exp4.png,1,1,non-reversed,correct,0.6178232499295623,1,valid_win,734.0658641999471,48,,,,,,,,,,,s_022,1,2020_Dec_14_0912,Reversal,3.2.4,60.027900978169534,
10,exp1.png,exp2.png,,,,,,,,,,,,,,,,,0,0,0,0,0,10,10,10,,,,,,,,,False,9,90,False,exp1.png,exp2.png,trial_right_image,-1,exp2.png,1,exp2.png,exp1.png,0,4,reversed,correct,0.37095609690327147,1,valid_win,739.346809599956,49,,,,,,,,,,,s_022,1,2020_Dec_14_0912,Reversal,3.2.4,60.027900978169534,
11,exp3.png,exp4.png,,,,,,,,,,,,,,,,,0,0,0,0,0,11,11,11,,,,,,,,,False,10,91,False,exp3.png,exp4.png,trial_left_image,1,exp3.png,1,exp3.png,exp4.png,1,1,non-reversed,correct,0.9697087632971403,1,valid_win,748.7439964999794,50,,,,,,,,,,,s_022,1,2020_Dec_14_0912,Reversal,3.2.4,60.027900978169534,
12,exp1.png,exp2.png,,,,,,,,,,,,,,,,,0,0,0,0,0,12,12,12,,,,,,,,,False,11,92,False,exp1.png,exp2.png,trial_right_image,-1,exp2.png,1,exp2.png,exp1.png,0,4,reversed,correct,0.7178262387570864,1,valid_win,754.0751447999501,51,,,,,,,,,,,s_022,1,2020_Dec_14_0912,Reversal,3.2.4,60.027900978169534,
13,exp3.png,exp4.png,,,,,,,,,,,,,,,,,0,0,0,0,0,13,13,13,,,,,,,,,False,12,93,True,exp4.png,exp3.png,trial_right_image,-1,exp3.png,1,exp3.png,exp4.png,1,1,non-reversed,correct,0.37824003124344074,1,valid_win,760.9230048999889,52,,,,,,,,,,,s_022,1,2020_Dec_14_0912,Reversal,3.2.4,60.027900978169534,
14,exp1.png,exp2.png,,,,,,,,,,,,,,,,,0,0,0,0,0,14,14,14,,,,,,,,,False,13,94,False,exp1.png,exp2.png,trial_right_image,-1,exp2.png,1,exp2.png,exp1.png,0,4,reversed,correct,0.17141166524234186,0,invalid_lose,765.5885865999735,52,,,,,,,,,,,s_022,1,2020_Dec_14_0912,Reversal,3.2.4,60.027900978169534,
15,exp3.png,exp4.png,,,,,,,,,,,,,,,,,0,0,0,0,0,15,15,15,,,,,,,,,False,14,95,False,exp3.png,exp4.png,trial_right_image,-1,exp4.png,1,exp3.png,exp4.png,0,2,non-reversed,incorrect,0.00930189265974568,1,invalid_win,771.4697446999489,53,,,,,,,,,,,s_022,1,2020_Dec_14_0912,Reversal,3.2.4,60.027900978169534,
16,exp1.png,exp2.png,,,,,,,,,,,,,,,,,0,0,0,0,0,16,16,16,,,,,,,,,False,15,96,False,exp1.png,exp2.png,trial_right_image,-1,exp2.png,1,exp2.png,exp1.png,0,4,reversed,correct,0.6035180989283879,1,valid_win,776.034319999977,54,,,,,,,,,,,s_022,1,2020_Dec_14_0912,Reversal,3.2.4,60.027900978169534,
17,exp3.png,exp4.png,,,,,,,,,,,,,,,,,0,0,0,0,0,17,17,17,,,,,,,,,False,16,97,False,exp3.png,exp4.png,trial_left_image,1,exp3.png,1,exp3.png,exp4.png,1,1,non-reversed,correct,0.7401527517569018,1,valid_win,789.7132780999527,55,,,,,,,,,,,s_022,1,2020_Dec_14_0912,Reversal,3.2.4,60.027900978169534,
18,exp1.png,exp2.png,,,,,,,,,,,,,,,,,0,0,0,0,0,18,18,18,,,,,,,,,False,17,98,True,exp2.png,exp1.png,trial_left_image,1,exp2.png,1,exp2.png,exp1.png,0,4,reversed,correct,0.5364516613611799,1,valid_win,794.96204699995,56,,,,,,,,,,,s_022,1,2020_Dec_14_0912,Reversal,3.2.4,60.027900978169534,
19,exp3.png,exp4.png,,,,,,,,,,,,,,,,,0,0,0,0,0,19,19,19,,,,,,,,,False,18,99,False,exp3.png,exp4.png,trial_left_image,1,exp3.png,1,exp3.png,exp4.png,1,1,non-reversed,correct,0.686053139182466,1,valid_win,800.3603268999723,57,,,,,,,,,,,s_022,1,2020_Dec_14_0912,Reversal,3.2.4,60.027900978169534,
20,exp1.png,exp2.png,,,,,,,,,,,,,,,,,0,0,0,0,0,20,20,20,,,,,,,,,False,19,100,False,exp1.png,exp2.png,trial_right_image,-1,exp2.png,1,exp2.png,exp1.png,0,4,reversed,correct,0.9961530083022258,1,valid_win,805.1064689999912,58,,,,,,,,,,,s_022,1,2020_Dec_14_0912,Reversal,3.2.4,60.027900978169534,
,,,,,,,,,,,,,,,,,,,0,0,0,0,,,,,0,0,0,0,,,,,,,,,,,,,,,,,,,,,,,,,,0,18,99,85,,,,,,,s_022,1,2020_Dec_14_0912,Reversal,3.2.4,60.027900978169534,
0,exp1.png,exp2.png,,,,,,,,,,,,,,,,,1,0,1,0,0,0,0,0,,,,,,,,,True,,,,,,,,,,,,,,,,,,,,,,,,,,,,,,,s_022,1,2020_Dec_14_0912,Reversal,3.2.4,60.027900978169534,
1,exp3.png,exp4.png,,,,,,,,,,,,,,,,,1,0,1,0,0,1,1,1,,,,,,,,,False,20,101,False,exp3.png,exp4.png,trial_left_image,1,exp3.png,1,exp3.png,exp4.png,1,1,non-reversed,correct,0.910525054423181,1,valid_win,836.7642412999994,59,,,,,,,,,,,s_022,1,2020_Dec_14_0912,Reversal,3.2.4,60.027900978169534,
2,exp1.png,exp2.png,,,,,,,,,,,,,,,,,1,0,1,0,0,2,2,2,,,,,,,,,False,21,102,True,exp2.png,exp1.png,trial_right_image,-1,exp1.png,1,exp2.png,exp1.png,1,3,reversed,incorrect,0.13576214633882133,1,invalid_win,842.045583799947,60,,,,,,,,,,,s_022,1,2020_Dec_14_0912,Reversal,3.2.4,60.027900978169534,
3,exp3.png,exp4.png,,,,,,,,,,,,,,,,,1,0,1,0,0,3,3,3,,,,,,,,,False,22,103,False,exp3.png,exp4.png,trial_left_image,1,exp3.png,1,exp3.png,exp4.png,1,1,non-reversed,correct,0.2042829235185195,0,invalid_lose,846.8106863999856,60,,,,,,,,,,,s_022,1,2020_Dec_14_0912,Reversal,3.2.4,60.027900978169534,
4,exp1.png,exp2.png,,,,,,,,,,,,,,,,,1,0,1,0,0,4,4,4,,,,,,,,,False,23,104,True,exp2.png,exp1.png,trial_right_image,-1,exp1.png,1,exp2.png,exp1.png,1,3,reversed,incorrect,0.14502594498290355,1,invalid_win,852.125358499994,61,,,,,,,,,,,s_022,1,2020_Dec_14_0912,Reversal,3.2.4,60.027900978169534,
5,exp3.png,exp4.png,,,,,,,,,,,,,,,,,1,0,1,0,0,5,5,5,,,,,,,,,False,24,105,True,exp4.png,exp3.png,trial_right_image,-1,exp3.png,1,exp3.png,exp4.png,1,1,non-reversed,correct,0.863972103875102,1,valid_win,857.4739267999539,62,,,,,,,,,,,s_022,1,2020_Dec_14_0912,Reversal,3.2.4,60.027900978169534,
6,exp1.png,exp2.png,,,,,,,,,,,,,,,,,1,0,1,0,0,6,6,6,,,,,,,,,False,25,106,True,exp2.png,exp1.png,trial_right_image,-1,exp1.png,1,exp2.png,exp1.png,1,3,reversed,incorrect,0.005268131735253423,1,invalid_win,866.7208024999709,63,,,,,,,,,,,s_022,1,2020_Dec_14_0912,Reversal,3.2.4,60.027900978169534,
7,exp3.png,exp4.png,,,,,,,,,,,,,,,,,1,0,1,0,0,7,7,7,,,,,,,,,False,26,107,True,exp4.png,exp3.png,trial_right_image,-1,exp3.png,1,exp3.png,exp4.png,1,1,non-reversed,correct,0.9977469911738249,1,valid_win,875.4853853999521,64,,,,,,,,,,,s_022,1,2020_Dec_14_0912,Reversal,3.2.4,60.027900978169534,
8,exp1.png,exp2.png,,,,,,,,,,,,,,,,,1,0,1,0,0,8,8,8,,,,,,,,,False,27,108,False,exp1.png,exp2.png,trial_left_image,1,exp1.png,1,exp2.png,exp1.png,1,3,reversed,incorrect,0.08022778853655599,1,invalid_win,879.9160847999738,65,,,,,,,,,,,s_022,1,2020_Dec_14_0912,Reversal,3.2.4,60.027900978169534,
9,exp3.png,exp4.png,,,,,,,,,,,,,,,,,1,0,1,0,0,9,9,9,,,,,,,,,False,28,109,False,exp3.png,exp4.png,trial_left_image,1,exp3.png,1,exp3.png,exp4.png,1,1,non-reversed,correct,0.7671183629624756,1,valid_win,885.7629850999801,66,,,,,,,,,,,s_022,1,2020_Dec_14_0912,Reversal,3.2.4,60.027900978169534,
10,exp1.png,exp2.png,,,,,,,,,,,,,,,,,1,0,1,0,0,10,10,10,,,,,,,,,False,29,110,False,exp1.png,exp2.png,trial_left_image,1,exp1.png,1,exp2.png,exp1.png,1,3,reversed,incorrect,0.28363532978840544,0,valid_lose,890.479267799994,66,,,,,,,,,,,s_022,1,2020_Dec_14_0912,Reversal,3.2.4,60.027900978169534,
11,exp3.png,exp4.png,,,,,,,,,,,,,,,,,1,0,1,0,0,11,11,11,,,,,,,,,False,30,111,False,exp3.png,exp4.png,trial_left_image,1,exp3.png,1,exp3.png,exp4.png,1,1,non-reversed,correct,0.766536726341709,1,valid_win,895.6443747999729,67,,,,,,,,,,,s_022,1,2020_Dec_14_0912,Reversal,3.2.4,60.027900978169534,
12,exp1.png,exp2.png,,,,,,,,,,,,,,,,,1,0,1,0,0,12,12,12,,,,,,,,,False,31,112,False,exp1.png,exp2.png,trial_left_image,1,exp1.png,1,exp2.png,exp1.png,1,3,reversed,incorrect,0.5511175635068705,0,valid_lose,900.0922886999906,67,,,,,,,,,,,s_022,1,2020_Dec_14_0912,Reversal,3.2.4,60.027900978169534,
13,exp3.png,exp4.png,,,,,,,,,,,,,,,,,1,0,1,0,0,13,13,13,,,,,,,,,False,32,113,True,exp4.png,exp3.png,trial_right_image,-1,exp3.png,1,exp3.png,exp4.png,1,1,non-reversed,correct,0.5044991586078733,1,valid_win,906.1409673999879,68,,,,,,,,,,,s_022,1,2020_Dec_14_0912,Reversal,3.2.4,60.027900978169534,
14,exp1.png,exp2.png,,,,,,,,,,,,,,,,,1,0,1,0,0,14,14,14,,,,,,,,,False,33,114,True,exp2.png,exp1.png,trial_left_image,1,exp2.png,1,exp2.png,exp1.png,0,4,reversed,correct,0.5891406597563693,1,valid_win,910.9397193999612,69,,,,,,,,,,,s_022,1,2020_Dec_14_0912,Reversal,3.2.4,60.027900978169534,
15,exp3.png,exp4.png,,,,,,,,,,,,,,,,,1,0,1,0,0,15,15,15,,,,,,,,,False,34,115,False,exp3.png,exp4.png,trial_left_image,1,exp3.png,1,exp3.png,exp4.png,1,1,non-reversed,correct,0.9819728288837469,1,valid_win,916.5536964999628,70,,,,,,,,,,,s_022,1,2020_Dec_14_0912,Reversal,3.2.4,60.027900978169534,
16,exp1.png,exp2.png,,,,,,,,,,,,,,,,,1,0,1,0,0,16,16,16,,,,,,,,,False,35,116,True,exp2.png,exp1.png,trial_left_image,1,exp2.png,1,exp2.png,exp1.png,0,4,reversed,correct,0.1379623190226963,0,invalid_lose,921.2688568999874,70,,,,,,,,,,,s_022,1,2020_Dec_14_0912,Reversal,3.2.4,60.027900978169534,
17,exp3.png,exp4.png,,,,,,,,,,,,,,,,,1,0,1,0,0,17,17,17,,,,,,,,,False,36,117,False,exp3.png,exp4.png,trial_left_image,1,exp3.png,1,exp3.png,exp4.png,1,1,non-reversed,correct,0.20672739807746998,0,invalid_lose,925.750903499953,70,,,,,,,,,,,s_022,1,2020_Dec_14_0912,Reversal,3.2.4,60.027900978169534,
18,exp1.png,exp2.png,,,,,,,,,,,,,,,,,1,0,1,0,0,18,18,18,,,,,,,,,False,37,118,True,exp2.png,exp1.png,trial_right_image,-1,exp1.png,1,exp2.png,exp1.png,1,3,reversed,incorrect,0.6989676429737577,0,valid_lose,932.5482292999513,70,,,,,,,,,,,s_022,1,2020_Dec_14_0912,Reversal,3.2.4,60.027900978169534,
19,exp3.png,exp4.png,,,,,,,,,,,,,,,,,1,0,1,0,0,19,19,19,,,,,,,,,False,38,119,True,exp4.png,exp3.png,trial_right_image,-1,exp3.png,1,exp3.png,exp4.png,1,1,non-reversed,correct,0.8501410301552105,1,valid_win,938.0132806999609,71,,,,,,,,,,,s_022,1,2020_Dec_14_0912,Reversal,3.2.4,60.027900978169534,
20,exp1.png,exp2.png,,,,,,,,,,,,,,,,,1,0,1,0,0,20,20,20,,,,,,,,,False,39,120,False,exp1.png,exp2.png,trial_right_image,-1,exp2.png,1,exp2.png,exp1.png,0,4,reversed,correct,0.6246153540130358,1,valid_win,943.1603541999939,72,,,,,,,,,,,s_022,1,2020_Dec_14_0912,Reversal,3.2.4,60.027900978169534,
,,,,,,,,,,,,,,,,,,,1,0,1,0,,,,,0,0,0,0,,,,,,,,,,,,,,,,,,,,,,,,,,76,75,50.0,50.0,,,,,,,s_022,1,2020_Dec_14_0912,Reversal,3.2.4,60.027900978169534,
0,exp1.png,exp2.png,,,,,,,,,,,,,,,,,2,0,2,0,0,0,0,0,,,,,,,,,True,,,,,,,,,,,,,,,,,,,,,,,,,,,,,,,s_022,1,2020_Dec_14_0912,Reversal,3.2.4,60.027900978169534,
1,exp3.png,exp4.png,,,,,,,,,,,,,,,,,2,0,2,0,0,1,1,1,,,,,,,,,False,40,121,True,exp4.png,exp3.png,trial_left_image,1,exp4.png,1,exp3.png,exp4.png,0,2,non-reversed,incorrect,0.3425317932453642,0,valid_lose,970.8853772999719,72,,,,,,,,,,,s_022,1,2020_Dec_14_0912,Reversal,3.2.4,60.027900978169534,
2,exp1.png,exp2.png,,,,,,,,,,,,,,,,,2,0,2,0,0,2,2,2,,,,,,,,,False,41,122,False,exp1.png,exp2.png,trial_left_image,1,exp1.png,1,exp2.png,exp1.png,1,3,reversed,incorrect,0.40267982909514466,0,valid_lose,975.8340259999968,72,,,,,,,,,,,s_022,1,2020_Dec_14_0912,Reversal,3.2.4,60.027900978169534,
3,exp3.png,exp4.png,,,,,,,,,,,,,,,,,2,0,2,0,0,3,3,3,,,,,,,,,False,42,123,True,exp4.png,exp3.png,trial_right_image,-1,exp3.png,1,exp3.png,exp4.png,1,1,non-reversed,correct,0.6190178079549385,1,valid_win,980.3155987999635,73,,,,,,,,,,,s_022,1,2020_Dec_14_0912,Reversal,3.2.4,60.027900978169534,
4,exp1.png,exp2.png,,,,,,,,,,,,,,,,,2,0,2,0,0,4,4,4,,,,,,,,,False,43,124,False,exp1.png,exp2.png,trial_right_image,-1,exp2.png,1,exp2.png,exp1.png,0,4,reversed,correct,0.5714660619897353,1,valid_win,986.3302140999585,74,,,,,,,,,,,s_022,1,2020_Dec_14_0912,Reversal,3.2.4,60.027900978169534,
5,exp3.png,exp4.png,,,,,,,,,,,,,,,,,2,0,2,0,0,5,5,5,,,,,,,,,False,44,125,True,exp4.png,exp3.png,trial_right_image,-1,exp3.png,1,exp3.png,exp4.png,1,1,non-reversed,correct,0.6392467942866144,1,valid_win,990.9444990999764,75,,,,,,,,,,,s_022,1,2020_Dec_14_0912,Reversal,3.2.4,60.027900978169534,
6,exp1.png,exp2.png,,,,,,,,,,,,,,,,,2,0,2,0,0,6,6,6,,,,,,,,,False,45,126,True,exp2.png,exp1.png,trial_left_image,1,exp2.png,1,exp2.png,exp1.png,0,4,reversed,correct,0.0021743615981584252,0,invalid_lose,995.560471099976,75,,,,,,,,,,,s_022,1,2020_Dec_14_0912,Reversal,3.2.4,60.027900978169534,
7,exp3.png,exp4.png,,,,,,,,,,,,,,,,,2,0,2,0,0,7,7,7,,,,,,,,,False,46,127,False,exp3.png,exp4.png,trial_left_image,1,exp3.png,1,exp3.png,exp4.png,1,1,non-reversed,correct,0.9769521363548637,1,valid_win,1004.2570425999584,76,,,,,,,,,,,s_022,1,2020_Dec_14_0912,Reversal,3.2.4,60.027900978169534,
8,exp1.png,exp2.png,,,,,,,,,,,,,,,,,2,0,2,0,0,8,8,8,,,,,,,,,False,47,128,False,exp1.png,exp2.png,trial_right_image,-1,exp2.png,1,exp2.png,exp1.png,0,4,reversed,correct,0.12725454464454766,0,invalid_lose,1010.8039971999824,76,,,,,,,,,,,s_022,1,2020_Dec_14_0912,Reversal,3.2.4,60.027900978169534,
9,exp3.png,exp4.png,,,,,,,,,,,,,,,,,2,0,2,0,0,9,9,9,,,,,,,,,False,48,129,True,exp4.png,exp3.png,trial_right_image,-1,exp3.png,1,exp3.png,exp4.png,1,1,non-reversed,correct,0.3103142264045051,1,valid_win,1015.8707984999637,77,,,,,,,,,,,s_022,1,2020_Dec_14_0912,Reversal,3.2.4,60.027900978169534,
10,exp1.png,exp2.png,,,,,,,,,,,,,,,,,2,0,2,0,0,10,10,10,,,,,,,,,False,49,130,True,exp2.png,exp1.png,trial_left_image,1,exp2.png,1,exp2.png,exp1.png,0,4,reversed,correct,0.29907512884434395,1,valid_win,1023.7676211999496,78,,,,,,,,,,,s_022,1,2020_Dec_14_0912,Reversal,3.2.4,60.027900978169534,
11,exp3.png,exp4.png,,,,,,,,,,,,,,,,,2,0,2,0,0,11,11,11,,,,,,,,,False,50,131,True,exp4.png,exp3.png,trial_right_image,-1,exp3.png,1,exp3.png,exp4.png,1,1,non-reversed,correct,0.7918445795798088,1,valid_win,1028.9491896999534,79,,,,,,,,,,,s_022,1,2020_Dec_14_0912,Reversal,3.2.4,60.027900978169534,
12,exp1.png,exp2.png,,,,,,,,,,,,,,,,,2,0,2,0,0,12,12,12,,,,,,,,,False,51,132,False,exp1.png,exp2.png,trial_right_image,-1,exp2.png,1,exp2.png,exp1.png,0,4,reversed,correct,0.5508571950491958,1,valid_win,1036.8466022999492,80,,,,,,,,,,,s_022,1,2020_Dec_14_0912,Reversal,3.2.4,60.027900978169534,
13,exp3.png,exp4.png,,,,,,,,,,,,,,,,,2,0,2,0,0,13,13,13,,,,,,,,,False,52,133,False,exp3.png,exp4.png,trial_left_image,1,exp3.png,1,exp3.png,exp4.png,1,1,non-reversed,correct,0.3639618299518558,1,valid_win,1043.5778543999768,81,,,,,,,,,,,s_022,1,2020_Dec_14_0912,Reversal,3.2.4,60.027900978169534,
14,exp1.png,exp2.png,,,,,,,,,,,,,,,,,2,0,2,0,0,14,14,14,,,,,,,,,False,53,134,False,exp1.png,exp2.png,trial_right_image,-1,exp2.png,1,exp2.png,exp1.png,0,4,reversed,correct,0.8801867909788875,1,valid_win,1048.1920025,82,,,,,,,,,,,s_022,1,2020_Dec_14_0912,Reversal,3.2.4,60.027900978169534,
15,exp3.png,exp4.png,,,,,,,,,,,,,,,,,2,0,2,0,0,15,15,15,,,,,,,,,False,54,135,False,exp3.png,exp4.png,trial_left_image,1,exp3.png,1,exp3.png,exp4.png,1,1,non-reversed,correct,0.20721277004148542,0,invalid_lose,1053.4562576999888,82,,,,,,,,,,,s_022,1,2020_Dec_14_0912,Reversal,3.2.4,60.027900978169534,
16,exp1.png,exp2.png,,,,,,,,,,,,,,,,,2,0,2,0,0,16,16,16,,,,,,,,,False,55,136,False,exp1.png,exp2.png,trial_right_image,-1,exp2.png,1,exp2.png,exp1.png,0,4,reversed,correct,0.027879139016690258,0,invalid_lose,1058.1060637999908,82,,,,,,,,,,,s_022,1,2020_Dec_14_0912,Reversal,3.2.4,60.027900978169534,
17,exp3.png,exp4.png,,,,,,,,,,,,,,,,,2,0,2,0,0,17,17,17,,,,,,,,,False,56,137,False,exp3.png,exp4.png,trial_right_image,-1,exp4.png,1,exp3.png,exp4.png,0,2,non-reversed,incorrect,0.3499129870316656,0,valid_lose,1064.8204954999965,82,,,,,,,,,,,s_022,1,2020_Dec_14_0912,Reversal,3.2.4,60.027900978169534,
18,exp1.png,exp2.png,,,,,,,,,,,,,,,,,2,0,2,0,0,18,18,18,,,,,,,,,False,57,138,True,exp2.png,exp1.png,trial_right_image,-1,exp1.png,1,exp2.png,exp1.png,1,3,reversed,incorrect,0.3284068533809531,0,valid_lose,1070.8854614999727,82,,,,,,,,,,,s_022,1,2020_Dec_14_0912,Reversal,3.2.4,60.027900978169534,
19,exp3.png,exp4.png,,,,,,,,,,,,,,,,,2,0,2,0,0,19,19,19,,,,,,,,,False,58,139,True,exp4.png,exp3.png,trial_right_image,-1,exp3.png,1,exp3.png,exp4.png,1,1,non-reversed,correct,0.6133368161066142,1,valid_win,1080.1470316999475,83,,,,,,,,,,,s_022,1,2020_Dec_14_0912,Reversal,3.2.4,60.027900978169534,
20,exp1.png,exp2.png,,,,,,,,,,,,,,,,,2,0,2,0,0,20,20,20,,,,,,,,,False,59,140,True,exp2.png,exp1.png,trial_left_image,1,exp2.png,1,exp2.png,exp1.png,0,4,reversed,correct,0.3387298566356932,1,valid_win,1085.6133348000003,84,,,,,,,,,,,s_022,1,2020_Dec_14_0912,Reversal,3.2.4,60.027900978169534,
,,,,,,,,,,,,,,,,,,,2,0,2,0,,,,,0,0,0,0,,,,,,,,,,,,,,,,,,,,,,,,,,27,77,85,17,,,,,,,s_022,1,2020_Dec_14_0912,Reversal,3.2.4,60.027900978169534,
,,,,,,,,,,,,,,,,,,,,,,,,,,,,,,,,,,,,,,,,,,,,,,,,,,,,,,,84,,,,,,97,53,44,418.14512879995164,1,,,,,,,
