trial_index,trial_image1_file,trial_image2_file,learning_outer_loop.thisRepN,learning_outer_loop.thisTrialN,learning_outer_loop.thisN,learning_outer_loop.thisIndex,learning_inner_loop.thisRepN,learning_inner_loop.thisTrialN,learning_inner_loop.thisN,learning_inner_loop.thisIndex,learning_estimation_outer_loop.thisRepN,learning_estimation_outer_loop.thisTrialN,learning_estimation_outer_loop.thisN,learning_estimation_outer_loop.thisIndex,learning_estimation_inner_loop.thisRepN,learning_estimation_inner_loop.thisTrialN,learning_estimation_inner_loop.thisN,learning_estimation_inner_loop.thisIndex,reversal_outer_loop.thisRepN,reversal_outer_loop.thisTrialN,reversal_outer_loop.thisN,reversal_outer_loop.thisIndex,reversal_inner_loop.thisRepN,reversal_inner_loop.thisTrialN,reversal_inner_loop.thisN,reversal_inner_loop.thisIndex,reversal_estimation_outer_loop.thisRepN,reversal_estimation_outer_loop.thisTrialN,reversal_estimation_outer_loop.thisN,reversal_estimation_outer_loop.thisIndex,reversal_estimation_inner_loop.thisRepN,reversal_estimation_inner_loop.thisTrialN,reversal_estimation_inner_loop.thisN,reversal_estimation_inner_loop.thisIndex,skipped,total_trial_counter,trial_num,left_right_flip,left_image_file,right_image_file,clicked_stimulus_side,side,clicked_stimulus,version,high_prob_image_file,low_prob_image_file,choice_a,choice_b,pair_type,correct,trial_feedback_random,reward,trial_type,overall_time_after_trial,score,estimation_exp1.png,estimation_exp2.png,estimation_exp3.png,estimation_exp4.png,total_learning_time,total_correct,learning_correct,reversal_correct,total_reversal_time,extra_block,participant,ver,date,expName,psychopyVersion,frameRate,
0,exp1.png,exp2.png,0,0,0,0,0,0,0,0,,,,,,,,,,,,,,,,,,,,,,,,,True,,,,,,,,,,,,,,,,,,,,,,,,,,,,,,,s_023,2,2020_Dec_14_1038,Reversal,3.2.4,59.88931257328942,
1,exp3.png,exp4.png,0,0,0,0,0,1,1,1,,,,,,,,,,,,,,,,,,,,,,,,,False,0,1,True,exp4.png,exp3.png,trial_right_image,-1,exp3.png,2,exp3.png,exp4.png,1,3,reversed,correct,0.7623688397488847,1,valid_win,5.177537600044161,1,,,,,,,,,,,s_023,2,2020_Dec_14_1038,Reversal,3.2.4,59.88931257328942,
2,exp1.png,exp2.png,0,0,0,0,0,2,2,2,,,,,,,,,,,,,,,,,,,,,,,,,False,1,2,False,exp1.png,exp2.png,trial_left_image,1,exp1.png,2,exp1.png,exp2.png,1,1,non-reversed,correct,0.37544413764078677,1,valid_win,10.924678999988828,2,,,,,,,,,,,s_023,2,2020_Dec_14_1038,Reversal,3.2.4,59.88931257328942,
3,exp3.png,exp4.png,0,0,0,0,0,3,3,3,,,,,,,,,,,,,,,,,,,,,,,,,False,2,3,True,exp4.png,exp3.png,trial_right_image,-1,exp3.png,2,exp3.png,exp4.png,1,3,reversed,correct,0.4670571089804747,1,valid_win,15.65601630002493,3,,,,,,,,,,,s_023,2,2020_Dec_14_1038,Reversal,3.2.4,59.88931257328942,
4,exp1.png,exp2.png,0,0,0,0,0,4,4,4,,,,,,,,,,,,,,,,,,,,,,,,,False,3,4,True,exp2.png,exp1.png,trial_left_image,1,exp2.png,2,exp1.png,exp2.png,0,2,non-reversed,incorrect,0.34571453400578755,0,valid_lose,20.071947499993257,3,,,,,,,,,,,s_023,2,2020_Dec_14_1038,Reversal,3.2.4,59.88931257328942,
5,exp3.png,exp4.png,0,0,0,0,0,5,5,5,,,,,,,,,,,,,,,,,,,,,,,,,False,4,5,True,exp4.png,exp3.png,trial_right_image,-1,exp3.png,2,exp3.png,exp4.png,1,3,reversed,correct,0.5637562173608704,1,valid_win,24.370887299999595,4,,,,,,,,,,,s_023,2,2020_Dec_14_1038,Reversal,3.2.4,59.88931257328942,
6,exp1.png,exp2.png,0,0,0,0,0,6,6,6,,,,,,,,,,,,,,,,,,,,,,,,,False,5,6,False,exp1.png,exp2.png,trial_left_image,1,exp1.png,2,exp1.png,exp2.png,1,1,non-reversed,correct,0.9572971876989481,1,valid_win,28.718990400026087,5,,,,,,,,,,,s_023,2,2020_Dec_14_1038,Reversal,3.2.4,59.88931257328942,
7,exp3.png,exp4.png,0,0,0,0,0,7,7,7,,,,,,,,,,,,,,,,,,,,,,,,,False,6,7,True,exp4.png,exp3.png,trial_right_image,-1,exp3.png,2,exp3.png,exp4.png,1,3,reversed,correct,0.9467283284355953,1,valid_win,33.001836900017224,6,,,,,,,,,,,s_023,2,2020_Dec_14_1038,Reversal,3.2.4,59.88931257328942,
8,exp1.png,exp2.png,0,0,0,0,0,8,8,8,,,,,,,,,,,,,,,,,,,,,,,,,False,7,8,False,exp1.png,exp2.png,trial_left_image,1,exp1.png,2,exp1.png,exp2.png,1,1,non-reversed,correct,0.8163105664420568,1,valid_win,37.349943800014444,7,,,,,,,,,,,s_023,2,2020_Dec_14_1038,Reversal,3.2.4,59.88931257328942,
9,exp3.png,exp4.png,0,0,0,0,0,9,9,9,,,,,,,,,,,,,,,,,,,,,,,,,False,8,9,True,exp4.png,exp3.png,trial_right_image,-1,exp3.png,2,exp3.png,exp4.png,1,3,reversed,correct,0.2687990975204285,1,valid_win,41.38175090000732,8,,,,,,,,,,,s_023,2,2020_Dec_14_1038,Reversal,3.2.4,59.88931257328942,
10,exp1.png,exp2.png,0,0,0,0,0,10,10,10,,,,,,,,,,,,,,,,,,,,,,,,,False,9,10,True,exp2.png,exp1.png,trial_right_image,-1,exp1.png,2,exp1.png,exp2.png,1,1,non-reversed,correct,0.964277886122452,1,valid_win,45.44735880004009,9,,,,,,,,,,,s_023,2,2020_Dec_14_1038,Reversal,3.2.4,59.88931257328942,
11,exp3.png,exp4.png,0,0,0,0,0,11,11,11,,,,,,,,,,,,,,,,,,,,,,,,,False,10,11,True,exp4.png,exp3.png,trial_right_image,-1,exp3.png,2,exp3.png,exp4.png,1,3,reversed,correct,0.7318370918167115,1,valid_win,49.46191920002457,10,,,,,,,,,,,s_023,2,2020_Dec_14_1038,Reversal,3.2.4,59.88931257328942,
12,exp1.png,exp2.png,0,0,0,0,0,12,12,12,,,,,,,,,,,,,,,,,,,,,,,,,False,11,12,False,exp1.png,exp2.png,trial_left_image,1,exp1.png,2,exp1.png,exp2.png,1,1,non-reversed,correct,0.9488608884825274,1,valid_win,53.67691850004485,11,,,,,,,,,,,s_023,2,2020_Dec_14_1038,Reversal,3.2.4,59.88931257328942,
13,exp3.png,exp4.png,0,0,0,0,0,13,13,13,,,,,,,,,,,,,,,,,,,,,,,,,False,12,13,True,exp4.png,exp3.png,trial_right_image,-1,exp3.png,2,exp3.png,exp4.png,1,3,reversed,correct,0.6630546891533967,1,valid_win,57.70994349999819,12,,,,,,,,,,,s_023,2,2020_Dec_14_1038,Reversal,3.2.4,59.88931257328942,
14,exp1.png,exp2.png,0,0,0,0,0,14,14,14,,,,,,,,,,,,,,,,,,,,,,,,,False,13,14,False,exp1.png,exp2.png,trial_left_image,1,exp1.png,2,exp1.png,exp2.png,1,1,non-reversed,correct,0.5693147431758433,1,valid_win,61.824910500028636,13,,,,,,,,,,,s_023,2,2020_Dec_14_1038,Reversal,3.2.4,59.88931257328942,
15,exp3.png,exp4.png,0,0,0,0,0,15,15,15,,,,,,,,,,,,,,,,,,,,,,,,,False,14,15,False,exp3.png,exp4.png,trial_left_image,1,exp3.png,2,exp3.png,exp4.png,1,3,reversed,correct,0.8072286178406547,1,valid_win,65.89007800002582,14,,,,,,,,,,,s_023,2,2020_Dec_14_1038,Reversal,3.2.4,59.88931257328942,
16,exp1.png,exp2.png,0,0,0,0,0,16,16,16,,,,,,,,,,,,,,,,,,,,,,,,,False,15,16,False,exp1.png,exp2.png,trial_left_image,1,exp1.png,2,exp1.png,exp2.png,1,1,non-reversed,correct,0.030220299887622315,0,invalid_lose,69.87212250003358,14,,,,,,,,,,,s_023,2,2020_Dec_14_1038,Reversal,3.2.4,59.88931257328942,
17,exp3.png,exp4.png,0,0,0,0,0,17,17,17,,,,,,,,,,,,,,,,,,,,,,,,,False,16,17,False,exp3.png,exp4.png,trial_right_image,-1,exp4.png,2,exp3.png,exp4.png,0,4,reversed,incorrect,0.09756872492576463,1,invalid_win,73.95406810002169,15,,,,,,,,,,,s_023,2,2020_Dec_14_1038,Reversal,3.2.4,59.88931257328942,
18,exp1.png,exp2.png,0,0,0,0,0,18,18,18,,,,,,,,,,,,,,,,,,,,,,,,,False,17,18,True,exp2.png,exp1.png,trial_left_image,1,exp2.png,2,exp1.png,exp2.png,0,2,non-reversed,incorrect,0.3833462211134192,0,valid_lose,77.96859300002689,15,,,,,,,,,,,s_023,2,2020_Dec_14_1038,Reversal,3.2.4,59.88931257328942,
19,exp3.png,exp4.png,0,0,0,0,0,19,19,19,,,,,,,,,,,,,,,,,,,,,,,,,False,18,19,False,exp3.png,exp4.png,trial_left_image,1,exp3.png,2,exp3.png,exp4.png,1,3,reversed,correct,0.8074935076585309,1,valid_win,82.05198170000222,16,,,,,,,,,,,s_023,2,2020_Dec_14_1038,Reversal,3.2.4,59.88931257328942,
20,exp1.png,exp2.png,0,0,0,0,0,20,20,20,,,,,,,,,,,,,,,,,,,,,,,,,False,19,20,False,exp1.png,exp2.png,trial_left_image,1,exp1.png,2,exp1.png,exp2.png,1,1,non-reversed,correct,0.8601028319471592,1,valid_win,86.05095100001199,17,,,,,,,,,,,s_023,2,2020_Dec_14_1038,Reversal,3.2.4,59.88931257328942,
,,,0,0,0,0,,,,,0,0,0,0,,,,,,,,,,,,,,,,,,,,,,,,,,,,,,,,,,,,,,,,,,100,25,100,20,,,,,,,s_023,2,2020_Dec_14_1038,Reversal,3.2.4,59.88931257328942,
0,exp1.png,exp2.png,1,0,1,0,0,0,0,0,,,,,,,,,,,,,,,,,,,,,,,,,True,,,,,,,,,,,,,,,,,,,,,,,,,,,,,,,s_023,2,2020_Dec_14_1038,Reversal,3.2.4,59.88931257328942,
1,exp3.png,exp4.png,1,0,1,0,0,1,1,1,,,,,,,,,,,,,,,,,,,,,,,,,False,20,21,True,exp4.png,exp3.png,trial_right_image,-1,exp3.png,2,exp3.png,exp4.png,1,3,reversed,correct,0.8818914541562417,1,valid_win,109.94293150003068,18,,,,,,,,,,,s_023,2,2020_Dec_14_1038,Reversal,3.2.4,59.88931257328942,
2,exp1.png,exp2.png,1,0,1,0,0,2,2,2,,,,,,,,,,,,,,,,,,,,,,,,,False,21,22,True,exp2.png,exp1.png,trial_right_image,-1,exp1.png,2,exp1.png,exp2.png,1,1,non-reversed,correct,0.5505579781693826,1,valid_win,113.97460910002701,19,,,,,,,,,,,s_023,2,2020_Dec_14_1038,Reversal,3.2.4,59.88931257328942,
3,exp3.png,exp4.png,1,0,1,0,0,3,3,3,,,,,,,,,,,,,,,,,,,,,,,,,False,22,23,True,exp4.png,exp3.png,trial_right_image,-1,exp3.png,2,exp3.png,exp4.png,1,3,reversed,correct,0.549992378770693,1,valid_win,118.0228603000287,20,,,,,,,,,,,s_023,2,2020_Dec_14_1038,Reversal,3.2.4,59.88931257328942,
4,exp1.png,exp2.png,1,0,1,0,0,4,4,4,,,,,,,,,,,,,,,,,,,,,,,,,False,23,24,False,exp1.png,exp2.png,trial_left_image,1,exp1.png,2,exp1.png,exp2.png,1,1,non-reversed,correct,0.3515210302506795,1,valid_win,122.17227790004108,21,,,,,,,,,,,s_023,2,2020_Dec_14_1038,Reversal,3.2.4,59.88931257328942,
5,exp3.png,exp4.png,1,0,1,0,0,5,5,5,,,,,,,,,,,,,,,,,,,,,,,,,False,24,25,True,exp4.png,exp3.png,trial_right_image,-1,exp3.png,2,exp3.png,exp4.png,1,3,reversed,correct,0.6130781793387806,1,valid_win,126.1871215000283,22,,,,,,,,,,,s_023,2,2020_Dec_14_1038,Reversal,3.2.4,59.88931257328942,
6,exp1.png,exp2.png,1,0,1,0,0,6,6,6,,,,,,,,,,,,,,,,,,,,,,,,,False,25,26,True,exp2.png,exp1.png,trial_right_image,-1,exp1.png,2,exp1.png,exp2.png,1,1,non-reversed,correct,0.9914763162296274,1,valid_win,130.23585729999468,23,,,,,,,,,,,s_023,2,2020_Dec_14_1038,Reversal,3.2.4,59.88931257328942,
7,exp3.png,exp4.png,1,0,1,0,0,7,7,7,,,,,,,,,,,,,,,,,,,,,,,,,False,26,27,True,exp4.png,exp3.png,trial_right_image,-1,exp3.png,2,exp3.png,exp4.png,1,3,reversed,correct,0.8939284749393728,1,valid_win,134.233675400028,24,,,,,,,,,,,s_023,2,2020_Dec_14_1038,Reversal,3.2.4,59.88931257328942,
8,exp1.png,exp2.png,1,0,1,0,0,8,8,8,,,,,,,,,,,,,,,,,,,,,,,,,False,27,28,True,exp2.png,exp1.png,trial_right_image,-1,exp1.png,2,exp1.png,exp2.png,1,1,non-reversed,correct,0.6988256563903472,1,valid_win,138.26550440001301,25,,,,,,,,,,,s_023,2,2020_Dec_14_1038,Reversal,3.2.4,59.88931257328942,
9,exp3.png,exp4.png,1,0,1,0,0,9,9,9,,,,,,,,,,,,,,,,,,,,,,,,,False,28,29,False,exp3.png,exp4.png,trial_left_image,1,exp3.png,2,exp3.png,exp4.png,1,3,reversed,correct,0.6387328050976574,1,valid_win,142.4812959000119,26,,,,,,,,,,,s_023,2,2020_Dec_14_1038,Reversal,3.2.4,59.88931257328942,
10,exp1.png,exp2.png,1,0,1,0,0,10,10,10,,,,,,,,,,,,,,,,,,,,,,,,,False,29,30,False,exp1.png,exp2.png,trial_left_image,1,exp1.png,2,exp1.png,exp2.png,1,1,non-reversed,correct,0.13473536130604813,0,invalid_lose,146.52970630000345,26,,,,,,,,,,,s_023,2,2020_Dec_14_1038,Reversal,3.2.4,59.88931257328942,
11,exp3.png,exp4.png,1,0,1,0,0,11,11,11,,,,,,,,,,,,,,,,,,,,,,,,,False,30,31,False,exp3.png,exp4.png,trial_right_image,-1,exp4.png,2,exp3.png,exp4.png,0,4,reversed,incorrect,0.7595477841455801,0,valid_lose,150.6940918000182,26,,,,,,,,,,,s_023,2,2020_Dec_14_1038,Reversal,3.2.4,59.88931257328942,
12,exp1.png,exp2.png,1,0,1,0,0,12,12,12,,,,,,,,,,,,,,,,,,,,,,,,,False,31,32,True,exp2.png,exp1.png,trial_right_image,-1,exp1.png,2,exp1.png,exp2.png,1,1,non-reversed,correct,0.0949911727252678,0,invalid_lose,154.75995070004137,26,,,,,,,,,,,s_023,2,2020_Dec_14_1038,Reversal,3.2.4,59.88931257328942,
13,exp3.png,exp4.png,1,0,1,0,0,13,13,13,,,,,,,,,,,,,,,,,,,,,,,,,False,32,33,True,exp4.png,exp3.png,trial_left_image,1,exp4.png,2,exp3.png,exp4.png,0,4,reversed,incorrect,0.11013330208838179,1,invalid_win,159.69169569999212,27,,,,,,,,,,,s_023,2,2020_Dec_14_1038,Reversal,3.2.4,59.88931257328942,
14,exp1.png,exp2.png,1,0,1,0,0,14,14,14,,,,,,,,,,,,,,,,,,,,,,,,,False,33,34,True,exp2.png,exp1.png,trial_right_image,-1,exp1.png,2,exp1.png,exp2.png,1,1,non-reversed,correct,0.05014249955590078,0,invalid_lose,164.99038690002635,27,,,,,,,,,,,s_023,2,2020_Dec_14_1038,Reversal,3.2.4,59.88931257328942,
15,exp3.png,exp4.png,1,0,1,0,0,15,15,15,,,,,,,,,,,,,,,,,,,,,,,,,False,34,35,False,exp3.png,exp4.png,trial_left_image,1,exp3.png,2,exp3.png,exp4.png,1,3,reversed,correct,0.032738825142220596,0,invalid_lose,169.80421060003573,27,,,,,,,,,,,s_023,2,2020_Dec_14_1038,Reversal,3.2.4,59.88931257328942,
16,exp1.png,exp2.png,1,0,1,0,0,16,16,16,,,,,,,,,,,,,,,,,,,,,,,,,False,35,36,False,exp1.png,exp2.png,trial_right_image,-1,exp2.png,2,exp1.png,exp2.png,0,2,non-reversed,incorrect,0.8742602698411555,0,valid_lose,174.60280950000742,27,,,,,,,,,,,s_023,2,2020_Dec_14_1038,Reversal,3.2.4,59.88931257328942,
17,exp3.png,exp4.png,1,0,1,0,0,17,17,17,,,,,,,,,,,,,,,,,,,,,,,,,False,36,37,False,exp3.png,exp4.png,trial_left_image,1,exp3.png,2,exp3.png,exp4.png,1,3,reversed,correct,0.15124644569380907,0,invalid_lose,179.00181360001443,27,,,,,,,,,,,s_023,2,2020_Dec_14_1038,Reversal,3.2.4,59.88931257328942,
18,exp1.png,exp2.png,1,0,1,0,0,18,18,18,,,,,,,,,,,,,,,,,,,,,,,,,False,37,38,False,exp1.png,exp2.png,trial_right_image,-1,exp2.png,2,exp1.png,exp2.png,0,2,non-reversed,incorrect,0.05174986735208009,1,invalid_win,183.79992120002862,28,,,,,,,,,,,s_023,2,2020_Dec_14_1038,Reversal,3.2.4,59.88931257328942,
19,exp3.png,exp4.png,1,0,1,0,0,19,19,19,,,,,,,,,,,,,,,,,,,,,,,,,False,38,39,False,exp3.png,exp4.png,trial_left_image,1,exp3.png,2,exp3.png,exp4.png,1,3,reversed,correct,0.8101469550536978,1,valid_win,187.84810260002268,29,,,,,,,,,,,s_023,2,2020_Dec_14_1038,Reversal,3.2.4,59.88931257328942,
20,exp1.png,exp2.png,1,0,1,0,0,20,20,20,,,,,,,,,,,,,,,,,,,,,,,,,False,39,40,False,exp1.png,exp2.png,trial_right_image,-1,exp2.png,2,exp1.png,exp2.png,0,2,non-reversed,incorrect,0.017462348212420875,1,invalid_win,191.9802633000072,30,,,,,,,,,,,s_023,2,2020_Dec_14_1038,Reversal,3.2.4,59.88931257328942,
,,,1,0,1,0,,,,,0,0,0,0,,,,,,,,,,,,,,,,,,,,,,,,,,,,,,,,,,,,,,,,,,49,50,48,50,,,,,,,s_023,2,2020_Dec_14_1038,Reversal,3.2.4,59.88931257328942,
0,exp1.png,exp2.png,2,0,2,0,0,0,0,0,,,,,,,,,,,,,,,,,,,,,,,,,True,,,,,,,,,,,,,,,,,,,,,,,,,,,,,,,s_023,2,2020_Dec_14_1038,Reversal,3.2.4,59.88931257328942,
1,exp3.png,exp4.png,2,0,2,0,0,1,1,1,,,,,,,,,,,,,,,,,,,,,,,,,False,40,41,False,exp3.png,exp4.png,trial_left_image,1,exp3.png,2,exp3.png,exp4.png,1,3,reversed,correct,0.5198916961663891,1,valid_win,209.62476269999752,31,,,,,,,,,,,s_023,2,2020_Dec_14_1038,Reversal,3.2.4,59.88931257328942,
2,exp1.png,exp2.png,2,0,2,0,0,2,2,2,,,,,,,,,,,,,,,,,,,,,,,,,False,41,42,True,exp2.png,exp1.png,trial_left_image,1,exp2.png,2,exp1.png,exp2.png,0,2,non-reversed,incorrect,0.8147493297507865,0,valid_lose,214.35662100004265,31,,,,,,,,,,,s_023,2,2020_Dec_14_1038,Reversal,3.2.4,59.88931257328942,
3,exp3.png,exp4.png,2,0,2,0,0,3,3,3,,,,,,,,,,,,,,,,,,,,,,,,,False,42,43,False,exp3.png,exp4.png,trial_right_image,-1,exp4.png,2,exp3.png,exp4.png,0,4,reversed,incorrect,0.7171787654718286,0,valid_lose,218.35466190002626,31,,,,,,,,,,,s_023,2,2020_Dec_14_1038,Reversal,3.2.4,59.88931257328942,
4,exp1.png,exp2.png,2,0,2,0,0,4,4,4,,,,,,,,,,,,,,,,,,,,,,,,,False,43,44,False,exp1.png,exp2.png,trial_left_image,1,exp1.png,2,exp1.png,exp2.png,1,1,non-reversed,correct,0.3460198549903135,1,valid_win,222.42077900003642,32,,,,,,,,,,,s_023,2,2020_Dec_14_1038,Reversal,3.2.4,59.88931257328942,
5,exp3.png,exp4.png,2,0,2,0,0,5,5,5,,,,,,,,,,,,,,,,,,,,,,,,,False,44,45,True,exp4.png,exp3.png,trial_right_image,-1,exp3.png,2,exp3.png,exp4.png,1,3,reversed,correct,0.01761224437393405,0,invalid_lose,226.55225880001672,32,,,,,,,,,,,s_023,2,2020_Dec_14_1038,Reversal,3.2.4,59.88931257328942,
6,exp1.png,exp2.png,2,0,2,0,0,6,6,6,,,,,,,,,,,,,,,,,,,,,,,,,False,45,46,True,exp2.png,exp1.png,trial_left_image,1,exp2.png,2,exp1.png,exp2.png,0,2,non-reversed,incorrect,0.5265431590382411,0,valid_lose,231.3510724999942,32,,,,,,,,,,,s_023,2,2020_Dec_14_1038,Reversal,3.2.4,59.88931257328942,
7,exp3.png,exp4.png,2,0,2,0,0,7,7,7,,,,,,,,,,,,,,,,,,,,,,,,,False,46,47,True,exp4.png,exp3.png,trial_left_image,1,exp4.png,2,exp3.png,exp4.png,0,4,reversed,incorrect,0.43356561009661876,0,valid_lose,235.383212500019,32,,,,,,,,,,,s_023,2,2020_Dec_14_1038,Reversal,3.2.4,59.88931257328942,
8,exp1.png,exp2.png,2,0,2,0,0,8,8,8,,,,,,,,,,,,,,,,,,,,,,,,,False,47,48,True,exp2.png,exp1.png,trial_left_image,1,exp2.png,2,exp1.png,exp2.png,0,2,non-reversed,incorrect,0.6089789459279759,0,valid_lose,239.66459050000412,32,,,,,,,,,,,s_023,2,2020_Dec_14_1038,Reversal,3.2.4,59.88931257328942,
9,exp3.png,exp4.png,2,0,2,0,0,9,9,9,,,,,,,,,,,,,,,,,,,,,,,,,False,48,49,False,exp3.png,exp4.png,trial_left_image,1,exp3.png,2,exp3.png,exp4.png,1,3,reversed,correct,0.09238547380793904,0,invalid_lose,243.99698060000082,32,,,,,,,,,,,s_023,2,2020_Dec_14_1038,Reversal,3.2.4,59.88931257328942,
10,exp1.png,exp2.png,2,0,2,0,0,10,10,10,,,,,,,,,,,,,,,,,,,,,,,,,False,49,50,True,exp2.png,exp1.png,trial_right_image,-1,exp1.png,2,exp1.png,exp2.png,1,1,non-reversed,correct,0.967552065071802,1,valid_win,249.028469700017,33,,,,,,,,,,,s_023,2,2020_Dec_14_1038,Reversal,3.2.4,59.88931257328942,
11,exp3.png,exp4.png,2,0,2,0,0,11,11,11,,,,,,,,,,,,,,,,,,,,,,,,,False,50,51,False,exp3.png,exp4.png,trial_left_image,1,exp3.png,2,exp3.png,exp4.png,1,3,reversed,correct,0.3495747132514466,1,valid_win,253.2603422999964,34,,,,,,,,,,,s_023,2,2020_Dec_14_1038,Reversal,3.2.4,59.88931257328942,
12,exp1.png,exp2.png,2,0,2,0,0,12,12,12,,,,,,,,,,,,,,,,,,,,,,,,,False,51,52,True,exp2.png,exp1.png,trial_right_image,-1,exp1.png,2,exp1.png,exp2.png,1,1,non-reversed,correct,0.5255474501596118,1,valid_win,257.39198970003054,35,,,,,,,,,,,s_023,2,2020_Dec_14_1038,Reversal,3.2.4,59.88931257328942,
13,exp3.png,exp4.png,2,0,2,0,0,13,13,13,,,,,,,,,,,,,,,,,,,,,,,,,False,52,53,False,exp3.png,exp4.png,trial_left_image,1,exp3.png,2,exp3.png,exp4.png,1,3,reversed,correct,0.886980627647755,1,valid_win,261.6074056000216,36,,,,,,,,,,,s_023,2,2020_Dec_14_1038,Reversal,3.2.4,59.88931257328942,
14,exp1.png,exp2.png,2,0,2,0,0,14,14,14,,,,,,,,,,,,,,,,,,,,,,,,,False,53,54,True,exp2.png,exp1.png,trial_right_image,-1,exp1.png,2,exp1.png,exp2.png,1,1,non-reversed,correct,0.8836390934045296,1,valid_win,265.77259000000777,37,,,,,,,,,,,s_023,2,2020_Dec_14_1038,Reversal,3.2.4,59.88931257328942,
15,exp3.png,exp4.png,2,0,2,0,0,15,15,15,,,,,,,,,,,,,,,,,,,,,,,,,False,54,55,False,exp3.png,exp4.png,trial_left_image,1,exp3.png,2,exp3.png,exp4.png,1,3,reversed,correct,0.43427407300254584,1,valid_win,269.95438440004364,38,,,,,,,,,,,s_023,2,2020_Dec_14_1038,Reversal,3.2.4,59.88931257328942,
16,exp1.png,exp2.png,2,0,2,0,0,16,16,16,,,,,,,,,,,,,,,,,,,,,,,,,False,55,56,True,exp2.png,exp1.png,trial_right_image,-1,exp1.png,2,exp1.png,exp2.png,1,1,non-reversed,correct,0.669045729686122,1,valid_win,274.08631020004395,39,,,,,,,,,,,s_023,2,2020_Dec_14_1038,Reversal,3.2.4,59.88931257328942,
17,exp3.png,exp4.png,2,0,2,0,0,17,17,17,,,,,,,,,,,,,,,,,,,,,,,,,False,56,57,True,exp4.png,exp3.png,trial_right_image,-1,exp3.png,2,exp3.png,exp4.png,1,3,reversed,correct,0.376099229288983,1,valid_win,278.9184433000046,40,,,,,,,,,,,s_023,2,2020_Dec_14_1038,Reversal,3.2.4,59.88931257328942,
18,exp1.png,exp2.png,2,0,2,0,0,18,18,18,,,,,,,,,,,,,,,,,,,,,,,,,False,57,58,False,exp1.png,exp2.png,trial_left_image,1,exp1.png,2,exp1.png,exp2.png,1,1,non-reversed,correct,0.9407206135443846,1,valid_win,283.0660836000461,41,,,,,,,,,,,s_023,2,2020_Dec_14_1038,Reversal,3.2.4,59.88931257328942,
19,exp3.png,exp4.png,2,0,2,0,0,19,19,19,,,,,,,,,,,,,,,,,,,,,,,,,False,58,59,False,exp3.png,exp4.png,trial_left_image,1,exp3.png,2,exp3.png,exp4.png,1,3,reversed,correct,0.42100462969284225,1,valid_win,287.1653730000253,42,,,,,,,,,,,s_023,2,2020_Dec_14_1038,Reversal,3.2.4,59.88931257328942,
20,exp1.png,exp2.png,2,0,2,0,0,20,20,20,,,,,,,,,,,,,,,,,,,,,,,,,False,59,60,False,exp1.png,exp2.png,trial_left_image,1,exp1.png,2,exp1.png,exp2.png,1,1,non-reversed,correct,0.6273667700645269,1,valid_win,291.3643615000183,43,,,,,,,,,,,s_023,2,2020_Dec_14_1038,Reversal,3.2.4,59.88931257328942,
,,,2,0,2,0,,,,,0,0,0,0,,,,,,,,,,,,,,,,,,,,,,,,,,,,,,,,,,,,,,,,,,100,0,100,0,,,,,,,s_023,2,2020_Dec_14_1038,Reversal,3.2.4,59.88931257328942,
0,exp1.png,exp2.png,,,,,,,,,,,,,,,,,0,0,0,0,0,0,0,0,,,,,,,,,True,,,,,,,,,,,,,,,,,,,,,,,,,,,,,,,s_023,2,2020_Dec_14_1038,Reversal,3.2.4,59.88931257328942,
1,exp3.png,exp4.png,,,,,,,,,,,,,,,,,0,0,0,0,0,1,1,1,,,,,,,,,False,0,61,True,exp4.png,exp3.png,trial_right_image,-1,exp3.png,2,exp4.png,exp3.png,1,3,reversed,incorrect,0.4531971445869575,0,valid_lose,307.39163990004454,43,,,,,305.5810406000237,,,,,,s_023,2,2020_Dec_14_1038,Reversal,3.2.4,59.88931257328942,
2,exp1.png,exp2.png,,,,,,,,,,,,,,,,,0,0,0,0,0,2,2,2,,,,,,,,,False,1,62,True,exp2.png,exp1.png,trial_left_image,1,exp2.png,2,exp1.png,exp2.png,0,2,non-reversed,incorrect,0.7172860499288922,0,valid_lose,311.5074488000246,43,,,,,,,,,,,s_023,2,2020_Dec_14_1038,Reversal,3.2.4,59.88931257328942,
3,exp3.png,exp4.png,,,,,,,,,,,,,,,,,0,0,0,0,0,3,3,3,,,,,,,,,False,2,63,False,exp3.png,exp4.png,trial_right_image,-1,exp4.png,2,exp4.png,exp3.png,0,4,reversed,correct,0.849489430845065,1,valid_win,316.9061876999913,44,,,,,,,,,,,s_023,2,2020_Dec_14_1038,Reversal,3.2.4,59.88931257328942,
4,exp1.png,exp2.png,,,,,,,,,,,,,,,,,0,0,0,0,0,4,4,4,,,,,,,,,False,3,64,False,exp1.png,exp2.png,trial_left_image,1,exp1.png,2,exp1.png,exp2.png,1,1,non-reversed,correct,0.3408115435931448,1,valid_win,321.6208078000345,45,,,,,,,,,,,s_023,2,2020_Dec_14_1038,Reversal,3.2.4,59.88931257328942,
5,exp3.png,exp4.png,,,,,,,,,,,,,,,,,0,0,0,0,0,5,5,5,,,,,,,,,False,4,65,True,exp4.png,exp3.png,trial_left_image,1,exp4.png,2,exp4.png,exp3.png,0,4,reversed,correct,0.7507069888961813,1,valid_win,326.31908520002617,46,,,,,,,,,,,s_023,2,2020_Dec_14_1038,Reversal,3.2.4,59.88931257328942,
6,exp1.png,exp2.png,,,,,,,,,,,,,,,,,0,0,0,0,0,6,6,6,,,,,,,,,False,5,66,True,exp2.png,exp1.png,trial_right_image,-1,exp1.png,2,exp1.png,exp2.png,1,1,non-reversed,correct,0.45051408794598846,1,valid_win,330.9674897000077,47,,,,,,,,,,,s_023,2,2020_Dec_14_1038,Reversal,3.2.4,59.88931257328942,
7,exp3.png,exp4.png,,,,,,,,,,,,,,,,,0,0,0,0,0,7,7,7,,,,,,,,,False,6,67,False,exp3.png,exp4.png,trial_right_image,-1,exp4.png,2,exp4.png,exp3.png,0,4,reversed,correct,0.3286418269159137,1,valid_win,335.7157051000395,48,,,,,,,,,,,s_023,2,2020_Dec_14_1038,Reversal,3.2.4,59.88931257328942,
8,exp1.png,exp2.png,,,,,,,,,,,,,,,,,0,0,0,0,0,8,8,8,,,,,,,,,False,7,68,False,exp1.png,exp2.png,trial_left_image,1,exp1.png,2,exp1.png,exp2.png,1,1,non-reversed,correct,0.3149408771463972,1,valid_win,340.2976735000266,49,,,,,,,,,,,s_023,2,2020_Dec_14_1038,Reversal,3.2.4,59.88931257328942,
9,exp3.png,exp4.png,,,,,,,,,,,,,,,,,0,0,0,0,0,9,9,9,,,,,,,,,False,8,69,False,exp3.png,exp4.png,trial_right_image,-1,exp4.png,2,exp4.png,exp3.png,0,4,reversed,correct,0.29123105667587945,1,valid_win,345.4622244000202,50,,,,,,,,,,,s_023,2,2020_Dec_14_1038,Reversal,3.2.4,59.88931257328942,
10,exp1.png,exp2.png,,,,,,,,,,,,,,,,,0,0,0,0,0,10,10,10,,,,,,,,,False,9,70,True,exp2.png,exp1.png,trial_right_image,-1,exp1.png,2,exp1.png,exp2.png,1,1,non-reversed,correct,0.9081097589690114,1,valid_win,350.5772110000253,51,,,,,,,,,,,s_023,2,2020_Dec_14_1038,Reversal,3.2.4,59.88931257328942,
11,exp3.png,exp4.png,,,,,,,,,,,,,,,,,0,0,0,0,0,11,11,11,,,,,,,,,False,10,71,True,exp4.png,exp3.png,trial_left_image,1,exp4.png,2,exp4.png,exp3.png,0,4,reversed,correct,0.9215927077855381,1,valid_win,355.3088541000034,52,,,,,,,,,,,s_023,2,2020_Dec_14_1038,Reversal,3.2.4,59.88931257328942,
12,exp1.png,exp2.png,,,,,,,,,,,,,,,,,0,0,0,0,0,12,12,12,,,,,,,,,False,11,72,False,exp1.png,exp2.png,trial_left_image,1,exp1.png,2,exp1.png,exp2.png,1,1,non-reversed,correct,0.9137635815816365,1,valid_win,359.65712360001635,53,,,,,,,,,,,s_023,2,2020_Dec_14_1038,Reversal,3.2.4,59.88931257328942,
13,exp3.png,exp4.png,,,,,,,,,,,,,,,,,0,0,0,0,0,13,13,13,,,,,,,,,False,12,73,False,exp3.png,exp4.png,trial_right_image,-1,exp4.png,2,exp4.png,exp3.png,0,4,reversed,correct,0.3900778278683612,1,valid_win,364.48824750003405,54,,,,,,,,,,,s_023,2,2020_Dec_14_1038,Reversal,3.2.4,59.88931257328942,
14,exp1.png,exp2.png,,,,,,,,,,,,,,,,,0,0,0,0,0,14,14,14,,,,,,,,,False,13,74,True,exp2.png,exp1.png,trial_right_image,-1,exp1.png,2,exp1.png,exp2.png,1,1,non-reversed,correct,0.8102133278585064,1,valid_win,369.4545969000319,55,,,,,,,,,,,s_023,2,2020_Dec_14_1038,Reversal,3.2.4,59.88931257328942,
15,exp3.png,exp4.png,,,,,,,,,,,,,,,,,0,0,0,0,0,15,15,15,,,,,,,,,False,14,75,True,exp4.png,exp3.png,trial_left_image,1,exp4.png,2,exp4.png,exp3.png,0,4,reversed,correct,0.868919060059432,1,valid_win,373.98583459999645,56,,,,,,,,,,,s_023,2,2020_Dec_14_1038,Reversal,3.2.4,59.88931257328942,
16,exp1.png,exp2.png,,,,,,,,,,,,,,,,,0,0,0,0,0,16,16,16,,,,,,,,,False,15,76,False,exp1.png,exp2.png,trial_left_image,1,exp1.png,2,exp1.png,exp2.png,1,1,non-reversed,correct,0.8975423619018451,1,valid_win,378.4844852000242,57,,,,,,,,,,,s_023,2,2020_Dec_14_1038,Reversal,3.2.4,59.88931257328942,
17,exp3.png,exp4.png,,,,,,,,,,,,,,,,,0,0,0,0,0,17,17,17,,,,,,,,,False,16,77,False,exp3.png,exp4.png,trial_right_image,-1,exp4.png,2,exp4.png,exp3.png,0,4,reversed,correct,0.2409187703143285,0,invalid_lose,383.36540030001197,57,,,,,,,,,,,s_023,2,2020_Dec_14_1038,Reversal,3.2.4,59.88931257328942,
18,exp1.png,exp2.png,,,,,,,,,,,,,,,,,0,0,0,0,0,18,18,18,,,,,,,,,False,17,78,False,exp1.png,exp2.png,trial_left_image,1,exp1.png,2,exp1.png,exp2.png,1,1,non-reversed,correct,0.9701982521325877,1,valid_win,387.9145882000448,58,,,,,,,,,,,s_023,2,2020_Dec_14_1038,Reversal,3.2.4,59.88931257328942,
19,exp3.png,exp4.png,,,,,,,,,,,,,,,,,0,0,0,0,0,19,19,19,,,,,,,,,False,18,79,True,exp4.png,exp3.png,trial_right_image,-1,exp3.png,2,exp4.png,exp3.png,1,3,reversed,incorrect,0.8318646193808495,0,valid_lose,393.09604660002515,58,,,,,,,,,,,s_023,2,2020_Dec_14_1038,Reversal,3.2.4,59.88931257328942,
20,exp1.png,exp2.png,,,,,,,,,,,,,,,,,0,0,0,0,0,20,20,20,,,,,,,,,False,19,80,True,exp2.png,exp1.png,trial_right_image,-1,exp1.png,2,exp1.png,exp2.png,1,1,non-reversed,correct,0.5622507463848724,1,valid_win,397.6786621999927,59,,,,,,,,,,,s_023,2,2020_Dec_14_1038,Reversal,3.2.4,59.88931257328942,
,,,,,,,,,,,,,,,,,,,0,0,0,0,,,,,0,0,0,0,,,,,,,,,,,,,,,,,,,,,,,,,,100,0,90,100,,,,,,,s_023,2,2020_Dec_14_1038,Reversal,3.2.4,59.88931257328942,
0,exp1.png,exp2.png,,,,,,,,,,,,,,,,,1,0,1,0,0,0,0,0,,,,,,,,,True,,,,,,,,,,,,,,,,,,,,,,,,,,,,,,,s_023,2,2020_Dec_14_1038,Reversal,3.2.4,59.88931257328942,
1,exp3.png,exp4.png,,,,,,,,,,,,,,,,,1,0,1,0,0,1,1,1,,,,,,,,,False,20,81,True,exp4.png,exp3.png,trial_right_image,-1,exp3.png,2,exp4.png,exp3.png,1,3,reversed,incorrect,0.05085160609714967,1,invalid_win,419.4217630000203,60,,,,,,,,,,,s_023,2,2020_Dec_14_1038,Reversal,3.2.4,59.88931257328942,
2,exp1.png,exp2.png,,,,,,,,,,,,,,,,,1,0,1,0,0,2,2,2,,,,,,,,,False,21,82,True,exp2.png,exp1.png,trial_right_image,-1,exp1.png,2,exp1.png,exp2.png,1,1,non-reversed,correct,0.5889092348952499,1,valid_win,424.05233370000497,61,,,,,,,,,,,s_023,2,2020_Dec_14_1038,Reversal,3.2.4,59.88931257328942,
3,exp3.png,exp4.png,,,,,,,,,,,,,,,,,1,0,1,0,0,3,3,3,,,,,,,,,False,22,83,True,exp4.png,exp3.png,trial_right_image,-1,exp3.png,2,exp4.png,exp3.png,1,3,reversed,incorrect,0.6053278292272734,0,valid_lose,428.28441260004183,61,,,,,,,,,,,s_023,2,2020_Dec_14_1038,Reversal,3.2.4,59.88931257328942,
4,exp1.png,exp2.png,,,,,,,,,,,,,,,,,1,0,1,0,0,4,4,4,,,,,,,,,False,23,84,False,exp1.png,exp2.png,trial_left_image,1,exp1.png,2,exp1.png,exp2.png,1,1,non-reversed,correct,0.44027623835167806,1,valid_win,432.68194610002683,62,,,,,,,,,,,s_023,2,2020_Dec_14_1038,Reversal,3.2.4,59.88931257328942,
5,exp3.png,exp4.png,,,,,,,,,,,,,,,,,1,0,1,0,0,5,5,5,,,,,,,,,False,24,85,False,exp3.png,exp4.png,trial_right_image,-1,exp4.png,2,exp4.png,exp3.png,0,4,reversed,correct,0.30084254386998943,1,valid_win,437.3651128000347,63,,,,,,,,,,,s_023,2,2020_Dec_14_1038,Reversal,3.2.4,59.88931257328942,
6,exp1.png,exp2.png,,,,,,,,,,,,,,,,,1,0,1,0,0,6,6,6,,,,,,,,,False,25,86,True,exp2.png,exp1.png,trial_right_image,-1,exp1.png,2,exp1.png,exp2.png,1,1,non-reversed,correct,0.36098319042919624,1,valid_win,441.6799734000233,64,,,,,,,,,,,s_023,2,2020_Dec_14_1038,Reversal,3.2.4,59.88931257328942,
7,exp3.png,exp4.png,,,,,,,,,,,,,,,,,1,0,1,0,0,7,7,7,,,,,,,,,False,26,87,False,exp3.png,exp4.png,trial_right_image,-1,exp4.png,2,exp4.png,exp3.png,0,4,reversed,correct,0.5899056018424885,1,valid_win,446.4119340000325,65,,,,,,,,,,,s_023,2,2020_Dec_14_1038,Reversal,3.2.4,59.88931257328942,
8,exp1.png,exp2.png,,,,,,,,,,,,,,,,,1,0,1,0,0,8,8,8,,,,,,,,,False,27,88,True,exp2.png,exp1.png,trial_right_image,-1,exp1.png,2,exp1.png,exp2.png,1,1,non-reversed,correct,0.09380097501960794,0,invalid_lose,450.74374649999663,65,,,,,,,,,,,s_023,2,2020_Dec_14_1038,Reversal,3.2.4,59.88931257328942,
9,exp3.png,exp4.png,,,,,,,,,,,,,,,,,1,0,1,0,0,9,9,9,,,,,,,,,False,28,89,False,exp3.png,exp4.png,trial_right_image,-1,exp4.png,2,exp4.png,exp3.png,0,4,reversed,correct,0.3556199460982087,1,valid_win,455.85907950002,66,,,,,,,,,,,s_023,2,2020_Dec_14_1038,Reversal,3.2.4,59.88931257328942,
10,exp1.png,exp2.png,,,,,,,,,,,,,,,,,1,0,1,0,0,10,10,10,,,,,,,,,False,29,90,True,exp2.png,exp1.png,trial_right_image,-1,exp1.png,2,exp1.png,exp2.png,1,1,non-reversed,correct,0.884613551333853,1,valid_win,460.02383220003685,67,,,,,,,,,,,s_023,2,2020_Dec_14_1038,Reversal,3.2.4,59.88931257328942,
11,exp3.png,exp4.png,,,,,,,,,,,,,,,,,1,0,1,0,0,11,11,11,,,,,,,,,False,30,91,False,exp3.png,exp4.png,trial_right_image,-1,exp4.png,2,exp4.png,exp3.png,0,4,reversed,correct,0.9131756266647343,1,valid_win,464.45564490003744,68,,,,,,,,,,,s_023,2,2020_Dec_14_1038,Reversal,3.2.4,59.88931257328942,
12,exp1.png,exp2.png,,,,,,,,,,,,,,,,,1,0,1,0,0,12,12,12,,,,,,,,,False,31,92,False,exp1.png,exp2.png,trial_left_image,1,exp1.png,2,exp1.png,exp2.png,1,1,non-reversed,correct,0.38072398593287005,1,valid_win,468.63770980003756,69,,,,,,,,,,,s_023,2,2020_Dec_14_1038,Reversal,3.2.4,59.88931257328942,
13,exp3.png,exp4.png,,,,,,,,,,,,,,,,,1,0,1,0,0,13,13,13,,,,,,,,,False,32,93,False,exp3.png,exp4.png,trial_right_image,-1,exp4.png,2,exp4.png,exp3.png,0,4,reversed,correct,0.22881601437440713,0,invalid_lose,472.95263310003793,69,,,,,,,,,,,s_023,2,2020_Dec_14_1038,Reversal,3.2.4,59.88931257328942,
14,exp1.png,exp2.png,,,,,,,,,,,,,,,,,1,0,1,0,0,14,14,14,,,,,,,,,False,33,94,False,exp1.png,exp2.png,trial_left_image,1,exp1.png,2,exp1.png,exp2.png,1,1,non-reversed,correct,0.6990707891321385,1,valid_win,477.48365920002107,70,,,,,,,,,,,s_023,2,2020_Dec_14_1038,Reversal,3.2.4,59.88931257328942,
15,exp3.png,exp4.png,,,,,,,,,,,,,,,,,1,0,1,0,0,15,15,15,,,,,,,,,False,34,95,False,exp3.png,exp4.png,trial_right_image,-1,exp4.png,2,exp4.png,exp3.png,0,4,reversed,correct,0.14700873569985962,0,invalid_lose,481.6320361000253,70,,,,,,,,,,,s_023,2,2020_Dec_14_1038,Reversal,3.2.4,59.88931257328942,
16,exp1.png,exp2.png,,,,,,,,,,,,,,,,,1,0,1,0,0,16,16,16,,,,,,,,,False,35,96,True,exp2.png,exp1.png,trial_right_image,-1,exp1.png,2,exp1.png,exp2.png,1,1,non-reversed,correct,0.2490091247062911,0,invalid_lose,486.180999800039,70,,,,,,,,,,,s_023,2,2020_Dec_14_1038,Reversal,3.2.4,59.88931257328942,
17,exp3.png,exp4.png,,,,,,,,,,,,,,,,,1,0,1,0,0,17,17,17,,,,,,,,,False,36,97,True,exp4.png,exp3.png,trial_right_image,-1,exp3.png,2,exp4.png,exp3.png,1,3,reversed,incorrect,0.2883704778732096,0,valid_lose,492.21243559999857,70,,,,,,,,,,,s_023,2,2020_Dec_14_1038,Reversal,3.2.4,59.88931257328942,
18,exp1.png,exp2.png,,,,,,,,,,,,,,,,,1,0,1,0,0,18,18,18,,,,,,,,,False,37,98,True,exp2.png,exp1.png,trial_left_image,1,exp2.png,2,exp1.png,exp2.png,0,2,non-reversed,incorrect,0.6251360105578436,0,valid_lose,496.91164690000005,70,,,,,,,,,,,s_023,2,2020_Dec_14_1038,Reversal,3.2.4,59.88931257328942,
19,exp3.png,exp4.png,,,,,,,,,,,,,,,,,1,0,1,0,0,19,19,19,,,,,,,,,False,38,99,False,exp3.png,exp4.png,trial_right_image,-1,exp4.png,2,exp4.png,exp3.png,0,4,reversed,correct,0.15348028812250814,0,invalid_lose,501.7093023000052,70,,,,,,,,,,,s_023,2,2020_Dec_14_1038,Reversal,3.2.4,59.88931257328942,
20,exp1.png,exp2.png,,,,,,,,,,,,,,,,,1,0,1,0,0,20,20,20,,,,,,,,,False,39,100,True,exp2.png,exp1.png,trial_left_image,1,exp2.png,2,exp1.png,exp2.png,0,2,non-reversed,incorrect,0.6781382583112272,0,valid_lose,507.02415690000635,70,,,,,,,,,,,s_023,2,2020_Dec_14_1038,Reversal,3.2.4,59.88931257328942,
,,,,,,,,,,,,,,,,,,,1,0,1,0,,,,,0,0,0,0,,,,,,,,,,,,,,,,,,,,,,,,,,0,50,59,50.0,,,,,,,s_023,2,2020_Dec_14_1038,Reversal,3.2.4,59.88931257328942,
0,exp1.png,exp2.png,,,,,,,,,,,,,,,,,2,0,2,0,0,0,0,0,,,,,,,,,True,,,,,,,,,,,,,,,,,,,,,,,,,,,,,,,s_023,2,2020_Dec_14_1038,Reversal,3.2.4,59.88931257328942,
1,exp3.png,exp4.png,,,,,,,,,,,,,,,,,2,0,2,0,0,1,1,1,,,,,,,,,False,40,101,False,exp3.png,exp4.png,trial_left_image,1,exp3.png,2,exp4.png,exp3.png,1,3,reversed,incorrect,0.20789170205836816,1,invalid_win,521.6023964000051,71,,,,,,,,,,,s_023,2,2020_Dec_14_1038,Reversal,3.2.4,59.88931257328942,
2,exp1.png,exp2.png,,,,,,,,,,,,,,,,,2,0,2,0,0,2,2,2,,,,,,,,,False,41,102,True,exp2.png,exp1.png,trial_right_image,-1,exp1.png,2,exp1.png,exp2.png,1,1,non-reversed,correct,0.7198528164245712,1,valid_win,525.7007075000438,72,,,,,,,,,,,s_023,2,2020_Dec_14_1038,Reversal,3.2.4,59.88931257328942,
3,exp3.png,exp4.png,,,,,,,,,,,,,,,,,2,0,2,0,0,3,3,3,,,,,,,,,False,42,103,False,exp3.png,exp4.png,trial_left_image,1,exp3.png,2,exp4.png,exp3.png,1,3,reversed,incorrect,0.006333849068175468,1,invalid_win,529.9004887000192,73,,,,,,,,,,,s_023,2,2020_Dec_14_1038,Reversal,3.2.4,59.88931257328942,
4,exp1.png,exp2.png,,,,,,,,,,,,,,,,,2,0,2,0,0,4,4,4,,,,,,,,,False,43,104,True,exp2.png,exp1.png,trial_right_image,-1,exp1.png,2,exp1.png,exp2.png,1,1,non-reversed,correct,0.4290959539134346,1,valid_win,533.9981677000178,74,,,,,,,,,,,s_023,2,2020_Dec_14_1038,Reversal,3.2.4,59.88931257328942,
5,exp3.png,exp4.png,,,,,,,,,,,,,,,,,2,0,2,0,0,5,5,5,,,,,,,,,False,44,105,True,exp4.png,exp3.png,trial_right_image,-1,exp3.png,2,exp4.png,exp3.png,1,3,reversed,incorrect,0.8431533259784736,0,valid_lose,538.0807421000209,74,,,,,,,,,,,s_023,2,2020_Dec_14_1038,Reversal,3.2.4,59.88931257328942,
6,exp1.png,exp2.png,,,,,,,,,,,,,,,,,2,0,2,0,0,6,6,6,,,,,,,,,False,45,106,True,exp2.png,exp1.png,trial_right_image,-1,exp1.png,2,exp1.png,exp2.png,1,1,non-reversed,correct,0.6632812319650492,1,valid_win,542.2964061000384,75,,,,,,,,,,,s_023,2,2020_Dec_14_1038,Reversal,3.2.4,59.88931257328942,
7,exp3.png,exp4.png,,,,,,,,,,,,,,,,,2,0,2,0,0,7,7,7,,,,,,,,,False,46,107,False,exp3.png,exp4.png,trial_right_image,-1,exp4.png,2,exp4.png,exp3.png,0,4,reversed,correct,0.23470950361592646,0,invalid_lose,546.4615138000227,75,,,,,,,,,,,s_023,2,2020_Dec_14_1038,Reversal,3.2.4,59.88931257328942,
8,exp1.png,exp2.png,,,,,,,,,,,,,,,,,2,0,2,0,0,8,8,8,,,,,,,,,False,47,108,True,exp2.png,exp1.png,trial_right_image,-1,exp1.png,2,exp1.png,exp2.png,1,1,non-reversed,correct,0.8037202312910185,1,valid_win,550.7421995000332,76,,,,,,,,,,,s_023,2,2020_Dec_14_1038,Reversal,3.2.4,59.88931257328942,
9,exp3.png,exp4.png,,,,,,,,,,,,,,,,,2,0,2,0,0,9,9,9,,,,,,,,,False,48,109,False,exp3.png,exp4.png,trial_left_image,1,exp3.png,2,exp4.png,exp3.png,1,3,reversed,incorrect,0.3012941697722762,0,valid_lose,554.8741069000098,76,,,,,,,,,,,s_023,2,2020_Dec_14_1038,Reversal,3.2.4,59.88931257328942,
10,exp1.png,exp2.png,,,,,,,,,,,,,,,,,2,0,2,0,0,10,10,10,,,,,,,,,False,49,110,False,exp1.png,exp2.png,trial_left_image,1,exp1.png,2,exp1.png,exp2.png,1,1,non-reversed,correct,0.9954711114262275,1,valid_win,559.4569944000104,77,,,,,,,,,,,s_023,2,2020_Dec_14_1038,Reversal,3.2.4,59.88931257328942,
11,exp3.png,exp4.png,,,,,,,,,,,,,,,,,2,0,2,0,0,11,11,11,,,,,,,,,False,50,111,True,exp4.png,exp3.png,trial_right_image,-1,exp3.png,2,exp4.png,exp3.png,1,3,reversed,incorrect,0.2706896805339075,0,valid_lose,563.605596700043,77,,,,,,,,,,,s_023,2,2020_Dec_14_1038,Reversal,3.2.4,59.88931257328942,
12,exp1.png,exp2.png,,,,,,,,,,,,,,,,,2,0,2,0,0,12,12,12,,,,,,,,,False,51,112,True,exp2.png,exp1.png,trial_right_image,-1,exp1.png,2,exp1.png,exp2.png,1,1,non-reversed,correct,0.6615177573604927,1,valid_win,567.7038746000035,78,,,,,,,,,,,s_023,2,2020_Dec_14_1038,Reversal,3.2.4,59.88931257328942,
13,exp3.png,exp4.png,,,,,,,,,,,,,,,,,2,0,2,0,0,13,13,13,,,,,,,,,False,52,113,False,exp3.png,exp4.png,trial_left_image,1,exp3.png,2,exp4.png,exp3.png,1,3,reversed,incorrect,0.36462322897569754,0,valid_lose,571.8184857000015,78,,,,,,,,,,,s_023,2,2020_Dec_14_1038,Reversal,3.2.4,59.88931257328942,
14,exp1.png,exp2.png,,,,,,,,,,,,,,,,,2,0,2,0,0,14,14,14,,,,,,,,,False,53,114,True,exp2.png,exp1.png,trial_right_image,-1,exp1.png,2,exp1.png,exp2.png,1,1,non-reversed,correct,0.4641032315605622,1,valid_win,575.9349530999898,79,,,,,,,,,,,s_023,2,2020_Dec_14_1038,Reversal,3.2.4,59.88931257328942,
15,exp3.png,exp4.png,,,,,,,,,,,,,,,,,2,0,2,0,0,15,15,15,,,,,,,,,False,54,115,False,exp3.png,exp4.png,trial_right_image,-1,exp4.png,2,exp4.png,exp3.png,0,4,reversed,correct,0.35433150805171587,1,valid_win,580.0669762000325,80,,,,,,,,,,,s_023,2,2020_Dec_14_1038,Reversal,3.2.4,59.88931257328942,
16,exp1.png,exp2.png,,,,,,,,,,,,,,,,,2,0,2,0,0,16,16,16,,,,,,,,,False,55,116,True,exp2.png,exp1.png,trial_right_image,-1,exp1.png,2,exp1.png,exp2.png,1,1,non-reversed,correct,0.6179632607883481,1,valid_win,584.0987013000413,81,,,,,,,,,,,s_023,2,2020_Dec_14_1038,Reversal,3.2.4,59.88931257328942,
17,exp3.png,exp4.png,,,,,,,,,,,,,,,,,2,0,2,0,0,17,17,17,,,,,,,,,False,56,117,True,exp4.png,exp3.png,trial_right_image,-1,exp3.png,2,exp4.png,exp3.png,1,3,reversed,incorrect,0.5304769053072024,0,valid_lose,588.2971666000085,81,,,,,,,,,,,s_023,2,2020_Dec_14_1038,Reversal,3.2.4,59.88931257328942,
18,exp1.png,exp2.png,,,,,,,,,,,,,,,,,2,0,2,0,0,18,18,18,,,,,,,,,False,57,118,False,exp1.png,exp2.png,trial_left_image,1,exp1.png,2,exp1.png,exp2.png,1,1,non-reversed,correct,0.2918691625761932,1,valid_win,592.4461102000205,82,,,,,,,,,,,s_023,2,2020_Dec_14_1038,Reversal,3.2.4,59.88931257328942,
19,exp3.png,exp4.png,,,,,,,,,,,,,,,,,2,0,2,0,0,19,19,19,,,,,,,,,False,58,119,False,exp3.png,exp4.png,trial_right_image,-1,exp4.png,2,exp4.png,exp3.png,0,4,reversed,correct,0.7706149989892584,1,valid_win,596.4120191000402,83,,,,,,,,,,,s_023,2,2020_Dec_14_1038,Reversal,3.2.4,59.88931257328942,
20,exp1.png,exp2.png,,,,,,,,,,,,,,,,,2,0,2,0,0,20,20,20,,,,,,,,,False,59,120,False,exp1.png,exp2.png,trial_left_image,1,exp1.png,2,exp1.png,exp2.png,1,1,non-reversed,correct,0.011960240236144615,0,invalid_lose,600.4596452999976,83,,,,,,,,,,,s_023,2,2020_Dec_14_1038,Reversal,3.2.4,59.88931257328942,
,,,,,,,,,,,,,,,,,,,2,0,2,0,,,,,0,0,0,0,,,,,,,,,,,,,,,,,,,,,,,,,,94,51,49,51,,,,,,,s_023,2,2020_Dec_14_1038,Reversal,3.2.4,59.88931257328942,
,,,,,,,,,,,,,,,,,,,,,,,,,,,,,,,,,,,,,,,,,,,,,,,,,,,,,,,83,,,,,,92,47,45,313.88745939999353,0,,,,,,,
