trial_index,trial_image1_file,trial_image2_file,learning_outer_loop.thisRepN,learning_outer_loop.thisTrialN,learning_outer_loop.thisN,learning_outer_loop.thisIndex,learning_inner_loop.thisRepN,learning_inner_loop.thisTrialN,learning_inner_loop.thisN,learning_inner_loop.thisIndex,learning_estimation_outer_loop.thisRepN,learning_estimation_outer_loop.thisTrialN,learning_estimation_outer_loop.thisN,learning_estimation_outer_loop.thisIndex,learning_estimation_inner_loop.thisRepN,learning_estimation_inner_loop.thisTrialN,learning_estimation_inner_loop.thisN,learning_estimation_inner_loop.thisIndex,reversal_outer_loop.thisRepN,reversal_outer_loop.thisTrialN,reversal_outer_loop.thisN,reversal_outer_loop.thisIndex,reversal_inner_loop.thisRepN,reversal_inner_loop.thisTrialN,reversal_inner_loop.thisN,reversal_inner_loop.thisIndex,reversal_estimation_outer_loop.thisRepN,reversal_estimation_outer_loop.thisTrialN,reversal_estimation_outer_loop.thisN,reversal_estimation_outer_loop.thisIndex,reversal_estimation_inner_loop.thisRepN,reversal_estimation_inner_loop.thisTrialN,reversal_estimation_inner_loop.thisN,reversal_estimation_inner_loop.thisIndex,skipped,total_trial_counter,trial_num,left_right_flip,left_image_file,right_image_file,clicked_stimulus_side,side,clicked_stimulus,version,high_prob_image_file,low_prob_image_file,choice_a,choice_b,pair_type,correct,trial_feedback_random,reward,trial_type,overall_time_after_trial,score,estimation_exp1.png,estimation_exp2.png,estimation_exp3.png,estimation_exp4.png,total_learning_time,total_correct,learning_correct,reversal_correct,total_reversal_time,extra_block,participant,ver,date,expName,psychopyVersion,frameRate,
0,exp1.png,exp2.png,0,0,0,0,0,0,0,0,,,,,,,,,,,,,,,,,,,,,,,,,True,,,,,,,,,,,,,,,,,,,,,,,,,,,,,,,s_033,2,2020_Dec_29_1458,Reversal,3.2.4,60.0665176506876,
1,exp3.png,exp4.png,0,0,0,0,0,1,1,1,,,,,,,,,,,,,,,,,,,,,,,,,False,0,1,True,exp4.png,exp3.png,trial_right_image,-1,exp3.png,2,exp3.png,exp4.png,1,3,reversed,correct,0.12706089067768533,0,invalid_lose,2.661239600041881,0,,,,,,,,,,,s_033,2,2020_Dec_29_1458,Reversal,3.2.4,60.0665176506876,
2,exp1.png,exp2.png,0,0,0,0,0,2,2,2,,,,,,,,,,,,,,,,,,,,,,,,,False,1,2,False,exp1.png,exp2.png,trial_right_image,-1,exp2.png,2,exp1.png,exp2.png,0,2,non-reversed,incorrect,0.7976840568725091,0,valid_lose,7.176798400003463,0,,,,,,,,,,,s_033,2,2020_Dec_29_1458,Reversal,3.2.4,60.0665176506876,
3,exp3.png,exp4.png,0,0,0,0,0,3,3,3,,,,,,,,,,,,,,,,,,,,,,,,,False,2,3,True,exp4.png,exp3.png,trial_right_image,-1,exp3.png,2,exp3.png,exp4.png,1,3,reversed,correct,0.6323122662630822,1,valid_win,12.341775799985044,1,,,,,,,,,,,s_033,2,2020_Dec_29_1458,Reversal,3.2.4,60.0665176506876,
4,exp1.png,exp2.png,0,0,0,0,0,4,4,4,,,,,,,,,,,,,,,,,,,,,,,,,False,3,4,True,exp2.png,exp1.png,trial_right_image,-1,exp1.png,2,exp1.png,exp2.png,1,1,non-reversed,correct,0.3951329860284857,1,valid_win,16.34032690001186,2,,,,,,,,,,,s_033,2,2020_Dec_29_1458,Reversal,3.2.4,60.0665176506876,
5,exp3.png,exp4.png,0,0,0,0,0,5,5,5,,,,,,,,,,,,,,,,,,,,,,,,,False,4,5,True,exp4.png,exp3.png,trial_right_image,-1,exp3.png,2,exp3.png,exp4.png,1,3,reversed,correct,0.36981329106274496,1,valid_win,20.523593300022185,3,,,,,,,,,,,s_033,2,2020_Dec_29_1458,Reversal,3.2.4,60.0665176506876,
6,exp1.png,exp2.png,0,0,0,0,0,6,6,6,,,,,,,,,,,,,,,,,,,,,,,,,False,5,6,False,exp1.png,exp2.png,trial_right_image,-1,exp2.png,2,exp1.png,exp2.png,0,2,non-reversed,incorrect,0.6264919743401705,0,valid_lose,24.605456199962646,3,,,,,,,,,,,s_033,2,2020_Dec_29_1458,Reversal,3.2.4,60.0665176506876,
7,exp3.png,exp4.png,0,0,0,0,0,7,7,7,,,,,,,,,,,,,,,,,,,,,,,,,False,6,7,True,exp4.png,exp3.png,trial_right_image,-1,exp3.png,2,exp3.png,exp4.png,1,3,reversed,correct,0.18731630793559018,0,invalid_lose,28.53652870003134,3,,,,,,,,,,,s_033,2,2020_Dec_29_1458,Reversal,3.2.4,60.0665176506876,
8,exp1.png,exp2.png,0,0,0,0,0,8,8,8,,,,,,,,,,,,,,,,,,,,,,,,,False,7,8,True,exp2.png,exp1.png,trial_right_image,-1,exp1.png,2,exp1.png,exp2.png,1,1,non-reversed,correct,0.8923845506885782,1,valid_win,32.819616499939,4,,,,,,,,,,,s_033,2,2020_Dec_29_1458,Reversal,3.2.4,60.0665176506876,
9,exp3.png,exp4.png,0,0,0,0,0,9,9,9,,,,,,,,,,,,,,,,,,,,,,,,,False,8,9,False,exp3.png,exp4.png,trial_right_image,-1,exp4.png,2,exp3.png,exp4.png,0,4,reversed,incorrect,0.9292294359876133,0,valid_lose,36.91798739996739,4,,,,,,,,,,,s_033,2,2020_Dec_29_1458,Reversal,3.2.4,60.0665176506876,
10,exp1.png,exp2.png,0,0,0,0,0,10,10,10,,,,,,,,,,,,,,,,,,,,,,,,,False,9,10,False,exp1.png,exp2.png,trial_right_image,-1,exp2.png,2,exp1.png,exp2.png,0,2,non-reversed,incorrect,0.48133343567361353,0,valid_lose,40.89874710002914,4,,,,,,,,,,,s_033,2,2020_Dec_29_1458,Reversal,3.2.4,60.0665176506876,
11,exp3.png,exp4.png,0,0,0,0,0,11,11,11,,,,,,,,,,,,,,,,,,,,,,,,,False,10,11,True,exp4.png,exp3.png,trial_right_image,-1,exp3.png,2,exp3.png,exp4.png,1,3,reversed,correct,0.5273280982681593,1,valid_win,44.88213659997564,5,,,,,,,,,,,s_033,2,2020_Dec_29_1458,Reversal,3.2.4,60.0665176506876,
12,exp1.png,exp2.png,0,0,0,0,0,12,12,12,,,,,,,,,,,,,,,,,,,,,,,,,False,11,12,False,exp1.png,exp2.png,trial_right_image,-1,exp2.png,2,exp1.png,exp2.png,0,2,non-reversed,incorrect,0.05342987453585335,1,invalid_win,48.91413539997302,6,,,,,,,,,,,s_033,2,2020_Dec_29_1458,Reversal,3.2.4,60.0665176506876,
13,exp3.png,exp4.png,0,0,0,0,0,13,13,13,,,,,,,,,,,,,,,,,,,,,,,,,False,12,13,False,exp3.png,exp4.png,trial_right_image,-1,exp4.png,2,exp3.png,exp4.png,0,4,reversed,incorrect,0.4977171151741725,0,valid_lose,52.87883089995012,6,,,,,,,,,,,s_033,2,2020_Dec_29_1458,Reversal,3.2.4,60.0665176506876,
14,exp1.png,exp2.png,0,0,0,0,0,14,14,14,,,,,,,,,,,,,,,,,,,,,,,,,False,13,14,True,exp2.png,exp1.png,trial_left_image,1,exp2.png,2,exp1.png,exp2.png,0,2,non-reversed,incorrect,0.9452438415226465,0,valid_lose,56.97794909996446,6,,,,,,,,,,,s_033,2,2020_Dec_29_1458,Reversal,3.2.4,60.0665176506876,
15,exp3.png,exp4.png,0,0,0,0,0,15,15,15,,,,,,,,,,,,,,,,,,,,,,,,,False,14,15,False,exp3.png,exp4.png,trial_left_image,1,exp3.png,2,exp3.png,exp4.png,1,3,reversed,correct,0.46973820582869896,1,valid_win,61.02665050001815,7,,,,,,,,,,,s_033,2,2020_Dec_29_1458,Reversal,3.2.4,60.0665176506876,
16,exp1.png,exp2.png,0,0,0,0,0,16,16,16,,,,,,,,,,,,,,,,,,,,,,,,,False,15,16,True,exp2.png,exp1.png,trial_left_image,1,exp2.png,2,exp1.png,exp2.png,0,2,non-reversed,incorrect,0.044878199268756136,1,invalid_win,65.29037019994576,8,,,,,,,,,,,s_033,2,2020_Dec_29_1458,Reversal,3.2.4,60.0665176506876,
17,exp3.png,exp4.png,0,0,0,0,0,17,17,17,,,,,,,,,,,,,,,,,,,,,,,,,False,16,17,False,exp3.png,exp4.png,trial_left_image,1,exp3.png,2,exp3.png,exp4.png,1,3,reversed,correct,0.7885870957185,1,valid_win,69.35660840000492,9,,,,,,,,,,,s_033,2,2020_Dec_29_1458,Reversal,3.2.4,60.0665176506876,
18,exp1.png,exp2.png,0,0,0,0,0,18,18,18,,,,,,,,,,,,,,,,,,,,,,,,,False,17,18,False,exp1.png,exp2.png,trial_left_image,1,exp1.png,2,exp1.png,exp2.png,1,1,non-reversed,correct,0.4931290357693936,1,valid_win,73.60614779999014,10,,,,,,,,,,,s_033,2,2020_Dec_29_1458,Reversal,3.2.4,60.0665176506876,
19,exp3.png,exp4.png,0,0,0,0,0,19,19,19,,,,,,,,,,,,,,,,,,,,,,,,,False,18,19,False,exp3.png,exp4.png,trial_left_image,1,exp3.png,2,exp3.png,exp4.png,1,3,reversed,correct,0.8745695591084219,1,valid_win,78.1876842000056,11,,,,,,,,,,,s_033,2,2020_Dec_29_1458,Reversal,3.2.4,60.0665176506876,
20,exp1.png,exp2.png,0,0,0,0,0,20,20,20,,,,,,,,,,,,,,,,,,,,,,,,,False,19,20,True,exp2.png,exp1.png,trial_left_image,1,exp2.png,2,exp1.png,exp2.png,0,2,non-reversed,incorrect,0.3973023767181436,0,valid_lose,82.28613859997131,11,,,,,,,,,,,s_033,2,2020_Dec_29_1458,Reversal,3.2.4,60.0665176506876,
,,,0,0,0,0,,,,,0,0,0,0,,,,,,,,,,,,,,,,,,,,,,,,,,,,,,,,,,,,,,,,,,49,50.0,48,46,,,,,,,s_033,2,2020_Dec_29_1458,Reversal,3.2.4,60.0665176506876,
0,exp1.png,exp2.png,1,0,1,0,0,0,0,0,,,,,,,,,,,,,,,,,,,,,,,,,True,,,,,,,,,,,,,,,,,,,,,,,,,,,,,,,s_033,2,2020_Dec_29_1458,Reversal,3.2.4,60.0665176506876,
1,exp3.png,exp4.png,1,0,1,0,0,1,1,1,,,,,,,,,,,,,,,,,,,,,,,,,False,20,21,False,exp3.png,exp4.png,trial_right_image,-1,exp4.png,2,exp3.png,exp4.png,0,4,reversed,incorrect,0.8258487650175037,0,valid_lose,115.24162560002878,11,,,,,,,,,,,s_033,2,2020_Dec_29_1458,Reversal,3.2.4,60.0665176506876,
2,exp1.png,exp2.png,1,0,1,0,0,2,2,2,,,,,,,,,,,,,,,,,,,,,,,,,False,21,22,False,exp1.png,exp2.png,trial_left_image,1,exp1.png,2,exp1.png,exp2.png,1,1,non-reversed,correct,0.8237160952240831,1,valid_win,119.2570471999934,12,,,,,,,,,,,s_033,2,2020_Dec_29_1458,Reversal,3.2.4,60.0665176506876,
3,exp3.png,exp4.png,1,0,1,0,0,3,3,3,,,,,,,,,,,,,,,,,,,,,,,,,False,22,23,False,exp3.png,exp4.png,trial_left_image,1,exp3.png,2,exp3.png,exp4.png,1,3,reversed,correct,0.7725964786141015,1,valid_win,123.32232839998323,13,,,,,,,,,,,s_033,2,2020_Dec_29_1458,Reversal,3.2.4,60.0665176506876,
4,exp1.png,exp2.png,1,0,1,0,0,4,4,4,,,,,,,,,,,,,,,,,,,,,,,,,False,23,24,False,exp1.png,exp2.png,trial_left_image,1,exp1.png,2,exp1.png,exp2.png,1,1,non-reversed,correct,0.06295182994395954,0,invalid_lose,127.38745369995013,13,,,,,,,,,,,s_033,2,2020_Dec_29_1458,Reversal,3.2.4,60.0665176506876,
5,exp3.png,exp4.png,1,0,1,0,0,5,5,5,,,,,,,,,,,,,,,,,,,,,,,,,False,24,25,False,exp3.png,exp4.png,trial_left_image,1,exp3.png,2,exp3.png,exp4.png,1,3,reversed,correct,0.9181260425270485,1,valid_win,131.38670689996798,14,,,,,,,,,,,s_033,2,2020_Dec_29_1458,Reversal,3.2.4,60.0665176506876,
6,exp1.png,exp2.png,1,0,1,0,0,6,6,6,,,,,,,,,,,,,,,,,,,,,,,,,False,25,26,True,exp2.png,exp1.png,trial_left_image,1,exp2.png,2,exp1.png,exp2.png,0,2,non-reversed,incorrect,0.6231581049956474,0,valid_lose,135.31819010002073,14,,,,,,,,,,,s_033,2,2020_Dec_29_1458,Reversal,3.2.4,60.0665176506876,
7,exp3.png,exp4.png,1,0,1,0,0,7,7,7,,,,,,,,,,,,,,,,,,,,,,,,,False,26,27,True,exp4.png,exp3.png,trial_left_image,1,exp4.png,2,exp3.png,exp4.png,0,4,reversed,incorrect,0.20696965739962536,1,invalid_win,139.23355979996268,15,,,,,,,,,,,s_033,2,2020_Dec_29_1458,Reversal,3.2.4,60.0665176506876,
8,exp1.png,exp2.png,1,0,1,0,0,8,8,8,,,,,,,,,,,,,,,,,,,,,,,,,False,27,28,False,exp1.png,exp2.png,trial_left_image,1,exp1.png,2,exp1.png,exp2.png,1,1,non-reversed,correct,0.7580141338440347,1,valid_win,143.44912539992947,16,,,,,,,,,,,s_033,2,2020_Dec_29_1458,Reversal,3.2.4,60.0665176506876,
9,exp3.png,exp4.png,1,0,1,0,0,9,9,9,,,,,,,,,,,,,,,,,,,,,,,,,False,28,29,False,exp3.png,exp4.png,trial_left_image,1,exp3.png,2,exp3.png,exp4.png,1,3,reversed,correct,0.9164826810138726,1,valid_win,147.4809333999874,17,,,,,,,,,,,s_033,2,2020_Dec_29_1458,Reversal,3.2.4,60.0665176506876,
10,exp1.png,exp2.png,1,0,1,0,0,10,10,10,,,,,,,,,,,,,,,,,,,,,,,,,False,29,30,True,exp2.png,exp1.png,trial_left_image,1,exp2.png,2,exp1.png,exp2.png,0,2,non-reversed,incorrect,0.7593945950662145,0,valid_lose,151.52922319993377,17,,,,,,,,,,,s_033,2,2020_Dec_29_1458,Reversal,3.2.4,60.0665176506876,
11,exp3.png,exp4.png,1,0,1,0,0,11,11,11,,,,,,,,,,,,,,,,,,,,,,,,,False,30,31,True,exp4.png,exp3.png,trial_left_image,1,exp4.png,2,exp3.png,exp4.png,0,4,reversed,incorrect,0.1515609270359235,1,invalid_win,155.4779378999956,18,,,,,,,,,,,s_033,2,2020_Dec_29_1458,Reversal,3.2.4,60.0665176506876,
12,exp1.png,exp2.png,1,0,1,0,0,12,12,12,,,,,,,,,,,,,,,,,,,,,,,,,False,31,32,False,exp1.png,exp2.png,trial_left_image,1,exp1.png,2,exp1.png,exp2.png,1,1,non-reversed,correct,0.864123332242728,1,valid_win,159.42643670004327,19,,,,,,,,,,,s_033,2,2020_Dec_29_1458,Reversal,3.2.4,60.0665176506876,
13,exp3.png,exp4.png,1,0,1,0,0,13,13,13,,,,,,,,,,,,,,,,,,,,,,,,,False,32,33,True,exp4.png,exp3.png,trial_left_image,1,exp4.png,2,exp3.png,exp4.png,0,4,reversed,incorrect,0.7815873111465999,0,valid_lose,163.3922653000336,19,,,,,,,,,,,s_033,2,2020_Dec_29_1458,Reversal,3.2.4,60.0665176506876,
14,exp1.png,exp2.png,1,0,1,0,0,14,14,14,,,,,,,,,,,,,,,,,,,,,,,,,False,33,34,True,exp2.png,exp1.png,trial_left_image,1,exp2.png,2,exp1.png,exp2.png,0,2,non-reversed,incorrect,0.3256786442202285,0,valid_lose,167.37411520001478,19,,,,,,,,,,,s_033,2,2020_Dec_29_1458,Reversal,3.2.4,60.0665176506876,
15,exp3.png,exp4.png,1,0,1,0,0,15,15,15,,,,,,,,,,,,,,,,,,,,,,,,,False,34,35,True,exp4.png,exp3.png,trial_left_image,1,exp4.png,2,exp3.png,exp4.png,0,4,reversed,incorrect,0.6530111614429941,0,valid_lose,171.62287750001997,19,,,,,,,,,,,s_033,2,2020_Dec_29_1458,Reversal,3.2.4,60.0665176506876,
16,exp1.png,exp2.png,1,0,1,0,0,16,16,16,,,,,,,,,,,,,,,,,,,,,,,,,False,35,36,False,exp1.png,exp2.png,trial_left_image,1,exp1.png,2,exp1.png,exp2.png,1,1,non-reversed,correct,0.4648109056773,1,valid_win,175.57131589995697,20,,,,,,,,,,,s_033,2,2020_Dec_29_1458,Reversal,3.2.4,60.0665176506876,
17,exp3.png,exp4.png,1,0,1,0,0,17,17,17,,,,,,,,,,,,,,,,,,,,,,,,,False,36,37,True,exp4.png,exp3.png,trial_left_image,1,exp4.png,2,exp3.png,exp4.png,0,4,reversed,incorrect,0.27944367437705264,0,valid_lose,181.06970640004147,20,,,,,,,,,,,s_033,2,2020_Dec_29_1458,Reversal,3.2.4,60.0665176506876,
18,exp1.png,exp2.png,1,0,1,0,0,18,18,18,,,,,,,,,,,,,,,,,,,,,,,,,False,37,38,False,exp1.png,exp2.png,trial_left_image,1,exp1.png,2,exp1.png,exp2.png,1,1,non-reversed,correct,0.4074060102224747,1,valid_win,185.45143040001858,21,,,,,,,,,,,s_033,2,2020_Dec_29_1458,Reversal,3.2.4,60.0665176506876,
19,exp3.png,exp4.png,1,0,1,0,0,19,19,19,,,,,,,,,,,,,,,,,,,,,,,,,False,38,39,True,exp4.png,exp3.png,trial_right_image,-1,exp3.png,2,exp3.png,exp4.png,1,3,reversed,correct,0.9351811326673898,1,valid_win,189.84976759995334,22,,,,,,,,,,,s_033,2,2020_Dec_29_1458,Reversal,3.2.4,60.0665176506876,
20,exp1.png,exp2.png,1,0,1,0,0,20,20,20,,,,,,,,,,,,,,,,,,,,,,,,,False,39,40,True,exp2.png,exp1.png,trial_right_image,-1,exp1.png,2,exp1.png,exp2.png,1,1,non-reversed,correct,0.4983414576767199,1,valid_win,194.24812250002287,23,,,,,,,,,,,s_033,2,2020_Dec_29_1458,Reversal,3.2.4,60.0665176506876,
,,,1,0,1,0,,,,,0,0,0,0,,,,,,,,,,,,,,,,,,,,,,,,,,,,,,,,,,,,,,,,,,62,36,64,37,,,,,,,s_033,2,2020_Dec_29_1458,Reversal,3.2.4,60.0665176506876,
0,exp1.png,exp2.png,2,0,2,0,0,0,0,0,,,,,,,,,,,,,,,,,,,,,,,,,True,,,,,,,,,,,,,,,,,,,,,,,,,,,,,,,s_033,2,2020_Dec_29_1458,Reversal,3.2.4,60.0665176506876,
1,exp3.png,exp4.png,2,0,2,0,0,1,1,1,,,,,,,,,,,,,,,,,,,,,,,,,False,40,41,False,exp3.png,exp4.png,trial_left_image,1,exp3.png,2,exp3.png,exp4.png,1,3,reversed,correct,0.019816503977526212,0,invalid_lose,216.9740278000245,23,,,,,,,,,,,s_033,2,2020_Dec_29_1458,Reversal,3.2.4,60.0665176506876,
2,exp1.png,exp2.png,2,0,2,0,0,2,2,2,,,,,,,,,,,,,,,,,,,,,,,,,False,41,42,True,exp2.png,exp1.png,trial_right_image,-1,exp1.png,2,exp1.png,exp2.png,1,1,non-reversed,correct,0.0532611736115115,0,invalid_lose,222.12196879996918,23,,,,,,,,,,,s_033,2,2020_Dec_29_1458,Reversal,3.2.4,60.0665176506876,
3,exp3.png,exp4.png,2,0,2,0,0,3,3,3,,,,,,,,,,,,,,,,,,,,,,,,,False,42,43,True,exp4.png,exp3.png,trial_left_image,1,exp4.png,2,exp3.png,exp4.png,0,4,reversed,incorrect,0.8840856234581475,0,valid_lose,228.22020340000745,23,,,,,,,,,,,s_033,2,2020_Dec_29_1458,Reversal,3.2.4,60.0665176506876,
4,exp1.png,exp2.png,2,0,2,0,0,4,4,4,,,,,,,,,,,,,,,,,,,,,,,,,False,43,44,True,exp2.png,exp1.png,trial_right_image,-1,exp1.png,2,exp1.png,exp2.png,1,1,non-reversed,correct,0.8432309834712386,1,valid_win,232.86833590001334,24,,,,,,,,,,,s_033,2,2020_Dec_29_1458,Reversal,3.2.4,60.0665176506876,
5,exp3.png,exp4.png,2,0,2,0,0,5,5,5,,,,,,,,,,,,,,,,,,,,,,,,,False,44,45,True,exp4.png,exp3.png,trial_left_image,1,exp4.png,2,exp3.png,exp4.png,0,4,reversed,incorrect,0.4220474834324519,0,valid_lose,239.2319426999893,24,,,,,,,,,,,s_033,2,2020_Dec_29_1458,Reversal,3.2.4,60.0665176506876,
6,exp1.png,exp2.png,2,0,2,0,0,6,6,6,,,,,,,,,,,,,,,,,,,,,,,,,False,45,46,True,exp2.png,exp1.png,trial_right_image,-1,exp1.png,2,exp1.png,exp2.png,1,1,non-reversed,correct,0.5994449454296167,1,valid_win,243.81462870002724,25,,,,,,,,,,,s_033,2,2020_Dec_29_1458,Reversal,3.2.4,60.0665176506876,
7,exp3.png,exp4.png,2,0,2,0,0,7,7,7,,,,,,,,,,,,,,,,,,,,,,,,,False,46,47,False,exp3.png,exp4.png,trial_right_image,-1,exp4.png,2,exp3.png,exp4.png,0,4,reversed,incorrect,0.31908774281185104,0,valid_lose,249.02969370002393,25,,,,,,,,,,,s_033,2,2020_Dec_29_1458,Reversal,3.2.4,60.0665176506876,
8,exp1.png,exp2.png,2,0,2,0,0,8,8,8,,,,,,,,,,,,,,,,,,,,,,,,,False,47,48,False,exp1.png,exp2.png,trial_left_image,1,exp1.png,2,exp1.png,exp2.png,1,1,non-reversed,correct,0.07843849288416138,0,invalid_lose,253.4787088999292,25,,,,,,,,,,,s_033,2,2020_Dec_29_1458,Reversal,3.2.4,60.0665176506876,
9,exp3.png,exp4.png,2,0,2,0,0,9,9,9,,,,,,,,,,,,,,,,,,,,,,,,,False,48,49,True,exp4.png,exp3.png,trial_right_image,-1,exp3.png,2,exp3.png,exp4.png,1,3,reversed,correct,0.4452723946402505,1,valid_win,260.1424793000333,26,,,,,,,,,,,s_033,2,2020_Dec_29_1458,Reversal,3.2.4,60.0665176506876,
10,exp1.png,exp2.png,2,0,2,0,0,10,10,10,,,,,,,,,,,,,,,,,,,,,,,,,False,49,50,False,exp1.png,exp2.png,trial_left_image,1,exp1.png,2,exp1.png,exp2.png,1,1,non-reversed,correct,0.3178118250023968,1,valid_win,264.97479090001434,27,,,,,,,,,,,s_033,2,2020_Dec_29_1458,Reversal,3.2.4,60.0665176506876,
11,exp3.png,exp4.png,2,0,2,0,0,11,11,11,,,,,,,,,,,,,,,,,,,,,,,,,False,50,51,False,exp3.png,exp4.png,trial_left_image,1,exp3.png,2,exp3.png,exp4.png,1,3,reversed,correct,0.29928979758427143,1,valid_win,270.67236019996926,28,,,,,,,,,,,s_033,2,2020_Dec_29_1458,Reversal,3.2.4,60.0665176506876,
12,exp1.png,exp2.png,2,0,2,0,0,12,12,12,,,,,,,,,,,,,,,,,,,,,,,,,False,51,52,True,exp2.png,exp1.png,trial_right_image,-1,exp1.png,2,exp1.png,exp2.png,1,1,non-reversed,correct,0.20309322312971023,0,invalid_lose,275.52066050004214,28,,,,,,,,,,,s_033,2,2020_Dec_29_1458,Reversal,3.2.4,60.0665176506876,
13,exp3.png,exp4.png,2,0,2,0,0,13,13,13,,,,,,,,,,,,,,,,,,,,,,,,,False,52,53,False,exp3.png,exp4.png,trial_left_image,1,exp3.png,2,exp3.png,exp4.png,1,3,reversed,correct,0.03615717836540233,0,invalid_lose,280.25230870000087,28,,,,,,,,,,,s_033,2,2020_Dec_29_1458,Reversal,3.2.4,60.0665176506876,
14,exp1.png,exp2.png,2,0,2,0,0,14,14,14,,,,,,,,,,,,,,,,,,,,,,,,,False,53,54,True,exp2.png,exp1.png,trial_right_image,-1,exp1.png,2,exp1.png,exp2.png,1,1,non-reversed,correct,0.39212578609929893,1,valid_win,285.8013727000216,29,,,,,,,,,,,s_033,2,2020_Dec_29_1458,Reversal,3.2.4,60.0665176506876,
15,exp3.png,exp4.png,2,0,2,0,0,15,15,15,,,,,,,,,,,,,,,,,,,,,,,,,False,54,55,True,exp4.png,exp3.png,trial_right_image,-1,exp3.png,2,exp3.png,exp4.png,1,3,reversed,correct,0.6674599280391849,1,valid_win,291.515275200014,30,,,,,,,,,,,s_033,2,2020_Dec_29_1458,Reversal,3.2.4,60.0665176506876,
16,exp1.png,exp2.png,2,0,2,0,0,16,16,16,,,,,,,,,,,,,,,,,,,,,,,,,False,55,56,False,exp1.png,exp2.png,trial_left_image,1,exp1.png,2,exp1.png,exp2.png,1,1,non-reversed,correct,0.8401023943537319,1,valid_win,296.6137900999747,31,,,,,,,,,,,s_033,2,2020_Dec_29_1458,Reversal,3.2.4,60.0665176506876,
17,exp3.png,exp4.png,2,0,2,0,0,17,17,17,,,,,,,,,,,,,,,,,,,,,,,,,False,56,57,False,exp3.png,exp4.png,trial_left_image,1,exp3.png,2,exp3.png,exp4.png,1,3,reversed,correct,0.5586564723054326,1,valid_win,301.2956486999756,32,,,,,,,,,,,s_033,2,2020_Dec_29_1458,Reversal,3.2.4,60.0665176506876,
18,exp1.png,exp2.png,2,0,2,0,0,18,18,18,,,,,,,,,,,,,,,,,,,,,,,,,False,57,58,True,exp2.png,exp1.png,trial_right_image,-1,exp1.png,2,exp1.png,exp2.png,1,1,non-reversed,correct,0.12554143378020943,0,invalid_lose,305.7594755999744,32,,,,,,,,,,,s_033,2,2020_Dec_29_1458,Reversal,3.2.4,60.0665176506876,
19,exp3.png,exp4.png,2,0,2,0,0,19,19,19,,,,,,,,,,,,,,,,,,,,,,,,,False,58,59,False,exp3.png,exp4.png,trial_left_image,1,exp3.png,2,exp3.png,exp4.png,1,3,reversed,correct,0.039073339905102755,0,invalid_lose,310.25897429999895,32,,,,,,,,,,,s_033,2,2020_Dec_29_1458,Reversal,3.2.4,60.0665176506876,
20,exp1.png,exp2.png,2,0,2,0,0,20,20,20,,,,,,,,,,,,,,,,,,,,,,,,,False,59,60,False,exp1.png,exp2.png,trial_left_image,1,exp1.png,2,exp1.png,exp2.png,1,1,non-reversed,correct,0.9450512184382177,1,valid_win,315.0406755999429,33,,,,,,,,,,,s_033,2,2020_Dec_29_1458,Reversal,3.2.4,60.0665176506876,
,,,2,0,2,0,,,,,0,0,0,0,,,,,,,,,,,,,,,,,,,,,,,,,,,,,,,,,,,,,,,,,,60,42,50.0,50.0,,,,,,,s_033,2,2020_Dec_29_1458,Reversal,3.2.4,60.0665176506876,
0,exp1.png,exp2.png,,,,,,,,,,,,,,,,,0,0,0,0,0,0,0,0,,,,,,,,,True,,,,,,,,,,,,,,,,,,,,,,,,,,,,,,,s_033,2,2020_Dec_29_1458,Reversal,3.2.4,60.0665176506876,
1,exp3.png,exp4.png,,,,,,,,,,,,,,,,,0,0,0,0,0,1,1,1,,,,,,,,,False,0,61,False,exp3.png,exp4.png,trial_left_image,1,exp3.png,2,exp4.png,exp3.png,1,3,reversed,incorrect,0.3408398200871855,0,valid_lose,335.30056150001474,33,,,,,332.45252429996617,,,,,,s_033,2,2020_Dec_29_1458,Reversal,3.2.4,60.0665176506876,
2,exp1.png,exp2.png,,,,,,,,,,,,,,,,,0,0,0,0,0,2,2,2,,,,,,,,,False,1,62,False,exp1.png,exp2.png,trial_left_image,1,exp1.png,2,exp1.png,exp2.png,1,1,non-reversed,correct,0.5946345452481996,1,valid_win,340.66552669997327,34,,,,,,,,,,,s_033,2,2020_Dec_29_1458,Reversal,3.2.4,60.0665176506876,
3,exp3.png,exp4.png,,,,,,,,,,,,,,,,,0,0,0,0,0,3,3,3,,,,,,,,,False,2,63,False,exp3.png,exp4.png,trial_left_image,1,exp3.png,2,exp4.png,exp3.png,1,3,reversed,incorrect,0.0014974324021426177,1,invalid_win,345.4807902999455,35,,,,,,,,,,,s_033,2,2020_Dec_29_1458,Reversal,3.2.4,60.0665176506876,
4,exp1.png,exp2.png,,,,,,,,,,,,,,,,,0,0,0,0,0,4,4,4,,,,,,,,,False,3,64,False,exp1.png,exp2.png,trial_left_image,1,exp1.png,2,exp1.png,exp2.png,1,1,non-reversed,correct,0.10018442327709387,0,invalid_lose,350.4123308999697,35,,,,,,,,,,,s_033,2,2020_Dec_29_1458,Reversal,3.2.4,60.0665176506876,
5,exp3.png,exp4.png,,,,,,,,,,,,,,,,,0,0,0,0,0,5,5,5,,,,,,,,,False,4,65,True,exp4.png,exp3.png,trial_right_image,-1,exp3.png,2,exp4.png,exp3.png,1,3,reversed,incorrect,0.6775220623703363,0,valid_lose,355.6943148999708,35,,,,,,,,,,,s_033,2,2020_Dec_29_1458,Reversal,3.2.4,60.0665176506876,
6,exp1.png,exp2.png,,,,,,,,,,,,,,,,,0,0,0,0,0,6,6,6,,,,,,,,,False,5,66,True,exp2.png,exp1.png,trial_right_image,-1,exp1.png,2,exp1.png,exp2.png,1,1,non-reversed,correct,0.4457108793846437,1,valid_win,360.6923633000115,36,,,,,,,,,,,s_033,2,2020_Dec_29_1458,Reversal,3.2.4,60.0665176506876,
7,exp3.png,exp4.png,,,,,,,,,,,,,,,,,0,0,0,0,0,7,7,7,,,,,,,,,False,6,67,True,exp4.png,exp3.png,trial_right_image,-1,exp3.png,2,exp4.png,exp3.png,1,3,reversed,incorrect,0.3023161811822268,0,valid_lose,366.17356359993573,36,,,,,,,,,,,s_033,2,2020_Dec_29_1458,Reversal,3.2.4,60.0665176506876,
8,exp1.png,exp2.png,,,,,,,,,,,,,,,,,0,0,0,0,0,8,8,8,,,,,,,,,False,7,68,True,exp2.png,exp1.png,trial_right_image,-1,exp1.png,2,exp1.png,exp2.png,1,1,non-reversed,correct,0.5075783011296344,1,valid_win,371.33852049999405,37,,,,,,,,,,,s_033,2,2020_Dec_29_1458,Reversal,3.2.4,60.0665176506876,
9,exp3.png,exp4.png,,,,,,,,,,,,,,,,,0,0,0,0,0,9,9,9,,,,,,,,,False,8,69,False,exp3.png,exp4.png,trial_left_image,1,exp3.png,2,exp4.png,exp3.png,1,3,reversed,incorrect,0.8563928974827972,0,valid_lose,376.2707526999293,37,,,,,,,,,,,s_033,2,2020_Dec_29_1458,Reversal,3.2.4,60.0665176506876,
10,exp1.png,exp2.png,,,,,,,,,,,,,,,,,0,0,0,0,0,10,10,10,,,,,,,,,False,9,70,True,exp2.png,exp1.png,trial_right_image,-1,exp1.png,2,exp1.png,exp2.png,1,1,non-reversed,correct,0.49523502448770906,1,valid_win,380.8188313000137,38,,,,,,,,,,,s_033,2,2020_Dec_29_1458,Reversal,3.2.4,60.0665176506876,
11,exp3.png,exp4.png,,,,,,,,,,,,,,,,,0,0,0,0,0,11,11,11,,,,,,,,,False,10,71,True,exp4.png,exp3.png,trial_right_image,-1,exp3.png,2,exp4.png,exp3.png,1,3,reversed,incorrect,0.8947887404355022,0,valid_lose,385.48347139998805,38,,,,,,,,,,,s_033,2,2020_Dec_29_1458,Reversal,3.2.4,60.0665176506876,
12,exp1.png,exp2.png,,,,,,,,,,,,,,,,,0,0,0,0,0,12,12,12,,,,,,,,,False,11,72,False,exp1.png,exp2.png,trial_left_image,1,exp1.png,2,exp1.png,exp2.png,1,1,non-reversed,correct,0.8707831306296832,1,valid_win,389.78167569998186,39,,,,,,,,,,,s_033,2,2020_Dec_29_1458,Reversal,3.2.4,60.0665176506876,
13,exp3.png,exp4.png,,,,,,,,,,,,,,,,,0,0,0,0,0,13,13,13,,,,,,,,,False,12,73,True,exp4.png,exp3.png,trial_left_image,1,exp4.png,2,exp4.png,exp3.png,0,4,reversed,correct,0.9907128984439946,1,valid_win,394.69721449993085,40,,,,,,,,,,,s_033,2,2020_Dec_29_1458,Reversal,3.2.4,60.0665176506876,
14,exp1.png,exp2.png,,,,,,,,,,,,,,,,,0,0,0,0,0,14,14,14,,,,,,,,,False,13,74,False,exp1.png,exp2.png,trial_left_image,1,exp1.png,2,exp1.png,exp2.png,1,1,non-reversed,correct,0.8894292244651799,1,valid_win,399.17898730002344,41,,,,,,,,,,,s_033,2,2020_Dec_29_1458,Reversal,3.2.4,60.0665176506876,
15,exp3.png,exp4.png,,,,,,,,,,,,,,,,,0,0,0,0,0,15,15,15,,,,,,,,,False,14,75,True,exp4.png,exp3.png,trial_left_image,1,exp4.png,2,exp4.png,exp3.png,0,4,reversed,correct,0.9396913046682165,1,valid_win,404.210942100035,42,,,,,,,,,,,s_033,2,2020_Dec_29_1458,Reversal,3.2.4,60.0665176506876,
16,exp1.png,exp2.png,,,,,,,,,,,,,,,,,0,0,0,0,0,16,16,16,,,,,,,,,False,15,76,False,exp1.png,exp2.png,trial_left_image,1,exp1.png,2,exp1.png,exp2.png,1,1,non-reversed,correct,0.4374899153483196,1,valid_win,408.8089043999789,43,,,,,,,,,,,s_033,2,2020_Dec_29_1458,Reversal,3.2.4,60.0665176506876,
17,exp3.png,exp4.png,,,,,,,,,,,,,,,,,0,0,0,0,0,17,17,17,,,,,,,,,False,16,77,False,exp3.png,exp4.png,trial_right_image,-1,exp4.png,2,exp4.png,exp3.png,0,4,reversed,correct,0.16822053458613118,0,invalid_lose,414.2403695000103,43,,,,,,,,,,,s_033,2,2020_Dec_29_1458,Reversal,3.2.4,60.0665176506876,
18,exp1.png,exp2.png,,,,,,,,,,,,,,,,,0,0,0,0,0,18,18,18,,,,,,,,,False,17,78,False,exp1.png,exp2.png,trial_left_image,1,exp1.png,2,exp1.png,exp2.png,1,1,non-reversed,correct,0.8952405624901614,1,valid_win,418.3724739999743,44,,,,,,,,,,,s_033,2,2020_Dec_29_1458,Reversal,3.2.4,60.0665176506876,
19,exp3.png,exp4.png,,,,,,,,,,,,,,,,,0,0,0,0,0,19,19,19,,,,,,,,,False,18,79,True,exp4.png,exp3.png,trial_right_image,-1,exp3.png,2,exp4.png,exp3.png,1,3,reversed,incorrect,0.69049811026757,0,valid_lose,423.3209475999465,44,,,,,,,,,,,s_033,2,2020_Dec_29_1458,Reversal,3.2.4,60.0665176506876,
20,exp1.png,exp2.png,,,,,,,,,,,,,,,,,0,0,0,0,0,20,20,20,,,,,,,,,False,19,80,True,exp2.png,exp1.png,trial_right_image,-1,exp1.png,2,exp1.png,exp2.png,1,1,non-reversed,correct,0.011237170895319282,0,invalid_lose,427.7858769999584,44,,,,,,,,,,,s_033,2,2020_Dec_29_1458,Reversal,3.2.4,60.0665176506876,
,,,,,,,,,,,,,,,,,,,0,0,0,0,,,,,0,0,0,0,,,,,,,,,,,,,,,,,,,,,,,,,,53,45,50.0,50.0,,,,,,,s_033,2,2020_Dec_29_1458,Reversal,3.2.4,60.0665176506876,
0,exp1.png,exp2.png,,,,,,,,,,,,,,,,,1,0,1,0,0,0,0,0,,,,,,,,,True,,,,,,,,,,,,,,,,,,,,,,,,,,,,,,,s_033,2,2020_Dec_29_1458,Reversal,3.2.4,60.0665176506876,
1,exp3.png,exp4.png,,,,,,,,,,,,,,,,,1,0,1,0,0,1,1,1,,,,,,,,,False,20,81,False,exp3.png,exp4.png,trial_left_image,1,exp3.png,2,exp4.png,exp3.png,1,3,reversed,incorrect,0.5563923758832813,0,valid_lose,445.6301785999676,44,,,,,,,,,,,s_033,2,2020_Dec_29_1458,Reversal,3.2.4,60.0665176506876,
2,exp1.png,exp2.png,,,,,,,,,,,,,,,,,1,0,1,0,0,2,2,2,,,,,,,,,False,21,82,False,exp1.png,exp2.png,trial_left_image,1,exp1.png,2,exp1.png,exp2.png,1,1,non-reversed,correct,0.5937550249235124,1,valid_win,450.0941307999892,45,,,,,,,,,,,s_033,2,2020_Dec_29_1458,Reversal,3.2.4,60.0665176506876,
3,exp3.png,exp4.png,,,,,,,,,,,,,,,,,1,0,1,0,0,3,3,3,,,,,,,,,False,22,83,True,exp4.png,exp3.png,trial_right_image,-1,exp3.png,2,exp4.png,exp3.png,1,3,reversed,incorrect,0.05757443466183565,1,invalid_win,455.4274484999478,46,,,,,,,,,,,s_033,2,2020_Dec_29_1458,Reversal,3.2.4,60.0665176506876,
4,exp1.png,exp2.png,,,,,,,,,,,,,,,,,1,0,1,0,0,4,4,4,,,,,,,,,False,23,84,True,exp2.png,exp1.png,trial_right_image,-1,exp1.png,2,exp1.png,exp2.png,1,1,non-reversed,correct,0.9814884677682681,1,valid_win,460.32484499993734,47,,,,,,,,,,,s_033,2,2020_Dec_29_1458,Reversal,3.2.4,60.0665176506876,
5,exp3.png,exp4.png,,,,,,,,,,,,,,,,,1,0,1,0,0,5,5,5,,,,,,,,,False,24,85,False,exp3.png,exp4.png,trial_right_image,-1,exp4.png,2,exp4.png,exp3.png,0,4,reversed,correct,0.1331976344435266,0,invalid_lose,465.14028489997145,47,,,,,,,,,,,s_033,2,2020_Dec_29_1458,Reversal,3.2.4,60.0665176506876,
6,exp1.png,exp2.png,,,,,,,,,,,,,,,,,1,0,1,0,0,6,6,6,,,,,,,,,False,25,86,True,exp2.png,exp1.png,trial_right_image,-1,exp1.png,2,exp1.png,exp2.png,1,1,non-reversed,correct,0.8112130992447695,1,valid_win,469.8870483000064,48,,,,,,,,,,,s_033,2,2020_Dec_29_1458,Reversal,3.2.4,60.0665176506876,
7,exp3.png,exp4.png,,,,,,,,,,,,,,,,,1,0,1,0,0,7,7,7,,,,,,,,,False,26,87,True,exp4.png,exp3.png,trial_right_image,-1,exp3.png,2,exp4.png,exp3.png,1,3,reversed,incorrect,0.16905088569308313,1,invalid_win,475.53702459996566,49,,,,,,,,,,,s_033,2,2020_Dec_29_1458,Reversal,3.2.4,60.0665176506876,
8,exp1.png,exp2.png,,,,,,,,,,,,,,,,,1,0,1,0,0,8,8,8,,,,,,,,,False,27,88,False,exp1.png,exp2.png,trial_left_image,1,exp1.png,2,exp1.png,exp2.png,1,1,non-reversed,correct,0.916261011136455,1,valid_win,480.91827549994923,50,,,,,,,,,,,s_033,2,2020_Dec_29_1458,Reversal,3.2.4,60.0665176506876,
9,exp3.png,exp4.png,,,,,,,,,,,,,,,,,1,0,1,0,0,9,9,9,,,,,,,,,False,28,89,True,exp4.png,exp3.png,trial_right_image,-1,exp3.png,2,exp4.png,exp3.png,1,3,reversed,incorrect,0.528723205263736,0,valid_lose,486.53293929994106,50,,,,,,,,,,,s_033,2,2020_Dec_29_1458,Reversal,3.2.4,60.0665176506876,
10,exp1.png,exp2.png,,,,,,,,,,,,,,,,,1,0,1,0,0,10,10,10,,,,,,,,,False,29,90,True,exp2.png,exp1.png,trial_right_image,-1,exp1.png,2,exp1.png,exp2.png,1,1,non-reversed,correct,0.4172984508535241,1,valid_win,490.9980504999403,51,,,,,,,,,,,s_033,2,2020_Dec_29_1458,Reversal,3.2.4,60.0665176506876,
11,exp3.png,exp4.png,,,,,,,,,,,,,,,,,1,0,1,0,0,11,11,11,,,,,,,,,False,30,91,False,exp3.png,exp4.png,trial_left_image,1,exp3.png,2,exp4.png,exp3.png,1,3,reversed,incorrect,0.22719314388484146,1,invalid_win,495.81292369996663,52,,,,,,,,,,,s_033,2,2020_Dec_29_1458,Reversal,3.2.4,60.0665176506876,
12,exp1.png,exp2.png,,,,,,,,,,,,,,,,,1,0,1,0,0,12,12,12,,,,,,,,,False,31,92,False,exp1.png,exp2.png,trial_left_image,1,exp1.png,2,exp1.png,exp2.png,1,1,non-reversed,correct,0.6880279108128031,1,valid_win,502.79415949992836,53,,,,,,,,,,,s_033,2,2020_Dec_29_1458,Reversal,3.2.4,60.0665176506876,
13,exp3.png,exp4.png,,,,,,,,,,,,,,,,,1,0,1,0,0,13,13,13,,,,,,,,,False,32,93,True,exp4.png,exp3.png,trial_right_image,-1,exp3.png,2,exp4.png,exp3.png,1,3,reversed,incorrect,0.9785062024669359,0,valid_lose,507.97592919995077,53,,,,,,,,,,,s_033,2,2020_Dec_29_1458,Reversal,3.2.4,60.0665176506876,
14,exp1.png,exp2.png,,,,,,,,,,,,,,,,,1,0,1,0,0,14,14,14,,,,,,,,,False,33,94,True,exp2.png,exp1.png,trial_right_image,-1,exp1.png,2,exp1.png,exp2.png,1,1,non-reversed,correct,0.9724742976937887,1,valid_win,512.7073360999348,54,,,,,,,,,,,s_033,2,2020_Dec_29_1458,Reversal,3.2.4,60.0665176506876,
15,exp3.png,exp4.png,,,,,,,,,,,,,,,,,1,0,1,0,0,15,15,15,,,,,,,,,False,34,95,True,exp4.png,exp3.png,trial_right_image,-1,exp3.png,2,exp4.png,exp3.png,1,3,reversed,incorrect,0.14615095055476945,1,invalid_win,519.2717719000066,55,,,,,,,,,,,s_033,2,2020_Dec_29_1458,Reversal,3.2.4,60.0665176506876,
16,exp1.png,exp2.png,,,,,,,,,,,,,,,,,1,0,1,0,0,16,16,16,,,,,,,,,False,35,96,True,exp2.png,exp1.png,trial_right_image,-1,exp1.png,2,exp1.png,exp2.png,1,1,non-reversed,correct,0.8561495125652402,1,valid_win,524.0190572999418,56,,,,,,,,,,,s_033,2,2020_Dec_29_1458,Reversal,3.2.4,60.0665176506876,
17,exp3.png,exp4.png,,,,,,,,,,,,,,,,,1,0,1,0,0,17,17,17,,,,,,,,,False,36,97,False,exp3.png,exp4.png,trial_left_image,1,exp3.png,2,exp4.png,exp3.png,1,3,reversed,incorrect,0.10410775095007252,1,invalid_win,531.9507149000419,57,,,,,,,,,,,s_033,2,2020_Dec_29_1458,Reversal,3.2.4,60.0665176506876,
18,exp1.png,exp2.png,,,,,,,,,,,,,,,,,1,0,1,0,0,18,18,18,,,,,,,,,False,37,98,False,exp1.png,exp2.png,trial_left_image,1,exp1.png,2,exp1.png,exp2.png,1,1,non-reversed,correct,0.025297297971987875,0,invalid_lose,537.2659069999354,57,,,,,,,,,,,s_033,2,2020_Dec_29_1458,Reversal,3.2.4,60.0665176506876,
19,exp3.png,exp4.png,,,,,,,,,,,,,,,,,1,0,1,0,0,19,19,19,,,,,,,,,False,38,99,False,exp3.png,exp4.png,trial_left_image,1,exp3.png,2,exp4.png,exp3.png,1,3,reversed,incorrect,0.17427000278020377,1,invalid_win,541.8644296999555,58,,,,,,,,,,,s_033,2,2020_Dec_29_1458,Reversal,3.2.4,60.0665176506876,
20,exp1.png,exp2.png,,,,,,,,,,,,,,,,,1,0,1,0,0,20,20,20,,,,,,,,,False,39,100,False,exp1.png,exp2.png,trial_right_image,-1,exp2.png,2,exp1.png,exp2.png,0,2,non-reversed,incorrect,0.3677830750764559,0,valid_lose,547.278993499931,58,,,,,,,,,,,s_033,2,2020_Dec_29_1458,Reversal,3.2.4,60.0665176506876,
,,,,,,,,,,,,,,,,,,,1,0,1,0,,,,,0,0,0,0,,,,,,,,,,,,,,,,,,,,,,,,,,50.0,50.0,50.0,50.0,,,,,,,s_033,2,2020_Dec_29_1458,Reversal,3.2.4,60.0665176506876,
0,exp1.png,exp2.png,,,,,,,,,,,,,,,,,2,0,2,0,0,0,0,0,,,,,,,,,True,,,,,,,,,,,,,,,,,,,,,,,,,,,,,,,s_033,2,2020_Dec_29_1458,Reversal,3.2.4,60.0665176506876,
1,exp3.png,exp4.png,,,,,,,,,,,,,,,,,2,0,2,0,0,1,1,1,,,,,,,,,False,40,101,False,exp3.png,exp4.png,trial_left_image,1,exp3.png,2,exp4.png,exp3.png,1,3,reversed,incorrect,0.10772082307100905,1,invalid_win,558.4254231000086,59,,,,,,,,,,,s_033,2,2020_Dec_29_1458,Reversal,3.2.4,60.0665176506876,
2,exp1.png,exp2.png,,,,,,,,,,,,,,,,,2,0,2,0,0,2,2,2,,,,,,,,,False,41,102,False,exp1.png,exp2.png,trial_left_image,1,exp1.png,2,exp1.png,exp2.png,1,1,non-reversed,correct,0.9877092125269802,1,valid_win,563.3735500000184,60,,,,,,,,,,,s_033,2,2020_Dec_29_1458,Reversal,3.2.4,60.0665176506876,
3,exp3.png,exp4.png,,,,,,,,,,,,,,,,,2,0,2,0,0,3,3,3,,,,,,,,,False,42,103,True,exp4.png,exp3.png,trial_right_image,-1,exp3.png,2,exp4.png,exp3.png,1,3,reversed,incorrect,0.9673298440275443,0,valid_lose,568.0386673000176,60,,,,,,,,,,,s_033,2,2020_Dec_29_1458,Reversal,3.2.4,60.0665176506876,
4,exp1.png,exp2.png,,,,,,,,,,,,,,,,,2,0,2,0,0,4,4,4,,,,,,,,,False,43,104,True,exp2.png,exp1.png,trial_right_image,-1,exp1.png,2,exp1.png,exp2.png,1,1,non-reversed,correct,0.249027769884818,0,invalid_lose,572.1873629000038,60,,,,,,,,,,,s_033,2,2020_Dec_29_1458,Reversal,3.2.4,60.0665176506876,
5,exp3.png,exp4.png,,,,,,,,,,,,,,,,,2,0,2,0,0,5,5,5,,,,,,,,,False,44,105,False,exp3.png,exp4.png,trial_left_image,1,exp3.png,2,exp4.png,exp3.png,1,3,reversed,incorrect,0.8312294046362148,0,valid_lose,577.0193844999885,60,,,,,,,,,,,s_033,2,2020_Dec_29_1458,Reversal,3.2.4,60.0665176506876,
6,exp1.png,exp2.png,,,,,,,,,,,,,,,,,2,0,2,0,0,6,6,6,,,,,,,,,False,45,106,False,exp1.png,exp2.png,trial_left_image,1,exp1.png,2,exp1.png,exp2.png,1,1,non-reversed,correct,0.5486979366058607,1,valid_win,581.4176229999866,61,,,,,,,,,,,s_033,2,2020_Dec_29_1458,Reversal,3.2.4,60.0665176506876,
7,exp3.png,exp4.png,,,,,,,,,,,,,,,,,2,0,2,0,0,7,7,7,,,,,,,,,False,46,107,True,exp4.png,exp3.png,trial_left_image,1,exp4.png,2,exp4.png,exp3.png,0,4,reversed,correct,0.6725818534787604,1,valid_win,585.5995805000421,62,,,,,,,,,,,s_033,2,2020_Dec_29_1458,Reversal,3.2.4,60.0665176506876,
8,exp1.png,exp2.png,,,,,,,,,,,,,,,,,2,0,2,0,0,8,8,8,,,,,,,,,False,47,108,False,exp1.png,exp2.png,trial_left_image,1,exp1.png,2,exp1.png,exp2.png,1,1,non-reversed,correct,0.1435955079694411,0,invalid_lose,589.8648087999318,62,,,,,,,,,,,s_033,2,2020_Dec_29_1458,Reversal,3.2.4,60.0665176506876,
9,exp3.png,exp4.png,,,,,,,,,,,,,,,,,2,0,2,0,0,9,9,9,,,,,,,,,False,48,109,True,exp4.png,exp3.png,trial_left_image,1,exp4.png,2,exp4.png,exp3.png,0,4,reversed,correct,0.07669578998204452,0,invalid_lose,594.0298154000193,62,,,,,,,,,,,s_033,2,2020_Dec_29_1458,Reversal,3.2.4,60.0665176506876,
10,exp1.png,exp2.png,,,,,,,,,,,,,,,,,2,0,2,0,0,10,10,10,,,,,,,,,False,49,110,False,exp1.png,exp2.png,trial_left_image,1,exp1.png,2,exp1.png,exp2.png,1,1,non-reversed,correct,0.12526326675742905,0,invalid_lose,598.1953188999323,62,,,,,,,,,,,s_033,2,2020_Dec_29_1458,Reversal,3.2.4,60.0665176506876,
11,exp3.png,exp4.png,,,,,,,,,,,,,,,,,2,0,2,0,0,11,11,11,,,,,,,,,False,50,111,True,exp4.png,exp3.png,trial_right_image,-1,exp3.png,2,exp4.png,exp3.png,1,3,reversed,incorrect,0.5317853475636423,0,valid_lose,602.8103189000394,62,,,,,,,,,,,s_033,2,2020_Dec_29_1458,Reversal,3.2.4,60.0665176506876,
12,exp1.png,exp2.png,,,,,,,,,,,,,,,,,2,0,2,0,0,12,12,12,,,,,,,,,False,51,112,True,exp2.png,exp1.png,trial_left_image,1,exp2.png,2,exp1.png,exp2.png,0,2,non-reversed,incorrect,0.4976454756145202,0,valid_lose,607.0420900000026,62,,,,,,,,,,,s_033,2,2020_Dec_29_1458,Reversal,3.2.4,60.0665176506876,
13,exp3.png,exp4.png,,,,,,,,,,,,,,,,,2,0,2,0,0,13,13,13,,,,,,,,,False,52,113,True,exp4.png,exp3.png,trial_right_image,-1,exp3.png,2,exp4.png,exp3.png,1,3,reversed,incorrect,0.6507695546043742,0,valid_lose,611.8407798999688,62,,,,,,,,,,,s_033,2,2020_Dec_29_1458,Reversal,3.2.4,60.0665176506876,
14,exp1.png,exp2.png,,,,,,,,,,,,,,,,,2,0,2,0,0,14,14,14,,,,,,,,,False,53,114,True,exp2.png,exp1.png,trial_right_image,-1,exp1.png,2,exp1.png,exp2.png,1,1,non-reversed,correct,0.16165628515269903,0,invalid_lose,616.4889336000197,62,,,,,,,,,,,s_033,2,2020_Dec_29_1458,Reversal,3.2.4,60.0665176506876,
15,exp3.png,exp4.png,,,,,,,,,,,,,,,,,2,0,2,0,0,15,15,15,,,,,,,,,False,54,115,False,exp3.png,exp4.png,trial_left_image,1,exp3.png,2,exp4.png,exp3.png,1,3,reversed,incorrect,0.869896199111995,0,valid_lose,621.1541809999617,62,,,,,,,,,,,s_033,2,2020_Dec_29_1458,Reversal,3.2.4,60.0665176506876,
16,exp1.png,exp2.png,,,,,,,,,,,,,,,,,2,0,2,0,0,16,16,16,,,,,,,,,False,55,116,False,exp1.png,exp2.png,trial_left_image,1,exp1.png,2,exp1.png,exp2.png,1,1,non-reversed,correct,0.6743672843527796,1,valid_win,626.4523054999299,63,,,,,,,,,,,s_033,2,2020_Dec_29_1458,Reversal,3.2.4,60.0665176506876,
17,exp3.png,exp4.png,,,,,,,,,,,,,,,,,2,0,2,0,0,17,17,17,,,,,,,,,False,56,117,True,exp4.png,exp3.png,trial_right_image,-1,exp3.png,2,exp4.png,exp3.png,1,3,reversed,incorrect,0.1886065243837426,1,invalid_win,631.2345132000046,64,,,,,,,,,,,s_033,2,2020_Dec_29_1458,Reversal,3.2.4,60.0665176506876,
18,exp1.png,exp2.png,,,,,,,,,,,,,,,,,2,0,2,0,0,18,18,18,,,,,,,,,False,57,118,True,exp2.png,exp1.png,trial_right_image,-1,exp1.png,2,exp1.png,exp2.png,1,1,non-reversed,correct,0.25671589616006485,1,valid_win,636.3662279000273,65,,,,,,,,,,,s_033,2,2020_Dec_29_1458,Reversal,3.2.4,60.0665176506876,
19,exp3.png,exp4.png,,,,,,,,,,,,,,,,,2,0,2,0,0,19,19,19,,,,,,,,,False,58,119,False,exp3.png,exp4.png,trial_left_image,1,exp3.png,2,exp4.png,exp3.png,1,3,reversed,incorrect,0.6428602237301347,0,valid_lose,642.1641224999912,65,,,,,,,,,,,s_033,2,2020_Dec_29_1458,Reversal,3.2.4,60.0665176506876,
20,exp1.png,exp2.png,,,,,,,,,,,,,,,,,2,0,2,0,0,20,20,20,,,,,,,,,False,59,120,False,exp1.png,exp2.png,trial_left_image,1,exp1.png,2,exp1.png,exp2.png,1,1,non-reversed,correct,0.047404696469274255,0,invalid_lose,646.5959719000384,65,,,,,,,,,,,s_033,2,2020_Dec_29_1458,Reversal,3.2.4,60.0665176506876,
,,,,,,,,,,,,,,,,,,,2,0,2,0,,,,,0,0,0,0,,,,,,,,,,,,,,,,,,,,,,,,,,50.0,50.0,50.0,50.0,,,,,,,s_033,2,2020_Dec_29_1458,Reversal,3.2.4,60.0665176506876,
,,,,,,,,,,,,,,,,,,,,,,,,,,,,,,,,,,,,,,,,,,,,,,,,,,,,,,,65,,,,,,73,39,34,321.7056228000438,0,,,,,,,
