trial_index,trial_image1_file,trial_image2_file,learning_outer_loop.thisRepN,learning_outer_loop.thisTrialN,learning_outer_loop.thisN,learning_outer_loop.thisIndex,learning_inner_loop.thisRepN,learning_inner_loop.thisTrialN,learning_inner_loop.thisN,learning_inner_loop.thisIndex,learning_estimation_outer_loop.thisRepN,learning_estimation_outer_loop.thisTrialN,learning_estimation_outer_loop.thisN,learning_estimation_outer_loop.thisIndex,learning_estimation_inner_loop.thisRepN,learning_estimation_inner_loop.thisTrialN,learning_estimation_inner_loop.thisN,learning_estimation_inner_loop.thisIndex,reversal_outer_loop.thisRepN,reversal_outer_loop.thisTrialN,reversal_outer_loop.thisN,reversal_outer_loop.thisIndex,reversal_inner_loop.thisRepN,reversal_inner_loop.thisTrialN,reversal_inner_loop.thisN,reversal_inner_loop.thisIndex,reversal_estimation_outer_loop.thisRepN,reversal_estimation_outer_loop.thisTrialN,reversal_estimation_outer_loop.thisN,reversal_estimation_outer_loop.thisIndex,reversal_estimation_inner_loop.thisRepN,reversal_estimation_inner_loop.thisTrialN,reversal_estimation_inner_loop.thisN,reversal_estimation_inner_loop.thisIndex,skipped,total_trial_counter,trial_num,left_right_flip,left_image_file,right_image_file,clicked_stimulus_side,side,clicked_stimulus,version,high_prob_image_file,low_prob_image_file,choice_a,choice_b,pair_type,correct,trial_feedback_random,reward,trial_type,overall_time_after_trial,score,estimation_exp1.png,estimation_exp2.png,estimation_exp3.png,estimation_exp4.png,total_learning_time,total_correct,learning_correct,reversal_correct,total_reversal_time,extra_block,participant,ver,date,expName,psychopyVersion,frameRate,
0,exp1.png,exp2.png,0,0,0,0,0,0,0,0,,,,,,,,,,,,,,,,,,,,,,,,,True,,,,,,,,,,,,,,,,,,,,,,,,,,,,,,,s_030,1,2020_Dec_22_0947,Reversal,3.2.4,59.91202518887273,
1,exp3.png,exp4.png,0,0,0,0,0,1,1,1,,,,,,,,,,,,,,,,,,,,,,,,,False,0,1,False,exp3.png,exp4.png,trial_left_image,1,exp3.png,1,exp3.png,exp4.png,1,1,non-reversed,correct,0.8830013054949193,1,valid_win,24.221832599985646,1,,,,,,,,,,,s_030,1,2020_Dec_22_0947,Reversal,3.2.4,59.91202518887273,
2,exp1.png,exp2.png,0,0,0,0,0,2,2,2,,,,,,,,,,,,,,,,,,,,,,,,,False,1,2,False,exp1.png,exp2.png,trial_left_image,1,exp1.png,1,exp1.png,exp2.png,1,3,reversed,correct,0.7198223585419649,1,valid_win,30.602891399990767,2,,,,,,,,,,,s_030,1,2020_Dec_22_0947,Reversal,3.2.4,59.91202518887273,
3,exp3.png,exp4.png,0,0,0,0,0,3,3,3,,,,,,,,,,,,,,,,,,,,,,,,,False,2,3,True,exp4.png,exp3.png,trial_right_image,-1,exp3.png,1,exp3.png,exp4.png,1,1,non-reversed,correct,0.41264900411580796,1,valid_win,35.750851299992064,3,,,,,,,,,,,s_030,1,2020_Dec_22_0947,Reversal,3.2.4,59.91202518887273,
4,exp1.png,exp2.png,0,0,0,0,0,4,4,4,,,,,,,,,,,,,,,,,,,,,,,,,False,3,4,True,exp2.png,exp1.png,trial_right_image,-1,exp1.png,1,exp1.png,exp2.png,1,3,reversed,correct,0.5756957990561298,1,valid_win,40.91595779999625,4,,,,,,,,,,,s_030,1,2020_Dec_22_0947,Reversal,3.2.4,59.91202518887273,
5,exp3.png,exp4.png,0,0,0,0,0,5,5,5,,,,,,,,,,,,,,,,,,,,,,,,,False,4,5,True,exp4.png,exp3.png,trial_right_image,-1,exp3.png,1,exp3.png,exp4.png,1,1,non-reversed,correct,0.38717726510556383,1,valid_win,45.34804689997691,5,,,,,,,,,,,s_030,1,2020_Dec_22_0947,Reversal,3.2.4,59.91202518887273,
6,exp1.png,exp2.png,0,0,0,0,0,6,6,6,,,,,,,,,,,,,,,,,,,,,,,,,False,5,6,False,exp1.png,exp2.png,trial_left_image,1,exp1.png,1,exp1.png,exp2.png,1,3,reversed,correct,0.7190399249400948,1,valid_win,50.49593269999605,6,,,,,,,,,,,s_030,1,2020_Dec_22_0947,Reversal,3.2.4,59.91202518887273,
7,exp3.png,exp4.png,0,0,0,0,0,7,7,7,,,,,,,,,,,,,,,,,,,,,,,,,False,6,7,True,exp4.png,exp3.png,trial_right_image,-1,exp3.png,1,exp3.png,exp4.png,1,1,non-reversed,correct,0.549481449755037,1,valid_win,55.011361299984856,7,,,,,,,,,,,s_030,1,2020_Dec_22_0947,Reversal,3.2.4,59.91202518887273,
8,exp1.png,exp2.png,0,0,0,0,0,8,8,8,,,,,,,,,,,,,,,,,,,,,,,,,False,7,8,True,exp2.png,exp1.png,trial_right_image,-1,exp1.png,1,exp1.png,exp2.png,1,3,reversed,correct,0.8884550849176275,1,valid_win,59.35970199998701,8,,,,,,,,,,,s_030,1,2020_Dec_22_0947,Reversal,3.2.4,59.91202518887273,
9,exp3.png,exp4.png,0,0,0,0,0,9,9,9,,,,,,,,,,,,,,,,,,,,,,,,,False,8,9,True,exp4.png,exp3.png,trial_right_image,-1,exp3.png,1,exp3.png,exp4.png,1,1,non-reversed,correct,0.15982310896631013,0,invalid_lose,64.19177449998097,8,,,,,,,,,,,s_030,1,2020_Dec_22_0947,Reversal,3.2.4,59.91202518887273,
10,exp1.png,exp2.png,0,0,0,0,0,10,10,10,,,,,,,,,,,,,,,,,,,,,,,,,False,9,10,False,exp1.png,exp2.png,trial_left_image,1,exp1.png,1,exp1.png,exp2.png,1,3,reversed,correct,0.3617159719145766,1,valid_win,69.50513859998318,9,,,,,,,,,,,s_030,1,2020_Dec_22_0947,Reversal,3.2.4,59.91202518887273,
11,exp3.png,exp4.png,0,0,0,0,0,11,11,11,,,,,,,,,,,,,,,,,,,,,,,,,False,10,11,False,exp3.png,exp4.png,trial_left_image,1,exp3.png,1,exp3.png,exp4.png,1,1,non-reversed,correct,0.4950109040354529,1,valid_win,74.62173359998269,10,,,,,,,,,,,s_030,1,2020_Dec_22_0947,Reversal,3.2.4,59.91202518887273,
12,exp1.png,exp2.png,0,0,0,0,0,12,12,12,,,,,,,,,,,,,,,,,,,,,,,,,False,11,12,True,exp2.png,exp1.png,trial_right_image,-1,exp1.png,1,exp1.png,exp2.png,1,3,reversed,correct,0.6197271233167402,1,valid_win,79.18629969999893,11,,,,,,,,,,,s_030,1,2020_Dec_22_0947,Reversal,3.2.4,59.91202518887273,
13,exp3.png,exp4.png,0,0,0,0,0,13,13,13,,,,,,,,,,,,,,,,,,,,,,,,,False,12,13,False,exp3.png,exp4.png,trial_left_image,1,exp3.png,1,exp3.png,exp4.png,1,1,non-reversed,correct,0.4229128316895465,1,valid_win,83.96850960000302,12,,,,,,,,,,,s_030,1,2020_Dec_22_0947,Reversal,3.2.4,59.91202518887273,
14,exp1.png,exp2.png,0,0,0,0,0,14,14,14,,,,,,,,,,,,,,,,,,,,,,,,,False,13,14,False,exp1.png,exp2.png,trial_left_image,1,exp1.png,1,exp1.png,exp2.png,1,3,reversed,correct,0.5121292832378035,1,valid_win,88.41695069998968,13,,,,,,,,,,,s_030,1,2020_Dec_22_0947,Reversal,3.2.4,59.91202518887273,
15,exp3.png,exp4.png,0,0,0,0,0,15,15,15,,,,,,,,,,,,,,,,,,,,,,,,,False,14,15,False,exp3.png,exp4.png,trial_left_image,1,exp3.png,1,exp3.png,exp4.png,1,1,non-reversed,correct,0.5402388108096262,1,valid_win,93.43174479997833,14,,,,,,,,,,,s_030,1,2020_Dec_22_0947,Reversal,3.2.4,59.91202518887273,
16,exp1.png,exp2.png,0,0,0,0,0,16,16,16,,,,,,,,,,,,,,,,,,,,,,,,,False,15,16,True,exp2.png,exp1.png,trial_right_image,-1,exp1.png,1,exp1.png,exp2.png,1,3,reversed,correct,0.24783771527257836,0,invalid_lose,98.17993749998277,14,,,,,,,,,,,s_030,1,2020_Dec_22_0947,Reversal,3.2.4,59.91202518887273,
17,exp3.png,exp4.png,0,0,0,0,0,17,17,17,,,,,,,,,,,,,,,,,,,,,,,,,False,16,17,False,exp3.png,exp4.png,trial_left_image,1,exp3.png,1,exp3.png,exp4.png,1,1,non-reversed,correct,0.43782035245055095,1,valid_win,102.77854780000052,15,,,,,,,,,,,s_030,1,2020_Dec_22_0947,Reversal,3.2.4,59.91202518887273,
18,exp1.png,exp2.png,0,0,0,0,0,18,18,18,,,,,,,,,,,,,,,,,,,,,,,,,False,17,18,True,exp2.png,exp1.png,trial_right_image,-1,exp1.png,1,exp1.png,exp2.png,1,3,reversed,correct,0.04398091424333572,0,invalid_lose,107.51047909999033,15,,,,,,,,,,,s_030,1,2020_Dec_22_0947,Reversal,3.2.4,59.91202518887273,
19,exp3.png,exp4.png,0,0,0,0,0,19,19,19,,,,,,,,,,,,,,,,,,,,,,,,,False,18,19,False,exp3.png,exp4.png,trial_left_image,1,exp3.png,1,exp3.png,exp4.png,1,1,non-reversed,correct,0.3870378322335932,1,valid_win,112.091935799981,16,,,,,,,,,,,s_030,1,2020_Dec_22_0947,Reversal,3.2.4,59.91202518887273,
20,exp1.png,exp2.png,0,0,0,0,0,20,20,20,,,,,,,,,,,,,,,,,,,,,,,,,False,19,20,True,exp2.png,exp1.png,trial_left_image,1,exp2.png,1,exp1.png,exp2.png,0,4,reversed,incorrect,0.8571016826236951,0,valid_lose,116.77391589997569,16,,,,,,,,,,,s_030,1,2020_Dec_22_0947,Reversal,3.2.4,59.91202518887273,
,,,0,0,0,0,,,,,0,0,0,0,,,,,,,,,,,,,,,,,,,,,,,,,,,,,,,,,,,,,,,,,,79,20,92,8,,,,,,,s_030,1,2020_Dec_22_0947,Reversal,3.2.4,59.91202518887273,
0,exp1.png,exp2.png,1,0,1,0,0,0,0,0,,,,,,,,,,,,,,,,,,,,,,,,,True,,,,,,,,,,,,,,,,,,,,,,,,,,,,,,,s_030,1,2020_Dec_22_0947,Reversal,3.2.4,59.91202518887273,
1,exp3.png,exp4.png,1,0,1,0,0,1,1,1,,,,,,,,,,,,,,,,,,,,,,,,,False,20,21,True,exp4.png,exp3.png,trial_right_image,-1,exp3.png,1,exp3.png,exp4.png,1,1,non-reversed,correct,0.01790376368928137,0,invalid_lose,149.96123469999293,16,,,,,,,,,,,s_030,1,2020_Dec_22_0947,Reversal,3.2.4,59.91202518887273,
2,exp1.png,exp2.png,1,0,1,0,0,2,2,2,,,,,,,,,,,,,,,,,,,,,,,,,False,21,22,True,exp2.png,exp1.png,trial_right_image,-1,exp1.png,1,exp1.png,exp2.png,1,3,reversed,correct,0.022932283269622267,0,invalid_lose,154.26147249998758,16,,,,,,,,,,,s_030,1,2020_Dec_22_0947,Reversal,3.2.4,59.91202518887273,
3,exp3.png,exp4.png,1,0,1,0,0,3,3,3,,,,,,,,,,,,,,,,,,,,,,,,,False,22,23,False,exp3.png,exp4.png,trial_right_image,-1,exp4.png,1,exp3.png,exp4.png,0,2,non-reversed,incorrect,0.5147121702462989,0,valid_lose,158.54297929999302,16,,,,,,,,,,,s_030,1,2020_Dec_22_0947,Reversal,3.2.4,59.91202518887273,
4,exp1.png,exp2.png,1,0,1,0,0,4,4,4,,,,,,,,,,,,,,,,,,,,,,,,,False,23,24,True,exp2.png,exp1.png,trial_right_image,-1,exp1.png,1,exp1.png,exp2.png,1,3,reversed,correct,0.007207849693804169,0,invalid_lose,163.14005329998326,16,,,,,,,,,,,s_030,1,2020_Dec_22_0947,Reversal,3.2.4,59.91202518887273,
5,exp3.png,exp4.png,1,0,1,0,0,5,5,5,,,,,,,,,,,,,,,,,,,,,,,,,False,24,25,False,exp3.png,exp4.png,trial_left_image,1,exp3.png,1,exp3.png,exp4.png,1,1,non-reversed,correct,0.7249727813110108,1,valid_win,168.6229950999841,17,,,,,,,,,,,s_030,1,2020_Dec_22_0947,Reversal,3.2.4,59.91202518887273,
6,exp1.png,exp2.png,1,0,1,0,0,6,6,6,,,,,,,,,,,,,,,,,,,,,,,,,False,25,26,True,exp2.png,exp1.png,trial_right_image,-1,exp1.png,1,exp1.png,exp2.png,1,3,reversed,correct,0.9488756645265404,1,valid_win,174.57087879997562,18,,,,,,,,,,,s_030,1,2020_Dec_22_0947,Reversal,3.2.4,59.91202518887273,
7,exp3.png,exp4.png,1,0,1,0,0,7,7,7,,,,,,,,,,,,,,,,,,,,,,,,,False,26,27,True,exp4.png,exp3.png,trial_right_image,-1,exp3.png,1,exp3.png,exp4.png,1,1,non-reversed,correct,0.7813714911126447,1,valid_win,179.23583229997894,19,,,,,,,,,,,s_030,1,2020_Dec_22_0947,Reversal,3.2.4,59.91202518887273,
8,exp1.png,exp2.png,1,0,1,0,0,8,8,8,,,,,,,,,,,,,,,,,,,,,,,,,False,27,28,False,exp1.png,exp2.png,trial_left_image,1,exp1.png,1,exp1.png,exp2.png,1,3,reversed,correct,0.8700291557180301,1,valid_win,183.58477950000088,20,,,,,,,,,,,s_030,1,2020_Dec_22_0947,Reversal,3.2.4,59.91202518887273,
9,exp3.png,exp4.png,1,0,1,0,0,9,9,9,,,,,,,,,,,,,,,,,,,,,,,,,False,28,29,False,exp3.png,exp4.png,trial_left_image,1,exp3.png,1,exp3.png,exp4.png,1,1,non-reversed,correct,0.5268915461226078,1,valid_win,187.81646789997467,21,,,,,,,,,,,s_030,1,2020_Dec_22_0947,Reversal,3.2.4,59.91202518887273,
10,exp1.png,exp2.png,1,0,1,0,0,10,10,10,,,,,,,,,,,,,,,,,,,,,,,,,False,29,30,False,exp1.png,exp2.png,trial_left_image,1,exp1.png,1,exp1.png,exp2.png,1,3,reversed,correct,0.03946762691005479,0,invalid_lose,192.06493549997685,21,,,,,,,,,,,s_030,1,2020_Dec_22_0947,Reversal,3.2.4,59.91202518887273,
11,exp3.png,exp4.png,1,0,1,0,0,11,11,11,,,,,,,,,,,,,,,,,,,,,,,,,False,30,31,False,exp3.png,exp4.png,trial_left_image,1,exp3.png,1,exp3.png,exp4.png,1,1,non-reversed,correct,0.260330645171697,1,valid_win,196.43014579999726,22,,,,,,,,,,,s_030,1,2020_Dec_22_0947,Reversal,3.2.4,59.91202518887273,
12,exp1.png,exp2.png,1,0,1,0,0,12,12,12,,,,,,,,,,,,,,,,,,,,,,,,,False,31,32,False,exp1.png,exp2.png,trial_left_image,1,exp1.png,1,exp1.png,exp2.png,1,3,reversed,correct,0.796569656201955,1,valid_win,200.59584649998578,23,,,,,,,,,,,s_030,1,2020_Dec_22_0947,Reversal,3.2.4,59.91202518887273,
13,exp3.png,exp4.png,1,0,1,0,0,13,13,13,,,,,,,,,,,,,,,,,,,,,,,,,False,32,33,True,exp4.png,exp3.png,trial_right_image,-1,exp3.png,1,exp3.png,exp4.png,1,1,non-reversed,correct,0.036833772112593866,0,invalid_lose,204.94402649998665,23,,,,,,,,,,,s_030,1,2020_Dec_22_0947,Reversal,3.2.4,59.91202518887273,
14,exp1.png,exp2.png,1,0,1,0,0,14,14,14,,,,,,,,,,,,,,,,,,,,,,,,,False,33,34,False,exp1.png,exp2.png,trial_left_image,1,exp1.png,1,exp1.png,exp2.png,1,3,reversed,correct,0.08960610682917358,0,invalid_lose,209.17615709998063,23,,,,,,,,,,,s_030,1,2020_Dec_22_0947,Reversal,3.2.4,59.91202518887273,
15,exp3.png,exp4.png,1,0,1,0,0,15,15,15,,,,,,,,,,,,,,,,,,,,,,,,,False,34,35,False,exp3.png,exp4.png,trial_left_image,1,exp3.png,1,exp3.png,exp4.png,1,1,non-reversed,correct,0.19484172901044838,0,invalid_lose,213.4243297999783,23,,,,,,,,,,,s_030,1,2020_Dec_22_0947,Reversal,3.2.4,59.91202518887273,
16,exp1.png,exp2.png,1,0,1,0,0,16,16,16,,,,,,,,,,,,,,,,,,,,,,,,,False,35,36,True,exp2.png,exp1.png,trial_right_image,-1,exp1.png,1,exp1.png,exp2.png,1,3,reversed,correct,0.4718999232675044,1,valid_win,217.68861209999886,24,,,,,,,,,,,s_030,1,2020_Dec_22_0947,Reversal,3.2.4,59.91202518887273,
17,exp3.png,exp4.png,1,0,1,0,0,17,17,17,,,,,,,,,,,,,,,,,,,,,,,,,False,36,37,True,exp4.png,exp3.png,trial_right_image,-1,exp3.png,1,exp3.png,exp4.png,1,1,non-reversed,correct,0.7622592285161973,1,valid_win,222.1717559999961,25,,,,,,,,,,,s_030,1,2020_Dec_22_0947,Reversal,3.2.4,59.91202518887273,
18,exp1.png,exp2.png,1,0,1,0,0,18,18,18,,,,,,,,,,,,,,,,,,,,,,,,,False,37,38,True,exp2.png,exp1.png,trial_left_image,1,exp2.png,1,exp1.png,exp2.png,0,4,reversed,incorrect,0.22188971103598787,1,invalid_win,227.1197498999827,26,,,,,,,,,,,s_030,1,2020_Dec_22_0947,Reversal,3.2.4,59.91202518887273,
19,exp3.png,exp4.png,1,0,1,0,0,19,19,19,,,,,,,,,,,,,,,,,,,,,,,,,False,38,39,True,exp4.png,exp3.png,trial_left_image,1,exp4.png,1,exp3.png,exp4.png,0,2,non-reversed,incorrect,0.0037498875834799383,1,invalid_win,231.5518480000028,27,,,,,,,,,,,s_030,1,2020_Dec_22_0947,Reversal,3.2.4,59.91202518887273,
20,exp1.png,exp2.png,1,0,1,0,0,20,20,20,,,,,,,,,,,,,,,,,,,,,,,,,False,39,40,False,exp1.png,exp2.png,trial_left_image,1,exp1.png,1,exp1.png,exp2.png,1,3,reversed,correct,0.24179660790015056,0,invalid_lose,235.76699119998375,27,,,,,,,,,,,s_030,1,2020_Dec_22_0947,Reversal,3.2.4,59.91202518887273,
,,,1,0,1,0,,,,,0,0,0,0,,,,,,,,,,,,,,,,,,,,,,,,,,,,,,,,,,,,,,,,,,74,26,75,25,,,,,,,s_030,1,2020_Dec_22_0947,Reversal,3.2.4,59.91202518887273,
0,exp1.png,exp2.png,2,0,2,0,0,0,0,0,,,,,,,,,,,,,,,,,,,,,,,,,True,,,,,,,,,,,,,,,,,,,,,,,,,,,,,,,s_030,1,2020_Dec_22_0947,Reversal,3.2.4,59.91202518887273,
1,exp3.png,exp4.png,2,0,2,0,0,1,1,1,,,,,,,,,,,,,,,,,,,,,,,,,False,40,41,True,exp4.png,exp3.png,trial_right_image,-1,exp3.png,1,exp3.png,exp4.png,1,1,non-reversed,correct,0.77793531957569,1,valid_win,264.44043749998673,28,,,,,,,,,,,s_030,1,2020_Dec_22_0947,Reversal,3.2.4,59.91202518887273,
2,exp1.png,exp2.png,2,0,2,0,0,2,2,2,,,,,,,,,,,,,,,,,,,,,,,,,False,41,42,False,exp1.png,exp2.png,trial_left_image,1,exp1.png,1,exp1.png,exp2.png,1,3,reversed,correct,0.6239630181185424,1,valid_win,268.6223293999792,29,,,,,,,,,,,s_030,1,2020_Dec_22_0947,Reversal,3.2.4,59.91202518887273,
3,exp3.png,exp4.png,2,0,2,0,0,3,3,3,,,,,,,,,,,,,,,,,,,,,,,,,False,42,43,False,exp3.png,exp4.png,trial_left_image,1,exp3.png,1,exp3.png,exp4.png,1,1,non-reversed,correct,0.9684833699312555,1,valid_win,272.70437549997587,30,,,,,,,,,,,s_030,1,2020_Dec_22_0947,Reversal,3.2.4,59.91202518887273,
4,exp1.png,exp2.png,2,0,2,0,0,4,4,4,,,,,,,,,,,,,,,,,,,,,,,,,False,43,44,True,exp2.png,exp1.png,trial_right_image,-1,exp1.png,1,exp1.png,exp2.png,1,3,reversed,correct,0.22222204622397035,0,invalid_lose,276.83515649999026,30,,,,,,,,,,,s_030,1,2020_Dec_22_0947,Reversal,3.2.4,59.91202518887273,
5,exp3.png,exp4.png,2,0,2,0,0,5,5,5,,,,,,,,,,,,,,,,,,,,,,,,,False,44,45,False,exp3.png,exp4.png,trial_left_image,1,exp3.png,1,exp3.png,exp4.png,1,1,non-reversed,correct,0.6290473129168607,1,valid_win,281.2500990999979,31,,,,,,,,,,,s_030,1,2020_Dec_22_0947,Reversal,3.2.4,59.91202518887273,
6,exp1.png,exp2.png,2,0,2,0,0,6,6,6,,,,,,,,,,,,,,,,,,,,,,,,,False,45,46,False,exp1.png,exp2.png,trial_right_image,-1,exp2.png,1,exp1.png,exp2.png,0,4,reversed,incorrect,0.9162590506639711,0,valid_lose,285.68214449999505,31,,,,,,,,,,,s_030,1,2020_Dec_22_0947,Reversal,3.2.4,59.91202518887273,
7,exp3.png,exp4.png,2,0,2,0,0,7,7,7,,,,,,,,,,,,,,,,,,,,,,,,,False,46,47,True,exp4.png,exp3.png,trial_right_image,-1,exp3.png,1,exp3.png,exp4.png,1,1,non-reversed,correct,0.22017615950164582,0,invalid_lose,289.730645899981,31,,,,,,,,,,,s_030,1,2020_Dec_22_0947,Reversal,3.2.4,59.91202518887273,
8,exp1.png,exp2.png,2,0,2,0,0,8,8,8,,,,,,,,,,,,,,,,,,,,,,,,,False,47,48,False,exp1.png,exp2.png,trial_left_image,1,exp1.png,1,exp1.png,exp2.png,1,3,reversed,correct,0.3052861235450669,1,valid_win,293.84634309998364,32,,,,,,,,,,,s_030,1,2020_Dec_22_0947,Reversal,3.2.4,59.91202518887273,
9,exp3.png,exp4.png,2,0,2,0,0,9,9,9,,,,,,,,,,,,,,,,,,,,,,,,,False,48,49,True,exp4.png,exp3.png,trial_right_image,-1,exp3.png,1,exp3.png,exp4.png,1,1,non-reversed,correct,0.6468945110364179,1,valid_win,298.0956125999801,33,,,,,,,,,,,s_030,1,2020_Dec_22_0947,Reversal,3.2.4,59.91202518887273,
10,exp1.png,exp2.png,2,0,2,0,0,10,10,10,,,,,,,,,,,,,,,,,,,,,,,,,False,49,50,True,exp2.png,exp1.png,trial_right_image,-1,exp1.png,1,exp1.png,exp2.png,1,3,reversed,correct,0.12654587828983588,0,invalid_lose,302.2947396999807,33,,,,,,,,,,,s_030,1,2020_Dec_22_0947,Reversal,3.2.4,59.91202518887273,
11,exp3.png,exp4.png,2,0,2,0,0,11,11,11,,,,,,,,,,,,,,,,,,,,,,,,,False,50,51,True,exp4.png,exp3.png,trial_right_image,-1,exp3.png,1,exp3.png,exp4.png,1,1,non-reversed,correct,0.028240089795232626,0,invalid_lose,306.7764855999849,33,,,,,,,,,,,s_030,1,2020_Dec_22_0947,Reversal,3.2.4,59.91202518887273,
12,exp1.png,exp2.png,2,0,2,0,0,12,12,12,,,,,,,,,,,,,,,,,,,,,,,,,False,51,52,False,exp1.png,exp2.png,trial_left_image,1,exp1.png,1,exp1.png,exp2.png,1,3,reversed,correct,0.35113223534924953,1,valid_win,310.97437539999373,34,,,,,,,,,,,s_030,1,2020_Dec_22_0947,Reversal,3.2.4,59.91202518887273,
13,exp3.png,exp4.png,2,0,2,0,0,13,13,13,,,,,,,,,,,,,,,,,,,,,,,,,False,52,53,False,exp3.png,exp4.png,trial_left_image,1,exp3.png,1,exp3.png,exp4.png,1,1,non-reversed,correct,0.5942451274564451,1,valid_win,315.28974179999204,35,,,,,,,,,,,s_030,1,2020_Dec_22_0947,Reversal,3.2.4,59.91202518887273,
14,exp1.png,exp2.png,2,0,2,0,0,14,14,14,,,,,,,,,,,,,,,,,,,,,,,,,False,53,54,False,exp1.png,exp2.png,trial_left_image,1,exp1.png,1,exp1.png,exp2.png,1,3,reversed,correct,0.5634603478463636,1,valid_win,319.48886640000273,36,,,,,,,,,,,s_030,1,2020_Dec_22_0947,Reversal,3.2.4,59.91202518887273,
15,exp3.png,exp4.png,2,0,2,0,0,15,15,15,,,,,,,,,,,,,,,,,,,,,,,,,False,54,55,True,exp4.png,exp3.png,trial_right_image,-1,exp3.png,1,exp3.png,exp4.png,1,1,non-reversed,correct,0.7293711608538517,1,valid_win,323.8046251999913,37,,,,,,,,,,,s_030,1,2020_Dec_22_0947,Reversal,3.2.4,59.91202518887273,
16,exp1.png,exp2.png,2,0,2,0,0,16,16,16,,,,,,,,,,,,,,,,,,,,,,,,,False,55,56,False,exp1.png,exp2.png,trial_right_image,-1,exp2.png,1,exp1.png,exp2.png,0,4,reversed,incorrect,0.41739377982167947,0,valid_lose,328.71867659999407,37,,,,,,,,,,,s_030,1,2020_Dec_22_0947,Reversal,3.2.4,59.91202518887273,
17,exp3.png,exp4.png,2,0,2,0,0,17,17,17,,,,,,,,,,,,,,,,,,,,,,,,,False,56,57,True,exp4.png,exp3.png,trial_right_image,-1,exp3.png,1,exp3.png,exp4.png,1,1,non-reversed,correct,0.927028627586213,1,valid_win,332.81625479998183,38,,,,,,,,,,,s_030,1,2020_Dec_22_0947,Reversal,3.2.4,59.91202518887273,
18,exp1.png,exp2.png,2,0,2,0,0,18,18,18,,,,,,,,,,,,,,,,,,,,,,,,,False,57,58,True,exp2.png,exp1.png,trial_right_image,-1,exp1.png,1,exp1.png,exp2.png,1,3,reversed,correct,0.0257296511807098,0,invalid_lose,336.9827159999986,38,,,,,,,,,,,s_030,1,2020_Dec_22_0947,Reversal,3.2.4,59.91202518887273,
19,exp3.png,exp4.png,2,0,2,0,0,19,19,19,,,,,,,,,,,,,,,,,,,,,,,,,False,58,59,False,exp3.png,exp4.png,trial_left_image,1,exp3.png,1,exp3.png,exp4.png,1,1,non-reversed,correct,0.891470270986892,1,valid_win,341.1978652999969,39,,,,,,,,,,,s_030,1,2020_Dec_22_0947,Reversal,3.2.4,59.91202518887273,
20,exp1.png,exp2.png,2,0,2,0,0,20,20,20,,,,,,,,,,,,,,,,,,,,,,,,,False,59,60,True,exp2.png,exp1.png,trial_right_image,-1,exp1.png,1,exp1.png,exp2.png,1,3,reversed,correct,0.8570365839499247,1,valid_win,345.3302103999886,40,,,,,,,,,,,s_030,1,2020_Dec_22_0947,Reversal,3.2.4,59.91202518887273,
,,,2,0,2,0,,,,,0,0,0,0,,,,,,,,,,,,,,,,,,,,,,,,,,,,,,,,,,,,,,,,,,84,14,86,19,,,,,,,s_030,1,2020_Dec_22_0947,Reversal,3.2.4,59.91202518887273,
0,exp1.png,exp2.png,,,,,,,,,,,,,,,,,0,0,0,0,0,0,0,0,,,,,,,,,True,,,,,,,,,,,,,,,,,,,,,,,,,,,,,,,s_030,1,2020_Dec_22_0947,Reversal,3.2.4,59.91202518887273,
1,exp3.png,exp4.png,,,,,,,,,,,,,,,,,0,0,0,0,0,1,1,1,,,,,,,,,False,0,61,False,exp3.png,exp4.png,trial_left_image,1,exp3.png,1,exp3.png,exp4.png,1,1,non-reversed,correct,0.04204824053240097,0,invalid_lose,372.3544789000007,40,,,,,370.41844409998157,,,,,,s_030,1,2020_Dec_22_0947,Reversal,3.2.4,59.91202518887273,
2,exp1.png,exp2.png,,,,,,,,,,,,,,,,,0,0,0,0,0,2,2,2,,,,,,,,,False,1,62,False,exp1.png,exp2.png,trial_right_image,-1,exp2.png,1,exp2.png,exp1.png,0,4,reversed,correct,0.599967740130309,1,valid_win,376.5680710999877,41,,,,,,,,,,,s_030,1,2020_Dec_22_0947,Reversal,3.2.4,59.91202518887273,
3,exp3.png,exp4.png,,,,,,,,,,,,,,,,,0,0,0,0,0,3,3,3,,,,,,,,,False,2,63,True,exp4.png,exp3.png,trial_right_image,-1,exp3.png,1,exp3.png,exp4.png,1,1,non-reversed,correct,0.867526733801628,1,valid_win,380.8680564999813,42,,,,,,,,,,,s_030,1,2020_Dec_22_0947,Reversal,3.2.4,59.91202518887273,
4,exp1.png,exp2.png,,,,,,,,,,,,,,,,,0,0,0,0,0,4,4,4,,,,,,,,,False,3,64,False,exp1.png,exp2.png,trial_left_image,1,exp1.png,1,exp2.png,exp1.png,1,3,reversed,incorrect,0.6498403522862136,0,valid_lose,385.0333261999767,42,,,,,,,,,,,s_030,1,2020_Dec_22_0947,Reversal,3.2.4,59.91202518887273,
5,exp3.png,exp4.png,,,,,,,,,,,,,,,,,0,0,0,0,0,5,5,5,,,,,,,,,False,4,65,False,exp3.png,exp4.png,trial_left_image,1,exp3.png,1,exp3.png,exp4.png,1,1,non-reversed,correct,0.3082513211841491,1,valid_win,389.13194169997587,43,,,,,,,,,,,s_030,1,2020_Dec_22_0947,Reversal,3.2.4,59.91202518887273,
6,exp1.png,exp2.png,,,,,,,,,,,,,,,,,0,0,0,0,0,6,6,6,,,,,,,,,False,5,66,True,exp2.png,exp1.png,trial_left_image,1,exp2.png,1,exp2.png,exp1.png,0,4,reversed,correct,0.978220345259254,1,valid_win,393.74690450000344,44,,,,,,,,,,,s_030,1,2020_Dec_22_0947,Reversal,3.2.4,59.91202518887273,
7,exp3.png,exp4.png,,,,,,,,,,,,,,,,,0,0,0,0,0,7,7,7,,,,,,,,,False,6,67,True,exp4.png,exp3.png,trial_right_image,-1,exp3.png,1,exp3.png,exp4.png,1,1,non-reversed,correct,0.1925318599603867,0,invalid_lose,398.045389899984,44,,,,,,,,,,,s_030,1,2020_Dec_22_0947,Reversal,3.2.4,59.91202518887273,
8,exp1.png,exp2.png,,,,,,,,,,,,,,,,,0,0,0,0,0,8,8,8,,,,,,,,,False,7,68,True,exp2.png,exp1.png,trial_right_image,-1,exp1.png,1,exp2.png,exp1.png,1,3,reversed,incorrect,0.25431762665909663,0,valid_lose,402.460780399997,44,,,,,,,,,,,s_030,1,2020_Dec_22_0947,Reversal,3.2.4,59.91202518887273,
9,exp3.png,exp4.png,,,,,,,,,,,,,,,,,0,0,0,0,0,9,9,9,,,,,,,,,False,8,69,True,exp4.png,exp3.png,trial_right_image,-1,exp3.png,1,exp3.png,exp4.png,1,1,non-reversed,correct,0.356029978875793,1,valid_win,406.592571199988,45,,,,,,,,,,,s_030,1,2020_Dec_22_0947,Reversal,3.2.4,59.91202518887273,
10,exp1.png,exp2.png,,,,,,,,,,,,,,,,,0,0,0,0,0,10,10,10,,,,,,,,,False,9,70,False,exp1.png,exp2.png,trial_left_image,1,exp1.png,1,exp2.png,exp1.png,1,3,reversed,incorrect,0.3041858952176213,0,valid_lose,410.94124569999985,45,,,,,,,,,,,s_030,1,2020_Dec_22_0947,Reversal,3.2.4,59.91202518887273,
11,exp3.png,exp4.png,,,,,,,,,,,,,,,,,0,0,0,0,0,11,11,11,,,,,,,,,False,10,71,True,exp4.png,exp3.png,trial_right_image,-1,exp3.png,1,exp3.png,exp4.png,1,1,non-reversed,correct,0.865770344318549,1,valid_win,415.1561976999801,46,,,,,,,,,,,s_030,1,2020_Dec_22_0947,Reversal,3.2.4,59.91202518887273,
12,exp1.png,exp2.png,,,,,,,,,,,,,,,,,0,0,0,0,0,12,12,12,,,,,,,,,False,11,72,False,exp1.png,exp2.png,trial_right_image,-1,exp2.png,1,exp2.png,exp1.png,0,4,reversed,correct,0.2527305650530218,1,valid_win,419.58815959998174,47,,,,,,,,,,,s_030,1,2020_Dec_22_0947,Reversal,3.2.4,59.91202518887273,
13,exp3.png,exp4.png,,,,,,,,,,,,,,,,,0,0,0,0,0,13,13,13,,,,,,,,,False,12,73,True,exp4.png,exp3.png,trial_right_image,-1,exp3.png,1,exp3.png,exp4.png,1,1,non-reversed,correct,0.4072710294409465,1,valid_win,423.9521624999761,48,,,,,,,,,,,s_030,1,2020_Dec_22_0947,Reversal,3.2.4,59.91202518887273,
14,exp1.png,exp2.png,,,,,,,,,,,,,,,,,0,0,0,0,0,14,14,14,,,,,,,,,False,13,74,False,exp1.png,exp2.png,trial_right_image,-1,exp2.png,1,exp2.png,exp1.png,0,4,reversed,correct,0.35494458787906713,1,valid_win,428.8349876999855,49,,,,,,,,,,,s_030,1,2020_Dec_22_0947,Reversal,3.2.4,59.91202518887273,
15,exp3.png,exp4.png,,,,,,,,,,,,,,,,,0,0,0,0,0,15,15,15,,,,,,,,,False,14,75,True,exp4.png,exp3.png,trial_right_image,-1,exp3.png,1,exp3.png,exp4.png,1,1,non-reversed,correct,0.2264215802546421,0,invalid_lose,432.9672007999907,49,,,,,,,,,,,s_030,1,2020_Dec_22_0947,Reversal,3.2.4,59.91202518887273,
16,exp1.png,exp2.png,,,,,,,,,,,,,,,,,0,0,0,0,0,16,16,16,,,,,,,,,False,15,76,False,exp1.png,exp2.png,trial_right_image,-1,exp2.png,1,exp2.png,exp1.png,0,4,reversed,correct,0.23376997871646832,0,invalid_lose,437.66575829999056,49,,,,,,,,,,,s_030,1,2020_Dec_22_0947,Reversal,3.2.4,59.91202518887273,
17,exp3.png,exp4.png,,,,,,,,,,,,,,,,,0,0,0,0,0,17,17,17,,,,,,,,,False,16,77,False,exp3.png,exp4.png,trial_left_image,1,exp3.png,1,exp3.png,exp4.png,1,1,non-reversed,correct,0.5223949530900305,1,valid_win,441.84769699999015,50,,,,,,,,,,,s_030,1,2020_Dec_22_0947,Reversal,3.2.4,59.91202518887273,
18,exp1.png,exp2.png,,,,,,,,,,,,,,,,,0,0,0,0,0,18,18,18,,,,,,,,,False,17,78,True,exp2.png,exp1.png,trial_right_image,-1,exp1.png,1,exp2.png,exp1.png,1,3,reversed,incorrect,0.5396337335397721,0,valid_lose,446.3623386999825,50,,,,,,,,,,,s_030,1,2020_Dec_22_0947,Reversal,3.2.4,59.91202518887273,
19,exp3.png,exp4.png,,,,,,,,,,,,,,,,,0,0,0,0,0,19,19,19,,,,,,,,,False,18,79,False,exp3.png,exp4.png,trial_left_image,1,exp3.png,1,exp3.png,exp4.png,1,1,non-reversed,correct,0.691735514235552,1,valid_win,450.97641519998433,51,,,,,,,,,,,s_030,1,2020_Dec_22_0947,Reversal,3.2.4,59.91202518887273,
20,exp1.png,exp2.png,,,,,,,,,,,,,,,,,0,0,0,0,0,20,20,20,,,,,,,,,False,19,80,True,exp2.png,exp1.png,trial_left_image,1,exp2.png,1,exp2.png,exp1.png,0,4,reversed,correct,0.5521931112450037,1,valid_win,455.19382190000033,52,,,,,,,,,,,s_030,1,2020_Dec_22_0947,Reversal,3.2.4,59.91202518887273,
,,,,,,,,,,,,,,,,,,,0,0,0,0,,,,,0,0,0,0,,,,,,,,,,,,,,,,,,,,,,,,,,15,86,90,13,,,,,,,s_030,1,2020_Dec_22_0947,Reversal,3.2.4,59.91202518887273,
0,exp1.png,exp2.png,,,,,,,,,,,,,,,,,1,0,1,0,0,0,0,0,,,,,,,,,True,,,,,,,,,,,,,,,,,,,,,,,,,,,,,,,s_030,1,2020_Dec_22_0947,Reversal,3.2.4,59.91202518887273,
1,exp3.png,exp4.png,,,,,,,,,,,,,,,,,1,0,1,0,0,1,1,1,,,,,,,,,False,20,81,True,exp4.png,exp3.png,trial_right_image,-1,exp3.png,1,exp3.png,exp4.png,1,1,non-reversed,correct,0.8223111347796773,1,valid_win,481.1675606999779,53,,,,,,,,,,,s_030,1,2020_Dec_22_0947,Reversal,3.2.4,59.91202518887273,
2,exp1.png,exp2.png,,,,,,,,,,,,,,,,,1,0,1,0,0,2,2,2,,,,,,,,,False,21,82,False,exp1.png,exp2.png,trial_left_image,1,exp1.png,1,exp2.png,exp1.png,1,3,reversed,incorrect,0.519734128773487,0,valid_lose,485.4660310999898,53,,,,,,,,,,,s_030,1,2020_Dec_22_0947,Reversal,3.2.4,59.91202518887273,
3,exp3.png,exp4.png,,,,,,,,,,,,,,,,,1,0,1,0,0,3,3,3,,,,,,,,,False,22,83,False,exp3.png,exp4.png,trial_left_image,1,exp3.png,1,exp3.png,exp4.png,1,1,non-reversed,correct,0.010682451769431611,0,invalid_lose,490.014165999979,53,,,,,,,,,,,s_030,1,2020_Dec_22_0947,Reversal,3.2.4,59.91202518887273,
4,exp1.png,exp2.png,,,,,,,,,,,,,,,,,1,0,1,0,0,4,4,4,,,,,,,,,False,23,84,True,exp2.png,exp1.png,trial_left_image,1,exp2.png,1,exp2.png,exp1.png,0,4,reversed,correct,0.39020307099645624,1,valid_win,494.44596119999187,54,,,,,,,,,,,s_030,1,2020_Dec_22_0947,Reversal,3.2.4,59.91202518887273,
5,exp3.png,exp4.png,,,,,,,,,,,,,,,,,1,0,1,0,0,5,5,5,,,,,,,,,False,24,85,False,exp3.png,exp4.png,trial_right_image,-1,exp4.png,1,exp3.png,exp4.png,0,2,non-reversed,incorrect,0.006418218859758684,1,invalid_win,498.96072259999346,55,,,,,,,,,,,s_030,1,2020_Dec_22_0947,Reversal,3.2.4,59.91202518887273,
6,exp1.png,exp2.png,,,,,,,,,,,,,,,,,1,0,1,0,0,6,6,6,,,,,,,,,False,25,86,False,exp1.png,exp2.png,trial_right_image,-1,exp2.png,1,exp2.png,exp1.png,0,4,reversed,correct,0.9598212265035225,1,valid_win,503.576314099977,56,,,,,,,,,,,s_030,1,2020_Dec_22_0947,Reversal,3.2.4,59.91202518887273,
7,exp3.png,exp4.png,,,,,,,,,,,,,,,,,1,0,1,0,0,7,7,7,,,,,,,,,False,26,87,True,exp4.png,exp3.png,trial_left_image,1,exp4.png,1,exp3.png,exp4.png,0,2,non-reversed,incorrect,0.7657579606484425,0,valid_lose,508.3414332999964,56,,,,,,,,,,,s_030,1,2020_Dec_22_0947,Reversal,3.2.4,59.91202518887273,
8,exp1.png,exp2.png,,,,,,,,,,,,,,,,,1,0,1,0,0,8,8,8,,,,,,,,,False,27,88,False,exp1.png,exp2.png,trial_right_image,-1,exp2.png,1,exp2.png,exp1.png,0,4,reversed,correct,0.7539321291435928,1,valid_win,512.9072391999944,57,,,,,,,,,,,s_030,1,2020_Dec_22_0947,Reversal,3.2.4,59.91202518887273,
9,exp3.png,exp4.png,,,,,,,,,,,,,,,,,1,0,1,0,0,9,9,9,,,,,,,,,False,28,89,True,exp4.png,exp3.png,trial_right_image,-1,exp3.png,1,exp3.png,exp4.png,1,1,non-reversed,correct,0.41674849522036983,1,valid_win,517.7888222999754,58,,,,,,,,,,,s_030,1,2020_Dec_22_0947,Reversal,3.2.4,59.91202518887273,
10,exp1.png,exp2.png,,,,,,,,,,,,,,,,,1,0,1,0,0,10,10,10,,,,,,,,,False,29,90,False,exp1.png,exp2.png,trial_right_image,-1,exp2.png,1,exp2.png,exp1.png,0,4,reversed,correct,0.31967583921739584,1,valid_win,522.0692328999867,59,,,,,,,,,,,s_030,1,2020_Dec_22_0947,Reversal,3.2.4,59.91202518887273,
11,exp3.png,exp4.png,,,,,,,,,,,,,,,,,1,0,1,0,0,11,11,11,,,,,,,,,False,30,91,False,exp3.png,exp4.png,trial_left_image,1,exp3.png,1,exp3.png,exp4.png,1,1,non-reversed,correct,0.03824414112537078,0,invalid_lose,527.1185261999781,59,,,,,,,,,,,s_030,1,2020_Dec_22_0947,Reversal,3.2.4,59.91202518887273,
12,exp1.png,exp2.png,,,,,,,,,,,,,,,,,1,0,1,0,0,12,12,12,,,,,,,,,False,31,92,True,exp2.png,exp1.png,trial_left_image,1,exp2.png,1,exp2.png,exp1.png,0,4,reversed,correct,0.024265560054810842,0,invalid_lose,532.1504083999898,59,,,,,,,,,,,s_030,1,2020_Dec_22_0947,Reversal,3.2.4,59.91202518887273,
13,exp3.png,exp4.png,,,,,,,,,,,,,,,,,1,0,1,0,0,13,13,13,,,,,,,,,False,32,93,True,exp4.png,exp3.png,trial_left_image,1,exp4.png,1,exp3.png,exp4.png,0,2,non-reversed,incorrect,0.8740102798894245,0,valid_lose,536.665610600001,59,,,,,,,,,,,s_030,1,2020_Dec_22_0947,Reversal,3.2.4,59.91202518887273,
14,exp1.png,exp2.png,,,,,,,,,,,,,,,,,1,0,1,0,0,14,14,14,,,,,,,,,False,33,94,True,exp2.png,exp1.png,trial_right_image,-1,exp1.png,1,exp2.png,exp1.png,1,3,reversed,incorrect,0.5191384224953237,0,valid_lose,541.2134916999785,59,,,,,,,,,,,s_030,1,2020_Dec_22_0947,Reversal,3.2.4,59.91202518887273,
15,exp3.png,exp4.png,,,,,,,,,,,,,,,,,1,0,1,0,0,15,15,15,,,,,,,,,False,34,95,False,exp3.png,exp4.png,trial_right_image,-1,exp4.png,1,exp3.png,exp4.png,0,2,non-reversed,incorrect,0.25022571201439026,0,valid_lose,545.995267499995,59,,,,,,,,,,,s_030,1,2020_Dec_22_0947,Reversal,3.2.4,59.91202518887273,
16,exp1.png,exp2.png,,,,,,,,,,,,,,,,,1,0,1,0,0,16,16,16,,,,,,,,,False,35,96,True,exp2.png,exp1.png,trial_right_image,-1,exp1.png,1,exp2.png,exp1.png,1,3,reversed,incorrect,0.42756812319437865,0,valid_lose,550.5275293999875,59,,,,,,,,,,,s_030,1,2020_Dec_22_0947,Reversal,3.2.4,59.91202518887273,
17,exp3.png,exp4.png,,,,,,,,,,,,,,,,,1,0,1,0,0,17,17,17,,,,,,,,,False,36,97,False,exp3.png,exp4.png,trial_right_image,-1,exp4.png,1,exp3.png,exp4.png,0,2,non-reversed,incorrect,0.19224530047715005,1,invalid_win,555.0090628999751,60,,,,,,,,,,,s_030,1,2020_Dec_22_0947,Reversal,3.2.4,59.91202518887273,
18,exp1.png,exp2.png,,,,,,,,,,,,,,,,,1,0,1,0,0,18,18,18,,,,,,,,,False,37,98,True,exp2.png,exp1.png,trial_right_image,-1,exp1.png,1,exp2.png,exp1.png,1,3,reversed,incorrect,0.8584829063531594,0,valid_lose,559.6909992999863,60,,,,,,,,,,,s_030,1,2020_Dec_22_0947,Reversal,3.2.4,59.91202518887273,
19,exp3.png,exp4.png,,,,,,,,,,,,,,,,,1,0,1,0,0,19,19,19,,,,,,,,,False,38,99,False,exp3.png,exp4.png,trial_left_image,1,exp3.png,1,exp3.png,exp4.png,1,1,non-reversed,correct,0.14962463805775883,0,invalid_lose,565.0377632000018,60,,,,,,,,,,,s_030,1,2020_Dec_22_0947,Reversal,3.2.4,59.91202518887273,
20,exp1.png,exp2.png,,,,,,,,,,,,,,,,,1,0,1,0,0,20,20,20,,,,,,,,,False,39,100,True,exp2.png,exp1.png,trial_left_image,1,exp2.png,1,exp2.png,exp1.png,0,4,reversed,correct,0.9821909967108342,1,valid_win,570.6689474000013,61,,,,,,,,,,,s_030,1,2020_Dec_22_0947,Reversal,3.2.4,59.91202518887273,
,,,,,,,,,,,,,,,,,,,1,0,1,0,,,,,0,0,0,0,,,,,,,,,,,,,,,,,,,,,,,,,,18,83,61,36,,,,,,,s_030,1,2020_Dec_22_0947,Reversal,3.2.4,59.91202518887273,
0,exp1.png,exp2.png,,,,,,,,,,,,,,,,,2,0,2,0,0,0,0,0,,,,,,,,,True,,,,,,,,,,,,,,,,,,,,,,,,,,,,,,,s_030,1,2020_Dec_22_0947,Reversal,3.2.4,59.91202518887273,
1,exp3.png,exp4.png,,,,,,,,,,,,,,,,,2,0,2,0,0,1,1,1,,,,,,,,,False,40,101,False,exp3.png,exp4.png,trial_left_image,1,exp3.png,1,exp3.png,exp4.png,1,1,non-reversed,correct,0.8920097141574609,1,valid_win,594.8442068999866,62,,,,,,,,,,,s_030,1,2020_Dec_22_0947,Reversal,3.2.4,59.91202518887273,
2,exp1.png,exp2.png,,,,,,,,,,,,,,,,,2,0,2,0,0,2,2,2,,,,,,,,,False,41,102,True,exp2.png,exp1.png,trial_left_image,1,exp2.png,1,exp2.png,exp1.png,0,4,reversed,correct,0.3805736916986522,1,valid_win,599.3275861000002,63,,,,,,,,,,,s_030,1,2020_Dec_22_0947,Reversal,3.2.4,59.91202518887273,
3,exp3.png,exp4.png,,,,,,,,,,,,,,,,,2,0,2,0,0,3,3,3,,,,,,,,,False,42,103,False,exp3.png,exp4.png,trial_left_image,1,exp3.png,1,exp3.png,exp4.png,1,1,non-reversed,correct,0.6132039074340925,1,valid_win,603.7426821999834,64,,,,,,,,,,,s_030,1,2020_Dec_22_0947,Reversal,3.2.4,59.91202518887273,
4,exp1.png,exp2.png,,,,,,,,,,,,,,,,,2,0,2,0,0,4,4,4,,,,,,,,,False,43,104,False,exp1.png,exp2.png,trial_right_image,-1,exp2.png,1,exp2.png,exp1.png,0,4,reversed,correct,0.7265225160653904,1,valid_win,608.2908825999766,65,,,,,,,,,,,s_030,1,2020_Dec_22_0947,Reversal,3.2.4,59.91202518887273,
5,exp3.png,exp4.png,,,,,,,,,,,,,,,,,2,0,2,0,0,5,5,5,,,,,,,,,False,44,105,True,exp4.png,exp3.png,trial_right_image,-1,exp3.png,1,exp3.png,exp4.png,1,1,non-reversed,correct,0.585429869205282,1,valid_win,613.3900020000001,66,,,,,,,,,,,s_030,1,2020_Dec_22_0947,Reversal,3.2.4,59.91202518887273,
6,exp1.png,exp2.png,,,,,,,,,,,,,,,,,2,0,2,0,0,6,6,6,,,,,,,,,False,45,106,True,exp2.png,exp1.png,trial_left_image,1,exp2.png,1,exp2.png,exp1.png,0,4,reversed,correct,0.4653743585641258,1,valid_win,617.6214913000003,67,,,,,,,,,,,s_030,1,2020_Dec_22_0947,Reversal,3.2.4,59.91202518887273,
7,exp3.png,exp4.png,,,,,,,,,,,,,,,,,2,0,2,0,0,7,7,7,,,,,,,,,False,46,107,False,exp3.png,exp4.png,trial_left_image,1,exp3.png,1,exp3.png,exp4.png,1,1,non-reversed,correct,0.2752337881514124,1,valid_win,621.936494900001,68,,,,,,,,,,,s_030,1,2020_Dec_22_0947,Reversal,3.2.4,59.91202518887273,
8,exp1.png,exp2.png,,,,,,,,,,,,,,,,,2,0,2,0,0,8,8,8,,,,,,,,,False,47,108,True,exp2.png,exp1.png,trial_left_image,1,exp2.png,1,exp2.png,exp1.png,0,4,reversed,correct,0.5882645620605663,1,valid_win,627.7510676999809,69,,,,,,,,,,,s_030,1,2020_Dec_22_0947,Reversal,3.2.4,59.91202518887273,
9,exp3.png,exp4.png,,,,,,,,,,,,,,,,,2,0,2,0,0,9,9,9,,,,,,,,,False,48,109,True,exp4.png,exp3.png,trial_right_image,-1,exp3.png,1,exp3.png,exp4.png,1,1,non-reversed,correct,0.17399019008170835,0,invalid_lose,632.2999808999884,69,,,,,,,,,,,s_030,1,2020_Dec_22_0947,Reversal,3.2.4,59.91202518887273,
10,exp1.png,exp2.png,,,,,,,,,,,,,,,,,2,0,2,0,0,10,10,10,,,,,,,,,False,49,110,False,exp1.png,exp2.png,trial_right_image,-1,exp2.png,1,exp2.png,exp1.png,0,4,reversed,correct,0.7261498991475657,1,valid_win,636.6314463999879,70,,,,,,,,,,,s_030,1,2020_Dec_22_0947,Reversal,3.2.4,59.91202518887273,
11,exp3.png,exp4.png,,,,,,,,,,,,,,,,,2,0,2,0,0,11,11,11,,,,,,,,,False,50,111,False,exp3.png,exp4.png,trial_left_image,1,exp3.png,1,exp3.png,exp4.png,1,1,non-reversed,correct,0.8446946194757242,1,valid_win,641.3289846999978,71,,,,,,,,,,,s_030,1,2020_Dec_22_0947,Reversal,3.2.4,59.91202518887273,
12,exp1.png,exp2.png,,,,,,,,,,,,,,,,,2,0,2,0,0,12,12,12,,,,,,,,,False,51,112,True,exp2.png,exp1.png,trial_left_image,1,exp2.png,1,exp2.png,exp1.png,0,4,reversed,correct,0.6607155765649045,1,valid_win,645.7116088999901,72,,,,,,,,,,,s_030,1,2020_Dec_22_0947,Reversal,3.2.4,59.91202518887273,
13,exp3.png,exp4.png,,,,,,,,,,,,,,,,,2,0,2,0,0,13,13,13,,,,,,,,,False,52,113,False,exp3.png,exp4.png,trial_left_image,1,exp3.png,1,exp3.png,exp4.png,1,1,non-reversed,correct,0.9915803944840724,1,valid_win,650.6267965000006,73,,,,,,,,,,,s_030,1,2020_Dec_22_0947,Reversal,3.2.4,59.91202518887273,
14,exp1.png,exp2.png,,,,,,,,,,,,,,,,,2,0,2,0,0,14,14,14,,,,,,,,,False,53,114,True,exp2.png,exp1.png,trial_left_image,1,exp2.png,1,exp2.png,exp1.png,0,4,reversed,correct,0.1059816274640959,0,invalid_lose,655.0754360999854,73,,,,,,,,,,,s_030,1,2020_Dec_22_0947,Reversal,3.2.4,59.91202518887273,
15,exp3.png,exp4.png,,,,,,,,,,,,,,,,,2,0,2,0,0,15,15,15,,,,,,,,,False,54,115,True,exp4.png,exp3.png,trial_right_image,-1,exp3.png,1,exp3.png,exp4.png,1,1,non-reversed,correct,0.5420748619248036,1,valid_win,659.5737289999961,74,,,,,,,,,,,s_030,1,2020_Dec_22_0947,Reversal,3.2.4,59.91202518887273,
16,exp1.png,exp2.png,,,,,,,,,,,,,,,,,2,0,2,0,0,16,16,16,,,,,,,,,False,55,116,False,exp1.png,exp2.png,trial_right_image,-1,exp2.png,1,exp2.png,exp1.png,0,4,reversed,correct,0.43747704522366593,1,valid_win,663.8390024999972,75,,,,,,,,,,,s_030,1,2020_Dec_22_0947,Reversal,3.2.4,59.91202518887273,
17,exp3.png,exp4.png,,,,,,,,,,,,,,,,,2,0,2,0,0,17,17,17,,,,,,,,,False,56,117,True,exp4.png,exp3.png,trial_right_image,-1,exp3.png,1,exp3.png,exp4.png,1,1,non-reversed,correct,0.9869064431249626,1,valid_win,669.6538344,76,,,,,,,,,,,s_030,1,2020_Dec_22_0947,Reversal,3.2.4,59.91202518887273,
18,exp1.png,exp2.png,,,,,,,,,,,,,,,,,2,0,2,0,0,18,18,18,,,,,,,,,False,57,118,False,exp1.png,exp2.png,trial_right_image,-1,exp2.png,1,exp2.png,exp1.png,0,4,reversed,correct,0.48633971060259074,1,valid_win,674.485775499983,77,,,,,,,,,,,s_030,1,2020_Dec_22_0947,Reversal,3.2.4,59.91202518887273,
19,exp3.png,exp4.png,,,,,,,,,,,,,,,,,2,0,2,0,0,19,19,19,,,,,,,,,False,58,119,True,exp4.png,exp3.png,trial_right_image,-1,exp3.png,1,exp3.png,exp4.png,1,1,non-reversed,correct,0.3886931393417561,1,valid_win,679.533693299978,78,,,,,,,,,,,s_030,1,2020_Dec_22_0947,Reversal,3.2.4,59.91202518887273,
20,exp1.png,exp2.png,,,,,,,,,,,,,,,,,2,0,2,0,0,20,20,20,,,,,,,,,False,59,120,False,exp1.png,exp2.png,trial_right_image,-1,exp2.png,1,exp2.png,exp1.png,0,4,reversed,correct,0.39600875664552726,1,valid_win,683.9977516999934,79,,,,,,,,,,,s_030,1,2020_Dec_22_0947,Reversal,3.2.4,59.91202518887273,
,,,,,,,,,,,,,,,,,,,2,0,2,0,,,,,0,0,0,0,,,,,,,,,,,,,,,,,,,,,,,,,,8,91,93,9,,,,,,,s_030,1,2020_Dec_22_0947,Reversal,3.2.4,59.91202518887273,
,,,,,,,,,,,,,,,,,,,,,,,,,,,,,,,,,,,,,,,,,,,,,,,,,,,,,,,79,,,,,,101,54,47,333.23896160000004,0,,,,,,,
