trial_index,trial_image1_file,trial_image2_file,learning_outer_loop.thisRepN,learning_outer_loop.thisTrialN,learning_outer_loop.thisN,learning_outer_loop.thisIndex,learning_inner_loop.thisRepN,learning_inner_loop.thisTrialN,learning_inner_loop.thisN,learning_inner_loop.thisIndex,learning_estimation_outer_loop.thisRepN,learning_estimation_outer_loop.thisTrialN,learning_estimation_outer_loop.thisN,learning_estimation_outer_loop.thisIndex,learning_estimation_inner_loop.thisRepN,learning_estimation_inner_loop.thisTrialN,learning_estimation_inner_loop.thisN,learning_estimation_inner_loop.thisIndex,reversal_outer_loop.thisRepN,reversal_outer_loop.thisTrialN,reversal_outer_loop.thisN,reversal_outer_loop.thisIndex,reversal_inner_loop.thisRepN,reversal_inner_loop.thisTrialN,reversal_inner_loop.thisN,reversal_inner_loop.thisIndex,reversal_estimation_outer_loop.thisRepN,reversal_estimation_outer_loop.thisTrialN,reversal_estimation_outer_loop.thisN,reversal_estimation_outer_loop.thisIndex,reversal_estimation_inner_loop.thisRepN,reversal_estimation_inner_loop.thisTrialN,reversal_estimation_inner_loop.thisN,reversal_estimation_inner_loop.thisIndex,skipped,total_trial_counter,trial_num,left_right_flip,left_image_file,right_image_file,clicked_stimulus_side,side,clicked_stimulus,version,high_prob_image_file,low_prob_image_file,choice_a,choice_b,pair_type,correct,trial_feedback_random,reward,trial_type,overall_time_after_trial,score,estimation_exp1.png,estimation_exp2.png,estimation_exp3.png,estimation_exp4.png,total_learning_time,total_correct,learning_correct,reversal_correct,total_reversal_time,extra_block,end_experiment.keys,end_experiment.rt,participant,ver,date,expName,psychopyVersion,frameRate,
0,exp1.png,exp2.png,0,0,0,0,0,0,0,0,,,,,,,,,,,,,,,,,,,,,,,,,True,,,,,,,,,,,,,,,,,,,,,,,,,,,,,,,,,s_034,4,2020_Dec_30_1633,Reversal,3.2.4,60.08806505318603,
1,exp3.png,exp4.png,0,0,0,0,0,1,1,1,,,,,,,,,,,,,,,,,,,,,,,,,False,0,1,False,exp3.png,exp4.png,trial_left_image,1,exp3.png,4,exp4.png,exp3.png,0,4,reversed,incorrect,0.8492538047052316,0,valid_lose,4.827119200024754,0,,,,,,,,,,,,,s_034,4,2020_Dec_30_1633,Reversal,3.2.4,60.08806505318603,
2,exp1.png,exp2.png,0,0,0,0,0,2,2,2,,,,,,,,,,,,,,,,,,,,,,,,,False,1,2,False,exp1.png,exp2.png,trial_left_image,1,exp1.png,4,exp2.png,exp1.png,0,2,non-reversed,incorrect,0.6766672424632186,0,valid_lose,12.39132180006709,0,,,,,,,,,,,,,s_034,4,2020_Dec_30_1633,Reversal,3.2.4,60.08806505318603,
3,exp3.png,exp4.png,0,0,0,0,0,3,3,3,,,,,,,,,,,,,,,,,,,,,,,,,False,2,3,True,exp4.png,exp3.png,trial_right_image,-1,exp3.png,4,exp4.png,exp3.png,0,4,reversed,incorrect,0.8932632761533364,0,valid_lose,17.689800400054082,0,,,,,,,,,,,,,s_034,4,2020_Dec_30_1633,Reversal,3.2.4,60.08806505318603,
4,exp1.png,exp2.png,0,0,0,0,0,4,4,4,,,,,,,,,,,,,,,,,,,,,,,,,False,3,4,False,exp1.png,exp2.png,trial_right_image,-1,exp2.png,4,exp2.png,exp1.png,1,1,non-reversed,correct,0.5125373846734446,1,valid_win,23.387910600053146,1,,,,,,,,,,,,,s_034,4,2020_Dec_30_1633,Reversal,3.2.4,60.08806505318603,
5,exp3.png,exp4.png,0,0,0,0,0,5,5,5,,,,,,,,,,,,,,,,,,,,,,,,,False,4,5,True,exp4.png,exp3.png,trial_left_image,1,exp4.png,4,exp4.png,exp3.png,1,3,reversed,correct,0.07100583521412684,0,invalid_lose,28.652893600054085,1,,,,,,,,,,,,,s_034,4,2020_Dec_30_1633,Reversal,3.2.4,60.08806505318603,
6,exp1.png,exp2.png,0,0,0,0,0,6,6,6,,,,,,,,,,,,,,,,,,,,,,,,,False,5,6,False,exp1.png,exp2.png,trial_right_image,-1,exp2.png,4,exp2.png,exp1.png,1,1,non-reversed,correct,0.6260259461890331,1,valid_win,37.10000239999499,2,,,,,,,,,,,,,s_034,4,2020_Dec_30_1633,Reversal,3.2.4,60.08806505318603,
7,exp3.png,exp4.png,0,0,0,0,0,7,7,7,,,,,,,,,,,,,,,,,,,,,,,,,False,6,7,False,exp3.png,exp4.png,trial_left_image,1,exp3.png,4,exp4.png,exp3.png,0,4,reversed,incorrect,0.20206195750207345,1,invalid_win,45.246796300052665,3,,,,,,,,,,,,,s_034,4,2020_Dec_30_1633,Reversal,3.2.4,60.08806505318603,
8,exp1.png,exp2.png,0,0,0,0,0,8,8,8,,,,,,,,,,,,,,,,,,,,,,,,,False,7,8,False,exp1.png,exp2.png,trial_left_image,1,exp1.png,4,exp2.png,exp1.png,0,2,non-reversed,incorrect,0.3146899195525099,0,valid_lose,51.960999400005676,3,,,,,,,,,,,,,s_034,4,2020_Dec_30_1633,Reversal,3.2.4,60.08806505318603,
9,exp3.png,exp4.png,0,0,0,0,0,9,9,9,,,,,,,,,,,,,,,,,,,,,,,,,False,8,9,False,exp3.png,exp4.png,trial_right_image,-1,exp4.png,4,exp4.png,exp3.png,1,3,reversed,correct,0.0024739556426419673,0,invalid_lose,57.55992100003641,3,,,,,,,,,,,,,s_034,4,2020_Dec_30_1633,Reversal,3.2.4,60.08806505318603,
10,exp1.png,exp2.png,0,0,0,0,0,10,10,10,,,,,,,,,,,,,,,,,,,,,,,,,False,9,10,True,exp2.png,exp1.png,trial_left_image,1,exp2.png,4,exp2.png,exp1.png,1,1,non-reversed,correct,0.170396778225279,0,invalid_lose,62.42492990009487,3,,,,,,,,,,,,,s_034,4,2020_Dec_30_1633,Reversal,3.2.4,60.08806505318603,
11,exp3.png,exp4.png,0,0,0,0,0,11,11,11,,,,,,,,,,,,,,,,,,,,,,,,,False,10,11,True,exp4.png,exp3.png,trial_left_image,1,exp4.png,4,exp4.png,exp3.png,1,3,reversed,correct,0.8987388529164151,1,valid_win,68.83882350008935,4,,,,,,,,,,,,,s_034,4,2020_Dec_30_1633,Reversal,3.2.4,60.08806505318603,
12,exp1.png,exp2.png,0,0,0,0,0,12,12,12,,,,,,,,,,,,,,,,,,,,,,,,,False,11,12,False,exp1.png,exp2.png,trial_right_image,-1,exp2.png,4,exp2.png,exp1.png,1,1,non-reversed,correct,0.36545335763773146,1,valid_win,74.18720889999531,5,,,,,,,,,,,,,s_034,4,2020_Dec_30_1633,Reversal,3.2.4,60.08806505318603,
13,exp3.png,exp4.png,0,0,0,0,0,13,13,13,,,,,,,,,,,,,,,,,,,,,,,,,False,12,13,True,exp4.png,exp3.png,trial_left_image,1,exp4.png,4,exp4.png,exp3.png,1,3,reversed,correct,0.5086647487984771,1,valid_win,80.03576870006509,6,,,,,,,,,,,,,s_034,4,2020_Dec_30_1633,Reversal,3.2.4,60.08806505318603,
14,exp1.png,exp2.png,0,0,0,0,0,14,14,14,,,,,,,,,,,,,,,,,,,,,,,,,False,13,14,False,exp1.png,exp2.png,trial_right_image,-1,exp2.png,4,exp2.png,exp1.png,1,1,non-reversed,correct,0.019137488381607337,0,invalid_lose,84.7836259000469,6,,,,,,,,,,,,,s_034,4,2020_Dec_30_1633,Reversal,3.2.4,60.08806505318603,
15,exp3.png,exp4.png,0,0,0,0,0,15,15,15,,,,,,,,,,,,,,,,,,,,,,,,,False,14,15,True,exp4.png,exp3.png,trial_right_image,-1,exp3.png,4,exp4.png,exp3.png,0,4,reversed,incorrect,0.08684472578352853,1,invalid_win,89.64850880007725,7,,,,,,,,,,,,,s_034,4,2020_Dec_30_1633,Reversal,3.2.4,60.08806505318603,
16,exp1.png,exp2.png,0,0,0,0,0,16,16,16,,,,,,,,,,,,,,,,,,,,,,,,,False,15,16,True,exp2.png,exp1.png,trial_left_image,1,exp2.png,4,exp2.png,exp1.png,1,1,non-reversed,correct,0.8772808666173578,1,valid_win,94.66467269998975,8,,,,,,,,,,,,,s_034,4,2020_Dec_30_1633,Reversal,3.2.4,60.08806505318603,
17,exp3.png,exp4.png,0,0,0,0,0,17,17,17,,,,,,,,,,,,,,,,,,,,,,,,,False,16,17,True,exp4.png,exp3.png,trial_right_image,-1,exp3.png,4,exp4.png,exp3.png,0,4,reversed,incorrect,0.4460763830465714,0,valid_lose,100.09524709999096,8,,,,,,,,,,,,,s_034,4,2020_Dec_30_1633,Reversal,3.2.4,60.08806505318603,
18,exp1.png,exp2.png,0,0,0,0,0,18,18,18,,,,,,,,,,,,,,,,,,,,,,,,,False,17,18,True,exp2.png,exp1.png,trial_left_image,1,exp2.png,4,exp2.png,exp1.png,1,1,non-reversed,correct,0.14412548503561984,0,invalid_lose,104.07741050003096,8,,,,,,,,,,,,,s_034,4,2020_Dec_30_1633,Reversal,3.2.4,60.08806505318603,
19,exp3.png,exp4.png,0,0,0,0,0,19,19,19,,,,,,,,,,,,,,,,,,,,,,,,,False,18,19,False,exp3.png,exp4.png,trial_right_image,-1,exp4.png,4,exp4.png,exp3.png,1,3,reversed,correct,0.4422646123978209,1,valid_win,108.9924941000063,9,,,,,,,,,,,,,s_034,4,2020_Dec_30_1633,Reversal,3.2.4,60.08806505318603,
20,exp1.png,exp2.png,0,0,0,0,0,20,20,20,,,,,,,,,,,,,,,,,,,,,,,,,False,19,20,True,exp2.png,exp1.png,trial_right_image,-1,exp1.png,4,exp2.png,exp1.png,0,2,non-reversed,incorrect,0.44097675322316265,0,valid_lose,113.6914839000674,9,,,,,,,,,,,,,s_034,4,2020_Dec_30_1633,Reversal,3.2.4,60.08806505318603,
,,,0,0,0,0,,,,,0,0,0,0,,,,,,,,,,,,,,,,,,,,,,,,,,,,,,,,,,,,,,,,,,31,0,67,81,,,,,,,,,s_034,4,2020_Dec_30_1633,Reversal,3.2.4,60.08806505318603,
0,exp1.png,exp2.png,1,0,1,0,0,0,0,0,,,,,,,,,,,,,,,,,,,,,,,,,True,,,,,,,,,,,,,,,,,,,,,,,,,,,,,,,,,s_034,4,2020_Dec_30_1633,Reversal,3.2.4,60.08806505318603,
1,exp3.png,exp4.png,1,0,1,0,0,1,1,1,,,,,,,,,,,,,,,,,,,,,,,,,False,20,21,True,exp4.png,exp3.png,trial_left_image,1,exp4.png,4,exp4.png,exp3.png,1,3,reversed,correct,0.3563059687258674,1,valid_win,137.04973130009603,10,,,,,,,,,,,,,s_034,4,2020_Dec_30_1633,Reversal,3.2.4,60.08806505318603,
2,exp1.png,exp2.png,1,0,1,0,0,2,2,2,,,,,,,,,,,,,,,,,,,,,,,,,False,21,22,True,exp2.png,exp1.png,trial_right_image,-1,exp1.png,4,exp2.png,exp1.png,0,2,non-reversed,incorrect,0.12975610972104024,1,invalid_win,142.33105939999223,11,,,,,,,,,,,,,s_034,4,2020_Dec_30_1633,Reversal,3.2.4,60.08806505318603,
3,exp3.png,exp4.png,1,0,1,0,0,3,3,3,,,,,,,,,,,,,,,,,,,,,,,,,False,22,23,False,exp3.png,exp4.png,trial_right_image,-1,exp4.png,4,exp4.png,exp3.png,1,3,reversed,correct,0.6211549171578206,1,valid_win,147.14644420007244,12,,,,,,,,,,,,,s_034,4,2020_Dec_30_1633,Reversal,3.2.4,60.08806505318603,
4,exp1.png,exp2.png,1,0,1,0,0,4,4,4,,,,,,,,,,,,,,,,,,,,,,,,,False,23,24,True,exp2.png,exp1.png,trial_left_image,1,exp2.png,4,exp2.png,exp1.png,1,1,non-reversed,correct,0.736563272181191,1,valid_win,151.8946518000448,13,,,,,,,,,,,,,s_034,4,2020_Dec_30_1633,Reversal,3.2.4,60.08806505318603,
5,exp3.png,exp4.png,1,0,1,0,0,5,5,5,,,,,,,,,,,,,,,,,,,,,,,,,False,24,25,True,exp4.png,exp3.png,trial_left_image,1,exp4.png,4,exp4.png,exp3.png,1,3,reversed,correct,0.018169211329152057,0,invalid_lose,156.72568949998822,13,,,,,,,,,,,,,s_034,4,2020_Dec_30_1633,Reversal,3.2.4,60.08806505318603,
6,exp1.png,exp2.png,1,0,1,0,0,6,6,6,,,,,,,,,,,,,,,,,,,,,,,,,False,25,26,False,exp1.png,exp2.png,trial_left_image,1,exp1.png,4,exp2.png,exp1.png,0,2,non-reversed,incorrect,0.6891143627524435,0,valid_lose,161.9080377999926,13,,,,,,,,,,,,,s_034,4,2020_Dec_30_1633,Reversal,3.2.4,60.08806505318603,
7,exp3.png,exp4.png,1,0,1,0,0,7,7,7,,,,,,,,,,,,,,,,,,,,,,,,,False,26,27,False,exp3.png,exp4.png,trial_right_image,-1,exp4.png,4,exp4.png,exp3.png,1,3,reversed,correct,0.14992281248102413,0,invalid_lose,166.60655060003046,13,,,,,,,,,,,,,s_034,4,2020_Dec_30_1633,Reversal,3.2.4,60.08806505318603,
8,exp1.png,exp2.png,1,0,1,0,0,8,8,8,,,,,,,,,,,,,,,,,,,,,,,,,False,27,28,False,exp1.png,exp2.png,trial_right_image,-1,exp2.png,4,exp2.png,exp1.png,1,1,non-reversed,correct,0.18681895944273774,0,invalid_lose,173.32032240007538,13,,,,,,,,,,,,,s_034,4,2020_Dec_30_1633,Reversal,3.2.4,60.08806505318603,
9,exp3.png,exp4.png,1,0,1,0,0,9,9,9,,,,,,,,,,,,,,,,,,,,,,,,,False,28,29,False,exp3.png,exp4.png,trial_right_image,-1,exp4.png,4,exp4.png,exp3.png,1,3,reversed,correct,0.6744430894877951,1,valid_win,178.43581530009396,14,,,,,,,,,,,,,s_034,4,2020_Dec_30_1633,Reversal,3.2.4,60.08806505318603,
10,exp1.png,exp2.png,1,0,1,0,0,10,10,10,,,,,,,,,,,,,,,,,,,,,,,,,False,29,30,False,exp1.png,exp2.png,trial_left_image,1,exp1.png,4,exp2.png,exp1.png,0,2,non-reversed,incorrect,0.7644273402489671,0,valid_lose,183.06720250006765,14,,,,,,,,,,,,,s_034,4,2020_Dec_30_1633,Reversal,3.2.4,60.08806505318603,
11,exp3.png,exp4.png,1,0,1,0,0,11,11,11,,,,,,,,,,,,,,,,,,,,,,,,,False,30,31,False,exp3.png,exp4.png,trial_right_image,-1,exp4.png,4,exp4.png,exp3.png,1,3,reversed,correct,0.328873439171415,1,valid_win,188.3653438000474,15,,,,,,,,,,,,,s_034,4,2020_Dec_30_1633,Reversal,3.2.4,60.08806505318603,
12,exp1.png,exp2.png,1,0,1,0,0,12,12,12,,,,,,,,,,,,,,,,,,,,,,,,,False,31,32,True,exp2.png,exp1.png,trial_left_image,1,exp2.png,4,exp2.png,exp1.png,1,1,non-reversed,correct,0.6822298500736852,1,valid_win,192.91397940006573,16,,,,,,,,,,,,,s_034,4,2020_Dec_30_1633,Reversal,3.2.4,60.08806505318603,
13,exp3.png,exp4.png,1,0,1,0,0,13,13,13,,,,,,,,,,,,,,,,,,,,,,,,,False,32,33,True,exp4.png,exp3.png,trial_left_image,1,exp4.png,4,exp4.png,exp3.png,1,3,reversed,correct,0.40859648888096756,1,valid_win,200.42842540005222,17,,,,,,,,,,,,,s_034,4,2020_Dec_30_1633,Reversal,3.2.4,60.08806505318603,
14,exp1.png,exp2.png,1,0,1,0,0,14,14,14,,,,,,,,,,,,,,,,,,,,,,,,,False,33,34,True,exp2.png,exp1.png,trial_left_image,1,exp2.png,4,exp2.png,exp1.png,1,1,non-reversed,correct,0.03837368683769149,0,invalid_lose,208.9087509000674,17,,,,,,,,,,,,,s_034,4,2020_Dec_30_1633,Reversal,3.2.4,60.08806505318603,
15,exp3.png,exp4.png,1,0,1,0,0,15,15,15,,,,,,,,,,,,,,,,,,,,,,,,,False,34,35,True,exp4.png,exp3.png,trial_right_image,-1,exp3.png,4,exp4.png,exp3.png,0,4,reversed,incorrect,0.7799769343276521,0,valid_lose,213.99025270005222,17,,,,,,,,,,,,,s_034,4,2020_Dec_30_1633,Reversal,3.2.4,60.08806505318603,
16,exp1.png,exp2.png,1,0,1,0,0,16,16,16,,,,,,,,,,,,,,,,,,,,,,,,,False,35,36,False,exp1.png,exp2.png,trial_right_image,-1,exp2.png,4,exp2.png,exp1.png,1,1,non-reversed,correct,0.9034445095332788,1,valid_win,219.604785200092,18,,,,,,,,,,,,,s_034,4,2020_Dec_30_1633,Reversal,3.2.4,60.08806505318603,
17,exp3.png,exp4.png,1,0,1,0,0,17,17,17,,,,,,,,,,,,,,,,,,,,,,,,,False,36,37,False,exp3.png,exp4.png,trial_left_image,1,exp3.png,4,exp4.png,exp3.png,0,4,reversed,incorrect,0.6451721402409695,0,valid_lose,226.01947570010088,18,,,,,,,,,,,,,s_034,4,2020_Dec_30_1633,Reversal,3.2.4,60.08806505318603,
18,exp1.png,exp2.png,1,0,1,0,0,18,18,18,,,,,,,,,,,,,,,,,,,,,,,,,False,37,38,True,exp2.png,exp1.png,trial_left_image,1,exp2.png,4,exp2.png,exp1.png,1,1,non-reversed,correct,0.8022909203679238,1,valid_win,231.58420470007695,19,,,,,,,,,,,,,s_034,4,2020_Dec_30_1633,Reversal,3.2.4,60.08806505318603,
19,exp3.png,exp4.png,1,0,1,0,0,19,19,19,,,,,,,,,,,,,,,,,,,,,,,,,False,38,39,False,exp3.png,exp4.png,trial_right_image,-1,exp4.png,4,exp4.png,exp3.png,1,3,reversed,correct,0.7166900784084416,1,valid_win,236.25021480000578,20,,,,,,,,,,,,,s_034,4,2020_Dec_30_1633,Reversal,3.2.4,60.08806505318603,
20,exp1.png,exp2.png,1,0,1,0,0,20,20,20,,,,,,,,,,,,,,,,,,,,,,,,,False,39,40,True,exp2.png,exp1.png,trial_left_image,1,exp2.png,4,exp2.png,exp1.png,1,1,non-reversed,correct,0.9543103791720983,1,valid_win,240.73101540002972,21,,,,,,,,,,,,,s_034,4,2020_Dec_30_1633,Reversal,3.2.4,60.08806505318603,
,,,1,0,1,0,,,,,0,0,0,0,,,,,,,,,,,,,,,,,,,,,,,,,,,,,,,,,,,,,,,,,,26,79,24,97,,,,,,,,,s_034,4,2020_Dec_30_1633,Reversal,3.2.4,60.08806505318603,
0,exp1.png,exp2.png,2,0,2,0,0,0,0,0,,,,,,,,,,,,,,,,,,,,,,,,,True,,,,,,,,,,,,,,,,,,,,,,,,,,,,,,,,,s_034,4,2020_Dec_30_1633,Reversal,3.2.4,60.08806505318603,
1,exp3.png,exp4.png,2,0,2,0,0,1,1,1,,,,,,,,,,,,,,,,,,,,,,,,,False,40,41,True,exp4.png,exp3.png,trial_left_image,1,exp4.png,4,exp4.png,exp3.png,1,3,reversed,correct,0.9930437133041811,1,valid_win,262.69046439998783,22,,,,,,,,,,,,,s_034,4,2020_Dec_30_1633,Reversal,3.2.4,60.08806505318603,
2,exp1.png,exp2.png,2,0,2,0,0,2,2,2,,,,,,,,,,,,,,,,,,,,,,,,,False,41,42,False,exp1.png,exp2.png,trial_right_image,-1,exp2.png,4,exp2.png,exp1.png,1,1,non-reversed,correct,0.701496665889535,1,valid_win,267.5889437000733,23,,,,,,,,,,,,,s_034,4,2020_Dec_30_1633,Reversal,3.2.4,60.08806505318603,
3,exp3.png,exp4.png,2,0,2,0,0,3,3,3,,,,,,,,,,,,,,,,,,,,,,,,,False,42,43,False,exp3.png,exp4.png,trial_right_image,-1,exp4.png,4,exp4.png,exp3.png,1,3,reversed,correct,0.8800754157988326,1,valid_win,272.4201633000048,24,,,,,,,,,,,,,s_034,4,2020_Dec_30_1633,Reversal,3.2.4,60.08806505318603,
4,exp1.png,exp2.png,2,0,2,0,0,4,4,4,,,,,,,,,,,,,,,,,,,,,,,,,False,43,44,False,exp1.png,exp2.png,trial_right_image,-1,exp2.png,4,exp2.png,exp1.png,1,1,non-reversed,correct,0.5372747730803523,1,valid_win,277.0183331000153,25,,,,,,,,,,,,,s_034,4,2020_Dec_30_1633,Reversal,3.2.4,60.08806505318603,
5,exp3.png,exp4.png,2,0,2,0,0,5,5,5,,,,,,,,,,,,,,,,,,,,,,,,,False,44,45,False,exp3.png,exp4.png,trial_right_image,-1,exp4.png,4,exp4.png,exp3.png,1,3,reversed,correct,0.8094978778711385,1,valid_win,281.81688580010086,26,,,,,,,,,,,,,s_034,4,2020_Dec_30_1633,Reversal,3.2.4,60.08806505318603,
6,exp1.png,exp2.png,2,0,2,0,0,6,6,6,,,,,,,,,,,,,,,,,,,,,,,,,False,45,46,True,exp2.png,exp1.png,trial_left_image,1,exp2.png,4,exp2.png,exp1.png,1,1,non-reversed,correct,0.34502011580601577,1,valid_win,286.1819576000562,27,,,,,,,,,,,,,s_034,4,2020_Dec_30_1633,Reversal,3.2.4,60.08806505318603,
7,exp3.png,exp4.png,2,0,2,0,0,7,7,7,,,,,,,,,,,,,,,,,,,,,,,,,False,46,47,True,exp4.png,exp3.png,trial_left_image,1,exp4.png,4,exp4.png,exp3.png,1,3,reversed,correct,0.5842114869631889,1,valid_win,290.5474199000746,28,,,,,,,,,,,,,s_034,4,2020_Dec_30_1633,Reversal,3.2.4,60.08806505318603,
8,exp1.png,exp2.png,2,0,2,0,0,8,8,8,,,,,,,,,,,,,,,,,,,,,,,,,False,47,48,True,exp2.png,exp1.png,trial_left_image,1,exp2.png,4,exp2.png,exp1.png,1,1,non-reversed,correct,0.4925448990924379,1,valid_win,294.77921040006913,29,,,,,,,,,,,,,s_034,4,2020_Dec_30_1633,Reversal,3.2.4,60.08806505318603,
9,exp3.png,exp4.png,2,0,2,0,0,9,9,9,,,,,,,,,,,,,,,,,,,,,,,,,False,48,49,False,exp3.png,exp4.png,trial_right_image,-1,exp4.png,4,exp4.png,exp3.png,1,3,reversed,correct,0.7369089138224394,1,valid_win,298.7279092000099,30,,,,,,,,,,,,,s_034,4,2020_Dec_30_1633,Reversal,3.2.4,60.08806505318603,
10,exp1.png,exp2.png,2,0,2,0,0,10,10,10,,,,,,,,,,,,,,,,,,,,,,,,,False,49,50,True,exp2.png,exp1.png,trial_left_image,1,exp2.png,4,exp2.png,exp1.png,1,1,non-reversed,correct,0.4075372557832839,1,valid_win,302.99324610002805,31,,,,,,,,,,,,,s_034,4,2020_Dec_30_1633,Reversal,3.2.4,60.08806505318603,
11,exp3.png,exp4.png,2,0,2,0,0,11,11,11,,,,,,,,,,,,,,,,,,,,,,,,,False,50,51,False,exp3.png,exp4.png,trial_right_image,-1,exp4.png,4,exp4.png,exp3.png,1,3,reversed,correct,0.9387133530224916,1,valid_win,307.1084739000071,32,,,,,,,,,,,,,s_034,4,2020_Dec_30_1633,Reversal,3.2.4,60.08806505318603,
12,exp1.png,exp2.png,2,0,2,0,0,12,12,12,,,,,,,,,,,,,,,,,,,,,,,,,False,51,52,False,exp1.png,exp2.png,trial_right_image,-1,exp2.png,4,exp2.png,exp1.png,1,1,non-reversed,correct,0.010386519370216063,0,invalid_lose,311.44064140005503,32,,,,,,,,,,,,,s_034,4,2020_Dec_30_1633,Reversal,3.2.4,60.08806505318603,
13,exp3.png,exp4.png,2,0,2,0,0,13,13,13,,,,,,,,,,,,,,,,,,,,,,,,,False,52,53,True,exp4.png,exp3.png,trial_left_image,1,exp4.png,4,exp4.png,exp3.png,1,3,reversed,correct,0.6762999551152235,1,valid_win,315.7223715001019,33,,,,,,,,,,,,,s_034,4,2020_Dec_30_1633,Reversal,3.2.4,60.08806505318603,
14,exp1.png,exp2.png,2,0,2,0,0,14,14,14,,,,,,,,,,,,,,,,,,,,,,,,,False,53,54,True,exp2.png,exp1.png,trial_left_image,1,exp2.png,4,exp2.png,exp1.png,1,1,non-reversed,correct,0.4893339952639535,1,valid_win,320.5207129000919,34,,,,,,,,,,,,,s_034,4,2020_Dec_30_1633,Reversal,3.2.4,60.08806505318603,
15,exp3.png,exp4.png,2,0,2,0,0,15,15,15,,,,,,,,,,,,,,,,,,,,,,,,,False,54,55,True,exp4.png,exp3.png,trial_left_image,1,exp4.png,4,exp4.png,exp3.png,1,3,reversed,correct,0.3038651089792641,1,valid_win,324.92017040005885,35,,,,,,,,,,,,,s_034,4,2020_Dec_30_1633,Reversal,3.2.4,60.08806505318603,
16,exp1.png,exp2.png,2,0,2,0,0,16,16,16,,,,,,,,,,,,,,,,,,,,,,,,,False,55,56,True,exp2.png,exp1.png,trial_left_image,1,exp2.png,4,exp2.png,exp1.png,1,1,non-reversed,correct,0.9068113448738364,1,valid_win,329.384462099988,36,,,,,,,,,,,,,s_034,4,2020_Dec_30_1633,Reversal,3.2.4,60.08806505318603,
17,exp3.png,exp4.png,2,0,2,0,0,17,17,17,,,,,,,,,,,,,,,,,,,,,,,,,False,56,57,False,exp3.png,exp4.png,trial_right_image,-1,exp4.png,4,exp4.png,exp3.png,1,3,reversed,correct,0.17975978487168742,0,invalid_lose,333.4504982000217,36,,,,,,,,,,,,,s_034,4,2020_Dec_30_1633,Reversal,3.2.4,60.08806505318603,
18,exp1.png,exp2.png,2,0,2,0,0,18,18,18,,,,,,,,,,,,,,,,,,,,,,,,,False,57,58,True,exp2.png,exp1.png,trial_left_image,1,exp2.png,4,exp2.png,exp1.png,1,1,non-reversed,correct,0.5651341326922926,1,valid_win,337.5977644000668,37,,,,,,,,,,,,,s_034,4,2020_Dec_30_1633,Reversal,3.2.4,60.08806505318603,
19,exp3.png,exp4.png,2,0,2,0,0,19,19,19,,,,,,,,,,,,,,,,,,,,,,,,,False,58,59,False,exp3.png,exp4.png,trial_right_image,-1,exp4.png,4,exp4.png,exp3.png,1,3,reversed,correct,0.5027361953769399,1,valid_win,341.73041890002787,38,,,,,,,,,,,,,s_034,4,2020_Dec_30_1633,Reversal,3.2.4,60.08806505318603,
20,exp1.png,exp2.png,2,0,2,0,0,20,20,20,,,,,,,,,,,,,,,,,,,,,,,,,False,59,60,False,exp1.png,exp2.png,trial_right_image,-1,exp2.png,4,exp2.png,exp1.png,1,1,non-reversed,correct,0.17187047398344735,0,invalid_lose,346.41280910000205,38,,,,,,,,,,,,,s_034,4,2020_Dec_30_1633,Reversal,3.2.4,60.08806505318603,
,,,2,0,2,0,,,,,0,0,0,0,,,,,,,,,,,,,,,,,,,,,,,,,,,,,,,,,,,,,,,,,,10,90,3,97,,,,,,,,,s_034,4,2020_Dec_30_1633,Reversal,3.2.4,60.08806505318603,
0,exp1.png,exp2.png,,,,,,,,,,,,,,,,,0,0,0,0,0,0,0,0,,,,,,,,,True,,,,,,,,,,,,,,,,,,,,,,,,,,,,,,,,,s_034,4,2020_Dec_30_1633,Reversal,3.2.4,60.08806505318603,
1,exp3.png,exp4.png,,,,,,,,,,,,,,,,,0,0,0,0,0,1,1,1,,,,,,,,,False,0,61,False,exp3.png,exp4.png,trial_right_image,-1,exp4.png,4,exp3.png,exp4.png,1,3,reversed,incorrect,0.982494991075089,0,valid_lose,373.3034891000716,38,,,,,371.4238983000396,,,,,,,,s_034,4,2020_Dec_30_1633,Reversal,3.2.4,60.08806505318603,
2,exp1.png,exp2.png,,,,,,,,,,,,,,,,,0,0,0,0,0,2,2,2,,,,,,,,,False,1,62,True,exp2.png,exp1.png,trial_left_image,1,exp2.png,4,exp2.png,exp1.png,1,1,non-reversed,correct,0.9138159656389501,1,valid_win,377.26833610003814,39,,,,,,,,,,,,,s_034,4,2020_Dec_30_1633,Reversal,3.2.4,60.08806505318603,
3,exp3.png,exp4.png,,,,,,,,,,,,,,,,,0,0,0,0,0,3,3,3,,,,,,,,,False,2,63,True,exp4.png,exp3.png,trial_left_image,1,exp4.png,4,exp3.png,exp4.png,1,3,reversed,incorrect,0.9382415029711579,0,valid_lose,381.38369720010087,39,,,,,,,,,,,,,s_034,4,2020_Dec_30_1633,Reversal,3.2.4,60.08806505318603,
4,exp1.png,exp2.png,,,,,,,,,,,,,,,,,0,0,0,0,0,4,4,4,,,,,,,,,False,3,64,False,exp1.png,exp2.png,trial_right_image,-1,exp2.png,4,exp2.png,exp1.png,1,1,non-reversed,correct,0.7904203725569416,1,valid_win,385.41558030003216,40,,,,,,,,,,,,,s_034,4,2020_Dec_30_1633,Reversal,3.2.4,60.08806505318603,
5,exp3.png,exp4.png,,,,,,,,,,,,,,,,,0,0,0,0,0,5,5,5,,,,,,,,,False,4,65,False,exp3.png,exp4.png,trial_left_image,1,exp3.png,4,exp3.png,exp4.png,0,4,reversed,correct,0.06178231559852154,0,invalid_lose,389.597334900056,40,,,,,,,,,,,,,s_034,4,2020_Dec_30_1633,Reversal,3.2.4,60.08806505318603,
6,exp1.png,exp2.png,,,,,,,,,,,,,,,,,0,0,0,0,0,6,6,6,,,,,,,,,False,5,66,True,exp2.png,exp1.png,trial_left_image,1,exp2.png,4,exp2.png,exp1.png,1,1,non-reversed,correct,0.1538846874521227,0,invalid_lose,393.91285080008674,40,,,,,,,,,,,,,s_034,4,2020_Dec_30_1633,Reversal,3.2.4,60.08806505318603,
7,exp3.png,exp4.png,,,,,,,,,,,,,,,,,0,0,0,0,0,7,7,7,,,,,,,,,False,6,67,True,exp4.png,exp3.png,trial_left_image,1,exp4.png,4,exp3.png,exp4.png,1,3,reversed,incorrect,0.9854860459753788,0,valid_lose,398.31159669999033,40,,,,,,,,,,,,,s_034,4,2020_Dec_30_1633,Reversal,3.2.4,60.08806505318603,
8,exp1.png,exp2.png,,,,,,,,,,,,,,,,,0,0,0,0,0,8,8,8,,,,,,,,,False,7,68,False,exp1.png,exp2.png,trial_left_image,1,exp1.png,4,exp2.png,exp1.png,0,2,non-reversed,incorrect,0.05170159267047425,1,invalid_win,402.3593125999905,41,,,,,,,,,,,,,s_034,4,2020_Dec_30_1633,Reversal,3.2.4,60.08806505318603,
9,exp3.png,exp4.png,,,,,,,,,,,,,,,,,0,0,0,0,0,9,9,9,,,,,,,,,False,8,69,True,exp4.png,exp3.png,trial_left_image,1,exp4.png,4,exp3.png,exp4.png,1,3,reversed,incorrect,0.5695983967649744,0,valid_lose,408.15847110003233,41,,,,,,,,,,,,,s_034,4,2020_Dec_30_1633,Reversal,3.2.4,60.08806505318603,
10,exp1.png,exp2.png,,,,,,,,,,,,,,,,,0,0,0,0,0,10,10,10,,,,,,,,,False,9,70,True,exp2.png,exp1.png,trial_right_image,-1,exp1.png,4,exp2.png,exp1.png,0,2,non-reversed,incorrect,0.23553894687429255,1,invalid_win,412.1062244999921,42,,,,,,,,,,,,,s_034,4,2020_Dec_30_1633,Reversal,3.2.4,60.08806505318603,
11,exp3.png,exp4.png,,,,,,,,,,,,,,,,,0,0,0,0,0,11,11,11,,,,,,,,,False,10,71,True,exp4.png,exp3.png,trial_right_image,-1,exp3.png,4,exp3.png,exp4.png,0,4,reversed,correct,0.7556927099565472,1,valid_win,416.15534850000404,43,,,,,,,,,,,,,s_034,4,2020_Dec_30_1633,Reversal,3.2.4,60.08806505318603,
12,exp1.png,exp2.png,,,,,,,,,,,,,,,,,0,0,0,0,0,12,12,12,,,,,,,,,False,11,72,False,exp1.png,exp2.png,trial_left_image,1,exp1.png,4,exp2.png,exp1.png,0,2,non-reversed,incorrect,0.5823052430965082,0,valid_lose,420.1871909000911,43,,,,,,,,,,,,,s_034,4,2020_Dec_30_1633,Reversal,3.2.4,60.08806505318603,
13,exp3.png,exp4.png,,,,,,,,,,,,,,,,,0,0,0,0,0,13,13,13,,,,,,,,,False,12,73,True,exp4.png,exp3.png,trial_left_image,1,exp4.png,4,exp3.png,exp4.png,1,3,reversed,incorrect,0.2546557816980227,0,valid_lose,424.10242830007337,43,,,,,,,,,,,,,s_034,4,2020_Dec_30_1633,Reversal,3.2.4,60.08806505318603,
14,exp1.png,exp2.png,,,,,,,,,,,,,,,,,0,0,0,0,0,14,14,14,,,,,,,,,False,13,74,True,exp2.png,exp1.png,trial_right_image,-1,exp1.png,4,exp2.png,exp1.png,0,2,non-reversed,incorrect,0.6625170978991418,0,valid_lose,428.5347364000045,43,,,,,,,,,,,,,s_034,4,2020_Dec_30_1633,Reversal,3.2.4,60.08806505318603,
15,exp3.png,exp4.png,,,,,,,,,,,,,,,,,0,0,0,0,0,15,15,15,,,,,,,,,False,14,75,False,exp3.png,exp4.png,trial_left_image,1,exp3.png,4,exp3.png,exp4.png,0,4,reversed,correct,0.11264670674849131,0,invalid_lose,433.7162408999866,43,,,,,,,,,,,,,s_034,4,2020_Dec_30_1633,Reversal,3.2.4,60.08806505318603,
16,exp1.png,exp2.png,,,,,,,,,,,,,,,,,0,0,0,0,0,16,16,16,,,,,,,,,False,15,76,False,exp1.png,exp2.png,trial_right_image,-1,exp2.png,4,exp2.png,exp1.png,1,1,non-reversed,correct,0.28341857095304424,1,valid_win,437.48146810010076,44,,,,,,,,,,,,,s_034,4,2020_Dec_30_1633,Reversal,3.2.4,60.08806505318603,
17,exp3.png,exp4.png,,,,,,,,,,,,,,,,,0,0,0,0,0,17,17,17,,,,,,,,,False,16,77,True,exp4.png,exp3.png,trial_right_image,-1,exp3.png,4,exp3.png,exp4.png,0,4,reversed,correct,0.2561354015424717,1,valid_win,440.5299334001029,45,,,,,,,,,,,,,s_034,4,2020_Dec_30_1633,Reversal,3.2.4,60.08806505318603,
18,exp1.png,exp2.png,,,,,,,,,,,,,,,,,0,0,0,0,0,18,18,18,,,,,,,,,False,17,78,False,exp1.png,exp2.png,trial_right_image,-1,exp2.png,4,exp2.png,exp1.png,1,1,non-reversed,correct,0.08307340907107263,0,invalid_lose,443.4616972000804,45,,,,,,,,,,,,,s_034,4,2020_Dec_30_1633,Reversal,3.2.4,60.08806505318603,
19,exp3.png,exp4.png,,,,,,,,,,,,,,,,,0,0,0,0,0,19,19,19,,,,,,,,,False,18,79,False,exp3.png,exp4.png,trial_right_image,-1,exp4.png,4,exp3.png,exp4.png,1,3,reversed,incorrect,0.8493257533720319,0,valid_lose,446.4603055000771,45,,,,,,,,,,,,,s_034,4,2020_Dec_30_1633,Reversal,3.2.4,60.08806505318603,
20,exp1.png,exp2.png,,,,,,,,,,,,,,,,,0,0,0,0,0,20,20,20,,,,,,,,,False,19,80,False,exp1.png,exp2.png,trial_right_image,-1,exp2.png,4,exp2.png,exp1.png,1,1,non-reversed,correct,0.03179993597838493,0,invalid_lose,449.49512259999756,45,,,,,,,,,,,,,s_034,4,2020_Dec_30_1633,Reversal,3.2.4,60.08806505318603,
,,,,,,,,,,,,,,,,,,,0,0,0,0,,,,,0,0,0,0,,,,,,,,,,,,,,,,,,,,,,,,,,9,10,13,27,,,,,,,,,s_034,4,2020_Dec_30_1633,Reversal,3.2.4,60.08806505318603,
0,exp1.png,exp2.png,,,,,,,,,,,,,,,,,1,0,1,0,0,0,0,0,,,,,,,,,True,,,,,,,,,,,,,,,,,,,,,,,,,,,,,,,,,s_034,4,2020_Dec_30_1633,Reversal,3.2.4,60.08806505318603,
1,exp3.png,exp4.png,,,,,,,,,,,,,,,,,1,0,1,0,0,1,1,1,,,,,,,,,False,20,81,False,exp3.png,exp4.png,trial_right_image,-1,exp4.png,4,exp3.png,exp4.png,1,3,reversed,incorrect,0.9787185696293673,0,valid_lose,471.1370360000292,45,,,,,,,,,,,,,s_034,4,2020_Dec_30_1633,Reversal,3.2.4,60.08806505318603,
2,exp1.png,exp2.png,,,,,,,,,,,,,,,,,1,0,1,0,0,2,2,2,,,,,,,,,False,21,82,False,exp1.png,exp2.png,trial_right_image,-1,exp2.png,4,exp2.png,exp1.png,1,1,non-reversed,correct,0.8522801803761351,1,valid_win,475.06935590005014,46,,,,,,,,,,,,,s_034,4,2020_Dec_30_1633,Reversal,3.2.4,60.08806505318603,
3,exp3.png,exp4.png,,,,,,,,,,,,,,,,,1,0,1,0,0,3,3,3,,,,,,,,,False,22,83,False,exp3.png,exp4.png,trial_left_image,1,exp3.png,4,exp3.png,exp4.png,0,4,reversed,correct,0.9515628093708207,1,valid_win,479.0006372000789,47,,,,,,,,,,,,,s_034,4,2020_Dec_30_1633,Reversal,3.2.4,60.08806505318603,
4,exp1.png,exp2.png,,,,,,,,,,,,,,,,,1,0,1,0,0,4,4,4,,,,,,,,,False,23,84,True,exp2.png,exp1.png,trial_left_image,1,exp2.png,4,exp2.png,exp1.png,1,1,non-reversed,correct,0.9938156204918579,1,valid_win,482.98259040003177,48,,,,,,,,,,,,,s_034,4,2020_Dec_30_1633,Reversal,3.2.4,60.08806505318603,
5,exp3.png,exp4.png,,,,,,,,,,,,,,,,,1,0,1,0,0,5,5,5,,,,,,,,,False,24,85,True,exp4.png,exp3.png,trial_right_image,-1,exp3.png,4,exp3.png,exp4.png,0,4,reversed,correct,0.3740928250441763,1,valid_win,487.0316573000746,49,,,,,,,,,,,,,s_034,4,2020_Dec_30_1633,Reversal,3.2.4,60.08806505318603,
6,exp1.png,exp2.png,,,,,,,,,,,,,,,,,1,0,1,0,0,6,6,6,,,,,,,,,False,25,86,True,exp2.png,exp1.png,trial_left_image,1,exp2.png,4,exp2.png,exp1.png,1,1,non-reversed,correct,0.5588057225676517,1,valid_win,490.9133908000076,50,,,,,,,,,,,,,s_034,4,2020_Dec_30_1633,Reversal,3.2.4,60.08806505318603,
7,exp3.png,exp4.png,,,,,,,,,,,,,,,,,1,0,1,0,0,7,7,7,,,,,,,,,False,26,87,False,exp3.png,exp4.png,trial_left_image,1,exp3.png,4,exp3.png,exp4.png,0,4,reversed,correct,0.2527872431644098,1,valid_win,495.0119043000741,51,,,,,,,,,,,,,s_034,4,2020_Dec_30_1633,Reversal,3.2.4,60.08806505318603,
8,exp1.png,exp2.png,,,,,,,,,,,,,,,,,1,0,1,0,0,8,8,8,,,,,,,,,False,27,88,True,exp2.png,exp1.png,trial_left_image,1,exp2.png,4,exp2.png,exp1.png,1,1,non-reversed,correct,0.027761082819186766,0,invalid_lose,499.11038389999885,51,,,,,,,,,,,,,s_034,4,2020_Dec_30_1633,Reversal,3.2.4,60.08806505318603,
9,exp3.png,exp4.png,,,,,,,,,,,,,,,,,1,0,1,0,0,9,9,9,,,,,,,,,False,28,89,False,exp3.png,exp4.png,trial_left_image,1,exp3.png,4,exp3.png,exp4.png,0,4,reversed,correct,0.3159572629223605,1,valid_win,503.3591468000086,52,,,,,,,,,,,,,s_034,4,2020_Dec_30_1633,Reversal,3.2.4,60.08806505318603,
10,exp1.png,exp2.png,,,,,,,,,,,,,,,,,1,0,1,0,0,10,10,10,,,,,,,,,False,29,90,False,exp1.png,exp2.png,trial_right_image,-1,exp2.png,4,exp2.png,exp1.png,1,1,non-reversed,correct,0.06591523141463873,0,invalid_lose,508.0399638999952,52,,,,,,,,,,,,,s_034,4,2020_Dec_30_1633,Reversal,3.2.4,60.08806505318603,
11,exp3.png,exp4.png,,,,,,,,,,,,,,,,,1,0,1,0,0,11,11,11,,,,,,,,,False,30,91,True,exp4.png,exp3.png,trial_right_image,-1,exp3.png,4,exp3.png,exp4.png,0,4,reversed,correct,0.3838692781519669,1,valid_win,512.0726156000746,53,,,,,,,,,,,,,s_034,4,2020_Dec_30_1633,Reversal,3.2.4,60.08806505318603,
12,exp1.png,exp2.png,,,,,,,,,,,,,,,,,1,0,1,0,0,12,12,12,,,,,,,,,False,31,92,False,exp1.png,exp2.png,trial_left_image,1,exp1.png,4,exp2.png,exp1.png,0,2,non-reversed,incorrect,0.5865441501464418,0,valid_lose,515.9543486000039,53,,,,,,,,,,,,,s_034,4,2020_Dec_30_1633,Reversal,3.2.4,60.08806505318603,
13,exp3.png,exp4.png,,,,,,,,,,,,,,,,,1,0,1,0,0,13,13,13,,,,,,,,,False,32,93,False,exp3.png,exp4.png,trial_left_image,1,exp3.png,4,exp3.png,exp4.png,0,4,reversed,correct,0.9053960703033515,1,valid_win,520.2200654000044,54,,,,,,,,,,,,,s_034,4,2020_Dec_30_1633,Reversal,3.2.4,60.08806505318603,
14,exp1.png,exp2.png,,,,,,,,,,,,,,,,,1,0,1,0,0,14,14,14,,,,,,,,,False,33,94,True,exp2.png,exp1.png,trial_left_image,1,exp2.png,4,exp2.png,exp1.png,1,1,non-reversed,correct,0.8369974529528578,1,valid_win,524.2851637999993,55,,,,,,,,,,,,,s_034,4,2020_Dec_30_1633,Reversal,3.2.4,60.08806505318603,
15,exp3.png,exp4.png,,,,,,,,,,,,,,,,,1,0,1,0,0,15,15,15,,,,,,,,,False,34,95,True,exp4.png,exp3.png,trial_right_image,-1,exp3.png,4,exp3.png,exp4.png,0,4,reversed,correct,0.18528114998365308,0,invalid_lose,528.183878300013,55,,,,,,,,,,,,,s_034,4,2020_Dec_30_1633,Reversal,3.2.4,60.08806505318603,
16,exp1.png,exp2.png,,,,,,,,,,,,,,,,,1,0,1,0,0,16,16,16,,,,,,,,,False,35,96,False,exp1.png,exp2.png,trial_right_image,-1,exp2.png,4,exp2.png,exp1.png,1,1,non-reversed,correct,0.2168857658568274,0,invalid_lose,533.7986244000494,55,,,,,,,,,,,,,s_034,4,2020_Dec_30_1633,Reversal,3.2.4,60.08806505318603,
17,exp3.png,exp4.png,,,,,,,,,,,,,,,,,1,0,1,0,0,17,17,17,,,,,,,,,False,36,97,False,exp3.png,exp4.png,trial_left_image,1,exp3.png,4,exp3.png,exp4.png,0,4,reversed,correct,0.9149936424564988,1,valid_win,537.8640190000879,56,,,,,,,,,,,,,s_034,4,2020_Dec_30_1633,Reversal,3.2.4,60.08806505318603,
18,exp1.png,exp2.png,,,,,,,,,,,,,,,,,1,0,1,0,0,18,18,18,,,,,,,,,False,37,98,True,exp2.png,exp1.png,trial_right_image,-1,exp1.png,4,exp2.png,exp1.png,0,2,non-reversed,incorrect,0.21849121770040625,1,invalid_win,541.7955835000612,57,,,,,,,,,,,,,s_034,4,2020_Dec_30_1633,Reversal,3.2.4,60.08806505318603,
19,exp3.png,exp4.png,,,,,,,,,,,,,,,,,1,0,1,0,0,19,19,19,,,,,,,,,False,38,99,True,exp4.png,exp3.png,trial_left_image,1,exp4.png,4,exp3.png,exp4.png,1,3,reversed,incorrect,0.8892445681234726,0,valid_lose,545.9288626000052,57,,,,,,,,,,,,,s_034,4,2020_Dec_30_1633,Reversal,3.2.4,60.08806505318603,
20,exp1.png,exp2.png,,,,,,,,,,,,,,,,,1,0,1,0,0,20,20,20,,,,,,,,,False,39,100,True,exp2.png,exp1.png,trial_right_image,-1,exp1.png,4,exp2.png,exp1.png,0,2,non-reversed,incorrect,0.40218549726430075,0,valid_lose,549.8268963000737,57,,,,,,,,,,,,,s_034,4,2020_Dec_30_1633,Reversal,3.2.4,60.08806505318603,
,,,,,,,,,,,,,,,,,,,1,0,1,0,,,,,0,0,0,0,,,,,,,,,,,,,,,,,,,,,,,,,,66,46,46,9,,,,,,,,,s_034,4,2020_Dec_30_1633,Reversal,3.2.4,60.08806505318603,
0,exp1.png,exp2.png,,,,,,,,,,,,,,,,,2,0,2,0,0,0,0,0,,,,,,,,,True,,,,,,,,,,,,,,,,,,,,,,,,,,,,,,,,,s_034,4,2020_Dec_30_1633,Reversal,3.2.4,60.08806505318603,
1,exp3.png,exp4.png,,,,,,,,,,,,,,,,,2,0,2,0,0,1,1,1,,,,,,,,,False,40,101,False,exp3.png,exp4.png,trial_left_image,1,exp3.png,4,exp3.png,exp4.png,0,4,reversed,correct,0.8324487967103591,1,valid_win,565.488075900008,58,,,,,,,,,,,,,s_034,4,2020_Dec_30_1633,Reversal,3.2.4,60.08806505318603,
2,exp1.png,exp2.png,,,,,,,,,,,,,,,,,2,0,2,0,0,2,2,2,,,,,,,,,False,41,102,True,exp2.png,exp1.png,trial_right_image,-1,exp1.png,4,exp2.png,exp1.png,0,2,non-reversed,incorrect,0.9883647575625909,0,valid_lose,569.5365385999903,58,,,,,,,,,,,,,s_034,4,2020_Dec_30_1633,Reversal,3.2.4,60.08806505318603,
3,exp3.png,exp4.png,,,,,,,,,,,,,,,,,2,0,2,0,0,3,3,3,,,,,,,,,False,42,103,True,exp4.png,exp3.png,trial_right_image,-1,exp3.png,4,exp3.png,exp4.png,0,4,reversed,correct,0.11991276927351857,0,invalid_lose,573.7018312000437,58,,,,,,,,,,,,,s_034,4,2020_Dec_30_1633,Reversal,3.2.4,60.08806505318603,
4,exp1.png,exp2.png,,,,,,,,,,,,,,,,,2,0,2,0,0,4,4,4,,,,,,,,,False,43,104,True,exp2.png,exp1.png,trial_left_image,1,exp2.png,4,exp2.png,exp1.png,1,1,non-reversed,correct,0.4275706154173038,1,valid_win,578.2169763999991,59,,,,,,,,,,,,,s_034,4,2020_Dec_30_1633,Reversal,3.2.4,60.08806505318603,
5,exp3.png,exp4.png,,,,,,,,,,,,,,,,,2,0,2,0,0,5,5,5,,,,,,,,,False,44,105,False,exp3.png,exp4.png,trial_right_image,-1,exp4.png,4,exp3.png,exp4.png,1,3,reversed,incorrect,0.4449904611315937,0,valid_lose,582.7490330000874,59,,,,,,,,,,,,,s_034,4,2020_Dec_30_1633,Reversal,3.2.4,60.08806505318603,
6,exp1.png,exp2.png,,,,,,,,,,,,,,,,,2,0,2,0,0,6,6,6,,,,,,,,,False,45,106,False,exp1.png,exp2.png,trial_right_image,-1,exp2.png,4,exp2.png,exp1.png,1,1,non-reversed,correct,0.1260057698997511,0,invalid_lose,586.9813067000359,59,,,,,,,,,,,,,s_034,4,2020_Dec_30_1633,Reversal,3.2.4,60.08806505318603,
7,exp3.png,exp4.png,,,,,,,,,,,,,,,,,2,0,2,0,0,7,7,7,,,,,,,,,False,46,107,False,exp3.png,exp4.png,trial_left_image,1,exp3.png,4,exp3.png,exp4.png,0,4,reversed,correct,0.42598329752505015,1,valid_win,592.4794102000305,60,,,,,,,,,,,,,s_034,4,2020_Dec_30_1633,Reversal,3.2.4,60.08806505318603,
8,exp1.png,exp2.png,,,,,,,,,,,,,,,,,2,0,2,0,0,8,8,8,,,,,,,,,False,47,108,True,exp2.png,exp1.png,trial_right_image,-1,exp1.png,4,exp2.png,exp1.png,0,2,non-reversed,incorrect,0.5063383418291024,0,valid_lose,599.0270713000791,60,,,,,,,,,,,,,s_034,4,2020_Dec_30_1633,Reversal,3.2.4,60.08806505318603,
9,exp3.png,exp4.png,,,,,,,,,,,,,,,,,2,0,2,0,0,9,9,9,,,,,,,,,False,48,109,True,exp4.png,exp3.png,trial_right_image,-1,exp3.png,4,exp3.png,exp4.png,0,4,reversed,correct,0.12522150951734146,0,invalid_lose,603.209184300038,60,,,,,,,,,,,,,s_034,4,2020_Dec_30_1633,Reversal,3.2.4,60.08806505318603,
10,exp1.png,exp2.png,,,,,,,,,,,,,,,,,2,0,2,0,0,10,10,10,,,,,,,,,False,49,110,True,exp2.png,exp1.png,trial_left_image,1,exp2.png,4,exp2.png,exp1.png,1,1,non-reversed,correct,0.16933932273356067,0,invalid_lose,608.073770500021,60,,,,,,,,,,,,,s_034,4,2020_Dec_30_1633,Reversal,3.2.4,60.08806505318603,
11,exp3.png,exp4.png,,,,,,,,,,,,,,,,,2,0,2,0,0,11,11,11,,,,,,,,,False,50,111,False,exp3.png,exp4.png,trial_left_image,1,exp3.png,4,exp3.png,exp4.png,0,4,reversed,correct,0.7729329765785271,1,valid_win,612.4725126000121,61,,,,,,,,,,,,,s_034,4,2020_Dec_30_1633,Reversal,3.2.4,60.08806505318603,
12,exp1.png,exp2.png,,,,,,,,,,,,,,,,,2,0,2,0,0,12,12,12,,,,,,,,,False,51,112,True,exp2.png,exp1.png,trial_right_image,-1,exp1.png,4,exp2.png,exp1.png,0,2,non-reversed,incorrect,0.6282022986361729,0,valid_lose,618.8537232000381,61,,,,,,,,,,,,,s_034,4,2020_Dec_30_1633,Reversal,3.2.4,60.08806505318603,
13,exp3.png,exp4.png,,,,,,,,,,,,,,,,,2,0,2,0,0,13,13,13,,,,,,,,,False,52,113,True,exp4.png,exp3.png,trial_left_image,1,exp4.png,4,exp3.png,exp4.png,1,3,reversed,incorrect,0.055957956567350586,1,invalid_win,622.6519363000989,62,,,,,,,,,,,,,s_034,4,2020_Dec_30_1633,Reversal,3.2.4,60.08806505318603,
14,exp1.png,exp2.png,,,,,,,,,,,,,,,,,2,0,2,0,0,14,14,14,,,,,,,,,False,53,114,False,exp1.png,exp2.png,trial_left_image,1,exp1.png,4,exp2.png,exp1.png,0,2,non-reversed,incorrect,0.3687757836562212,0,valid_lose,626.5502004000591,62,,,,,,,,,,,,,s_034,4,2020_Dec_30_1633,Reversal,3.2.4,60.08806505318603,
15,exp3.png,exp4.png,,,,,,,,,,,,,,,,,2,0,2,0,0,15,15,15,,,,,,,,,False,54,115,True,exp4.png,exp3.png,trial_right_image,-1,exp3.png,4,exp3.png,exp4.png,0,4,reversed,correct,0.1775609238229522,0,invalid_lose,630.7993347001029,62,,,,,,,,,,,,,s_034,4,2020_Dec_30_1633,Reversal,3.2.4,60.08806505318603,
16,exp1.png,exp2.png,,,,,,,,,,,,,,,,,2,0,2,0,0,16,16,16,,,,,,,,,False,55,116,False,exp1.png,exp2.png,trial_left_image,1,exp1.png,4,exp2.png,exp1.png,0,2,non-reversed,incorrect,0.14281970145117906,1,invalid_win,634.6322123000864,63,,,,,,,,,,,,,s_034,4,2020_Dec_30_1633,Reversal,3.2.4,60.08806505318603,
17,exp3.png,exp4.png,,,,,,,,,,,,,,,,,2,0,2,0,0,17,17,17,,,,,,,,,False,56,117,False,exp3.png,exp4.png,trial_right_image,-1,exp4.png,4,exp3.png,exp4.png,1,3,reversed,incorrect,0.24964529645970934,1,invalid_win,637.511314000003,64,,,,,,,,,,,,,s_034,4,2020_Dec_30_1633,Reversal,3.2.4,60.08806505318603,
18,exp1.png,exp2.png,,,,,,,,,,,,,,,,,2,0,2,0,0,18,18,18,,,,,,,,,False,57,118,False,exp1.png,exp2.png,trial_left_image,1,exp1.png,4,exp2.png,exp1.png,0,2,non-reversed,incorrect,0.8041905589822184,0,valid_lose,640.411246700096,64,,,,,,,,,,,,,s_034,4,2020_Dec_30_1633,Reversal,3.2.4,60.08806505318603,
19,exp3.png,exp4.png,,,,,,,,,,,,,,,,,2,0,2,0,0,19,19,19,,,,,,,,,False,58,119,False,exp3.png,exp4.png,trial_right_image,-1,exp4.png,4,exp3.png,exp4.png,1,3,reversed,incorrect,0.37489646286113,0,valid_lose,644.5614264000906,64,,,,,,,,,,,,,s_034,4,2020_Dec_30_1633,Reversal,3.2.4,60.08806505318603,
20,exp1.png,exp2.png,,,,,,,,,,,,,,,,,2,0,2,0,0,20,20,20,,,,,,,,,False,59,120,True,exp2.png,exp1.png,trial_left_image,1,exp2.png,4,exp2.png,exp1.png,1,1,non-reversed,correct,0.42707648191828407,1,valid_win,647.4755827999907,65,,,,,,,,,,,,,s_034,4,2020_Dec_30_1633,Reversal,3.2.4,60.08806505318603,
,,,,,,,,,,,,,,,,,,,2,0,2,0,,,,,0,0,0,0,,,,,,,,,,,,,,,,,,,,,,,,,,50.0,43,50.0,16,,,,,,,,,s_034,4,2020_Dec_30_1633,Reversal,3.2.4,60.08806505318603,
,,,,,,,,,,,,,,,,,,,,,,,,,,,,,,,,,,,,,,,,,,,,,,,,,,,,,,,65,,,,,,82,47,35,285.33194699999876,0,space,44.308908300008625,s_034,4,2020_Dec_30_1633,Reversal,3.2.4,60.08806505318603,
