trial_index,trial_image1_file,trial_image2_file,learning_outer_loop.thisRepN,learning_outer_loop.thisTrialN,learning_outer_loop.thisN,learning_outer_loop.thisIndex,learning_inner_loop.thisRepN,learning_inner_loop.thisTrialN,learning_inner_loop.thisN,learning_inner_loop.thisIndex,learning_estimation_outer_loop.thisRepN,learning_estimation_outer_loop.thisTrialN,learning_estimation_outer_loop.thisN,learning_estimation_outer_loop.thisIndex,learning_estimation_inner_loop.thisRepN,learning_estimation_inner_loop.thisTrialN,learning_estimation_inner_loop.thisN,learning_estimation_inner_loop.thisIndex,reversal_outer_loop.thisRepN,reversal_outer_loop.thisTrialN,reversal_outer_loop.thisN,reversal_outer_loop.thisIndex,reversal_inner_loop.thisRepN,reversal_inner_loop.thisTrialN,reversal_inner_loop.thisN,reversal_inner_loop.thisIndex,reversal_estimation_outer_loop.thisRepN,reversal_estimation_outer_loop.thisTrialN,reversal_estimation_outer_loop.thisN,reversal_estimation_outer_loop.thisIndex,reversal_estimation_inner_loop.thisRepN,reversal_estimation_inner_loop.thisTrialN,reversal_estimation_inner_loop.thisN,reversal_estimation_inner_loop.thisIndex,skipped,total_trial_counter,trial_num,left_right_flip,left_image_file,right_image_file,clicked_stimulus_side,side,clicked_stimulus,version,high_prob_image_file,low_prob_image_file,choice_a,choice_b,pair_type,correct,trial_feedback_random,reward,trial_type,overall_time_after_trial,score,estimation_exp1.png,estimation_exp2.png,estimation_exp3.png,estimation_exp4.png,total_learning_time,total_correct,learning_correct,reversal_correct,total_reversal_time,extra_block,end_experiment.keys,end_experiment.rt,participant,ver,date,expName,psychopyVersion,frameRate,
0,exp1.png,exp2.png,0,0,0,0,0,0,0,0,,,,,,,,,,,,,,,,,,,,,,,,,True,,,,,,,,,,,,,,,,,,,,,,,,,,,,,,,,,s_039,4,2021_Jan_10_1046,Reversal,3.2.4,59.962679228400674,
1,exp3.png,exp4.png,0,0,0,0,0,1,1,1,,,,,,,,,,,,,,,,,,,,,,,,,False,0,1,False,exp3.png,exp4.png,trial_right_image,-1,exp4.png,4,exp4.png,exp3.png,1,3,reversed,correct,0.21024010114740121,0,invalid_lose,3.354324599999927,0,,,,,,,,,,,,,s_039,4,2021_Jan_10_1046,Reversal,3.2.4,59.962679228400674,
2,exp1.png,exp2.png,0,0,0,0,0,2,2,2,,,,,,,,,,,,,,,,,,,,,,,,,False,1,2,True,exp2.png,exp1.png,trial_left_image,1,exp2.png,4,exp2.png,exp1.png,1,1,non-reversed,correct,0.4979142320895156,1,valid_win,10.00235879999991,1,,,,,,,,,,,,,s_039,4,2021_Jan_10_1046,Reversal,3.2.4,59.962679228400674,
3,exp3.png,exp4.png,0,0,0,0,0,3,3,3,,,,,,,,,,,,,,,,,,,,,,,,,False,2,3,False,exp3.png,exp4.png,trial_right_image,-1,exp4.png,4,exp4.png,exp3.png,1,3,reversed,correct,0.32794382499990693,1,valid_win,14.635420200000226,2,,,,,,,,,,,,,s_039,4,2021_Jan_10_1046,Reversal,3.2.4,59.962679228400674,
4,exp1.png,exp2.png,0,0,0,0,0,4,4,4,,,,,,,,,,,,,,,,,,,,,,,,,False,3,4,True,exp2.png,exp1.png,trial_left_image,1,exp2.png,4,exp2.png,exp1.png,1,1,non-reversed,correct,0.9639962834727483,1,valid_win,19.33261850000008,3,,,,,,,,,,,,,s_039,4,2021_Jan_10_1046,Reversal,3.2.4,59.962679228400674,
5,exp3.png,exp4.png,0,0,0,0,0,5,5,5,,,,,,,,,,,,,,,,,,,,,,,,,False,4,5,False,exp3.png,exp4.png,trial_right_image,-1,exp4.png,4,exp4.png,exp3.png,1,3,reversed,correct,0.8542454156416496,1,valid_win,23.84968220000019,4,,,,,,,,,,,,,s_039,4,2021_Jan_10_1046,Reversal,3.2.4,59.962679228400674,
6,exp1.png,exp2.png,0,0,0,0,0,6,6,6,,,,,,,,,,,,,,,,,,,,,,,,,False,5,6,True,exp2.png,exp1.png,trial_left_image,1,exp2.png,4,exp2.png,exp1.png,1,1,non-reversed,correct,0.9748899352088762,1,valid_win,28.378946799999994,5,,,,,,,,,,,,,s_039,4,2021_Jan_10_1046,Reversal,3.2.4,59.962679228400674,
7,exp3.png,exp4.png,0,0,0,0,0,7,7,7,,,,,,,,,,,,,,,,,,,,,,,,,False,6,7,False,exp3.png,exp4.png,trial_right_image,-1,exp4.png,4,exp4.png,exp3.png,1,3,reversed,correct,0.7841214976060638,1,valid_win,32.529004500000156,6,,,,,,,,,,,,,s_039,4,2021_Jan_10_1046,Reversal,3.2.4,59.962679228400674,
8,exp1.png,exp2.png,0,0,0,0,0,8,8,8,,,,,,,,,,,,,,,,,,,,,,,,,False,7,8,False,exp1.png,exp2.png,trial_right_image,-1,exp2.png,4,exp2.png,exp1.png,1,1,non-reversed,correct,0.862691575399094,1,valid_win,36.4946831000002,7,,,,,,,,,,,,,s_039,4,2021_Jan_10_1046,Reversal,3.2.4,59.962679228400674,
9,exp3.png,exp4.png,0,0,0,0,0,9,9,9,,,,,,,,,,,,,,,,,,,,,,,,,False,8,9,True,exp4.png,exp3.png,trial_left_image,1,exp4.png,4,exp4.png,exp3.png,1,3,reversed,correct,0.39108823452596886,1,valid_win,43.20892790000016,8,,,,,,,,,,,,,s_039,4,2021_Jan_10_1046,Reversal,3.2.4,59.962679228400674,
10,exp1.png,exp2.png,0,0,0,0,0,10,10,10,,,,,,,,,,,,,,,,,,,,,,,,,False,9,10,False,exp1.png,exp2.png,trial_right_image,-1,exp2.png,4,exp2.png,exp1.png,1,1,non-reversed,correct,0.7500278752698372,1,valid_win,47.35676590000003,9,,,,,,,,,,,,,s_039,4,2021_Jan_10_1046,Reversal,3.2.4,59.962679228400674,
11,exp3.png,exp4.png,0,0,0,0,0,11,11,11,,,,,,,,,,,,,,,,,,,,,,,,,False,10,11,True,exp4.png,exp3.png,trial_left_image,1,exp4.png,4,exp4.png,exp3.png,1,3,reversed,correct,0.6850961452340948,1,valid_win,51.87265049999996,10,,,,,,,,,,,,,s_039,4,2021_Jan_10_1046,Reversal,3.2.4,59.962679228400674,
12,exp1.png,exp2.png,0,0,0,0,0,12,12,12,,,,,,,,,,,,,,,,,,,,,,,,,False,11,12,True,exp2.png,exp1.png,trial_left_image,1,exp2.png,4,exp2.png,exp1.png,1,1,non-reversed,correct,0.5350732275347696,1,valid_win,56.05460780000021,11,,,,,,,,,,,,,s_039,4,2021_Jan_10_1046,Reversal,3.2.4,59.962679228400674,
13,exp3.png,exp4.png,0,0,0,0,0,13,13,13,,,,,,,,,,,,,,,,,,,,,,,,,False,12,13,True,exp4.png,exp3.png,trial_left_image,1,exp4.png,4,exp4.png,exp3.png,1,3,reversed,correct,0.6784248513337433,1,valid_win,60.20373410000002,12,,,,,,,,,,,,,s_039,4,2021_Jan_10_1046,Reversal,3.2.4,59.962679228400674,
14,exp1.png,exp2.png,0,0,0,0,0,14,14,14,,,,,,,,,,,,,,,,,,,,,,,,,False,13,14,True,exp2.png,exp1.png,trial_left_image,1,exp2.png,4,exp2.png,exp1.png,1,1,non-reversed,correct,0.03758795294821782,0,invalid_lose,64.23433010000008,12,,,,,,,,,,,,,s_039,4,2021_Jan_10_1046,Reversal,3.2.4,59.962679228400674,
15,exp3.png,exp4.png,0,0,0,0,0,15,15,15,,,,,,,,,,,,,,,,,,,,,,,,,False,14,15,False,exp3.png,exp4.png,trial_right_image,-1,exp4.png,4,exp4.png,exp3.png,1,3,reversed,correct,0.6932433044540425,1,valid_win,68.26572450000003,13,,,,,,,,,,,,,s_039,4,2021_Jan_10_1046,Reversal,3.2.4,59.962679228400674,
16,exp1.png,exp2.png,0,0,0,0,0,16,16,16,,,,,,,,,,,,,,,,,,,,,,,,,False,15,16,False,exp1.png,exp2.png,trial_right_image,-1,exp2.png,4,exp2.png,exp1.png,1,1,non-reversed,correct,0.8333113277312435,1,valid_win,72.19953380000015,14,,,,,,,,,,,,,s_039,4,2021_Jan_10_1046,Reversal,3.2.4,59.962679228400674,
17,exp3.png,exp4.png,0,0,0,0,0,17,17,17,,,,,,,,,,,,,,,,,,,,,,,,,False,16,17,True,exp4.png,exp3.png,trial_left_image,1,exp4.png,4,exp4.png,exp3.png,1,3,reversed,correct,0.44227483723926886,1,valid_win,76.4147954,15,,,,,,,,,,,,,s_039,4,2021_Jan_10_1046,Reversal,3.2.4,59.962679228400674,
18,exp1.png,exp2.png,0,0,0,0,0,18,18,18,,,,,,,,,,,,,,,,,,,,,,,,,False,17,18,True,exp2.png,exp1.png,trial_left_image,1,exp2.png,4,exp2.png,exp1.png,1,1,non-reversed,correct,0.0004937898976752342,0,invalid_lose,80.47996270000021,15,,,,,,,,,,,,,s_039,4,2021_Jan_10_1046,Reversal,3.2.4,59.962679228400674,
19,exp3.png,exp4.png,0,0,0,0,0,19,19,19,,,,,,,,,,,,,,,,,,,,,,,,,False,18,19,False,exp3.png,exp4.png,trial_right_image,-1,exp4.png,4,exp4.png,exp3.png,1,3,reversed,correct,0.30423826926677067,1,valid_win,84.57809529999986,16,,,,,,,,,,,,,s_039,4,2021_Jan_10_1046,Reversal,3.2.4,59.962679228400674,
20,exp1.png,exp2.png,0,0,0,0,0,20,20,20,,,,,,,,,,,,,,,,,,,,,,,,,False,19,20,False,exp1.png,exp2.png,trial_right_image,-1,exp2.png,4,exp2.png,exp1.png,1,1,non-reversed,correct,0.9346603999330165,1,valid_win,88.84308240000018,17,,,,,,,,,,,,,s_039,4,2021_Jan_10_1046,Reversal,3.2.4,59.962679228400674,
,,,0,0,0,0,,,,,0,0,0,0,,,,,,,,,,,,,,,,,,,,,,,,,,,,,,,,,,,,,,,,,,6,90,13,91,,,,,,,,,s_039,4,2021_Jan_10_1046,Reversal,3.2.4,59.962679228400674,
0,exp1.png,exp2.png,1,0,1,0,0,0,0,0,,,,,,,,,,,,,,,,,,,,,,,,,True,,,,,,,,,,,,,,,,,,,,,,,,,,,,,,,,,s_039,4,2021_Jan_10_1046,Reversal,3.2.4,59.962679228400674,
1,exp3.png,exp4.png,1,0,1,0,0,1,1,1,,,,,,,,,,,,,,,,,,,,,,,,,False,20,21,True,exp4.png,exp3.png,trial_left_image,1,exp4.png,4,exp4.png,exp3.png,1,3,reversed,correct,0.0400392137788812,0,invalid_lose,114.53460739999991,17,,,,,,,,,,,,,s_039,4,2021_Jan_10_1046,Reversal,3.2.4,59.962679228400674,
2,exp1.png,exp2.png,1,0,1,0,0,2,2,2,,,,,,,,,,,,,,,,,,,,,,,,,False,21,22,True,exp2.png,exp1.png,trial_right_image,-1,exp1.png,4,exp2.png,exp1.png,0,2,non-reversed,incorrect,0.6726787301011169,0,valid_lose,118.56501530000014,17,,,,,,,,,,,,,s_039,4,2021_Jan_10_1046,Reversal,3.2.4,59.962679228400674,
3,exp3.png,exp4.png,1,0,1,0,0,3,3,3,,,,,,,,,,,,,,,,,,,,,,,,,False,22,23,True,exp4.png,exp3.png,trial_right_image,-1,exp3.png,4,exp4.png,exp3.png,0,4,reversed,incorrect,0.7393110115827045,0,valid_lose,122.79817839999987,17,,,,,,,,,,,,,s_039,4,2021_Jan_10_1046,Reversal,3.2.4,59.962679228400674,
4,exp1.png,exp2.png,1,0,1,0,0,4,4,4,,,,,,,,,,,,,,,,,,,,,,,,,False,23,24,True,exp2.png,exp1.png,trial_right_image,-1,exp1.png,4,exp2.png,exp1.png,0,2,non-reversed,incorrect,0.7912540734037224,0,valid_lose,128.24697520000018,17,,,,,,,,,,,,,s_039,4,2021_Jan_10_1046,Reversal,3.2.4,59.962679228400674,
5,exp3.png,exp4.png,1,0,1,0,0,5,5,5,,,,,,,,,,,,,,,,,,,,,,,,,False,24,25,False,exp3.png,exp4.png,trial_right_image,-1,exp4.png,4,exp4.png,exp3.png,1,3,reversed,correct,0.4267079524367542,1,valid_win,132.4772366000002,18,,,,,,,,,,,,,s_039,4,2021_Jan_10_1046,Reversal,3.2.4,59.962679228400674,
6,exp1.png,exp2.png,1,0,1,0,0,6,6,6,,,,,,,,,,,,,,,,,,,,,,,,,False,25,26,True,exp2.png,exp1.png,trial_left_image,1,exp2.png,4,exp2.png,exp1.png,1,1,non-reversed,correct,0.34798734302786705,1,valid_win,136.59250650000013,19,,,,,,,,,,,,,s_039,4,2021_Jan_10_1046,Reversal,3.2.4,59.962679228400674,
7,exp3.png,exp4.png,1,0,1,0,0,7,7,7,,,,,,,,,,,,,,,,,,,,,,,,,False,26,27,True,exp4.png,exp3.png,trial_left_image,1,exp4.png,4,exp4.png,exp3.png,1,3,reversed,correct,0.7014823303128311,1,valid_win,141.45930929999986,20,,,,,,,,,,,,,s_039,4,2021_Jan_10_1046,Reversal,3.2.4,59.962679228400674,
8,exp1.png,exp2.png,1,0,1,0,0,8,8,8,,,,,,,,,,,,,,,,,,,,,,,,,False,27,28,True,exp2.png,exp1.png,trial_left_image,1,exp2.png,4,exp2.png,exp1.png,1,1,non-reversed,correct,0.10724223818788958,0,invalid_lose,145.6081419000002,20,,,,,,,,,,,,,s_039,4,2021_Jan_10_1046,Reversal,3.2.4,59.962679228400674,
9,exp3.png,exp4.png,1,0,1,0,0,9,9,9,,,,,,,,,,,,,,,,,,,,,,,,,False,28,29,False,exp3.png,exp4.png,trial_right_image,-1,exp4.png,4,exp4.png,exp3.png,1,3,reversed,correct,0.28221760584644506,1,valid_win,149.93786529999988,21,,,,,,,,,,,,,s_039,4,2021_Jan_10_1046,Reversal,3.2.4,59.962679228400674,
10,exp1.png,exp2.png,1,0,1,0,0,10,10,10,,,,,,,,,,,,,,,,,,,,,,,,,False,29,30,False,exp1.png,exp2.png,trial_right_image,-1,exp2.png,4,exp2.png,exp1.png,1,1,non-reversed,correct,0.9544594258534498,1,valid_win,154.3547010000002,22,,,,,,,,,,,,,s_039,4,2021_Jan_10_1046,Reversal,3.2.4,59.962679228400674,
11,exp3.png,exp4.png,1,0,1,0,0,11,11,11,,,,,,,,,,,,,,,,,,,,,,,,,False,30,31,True,exp4.png,exp3.png,trial_right_image,-1,exp3.png,4,exp4.png,exp3.png,0,4,reversed,incorrect,0.05597717474384556,1,invalid_win,159.01914080000006,23,,,,,,,,,,,,,s_039,4,2021_Jan_10_1046,Reversal,3.2.4,59.962679228400674,
12,exp1.png,exp2.png,1,0,1,0,0,12,12,12,,,,,,,,,,,,,,,,,,,,,,,,,False,31,32,False,exp1.png,exp2.png,trial_right_image,-1,exp2.png,4,exp2.png,exp1.png,1,1,non-reversed,correct,0.5683828442215845,1,valid_win,163.50190380000004,24,,,,,,,,,,,,,s_039,4,2021_Jan_10_1046,Reversal,3.2.4,59.962679228400674,
13,exp3.png,exp4.png,1,0,1,0,0,13,13,13,,,,,,,,,,,,,,,,,,,,,,,,,False,32,33,False,exp3.png,exp4.png,trial_right_image,-1,exp4.png,4,exp4.png,exp3.png,1,3,reversed,correct,0.09295080449938498,0,invalid_lose,167.93375659999992,24,,,,,,,,,,,,,s_039,4,2021_Jan_10_1046,Reversal,3.2.4,59.962679228400674,
14,exp1.png,exp2.png,1,0,1,0,0,14,14,14,,,,,,,,,,,,,,,,,,,,,,,,,False,33,34,True,exp2.png,exp1.png,trial_right_image,-1,exp1.png,4,exp2.png,exp1.png,0,2,non-reversed,incorrect,0.00013356814582110577,1,invalid_win,173.4485823,25,,,,,,,,,,,,,s_039,4,2021_Jan_10_1046,Reversal,3.2.4,59.962679228400674,
15,exp3.png,exp4.png,1,0,1,0,0,15,15,15,,,,,,,,,,,,,,,,,,,,,,,,,False,34,35,False,exp3.png,exp4.png,trial_right_image,-1,exp4.png,4,exp4.png,exp3.png,1,3,reversed,correct,0.6031011623981101,1,valid_win,177.5304328000002,26,,,,,,,,,,,,,s_039,4,2021_Jan_10_1046,Reversal,3.2.4,59.962679228400674,
16,exp1.png,exp2.png,1,0,1,0,0,16,16,16,,,,,,,,,,,,,,,,,,,,,,,,,False,35,36,False,exp1.png,exp2.png,trial_right_image,-1,exp2.png,4,exp2.png,exp1.png,1,1,non-reversed,correct,0.5591776094802712,1,valid_win,182.07862590000013,27,,,,,,,,,,,,,s_039,4,2021_Jan_10_1046,Reversal,3.2.4,59.962679228400674,
17,exp3.png,exp4.png,1,0,1,0,0,17,17,17,,,,,,,,,,,,,,,,,,,,,,,,,False,36,37,False,exp3.png,exp4.png,trial_right_image,-1,exp4.png,4,exp4.png,exp3.png,1,3,reversed,correct,0.32581412195682813,1,valid_win,186.8759126,28,,,,,,,,,,,,,s_039,4,2021_Jan_10_1046,Reversal,3.2.4,59.962679228400674,
18,exp1.png,exp2.png,1,0,1,0,0,18,18,18,,,,,,,,,,,,,,,,,,,,,,,,,False,37,38,False,exp1.png,exp2.png,trial_right_image,-1,exp2.png,4,exp2.png,exp1.png,1,1,non-reversed,correct,0.11460499833505244,0,invalid_lose,191.45766460000004,28,,,,,,,,,,,,,s_039,4,2021_Jan_10_1046,Reversal,3.2.4,59.962679228400674,
19,exp3.png,exp4.png,1,0,1,0,0,19,19,19,,,,,,,,,,,,,,,,,,,,,,,,,False,38,39,True,exp4.png,exp3.png,trial_right_image,-1,exp3.png,4,exp4.png,exp3.png,0,4,reversed,incorrect,0.18759770277980936,1,invalid_win,198.19000200000028,29,,,,,,,,,,,,,s_039,4,2021_Jan_10_1046,Reversal,3.2.4,59.962679228400674,
20,exp1.png,exp2.png,1,0,1,0,0,20,20,20,,,,,,,,,,,,,,,,,,,,,,,,,False,39,40,False,exp1.png,exp2.png,trial_right_image,-1,exp2.png,4,exp2.png,exp1.png,1,1,non-reversed,correct,0.5823094381437751,1,valid_win,202.57163390000005,30,,,,,,,,,,,,,s_039,4,2021_Jan_10_1046,Reversal,3.2.4,59.962679228400674,
,,,1,0,1,0,,,,,0,0,0,0,,,,,,,,,,,,,,,,,,,,,,,,,,,,,,,,,,,,,,,,,,11,83,4,88,,,,,,,,,s_039,4,2021_Jan_10_1046,Reversal,3.2.4,59.962679228400674,
0,exp1.png,exp2.png,2,0,2,0,0,0,0,0,,,,,,,,,,,,,,,,,,,,,,,,,True,,,,,,,,,,,,,,,,,,,,,,,,,,,,,,,,,s_039,4,2021_Jan_10_1046,Reversal,3.2.4,59.962679228400674,
1,exp3.png,exp4.png,2,0,2,0,0,1,1,1,,,,,,,,,,,,,,,,,,,,,,,,,False,40,41,False,exp3.png,exp4.png,trial_left_image,1,exp3.png,4,exp4.png,exp3.png,0,4,reversed,incorrect,0.4199071570737244,0,valid_lose,225.64771699999983,30,,,,,,,,,,,,,s_039,4,2021_Jan_10_1046,Reversal,3.2.4,59.962679228400674,
2,exp1.png,exp2.png,2,0,2,0,0,2,2,2,,,,,,,,,,,,,,,,,,,,,,,,,False,41,42,True,exp2.png,exp1.png,trial_left_image,1,exp2.png,4,exp2.png,exp1.png,1,1,non-reversed,correct,0.8493244817857478,1,valid_win,229.89547709999988,31,,,,,,,,,,,,,s_039,4,2021_Jan_10_1046,Reversal,3.2.4,59.962679228400674,
3,exp3.png,exp4.png,2,0,2,0,0,3,3,3,,,,,,,,,,,,,,,,,,,,,,,,,False,42,43,False,exp3.png,exp4.png,trial_left_image,1,exp3.png,4,exp4.png,exp3.png,0,4,reversed,incorrect,0.7165993050554912,0,valid_lose,236.34213320000026,31,,,,,,,,,,,,,s_039,4,2021_Jan_10_1046,Reversal,3.2.4,59.962679228400674,
4,exp1.png,exp2.png,2,0,2,0,0,4,4,4,,,,,,,,,,,,,,,,,,,,,,,,,False,43,44,True,exp2.png,exp1.png,trial_left_image,1,exp2.png,4,exp2.png,exp1.png,1,1,non-reversed,correct,0.8583801934747269,1,valid_win,240.49243350000006,32,,,,,,,,,,,,,s_039,4,2021_Jan_10_1046,Reversal,3.2.4,59.962679228400674,
5,exp3.png,exp4.png,2,0,2,0,0,5,5,5,,,,,,,,,,,,,,,,,,,,,,,,,False,44,45,True,exp4.png,exp3.png,trial_right_image,-1,exp3.png,4,exp4.png,exp3.png,0,4,reversed,incorrect,0.5802715453864075,0,valid_lose,245.1575038000001,32,,,,,,,,,,,,,s_039,4,2021_Jan_10_1046,Reversal,3.2.4,59.962679228400674,
6,exp1.png,exp2.png,2,0,2,0,0,6,6,6,,,,,,,,,,,,,,,,,,,,,,,,,False,45,46,True,exp2.png,exp1.png,trial_left_image,1,exp2.png,4,exp2.png,exp1.png,1,1,non-reversed,correct,0.03265785501276075,0,invalid_lose,249.3894961000001,32,,,,,,,,,,,,,s_039,4,2021_Jan_10_1046,Reversal,3.2.4,59.962679228400674,
7,exp3.png,exp4.png,2,0,2,0,0,7,7,7,,,,,,,,,,,,,,,,,,,,,,,,,False,46,47,True,exp4.png,exp3.png,trial_left_image,1,exp4.png,4,exp4.png,exp3.png,1,3,reversed,correct,0.6014378855240874,1,valid_win,254.15306950000013,33,,,,,,,,,,,,,s_039,4,2021_Jan_10_1046,Reversal,3.2.4,59.962679228400674,
8,exp1.png,exp2.png,2,0,2,0,0,8,8,8,,,,,,,,,,,,,,,,,,,,,,,,,False,47,48,False,exp1.png,exp2.png,trial_right_image,-1,exp2.png,4,exp2.png,exp1.png,1,1,non-reversed,correct,0.8357299326050268,1,valid_win,259.00286670000014,34,,,,,,,,,,,,,s_039,4,2021_Jan_10_1046,Reversal,3.2.4,59.962679228400674,
9,exp3.png,exp4.png,2,0,2,0,0,9,9,9,,,,,,,,,,,,,,,,,,,,,,,,,False,48,49,False,exp3.png,exp4.png,trial_right_image,-1,exp4.png,4,exp4.png,exp3.png,1,3,reversed,correct,0.20344218227423005,0,invalid_lose,263.7672461000002,34,,,,,,,,,,,,,s_039,4,2021_Jan_10_1046,Reversal,3.2.4,59.962679228400674,
10,exp1.png,exp2.png,2,0,2,0,0,10,10,10,,,,,,,,,,,,,,,,,,,,,,,,,False,49,50,False,exp1.png,exp2.png,trial_right_image,-1,exp2.png,4,exp2.png,exp1.png,1,1,non-reversed,correct,0.5595480357079614,1,valid_win,269.6305688000002,35,,,,,,,,,,,,,s_039,4,2021_Jan_10_1046,Reversal,3.2.4,59.962679228400674,
11,exp3.png,exp4.png,2,0,2,0,0,11,11,11,,,,,,,,,,,,,,,,,,,,,,,,,False,50,51,False,exp3.png,exp4.png,trial_left_image,1,exp3.png,4,exp4.png,exp3.png,0,4,reversed,incorrect,0.08250273636809968,1,invalid_win,274.1957262000001,36,,,,,,,,,,,,,s_039,4,2021_Jan_10_1046,Reversal,3.2.4,59.962679228400674,
12,exp1.png,exp2.png,2,0,2,0,0,12,12,12,,,,,,,,,,,,,,,,,,,,,,,,,False,51,52,True,exp2.png,exp1.png,trial_left_image,1,exp2.png,4,exp2.png,exp1.png,1,1,non-reversed,correct,0.583721906545477,1,valid_win,278.6123716000002,37,,,,,,,,,,,,,s_039,4,2021_Jan_10_1046,Reversal,3.2.4,59.962679228400674,
13,exp3.png,exp4.png,2,0,2,0,0,13,13,13,,,,,,,,,,,,,,,,,,,,,,,,,False,52,53,False,exp3.png,exp4.png,trial_left_image,1,exp3.png,4,exp4.png,exp3.png,0,4,reversed,incorrect,0.1070952739801696,1,invalid_win,282.728247,38,,,,,,,,,,,,,s_039,4,2021_Jan_10_1046,Reversal,3.2.4,59.962679228400674,
14,exp1.png,exp2.png,2,0,2,0,0,14,14,14,,,,,,,,,,,,,,,,,,,,,,,,,False,53,54,False,exp1.png,exp2.png,trial_left_image,1,exp1.png,4,exp2.png,exp1.png,0,2,non-reversed,incorrect,0.5208789328736044,0,valid_lose,288.1091799000001,38,,,,,,,,,,,,,s_039,4,2021_Jan_10_1046,Reversal,3.2.4,59.962679228400674,
15,exp3.png,exp4.png,2,0,2,0,0,15,15,15,,,,,,,,,,,,,,,,,,,,,,,,,False,54,55,True,exp4.png,exp3.png,trial_left_image,1,exp4.png,4,exp4.png,exp3.png,1,3,reversed,correct,0.7455067511597876,1,valid_win,293.2742631000001,39,,,,,,,,,,,,,s_039,4,2021_Jan_10_1046,Reversal,3.2.4,59.962679228400674,
16,exp1.png,exp2.png,2,0,2,0,0,16,16,16,,,,,,,,,,,,,,,,,,,,,,,,,False,55,56,True,exp2.png,exp1.png,trial_left_image,1,exp2.png,4,exp2.png,exp1.png,1,1,non-reversed,correct,0.4722443083246183,1,valid_win,299.0387341999999,40,,,,,,,,,,,,,s_039,4,2021_Jan_10_1046,Reversal,3.2.4,59.962679228400674,
17,exp3.png,exp4.png,2,0,2,0,0,17,17,17,,,,,,,,,,,,,,,,,,,,,,,,,False,56,57,True,exp4.png,exp3.png,trial_left_image,1,exp4.png,4,exp4.png,exp3.png,1,3,reversed,correct,0.06162464036203119,0,invalid_lose,305.7531177999999,40,,,,,,,,,,,,,s_039,4,2021_Jan_10_1046,Reversal,3.2.4,59.962679228400674,
18,exp1.png,exp2.png,2,0,2,0,0,18,18,18,,,,,,,,,,,,,,,,,,,,,,,,,False,57,58,False,exp1.png,exp2.png,trial_right_image,-1,exp2.png,4,exp2.png,exp1.png,1,1,non-reversed,correct,0.24191777298592487,0,invalid_lose,315.66622110000026,40,,,,,,,,,,,,,s_039,4,2021_Jan_10_1046,Reversal,3.2.4,59.962679228400674,
19,exp3.png,exp4.png,2,0,2,0,0,19,19,19,,,,,,,,,,,,,,,,,,,,,,,,,False,58,59,False,exp3.png,exp4.png,trial_right_image,-1,exp4.png,4,exp4.png,exp3.png,1,3,reversed,correct,0.4755266345944218,1,valid_win,321.93083190000016,41,,,,,,,,,,,,,s_039,4,2021_Jan_10_1046,Reversal,3.2.4,59.962679228400674,
20,exp1.png,exp2.png,2,0,2,0,0,20,20,20,,,,,,,,,,,,,,,,,,,,,,,,,False,59,60,True,exp2.png,exp1.png,trial_left_image,1,exp2.png,4,exp2.png,exp1.png,1,1,non-reversed,correct,0.7590272226010571,1,valid_win,328.07769480000024,42,,,,,,,,,,,,,s_039,4,2021_Jan_10_1046,Reversal,3.2.4,59.962679228400674,
,,,2,0,2,0,,,,,0,0,0,0,,,,,,,,,,,,,,,,,,,,,,,,,,,,,,,,,,,,,,,,,,6,11,9,88,,,,,,,,,s_039,4,2021_Jan_10_1046,Reversal,3.2.4,59.962679228400674,
0,exp1.png,exp2.png,3,0,3,0,0,0,0,0,,,,,,,,,,,,,,,,,,,,,,,,,True,,,,,,,,,,,,,,,,,,,,,,,,,,,,,,,,,s_039,4,2021_Jan_10_1046,Reversal,3.2.4,59.962679228400674,
1,exp3.png,exp4.png,3,0,3,0,0,1,1,1,,,,,,,,,,,,,,,,,,,,,,,,,False,60,61,True,exp4.png,exp3.png,trial_left_image,1,exp4.png,4,exp4.png,exp3.png,1,3,reversed,correct,0.6565000227366737,1,valid_win,372.2311633999998,43,,,,,,,,,,,,,s_039,4,2021_Jan_10_1046,Reversal,3.2.4,59.962679228400674,
2,exp1.png,exp2.png,3,0,3,0,0,2,2,2,,,,,,,,,,,,,,,,,,,,,,,,,False,61,62,True,exp2.png,exp1.png,trial_left_image,1,exp2.png,4,exp2.png,exp1.png,1,1,non-reversed,correct,0.7206909160496308,1,valid_win,376.4624610000001,44,,,,,,,,,,,,,s_039,4,2021_Jan_10_1046,Reversal,3.2.4,59.962679228400674,
3,exp3.png,exp4.png,3,0,3,0,0,3,3,3,,,,,,,,,,,,,,,,,,,,,,,,,False,62,63,True,exp4.png,exp3.png,trial_left_image,1,exp4.png,4,exp4.png,exp3.png,1,3,reversed,correct,0.5953842101453226,1,valid_win,380.6278424000002,45,,,,,,,,,,,,,s_039,4,2021_Jan_10_1046,Reversal,3.2.4,59.962679228400674,
4,exp1.png,exp2.png,3,0,3,0,0,4,4,4,,,,,,,,,,,,,,,,,,,,,,,,,False,63,64,False,exp1.png,exp2.png,trial_left_image,1,exp1.png,4,exp2.png,exp1.png,0,2,non-reversed,incorrect,0.6424987087006503,0,valid_lose,385.10970199999974,45,,,,,,,,,,,,,s_039,4,2021_Jan_10_1046,Reversal,3.2.4,59.962679228400674,
5,exp3.png,exp4.png,3,0,3,0,0,5,5,5,,,,,,,,,,,,,,,,,,,,,,,,,False,64,65,True,exp4.png,exp3.png,trial_left_image,1,exp4.png,4,exp4.png,exp3.png,1,3,reversed,correct,0.517312916431361,1,valid_win,389.3745374,46,,,,,,,,,,,,,s_039,4,2021_Jan_10_1046,Reversal,3.2.4,59.962679228400674,
6,exp1.png,exp2.png,3,0,3,0,0,6,6,6,,,,,,,,,,,,,,,,,,,,,,,,,False,65,66,False,exp1.png,exp2.png,trial_right_image,-1,exp2.png,4,exp2.png,exp1.png,1,1,non-reversed,correct,0.8314741022780658,1,valid_win,393.57347200000004,47,,,,,,,,,,,,,s_039,4,2021_Jan_10_1046,Reversal,3.2.4,59.962679228400674,
7,exp3.png,exp4.png,3,0,3,0,0,7,7,7,,,,,,,,,,,,,,,,,,,,,,,,,False,66,67,False,exp3.png,exp4.png,trial_left_image,1,exp3.png,4,exp4.png,exp3.png,0,4,reversed,incorrect,0.9950804943635247,0,valid_lose,403.3856770000002,47,,,,,,,,,,,,,s_039,4,2021_Jan_10_1046,Reversal,3.2.4,59.962679228400674,
8,exp1.png,exp2.png,3,0,3,0,0,8,8,8,,,,,,,,,,,,,,,,,,,,,,,,,False,67,68,True,exp2.png,exp1.png,trial_left_image,1,exp2.png,4,exp2.png,exp1.png,1,1,non-reversed,correct,0.9236799956607021,1,valid_win,407.76839780000046,48,,,,,,,,,,,,,s_039,4,2021_Jan_10_1046,Reversal,3.2.4,59.962679228400674,
9,exp3.png,exp4.png,3,0,3,0,0,9,9,9,,,,,,,,,,,,,,,,,,,,,,,,,False,68,69,False,exp3.png,exp4.png,trial_right_image,-1,exp4.png,4,exp4.png,exp3.png,1,3,reversed,correct,0.2766698297597101,1,valid_win,411.7842337000002,49,,,,,,,,,,,,,s_039,4,2021_Jan_10_1046,Reversal,3.2.4,59.962679228400674,
10,exp1.png,exp2.png,3,0,3,0,0,10,10,10,,,,,,,,,,,,,,,,,,,,,,,,,False,69,70,True,exp2.png,exp1.png,trial_left_image,1,exp2.png,4,exp2.png,exp1.png,1,1,non-reversed,correct,0.49410976937780915,1,valid_win,415.70054619999974,50,,,,,,,,,,,,,s_039,4,2021_Jan_10_1046,Reversal,3.2.4,59.962679228400674,
11,exp3.png,exp4.png,3,0,3,0,0,11,11,11,,,,,,,,,,,,,,,,,,,,,,,,,False,70,71,False,exp3.png,exp4.png,trial_right_image,-1,exp4.png,4,exp4.png,exp3.png,1,3,reversed,correct,0.789871099123757,1,valid_win,419.76435740000034,51,,,,,,,,,,,,,s_039,4,2021_Jan_10_1046,Reversal,3.2.4,59.962679228400674,
12,exp1.png,exp2.png,3,0,3,0,0,12,12,12,,,,,,,,,,,,,,,,,,,,,,,,,False,71,72,True,exp2.png,exp1.png,trial_left_image,1,exp2.png,4,exp2.png,exp1.png,1,1,non-reversed,correct,0.7863855759183981,1,valid_win,423.7637087000003,52,,,,,,,,,,,,,s_039,4,2021_Jan_10_1046,Reversal,3.2.4,59.962679228400674,
13,exp3.png,exp4.png,3,0,3,0,0,13,13,13,,,,,,,,,,,,,,,,,,,,,,,,,False,72,73,True,exp4.png,exp3.png,trial_left_image,1,exp4.png,4,exp4.png,exp3.png,1,3,reversed,correct,0.007463014200670304,0,invalid_lose,427.7448897000004,52,,,,,,,,,,,,,s_039,4,2021_Jan_10_1046,Reversal,3.2.4,59.962679228400674,
14,exp1.png,exp2.png,3,0,3,0,0,14,14,14,,,,,,,,,,,,,,,,,,,,,,,,,False,73,74,True,exp2.png,exp1.png,trial_left_image,1,exp2.png,4,exp2.png,exp1.png,1,1,non-reversed,correct,0.2096609337790344,0,invalid_lose,433.19253370000024,52,,,,,,,,,,,,,s_039,4,2021_Jan_10_1046,Reversal,3.2.4,59.962679228400674,
15,exp3.png,exp4.png,3,0,3,0,0,15,15,15,,,,,,,,,,,,,,,,,,,,,,,,,False,74,75,False,exp3.png,exp4.png,trial_right_image,-1,exp4.png,4,exp4.png,exp3.png,1,3,reversed,correct,0.5563175525097971,1,valid_win,437.25838159999967,53,,,,,,,,,,,,,s_039,4,2021_Jan_10_1046,Reversal,3.2.4,59.962679228400674,
16,exp1.png,exp2.png,3,0,3,0,0,16,16,16,,,,,,,,,,,,,,,,,,,,,,,,,False,75,76,False,exp1.png,exp2.png,trial_right_image,-1,exp2.png,4,exp2.png,exp1.png,1,1,non-reversed,correct,0.48998558661927116,1,valid_win,441.2408516000005,54,,,,,,,,,,,,,s_039,4,2021_Jan_10_1046,Reversal,3.2.4,59.962679228400674,
17,exp3.png,exp4.png,3,0,3,0,0,17,17,17,,,,,,,,,,,,,,,,,,,,,,,,,False,76,77,False,exp3.png,exp4.png,trial_right_image,-1,exp4.png,4,exp4.png,exp3.png,1,3,reversed,correct,0.5419102232529673,1,valid_win,445.45512169999984,55,,,,,,,,,,,,,s_039,4,2021_Jan_10_1046,Reversal,3.2.4,59.962679228400674,
18,exp1.png,exp2.png,3,0,3,0,0,18,18,18,,,,,,,,,,,,,,,,,,,,,,,,,False,77,78,False,exp1.png,exp2.png,trial_right_image,-1,exp2.png,4,exp2.png,exp1.png,1,1,non-reversed,correct,0.15316657068331674,0,invalid_lose,449.4708513000005,55,,,,,,,,,,,,,s_039,4,2021_Jan_10_1046,Reversal,3.2.4,59.962679228400674,
19,exp3.png,exp4.png,3,0,3,0,0,19,19,19,,,,,,,,,,,,,,,,,,,,,,,,,False,78,79,True,exp4.png,exp3.png,trial_left_image,1,exp4.png,4,exp4.png,exp3.png,1,3,reversed,correct,0.47911077721221984,1,valid_win,457.76903589999984,56,,,,,,,,,,,,,s_039,4,2021_Jan_10_1046,Reversal,3.2.4,59.962679228400674,
20,exp1.png,exp2.png,3,0,3,0,0,20,20,20,,,,,,,,,,,,,,,,,,,,,,,,,False,79,80,False,exp1.png,exp2.png,trial_right_image,-1,exp2.png,4,exp2.png,exp1.png,1,1,non-reversed,correct,0.6620262537196885,1,valid_win,461.9837921999997,57,,,,,,,,,,,,,s_039,4,2021_Jan_10_1046,Reversal,3.2.4,59.962679228400674,
,,,3,0,3,0,,,,,0,0,0,0,,,,,,,,,,,,,,,,,,,,,,,,,,,,,,,,,,,,,,,,,,17,85,15,91,,,,,,,,,s_039,4,2021_Jan_10_1046,Reversal,3.2.4,59.962679228400674,
0,exp1.png,exp2.png,,,,,,,,,,,,,,,,,0,0,0,0,0,0,0,0,,,,,,,,,True,,,,,,,,,,,,,,,,,,,,,,,,,,,,,,,,,s_039,4,2021_Jan_10_1046,Reversal,3.2.4,59.962679228400674,
1,exp3.png,exp4.png,,,,,,,,,,,,,,,,,0,0,0,0,0,1,1,1,,,,,,,,,False,0,81,True,exp4.png,exp3.png,trial_left_image,1,exp4.png,4,exp3.png,exp4.png,1,3,reversed,incorrect,0.7701287359149985,0,valid_lose,477.1288860000004,57,,,,,474.79671510000026,,,,,,,,s_039,4,2021_Jan_10_1046,Reversal,3.2.4,59.962679228400674,
2,exp1.png,exp2.png,,,,,,,,,,,,,,,,,0,0,0,0,0,2,2,2,,,,,,,,,False,1,82,False,exp1.png,exp2.png,trial_right_image,-1,exp2.png,4,exp2.png,exp1.png,1,1,non-reversed,correct,0.7787892840903723,1,valid_win,481.34248769999977,58,,,,,,,,,,,,,s_039,4,2021_Jan_10_1046,Reversal,3.2.4,59.962679228400674,
3,exp3.png,exp4.png,,,,,,,,,,,,,,,,,0,0,0,0,0,3,3,3,,,,,,,,,False,2,83,False,exp3.png,exp4.png,trial_right_image,-1,exp4.png,4,exp3.png,exp4.png,1,3,reversed,incorrect,0.8126822664871493,0,valid_lose,485.42423810000037,58,,,,,,,,,,,,,s_039,4,2021_Jan_10_1046,Reversal,3.2.4,59.962679228400674,
4,exp1.png,exp2.png,,,,,,,,,,,,,,,,,0,0,0,0,0,4,4,4,,,,,,,,,False,3,84,True,exp2.png,exp1.png,trial_left_image,1,exp2.png,4,exp2.png,exp1.png,1,1,non-reversed,correct,0.7293787576337252,1,valid_win,490.12396910000007,59,,,,,,,,,,,,,s_039,4,2021_Jan_10_1046,Reversal,3.2.4,59.962679228400674,
5,exp3.png,exp4.png,,,,,,,,,,,,,,,,,0,0,0,0,0,5,5,5,,,,,,,,,False,4,85,False,exp3.png,exp4.png,trial_left_image,1,exp3.png,4,exp3.png,exp4.png,0,4,reversed,correct,0.1922502524993963,0,invalid_lose,494.6557284999999,59,,,,,,,,,,,,,s_039,4,2021_Jan_10_1046,Reversal,3.2.4,59.962679228400674,
6,exp1.png,exp2.png,,,,,,,,,,,,,,,,,0,0,0,0,0,6,6,6,,,,,,,,,False,5,86,False,exp1.png,exp2.png,trial_right_image,-1,exp2.png,4,exp2.png,exp1.png,1,1,non-reversed,correct,0.21111096503357718,0,invalid_lose,499.1877261999998,59,,,,,,,,,,,,,s_039,4,2021_Jan_10_1046,Reversal,3.2.4,59.962679228400674,
7,exp3.png,exp4.png,,,,,,,,,,,,,,,,,0,0,0,0,0,7,7,7,,,,,,,,,False,6,87,True,exp4.png,exp3.png,trial_left_image,1,exp4.png,4,exp3.png,exp4.png,1,3,reversed,incorrect,0.25214295750763704,0,valid_lose,503.3526922000001,59,,,,,,,,,,,,,s_039,4,2021_Jan_10_1046,Reversal,3.2.4,59.962679228400674,
8,exp1.png,exp2.png,,,,,,,,,,,,,,,,,0,0,0,0,0,8,8,8,,,,,,,,,False,7,88,False,exp1.png,exp2.png,trial_left_image,1,exp1.png,4,exp2.png,exp1.png,0,2,non-reversed,incorrect,0.7550248349072926,0,valid_lose,507.3851082000001,59,,,,,,,,,,,,,s_039,4,2021_Jan_10_1046,Reversal,3.2.4,59.962679228400674,
9,exp3.png,exp4.png,,,,,,,,,,,,,,,,,0,0,0,0,0,9,9,9,,,,,,,,,False,8,89,True,exp4.png,exp3.png,trial_left_image,1,exp4.png,4,exp3.png,exp4.png,1,3,reversed,incorrect,0.59093536713661,0,valid_lose,511.5508066000002,59,,,,,,,,,,,,,s_039,4,2021_Jan_10_1046,Reversal,3.2.4,59.962679228400674,
10,exp1.png,exp2.png,,,,,,,,,,,,,,,,,0,0,0,0,0,10,10,10,,,,,,,,,False,9,90,False,exp1.png,exp2.png,trial_left_image,1,exp1.png,4,exp2.png,exp1.png,0,2,non-reversed,incorrect,0.3817233708086235,0,valid_lose,516.1990560000004,59,,,,,,,,,,,,,s_039,4,2021_Jan_10_1046,Reversal,3.2.4,59.962679228400674,
11,exp3.png,exp4.png,,,,,,,,,,,,,,,,,0,0,0,0,0,11,11,11,,,,,,,,,False,10,91,False,exp3.png,exp4.png,trial_left_image,1,exp3.png,4,exp3.png,exp4.png,0,4,reversed,correct,0.8732027517902509,1,valid_win,520.5140173999998,60,,,,,,,,,,,,,s_039,4,2021_Jan_10_1046,Reversal,3.2.4,59.962679228400674,
12,exp1.png,exp2.png,,,,,,,,,,,,,,,,,0,0,0,0,0,12,12,12,,,,,,,,,False,11,92,True,exp2.png,exp1.png,trial_left_image,1,exp2.png,4,exp2.png,exp1.png,1,1,non-reversed,correct,0.7723796310319505,1,valid_win,525.1461724000001,61,,,,,,,,,,,,,s_039,4,2021_Jan_10_1046,Reversal,3.2.4,59.962679228400674,
13,exp3.png,exp4.png,,,,,,,,,,,,,,,,,0,0,0,0,0,13,13,13,,,,,,,,,False,12,93,True,exp4.png,exp3.png,trial_left_image,1,exp4.png,4,exp3.png,exp4.png,1,3,reversed,incorrect,0.0251670935914603,1,invalid_win,529.4779594000001,62,,,,,,,,,,,,,s_039,4,2021_Jan_10_1046,Reversal,3.2.4,59.962679228400674,
14,exp1.png,exp2.png,,,,,,,,,,,,,,,,,0,0,0,0,0,14,14,14,,,,,,,,,False,13,94,True,exp2.png,exp1.png,trial_right_image,-1,exp1.png,4,exp2.png,exp1.png,0,2,non-reversed,incorrect,0.16444956079717743,1,invalid_win,534.4929539000004,63,,,,,,,,,,,,,s_039,4,2021_Jan_10_1046,Reversal,3.2.4,59.962679228400674,
15,exp3.png,exp4.png,,,,,,,,,,,,,,,,,0,0,0,0,0,15,15,15,,,,,,,,,False,14,95,False,exp3.png,exp4.png,trial_left_image,1,exp3.png,4,exp3.png,exp4.png,0,4,reversed,correct,0.23072750403082443,0,invalid_lose,538.2898621000004,63,,,,,,,,,,,,,s_039,4,2021_Jan_10_1046,Reversal,3.2.4,59.962679228400674,
16,exp1.png,exp2.png,,,,,,,,,,,,,,,,,0,0,0,0,0,16,16,16,,,,,,,,,False,15,96,True,exp2.png,exp1.png,trial_right_image,-1,exp1.png,4,exp2.png,exp1.png,0,2,non-reversed,incorrect,0.7095968250096202,0,valid_lose,542.3228608999998,63,,,,,,,,,,,,,s_039,4,2021_Jan_10_1046,Reversal,3.2.4,59.962679228400674,
17,exp3.png,exp4.png,,,,,,,,,,,,,,,,,0,0,0,0,0,17,17,17,,,,,,,,,False,16,97,True,exp4.png,exp3.png,trial_left_image,1,exp4.png,4,exp3.png,exp4.png,1,3,reversed,incorrect,0.39969331695653953,0,valid_lose,545.8779640000002,63,,,,,,,,,,,,,s_039,4,2021_Jan_10_1046,Reversal,3.2.4,59.962679228400674,
18,exp1.png,exp2.png,,,,,,,,,,,,,,,,,0,0,0,0,0,18,18,18,,,,,,,,,False,17,98,False,exp1.png,exp2.png,trial_left_image,1,exp1.png,4,exp2.png,exp1.png,0,2,non-reversed,incorrect,0.042500946257608696,1,invalid_win,550.1540237999998,64,,,,,,,,,,,,,s_039,4,2021_Jan_10_1046,Reversal,3.2.4,59.962679228400674,
19,exp3.png,exp4.png,,,,,,,,,,,,,,,,,0,0,0,0,0,19,19,19,,,,,,,,,False,18,99,False,exp3.png,exp4.png,trial_left_image,1,exp3.png,4,exp3.png,exp4.png,0,4,reversed,correct,0.7285940311589837,1,valid_win,554.4358875999997,65,,,,,,,,,,,,,s_039,4,2021_Jan_10_1046,Reversal,3.2.4,59.962679228400674,
20,exp1.png,exp2.png,,,,,,,,,,,,,,,,,0,0,0,0,0,20,20,20,,,,,,,,,False,19,100,True,exp2.png,exp1.png,trial_right_image,-1,exp1.png,4,exp2.png,exp1.png,0,2,non-reversed,incorrect,0.25583586483006027,0,valid_lose,558.7175753000001,65,,,,,,,,,,,,,s_039,4,2021_Jan_10_1046,Reversal,3.2.4,59.962679228400674,
,,,,,,,,,,,,,,,,,,,0,0,0,0,,,,,0,0,0,0,,,,,,,,,,,,,,,,,,,,,,,,,,69,28,61,9,,,,,,,,,s_039,4,2021_Jan_10_1046,Reversal,3.2.4,59.962679228400674,
0,exp1.png,exp2.png,,,,,,,,,,,,,,,,,1,0,1,0,0,0,0,0,,,,,,,,,True,,,,,,,,,,,,,,,,,,,,,,,,,,,,,,,,,s_039,4,2021_Jan_10_1046,Reversal,3.2.4,59.962679228400674,
1,exp3.png,exp4.png,,,,,,,,,,,,,,,,,1,0,1,0,0,1,1,1,,,,,,,,,False,20,101,True,exp4.png,exp3.png,trial_right_image,-1,exp3.png,4,exp3.png,exp4.png,0,4,reversed,correct,0.7667538941808012,1,valid_win,577.4438142999998,66,,,,,,,,,,,,,s_039,4,2021_Jan_10_1046,Reversal,3.2.4,59.962679228400674,
2,exp1.png,exp2.png,,,,,,,,,,,,,,,,,1,0,1,0,0,2,2,2,,,,,,,,,False,21,102,False,exp1.png,exp2.png,trial_left_image,1,exp1.png,4,exp2.png,exp1.png,0,2,non-reversed,incorrect,0.45467430652406904,0,valid_lose,582.1259059000004,66,,,,,,,,,,,,,s_039,4,2021_Jan_10_1046,Reversal,3.2.4,59.962679228400674,
3,exp3.png,exp4.png,,,,,,,,,,,,,,,,,1,0,1,0,0,3,3,3,,,,,,,,,False,22,103,True,exp4.png,exp3.png,trial_right_image,-1,exp3.png,4,exp3.png,exp4.png,0,4,reversed,correct,0.76527516523159,1,valid_win,586.4089239000004,67,,,,,,,,,,,,,s_039,4,2021_Jan_10_1046,Reversal,3.2.4,59.962679228400674,
4,exp1.png,exp2.png,,,,,,,,,,,,,,,,,1,0,1,0,0,4,4,4,,,,,,,,,False,23,104,False,exp1.png,exp2.png,trial_right_image,-1,exp2.png,4,exp2.png,exp1.png,1,1,non-reversed,correct,0.5732967810912789,1,valid_win,592.0550370000001,68,,,,,,,,,,,,,s_039,4,2021_Jan_10_1046,Reversal,3.2.4,59.962679228400674,
5,exp3.png,exp4.png,,,,,,,,,,,,,,,,,1,0,1,0,0,5,5,5,,,,,,,,,False,24,105,False,exp3.png,exp4.png,trial_right_image,-1,exp4.png,4,exp3.png,exp4.png,1,3,reversed,incorrect,0.0764930304517295,1,invalid_win,596.6545165999996,69,,,,,,,,,,,,,s_039,4,2021_Jan_10_1046,Reversal,3.2.4,59.962679228400674,
6,exp1.png,exp2.png,,,,,,,,,,,,,,,,,1,0,1,0,0,6,6,6,,,,,,,,,False,25,106,False,exp1.png,exp2.png,trial_right_image,-1,exp2.png,4,exp2.png,exp1.png,1,1,non-reversed,correct,0.11417519034604806,0,invalid_lose,601.7361614000001,69,,,,,,,,,,,,,s_039,4,2021_Jan_10_1046,Reversal,3.2.4,59.962679228400674,
7,exp3.png,exp4.png,,,,,,,,,,,,,,,,,1,0,1,0,0,7,7,7,,,,,,,,,False,26,107,False,exp3.png,exp4.png,trial_right_image,-1,exp4.png,4,exp3.png,exp4.png,1,3,reversed,incorrect,0.6938528302607646,0,valid_lose,609.4836955000001,69,,,,,,,,,,,,,s_039,4,2021_Jan_10_1046,Reversal,3.2.4,59.962679228400674,
8,exp1.png,exp2.png,,,,,,,,,,,,,,,,,1,0,1,0,0,8,8,8,,,,,,,,,False,27,108,False,exp1.png,exp2.png,trial_left_image,1,exp1.png,4,exp2.png,exp1.png,0,2,non-reversed,incorrect,0.4680207131027275,0,valid_lose,613.4815944000002,69,,,,,,,,,,,,,s_039,4,2021_Jan_10_1046,Reversal,3.2.4,59.962679228400674,
9,exp3.png,exp4.png,,,,,,,,,,,,,,,,,1,0,1,0,0,9,9,9,,,,,,,,,False,28,109,False,exp3.png,exp4.png,trial_left_image,1,exp3.png,4,exp3.png,exp4.png,0,4,reversed,correct,0.48482570323973895,1,valid_win,617.9474146000002,70,,,,,,,,,,,,,s_039,4,2021_Jan_10_1046,Reversal,3.2.4,59.962679228400674,
10,exp1.png,exp2.png,,,,,,,,,,,,,,,,,1,0,1,0,0,10,10,10,,,,,,,,,False,29,110,False,exp1.png,exp2.png,trial_left_image,1,exp1.png,4,exp2.png,exp1.png,0,2,non-reversed,incorrect,0.7912655400761691,0,valid_lose,627.2933278999999,70,,,,,,,,,,,,,s_039,4,2021_Jan_10_1046,Reversal,3.2.4,59.962679228400674,
11,exp3.png,exp4.png,,,,,,,,,,,,,,,,,1,0,1,0,0,11,11,11,,,,,,,,,False,30,111,False,exp3.png,exp4.png,trial_left_image,1,exp3.png,4,exp3.png,exp4.png,0,4,reversed,correct,0.11077933652559024,0,invalid_lose,631.9253244000001,70,,,,,,,,,,,,,s_039,4,2021_Jan_10_1046,Reversal,3.2.4,59.962679228400674,
12,exp1.png,exp2.png,,,,,,,,,,,,,,,,,1,0,1,0,0,12,12,12,,,,,,,,,False,31,112,True,exp2.png,exp1.png,trial_right_image,-1,exp1.png,4,exp2.png,exp1.png,0,2,non-reversed,incorrect,0.30323319082393285,0,valid_lose,640.8392941000002,70,,,,,,,,,,,,,s_039,4,2021_Jan_10_1046,Reversal,3.2.4,59.962679228400674,
13,exp3.png,exp4.png,,,,,,,,,,,,,,,,,1,0,1,0,0,13,13,13,,,,,,,,,False,32,113,True,exp4.png,exp3.png,trial_left_image,1,exp4.png,4,exp3.png,exp4.png,1,3,reversed,incorrect,0.20516974340491,1,invalid_win,646.4550902000001,71,,,,,,,,,,,,,s_039,4,2021_Jan_10_1046,Reversal,3.2.4,59.962679228400674,
14,exp1.png,exp2.png,,,,,,,,,,,,,,,,,1,0,1,0,0,14,14,14,,,,,,,,,False,33,114,True,exp2.png,exp1.png,trial_right_image,-1,exp1.png,4,exp2.png,exp1.png,0,2,non-reversed,incorrect,0.11708527162220916,1,invalid_win,651.8860400000003,72,,,,,,,,,,,,,s_039,4,2021_Jan_10_1046,Reversal,3.2.4,59.962679228400674,
15,exp3.png,exp4.png,,,,,,,,,,,,,,,,,1,0,1,0,0,15,15,15,,,,,,,,,False,34,115,True,exp4.png,exp3.png,trial_left_image,1,exp4.png,4,exp3.png,exp4.png,1,3,reversed,incorrect,0.5600764627712883,0,valid_lose,658.1001680999998,72,,,,,,,,,,,,,s_039,4,2021_Jan_10_1046,Reversal,3.2.4,59.962679228400674,
16,exp1.png,exp2.png,,,,,,,,,,,,,,,,,1,0,1,0,0,16,16,16,,,,,,,,,False,35,116,True,exp2.png,exp1.png,trial_right_image,-1,exp1.png,4,exp2.png,exp1.png,0,2,non-reversed,incorrect,0.1920682627348732,1,invalid_win,662.2002186,73,,,,,,,,,,,,,s_039,4,2021_Jan_10_1046,Reversal,3.2.4,59.962679228400674,
17,exp3.png,exp4.png,,,,,,,,,,,,,,,,,1,0,1,0,0,17,17,17,,,,,,,,,False,36,117,True,exp4.png,exp3.png,trial_right_image,-1,exp3.png,4,exp3.png,exp4.png,0,4,reversed,correct,0.1754829407831351,0,invalid_lose,666.6794246,73,,,,,,,,,,,,,s_039,4,2021_Jan_10_1046,Reversal,3.2.4,59.962679228400674,
18,exp1.png,exp2.png,,,,,,,,,,,,,,,,,1,0,1,0,0,18,18,18,,,,,,,,,False,37,118,False,exp1.png,exp2.png,trial_left_image,1,exp1.png,4,exp2.png,exp1.png,0,2,non-reversed,incorrect,0.9208535308037239,0,valid_lose,671.6468301000004,73,,,,,,,,,,,,,s_039,4,2021_Jan_10_1046,Reversal,3.2.4,59.962679228400674,
19,exp3.png,exp4.png,,,,,,,,,,,,,,,,,1,0,1,0,0,19,19,19,,,,,,,,,False,38,119,True,exp4.png,exp3.png,trial_left_image,1,exp4.png,4,exp3.png,exp4.png,1,3,reversed,incorrect,0.9786093902819742,0,valid_lose,676.8605046000002,73,,,,,,,,,,,,,s_039,4,2021_Jan_10_1046,Reversal,3.2.4,59.962679228400674,
20,exp1.png,exp2.png,,,,,,,,,,,,,,,,,1,0,1,0,0,20,20,20,,,,,,,,,False,39,120,True,exp2.png,exp1.png,trial_right_image,-1,exp1.png,4,exp2.png,exp1.png,0,2,non-reversed,incorrect,0.23622663449980097,1,invalid_win,681.8588777000004,74,,,,,,,,,,,,,s_039,4,2021_Jan_10_1046,Reversal,3.2.4,59.962679228400674,
,,,,,,,,,,,,,,,,,,,1,0,1,0,,,,,0,0,0,0,,,,,,,,,,,,,,,,,,,,,,,,,,66,17,24,5,,,,,,,,,s_039,4,2021_Jan_10_1046,Reversal,3.2.4,59.962679228400674,
0,exp1.png,exp2.png,,,,,,,,,,,,,,,,,2,0,2,0,0,0,0,0,,,,,,,,,True,,,,,,,,,,,,,,,,,,,,,,,,,,,,,,,,,s_039,4,2021_Jan_10_1046,Reversal,3.2.4,59.962679228400674,
1,exp3.png,exp4.png,,,,,,,,,,,,,,,,,2,0,2,0,0,1,1,1,,,,,,,,,False,40,121,False,exp3.png,exp4.png,trial_left_image,1,exp3.png,4,exp3.png,exp4.png,0,4,reversed,correct,0.5178834028087619,1,valid_win,699.1361281,75,,,,,,,,,,,,,s_039,4,2021_Jan_10_1046,Reversal,3.2.4,59.962679228400674,
2,exp1.png,exp2.png,,,,,,,,,,,,,,,,,2,0,2,0,0,2,2,2,,,,,,,,,False,41,122,True,exp2.png,exp1.png,trial_right_image,-1,exp1.png,4,exp2.png,exp1.png,0,2,non-reversed,incorrect,0.6610333148236556,0,valid_lose,708.8338001000002,75,,,,,,,,,,,,,s_039,4,2021_Jan_10_1046,Reversal,3.2.4,59.962679228400674,
3,exp3.png,exp4.png,,,,,,,,,,,,,,,,,2,0,2,0,0,3,3,3,,,,,,,,,False,42,123,False,exp3.png,exp4.png,trial_left_image,1,exp3.png,4,exp3.png,exp4.png,0,4,reversed,correct,0.061286002249375304,0,invalid_lose,714.1480751999998,75,,,,,,,,,,,,,s_039,4,2021_Jan_10_1046,Reversal,3.2.4,59.962679228400674,
4,exp1.png,exp2.png,,,,,,,,,,,,,,,,,2,0,2,0,0,4,4,4,,,,,,,,,False,43,124,False,exp1.png,exp2.png,trial_left_image,1,exp1.png,4,exp2.png,exp1.png,0,2,non-reversed,incorrect,0.4712785157335947,0,valid_lose,722.2109455,75,,,,,,,,,,,,,s_039,4,2021_Jan_10_1046,Reversal,3.2.4,59.962679228400674,
5,exp3.png,exp4.png,,,,,,,,,,,,,,,,,2,0,2,0,0,5,5,5,,,,,,,,,False,44,125,False,exp3.png,exp4.png,trial_left_image,1,exp3.png,4,exp3.png,exp4.png,0,4,reversed,correct,0.6005295241959282,1,valid_win,726.2928295000002,76,,,,,,,,,,,,,s_039,4,2021_Jan_10_1046,Reversal,3.2.4,59.962679228400674,
6,exp1.png,exp2.png,,,,,,,,,,,,,,,,,2,0,2,0,0,6,6,6,,,,,,,,,False,45,126,False,exp1.png,exp2.png,trial_right_image,-1,exp2.png,4,exp2.png,exp1.png,1,1,non-reversed,correct,0.8494397138352451,1,valid_win,731.9448341999996,77,,,,,,,,,,,,,s_039,4,2021_Jan_10_1046,Reversal,3.2.4,59.962679228400674,
7,exp3.png,exp4.png,,,,,,,,,,,,,,,,,2,0,2,0,0,7,7,7,,,,,,,,,False,46,127,True,exp4.png,exp3.png,trial_right_image,-1,exp3.png,4,exp3.png,exp4.png,0,4,reversed,correct,0.8541490696059744,1,valid_win,736.7560982000005,78,,,,,,,,,,,,,s_039,4,2021_Jan_10_1046,Reversal,3.2.4,59.962679228400674,
8,exp1.png,exp2.png,,,,,,,,,,,,,,,,,2,0,2,0,0,8,8,8,,,,,,,,,False,47,128,True,exp2.png,exp1.png,trial_left_image,1,exp2.png,4,exp2.png,exp1.png,1,1,non-reversed,correct,0.28854477762688135,1,valid_win,742.9052485000002,79,,,,,,,,,,,,,s_039,4,2021_Jan_10_1046,Reversal,3.2.4,59.962679228400674,
9,exp3.png,exp4.png,,,,,,,,,,,,,,,,,2,0,2,0,0,9,9,9,,,,,,,,,False,48,129,True,exp4.png,exp3.png,trial_right_image,-1,exp3.png,4,exp3.png,exp4.png,0,4,reversed,correct,0.9925523359072685,1,valid_win,748.3023764,80,,,,,,,,,,,,,s_039,4,2021_Jan_10_1046,Reversal,3.2.4,59.962679228400674,
10,exp1.png,exp2.png,,,,,,,,,,,,,,,,,2,0,2,0,0,10,10,10,,,,,,,,,False,49,130,False,exp1.png,exp2.png,trial_right_image,-1,exp2.png,4,exp2.png,exp1.png,1,1,non-reversed,correct,0.9843942095439295,1,valid_win,752.3512383999996,81,,,,,,,,,,,,,s_039,4,2021_Jan_10_1046,Reversal,3.2.4,59.962679228400674,
11,exp3.png,exp4.png,,,,,,,,,,,,,,,,,2,0,2,0,0,11,11,11,,,,,,,,,False,50,131,False,exp3.png,exp4.png,trial_left_image,1,exp3.png,4,exp3.png,exp4.png,0,4,reversed,correct,0.1319362244844129,0,invalid_lose,756.2671122000002,81,,,,,,,,,,,,,s_039,4,2021_Jan_10_1046,Reversal,3.2.4,59.962679228400674,
12,exp1.png,exp2.png,,,,,,,,,,,,,,,,,2,0,2,0,0,12,12,12,,,,,,,,,False,51,132,False,exp1.png,exp2.png,trial_right_image,-1,exp2.png,4,exp2.png,exp1.png,1,1,non-reversed,correct,0.7483173603731105,1,valid_win,760.2324140000001,82,,,,,,,,,,,,,s_039,4,2021_Jan_10_1046,Reversal,3.2.4,59.962679228400674,
13,exp3.png,exp4.png,,,,,,,,,,,,,,,,,2,0,2,0,0,13,13,13,,,,,,,,,False,52,133,True,exp4.png,exp3.png,trial_right_image,-1,exp3.png,4,exp3.png,exp4.png,0,4,reversed,correct,0.30378282930058165,1,valid_win,764.2475338000004,83,,,,,,,,,,,,,s_039,4,2021_Jan_10_1046,Reversal,3.2.4,59.962679228400674,
14,exp1.png,exp2.png,,,,,,,,,,,,,,,,,2,0,2,0,0,14,14,14,,,,,,,,,False,53,134,True,exp2.png,exp1.png,trial_left_image,1,exp2.png,4,exp2.png,exp1.png,1,1,non-reversed,correct,0.009864592197695976,0,invalid_lose,769.7130723999999,83,,,,,,,,,,,,,s_039,4,2021_Jan_10_1046,Reversal,3.2.4,59.962679228400674,
15,exp3.png,exp4.png,,,,,,,,,,,,,,,,,2,0,2,0,0,15,15,15,,,,,,,,,False,54,135,True,exp4.png,exp3.png,trial_right_image,-1,exp3.png,4,exp3.png,exp4.png,0,4,reversed,correct,0.7236520318110471,1,valid_win,774.4763094999998,84,,,,,,,,,,,,,s_039,4,2021_Jan_10_1046,Reversal,3.2.4,59.962679228400674,
16,exp1.png,exp2.png,,,,,,,,,,,,,,,,,2,0,2,0,0,16,16,16,,,,,,,,,False,55,136,False,exp1.png,exp2.png,trial_right_image,-1,exp2.png,4,exp2.png,exp1.png,1,1,non-reversed,correct,0.830351839828684,1,valid_win,778.9266527,85,,,,,,,,,,,,,s_039,4,2021_Jan_10_1046,Reversal,3.2.4,59.962679228400674,
17,exp3.png,exp4.png,,,,,,,,,,,,,,,,,2,0,2,0,0,17,17,17,,,,,,,,,False,56,137,True,exp4.png,exp3.png,trial_right_image,-1,exp3.png,4,exp3.png,exp4.png,0,4,reversed,correct,0.8870467725683674,1,valid_win,784.9738681999997,86,,,,,,,,,,,,,s_039,4,2021_Jan_10_1046,Reversal,3.2.4,59.962679228400674,
18,exp1.png,exp2.png,,,,,,,,,,,,,,,,,2,0,2,0,0,18,18,18,,,,,,,,,False,57,138,True,exp2.png,exp1.png,trial_right_image,-1,exp1.png,4,exp2.png,exp1.png,0,2,non-reversed,incorrect,0.20546215535677748,1,invalid_win,793.8711750000002,87,,,,,,,,,,,,,s_039,4,2021_Jan_10_1046,Reversal,3.2.4,59.962679228400674,
19,exp3.png,exp4.png,,,,,,,,,,,,,,,,,2,0,2,0,0,19,19,19,,,,,,,,,False,58,139,False,exp3.png,exp4.png,trial_right_image,-1,exp4.png,4,exp3.png,exp4.png,1,3,reversed,incorrect,0.4943232077967945,0,valid_lose,799.0360612000004,87,,,,,,,,,,,,,s_039,4,2021_Jan_10_1046,Reversal,3.2.4,59.962679228400674,
20,exp1.png,exp2.png,,,,,,,,,,,,,,,,,2,0,2,0,0,20,20,20,,,,,,,,,False,59,140,True,exp2.png,exp1.png,trial_right_image,-1,exp1.png,4,exp2.png,exp1.png,0,2,non-reversed,incorrect,0.001367121152199724,1,invalid_win,803.2009576,88,,,,,,,,,,,,,s_039,4,2021_Jan_10_1046,Reversal,3.2.4,59.962679228400674,
,,,,,,,,,,,,,,,,,,,2,0,2,0,,,,,0,0,0,0,,,,,,,,,,,,,,,,,,,,,,,,,,50.0,79,81,20,,,,,,,,,s_039,4,2021_Jan_10_1046,Reversal,3.2.4,59.962679228400674,
,,,,,,,,,,,,,,,,,,,,,,,,,,,,,,,,,,,,,,,,,,,,,,,,,,,,,,,88,,,,,,96,66,30,339.8823255999996,1,space,35.26969800000006,s_039,4,2021_Jan_10_1046,Reversal,3.2.4,59.962679228400674,
