trial_index,trial_image1_file,trial_image2_file,learning_outer_loop.thisRepN,learning_outer_loop.thisTrialN,learning_outer_loop.thisN,learning_outer_loop.thisIndex,learning_inner_loop.thisRepN,learning_inner_loop.thisTrialN,learning_inner_loop.thisN,learning_inner_loop.thisIndex,learning_estimation_outer_loop.thisRepN,learning_estimation_outer_loop.thisTrialN,learning_estimation_outer_loop.thisN,learning_estimation_outer_loop.thisIndex,learning_estimation_inner_loop.thisRepN,learning_estimation_inner_loop.thisTrialN,learning_estimation_inner_loop.thisN,learning_estimation_inner_loop.thisIndex,reversal_outer_loop.thisRepN,reversal_outer_loop.thisTrialN,reversal_outer_loop.thisN,reversal_outer_loop.thisIndex,reversal_inner_loop.thisRepN,reversal_inner_loop.thisTrialN,reversal_inner_loop.thisN,reversal_inner_loop.thisIndex,reversal_estimation_outer_loop.thisRepN,reversal_estimation_outer_loop.thisTrialN,reversal_estimation_outer_loop.thisN,reversal_estimation_outer_loop.thisIndex,reversal_estimation_inner_loop.thisRepN,reversal_estimation_inner_loop.thisTrialN,reversal_estimation_inner_loop.thisN,reversal_estimation_inner_loop.thisIndex,skipped,total_trial_counter,trial_num,left_right_flip,left_image_file,right_image_file,clicked_stimulus_side,side,clicked_stimulus,version,high_prob_image_file,low_prob_image_file,choice_a,choice_b,pair_type,correct,trial_feedback_random,reward,trial_type,overall_time_after_trial,score,estimation_exp1.png,estimation_exp2.png,estimation_exp3.png,estimation_exp4.png,total_learning_time,total_correct,learning_correct,reversal_correct,total_reversal_time,extra_block,end_experiment.keys,end_experiment.rt,participant,ver,date,expName,psychopyVersion,frameRate,
0,exp1.png,exp2.png,0,0,0,0,0,0,0,0,,,,,,,,,,,,,,,,,,,,,,,,,False,0,1,False,exp1.png,exp2.png,trial_left_image,1,exp1.png,2,exp1.png,exp2.png,1,1,non-reversed,correct,0.625204231552897,1,valid_win,3.110835799947381,1,,,,,,,,,,,,,s_037,2,2021_Jan_06_1248,Reversal,3.2.4,60.096442778133934,
1,exp3.png,exp4.png,0,0,0,0,0,1,1,1,,,,,,,,,,,,,,,,,,,,,,,,,False,1,2,False,exp3.png,exp4.png,trial_right_image,-1,exp4.png,2,exp3.png,exp4.png,0,4,reversed,incorrect,0.33863790111156833,0,valid_lose,8.90927780000493,1,,,,,,,,,,,,,s_037,2,2021_Jan_06_1248,Reversal,3.2.4,60.096442778133934,
2,exp1.png,exp2.png,0,0,0,0,0,2,2,2,,,,,,,,,,,,,,,,,,,,,,,,,False,2,3,True,exp2.png,exp1.png,trial_right_image,-1,exp1.png,2,exp1.png,exp2.png,1,1,non-reversed,correct,0.19738526560928182,0,invalid_lose,13.440984999993816,1,,,,,,,,,,,,,s_037,2,2021_Jan_06_1248,Reversal,3.2.4,60.096442778133934,
3,exp3.png,exp4.png,0,0,0,0,0,3,3,3,,,,,,,,,,,,,,,,,,,,,,,,,False,3,4,True,exp4.png,exp3.png,trial_right_image,-1,exp3.png,2,exp3.png,exp4.png,1,3,reversed,correct,0.5360933791822701,1,valid_win,18.755846499931067,2,,,,,,,,,,,,,s_037,2,2021_Jan_06_1248,Reversal,3.2.4,60.096442778133934,
4,exp1.png,exp2.png,0,0,0,0,0,4,4,4,,,,,,,,,,,,,,,,,,,,,,,,,False,4,5,True,exp2.png,exp1.png,trial_left_image,1,exp2.png,2,exp1.png,exp2.png,0,2,non-reversed,incorrect,0.07870410863836541,1,invalid_win,23.771095500094816,3,,,,,,,,,,,,,s_037,2,2021_Jan_06_1248,Reversal,3.2.4,60.096442778133934,
5,exp3.png,exp4.png,0,0,0,0,0,5,5,5,,,,,,,,,,,,,,,,,,,,,,,,,False,5,6,True,exp4.png,exp3.png,trial_left_image,1,exp4.png,2,exp3.png,exp4.png,0,4,reversed,incorrect,0.298797244155937,0,valid_lose,29.71870890003629,3,,,,,,,,,,,,,s_037,2,2021_Jan_06_1248,Reversal,3.2.4,60.096442778133934,
6,exp1.png,exp2.png,0,0,0,0,0,6,6,6,,,,,,,,,,,,,,,,,,,,,,,,,False,6,7,True,exp2.png,exp1.png,trial_right_image,-1,exp1.png,2,exp1.png,exp2.png,1,1,non-reversed,correct,0.5764975266450457,1,valid_win,34.95117580005899,4,,,,,,,,,,,,,s_037,2,2021_Jan_06_1248,Reversal,3.2.4,60.096442778133934,
7,exp3.png,exp4.png,0,0,0,0,0,7,7,7,,,,,,,,,,,,,,,,,,,,,,,,,False,7,8,True,exp4.png,exp3.png,trial_left_image,1,exp4.png,2,exp3.png,exp4.png,0,4,reversed,incorrect,0.03401077738317948,1,invalid_win,40.61554570007138,5,,,,,,,,,,,,,s_037,2,2021_Jan_06_1248,Reversal,3.2.4,60.096442778133934,
8,exp1.png,exp2.png,0,0,0,0,0,8,8,8,,,,,,,,,,,,,,,,,,,,,,,,,False,8,9,False,exp1.png,exp2.png,trial_left_image,1,exp1.png,2,exp1.png,exp2.png,1,1,non-reversed,correct,0.3715063254482669,1,valid_win,45.11354140006006,6,,,,,,,,,,,,,s_037,2,2021_Jan_06_1248,Reversal,3.2.4,60.096442778133934,
9,exp3.png,exp4.png,0,0,0,0,0,9,9,9,,,,,,,,,,,,,,,,,,,,,,,,,False,9,10,False,exp3.png,exp4.png,trial_right_image,-1,exp4.png,2,exp3.png,exp4.png,0,4,reversed,incorrect,0.35509809379959656,0,valid_lose,50.11151019996032,6,,,,,,,,,,,,,s_037,2,2021_Jan_06_1248,Reversal,3.2.4,60.096442778133934,
10,exp1.png,exp2.png,0,0,0,0,0,10,10,10,,,,,,,,,,,,,,,,,,,,,,,,,False,10,11,False,exp1.png,exp2.png,trial_right_image,-1,exp2.png,2,exp1.png,exp2.png,0,2,non-reversed,incorrect,0.17497124522308627,1,invalid_win,55.09338949993253,7,,,,,,,,,,,,,s_037,2,2021_Jan_06_1248,Reversal,3.2.4,60.096442778133934,
11,exp3.png,exp4.png,0,0,0,0,0,11,11,11,,,,,,,,,,,,,,,,,,,,,,,,,False,11,12,False,exp3.png,exp4.png,trial_right_image,-1,exp4.png,2,exp3.png,exp4.png,0,4,reversed,incorrect,0.09430556907192011,1,invalid_win,60.29211589996703,8,,,,,,,,,,,,,s_037,2,2021_Jan_06_1248,Reversal,3.2.4,60.096442778133934,
12,exp1.png,exp2.png,0,0,0,0,0,12,12,12,,,,,,,,,,,,,,,,,,,,,,,,,False,12,13,False,exp1.png,exp2.png,trial_right_image,-1,exp2.png,2,exp1.png,exp2.png,0,2,non-reversed,incorrect,0.876633369719168,0,valid_lose,65.72377589996904,8,,,,,,,,,,,,,s_037,2,2021_Jan_06_1248,Reversal,3.2.4,60.096442778133934,
13,exp3.png,exp4.png,0,0,0,0,0,13,13,13,,,,,,,,,,,,,,,,,,,,,,,,,False,13,14,True,exp4.png,exp3.png,trial_left_image,1,exp4.png,2,exp3.png,exp4.png,0,4,reversed,incorrect,0.37960778508450077,0,valid_lose,70.62175929988734,8,,,,,,,,,,,,,s_037,2,2021_Jan_06_1248,Reversal,3.2.4,60.096442778133934,
14,exp1.png,exp2.png,0,0,0,0,0,14,14,14,,,,,,,,,,,,,,,,,,,,,,,,,False,14,15,False,exp1.png,exp2.png,trial_right_image,-1,exp2.png,2,exp1.png,exp2.png,0,2,non-reversed,incorrect,0.19916013545861855,1,invalid_win,74.98680639988743,9,,,,,,,,,,,,,s_037,2,2021_Jan_06_1248,Reversal,3.2.4,60.096442778133934,
15,exp3.png,exp4.png,0,0,0,0,0,15,15,15,,,,,,,,,,,,,,,,,,,,,,,,,False,15,16,True,exp4.png,exp3.png,trial_right_image,-1,exp3.png,2,exp3.png,exp4.png,1,3,reversed,correct,0.7798360377434054,1,valid_win,79.16828999994323,10,,,,,,,,,,,,,s_037,2,2021_Jan_06_1248,Reversal,3.2.4,60.096442778133934,
16,exp1.png,exp2.png,0,0,0,0,0,16,16,16,,,,,,,,,,,,,,,,,,,,,,,,,False,16,17,False,exp1.png,exp2.png,trial_right_image,-1,exp2.png,2,exp1.png,exp2.png,0,2,non-reversed,incorrect,0.07658587966044683,1,invalid_win,83.51790089998394,11,,,,,,,,,,,,,s_037,2,2021_Jan_06_1248,Reversal,3.2.4,60.096442778133934,
17,exp3.png,exp4.png,0,0,0,0,0,17,17,17,,,,,,,,,,,,,,,,,,,,,,,,,False,17,18,True,exp4.png,exp3.png,trial_left_image,1,exp4.png,2,exp3.png,exp4.png,0,4,reversed,incorrect,0.3543571609560293,0,valid_lose,89.01541090011597,11,,,,,,,,,,,,,s_037,2,2021_Jan_06_1248,Reversal,3.2.4,60.096442778133934,
18,exp1.png,exp2.png,0,0,0,0,0,18,18,18,,,,,,,,,,,,,,,,,,,,,,,,,False,18,19,True,exp2.png,exp1.png,trial_right_image,-1,exp1.png,2,exp1.png,exp2.png,1,1,non-reversed,correct,0.1912767915679996,0,invalid_lose,93.48058789991774,11,,,,,,,,,,,,,s_037,2,2021_Jan_06_1248,Reversal,3.2.4,60.096442778133934,
19,exp3.png,exp4.png,0,0,0,0,0,19,19,19,,,,,,,,,,,,,,,,,,,,,,,,,False,19,20,False,exp3.png,exp4.png,trial_right_image,-1,exp4.png,2,exp3.png,exp4.png,0,4,reversed,incorrect,0.7781851034849413,0,valid_lose,97.7636164999567,11,,,,,,,,,,,,,s_037,2,2021_Jan_06_1248,Reversal,3.2.4,60.096442778133934,
20,exp1.png,exp2.png,0,0,0,0,0,20,20,20,,,,,,,,,,,,,,,,,,,,,,,,,True,,,,,,,,,,,,,,,,,,,,,,,,,,,,,,,,,s_037,2,2021_Jan_06_1248,Reversal,3.2.4,60.096442778133934,
,,,0,0,0,0,,,,,0,0,0,0,,,,,,,,,,,,,,,,,,,,,,,,,,,,,,,,,,,,,,,,,,66,44,72,31,,,,,,,,,s_037,2,2021_Jan_06_1248,Reversal,3.2.4,60.096442778133934,
0,exp1.png,exp2.png,1,0,1,0,0,0,0,0,,,,,,,,,,,,,,,,,,,,,,,,,False,20,21,True,exp2.png,exp1.png,trial_left_image,1,exp2.png,2,exp1.png,exp2.png,0,2,non-reversed,incorrect,0.2375345836685967,1,invalid_win,121.53788569988683,12,,,,,,,,,,,,,s_037,2,2021_Jan_06_1248,Reversal,3.2.4,60.096442778133934,
1,exp3.png,exp4.png,1,0,1,0,0,1,1,1,,,,,,,,,,,,,,,,,,,,,,,,,False,21,22,False,exp3.png,exp4.png,trial_right_image,-1,exp4.png,2,exp3.png,exp4.png,0,4,reversed,incorrect,0.893493154062785,0,valid_lose,127.05284649995156,12,,,,,,,,,,,,,s_037,2,2021_Jan_06_1248,Reversal,3.2.4,60.096442778133934,
2,exp1.png,exp2.png,1,0,1,0,0,2,2,2,,,,,,,,,,,,,,,,,,,,,,,,,False,22,23,True,exp2.png,exp1.png,trial_left_image,1,exp2.png,2,exp1.png,exp2.png,0,2,non-reversed,incorrect,0.02972575809277056,1,invalid_win,131.7677029001061,13,,,,,,,,,,,,,s_037,2,2021_Jan_06_1248,Reversal,3.2.4,60.096442778133934,
3,exp3.png,exp4.png,1,0,1,0,0,3,3,3,,,,,,,,,,,,,,,,,,,,,,,,,False,23,24,False,exp3.png,exp4.png,trial_left_image,1,exp3.png,2,exp3.png,exp4.png,1,3,reversed,correct,0.3930513514936377,1,valid_win,136.51547889993526,14,,,,,,,,,,,,,s_037,2,2021_Jan_06_1248,Reversal,3.2.4,60.096442778133934,
4,exp1.png,exp2.png,1,0,1,0,0,4,4,4,,,,,,,,,,,,,,,,,,,,,,,,,False,24,25,False,exp1.png,exp2.png,trial_right_image,-1,exp2.png,2,exp1.png,exp2.png,0,2,non-reversed,incorrect,0.3228814832512591,0,valid_lose,141.48113279999234,14,,,,,,,,,,,,,s_037,2,2021_Jan_06_1248,Reversal,3.2.4,60.096442778133934,
5,exp3.png,exp4.png,1,0,1,0,0,5,5,5,,,,,,,,,,,,,,,,,,,,,,,,,False,25,26,False,exp3.png,exp4.png,trial_left_image,1,exp3.png,2,exp3.png,exp4.png,1,3,reversed,correct,0.34051722565464737,1,valid_win,148.3457508001011,15,,,,,,,,,,,,,s_037,2,2021_Jan_06_1248,Reversal,3.2.4,60.096442778133934,
6,exp1.png,exp2.png,1,0,1,0,0,6,6,6,,,,,,,,,,,,,,,,,,,,,,,,,False,26,27,False,exp1.png,exp2.png,trial_left_image,1,exp1.png,2,exp1.png,exp2.png,1,1,non-reversed,correct,0.4719466572445675,1,valid_win,154.0764081000816,16,,,,,,,,,,,,,s_037,2,2021_Jan_06_1248,Reversal,3.2.4,60.096442778133934,
7,exp3.png,exp4.png,1,0,1,0,0,7,7,7,,,,,,,,,,,,,,,,,,,,,,,,,False,27,28,False,exp3.png,exp4.png,trial_left_image,1,exp3.png,2,exp3.png,exp4.png,1,3,reversed,correct,0.4160815247778693,1,valid_win,159.22485290002078,17,,,,,,,,,,,,,s_037,2,2021_Jan_06_1248,Reversal,3.2.4,60.096442778133934,
8,exp1.png,exp2.png,1,0,1,0,0,8,8,8,,,,,,,,,,,,,,,,,,,,,,,,,False,28,29,True,exp2.png,exp1.png,trial_right_image,-1,exp1.png,2,exp1.png,exp2.png,1,1,non-reversed,correct,0.8963130465408892,1,valid_win,164.15657530003227,18,,,,,,,,,,,,,s_037,2,2021_Jan_06_1248,Reversal,3.2.4,60.096442778133934,
9,exp3.png,exp4.png,1,0,1,0,0,9,9,9,,,,,,,,,,,,,,,,,,,,,,,,,False,29,30,True,exp4.png,exp3.png,trial_right_image,-1,exp3.png,2,exp3.png,exp4.png,1,3,reversed,correct,0.692192466470451,1,valid_win,168.72248460003175,19,,,,,,,,,,,,,s_037,2,2021_Jan_06_1248,Reversal,3.2.4,60.096442778133934,
10,exp1.png,exp2.png,1,0,1,0,0,10,10,10,,,,,,,,,,,,,,,,,,,,,,,,,False,30,31,True,exp2.png,exp1.png,trial_right_image,-1,exp1.png,2,exp1.png,exp2.png,1,1,non-reversed,correct,0.35463665965350133,1,valid_win,173.8871532001067,20,,,,,,,,,,,,,s_037,2,2021_Jan_06_1248,Reversal,3.2.4,60.096442778133934,
11,exp3.png,exp4.png,1,0,1,0,0,11,11,11,,,,,,,,,,,,,,,,,,,,,,,,,False,31,32,False,exp3.png,exp4.png,trial_left_image,1,exp3.png,2,exp3.png,exp4.png,1,3,reversed,correct,0.6692273573989785,1,valid_win,178.11875779996626,21,,,,,,,,,,,,,s_037,2,2021_Jan_06_1248,Reversal,3.2.4,60.096442778133934,
12,exp1.png,exp2.png,1,0,1,0,0,12,12,12,,,,,,,,,,,,,,,,,,,,,,,,,False,32,33,True,exp2.png,exp1.png,trial_right_image,-1,exp1.png,2,exp1.png,exp2.png,1,1,non-reversed,correct,0.7803028441246328,1,valid_win,182.60085940011777,22,,,,,,,,,,,,,s_037,2,2021_Jan_06_1248,Reversal,3.2.4,60.096442778133934,
13,exp3.png,exp4.png,1,0,1,0,0,13,13,13,,,,,,,,,,,,,,,,,,,,,,,,,False,33,34,False,exp3.png,exp4.png,trial_left_image,1,exp3.png,2,exp3.png,exp4.png,1,3,reversed,correct,0.4568629088286281,1,valid_win,186.8668027999811,23,,,,,,,,,,,,,s_037,2,2021_Jan_06_1248,Reversal,3.2.4,60.096442778133934,
14,exp1.png,exp2.png,1,0,1,0,0,14,14,14,,,,,,,,,,,,,,,,,,,,,,,,,False,34,35,True,exp2.png,exp1.png,trial_right_image,-1,exp1.png,2,exp1.png,exp2.png,1,1,non-reversed,correct,0.44101326082775727,1,valid_win,191.04788769991137,24,,,,,,,,,,,,,s_037,2,2021_Jan_06_1248,Reversal,3.2.4,60.096442778133934,
15,exp3.png,exp4.png,1,0,1,0,0,15,15,15,,,,,,,,,,,,,,,,,,,,,,,,,False,35,36,True,exp4.png,exp3.png,trial_right_image,-1,exp3.png,2,exp3.png,exp4.png,1,3,reversed,correct,0.39481956314484334,1,valid_win,195.2628872001078,25,,,,,,,,,,,,,s_037,2,2021_Jan_06_1248,Reversal,3.2.4,60.096442778133934,
16,exp1.png,exp2.png,1,0,1,0,0,16,16,16,,,,,,,,,,,,,,,,,,,,,,,,,False,36,37,False,exp1.png,exp2.png,trial_left_image,1,exp1.png,2,exp1.png,exp2.png,1,1,non-reversed,correct,0.3119879372046126,1,valid_win,199.99452619999647,26,,,,,,,,,,,,,s_037,2,2021_Jan_06_1248,Reversal,3.2.4,60.096442778133934,
17,exp3.png,exp4.png,1,0,1,0,0,17,17,17,,,,,,,,,,,,,,,,,,,,,,,,,False,37,38,False,exp3.png,exp4.png,trial_left_image,1,exp3.png,2,exp3.png,exp4.png,1,3,reversed,correct,0.3148224681817645,1,valid_win,205.3934943000786,27,,,,,,,,,,,,,s_037,2,2021_Jan_06_1248,Reversal,3.2.4,60.096442778133934,
18,exp1.png,exp2.png,1,0,1,0,0,18,18,18,,,,,,,,,,,,,,,,,,,,,,,,,False,38,39,True,exp2.png,exp1.png,trial_right_image,-1,exp1.png,2,exp1.png,exp2.png,1,1,non-reversed,correct,0.8833905902786529,1,valid_win,210.2411376000382,28,,,,,,,,,,,,,s_037,2,2021_Jan_06_1248,Reversal,3.2.4,60.096442778133934,
19,exp3.png,exp4.png,1,0,1,0,0,19,19,19,,,,,,,,,,,,,,,,,,,,,,,,,False,39,40,True,exp4.png,exp3.png,trial_right_image,-1,exp3.png,2,exp3.png,exp4.png,1,3,reversed,correct,0.16377780732743474,0,invalid_lose,214.33977980003692,28,,,,,,,,,,,,,s_037,2,2021_Jan_06_1248,Reversal,3.2.4,60.096442778133934,
20,exp1.png,exp2.png,1,0,1,0,0,20,20,20,,,,,,,,,,,,,,,,,,,,,,,,,True,,,,,,,,,,,,,,,,,,,,,,,,,,,,,,,,,s_037,2,2021_Jan_06_1248,Reversal,3.2.4,60.096442778133934,
,,,1,0,1,0,,,,,0,0,0,0,,,,,,,,,,,,,,,,,,,,,,,,,,,,,,,,,,,,,,,,,,100,26,91,38,,,,,,,,,s_037,2,2021_Jan_06_1248,Reversal,3.2.4,60.096442778133934,
0,exp1.png,exp2.png,2,0,2,0,0,0,0,0,,,,,,,,,,,,,,,,,,,,,,,,,False,40,41,True,exp2.png,exp1.png,trial_left_image,1,exp2.png,2,exp1.png,exp2.png,0,2,non-reversed,incorrect,0.29797846575509546,0,valid_lose,234.11649730009958,28,,,,,,,,,,,,,s_037,2,2021_Jan_06_1248,Reversal,3.2.4,60.096442778133934,
1,exp3.png,exp4.png,2,0,2,0,0,1,1,1,,,,,,,,,,,,,,,,,,,,,,,,,False,41,42,True,exp4.png,exp3.png,trial_right_image,-1,exp3.png,2,exp3.png,exp4.png,1,3,reversed,correct,0.39187262399044276,1,valid_win,238.29861230007373,29,,,,,,,,,,,,,s_037,2,2021_Jan_06_1248,Reversal,3.2.4,60.096442778133934,
2,exp1.png,exp2.png,2,0,2,0,0,2,2,2,,,,,,,,,,,,,,,,,,,,,,,,,False,42,43,True,exp2.png,exp1.png,trial_right_image,-1,exp1.png,2,exp1.png,exp2.png,1,1,non-reversed,correct,0.7373608019862112,1,valid_win,242.76387930009514,30,,,,,,,,,,,,,s_037,2,2021_Jan_06_1248,Reversal,3.2.4,60.096442778133934,
3,exp3.png,exp4.png,2,0,2,0,0,3,3,3,,,,,,,,,,,,,,,,,,,,,,,,,False,43,44,False,exp3.png,exp4.png,trial_left_image,1,exp3.png,2,exp3.png,exp4.png,1,3,reversed,correct,0.3905267941599173,1,valid_win,247.2451116000302,31,,,,,,,,,,,,,s_037,2,2021_Jan_06_1248,Reversal,3.2.4,60.096442778133934,
4,exp1.png,exp2.png,2,0,2,0,0,4,4,4,,,,,,,,,,,,,,,,,,,,,,,,,False,44,45,True,exp2.png,exp1.png,trial_right_image,-1,exp1.png,2,exp1.png,exp2.png,1,1,non-reversed,correct,0.6465554344627698,1,valid_win,251.79421359999105,32,,,,,,,,,,,,,s_037,2,2021_Jan_06_1248,Reversal,3.2.4,60.096442778133934,
5,exp3.png,exp4.png,2,0,2,0,0,5,5,5,,,,,,,,,,,,,,,,,,,,,,,,,False,45,46,False,exp3.png,exp4.png,trial_left_image,1,exp3.png,2,exp3.png,exp4.png,1,3,reversed,correct,0.43514361385741296,1,valid_win,255.95913419988938,33,,,,,,,,,,,,,s_037,2,2021_Jan_06_1248,Reversal,3.2.4,60.096442778133934,
6,exp1.png,exp2.png,2,0,2,0,0,6,6,6,,,,,,,,,,,,,,,,,,,,,,,,,False,46,47,False,exp1.png,exp2.png,trial_left_image,1,exp1.png,2,exp1.png,exp2.png,1,1,non-reversed,correct,0.8039747086412847,1,valid_win,261.2412624999415,34,,,,,,,,,,,,,s_037,2,2021_Jan_06_1248,Reversal,3.2.4,60.096442778133934,
7,exp3.png,exp4.png,2,0,2,0,0,7,7,7,,,,,,,,,,,,,,,,,,,,,,,,,False,47,48,False,exp3.png,exp4.png,trial_left_image,1,exp3.png,2,exp3.png,exp4.png,1,3,reversed,correct,0.12122028365167337,0,invalid_lose,265.506205300102,34,,,,,,,,,,,,,s_037,2,2021_Jan_06_1248,Reversal,3.2.4,60.096442778133934,
8,exp1.png,exp2.png,2,0,2,0,0,8,8,8,,,,,,,,,,,,,,,,,,,,,,,,,False,48,49,False,exp1.png,exp2.png,trial_left_image,1,exp1.png,2,exp1.png,exp2.png,1,1,non-reversed,correct,0.009731386552327748,0,invalid_lose,269.82131880009547,34,,,,,,,,,,,,,s_037,2,2021_Jan_06_1248,Reversal,3.2.4,60.096442778133934,
9,exp3.png,exp4.png,2,0,2,0,0,9,9,9,,,,,,,,,,,,,,,,,,,,,,,,,False,49,50,True,exp4.png,exp3.png,trial_left_image,1,exp4.png,2,exp3.png,exp4.png,0,4,reversed,incorrect,0.12329841559872701,1,invalid_win,274.6025775000453,35,,,,,,,,,,,,,s_037,2,2021_Jan_06_1248,Reversal,3.2.4,60.096442778133934,
10,exp1.png,exp2.png,2,0,2,0,0,10,10,10,,,,,,,,,,,,,,,,,,,,,,,,,False,50,51,False,exp1.png,exp2.png,trial_right_image,-1,exp2.png,2,exp1.png,exp2.png,0,2,non-reversed,incorrect,0.016140105220993073,1,invalid_win,278.5848429000471,36,,,,,,,,,,,,,s_037,2,2021_Jan_06_1248,Reversal,3.2.4,60.096442778133934,
11,exp3.png,exp4.png,2,0,2,0,0,11,11,11,,,,,,,,,,,,,,,,,,,,,,,,,False,51,52,False,exp3.png,exp4.png,trial_left_image,1,exp3.png,2,exp3.png,exp4.png,1,3,reversed,correct,0.8407263112056527,1,valid_win,282.8415139000863,37,,,,,,,,,,,,,s_037,2,2021_Jan_06_1248,Reversal,3.2.4,60.096442778133934,
12,exp1.png,exp2.png,2,0,2,0,0,12,12,12,,,,,,,,,,,,,,,,,,,,,,,,,False,52,53,False,exp1.png,exp2.png,trial_left_image,1,exp1.png,2,exp1.png,exp2.png,1,1,non-reversed,correct,0.2016459096351887,0,invalid_lose,287.4344798999373,37,,,,,,,,,,,,,s_037,2,2021_Jan_06_1248,Reversal,3.2.4,60.096442778133934,
13,exp3.png,exp4.png,2,0,2,0,0,13,13,13,,,,,,,,,,,,,,,,,,,,,,,,,False,53,54,False,exp3.png,exp4.png,trial_left_image,1,exp3.png,2,exp3.png,exp4.png,1,3,reversed,correct,0.16126609318205443,0,invalid_lose,293.19648519996554,37,,,,,,,,,,,,,s_037,2,2021_Jan_06_1248,Reversal,3.2.4,60.096442778133934,
14,exp1.png,exp2.png,2,0,2,0,0,14,14,14,,,,,,,,,,,,,,,,,,,,,,,,,False,54,55,True,exp2.png,exp1.png,trial_left_image,1,exp2.png,2,exp1.png,exp2.png,0,2,non-reversed,incorrect,0.872675909078811,0,valid_lose,298.2448148999829,37,,,,,,,,,,,,,s_037,2,2021_Jan_06_1248,Reversal,3.2.4,60.096442778133934,
15,exp3.png,exp4.png,2,0,2,0,0,15,15,15,,,,,,,,,,,,,,,,,,,,,,,,,False,55,56,True,exp4.png,exp3.png,trial_left_image,1,exp4.png,2,exp3.png,exp4.png,0,4,reversed,incorrect,0.5443713222726171,0,valid_lose,302.9601348999422,37,,,,,,,,,,,,,s_037,2,2021_Jan_06_1248,Reversal,3.2.4,60.096442778133934,
16,exp1.png,exp2.png,2,0,2,0,0,16,16,16,,,,,,,,,,,,,,,,,,,,,,,,,False,56,57,True,exp2.png,exp1.png,trial_right_image,-1,exp1.png,2,exp1.png,exp2.png,1,1,non-reversed,correct,0.3351824298351249,1,valid_win,307.1257515999023,38,,,,,,,,,,,,,s_037,2,2021_Jan_06_1248,Reversal,3.2.4,60.096442778133934,
17,exp3.png,exp4.png,2,0,2,0,0,17,17,17,,,,,,,,,,,,,,,,,,,,,,,,,False,57,58,True,exp4.png,exp3.png,trial_right_image,-1,exp3.png,2,exp3.png,exp4.png,1,3,reversed,correct,0.3723623905708965,1,valid_win,311.1901048000436,39,,,,,,,,,,,,,s_037,2,2021_Jan_06_1248,Reversal,3.2.4,60.096442778133934,
18,exp1.png,exp2.png,2,0,2,0,0,18,18,18,,,,,,,,,,,,,,,,,,,,,,,,,False,58,59,True,exp2.png,exp1.png,trial_right_image,-1,exp1.png,2,exp1.png,exp2.png,1,1,non-reversed,correct,0.8665146182973628,1,valid_win,316.5552908000536,40,,,,,,,,,,,,,s_037,2,2021_Jan_06_1248,Reversal,3.2.4,60.096442778133934,
19,exp3.png,exp4.png,2,0,2,0,0,19,19,19,,,,,,,,,,,,,,,,,,,,,,,,,False,59,60,False,exp3.png,exp4.png,trial_right_image,-1,exp4.png,2,exp3.png,exp4.png,0,4,reversed,incorrect,0.2443013014640768,1,invalid_win,320.72047870000824,41,,,,,,,,,,,,,s_037,2,2021_Jan_06_1248,Reversal,3.2.4,60.096442778133934,
20,exp1.png,exp2.png,2,0,2,0,0,20,20,20,,,,,,,,,,,,,,,,,,,,,,,,,True,,,,,,,,,,,,,,,,,,,,,,,,,,,,,,,,,s_037,2,2021_Jan_06_1248,Reversal,3.2.4,60.096442778133934,
,,,2,0,2,0,,,,,0,0,0,0,,,,,,,,,,,,,,,,,,,,,,,,,,,,,,,,,,,,,,,,,,61,60,43,59,,,,,,,,,s_037,2,2021_Jan_06_1248,Reversal,3.2.4,60.096442778133934,
0,exp1.png,exp2.png,,,,,,,,,,,,,,,,,0,0,0,0,0,0,0,0,,,,,,,,,False,0,61,False,exp1.png,exp2.png,trial_right_image,-1,exp2.png,2,exp1.png,exp2.png,0,2,non-reversed,incorrect,0.0020882584785928415,1,invalid_win,333.94920370006,42,,,,,331.91587350005284,,,,,,,,s_037,2,2021_Jan_06_1248,Reversal,3.2.4,60.096442778133934,
1,exp3.png,exp4.png,,,,,,,,,,,,,,,,,0,0,0,0,0,1,1,1,,,,,,,,,False,1,62,True,exp4.png,exp3.png,trial_left_image,1,exp4.png,2,exp4.png,exp3.png,0,4,reversed,correct,0.11494761161150124,0,invalid_lose,338.08117710007355,42,,,,,,,,,,,,,s_037,2,2021_Jan_06_1248,Reversal,3.2.4,60.096442778133934,
2,exp1.png,exp2.png,,,,,,,,,,,,,,,,,0,0,0,0,0,2,2,2,,,,,,,,,False,2,63,False,exp1.png,exp2.png,trial_right_image,-1,exp2.png,2,exp1.png,exp2.png,0,2,non-reversed,incorrect,0.43882956783920846,0,valid_lose,341.9131567000877,42,,,,,,,,,,,,,s_037,2,2021_Jan_06_1248,Reversal,3.2.4,60.096442778133934,
3,exp3.png,exp4.png,,,,,,,,,,,,,,,,,0,0,0,0,0,3,3,3,,,,,,,,,False,3,64,True,exp4.png,exp3.png,trial_right_image,-1,exp3.png,2,exp4.png,exp3.png,1,3,reversed,incorrect,0.8300089964709845,0,valid_lose,346.54507019999437,42,,,,,,,,,,,,,s_037,2,2021_Jan_06_1248,Reversal,3.2.4,60.096442778133934,
4,exp1.png,exp2.png,,,,,,,,,,,,,,,,,0,0,0,0,0,4,4,4,,,,,,,,,False,4,65,False,exp1.png,exp2.png,trial_left_image,1,exp1.png,2,exp1.png,exp2.png,1,1,non-reversed,correct,0.4486912908309191,1,valid_win,350.9937112000771,43,,,,,,,,,,,,,s_037,2,2021_Jan_06_1248,Reversal,3.2.4,60.096442778133934,
5,exp3.png,exp4.png,,,,,,,,,,,,,,,,,0,0,0,0,0,5,5,5,,,,,,,,,False,5,66,True,exp4.png,exp3.png,trial_left_image,1,exp4.png,2,exp4.png,exp3.png,0,4,reversed,correct,0.3289471956580162,1,valid_win,354.9923560998868,44,,,,,,,,,,,,,s_037,2,2021_Jan_06_1248,Reversal,3.2.4,60.096442778133934,
6,exp1.png,exp2.png,,,,,,,,,,,,,,,,,0,0,0,0,0,6,6,6,,,,,,,,,False,6,67,True,exp2.png,exp1.png,trial_left_image,1,exp2.png,2,exp1.png,exp2.png,0,2,non-reversed,incorrect,0.43818504936727165,0,valid_lose,359.073605600046,44,,,,,,,,,,,,,s_037,2,2021_Jan_06_1248,Reversal,3.2.4,60.096442778133934,
7,exp3.png,exp4.png,,,,,,,,,,,,,,,,,0,0,0,0,0,7,7,7,,,,,,,,,False,7,68,False,exp3.png,exp4.png,trial_right_image,-1,exp4.png,2,exp4.png,exp3.png,0,4,reversed,correct,0.2761920896386443,1,valid_win,362.9897314000409,45,,,,,,,,,,,,,s_037,2,2021_Jan_06_1248,Reversal,3.2.4,60.096442778133934,
8,exp1.png,exp2.png,,,,,,,,,,,,,,,,,0,0,0,0,0,8,8,8,,,,,,,,,False,8,69,False,exp1.png,exp2.png,trial_left_image,1,exp1.png,2,exp1.png,exp2.png,1,1,non-reversed,correct,0.14685187187604576,0,invalid_lose,367.22127370000817,45,,,,,,,,,,,,,s_037,2,2021_Jan_06_1248,Reversal,3.2.4,60.096442778133934,
9,exp3.png,exp4.png,,,,,,,,,,,,,,,,,0,0,0,0,0,9,9,9,,,,,,,,,False,9,70,False,exp3.png,exp4.png,trial_right_image,-1,exp4.png,2,exp4.png,exp3.png,0,4,reversed,correct,0.8699370102304103,1,valid_win,371.1031078998931,46,,,,,,,,,,,,,s_037,2,2021_Jan_06_1248,Reversal,3.2.4,60.096442778133934,
10,exp1.png,exp2.png,,,,,,,,,,,,,,,,,0,0,0,0,0,10,10,10,,,,,,,,,False,10,71,True,exp2.png,exp1.png,trial_right_image,-1,exp1.png,2,exp1.png,exp2.png,1,1,non-reversed,correct,0.5462351543013798,1,valid_win,375.3688874999061,47,,,,,,,,,,,,,s_037,2,2021_Jan_06_1248,Reversal,3.2.4,60.096442778133934,
11,exp3.png,exp4.png,,,,,,,,,,,,,,,,,0,0,0,0,0,11,11,11,,,,,,,,,False,11,72,False,exp3.png,exp4.png,trial_right_image,-1,exp4.png,2,exp4.png,exp3.png,0,4,reversed,correct,0.32996735378404674,1,valid_win,380.26723570004106,48,,,,,,,,,,,,,s_037,2,2021_Jan_06_1248,Reversal,3.2.4,60.096442778133934,
12,exp1.png,exp2.png,,,,,,,,,,,,,,,,,0,0,0,0,0,12,12,12,,,,,,,,,False,12,73,True,exp2.png,exp1.png,trial_left_image,1,exp2.png,2,exp1.png,exp2.png,0,2,non-reversed,incorrect,0.15139477146969882,1,invalid_win,384.6490553000476,49,,,,,,,,,,,,,s_037,2,2021_Jan_06_1248,Reversal,3.2.4,60.096442778133934,
13,exp3.png,exp4.png,,,,,,,,,,,,,,,,,0,0,0,0,0,13,13,13,,,,,,,,,False,13,74,False,exp3.png,exp4.png,trial_right_image,-1,exp4.png,2,exp4.png,exp3.png,0,4,reversed,correct,0.31454207387162625,1,valid_win,388.83140320004895,50,,,,,,,,,,,,,s_037,2,2021_Jan_06_1248,Reversal,3.2.4,60.096442778133934,
14,exp1.png,exp2.png,,,,,,,,,,,,,,,,,0,0,0,0,0,14,14,14,,,,,,,,,False,14,75,False,exp1.png,exp2.png,trial_right_image,-1,exp2.png,2,exp1.png,exp2.png,0,2,non-reversed,incorrect,0.46348553673283843,0,valid_lose,393.16248099994846,50,,,,,,,,,,,,,s_037,2,2021_Jan_06_1248,Reversal,3.2.4,60.096442778133934,
15,exp3.png,exp4.png,,,,,,,,,,,,,,,,,0,0,0,0,0,15,15,15,,,,,,,,,False,15,76,False,exp3.png,exp4.png,trial_right_image,-1,exp4.png,2,exp4.png,exp3.png,0,4,reversed,correct,0.7725656962940073,1,valid_win,397.72797890007496,51,,,,,,,,,,,,,s_037,2,2021_Jan_06_1248,Reversal,3.2.4,60.096442778133934,
16,exp1.png,exp2.png,,,,,,,,,,,,,,,,,0,0,0,0,0,16,16,16,,,,,,,,,False,16,77,True,exp2.png,exp1.png,trial_left_image,1,exp2.png,2,exp1.png,exp2.png,0,2,non-reversed,incorrect,0.9485571359058559,0,valid_lose,401.7767014999408,51,,,,,,,,,,,,,s_037,2,2021_Jan_06_1248,Reversal,3.2.4,60.096442778133934,
17,exp3.png,exp4.png,,,,,,,,,,,,,,,,,0,0,0,0,0,17,17,17,,,,,,,,,False,17,78,True,exp4.png,exp3.png,trial_right_image,-1,exp3.png,2,exp4.png,exp3.png,1,3,reversed,incorrect,0.9456366348105056,0,valid_lose,405.8282920999918,51,,,,,,,,,,,,,s_037,2,2021_Jan_06_1248,Reversal,3.2.4,60.096442778133934,
18,exp1.png,exp2.png,,,,,,,,,,,,,,,,,0,0,0,0,0,18,18,18,,,,,,,,,False,18,79,True,exp2.png,exp1.png,trial_right_image,-1,exp1.png,2,exp1.png,exp2.png,1,1,non-reversed,correct,0.5568011500480249,1,valid_win,410.8400550999213,52,,,,,,,,,,,,,s_037,2,2021_Jan_06_1248,Reversal,3.2.4,60.096442778133934,
19,exp3.png,exp4.png,,,,,,,,,,,,,,,,,0,0,0,0,0,19,19,19,,,,,,,,,False,19,80,True,exp4.png,exp3.png,trial_left_image,1,exp4.png,2,exp4.png,exp3.png,0,4,reversed,correct,0.36695742108283247,1,valid_win,415.28835009993054,53,,,,,,,,,,,,,s_037,2,2021_Jan_06_1248,Reversal,3.2.4,60.096442778133934,
20,exp1.png,exp2.png,,,,,,,,,,,,,,,,,0,0,0,0,0,20,20,20,,,,,,,,,True,,,,,,,,,,,,,,,,,,,,,,,,,,,,,,,,,s_037,2,2021_Jan_06_1248,Reversal,3.2.4,60.096442778133934,
,,,,,,,,,,,,,,,,,,,0,0,0,0,,,,,0,0,0,0,,,,,,,,,,,,,,,,,,,,,,,,,,29,75,39,74,,,,,,,,,s_037,2,2021_Jan_06_1248,Reversal,3.2.4,60.096442778133934,
0,exp1.png,exp2.png,,,,,,,,,,,,,,,,,1,0,1,0,0,0,0,0,,,,,,,,,False,20,81,True,exp2.png,exp1.png,trial_right_image,-1,exp1.png,2,exp1.png,exp2.png,1,1,non-reversed,correct,0.9090903609440805,1,valid_win,431.5001095000189,54,,,,,,,,,,,,,s_037,2,2021_Jan_06_1248,Reversal,3.2.4,60.096442778133934,
1,exp3.png,exp4.png,,,,,,,,,,,,,,,,,1,0,1,0,0,1,1,1,,,,,,,,,False,21,82,False,exp3.png,exp4.png,trial_left_image,1,exp3.png,2,exp4.png,exp3.png,1,3,reversed,incorrect,0.11393864876732784,1,invalid_win,436.9993839999661,55,,,,,,,,,,,,,s_037,2,2021_Jan_06_1248,Reversal,3.2.4,60.096442778133934,
2,exp1.png,exp2.png,,,,,,,,,,,,,,,,,1,0,1,0,0,2,2,2,,,,,,,,,False,22,83,True,exp2.png,exp1.png,trial_right_image,-1,exp1.png,2,exp1.png,exp2.png,1,1,non-reversed,correct,0.6499314467069455,1,valid_win,440.9466921000276,56,,,,,,,,,,,,,s_037,2,2021_Jan_06_1248,Reversal,3.2.4,60.096442778133934,
3,exp3.png,exp4.png,,,,,,,,,,,,,,,,,1,0,1,0,0,3,3,3,,,,,,,,,False,23,84,True,exp4.png,exp3.png,trial_right_image,-1,exp3.png,2,exp4.png,exp3.png,1,3,reversed,incorrect,0.7297126240775934,0,valid_lose,444.9289043999743,56,,,,,,,,,,,,,s_037,2,2021_Jan_06_1248,Reversal,3.2.4,60.096442778133934,
4,exp1.png,exp2.png,,,,,,,,,,,,,,,,,1,0,1,0,0,4,4,4,,,,,,,,,False,24,85,True,exp2.png,exp1.png,trial_right_image,-1,exp1.png,2,exp1.png,exp2.png,1,1,non-reversed,correct,0.33270520981527874,1,valid_win,448.9106527999975,57,,,,,,,,,,,,,s_037,2,2021_Jan_06_1248,Reversal,3.2.4,60.096442778133934,
5,exp3.png,exp4.png,,,,,,,,,,,,,,,,,1,0,1,0,0,5,5,5,,,,,,,,,False,25,86,False,exp3.png,exp4.png,trial_right_image,-1,exp4.png,2,exp4.png,exp3.png,0,4,reversed,correct,0.20647597274548501,0,invalid_lose,453.00964289996773,57,,,,,,,,,,,,,s_037,2,2021_Jan_06_1248,Reversal,3.2.4,60.096442778133934,
6,exp1.png,exp2.png,,,,,,,,,,,,,,,,,1,0,1,0,0,6,6,6,,,,,,,,,False,26,87,False,exp1.png,exp2.png,trial_right_image,-1,exp2.png,2,exp1.png,exp2.png,0,2,non-reversed,incorrect,0.8384275687139631,0,valid_lose,457.1580976000987,57,,,,,,,,,,,,,s_037,2,2021_Jan_06_1248,Reversal,3.2.4,60.096442778133934,
7,exp3.png,exp4.png,,,,,,,,,,,,,,,,,1,0,1,0,0,7,7,7,,,,,,,,,False,27,88,True,exp4.png,exp3.png,trial_left_image,1,exp4.png,2,exp4.png,exp3.png,0,4,reversed,correct,0.6522830182399186,1,valid_win,461.50554600008763,58,,,,,,,,,,,,,s_037,2,2021_Jan_06_1248,Reversal,3.2.4,60.096442778133934,
8,exp1.png,exp2.png,,,,,,,,,,,,,,,,,1,0,1,0,0,8,8,8,,,,,,,,,False,28,89,False,exp1.png,exp2.png,trial_left_image,1,exp1.png,2,exp1.png,exp2.png,1,1,non-reversed,correct,0.3410063820294992,1,valid_win,466.1044972001109,59,,,,,,,,,,,,,s_037,2,2021_Jan_06_1248,Reversal,3.2.4,60.096442778133934,
9,exp3.png,exp4.png,,,,,,,,,,,,,,,,,1,0,1,0,0,9,9,9,,,,,,,,,False,29,90,False,exp3.png,exp4.png,trial_left_image,1,exp3.png,2,exp4.png,exp3.png,1,3,reversed,incorrect,0.05371681097927683,1,invalid_win,470.3366624000482,60,,,,,,,,,,,,,s_037,2,2021_Jan_06_1248,Reversal,3.2.4,60.096442778133934,
10,exp1.png,exp2.png,,,,,,,,,,,,,,,,,1,0,1,0,0,10,10,10,,,,,,,,,False,30,91,True,exp2.png,exp1.png,trial_right_image,-1,exp1.png,2,exp1.png,exp2.png,1,1,non-reversed,correct,0.41082383899309327,1,valid_win,475.1518757001031,61,,,,,,,,,,,,,s_037,2,2021_Jan_06_1248,Reversal,3.2.4,60.096442778133934,
11,exp3.png,exp4.png,,,,,,,,,,,,,,,,,1,0,1,0,0,11,11,11,,,,,,,,,False,31,92,False,exp3.png,exp4.png,trial_left_image,1,exp3.png,2,exp4.png,exp3.png,1,3,reversed,incorrect,0.8157180344756699,0,valid_lose,479.43336990009993,61,,,,,,,,,,,,,s_037,2,2021_Jan_06_1248,Reversal,3.2.4,60.096442778133934,
12,exp1.png,exp2.png,,,,,,,,,,,,,,,,,1,0,1,0,0,12,12,12,,,,,,,,,False,32,93,True,exp2.png,exp1.png,trial_right_image,-1,exp1.png,2,exp1.png,exp2.png,1,1,non-reversed,correct,0.318613645453126,1,valid_win,483.8652945999056,62,,,,,,,,,,,,,s_037,2,2021_Jan_06_1248,Reversal,3.2.4,60.096442778133934,
13,exp3.png,exp4.png,,,,,,,,,,,,,,,,,1,0,1,0,0,13,13,13,,,,,,,,,False,33,94,False,exp3.png,exp4.png,trial_right_image,-1,exp4.png,2,exp4.png,exp3.png,0,4,reversed,correct,0.3771775574497801,1,valid_win,488.4479769000318,63,,,,,,,,,,,,,s_037,2,2021_Jan_06_1248,Reversal,3.2.4,60.096442778133934,
14,exp1.png,exp2.png,,,,,,,,,,,,,,,,,1,0,1,0,0,14,14,14,,,,,,,,,False,34,95,False,exp1.png,exp2.png,trial_left_image,1,exp1.png,2,exp1.png,exp2.png,1,1,non-reversed,correct,0.716076942887276,1,valid_win,492.62898889998905,64,,,,,,,,,,,,,s_037,2,2021_Jan_06_1248,Reversal,3.2.4,60.096442778133934,
15,exp3.png,exp4.png,,,,,,,,,,,,,,,,,1,0,1,0,0,15,15,15,,,,,,,,,False,35,96,True,exp4.png,exp3.png,trial_left_image,1,exp4.png,2,exp4.png,exp3.png,0,4,reversed,correct,0.93309327426851,1,valid_win,496.9117574999109,65,,,,,,,,,,,,,s_037,2,2021_Jan_06_1248,Reversal,3.2.4,60.096442778133934,
16,exp1.png,exp2.png,,,,,,,,,,,,,,,,,1,0,1,0,0,16,16,16,,,,,,,,,False,36,97,False,exp1.png,exp2.png,trial_left_image,1,exp1.png,2,exp1.png,exp2.png,1,1,non-reversed,correct,0.5847484623939476,1,valid_win,500.8599066999741,66,,,,,,,,,,,,,s_037,2,2021_Jan_06_1248,Reversal,3.2.4,60.096442778133934,
17,exp3.png,exp4.png,,,,,,,,,,,,,,,,,1,0,1,0,0,17,17,17,,,,,,,,,False,37,98,True,exp4.png,exp3.png,trial_left_image,1,exp4.png,2,exp4.png,exp3.png,0,4,reversed,correct,0.9451383946060931,1,valid_win,504.7915918000508,67,,,,,,,,,,,,,s_037,2,2021_Jan_06_1248,Reversal,3.2.4,60.096442778133934,
18,exp1.png,exp2.png,,,,,,,,,,,,,,,,,1,0,1,0,0,18,18,18,,,,,,,,,False,38,99,False,exp1.png,exp2.png,trial_left_image,1,exp1.png,2,exp1.png,exp2.png,1,1,non-reversed,correct,0.641829367819171,1,valid_win,508.9236832000315,68,,,,,,,,,,,,,s_037,2,2021_Jan_06_1248,Reversal,3.2.4,60.096442778133934,
19,exp3.png,exp4.png,,,,,,,,,,,,,,,,,1,0,1,0,0,19,19,19,,,,,,,,,False,39,100,True,exp4.png,exp3.png,trial_left_image,1,exp4.png,2,exp4.png,exp3.png,0,4,reversed,correct,0.1647668763233361,0,invalid_lose,513.0227274000645,68,,,,,,,,,,,,,s_037,2,2021_Jan_06_1248,Reversal,3.2.4,60.096442778133934,
20,exp1.png,exp2.png,,,,,,,,,,,,,,,,,1,0,1,0,0,20,20,20,,,,,,,,,True,,,,,,,,,,,,,,,,,,,,,,,,,,,,,,,,,s_037,2,2021_Jan_06_1248,Reversal,3.2.4,60.096442778133934,
,,,,,,,,,,,,,,,,,,,1,0,1,0,,,,,0,0,0,0,,,,,,,,,,,,,,,,,,,,,,,,,,62,70,70,92,,,,,,,,,s_037,2,2021_Jan_06_1248,Reversal,3.2.4,60.096442778133934,
0,exp1.png,exp2.png,,,,,,,,,,,,,,,,,2,0,2,0,0,0,0,0,,,,,,,,,False,40,101,False,exp1.png,exp2.png,trial_right_image,-1,exp2.png,2,exp1.png,exp2.png,0,2,non-reversed,incorrect,0.5738325489969495,0,valid_lose,530.9171990999021,68,,,,,,,,,,,,,s_037,2,2021_Jan_06_1248,Reversal,3.2.4,60.096442778133934,
1,exp3.png,exp4.png,,,,,,,,,,,,,,,,,2,0,2,0,0,1,1,1,,,,,,,,,False,41,102,True,exp4.png,exp3.png,trial_right_image,-1,exp3.png,2,exp4.png,exp3.png,1,3,reversed,incorrect,0.6876670090994036,0,valid_lose,536.514670399949,68,,,,,,,,,,,,,s_037,2,2021_Jan_06_1248,Reversal,3.2.4,60.096442778133934,
2,exp1.png,exp2.png,,,,,,,,,,,,,,,,,2,0,2,0,0,2,2,2,,,,,,,,,False,42,103,False,exp1.png,exp2.png,trial_left_image,1,exp1.png,2,exp1.png,exp2.png,1,1,non-reversed,correct,0.13738106977675757,0,invalid_lose,540.6298183999024,68,,,,,,,,,,,,,s_037,2,2021_Jan_06_1248,Reversal,3.2.4,60.096442778133934,
3,exp3.png,exp4.png,,,,,,,,,,,,,,,,,2,0,2,0,0,3,3,3,,,,,,,,,False,43,104,True,exp4.png,exp3.png,trial_left_image,1,exp4.png,2,exp4.png,exp3.png,0,4,reversed,correct,0.12729331255004106,0,invalid_lose,545.0112099000253,68,,,,,,,,,,,,,s_037,2,2021_Jan_06_1248,Reversal,3.2.4,60.096442778133934,
4,exp1.png,exp2.png,,,,,,,,,,,,,,,,,2,0,2,0,0,4,4,4,,,,,,,,,False,44,105,True,exp2.png,exp1.png,trial_right_image,-1,exp1.png,2,exp1.png,exp2.png,1,1,non-reversed,correct,0.6637326079628935,1,valid_win,549.5929523000959,69,,,,,,,,,,,,,s_037,2,2021_Jan_06_1248,Reversal,3.2.4,60.096442778133934,
5,exp3.png,exp4.png,,,,,,,,,,,,,,,,,2,0,2,0,0,5,5,5,,,,,,,,,False,45,106,False,exp3.png,exp4.png,trial_left_image,1,exp3.png,2,exp4.png,exp3.png,1,3,reversed,incorrect,0.013180547928352104,1,invalid_win,554.641719999956,70,,,,,,,,,,,,,s_037,2,2021_Jan_06_1248,Reversal,3.2.4,60.096442778133934,
6,exp1.png,exp2.png,,,,,,,,,,,,,,,,,2,0,2,0,0,6,6,6,,,,,,,,,False,46,107,True,exp2.png,exp1.png,trial_right_image,-1,exp1.png,2,exp1.png,exp2.png,1,1,non-reversed,correct,0.920650115798735,1,valid_win,558.5907032999676,71,,,,,,,,,,,,,s_037,2,2021_Jan_06_1248,Reversal,3.2.4,60.096442778133934,
7,exp3.png,exp4.png,,,,,,,,,,,,,,,,,2,0,2,0,0,7,7,7,,,,,,,,,False,47,108,False,exp3.png,exp4.png,trial_left_image,1,exp3.png,2,exp4.png,exp3.png,1,3,reversed,incorrect,0.8991215278474037,0,valid_lose,563.4723879001103,71,,,,,,,,,,,,,s_037,2,2021_Jan_06_1248,Reversal,3.2.4,60.096442778133934,
8,exp1.png,exp2.png,,,,,,,,,,,,,,,,,2,0,2,0,0,8,8,8,,,,,,,,,False,48,109,True,exp2.png,exp1.png,trial_right_image,-1,exp1.png,2,exp1.png,exp2.png,1,1,non-reversed,correct,0.0558515695309415,0,invalid_lose,567.5045817000791,71,,,,,,,,,,,,,s_037,2,2021_Jan_06_1248,Reversal,3.2.4,60.096442778133934,
9,exp3.png,exp4.png,,,,,,,,,,,,,,,,,2,0,2,0,0,9,9,9,,,,,,,,,False,49,110,True,exp4.png,exp3.png,trial_left_image,1,exp4.png,2,exp4.png,exp3.png,0,4,reversed,correct,0.3113622552461929,1,valid_win,572.0690955000464,72,,,,,,,,,,,,,s_037,2,2021_Jan_06_1248,Reversal,3.2.4,60.096442778133934,
10,exp1.png,exp2.png,,,,,,,,,,,,,,,,,2,0,2,0,0,10,10,10,,,,,,,,,False,50,111,False,exp1.png,exp2.png,trial_right_image,-1,exp2.png,2,exp1.png,exp2.png,0,2,non-reversed,incorrect,0.5553824319805075,0,valid_lose,576.2013809999917,72,,,,,,,,,,,,,s_037,2,2021_Jan_06_1248,Reversal,3.2.4,60.096442778133934,
11,exp3.png,exp4.png,,,,,,,,,,,,,,,,,2,0,2,0,0,11,11,11,,,,,,,,,False,51,112,False,exp3.png,exp4.png,trial_right_image,-1,exp4.png,2,exp4.png,exp3.png,0,4,reversed,correct,0.7942494513374558,1,valid_win,580.6498149998952,73,,,,,,,,,,,,,s_037,2,2021_Jan_06_1248,Reversal,3.2.4,60.096442778133934,
12,exp1.png,exp2.png,,,,,,,,,,,,,,,,,2,0,2,0,0,12,12,12,,,,,,,,,False,52,113,False,exp1.png,exp2.png,trial_left_image,1,exp1.png,2,exp1.png,exp2.png,1,1,non-reversed,correct,0.9438339715592473,1,valid_win,584.7816035000142,74,,,,,,,,,,,,,s_037,2,2021_Jan_06_1248,Reversal,3.2.4,60.096442778133934,
13,exp3.png,exp4.png,,,,,,,,,,,,,,,,,2,0,2,0,0,13,13,13,,,,,,,,,False,53,114,True,exp4.png,exp3.png,trial_left_image,1,exp4.png,2,exp4.png,exp3.png,0,4,reversed,correct,0.9355137606341563,1,valid_win,589.0135979999322,75,,,,,,,,,,,,,s_037,2,2021_Jan_06_1248,Reversal,3.2.4,60.096442778133934,
14,exp1.png,exp2.png,,,,,,,,,,,,,,,,,2,0,2,0,0,14,14,14,,,,,,,,,False,54,115,False,exp1.png,exp2.png,trial_left_image,1,exp1.png,2,exp1.png,exp2.png,1,1,non-reversed,correct,0.9062445789643441,1,valid_win,593.2952248998918,76,,,,,,,,,,,,,s_037,2,2021_Jan_06_1248,Reversal,3.2.4,60.096442778133934,
15,exp3.png,exp4.png,,,,,,,,,,,,,,,,,2,0,2,0,0,15,15,15,,,,,,,,,False,55,116,True,exp4.png,exp3.png,trial_left_image,1,exp4.png,2,exp4.png,exp3.png,0,4,reversed,correct,0.9648174985526035,1,valid_win,597.294623499969,77,,,,,,,,,,,,,s_037,2,2021_Jan_06_1248,Reversal,3.2.4,60.096442778133934,
16,exp1.png,exp2.png,,,,,,,,,,,,,,,,,2,0,2,0,0,16,16,16,,,,,,,,,False,56,117,True,exp2.png,exp1.png,trial_right_image,-1,exp1.png,2,exp1.png,exp2.png,1,1,non-reversed,correct,0.031138336844575676,0,invalid_lose,601.35895480006,77,,,,,,,,,,,,,s_037,2,2021_Jan_06_1248,Reversal,3.2.4,60.096442778133934,
17,exp3.png,exp4.png,,,,,,,,,,,,,,,,,2,0,2,0,0,17,17,17,,,,,,,,,False,57,118,False,exp3.png,exp4.png,trial_right_image,-1,exp4.png,2,exp4.png,exp3.png,0,4,reversed,correct,0.9211324452368918,1,valid_win,605.4408575000707,78,,,,,,,,,,,,,s_037,2,2021_Jan_06_1248,Reversal,3.2.4,60.096442778133934,
18,exp1.png,exp2.png,,,,,,,,,,,,,,,,,2,0,2,0,0,18,18,18,,,,,,,,,False,58,119,True,exp2.png,exp1.png,trial_left_image,1,exp2.png,2,exp1.png,exp2.png,0,2,non-reversed,incorrect,0.9904666603515401,0,valid_lose,609.7231695000082,78,,,,,,,,,,,,,s_037,2,2021_Jan_06_1248,Reversal,3.2.4,60.096442778133934,
19,exp3.png,exp4.png,,,,,,,,,,,,,,,,,2,0,2,0,0,19,19,19,,,,,,,,,False,59,120,False,exp3.png,exp4.png,trial_left_image,1,exp3.png,2,exp4.png,exp3.png,1,3,reversed,incorrect,0.5996706085229392,0,valid_lose,614.2879657000303,78,,,,,,,,,,,,,s_037,2,2021_Jan_06_1248,Reversal,3.2.4,60.096442778133934,
20,exp1.png,exp2.png,,,,,,,,,,,,,,,,,2,0,2,0,0,20,20,20,,,,,,,,,True,,,,,,,,,,,,,,,,,,,,,,,,,,,,,,,,,s_037,2,2021_Jan_06_1248,Reversal,3.2.4,60.096442778133934,
,,,,,,,,,,,,,,,,,,,2,0,2,0,,,,,0,0,0,0,,,,,,,,,,,,,,,,,,,,,,,,,,58,61,37,42,,,,,,,,,s_037,2,2021_Jan_06_1248,Reversal,3.2.4,60.096442778133934,
,,,,,,,,,,,,,,,,,,,,,,,,,,,,,,,,,,,,,,,,,,,,,,,,,,,,,,,78,,,,,,77,37,40,294.4834910000209,0,space,30.24657420022413,s_037,2,2021_Jan_06_1248,Reversal,3.2.4,60.096442778133934,
