trial_index,trial_image1_file,trial_image2_file,learning_outer_loop.thisRepN,learning_outer_loop.thisTrialN,learning_outer_loop.thisN,learning_outer_loop.thisIndex,learning_inner_loop.thisRepN,learning_inner_loop.thisTrialN,learning_inner_loop.thisN,learning_inner_loop.thisIndex,learning_estimation_outer_loop.thisRepN,learning_estimation_outer_loop.thisTrialN,learning_estimation_outer_loop.thisN,learning_estimation_outer_loop.thisIndex,learning_estimation_inner_loop.thisRepN,learning_estimation_inner_loop.thisTrialN,learning_estimation_inner_loop.thisN,learning_estimation_inner_loop.thisIndex,reversal_outer_loop.thisRepN,reversal_outer_loop.thisTrialN,reversal_outer_loop.thisN,reversal_outer_loop.thisIndex,reversal_inner_loop.thisRepN,reversal_inner_loop.thisTrialN,reversal_inner_loop.thisN,reversal_inner_loop.thisIndex,reversal_estimation_outer_loop.thisRepN,reversal_estimation_outer_loop.thisTrialN,reversal_estimation_outer_loop.thisN,reversal_estimation_outer_loop.thisIndex,reversal_estimation_inner_loop.thisRepN,reversal_estimation_inner_loop.thisTrialN,reversal_estimation_inner_loop.thisN,reversal_estimation_inner_loop.thisIndex,skipped,total_trial_counter,trial_num,left_right_flip,left_image_file,right_image_file,clicked_stimulus_side,side,clicked_stimulus,version,high_prob_image_file,low_prob_image_file,choice_a,choice_b,pair_type,correct,trial_feedback_random,reward,trial_type,overall_time_after_trial,score,estimation_exp1.png,estimation_exp2.png,estimation_exp3.png,estimation_exp4.png,total_learning_time,total_correct,learning_correct,reversal_correct,total_reversal_time,extra_block,end_experiment.keys,end_experiment.rt,participant,ver,date,expName,psychopyVersion,frameRate,
0,exp1.png,exp2.png,0,0,0,0,0,0,0,0,,,,,,,,,,,,,,,,,,,,,,,,,True,,,,,,,,,,,,,,,,,,,,,,,,,,,,,,,,,s_036,1,2021_Jan_03_1832,Reversal,3.2.4,60.1679649370987,
1,exp3.png,exp4.png,0,0,0,0,0,1,1,1,,,,,,,,,,,,,,,,,,,,,,,,,False,0,1,False,exp3.png,exp4.png,trial_right_image,-1,exp4.png,1,exp3.png,exp4.png,0,2,non-reversed,incorrect,0.8467073947236795,0,valid_lose,2.513067699968815,0,,,,,,,,,,,,,s_036,1,2021_Jan_03_1832,Reversal,3.2.4,60.1679649370987,
2,exp1.png,exp2.png,0,0,0,0,0,2,2,2,,,,,,,,,,,,,,,,,,,,,,,,,False,1,2,True,exp2.png,exp1.png,trial_right_image,-1,exp1.png,1,exp1.png,exp2.png,1,3,reversed,correct,0.46699690596298704,1,valid_win,6.893507400061935,1,,,,,,,,,,,,,s_036,1,2021_Jan_03_1832,Reversal,3.2.4,60.1679649370987,
3,exp3.png,exp4.png,0,0,0,0,0,3,3,3,,,,,,,,,,,,,,,,,,,,,,,,,False,2,3,True,exp4.png,exp3.png,trial_left_image,1,exp4.png,1,exp3.png,exp4.png,0,2,non-reversed,incorrect,0.13492720322240248,1,invalid_win,11.858401299919933,2,,,,,,,,,,,,,s_036,1,2021_Jan_03_1832,Reversal,3.2.4,60.1679649370987,
4,exp1.png,exp2.png,0,0,0,0,0,4,4,4,,,,,,,,,,,,,,,,,,,,,,,,,False,3,4,False,exp1.png,exp2.png,trial_left_image,1,exp1.png,1,exp1.png,exp2.png,1,3,reversed,correct,0.9655413117406008,1,valid_win,16.607689700089395,3,,,,,,,,,,,,,s_036,1,2021_Jan_03_1832,Reversal,3.2.4,60.1679649370987,
5,exp3.png,exp4.png,0,0,0,0,0,5,5,5,,,,,,,,,,,,,,,,,,,,,,,,,False,4,5,True,exp4.png,exp3.png,trial_right_image,-1,exp3.png,1,exp3.png,exp4.png,1,1,non-reversed,correct,0.5376677166478708,1,valid_win,21.27284220000729,4,,,,,,,,,,,,,s_036,1,2021_Jan_03_1832,Reversal,3.2.4,60.1679649370987,
6,exp1.png,exp2.png,0,0,0,0,0,6,6,6,,,,,,,,,,,,,,,,,,,,,,,,,False,5,6,False,exp1.png,exp2.png,trial_left_image,1,exp1.png,1,exp1.png,exp2.png,1,3,reversed,correct,0.7558670386149132,1,valid_win,25.621752500068396,5,,,,,,,,,,,,,s_036,1,2021_Jan_03_1832,Reversal,3.2.4,60.1679649370987,
7,exp3.png,exp4.png,0,0,0,0,0,7,7,7,,,,,,,,,,,,,,,,,,,,,,,,,False,6,7,False,exp3.png,exp4.png,trial_left_image,1,exp3.png,1,exp3.png,exp4.png,1,1,non-reversed,correct,0.3517390338390921,1,valid_win,30.002936800010502,6,,,,,,,,,,,,,s_036,1,2021_Jan_03_1832,Reversal,3.2.4,60.1679649370987,
8,exp1.png,exp2.png,0,0,0,0,0,8,8,8,,,,,,,,,,,,,,,,,,,,,,,,,False,7,8,True,exp2.png,exp1.png,trial_right_image,-1,exp1.png,1,exp1.png,exp2.png,1,3,reversed,correct,0.06485925380387092,0,invalid_lose,34.53528690012172,6,,,,,,,,,,,,,s_036,1,2021_Jan_03_1832,Reversal,3.2.4,60.1679649370987,
9,exp3.png,exp4.png,0,0,0,0,0,9,9,9,,,,,,,,,,,,,,,,,,,,,,,,,False,8,9,True,exp4.png,exp3.png,trial_right_image,-1,exp3.png,1,exp3.png,exp4.png,1,1,non-reversed,correct,0.34777940210085145,1,valid_win,39.73381550004706,7,,,,,,,,,,,,,s_036,1,2021_Jan_03_1832,Reversal,3.2.4,60.1679649370987,
10,exp1.png,exp2.png,0,0,0,0,0,10,10,10,,,,,,,,,,,,,,,,,,,,,,,,,False,9,10,True,exp2.png,exp1.png,trial_left_image,1,exp2.png,1,exp1.png,exp2.png,0,4,reversed,incorrect,0.8812667008427497,0,valid_lose,44.23202980007045,7,,,,,,,,,,,,,s_036,1,2021_Jan_03_1832,Reversal,3.2.4,60.1679649370987,
11,exp3.png,exp4.png,0,0,0,0,0,11,11,11,,,,,,,,,,,,,,,,,,,,,,,,,False,10,11,False,exp3.png,exp4.png,trial_left_image,1,exp3.png,1,exp3.png,exp4.png,1,1,non-reversed,correct,0.45089955990054076,1,valid_win,48.47940899990499,8,,,,,,,,,,,,,s_036,1,2021_Jan_03_1832,Reversal,3.2.4,60.1679649370987,
12,exp1.png,exp2.png,0,0,0,0,0,12,12,12,,,,,,,,,,,,,,,,,,,,,,,,,False,11,12,False,exp1.png,exp2.png,trial_left_image,1,exp1.png,1,exp1.png,exp2.png,1,3,reversed,correct,0.5305947352876197,1,valid_win,52.779370200121775,9,,,,,,,,,,,,,s_036,1,2021_Jan_03_1832,Reversal,3.2.4,60.1679649370987,
13,exp3.png,exp4.png,0,0,0,0,0,13,13,13,,,,,,,,,,,,,,,,,,,,,,,,,False,12,13,True,exp4.png,exp3.png,trial_right_image,-1,exp3.png,1,exp3.png,exp4.png,1,1,non-reversed,correct,0.4943109533062704,1,valid_win,57.04385340004228,10,,,,,,,,,,,,,s_036,1,2021_Jan_03_1832,Reversal,3.2.4,60.1679649370987,
14,exp1.png,exp2.png,0,0,0,0,0,14,14,14,,,,,,,,,,,,,,,,,,,,,,,,,False,13,14,True,exp2.png,exp1.png,trial_right_image,-1,exp1.png,1,exp1.png,exp2.png,1,3,reversed,correct,0.3909825084858014,1,valid_win,61.209993900032714,11,,,,,,,,,,,,,s_036,1,2021_Jan_03_1832,Reversal,3.2.4,60.1679649370987,
15,exp3.png,exp4.png,0,0,0,0,0,15,15,15,,,,,,,,,,,,,,,,,,,,,,,,,False,14,15,True,exp4.png,exp3.png,trial_right_image,-1,exp3.png,1,exp3.png,exp4.png,1,1,non-reversed,correct,0.8896220394320914,1,valid_win,65.34212790010497,12,,,,,,,,,,,,,s_036,1,2021_Jan_03_1832,Reversal,3.2.4,60.1679649370987,
16,exp1.png,exp2.png,0,0,0,0,0,16,16,16,,,,,,,,,,,,,,,,,,,,,,,,,False,15,16,False,exp1.png,exp2.png,trial_left_image,1,exp1.png,1,exp1.png,exp2.png,1,3,reversed,correct,0.050045192801601246,0,invalid_lose,69.54099719994701,12,,,,,,,,,,,,,s_036,1,2021_Jan_03_1832,Reversal,3.2.4,60.1679649370987,
17,exp3.png,exp4.png,0,0,0,0,0,17,17,17,,,,,,,,,,,,,,,,,,,,,,,,,False,16,17,True,exp4.png,exp3.png,trial_left_image,1,exp4.png,1,exp3.png,exp4.png,0,2,non-reversed,incorrect,0.23684740629730616,1,invalid_win,73.57252759998664,13,,,,,,,,,,,,,s_036,1,2021_Jan_03_1832,Reversal,3.2.4,60.1679649370987,
18,exp1.png,exp2.png,0,0,0,0,0,18,18,18,,,,,,,,,,,,,,,,,,,,,,,,,False,17,18,False,exp1.png,exp2.png,trial_right_image,-1,exp2.png,1,exp1.png,exp2.png,0,4,reversed,incorrect,0.9406351919247948,0,valid_lose,77.63708329992369,13,,,,,,,,,,,,,s_036,1,2021_Jan_03_1832,Reversal,3.2.4,60.1679649370987,
19,exp3.png,exp4.png,0,0,0,0,0,19,19,19,,,,,,,,,,,,,,,,,,,,,,,,,False,18,19,False,exp3.png,exp4.png,trial_left_image,1,exp3.png,1,exp3.png,exp4.png,1,1,non-reversed,correct,0.820199794769784,1,valid_win,83.151932900073,14,,,,,,,,,,,,,s_036,1,2021_Jan_03_1832,Reversal,3.2.4,60.1679649370987,
20,exp1.png,exp2.png,0,0,0,0,0,20,20,20,,,,,,,,,,,,,,,,,,,,,,,,,False,19,20,False,exp1.png,exp2.png,trial_left_image,1,exp1.png,1,exp1.png,exp2.png,1,3,reversed,correct,0.5939904348147962,1,valid_win,87.25073230010457,15,,,,,,,,,,,,,s_036,1,2021_Jan_03_1832,Reversal,3.2.4,60.1679649370987,
,,,0,0,0,0,,,,,0,0,0,0,,,,,,,,,,,,,,,,,,,,,,,,,,,,,,,,,,,,,,,,,,85,16,78,9,,,,,,,,,s_036,1,2021_Jan_03_1832,Reversal,3.2.4,60.1679649370987,
0,exp1.png,exp2.png,1,0,1,0,0,0,0,0,,,,,,,,,,,,,,,,,,,,,,,,,True,,,,,,,,,,,,,,,,,,,,,,,,,,,,,,,,,s_036,1,2021_Jan_03_1832,Reversal,3.2.4,60.1679649370987,
1,exp3.png,exp4.png,1,0,1,0,0,1,1,1,,,,,,,,,,,,,,,,,,,,,,,,,False,20,21,True,exp4.png,exp3.png,trial_right_image,-1,exp3.png,1,exp3.png,exp4.png,1,1,non-reversed,correct,0.6983608677677822,1,valid_win,114.22595639992505,16,,,,,,,,,,,,,s_036,1,2021_Jan_03_1832,Reversal,3.2.4,60.1679649370987,
2,exp1.png,exp2.png,1,0,1,0,0,2,2,2,,,,,,,,,,,,,,,,,,,,,,,,,False,21,22,False,exp1.png,exp2.png,trial_left_image,1,exp1.png,1,exp1.png,exp2.png,1,3,reversed,correct,0.22997808062382463,0,invalid_lose,118.35689690010622,16,,,,,,,,,,,,,s_036,1,2021_Jan_03_1832,Reversal,3.2.4,60.1679649370987,
3,exp3.png,exp4.png,1,0,1,0,0,3,3,3,,,,,,,,,,,,,,,,,,,,,,,,,False,22,23,False,exp3.png,exp4.png,trial_left_image,1,exp3.png,1,exp3.png,exp4.png,1,1,non-reversed,correct,0.48989300442730976,1,valid_win,123.08821840002201,17,,,,,,,,,,,,,s_036,1,2021_Jan_03_1832,Reversal,3.2.4,60.1679649370987,
4,exp1.png,exp2.png,1,0,1,0,0,4,4,4,,,,,,,,,,,,,,,,,,,,,,,,,False,23,24,True,exp2.png,exp1.png,trial_right_image,-1,exp1.png,1,exp1.png,exp2.png,1,3,reversed,correct,0.5948497297939106,1,valid_win,126.98705939995125,18,,,,,,,,,,,,,s_036,1,2021_Jan_03_1832,Reversal,3.2.4,60.1679649370987,
5,exp3.png,exp4.png,1,0,1,0,0,5,5,5,,,,,,,,,,,,,,,,,,,,,,,,,False,24,25,False,exp3.png,exp4.png,trial_left_image,1,exp3.png,1,exp3.png,exp4.png,1,1,non-reversed,correct,0.9798568275967359,1,valid_win,131.2527020999696,19,,,,,,,,,,,,,s_036,1,2021_Jan_03_1832,Reversal,3.2.4,60.1679649370987,
6,exp1.png,exp2.png,1,0,1,0,0,6,6,6,,,,,,,,,,,,,,,,,,,,,,,,,False,25,26,True,exp2.png,exp1.png,trial_left_image,1,exp2.png,1,exp1.png,exp2.png,0,4,reversed,incorrect,0.3075743049745715,0,valid_lose,135.23423649999313,19,,,,,,,,,,,,,s_036,1,2021_Jan_03_1832,Reversal,3.2.4,60.1679649370987,
7,exp3.png,exp4.png,1,0,1,0,0,7,7,7,,,,,,,,,,,,,,,,,,,,,,,,,False,26,27,True,exp4.png,exp3.png,trial_right_image,-1,exp3.png,1,exp3.png,exp4.png,1,1,non-reversed,correct,0.2837377004008985,1,valid_win,139.16683640005067,20,,,,,,,,,,,,,s_036,1,2021_Jan_03_1832,Reversal,3.2.4,60.1679649370987,
8,exp1.png,exp2.png,1,0,1,0,0,8,8,8,,,,,,,,,,,,,,,,,,,,,,,,,False,27,28,False,exp1.png,exp2.png,trial_left_image,1,exp1.png,1,exp1.png,exp2.png,1,3,reversed,correct,0.3475203039740071,1,valid_win,143.5147073001135,21,,,,,,,,,,,,,s_036,1,2021_Jan_03_1832,Reversal,3.2.4,60.1679649370987,
9,exp3.png,exp4.png,1,0,1,0,0,9,9,9,,,,,,,,,,,,,,,,,,,,,,,,,False,28,29,True,exp4.png,exp3.png,trial_right_image,-1,exp3.png,1,exp3.png,exp4.png,1,1,non-reversed,correct,0.16689471639223807,0,invalid_lose,147.54686350002885,21,,,,,,,,,,,,,s_036,1,2021_Jan_03_1832,Reversal,3.2.4,60.1679649370987,
10,exp1.png,exp2.png,1,0,1,0,0,10,10,10,,,,,,,,,,,,,,,,,,,,,,,,,False,29,30,False,exp1.png,exp2.png,trial_left_image,1,exp1.png,1,exp1.png,exp2.png,1,3,reversed,correct,0.7872814296483713,1,valid_win,152.16192510002293,22,,,,,,,,,,,,,s_036,1,2021_Jan_03_1832,Reversal,3.2.4,60.1679649370987,
11,exp3.png,exp4.png,1,0,1,0,0,11,11,11,,,,,,,,,,,,,,,,,,,,,,,,,False,30,31,True,exp4.png,exp3.png,trial_left_image,1,exp4.png,1,exp3.png,exp4.png,0,2,non-reversed,incorrect,0.8147056577294524,0,valid_lose,156.87660839990713,22,,,,,,,,,,,,,s_036,1,2021_Jan_03_1832,Reversal,3.2.4,60.1679649370987,
12,exp1.png,exp2.png,1,0,1,0,0,12,12,12,,,,,,,,,,,,,,,,,,,,,,,,,False,31,32,False,exp1.png,exp2.png,trial_left_image,1,exp1.png,1,exp1.png,exp2.png,1,3,reversed,correct,0.42331556237131496,1,valid_win,161.70747629995458,23,,,,,,,,,,,,,s_036,1,2021_Jan_03_1832,Reversal,3.2.4,60.1679649370987,
13,exp3.png,exp4.png,1,0,1,0,0,13,13,13,,,,,,,,,,,,,,,,,,,,,,,,,False,32,33,True,exp4.png,exp3.png,trial_right_image,-1,exp3.png,1,exp3.png,exp4.png,1,1,non-reversed,correct,0.5669696286106988,1,valid_win,166.25726290000603,24,,,,,,,,,,,,,s_036,1,2021_Jan_03_1832,Reversal,3.2.4,60.1679649370987,
14,exp1.png,exp2.png,1,0,1,0,0,14,14,14,,,,,,,,,,,,,,,,,,,,,,,,,False,33,34,True,exp2.png,exp1.png,trial_right_image,-1,exp1.png,1,exp1.png,exp2.png,1,3,reversed,correct,0.7086298932425191,1,valid_win,170.4556732000783,25,,,,,,,,,,,,,s_036,1,2021_Jan_03_1832,Reversal,3.2.4,60.1679649370987,
15,exp3.png,exp4.png,1,0,1,0,0,15,15,15,,,,,,,,,,,,,,,,,,,,,,,,,False,34,35,True,exp4.png,exp3.png,trial_right_image,-1,exp3.png,1,exp3.png,exp4.png,1,1,non-reversed,correct,0.9290603836734809,1,valid_win,175.63755120011047,26,,,,,,,,,,,,,s_036,1,2021_Jan_03_1832,Reversal,3.2.4,60.1679649370987,
16,exp1.png,exp2.png,1,0,1,0,0,16,16,16,,,,,,,,,,,,,,,,,,,,,,,,,False,35,36,False,exp1.png,exp2.png,trial_left_image,1,exp1.png,1,exp1.png,exp2.png,1,3,reversed,correct,0.4213224242359578,1,valid_win,180.81886469991878,27,,,,,,,,,,,,,s_036,1,2021_Jan_03_1832,Reversal,3.2.4,60.1679649370987,
17,exp3.png,exp4.png,1,0,1,0,0,17,17,17,,,,,,,,,,,,,,,,,,,,,,,,,False,36,37,False,exp3.png,exp4.png,trial_left_image,1,exp3.png,1,exp3.png,exp4.png,1,1,non-reversed,correct,0.7055896773511798,1,valid_win,185.5005749000702,28,,,,,,,,,,,,,s_036,1,2021_Jan_03_1832,Reversal,3.2.4,60.1679649370987,
18,exp1.png,exp2.png,1,0,1,0,0,18,18,18,,,,,,,,,,,,,,,,,,,,,,,,,False,37,38,False,exp1.png,exp2.png,trial_left_image,1,exp1.png,1,exp1.png,exp2.png,1,3,reversed,correct,0.846099279911406,1,valid_win,189.74942729994655,29,,,,,,,,,,,,,s_036,1,2021_Jan_03_1832,Reversal,3.2.4,60.1679649370987,
19,exp3.png,exp4.png,1,0,1,0,0,19,19,19,,,,,,,,,,,,,,,,,,,,,,,,,False,38,39,True,exp4.png,exp3.png,trial_right_image,-1,exp3.png,1,exp3.png,exp4.png,1,1,non-reversed,correct,0.9376913094581193,1,valid_win,193.99763999995776,30,,,,,,,,,,,,,s_036,1,2021_Jan_03_1832,Reversal,3.2.4,60.1679649370987,
20,exp1.png,exp2.png,1,0,1,0,0,20,20,20,,,,,,,,,,,,,,,,,,,,,,,,,False,39,40,False,exp1.png,exp2.png,trial_left_image,1,exp1.png,1,exp1.png,exp2.png,1,3,reversed,correct,0.2675394477941837,1,valid_win,198.19650520011783,31,,,,,,,,,,,,,s_036,1,2021_Jan_03_1832,Reversal,3.2.4,60.1679649370987,
,,,1,0,1,0,,,,,0,0,0,0,,,,,,,,,,,,,,,,,,,,,,,,,,,,,,,,,,,,,,,,,,87,8,97,0,,,,,,,,,s_036,1,2021_Jan_03_1832,Reversal,3.2.4,60.1679649370987,
0,exp1.png,exp2.png,2,0,2,0,0,0,0,0,,,,,,,,,,,,,,,,,,,,,,,,,True,,,,,,,,,,,,,,,,,,,,,,,,,,,,,,,,,s_036,1,2021_Jan_03_1832,Reversal,3.2.4,60.1679649370987,
1,exp3.png,exp4.png,2,0,2,0,0,1,1,1,,,,,,,,,,,,,,,,,,,,,,,,,False,40,41,True,exp4.png,exp3.png,trial_right_image,-1,exp3.png,1,exp3.png,exp4.png,1,1,non-reversed,correct,0.803854693368123,1,valid_win,216.27411879994906,32,,,,,,,,,,,,,s_036,1,2021_Jan_03_1832,Reversal,3.2.4,60.1679649370987,
2,exp1.png,exp2.png,2,0,2,0,0,2,2,2,,,,,,,,,,,,,,,,,,,,,,,,,False,41,42,True,exp2.png,exp1.png,trial_right_image,-1,exp1.png,1,exp1.png,exp2.png,1,3,reversed,correct,0.12905114962291098,0,invalid_lose,220.38909059995785,32,,,,,,,,,,,,,s_036,1,2021_Jan_03_1832,Reversal,3.2.4,60.1679649370987,
3,exp3.png,exp4.png,2,0,2,0,0,3,3,3,,,,,,,,,,,,,,,,,,,,,,,,,False,42,43,True,exp4.png,exp3.png,trial_right_image,-1,exp3.png,1,exp3.png,exp4.png,1,1,non-reversed,correct,0.4066518135231201,1,valid_win,224.55449489993043,33,,,,,,,,,,,,,s_036,1,2021_Jan_03_1832,Reversal,3.2.4,60.1679649370987,
4,exp1.png,exp2.png,2,0,2,0,0,4,4,4,,,,,,,,,,,,,,,,,,,,,,,,,False,43,44,True,exp2.png,exp1.png,trial_left_image,1,exp2.png,1,exp1.png,exp2.png,0,4,reversed,incorrect,0.20538741295182195,1,invalid_win,228.91848789993674,34,,,,,,,,,,,,,s_036,1,2021_Jan_03_1832,Reversal,3.2.4,60.1679649370987,
5,exp3.png,exp4.png,2,0,2,0,0,5,5,5,,,,,,,,,,,,,,,,,,,,,,,,,False,44,45,False,exp3.png,exp4.png,trial_left_image,1,exp3.png,1,exp3.png,exp4.png,1,1,non-reversed,correct,0.34105101652225844,1,valid_win,233.61908169998787,35,,,,,,,,,,,,,s_036,1,2021_Jan_03_1832,Reversal,3.2.4,60.1679649370987,
6,exp1.png,exp2.png,2,0,2,0,0,6,6,6,,,,,,,,,,,,,,,,,,,,,,,,,False,45,46,True,exp2.png,exp1.png,trial_left_image,1,exp2.png,1,exp1.png,exp2.png,0,4,reversed,incorrect,0.22311754122261718,1,invalid_win,238.30019770003855,36,,,,,,,,,,,,,s_036,1,2021_Jan_03_1832,Reversal,3.2.4,60.1679649370987,
7,exp3.png,exp4.png,2,0,2,0,0,7,7,7,,,,,,,,,,,,,,,,,,,,,,,,,False,46,47,False,exp3.png,exp4.png,trial_left_image,1,exp3.png,1,exp3.png,exp4.png,1,1,non-reversed,correct,0.3094264801294482,1,valid_win,242.53182450006716,37,,,,,,,,,,,,,s_036,1,2021_Jan_03_1832,Reversal,3.2.4,60.1679649370987,
8,exp1.png,exp2.png,2,0,2,0,0,8,8,8,,,,,,,,,,,,,,,,,,,,,,,,,False,47,48,False,exp1.png,exp2.png,trial_right_image,-1,exp2.png,1,exp1.png,exp2.png,0,4,reversed,incorrect,0.4083823813095141,0,valid_lose,247.09714050008915,37,,,,,,,,,,,,,s_036,1,2021_Jan_03_1832,Reversal,3.2.4,60.1679649370987,
9,exp3.png,exp4.png,2,0,2,0,0,9,9,9,,,,,,,,,,,,,,,,,,,,,,,,,False,48,49,True,exp4.png,exp3.png,trial_right_image,-1,exp3.png,1,exp3.png,exp4.png,1,1,non-reversed,correct,0.3708402413106364,1,valid_win,251.31183980009519,38,,,,,,,,,,,,,s_036,1,2021_Jan_03_1832,Reversal,3.2.4,60.1679649370987,
10,exp1.png,exp2.png,2,0,2,0,0,10,10,10,,,,,,,,,,,,,,,,,,,,,,,,,False,49,50,True,exp2.png,exp1.png,trial_right_image,-1,exp1.png,1,exp1.png,exp2.png,1,3,reversed,correct,0.7335990188828703,1,valid_win,255.6428151000291,39,,,,,,,,,,,,,s_036,1,2021_Jan_03_1832,Reversal,3.2.4,60.1679649370987,
11,exp3.png,exp4.png,2,0,2,0,0,11,11,11,,,,,,,,,,,,,,,,,,,,,,,,,False,50,51,False,exp3.png,exp4.png,trial_left_image,1,exp3.png,1,exp3.png,exp4.png,1,1,non-reversed,correct,0.5253680395021894,1,valid_win,259.89196670008823,40,,,,,,,,,,,,,s_036,1,2021_Jan_03_1832,Reversal,3.2.4,60.1679649370987,
12,exp1.png,exp2.png,2,0,2,0,0,12,12,12,,,,,,,,,,,,,,,,,,,,,,,,,False,51,52,False,exp1.png,exp2.png,trial_left_image,1,exp1.png,1,exp1.png,exp2.png,1,3,reversed,correct,0.05343690554714209,0,invalid_lose,263.97391719999723,40,,,,,,,,,,,,,s_036,1,2021_Jan_03_1832,Reversal,3.2.4,60.1679649370987,
13,exp3.png,exp4.png,2,0,2,0,0,13,13,13,,,,,,,,,,,,,,,,,,,,,,,,,False,52,53,False,exp3.png,exp4.png,trial_left_image,1,exp3.png,1,exp3.png,exp4.png,1,1,non-reversed,correct,0.26799439221904553,1,valid_win,268.17372349998914,41,,,,,,,,,,,,,s_036,1,2021_Jan_03_1832,Reversal,3.2.4,60.1679649370987,
14,exp1.png,exp2.png,2,0,2,0,0,14,14,14,,,,,,,,,,,,,,,,,,,,,,,,,False,53,54,False,exp1.png,exp2.png,trial_right_image,-1,exp2.png,1,exp1.png,exp2.png,0,4,reversed,incorrect,0.2147667565634379,1,invalid_win,272.3055205999408,42,,,,,,,,,,,,,s_036,1,2021_Jan_03_1832,Reversal,3.2.4,60.1679649370987,
15,exp3.png,exp4.png,2,0,2,0,0,15,15,15,,,,,,,,,,,,,,,,,,,,,,,,,False,54,55,True,exp4.png,exp3.png,trial_right_image,-1,exp3.png,1,exp3.png,exp4.png,1,1,non-reversed,correct,0.4922585020219632,1,valid_win,276.3538748999126,43,,,,,,,,,,,,,s_036,1,2021_Jan_03_1832,Reversal,3.2.4,60.1679649370987,
16,exp1.png,exp2.png,2,0,2,0,0,16,16,16,,,,,,,,,,,,,,,,,,,,,,,,,False,55,56,False,exp1.png,exp2.png,trial_right_image,-1,exp2.png,1,exp1.png,exp2.png,0,4,reversed,incorrect,0.7092439171379394,0,valid_lose,280.33571149990894,43,,,,,,,,,,,,,s_036,1,2021_Jan_03_1832,Reversal,3.2.4,60.1679649370987,
17,exp3.png,exp4.png,2,0,2,0,0,17,17,17,,,,,,,,,,,,,,,,,,,,,,,,,False,56,57,True,exp4.png,exp3.png,trial_right_image,-1,exp3.png,1,exp3.png,exp4.png,1,1,non-reversed,correct,0.7494408911029062,1,valid_win,284.75023679994047,44,,,,,,,,,,,,,s_036,1,2021_Jan_03_1832,Reversal,3.2.4,60.1679649370987,
18,exp1.png,exp2.png,2,0,2,0,0,18,18,18,,,,,,,,,,,,,,,,,,,,,,,,,False,57,58,True,exp2.png,exp1.png,trial_right_image,-1,exp1.png,1,exp1.png,exp2.png,1,3,reversed,correct,0.1354447597224825,0,invalid_lose,288.74862600001507,44,,,,,,,,,,,,,s_036,1,2021_Jan_03_1832,Reversal,3.2.4,60.1679649370987,
19,exp3.png,exp4.png,2,0,2,0,0,19,19,19,,,,,,,,,,,,,,,,,,,,,,,,,False,58,59,False,exp3.png,exp4.png,trial_left_image,1,exp3.png,1,exp3.png,exp4.png,1,1,non-reversed,correct,0.09017020256371766,0,invalid_lose,293.08125990000553,44,,,,,,,,,,,,,s_036,1,2021_Jan_03_1832,Reversal,3.2.4,60.1679649370987,
20,exp1.png,exp2.png,2,0,2,0,0,20,20,20,,,,,,,,,,,,,,,,,,,,,,,,,False,59,60,False,exp1.png,exp2.png,trial_right_image,-1,exp2.png,1,exp1.png,exp2.png,0,4,reversed,incorrect,0.3925839860314594,0,valid_lose,297.7958629000932,44,,,,,,,,,,,,,s_036,1,2021_Jan_03_1832,Reversal,3.2.4,60.1679649370987,
,,,2,0,2,0,,,,,0,0,0,0,,,,,,,,,,,,,,,,,,,,,,,,,,,,,,,,,,,,,,,,,,50.0,50.0,89,7,,,,,,,,,s_036,1,2021_Jan_03_1832,Reversal,3.2.4,60.1679649370987,
0,exp1.png,exp2.png,3,0,3,0,0,0,0,0,,,,,,,,,,,,,,,,,,,,,,,,,True,,,,,,,,,,,,,,,,,,,,,,,,,,,,,,,,,s_036,1,2021_Jan_03_1832,Reversal,3.2.4,60.1679649370987,
1,exp3.png,exp4.png,3,0,3,0,0,1,1,1,,,,,,,,,,,,,,,,,,,,,,,,,False,60,61,True,exp4.png,exp3.png,trial_right_image,-1,exp3.png,1,exp3.png,exp4.png,1,1,non-reversed,correct,0.31889488631840457,1,valid_win,315.93950599990785,45,,,,,,,,,,,,,s_036,1,2021_Jan_03_1832,Reversal,3.2.4,60.1679649370987,
2,exp1.png,exp2.png,3,0,3,0,0,2,2,2,,,,,,,,,,,,,,,,,,,,,,,,,False,61,62,True,exp2.png,exp1.png,trial_left_image,1,exp2.png,1,exp1.png,exp2.png,0,4,reversed,incorrect,0.2921457167968091,0,valid_lose,320.33879190008156,45,,,,,,,,,,,,,s_036,1,2021_Jan_03_1832,Reversal,3.2.4,60.1679649370987,
3,exp3.png,exp4.png,3,0,3,0,0,3,3,3,,,,,,,,,,,,,,,,,,,,,,,,,False,62,63,True,exp4.png,exp3.png,trial_right_image,-1,exp3.png,1,exp3.png,exp4.png,1,1,non-reversed,correct,0.6827530753315619,1,valid_win,324.45289429998957,46,,,,,,,,,,,,,s_036,1,2021_Jan_03_1832,Reversal,3.2.4,60.1679649370987,
4,exp1.png,exp2.png,3,0,3,0,0,4,4,4,,,,,,,,,,,,,,,,,,,,,,,,,False,63,64,True,exp2.png,exp1.png,trial_right_image,-1,exp1.png,1,exp1.png,exp2.png,1,3,reversed,correct,0.6585760811331743,1,valid_win,328.65373790008016,47,,,,,,,,,,,,,s_036,1,2021_Jan_03_1832,Reversal,3.2.4,60.1679649370987,
5,exp3.png,exp4.png,3,0,3,0,0,5,5,5,,,,,,,,,,,,,,,,,,,,,,,,,False,64,65,False,exp3.png,exp4.png,trial_left_image,1,exp3.png,1,exp3.png,exp4.png,1,1,non-reversed,correct,0.8418586163762747,1,valid_win,332.83418300002813,48,,,,,,,,,,,,,s_036,1,2021_Jan_03_1832,Reversal,3.2.4,60.1679649370987,
6,exp1.png,exp2.png,3,0,3,0,0,6,6,6,,,,,,,,,,,,,,,,,,,,,,,,,False,65,66,True,exp2.png,exp1.png,trial_right_image,-1,exp1.png,1,exp1.png,exp2.png,1,3,reversed,correct,0.7459169914998623,1,valid_win,336.79888459993526,49,,,,,,,,,,,,,s_036,1,2021_Jan_03_1832,Reversal,3.2.4,60.1679649370987,
7,exp3.png,exp4.png,3,0,3,0,0,7,7,7,,,,,,,,,,,,,,,,,,,,,,,,,False,66,67,False,exp3.png,exp4.png,trial_left_image,1,exp3.png,1,exp3.png,exp4.png,1,1,non-reversed,correct,0.1845042045946752,0,invalid_lose,341.74735520011745,49,,,,,,,,,,,,,s_036,1,2021_Jan_03_1832,Reversal,3.2.4,60.1679649370987,
8,exp1.png,exp2.png,3,0,3,0,0,8,8,8,,,,,,,,,,,,,,,,,,,,,,,,,False,67,68,True,exp2.png,exp1.png,trial_left_image,1,exp2.png,1,exp1.png,exp2.png,0,4,reversed,incorrect,0.9871407079312629,0,valid_lose,346.36348289996386,49,,,,,,,,,,,,,s_036,1,2021_Jan_03_1832,Reversal,3.2.4,60.1679649370987,
9,exp3.png,exp4.png,3,0,3,0,0,9,9,9,,,,,,,,,,,,,,,,,,,,,,,,,False,68,69,False,exp3.png,exp4.png,trial_left_image,1,exp3.png,1,exp3.png,exp4.png,1,1,non-reversed,correct,0.40074448797649465,1,valid_win,350.5947380999569,50,,,,,,,,,,,,,s_036,1,2021_Jan_03_1832,Reversal,3.2.4,60.1679649370987,
10,exp1.png,exp2.png,3,0,3,0,0,10,10,10,,,,,,,,,,,,,,,,,,,,,,,,,False,69,70,False,exp1.png,exp2.png,trial_left_image,1,exp1.png,1,exp1.png,exp2.png,1,3,reversed,correct,0.05084093275655055,0,invalid_lose,355.87605990003794,50,,,,,,,,,,,,,s_036,1,2021_Jan_03_1832,Reversal,3.2.4,60.1679649370987,
11,exp3.png,exp4.png,3,0,3,0,0,11,11,11,,,,,,,,,,,,,,,,,,,,,,,,,False,70,71,True,exp4.png,exp3.png,trial_right_image,-1,exp3.png,1,exp3.png,exp4.png,1,1,non-reversed,correct,0.6582244918919258,1,valid_win,360.1591920000501,51,,,,,,,,,,,,,s_036,1,2021_Jan_03_1832,Reversal,3.2.4,60.1679649370987,
12,exp1.png,exp2.png,3,0,3,0,0,12,12,12,,,,,,,,,,,,,,,,,,,,,,,,,False,71,72,False,exp1.png,exp2.png,trial_left_image,1,exp1.png,1,exp1.png,exp2.png,1,3,reversed,correct,0.7074674447346302,1,valid_win,365.8075276000891,52,,,,,,,,,,,,,s_036,1,2021_Jan_03_1832,Reversal,3.2.4,60.1679649370987,
13,exp3.png,exp4.png,3,0,3,0,0,13,13,13,,,,,,,,,,,,,,,,,,,,,,,,,False,72,73,False,exp3.png,exp4.png,trial_left_image,1,exp3.png,1,exp3.png,exp4.png,1,1,non-reversed,correct,0.5151303983848894,1,valid_win,370.23828339995816,53,,,,,,,,,,,,,s_036,1,2021_Jan_03_1832,Reversal,3.2.4,60.1679649370987,
14,exp1.png,exp2.png,3,0,3,0,0,14,14,14,,,,,,,,,,,,,,,,,,,,,,,,,False,73,74,False,exp1.png,exp2.png,trial_right_image,-1,exp2.png,1,exp1.png,exp2.png,0,4,reversed,incorrect,0.8779255306847883,0,valid_lose,374.28731389995664,53,,,,,,,,,,,,,s_036,1,2021_Jan_03_1832,Reversal,3.2.4,60.1679649370987,
15,exp3.png,exp4.png,3,0,3,0,0,15,15,15,,,,,,,,,,,,,,,,,,,,,,,,,False,74,75,False,exp3.png,exp4.png,trial_left_image,1,exp3.png,1,exp3.png,exp4.png,1,1,non-reversed,correct,0.8334415573604285,1,valid_win,378.45180050004274,54,,,,,,,,,,,,,s_036,1,2021_Jan_03_1832,Reversal,3.2.4,60.1679649370987,
16,exp1.png,exp2.png,3,0,3,0,0,16,16,16,,,,,,,,,,,,,,,,,,,,,,,,,False,75,76,False,exp1.png,exp2.png,trial_right_image,-1,exp2.png,1,exp1.png,exp2.png,0,4,reversed,incorrect,0.9320860645097213,0,valid_lose,382.4173520999029,54,,,,,,,,,,,,,s_036,1,2021_Jan_03_1832,Reversal,3.2.4,60.1679649370987,
17,exp3.png,exp4.png,3,0,3,0,0,17,17,17,,,,,,,,,,,,,,,,,,,,,,,,,False,76,77,True,exp4.png,exp3.png,trial_right_image,-1,exp3.png,1,exp3.png,exp4.png,1,1,non-reversed,correct,0.6900583730102327,1,valid_win,386.6991600000765,55,,,,,,,,,,,,,s_036,1,2021_Jan_03_1832,Reversal,3.2.4,60.1679649370987,
18,exp1.png,exp2.png,3,0,3,0,0,18,18,18,,,,,,,,,,,,,,,,,,,,,,,,,False,77,78,False,exp1.png,exp2.png,trial_left_image,1,exp1.png,1,exp1.png,exp2.png,1,3,reversed,correct,0.22255466335280505,0,invalid_lose,390.58149140002206,55,,,,,,,,,,,,,s_036,1,2021_Jan_03_1832,Reversal,3.2.4,60.1679649370987,
19,exp3.png,exp4.png,3,0,3,0,0,19,19,19,,,,,,,,,,,,,,,,,,,,,,,,,False,78,79,True,exp4.png,exp3.png,trial_right_image,-1,exp3.png,1,exp3.png,exp4.png,1,1,non-reversed,correct,0.7108571398343351,1,valid_win,394.6462671000045,56,,,,,,,,,,,,,s_036,1,2021_Jan_03_1832,Reversal,3.2.4,60.1679649370987,
20,exp1.png,exp2.png,3,0,3,0,0,20,20,20,,,,,,,,,,,,,,,,,,,,,,,,,False,79,80,True,exp2.png,exp1.png,trial_right_image,-1,exp1.png,1,exp1.png,exp2.png,1,3,reversed,correct,0.46465372641357816,1,valid_win,398.72982229990885,57,,,,,,,,,,,,,s_036,1,2021_Jan_03_1832,Reversal,3.2.4,60.1679649370987,
,,,3,0,3,0,,,,,0,0,0,0,,,,,,,,,,,,,,,,,,,,,,,,,,,,,,,,,,,,,,,,,,50.0,50.0,100,2,,,,,,,,,s_036,1,2021_Jan_03_1832,Reversal,3.2.4,60.1679649370987,
0,exp1.png,exp2.png,,,,,,,,,,,,,,,,,0,0,0,0,0,0,0,0,,,,,,,,,True,,,,,,,,,,,,,,,,,,,,,,,,,,,,,,,,,s_036,1,2021_Jan_03_1832,Reversal,3.2.4,60.1679649370987,
1,exp3.png,exp4.png,,,,,,,,,,,,,,,,,0,0,0,0,0,1,1,1,,,,,,,,,False,0,81,True,exp4.png,exp3.png,trial_right_image,-1,exp3.png,1,exp3.png,exp4.png,1,1,non-reversed,correct,0.6105800653487997,1,valid_win,410.2082638000138,58,,,,,408.43858799990267,,,,,,,,s_036,1,2021_Jan_03_1832,Reversal,3.2.4,60.1679649370987,
2,exp1.png,exp2.png,,,,,,,,,,,,,,,,,0,0,0,0,0,2,2,2,,,,,,,,,False,1,82,True,exp2.png,exp1.png,trial_right_image,-1,exp1.png,1,exp2.png,exp1.png,1,3,reversed,incorrect,0.9439290517035206,0,valid_lose,414.17375859990716,58,,,,,,,,,,,,,s_036,1,2021_Jan_03_1832,Reversal,3.2.4,60.1679649370987,
3,exp3.png,exp4.png,,,,,,,,,,,,,,,,,0,0,0,0,0,3,3,3,,,,,,,,,False,2,83,False,exp3.png,exp4.png,trial_left_image,1,exp3.png,1,exp3.png,exp4.png,1,1,non-reversed,correct,0.9798704823554739,1,valid_win,418.35579850012437,59,,,,,,,,,,,,,s_036,1,2021_Jan_03_1832,Reversal,3.2.4,60.1679649370987,
4,exp1.png,exp2.png,,,,,,,,,,,,,,,,,0,0,0,0,0,4,4,4,,,,,,,,,False,3,84,True,exp2.png,exp1.png,trial_right_image,-1,exp1.png,1,exp2.png,exp1.png,1,3,reversed,incorrect,0.48823348406789613,0,valid_lose,422.1867488999851,59,,,,,,,,,,,,,s_036,1,2021_Jan_03_1832,Reversal,3.2.4,60.1679649370987,
5,exp3.png,exp4.png,,,,,,,,,,,,,,,,,0,0,0,0,0,5,5,5,,,,,,,,,False,4,85,True,exp4.png,exp3.png,trial_right_image,-1,exp3.png,1,exp3.png,exp4.png,1,1,non-reversed,correct,0.9329637408406768,1,valid_win,426.23494100011885,60,,,,,,,,,,,,,s_036,1,2021_Jan_03_1832,Reversal,3.2.4,60.1679649370987,
6,exp1.png,exp2.png,,,,,,,,,,,,,,,,,0,0,0,0,0,6,6,6,,,,,,,,,False,5,86,True,exp2.png,exp1.png,trial_left_image,1,exp2.png,1,exp2.png,exp1.png,0,4,reversed,correct,0.8323786008599672,1,valid_win,430.1520167000126,61,,,,,,,,,,,,,s_036,1,2021_Jan_03_1832,Reversal,3.2.4,60.1679649370987,
7,exp3.png,exp4.png,,,,,,,,,,,,,,,,,0,0,0,0,0,7,7,7,,,,,,,,,False,6,87,False,exp3.png,exp4.png,trial_left_image,1,exp3.png,1,exp3.png,exp4.png,1,1,non-reversed,correct,0.7011121632084497,1,valid_win,434.2157837001141,62,,,,,,,,,,,,,s_036,1,2021_Jan_03_1832,Reversal,3.2.4,60.1679649370987,
8,exp1.png,exp2.png,,,,,,,,,,,,,,,,,0,0,0,0,0,8,8,8,,,,,,,,,False,7,88,True,exp2.png,exp1.png,trial_left_image,1,exp2.png,1,exp2.png,exp1.png,0,4,reversed,correct,0.037650886030909825,0,invalid_lose,438.11541850003414,62,,,,,,,,,,,,,s_036,1,2021_Jan_03_1832,Reversal,3.2.4,60.1679649370987,
9,exp3.png,exp4.png,,,,,,,,,,,,,,,,,0,0,0,0,0,9,9,9,,,,,,,,,False,8,89,False,exp3.png,exp4.png,trial_left_image,1,exp3.png,1,exp3.png,exp4.png,1,1,non-reversed,correct,0.9685601477813276,1,valid_win,442.1153377001174,63,,,,,,,,,,,,,s_036,1,2021_Jan_03_1832,Reversal,3.2.4,60.1679649370987,
10,exp1.png,exp2.png,,,,,,,,,,,,,,,,,0,0,0,0,0,10,10,10,,,,,,,,,False,9,90,False,exp1.png,exp2.png,trial_right_image,-1,exp2.png,1,exp2.png,exp1.png,0,4,reversed,correct,0.33477863004004893,1,valid_win,446.32988400012255,64,,,,,,,,,,,,,s_036,1,2021_Jan_03_1832,Reversal,3.2.4,60.1679649370987,
11,exp3.png,exp4.png,,,,,,,,,,,,,,,,,0,0,0,0,0,11,11,11,,,,,,,,,False,10,91,False,exp3.png,exp4.png,trial_left_image,1,exp3.png,1,exp3.png,exp4.png,1,1,non-reversed,correct,0.665795633080632,1,valid_win,450.5781489999499,65,,,,,,,,,,,,,s_036,1,2021_Jan_03_1832,Reversal,3.2.4,60.1679649370987,
12,exp1.png,exp2.png,,,,,,,,,,,,,,,,,0,0,0,0,0,12,12,12,,,,,,,,,False,11,92,True,exp2.png,exp1.png,trial_right_image,-1,exp1.png,1,exp2.png,exp1.png,1,3,reversed,incorrect,0.8571877377333782,0,valid_lose,454.41032889997587,65,,,,,,,,,,,,,s_036,1,2021_Jan_03_1832,Reversal,3.2.4,60.1679649370987,
13,exp3.png,exp4.png,,,,,,,,,,,,,,,,,0,0,0,0,0,13,13,13,,,,,,,,,False,12,93,False,exp3.png,exp4.png,trial_left_image,1,exp3.png,1,exp3.png,exp4.png,1,1,non-reversed,correct,0.9598519660234511,1,valid_win,458.4247838999145,66,,,,,,,,,,,,,s_036,1,2021_Jan_03_1832,Reversal,3.2.4,60.1679649370987,
14,exp1.png,exp2.png,,,,,,,,,,,,,,,,,0,0,0,0,0,14,14,14,,,,,,,,,False,13,94,True,exp2.png,exp1.png,trial_right_image,-1,exp1.png,1,exp2.png,exp1.png,1,3,reversed,incorrect,0.5008711820941231,0,valid_lose,462.2405737999361,66,,,,,,,,,,,,,s_036,1,2021_Jan_03_1832,Reversal,3.2.4,60.1679649370987,
15,exp3.png,exp4.png,,,,,,,,,,,,,,,,,0,0,0,0,0,15,15,15,,,,,,,,,False,14,95,False,exp3.png,exp4.png,trial_left_image,1,exp3.png,1,exp3.png,exp4.png,1,1,non-reversed,correct,0.4389986664635691,1,valid_win,466.20596259995364,67,,,,,,,,,,,,,s_036,1,2021_Jan_03_1832,Reversal,3.2.4,60.1679649370987,
16,exp1.png,exp2.png,,,,,,,,,,,,,,,,,0,0,0,0,0,16,16,16,,,,,,,,,False,15,96,False,exp1.png,exp2.png,trial_right_image,-1,exp2.png,1,exp2.png,exp1.png,0,4,reversed,correct,0.3474663916893894,1,valid_win,470.4211504999548,68,,,,,,,,,,,,,s_036,1,2021_Jan_03_1832,Reversal,3.2.4,60.1679649370987,
17,exp3.png,exp4.png,,,,,,,,,,,,,,,,,0,0,0,0,0,17,17,17,,,,,,,,,False,16,97,False,exp3.png,exp4.png,trial_left_image,1,exp3.png,1,exp3.png,exp4.png,1,1,non-reversed,correct,0.7210341454681677,1,valid_win,474.2531045000069,69,,,,,,,,,,,,,s_036,1,2021_Jan_03_1832,Reversal,3.2.4,60.1679649370987,
18,exp1.png,exp2.png,,,,,,,,,,,,,,,,,0,0,0,0,0,18,18,18,,,,,,,,,False,17,98,True,exp2.png,exp1.png,trial_left_image,1,exp2.png,1,exp2.png,exp1.png,0,4,reversed,correct,0.7881926330570772,1,valid_win,478.7184246000834,70,,,,,,,,,,,,,s_036,1,2021_Jan_03_1832,Reversal,3.2.4,60.1679649370987,
19,exp3.png,exp4.png,,,,,,,,,,,,,,,,,0,0,0,0,0,19,19,19,,,,,,,,,False,18,99,True,exp4.png,exp3.png,trial_right_image,-1,exp3.png,1,exp3.png,exp4.png,1,1,non-reversed,correct,0.6309557502634805,1,valid_win,482.7846176000312,71,,,,,,,,,,,,,s_036,1,2021_Jan_03_1832,Reversal,3.2.4,60.1679649370987,
20,exp1.png,exp2.png,,,,,,,,,,,,,,,,,0,0,0,0,0,20,20,20,,,,,,,,,False,19,100,False,exp1.png,exp2.png,trial_right_image,-1,exp2.png,1,exp2.png,exp1.png,0,4,reversed,correct,0.10295405212758679,0,invalid_lose,486.7666348000057,71,,,,,,,,,,,,,s_036,1,2021_Jan_03_1832,Reversal,3.2.4,60.1679649370987,
,,,,,,,,,,,,,,,,,,,0,0,0,0,,,,,0,0,0,0,,,,,,,,,,,,,,,,,,,,,,,,,,50.0,50.0,100,0,,,,,,,,,s_036,1,2021_Jan_03_1832,Reversal,3.2.4,60.1679649370987,
0,exp1.png,exp2.png,,,,,,,,,,,,,,,,,1,0,1,0,0,0,0,0,,,,,,,,,True,,,,,,,,,,,,,,,,,,,,,,,,,,,,,,,,,s_036,1,2021_Jan_03_1832,Reversal,3.2.4,60.1679649370987,
1,exp3.png,exp4.png,,,,,,,,,,,,,,,,,1,0,1,0,0,1,1,1,,,,,,,,,False,20,101,False,exp3.png,exp4.png,trial_left_image,1,exp3.png,1,exp3.png,exp4.png,1,1,non-reversed,correct,0.7002144100613477,1,valid_win,501.1612199000083,72,,,,,,,,,,,,,s_036,1,2021_Jan_03_1832,Reversal,3.2.4,60.1679649370987,
2,exp1.png,exp2.png,,,,,,,,,,,,,,,,,1,0,1,0,0,2,2,2,,,,,,,,,False,21,102,False,exp1.png,exp2.png,trial_right_image,-1,exp2.png,1,exp2.png,exp1.png,0,4,reversed,correct,0.22844433800904318,0,invalid_lose,505.39240360003896,72,,,,,,,,,,,,,s_036,1,2021_Jan_03_1832,Reversal,3.2.4,60.1679649370987,
3,exp3.png,exp4.png,,,,,,,,,,,,,,,,,1,0,1,0,0,3,3,3,,,,,,,,,False,22,103,True,exp4.png,exp3.png,trial_right_image,-1,exp3.png,1,exp3.png,exp4.png,1,1,non-reversed,correct,0.041912941700581796,0,invalid_lose,509.4254670999944,72,,,,,,,,,,,,,s_036,1,2021_Jan_03_1832,Reversal,3.2.4,60.1679649370987,
4,exp1.png,exp2.png,,,,,,,,,,,,,,,,,1,0,1,0,0,4,4,4,,,,,,,,,False,23,104,False,exp1.png,exp2.png,trial_left_image,1,exp1.png,1,exp2.png,exp1.png,1,3,reversed,incorrect,0.7605188388610654,0,valid_lose,514.4902141001076,72,,,,,,,,,,,,,s_036,1,2021_Jan_03_1832,Reversal,3.2.4,60.1679649370987,
5,exp3.png,exp4.png,,,,,,,,,,,,,,,,,1,0,1,0,0,5,5,5,,,,,,,,,False,24,105,False,exp3.png,exp4.png,trial_left_image,1,exp3.png,1,exp3.png,exp4.png,1,1,non-reversed,correct,0.32778907028355486,1,valid_win,518.7374642000068,73,,,,,,,,,,,,,s_036,1,2021_Jan_03_1832,Reversal,3.2.4,60.1679649370987,
6,exp1.png,exp2.png,,,,,,,,,,,,,,,,,1,0,1,0,0,6,6,6,,,,,,,,,False,25,106,True,exp2.png,exp1.png,trial_left_image,1,exp2.png,1,exp2.png,exp1.png,0,4,reversed,correct,0.48970708418066133,1,valid_win,523.6365539000835,74,,,,,,,,,,,,,s_036,1,2021_Jan_03_1832,Reversal,3.2.4,60.1679649370987,
7,exp3.png,exp4.png,,,,,,,,,,,,,,,,,1,0,1,0,0,7,7,7,,,,,,,,,False,26,107,True,exp4.png,exp3.png,trial_right_image,-1,exp3.png,1,exp3.png,exp4.png,1,1,non-reversed,correct,0.07533726378415873,0,invalid_lose,528.2684275000356,74,,,,,,,,,,,,,s_036,1,2021_Jan_03_1832,Reversal,3.2.4,60.1679649370987,
8,exp1.png,exp2.png,,,,,,,,,,,,,,,,,1,0,1,0,0,8,8,8,,,,,,,,,False,27,108,False,exp1.png,exp2.png,trial_right_image,-1,exp2.png,1,exp2.png,exp1.png,0,4,reversed,correct,0.09198401903164333,0,invalid_lose,533.5495313000865,74,,,,,,,,,,,,,s_036,1,2021_Jan_03_1832,Reversal,3.2.4,60.1679649370987,
9,exp3.png,exp4.png,,,,,,,,,,,,,,,,,1,0,1,0,0,9,9,9,,,,,,,,,False,28,109,True,exp4.png,exp3.png,trial_right_image,-1,exp3.png,1,exp3.png,exp4.png,1,1,non-reversed,correct,0.3332224992039956,1,valid_win,538.3815087000839,75,,,,,,,,,,,,,s_036,1,2021_Jan_03_1832,Reversal,3.2.4,60.1679649370987,
10,exp1.png,exp2.png,,,,,,,,,,,,,,,,,1,0,1,0,0,10,10,10,,,,,,,,,False,29,110,True,exp2.png,exp1.png,trial_right_image,-1,exp1.png,1,exp2.png,exp1.png,1,3,reversed,incorrect,0.20955808644201335,1,invalid_win,543.1964656000491,76,,,,,,,,,,,,,s_036,1,2021_Jan_03_1832,Reversal,3.2.4,60.1679649370987,
11,exp3.png,exp4.png,,,,,,,,,,,,,,,,,1,0,1,0,0,11,11,11,,,,,,,,,False,30,111,True,exp4.png,exp3.png,trial_right_image,-1,exp3.png,1,exp3.png,exp4.png,1,1,non-reversed,correct,0.21507020918106057,0,invalid_lose,547.7453324000817,76,,,,,,,,,,,,,s_036,1,2021_Jan_03_1832,Reversal,3.2.4,60.1679649370987,
12,exp1.png,exp2.png,,,,,,,,,,,,,,,,,1,0,1,0,0,12,12,12,,,,,,,,,False,31,112,False,exp1.png,exp2.png,trial_left_image,1,exp1.png,1,exp2.png,exp1.png,1,3,reversed,incorrect,0.4800739131351647,0,valid_lose,552.0941782000009,76,,,,,,,,,,,,,s_036,1,2021_Jan_03_1832,Reversal,3.2.4,60.1679649370987,
13,exp3.png,exp4.png,,,,,,,,,,,,,,,,,1,0,1,0,0,13,13,13,,,,,,,,,False,32,113,True,exp4.png,exp3.png,trial_left_image,1,exp4.png,1,exp3.png,exp4.png,0,2,non-reversed,incorrect,0.44061080292105204,0,valid_lose,556.0261411000974,76,,,,,,,,,,,,,s_036,1,2021_Jan_03_1832,Reversal,3.2.4,60.1679649370987,
14,exp1.png,exp2.png,,,,,,,,,,,,,,,,,1,0,1,0,0,14,14,14,,,,,,,,,False,33,114,False,exp1.png,exp2.png,trial_right_image,-1,exp2.png,1,exp2.png,exp1.png,0,4,reversed,correct,0.32851869340376416,1,valid_win,560.024164600065,77,,,,,,,,,,,,,s_036,1,2021_Jan_03_1832,Reversal,3.2.4,60.1679649370987,
15,exp3.png,exp4.png,,,,,,,,,,,,,,,,,1,0,1,0,0,15,15,15,,,,,,,,,False,34,115,True,exp4.png,exp3.png,trial_right_image,-1,exp3.png,1,exp3.png,exp4.png,1,1,non-reversed,correct,0.3077515440543145,1,valid_win,564.4226943999529,78,,,,,,,,,,,,,s_036,1,2021_Jan_03_1832,Reversal,3.2.4,60.1679649370987,
16,exp1.png,exp2.png,,,,,,,,,,,,,,,,,1,0,1,0,0,16,16,16,,,,,,,,,False,35,116,False,exp1.png,exp2.png,trial_left_image,1,exp1.png,1,exp2.png,exp1.png,1,3,reversed,incorrect,0.985520455513234,0,valid_lose,568.5877535999753,78,,,,,,,,,,,,,s_036,1,2021_Jan_03_1832,Reversal,3.2.4,60.1679649370987,
17,exp3.png,exp4.png,,,,,,,,,,,,,,,,,1,0,1,0,0,17,17,17,,,,,,,,,False,36,117,True,exp4.png,exp3.png,trial_right_image,-1,exp3.png,1,exp3.png,exp4.png,1,1,non-reversed,correct,0.9231168487608725,1,valid_win,572.8201407000888,79,,,,,,,,,,,,,s_036,1,2021_Jan_03_1832,Reversal,3.2.4,60.1679649370987,
18,exp1.png,exp2.png,,,,,,,,,,,,,,,,,1,0,1,0,0,18,18,18,,,,,,,,,False,37,118,False,exp1.png,exp2.png,trial_right_image,-1,exp2.png,1,exp2.png,exp1.png,0,4,reversed,correct,0.9733899888247856,1,valid_win,577.285961800022,80,,,,,,,,,,,,,s_036,1,2021_Jan_03_1832,Reversal,3.2.4,60.1679649370987,
19,exp3.png,exp4.png,,,,,,,,,,,,,,,,,1,0,1,0,0,19,19,19,,,,,,,,,False,38,119,True,exp4.png,exp3.png,trial_left_image,1,exp4.png,1,exp3.png,exp4.png,0,2,non-reversed,incorrect,0.4553032795954781,0,valid_lose,583.0164904000703,80,,,,,,,,,,,,,s_036,1,2021_Jan_03_1832,Reversal,3.2.4,60.1679649370987,
20,exp1.png,exp2.png,,,,,,,,,,,,,,,,,1,0,1,0,0,20,20,20,,,,,,,,,False,39,120,False,exp1.png,exp2.png,trial_right_image,-1,exp2.png,1,exp2.png,exp1.png,0,4,reversed,correct,0.042524034069258976,0,invalid_lose,588.531337399967,80,,,,,,,,,,,,,s_036,1,2021_Jan_03_1832,Reversal,3.2.4,60.1679649370987,
,,,,,,,,,,,,,,,,,,,1,0,1,0,,,,,0,0,0,0,,,,,,,,,,,,,,,,,,,,,,,,,,50.0,50.0,66,31,,,,,,,,,s_036,1,2021_Jan_03_1832,Reversal,3.2.4,60.1679649370987,
0,exp1.png,exp2.png,,,,,,,,,,,,,,,,,2,0,2,0,0,0,0,0,,,,,,,,,True,,,,,,,,,,,,,,,,,,,,,,,,,,,,,,,,,s_036,1,2021_Jan_03_1832,Reversal,3.2.4,60.1679649370987,
1,exp3.png,exp4.png,,,,,,,,,,,,,,,,,2,0,2,0,0,1,1,1,,,,,,,,,False,40,121,True,exp4.png,exp3.png,trial_right_image,-1,exp3.png,1,exp3.png,exp4.png,1,1,non-reversed,correct,0.07964184947535502,0,invalid_lose,605.3589729000814,80,,,,,,,,,,,,,s_036,1,2021_Jan_03_1832,Reversal,3.2.4,60.1679649370987,
2,exp1.png,exp2.png,,,,,,,,,,,,,,,,,2,0,2,0,0,2,2,2,,,,,,,,,False,41,122,True,exp2.png,exp1.png,trial_right_image,-1,exp1.png,1,exp2.png,exp1.png,1,3,reversed,incorrect,0.015287847960082535,1,invalid_win,609.5738476999104,81,,,,,,,,,,,,,s_036,1,2021_Jan_03_1832,Reversal,3.2.4,60.1679649370987,
3,exp3.png,exp4.png,,,,,,,,,,,,,,,,,2,0,2,0,0,3,3,3,,,,,,,,,False,42,123,True,exp4.png,exp3.png,trial_right_image,-1,exp3.png,1,exp3.png,exp4.png,1,1,non-reversed,correct,0.573391019459816,1,valid_win,614.3056526998989,82,,,,,,,,,,,,,s_036,1,2021_Jan_03_1832,Reversal,3.2.4,60.1679649370987,
4,exp1.png,exp2.png,,,,,,,,,,,,,,,,,2,0,2,0,0,4,4,4,,,,,,,,,False,43,124,False,exp1.png,exp2.png,trial_right_image,-1,exp2.png,1,exp2.png,exp1.png,0,4,reversed,correct,0.9053159525169883,1,valid_win,618.9209042000584,83,,,,,,,,,,,,,s_036,1,2021_Jan_03_1832,Reversal,3.2.4,60.1679649370987,
5,exp3.png,exp4.png,,,,,,,,,,,,,,,,,2,0,2,0,0,5,5,5,,,,,,,,,False,44,125,False,exp3.png,exp4.png,trial_left_image,1,exp3.png,1,exp3.png,exp4.png,1,1,non-reversed,correct,0.6270214642222041,1,valid_win,623.4369799999986,84,,,,,,,,,,,,,s_036,1,2021_Jan_03_1832,Reversal,3.2.4,60.1679649370987,
6,exp1.png,exp2.png,,,,,,,,,,,,,,,,,2,0,2,0,0,6,6,6,,,,,,,,,False,45,126,False,exp1.png,exp2.png,trial_right_image,-1,exp2.png,1,exp2.png,exp1.png,0,4,reversed,correct,0.6280508381956277,1,valid_win,628.0008360000793,85,,,,,,,,,,,,,s_036,1,2021_Jan_03_1832,Reversal,3.2.4,60.1679649370987,
7,exp3.png,exp4.png,,,,,,,,,,,,,,,,,2,0,2,0,0,7,7,7,,,,,,,,,False,46,127,False,exp3.png,exp4.png,trial_left_image,1,exp3.png,1,exp3.png,exp4.png,1,1,non-reversed,correct,0.8037853226896472,1,valid_win,632.4167037999723,86,,,,,,,,,,,,,s_036,1,2021_Jan_03_1832,Reversal,3.2.4,60.1679649370987,
8,exp1.png,exp2.png,,,,,,,,,,,,,,,,,2,0,2,0,0,8,8,8,,,,,,,,,False,47,128,False,exp1.png,exp2.png,trial_right_image,-1,exp2.png,1,exp2.png,exp1.png,0,4,reversed,correct,0.9261084868787208,1,valid_win,636.4320869001094,87,,,,,,,,,,,,,s_036,1,2021_Jan_03_1832,Reversal,3.2.4,60.1679649370987,
9,exp3.png,exp4.png,,,,,,,,,,,,,,,,,2,0,2,0,0,9,9,9,,,,,,,,,False,48,129,False,exp3.png,exp4.png,trial_left_image,1,exp3.png,1,exp3.png,exp4.png,1,1,non-reversed,correct,0.4727431015156299,1,valid_win,640.764068499906,88,,,,,,,,,,,,,s_036,1,2021_Jan_03_1832,Reversal,3.2.4,60.1679649370987,
10,exp1.png,exp2.png,,,,,,,,,,,,,,,,,2,0,2,0,0,10,10,10,,,,,,,,,False,49,130,True,exp2.png,exp1.png,trial_left_image,1,exp2.png,1,exp2.png,exp1.png,0,4,reversed,correct,0.04489942497128041,0,invalid_lose,644.8793420000002,88,,,,,,,,,,,,,s_036,1,2021_Jan_03_1832,Reversal,3.2.4,60.1679649370987,
11,exp3.png,exp4.png,,,,,,,,,,,,,,,,,2,0,2,0,0,11,11,11,,,,,,,,,False,50,131,True,exp4.png,exp3.png,trial_right_image,-1,exp3.png,1,exp3.png,exp4.png,1,1,non-reversed,correct,0.8043462347289848,1,valid_win,649.0434413999319,89,,,,,,,,,,,,,s_036,1,2021_Jan_03_1832,Reversal,3.2.4,60.1679649370987,
12,exp1.png,exp2.png,,,,,,,,,,,,,,,,,2,0,2,0,0,12,12,12,,,,,,,,,False,51,132,True,exp2.png,exp1.png,trial_right_image,-1,exp1.png,1,exp2.png,exp1.png,1,3,reversed,incorrect,0.1343105807469157,1,invalid_win,653.3097842000425,90,,,,,,,,,,,,,s_036,1,2021_Jan_03_1832,Reversal,3.2.4,60.1679649370987,
13,exp3.png,exp4.png,,,,,,,,,,,,,,,,,2,0,2,0,0,13,13,13,,,,,,,,,False,52,133,False,exp3.png,exp4.png,trial_left_image,1,exp3.png,1,exp3.png,exp4.png,1,1,non-reversed,correct,0.16679005286195425,0,invalid_lose,657.6923348999117,90,,,,,,,,,,,,,s_036,1,2021_Jan_03_1832,Reversal,3.2.4,60.1679649370987,
14,exp1.png,exp2.png,,,,,,,,,,,,,,,,,2,0,2,0,0,14,14,14,,,,,,,,,False,53,134,False,exp1.png,exp2.png,trial_right_image,-1,exp2.png,1,exp2.png,exp1.png,0,4,reversed,correct,0.6032546109604666,1,valid_win,661.7069729999639,91,,,,,,,,,,,,,s_036,1,2021_Jan_03_1832,Reversal,3.2.4,60.1679649370987,
15,exp3.png,exp4.png,,,,,,,,,,,,,,,,,2,0,2,0,0,15,15,15,,,,,,,,,False,54,135,False,exp3.png,exp4.png,trial_left_image,1,exp3.png,1,exp3.png,exp4.png,1,1,non-reversed,correct,0.2274226445247597,0,invalid_lose,665.7376794999,91,,,,,,,,,,,,,s_036,1,2021_Jan_03_1832,Reversal,3.2.4,60.1679649370987,
16,exp1.png,exp2.png,,,,,,,,,,,,,,,,,2,0,2,0,0,16,16,16,,,,,,,,,False,55,136,True,exp2.png,exp1.png,trial_right_image,-1,exp1.png,1,exp2.png,exp1.png,1,3,reversed,incorrect,0.989161250982276,0,valid_lose,669.7699935000855,91,,,,,,,,,,,,,s_036,1,2021_Jan_03_1832,Reversal,3.2.4,60.1679649370987,
17,exp3.png,exp4.png,,,,,,,,,,,,,,,,,2,0,2,0,0,17,17,17,,,,,,,,,False,56,137,False,exp3.png,exp4.png,trial_left_image,1,exp3.png,1,exp3.png,exp4.png,1,1,non-reversed,correct,0.5453235976268082,1,valid_win,674.0692467000335,92,,,,,,,,,,,,,s_036,1,2021_Jan_03_1832,Reversal,3.2.4,60.1679649370987,
18,exp1.png,exp2.png,,,,,,,,,,,,,,,,,2,0,2,0,0,18,18,18,,,,,,,,,False,57,138,True,exp2.png,exp1.png,trial_left_image,1,exp2.png,1,exp2.png,exp1.png,0,4,reversed,correct,0.038445248977425184,0,invalid_lose,678.0675884000957,92,,,,,,,,,,,,,s_036,1,2021_Jan_03_1832,Reversal,3.2.4,60.1679649370987,
19,exp3.png,exp4.png,,,,,,,,,,,,,,,,,2,0,2,0,0,19,19,19,,,,,,,,,False,58,139,True,exp4.png,exp3.png,trial_right_image,-1,exp3.png,1,exp3.png,exp4.png,1,1,non-reversed,correct,0.3541798389175107,1,valid_win,682.2332500999328,93,,,,,,,,,,,,,s_036,1,2021_Jan_03_1832,Reversal,3.2.4,60.1679649370987,
20,exp1.png,exp2.png,,,,,,,,,,,,,,,,,2,0,2,0,0,20,20,20,,,,,,,,,False,59,140,True,exp2.png,exp1.png,trial_left_image,1,exp2.png,1,exp2.png,exp1.png,0,4,reversed,correct,0.09557612586203734,0,invalid_lose,686.1824185999576,93,,,,,,,,,,,,,s_036,1,2021_Jan_03_1832,Reversal,3.2.4,60.1679649370987,
,,,,,,,,,,,,,,,,,,,2,0,2,0,,,,,0,0,0,0,,,,,,,,,,,,,,,,,,,,,,,,,,38,62,75,25,,,,,,,,,s_036,1,2021_Jan_03_1832,Reversal,3.2.4,60.1679649370987,
,,,,,,,,,,,,,,,,,,,,,,,,,,,,,,,,,,,,,,,,,,,,,,,,,,,,,,,93,,,,,,110,63,47,294.2857611000072,1,space,41.0689894000534,s_036,1,2021_Jan_03_1832,Reversal,3.2.4,60.1679649370987,
