trial_index,trial_image1_file,trial_image2_file,learning_outer_loop.thisRepN,learning_outer_loop.thisTrialN,learning_outer_loop.thisN,learning_outer_loop.thisIndex,learning_inner_loop.thisRepN,learning_inner_loop.thisTrialN,learning_inner_loop.thisN,learning_inner_loop.thisIndex,learning_estimation_outer_loop.thisRepN,learning_estimation_outer_loop.thisTrialN,learning_estimation_outer_loop.thisN,learning_estimation_outer_loop.thisIndex,learning_estimation_inner_loop.thisRepN,learning_estimation_inner_loop.thisTrialN,learning_estimation_inner_loop.thisN,learning_estimation_inner_loop.thisIndex,reversal_outer_loop.thisRepN,reversal_outer_loop.thisTrialN,reversal_outer_loop.thisN,reversal_outer_loop.thisIndex,reversal_inner_loop.thisRepN,reversal_inner_loop.thisTrialN,reversal_inner_loop.thisN,reversal_inner_loop.thisIndex,reversal_estimation_outer_loop.thisRepN,reversal_estimation_outer_loop.thisTrialN,reversal_estimation_outer_loop.thisN,reversal_estimation_outer_loop.thisIndex,reversal_estimation_inner_loop.thisRepN,reversal_estimation_inner_loop.thisTrialN,reversal_estimation_inner_loop.thisN,reversal_estimation_inner_loop.thisIndex,skipped,total_trial_counter,trial_num,left_right_flip,left_image_file,right_image_file,clicked_stimulus_side,side,clicked_stimulus,version,high_prob_image_file,low_prob_image_file,choice_a,choice_b,pair_type,correct,trial_feedback_random,reward,trial_type,overall_time_after_trial,score,estimation_exp1.png,estimation_exp2.png,estimation_exp3.png,estimation_exp4.png,total_learning_time,total_correct,learning_correct,reversal_correct,total_reversal_time,extra_block,participant,ver,date,expName,psychopyVersion,frameRate,
0,exp1.png,exp2.png,0,0,0,0,0,0,0,0,,,,,,,,,,,,,,,,,,,,,,,,,False,0,1,True,exp2.png,exp1.png,trial_left_image,1,exp2.png,3,exp2.png,exp1.png,1,3,reversed,correct,0.11269741045351533,0,invalid_lose,2.9122930000303313,0,,,,,,,,,,,s_032,3,2020_Dec_29_1240,Reversal,3.2.4,59.91019463187081,
1,exp3.png,exp4.png,0,0,0,0,0,1,1,1,,,,,,,,,,,,,,,,,,,,,,,,,False,1,2,False,exp3.png,exp4.png,trial_right_image,-1,exp4.png,3,exp4.png,exp3.png,1,1,non-reversed,correct,0.38637384998229674,1,valid_win,10.943303000065498,1,,,,,,,,,,,s_032,3,2020_Dec_29_1240,Reversal,3.2.4,59.91019463187081,
2,exp1.png,exp2.png,0,0,0,0,0,2,2,2,,,,,,,,,,,,,,,,,,,,,,,,,False,2,3,False,exp1.png,exp2.png,trial_left_image,1,exp1.png,3,exp2.png,exp1.png,0,4,reversed,incorrect,0.7759951439618998,0,valid_lose,18.60709299996961,1,,,,,,,,,,,s_032,3,2020_Dec_29_1240,Reversal,3.2.4,59.91019463187081,
3,exp3.png,exp4.png,0,0,0,0,0,3,3,3,,,,,,,,,,,,,,,,,,,,,,,,,False,3,4,False,exp3.png,exp4.png,trial_left_image,1,exp3.png,3,exp4.png,exp3.png,0,2,non-reversed,incorrect,0.1683430085246601,1,invalid_win,24.138632800080813,2,,,,,,,,,,,s_032,3,2020_Dec_29_1240,Reversal,3.2.4,59.91019463187081,
4,exp1.png,exp2.png,0,0,0,0,0,4,4,4,,,,,,,,,,,,,,,,,,,,,,,,,False,4,5,True,exp2.png,exp1.png,trial_right_image,-1,exp1.png,3,exp2.png,exp1.png,0,4,reversed,incorrect,0.8597376046639827,0,valid_lose,31.185015300055966,2,,,,,,,,,,,s_032,3,2020_Dec_29_1240,Reversal,3.2.4,59.91019463187081,
5,exp3.png,exp4.png,0,0,0,0,0,5,5,5,,,,,,,,,,,,,,,,,,,,,,,,,False,5,6,False,exp3.png,exp4.png,trial_right_image,-1,exp4.png,3,exp4.png,exp3.png,1,1,non-reversed,correct,0.5356126884792954,1,valid_win,40.100095300003886,3,,,,,,,,,,,s_032,3,2020_Dec_29_1240,Reversal,3.2.4,59.91019463187081,
6,exp1.png,exp2.png,0,0,0,0,0,6,6,6,,,,,,,,,,,,,,,,,,,,,,,,,False,6,7,True,exp2.png,exp1.png,trial_right_image,-1,exp1.png,3,exp2.png,exp1.png,0,4,reversed,incorrect,0.02621023298494507,1,invalid_win,49.013546800008044,4,,,,,,,,,,,s_032,3,2020_Dec_29_1240,Reversal,3.2.4,59.91019463187081,
7,exp3.png,exp4.png,0,0,0,0,0,7,7,7,,,,,,,,,,,,,,,,,,,,,,,,,False,7,8,False,exp3.png,exp4.png,trial_left_image,1,exp3.png,3,exp4.png,exp3.png,0,2,non-reversed,incorrect,0.06259634865649832,1,invalid_win,55.12814789998811,5,,,,,,,,,,,s_032,3,2020_Dec_29_1240,Reversal,3.2.4,59.91019463187081,
8,exp1.png,exp2.png,0,0,0,0,0,8,8,8,,,,,,,,,,,,,,,,,,,,,,,,,False,8,9,True,exp2.png,exp1.png,trial_left_image,1,exp2.png,3,exp2.png,exp1.png,1,3,reversed,correct,0.37019050260843955,1,valid_win,59.61003920005169,6,,,,,,,,,,,s_032,3,2020_Dec_29_1240,Reversal,3.2.4,59.91019463187081,
9,exp3.png,exp4.png,0,0,0,0,0,9,9,9,,,,,,,,,,,,,,,,,,,,,,,,,False,9,10,False,exp3.png,exp4.png,trial_right_image,-1,exp4.png,3,exp4.png,exp3.png,1,1,non-reversed,correct,0.38709659698555643,1,valid_win,66.75753489998169,7,,,,,,,,,,,s_032,3,2020_Dec_29_1240,Reversal,3.2.4,59.91019463187081,
10,exp1.png,exp2.png,0,0,0,0,0,10,10,10,,,,,,,,,,,,,,,,,,,,,,,,,False,10,11,False,exp1.png,exp2.png,trial_right_image,-1,exp2.png,3,exp2.png,exp1.png,1,3,reversed,correct,0.018326978777446268,0,invalid_lose,70.93955790007021,7,,,,,,,,,,,s_032,3,2020_Dec_29_1240,Reversal,3.2.4,59.91019463187081,
11,exp3.png,exp4.png,0,0,0,0,0,11,11,11,,,,,,,,,,,,,,,,,,,,,,,,,False,11,12,False,exp3.png,exp4.png,trial_left_image,1,exp3.png,3,exp4.png,exp3.png,0,2,non-reversed,incorrect,0.1666694406573319,1,invalid_win,75.13819309999235,8,,,,,,,,,,,s_032,3,2020_Dec_29_1240,Reversal,3.2.4,59.91019463187081,
12,exp1.png,exp2.png,0,0,0,0,0,12,12,12,,,,,,,,,,,,,,,,,,,,,,,,,False,12,13,True,exp2.png,exp1.png,trial_left_image,1,exp2.png,3,exp2.png,exp1.png,1,3,reversed,correct,0.6872606988468266,1,valid_win,80.30360129999463,9,,,,,,,,,,,s_032,3,2020_Dec_29_1240,Reversal,3.2.4,59.91019463187081,
13,exp3.png,exp4.png,0,0,0,0,0,13,13,13,,,,,,,,,,,,,,,,,,,,,,,,,False,13,14,True,exp4.png,exp3.png,trial_right_image,-1,exp3.png,3,exp4.png,exp3.png,0,2,non-reversed,incorrect,0.5132418001700411,0,valid_lose,84.50157219998073,9,,,,,,,,,,,s_032,3,2020_Dec_29_1240,Reversal,3.2.4,59.91019463187081,
14,exp1.png,exp2.png,0,0,0,0,0,14,14,14,,,,,,,,,,,,,,,,,,,,,,,,,False,14,15,True,exp2.png,exp1.png,trial_right_image,-1,exp1.png,3,exp2.png,exp1.png,0,4,reversed,incorrect,0.45978353375424375,0,valid_lose,88.63342349999584,9,,,,,,,,,,,s_032,3,2020_Dec_29_1240,Reversal,3.2.4,59.91019463187081,
15,exp3.png,exp4.png,0,0,0,0,0,15,15,15,,,,,,,,,,,,,,,,,,,,,,,,,False,15,16,True,exp4.png,exp3.png,trial_right_image,-1,exp3.png,3,exp4.png,exp3.png,0,2,non-reversed,incorrect,0.6270914136873811,0,valid_lose,96.96421500004362,9,,,,,,,,,,,s_032,3,2020_Dec_29_1240,Reversal,3.2.4,59.91019463187081,
16,exp1.png,exp2.png,0,0,0,0,0,16,16,16,,,,,,,,,,,,,,,,,,,,,,,,,False,16,17,True,exp2.png,exp1.png,trial_left_image,1,exp2.png,3,exp2.png,exp1.png,1,3,reversed,correct,0.7494704079295607,1,valid_win,101.54585500003304,10,,,,,,,,,,,s_032,3,2020_Dec_29_1240,Reversal,3.2.4,59.91019463187081,
17,exp3.png,exp4.png,0,0,0,0,0,17,17,17,,,,,,,,,,,,,,,,,,,,,,,,,False,17,18,True,exp4.png,exp3.png,trial_left_image,1,exp4.png,3,exp4.png,exp3.png,1,1,non-reversed,correct,0.17342829056676867,0,invalid_lose,108.94319420005195,10,,,,,,,,,,,s_032,3,2020_Dec_29_1240,Reversal,3.2.4,59.91019463187081,
18,exp1.png,exp2.png,0,0,0,0,0,18,18,18,,,,,,,,,,,,,,,,,,,,,,,,,False,18,19,False,exp1.png,exp2.png,trial_right_image,-1,exp2.png,3,exp2.png,exp1.png,1,3,reversed,correct,0.4180126917223479,1,valid_win,113.17383720004,11,,,,,,,,,,,s_032,3,2020_Dec_29_1240,Reversal,3.2.4,59.91019463187081,
19,exp3.png,exp4.png,0,0,0,0,0,19,19,19,,,,,,,,,,,,,,,,,,,,,,,,,False,19,20,False,exp3.png,exp4.png,trial_right_image,-1,exp4.png,3,exp4.png,exp3.png,1,1,non-reversed,correct,0.1657330691020471,0,invalid_lose,117.70680839999113,11,,,,,,,,,,,s_032,3,2020_Dec_29_1240,Reversal,3.2.4,59.91019463187081,
20,exp1.png,exp2.png,0,0,0,0,0,20,20,20,,,,,,,,,,,,,,,,,,,,,,,,,True,,,,,,,,,,,,,,,,,,,,,,,,,,,,,,,s_032,3,2020_Dec_29_1240,Reversal,3.2.4,59.91019463187081,
,,,0,0,0,0,,,,,0,0,0,0,,,,,,,,,,,,,,,,,,,,,,,,,,,,,,,,,,,,,,,,,,74,24,77,22,,,,,,,s_032,3,2020_Dec_29_1240,Reversal,3.2.4,59.91019463187081,
0,exp1.png,exp2.png,1,0,1,0,0,0,0,0,,,,,,,,,,,,,,,,,,,,,,,,,False,20,21,True,exp2.png,exp1.png,trial_right_image,-1,exp1.png,3,exp2.png,exp1.png,0,4,reversed,incorrect,0.9860236867143453,0,valid_lose,155.14447629998904,11,,,,,,,,,,,s_032,3,2020_Dec_29_1240,Reversal,3.2.4,59.91019463187081,
1,exp3.png,exp4.png,1,0,1,0,0,1,1,1,,,,,,,,,,,,,,,,,,,,,,,,,False,21,22,False,exp3.png,exp4.png,trial_right_image,-1,exp4.png,3,exp4.png,exp3.png,1,1,non-reversed,correct,0.5075611568538009,1,valid_win,161.20945119997486,12,,,,,,,,,,,s_032,3,2020_Dec_29_1240,Reversal,3.2.4,59.91019463187081,
2,exp1.png,exp2.png,1,0,1,0,0,2,2,2,,,,,,,,,,,,,,,,,,,,,,,,,False,22,23,False,exp1.png,exp2.png,trial_right_image,-1,exp2.png,3,exp2.png,exp1.png,1,3,reversed,correct,0.2482400432029609,0,invalid_lose,166.55701520002913,12,,,,,,,,,,,s_032,3,2020_Dec_29_1240,Reversal,3.2.4,59.91019463187081,
3,exp3.png,exp4.png,1,0,1,0,0,3,3,3,,,,,,,,,,,,,,,,,,,,,,,,,False,23,24,True,exp4.png,exp3.png,trial_left_image,1,exp4.png,3,exp4.png,exp3.png,1,1,non-reversed,correct,0.7852153714262787,1,valid_win,173.1716626000125,13,,,,,,,,,,,s_032,3,2020_Dec_29_1240,Reversal,3.2.4,59.91019463187081,
4,exp1.png,exp2.png,1,0,1,0,0,4,4,4,,,,,,,,,,,,,,,,,,,,,,,,,False,24,25,True,exp2.png,exp1.png,trial_left_image,1,exp2.png,3,exp2.png,exp1.png,1,3,reversed,correct,0.8048215775814719,1,valid_win,179.13653210003395,14,,,,,,,,,,,s_032,3,2020_Dec_29_1240,Reversal,3.2.4,59.91019463187081,
5,exp3.png,exp4.png,1,0,1,0,0,5,5,5,,,,,,,,,,,,,,,,,,,,,,,,,False,25,26,False,exp3.png,exp4.png,trial_left_image,1,exp3.png,3,exp4.png,exp3.png,0,2,non-reversed,incorrect,0.11670363416861429,1,invalid_win,189.3484521000646,15,,,,,,,,,,,s_032,3,2020_Dec_29_1240,Reversal,3.2.4,59.91019463187081,
6,exp1.png,exp2.png,1,0,1,0,0,6,6,6,,,,,,,,,,,,,,,,,,,,,,,,,False,26,27,False,exp1.png,exp2.png,trial_right_image,-1,exp2.png,3,exp2.png,exp1.png,1,3,reversed,correct,0.7934011982679053,1,valid_win,197.18000809999648,16,,,,,,,,,,,s_032,3,2020_Dec_29_1240,Reversal,3.2.4,59.91019463187081,
7,exp3.png,exp4.png,1,0,1,0,0,7,7,7,,,,,,,,,,,,,,,,,,,,,,,,,False,27,28,False,exp3.png,exp4.png,trial_right_image,-1,exp4.png,3,exp4.png,exp3.png,1,1,non-reversed,correct,0.08993629971437345,0,invalid_lose,210.44246609997936,16,,,,,,,,,,,s_032,3,2020_Dec_29_1240,Reversal,3.2.4,59.91019463187081,
8,exp1.png,exp2.png,1,0,1,0,0,8,8,8,,,,,,,,,,,,,,,,,,,,,,,,,False,28,29,True,exp2.png,exp1.png,trial_right_image,-1,exp1.png,3,exp2.png,exp1.png,0,4,reversed,incorrect,0.8208082409590401,0,valid_lose,215.90715810004622,16,,,,,,,,,,,s_032,3,2020_Dec_29_1240,Reversal,3.2.4,59.91019463187081,
9,exp3.png,exp4.png,1,0,1,0,0,9,9,9,,,,,,,,,,,,,,,,,,,,,,,,,False,29,30,True,exp4.png,exp3.png,trial_right_image,-1,exp3.png,3,exp4.png,exp3.png,0,2,non-reversed,incorrect,0.03238532396216598,1,invalid_win,219.8723208999727,17,,,,,,,,,,,s_032,3,2020_Dec_29_1240,Reversal,3.2.4,59.91019463187081,
10,exp1.png,exp2.png,1,0,1,0,0,10,10,10,,,,,,,,,,,,,,,,,,,,,,,,,False,30,31,False,exp1.png,exp2.png,trial_left_image,1,exp1.png,3,exp2.png,exp1.png,0,4,reversed,incorrect,0.6693584423513079,0,valid_lose,224.32126920006704,17,,,,,,,,,,,s_032,3,2020_Dec_29_1240,Reversal,3.2.4,59.91019463187081,
11,exp3.png,exp4.png,1,0,1,0,0,11,11,11,,,,,,,,,,,,,,,,,,,,,,,,,False,31,32,True,exp4.png,exp3.png,trial_left_image,1,exp4.png,3,exp4.png,exp3.png,1,1,non-reversed,correct,0.042917691715415485,0,invalid_lose,231.8847545000026,17,,,,,,,,,,,s_032,3,2020_Dec_29_1240,Reversal,3.2.4,59.91019463187081,
12,exp1.png,exp2.png,1,0,1,0,0,12,12,12,,,,,,,,,,,,,,,,,,,,,,,,,False,32,33,True,exp2.png,exp1.png,trial_left_image,1,exp2.png,3,exp2.png,exp1.png,1,3,reversed,correct,0.6173344921217515,1,valid_win,236.63411870005075,18,,,,,,,,,,,s_032,3,2020_Dec_29_1240,Reversal,3.2.4,59.91019463187081,
13,exp3.png,exp4.png,1,0,1,0,0,13,13,13,,,,,,,,,,,,,,,,,,,,,,,,,False,33,34,False,exp3.png,exp4.png,trial_left_image,1,exp3.png,3,exp4.png,exp3.png,0,2,non-reversed,incorrect,0.26729026927119715,0,valid_lose,242.21367550001014,18,,,,,,,,,,,s_032,3,2020_Dec_29_1240,Reversal,3.2.4,59.91019463187081,
14,exp1.png,exp2.png,1,0,1,0,0,14,14,14,,,,,,,,,,,,,,,,,,,,,,,,,False,34,35,False,exp1.png,exp2.png,trial_left_image,1,exp1.png,3,exp2.png,exp1.png,0,4,reversed,incorrect,0.4237577881926128,0,valid_lose,250.69593440007884,18,,,,,,,,,,,s_032,3,2020_Dec_29_1240,Reversal,3.2.4,59.91019463187081,
15,exp3.png,exp4.png,1,0,1,0,0,15,15,15,,,,,,,,,,,,,,,,,,,,,,,,,False,35,36,True,exp4.png,exp3.png,trial_right_image,-1,exp3.png,3,exp4.png,exp3.png,0,2,non-reversed,incorrect,0.40566166081390176,0,valid_lose,255.57704710005783,18,,,,,,,,,,,s_032,3,2020_Dec_29_1240,Reversal,3.2.4,59.91019463187081,
16,exp1.png,exp2.png,1,0,1,0,0,16,16,16,,,,,,,,,,,,,,,,,,,,,,,,,False,36,37,False,exp1.png,exp2.png,trial_left_image,1,exp1.png,3,exp2.png,exp1.png,0,4,reversed,incorrect,0.42252601058173667,0,valid_lose,259.90901669999585,18,,,,,,,,,,,s_032,3,2020_Dec_29_1240,Reversal,3.2.4,59.91019463187081,
17,exp3.png,exp4.png,1,0,1,0,0,17,17,17,,,,,,,,,,,,,,,,,,,,,,,,,False,37,38,True,exp4.png,exp3.png,trial_left_image,1,exp4.png,3,exp4.png,exp3.png,1,1,non-reversed,correct,0.8135429594442221,1,valid_win,263.79135880002286,19,,,,,,,,,,,s_032,3,2020_Dec_29_1240,Reversal,3.2.4,59.91019463187081,
18,exp1.png,exp2.png,1,0,1,0,0,18,18,18,,,,,,,,,,,,,,,,,,,,,,,,,False,38,39,False,exp1.png,exp2.png,trial_left_image,1,exp1.png,3,exp2.png,exp1.png,0,4,reversed,incorrect,0.3357773782021166,0,valid_lose,268.022733699996,19,,,,,,,,,,,s_032,3,2020_Dec_29_1240,Reversal,3.2.4,59.91019463187081,
19,exp3.png,exp4.png,1,0,1,0,0,19,19,19,,,,,,,,,,,,,,,,,,,,,,,,,False,39,40,True,exp4.png,exp3.png,trial_right_image,-1,exp3.png,3,exp4.png,exp3.png,0,2,non-reversed,incorrect,0.9890269528691881,0,valid_lose,273.9543993000407,19,,,,,,,,,,,s_032,3,2020_Dec_29_1240,Reversal,3.2.4,59.91019463187081,
20,exp1.png,exp2.png,1,0,1,0,0,20,20,20,,,,,,,,,,,,,,,,,,,,,,,,,True,,,,,,,,,,,,,,,,,,,,,,,,,,,,,,,s_032,3,2020_Dec_29_1240,Reversal,3.2.4,59.91019463187081,
,,,1,0,1,0,,,,,0,0,0,0,,,,,,,,,,,,,,,,,,,,,,,,,,,,,,,,,,,,,,,,,,19,64,49,50.0,,,,,,,s_032,3,2020_Dec_29_1240,Reversal,3.2.4,59.91019463187081,
0,exp1.png,exp2.png,2,0,2,0,0,0,0,0,,,,,,,,,,,,,,,,,,,,,,,,,False,40,41,False,exp1.png,exp2.png,trial_right_image,-1,exp2.png,3,exp2.png,exp1.png,1,3,reversed,correct,0.9397414920630707,1,valid_win,299.27908460004255,20,,,,,,,,,,,s_032,3,2020_Dec_29_1240,Reversal,3.2.4,59.91019463187081,
1,exp3.png,exp4.png,2,0,2,0,0,1,1,1,,,,,,,,,,,,,,,,,,,,,,,,,False,41,42,False,exp3.png,exp4.png,trial_right_image,-1,exp4.png,3,exp4.png,exp3.png,1,1,non-reversed,correct,0.34518291287985203,1,valid_win,303.86118420003913,21,,,,,,,,,,,s_032,3,2020_Dec_29_1240,Reversal,3.2.4,59.91019463187081,
2,exp1.png,exp2.png,2,0,2,0,0,2,2,2,,,,,,,,,,,,,,,,,,,,,,,,,False,42,43,True,exp2.png,exp1.png,trial_left_image,1,exp2.png,3,exp2.png,exp1.png,1,3,reversed,correct,0.5979976950421781,1,valid_win,309.74248160002753,22,,,,,,,,,,,s_032,3,2020_Dec_29_1240,Reversal,3.2.4,59.91019463187081,
3,exp3.png,exp4.png,2,0,2,0,0,3,3,3,,,,,,,,,,,,,,,,,,,,,,,,,False,43,44,True,exp4.png,exp3.png,trial_left_image,1,exp4.png,3,exp4.png,exp3.png,1,1,non-reversed,correct,0.7191892503000585,1,valid_win,314.0744699999923,23,,,,,,,,,,,s_032,3,2020_Dec_29_1240,Reversal,3.2.4,59.91019463187081,
4,exp1.png,exp2.png,2,0,2,0,0,4,4,4,,,,,,,,,,,,,,,,,,,,,,,,,False,44,45,True,exp2.png,exp1.png,trial_right_image,-1,exp1.png,3,exp2.png,exp1.png,0,4,reversed,incorrect,0.3266066188993094,0,valid_lose,319.4389340999769,23,,,,,,,,,,,s_032,3,2020_Dec_29_1240,Reversal,3.2.4,59.91019463187081,
5,exp3.png,exp4.png,2,0,2,0,0,5,5,5,,,,,,,,,,,,,,,,,,,,,,,,,False,45,46,True,exp4.png,exp3.png,trial_left_image,1,exp4.png,3,exp4.png,exp3.png,1,1,non-reversed,correct,0.6630474011926109,1,valid_win,323.7209323999705,24,,,,,,,,,,,s_032,3,2020_Dec_29_1240,Reversal,3.2.4,59.91019463187081,
6,exp1.png,exp2.png,2,0,2,0,0,6,6,6,,,,,,,,,,,,,,,,,,,,,,,,,False,46,47,True,exp2.png,exp1.png,trial_left_image,1,exp2.png,3,exp2.png,exp1.png,1,3,reversed,correct,0.9740882726519715,1,valid_win,327.9359039000701,25,,,,,,,,,,,s_032,3,2020_Dec_29_1240,Reversal,3.2.4,59.91019463187081,
7,exp3.png,exp4.png,2,0,2,0,0,7,7,7,,,,,,,,,,,,,,,,,,,,,,,,,False,47,48,True,exp4.png,exp3.png,trial_left_image,1,exp4.png,3,exp4.png,exp3.png,1,1,non-reversed,correct,0.2705899129804735,1,valid_win,332.1013224000344,26,,,,,,,,,,,s_032,3,2020_Dec_29_1240,Reversal,3.2.4,59.91019463187081,
8,exp1.png,exp2.png,2,0,2,0,0,8,8,8,,,,,,,,,,,,,,,,,,,,,,,,,False,48,49,False,exp1.png,exp2.png,trial_right_image,-1,exp2.png,3,exp2.png,exp1.png,1,3,reversed,correct,0.5277466590445347,1,valid_win,336.2997707000468,27,,,,,,,,,,,s_032,3,2020_Dec_29_1240,Reversal,3.2.4,59.91019463187081,
9,exp3.png,exp4.png,2,0,2,0,0,9,9,9,,,,,,,,,,,,,,,,,,,,,,,,,False,49,50,False,exp3.png,exp4.png,trial_right_image,-1,exp4.png,3,exp4.png,exp3.png,1,1,non-reversed,correct,0.10794295560057565,0,invalid_lose,340.36520970007405,27,,,,,,,,,,,s_032,3,2020_Dec_29_1240,Reversal,3.2.4,59.91019463187081,
10,exp1.png,exp2.png,2,0,2,0,0,10,10,10,,,,,,,,,,,,,,,,,,,,,,,,,False,50,51,False,exp1.png,exp2.png,trial_right_image,-1,exp2.png,3,exp2.png,exp1.png,1,3,reversed,correct,0.7135248410733275,1,valid_win,344.3302724000532,28,,,,,,,,,,,s_032,3,2020_Dec_29_1240,Reversal,3.2.4,59.91019463187081,
11,exp3.png,exp4.png,2,0,2,0,0,11,11,11,,,,,,,,,,,,,,,,,,,,,,,,,False,51,52,False,exp3.png,exp4.png,trial_right_image,-1,exp4.png,3,exp4.png,exp3.png,1,1,non-reversed,correct,0.2830062646582714,1,valid_win,349.6285112000769,29,,,,,,,,,,,s_032,3,2020_Dec_29_1240,Reversal,3.2.4,59.91019463187081,
12,exp1.png,exp2.png,2,0,2,0,0,12,12,12,,,,,,,,,,,,,,,,,,,,,,,,,False,52,53,False,exp1.png,exp2.png,trial_right_image,-1,exp2.png,3,exp2.png,exp1.png,1,3,reversed,correct,0.3196976460493405,1,valid_win,353.54418700002134,30,,,,,,,,,,,s_032,3,2020_Dec_29_1240,Reversal,3.2.4,59.91019463187081,
13,exp3.png,exp4.png,2,0,2,0,0,13,13,13,,,,,,,,,,,,,,,,,,,,,,,,,False,53,54,False,exp3.png,exp4.png,trial_right_image,-1,exp4.png,3,exp4.png,exp3.png,1,1,non-reversed,correct,0.42975749827136256,1,valid_win,357.54235930007417,31,,,,,,,,,,,s_032,3,2020_Dec_29_1240,Reversal,3.2.4,59.91019463187081,
14,exp1.png,exp2.png,2,0,2,0,0,14,14,14,,,,,,,,,,,,,,,,,,,,,,,,,False,54,55,True,exp2.png,exp1.png,trial_left_image,1,exp2.png,3,exp2.png,exp1.png,1,3,reversed,correct,0.20112954757978252,0,invalid_lose,362.4912376999855,31,,,,,,,,,,,s_032,3,2020_Dec_29_1240,Reversal,3.2.4,59.91019463187081,
15,exp3.png,exp4.png,2,0,2,0,0,15,15,15,,,,,,,,,,,,,,,,,,,,,,,,,False,55,56,True,exp4.png,exp3.png,trial_left_image,1,exp4.png,3,exp4.png,exp3.png,1,1,non-reversed,correct,0.8077141721471023,1,valid_win,366.72283590002917,32,,,,,,,,,,,s_032,3,2020_Dec_29_1240,Reversal,3.2.4,59.91019463187081,
16,exp1.png,exp2.png,2,0,2,0,0,16,16,16,,,,,,,,,,,,,,,,,,,,,,,,,False,56,57,False,exp1.png,exp2.png,trial_right_image,-1,exp2.png,3,exp2.png,exp1.png,1,3,reversed,correct,0.21055538794643536,0,invalid_lose,370.73826510005165,32,,,,,,,,,,,s_032,3,2020_Dec_29_1240,Reversal,3.2.4,59.91019463187081,
17,exp3.png,exp4.png,2,0,2,0,0,17,17,17,,,,,,,,,,,,,,,,,,,,,,,,,False,57,58,True,exp4.png,exp3.png,trial_left_image,1,exp4.png,3,exp4.png,exp3.png,1,1,non-reversed,correct,0.32810996758422417,1,valid_win,375.0038326000795,33,,,,,,,,,,,s_032,3,2020_Dec_29_1240,Reversal,3.2.4,59.91019463187081,
18,exp1.png,exp2.png,2,0,2,0,0,18,18,18,,,,,,,,,,,,,,,,,,,,,,,,,False,58,59,True,exp2.png,exp1.png,trial_left_image,1,exp2.png,3,exp2.png,exp1.png,1,3,reversed,correct,0.15760690035450853,0,invalid_lose,379.50174400000833,33,,,,,,,,,,,s_032,3,2020_Dec_29_1240,Reversal,3.2.4,59.91019463187081,
19,exp3.png,exp4.png,2,0,2,0,0,19,19,19,,,,,,,,,,,,,,,,,,,,,,,,,False,59,60,False,exp3.png,exp4.png,trial_left_image,1,exp3.png,3,exp4.png,exp3.png,0,2,non-reversed,incorrect,0.9121275286571393,0,valid_lose,383.63405610003974,33,,,,,,,,,,,s_032,3,2020_Dec_29_1240,Reversal,3.2.4,59.91019463187081,
20,exp1.png,exp2.png,2,0,2,0,0,20,20,20,,,,,,,,,,,,,,,,,,,,,,,,,True,,,,,,,,,,,,,,,,,,,,,,,,,,,,,,,s_032,3,2020_Dec_29_1240,Reversal,3.2.4,59.91019463187081,
,,,2,0,2,0,,,,,0,0,0,0,,,,,,,,,,,,,,,,,,,,,,,,,,,,,,,,,,,,,,,,,,14,77,21,76,,,,,,,s_032,3,2020_Dec_29_1240,Reversal,3.2.4,59.91019463187081,
0,exp1.png,exp2.png,,,,,,,,,,,,,,,,,0,0,0,0,0,0,0,0,,,,,,,,,False,0,61,False,exp1.png,exp2.png,trial_right_image,-1,exp2.png,3,exp1.png,exp2.png,1,3,reversed,incorrect,0.1485195826336665,1,invalid_win,404.7432954000542,34,,,,,401.97663950000424,,,,,,s_032,3,2020_Dec_29_1240,Reversal,3.2.4,59.91019463187081,
1,exp3.png,exp4.png,,,,,,,,,,,,,,,,,0,0,0,0,0,1,1,1,,,,,,,,,False,1,62,False,exp3.png,exp4.png,trial_right_image,-1,exp4.png,3,exp4.png,exp3.png,1,1,non-reversed,correct,0.4722415855753639,1,valid_win,408.7906280000461,35,,,,,,,,,,,s_032,3,2020_Dec_29_1240,Reversal,3.2.4,59.91019463187081,
2,exp1.png,exp2.png,,,,,,,,,,,,,,,,,0,0,0,0,0,2,2,2,,,,,,,,,False,2,63,True,exp2.png,exp1.png,trial_left_image,1,exp2.png,3,exp1.png,exp2.png,1,3,reversed,incorrect,0.005325974303648007,1,invalid_win,412.92331680003554,36,,,,,,,,,,,s_032,3,2020_Dec_29_1240,Reversal,3.2.4,59.91019463187081,
3,exp3.png,exp4.png,,,,,,,,,,,,,,,,,0,0,0,0,0,3,3,3,,,,,,,,,False,3,64,False,exp3.png,exp4.png,trial_right_image,-1,exp4.png,3,exp4.png,exp3.png,1,1,non-reversed,correct,0.2077000739192303,0,invalid_lose,416.80616779997945,36,,,,,,,,,,,s_032,3,2020_Dec_29_1240,Reversal,3.2.4,59.91019463187081,
4,exp1.png,exp2.png,,,,,,,,,,,,,,,,,0,0,0,0,0,4,4,4,,,,,,,,,False,4,65,True,exp2.png,exp1.png,trial_left_image,1,exp2.png,3,exp1.png,exp2.png,1,3,reversed,incorrect,0.6752951718735163,0,valid_lose,421.0550201999722,36,,,,,,,,,,,s_032,3,2020_Dec_29_1240,Reversal,3.2.4,59.91019463187081,
5,exp3.png,exp4.png,,,,,,,,,,,,,,,,,0,0,0,0,0,5,5,5,,,,,,,,,False,5,66,True,exp4.png,exp3.png,trial_right_image,-1,exp3.png,3,exp4.png,exp3.png,0,2,non-reversed,incorrect,0.08607235380918499,1,invalid_win,425.10175380005967,37,,,,,,,,,,,s_032,3,2020_Dec_29_1240,Reversal,3.2.4,59.91019463187081,
6,exp1.png,exp2.png,,,,,,,,,,,,,,,,,0,0,0,0,0,6,6,6,,,,,,,,,False,6,67,True,exp2.png,exp1.png,trial_right_image,-1,exp1.png,3,exp1.png,exp2.png,0,4,reversed,correct,0.4181193211653046,1,valid_win,429.284165799967,38,,,,,,,,,,,s_032,3,2020_Dec_29_1240,Reversal,3.2.4,59.91019463187081,
7,exp3.png,exp4.png,,,,,,,,,,,,,,,,,0,0,0,0,0,7,7,7,,,,,,,,,False,7,68,True,exp4.png,exp3.png,trial_right_image,-1,exp3.png,3,exp4.png,exp3.png,0,2,non-reversed,incorrect,0.4212016007438891,0,valid_lose,433.3009632000467,38,,,,,,,,,,,s_032,3,2020_Dec_29_1240,Reversal,3.2.4,59.91019463187081,
8,exp1.png,exp2.png,,,,,,,,,,,,,,,,,0,0,0,0,0,8,8,8,,,,,,,,,False,8,69,True,exp2.png,exp1.png,trial_left_image,1,exp2.png,3,exp1.png,exp2.png,1,3,reversed,incorrect,0.6257512907272663,0,valid_lose,437.39908550004475,38,,,,,,,,,,,s_032,3,2020_Dec_29_1240,Reversal,3.2.4,59.91019463187081,
9,exp3.png,exp4.png,,,,,,,,,,,,,,,,,0,0,0,0,0,9,9,9,,,,,,,,,False,9,70,True,exp4.png,exp3.png,trial_right_image,-1,exp3.png,3,exp4.png,exp3.png,0,2,non-reversed,incorrect,0.10298895047367795,1,invalid_win,444.0465963999741,39,,,,,,,,,,,s_032,3,2020_Dec_29_1240,Reversal,3.2.4,59.91019463187081,
10,exp1.png,exp2.png,,,,,,,,,,,,,,,,,0,0,0,0,0,10,10,10,,,,,,,,,False,10,71,True,exp2.png,exp1.png,trial_right_image,-1,exp1.png,3,exp1.png,exp2.png,0,4,reversed,correct,0.18922084063787137,0,invalid_lose,448.1942752000177,39,,,,,,,,,,,s_032,3,2020_Dec_29_1240,Reversal,3.2.4,59.91019463187081,
11,exp3.png,exp4.png,,,,,,,,,,,,,,,,,0,0,0,0,0,11,11,11,,,,,,,,,False,11,72,False,exp3.png,exp4.png,trial_left_image,1,exp3.png,3,exp4.png,exp3.png,0,2,non-reversed,incorrect,0.8240888840806443,0,valid_lose,452.54387110006064,39,,,,,,,,,,,s_032,3,2020_Dec_29_1240,Reversal,3.2.4,59.91019463187081,
12,exp1.png,exp2.png,,,,,,,,,,,,,,,,,0,0,0,0,0,12,12,12,,,,,,,,,False,12,73,False,exp1.png,exp2.png,trial_right_image,-1,exp2.png,3,exp1.png,exp2.png,1,3,reversed,incorrect,0.7224778293423285,0,valid_lose,456.642709900043,39,,,,,,,,,,,s_032,3,2020_Dec_29_1240,Reversal,3.2.4,59.91019463187081,
13,exp3.png,exp4.png,,,,,,,,,,,,,,,,,0,0,0,0,0,13,13,13,,,,,,,,,False,13,74,False,exp3.png,exp4.png,trial_left_image,1,exp3.png,3,exp4.png,exp3.png,0,2,non-reversed,incorrect,0.9764989404575182,0,valid_lose,462.44129850005265,39,,,,,,,,,,,s_032,3,2020_Dec_29_1240,Reversal,3.2.4,59.91019463187081,
14,exp1.png,exp2.png,,,,,,,,,,,,,,,,,0,0,0,0,0,14,14,14,,,,,,,,,False,14,75,False,exp1.png,exp2.png,trial_left_image,1,exp1.png,3,exp1.png,exp2.png,0,4,reversed,correct,0.22577630059914422,0,invalid_lose,466.7722623000154,39,,,,,,,,,,,s_032,3,2020_Dec_29_1240,Reversal,3.2.4,59.91019463187081,
15,exp3.png,exp4.png,,,,,,,,,,,,,,,,,0,0,0,0,0,15,15,15,,,,,,,,,False,15,76,True,exp4.png,exp3.png,trial_right_image,-1,exp3.png,3,exp4.png,exp3.png,0,2,non-reversed,incorrect,0.5762523056750541,0,valid_lose,472.00362620002124,39,,,,,,,,,,,s_032,3,2020_Dec_29_1240,Reversal,3.2.4,59.91019463187081,
16,exp1.png,exp2.png,,,,,,,,,,,,,,,,,0,0,0,0,0,16,16,16,,,,,,,,,False,16,77,False,exp1.png,exp2.png,trial_right_image,-1,exp2.png,3,exp1.png,exp2.png,1,3,reversed,incorrect,0.3586230719311597,0,valid_lose,476.2356704999693,39,,,,,,,,,,,s_032,3,2020_Dec_29_1240,Reversal,3.2.4,59.91019463187081,
17,exp3.png,exp4.png,,,,,,,,,,,,,,,,,0,0,0,0,0,17,17,17,,,,,,,,,False,17,78,True,exp4.png,exp3.png,trial_left_image,1,exp4.png,3,exp4.png,exp3.png,1,1,non-reversed,correct,0.14546624717602497,0,invalid_lose,480.63523120002355,39,,,,,,,,,,,s_032,3,2020_Dec_29_1240,Reversal,3.2.4,59.91019463187081,
18,exp1.png,exp2.png,,,,,,,,,,,,,,,,,0,0,0,0,0,18,18,18,,,,,,,,,False,18,79,False,exp1.png,exp2.png,trial_right_image,-1,exp2.png,3,exp1.png,exp2.png,1,3,reversed,incorrect,0.8550127808735078,0,valid_lose,487.78216369997244,39,,,,,,,,,,,s_032,3,2020_Dec_29_1240,Reversal,3.2.4,59.91019463187081,
19,exp3.png,exp4.png,,,,,,,,,,,,,,,,,0,0,0,0,0,19,19,19,,,,,,,,,False,19,80,False,exp3.png,exp4.png,trial_left_image,1,exp3.png,3,exp4.png,exp3.png,0,2,non-reversed,incorrect,0.4333456771724221,0,valid_lose,492.4304526000051,39,,,,,,,,,,,s_032,3,2020_Dec_29_1240,Reversal,3.2.4,59.91019463187081,
20,exp1.png,exp2.png,,,,,,,,,,,,,,,,,0,0,0,0,0,20,20,20,,,,,,,,,True,,,,,,,,,,,,,,,,,,,,,,,,,,,,,,,s_032,3,2020_Dec_29_1240,Reversal,3.2.4,59.91019463187081,
,,,,,,,,,,,,,,,,,,,0,0,0,0,,,,,0,0,0,0,,,,,,,,,,,,,,,,,,,,,,,,,,7,10,16,12,,,,,,,s_032,3,2020_Dec_29_1240,Reversal,3.2.4,59.91019463187081,
0,exp1.png,exp2.png,,,,,,,,,,,,,,,,,1,0,1,0,0,0,0,0,,,,,,,,,False,20,81,False,exp1.png,exp2.png,trial_right_image,-1,exp2.png,3,exp1.png,exp2.png,1,3,reversed,incorrect,0.4085487121214949,0,valid_lose,508.8749643000774,39,,,,,,,,,,,s_032,3,2020_Dec_29_1240,Reversal,3.2.4,59.91019463187081,
1,exp3.png,exp4.png,,,,,,,,,,,,,,,,,1,0,1,0,0,1,1,1,,,,,,,,,False,21,82,False,exp3.png,exp4.png,trial_right_image,-1,exp4.png,3,exp4.png,exp3.png,1,1,non-reversed,correct,0.7598618069984036,1,valid_win,515.3231645000633,40,,,,,,,,,,,s_032,3,2020_Dec_29_1240,Reversal,3.2.4,59.91019463187081,
2,exp1.png,exp2.png,,,,,,,,,,,,,,,,,1,0,1,0,0,2,2,2,,,,,,,,,False,22,83,True,exp2.png,exp1.png,trial_right_image,-1,exp1.png,3,exp1.png,exp2.png,0,4,reversed,correct,0.29533558826104966,1,valid_win,520.4209216000745,41,,,,,,,,,,,s_032,3,2020_Dec_29_1240,Reversal,3.2.4,59.91019463187081,
3,exp3.png,exp4.png,,,,,,,,,,,,,,,,,1,0,1,0,0,3,3,3,,,,,,,,,False,23,84,False,exp3.png,exp4.png,trial_right_image,-1,exp4.png,3,exp4.png,exp3.png,1,1,non-reversed,correct,0.7835960135983292,1,valid_win,524.3863399999682,42,,,,,,,,,,,s_032,3,2020_Dec_29_1240,Reversal,3.2.4,59.91019463187081,
4,exp1.png,exp2.png,,,,,,,,,,,,,,,,,1,0,1,0,0,4,4,4,,,,,,,,,False,24,85,True,exp2.png,exp1.png,trial_right_image,-1,exp1.png,3,exp1.png,exp2.png,0,4,reversed,correct,0.13191523388362425,0,invalid_lose,528.4354067000095,42,,,,,,,,,,,s_032,3,2020_Dec_29_1240,Reversal,3.2.4,59.91019463187081,
5,exp3.png,exp4.png,,,,,,,,,,,,,,,,,1,0,1,0,0,5,5,5,,,,,,,,,False,25,86,True,exp4.png,exp3.png,trial_left_image,1,exp4.png,3,exp4.png,exp3.png,1,1,non-reversed,correct,0.995634782033115,1,valid_win,532.7001318000257,43,,,,,,,,,,,s_032,3,2020_Dec_29_1240,Reversal,3.2.4,59.91019463187081,
6,exp1.png,exp2.png,,,,,,,,,,,,,,,,,1,0,1,0,0,6,6,6,,,,,,,,,False,26,87,False,exp1.png,exp2.png,trial_right_image,-1,exp2.png,3,exp1.png,exp2.png,1,3,reversed,incorrect,0.6008047649950957,0,valid_lose,536.8659943999955,43,,,,,,,,,,,s_032,3,2020_Dec_29_1240,Reversal,3.2.4,59.91019463187081,
7,exp3.png,exp4.png,,,,,,,,,,,,,,,,,1,0,1,0,0,7,7,7,,,,,,,,,False,27,88,False,exp3.png,exp4.png,trial_right_image,-1,exp4.png,3,exp4.png,exp3.png,1,1,non-reversed,correct,0.13437100553923353,0,invalid_lose,540.9144606000045,43,,,,,,,,,,,s_032,3,2020_Dec_29_1240,Reversal,3.2.4,59.91019463187081,
8,exp1.png,exp2.png,,,,,,,,,,,,,,,,,1,0,1,0,0,8,8,8,,,,,,,,,False,28,89,True,exp2.png,exp1.png,trial_right_image,-1,exp1.png,3,exp1.png,exp2.png,0,4,reversed,correct,0.7739922127218901,1,valid_win,544.92810010002,44,,,,,,,,,,,s_032,3,2020_Dec_29_1240,Reversal,3.2.4,59.91019463187081,
9,exp3.png,exp4.png,,,,,,,,,,,,,,,,,1,0,1,0,0,9,9,9,,,,,,,,,False,29,90,True,exp4.png,exp3.png,trial_left_image,1,exp4.png,3,exp4.png,exp3.png,1,1,non-reversed,correct,0.32866368019011527,1,valid_win,549.1447879000334,45,,,,,,,,,,,s_032,3,2020_Dec_29_1240,Reversal,3.2.4,59.91019463187081,
10,exp1.png,exp2.png,,,,,,,,,,,,,,,,,1,0,1,0,0,10,10,10,,,,,,,,,False,30,91,True,exp2.png,exp1.png,trial_right_image,-1,exp1.png,3,exp1.png,exp2.png,0,4,reversed,correct,0.6219002826341702,1,valid_win,553.143184900051,46,,,,,,,,,,,s_032,3,2020_Dec_29_1240,Reversal,3.2.4,59.91019463187081,
11,exp3.png,exp4.png,,,,,,,,,,,,,,,,,1,0,1,0,0,11,11,11,,,,,,,,,False,31,92,True,exp4.png,exp3.png,trial_left_image,1,exp4.png,3,exp4.png,exp3.png,1,1,non-reversed,correct,0.039785721145118025,0,invalid_lose,557.3251662000548,46,,,,,,,,,,,s_032,3,2020_Dec_29_1240,Reversal,3.2.4,59.91019463187081,
12,exp1.png,exp2.png,,,,,,,,,,,,,,,,,1,0,1,0,0,12,12,12,,,,,,,,,False,32,93,False,exp1.png,exp2.png,trial_left_image,1,exp1.png,3,exp1.png,exp2.png,0,4,reversed,correct,0.3340864232483114,1,valid_win,561.8401604000246,47,,,,,,,,,,,s_032,3,2020_Dec_29_1240,Reversal,3.2.4,59.91019463187081,
13,exp3.png,exp4.png,,,,,,,,,,,,,,,,,1,0,1,0,0,13,13,13,,,,,,,,,False,33,94,False,exp3.png,exp4.png,trial_right_image,-1,exp4.png,3,exp4.png,exp3.png,1,1,non-reversed,correct,0.9621796178296973,1,valid_win,565.955425000051,48,,,,,,,,,,,s_032,3,2020_Dec_29_1240,Reversal,3.2.4,59.91019463187081,
14,exp1.png,exp2.png,,,,,,,,,,,,,,,,,1,0,1,0,0,14,14,14,,,,,,,,,False,34,95,False,exp1.png,exp2.png,trial_left_image,1,exp1.png,3,exp1.png,exp2.png,0,4,reversed,correct,0.5186741304445739,1,valid_win,570.0708181000082,49,,,,,,,,,,,s_032,3,2020_Dec_29_1240,Reversal,3.2.4,59.91019463187081,
15,exp3.png,exp4.png,,,,,,,,,,,,,,,,,1,0,1,0,0,15,15,15,,,,,,,,,False,35,96,False,exp3.png,exp4.png,trial_right_image,-1,exp4.png,3,exp4.png,exp3.png,1,1,non-reversed,correct,0.2349082863901344,0,invalid_lose,574.00285420008,49,,,,,,,,,,,s_032,3,2020_Dec_29_1240,Reversal,3.2.4,59.91019463187081,
16,exp1.png,exp2.png,,,,,,,,,,,,,,,,,1,0,1,0,0,16,16,16,,,,,,,,,False,36,97,True,exp2.png,exp1.png,trial_right_image,-1,exp1.png,3,exp1.png,exp2.png,0,4,reversed,correct,0.35786476328878936,1,valid_win,578.1514424000634,50,,,,,,,,,,,s_032,3,2020_Dec_29_1240,Reversal,3.2.4,59.91019463187081,
17,exp3.png,exp4.png,,,,,,,,,,,,,,,,,1,0,1,0,0,17,17,17,,,,,,,,,False,37,98,False,exp3.png,exp4.png,trial_right_image,-1,exp4.png,3,exp4.png,exp3.png,1,1,non-reversed,correct,0.5396343297493703,1,valid_win,582.6997437999817,51,,,,,,,,,,,s_032,3,2020_Dec_29_1240,Reversal,3.2.4,59.91019463187081,
18,exp1.png,exp2.png,,,,,,,,,,,,,,,,,1,0,1,0,0,18,18,18,,,,,,,,,False,38,99,True,exp2.png,exp1.png,trial_right_image,-1,exp1.png,3,exp1.png,exp2.png,0,4,reversed,correct,0.9167623266383464,1,valid_win,586.582049000077,52,,,,,,,,,,,s_032,3,2020_Dec_29_1240,Reversal,3.2.4,59.91019463187081,
19,exp3.png,exp4.png,,,,,,,,,,,,,,,,,1,0,1,0,0,19,19,19,,,,,,,,,False,39,100,True,exp4.png,exp3.png,trial_left_image,1,exp4.png,3,exp4.png,exp3.png,1,1,non-reversed,correct,0.38369630649559405,1,valid_win,590.8139415000333,53,,,,,,,,,,,s_032,3,2020_Dec_29_1240,Reversal,3.2.4,59.91019463187081,
20,exp1.png,exp2.png,,,,,,,,,,,,,,,,,1,0,1,0,0,20,20,20,,,,,,,,,True,,,,,,,,,,,,,,,,,,,,,,,,,,,,,,,s_032,3,2020_Dec_29_1240,Reversal,3.2.4,59.91019463187081,
,,,,,,,,,,,,,,,,,,,1,0,1,0,,,,,0,0,0,0,,,,,,,,,,,,,,,,,,,,,,,,,,78,17,50.0,50.0,,,,,,,s_032,3,2020_Dec_29_1240,Reversal,3.2.4,59.91019463187081,
0,exp1.png,exp2.png,,,,,,,,,,,,,,,,,2,0,2,0,0,0,0,0,,,,,,,,,False,40,101,True,exp2.png,exp1.png,trial_right_image,-1,exp1.png,3,exp1.png,exp2.png,0,4,reversed,correct,0.8696709759832955,1,valid_win,603.3265397000359,54,,,,,,,,,,,s_032,3,2020_Dec_29_1240,Reversal,3.2.4,59.91019463187081,
1,exp3.png,exp4.png,,,,,,,,,,,,,,,,,2,0,2,0,0,1,1,1,,,,,,,,,False,41,102,True,exp4.png,exp3.png,trial_right_image,-1,exp3.png,3,exp4.png,exp3.png,0,2,non-reversed,incorrect,0.5582201426893264,0,valid_lose,607.3251206000568,54,,,,,,,,,,,s_032,3,2020_Dec_29_1240,Reversal,3.2.4,59.91019463187081,
2,exp1.png,exp2.png,,,,,,,,,,,,,,,,,2,0,2,0,0,2,2,2,,,,,,,,,False,42,103,True,exp2.png,exp1.png,trial_right_image,-1,exp1.png,3,exp1.png,exp2.png,0,4,reversed,correct,0.35757053067914757,1,valid_win,611.3901309000794,55,,,,,,,,,,,s_032,3,2020_Dec_29_1240,Reversal,3.2.4,59.91019463187081,
3,exp3.png,exp4.png,,,,,,,,,,,,,,,,,2,0,2,0,0,3,3,3,,,,,,,,,False,43,104,True,exp4.png,exp3.png,trial_left_image,1,exp4.png,3,exp4.png,exp3.png,1,1,non-reversed,correct,0.7626935254306129,1,valid_win,615.6889908000594,56,,,,,,,,,,,s_032,3,2020_Dec_29_1240,Reversal,3.2.4,59.91019463187081,
4,exp1.png,exp2.png,,,,,,,,,,,,,,,,,2,0,2,0,0,4,4,4,,,,,,,,,False,44,105,False,exp1.png,exp2.png,trial_left_image,1,exp1.png,3,exp1.png,exp2.png,0,4,reversed,correct,0.17271275005035214,0,invalid_lose,620.1544068000512,56,,,,,,,,,,,s_032,3,2020_Dec_29_1240,Reversal,3.2.4,59.91019463187081,
5,exp3.png,exp4.png,,,,,,,,,,,,,,,,,2,0,2,0,0,5,5,5,,,,,,,,,False,45,106,True,exp4.png,exp3.png,trial_left_image,1,exp4.png,3,exp4.png,exp3.png,1,1,non-reversed,correct,0.10743674586185648,0,invalid_lose,624.3347753999988,56,,,,,,,,,,,s_032,3,2020_Dec_29_1240,Reversal,3.2.4,59.91019463187081,
6,exp1.png,exp2.png,,,,,,,,,,,,,,,,,2,0,2,0,0,6,6,6,,,,,,,,,False,46,107,True,exp2.png,exp1.png,trial_right_image,-1,exp1.png,3,exp1.png,exp2.png,0,4,reversed,correct,0.3532151729732692,1,valid_win,628.4500385000138,57,,,,,,,,,,,s_032,3,2020_Dec_29_1240,Reversal,3.2.4,59.91019463187081,
7,exp3.png,exp4.png,,,,,,,,,,,,,,,,,2,0,2,0,0,7,7,7,,,,,,,,,False,47,108,False,exp3.png,exp4.png,trial_right_image,-1,exp4.png,3,exp4.png,exp3.png,1,1,non-reversed,correct,0.3777559995484776,1,valid_win,632.5160478000762,58,,,,,,,,,,,s_032,3,2020_Dec_29_1240,Reversal,3.2.4,59.91019463187081,
8,exp1.png,exp2.png,,,,,,,,,,,,,,,,,2,0,2,0,0,8,8,8,,,,,,,,,False,48,109,False,exp1.png,exp2.png,trial_left_image,1,exp1.png,3,exp1.png,exp2.png,0,4,reversed,correct,0.5980572585689932,1,valid_win,636.7969701000256,59,,,,,,,,,,,s_032,3,2020_Dec_29_1240,Reversal,3.2.4,59.91019463187081,
9,exp3.png,exp4.png,,,,,,,,,,,,,,,,,2,0,2,0,0,9,9,9,,,,,,,,,False,49,110,False,exp3.png,exp4.png,trial_right_image,-1,exp4.png,3,exp4.png,exp3.png,1,1,non-reversed,correct,0.3408097345476321,1,valid_win,640.7621937000658,60,,,,,,,,,,,s_032,3,2020_Dec_29_1240,Reversal,3.2.4,59.91019463187081,
10,exp1.png,exp2.png,,,,,,,,,,,,,,,,,2,0,2,0,0,10,10,10,,,,,,,,,False,50,111,False,exp1.png,exp2.png,trial_left_image,1,exp1.png,3,exp1.png,exp2.png,0,4,reversed,correct,0.7885954711800938,1,valid_win,644.9792706000153,61,,,,,,,,,,,s_032,3,2020_Dec_29_1240,Reversal,3.2.4,59.91019463187081,
11,exp3.png,exp4.png,,,,,,,,,,,,,,,,,2,0,2,0,0,11,11,11,,,,,,,,,False,51,112,True,exp4.png,exp3.png,trial_left_image,1,exp4.png,3,exp4.png,exp3.png,1,1,non-reversed,correct,0.845285664506726,1,valid_win,649.2598172000144,62,,,,,,,,,,,s_032,3,2020_Dec_29_1240,Reversal,3.2.4,59.91019463187081,
12,exp1.png,exp2.png,,,,,,,,,,,,,,,,,2,0,2,0,0,12,12,12,,,,,,,,,False,52,113,False,exp1.png,exp2.png,trial_left_image,1,exp1.png,3,exp1.png,exp2.png,0,4,reversed,correct,0.6577436966372578,1,valid_win,653.8925340999849,63,,,,,,,,,,,s_032,3,2020_Dec_29_1240,Reversal,3.2.4,59.91019463187081,
13,exp3.png,exp4.png,,,,,,,,,,,,,,,,,2,0,2,0,0,13,13,13,,,,,,,,,False,53,114,False,exp3.png,exp4.png,trial_right_image,-1,exp4.png,3,exp4.png,exp3.png,1,1,non-reversed,correct,0.07935213054017876,0,invalid_lose,659.628115999978,63,,,,,,,,,,,s_032,3,2020_Dec_29_1240,Reversal,3.2.4,59.91019463187081,
14,exp1.png,exp2.png,,,,,,,,,,,,,,,,,2,0,2,0,0,14,14,14,,,,,,,,,False,54,115,False,exp1.png,exp2.png,trial_left_image,1,exp1.png,3,exp1.png,exp2.png,0,4,reversed,correct,0.8650572369834294,1,valid_win,664.6725095000584,64,,,,,,,,,,,s_032,3,2020_Dec_29_1240,Reversal,3.2.4,59.91019463187081,
15,exp3.png,exp4.png,,,,,,,,,,,,,,,,,2,0,2,0,0,15,15,15,,,,,,,,,False,55,116,False,exp3.png,exp4.png,trial_right_image,-1,exp4.png,3,exp4.png,exp3.png,1,1,non-reversed,correct,0.31260326504546687,1,valid_win,668.6374396000756,65,,,,,,,,,,,s_032,3,2020_Dec_29_1240,Reversal,3.2.4,59.91019463187081,
16,exp1.png,exp2.png,,,,,,,,,,,,,,,,,2,0,2,0,0,16,16,16,,,,,,,,,False,56,117,True,exp2.png,exp1.png,trial_right_image,-1,exp1.png,3,exp1.png,exp2.png,0,4,reversed,correct,0.8103602916135993,1,valid_win,672.6199616000522,66,,,,,,,,,,,s_032,3,2020_Dec_29_1240,Reversal,3.2.4,59.91019463187081,
17,exp3.png,exp4.png,,,,,,,,,,,,,,,,,2,0,2,0,0,17,17,17,,,,,,,,,False,57,118,False,exp3.png,exp4.png,trial_right_image,-1,exp4.png,3,exp4.png,exp3.png,1,1,non-reversed,correct,0.255009933822518,1,valid_win,676.4849651000695,67,,,,,,,,,,,s_032,3,2020_Dec_29_1240,Reversal,3.2.4,59.91019463187081,
18,exp1.png,exp2.png,,,,,,,,,,,,,,,,,2,0,2,0,0,18,18,18,,,,,,,,,False,58,119,True,exp2.png,exp1.png,trial_right_image,-1,exp1.png,3,exp1.png,exp2.png,0,4,reversed,correct,0.2706291264820889,1,valid_win,680.3504515000386,68,,,,,,,,,,,s_032,3,2020_Dec_29_1240,Reversal,3.2.4,59.91019463187081,
19,exp3.png,exp4.png,,,,,,,,,,,,,,,,,2,0,2,0,0,19,19,19,,,,,,,,,False,59,120,True,exp4.png,exp3.png,trial_right_image,-1,exp3.png,3,exp4.png,exp3.png,0,2,non-reversed,incorrect,0.9079558615096431,0,valid_lose,684.0758201000281,68,,,,,,,,,,,s_032,3,2020_Dec_29_1240,Reversal,3.2.4,59.91019463187081,
20,exp1.png,exp2.png,,,,,,,,,,,,,,,,,2,0,2,0,0,20,20,20,,,,,,,,,True,,,,,,,,,,,,,,,,,,,,,,,,,,,,,,,s_032,3,2020_Dec_29_1240,Reversal,3.2.4,59.91019463187081,
,,,,,,,,,,,,,,,,,,,2,0,2,0,,,,,0,0,0,0,,,,,,,,,,,,,,,,,,,,,,,,,,92,8,37,69,,,,,,,s_032,3,2020_Dec_29_1240,Reversal,3.2.4,59.91019463187081,
,,,,,,,,,,,,,,,,,,,,,,,,,,,,,,,,,,,,,,,,,,,,,,,,,,,,,,,68,,,,,,80,38,42,295.5826147000771,0,,,,,,,
