trial_index,trial_image1_file,trial_image2_file,learning_outer_loop.thisRepN,learning_outer_loop.thisTrialN,learning_outer_loop.thisN,learning_outer_loop.thisIndex,learning_inner_loop.thisRepN,learning_inner_loop.thisTrialN,learning_inner_loop.thisN,learning_inner_loop.thisIndex,learning_estimation_outer_loop.thisRepN,learning_estimation_outer_loop.thisTrialN,learning_estimation_outer_loop.thisN,learning_estimation_outer_loop.thisIndex,learning_estimation_inner_loop.thisRepN,learning_estimation_inner_loop.thisTrialN,learning_estimation_inner_loop.thisN,learning_estimation_inner_loop.thisIndex,reversal_outer_loop.thisRepN,reversal_outer_loop.thisTrialN,reversal_outer_loop.thisN,reversal_outer_loop.thisIndex,reversal_inner_loop.thisRepN,reversal_inner_loop.thisTrialN,reversal_inner_loop.thisN,reversal_inner_loop.thisIndex,reversal_estimation_outer_loop.thisRepN,reversal_estimation_outer_loop.thisTrialN,reversal_estimation_outer_loop.thisN,reversal_estimation_outer_loop.thisIndex,reversal_estimation_inner_loop.thisRepN,reversal_estimation_inner_loop.thisTrialN,reversal_estimation_inner_loop.thisN,reversal_estimation_inner_loop.thisIndex,skipped,total_trial_counter,trial_num,left_right_flip,left_image_file,right_image_file,clicked_stimulus_side,side,clicked_stimulus,version,high_prob_image_file,low_prob_image_file,choice_a,choice_b,pair_type,correct,trial_feedback_random,reward,trial_type,overall_time_after_trial,score,estimation_exp1.png,estimation_exp2.png,estimation_exp3.png,estimation_exp4.png,total_learning_time,total_correct,learning_correct,reversal_correct,total_reversal_time,extra_block,participant,ver,date,expName,psychopyVersion,frameRate,
0,exp1.png,exp2.png,0,0,0,0,0,0,0,0,,,,,,,,,,,,,,,,,,,,,,,,,False,0,1,True,exp2.png,exp1.png,trial_right_image,-1,exp1.png,3,exp2.png,exp1.png,0,4,reversed,incorrect,0.40668894310821024,0,valid_lose,4.461583199998131,0,,,,,,,,,,,s_040,3,2021_Jan_11_1657,Reversal,3.2.4,60.009349456230076,
1,exp3.png,exp4.png,0,0,0,0,0,1,1,1,,,,,,,,,,,,,,,,,,,,,,,,,False,1,2,False,exp3.png,exp4.png,trial_left_image,1,exp3.png,3,exp4.png,exp3.png,0,2,non-reversed,incorrect,0.10425164183072488,1,invalid_win,10.75937200000044,1,,,,,,,,,,,s_040,3,2021_Jan_11_1657,Reversal,3.2.4,60.009349456230076,
2,exp1.png,exp2.png,0,0,0,0,0,2,2,2,,,,,,,,,,,,,,,,,,,,,,,,,False,2,3,False,exp1.png,exp2.png,trial_left_image,1,exp1.png,3,exp2.png,exp1.png,0,4,reversed,incorrect,0.7983294969265442,0,valid_lose,16.491530299987062,1,,,,,,,,,,,s_040,3,2021_Jan_11_1657,Reversal,3.2.4,60.009349456230076,
3,exp3.png,exp4.png,0,0,0,0,0,3,3,3,,,,,,,,,,,,,,,,,,,,,,,,,False,3,4,True,exp4.png,exp3.png,trial_left_image,1,exp4.png,3,exp4.png,exp3.png,1,1,non-reversed,correct,0.836682143691577,1,valid_win,21.156358399995952,2,,,,,,,,,,,s_040,3,2021_Jan_11_1657,Reversal,3.2.4,60.009349456230076,
4,exp1.png,exp2.png,0,0,0,0,0,4,4,4,,,,,,,,,,,,,,,,,,,,,,,,,False,4,5,False,exp1.png,exp2.png,trial_right_image,-1,exp2.png,3,exp2.png,exp1.png,1,3,reversed,correct,0.8940504899033664,1,valid_win,27.703736899988144,3,,,,,,,,,,,s_040,3,2021_Jan_11_1657,Reversal,3.2.4,60.009349456230076,
5,exp3.png,exp4.png,0,0,0,0,0,5,5,5,,,,,,,,,,,,,,,,,,,,,,,,,False,5,6,False,exp3.png,exp4.png,trial_left_image,1,exp3.png,3,exp4.png,exp3.png,0,2,non-reversed,incorrect,0.3246568565122011,0,valid_lose,32.31900809999206,3,,,,,,,,,,,s_040,3,2021_Jan_11_1657,Reversal,3.2.4,60.009349456230076,
6,exp1.png,exp2.png,0,0,0,0,0,6,6,6,,,,,,,,,,,,,,,,,,,,,,,,,False,6,7,False,exp1.png,exp2.png,trial_right_image,-1,exp2.png,3,exp2.png,exp1.png,1,3,reversed,correct,0.5718919226525294,1,valid_win,36.35075990000041,4,,,,,,,,,,,s_040,3,2021_Jan_11_1657,Reversal,3.2.4,60.009349456230076,
7,exp3.png,exp4.png,0,0,0,0,0,7,7,7,,,,,,,,,,,,,,,,,,,,,,,,,False,7,8,True,exp4.png,exp3.png,trial_right_image,-1,exp3.png,3,exp4.png,exp3.png,0,2,non-reversed,incorrect,0.1433171402730964,1,invalid_win,40.8498139000003,5,,,,,,,,,,,s_040,3,2021_Jan_11_1657,Reversal,3.2.4,60.009349456230076,
8,exp1.png,exp2.png,0,0,0,0,0,8,8,8,,,,,,,,,,,,,,,,,,,,,,,,,False,8,9,True,exp2.png,exp1.png,trial_left_image,1,exp2.png,3,exp2.png,exp1.png,1,3,reversed,correct,0.20008941160038185,0,invalid_lose,45.08126769999217,5,,,,,,,,,,,s_040,3,2021_Jan_11_1657,Reversal,3.2.4,60.009349456230076,
9,exp3.png,exp4.png,0,0,0,0,0,9,9,9,,,,,,,,,,,,,,,,,,,,,,,,,False,9,10,False,exp3.png,exp4.png,trial_right_image,-1,exp4.png,3,exp4.png,exp3.png,1,1,non-reversed,correct,0.540349073785679,1,valid_win,48.979800599990995,6,,,,,,,,,,,s_040,3,2021_Jan_11_1657,Reversal,3.2.4,60.009349456230076,
10,exp1.png,exp2.png,0,0,0,0,0,10,10,10,,,,,,,,,,,,,,,,,,,,,,,,,False,10,11,False,exp1.png,exp2.png,trial_right_image,-1,exp2.png,3,exp2.png,exp1.png,1,3,reversed,correct,0.7035034916677113,1,valid_win,52.87908559999778,7,,,,,,,,,,,s_040,3,2021_Jan_11_1657,Reversal,3.2.4,60.009349456230076,
11,exp3.png,exp4.png,0,0,0,0,0,11,11,11,,,,,,,,,,,,,,,,,,,,,,,,,False,11,12,False,exp3.png,exp4.png,trial_right_image,-1,exp4.png,3,exp4.png,exp3.png,1,1,non-reversed,correct,0.0718913529909675,0,invalid_lose,56.860741399999824,7,,,,,,,,,,,s_040,3,2021_Jan_11_1657,Reversal,3.2.4,60.009349456230076,
12,exp1.png,exp2.png,0,0,0,0,0,12,12,12,,,,,,,,,,,,,,,,,,,,,,,,,False,12,13,False,exp1.png,exp2.png,trial_right_image,-1,exp2.png,3,exp2.png,exp1.png,1,3,reversed,correct,0.5041986203381107,1,valid_win,62.35904599999776,8,,,,,,,,,,,s_040,3,2021_Jan_11_1657,Reversal,3.2.4,60.009349456230076,
13,exp3.png,exp4.png,0,0,0,0,0,13,13,13,,,,,,,,,,,,,,,,,,,,,,,,,False,13,14,True,exp4.png,exp3.png,trial_right_image,-1,exp3.png,3,exp4.png,exp3.png,0,2,non-reversed,incorrect,0.8468843606680911,0,valid_lose,66.35734639999282,8,,,,,,,,,,,s_040,3,2021_Jan_11_1657,Reversal,3.2.4,60.009349456230076,
14,exp1.png,exp2.png,0,0,0,0,0,14,14,14,,,,,,,,,,,,,,,,,,,,,,,,,False,14,15,False,exp1.png,exp2.png,trial_right_image,-1,exp2.png,3,exp2.png,exp1.png,1,3,reversed,correct,0.1613912262564643,0,invalid_lose,70.23972169999615,8,,,,,,,,,,,s_040,3,2021_Jan_11_1657,Reversal,3.2.4,60.009349456230076,
15,exp3.png,exp4.png,0,0,0,0,0,15,15,15,,,,,,,,,,,,,,,,,,,,,,,,,False,15,16,True,exp4.png,exp3.png,trial_right_image,-1,exp3.png,3,exp4.png,exp3.png,0,2,non-reversed,incorrect,0.4531666006013705,0,valid_lose,74.12137369999255,8,,,,,,,,,,,s_040,3,2021_Jan_11_1657,Reversal,3.2.4,60.009349456230076,
16,exp1.png,exp2.png,0,0,0,0,0,16,16,16,,,,,,,,,,,,,,,,,,,,,,,,,False,16,17,True,exp2.png,exp1.png,trial_right_image,-1,exp1.png,3,exp2.png,exp1.png,0,4,reversed,incorrect,0.6992935107248179,0,valid_lose,78.00340180000057,8,,,,,,,,,,,s_040,3,2021_Jan_11_1657,Reversal,3.2.4,60.009349456230076,
17,exp3.png,exp4.png,0,0,0,0,0,17,17,17,,,,,,,,,,,,,,,,,,,,,,,,,False,17,18,True,exp4.png,exp3.png,trial_left_image,1,exp4.png,3,exp4.png,exp3.png,1,1,non-reversed,correct,0.7358287244653019,1,valid_win,81.81870469999558,9,,,,,,,,,,,s_040,3,2021_Jan_11_1657,Reversal,3.2.4,60.009349456230076,
18,exp1.png,exp2.png,0,0,0,0,0,18,18,18,,,,,,,,,,,,,,,,,,,,,,,,,False,18,19,True,exp2.png,exp1.png,trial_left_image,1,exp2.png,3,exp2.png,exp1.png,1,3,reversed,correct,0.7213845445965621,1,valid_win,85.71723129999009,10,,,,,,,,,,,s_040,3,2021_Jan_11_1657,Reversal,3.2.4,60.009349456230076,
19,exp3.png,exp4.png,0,0,0,0,0,19,19,19,,,,,,,,,,,,,,,,,,,,,,,,,False,19,20,True,exp4.png,exp3.png,trial_left_image,1,exp4.png,3,exp4.png,exp3.png,1,1,non-reversed,correct,0.958721801595516,1,valid_win,89.69958659999247,11,,,,,,,,,,,s_040,3,2021_Jan_11_1657,Reversal,3.2.4,60.009349456230076,
20,exp1.png,exp2.png,0,0,0,0,0,20,20,20,,,,,,,,,,,,,,,,,,,,,,,,,True,,,,,,,,,,,,,,,,,,,,,,,,,,,,,,,s_040,3,2021_Jan_11_1657,Reversal,3.2.4,60.009349456230076,
,,,0,0,0,0,,,,,0,0,0,0,,,,,,,,,,,,,,,,,,,,,,,,,,,,,,,,,,,,,,,,,,49,25,50.0,6,,,,,,,s_040,3,2021_Jan_11_1657,Reversal,3.2.4,60.009349456230076,
0,exp1.png,exp2.png,1,0,1,0,0,0,0,0,,,,,,,,,,,,,,,,,,,,,,,,,False,20,21,False,exp1.png,exp2.png,trial_right_image,-1,exp2.png,3,exp2.png,exp1.png,1,3,reversed,correct,0.5158292406927003,1,valid_win,144.03119029999652,12,,,,,,,,,,,s_040,3,2021_Jan_11_1657,Reversal,3.2.4,60.009349456230076,
1,exp3.png,exp4.png,1,0,1,0,0,1,1,1,,,,,,,,,,,,,,,,,,,,,,,,,False,21,22,False,exp3.png,exp4.png,trial_right_image,-1,exp4.png,3,exp4.png,exp3.png,1,1,non-reversed,correct,0.11344093669809696,0,invalid_lose,151.4780960999924,12,,,,,,,,,,,s_040,3,2021_Jan_11_1657,Reversal,3.2.4,60.009349456230076,
2,exp1.png,exp2.png,1,0,1,0,0,2,2,2,,,,,,,,,,,,,,,,,,,,,,,,,False,22,23,True,exp2.png,exp1.png,trial_left_image,1,exp2.png,3,exp2.png,exp1.png,1,3,reversed,correct,0.8598872466722611,1,valid_win,156.45981219998794,13,,,,,,,,,,,s_040,3,2021_Jan_11_1657,Reversal,3.2.4,60.009349456230076,
3,exp3.png,exp4.png,1,0,1,0,0,3,3,3,,,,,,,,,,,,,,,,,,,,,,,,,False,23,24,True,exp4.png,exp3.png,trial_left_image,1,exp4.png,3,exp4.png,exp3.png,1,1,non-reversed,correct,0.4767543088222187,1,valid_win,164.0073534999974,14,,,,,,,,,,,s_040,3,2021_Jan_11_1657,Reversal,3.2.4,60.009349456230076,
4,exp1.png,exp2.png,1,0,1,0,0,4,4,4,,,,,,,,,,,,,,,,,,,,,,,,,False,24,25,True,exp2.png,exp1.png,trial_left_image,1,exp2.png,3,exp2.png,exp1.png,1,3,reversed,correct,0.938081173680824,1,valid_win,169.27246189999278,15,,,,,,,,,,,s_040,3,2021_Jan_11_1657,Reversal,3.2.4,60.009349456230076,
5,exp3.png,exp4.png,1,0,1,0,0,5,5,5,,,,,,,,,,,,,,,,,,,,,,,,,False,25,26,False,exp3.png,exp4.png,trial_right_image,-1,exp4.png,3,exp4.png,exp3.png,1,1,non-reversed,correct,0.025835575855634785,0,invalid_lose,174.9372527999949,15,,,,,,,,,,,s_040,3,2021_Jan_11_1657,Reversal,3.2.4,60.009349456230076,
6,exp1.png,exp2.png,1,0,1,0,0,6,6,6,,,,,,,,,,,,,,,,,,,,,,,,,False,26,27,False,exp1.png,exp2.png,trial_right_image,-1,exp2.png,3,exp2.png,exp1.png,1,3,reversed,correct,0.5153164120366303,1,valid_win,179.90218079999613,16,,,,,,,,,,,s_040,3,2021_Jan_11_1657,Reversal,3.2.4,60.009349456230076,
7,exp3.png,exp4.png,1,0,1,0,0,7,7,7,,,,,,,,,,,,,,,,,,,,,,,,,False,27,28,True,exp4.png,exp3.png,trial_left_image,1,exp4.png,3,exp4.png,exp3.png,1,1,non-reversed,correct,0.2806400584141747,1,valid_win,185.21757259999868,17,,,,,,,,,,,s_040,3,2021_Jan_11_1657,Reversal,3.2.4,60.009349456230076,
8,exp1.png,exp2.png,1,0,1,0,0,8,8,8,,,,,,,,,,,,,,,,,,,,,,,,,False,28,29,False,exp1.png,exp2.png,trial_right_image,-1,exp2.png,3,exp2.png,exp1.png,1,3,reversed,correct,0.5252531061405455,1,valid_win,189.7987710999878,18,,,,,,,,,,,s_040,3,2021_Jan_11_1657,Reversal,3.2.4,60.009349456230076,
9,exp3.png,exp4.png,1,0,1,0,0,9,9,9,,,,,,,,,,,,,,,,,,,,,,,,,False,29,30,False,exp3.png,exp4.png,trial_right_image,-1,exp4.png,3,exp4.png,exp3.png,1,1,non-reversed,correct,0.15803695066034162,0,invalid_lose,194.19752429999062,18,,,,,,,,,,,s_040,3,2021_Jan_11_1657,Reversal,3.2.4,60.009349456230076,
10,exp1.png,exp2.png,1,0,1,0,0,10,10,10,,,,,,,,,,,,,,,,,,,,,,,,,False,30,31,True,exp2.png,exp1.png,trial_left_image,1,exp2.png,3,exp2.png,exp1.png,1,3,reversed,correct,0.3179107826113474,1,valid_win,198.52978079998866,19,,,,,,,,,,,s_040,3,2021_Jan_11_1657,Reversal,3.2.4,60.009349456230076,
11,exp3.png,exp4.png,1,0,1,0,0,11,11,11,,,,,,,,,,,,,,,,,,,,,,,,,False,31,32,True,exp4.png,exp3.png,trial_right_image,-1,exp3.png,3,exp4.png,exp3.png,0,2,non-reversed,incorrect,0.8472903826540527,0,valid_lose,206.8766237999953,19,,,,,,,,,,,s_040,3,2021_Jan_11_1657,Reversal,3.2.4,60.009349456230076,
12,exp1.png,exp2.png,1,0,1,0,0,12,12,12,,,,,,,,,,,,,,,,,,,,,,,,,False,32,33,False,exp1.png,exp2.png,trial_right_image,-1,exp2.png,3,exp2.png,exp1.png,1,3,reversed,correct,0.29770775019668827,1,valid_win,211.80805059999693,20,,,,,,,,,,,s_040,3,2021_Jan_11_1657,Reversal,3.2.4,60.009349456230076,
13,exp3.png,exp4.png,1,0,1,0,0,13,13,13,,,,,,,,,,,,,,,,,,,,,,,,,False,33,34,False,exp3.png,exp4.png,trial_right_image,-1,exp4.png,3,exp4.png,exp3.png,1,1,non-reversed,correct,0.6672098561814668,1,valid_win,218.4395366999961,21,,,,,,,,,,,s_040,3,2021_Jan_11_1657,Reversal,3.2.4,60.009349456230076,
14,exp1.png,exp2.png,1,0,1,0,0,14,14,14,,,,,,,,,,,,,,,,,,,,,,,,,False,34,35,True,exp2.png,exp1.png,trial_left_image,1,exp2.png,3,exp2.png,exp1.png,1,3,reversed,correct,0.6106761185246912,1,valid_win,222.78776690000086,22,,,,,,,,,,,s_040,3,2021_Jan_11_1657,Reversal,3.2.4,60.009349456230076,
15,exp3.png,exp4.png,1,0,1,0,0,15,15,15,,,,,,,,,,,,,,,,,,,,,,,,,False,35,36,True,exp4.png,exp3.png,trial_left_image,1,exp4.png,3,exp4.png,exp3.png,1,1,non-reversed,correct,0.10446668931651681,0,invalid_lose,228.5857263999933,22,,,,,,,,,,,s_040,3,2021_Jan_11_1657,Reversal,3.2.4,60.009349456230076,
16,exp1.png,exp2.png,1,0,1,0,0,16,16,16,,,,,,,,,,,,,,,,,,,,,,,,,False,36,37,False,exp1.png,exp2.png,trial_right_image,-1,exp2.png,3,exp2.png,exp1.png,1,3,reversed,correct,0.5206161817426884,1,valid_win,232.80124219998834,23,,,,,,,,,,,s_040,3,2021_Jan_11_1657,Reversal,3.2.4,60.009349456230076,
17,exp3.png,exp4.png,1,0,1,0,0,17,17,17,,,,,,,,,,,,,,,,,,,,,,,,,False,37,38,True,exp4.png,exp3.png,trial_right_image,-1,exp3.png,3,exp4.png,exp3.png,0,2,non-reversed,incorrect,0.7648256780146749,0,valid_lose,236.88266499999736,23,,,,,,,,,,,s_040,3,2021_Jan_11_1657,Reversal,3.2.4,60.009349456230076,
18,exp1.png,exp2.png,1,0,1,0,0,18,18,18,,,,,,,,,,,,,,,,,,,,,,,,,False,38,39,True,exp2.png,exp1.png,trial_left_image,1,exp2.png,3,exp2.png,exp1.png,1,3,reversed,correct,0.8919076311110434,1,valid_win,240.98148209998908,24,,,,,,,,,,,s_040,3,2021_Jan_11_1657,Reversal,3.2.4,60.009349456230076,
19,exp3.png,exp4.png,1,0,1,0,0,19,19,19,,,,,,,,,,,,,,,,,,,,,,,,,False,39,40,False,exp3.png,exp4.png,trial_right_image,-1,exp4.png,3,exp4.png,exp3.png,1,1,non-reversed,correct,0.7051486813344657,1,valid_win,245.24690099999134,25,,,,,,,,,,,s_040,3,2021_Jan_11_1657,Reversal,3.2.4,60.009349456230076,
20,exp1.png,exp2.png,1,0,1,0,0,20,20,20,,,,,,,,,,,,,,,,,,,,,,,,,True,,,,,,,,,,,,,,,,,,,,,,,,,,,,,,,s_040,3,2021_Jan_11_1657,Reversal,3.2.4,60.009349456230076,
,,,1,0,1,0,,,,,0,0,0,0,,,,,,,,,,,,,,,,,,,,,,,,,,,,,,,,,,,,,,,,,,100,0,50.0,50.0,,,,,,,s_040,3,2021_Jan_11_1657,Reversal,3.2.4,60.009349456230076,
0,exp1.png,exp2.png,2,0,2,0,0,0,0,0,,,,,,,,,,,,,,,,,,,,,,,,,False,40,41,True,exp2.png,exp1.png,trial_left_image,1,exp2.png,3,exp2.png,exp1.png,1,3,reversed,correct,0.8393874615991257,1,valid_win,267.6711270999949,26,,,,,,,,,,,s_040,3,2021_Jan_11_1657,Reversal,3.2.4,60.009349456230076,
1,exp3.png,exp4.png,2,0,2,0,0,1,1,1,,,,,,,,,,,,,,,,,,,,,,,,,False,41,42,False,exp3.png,exp4.png,trial_left_image,1,exp3.png,3,exp4.png,exp3.png,0,2,non-reversed,incorrect,0.847063317159097,0,valid_lose,272.63620919999084,26,,,,,,,,,,,s_040,3,2021_Jan_11_1657,Reversal,3.2.4,60.009349456230076,
2,exp1.png,exp2.png,2,0,2,0,0,2,2,2,,,,,,,,,,,,,,,,,,,,,,,,,False,42,43,False,exp1.png,exp2.png,trial_right_image,-1,exp2.png,3,exp2.png,exp1.png,1,3,reversed,correct,0.7931490847999534,1,valid_win,276.66955989999406,27,,,,,,,,,,,s_040,3,2021_Jan_11_1657,Reversal,3.2.4,60.009349456230076,
3,exp3.png,exp4.png,2,0,2,0,0,3,3,3,,,,,,,,,,,,,,,,,,,,,,,,,False,43,44,True,exp4.png,exp3.png,trial_left_image,1,exp4.png,3,exp4.png,exp3.png,1,1,non-reversed,correct,0.4929039559723736,1,valid_win,280.8838095999963,28,,,,,,,,,,,s_040,3,2021_Jan_11_1657,Reversal,3.2.4,60.009349456230076,
4,exp1.png,exp2.png,2,0,2,0,0,4,4,4,,,,,,,,,,,,,,,,,,,,,,,,,False,44,45,False,exp1.png,exp2.png,trial_right_image,-1,exp2.png,3,exp2.png,exp1.png,1,3,reversed,correct,0.34138969648352513,1,valid_win,285.4656307999976,29,,,,,,,,,,,s_040,3,2021_Jan_11_1657,Reversal,3.2.4,60.009349456230076,
5,exp3.png,exp4.png,2,0,2,0,0,5,5,5,,,,,,,,,,,,,,,,,,,,,,,,,False,45,46,True,exp4.png,exp3.png,trial_right_image,-1,exp3.png,3,exp4.png,exp3.png,0,2,non-reversed,incorrect,0.9425801917769644,0,valid_lose,291.8960950999899,29,,,,,,,,,,,s_040,3,2021_Jan_11_1657,Reversal,3.2.4,60.009349456230076,
6,exp1.png,exp2.png,2,0,2,0,0,6,6,6,,,,,,,,,,,,,,,,,,,,,,,,,False,46,47,True,exp2.png,exp1.png,trial_right_image,-1,exp1.png,3,exp2.png,exp1.png,0,4,reversed,incorrect,0.9159503872702809,0,valid_lose,296.3464651999966,29,,,,,,,,,,,s_040,3,2021_Jan_11_1657,Reversal,3.2.4,60.009349456230076,
7,exp3.png,exp4.png,2,0,2,0,0,7,7,7,,,,,,,,,,,,,,,,,,,,,,,,,False,47,48,False,exp3.png,exp4.png,trial_right_image,-1,exp4.png,3,exp4.png,exp3.png,1,1,non-reversed,correct,0.24077711001526936,0,invalid_lose,301.6612049999967,29,,,,,,,,,,,s_040,3,2021_Jan_11_1657,Reversal,3.2.4,60.009349456230076,
8,exp1.png,exp2.png,2,0,2,0,0,8,8,8,,,,,,,,,,,,,,,,,,,,,,,,,False,48,49,False,exp1.png,exp2.png,trial_right_image,-1,exp2.png,3,exp2.png,exp1.png,1,3,reversed,correct,0.6937146943967321,1,valid_win,306.9259327999898,30,,,,,,,,,,,s_040,3,2021_Jan_11_1657,Reversal,3.2.4,60.009349456230076,
9,exp3.png,exp4.png,2,0,2,0,0,9,9,9,,,,,,,,,,,,,,,,,,,,,,,,,False,49,50,False,exp3.png,exp4.png,trial_right_image,-1,exp4.png,3,exp4.png,exp3.png,1,1,non-reversed,correct,0.7455942836347428,1,valid_win,311.10759739999776,31,,,,,,,,,,,s_040,3,2021_Jan_11_1657,Reversal,3.2.4,60.009349456230076,
10,exp1.png,exp2.png,2,0,2,0,0,10,10,10,,,,,,,,,,,,,,,,,,,,,,,,,False,50,51,True,exp2.png,exp1.png,trial_left_image,1,exp2.png,3,exp2.png,exp1.png,1,3,reversed,correct,0.7409544358710933,1,valid_win,315.62245369999437,32,,,,,,,,,,,s_040,3,2021_Jan_11_1657,Reversal,3.2.4,60.009349456230076,
11,exp3.png,exp4.png,2,0,2,0,0,11,11,11,,,,,,,,,,,,,,,,,,,,,,,,,False,51,52,True,exp4.png,exp3.png,trial_right_image,-1,exp3.png,3,exp4.png,exp3.png,0,2,non-reversed,incorrect,0.9390560449931916,0,valid_lose,319.7383947999915,32,,,,,,,,,,,s_040,3,2021_Jan_11_1657,Reversal,3.2.4,60.009349456230076,
12,exp1.png,exp2.png,2,0,2,0,0,12,12,12,,,,,,,,,,,,,,,,,,,,,,,,,False,52,53,False,exp1.png,exp2.png,trial_right_image,-1,exp2.png,3,exp2.png,exp1.png,1,3,reversed,correct,0.19302204520568722,0,invalid_lose,327.0025706000015,32,,,,,,,,,,,s_040,3,2021_Jan_11_1657,Reversal,3.2.4,60.009349456230076,
13,exp3.png,exp4.png,2,0,2,0,0,13,13,13,,,,,,,,,,,,,,,,,,,,,,,,,False,53,54,False,exp3.png,exp4.png,trial_right_image,-1,exp4.png,3,exp4.png,exp3.png,1,1,non-reversed,correct,0.9545963750024132,1,valid_win,335.65029140000115,33,,,,,,,,,,,s_040,3,2021_Jan_11_1657,Reversal,3.2.4,60.009349456230076,
14,exp1.png,exp2.png,2,0,2,0,0,14,14,14,,,,,,,,,,,,,,,,,,,,,,,,,False,54,55,True,exp2.png,exp1.png,trial_left_image,1,exp2.png,3,exp2.png,exp1.png,1,3,reversed,correct,0.3190912057518751,1,valid_win,340.8972572999919,34,,,,,,,,,,,s_040,3,2021_Jan_11_1657,Reversal,3.2.4,60.009349456230076,
15,exp3.png,exp4.png,2,0,2,0,0,15,15,15,,,,,,,,,,,,,,,,,,,,,,,,,False,55,56,False,exp3.png,exp4.png,trial_left_image,1,exp3.png,3,exp4.png,exp3.png,0,2,non-reversed,incorrect,0.11031486101466459,1,invalid_win,348.8119802000001,35,,,,,,,,,,,s_040,3,2021_Jan_11_1657,Reversal,3.2.4,60.009349456230076,
16,exp1.png,exp2.png,2,0,2,0,0,16,16,16,,,,,,,,,,,,,,,,,,,,,,,,,False,56,57,True,exp2.png,exp1.png,trial_left_image,1,exp2.png,3,exp2.png,exp1.png,1,3,reversed,correct,0.2564407647338559,1,valid_win,353.6770996999985,36,,,,,,,,,,,s_040,3,2021_Jan_11_1657,Reversal,3.2.4,60.009349456230076,
17,exp3.png,exp4.png,2,0,2,0,0,17,17,17,,,,,,,,,,,,,,,,,,,,,,,,,False,57,58,False,exp3.png,exp4.png,trial_right_image,-1,exp4.png,3,exp4.png,exp3.png,1,1,non-reversed,correct,0.3923055849383813,1,valid_win,359.4913109999907,37,,,,,,,,,,,s_040,3,2021_Jan_11_1657,Reversal,3.2.4,60.009349456230076,
18,exp1.png,exp2.png,2,0,2,0,0,18,18,18,,,,,,,,,,,,,,,,,,,,,,,,,False,58,59,True,exp2.png,exp1.png,trial_left_image,1,exp2.png,3,exp2.png,exp1.png,1,3,reversed,correct,0.47506795536129665,1,valid_win,367.7882164999901,38,,,,,,,,,,,s_040,3,2021_Jan_11_1657,Reversal,3.2.4,60.009349456230076,
19,exp3.png,exp4.png,2,0,2,0,0,19,19,19,,,,,,,,,,,,,,,,,,,,,,,,,False,59,60,True,exp4.png,exp3.png,trial_left_image,1,exp4.png,3,exp4.png,exp3.png,1,1,non-reversed,correct,0.030575382121759476,0,invalid_lose,372.7369433999993,38,,,,,,,,,,,s_040,3,2021_Jan_11_1657,Reversal,3.2.4,60.009349456230076,
20,exp1.png,exp2.png,2,0,2,0,0,20,20,20,,,,,,,,,,,,,,,,,,,,,,,,,True,,,,,,,,,,,,,,,,,,,,,,,,,,,,,,,s_040,3,2021_Jan_11_1657,Reversal,3.2.4,60.009349456230076,
,,,2,0,2,0,,,,,0,0,0,0,,,,,,,,,,,,,,,,,,,,,,,,,,,,,,,,,,,,,,,,,,6,92,41,62,,,,,,,s_040,3,2021_Jan_11_1657,Reversal,3.2.4,60.009349456230076,
0,exp1.png,exp2.png,3,0,3,0,0,0,0,0,,,,,,,,,,,,,,,,,,,,,,,,,False,60,61,False,exp1.png,exp2.png,trial_right_image,-1,exp2.png,3,exp2.png,exp1.png,1,3,reversed,correct,0.10086397939092506,0,invalid_lose,397.5620998999948,38,,,,,,,,,,,s_040,3,2021_Jan_11_1657,Reversal,3.2.4,60.009349456230076,
1,exp3.png,exp4.png,3,0,3,0,0,1,1,1,,,,,,,,,,,,,,,,,,,,,,,,,False,61,62,False,exp3.png,exp4.png,trial_left_image,1,exp3.png,3,exp4.png,exp3.png,0,2,non-reversed,incorrect,0.26030696450397384,0,valid_lose,403.44332989999384,38,,,,,,,,,,,s_040,3,2021_Jan_11_1657,Reversal,3.2.4,60.009349456230076,
2,exp1.png,exp2.png,3,0,3,0,0,2,2,2,,,,,,,,,,,,,,,,,,,,,,,,,False,62,63,True,exp2.png,exp1.png,trial_right_image,-1,exp1.png,3,exp2.png,exp1.png,0,4,reversed,incorrect,0.7100423295598555,0,valid_lose,407.94143389999226,38,,,,,,,,,,,s_040,3,2021_Jan_11_1657,Reversal,3.2.4,60.009349456230076,
3,exp3.png,exp4.png,3,0,3,0,0,3,3,3,,,,,,,,,,,,,,,,,,,,,,,,,False,63,64,False,exp3.png,exp4.png,trial_right_image,-1,exp4.png,3,exp4.png,exp3.png,1,1,non-reversed,correct,0.2171293411698495,0,invalid_lose,413.7566177999979,38,,,,,,,,,,,s_040,3,2021_Jan_11_1657,Reversal,3.2.4,60.009349456230076,
4,exp1.png,exp2.png,3,0,3,0,0,4,4,4,,,,,,,,,,,,,,,,,,,,,,,,,False,64,65,False,exp1.png,exp2.png,trial_right_image,-1,exp2.png,3,exp2.png,exp1.png,1,3,reversed,correct,0.5519007415387884,1,valid_win,418.6212116999959,39,,,,,,,,,,,s_040,3,2021_Jan_11_1657,Reversal,3.2.4,60.009349456230076,
5,exp3.png,exp4.png,3,0,3,0,0,5,5,5,,,,,,,,,,,,,,,,,,,,,,,,,False,65,66,True,exp4.png,exp3.png,trial_left_image,1,exp4.png,3,exp4.png,exp3.png,1,1,non-reversed,correct,0.13670414140970366,0,invalid_lose,422.52013109999825,39,,,,,,,,,,,s_040,3,2021_Jan_11_1657,Reversal,3.2.4,60.009349456230076,
6,exp1.png,exp2.png,3,0,3,0,0,6,6,6,,,,,,,,,,,,,,,,,,,,,,,,,False,66,67,True,exp2.png,exp1.png,trial_left_image,1,exp2.png,3,exp2.png,exp1.png,1,3,reversed,correct,0.5942039603723748,1,valid_win,426.9691240999964,40,,,,,,,,,,,s_040,3,2021_Jan_11_1657,Reversal,3.2.4,60.009349456230076,
7,exp3.png,exp4.png,3,0,3,0,0,7,7,7,,,,,,,,,,,,,,,,,,,,,,,,,False,67,68,False,exp3.png,exp4.png,trial_right_image,-1,exp4.png,3,exp4.png,exp3.png,1,1,non-reversed,correct,0.38588169657710714,1,valid_win,433.16673899999296,41,,,,,,,,,,,s_040,3,2021_Jan_11_1657,Reversal,3.2.4,60.009349456230076,
8,exp1.png,exp2.png,3,0,3,0,0,8,8,8,,,,,,,,,,,,,,,,,,,,,,,,,False,68,69,True,exp2.png,exp1.png,trial_left_image,1,exp2.png,3,exp2.png,exp1.png,1,3,reversed,correct,0.8187127734882137,1,valid_win,437.4980816999887,42,,,,,,,,,,,s_040,3,2021_Jan_11_1657,Reversal,3.2.4,60.009349456230076,
9,exp3.png,exp4.png,3,0,3,0,0,9,9,9,,,,,,,,,,,,,,,,,,,,,,,,,False,69,70,True,exp4.png,exp3.png,trial_left_image,1,exp4.png,3,exp4.png,exp3.png,1,1,non-reversed,correct,0.09205647730824018,0,invalid_lose,441.76373249999597,42,,,,,,,,,,,s_040,3,2021_Jan_11_1657,Reversal,3.2.4,60.009349456230076,
10,exp1.png,exp2.png,3,0,3,0,0,10,10,10,,,,,,,,,,,,,,,,,,,,,,,,,False,70,71,False,exp1.png,exp2.png,trial_right_image,-1,exp2.png,3,exp2.png,exp1.png,1,3,reversed,correct,0.12038764826383752,0,invalid_lose,446.54522369999904,42,,,,,,,,,,,s_040,3,2021_Jan_11_1657,Reversal,3.2.4,60.009349456230076,
11,exp3.png,exp4.png,3,0,3,0,0,11,11,11,,,,,,,,,,,,,,,,,,,,,,,,,False,71,72,True,exp4.png,exp3.png,trial_left_image,1,exp4.png,3,exp4.png,exp3.png,1,1,non-reversed,correct,0.6061299572610351,1,valid_win,450.5770538999932,43,,,,,,,,,,,s_040,3,2021_Jan_11_1657,Reversal,3.2.4,60.009349456230076,
12,exp1.png,exp2.png,3,0,3,0,0,12,12,12,,,,,,,,,,,,,,,,,,,,,,,,,False,72,73,False,exp1.png,exp2.png,trial_right_image,-1,exp2.png,3,exp2.png,exp1.png,1,3,reversed,correct,0.23286696809949448,0,invalid_lose,455.6754229999933,43,,,,,,,,,,,s_040,3,2021_Jan_11_1657,Reversal,3.2.4,60.009349456230076,
13,exp3.png,exp4.png,3,0,3,0,0,13,13,13,,,,,,,,,,,,,,,,,,,,,,,,,False,73,74,True,exp4.png,exp3.png,trial_right_image,-1,exp3.png,3,exp4.png,exp3.png,0,2,non-reversed,incorrect,0.4723217709394981,0,valid_lose,459.6402870999882,43,,,,,,,,,,,s_040,3,2021_Jan_11_1657,Reversal,3.2.4,60.009349456230076,
14,exp1.png,exp2.png,3,0,3,0,0,14,14,14,,,,,,,,,,,,,,,,,,,,,,,,,False,74,75,True,exp2.png,exp1.png,trial_left_image,1,exp2.png,3,exp2.png,exp1.png,1,3,reversed,correct,0.6312519080980704,1,valid_win,463.7728807999956,44,,,,,,,,,,,s_040,3,2021_Jan_11_1657,Reversal,3.2.4,60.009349456230076,
15,exp3.png,exp4.png,3,0,3,0,0,15,15,15,,,,,,,,,,,,,,,,,,,,,,,,,False,75,76,False,exp3.png,exp4.png,trial_right_image,-1,exp4.png,3,exp4.png,exp3.png,1,1,non-reversed,correct,0.20118511230620317,0,invalid_lose,467.8381761999917,44,,,,,,,,,,,s_040,3,2021_Jan_11_1657,Reversal,3.2.4,60.009349456230076,
16,exp1.png,exp2.png,3,0,3,0,0,16,16,16,,,,,,,,,,,,,,,,,,,,,,,,,False,76,77,True,exp2.png,exp1.png,trial_left_image,1,exp2.png,3,exp2.png,exp1.png,1,3,reversed,correct,0.8471007167439909,1,valid_win,471.98656530000153,45,,,,,,,,,,,s_040,3,2021_Jan_11_1657,Reversal,3.2.4,60.009349456230076,
17,exp3.png,exp4.png,3,0,3,0,0,17,17,17,,,,,,,,,,,,,,,,,,,,,,,,,False,77,78,False,exp3.png,exp4.png,trial_right_image,-1,exp4.png,3,exp4.png,exp3.png,1,1,non-reversed,correct,0.9151881717236414,1,valid_win,475.96905010000046,46,,,,,,,,,,,s_040,3,2021_Jan_11_1657,Reversal,3.2.4,60.009349456230076,
18,exp1.png,exp2.png,3,0,3,0,0,18,18,18,,,,,,,,,,,,,,,,,,,,,,,,,False,78,79,False,exp1.png,exp2.png,trial_right_image,-1,exp2.png,3,exp2.png,exp1.png,1,3,reversed,correct,0.2961131919844563,1,valid_win,480.1172613999952,47,,,,,,,,,,,s_040,3,2021_Jan_11_1657,Reversal,3.2.4,60.009349456230076,
19,exp3.png,exp4.png,3,0,3,0,0,19,19,19,,,,,,,,,,,,,,,,,,,,,,,,,False,79,80,True,exp4.png,exp3.png,trial_left_image,1,exp4.png,3,exp4.png,exp3.png,1,1,non-reversed,correct,0.04676884025328465,0,invalid_lose,484.3812106999976,47,,,,,,,,,,,s_040,3,2021_Jan_11_1657,Reversal,3.2.4,60.009349456230076,
20,exp1.png,exp2.png,3,0,3,0,0,20,20,20,,,,,,,,,,,,,,,,,,,,,,,,,True,,,,,,,,,,,,,,,,,,,,,,,,,,,,,,,s_040,3,2021_Jan_11_1657,Reversal,3.2.4,60.009349456230076,
,,,3,0,3,0,,,,,0,0,0,0,,,,,,,,,,,,,,,,,,,,,,,,,,,,,,,,,,,,,,,,,,15,78,50.0,50.0,,,,,,,s_040,3,2021_Jan_11_1657,Reversal,3.2.4,60.009349456230076,
0,exp1.png,exp2.png,,,,,,,,,,,,,,,,,0,0,0,0,0,0,0,0,,,,,,,,,False,0,81,True,exp2.png,exp1.png,trial_left_image,1,exp2.png,3,exp1.png,exp2.png,1,3,reversed,incorrect,0.39083168303057236,0,valid_lose,500.11050189999514,47,,,,,497.54970399999,,,,,,s_040,3,2021_Jan_11_1657,Reversal,3.2.4,60.009349456230076,
1,exp3.png,exp4.png,,,,,,,,,,,,,,,,,0,0,0,0,0,1,1,1,,,,,,,,,False,1,82,True,exp4.png,exp3.png,trial_right_image,-1,exp3.png,3,exp4.png,exp3.png,0,2,non-reversed,incorrect,0.8477896996940694,0,valid_lose,504.0422722999938,47,,,,,,,,,,,s_040,3,2021_Jan_11_1657,Reversal,3.2.4,60.009349456230076,
2,exp1.png,exp2.png,,,,,,,,,,,,,,,,,0,0,0,0,0,2,2,2,,,,,,,,,False,2,83,False,exp1.png,exp2.png,trial_right_image,-1,exp2.png,3,exp1.png,exp2.png,1,3,reversed,incorrect,0.552160240060069,0,valid_lose,507.9414141999878,47,,,,,,,,,,,s_040,3,2021_Jan_11_1657,Reversal,3.2.4,60.009349456230076,
3,exp3.png,exp4.png,,,,,,,,,,,,,,,,,0,0,0,0,0,3,3,3,,,,,,,,,False,3,84,True,exp4.png,exp3.png,trial_right_image,-1,exp3.png,3,exp4.png,exp3.png,0,2,non-reversed,incorrect,0.8517151652306041,0,valid_lose,511.92316859999846,47,,,,,,,,,,,s_040,3,2021_Jan_11_1657,Reversal,3.2.4,60.009349456230076,
4,exp1.png,exp2.png,,,,,,,,,,,,,,,,,0,0,0,0,0,4,4,4,,,,,,,,,False,4,85,True,exp2.png,exp1.png,trial_right_image,-1,exp1.png,3,exp1.png,exp2.png,0,4,reversed,correct,0.11463441708626909,0,invalid_lose,516.1716758999974,47,,,,,,,,,,,s_040,3,2021_Jan_11_1657,Reversal,3.2.4,60.009349456230076,
5,exp3.png,exp4.png,,,,,,,,,,,,,,,,,0,0,0,0,0,5,5,5,,,,,,,,,False,5,86,True,exp4.png,exp3.png,trial_right_image,-1,exp3.png,3,exp4.png,exp3.png,0,2,non-reversed,incorrect,0.04017386147932922,1,invalid_win,519.6209816999908,48,,,,,,,,,,,s_040,3,2021_Jan_11_1657,Reversal,3.2.4,60.009349456230076,
6,exp1.png,exp2.png,,,,,,,,,,,,,,,,,0,0,0,0,0,6,6,6,,,,,,,,,False,6,87,False,exp1.png,exp2.png,trial_right_image,-1,exp2.png,3,exp1.png,exp2.png,1,3,reversed,incorrect,0.7629117949292076,0,valid_lose,524.0359995999897,48,,,,,,,,,,,s_040,3,2021_Jan_11_1657,Reversal,3.2.4,60.009349456230076,
7,exp3.png,exp4.png,,,,,,,,,,,,,,,,,0,0,0,0,0,7,7,7,,,,,,,,,False,7,88,False,exp3.png,exp4.png,trial_left_image,1,exp3.png,3,exp4.png,exp3.png,0,2,non-reversed,incorrect,0.27941284192804916,0,valid_lose,528.0009832999931,48,,,,,,,,,,,s_040,3,2021_Jan_11_1657,Reversal,3.2.4,60.009349456230076,
8,exp1.png,exp2.png,,,,,,,,,,,,,,,,,0,0,0,0,0,8,8,8,,,,,,,,,False,8,89,False,exp1.png,exp2.png,trial_right_image,-1,exp2.png,3,exp1.png,exp2.png,1,3,reversed,incorrect,0.1518436044331113,1,invalid_win,532.1663493999949,49,,,,,,,,,,,s_040,3,2021_Jan_11_1657,Reversal,3.2.4,60.009349456230076,
9,exp3.png,exp4.png,,,,,,,,,,,,,,,,,0,0,0,0,0,9,9,9,,,,,,,,,False,9,90,True,exp4.png,exp3.png,trial_left_image,1,exp4.png,3,exp4.png,exp3.png,1,1,non-reversed,correct,0.26296016272554124,1,valid_win,536.5314085999998,50,,,,,,,,,,,s_040,3,2021_Jan_11_1657,Reversal,3.2.4,60.009349456230076,
10,exp1.png,exp2.png,,,,,,,,,,,,,,,,,0,0,0,0,0,10,10,10,,,,,,,,,False,10,91,True,exp2.png,exp1.png,trial_left_image,1,exp2.png,3,exp1.png,exp2.png,1,3,reversed,incorrect,0.48117497211785687,0,valid_lose,540.9454480999993,50,,,,,,,,,,,s_040,3,2021_Jan_11_1657,Reversal,3.2.4,60.009349456230076,
11,exp3.png,exp4.png,,,,,,,,,,,,,,,,,0,0,0,0,0,11,11,11,,,,,,,,,False,11,92,True,exp4.png,exp3.png,trial_right_image,-1,exp3.png,3,exp4.png,exp3.png,0,2,non-reversed,incorrect,0.7420848383882152,0,valid_lose,544.7787996999978,50,,,,,,,,,,,s_040,3,2021_Jan_11_1657,Reversal,3.2.4,60.009349456230076,
12,exp1.png,exp2.png,,,,,,,,,,,,,,,,,0,0,0,0,0,12,12,12,,,,,,,,,False,12,93,False,exp1.png,exp2.png,trial_left_image,1,exp1.png,3,exp1.png,exp2.png,0,4,reversed,correct,0.07284962295051,0,invalid_lose,548.8273072000011,50,,,,,,,,,,,s_040,3,2021_Jan_11_1657,Reversal,3.2.4,60.009349456230076,
13,exp3.png,exp4.png,,,,,,,,,,,,,,,,,0,0,0,0,0,13,13,13,,,,,,,,,False,13,94,False,exp3.png,exp4.png,trial_right_image,-1,exp4.png,3,exp4.png,exp3.png,1,1,non-reversed,correct,0.45165548777115394,1,valid_win,552.9259670999891,51,,,,,,,,,,,s_040,3,2021_Jan_11_1657,Reversal,3.2.4,60.009349456230076,
14,exp1.png,exp2.png,,,,,,,,,,,,,,,,,0,0,0,0,0,14,14,14,,,,,,,,,False,14,95,True,exp2.png,exp1.png,trial_left_image,1,exp2.png,3,exp1.png,exp2.png,1,3,reversed,incorrect,0.24912202685410367,1,invalid_win,559.3241401999985,52,,,,,,,,,,,s_040,3,2021_Jan_11_1657,Reversal,3.2.4,60.009349456230076,
15,exp3.png,exp4.png,,,,,,,,,,,,,,,,,0,0,0,0,0,15,15,15,,,,,,,,,False,15,96,False,exp3.png,exp4.png,trial_right_image,-1,exp4.png,3,exp4.png,exp3.png,1,1,non-reversed,correct,0.5468688511096568,1,valid_win,564.0220892999932,53,,,,,,,,,,,s_040,3,2021_Jan_11_1657,Reversal,3.2.4,60.009349456230076,
16,exp1.png,exp2.png,,,,,,,,,,,,,,,,,0,0,0,0,0,16,16,16,,,,,,,,,False,16,97,True,exp2.png,exp1.png,trial_left_image,1,exp2.png,3,exp1.png,exp2.png,1,3,reversed,incorrect,0.21267544262463756,1,invalid_win,568.6374489000009,54,,,,,,,,,,,s_040,3,2021_Jan_11_1657,Reversal,3.2.4,60.009349456230076,
17,exp3.png,exp4.png,,,,,,,,,,,,,,,,,0,0,0,0,0,17,17,17,,,,,,,,,False,17,98,False,exp3.png,exp4.png,trial_right_image,-1,exp4.png,3,exp4.png,exp3.png,1,1,non-reversed,correct,0.5166486701468415,1,valid_win,572.8191165999888,55,,,,,,,,,,,s_040,3,2021_Jan_11_1657,Reversal,3.2.4,60.009349456230076,
18,exp1.png,exp2.png,,,,,,,,,,,,,,,,,0,0,0,0,0,18,18,18,,,,,,,,,False,18,99,False,exp1.png,exp2.png,trial_right_image,-1,exp2.png,3,exp1.png,exp2.png,1,3,reversed,incorrect,0.17522662102255426,1,invalid_win,577.1678230999969,56,,,,,,,,,,,s_040,3,2021_Jan_11_1657,Reversal,3.2.4,60.009349456230076,
19,exp3.png,exp4.png,,,,,,,,,,,,,,,,,0,0,0,0,0,19,19,19,,,,,,,,,False,19,100,False,exp3.png,exp4.png,trial_right_image,-1,exp4.png,3,exp4.png,exp3.png,1,1,non-reversed,correct,0.6068176174535896,1,valid_win,581.1672030999907,57,,,,,,,,,,,s_040,3,2021_Jan_11_1657,Reversal,3.2.4,60.009349456230076,
20,exp1.png,exp2.png,,,,,,,,,,,,,,,,,0,0,0,0,0,20,20,20,,,,,,,,,True,,,,,,,,,,,,,,,,,,,,,,,,,,,,,,,s_040,3,2021_Jan_11_1657,Reversal,3.2.4,60.009349456230076,
,,,,,,,,,,,,,,,,,,,0,0,0,0,,,,,0,0,0,0,,,,,,,,,,,,,,,,,,,,,,,,,,26,67,35,63,,,,,,,s_040,3,2021_Jan_11_1657,Reversal,3.2.4,60.009349456230076,
0,exp1.png,exp2.png,,,,,,,,,,,,,,,,,1,0,1,0,0,0,0,0,,,,,,,,,False,20,101,False,exp1.png,exp2.png,trial_right_image,-1,exp2.png,3,exp1.png,exp2.png,1,3,reversed,incorrect,0.4073277311831057,0,valid_lose,603.4756444999948,57,,,,,,,,,,,s_040,3,2021_Jan_11_1657,Reversal,3.2.4,60.009349456230076,
1,exp3.png,exp4.png,,,,,,,,,,,,,,,,,1,0,1,0,0,1,1,1,,,,,,,,,False,21,102,False,exp3.png,exp4.png,trial_left_image,1,exp3.png,3,exp4.png,exp3.png,0,2,non-reversed,incorrect,0.08640326411993404,1,invalid_win,607.8913093999872,58,,,,,,,,,,,s_040,3,2021_Jan_11_1657,Reversal,3.2.4,60.009349456230076,
2,exp1.png,exp2.png,,,,,,,,,,,,,,,,,1,0,1,0,0,2,2,2,,,,,,,,,False,22,103,True,exp2.png,exp1.png,trial_left_image,1,exp2.png,3,exp1.png,exp2.png,1,3,reversed,incorrect,0.042268923998653896,1,invalid_win,611.8394539000001,59,,,,,,,,,,,s_040,3,2021_Jan_11_1657,Reversal,3.2.4,60.009349456230076,
3,exp3.png,exp4.png,,,,,,,,,,,,,,,,,1,0,1,0,0,3,3,3,,,,,,,,,False,23,104,False,exp3.png,exp4.png,trial_left_image,1,exp3.png,3,exp4.png,exp3.png,0,2,non-reversed,incorrect,0.3474400427264579,0,valid_lose,615.7047331999929,59,,,,,,,,,,,s_040,3,2021_Jan_11_1657,Reversal,3.2.4,60.009349456230076,
4,exp1.png,exp2.png,,,,,,,,,,,,,,,,,1,0,1,0,0,4,4,4,,,,,,,,,False,24,105,False,exp1.png,exp2.png,trial_right_image,-1,exp2.png,3,exp1.png,exp2.png,1,3,reversed,incorrect,0.43522701223580296,0,valid_lose,620.303474100001,59,,,,,,,,,,,s_040,3,2021_Jan_11_1657,Reversal,3.2.4,60.009349456230076,
5,exp3.png,exp4.png,,,,,,,,,,,,,,,,,1,0,1,0,0,5,5,5,,,,,,,,,False,25,106,True,exp4.png,exp3.png,trial_left_image,1,exp4.png,3,exp4.png,exp3.png,1,1,non-reversed,correct,0.45681798118303596,1,valid_win,624.5180909999908,60,,,,,,,,,,,s_040,3,2021_Jan_11_1657,Reversal,3.2.4,60.009349456230076,
6,exp1.png,exp2.png,,,,,,,,,,,,,,,,,1,0,1,0,0,6,6,6,,,,,,,,,False,26,107,True,exp2.png,exp1.png,trial_right_image,-1,exp1.png,3,exp1.png,exp2.png,0,4,reversed,correct,0.8234497314416824,1,valid_win,629.9497850999905,61,,,,,,,,,,,s_040,3,2021_Jan_11_1657,Reversal,3.2.4,60.009349456230076,
7,exp3.png,exp4.png,,,,,,,,,,,,,,,,,1,0,1,0,0,7,7,7,,,,,,,,,False,27,108,True,exp4.png,exp3.png,trial_right_image,-1,exp3.png,3,exp4.png,exp3.png,0,2,non-reversed,incorrect,0.7719555379632834,0,valid_lose,634.2813310999918,61,,,,,,,,,,,s_040,3,2021_Jan_11_1657,Reversal,3.2.4,60.009349456230076,
8,exp1.png,exp2.png,,,,,,,,,,,,,,,,,1,0,1,0,0,8,8,8,,,,,,,,,False,28,109,False,exp1.png,exp2.png,trial_left_image,1,exp1.png,3,exp1.png,exp2.png,0,4,reversed,correct,0.6897547371278231,1,valid_win,638.4800192999974,62,,,,,,,,,,,s_040,3,2021_Jan_11_1657,Reversal,3.2.4,60.009349456230076,
9,exp3.png,exp4.png,,,,,,,,,,,,,,,,,1,0,1,0,0,9,9,9,,,,,,,,,False,29,110,False,exp3.png,exp4.png,trial_right_image,-1,exp4.png,3,exp4.png,exp3.png,1,1,non-reversed,correct,0.9732713272542558,1,valid_win,642.7453869999881,63,,,,,,,,,,,s_040,3,2021_Jan_11_1657,Reversal,3.2.4,60.009349456230076,
10,exp1.png,exp2.png,,,,,,,,,,,,,,,,,1,0,1,0,0,10,10,10,,,,,,,,,False,30,111,False,exp1.png,exp2.png,trial_left_image,1,exp1.png,3,exp1.png,exp2.png,0,4,reversed,correct,0.17137955634834268,0,invalid_lose,646.9273200999887,63,,,,,,,,,,,s_040,3,2021_Jan_11_1657,Reversal,3.2.4,60.009349456230076,
11,exp3.png,exp4.png,,,,,,,,,,,,,,,,,1,0,1,0,0,11,11,11,,,,,,,,,False,31,112,True,exp4.png,exp3.png,trial_left_image,1,exp4.png,3,exp4.png,exp3.png,1,1,non-reversed,correct,0.05334243460974886,0,invalid_lose,653.1252394999901,63,,,,,,,,,,,s_040,3,2021_Jan_11_1657,Reversal,3.2.4,60.009349456230076,
12,exp1.png,exp2.png,,,,,,,,,,,,,,,,,1,0,1,0,0,12,12,12,,,,,,,,,False,32,113,True,exp2.png,exp1.png,trial_right_image,-1,exp1.png,3,exp1.png,exp2.png,0,4,reversed,correct,0.7379004796200437,1,valid_win,657.7902881999908,64,,,,,,,,,,,s_040,3,2021_Jan_11_1657,Reversal,3.2.4,60.009349456230076,
13,exp3.png,exp4.png,,,,,,,,,,,,,,,,,1,0,1,0,0,13,13,13,,,,,,,,,False,33,114,False,exp3.png,exp4.png,trial_right_image,-1,exp4.png,3,exp4.png,exp3.png,1,1,non-reversed,correct,0.2538461736562656,1,valid_win,662.0555031999975,65,,,,,,,,,,,s_040,3,2021_Jan_11_1657,Reversal,3.2.4,60.009349456230076,
14,exp1.png,exp2.png,,,,,,,,,,,,,,,,,1,0,1,0,0,14,14,14,,,,,,,,,False,34,115,True,exp2.png,exp1.png,trial_right_image,-1,exp1.png,3,exp1.png,exp2.png,0,4,reversed,correct,0.18379730478048073,0,invalid_lose,666.4034696999879,65,,,,,,,,,,,s_040,3,2021_Jan_11_1657,Reversal,3.2.4,60.009349456230076,
15,exp3.png,exp4.png,,,,,,,,,,,,,,,,,1,0,1,0,0,15,15,15,,,,,,,,,False,35,116,True,exp4.png,exp3.png,trial_left_image,1,exp4.png,3,exp4.png,exp3.png,1,1,non-reversed,correct,0.9713883933742495,1,valid_win,671.2180630999937,66,,,,,,,,,,,s_040,3,2021_Jan_11_1657,Reversal,3.2.4,60.009349456230076,
16,exp1.png,exp2.png,,,,,,,,,,,,,,,,,1,0,1,0,0,16,16,16,,,,,,,,,False,36,117,False,exp1.png,exp2.png,trial_left_image,1,exp1.png,3,exp1.png,exp2.png,0,4,reversed,correct,0.4702207559766951,1,valid_win,676.034404399994,67,,,,,,,,,,,s_040,3,2021_Jan_11_1657,Reversal,3.2.4,60.009349456230076,
17,exp3.png,exp4.png,,,,,,,,,,,,,,,,,1,0,1,0,0,17,17,17,,,,,,,,,False,37,118,True,exp4.png,exp3.png,trial_right_image,-1,exp3.png,3,exp4.png,exp3.png,0,2,non-reversed,incorrect,0.4555959318683276,0,valid_lose,681.8659022999927,67,,,,,,,,,,,s_040,3,2021_Jan_11_1657,Reversal,3.2.4,60.009349456230076,
18,exp1.png,exp2.png,,,,,,,,,,,,,,,,,1,0,1,0,0,18,18,18,,,,,,,,,False,38,119,True,exp2.png,exp1.png,trial_left_image,1,exp2.png,3,exp1.png,exp2.png,1,3,reversed,incorrect,0.20827776203450343,1,invalid_win,686.9641055999964,68,,,,,,,,,,,s_040,3,2021_Jan_11_1657,Reversal,3.2.4,60.009349456230076,
19,exp3.png,exp4.png,,,,,,,,,,,,,,,,,1,0,1,0,0,19,19,19,,,,,,,,,False,39,120,False,exp3.png,exp4.png,trial_right_image,-1,exp4.png,3,exp4.png,exp3.png,1,1,non-reversed,correct,0.4058625128300899,1,valid_win,694.4944369000004,69,,,,,,,,,,,s_040,3,2021_Jan_11_1657,Reversal,3.2.4,60.009349456230076,
20,exp1.png,exp2.png,,,,,,,,,,,,,,,,,1,0,1,0,0,20,20,20,,,,,,,,,True,,,,,,,,,,,,,,,,,,,,,,,,,,,,,,,s_040,3,2021_Jan_11_1657,Reversal,3.2.4,60.009349456230076,
,,,,,,,,,,,,,,,,,,,1,0,1,0,,,,,0,0,0,0,,,,,,,,,,,,,,,,,,,,,,,,,,59,38,51,50.0,,,,,,,s_040,3,2021_Jan_11_1657,Reversal,3.2.4,60.009349456230076,
0,exp1.png,exp2.png,,,,,,,,,,,,,,,,,2,0,2,0,0,0,0,0,,,,,,,,,False,40,121,False,exp1.png,exp2.png,trial_right_image,-1,exp2.png,3,exp1.png,exp2.png,1,3,reversed,incorrect,0.011282358725626551,1,invalid_win,713.0384301999875,70,,,,,,,,,,,s_040,3,2021_Jan_11_1657,Reversal,3.2.4,60.009349456230076,
1,exp3.png,exp4.png,,,,,,,,,,,,,,,,,2,0,2,0,0,1,1,1,,,,,,,,,False,41,122,False,exp3.png,exp4.png,trial_right_image,-1,exp4.png,3,exp4.png,exp3.png,1,1,non-reversed,correct,0.9919711527242463,1,valid_win,719.8861226000008,71,,,,,,,,,,,s_040,3,2021_Jan_11_1657,Reversal,3.2.4,60.009349456230076,
2,exp1.png,exp2.png,,,,,,,,,,,,,,,,,2,0,2,0,0,2,2,2,,,,,,,,,False,42,123,True,exp2.png,exp1.png,trial_left_image,1,exp2.png,3,exp1.png,exp2.png,1,3,reversed,incorrect,0.8920760473231271,0,valid_lose,724.7511969999905,71,,,,,,,,,,,s_040,3,2021_Jan_11_1657,Reversal,3.2.4,60.009349456230076,
3,exp3.png,exp4.png,,,,,,,,,,,,,,,,,2,0,2,0,0,3,3,3,,,,,,,,,False,43,124,False,exp3.png,exp4.png,trial_left_image,1,exp3.png,3,exp4.png,exp3.png,0,2,non-reversed,incorrect,0.48795103877556945,0,valid_lose,731.9650519999996,71,,,,,,,,,,,s_040,3,2021_Jan_11_1657,Reversal,3.2.4,60.009349456230076,
4,exp1.png,exp2.png,,,,,,,,,,,,,,,,,2,0,2,0,0,4,4,4,,,,,,,,,False,44,125,True,exp2.png,exp1.png,trial_right_image,-1,exp1.png,3,exp1.png,exp2.png,0,4,reversed,correct,0.22064110748225496,0,invalid_lose,736.0475460999878,71,,,,,,,,,,,s_040,3,2021_Jan_11_1657,Reversal,3.2.4,60.009349456230076,
5,exp3.png,exp4.png,,,,,,,,,,,,,,,,,2,0,2,0,0,5,5,5,,,,,,,,,False,45,126,True,exp4.png,exp3.png,trial_left_image,1,exp4.png,3,exp4.png,exp3.png,1,1,non-reversed,correct,0.6611558335486054,1,valid_win,740.5287924000004,72,,,,,,,,,,,s_040,3,2021_Jan_11_1657,Reversal,3.2.4,60.009349456230076,
6,exp1.png,exp2.png,,,,,,,,,,,,,,,,,2,0,2,0,0,6,6,6,,,,,,,,,False,46,127,False,exp1.png,exp2.png,trial_right_image,-1,exp2.png,3,exp1.png,exp2.png,1,3,reversed,incorrect,0.9854366411760769,0,valid_lose,744.5947560999921,72,,,,,,,,,,,s_040,3,2021_Jan_11_1657,Reversal,3.2.4,60.009349456230076,
7,exp3.png,exp4.png,,,,,,,,,,,,,,,,,2,0,2,0,0,7,7,7,,,,,,,,,False,47,128,False,exp3.png,exp4.png,trial_right_image,-1,exp4.png,3,exp4.png,exp3.png,1,1,non-reversed,correct,0.508857620230879,1,valid_win,749.7760646999959,73,,,,,,,,,,,s_040,3,2021_Jan_11_1657,Reversal,3.2.4,60.009349456230076,
8,exp1.png,exp2.png,,,,,,,,,,,,,,,,,2,0,2,0,0,8,8,8,,,,,,,,,False,48,129,True,exp2.png,exp1.png,trial_right_image,-1,exp1.png,3,exp1.png,exp2.png,0,4,reversed,correct,0.3713670113837362,1,valid_win,754.1913081999955,74,,,,,,,,,,,s_040,3,2021_Jan_11_1657,Reversal,3.2.4,60.009349456230076,
9,exp3.png,exp4.png,,,,,,,,,,,,,,,,,2,0,2,0,0,9,9,9,,,,,,,,,False,49,130,False,exp3.png,exp4.png,trial_right_image,-1,exp4.png,3,exp4.png,exp3.png,1,1,non-reversed,correct,0.9705703109509379,1,valid_win,758.190497699994,75,,,,,,,,,,,s_040,3,2021_Jan_11_1657,Reversal,3.2.4,60.009349456230076,
10,exp1.png,exp2.png,,,,,,,,,,,,,,,,,2,0,2,0,0,10,10,10,,,,,,,,,False,50,131,False,exp1.png,exp2.png,trial_right_image,-1,exp2.png,3,exp1.png,exp2.png,1,3,reversed,incorrect,0.9363147799688807,0,valid_lose,763.5545604999934,75,,,,,,,,,,,s_040,3,2021_Jan_11_1657,Reversal,3.2.4,60.009349456230076,
11,exp3.png,exp4.png,,,,,,,,,,,,,,,,,2,0,2,0,0,11,11,11,,,,,,,,,False,51,132,True,exp4.png,exp3.png,trial_left_image,1,exp4.png,3,exp4.png,exp3.png,1,1,non-reversed,correct,0.6232731627924437,1,valid_win,767.9360047999944,76,,,,,,,,,,,s_040,3,2021_Jan_11_1657,Reversal,3.2.4,60.009349456230076,
12,exp1.png,exp2.png,,,,,,,,,,,,,,,,,2,0,2,0,0,12,12,12,,,,,,,,,False,52,133,True,exp2.png,exp1.png,trial_right_image,-1,exp1.png,3,exp1.png,exp2.png,0,4,reversed,correct,0.9165068008370586,1,valid_win,772.0347756999981,77,,,,,,,,,,,s_040,3,2021_Jan_11_1657,Reversal,3.2.4,60.009349456230076,
13,exp3.png,exp4.png,,,,,,,,,,,,,,,,,2,0,2,0,0,13,13,13,,,,,,,,,False,53,134,True,exp4.png,exp3.png,trial_left_image,1,exp4.png,3,exp4.png,exp3.png,1,1,non-reversed,correct,0.5246917382480282,1,valid_win,776.916696100001,78,,,,,,,,,,,s_040,3,2021_Jan_11_1657,Reversal,3.2.4,60.009349456230076,
14,exp1.png,exp2.png,,,,,,,,,,,,,,,,,2,0,2,0,0,14,14,14,,,,,,,,,False,54,135,True,exp2.png,exp1.png,trial_right_image,-1,exp1.png,3,exp1.png,exp2.png,0,4,reversed,correct,0.11460174422592784,0,invalid_lose,781.7470482999925,78,,,,,,,,,,,s_040,3,2021_Jan_11_1657,Reversal,3.2.4,60.009349456230076,
15,exp3.png,exp4.png,,,,,,,,,,,,,,,,,2,0,2,0,0,15,15,15,,,,,,,,,False,55,136,False,exp3.png,exp4.png,trial_left_image,1,exp3.png,3,exp4.png,exp3.png,0,2,non-reversed,incorrect,0.322710579750245,0,valid_lose,785.9632847999892,78,,,,,,,,,,,s_040,3,2021_Jan_11_1657,Reversal,3.2.4,60.009349456230076,
16,exp1.png,exp2.png,,,,,,,,,,,,,,,,,2,0,2,0,0,16,16,16,,,,,,,,,False,56,137,False,exp1.png,exp2.png,trial_left_image,1,exp1.png,3,exp1.png,exp2.png,0,4,reversed,correct,0.21800575453453142,0,invalid_lose,790.1787817000004,78,,,,,,,,,,,s_040,3,2021_Jan_11_1657,Reversal,3.2.4,60.009349456230076,
17,exp3.png,exp4.png,,,,,,,,,,,,,,,,,2,0,2,0,0,17,17,17,,,,,,,,,False,57,138,True,exp4.png,exp3.png,trial_left_image,1,exp4.png,3,exp4.png,exp3.png,1,1,non-reversed,correct,0.013574079469816813,0,invalid_lose,794.2273597999883,78,,,,,,,,,,,s_040,3,2021_Jan_11_1657,Reversal,3.2.4,60.009349456230076,
18,exp1.png,exp2.png,,,,,,,,,,,,,,,,,2,0,2,0,0,18,18,18,,,,,,,,,False,58,139,False,exp1.png,exp2.png,trial_right_image,-1,exp2.png,3,exp1.png,exp2.png,1,3,reversed,incorrect,0.5914396012418841,0,valid_lose,798.7423916999978,78,,,,,,,,,,,s_040,3,2021_Jan_11_1657,Reversal,3.2.4,60.009349456230076,
19,exp3.png,exp4.png,,,,,,,,,,,,,,,,,2,0,2,0,0,19,19,19,,,,,,,,,False,59,140,True,exp4.png,exp3.png,trial_left_image,1,exp4.png,3,exp4.png,exp3.png,1,1,non-reversed,correct,0.6122979492485409,1,valid_win,804.4905932999973,79,,,,,,,,,,,s_040,3,2021_Jan_11_1657,Reversal,3.2.4,60.009349456230076,
20,exp1.png,exp2.png,,,,,,,,,,,,,,,,,2,0,2,0,0,20,20,20,,,,,,,,,True,,,,,,,,,,,,,,,,,,,,,,,,,,,,,,,s_040,3,2021_Jan_11_1657,Reversal,3.2.4,60.009349456230076,
,,,,,,,,,,,,,,,,,,,2,0,2,0,,,,,0,0,0,0,,,,,,,,,,,,,,,,,,,,,,,,,,67,29,33,63,,,,,,,s_040,3,2021_Jan_11_1657,Reversal,3.2.4,60.009349456230076,
,,,,,,,,,,,,,,,,,,,,,,,,,,,,,,,,,,,,,,,,,,,,,,,,,,,,,,,79,,,,,,94,62,32,325.4667307000054,1,,,,,,,
