trial_index,trial_image1_file,trial_image2_file,learning_outer_loop.thisRepN,learning_outer_loop.thisTrialN,learning_outer_loop.thisN,learning_outer_loop.thisIndex,learning_inner_loop.thisRepN,learning_inner_loop.thisTrialN,learning_inner_loop.thisN,learning_inner_loop.thisIndex,learning_estimation_outer_loop.thisRepN,learning_estimation_outer_loop.thisTrialN,learning_estimation_outer_loop.thisN,learning_estimation_outer_loop.thisIndex,learning_estimation_inner_loop.thisRepN,learning_estimation_inner_loop.thisTrialN,learning_estimation_inner_loop.thisN,learning_estimation_inner_loop.thisIndex,reversal_outer_loop.thisRepN,reversal_outer_loop.thisTrialN,reversal_outer_loop.thisN,reversal_outer_loop.thisIndex,reversal_inner_loop.thisRepN,reversal_inner_loop.thisTrialN,reversal_inner_loop.thisN,reversal_inner_loop.thisIndex,reversal_estimation_outer_loop.thisRepN,reversal_estimation_outer_loop.thisTrialN,reversal_estimation_outer_loop.thisN,reversal_estimation_outer_loop.thisIndex,reversal_estimation_inner_loop.thisRepN,reversal_estimation_inner_loop.thisTrialN,reversal_estimation_inner_loop.thisN,reversal_estimation_inner_loop.thisIndex,skipped,total_trial_counter,trial_num,left_right_flip,left_image_file,right_image_file,clicked_stimulus_side,side,clicked_stimulus,version,high_prob_image_file,low_prob_image_file,choice_a,choice_b,pair_type,correct,trial_feedback_random,reward,trial_type,overall_time_after_trial,score,estimation_exp1.png,estimation_exp2.png,estimation_exp3.png,estimation_exp4.png,total_learning_time,total_correct,learning_correct,reversal_correct,total_reversal_time,extra_block,participant,ver,date,expName,psychopyVersion,frameRate,
0,exp1.png,exp2.png,0,0,0,0,0,0,0,0,,,,,,,,,,,,,,,,,,,,,,,,,True,,,,,,,,,,,,,,,,,,,,,,,,,,,,,,,s_045,1,2021_Jan_19_0923,Reversal,3.2.4,59.97019482359056,
1,exp3.png,exp4.png,0,0,0,0,0,1,1,1,,,,,,,,,,,,,,,,,,,,,,,,,False,0,1,False,exp3.png,exp4.png,trial_left_image,1,exp3.png,1,exp3.png,exp4.png,1,1,non-reversed,correct,0.5676101355160335,1,valid_win,4.194306399964262,1,,,,,,,,,,,s_045,1,2021_Jan_19_0923,Reversal,3.2.4,59.97019482359056,
2,exp1.png,exp2.png,0,0,0,0,0,2,2,2,,,,,,,,,,,,,,,,,,,,,,,,,False,1,2,False,exp1.png,exp2.png,trial_left_image,1,exp1.png,1,exp1.png,exp2.png,1,3,reversed,correct,0.30123769917001575,1,valid_win,9.976476299983915,2,,,,,,,,,,,s_045,1,2021_Jan_19_0923,Reversal,3.2.4,59.97019482359056,
3,exp3.png,exp4.png,0,0,0,0,0,3,3,3,,,,,,,,,,,,,,,,,,,,,,,,,False,2,3,True,exp4.png,exp3.png,trial_left_image,1,exp4.png,1,exp3.png,exp4.png,0,2,non-reversed,incorrect,0.9269410074367783,0,valid_lose,15.822859999956563,2,,,,,,,,,,,s_045,1,2021_Jan_19_0923,Reversal,3.2.4,59.97019482359056,
4,exp1.png,exp2.png,0,0,0,0,0,4,4,4,,,,,,,,,,,,,,,,,,,,,,,,,False,3,4,True,exp2.png,exp1.png,trial_right_image,-1,exp1.png,1,exp1.png,exp2.png,1,3,reversed,correct,0.6735125820648082,1,valid_win,21.271330199961085,3,,,,,,,,,,,s_045,1,2021_Jan_19_0923,Reversal,3.2.4,59.97019482359056,
5,exp3.png,exp4.png,0,0,0,0,0,5,5,5,,,,,,,,,,,,,,,,,,,,,,,,,False,4,5,True,exp4.png,exp3.png,trial_right_image,-1,exp3.png,1,exp3.png,exp4.png,1,1,non-reversed,correct,0.8728775303607758,1,valid_win,26.869477899977937,4,,,,,,,,,,,s_045,1,2021_Jan_19_0923,Reversal,3.2.4,59.97019482359056,
6,exp1.png,exp2.png,0,0,0,0,0,6,6,6,,,,,,,,,,,,,,,,,,,,,,,,,False,5,6,False,exp1.png,exp2.png,trial_left_image,1,exp1.png,1,exp1.png,exp2.png,1,3,reversed,correct,0.8672808217411554,1,valid_win,31.81754939997336,5,,,,,,,,,,,s_045,1,2021_Jan_19_0923,Reversal,3.2.4,59.97019482359056,
7,exp3.png,exp4.png,0,0,0,0,0,7,7,7,,,,,,,,,,,,,,,,,,,,,,,,,False,6,7,False,exp3.png,exp4.png,trial_left_image,1,exp3.png,1,exp3.png,exp4.png,1,1,non-reversed,correct,0.1275718105838778,0,invalid_lose,36.88297179999063,5,,,,,,,,,,,s_045,1,2021_Jan_19_0923,Reversal,3.2.4,59.97019482359056,
8,exp1.png,exp2.png,0,0,0,0,0,8,8,8,,,,,,,,,,,,,,,,,,,,,,,,,False,7,8,False,exp1.png,exp2.png,trial_left_image,1,exp1.png,1,exp1.png,exp2.png,1,3,reversed,correct,0.7657118668532421,1,valid_win,42.5479129999876,6,,,,,,,,,,,s_045,1,2021_Jan_19_0923,Reversal,3.2.4,59.97019482359056,
9,exp3.png,exp4.png,0,0,0,0,0,9,9,9,,,,,,,,,,,,,,,,,,,,,,,,,False,8,9,True,exp4.png,exp3.png,trial_right_image,-1,exp3.png,1,exp3.png,exp4.png,1,1,non-reversed,correct,0.29413616431067313,1,valid_win,47.87917689996539,7,,,,,,,,,,,s_045,1,2021_Jan_19_0923,Reversal,3.2.4,59.97019482359056,
10,exp1.png,exp2.png,0,0,0,0,0,10,10,10,,,,,,,,,,,,,,,,,,,,,,,,,False,9,10,False,exp1.png,exp2.png,trial_left_image,1,exp1.png,1,exp1.png,exp2.png,1,3,reversed,correct,0.37000158677125417,1,valid_win,52.8932313999976,8,,,,,,,,,,,s_045,1,2021_Jan_19_0923,Reversal,3.2.4,59.97019482359056,
11,exp3.png,exp4.png,0,0,0,0,0,11,11,11,,,,,,,,,,,,,,,,,,,,,,,,,False,10,11,False,exp3.png,exp4.png,trial_left_image,1,exp3.png,1,exp3.png,exp4.png,1,1,non-reversed,correct,0.3303528446520778,1,valid_win,57.95841349998955,9,,,,,,,,,,,s_045,1,2021_Jan_19_0923,Reversal,3.2.4,59.97019482359056,
12,exp1.png,exp2.png,0,0,0,0,0,12,12,12,,,,,,,,,,,,,,,,,,,,,,,,,False,11,12,True,exp2.png,exp1.png,trial_right_image,-1,exp1.png,1,exp1.png,exp2.png,1,3,reversed,correct,0.5708322807338476,1,valid_win,65.04112959996564,10,,,,,,,,,,,s_045,1,2021_Jan_19_0923,Reversal,3.2.4,59.97019482359056,
13,exp3.png,exp4.png,0,0,0,0,0,13,13,13,,,,,,,,,,,,,,,,,,,,,,,,,False,12,13,False,exp3.png,exp4.png,trial_left_image,1,exp3.png,1,exp3.png,exp4.png,1,1,non-reversed,correct,0.1307997047313817,0,invalid_lose,69.90483569999924,10,,,,,,,,,,,s_045,1,2021_Jan_19_0923,Reversal,3.2.4,59.97019482359056,
14,exp1.png,exp2.png,0,0,0,0,0,14,14,14,,,,,,,,,,,,,,,,,,,,,,,,,False,13,14,True,exp2.png,exp1.png,trial_right_image,-1,exp1.png,1,exp1.png,exp2.png,1,3,reversed,correct,0.7973909526150134,1,valid_win,75.35329329996603,11,,,,,,,,,,,s_045,1,2021_Jan_19_0923,Reversal,3.2.4,59.97019482359056,
15,exp3.png,exp4.png,0,0,0,0,0,15,15,15,,,,,,,,,,,,,,,,,,,,,,,,,False,14,15,True,exp4.png,exp3.png,trial_right_image,-1,exp3.png,1,exp3.png,exp4.png,1,1,non-reversed,correct,0.3435622775392221,1,valid_win,80.96758739999495,12,,,,,,,,,,,s_045,1,2021_Jan_19_0923,Reversal,3.2.4,59.97019482359056,
16,exp1.png,exp2.png,0,0,0,0,0,16,16,16,,,,,,,,,,,,,,,,,,,,,,,,,False,15,16,True,exp2.png,exp1.png,trial_right_image,-1,exp1.png,1,exp1.png,exp2.png,1,3,reversed,correct,0.3711621798730488,1,valid_win,86.44893029995728,13,,,,,,,,,,,s_045,1,2021_Jan_19_0923,Reversal,3.2.4,59.97019482359056,
17,exp3.png,exp4.png,0,0,0,0,0,17,17,17,,,,,,,,,,,,,,,,,,,,,,,,,False,16,17,True,exp4.png,exp3.png,trial_right_image,-1,exp3.png,1,exp3.png,exp4.png,1,1,non-reversed,correct,0.42308677475669854,1,valid_win,91.93065569997998,14,,,,,,,,,,,s_045,1,2021_Jan_19_0923,Reversal,3.2.4,59.97019482359056,
18,exp1.png,exp2.png,0,0,0,0,0,18,18,18,,,,,,,,,,,,,,,,,,,,,,,,,False,17,18,False,exp1.png,exp2.png,trial_left_image,1,exp1.png,1,exp1.png,exp2.png,1,3,reversed,correct,0.9652902360839039,1,valid_win,97.26250109996181,15,,,,,,,,,,,s_045,1,2021_Jan_19_0923,Reversal,3.2.4,59.97019482359056,
19,exp3.png,exp4.png,0,0,0,0,0,19,19,19,,,,,,,,,,,,,,,,,,,,,,,,,False,18,19,True,exp4.png,exp3.png,trial_right_image,-1,exp3.png,1,exp3.png,exp4.png,1,1,non-reversed,correct,0.05194876777704527,0,invalid_lose,102.16050969995558,15,,,,,,,,,,,s_045,1,2021_Jan_19_0923,Reversal,3.2.4,59.97019482359056,
20,exp1.png,exp2.png,0,0,0,0,0,20,20,20,,,,,,,,,,,,,,,,,,,,,,,,,False,19,20,False,exp1.png,exp2.png,trial_left_image,1,exp1.png,1,exp1.png,exp2.png,1,3,reversed,correct,0.1347998068867735,0,invalid_lose,107.8412216999568,15,,,,,,,,,,,s_045,1,2021_Jan_19_0923,Reversal,3.2.4,59.97019482359056,
,,,0,0,0,0,,,,,0,0,0,0,,,,,,,,,,,,,,,,,,,,,,,,,,,,,,,,,,,,,,,,,,90,11,62,26,,,,,,,s_045,1,2021_Jan_19_0923,Reversal,3.2.4,59.97019482359056,
0,exp1.png,exp2.png,1,0,1,0,0,0,0,0,,,,,,,,,,,,,,,,,,,,,,,,,True,,,,,,,,,,,,,,,,,,,,,,,,,,,,,,,s_045,1,2021_Jan_19_0923,Reversal,3.2.4,59.97019482359056,
1,exp3.png,exp4.png,1,0,1,0,0,1,1,1,,,,,,,,,,,,,,,,,,,,,,,,,False,20,21,True,exp4.png,exp3.png,trial_right_image,-1,exp3.png,1,exp3.png,exp4.png,1,1,non-reversed,correct,0.5103248120655115,1,valid_win,152.3611488000024,16,,,,,,,,,,,s_045,1,2021_Jan_19_0923,Reversal,3.2.4,59.97019482359056,
2,exp1.png,exp2.png,1,0,1,0,0,2,2,2,,,,,,,,,,,,,,,,,,,,,,,,,False,21,22,True,exp2.png,exp1.png,trial_right_image,-1,exp1.png,1,exp1.png,exp2.png,1,3,reversed,correct,0.1383257961381983,0,invalid_lose,157.84147719998145,16,,,,,,,,,,,s_045,1,2021_Jan_19_0923,Reversal,3.2.4,59.97019482359056,
3,exp3.png,exp4.png,1,0,1,0,0,3,3,3,,,,,,,,,,,,,,,,,,,,,,,,,False,22,23,True,exp4.png,exp3.png,trial_left_image,1,exp4.png,1,exp3.png,exp4.png,0,2,non-reversed,incorrect,0.7991840787063289,0,valid_lose,165.40602759999456,16,,,,,,,,,,,s_045,1,2021_Jan_19_0923,Reversal,3.2.4,59.97019482359056,
4,exp1.png,exp2.png,1,0,1,0,0,4,4,4,,,,,,,,,,,,,,,,,,,,,,,,,False,23,24,True,exp2.png,exp1.png,trial_right_image,-1,exp1.png,1,exp1.png,exp2.png,1,3,reversed,correct,0.5681170785477897,1,valid_win,174.8862436999916,17,,,,,,,,,,,s_045,1,2021_Jan_19_0923,Reversal,3.2.4,59.97019482359056,
5,exp3.png,exp4.png,1,0,1,0,0,5,5,5,,,,,,,,,,,,,,,,,,,,,,,,,False,24,25,False,exp3.png,exp4.png,trial_left_image,1,exp3.png,1,exp3.png,exp4.png,1,1,non-reversed,correct,0.2598457983045227,1,valid_win,181.68340919999173,18,,,,,,,,,,,s_045,1,2021_Jan_19_0923,Reversal,3.2.4,59.97019482359056,
6,exp1.png,exp2.png,1,0,1,0,0,6,6,6,,,,,,,,,,,,,,,,,,,,,,,,,False,25,26,False,exp1.png,exp2.png,trial_left_image,1,exp1.png,1,exp1.png,exp2.png,1,3,reversed,correct,0.2028509503113024,0,invalid_lose,188.14758220000658,18,,,,,,,,,,,s_045,1,2021_Jan_19_0923,Reversal,3.2.4,59.97019482359056,
7,exp3.png,exp4.png,1,0,1,0,0,7,7,7,,,,,,,,,,,,,,,,,,,,,,,,,False,26,27,True,exp4.png,exp3.png,trial_right_image,-1,exp3.png,1,exp3.png,exp4.png,1,1,non-reversed,correct,0.7983749640842355,1,valid_win,195.07821989996592,19,,,,,,,,,,,s_045,1,2021_Jan_19_0923,Reversal,3.2.4,59.97019482359056,
8,exp1.png,exp2.png,1,0,1,0,0,8,8,8,,,,,,,,,,,,,,,,,,,,,,,,,False,27,28,True,exp2.png,exp1.png,trial_left_image,1,exp2.png,1,exp1.png,exp2.png,0,4,reversed,incorrect,0.4419156028601814,0,valid_lose,205.14222360000713,19,,,,,,,,,,,s_045,1,2021_Jan_19_0923,Reversal,3.2.4,59.97019482359056,
9,exp3.png,exp4.png,1,0,1,0,0,9,9,9,,,,,,,,,,,,,,,,,,,,,,,,,False,28,29,True,exp4.png,exp3.png,trial_left_image,1,exp4.png,1,exp3.png,exp4.png,0,2,non-reversed,incorrect,0.5629261273256982,0,valid_lose,213.90658549999353,19,,,,,,,,,,,s_045,1,2021_Jan_19_0923,Reversal,3.2.4,59.97019482359056,
10,exp1.png,exp2.png,1,0,1,0,0,10,10,10,,,,,,,,,,,,,,,,,,,,,,,,,False,29,30,False,exp1.png,exp2.png,trial_left_image,1,exp1.png,1,exp1.png,exp2.png,1,3,reversed,correct,0.7965142629115534,1,valid_win,219.93776239996077,20,,,,,,,,,,,s_045,1,2021_Jan_19_0923,Reversal,3.2.4,59.97019482359056,
11,exp3.png,exp4.png,1,0,1,0,0,11,11,11,,,,,,,,,,,,,,,,,,,,,,,,,False,30,31,False,exp3.png,exp4.png,trial_left_image,1,exp3.png,1,exp3.png,exp4.png,1,1,non-reversed,correct,0.09634526642310204,0,invalid_lose,227.9674670000095,20,,,,,,,,,,,s_045,1,2021_Jan_19_0923,Reversal,3.2.4,59.97019482359056,
12,exp1.png,exp2.png,1,0,1,0,0,12,12,12,,,,,,,,,,,,,,,,,,,,,,,,,False,31,32,True,exp2.png,exp1.png,trial_right_image,-1,exp1.png,1,exp1.png,exp2.png,1,3,reversed,correct,0.07753930720664015,0,invalid_lose,235.61661609995645,20,,,,,,,,,,,s_045,1,2021_Jan_19_0923,Reversal,3.2.4,59.97019482359056,
13,exp3.png,exp4.png,1,0,1,0,0,13,13,13,,,,,,,,,,,,,,,,,,,,,,,,,False,32,33,True,exp4.png,exp3.png,trial_right_image,-1,exp3.png,1,exp3.png,exp4.png,1,1,non-reversed,correct,0.735818895787899,1,valid_win,244.66186880000168,21,,,,,,,,,,,s_045,1,2021_Jan_19_0923,Reversal,3.2.4,59.97019482359056,
14,exp1.png,exp2.png,1,0,1,0,0,14,14,14,,,,,,,,,,,,,,,,,,,,,,,,,False,33,34,False,exp1.png,exp2.png,trial_left_image,1,exp1.png,1,exp1.png,exp2.png,1,3,reversed,correct,0.4248135610041538,1,valid_win,250.36048949998803,22,,,,,,,,,,,s_045,1,2021_Jan_19_0923,Reversal,3.2.4,59.97019482359056,
15,exp3.png,exp4.png,1,0,1,0,0,15,15,15,,,,,,,,,,,,,,,,,,,,,,,,,False,34,35,False,exp3.png,exp4.png,trial_left_image,1,exp3.png,1,exp3.png,exp4.png,1,1,non-reversed,correct,0.5166326893663783,1,valid_win,263.7551969999913,23,,,,,,,,,,,s_045,1,2021_Jan_19_0923,Reversal,3.2.4,59.97019482359056,
16,exp1.png,exp2.png,1,0,1,0,0,16,16,16,,,,,,,,,,,,,,,,,,,,,,,,,False,35,36,False,exp1.png,exp2.png,trial_right_image,-1,exp2.png,1,exp1.png,exp2.png,0,4,reversed,incorrect,0.3626722094800574,0,valid_lose,276.60235739999916,23,,,,,,,,,,,s_045,1,2021_Jan_19_0923,Reversal,3.2.4,59.97019482359056,
17,exp3.png,exp4.png,1,0,1,0,0,17,17,17,,,,,,,,,,,,,,,,,,,,,,,,,False,36,37,True,exp4.png,exp3.png,trial_right_image,-1,exp3.png,1,exp3.png,exp4.png,1,1,non-reversed,correct,0.6360169897870892,1,valid_win,289.14775820000796,24,,,,,,,,,,,s_045,1,2021_Jan_19_0923,Reversal,3.2.4,59.97019482359056,
18,exp1.png,exp2.png,1,0,1,0,0,18,18,18,,,,,,,,,,,,,,,,,,,,,,,,,False,37,38,False,exp1.png,exp2.png,trial_left_image,1,exp1.png,1,exp1.png,exp2.png,1,3,reversed,correct,0.6095637025258008,1,valid_win,294.6774284999701,25,,,,,,,,,,,s_045,1,2021_Jan_19_0923,Reversal,3.2.4,59.97019482359056,
19,exp3.png,exp4.png,1,0,1,0,0,19,19,19,,,,,,,,,,,,,,,,,,,,,,,,,False,38,39,False,exp3.png,exp4.png,trial_left_image,1,exp3.png,1,exp3.png,exp4.png,1,1,non-reversed,correct,0.12470694434956309,0,invalid_lose,301.3423915999592,25,,,,,,,,,,,s_045,1,2021_Jan_19_0923,Reversal,3.2.4,59.97019482359056,
20,exp1.png,exp2.png,1,0,1,0,0,20,20,20,,,,,,,,,,,,,,,,,,,,,,,,,False,39,40,False,exp1.png,exp2.png,trial_left_image,1,exp1.png,1,exp1.png,exp2.png,1,3,reversed,correct,0.1838277793314329,0,invalid_lose,306.85900830000173,25,,,,,,,,,,,s_045,1,2021_Jan_19_0923,Reversal,3.2.4,59.97019482359056,
,,,1,0,1,0,,,,,0,0,0,0,,,,,,,,,,,,,,,,,,,,,,,,,,,,,,,,,,,,,,,,,,65,27,67,16,,,,,,,s_045,1,2021_Jan_19_0923,Reversal,3.2.4,59.97019482359056,
0,exp1.png,exp2.png,2,0,2,0,0,0,0,0,,,,,,,,,,,,,,,,,,,,,,,,,True,,,,,,,,,,,,,,,,,,,,,,,,,,,,,,,s_045,1,2021_Jan_19_0923,Reversal,3.2.4,59.97019482359056,
1,exp3.png,exp4.png,2,0,2,0,0,1,1,1,,,,,,,,,,,,,,,,,,,,,,,,,False,40,41,True,exp4.png,exp3.png,trial_right_image,-1,exp3.png,1,exp3.png,exp4.png,1,1,non-reversed,correct,0.4914877520196127,1,valid_win,337.1807678999612,26,,,,,,,,,,,s_045,1,2021_Jan_19_0923,Reversal,3.2.4,59.97019482359056,
2,exp1.png,exp2.png,2,0,2,0,0,2,2,2,,,,,,,,,,,,,,,,,,,,,,,,,False,41,42,True,exp2.png,exp1.png,trial_right_image,-1,exp1.png,1,exp1.png,exp2.png,1,3,reversed,correct,0.8057815670700199,1,valid_win,344.19595789996674,27,,,,,,,,,,,s_045,1,2021_Jan_19_0923,Reversal,3.2.4,59.97019482359056,
3,exp3.png,exp4.png,2,0,2,0,0,3,3,3,,,,,,,,,,,,,,,,,,,,,,,,,False,42,43,False,exp3.png,exp4.png,trial_left_image,1,exp3.png,1,exp3.png,exp4.png,1,1,non-reversed,correct,0.1615534432365584,0,invalid_lose,348.8602434999775,27,,,,,,,,,,,s_045,1,2021_Jan_19_0923,Reversal,3.2.4,59.97019482359056,
4,exp1.png,exp2.png,2,0,2,0,0,4,4,4,,,,,,,,,,,,,,,,,,,,,,,,,False,43,44,False,exp1.png,exp2.png,trial_left_image,1,exp1.png,1,exp1.png,exp2.png,1,3,reversed,correct,0.8727214615152096,1,valid_win,354.0258431999828,28,,,,,,,,,,,s_045,1,2021_Jan_19_0923,Reversal,3.2.4,59.97019482359056,
5,exp3.png,exp4.png,2,0,2,0,0,5,5,5,,,,,,,,,,,,,,,,,,,,,,,,,False,44,45,True,exp4.png,exp3.png,trial_right_image,-1,exp3.png,1,exp3.png,exp4.png,1,1,non-reversed,correct,0.31875018397628163,1,valid_win,358.6903369000065,29,,,,,,,,,,,s_045,1,2021_Jan_19_0923,Reversal,3.2.4,59.97019482359056,
6,exp1.png,exp2.png,2,0,2,0,0,6,6,6,,,,,,,,,,,,,,,,,,,,,,,,,False,45,46,False,exp1.png,exp2.png,trial_left_image,1,exp1.png,1,exp1.png,exp2.png,1,3,reversed,correct,0.7562401482019546,1,valid_win,363.6552517999662,30,,,,,,,,,,,s_045,1,2021_Jan_19_0923,Reversal,3.2.4,59.97019482359056,
7,exp3.png,exp4.png,2,0,2,0,0,7,7,7,,,,,,,,,,,,,,,,,,,,,,,,,False,46,47,False,exp3.png,exp4.png,trial_left_image,1,exp3.png,1,exp3.png,exp4.png,1,1,non-reversed,correct,0.5701470846165407,1,valid_win,368.6028864000109,31,,,,,,,,,,,s_045,1,2021_Jan_19_0923,Reversal,3.2.4,59.97019482359056,
8,exp1.png,exp2.png,2,0,2,0,0,8,8,8,,,,,,,,,,,,,,,,,,,,,,,,,False,47,48,True,exp2.png,exp1.png,trial_right_image,-1,exp1.png,1,exp1.png,exp2.png,1,3,reversed,correct,0.599454937261947,1,valid_win,373.38549610000337,32,,,,,,,,,,,s_045,1,2021_Jan_19_0923,Reversal,3.2.4,59.97019482359056,
9,exp3.png,exp4.png,2,0,2,0,0,9,9,9,,,,,,,,,,,,,,,,,,,,,,,,,False,48,49,False,exp3.png,exp4.png,trial_left_image,1,exp3.png,1,exp3.png,exp4.png,1,1,non-reversed,correct,0.6327687641525017,1,valid_win,377.8345136999851,33,,,,,,,,,,,s_045,1,2021_Jan_19_0923,Reversal,3.2.4,59.97019482359056,
10,exp1.png,exp2.png,2,0,2,0,0,10,10,10,,,,,,,,,,,,,,,,,,,,,,,,,False,49,50,False,exp1.png,exp2.png,trial_left_image,1,exp1.png,1,exp1.png,exp2.png,1,3,reversed,correct,0.6018659654347548,1,valid_win,382.2988850999973,34,,,,,,,,,,,s_045,1,2021_Jan_19_0923,Reversal,3.2.4,59.97019482359056,
11,exp3.png,exp4.png,2,0,2,0,0,11,11,11,,,,,,,,,,,,,,,,,,,,,,,,,False,50,51,False,exp3.png,exp4.png,trial_left_image,1,exp3.png,1,exp3.png,exp4.png,1,1,non-reversed,correct,0.6512088881116372,1,valid_win,388.3638385999948,35,,,,,,,,,,,s_045,1,2021_Jan_19_0923,Reversal,3.2.4,59.97019482359056,
12,exp1.png,exp2.png,2,0,2,0,0,12,12,12,,,,,,,,,,,,,,,,,,,,,,,,,False,51,52,False,exp1.png,exp2.png,trial_left_image,1,exp1.png,1,exp1.png,exp2.png,1,3,reversed,correct,0.9900299446653807,1,valid_win,392.96208249998745,36,,,,,,,,,,,s_045,1,2021_Jan_19_0923,Reversal,3.2.4,59.97019482359056,
13,exp3.png,exp4.png,2,0,2,0,0,13,13,13,,,,,,,,,,,,,,,,,,,,,,,,,False,52,53,True,exp4.png,exp3.png,trial_right_image,-1,exp3.png,1,exp3.png,exp4.png,1,1,non-reversed,correct,0.4417327511161735,1,valid_win,397.2613332999754,37,,,,,,,,,,,s_045,1,2021_Jan_19_0923,Reversal,3.2.4,59.97019482359056,
14,exp1.png,exp2.png,2,0,2,0,0,14,14,14,,,,,,,,,,,,,,,,,,,,,,,,,False,53,54,True,exp2.png,exp1.png,trial_right_image,-1,exp1.png,1,exp1.png,exp2.png,1,3,reversed,correct,0.45172568686470826,1,valid_win,401.7763823000132,38,,,,,,,,,,,s_045,1,2021_Jan_19_0923,Reversal,3.2.4,59.97019482359056,
15,exp3.png,exp4.png,2,0,2,0,0,15,15,15,,,,,,,,,,,,,,,,,,,,,,,,,False,54,55,True,exp4.png,exp3.png,trial_right_image,-1,exp3.png,1,exp3.png,exp4.png,1,1,non-reversed,correct,0.013646818494963298,0,invalid_lose,406.43983379995916,38,,,,,,,,,,,s_045,1,2021_Jan_19_0923,Reversal,3.2.4,59.97019482359056,
16,exp1.png,exp2.png,2,0,2,0,0,16,16,16,,,,,,,,,,,,,,,,,,,,,,,,,False,55,56,False,exp1.png,exp2.png,trial_left_image,1,exp1.png,1,exp1.png,exp2.png,1,3,reversed,correct,0.7588301685566553,1,valid_win,412.38904639997054,39,,,,,,,,,,,s_045,1,2021_Jan_19_0923,Reversal,3.2.4,59.97019482359056,
17,exp3.png,exp4.png,2,0,2,0,0,17,17,17,,,,,,,,,,,,,,,,,,,,,,,,,False,56,57,True,exp4.png,exp3.png,trial_right_image,-1,exp3.png,1,exp3.png,exp4.png,1,1,non-reversed,correct,0.9930458396359196,1,valid_win,416.6039905999787,40,,,,,,,,,,,s_045,1,2021_Jan_19_0923,Reversal,3.2.4,59.97019482359056,
18,exp1.png,exp2.png,2,0,2,0,0,18,18,18,,,,,,,,,,,,,,,,,,,,,,,,,False,57,58,True,exp2.png,exp1.png,trial_right_image,-1,exp1.png,1,exp1.png,exp2.png,1,3,reversed,correct,0.7245362566775679,1,valid_win,421.45283849997213,41,,,,,,,,,,,s_045,1,2021_Jan_19_0923,Reversal,3.2.4,59.97019482359056,
19,exp3.png,exp4.png,2,0,2,0,0,19,19,19,,,,,,,,,,,,,,,,,,,,,,,,,False,58,59,False,exp3.png,exp4.png,trial_left_image,1,exp3.png,1,exp3.png,exp4.png,1,1,non-reversed,correct,0.8516284826866899,1,valid_win,426.3180790999904,42,,,,,,,,,,,s_045,1,2021_Jan_19_0923,Reversal,3.2.4,59.97019482359056,
20,exp1.png,exp2.png,2,0,2,0,0,20,20,20,,,,,,,,,,,,,,,,,,,,,,,,,False,59,60,True,exp2.png,exp1.png,trial_right_image,-1,exp1.png,1,exp1.png,exp2.png,1,3,reversed,correct,0.17853881204138966,0,invalid_lose,431.8830237999791,42,,,,,,,,,,,s_045,1,2021_Jan_19_0923,Reversal,3.2.4,59.97019482359056,
,,,2,0,2,0,,,,,0,0,0,0,,,,,,,,,,,,,,,,,,,,,,,,,,,,,,,,,,,,,,,,,,84,12,77,15,,,,,,,s_045,1,2021_Jan_19_0923,Reversal,3.2.4,59.97019482359056,
0,exp1.png,exp2.png,,,,,,,,,,,,,,,,,0,0,0,0,0,0,0,0,,,,,,,,,True,,,,,,,,,,,,,,,,,,,,,,,,,,,,,,,s_045,1,2021_Jan_19_0923,Reversal,3.2.4,59.97019482359056,
1,exp3.png,exp4.png,,,,,,,,,,,,,,,,,0,0,0,0,0,1,1,1,,,,,,,,,False,0,61,True,exp4.png,exp3.png,trial_right_image,-1,exp3.png,1,exp3.png,exp4.png,1,1,non-reversed,correct,0.07484175385510727,0,invalid_lose,457.72384289995534,42,,,,,454.8266693999758,,,,,,s_045,1,2021_Jan_19_0923,Reversal,3.2.4,59.97019482359056,
2,exp1.png,exp2.png,,,,,,,,,,,,,,,,,0,0,0,0,0,2,2,2,,,,,,,,,False,1,62,False,exp1.png,exp2.png,trial_left_image,1,exp1.png,1,exp2.png,exp1.png,1,3,reversed,incorrect,0.9231532244754985,0,valid_lose,462.73964149999665,42,,,,,,,,,,,s_045,1,2021_Jan_19_0923,Reversal,3.2.4,59.97019482359056,
3,exp3.png,exp4.png,,,,,,,,,,,,,,,,,0,0,0,0,0,3,3,3,,,,,,,,,False,2,63,False,exp3.png,exp4.png,trial_left_image,1,exp3.png,1,exp3.png,exp4.png,1,1,non-reversed,correct,0.724253497899777,1,valid_win,467.3705997999641,43,,,,,,,,,,,s_045,1,2021_Jan_19_0923,Reversal,3.2.4,59.97019482359056,
4,exp1.png,exp2.png,,,,,,,,,,,,,,,,,0,0,0,0,0,4,4,4,,,,,,,,,False,3,64,False,exp1.png,exp2.png,trial_left_image,1,exp1.png,1,exp2.png,exp1.png,1,3,reversed,incorrect,0.6628269969915893,0,valid_lose,471.7194865999627,43,,,,,,,,,,,s_045,1,2021_Jan_19_0923,Reversal,3.2.4,59.97019482359056,
5,exp3.png,exp4.png,,,,,,,,,,,,,,,,,0,0,0,0,0,5,5,5,,,,,,,,,False,4,65,False,exp3.png,exp4.png,trial_left_image,1,exp3.png,1,exp3.png,exp4.png,1,1,non-reversed,correct,0.26717118905304427,1,valid_win,476.38446249999106,44,,,,,,,,,,,s_045,1,2021_Jan_19_0923,Reversal,3.2.4,59.97019482359056,
6,exp1.png,exp2.png,,,,,,,,,,,,,,,,,0,0,0,0,0,6,6,6,,,,,,,,,False,5,66,True,exp2.png,exp1.png,trial_right_image,-1,exp1.png,1,exp2.png,exp1.png,1,3,reversed,incorrect,0.9645964162067948,0,valid_lose,480.6644828999997,44,,,,,,,,,,,s_045,1,2021_Jan_19_0923,Reversal,3.2.4,59.97019482359056,
7,exp3.png,exp4.png,,,,,,,,,,,,,,,,,0,0,0,0,0,7,7,7,,,,,,,,,False,6,67,True,exp4.png,exp3.png,trial_left_image,1,exp4.png,1,exp3.png,exp4.png,0,2,non-reversed,incorrect,0.1057302899968815,1,invalid_win,486.29699359997176,45,,,,,,,,,,,s_045,1,2021_Jan_19_0923,Reversal,3.2.4,59.97019482359056,
8,exp1.png,exp2.png,,,,,,,,,,,,,,,,,0,0,0,0,0,8,8,8,,,,,,,,,False,7,68,True,exp2.png,exp1.png,trial_left_image,1,exp2.png,1,exp2.png,exp1.png,0,4,reversed,correct,0.5080956098862767,1,valid_win,490.8458127999911,46,,,,,,,,,,,s_045,1,2021_Jan_19_0923,Reversal,3.2.4,59.97019482359056,
9,exp3.png,exp4.png,,,,,,,,,,,,,,,,,0,0,0,0,0,9,9,9,,,,,,,,,False,8,69,True,exp4.png,exp3.png,trial_left_image,1,exp4.png,1,exp3.png,exp4.png,0,2,non-reversed,incorrect,0.1883061024529522,1,invalid_win,495.3947889999836,47,,,,,,,,,,,s_045,1,2021_Jan_19_0923,Reversal,3.2.4,59.97019482359056,
10,exp1.png,exp2.png,,,,,,,,,,,,,,,,,0,0,0,0,0,10,10,10,,,,,,,,,False,9,70,True,exp2.png,exp1.png,trial_left_image,1,exp2.png,1,exp2.png,exp1.png,0,4,reversed,correct,0.6413117239503214,1,valid_win,499.85871900001075,48,,,,,,,,,,,s_045,1,2021_Jan_19_0923,Reversal,3.2.4,59.97019482359056,
11,exp3.png,exp4.png,,,,,,,,,,,,,,,,,0,0,0,0,0,11,11,11,,,,,,,,,False,10,71,False,exp3.png,exp4.png,trial_right_image,-1,exp4.png,1,exp3.png,exp4.png,0,2,non-reversed,incorrect,0.19115086438325068,1,invalid_win,503.92436479998287,49,,,,,,,,,,,s_045,1,2021_Jan_19_0923,Reversal,3.2.4,59.97019482359056,
12,exp1.png,exp2.png,,,,,,,,,,,,,,,,,0,0,0,0,0,12,12,12,,,,,,,,,False,11,72,False,exp1.png,exp2.png,trial_right_image,-1,exp2.png,1,exp2.png,exp1.png,0,4,reversed,correct,0.22471979499979722,0,invalid_lose,508.20692609995604,49,,,,,,,,,,,s_045,1,2021_Jan_19_0923,Reversal,3.2.4,59.97019482359056,
13,exp3.png,exp4.png,,,,,,,,,,,,,,,,,0,0,0,0,0,13,13,13,,,,,,,,,False,12,73,False,exp3.png,exp4.png,trial_right_image,-1,exp4.png,1,exp3.png,exp4.png,0,2,non-reversed,incorrect,0.7899016376988809,0,valid_lose,512.8884614999988,49,,,,,,,,,,,s_045,1,2021_Jan_19_0923,Reversal,3.2.4,59.97019482359056,
14,exp1.png,exp2.png,,,,,,,,,,,,,,,,,0,0,0,0,0,14,14,14,,,,,,,,,False,13,74,False,exp1.png,exp2.png,trial_right_image,-1,exp2.png,1,exp2.png,exp1.png,0,4,reversed,correct,0.1659779548523005,0,invalid_lose,517.569015099958,49,,,,,,,,,,,s_045,1,2021_Jan_19_0923,Reversal,3.2.4,59.97019482359056,
15,exp3.png,exp4.png,,,,,,,,,,,,,,,,,0,0,0,0,0,15,15,15,,,,,,,,,False,14,75,True,exp4.png,exp3.png,trial_right_image,-1,exp3.png,1,exp3.png,exp4.png,1,1,non-reversed,correct,0.40240341657275003,1,valid_win,522.1513585000066,50,,,,,,,,,,,s_045,1,2021_Jan_19_0923,Reversal,3.2.4,59.97019482359056,
16,exp1.png,exp2.png,,,,,,,,,,,,,,,,,0,0,0,0,0,16,16,16,,,,,,,,,False,15,76,True,exp2.png,exp1.png,trial_right_image,-1,exp1.png,1,exp2.png,exp1.png,1,3,reversed,incorrect,0.5465682495424623,0,valid_lose,526.7505110999919,50,,,,,,,,,,,s_045,1,2021_Jan_19_0923,Reversal,3.2.4,59.97019482359056,
17,exp3.png,exp4.png,,,,,,,,,,,,,,,,,0,0,0,0,0,17,17,17,,,,,,,,,False,16,77,True,exp4.png,exp3.png,trial_right_image,-1,exp3.png,1,exp3.png,exp4.png,1,1,non-reversed,correct,0.7827057955039001,1,valid_win,531.4322539999848,51,,,,,,,,,,,s_045,1,2021_Jan_19_0923,Reversal,3.2.4,59.97019482359056,
18,exp1.png,exp2.png,,,,,,,,,,,,,,,,,0,0,0,0,0,18,18,18,,,,,,,,,False,17,78,True,exp2.png,exp1.png,trial_right_image,-1,exp1.png,1,exp2.png,exp1.png,1,3,reversed,incorrect,0.40709227686576965,0,valid_lose,535.6965467999689,51,,,,,,,,,,,s_045,1,2021_Jan_19_0923,Reversal,3.2.4,59.97019482359056,
19,exp3.png,exp4.png,,,,,,,,,,,,,,,,,0,0,0,0,0,19,19,19,,,,,,,,,False,18,79,False,exp3.png,exp4.png,trial_left_image,1,exp3.png,1,exp3.png,exp4.png,1,1,non-reversed,correct,0.19526584786687562,0,invalid_lose,542.9946714999969,51,,,,,,,,,,,s_045,1,2021_Jan_19_0923,Reversal,3.2.4,59.97019482359056,
20,exp1.png,exp2.png,,,,,,,,,,,,,,,,,0,0,0,0,0,20,20,20,,,,,,,,,False,19,80,False,exp1.png,exp2.png,trial_left_image,1,exp1.png,1,exp2.png,exp1.png,1,3,reversed,incorrect,0.20679924066741373,1,invalid_win,548.1424906000029,52,,,,,,,,,,,s_045,1,2021_Jan_19_0923,Reversal,3.2.4,59.97019482359056,
,,,,,,,,,,,,,,,,,,,0,0,0,0,,,,,0,0,0,0,,,,,,,,,,,,,,,,,,,,,,,,,,50.0,50.0,50.0,50.0,,,,,,,s_045,1,2021_Jan_19_0923,Reversal,3.2.4,59.97019482359056,
0,exp1.png,exp2.png,,,,,,,,,,,,,,,,,1,0,1,0,0,0,0,0,,,,,,,,,True,,,,,,,,,,,,,,,,,,,,,,,,,,,,,,,s_045,1,2021_Jan_19_0923,Reversal,3.2.4,59.97019482359056,
1,exp3.png,exp4.png,,,,,,,,,,,,,,,,,1,0,1,0,0,1,1,1,,,,,,,,,False,20,81,True,exp4.png,exp3.png,trial_right_image,-1,exp3.png,1,exp3.png,exp4.png,1,1,non-reversed,correct,0.9521660883635591,1,valid_win,560.7209493999835,53,,,,,,,,,,,s_045,1,2021_Jan_19_0923,Reversal,3.2.4,59.97019482359056,
2,exp1.png,exp2.png,,,,,,,,,,,,,,,,,1,0,1,0,0,2,2,2,,,,,,,,,False,21,82,True,exp2.png,exp1.png,trial_right_image,-1,exp1.png,1,exp2.png,exp1.png,1,3,reversed,incorrect,0.6389291032764333,0,valid_lose,565.8042552999686,53,,,,,,,,,,,s_045,1,2021_Jan_19_0923,Reversal,3.2.4,59.97019482359056,
3,exp3.png,exp4.png,,,,,,,,,,,,,,,,,1,0,1,0,0,3,3,3,,,,,,,,,False,22,83,False,exp3.png,exp4.png,trial_right_image,-1,exp4.png,1,exp3.png,exp4.png,0,2,non-reversed,incorrect,0.0003267492559331231,1,invalid_win,570.8860318000079,54,,,,,,,,,,,s_045,1,2021_Jan_19_0923,Reversal,3.2.4,59.97019482359056,
4,exp1.png,exp2.png,,,,,,,,,,,,,,,,,1,0,1,0,0,4,4,4,,,,,,,,,False,23,84,True,exp2.png,exp1.png,trial_right_image,-1,exp1.png,1,exp2.png,exp1.png,1,3,reversed,incorrect,0.7176058110840668,0,valid_lose,576.2833049999899,54,,,,,,,,,,,s_045,1,2021_Jan_19_0923,Reversal,3.2.4,59.97019482359056,
5,exp3.png,exp4.png,,,,,,,,,,,,,,,,,1,0,1,0,0,5,5,5,,,,,,,,,False,24,85,False,exp3.png,exp4.png,trial_right_image,-1,exp4.png,1,exp3.png,exp4.png,0,2,non-reversed,incorrect,0.4151442450781351,0,valid_lose,581.564880299964,54,,,,,,,,,,,s_045,1,2021_Jan_19_0923,Reversal,3.2.4,59.97019482359056,
6,exp1.png,exp2.png,,,,,,,,,,,,,,,,,1,0,1,0,0,6,6,6,,,,,,,,,False,25,86,True,exp2.png,exp1.png,trial_left_image,1,exp2.png,1,exp2.png,exp1.png,0,4,reversed,correct,0.34949676883952263,1,valid_win,587.3457570999744,55,,,,,,,,,,,s_045,1,2021_Jan_19_0923,Reversal,3.2.4,59.97019482359056,
7,exp3.png,exp4.png,,,,,,,,,,,,,,,,,1,0,1,0,0,7,7,7,,,,,,,,,False,26,87,False,exp3.png,exp4.png,trial_right_image,-1,exp4.png,1,exp3.png,exp4.png,0,2,non-reversed,incorrect,0.03442439175503098,1,invalid_win,591.5605943999835,56,,,,,,,,,,,s_045,1,2021_Jan_19_0923,Reversal,3.2.4,59.97019482359056,
8,exp1.png,exp2.png,,,,,,,,,,,,,,,,,1,0,1,0,0,8,8,8,,,,,,,,,False,27,88,False,exp1.png,exp2.png,trial_right_image,-1,exp2.png,1,exp2.png,exp1.png,0,4,reversed,correct,0.9278864515509917,1,valid_win,595.8934764000005,57,,,,,,,,,,,s_045,1,2021_Jan_19_0923,Reversal,3.2.4,59.97019482359056,
9,exp3.png,exp4.png,,,,,,,,,,,,,,,,,1,0,1,0,0,9,9,9,,,,,,,,,False,28,89,False,exp3.png,exp4.png,trial_left_image,1,exp3.png,1,exp3.png,exp4.png,1,1,non-reversed,correct,0.6199084542105917,1,valid_win,600.2253531999886,58,,,,,,,,,,,s_045,1,2021_Jan_19_0923,Reversal,3.2.4,59.97019482359056,
10,exp1.png,exp2.png,,,,,,,,,,,,,,,,,1,0,1,0,0,10,10,10,,,,,,,,,False,29,90,False,exp1.png,exp2.png,trial_right_image,-1,exp2.png,1,exp2.png,exp1.png,0,4,reversed,correct,0.19330414638054072,0,invalid_lose,604.5736668999889,58,,,,,,,,,,,s_045,1,2021_Jan_19_0923,Reversal,3.2.4,59.97019482359056,
11,exp3.png,exp4.png,,,,,,,,,,,,,,,,,1,0,1,0,0,11,11,11,,,,,,,,,False,30,91,True,exp4.png,exp3.png,trial_right_image,-1,exp3.png,1,exp3.png,exp4.png,1,1,non-reversed,correct,0.7366181803741167,1,valid_win,610.4707507999847,59,,,,,,,,,,,s_045,1,2021_Jan_19_0923,Reversal,3.2.4,59.97019482359056,
12,exp1.png,exp2.png,,,,,,,,,,,,,,,,,1,0,1,0,0,12,12,12,,,,,,,,,False,31,92,False,exp1.png,exp2.png,trial_left_image,1,exp1.png,1,exp2.png,exp1.png,1,3,reversed,incorrect,0.8505022452600915,0,valid_lose,614.7367001000093,59,,,,,,,,,,,s_045,1,2021_Jan_19_0923,Reversal,3.2.4,59.97019482359056,
13,exp3.png,exp4.png,,,,,,,,,,,,,,,,,1,0,1,0,0,13,13,13,,,,,,,,,False,32,93,True,exp4.png,exp3.png,trial_right_image,-1,exp3.png,1,exp3.png,exp4.png,1,1,non-reversed,correct,0.33605308375959597,1,valid_win,619.6009363000048,60,,,,,,,,,,,s_045,1,2021_Jan_19_0923,Reversal,3.2.4,59.97019482359056,
14,exp1.png,exp2.png,,,,,,,,,,,,,,,,,1,0,1,0,0,14,14,14,,,,,,,,,False,33,94,True,exp2.png,exp1.png,trial_left_image,1,exp2.png,1,exp2.png,exp1.png,0,4,reversed,correct,0.07847611043511904,0,invalid_lose,625.3008085999754,60,,,,,,,,,,,s_045,1,2021_Jan_19_0923,Reversal,3.2.4,59.97019482359056,
15,exp3.png,exp4.png,,,,,,,,,,,,,,,,,1,0,1,0,0,15,15,15,,,,,,,,,False,34,95,False,exp3.png,exp4.png,trial_left_image,1,exp3.png,1,exp3.png,exp4.png,1,1,non-reversed,correct,0.8266768529442875,1,valid_win,630.5322337999824,61,,,,,,,,,,,s_045,1,2021_Jan_19_0923,Reversal,3.2.4,59.97019482359056,
16,exp1.png,exp2.png,,,,,,,,,,,,,,,,,1,0,1,0,0,16,16,16,,,,,,,,,False,35,96,False,exp1.png,exp2.png,trial_left_image,1,exp1.png,1,exp2.png,exp1.png,1,3,reversed,incorrect,0.6858672230658378,0,valid_lose,636.0806938000023,61,,,,,,,,,,,s_045,1,2021_Jan_19_0923,Reversal,3.2.4,59.97019482359056,
17,exp3.png,exp4.png,,,,,,,,,,,,,,,,,1,0,1,0,0,17,17,17,,,,,,,,,False,36,97,False,exp3.png,exp4.png,trial_left_image,1,exp3.png,1,exp3.png,exp4.png,1,1,non-reversed,correct,0.31386992026711824,1,valid_win,642.0939698999864,62,,,,,,,,,,,s_045,1,2021_Jan_19_0923,Reversal,3.2.4,59.97019482359056,
18,exp1.png,exp2.png,,,,,,,,,,,,,,,,,1,0,1,0,0,18,18,18,,,,,,,,,False,37,98,True,exp2.png,exp1.png,trial_right_image,-1,exp1.png,1,exp2.png,exp1.png,1,3,reversed,incorrect,0.7927435342961945,0,valid_lose,646.7594044999569,62,,,,,,,,,,,s_045,1,2021_Jan_19_0923,Reversal,3.2.4,59.97019482359056,
19,exp3.png,exp4.png,,,,,,,,,,,,,,,,,1,0,1,0,0,19,19,19,,,,,,,,,False,38,99,True,exp4.png,exp3.png,trial_right_image,-1,exp3.png,1,exp3.png,exp4.png,1,1,non-reversed,correct,0.12824548302843786,0,invalid_lose,654.3068467999692,62,,,,,,,,,,,s_045,1,2021_Jan_19_0923,Reversal,3.2.4,59.97019482359056,
20,exp1.png,exp2.png,,,,,,,,,,,,,,,,,1,0,1,0,0,20,20,20,,,,,,,,,False,39,100,True,exp2.png,exp1.png,trial_right_image,-1,exp1.png,1,exp2.png,exp1.png,1,3,reversed,incorrect,0.556847541054643,0,valid_lose,659.921974900004,62,,,,,,,,,,,s_045,1,2021_Jan_19_0923,Reversal,3.2.4,59.97019482359056,
,,,,,,,,,,,,,,,,,,,1,0,1,0,,,,,0,0,0,0,,,,,,,,,,,,,,,,,,,,,,,,,,24,60,37,18,,,,,,,s_045,1,2021_Jan_19_0923,Reversal,3.2.4,59.97019482359056,
0,exp1.png,exp2.png,,,,,,,,,,,,,,,,,2,0,2,0,0,0,0,0,,,,,,,,,True,,,,,,,,,,,,,,,,,,,,,,,,,,,,,,,s_045,1,2021_Jan_19_0923,Reversal,3.2.4,59.97019482359056,
1,exp3.png,exp4.png,,,,,,,,,,,,,,,,,2,0,2,0,0,1,1,1,,,,,,,,,False,40,101,False,exp3.png,exp4.png,trial_left_image,1,exp3.png,1,exp3.png,exp4.png,1,1,non-reversed,correct,0.6049917985424769,1,valid_win,679.7305634999648,63,,,,,,,,,,,s_045,1,2021_Jan_19_0923,Reversal,3.2.4,59.97019482359056,
2,exp1.png,exp2.png,,,,,,,,,,,,,,,,,2,0,2,0,0,2,2,2,,,,,,,,,False,41,102,False,exp1.png,exp2.png,trial_left_image,1,exp1.png,1,exp2.png,exp1.png,1,3,reversed,incorrect,0.8555498532637911,0,valid_lose,685.0132999999914,63,,,,,,,,,,,s_045,1,2021_Jan_19_0923,Reversal,3.2.4,59.97019482359056,
3,exp3.png,exp4.png,,,,,,,,,,,,,,,,,2,0,2,0,0,3,3,3,,,,,,,,,False,42,103,False,exp3.png,exp4.png,trial_left_image,1,exp3.png,1,exp3.png,exp4.png,1,1,non-reversed,correct,0.47907419384409866,1,valid_win,689.8275125999935,64,,,,,,,,,,,s_045,1,2021_Jan_19_0923,Reversal,3.2.4,59.97019482359056,
4,exp1.png,exp2.png,,,,,,,,,,,,,,,,,2,0,2,0,0,4,4,4,,,,,,,,,False,43,104,False,exp1.png,exp2.png,trial_right_image,-1,exp2.png,1,exp2.png,exp1.png,0,4,reversed,correct,0.6690782277810956,1,valid_win,694.3264557999792,65,,,,,,,,,,,s_045,1,2021_Jan_19_0923,Reversal,3.2.4,59.97019482359056,
5,exp3.png,exp4.png,,,,,,,,,,,,,,,,,2,0,2,0,0,5,5,5,,,,,,,,,False,44,105,True,exp4.png,exp3.png,trial_right_image,-1,exp3.png,1,exp3.png,exp4.png,1,1,non-reversed,correct,0.003557461911376736,0,invalid_lose,699.0913942999905,65,,,,,,,,,,,s_045,1,2021_Jan_19_0923,Reversal,3.2.4,59.97019482359056,
6,exp1.png,exp2.png,,,,,,,,,,,,,,,,,2,0,2,0,0,6,6,6,,,,,,,,,False,45,106,False,exp1.png,exp2.png,trial_right_image,-1,exp2.png,1,exp2.png,exp1.png,0,4,reversed,correct,0.04522104402938498,0,invalid_lose,704.7569992999779,65,,,,,,,,,,,s_045,1,2021_Jan_19_0923,Reversal,3.2.4,59.97019482359056,
7,exp3.png,exp4.png,,,,,,,,,,,,,,,,,2,0,2,0,0,7,7,7,,,,,,,,,False,46,107,True,exp4.png,exp3.png,trial_left_image,1,exp4.png,1,exp3.png,exp4.png,0,2,non-reversed,incorrect,0.39583173843324004,0,valid_lose,710.438274199958,65,,,,,,,,,,,s_045,1,2021_Jan_19_0923,Reversal,3.2.4,59.97019482359056,
8,exp1.png,exp2.png,,,,,,,,,,,,,,,,,2,0,2,0,0,8,8,8,,,,,,,,,False,47,108,True,exp2.png,exp1.png,trial_right_image,-1,exp1.png,1,exp2.png,exp1.png,1,3,reversed,incorrect,0.7290352644224175,0,valid_lose,716.5857072999934,65,,,,,,,,,,,s_045,1,2021_Jan_19_0923,Reversal,3.2.4,59.97019482359056,
9,exp3.png,exp4.png,,,,,,,,,,,,,,,,,2,0,2,0,0,9,9,9,,,,,,,,,False,48,109,False,exp3.png,exp4.png,trial_left_image,1,exp3.png,1,exp3.png,exp4.png,1,1,non-reversed,correct,0.20498726774711928,0,invalid_lose,722.3341637999984,65,,,,,,,,,,,s_045,1,2021_Jan_19_0923,Reversal,3.2.4,59.97019482359056,
10,exp1.png,exp2.png,,,,,,,,,,,,,,,,,2,0,2,0,0,10,10,10,,,,,,,,,False,49,110,False,exp1.png,exp2.png,trial_left_image,1,exp1.png,1,exp2.png,exp1.png,1,3,reversed,incorrect,0.15818170822909938,1,invalid_win,727.6482505999738,66,,,,,,,,,,,s_045,1,2021_Jan_19_0923,Reversal,3.2.4,59.97019482359056,
11,exp3.png,exp4.png,,,,,,,,,,,,,,,,,2,0,2,0,0,11,11,11,,,,,,,,,False,50,111,True,exp4.png,exp3.png,trial_right_image,-1,exp3.png,1,exp3.png,exp4.png,1,1,non-reversed,correct,0.9514581931738005,1,valid_win,735.5619010999799,67,,,,,,,,,,,s_045,1,2021_Jan_19_0923,Reversal,3.2.4,59.97019482359056,
12,exp1.png,exp2.png,,,,,,,,,,,,,,,,,2,0,2,0,0,12,12,12,,,,,,,,,False,51,112,True,exp2.png,exp1.png,trial_right_image,-1,exp1.png,1,exp2.png,exp1.png,1,3,reversed,incorrect,0.5810121156017019,0,valid_lose,741.6095704999752,67,,,,,,,,,,,s_045,1,2021_Jan_19_0923,Reversal,3.2.4,59.97019482359056,
13,exp3.png,exp4.png,,,,,,,,,,,,,,,,,2,0,2,0,0,13,13,13,,,,,,,,,False,52,113,False,exp3.png,exp4.png,trial_left_image,1,exp3.png,1,exp3.png,exp4.png,1,1,non-reversed,correct,0.1447149788902724,0,invalid_lose,749.5244391000015,67,,,,,,,,,,,s_045,1,2021_Jan_19_0923,Reversal,3.2.4,59.97019482359056,
14,exp1.png,exp2.png,,,,,,,,,,,,,,,,,2,0,2,0,0,14,14,14,,,,,,,,,False,53,114,True,exp2.png,exp1.png,trial_right_image,-1,exp1.png,1,exp2.png,exp1.png,1,3,reversed,incorrect,0.30835813816038093,0,valid_lose,754.8560935999849,67,,,,,,,,,,,s_045,1,2021_Jan_19_0923,Reversal,3.2.4,59.97019482359056,
15,exp3.png,exp4.png,,,,,,,,,,,,,,,,,2,0,2,0,0,15,15,15,,,,,,,,,False,54,115,True,exp4.png,exp3.png,trial_left_image,1,exp4.png,1,exp3.png,exp4.png,0,2,non-reversed,incorrect,0.920575201868553,0,valid_lose,761.0884980999981,67,,,,,,,,,,,s_045,1,2021_Jan_19_0923,Reversal,3.2.4,59.97019482359056,
16,exp1.png,exp2.png,,,,,,,,,,,,,,,,,2,0,2,0,0,16,16,16,,,,,,,,,False,55,116,True,exp2.png,exp1.png,trial_left_image,1,exp2.png,1,exp2.png,exp1.png,0,4,reversed,correct,0.29609940182425176,1,valid_win,765.202518999984,68,,,,,,,,,,,s_045,1,2021_Jan_19_0923,Reversal,3.2.4,59.97019482359056,
17,exp3.png,exp4.png,,,,,,,,,,,,,,,,,2,0,2,0,0,17,17,17,,,,,,,,,False,56,117,False,exp3.png,exp4.png,trial_right_image,-1,exp4.png,1,exp3.png,exp4.png,0,2,non-reversed,incorrect,0.7667537098324634,0,valid_lose,769.3346152000013,68,,,,,,,,,,,s_045,1,2021_Jan_19_0923,Reversal,3.2.4,59.97019482359056,
18,exp1.png,exp2.png,,,,,,,,,,,,,,,,,2,0,2,0,0,18,18,18,,,,,,,,,False,57,118,False,exp1.png,exp2.png,trial_right_image,-1,exp2.png,1,exp2.png,exp1.png,0,4,reversed,correct,0.23511089988663114,0,invalid_lose,773.8669800999924,68,,,,,,,,,,,s_045,1,2021_Jan_19_0923,Reversal,3.2.4,59.97019482359056,
19,exp3.png,exp4.png,,,,,,,,,,,,,,,,,2,0,2,0,0,19,19,19,,,,,,,,,False,58,119,True,exp4.png,exp3.png,trial_right_image,-1,exp3.png,1,exp3.png,exp4.png,1,1,non-reversed,correct,0.34673810089208057,1,valid_win,782.4302670999896,69,,,,,,,,,,,s_045,1,2021_Jan_19_0923,Reversal,3.2.4,59.97019482359056,
20,exp1.png,exp2.png,,,,,,,,,,,,,,,,,2,0,2,0,0,20,20,20,,,,,,,,,False,59,120,True,exp2.png,exp1.png,trial_left_image,1,exp2.png,1,exp2.png,exp1.png,0,4,reversed,correct,0.8721506180121609,1,valid_win,787.7451214999892,70,,,,,,,,,,,s_045,1,2021_Jan_19_0923,Reversal,3.2.4,59.97019482359056,
,,,,,,,,,,,,,,,,,,,2,0,2,0,,,,,0,0,0,0,,,,,,,,,,,,,,,,,,,,,,,,,,38,28,28,29,,,,,,,s_045,1,2021_Jan_19_0923,Reversal,3.2.4,59.97019482359056,
,,,,,,,,,,,,,,,,,,,,,,,,,,,,,,,,,,,,,,,,,,,,,,,,,,,,,,,70,,,,,,88,55,33,348.41169089998584,0,,,,,,,
