trial_index,trial_image1_file,trial_image2_file,learning_outer_loop.thisRepN,learning_outer_loop.thisTrialN,learning_outer_loop.thisN,learning_outer_loop.thisIndex,learning_inner_loop.thisRepN,learning_inner_loop.thisTrialN,learning_inner_loop.thisN,learning_inner_loop.thisIndex,learning_estimation_outer_loop.thisRepN,learning_estimation_outer_loop.thisTrialN,learning_estimation_outer_loop.thisN,learning_estimation_outer_loop.thisIndex,learning_estimation_inner_loop.thisRepN,learning_estimation_inner_loop.thisTrialN,learning_estimation_inner_loop.thisN,learning_estimation_inner_loop.thisIndex,reversal_outer_loop.thisRepN,reversal_outer_loop.thisTrialN,reversal_outer_loop.thisN,reversal_outer_loop.thisIndex,reversal_inner_loop.thisRepN,reversal_inner_loop.thisTrialN,reversal_inner_loop.thisN,reversal_inner_loop.thisIndex,reversal_estimation_outer_loop.thisRepN,reversal_estimation_outer_loop.thisTrialN,reversal_estimation_outer_loop.thisN,reversal_estimation_outer_loop.thisIndex,reversal_estimation_inner_loop.thisRepN,reversal_estimation_inner_loop.thisTrialN,reversal_estimation_inner_loop.thisN,reversal_estimation_inner_loop.thisIndex,skipped,total_trial_counter,trial_num,left_right_flip,left_image_file,right_image_file,clicked_stimulus_side,side,clicked_stimulus,version,high_prob_image_file,low_prob_image_file,choice_a,choice_b,pair_type,correct,trial_feedback_random,reward,trial_type,overall_time_after_trial,score,estimation_exp1.png,estimation_exp2.png,estimation_exp3.png,estimation_exp4.png,total_learning_time,total_correct,learning_correct,reversal_correct,total_reversal_time,extra_block,participant,ver,date,expName,psychopyVersion,frameRate,
0,exp1.png,exp2.png,0,0,0,0,0,0,0,0,,,,,,,,,,,,,,,,,,,,,,,,,False,0,1,True,exp2.png,exp1.png,trial_left_image,1,exp2.png,3,exp2.png,exp1.png,1,3,reversed,correct,0.39145610702946476,1,valid_win,5.727163499977905,1,,,,,,,,,,,s_044,3,2021_Jan_17_1251,Reversal,3.2.4,59.993652672104865,
1,exp3.png,exp4.png,0,0,0,0,0,1,1,1,,,,,,,,,,,,,,,,,,,,,,,,,False,1,2,True,exp4.png,exp3.png,trial_left_image,1,exp4.png,3,exp4.png,exp3.png,1,1,non-reversed,correct,0.7396092877722136,1,valid_win,11.30835800000932,2,,,,,,,,,,,s_044,3,2021_Jan_17_1251,Reversal,3.2.4,59.993652672104865,
2,exp1.png,exp2.png,0,0,0,0,0,2,2,2,,,,,,,,,,,,,,,,,,,,,,,,,False,2,3,False,exp1.png,exp2.png,trial_right_image,-1,exp2.png,3,exp2.png,exp1.png,1,3,reversed,correct,0.03229615794034102,0,invalid_lose,16.073734499979764,2,,,,,,,,,,,s_044,3,2021_Jan_17_1251,Reversal,3.2.4,59.993652672104865,
3,exp3.png,exp4.png,0,0,0,0,0,3,3,3,,,,,,,,,,,,,,,,,,,,,,,,,False,3,4,False,exp3.png,exp4.png,trial_right_image,-1,exp4.png,3,exp4.png,exp3.png,1,1,non-reversed,correct,0.8457393129168247,1,valid_win,21.205546899989713,3,,,,,,,,,,,s_044,3,2021_Jan_17_1251,Reversal,3.2.4,59.993652672104865,
4,exp1.png,exp2.png,0,0,0,0,0,4,4,4,,,,,,,,,,,,,,,,,,,,,,,,,False,4,5,False,exp1.png,exp2.png,trial_right_image,-1,exp2.png,3,exp2.png,exp1.png,1,3,reversed,correct,0.4637074717527052,1,valid_win,25.886780500004534,4,,,,,,,,,,,s_044,3,2021_Jan_17_1251,Reversal,3.2.4,59.993652672104865,
5,exp3.png,exp4.png,0,0,0,0,0,5,5,5,,,,,,,,,,,,,,,,,,,,,,,,,False,5,6,False,exp3.png,exp4.png,trial_right_image,-1,exp4.png,3,exp4.png,exp3.png,1,1,non-reversed,correct,0.403744763733784,1,valid_win,30.90182269999059,5,,,,,,,,,,,s_044,3,2021_Jan_17_1251,Reversal,3.2.4,59.993652672104865,
6,exp1.png,exp2.png,0,0,0,0,0,6,6,6,,,,,,,,,,,,,,,,,,,,,,,,,False,6,7,False,exp1.png,exp2.png,trial_right_image,-1,exp2.png,3,exp2.png,exp1.png,1,3,reversed,correct,0.5459849979763637,1,valid_win,35.70015849999618,6,,,,,,,,,,,s_044,3,2021_Jan_17_1251,Reversal,3.2.4,59.993652672104865,
7,exp3.png,exp4.png,0,0,0,0,0,7,7,7,,,,,,,,,,,,,,,,,,,,,,,,,False,7,8,True,exp4.png,exp3.png,trial_left_image,1,exp4.png,3,exp4.png,exp3.png,1,1,non-reversed,correct,0.1264478986434575,0,invalid_lose,40.06598010001471,6,,,,,,,,,,,s_044,3,2021_Jan_17_1251,Reversal,3.2.4,59.993652672104865,
8,exp1.png,exp2.png,0,0,0,0,0,8,8,8,,,,,,,,,,,,,,,,,,,,,,,,,False,8,9,False,exp1.png,exp2.png,trial_right_image,-1,exp2.png,3,exp2.png,exp1.png,1,3,reversed,correct,0.3082922446066594,1,valid_win,44.664452700002585,7,,,,,,,,,,,s_044,3,2021_Jan_17_1251,Reversal,3.2.4,59.993652672104865,
9,exp3.png,exp4.png,0,0,0,0,0,9,9,9,,,,,,,,,,,,,,,,,,,,,,,,,False,9,10,True,exp4.png,exp3.png,trial_left_image,1,exp4.png,3,exp4.png,exp3.png,1,1,non-reversed,correct,0.9531660310727345,1,valid_win,49.22947640001075,8,,,,,,,,,,,s_044,3,2021_Jan_17_1251,Reversal,3.2.4,59.993652672104865,
10,exp1.png,exp2.png,0,0,0,0,0,10,10,10,,,,,,,,,,,,,,,,,,,,,,,,,False,10,11,True,exp2.png,exp1.png,trial_left_image,1,exp2.png,3,exp2.png,exp1.png,1,3,reversed,correct,0.2694290712094908,1,valid_win,53.627993699978106,9,,,,,,,,,,,s_044,3,2021_Jan_17_1251,Reversal,3.2.4,59.993652672104865,
11,exp3.png,exp4.png,0,0,0,0,0,11,11,11,,,,,,,,,,,,,,,,,,,,,,,,,False,11,12,True,exp4.png,exp3.png,trial_left_image,1,exp4.png,3,exp4.png,exp3.png,1,1,non-reversed,correct,0.6848237604272076,1,valid_win,58.2254434999777,10,,,,,,,,,,,s_044,3,2021_Jan_17_1251,Reversal,3.2.4,59.993652672104865,
12,exp1.png,exp2.png,0,0,0,0,0,12,12,12,,,,,,,,,,,,,,,,,,,,,,,,,False,12,13,False,exp1.png,exp2.png,trial_right_image,-1,exp2.png,3,exp2.png,exp1.png,1,3,reversed,correct,0.2070267575483803,0,invalid_lose,62.625363199971616,10,,,,,,,,,,,s_044,3,2021_Jan_17_1251,Reversal,3.2.4,59.993652672104865,
13,exp3.png,exp4.png,0,0,0,0,0,13,13,13,,,,,,,,,,,,,,,,,,,,,,,,,False,13,14,True,exp4.png,exp3.png,trial_left_image,1,exp4.png,3,exp4.png,exp3.png,1,1,non-reversed,correct,0.3067907473946663,1,valid_win,66.93993649998447,11,,,,,,,,,,,s_044,3,2021_Jan_17_1251,Reversal,3.2.4,59.993652672104865,
14,exp1.png,exp2.png,0,0,0,0,0,14,14,14,,,,,,,,,,,,,,,,,,,,,,,,,False,14,15,True,exp2.png,exp1.png,trial_left_image,1,exp2.png,3,exp2.png,exp1.png,1,3,reversed,correct,0.7623706378990917,1,valid_win,71.12204709998332,12,,,,,,,,,,,s_044,3,2021_Jan_17_1251,Reversal,3.2.4,59.993652672104865,
15,exp3.png,exp4.png,0,0,0,0,0,15,15,15,,,,,,,,,,,,,,,,,,,,,,,,,False,15,16,True,exp4.png,exp3.png,trial_left_image,1,exp4.png,3,exp4.png,exp3.png,1,1,non-reversed,correct,0.6160289043765842,1,valid_win,75.21969009999884,13,,,,,,,,,,,s_044,3,2021_Jan_17_1251,Reversal,3.2.4,59.993652672104865,
16,exp1.png,exp2.png,0,0,0,0,0,16,16,16,,,,,,,,,,,,,,,,,,,,,,,,,False,16,17,False,exp1.png,exp2.png,trial_right_image,-1,exp2.png,3,exp2.png,exp1.png,1,3,reversed,correct,0.11364575577039615,0,invalid_lose,79.5024403000134,13,,,,,,,,,,,s_044,3,2021_Jan_17_1251,Reversal,3.2.4,59.993652672104865,
17,exp3.png,exp4.png,0,0,0,0,0,17,17,17,,,,,,,,,,,,,,,,,,,,,,,,,False,17,18,False,exp3.png,exp4.png,trial_right_image,-1,exp4.png,3,exp4.png,exp3.png,1,1,non-reversed,correct,0.3197392304369532,1,valid_win,83.8173906999873,14,,,,,,,,,,,s_044,3,2021_Jan_17_1251,Reversal,3.2.4,59.993652672104865,
18,exp1.png,exp2.png,0,0,0,0,0,18,18,18,,,,,,,,,,,,,,,,,,,,,,,,,False,18,19,False,exp1.png,exp2.png,trial_right_image,-1,exp2.png,3,exp2.png,exp1.png,1,3,reversed,correct,0.8595761478482516,1,valid_win,88.06608010001946,15,,,,,,,,,,,s_044,3,2021_Jan_17_1251,Reversal,3.2.4,59.993652672104865,
19,exp3.png,exp4.png,0,0,0,0,0,19,19,19,,,,,,,,,,,,,,,,,,,,,,,,,False,19,20,True,exp4.png,exp3.png,trial_right_image,-1,exp3.png,3,exp4.png,exp3.png,0,2,non-reversed,incorrect,0.6273179353342053,0,valid_lose,92.6984775000019,15,,,,,,,,,,,s_044,3,2021_Jan_17_1251,Reversal,3.2.4,59.993652672104865,
20,exp1.png,exp2.png,0,0,0,0,0,20,20,20,,,,,,,,,,,,,,,,,,,,,,,,,True,,,,,,,,,,,,,,,,,,,,,,,,,,,,,,,s_044,3,2021_Jan_17_1251,Reversal,3.2.4,59.993652672104865,
,,,0,0,0,0,,,,,0,0,0,0,,,,,,,,,,,,,,,,,,,,,,,,,,,,,,,,,,,,,,,,,,11,83,21,81,,,,,,,s_044,3,2021_Jan_17_1251,Reversal,3.2.4,59.993652672104865,
0,exp1.png,exp2.png,1,0,1,0,0,0,0,0,,,,,,,,,,,,,,,,,,,,,,,,,False,20,21,True,exp2.png,exp1.png,trial_left_image,1,exp2.png,3,exp2.png,exp1.png,1,3,reversed,correct,0.7869141311075493,1,valid_win,111.69102399999974,16,,,,,,,,,,,s_044,3,2021_Jan_17_1251,Reversal,3.2.4,59.993652672104865,
1,exp3.png,exp4.png,1,0,1,0,0,1,1,1,,,,,,,,,,,,,,,,,,,,,,,,,False,21,22,False,exp3.png,exp4.png,trial_right_image,-1,exp4.png,3,exp4.png,exp3.png,1,1,non-reversed,correct,0.12901762945675987,0,invalid_lose,115.84053849999327,16,,,,,,,,,,,s_044,3,2021_Jan_17_1251,Reversal,3.2.4,59.993652672104865,
2,exp1.png,exp2.png,1,0,1,0,0,2,2,2,,,,,,,,,,,,,,,,,,,,,,,,,False,22,23,False,exp1.png,exp2.png,trial_right_image,-1,exp2.png,3,exp2.png,exp1.png,1,3,reversed,correct,0.026904137185027932,0,invalid_lose,120.07256719999714,16,,,,,,,,,,,s_044,3,2021_Jan_17_1251,Reversal,3.2.4,59.993652672104865,
3,exp3.png,exp4.png,1,0,1,0,0,3,3,3,,,,,,,,,,,,,,,,,,,,,,,,,False,23,24,True,exp4.png,exp3.png,trial_left_image,1,exp4.png,3,exp4.png,exp3.png,1,1,non-reversed,correct,0.2982988309884367,1,valid_win,124.35378800000763,17,,,,,,,,,,,s_044,3,2021_Jan_17_1251,Reversal,3.2.4,59.993652672104865,
4,exp1.png,exp2.png,1,0,1,0,0,4,4,4,,,,,,,,,,,,,,,,,,,,,,,,,False,24,25,False,exp1.png,exp2.png,trial_right_image,-1,exp2.png,3,exp2.png,exp1.png,1,3,reversed,correct,0.49478958734977574,1,valid_win,129.0852581000072,18,,,,,,,,,,,s_044,3,2021_Jan_17_1251,Reversal,3.2.4,59.993652672104865,
5,exp3.png,exp4.png,1,0,1,0,0,5,5,5,,,,,,,,,,,,,,,,,,,,,,,,,False,25,26,False,exp3.png,exp4.png,trial_right_image,-1,exp4.png,3,exp4.png,exp3.png,1,1,non-reversed,correct,0.6747104293875507,1,valid_win,133.2670065999846,19,,,,,,,,,,,s_044,3,2021_Jan_17_1251,Reversal,3.2.4,59.993652672104865,
6,exp1.png,exp2.png,1,0,1,0,0,6,6,6,,,,,,,,,,,,,,,,,,,,,,,,,False,26,27,False,exp1.png,exp2.png,trial_right_image,-1,exp2.png,3,exp2.png,exp1.png,1,3,reversed,correct,0.3409165042917428,1,valid_win,137.4991454000119,20,,,,,,,,,,,s_044,3,2021_Jan_17_1251,Reversal,3.2.4,59.993652672104865,
7,exp3.png,exp4.png,1,0,1,0,0,7,7,7,,,,,,,,,,,,,,,,,,,,,,,,,False,27,28,False,exp3.png,exp4.png,trial_right_image,-1,exp4.png,3,exp4.png,exp3.png,1,1,non-reversed,correct,0.20496719069622493,0,invalid_lose,141.69769729999825,20,,,,,,,,,,,s_044,3,2021_Jan_17_1251,Reversal,3.2.4,59.993652672104865,
8,exp1.png,exp2.png,1,0,1,0,0,8,8,8,,,,,,,,,,,,,,,,,,,,,,,,,False,28,29,True,exp2.png,exp1.png,trial_left_image,1,exp2.png,3,exp2.png,exp1.png,1,3,reversed,correct,0.4787684753382684,1,valid_win,145.81294510001317,21,,,,,,,,,,,s_044,3,2021_Jan_17_1251,Reversal,3.2.4,59.993652672104865,
9,exp3.png,exp4.png,1,0,1,0,0,9,9,9,,,,,,,,,,,,,,,,,,,,,,,,,False,29,30,False,exp3.png,exp4.png,trial_right_image,-1,exp4.png,3,exp4.png,exp3.png,1,1,non-reversed,correct,0.17217313337332196,0,invalid_lose,149.8781248999876,21,,,,,,,,,,,s_044,3,2021_Jan_17_1251,Reversal,3.2.4,59.993652672104865,
10,exp1.png,exp2.png,1,0,1,0,0,10,10,10,,,,,,,,,,,,,,,,,,,,,,,,,False,30,31,False,exp1.png,exp2.png,trial_right_image,-1,exp2.png,3,exp2.png,exp1.png,1,3,reversed,correct,0.778828184266302,1,valid_win,154.0604958999902,22,,,,,,,,,,,s_044,3,2021_Jan_17_1251,Reversal,3.2.4,59.993652672104865,
11,exp3.png,exp4.png,1,0,1,0,0,11,11,11,,,,,,,,,,,,,,,,,,,,,,,,,False,31,32,False,exp3.png,exp4.png,trial_left_image,1,exp3.png,3,exp4.png,exp3.png,0,2,non-reversed,incorrect,0.3826700736850891,0,valid_lose,158.2421140000224,22,,,,,,,,,,,s_044,3,2021_Jan_17_1251,Reversal,3.2.4,59.993652672104865,
12,exp1.png,exp2.png,1,0,1,0,0,12,12,12,,,,,,,,,,,,,,,,,,,,,,,,,False,32,33,True,exp2.png,exp1.png,trial_left_image,1,exp2.png,3,exp2.png,exp1.png,1,3,reversed,correct,0.5396045832336995,1,valid_win,162.58968560001813,23,,,,,,,,,,,s_044,3,2021_Jan_17_1251,Reversal,3.2.4,59.993652672104865,
13,exp3.png,exp4.png,1,0,1,0,0,13,13,13,,,,,,,,,,,,,,,,,,,,,,,,,False,33,34,False,exp3.png,exp4.png,trial_right_image,-1,exp4.png,3,exp4.png,exp3.png,1,1,non-reversed,correct,0.43802831287739574,1,valid_win,166.8554658999783,24,,,,,,,,,,,s_044,3,2021_Jan_17_1251,Reversal,3.2.4,59.993652672104865,
14,exp1.png,exp2.png,1,0,1,0,0,14,14,14,,,,,,,,,,,,,,,,,,,,,,,,,False,34,35,True,exp2.png,exp1.png,trial_left_image,1,exp2.png,3,exp2.png,exp1.png,1,3,reversed,correct,0.2600579664344913,1,valid_win,171.02141230000416,25,,,,,,,,,,,s_044,3,2021_Jan_17_1251,Reversal,3.2.4,59.993652672104865,
15,exp3.png,exp4.png,1,0,1,0,0,15,15,15,,,,,,,,,,,,,,,,,,,,,,,,,False,35,36,True,exp4.png,exp3.png,trial_right_image,-1,exp3.png,3,exp4.png,exp3.png,0,2,non-reversed,incorrect,0.8179198980081647,0,valid_lose,176.3692058000015,25,,,,,,,,,,,s_044,3,2021_Jan_17_1251,Reversal,3.2.4,59.993652672104865,
16,exp1.png,exp2.png,1,0,1,0,0,16,16,16,,,,,,,,,,,,,,,,,,,,,,,,,False,36,37,True,exp2.png,exp1.png,trial_left_image,1,exp2.png,3,exp2.png,exp1.png,1,3,reversed,correct,0.8959296972887675,1,valid_win,180.6340671000071,26,,,,,,,,,,,s_044,3,2021_Jan_17_1251,Reversal,3.2.4,59.993652672104865,
17,exp3.png,exp4.png,1,0,1,0,0,17,17,17,,,,,,,,,,,,,,,,,,,,,,,,,False,37,38,True,exp4.png,exp3.png,trial_left_image,1,exp4.png,3,exp4.png,exp3.png,1,1,non-reversed,correct,0.38116652068342827,1,valid_win,185.1495678999927,27,,,,,,,,,,,s_044,3,2021_Jan_17_1251,Reversal,3.2.4,59.993652672104865,
18,exp1.png,exp2.png,1,0,1,0,0,18,18,18,,,,,,,,,,,,,,,,,,,,,,,,,False,38,39,True,exp2.png,exp1.png,trial_left_image,1,exp2.png,3,exp2.png,exp1.png,1,3,reversed,correct,0.2884534253410267,1,valid_win,189.54892269999254,28,,,,,,,,,,,s_044,3,2021_Jan_17_1251,Reversal,3.2.4,59.993652672104865,
19,exp3.png,exp4.png,1,0,1,0,0,19,19,19,,,,,,,,,,,,,,,,,,,,,,,,,False,39,40,True,exp4.png,exp3.png,trial_left_image,1,exp4.png,3,exp4.png,exp3.png,1,1,non-reversed,correct,0.4508590102765768,1,valid_win,194.97950309998123,29,,,,,,,,,,,s_044,3,2021_Jan_17_1251,Reversal,3.2.4,59.993652672104865,
20,exp1.png,exp2.png,1,0,1,0,0,20,20,20,,,,,,,,,,,,,,,,,,,,,,,,,True,,,,,,,,,,,,,,,,,,,,,,,,,,,,,,,s_044,3,2021_Jan_17_1251,Reversal,3.2.4,59.993652672104865,
,,,1,0,1,0,,,,,0,0,0,0,,,,,,,,,,,,,,,,,,,,,,,,,,,,,,,,,,,,,,,,,,13,82,32,72,,,,,,,s_044,3,2021_Jan_17_1251,Reversal,3.2.4,59.993652672104865,
0,exp1.png,exp2.png,2,0,2,0,0,0,0,0,,,,,,,,,,,,,,,,,,,,,,,,,False,40,41,False,exp1.png,exp2.png,trial_right_image,-1,exp2.png,3,exp2.png,exp1.png,1,3,reversed,correct,0.35645181934187975,1,valid_win,213.87309639999876,30,,,,,,,,,,,s_044,3,2021_Jan_17_1251,Reversal,3.2.4,59.993652672104865,
1,exp3.png,exp4.png,2,0,2,0,0,1,1,1,,,,,,,,,,,,,,,,,,,,,,,,,False,41,42,True,exp4.png,exp3.png,trial_left_image,1,exp4.png,3,exp4.png,exp3.png,1,1,non-reversed,correct,0.026443408831483772,0,invalid_lose,218.07071960001485,30,,,,,,,,,,,s_044,3,2021_Jan_17_1251,Reversal,3.2.4,59.993652672104865,
2,exp1.png,exp2.png,2,0,2,0,0,2,2,2,,,,,,,,,,,,,,,,,,,,,,,,,False,42,43,False,exp1.png,exp2.png,trial_right_image,-1,exp2.png,3,exp2.png,exp1.png,1,3,reversed,correct,0.9732035275314356,1,valid_win,223.4200749999727,31,,,,,,,,,,,s_044,3,2021_Jan_17_1251,Reversal,3.2.4,59.993652672104865,
3,exp3.png,exp4.png,2,0,2,0,0,3,3,3,,,,,,,,,,,,,,,,,,,,,,,,,False,43,44,True,exp4.png,exp3.png,trial_left_image,1,exp4.png,3,exp4.png,exp3.png,1,1,non-reversed,correct,0.9493805593661441,1,valid_win,228.40151940000942,32,,,,,,,,,,,s_044,3,2021_Jan_17_1251,Reversal,3.2.4,59.993652672104865,
4,exp1.png,exp2.png,2,0,2,0,0,4,4,4,,,,,,,,,,,,,,,,,,,,,,,,,False,44,45,False,exp1.png,exp2.png,trial_right_image,-1,exp2.png,3,exp2.png,exp1.png,1,3,reversed,correct,0.06594511682855198,0,invalid_lose,232.93319459998747,32,,,,,,,,,,,s_044,3,2021_Jan_17_1251,Reversal,3.2.4,59.993652672104865,
5,exp3.png,exp4.png,2,0,2,0,0,5,5,5,,,,,,,,,,,,,,,,,,,,,,,,,False,45,46,False,exp3.png,exp4.png,trial_left_image,1,exp3.png,3,exp4.png,exp3.png,0,2,non-reversed,incorrect,0.9067064034815701,0,valid_lose,238.3158755999757,32,,,,,,,,,,,s_044,3,2021_Jan_17_1251,Reversal,3.2.4,59.993652672104865,
6,exp1.png,exp2.png,2,0,2,0,0,6,6,6,,,,,,,,,,,,,,,,,,,,,,,,,False,46,47,True,exp2.png,exp1.png,trial_left_image,1,exp2.png,3,exp2.png,exp1.png,1,3,reversed,correct,0.14829705450257935,0,invalid_lose,242.464099099976,32,,,,,,,,,,,s_044,3,2021_Jan_17_1251,Reversal,3.2.4,59.993652672104865,
7,exp3.png,exp4.png,2,0,2,0,0,7,7,7,,,,,,,,,,,,,,,,,,,,,,,,,False,47,48,True,exp4.png,exp3.png,trial_left_image,1,exp4.png,3,exp4.png,exp3.png,1,1,non-reversed,correct,0.012167637934680231,0,invalid_lose,247.0789712999831,32,,,,,,,,,,,s_044,3,2021_Jan_17_1251,Reversal,3.2.4,59.993652672104865,
8,exp1.png,exp2.png,2,0,2,0,0,8,8,8,,,,,,,,,,,,,,,,,,,,,,,,,False,48,49,False,exp1.png,exp2.png,trial_right_image,-1,exp2.png,3,exp2.png,exp1.png,1,3,reversed,correct,0.6676739951074976,1,valid_win,251.30990920000477,33,,,,,,,,,,,s_044,3,2021_Jan_17_1251,Reversal,3.2.4,59.993652672104865,
9,exp3.png,exp4.png,2,0,2,0,0,9,9,9,,,,,,,,,,,,,,,,,,,,,,,,,False,49,50,False,exp3.png,exp4.png,trial_right_image,-1,exp4.png,3,exp4.png,exp3.png,1,1,non-reversed,correct,0.05207034432471258,0,invalid_lose,255.8595597000094,33,,,,,,,,,,,s_044,3,2021_Jan_17_1251,Reversal,3.2.4,59.993652672104865,
10,exp1.png,exp2.png,2,0,2,0,0,10,10,10,,,,,,,,,,,,,,,,,,,,,,,,,False,50,51,False,exp1.png,exp2.png,trial_right_image,-1,exp2.png,3,exp2.png,exp1.png,1,3,reversed,correct,0.4736244770049518,1,valid_win,260.3584763999679,34,,,,,,,,,,,s_044,3,2021_Jan_17_1251,Reversal,3.2.4,59.993652672104865,
11,exp3.png,exp4.png,2,0,2,0,0,11,11,11,,,,,,,,,,,,,,,,,,,,,,,,,False,51,52,True,exp4.png,exp3.png,trial_right_image,-1,exp3.png,3,exp4.png,exp3.png,0,2,non-reversed,incorrect,0.1530358401975742,1,invalid_win,265.1887518999865,35,,,,,,,,,,,s_044,3,2021_Jan_17_1251,Reversal,3.2.4,59.993652672104865,
12,exp1.png,exp2.png,2,0,2,0,0,12,12,12,,,,,,,,,,,,,,,,,,,,,,,,,False,52,53,False,exp1.png,exp2.png,trial_right_image,-1,exp2.png,3,exp2.png,exp1.png,1,3,reversed,correct,0.34291158494376994,1,valid_win,269.50475059996825,36,,,,,,,,,,,s_044,3,2021_Jan_17_1251,Reversal,3.2.4,59.993652672104865,
13,exp3.png,exp4.png,2,0,2,0,0,13,13,13,,,,,,,,,,,,,,,,,,,,,,,,,False,53,54,True,exp4.png,exp3.png,trial_right_image,-1,exp3.png,3,exp4.png,exp3.png,0,2,non-reversed,incorrect,0.049447886206050784,1,invalid_win,273.72013099998003,37,,,,,,,,,,,s_044,3,2021_Jan_17_1251,Reversal,3.2.4,59.993652672104865,
14,exp1.png,exp2.png,2,0,2,0,0,14,14,14,,,,,,,,,,,,,,,,,,,,,,,,,False,54,55,False,exp1.png,exp2.png,trial_right_image,-1,exp2.png,3,exp2.png,exp1.png,1,3,reversed,correct,0.938693799346536,1,valid_win,278.0178305999725,38,,,,,,,,,,,s_044,3,2021_Jan_17_1251,Reversal,3.2.4,59.993652672104865,
15,exp3.png,exp4.png,2,0,2,0,0,15,15,15,,,,,,,,,,,,,,,,,,,,,,,,,False,55,56,True,exp4.png,exp3.png,trial_left_image,1,exp4.png,3,exp4.png,exp3.png,1,1,non-reversed,correct,0.10549909581725314,0,invalid_lose,282.53326980001293,38,,,,,,,,,,,s_044,3,2021_Jan_17_1251,Reversal,3.2.4,59.993652672104865,
16,exp1.png,exp2.png,2,0,2,0,0,16,16,16,,,,,,,,,,,,,,,,,,,,,,,,,False,56,57,True,exp2.png,exp1.png,trial_left_image,1,exp2.png,3,exp2.png,exp1.png,1,3,reversed,correct,0.19054176919280885,0,invalid_lose,287.014804299979,38,,,,,,,,,,,s_044,3,2021_Jan_17_1251,Reversal,3.2.4,59.993652672104865,
17,exp3.png,exp4.png,2,0,2,0,0,17,17,17,,,,,,,,,,,,,,,,,,,,,,,,,False,57,58,True,exp4.png,exp3.png,trial_right_image,-1,exp3.png,3,exp4.png,exp3.png,0,2,non-reversed,incorrect,0.2436069191981095,1,invalid_win,291.17974120000144,39,,,,,,,,,,,s_044,3,2021_Jan_17_1251,Reversal,3.2.4,59.993652672104865,
18,exp1.png,exp2.png,2,0,2,0,0,18,18,18,,,,,,,,,,,,,,,,,,,,,,,,,False,58,59,False,exp1.png,exp2.png,trial_right_image,-1,exp2.png,3,exp2.png,exp1.png,1,3,reversed,correct,0.5315122668131256,1,valid_win,295.49571330001345,40,,,,,,,,,,,s_044,3,2021_Jan_17_1251,Reversal,3.2.4,59.993652672104865,
19,exp3.png,exp4.png,2,0,2,0,0,19,19,19,,,,,,,,,,,,,,,,,,,,,,,,,False,59,60,True,exp4.png,exp3.png,trial_right_image,-1,exp3.png,3,exp4.png,exp3.png,0,2,non-reversed,incorrect,0.8294600879737123,0,valid_lose,299.7780268000206,40,,,,,,,,,,,s_044,3,2021_Jan_17_1251,Reversal,3.2.4,59.993652672104865,
20,exp1.png,exp2.png,2,0,2,0,0,20,20,20,,,,,,,,,,,,,,,,,,,,,,,,,True,,,,,,,,,,,,,,,,,,,,,,,,,,,,,,,s_044,3,2021_Jan_17_1251,Reversal,3.2.4,59.993652672104865,
,,,2,0,2,0,,,,,0,0,0,0,,,,,,,,,,,,,,,,,,,,,,,,,,,,,,,,,,,,,,,,,,29,67,71,21,,,,,,,s_044,3,2021_Jan_17_1251,Reversal,3.2.4,59.993652672104865,
0,exp1.png,exp2.png,3,0,3,0,0,0,0,0,,,,,,,,,,,,,,,,,,,,,,,,,False,60,61,False,exp1.png,exp2.png,trial_right_image,-1,exp2.png,3,exp2.png,exp1.png,1,3,reversed,correct,0.44815810969804437,1,valid_win,316.50494650000473,41,,,,,,,,,,,s_044,3,2021_Jan_17_1251,Reversal,3.2.4,59.993652672104865,
1,exp3.png,exp4.png,3,0,3,0,0,1,1,1,,,,,,,,,,,,,,,,,,,,,,,,,False,61,62,False,exp3.png,exp4.png,trial_left_image,1,exp3.png,3,exp4.png,exp3.png,0,2,non-reversed,incorrect,0.03680642669696732,1,invalid_win,320.6535610000137,42,,,,,,,,,,,s_044,3,2021_Jan_17_1251,Reversal,3.2.4,59.993652672104865,
2,exp1.png,exp2.png,3,0,3,0,0,2,2,2,,,,,,,,,,,,,,,,,,,,,,,,,False,62,63,False,exp1.png,exp2.png,trial_right_image,-1,exp2.png,3,exp2.png,exp1.png,1,3,reversed,correct,0.8595085451382932,1,valid_win,327.0852715999936,43,,,,,,,,,,,s_044,3,2021_Jan_17_1251,Reversal,3.2.4,59.993652672104865,
3,exp3.png,exp4.png,3,0,3,0,0,3,3,3,,,,,,,,,,,,,,,,,,,,,,,,,False,63,64,False,exp3.png,exp4.png,trial_left_image,1,exp3.png,3,exp4.png,exp3.png,0,2,non-reversed,incorrect,0.4022191921210527,0,valid_lose,331.19979009998497,43,,,,,,,,,,,s_044,3,2021_Jan_17_1251,Reversal,3.2.4,59.993652672104865,
4,exp1.png,exp2.png,3,0,3,0,0,4,4,4,,,,,,,,,,,,,,,,,,,,,,,,,False,64,65,True,exp2.png,exp1.png,trial_left_image,1,exp2.png,3,exp2.png,exp1.png,1,3,reversed,correct,0.6298673269162794,1,valid_win,335.4492546999827,44,,,,,,,,,,,s_044,3,2021_Jan_17_1251,Reversal,3.2.4,59.993652672104865,
5,exp3.png,exp4.png,3,0,3,0,0,5,5,5,,,,,,,,,,,,,,,,,,,,,,,,,False,65,66,True,exp4.png,exp3.png,trial_left_image,1,exp4.png,3,exp4.png,exp3.png,1,1,non-reversed,correct,0.08664969214796725,0,invalid_lose,339.43079010001384,44,,,,,,,,,,,s_044,3,2021_Jan_17_1251,Reversal,3.2.4,59.993652672104865,
6,exp1.png,exp2.png,3,0,3,0,0,6,6,6,,,,,,,,,,,,,,,,,,,,,,,,,False,66,67,True,exp2.png,exp1.png,trial_left_image,1,exp2.png,3,exp2.png,exp1.png,1,3,reversed,correct,0.2152767297606687,0,invalid_lose,343.7468208000064,44,,,,,,,,,,,s_044,3,2021_Jan_17_1251,Reversal,3.2.4,59.993652672104865,
7,exp3.png,exp4.png,3,0,3,0,0,7,7,7,,,,,,,,,,,,,,,,,,,,,,,,,False,67,68,True,exp4.png,exp3.png,trial_left_image,1,exp4.png,3,exp4.png,exp3.png,1,1,non-reversed,correct,0.24914702553526857,0,invalid_lose,347.62836560001597,44,,,,,,,,,,,s_044,3,2021_Jan_17_1251,Reversal,3.2.4,59.993652672104865,
8,exp1.png,exp2.png,3,0,3,0,0,8,8,8,,,,,,,,,,,,,,,,,,,,,,,,,False,68,69,False,exp1.png,exp2.png,trial_right_image,-1,exp2.png,3,exp2.png,exp1.png,1,3,reversed,correct,0.3554436828546931,1,valid_win,351.75962710002204,45,,,,,,,,,,,s_044,3,2021_Jan_17_1251,Reversal,3.2.4,59.993652672104865,
9,exp3.png,exp4.png,3,0,3,0,0,9,9,9,,,,,,,,,,,,,,,,,,,,,,,,,False,69,70,True,exp4.png,exp3.png,trial_right_image,-1,exp3.png,3,exp4.png,exp3.png,0,2,non-reversed,incorrect,0.6220677449979773,0,valid_lose,355.8416061999742,45,,,,,,,,,,,s_044,3,2021_Jan_17_1251,Reversal,3.2.4,59.993652672104865,
10,exp1.png,exp2.png,3,0,3,0,0,10,10,10,,,,,,,,,,,,,,,,,,,,,,,,,False,70,71,False,exp1.png,exp2.png,trial_right_image,-1,exp2.png,3,exp2.png,exp1.png,1,3,reversed,correct,0.6652855274572507,1,valid_win,360.37336710002273,46,,,,,,,,,,,s_044,3,2021_Jan_17_1251,Reversal,3.2.4,59.993652672104865,
11,exp3.png,exp4.png,3,0,3,0,0,11,11,11,,,,,,,,,,,,,,,,,,,,,,,,,False,71,72,True,exp4.png,exp3.png,trial_left_image,1,exp4.png,3,exp4.png,exp3.png,1,1,non-reversed,correct,0.3347353648519217,1,valid_win,364.3723427000223,47,,,,,,,,,,,s_044,3,2021_Jan_17_1251,Reversal,3.2.4,59.993652672104865,
12,exp1.png,exp2.png,3,0,3,0,0,12,12,12,,,,,,,,,,,,,,,,,,,,,,,,,False,72,73,True,exp2.png,exp1.png,trial_left_image,1,exp2.png,3,exp2.png,exp1.png,1,3,reversed,correct,0.8720472368440112,1,valid_win,368.437426999968,48,,,,,,,,,,,s_044,3,2021_Jan_17_1251,Reversal,3.2.4,59.993652672104865,
13,exp3.png,exp4.png,3,0,3,0,0,13,13,13,,,,,,,,,,,,,,,,,,,,,,,,,False,73,74,True,exp4.png,exp3.png,trial_right_image,-1,exp3.png,3,exp4.png,exp3.png,0,2,non-reversed,incorrect,0.13009858340515035,1,invalid_win,372.76973140001064,49,,,,,,,,,,,s_044,3,2021_Jan_17_1251,Reversal,3.2.4,59.993652672104865,
14,exp1.png,exp2.png,3,0,3,0,0,14,14,14,,,,,,,,,,,,,,,,,,,,,,,,,False,74,75,False,exp1.png,exp2.png,trial_right_image,-1,exp2.png,3,exp2.png,exp1.png,1,3,reversed,correct,0.9581268755412429,1,valid_win,376.9014622999821,50,,,,,,,,,,,s_044,3,2021_Jan_17_1251,Reversal,3.2.4,59.993652672104865,
15,exp3.png,exp4.png,3,0,3,0,0,15,15,15,,,,,,,,,,,,,,,,,,,,,,,,,False,75,76,True,exp4.png,exp3.png,trial_left_image,1,exp4.png,3,exp4.png,exp3.png,1,1,non-reversed,correct,0.9366363146181524,1,valid_win,381.2839231999824,51,,,,,,,,,,,s_044,3,2021_Jan_17_1251,Reversal,3.2.4,59.993652672104865,
16,exp1.png,exp2.png,3,0,3,0,0,16,16,16,,,,,,,,,,,,,,,,,,,,,,,,,False,76,77,False,exp1.png,exp2.png,trial_right_image,-1,exp2.png,3,exp2.png,exp1.png,1,3,reversed,correct,0.21036556329941125,0,invalid_lose,385.46504799998365,51,,,,,,,,,,,s_044,3,2021_Jan_17_1251,Reversal,3.2.4,59.993652672104865,
17,exp3.png,exp4.png,3,0,3,0,0,17,17,17,,,,,,,,,,,,,,,,,,,,,,,,,False,77,78,False,exp3.png,exp4.png,trial_left_image,1,exp3.png,3,exp4.png,exp3.png,0,2,non-reversed,incorrect,0.23264638524038783,1,invalid_win,389.44727200001944,52,,,,,,,,,,,s_044,3,2021_Jan_17_1251,Reversal,3.2.4,59.993652672104865,
18,exp1.png,exp2.png,3,0,3,0,0,18,18,18,,,,,,,,,,,,,,,,,,,,,,,,,False,78,79,True,exp2.png,exp1.png,trial_left_image,1,exp2.png,3,exp2.png,exp1.png,1,3,reversed,correct,0.6833318817013676,1,valid_win,393.6290702999686,53,,,,,,,,,,,s_044,3,2021_Jan_17_1251,Reversal,3.2.4,59.993652672104865,
19,exp3.png,exp4.png,3,0,3,0,0,19,19,19,,,,,,,,,,,,,,,,,,,,,,,,,False,79,80,False,exp3.png,exp4.png,trial_right_image,-1,exp4.png,3,exp4.png,exp3.png,1,1,non-reversed,correct,0.20495711530790595,0,invalid_lose,398.0106768999831,53,,,,,,,,,,,s_044,3,2021_Jan_17_1251,Reversal,3.2.4,59.993652672104865,
20,exp1.png,exp2.png,3,0,3,0,0,20,20,20,,,,,,,,,,,,,,,,,,,,,,,,,True,,,,,,,,,,,,,,,,,,,,,,,,,,,,,,,s_044,3,2021_Jan_17_1251,Reversal,3.2.4,59.993652672104865,
,,,3,0,3,0,,,,,0,0,0,0,,,,,,,,,,,,,,,,,,,,,,,,,,,,,,,,,,,,,,,,,,50.0,72,50.0,50.0,,,,,,,s_044,3,2021_Jan_17_1251,Reversal,3.2.4,59.993652672104865,
0,exp1.png,exp2.png,,,,,,,,,,,,,,,,,0,0,0,0,0,0,0,0,,,,,,,,,False,0,81,True,exp2.png,exp1.png,trial_left_image,1,exp2.png,3,exp1.png,exp2.png,1,3,reversed,incorrect,0.053501398346066154,1,invalid_win,412.0231637000106,54,,,,,410.31756990001304,,,,,,s_044,3,2021_Jan_17_1251,Reversal,3.2.4,59.993652672104865,
1,exp3.png,exp4.png,,,,,,,,,,,,,,,,,0,0,0,0,0,1,1,1,,,,,,,,,False,1,82,False,exp3.png,exp4.png,trial_right_image,-1,exp4.png,3,exp4.png,exp3.png,1,1,non-reversed,correct,0.4736386802930568,1,valid_win,416.5885097999708,55,,,,,,,,,,,s_044,3,2021_Jan_17_1251,Reversal,3.2.4,59.993652672104865,
2,exp1.png,exp2.png,,,,,,,,,,,,,,,,,0,0,0,0,0,2,2,2,,,,,,,,,False,2,83,True,exp2.png,exp1.png,trial_left_image,1,exp2.png,3,exp1.png,exp2.png,1,3,reversed,incorrect,0.6923515721687262,0,valid_lose,420.62045739998575,55,,,,,,,,,,,s_044,3,2021_Jan_17_1251,Reversal,3.2.4,59.993652672104865,
3,exp3.png,exp4.png,,,,,,,,,,,,,,,,,0,0,0,0,0,3,3,3,,,,,,,,,False,3,84,False,exp3.png,exp4.png,trial_left_image,1,exp3.png,3,exp4.png,exp3.png,0,2,non-reversed,incorrect,0.23573215153812488,1,invalid_win,425.034957099997,56,,,,,,,,,,,s_044,3,2021_Jan_17_1251,Reversal,3.2.4,59.993652672104865,
4,exp1.png,exp2.png,,,,,,,,,,,,,,,,,0,0,0,0,0,4,4,4,,,,,,,,,False,4,85,True,exp2.png,exp1.png,trial_left_image,1,exp2.png,3,exp1.png,exp2.png,1,3,reversed,incorrect,0.21169809951203977,1,invalid_win,428.95032519998495,57,,,,,,,,,,,s_044,3,2021_Jan_17_1251,Reversal,3.2.4,59.993652672104865,
5,exp3.png,exp4.png,,,,,,,,,,,,,,,,,0,0,0,0,0,5,5,5,,,,,,,,,False,5,86,True,exp4.png,exp3.png,trial_left_image,1,exp4.png,3,exp4.png,exp3.png,1,1,non-reversed,correct,0.07032869207248982,0,invalid_lose,432.9493638999993,57,,,,,,,,,,,s_044,3,2021_Jan_17_1251,Reversal,3.2.4,59.993652672104865,
6,exp1.png,exp2.png,,,,,,,,,,,,,,,,,0,0,0,0,0,6,6,6,,,,,,,,,False,6,87,True,exp2.png,exp1.png,trial_right_image,-1,exp1.png,3,exp1.png,exp2.png,0,4,reversed,correct,0.7229450226386396,1,valid_win,436.9144326999667,58,,,,,,,,,,,s_044,3,2021_Jan_17_1251,Reversal,3.2.4,59.993652672104865,
7,exp3.png,exp4.png,,,,,,,,,,,,,,,,,0,0,0,0,0,7,7,7,,,,,,,,,False,7,88,False,exp3.png,exp4.png,trial_left_image,1,exp3.png,3,exp4.png,exp3.png,0,2,non-reversed,incorrect,0.20731097640367124,1,invalid_win,441.17946199997095,59,,,,,,,,,,,s_044,3,2021_Jan_17_1251,Reversal,3.2.4,59.993652672104865,
8,exp1.png,exp2.png,,,,,,,,,,,,,,,,,0,0,0,0,0,8,8,8,,,,,,,,,False,8,89,True,exp2.png,exp1.png,trial_left_image,1,exp2.png,3,exp1.png,exp2.png,1,3,reversed,incorrect,0.5812599447916019,0,valid_lose,445.14401370001724,59,,,,,,,,,,,s_044,3,2021_Jan_17_1251,Reversal,3.2.4,59.993652672104865,
9,exp3.png,exp4.png,,,,,,,,,,,,,,,,,0,0,0,0,0,9,9,9,,,,,,,,,False,9,90,False,exp3.png,exp4.png,trial_right_image,-1,exp4.png,3,exp4.png,exp3.png,1,1,non-reversed,correct,0.034994947486935435,0,invalid_lose,449.2424586999696,59,,,,,,,,,,,s_044,3,2021_Jan_17_1251,Reversal,3.2.4,59.993652672104865,
10,exp1.png,exp2.png,,,,,,,,,,,,,,,,,0,0,0,0,0,10,10,10,,,,,,,,,False,10,91,False,exp1.png,exp2.png,trial_left_image,1,exp1.png,3,exp1.png,exp2.png,0,4,reversed,correct,0.5012658893545258,1,valid_win,453.99190969998017,60,,,,,,,,,,,s_044,3,2021_Jan_17_1251,Reversal,3.2.4,59.993652672104865,
11,exp3.png,exp4.png,,,,,,,,,,,,,,,,,0,0,0,0,0,11,11,11,,,,,,,,,False,11,92,True,exp4.png,exp3.png,trial_right_image,-1,exp3.png,3,exp4.png,exp3.png,0,2,non-reversed,incorrect,0.8315855940958117,0,valid_lose,458.08991869998863,60,,,,,,,,,,,s_044,3,2021_Jan_17_1251,Reversal,3.2.4,59.993652672104865,
12,exp1.png,exp2.png,,,,,,,,,,,,,,,,,0,0,0,0,0,12,12,12,,,,,,,,,False,12,93,True,exp2.png,exp1.png,trial_right_image,-1,exp1.png,3,exp1.png,exp2.png,0,4,reversed,correct,0.424150628347737,1,valid_win,462.10600650002016,61,,,,,,,,,,,s_044,3,2021_Jan_17_1251,Reversal,3.2.4,59.993652672104865,
13,exp3.png,exp4.png,,,,,,,,,,,,,,,,,0,0,0,0,0,13,13,13,,,,,,,,,False,13,94,False,exp3.png,exp4.png,trial_right_image,-1,exp4.png,3,exp4.png,exp3.png,1,1,non-reversed,correct,0.05956954751624444,0,invalid_lose,466.20423199998913,61,,,,,,,,,,,s_044,3,2021_Jan_17_1251,Reversal,3.2.4,59.993652672104865,
14,exp1.png,exp2.png,,,,,,,,,,,,,,,,,0,0,0,0,0,14,14,14,,,,,,,,,False,14,95,False,exp1.png,exp2.png,trial_left_image,1,exp1.png,3,exp1.png,exp2.png,0,4,reversed,correct,0.028437294912063593,0,invalid_lose,470.91936810000334,61,,,,,,,,,,,s_044,3,2021_Jan_17_1251,Reversal,3.2.4,59.993652672104865,
15,exp3.png,exp4.png,,,,,,,,,,,,,,,,,0,0,0,0,0,15,15,15,,,,,,,,,False,15,96,False,exp3.png,exp4.png,trial_left_image,1,exp3.png,3,exp4.png,exp3.png,0,2,non-reversed,incorrect,0.7407303316267655,0,valid_lose,474.76792050001677,61,,,,,,,,,,,s_044,3,2021_Jan_17_1251,Reversal,3.2.4,59.993652672104865,
16,exp1.png,exp2.png,,,,,,,,,,,,,,,,,0,0,0,0,0,16,16,16,,,,,,,,,False,16,97,False,exp1.png,exp2.png,trial_right_image,-1,exp2.png,3,exp1.png,exp2.png,1,3,reversed,incorrect,0.7866034104377986,0,valid_lose,478.683125999989,61,,,,,,,,,,,s_044,3,2021_Jan_17_1251,Reversal,3.2.4,59.993652672104865,
17,exp3.png,exp4.png,,,,,,,,,,,,,,,,,0,0,0,0,0,17,17,17,,,,,,,,,False,17,98,False,exp3.png,exp4.png,trial_left_image,1,exp3.png,3,exp4.png,exp3.png,0,2,non-reversed,incorrect,0.06024221414314945,1,invalid_win,482.81531789997825,62,,,,,,,,,,,s_044,3,2021_Jan_17_1251,Reversal,3.2.4,59.993652672104865,
18,exp1.png,exp2.png,,,,,,,,,,,,,,,,,0,0,0,0,0,18,18,18,,,,,,,,,False,18,99,True,exp2.png,exp1.png,trial_right_image,-1,exp1.png,3,exp1.png,exp2.png,0,4,reversed,correct,0.45644679925728293,1,valid_win,487.6470988999936,63,,,,,,,,,,,s_044,3,2021_Jan_17_1251,Reversal,3.2.4,59.993652672104865,
19,exp3.png,exp4.png,,,,,,,,,,,,,,,,,0,0,0,0,0,19,19,19,,,,,,,,,False,19,100,True,exp4.png,exp3.png,trial_right_image,-1,exp3.png,3,exp4.png,exp3.png,0,2,non-reversed,incorrect,0.6652151657214497,0,valid_lose,491.87928589998046,63,,,,,,,,,,,s_044,3,2021_Jan_17_1251,Reversal,3.2.4,59.993652672104865,
20,exp1.png,exp2.png,,,,,,,,,,,,,,,,,0,0,0,0,0,20,20,20,,,,,,,,,True,,,,,,,,,,,,,,,,,,,,,,,,,,,,,,,s_044,3,2021_Jan_17_1251,Reversal,3.2.4,59.993652672104865,
,,,,,,,,,,,,,,,,,,,0,0,0,0,,,,,0,0,0,0,,,,,,,,,,,,,,,,,,,,,,,,,,50.0,50.0,50.0,50.0,,,,,,,s_044,3,2021_Jan_17_1251,Reversal,3.2.4,59.993652672104865,
0,exp1.png,exp2.png,,,,,,,,,,,,,,,,,1,0,1,0,0,0,0,0,,,,,,,,,False,20,101,True,exp2.png,exp1.png,trial_left_image,1,exp2.png,3,exp1.png,exp2.png,1,3,reversed,incorrect,0.2042531227784664,1,invalid_win,504.7580541999778,64,,,,,,,,,,,s_044,3,2021_Jan_17_1251,Reversal,3.2.4,59.993652672104865,
1,exp3.png,exp4.png,,,,,,,,,,,,,,,,,1,0,1,0,0,1,1,1,,,,,,,,,False,21,102,False,exp3.png,exp4.png,trial_right_image,-1,exp4.png,3,exp4.png,exp3.png,1,1,non-reversed,correct,0.11588707378111374,0,invalid_lose,508.67390609998256,64,,,,,,,,,,,s_044,3,2021_Jan_17_1251,Reversal,3.2.4,59.993652672104865,
2,exp1.png,exp2.png,,,,,,,,,,,,,,,,,1,0,1,0,0,2,2,2,,,,,,,,,False,22,103,False,exp1.png,exp2.png,trial_left_image,1,exp1.png,3,exp1.png,exp2.png,0,4,reversed,correct,0.6102718778713327,1,valid_win,512.7883906000061,65,,,,,,,,,,,s_044,3,2021_Jan_17_1251,Reversal,3.2.4,59.993652672104865,
3,exp3.png,exp4.png,,,,,,,,,,,,,,,,,1,0,1,0,0,3,3,3,,,,,,,,,False,23,104,True,exp4.png,exp3.png,trial_right_image,-1,exp3.png,3,exp4.png,exp3.png,0,2,non-reversed,incorrect,0.3796042972890472,0,valid_lose,517.0869798000203,65,,,,,,,,,,,s_044,3,2021_Jan_17_1251,Reversal,3.2.4,59.993652672104865,
4,exp1.png,exp2.png,,,,,,,,,,,,,,,,,1,0,1,0,0,4,4,4,,,,,,,,,False,24,105,False,exp1.png,exp2.png,trial_right_image,-1,exp2.png,3,exp1.png,exp2.png,1,3,reversed,incorrect,0.29256376897250913,0,valid_lose,521.4854540000088,65,,,,,,,,,,,s_044,3,2021_Jan_17_1251,Reversal,3.2.4,59.993652672104865,
5,exp3.png,exp4.png,,,,,,,,,,,,,,,,,1,0,1,0,0,5,5,5,,,,,,,,,False,25,106,False,exp3.png,exp4.png,trial_right_image,-1,exp4.png,3,exp4.png,exp3.png,1,1,non-reversed,correct,0.12947611486010857,0,invalid_lose,525.4512201999896,65,,,,,,,,,,,s_044,3,2021_Jan_17_1251,Reversal,3.2.4,59.993652672104865,
6,exp1.png,exp2.png,,,,,,,,,,,,,,,,,1,0,1,0,0,6,6,6,,,,,,,,,False,26,107,True,exp2.png,exp1.png,trial_left_image,1,exp2.png,3,exp1.png,exp2.png,1,3,reversed,incorrect,0.4324631862488635,0,valid_lose,529.3987853999715,65,,,,,,,,,,,s_044,3,2021_Jan_17_1251,Reversal,3.2.4,59.993652672104865,
7,exp3.png,exp4.png,,,,,,,,,,,,,,,,,1,0,1,0,0,7,7,7,,,,,,,,,False,27,108,True,exp4.png,exp3.png,trial_right_image,-1,exp3.png,3,exp4.png,exp3.png,0,2,non-reversed,incorrect,0.3468813020058582,0,valid_lose,533.4972791000037,65,,,,,,,,,,,s_044,3,2021_Jan_17_1251,Reversal,3.2.4,59.993652672104865,
8,exp1.png,exp2.png,,,,,,,,,,,,,,,,,1,0,1,0,0,8,8,8,,,,,,,,,False,28,109,False,exp1.png,exp2.png,trial_right_image,-1,exp2.png,3,exp1.png,exp2.png,1,3,reversed,incorrect,0.9111775846912394,0,valid_lose,537.6303850999684,65,,,,,,,,,,,s_044,3,2021_Jan_17_1251,Reversal,3.2.4,59.993652672104865,
9,exp3.png,exp4.png,,,,,,,,,,,,,,,,,1,0,1,0,0,9,9,9,,,,,,,,,False,29,110,False,exp3.png,exp4.png,trial_left_image,1,exp3.png,3,exp4.png,exp3.png,0,2,non-reversed,incorrect,0.9989862130051609,0,valid_lose,541.5119016999961,65,,,,,,,,,,,s_044,3,2021_Jan_17_1251,Reversal,3.2.4,59.993652672104865,
10,exp1.png,exp2.png,,,,,,,,,,,,,,,,,1,0,1,0,0,10,10,10,,,,,,,,,False,30,111,False,exp1.png,exp2.png,trial_right_image,-1,exp2.png,3,exp1.png,exp2.png,1,3,reversed,incorrect,0.29474842599783657,0,valid_lose,545.9430056000128,65,,,,,,,,,,,s_044,3,2021_Jan_17_1251,Reversal,3.2.4,59.993652672104865,
11,exp3.png,exp4.png,,,,,,,,,,,,,,,,,1,0,1,0,0,11,11,11,,,,,,,,,False,31,112,True,exp4.png,exp3.png,trial_left_image,1,exp4.png,3,exp4.png,exp3.png,1,1,non-reversed,correct,0.7190191848347794,1,valid_win,550.0413480999996,66,,,,,,,,,,,s_044,3,2021_Jan_17_1251,Reversal,3.2.4,59.993652672104865,
12,exp1.png,exp2.png,,,,,,,,,,,,,,,,,1,0,1,0,0,12,12,12,,,,,,,,,False,32,113,True,exp2.png,exp1.png,trial_right_image,-1,exp1.png,3,exp1.png,exp2.png,0,4,reversed,correct,0.5056930400367249,1,valid_win,554.3065650999779,67,,,,,,,,,,,s_044,3,2021_Jan_17_1251,Reversal,3.2.4,59.993652672104865,
13,exp3.png,exp4.png,,,,,,,,,,,,,,,,,1,0,1,0,0,13,13,13,,,,,,,,,False,33,114,True,exp4.png,exp3.png,trial_left_image,1,exp4.png,3,exp4.png,exp3.png,1,1,non-reversed,correct,0.44141759527165836,1,valid_win,558.2225510000135,68,,,,,,,,,,,s_044,3,2021_Jan_17_1251,Reversal,3.2.4,59.993652672104865,
14,exp1.png,exp2.png,,,,,,,,,,,,,,,,,1,0,1,0,0,14,14,14,,,,,,,,,False,34,115,True,exp2.png,exp1.png,trial_right_image,-1,exp1.png,3,exp1.png,exp2.png,0,4,reversed,correct,0.8047813059045217,1,valid_win,562.237713199982,69,,,,,,,,,,,s_044,3,2021_Jan_17_1251,Reversal,3.2.4,59.993652672104865,
15,exp3.png,exp4.png,,,,,,,,,,,,,,,,,1,0,1,0,0,15,15,15,,,,,,,,,False,35,116,False,exp3.png,exp4.png,trial_right_image,-1,exp4.png,3,exp4.png,exp3.png,1,1,non-reversed,correct,0.2973309571120448,1,valid_win,566.3371318000136,70,,,,,,,,,,,s_044,3,2021_Jan_17_1251,Reversal,3.2.4,59.993652672104865,
16,exp1.png,exp2.png,,,,,,,,,,,,,,,,,1,0,1,0,0,16,16,16,,,,,,,,,False,36,117,False,exp1.png,exp2.png,trial_left_image,1,exp1.png,3,exp1.png,exp2.png,0,4,reversed,correct,0.5771485010482185,1,valid_win,570.2863605999737,71,,,,,,,,,,,s_044,3,2021_Jan_17_1251,Reversal,3.2.4,59.993652672104865,
17,exp3.png,exp4.png,,,,,,,,,,,,,,,,,1,0,1,0,0,17,17,17,,,,,,,,,False,37,118,False,exp3.png,exp4.png,trial_right_image,-1,exp4.png,3,exp4.png,exp3.png,1,1,non-reversed,correct,0.32795379608625475,1,valid_win,574.3342317999923,72,,,,,,,,,,,s_044,3,2021_Jan_17_1251,Reversal,3.2.4,59.993652672104865,
18,exp1.png,exp2.png,,,,,,,,,,,,,,,,,1,0,1,0,0,18,18,18,,,,,,,,,False,38,119,True,exp2.png,exp1.png,trial_right_image,-1,exp1.png,3,exp1.png,exp2.png,0,4,reversed,correct,0.7474537218836952,1,valid_win,578.3847647000221,73,,,,,,,,,,,s_044,3,2021_Jan_17_1251,Reversal,3.2.4,59.993652672104865,
19,exp3.png,exp4.png,,,,,,,,,,,,,,,,,1,0,1,0,0,19,19,19,,,,,,,,,False,39,120,True,exp4.png,exp3.png,trial_left_image,1,exp4.png,3,exp4.png,exp3.png,1,1,non-reversed,correct,0.7752107240949219,1,valid_win,582.3813019000227,74,,,,,,,,,,,s_044,3,2021_Jan_17_1251,Reversal,3.2.4,59.993652672104865,
20,exp1.png,exp2.png,,,,,,,,,,,,,,,,,1,0,1,0,0,20,20,20,,,,,,,,,True,,,,,,,,,,,,,,,,,,,,,,,,,,,,,,,s_044,3,2021_Jan_17_1251,Reversal,3.2.4,59.993652672104865,
,,,,,,,,,,,,,,,,,,,1,0,1,0,,,,,0,0,0,0,,,,,,,,,,,,,,,,,,,,,,,,,,81,22,24,81,,,,,,,s_044,3,2021_Jan_17_1251,Reversal,3.2.4,59.993652672104865,
0,exp1.png,exp2.png,,,,,,,,,,,,,,,,,2,0,2,0,0,0,0,0,,,,,,,,,False,40,121,True,exp2.png,exp1.png,trial_left_image,1,exp2.png,3,exp1.png,exp2.png,1,3,reversed,incorrect,0.9643008391646365,0,valid_lose,597.959623200004,74,,,,,,,,,,,s_044,3,2021_Jan_17_1251,Reversal,3.2.4,59.993652672104865,
1,exp3.png,exp4.png,,,,,,,,,,,,,,,,,2,0,2,0,0,1,1,1,,,,,,,,,False,41,122,True,exp4.png,exp3.png,trial_left_image,1,exp4.png,3,exp4.png,exp3.png,1,1,non-reversed,correct,0.963463510545166,1,valid_win,602.8088417999679,75,,,,,,,,,,,s_044,3,2021_Jan_17_1251,Reversal,3.2.4,59.993652672104865,
2,exp1.png,exp2.png,,,,,,,,,,,,,,,,,2,0,2,0,0,2,2,2,,,,,,,,,False,42,123,True,exp2.png,exp1.png,trial_right_image,-1,exp1.png,3,exp1.png,exp2.png,0,4,reversed,correct,0.21667846704401494,0,invalid_lose,606.7567430000054,75,,,,,,,,,,,s_044,3,2021_Jan_17_1251,Reversal,3.2.4,59.993652672104865,
3,exp3.png,exp4.png,,,,,,,,,,,,,,,,,2,0,2,0,0,3,3,3,,,,,,,,,False,43,124,False,exp3.png,exp4.png,trial_right_image,-1,exp4.png,3,exp4.png,exp3.png,1,1,non-reversed,correct,0.40585415578023953,1,valid_win,610.7723677000031,76,,,,,,,,,,,s_044,3,2021_Jan_17_1251,Reversal,3.2.4,59.993652672104865,
4,exp1.png,exp2.png,,,,,,,,,,,,,,,,,2,0,2,0,0,4,4,4,,,,,,,,,False,44,125,False,exp1.png,exp2.png,trial_left_image,1,exp1.png,3,exp1.png,exp2.png,0,4,reversed,correct,0.8592348953146123,1,valid_win,614.8204676000169,77,,,,,,,,,,,s_044,3,2021_Jan_17_1251,Reversal,3.2.4,59.993652672104865,
5,exp3.png,exp4.png,,,,,,,,,,,,,,,,,2,0,2,0,0,5,5,5,,,,,,,,,False,45,126,False,exp3.png,exp4.png,trial_right_image,-1,exp4.png,3,exp4.png,exp3.png,1,1,non-reversed,correct,0.2412144670519446,0,invalid_lose,618.8529982999898,77,,,,,,,,,,,s_044,3,2021_Jan_17_1251,Reversal,3.2.4,59.993652672104865,
6,exp1.png,exp2.png,,,,,,,,,,,,,,,,,2,0,2,0,0,6,6,6,,,,,,,,,False,46,127,True,exp2.png,exp1.png,trial_left_image,1,exp2.png,3,exp1.png,exp2.png,1,3,reversed,incorrect,0.033958545912456506,1,invalid_win,622.8847852000035,78,,,,,,,,,,,s_044,3,2021_Jan_17_1251,Reversal,3.2.4,59.993652672104865,
7,exp3.png,exp4.png,,,,,,,,,,,,,,,,,2,0,2,0,0,7,7,7,,,,,,,,,False,47,128,True,exp4.png,exp3.png,trial_left_image,1,exp4.png,3,exp4.png,exp3.png,1,1,non-reversed,correct,0.956783710838437,1,valid_win,626.9660550999688,79,,,,,,,,,,,s_044,3,2021_Jan_17_1251,Reversal,3.2.4,59.993652672104865,
8,exp1.png,exp2.png,,,,,,,,,,,,,,,,,2,0,2,0,0,8,8,8,,,,,,,,,False,48,129,True,exp2.png,exp1.png,trial_right_image,-1,exp1.png,3,exp1.png,exp2.png,0,4,reversed,correct,0.1177907818393602,0,invalid_lose,630.9651404999895,79,,,,,,,,,,,s_044,3,2021_Jan_17_1251,Reversal,3.2.4,59.993652672104865,
9,exp3.png,exp4.png,,,,,,,,,,,,,,,,,2,0,2,0,0,9,9,9,,,,,,,,,False,49,130,True,exp4.png,exp3.png,trial_right_image,-1,exp3.png,3,exp4.png,exp3.png,0,2,non-reversed,incorrect,0.00796846011983432,1,invalid_win,634.8968903999776,80,,,,,,,,,,,s_044,3,2021_Jan_17_1251,Reversal,3.2.4,59.993652672104865,
10,exp1.png,exp2.png,,,,,,,,,,,,,,,,,2,0,2,0,0,10,10,10,,,,,,,,,False,50,131,True,exp2.png,exp1.png,trial_right_image,-1,exp1.png,3,exp1.png,exp2.png,0,4,reversed,correct,0.5136335486562322,1,valid_win,639.2446275000111,81,,,,,,,,,,,s_044,3,2021_Jan_17_1251,Reversal,3.2.4,59.993652672104865,
11,exp3.png,exp4.png,,,,,,,,,,,,,,,,,2,0,2,0,0,11,11,11,,,,,,,,,False,51,132,True,exp4.png,exp3.png,trial_left_image,1,exp4.png,3,exp4.png,exp3.png,1,1,non-reversed,correct,0.854948748284104,1,valid_win,643.9275692999945,82,,,,,,,,,,,s_044,3,2021_Jan_17_1251,Reversal,3.2.4,59.993652672104865,
12,exp1.png,exp2.png,,,,,,,,,,,,,,,,,2,0,2,0,0,12,12,12,,,,,,,,,False,52,133,False,exp1.png,exp2.png,trial_right_image,-1,exp2.png,3,exp1.png,exp2.png,1,3,reversed,incorrect,0.9221516263122896,0,valid_lose,648.125266499992,82,,,,,,,,,,,s_044,3,2021_Jan_17_1251,Reversal,3.2.4,59.993652672104865,
13,exp3.png,exp4.png,,,,,,,,,,,,,,,,,2,0,2,0,0,13,13,13,,,,,,,,,False,53,134,False,exp3.png,exp4.png,trial_left_image,1,exp3.png,3,exp4.png,exp3.png,0,2,non-reversed,incorrect,0.22001304746474137,1,invalid_win,652.1418657000177,83,,,,,,,,,,,s_044,3,2021_Jan_17_1251,Reversal,3.2.4,59.993652672104865,
14,exp1.png,exp2.png,,,,,,,,,,,,,,,,,2,0,2,0,0,14,14,14,,,,,,,,,False,54,135,False,exp1.png,exp2.png,trial_right_image,-1,exp2.png,3,exp1.png,exp2.png,1,3,reversed,incorrect,0.9952550884070257,0,valid_lose,656.5561348000192,83,,,,,,,,,,,s_044,3,2021_Jan_17_1251,Reversal,3.2.4,59.993652672104865,
15,exp3.png,exp4.png,,,,,,,,,,,,,,,,,2,0,2,0,0,15,15,15,,,,,,,,,False,55,136,False,exp3.png,exp4.png,trial_left_image,1,exp3.png,3,exp4.png,exp3.png,0,2,non-reversed,incorrect,0.7303228273147947,0,valid_lose,662.0882522999891,83,,,,,,,,,,,s_044,3,2021_Jan_17_1251,Reversal,3.2.4,59.993652672104865,
16,exp1.png,exp2.png,,,,,,,,,,,,,,,,,2,0,2,0,0,16,16,16,,,,,,,,,False,56,137,False,exp1.png,exp2.png,trial_left_image,1,exp1.png,3,exp1.png,exp2.png,0,4,reversed,correct,0.5173073435839046,1,valid_win,666.0200159000233,84,,,,,,,,,,,s_044,3,2021_Jan_17_1251,Reversal,3.2.4,59.993652672104865,
17,exp3.png,exp4.png,,,,,,,,,,,,,,,,,2,0,2,0,0,17,17,17,,,,,,,,,False,57,138,False,exp3.png,exp4.png,trial_left_image,1,exp3.png,3,exp4.png,exp3.png,0,2,non-reversed,incorrect,0.6204162061408051,0,valid_lose,670.0025235000066,84,,,,,,,,,,,s_044,3,2021_Jan_17_1251,Reversal,3.2.4,59.993652672104865,
18,exp1.png,exp2.png,,,,,,,,,,,,,,,,,2,0,2,0,0,18,18,18,,,,,,,,,False,58,139,False,exp1.png,exp2.png,trial_left_image,1,exp1.png,3,exp1.png,exp2.png,0,4,reversed,correct,0.22705272480981253,0,invalid_lose,673.9674405999831,84,,,,,,,,,,,s_044,3,2021_Jan_17_1251,Reversal,3.2.4,59.993652672104865,
19,exp3.png,exp4.png,,,,,,,,,,,,,,,,,2,0,2,0,0,19,19,19,,,,,,,,,False,59,140,True,exp4.png,exp3.png,trial_left_image,1,exp4.png,3,exp4.png,exp3.png,1,1,non-reversed,correct,0.6092712612540506,1,valid_win,678.2484041000134,85,,,,,,,,,,,s_044,3,2021_Jan_17_1251,Reversal,3.2.4,59.993652672104865,
20,exp1.png,exp2.png,,,,,,,,,,,,,,,,,2,0,2,0,0,20,20,20,,,,,,,,,True,,,,,,,,,,,,,,,,,,,,,,,,,,,,,,,s_044,3,2021_Jan_17_1251,Reversal,3.2.4,59.993652672104865,
,,,,,,,,,,,,,,,,,,,2,0,2,0,,,,,0,0,0,0,,,,,,,,,,,,,,,,,,,,,,,,,,70,32,27,74,,,,,,,s_044,3,2021_Jan_17_1251,Reversal,3.2.4,59.993652672104865,
,,,,,,,,,,,,,,,,,,,,,,,,,,,,,,,,,,,,,,,,,,,,,,,,,,,,,,,85,,,,,,100,67,33,279.92568119999487,1,,,,,,,
