trial_index,trial_image1_file,trial_image2_file,learning_outer_loop.thisRepN,learning_outer_loop.thisTrialN,learning_outer_loop.thisN,learning_outer_loop.thisIndex,learning_inner_loop.thisRepN,learning_inner_loop.thisTrialN,learning_inner_loop.thisN,learning_inner_loop.thisIndex,learning_estimation_outer_loop.thisRepN,learning_estimation_outer_loop.thisTrialN,learning_estimation_outer_loop.thisN,learning_estimation_outer_loop.thisIndex,learning_estimation_inner_loop.thisRepN,learning_estimation_inner_loop.thisTrialN,learning_estimation_inner_loop.thisN,learning_estimation_inner_loop.thisIndex,reversal_outer_loop.thisRepN,reversal_outer_loop.thisTrialN,reversal_outer_loop.thisN,reversal_outer_loop.thisIndex,reversal_inner_loop.thisRepN,reversal_inner_loop.thisTrialN,reversal_inner_loop.thisN,reversal_inner_loop.thisIndex,reversal_estimation_outer_loop.thisRepN,reversal_estimation_outer_loop.thisTrialN,reversal_estimation_outer_loop.thisN,reversal_estimation_outer_loop.thisIndex,reversal_estimation_inner_loop.thisRepN,reversal_estimation_inner_loop.thisTrialN,reversal_estimation_inner_loop.thisN,reversal_estimation_inner_loop.thisIndex,skipped,total_trial_counter,trial_num,left_right_flip,left_image_file,right_image_file,clicked_stimulus_side,side,clicked_stimulus,version,high_prob_image_file,low_prob_image_file,choice_a,choice_b,pair_type,correct,trial_feedback_random,reward,trial_type,overall_time_after_trial,score,estimation_exp1.png,estimation_exp2.png,estimation_exp3.png,estimation_exp4.png,total_learning_time,total_correct,learning_correct,reversal_correct,total_reversal_time,extra_block,participant,ver,date,expName,psychopyVersion,frameRate
0,exp1.png,exp2.png,0,0,0,0,0,0,0,0,,,,,,,,,,,,,,,,,,,,,,,,,FALSE,0,1,FALSE,exp1.png,exp2.png,trial_left_image,1,exp1.png,4,exp2.png,exp1.png,0,2,non-reversed,incorrect,0.219389076,1,invalid_win,12.4753198,1,,,,,,,,,,,s_041,4,2021_Jan_12_1040,Reversal,3.2.4,60.05847293
1,exp3.png,exp4.png,0,0,0,0,0,1,1,1,,,,,,,,,,,,,,,,,,,,,,,,,FALSE,1,2,FALSE,exp3.png,exp4.png,trial_right_image,-1,exp4.png,4,exp4.png,exp3.png,1,3,reversed,correct,0.578655037,1,valid_win,19.3724873,2,,,,,,,,,,,s_041,4,2021_Jan_12_1040,Reversal,3.2.4,60.05847293
2,exp1.png,exp2.png,0,0,0,0,0,2,2,2,,,,,,,,,,,,,,,,,,,,,,,,,FALSE,2,3,TRUE,exp2.png,exp1.png,trial_right_image,-1,exp1.png,4,exp2.png,exp1.png,0,2,non-reversed,incorrect,0.507182763,0,valid_lose,26.0046371,2,,,,,,,,,,,s_041,4,2021_Jan_12_1040,Reversal,3.2.4,60.05847293
3,exp3.png,exp4.png,0,0,0,0,0,3,3,3,,,,,,,,,,,,,,,,,,,,,,,,,FALSE,3,4,FALSE,exp3.png,exp4.png,trial_left_image,1,exp3.png,4,exp4.png,exp3.png,0,4,reversed,incorrect,0.744260045,0,valid_lose,33.1348014,2,,,,,,,,,,,s_041,4,2021_Jan_12_1040,Reversal,3.2.4,60.05847293
4,exp1.png,exp2.png,0,0,0,0,0,4,4,4,,,,,,,,,,,,,,,,,,,,,,,,,FALSE,4,5,FALSE,exp1.png,exp2.png,trial_right_image,-1,exp2.png,4,exp2.png,exp1.png,1,1,non-reversed,correct,0.821341773,1,valid_win,40.8161435,3,,,,,,,,,,,s_041,4,2021_Jan_12_1040,Reversal,3.2.4,60.05847293
5,exp3.png,exp4.png,0,0,0,0,0,5,5,5,,,,,,,,,,,,,,,,,,,,,,,,,FALSE,5,6,TRUE,exp4.png,exp3.png,trial_right_image,-1,exp3.png,4,exp4.png,exp3.png,0,4,reversed,incorrect,0.963911582,0,valid_lose,46.1140148,3,,,,,,,,,,,s_041,4,2021_Jan_12_1040,Reversal,3.2.4,60.05847293
6,exp1.png,exp2.png,0,0,0,0,0,6,6,6,,,,,,,,,,,,,,,,,,,,,,,,,FALSE,6,7,TRUE,exp2.png,exp1.png,trial_left_image,1,exp2.png,4,exp2.png,exp1.png,1,1,non-reversed,correct,0.884239923,1,valid_win,51.5625279,4,,,,,,,,,,,s_041,4,2021_Jan_12_1040,Reversal,3.2.4,60.05847293
7,exp3.png,exp4.png,0,0,0,0,0,7,7,7,,,,,,,,,,,,,,,,,,,,,,,,,FALSE,7,8,TRUE,exp4.png,exp3.png,trial_right_image,-1,exp3.png,4,exp4.png,exp3.png,0,4,reversed,incorrect,0.13084791,1,invalid_win,57.9935081,5,,,,,,,,,,,s_041,4,2021_Jan_12_1040,Reversal,3.2.4,60.05847293
8,exp1.png,exp2.png,0,0,0,0,0,8,8,8,,,,,,,,,,,,,,,,,,,,,,,,,FALSE,8,9,FALSE,exp1.png,exp2.png,trial_right_image,-1,exp2.png,4,exp2.png,exp1.png,1,1,non-reversed,correct,0.622114045,1,valid_win,62.8413967,6,,,,,,,,,,,s_041,4,2021_Jan_12_1040,Reversal,3.2.4,60.05847293
9,exp3.png,exp4.png,0,0,0,0,0,9,9,9,,,,,,,,,,,,,,,,,,,,,,,,,FALSE,9,10,TRUE,exp4.png,exp3.png,trial_right_image,-1,exp3.png,4,exp4.png,exp3.png,0,4,reversed,incorrect,0.566149973,0,valid_lose,67.307312,6,,,,,,,,,,,s_041,4,2021_Jan_12_1040,Reversal,3.2.4,60.05847293
10,exp1.png,exp2.png,0,0,0,0,0,10,10,10,,,,,,,,,,,,,,,,,,,,,,,,,FALSE,10,11,TRUE,exp2.png,exp1.png,trial_left_image,1,exp2.png,4,exp2.png,exp1.png,1,1,non-reversed,correct,0.304996435,1,valid_win,71.9713284,7,,,,,,,,,,,s_041,4,2021_Jan_12_1040,Reversal,3.2.4,60.05847293
11,exp3.png,exp4.png,0,0,0,0,0,11,11,11,,,,,,,,,,,,,,,,,,,,,,,,,FALSE,11,12,TRUE,exp4.png,exp3.png,trial_right_image,-1,exp3.png,4,exp4.png,exp3.png,0,4,reversed,incorrect,0.913561046,0,valid_lose,76.7367926,7,,,,,,,,,,,s_041,4,2021_Jan_12_1040,Reversal,3.2.4,60.05847293
12,exp1.png,exp2.png,0,0,0,0,0,12,12,12,,,,,,,,,,,,,,,,,,,,,,,,,FALSE,12,13,TRUE,exp2.png,exp1.png,trial_right_image,-1,exp1.png,4,exp2.png,exp1.png,0,2,non-reversed,incorrect,0.621125036,0,valid_lose,81.4348143,7,,,,,,,,,,,s_041,4,2021_Jan_12_1040,Reversal,3.2.4,60.05847293
13,exp3.png,exp4.png,0,0,0,0,0,13,13,13,,,,,,,,,,,,,,,,,,,,,,,,,FALSE,13,14,TRUE,exp4.png,exp3.png,trial_right_image,-1,exp3.png,4,exp4.png,exp3.png,0,4,reversed,incorrect,0.229481448,1,invalid_win,85.7836756,8,,,,,,,,,,,s_041,4,2021_Jan_12_1040,Reversal,3.2.4,60.05847293
14,exp1.png,exp2.png,0,0,0,0,0,14,14,14,,,,,,,,,,,,,,,,,,,,,,,,,FALSE,14,15,FALSE,exp1.png,exp2.png,trial_right_image,-1,exp2.png,4,exp2.png,exp1.png,1,1,non-reversed,correct,0.808499606,1,valid_win,90.3822653,9,,,,,,,,,,,s_041,4,2021_Jan_12_1040,Reversal,3.2.4,60.05847293
15,exp3.png,exp4.png,0,0,0,0,0,15,15,15,,,,,,,,,,,,,,,,,,,,,,,,,FALSE,15,16,FALSE,exp3.png,exp4.png,trial_left_image,1,exp3.png,4,exp4.png,exp3.png,0,4,reversed,incorrect,0.304167103,0,valid_lose,94.6974986,9,,,,,,,,,,,s_041,4,2021_Jan_12_1040,Reversal,3.2.4,60.05847293
16,exp1.png,exp2.png,0,0,0,0,0,16,16,16,,,,,,,,,,,,,,,,,,,,,,,,,FALSE,16,17,FALSE,exp1.png,exp2.png,trial_right_image,-1,exp2.png,4,exp2.png,exp1.png,1,1,non-reversed,correct,0.411743809,1,valid_win,99.0635745,10,,,,,,,,,,,s_041,4,2021_Jan_12_1040,Reversal,3.2.4,60.05847293
17,exp3.png,exp4.png,0,0,0,0,0,17,17,17,,,,,,,,,,,,,,,,,,,,,,,,,FALSE,17,18,TRUE,exp4.png,exp3.png,trial_right_image,-1,exp3.png,4,exp4.png,exp3.png,0,4,reversed,incorrect,0.76069949,0,valid_lose,103.72826,10,,,,,,,,,,,s_041,4,2021_Jan_12_1040,Reversal,3.2.4,60.05847293
18,exp1.png,exp2.png,0,0,0,0,0,18,18,18,,,,,,,,,,,,,,,,,,,,,,,,,FALSE,18,19,FALSE,exp1.png,exp2.png,trial_right_image,-1,exp2.png,4,exp2.png,exp1.png,1,1,non-reversed,correct,0.781888722,1,valid_win,107.9748517,11,,,,,,,,,,,s_041,4,2021_Jan_12_1040,Reversal,3.2.4,60.05847293
19,exp3.png,exp4.png,0,0,0,0,0,19,19,19,,,,,,,,,,,,,,,,,,,,,,,,,FALSE,19,20,FALSE,exp3.png,exp4.png,trial_right_image,-1,exp4.png,4,exp4.png,exp3.png,1,3,reversed,correct,0.629498695,1,valid_win,112.1748073,12,,,,,,,,,,,s_041,4,2021_Jan_12_1040,Reversal,3.2.4,60.05847293
20,exp1.png,exp2.png,0,0,0,0,0,20,20,20,,,,,,,,,,,,,,,,,,,,,,,,,TRUE,,,,,,,,,,,,,,,,,,,,,,,,,,,,,,,s_041,4,2021_Jan_12_1040,Reversal,3.2.4,60.05847293
,,,0,0,0,0,,,,,0,0,0,0,,,,,,,,,,,,,,,,,,,,,,,,,,,,,,,,,,,,,,,,,,49,50,50,50,,,,,,,s_041,4,2021_Jan_12_1040,Reversal,3.2.4,60.05847293
0,exp1.png,exp2.png,1,0,1,0,0,0,0,0,,,,,,,,,,,,,,,,,,,,,,,,,FALSE,20,21,TRUE,exp2.png,exp1.png,trial_left_image,1,exp2.png,4,exp2.png,exp1.png,1,1,non-reversed,correct,0.374769833,1,valid_win,138.0165985,13,,,,,,,,,,,s_041,4,2021_Jan_12_1040,Reversal,3.2.4,60.05847293
1,exp3.png,exp4.png,1,0,1,0,0,1,1,1,,,,,,,,,,,,,,,,,,,,,,,,,FALSE,21,22,TRUE,exp4.png,exp3.png,trial_right_image,-1,exp3.png,4,exp4.png,exp3.png,0,4,reversed,incorrect,0.047051208,1,invalid_win,142.2808496,14,,,,,,,,,,,s_041,4,2021_Jan_12_1040,Reversal,3.2.4,60.05847293
2,exp1.png,exp2.png,1,0,1,0,0,2,2,2,,,,,,,,,,,,,,,,,,,,,,,,,FALSE,22,23,FALSE,exp1.png,exp2.png,trial_right_image,-1,exp2.png,4,exp2.png,exp1.png,1,1,non-reversed,correct,0.493353993,1,valid_win,146.9295681,15,,,,,,,,,,,s_041,4,2021_Jan_12_1040,Reversal,3.2.4,60.05847293
3,exp3.png,exp4.png,1,0,1,0,0,3,3,3,,,,,,,,,,,,,,,,,,,,,,,,,FALSE,23,24,TRUE,exp4.png,exp3.png,trial_right_image,-1,exp3.png,4,exp4.png,exp3.png,0,4,reversed,incorrect,0.434339315,0,valid_lose,152.0608069,15,,,,,,,,,,,s_041,4,2021_Jan_12_1040,Reversal,3.2.4,60.05847293
4,exp1.png,exp2.png,1,0,1,0,0,4,4,4,,,,,,,,,,,,,,,,,,,,,,,,,FALSE,24,25,TRUE,exp2.png,exp1.png,trial_right_image,-1,exp1.png,4,exp2.png,exp1.png,0,2,non-reversed,incorrect,0.647021864,0,valid_lose,157.0604391,15,,,,,,,,,,,s_041,4,2021_Jan_12_1040,Reversal,3.2.4,60.05847293
5,exp3.png,exp4.png,1,0,1,0,0,5,5,5,,,,,,,,,,,,,,,,,,,,,,,,,FALSE,25,26,FALSE,exp3.png,exp4.png,trial_right_image,-1,exp4.png,4,exp4.png,exp3.png,1,3,reversed,correct,0.64901519,1,valid_win,161.9576865,16,,,,,,,,,,,s_041,4,2021_Jan_12_1040,Reversal,3.2.4,60.05847293
6,exp1.png,exp2.png,1,0,1,0,0,6,6,6,,,,,,,,,,,,,,,,,,,,,,,,,FALSE,26,27,FALSE,exp1.png,exp2.png,trial_right_image,-1,exp2.png,4,exp2.png,exp1.png,1,1,non-reversed,correct,0.501507221,1,valid_win,167.2726799,17,,,,,,,,,,,s_041,4,2021_Jan_12_1040,Reversal,3.2.4,60.05847293
7,exp3.png,exp4.png,1,0,1,0,0,7,7,7,,,,,,,,,,,,,,,,,,,,,,,,,FALSE,27,28,FALSE,exp3.png,exp4.png,trial_right_image,-1,exp4.png,4,exp4.png,exp3.png,1,3,reversed,correct,0.987648281,1,valid_win,172.7882095,18,,,,,,,,,,,s_041,4,2021_Jan_12_1040,Reversal,3.2.4,60.05847293
8,exp1.png,exp2.png,1,0,1,0,0,8,8,8,,,,,,,,,,,,,,,,,,,,,,,,,FALSE,28,29,FALSE,exp1.png,exp2.png,trial_right_image,-1,exp2.png,4,exp2.png,exp1.png,1,1,non-reversed,correct,0.008115065,0,invalid_lose,177.452617,18,,,,,,,,,,,s_041,4,2021_Jan_12_1040,Reversal,3.2.4,60.05847293
9,exp3.png,exp4.png,1,0,1,0,0,9,9,9,,,,,,,,,,,,,,,,,,,,,,,,,FALSE,29,30,TRUE,exp4.png,exp3.png,trial_left_image,1,exp4.png,4,exp4.png,exp3.png,1,3,reversed,correct,0.140104081,0,invalid_lose,183.0327913,18,,,,,,,,,,,s_041,4,2021_Jan_12_1040,Reversal,3.2.4,60.05847293
10,exp1.png,exp2.png,1,0,1,0,0,10,10,10,,,,,,,,,,,,,,,,,,,,,,,,,FALSE,30,31,TRUE,exp2.png,exp1.png,trial_left_image,1,exp2.png,4,exp2.png,exp1.png,1,1,non-reversed,correct,0.678325004,1,valid_win,188.4981303,19,,,,,,,,,,,s_041,4,2021_Jan_12_1040,Reversal,3.2.4,60.05847293
11,exp3.png,exp4.png,1,0,1,0,0,11,11,11,,,,,,,,,,,,,,,,,,,,,,,,,FALSE,31,32,TRUE,exp4.png,exp3.png,trial_right_image,-1,exp3.png,4,exp4.png,exp3.png,0,4,reversed,incorrect,0.709210083,0,valid_lose,193.9299808,19,,,,,,,,,,,s_041,4,2021_Jan_12_1040,Reversal,3.2.4,60.05847293
12,exp1.png,exp2.png,1,0,1,0,0,12,12,12,,,,,,,,,,,,,,,,,,,,,,,,,FALSE,32,33,FALSE,exp1.png,exp2.png,trial_right_image,-1,exp2.png,4,exp2.png,exp1.png,1,1,non-reversed,correct,0.460533479,1,valid_win,198.5112429,20,,,,,,,,,,,s_041,4,2021_Jan_12_1040,Reversal,3.2.4,60.05847293
13,exp3.png,exp4.png,1,0,1,0,0,13,13,13,,,,,,,,,,,,,,,,,,,,,,,,,FALSE,33,34,FALSE,exp3.png,exp4.png,trial_right_image,-1,exp4.png,4,exp4.png,exp3.png,1,3,reversed,correct,0.637324579,1,valid_win,203.1443807,21,,,,,,,,,,,s_041,4,2021_Jan_12_1040,Reversal,3.2.4,60.05847293
14,exp1.png,exp2.png,1,0,1,0,0,14,14,14,,,,,,,,,,,,,,,,,,,,,,,,,FALSE,34,35,TRUE,exp2.png,exp1.png,trial_left_image,1,exp2.png,4,exp2.png,exp1.png,1,1,non-reversed,correct,0.84940637,1,valid_win,207.8256933,22,,,,,,,,,,,s_041,4,2021_Jan_12_1040,Reversal,3.2.4,60.05847293
15,exp3.png,exp4.png,1,0,1,0,0,15,15,15,,,,,,,,,,,,,,,,,,,,,,,,,FALSE,35,36,TRUE,exp4.png,exp3.png,trial_left_image,1,exp4.png,4,exp4.png,exp3.png,1,3,reversed,correct,0.302994142,1,valid_win,212.7736131,23,,,,,,,,,,,s_041,4,2021_Jan_12_1040,Reversal,3.2.4,60.05847293
16,exp1.png,exp2.png,1,0,1,0,0,16,16,16,,,,,,,,,,,,,,,,,,,,,,,,,FALSE,36,37,FALSE,exp1.png,exp2.png,trial_right_image,-1,exp2.png,4,exp2.png,exp1.png,1,1,non-reversed,correct,0.32242791,1,valid_win,217.1896673,24,,,,,,,,,,,s_041,4,2021_Jan_12_1040,Reversal,3.2.4,60.05847293
17,exp3.png,exp4.png,1,0,1,0,0,17,17,17,,,,,,,,,,,,,,,,,,,,,,,,,FALSE,37,38,FALSE,exp3.png,exp4.png,trial_right_image,-1,exp4.png,4,exp4.png,exp3.png,1,3,reversed,correct,0.552378226,1,valid_win,221.554337,25,,,,,,,,,,,s_041,4,2021_Jan_12_1040,Reversal,3.2.4,60.05847293
18,exp1.png,exp2.png,1,0,1,0,0,18,18,18,,,,,,,,,,,,,,,,,,,,,,,,,FALSE,38,39,FALSE,exp1.png,exp2.png,trial_right_image,-1,exp2.png,4,exp2.png,exp1.png,1,1,non-reversed,correct,0.758622703,1,valid_win,225.9694922,26,,,,,,,,,,,s_041,4,2021_Jan_12_1040,Reversal,3.2.4,60.05847293
19,exp3.png,exp4.png,1,0,1,0,0,19,19,19,,,,,,,,,,,,,,,,,,,,,,,,,FALSE,39,40,TRUE,exp4.png,exp3.png,trial_left_image,1,exp4.png,4,exp4.png,exp3.png,1,3,reversed,correct,0.879929784,1,valid_win,230.6347993,27,,,,,,,,,,,s_041,4,2021_Jan_12_1040,Reversal,3.2.4,60.05847293
20,exp1.png,exp2.png,1,0,1,0,0,20,20,20,,,,,,,,,,,,,,,,,,,,,,,,,TRUE,,,,,,,,,,,,,,,,,,,,,,,,,,,,,,,s_041,4,2021_Jan_12_1040,Reversal,3.2.4,60.05847293
,,,1,0,1,0,,,,,0,0,0,0,,,,,,,,,,,,,,,,,,,,,,,,,,,,,,,,,,,,,,,,,,21,50,32,79,,,,,,,s_041,4,2021_Jan_12_1040,Reversal,3.2.4,60.05847293
0,exp1.png,exp2.png,2,0,2,0,0,0,0,0,,,,,,,,,,,,,,,,,,,,,,,,,FALSE,40,41,FALSE,exp1.png,exp2.png,trial_right_image,-1,exp2.png,4,exp2.png,exp1.png,1,1,non-reversed,correct,0.618838905,1,valid_win,251.7598647,28,,,,,,,,,,,s_041,4,2021_Jan_12_1040,Reversal,3.2.4,60.05847293
1,exp3.png,exp4.png,2,0,2,0,0,1,1,1,,,,,,,,,,,,,,,,,,,,,,,,,FALSE,41,42,FALSE,exp3.png,exp4.png,trial_right_image,-1,exp4.png,4,exp4.png,exp3.png,1,3,reversed,correct,0.295345022,1,valid_win,256.4755222,29,,,,,,,,,,,s_041,4,2021_Jan_12_1040,Reversal,3.2.4,60.05847293
2,exp1.png,exp2.png,2,0,2,0,0,2,2,2,,,,,,,,,,,,,,,,,,,,,,,,,FALSE,42,43,TRUE,exp2.png,exp1.png,trial_right_image,-1,exp1.png,4,exp2.png,exp1.png,0,2,non-reversed,incorrect,0.380821401,0,valid_lose,262.3905604,29,,,,,,,,,,,s_041,4,2021_Jan_12_1040,Reversal,3.2.4,60.05847293
3,exp3.png,exp4.png,2,0,2,0,0,3,3,3,,,,,,,,,,,,,,,,,,,,,,,,,FALSE,43,44,TRUE,exp4.png,exp3.png,trial_left_image,1,exp4.png,4,exp4.png,exp3.png,1,3,reversed,correct,0.782027574,1,valid_win,267.5544849,30,,,,,,,,,,,s_041,4,2021_Jan_12_1040,Reversal,3.2.4,60.05847293
4,exp1.png,exp2.png,2,0,2,0,0,4,4,4,,,,,,,,,,,,,,,,,,,,,,,,,FALSE,44,45,TRUE,exp2.png,exp1.png,trial_left_image,1,exp2.png,4,exp2.png,exp1.png,1,1,non-reversed,correct,0.638650952,1,valid_win,273.45314,31,,,,,,,,,,,s_041,4,2021_Jan_12_1040,Reversal,3.2.4,60.05847293
5,exp3.png,exp4.png,2,0,2,0,0,5,5,5,,,,,,,,,,,,,,,,,,,,,,,,,FALSE,45,46,TRUE,exp4.png,exp3.png,trial_left_image,1,exp4.png,4,exp4.png,exp3.png,1,3,reversed,correct,0.734742801,1,valid_win,278.6172038,32,,,,,,,,,,,s_041,4,2021_Jan_12_1040,Reversal,3.2.4,60.05847293
6,exp1.png,exp2.png,2,0,2,0,0,6,6,6,,,,,,,,,,,,,,,,,,,,,,,,,FALSE,46,47,TRUE,exp2.png,exp1.png,trial_left_image,1,exp2.png,4,exp2.png,exp1.png,1,1,non-reversed,correct,0.513447432,1,valid_win,284.0820348,33,,,,,,,,,,,s_041,4,2021_Jan_12_1040,Reversal,3.2.4,60.05847293
7,exp3.png,exp4.png,2,0,2,0,0,7,7,7,,,,,,,,,,,,,,,,,,,,,,,,,FALSE,47,48,FALSE,exp3.png,exp4.png,trial_right_image,-1,exp4.png,4,exp4.png,exp3.png,1,3,reversed,correct,0.930234127,1,valid_win,288.681626,34,,,,,,,,,,,s_041,4,2021_Jan_12_1040,Reversal,3.2.4,60.05847293
8,exp1.png,exp2.png,2,0,2,0,0,8,8,8,,,,,,,,,,,,,,,,,,,,,,,,,FALSE,48,49,TRUE,exp2.png,exp1.png,trial_left_image,1,exp2.png,4,exp2.png,exp1.png,1,1,non-reversed,correct,0.666998974,1,valid_win,293.9464682,35,,,,,,,,,,,s_041,4,2021_Jan_12_1040,Reversal,3.2.4,60.05847293
9,exp3.png,exp4.png,2,0,2,0,0,9,9,9,,,,,,,,,,,,,,,,,,,,,,,,,FALSE,49,50,FALSE,exp3.png,exp4.png,trial_right_image,-1,exp4.png,4,exp4.png,exp3.png,1,3,reversed,correct,0.791239907,1,valid_win,298.2622131,36,,,,,,,,,,,s_041,4,2021_Jan_12_1040,Reversal,3.2.4,60.05847293
10,exp1.png,exp2.png,2,0,2,0,0,10,10,10,,,,,,,,,,,,,,,,,,,,,,,,,FALSE,50,51,FALSE,exp1.png,exp2.png,trial_right_image,-1,exp2.png,4,exp2.png,exp1.png,1,1,non-reversed,correct,0.00816804,0,invalid_lose,302.9437602,36,,,,,,,,,,,s_041,4,2021_Jan_12_1040,Reversal,3.2.4,60.05847293
11,exp3.png,exp4.png,2,0,2,0,0,11,11,11,,,,,,,,,,,,,,,,,,,,,,,,,FALSE,51,52,TRUE,exp4.png,exp3.png,trial_left_image,1,exp4.png,4,exp4.png,exp3.png,1,3,reversed,correct,0.419992746,1,valid_win,308.8253504,37,,,,,,,,,,,s_041,4,2021_Jan_12_1040,Reversal,3.2.4,60.05847293
12,exp1.png,exp2.png,2,0,2,0,0,12,12,12,,,,,,,,,,,,,,,,,,,,,,,,,FALSE,52,53,FALSE,exp1.png,exp2.png,trial_right_image,-1,exp2.png,4,exp2.png,exp1.png,1,1,non-reversed,correct,0.27954668,1,valid_win,313.4732016,38,,,,,,,,,,,s_041,4,2021_Jan_12_1040,Reversal,3.2.4,60.05847293
13,exp3.png,exp4.png,2,0,2,0,0,13,13,13,,,,,,,,,,,,,,,,,,,,,,,,,FALSE,53,54,FALSE,exp3.png,exp4.png,trial_right_image,-1,exp4.png,4,exp4.png,exp3.png,1,3,reversed,correct,0.113035737,0,invalid_lose,318.0387191,38,,,,,,,,,,,s_041,4,2021_Jan_12_1040,Reversal,3.2.4,60.05847293
14,exp1.png,exp2.png,2,0,2,0,0,14,14,14,,,,,,,,,,,,,,,,,,,,,,,,,FALSE,54,55,TRUE,exp2.png,exp1.png,trial_left_image,1,exp2.png,4,exp2.png,exp1.png,1,1,non-reversed,correct,0.052734534,0,invalid_lose,323.2367827,38,,,,,,,,,,,s_041,4,2021_Jan_12_1040,Reversal,3.2.4,60.05847293
15,exp3.png,exp4.png,2,0,2,0,0,15,15,15,,,,,,,,,,,,,,,,,,,,,,,,,FALSE,55,56,FALSE,exp3.png,exp4.png,trial_right_image,-1,exp4.png,4,exp4.png,exp3.png,1,3,reversed,correct,0.400313703,1,valid_win,327.5855731,39,,,,,,,,,,,s_041,4,2021_Jan_12_1040,Reversal,3.2.4,60.05847293
16,exp1.png,exp2.png,2,0,2,0,0,16,16,16,,,,,,,,,,,,,,,,,,,,,,,,,FALSE,56,57,FALSE,exp1.png,exp2.png,trial_right_image,-1,exp2.png,4,exp2.png,exp1.png,1,1,non-reversed,correct,0.163928729,0,invalid_lose,332.2665155,39,,,,,,,,,,,s_041,4,2021_Jan_12_1040,Reversal,3.2.4,60.05847293
17,exp3.png,exp4.png,2,0,2,0,0,17,17,17,,,,,,,,,,,,,,,,,,,,,,,,,FALSE,57,58,TRUE,exp4.png,exp3.png,trial_left_image,1,exp4.png,4,exp4.png,exp3.png,1,3,reversed,correct,0.975140576,1,valid_win,337.348424,40,,,,,,,,,,,s_041,4,2021_Jan_12_1040,Reversal,3.2.4,60.05847293
18,exp1.png,exp2.png,2,0,2,0,0,18,18,18,,,,,,,,,,,,,,,,,,,,,,,,,FALSE,58,59,TRUE,exp2.png,exp1.png,trial_right_image,-1,exp1.png,4,exp2.png,exp1.png,0,2,non-reversed,incorrect,0.99733661,0,valid_lose,342.4791624,40,,,,,,,,,,,s_041,4,2021_Jan_12_1040,Reversal,3.2.4,60.05847293
19,exp3.png,exp4.png,2,0,2,0,0,19,19,19,,,,,,,,,,,,,,,,,,,,,,,,,FALSE,59,60,FALSE,exp3.png,exp4.png,trial_right_image,-1,exp4.png,4,exp4.png,exp3.png,1,3,reversed,correct,0.141488026,0,invalid_lose,346.9286221,40,,,,,,,,,,,s_041,4,2021_Jan_12_1040,Reversal,3.2.4,60.05847293
20,exp1.png,exp2.png,2,0,2,0,0,20,20,20,,,,,,,,,,,,,,,,,,,,,,,,,TRUE,,,,,,,,,,,,,,,,,,,,,,,,,,,,,,,s_041,4,2021_Jan_12_1040,Reversal,3.2.4,60.05847293
,,,2,0,2,0,,,,,0,0,0,0,,,,,,,,,,,,,,,,,,,,,,,,,,,,,,,,,,,,,,,,,,14,67,41,84,,,,,,,s_041,4,2021_Jan_12_1040,Reversal,3.2.4,60.05847293
0,exp1.png,exp2.png,,,,,,,,,,,,,,,,,0,0,0,0,0,0,0,0,,,,,,,,,FALSE,0,61,TRUE,exp2.png,exp1.png,trial_left_image,1,exp2.png,4,exp2.png,exp1.png,1,1,non-reversed,correct,0.996044554,1,valid_win,367.7705332,41,,,,,364.7930881,,,,,,s_041,4,2021_Jan_12_1040,Reversal,3.2.4,60.05847293
1,exp3.png,exp4.png,,,,,,,,,,,,,,,,,0,0,0,0,0,1,1,1,,,,,,,,,FALSE,1,62,FALSE,exp3.png,exp4.png,trial_right_image,-1,exp4.png,4,exp3.png,exp4.png,1,3,reversed,incorrect,0.078265395,1,invalid_win,374.6015899,42,,,,,,,,,,,s_041,4,2021_Jan_12_1040,Reversal,3.2.4,60.05847293
2,exp1.png,exp2.png,,,,,,,,,,,,,,,,,0,0,0,0,0,2,2,2,,,,,,,,,FALSE,2,63,TRUE,exp2.png,exp1.png,trial_left_image,1,exp2.png,4,exp2.png,exp1.png,1,1,non-reversed,correct,0.235551255,0,invalid_lose,381.8500388,42,,,,,,,,,,,s_041,4,2021_Jan_12_1040,Reversal,3.2.4,60.05847293
3,exp3.png,exp4.png,,,,,,,,,,,,,,,,,0,0,0,0,0,3,3,3,,,,,,,,,FALSE,3,64,TRUE,exp4.png,exp3.png,trial_left_image,1,exp4.png,4,exp3.png,exp4.png,1,3,reversed,incorrect,0.314724521,0,valid_lose,386.8488279,42,,,,,,,,,,,s_041,4,2021_Jan_12_1040,Reversal,3.2.4,60.05847293
4,exp1.png,exp2.png,,,,,,,,,,,,,,,,,0,0,0,0,0,4,4,4,,,,,,,,,FALSE,4,65,TRUE,exp2.png,exp1.png,trial_left_image,1,exp2.png,4,exp2.png,exp1.png,1,1,non-reversed,correct,0.986802013,1,valid_win,391.8147685,43,,,,,,,,,,,s_041,4,2021_Jan_12_1040,Reversal,3.2.4,60.05847293
5,exp3.png,exp4.png,,,,,,,,,,,,,,,,,0,0,0,0,0,5,5,5,,,,,,,,,FALSE,5,66,FALSE,exp3.png,exp4.png,trial_right_image,-1,exp4.png,4,exp3.png,exp4.png,1,3,reversed,incorrect,0.809047915,0,valid_lose,396.1624258,43,,,,,,,,,,,s_041,4,2021_Jan_12_1040,Reversal,3.2.4,60.05847293
6,exp1.png,exp2.png,,,,,,,,,,,,,,,,,0,0,0,0,0,6,6,6,,,,,,,,,FALSE,6,67,FALSE,exp1.png,exp2.png,trial_right_image,-1,exp2.png,4,exp2.png,exp1.png,1,1,non-reversed,correct,0.420640938,1,valid_win,401.0107214,44,,,,,,,,,,,s_041,4,2021_Jan_12_1040,Reversal,3.2.4,60.05847293
7,exp3.png,exp4.png,,,,,,,,,,,,,,,,,0,0,0,0,0,7,7,7,,,,,,,,,FALSE,7,68,FALSE,exp3.png,exp4.png,trial_right_image,-1,exp4.png,4,exp3.png,exp4.png,1,3,reversed,incorrect,0.773412967,0,valid_lose,405.4591784,44,,,,,,,,,,,s_041,4,2021_Jan_12_1040,Reversal,3.2.4,60.05847293
8,exp1.png,exp2.png,,,,,,,,,,,,,,,,,0,0,0,0,0,8,8,8,,,,,,,,,FALSE,8,69,TRUE,exp2.png,exp1.png,trial_right_image,-1,exp1.png,4,exp2.png,exp1.png,0,2,non-reversed,incorrect,0.830642148,0,valid_lose,410.7072213,44,,,,,,,,,,,s_041,4,2021_Jan_12_1040,Reversal,3.2.4,60.05847293
9,exp3.png,exp4.png,,,,,,,,,,,,,,,,,0,0,0,0,0,9,9,9,,,,,,,,,FALSE,9,70,FALSE,exp3.png,exp4.png,trial_right_image,-1,exp4.png,4,exp3.png,exp4.png,1,3,reversed,incorrect,0.588371271,0,valid_lose,418.5030326,44,,,,,,,,,,,s_041,4,2021_Jan_12_1040,Reversal,3.2.4,60.05847293
10,exp1.png,exp2.png,,,,,,,,,,,,,,,,,0,0,0,0,0,10,10,10,,,,,,,,,FALSE,10,71,FALSE,exp1.png,exp2.png,trial_right_image,-1,exp2.png,4,exp2.png,exp1.png,1,1,non-reversed,correct,0.396662678,1,valid_win,422.8695654,45,,,,,,,,,,,s_041,4,2021_Jan_12_1040,Reversal,3.2.4,60.05847293
11,exp3.png,exp4.png,,,,,,,,,,,,,,,,,0,0,0,0,0,11,11,11,,,,,,,,,FALSE,11,72,FALSE,exp3.png,exp4.png,trial_right_image,-1,exp4.png,4,exp3.png,exp4.png,1,3,reversed,incorrect,0.215726154,1,invalid_win,427.2514613,46,,,,,,,,,,,s_041,4,2021_Jan_12_1040,Reversal,3.2.4,60.05847293
12,exp1.png,exp2.png,,,,,,,,,,,,,,,,,0,0,0,0,0,12,12,12,,,,,,,,,FALSE,12,73,FALSE,exp1.png,exp2.png,trial_right_image,-1,exp2.png,4,exp2.png,exp1.png,1,1,non-reversed,correct,0.699279662,1,valid_win,431.2823157,47,,,,,,,,,,,s_041,4,2021_Jan_12_1040,Reversal,3.2.4,60.05847293
13,exp3.png,exp4.png,,,,,,,,,,,,,,,,,0,0,0,0,0,13,13,13,,,,,,,,,FALSE,13,74,TRUE,exp4.png,exp3.png,trial_left_image,1,exp4.png,4,exp3.png,exp4.png,1,3,reversed,incorrect,0.599119825,0,valid_lose,435.8153283,47,,,,,,,,,,,s_041,4,2021_Jan_12_1040,Reversal,3.2.4,60.05847293
14,exp1.png,exp2.png,,,,,,,,,,,,,,,,,0,0,0,0,0,14,14,14,,,,,,,,,FALSE,14,75,FALSE,exp1.png,exp2.png,trial_right_image,-1,exp2.png,4,exp2.png,exp1.png,1,1,non-reversed,correct,0.752821931,1,valid_win,440.5805699,48,,,,,,,,,,,s_041,4,2021_Jan_12_1040,Reversal,3.2.4,60.05847293
15,exp3.png,exp4.png,,,,,,,,,,,,,,,,,0,0,0,0,0,15,15,15,,,,,,,,,FALSE,15,76,TRUE,exp4.png,exp3.png,trial_left_image,1,exp4.png,4,exp3.png,exp4.png,1,3,reversed,incorrect,0.195523073,1,invalid_win,445.5119902,49,,,,,,,,,,,s_041,4,2021_Jan_12_1040,Reversal,3.2.4,60.05847293
16,exp1.png,exp2.png,,,,,,,,,,,,,,,,,0,0,0,0,0,16,16,16,,,,,,,,,FALSE,16,77,TRUE,exp2.png,exp1.png,trial_right_image,-1,exp1.png,4,exp2.png,exp1.png,0,2,non-reversed,incorrect,0.663663167,0,valid_lose,451.7769292,49,,,,,,,,,,,s_041,4,2021_Jan_12_1040,Reversal,3.2.4,60.05847293
17,exp3.png,exp4.png,,,,,,,,,,,,,,,,,0,0,0,0,0,17,17,17,,,,,,,,,FALSE,17,78,TRUE,exp4.png,exp3.png,trial_left_image,1,exp4.png,4,exp3.png,exp4.png,1,3,reversed,incorrect,0.397625401,0,valid_lose,456.9918745,49,,,,,,,,,,,s_041,4,2021_Jan_12_1040,Reversal,3.2.4,60.05847293
18,exp1.png,exp2.png,,,,,,,,,,,,,,,,,0,0,0,0,0,18,18,18,,,,,,,,,FALSE,18,79,FALSE,exp1.png,exp2.png,trial_right_image,-1,exp2.png,4,exp2.png,exp1.png,1,1,non-reversed,correct,0.90707821,1,valid_win,461.9235054,50,,,,,,,,,,,s_041,4,2021_Jan_12_1040,Reversal,3.2.4,60.05847293
19,exp3.png,exp4.png,,,,,,,,,,,,,,,,,0,0,0,0,0,19,19,19,,,,,,,,,FALSE,19,80,TRUE,exp4.png,exp3.png,trial_left_image,1,exp4.png,4,exp3.png,exp4.png,1,3,reversed,incorrect,0.814185404,0,valid_lose,466.421824,50,,,,,,,,,,,s_041,4,2021_Jan_12_1040,Reversal,3.2.4,60.05847293
20,exp1.png,exp2.png,,,,,,,,,,,,,,,,,0,0,0,0,0,20,20,20,,,,,,,,,TRUE,,,,,,,,,,,,,,,,,,,,,,,,,,,,,,,s_041,4,2021_Jan_12_1040,Reversal,3.2.4,60.05847293
,,,,,,,,,,,,,,,,,,,0,0,0,0,,,,,0,0,0,0,,,,,,,,,,,,,,,,,,,,,,,,,,0,59,48,83,,,,,,,s_041,4,2021_Jan_12_1040,Reversal,3.2.4,60.05847293
0,exp1.png,exp2.png,,,,,,,,,,,,,,,,,1,0,1,0,0,0,0,0,,,,,,,,,FALSE,20,81,TRUE,exp2.png,exp1.png,trial_left_image,1,exp2.png,4,exp2.png,exp1.png,1,1,non-reversed,correct,0.98726562,1,valid_win,487.6473568,51,,,,,,,,,,,s_041,4,2021_Jan_12_1040,Reversal,3.2.4,60.05847293
1,exp3.png,exp4.png,,,,,,,,,,,,,,,,,1,0,1,0,0,1,1,1,,,,,,,,,FALSE,21,82,TRUE,exp4.png,exp3.png,trial_left_image,1,exp4.png,4,exp3.png,exp4.png,1,3,reversed,incorrect,0.832734212,0,valid_lose,492.4461848,51,,,,,,,,,,,s_041,4,2021_Jan_12_1040,Reversal,3.2.4,60.05847293
2,exp1.png,exp2.png,,,,,,,,,,,,,,,,,1,0,1,0,0,2,2,2,,,,,,,,,FALSE,22,83,FALSE,exp1.png,exp2.png,trial_right_image,-1,exp2.png,4,exp2.png,exp1.png,1,1,non-reversed,correct,0.184140866,0,invalid_lose,498.0276177,51,,,,,,,,,,,s_041,4,2021_Jan_12_1040,Reversal,3.2.4,60.05847293
3,exp3.png,exp4.png,,,,,,,,,,,,,,,,,1,0,1,0,0,3,3,3,,,,,,,,,FALSE,23,84,TRUE,exp4.png,exp3.png,trial_left_image,1,exp4.png,4,exp3.png,exp4.png,1,3,reversed,incorrect,0.474700508,0,valid_lose,502.3931995,51,,,,,,,,,,,s_041,4,2021_Jan_12_1040,Reversal,3.2.4,60.05847293
4,exp1.png,exp2.png,,,,,,,,,,,,,,,,,1,0,1,0,0,4,4,4,,,,,,,,,FALSE,24,85,TRUE,exp2.png,exp1.png,trial_right_image,-1,exp1.png,4,exp2.png,exp1.png,0,2,non-reversed,incorrect,0.432849531,0,valid_lose,507.3907426,51,,,,,,,,,,,s_041,4,2021_Jan_12_1040,Reversal,3.2.4,60.05847293
5,exp3.png,exp4.png,,,,,,,,,,,,,,,,,1,0,1,0,0,5,5,5,,,,,,,,,FALSE,25,86,TRUE,exp4.png,exp3.png,trial_left_image,1,exp4.png,4,exp3.png,exp4.png,1,3,reversed,incorrect,0.047471941,1,invalid_win,511.8900846,52,,,,,,,,,,,s_041,4,2021_Jan_12_1040,Reversal,3.2.4,60.05847293
6,exp1.png,exp2.png,,,,,,,,,,,,,,,,,1,0,1,0,0,6,6,6,,,,,,,,,FALSE,26,87,TRUE,exp2.png,exp1.png,trial_right_image,-1,exp1.png,4,exp2.png,exp1.png,0,2,non-reversed,incorrect,0.035131823,1,invalid_win,519.5190041,53,,,,,,,,,,,s_041,4,2021_Jan_12_1040,Reversal,3.2.4,60.05847293
7,exp3.png,exp4.png,,,,,,,,,,,,,,,,,1,0,1,0,0,7,7,7,,,,,,,,,FALSE,27,88,TRUE,exp4.png,exp3.png,trial_left_image,1,exp4.png,4,exp3.png,exp4.png,1,3,reversed,incorrect,0.40530968,0,valid_lose,524.7686291,53,,,,,,,,,,,s_041,4,2021_Jan_12_1040,Reversal,3.2.4,60.05847293
8,exp1.png,exp2.png,,,,,,,,,,,,,,,,,1,0,1,0,0,8,8,8,,,,,,,,,FALSE,28,89,FALSE,exp1.png,exp2.png,trial_left_image,1,exp1.png,4,exp2.png,exp1.png,0,2,non-reversed,incorrect,0.369366761,0,valid_lose,529.4667074,53,,,,,,,,,,,s_041,4,2021_Jan_12_1040,Reversal,3.2.4,60.05847293
9,exp3.png,exp4.png,,,,,,,,,,,,,,,,,1,0,1,0,0,9,9,9,,,,,,,,,FALSE,29,90,TRUE,exp4.png,exp3.png,trial_left_image,1,exp4.png,4,exp3.png,exp4.png,1,3,reversed,incorrect,0.913918447,0,valid_lose,534.215711,53,,,,,,,,,,,s_041,4,2021_Jan_12_1040,Reversal,3.2.4,60.05847293
10,exp1.png,exp2.png,,,,,,,,,,,,,,,,,1,0,1,0,0,10,10,10,,,,,,,,,FALSE,30,91,TRUE,exp2.png,exp1.png,trial_left_image,1,exp2.png,4,exp2.png,exp1.png,1,1,non-reversed,correct,0.901069669,1,valid_win,539.3307517,54,,,,,,,,,,,s_041,4,2021_Jan_12_1040,Reversal,3.2.4,60.05847293
11,exp3.png,exp4.png,,,,,,,,,,,,,,,,,1,0,1,0,0,11,11,11,,,,,,,,,FALSE,31,92,FALSE,exp3.png,exp4.png,trial_left_image,1,exp3.png,4,exp3.png,exp4.png,0,4,reversed,correct,0.033608168,0,invalid_lose,543.8323152,54,,,,,,,,,,,s_041,4,2021_Jan_12_1040,Reversal,3.2.4,60.05847293
12,exp1.png,exp2.png,,,,,,,,,,,,,,,,,1,0,1,0,0,12,12,12,,,,,,,,,FALSE,32,93,FALSE,exp1.png,exp2.png,trial_right_image,-1,exp2.png,4,exp2.png,exp1.png,1,1,non-reversed,correct,0.606071655,1,valid_win,548.8768565,55,,,,,,,,,,,s_041,4,2021_Jan_12_1040,Reversal,3.2.4,60.05847293
13,exp3.png,exp4.png,,,,,,,,,,,,,,,,,1,0,1,0,0,13,13,13,,,,,,,,,FALSE,33,94,FALSE,exp3.png,exp4.png,trial_left_image,1,exp3.png,4,exp3.png,exp4.png,0,4,reversed,correct,0.924559207,1,valid_win,555.0921432,56,,,,,,,,,,,s_041,4,2021_Jan_12_1040,Reversal,3.2.4,60.05847293
14,exp1.png,exp2.png,,,,,,,,,,,,,,,,,1,0,1,0,0,14,14,14,,,,,,,,,FALSE,34,95,FALSE,exp1.png,exp2.png,trial_right_image,-1,exp2.png,4,exp2.png,exp1.png,1,1,non-reversed,correct,0.002811951,0,invalid_lose,560.4727064,56,,,,,,,,,,,s_041,4,2021_Jan_12_1040,Reversal,3.2.4,60.05847293
15,exp3.png,exp4.png,,,,,,,,,,,,,,,,,1,0,1,0,0,15,15,15,,,,,,,,,FALSE,35,96,FALSE,exp3.png,exp4.png,trial_right_image,-1,exp4.png,4,exp3.png,exp4.png,1,3,reversed,incorrect,0.494997417,0,valid_lose,565.1718095,56,,,,,,,,,,,s_041,4,2021_Jan_12_1040,Reversal,3.2.4,60.05847293
16,exp1.png,exp2.png,,,,,,,,,,,,,,,,,1,0,1,0,0,16,16,16,,,,,,,,,FALSE,36,97,TRUE,exp2.png,exp1.png,trial_left_image,1,exp2.png,4,exp2.png,exp1.png,1,1,non-reversed,correct,0.020457379,0,invalid_lose,570.487101,56,,,,,,,,,,,s_041,4,2021_Jan_12_1040,Reversal,3.2.4,60.05847293
17,exp3.png,exp4.png,,,,,,,,,,,,,,,,,1,0,1,0,0,17,17,17,,,,,,,,,FALSE,37,98,FALSE,exp3.png,exp4.png,trial_left_image,1,exp3.png,4,exp3.png,exp4.png,0,4,reversed,correct,0.50616243,1,valid_win,575.5009858,57,,,,,,,,,,,s_041,4,2021_Jan_12_1040,Reversal,3.2.4,60.05847293
18,exp1.png,exp2.png,,,,,,,,,,,,,,,,,1,0,1,0,0,18,18,18,,,,,,,,,FALSE,38,99,FALSE,exp1.png,exp2.png,trial_right_image,-1,exp2.png,4,exp2.png,exp1.png,1,1,non-reversed,correct,0.868690904,1,valid_win,580.348944,58,,,,,,,,,,,s_041,4,2021_Jan_12_1040,Reversal,3.2.4,60.05847293
19,exp3.png,exp4.png,,,,,,,,,,,,,,,,,1,0,1,0,0,19,19,19,,,,,,,,,FALSE,39,100,FALSE,exp3.png,exp4.png,trial_left_image,1,exp3.png,4,exp3.png,exp4.png,0,4,reversed,correct,0.720007311,1,valid_win,585.4648536,59,,,,,,,,,,,s_041,4,2021_Jan_12_1040,Reversal,3.2.4,60.05847293
20,exp1.png,exp2.png,,,,,,,,,,,,,,,,,1,0,1,0,0,20,20,20,,,,,,,,,TRUE,,,,,,,,,,,,,,,,,,,,,,,,,,,,,,,s_041,4,2021_Jan_12_1040,Reversal,3.2.4,60.05847293
,,,,,,,,,,,,,,,,,,,1,0,1,0,,,,,0,0,0,0,,,,,,,,,,,,,,,,,,,,,,,,,,36,70,64,14,,,,,,,s_041,4,2021_Jan_12_1040,Reversal,3.2.4,60.05847293
0,exp1.png,exp2.png,,,,,,,,,,,,,,,,,2,0,2,0,0,0,0,0,,,,,,,,,FALSE,40,101,FALSE,exp1.png,exp2.png,trial_left_image,1,exp1.png,4,exp2.png,exp1.png,0,2,non-reversed,incorrect,0.833543361,0,valid_lose,614.4879435,59,,,,,,,,,,,s_041,4,2021_Jan_12_1040,Reversal,3.2.4,60.05847293
1,exp3.png,exp4.png,,,,,,,,,,,,,,,,,2,0,2,0,0,1,1,1,,,,,,,,,FALSE,41,102,TRUE,exp4.png,exp3.png,trial_right_image,-1,exp3.png,4,exp3.png,exp4.png,0,4,reversed,correct,0.69832463,1,valid_win,623.7849528,60,,,,,,,,,,,s_041,4,2021_Jan_12_1040,Reversal,3.2.4,60.05847293
2,exp1.png,exp2.png,,,,,,,,,,,,,,,,,2,0,2,0,0,2,2,2,,,,,,,,,FALSE,42,103,FALSE,exp1.png,exp2.png,trial_right_image,-1,exp2.png,4,exp2.png,exp1.png,1,1,non-reversed,correct,0.938883069,1,valid_win,627.833856,61,,,,,,,,,,,s_041,4,2021_Jan_12_1040,Reversal,3.2.4,60.05847293
3,exp3.png,exp4.png,,,,,,,,,,,,,,,,,2,0,2,0,0,3,3,3,,,,,,,,,FALSE,43,104,TRUE,exp4.png,exp3.png,trial_left_image,1,exp4.png,4,exp3.png,exp4.png,1,3,reversed,incorrect,0.182763363,1,invalid_win,632.6482979,62,,,,,,,,,,,s_041,4,2021_Jan_12_1040,Reversal,3.2.4,60.05847293
4,exp1.png,exp2.png,,,,,,,,,,,,,,,,,2,0,2,0,0,4,4,4,,,,,,,,,FALSE,44,105,FALSE,exp1.png,exp2.png,trial_right_image,-1,exp2.png,4,exp2.png,exp1.png,1,1,non-reversed,correct,0.81193463,1,valid_win,637.0965612,63,,,,,,,,,,,s_041,4,2021_Jan_12_1040,Reversal,3.2.4,60.05847293
5,exp3.png,exp4.png,,,,,,,,,,,,,,,,,2,0,2,0,0,5,5,5,,,,,,,,,FALSE,45,106,TRUE,exp4.png,exp3.png,trial_left_image,1,exp4.png,4,exp3.png,exp4.png,1,3,reversed,incorrect,0.600579702,0,valid_lose,641.7115417,63,,,,,,,,,,,s_041,4,2021_Jan_12_1040,Reversal,3.2.4,60.05847293
6,exp1.png,exp2.png,,,,,,,,,,,,,,,,,2,0,2,0,0,6,6,6,,,,,,,,,FALSE,46,107,FALSE,exp1.png,exp2.png,trial_right_image,-1,exp2.png,4,exp2.png,exp1.png,1,1,non-reversed,correct,0.511986293,1,valid_win,648.9766379,64,,,,,,,,,,,s_041,4,2021_Jan_12_1040,Reversal,3.2.4,60.05847293
7,exp3.png,exp4.png,,,,,,,,,,,,,,,,,2,0,2,0,0,7,7,7,,,,,,,,,FALSE,47,108,FALSE,exp3.png,exp4.png,trial_left_image,1,exp3.png,4,exp3.png,exp4.png,0,4,reversed,correct,0.170861348,0,invalid_lose,655.9237467,64,,,,,,,,,,,s_041,4,2021_Jan_12_1040,Reversal,3.2.4,60.05847293
8,exp1.png,exp2.png,,,,,,,,,,,,,,,,,2,0,2,0,0,8,8,8,,,,,,,,,FALSE,48,109,FALSE,exp1.png,exp2.png,trial_right_image,-1,exp2.png,4,exp2.png,exp1.png,1,1,non-reversed,correct,0.235423046,0,invalid_lose,660.4888994,64,,,,,,,,,,,s_041,4,2021_Jan_12_1040,Reversal,3.2.4,60.05847293
9,exp3.png,exp4.png,,,,,,,,,,,,,,,,,2,0,2,0,0,9,9,9,,,,,,,,,FALSE,49,110,TRUE,exp4.png,exp3.png,trial_left_image,1,exp4.png,4,exp3.png,exp4.png,1,3,reversed,incorrect,0.690304657,0,valid_lose,665.103936,64,,,,,,,,,,,s_041,4,2021_Jan_12_1040,Reversal,3.2.4,60.05847293
10,exp1.png,exp2.png,,,,,,,,,,,,,,,,,2,0,2,0,0,10,10,10,,,,,,,,,FALSE,50,111,TRUE,exp2.png,exp1.png,trial_left_image,1,exp2.png,4,exp2.png,exp1.png,1,1,non-reversed,correct,0.198040836,0,invalid_lose,670.2681778,64,,,,,,,,,,,s_041,4,2021_Jan_12_1040,Reversal,3.2.4,60.05847293
11,exp3.png,exp4.png,,,,,,,,,,,,,,,,,2,0,2,0,0,11,11,11,,,,,,,,,FALSE,51,112,FALSE,exp3.png,exp4.png,trial_left_image,1,exp3.png,4,exp3.png,exp4.png,0,4,reversed,correct,0.971360815,1,valid_win,675.5663699,65,,,,,,,,,,,s_041,4,2021_Jan_12_1040,Reversal,3.2.4,60.05847293
12,exp1.png,exp2.png,,,,,,,,,,,,,,,,,2,0,2,0,0,12,12,12,,,,,,,,,FALSE,52,113,TRUE,exp2.png,exp1.png,trial_left_image,1,exp2.png,4,exp2.png,exp1.png,1,1,non-reversed,correct,0.41270177,1,valid_win,680.7974395,66,,,,,,,,,,,s_041,4,2021_Jan_12_1040,Reversal,3.2.4,60.05847293
13,exp3.png,exp4.png,,,,,,,,,,,,,,,,,2,0,2,0,0,13,13,13,,,,,,,,,FALSE,53,114,TRUE,exp4.png,exp3.png,trial_right_image,-1,exp3.png,4,exp3.png,exp4.png,0,4,reversed,correct,0.522672659,1,valid_win,685.6459713,67,,,,,,,,,,,s_041,4,2021_Jan_12_1040,Reversal,3.2.4,60.05847293
14,exp1.png,exp2.png,,,,,,,,,,,,,,,,,2,0,2,0,0,14,14,14,,,,,,,,,FALSE,54,115,FALSE,exp1.png,exp2.png,trial_right_image,-1,exp2.png,4,exp2.png,exp1.png,1,1,non-reversed,correct,0.872472876,1,valid_win,690.4295118,68,,,,,,,,,,,s_041,4,2021_Jan_12_1040,Reversal,3.2.4,60.05847293
15,exp3.png,exp4.png,,,,,,,,,,,,,,,,,2,0,2,0,0,15,15,15,,,,,,,,,FALSE,55,116,FALSE,exp3.png,exp4.png,trial_left_image,1,exp3.png,4,exp3.png,exp4.png,0,4,reversed,correct,0.780305756,1,valid_win,697.5432013,69,,,,,,,,,,,s_041,4,2021_Jan_12_1040,Reversal,3.2.4,60.05847293
16,exp1.png,exp2.png,,,,,,,,,,,,,,,,,2,0,2,0,0,16,16,16,,,,,,,,,FALSE,56,117,FALSE,exp1.png,exp2.png,trial_right_image,-1,exp2.png,4,exp2.png,exp1.png,1,1,non-reversed,correct,0.63706501,1,valid_win,702.2916302,70,,,,,,,,,,,s_041,4,2021_Jan_12_1040,Reversal,3.2.4,60.05847293
17,exp3.png,exp4.png,,,,,,,,,,,,,,,,,2,0,2,0,0,17,17,17,,,,,,,,,FALSE,57,118,TRUE,exp4.png,exp3.png,trial_right_image,-1,exp3.png,4,exp3.png,exp4.png,0,4,reversed,correct,0.977787852,1,valid_win,710.8721499,71,,,,,,,,,,,s_041,4,2021_Jan_12_1040,Reversal,3.2.4,60.05847293
18,exp1.png,exp2.png,,,,,,,,,,,,,,,,,2,0,2,0,0,18,18,18,,,,,,,,,FALSE,58,119,TRUE,exp2.png,exp1.png,trial_left_image,1,exp2.png,4,exp2.png,exp1.png,1,1,non-reversed,correct,0.174313878,0,invalid_lose,721.5507434,71,,,,,,,,,,,s_041,4,2021_Jan_12_1040,Reversal,3.2.4,60.05847293
19,exp3.png,exp4.png,,,,,,,,,,,,,,,,,2,0,2,0,0,19,19,19,,,,,,,,,FALSE,59,120,TRUE,exp4.png,exp3.png,trial_right_image,-1,exp3.png,4,exp3.png,exp4.png,0,4,reversed,correct,0.777226085,1,valid_win,726.5994813,72,,,,,,,,,,,s_041,4,2021_Jan_12_1040,Reversal,3.2.4,60.05847293
20,exp1.png,exp2.png,,,,,,,,,,,,,,,,,2,0,2,0,0,20,20,20,,,,,,,,,TRUE,,,,,,,,,,,,,,,,,,,,,,,,,,,,,,,s_041,4,2021_Jan_12_1040,Reversal,3.2.4,60.05847293
,,,,,,,,,,,,,,,,,,,2,0,2,0,,,,,0,0,0,0,,,,,,,,,,,,,,,,,,,,,,,,,,36,73,72,19,,,,,,,s_041,4,2021_Jan_12_1040,Reversal,3.2.4,60.05847293
,,,,,,,,,,,,,,,,,,,,,,,,,,,,,,,,,,,,,,,,,,,,,,,,,,,,,,,72,,,,,,78,43,35,375.0669166,0,,,,,,
