trial_index,trial_image1_file,trial_image2_file,learning_outer_loop.thisRepN,learning_outer_loop.thisTrialN,learning_outer_loop.thisN,learning_outer_loop.thisIndex,learning_inner_loop.thisRepN,learning_inner_loop.thisTrialN,learning_inner_loop.thisN,learning_inner_loop.thisIndex,learning_estimation_outer_loop.thisRepN,learning_estimation_outer_loop.thisTrialN,learning_estimation_outer_loop.thisN,learning_estimation_outer_loop.thisIndex,learning_estimation_inner_loop.thisRepN,learning_estimation_inner_loop.thisTrialN,learning_estimation_inner_loop.thisN,learning_estimation_inner_loop.thisIndex,reversal_outer_loop.thisRepN,reversal_outer_loop.thisTrialN,reversal_outer_loop.thisN,reversal_outer_loop.thisIndex,reversal_inner_loop.thisRepN,reversal_inner_loop.thisTrialN,reversal_inner_loop.thisN,reversal_inner_loop.thisIndex,reversal_estimation_outer_loop.thisRepN,reversal_estimation_outer_loop.thisTrialN,reversal_estimation_outer_loop.thisN,reversal_estimation_outer_loop.thisIndex,reversal_estimation_inner_loop.thisRepN,reversal_estimation_inner_loop.thisTrialN,reversal_estimation_inner_loop.thisN,reversal_estimation_inner_loop.thisIndex,skipped,total_trial_counter,trial_num,left_right_flip,left_image_file,right_image_file,clicked_stimulus_side,side,clicked_stimulus,version,high_prob_image_file,low_prob_image_file,choice_a,choice_b,pair_type,correct,trial_feedback_random,reward,trial_type,overall_time_after_trial,score,estimation_exp1.png,estimation_exp2.png,estimation_exp3.png,estimation_exp4.png,total_learning_time,total_correct,learning_correct,reversal_correct,total_reversal_time,extra_block,participant,ver,date,expName,psychopyVersion,frameRate,
0,exp1.png,exp2.png,0,0,0,0,0,0,0,0,,,,,,,,,,,,,,,,,,,,,,,,,True,,,,,,,,,,,,,,,,,,,,,,,,,,,,,,,s_046,2,2021_Jan_19_1132,Reversal,3.2.4,59.896235752029106,
1,exp3.png,exp4.png,0,0,0,0,0,1,1,1,,,,,,,,,,,,,,,,,,,,,,,,,False,0,1,True,exp4.png,exp3.png,trial_right_image,-1,exp3.png,2,exp3.png,exp4.png,1,3,reversed,correct,0.838427197864082,1,valid_win,7.476427299901843,1,,,,,,,,,,,s_046,2,2021_Jan_19_1132,Reversal,3.2.4,59.896235752029106,
2,exp1.png,exp2.png,0,0,0,0,0,2,2,2,,,,,,,,,,,,,,,,,,,,,,,,,False,1,2,False,exp1.png,exp2.png,trial_right_image,-1,exp2.png,2,exp1.png,exp2.png,0,2,non-reversed,incorrect,0.24036831517857138,1,invalid_win,14.673762199934572,2,,,,,,,,,,,s_046,2,2021_Jan_19_1132,Reversal,3.2.4,59.896235752029106,
3,exp3.png,exp4.png,0,0,0,0,0,3,3,3,,,,,,,,,,,,,,,,,,,,,,,,,False,2,3,True,exp4.png,exp3.png,trial_right_image,-1,exp3.png,2,exp3.png,exp4.png,1,3,reversed,correct,0.6639685534820847,1,valid_win,26.55333659995813,3,,,,,,,,,,,s_046,2,2021_Jan_19_1132,Reversal,3.2.4,59.896235752029106,
4,exp1.png,exp2.png,0,0,0,0,0,4,4,4,,,,,,,,,,,,,,,,,,,,,,,,,False,3,4,True,exp2.png,exp1.png,trial_left_image,1,exp2.png,2,exp1.png,exp2.png,0,2,non-reversed,incorrect,0.773933995831872,0,valid_lose,32.21715739998035,3,,,,,,,,,,,s_046,2,2021_Jan_19_1132,Reversal,3.2.4,59.896235752029106,
5,exp3.png,exp4.png,0,0,0,0,0,5,5,5,,,,,,,,,,,,,,,,,,,,,,,,,False,4,5,False,exp3.png,exp4.png,trial_right_image,-1,exp4.png,2,exp3.png,exp4.png,0,4,reversed,incorrect,0.184297823026776,1,invalid_win,37.86669910000637,4,,,,,,,,,,,s_046,2,2021_Jan_19_1132,Reversal,3.2.4,59.896235752029106,
6,exp1.png,exp2.png,0,0,0,0,0,6,6,6,,,,,,,,,,,,,,,,,,,,,,,,,False,5,6,False,exp1.png,exp2.png,trial_right_image,-1,exp2.png,2,exp1.png,exp2.png,0,2,non-reversed,incorrect,0.4425243550140652,0,valid_lose,43.248037299956195,4,,,,,,,,,,,s_046,2,2021_Jan_19_1132,Reversal,3.2.4,59.896235752029106,
7,exp3.png,exp4.png,0,0,0,0,0,7,7,7,,,,,,,,,,,,,,,,,,,,,,,,,False,6,7,True,exp4.png,exp3.png,trial_right_image,-1,exp3.png,2,exp3.png,exp4.png,1,3,reversed,correct,0.627303103366779,1,valid_win,47.630040299962275,5,,,,,,,,,,,s_046,2,2021_Jan_19_1132,Reversal,3.2.4,59.896235752029106,
8,exp1.png,exp2.png,0,0,0,0,0,8,8,8,,,,,,,,,,,,,,,,,,,,,,,,,False,7,8,False,exp1.png,exp2.png,trial_right_image,-1,exp2.png,2,exp1.png,exp2.png,0,2,non-reversed,incorrect,0.02792399807773549,1,invalid_win,54.12658459995873,6,,,,,,,,,,,s_046,2,2021_Jan_19_1132,Reversal,3.2.4,59.896235752029106,
9,exp3.png,exp4.png,0,0,0,0,0,9,9,9,,,,,,,,,,,,,,,,,,,,,,,,,False,8,9,True,exp4.png,exp3.png,trial_left_image,1,exp4.png,2,exp3.png,exp4.png,0,4,reversed,incorrect,0.15343367608696856,1,invalid_win,61.34106579993386,7,,,,,,,,,,,s_046,2,2021_Jan_19_1132,Reversal,3.2.4,59.896235752029106,
10,exp1.png,exp2.png,0,0,0,0,0,10,10,10,,,,,,,,,,,,,,,,,,,,,,,,,False,9,10,True,exp2.png,exp1.png,trial_left_image,1,exp2.png,2,exp1.png,exp2.png,0,2,non-reversed,incorrect,0.43226574444458576,0,valid_lose,65.79009489994496,7,,,,,,,,,,,s_046,2,2021_Jan_19_1132,Reversal,3.2.4,59.896235752029106,
11,exp3.png,exp4.png,0,0,0,0,0,11,11,11,,,,,,,,,,,,,,,,,,,,,,,,,False,10,11,True,exp4.png,exp3.png,trial_right_image,-1,exp3.png,2,exp3.png,exp4.png,1,3,reversed,correct,0.05329377006382485,0,invalid_lose,69.8053399999626,7,,,,,,,,,,,s_046,2,2021_Jan_19_1132,Reversal,3.2.4,59.896235752029106,
12,exp1.png,exp2.png,0,0,0,0,0,12,12,12,,,,,,,,,,,,,,,,,,,,,,,,,False,11,12,False,exp1.png,exp2.png,trial_right_image,-1,exp2.png,2,exp1.png,exp2.png,0,2,non-reversed,incorrect,0.30838785245440614,0,valid_lose,74.23616179998498,7,,,,,,,,,,,s_046,2,2021_Jan_19_1132,Reversal,3.2.4,59.896235752029106,
13,exp3.png,exp4.png,0,0,0,0,0,13,13,13,,,,,,,,,,,,,,,,,,,,,,,,,False,12,13,False,exp3.png,exp4.png,trial_right_image,-1,exp4.png,2,exp3.png,exp4.png,0,4,reversed,incorrect,0.9744718304223022,0,valid_lose,80.5018407999305,7,,,,,,,,,,,s_046,2,2021_Jan_19_1132,Reversal,3.2.4,59.896235752029106,
14,exp1.png,exp2.png,0,0,0,0,0,14,14,14,,,,,,,,,,,,,,,,,,,,,,,,,False,13,14,False,exp1.png,exp2.png,trial_left_image,1,exp1.png,2,exp1.png,exp2.png,1,1,non-reversed,correct,0.8493734552227546,1,valid_win,87.31587839999702,8,,,,,,,,,,,s_046,2,2021_Jan_19_1132,Reversal,3.2.4,59.896235752029106,
15,exp3.png,exp4.png,0,0,0,0,0,15,15,15,,,,,,,,,,,,,,,,,,,,,,,,,False,14,15,True,exp4.png,exp3.png,trial_left_image,1,exp4.png,2,exp3.png,exp4.png,0,4,reversed,incorrect,0.15080954505146948,1,invalid_win,91.73099209996872,9,,,,,,,,,,,s_046,2,2021_Jan_19_1132,Reversal,3.2.4,59.896235752029106,
16,exp1.png,exp2.png,0,0,0,0,0,16,16,16,,,,,,,,,,,,,,,,,,,,,,,,,False,15,16,False,exp1.png,exp2.png,trial_left_image,1,exp1.png,2,exp1.png,exp2.png,1,1,non-reversed,correct,0.7769155124261337,1,valid_win,95.94611319992691,10,,,,,,,,,,,s_046,2,2021_Jan_19_1132,Reversal,3.2.4,59.896235752029106,
17,exp3.png,exp4.png,0,0,0,0,0,17,17,17,,,,,,,,,,,,,,,,,,,,,,,,,False,16,17,False,exp3.png,exp4.png,trial_right_image,-1,exp4.png,2,exp3.png,exp4.png,0,4,reversed,incorrect,0.982546110031594,0,valid_lose,102.54432619991712,10,,,,,,,,,,,s_046,2,2021_Jan_19_1132,Reversal,3.2.4,59.896235752029106,
18,exp1.png,exp2.png,0,0,0,0,0,18,18,18,,,,,,,,,,,,,,,,,,,,,,,,,False,17,18,True,exp2.png,exp1.png,trial_right_image,-1,exp1.png,2,exp1.png,exp2.png,1,1,non-reversed,correct,0.17119316584792166,0,invalid_lose,106.85934969992377,10,,,,,,,,,,,s_046,2,2021_Jan_19_1132,Reversal,3.2.4,59.896235752029106,
19,exp3.png,exp4.png,0,0,0,0,0,19,19,19,,,,,,,,,,,,,,,,,,,,,,,,,False,18,19,True,exp4.png,exp3.png,trial_left_image,1,exp4.png,2,exp3.png,exp4.png,0,4,reversed,incorrect,0.08257672601677002,1,invalid_win,110.75839969993103,11,,,,,,,,,,,s_046,2,2021_Jan_19_1132,Reversal,3.2.4,59.896235752029106,
20,exp1.png,exp2.png,0,0,0,0,0,20,20,20,,,,,,,,,,,,,,,,,,,,,,,,,False,19,20,False,exp1.png,exp2.png,trial_right_image,-1,exp2.png,2,exp1.png,exp2.png,0,2,non-reversed,incorrect,0.5804190495164985,0,valid_lose,114.70656959991902,11,,,,,,,,,,,s_046,2,2021_Jan_19_1132,Reversal,3.2.4,59.896235752029106,
,,,0,0,0,0,,,,,0,0,0,0,,,,,,,,,,,,,,,,,,,,,,,,,,,,,,,,,,,,,,,,,,50.0,37,69,61,,,,,,,s_046,2,2021_Jan_19_1132,Reversal,3.2.4,59.896235752029106,
0,exp1.png,exp2.png,1,0,1,0,0,0,0,0,,,,,,,,,,,,,,,,,,,,,,,,,True,,,,,,,,,,,,,,,,,,,,,,,,,,,,,,,s_046,2,2021_Jan_19_1132,Reversal,3.2.4,59.896235752029106,
1,exp3.png,exp4.png,1,0,1,0,0,1,1,1,,,,,,,,,,,,,,,,,,,,,,,,,False,20,21,False,exp3.png,exp4.png,trial_right_image,-1,exp4.png,2,exp3.png,exp4.png,0,4,reversed,incorrect,0.20026713332341728,1,invalid_win,146.7627846999094,12,,,,,,,,,,,s_046,2,2021_Jan_19_1132,Reversal,3.2.4,59.896235752029106,
2,exp1.png,exp2.png,1,0,1,0,0,2,2,2,,,,,,,,,,,,,,,,,,,,,,,,,False,21,22,False,exp1.png,exp2.png,trial_right_image,-1,exp2.png,2,exp1.png,exp2.png,0,2,non-reversed,incorrect,0.02416127185252903,1,invalid_win,150.96157409995794,13,,,,,,,,,,,s_046,2,2021_Jan_19_1132,Reversal,3.2.4,59.896235752029106,
3,exp3.png,exp4.png,1,0,1,0,0,3,3,3,,,,,,,,,,,,,,,,,,,,,,,,,False,22,23,False,exp3.png,exp4.png,trial_right_image,-1,exp4.png,2,exp3.png,exp4.png,0,4,reversed,incorrect,0.3150305390988918,0,valid_lose,155.3101447999943,13,,,,,,,,,,,s_046,2,2021_Jan_19_1132,Reversal,3.2.4,59.896235752029106,
4,exp1.png,exp2.png,1,0,1,0,0,4,4,4,,,,,,,,,,,,,,,,,,,,,,,,,False,23,24,True,exp2.png,exp1.png,trial_right_image,-1,exp1.png,2,exp1.png,exp2.png,1,1,non-reversed,correct,0.5774538256402173,1,valid_win,159.5579794999212,14,,,,,,,,,,,s_046,2,2021_Jan_19_1132,Reversal,3.2.4,59.896235752029106,
5,exp3.png,exp4.png,1,0,1,0,0,5,5,5,,,,,,,,,,,,,,,,,,,,,,,,,False,24,25,False,exp3.png,exp4.png,trial_right_image,-1,exp4.png,2,exp3.png,exp4.png,0,4,reversed,incorrect,0.5597342694670099,0,valid_lose,163.75649099994916,14,,,,,,,,,,,s_046,2,2021_Jan_19_1132,Reversal,3.2.4,59.896235752029106,
6,exp1.png,exp2.png,1,0,1,0,0,6,6,6,,,,,,,,,,,,,,,,,,,,,,,,,False,25,26,True,exp2.png,exp1.png,trial_right_image,-1,exp1.png,2,exp1.png,exp2.png,1,1,non-reversed,correct,0.0799916336762132,0,invalid_lose,168.571863799938,14,,,,,,,,,,,s_046,2,2021_Jan_19_1132,Reversal,3.2.4,59.896235752029106,
7,exp3.png,exp4.png,1,0,1,0,0,7,7,7,,,,,,,,,,,,,,,,,,,,,,,,,False,26,27,True,exp4.png,exp3.png,trial_right_image,-1,exp3.png,2,exp3.png,exp4.png,1,3,reversed,correct,0.8144186330705544,1,valid_win,172.4704012000002,15,,,,,,,,,,,s_046,2,2021_Jan_19_1132,Reversal,3.2.4,59.896235752029106,
8,exp1.png,exp2.png,1,0,1,0,0,8,8,8,,,,,,,,,,,,,,,,,,,,,,,,,False,27,28,False,exp1.png,exp2.png,trial_right_image,-1,exp2.png,2,exp1.png,exp2.png,0,2,non-reversed,incorrect,0.8152209724051942,0,valid_lose,176.33612059999723,15,,,,,,,,,,,s_046,2,2021_Jan_19_1132,Reversal,3.2.4,59.896235752029106,
9,exp3.png,exp4.png,1,0,1,0,0,9,9,9,,,,,,,,,,,,,,,,,,,,,,,,,False,28,29,True,exp4.png,exp3.png,trial_left_image,1,exp4.png,2,exp3.png,exp4.png,0,4,reversed,incorrect,0.4224593356957179,0,valid_lose,180.36872879997827,15,,,,,,,,,,,s_046,2,2021_Jan_19_1132,Reversal,3.2.4,59.896235752029106,
10,exp1.png,exp2.png,1,0,1,0,0,10,10,10,,,,,,,,,,,,,,,,,,,,,,,,,False,29,30,True,exp2.png,exp1.png,trial_right_image,-1,exp1.png,2,exp1.png,exp2.png,1,1,non-reversed,correct,0.9907009383716843,1,valid_win,184.23247459996492,16,,,,,,,,,,,s_046,2,2021_Jan_19_1132,Reversal,3.2.4,59.896235752029106,
11,exp3.png,exp4.png,1,0,1,0,0,11,11,11,,,,,,,,,,,,,,,,,,,,,,,,,False,30,31,False,exp3.png,exp4.png,trial_right_image,-1,exp4.png,2,exp3.png,exp4.png,0,4,reversed,incorrect,0.22702024850598346,1,invalid_win,188.14844529994298,17,,,,,,,,,,,s_046,2,2021_Jan_19_1132,Reversal,3.2.4,59.896235752029106,
12,exp1.png,exp2.png,1,0,1,0,0,12,12,12,,,,,,,,,,,,,,,,,,,,,,,,,False,31,32,True,exp2.png,exp1.png,trial_right_image,-1,exp1.png,2,exp1.png,exp2.png,1,1,non-reversed,correct,0.39199357105095445,1,valid_win,192.02987219998613,18,,,,,,,,,,,s_046,2,2021_Jan_19_1132,Reversal,3.2.4,59.896235752029106,
13,exp3.png,exp4.png,1,0,1,0,0,13,13,13,,,,,,,,,,,,,,,,,,,,,,,,,False,32,33,True,exp4.png,exp3.png,trial_left_image,1,exp4.png,2,exp3.png,exp4.png,0,4,reversed,incorrect,0.24710387444910198,1,invalid_win,198.21167399990372,19,,,,,,,,,,,s_046,2,2021_Jan_19_1132,Reversal,3.2.4,59.896235752029106,
14,exp1.png,exp2.png,1,0,1,0,0,14,14,14,,,,,,,,,,,,,,,,,,,,,,,,,False,33,34,True,exp2.png,exp1.png,trial_right_image,-1,exp1.png,2,exp1.png,exp2.png,1,1,non-reversed,correct,0.15572029828971712,0,invalid_lose,202.61036479996983,19,,,,,,,,,,,s_046,2,2021_Jan_19_1132,Reversal,3.2.4,59.896235752029106,
15,exp3.png,exp4.png,1,0,1,0,0,15,15,15,,,,,,,,,,,,,,,,,,,,,,,,,False,34,35,False,exp3.png,exp4.png,trial_right_image,-1,exp4.png,2,exp3.png,exp4.png,0,4,reversed,incorrect,0.18303523886658934,1,invalid_win,208.074378099991,20,,,,,,,,,,,s_046,2,2021_Jan_19_1132,Reversal,3.2.4,59.896235752029106,
16,exp1.png,exp2.png,1,0,1,0,0,16,16,16,,,,,,,,,,,,,,,,,,,,,,,,,False,35,36,True,exp2.png,exp1.png,trial_left_image,1,exp2.png,2,exp1.png,exp2.png,0,2,non-reversed,incorrect,0.3872088887270593,0,valid_lose,213.18969509995077,20,,,,,,,,,,,s_046,2,2021_Jan_19_1132,Reversal,3.2.4,59.896235752029106,
17,exp3.png,exp4.png,1,0,1,0,0,17,17,17,,,,,,,,,,,,,,,,,,,,,,,,,False,36,37,False,exp3.png,exp4.png,trial_right_image,-1,exp4.png,2,exp3.png,exp4.png,0,4,reversed,incorrect,0.8011997279601617,0,valid_lose,217.30579149990808,20,,,,,,,,,,,s_046,2,2021_Jan_19_1132,Reversal,3.2.4,59.896235752029106,
18,exp1.png,exp2.png,1,0,1,0,0,18,18,18,,,,,,,,,,,,,,,,,,,,,,,,,False,37,38,True,exp2.png,exp1.png,trial_right_image,-1,exp1.png,2,exp1.png,exp2.png,1,1,non-reversed,correct,0.48378750283000105,1,valid_win,221.35505099990405,21,,,,,,,,,,,s_046,2,2021_Jan_19_1132,Reversal,3.2.4,59.896235752029106,
19,exp3.png,exp4.png,1,0,1,0,0,19,19,19,,,,,,,,,,,,,,,,,,,,,,,,,False,38,39,False,exp3.png,exp4.png,trial_right_image,-1,exp4.png,2,exp3.png,exp4.png,0,4,reversed,incorrect,0.8220829331355742,0,valid_lose,225.26910969999153,21,,,,,,,,,,,s_046,2,2021_Jan_19_1132,Reversal,3.2.4,59.896235752029106,
20,exp1.png,exp2.png,1,0,1,0,0,20,20,20,,,,,,,,,,,,,,,,,,,,,,,,,False,39,40,False,exp1.png,exp2.png,trial_left_image,1,exp1.png,2,exp1.png,exp2.png,1,1,non-reversed,correct,0.16071002677977542,0,invalid_lose,229.3516211999813,21,,,,,,,,,,,s_046,2,2021_Jan_19_1132,Reversal,3.2.4,59.896235752029106,
,,,1,0,1,0,,,,,0,0,0,0,,,,,,,,,,,,,,,,,,,,,,,,,,,,,,,,,,,,,,,,,,35,60,59,43,,,,,,,s_046,2,2021_Jan_19_1132,Reversal,3.2.4,59.896235752029106,
0,exp1.png,exp2.png,2,0,2,0,0,0,0,0,,,,,,,,,,,,,,,,,,,,,,,,,True,,,,,,,,,,,,,,,,,,,,,,,,,,,,,,,s_046,2,2021_Jan_19_1132,Reversal,3.2.4,59.896235752029106,
1,exp3.png,exp4.png,2,0,2,0,0,1,1,1,,,,,,,,,,,,,,,,,,,,,,,,,False,40,41,False,exp3.png,exp4.png,trial_left_image,1,exp3.png,2,exp3.png,exp4.png,1,3,reversed,correct,0.7381251482427608,1,valid_win,248.72804519999772,22,,,,,,,,,,,s_046,2,2021_Jan_19_1132,Reversal,3.2.4,59.896235752029106,
2,exp1.png,exp2.png,2,0,2,0,0,2,2,2,,,,,,,,,,,,,,,,,,,,,,,,,False,41,42,False,exp1.png,exp2.png,trial_right_image,-1,exp2.png,2,exp1.png,exp2.png,0,2,non-reversed,incorrect,0.7121874829694143,0,valid_lose,254.4429950999329,22,,,,,,,,,,,s_046,2,2021_Jan_19_1132,Reversal,3.2.4,59.896235752029106,
3,exp3.png,exp4.png,2,0,2,0,0,3,3,3,,,,,,,,,,,,,,,,,,,,,,,,,False,42,43,True,exp4.png,exp3.png,trial_right_image,-1,exp3.png,2,exp3.png,exp4.png,1,3,reversed,correct,0.11125808123761916,0,invalid_lose,258.6748807999538,22,,,,,,,,,,,s_046,2,2021_Jan_19_1132,Reversal,3.2.4,59.896235752029106,
4,exp1.png,exp2.png,2,0,2,0,0,4,4,4,,,,,,,,,,,,,,,,,,,,,,,,,False,43,44,True,exp2.png,exp1.png,trial_left_image,1,exp2.png,2,exp1.png,exp2.png,0,2,non-reversed,incorrect,0.3839038235424116,0,valid_lose,262.5729304999113,22,,,,,,,,,,,s_046,2,2021_Jan_19_1132,Reversal,3.2.4,59.896235752029106,
5,exp3.png,exp4.png,2,0,2,0,0,5,5,5,,,,,,,,,,,,,,,,,,,,,,,,,False,44,45,False,exp3.png,exp4.png,trial_right_image,-1,exp4.png,2,exp3.png,exp4.png,0,4,reversed,incorrect,0.5946911515898818,0,valid_lose,266.8220203999663,22,,,,,,,,,,,s_046,2,2021_Jan_19_1132,Reversal,3.2.4,59.896235752029106,
6,exp1.png,exp2.png,2,0,2,0,0,6,6,6,,,,,,,,,,,,,,,,,,,,,,,,,False,45,46,False,exp1.png,exp2.png,trial_right_image,-1,exp2.png,2,exp1.png,exp2.png,0,2,non-reversed,incorrect,0.6606420983776539,0,valid_lose,270.72026959992945,22,,,,,,,,,,,s_046,2,2021_Jan_19_1132,Reversal,3.2.4,59.896235752029106,
7,exp3.png,exp4.png,2,0,2,0,0,7,7,7,,,,,,,,,,,,,,,,,,,,,,,,,False,46,47,True,exp4.png,exp3.png,trial_left_image,1,exp4.png,2,exp3.png,exp4.png,0,4,reversed,incorrect,0.8995492505739686,0,valid_lose,274.5538635000121,22,,,,,,,,,,,s_046,2,2021_Jan_19_1132,Reversal,3.2.4,59.896235752029106,
8,exp1.png,exp2.png,2,0,2,0,0,8,8,8,,,,,,,,,,,,,,,,,,,,,,,,,False,47,48,True,exp2.png,exp1.png,trial_left_image,1,exp2.png,2,exp1.png,exp2.png,0,2,non-reversed,incorrect,0.617881615315305,0,valid_lose,278.7676126000006,22,,,,,,,,,,,s_046,2,2021_Jan_19_1132,Reversal,3.2.4,59.896235752029106,
9,exp3.png,exp4.png,2,0,2,0,0,9,9,9,,,,,,,,,,,,,,,,,,,,,,,,,False,48,49,False,exp3.png,exp4.png,trial_right_image,-1,exp4.png,2,exp3.png,exp4.png,0,4,reversed,incorrect,0.43703967380950004,0,valid_lose,282.63178129994776,22,,,,,,,,,,,s_046,2,2021_Jan_19_1132,Reversal,3.2.4,59.896235752029106,
10,exp1.png,exp2.png,2,0,2,0,0,10,10,10,,,,,,,,,,,,,,,,,,,,,,,,,False,49,50,False,exp1.png,exp2.png,trial_right_image,-1,exp2.png,2,exp1.png,exp2.png,0,2,non-reversed,incorrect,0.028946925878410634,1,invalid_win,286.4478081999114,23,,,,,,,,,,,s_046,2,2021_Jan_19_1132,Reversal,3.2.4,59.896235752029106,
11,exp3.png,exp4.png,2,0,2,0,0,11,11,11,,,,,,,,,,,,,,,,,,,,,,,,,False,50,51,True,exp4.png,exp3.png,trial_right_image,-1,exp3.png,2,exp3.png,exp4.png,1,3,reversed,correct,0.9660868568499104,1,valid_win,290.314190999954,24,,,,,,,,,,,s_046,2,2021_Jan_19_1132,Reversal,3.2.4,59.896235752029106,
12,exp1.png,exp2.png,2,0,2,0,0,12,12,12,,,,,,,,,,,,,,,,,,,,,,,,,False,51,52,False,exp1.png,exp2.png,trial_right_image,-1,exp2.png,2,exp1.png,exp2.png,0,2,non-reversed,incorrect,0.6081719622537288,0,valid_lose,294.2126092999242,24,,,,,,,,,,,s_046,2,2021_Jan_19_1132,Reversal,3.2.4,59.896235752029106,
13,exp3.png,exp4.png,2,0,2,0,0,13,13,13,,,,,,,,,,,,,,,,,,,,,,,,,False,52,53,False,exp3.png,exp4.png,trial_right_image,-1,exp4.png,2,exp3.png,exp4.png,0,4,reversed,incorrect,0.4079125810399683,0,valid_lose,298.0779296999099,24,,,,,,,,,,,s_046,2,2021_Jan_19_1132,Reversal,3.2.4,59.896235752029106,
14,exp1.png,exp2.png,2,0,2,0,0,14,14,14,,,,,,,,,,,,,,,,,,,,,,,,,False,53,54,True,exp2.png,exp1.png,trial_right_image,-1,exp1.png,2,exp1.png,exp2.png,1,1,non-reversed,correct,0.8361535635966196,1,valid_win,302.2923878999427,25,,,,,,,,,,,s_046,2,2021_Jan_19_1132,Reversal,3.2.4,59.896235752029106,
15,exp3.png,exp4.png,2,0,2,0,0,15,15,15,,,,,,,,,,,,,,,,,,,,,,,,,False,54,55,True,exp4.png,exp3.png,trial_right_image,-1,exp3.png,2,exp3.png,exp4.png,1,3,reversed,correct,0.36035926517873873,1,valid_win,306.20814699993934,26,,,,,,,,,,,s_046,2,2021_Jan_19_1132,Reversal,3.2.4,59.896235752029106,
16,exp1.png,exp2.png,2,0,2,0,0,16,16,16,,,,,,,,,,,,,,,,,,,,,,,,,False,55,56,False,exp1.png,exp2.png,trial_right_image,-1,exp2.png,2,exp1.png,exp2.png,0,2,non-reversed,incorrect,0.5217740993155153,0,valid_lose,310.03928819997236,26,,,,,,,,,,,s_046,2,2021_Jan_19_1132,Reversal,3.2.4,59.896235752029106,
17,exp3.png,exp4.png,2,0,2,0,0,17,17,17,,,,,,,,,,,,,,,,,,,,,,,,,False,56,57,False,exp3.png,exp4.png,trial_right_image,-1,exp4.png,2,exp3.png,exp4.png,0,4,reversed,incorrect,0.8618907000230427,0,valid_lose,313.8726932000136,26,,,,,,,,,,,s_046,2,2021_Jan_19_1132,Reversal,3.2.4,59.896235752029106,
18,exp1.png,exp2.png,2,0,2,0,0,18,18,18,,,,,,,,,,,,,,,,,,,,,,,,,False,57,58,True,exp2.png,exp1.png,trial_right_image,-1,exp1.png,2,exp1.png,exp2.png,1,1,non-reversed,correct,0.15203944955283566,0,invalid_lose,317.7384757999098,26,,,,,,,,,,,s_046,2,2021_Jan_19_1132,Reversal,3.2.4,59.896235752029106,
19,exp3.png,exp4.png,2,0,2,0,0,19,19,19,,,,,,,,,,,,,,,,,,,,,,,,,False,58,59,True,exp4.png,exp3.png,trial_right_image,-1,exp3.png,2,exp3.png,exp4.png,1,3,reversed,correct,0.8568799267351012,1,valid_win,321.6031229000073,27,,,,,,,,,,,s_046,2,2021_Jan_19_1132,Reversal,3.2.4,59.896235752029106,
20,exp1.png,exp2.png,2,0,2,0,0,20,20,20,,,,,,,,,,,,,,,,,,,,,,,,,False,59,60,True,exp2.png,exp1.png,trial_right_image,-1,exp1.png,2,exp1.png,exp2.png,1,1,non-reversed,correct,0.7012309477526231,1,valid_win,325.4691421999596,28,,,,,,,,,,,s_046,2,2021_Jan_19_1132,Reversal,3.2.4,59.896235752029106,
,,,2,0,2,0,,,,,0,0,0,0,,,,,,,,,,,,,,,,,,,,,,,,,,,,,,,,,,,,,,,,,,69,38,58,45,,,,,,,s_046,2,2021_Jan_19_1132,Reversal,3.2.4,59.896235752029106,
0,exp1.png,exp2.png,3,0,3,0,0,0,0,0,,,,,,,,,,,,,,,,,,,,,,,,,True,,,,,,,,,,,,,,,,,,,,,,,,,,,,,,,s_046,2,2021_Jan_19_1132,Reversal,3.2.4,59.896235752029106,
1,exp3.png,exp4.png,3,0,3,0,0,1,1,1,,,,,,,,,,,,,,,,,,,,,,,,,False,60,61,True,exp4.png,exp3.png,trial_right_image,-1,exp3.png,2,exp3.png,exp4.png,1,3,reversed,correct,0.2897883700143419,1,valid_win,340.71349799993914,29,,,,,,,,,,,s_046,2,2021_Jan_19_1132,Reversal,3.2.4,59.896235752029106,
2,exp1.png,exp2.png,3,0,3,0,0,2,2,2,,,,,,,,,,,,,,,,,,,,,,,,,False,61,62,True,exp2.png,exp1.png,trial_right_image,-1,exp1.png,2,exp1.png,exp2.png,1,1,non-reversed,correct,0.13234094567264632,0,invalid_lose,344.6443880998995,29,,,,,,,,,,,s_046,2,2021_Jan_19_1132,Reversal,3.2.4,59.896235752029106,
3,exp3.png,exp4.png,3,0,3,0,0,3,3,3,,,,,,,,,,,,,,,,,,,,,,,,,False,62,63,False,exp3.png,exp4.png,trial_right_image,-1,exp4.png,2,exp3.png,exp4.png,0,4,reversed,incorrect,0.16940007251639722,1,invalid_win,348.8272822999861,30,,,,,,,,,,,s_046,2,2021_Jan_19_1132,Reversal,3.2.4,59.896235752029106,
4,exp1.png,exp2.png,3,0,3,0,0,4,4,4,,,,,,,,,,,,,,,,,,,,,,,,,False,63,64,False,exp1.png,exp2.png,trial_right_image,-1,exp2.png,2,exp1.png,exp2.png,0,2,non-reversed,incorrect,0.5091126791642897,0,valid_lose,354.3083388999803,30,,,,,,,,,,,s_046,2,2021_Jan_19_1132,Reversal,3.2.4,59.896235752029106,
5,exp3.png,exp4.png,3,0,3,0,0,5,5,5,,,,,,,,,,,,,,,,,,,,,,,,,False,64,65,True,exp4.png,exp3.png,trial_right_image,-1,exp3.png,2,exp3.png,exp4.png,1,3,reversed,correct,0.9943279912958592,1,valid_win,358.10686569998506,31,,,,,,,,,,,s_046,2,2021_Jan_19_1132,Reversal,3.2.4,59.896235752029106,
6,exp1.png,exp2.png,3,0,3,0,0,6,6,6,,,,,,,,,,,,,,,,,,,,,,,,,False,65,66,False,exp1.png,exp2.png,trial_right_image,-1,exp2.png,2,exp1.png,exp2.png,0,2,non-reversed,incorrect,0.8409640854330513,0,valid_lose,361.99004429997876,31,,,,,,,,,,,s_046,2,2021_Jan_19_1132,Reversal,3.2.4,59.896235752029106,
7,exp3.png,exp4.png,3,0,3,0,0,7,7,7,,,,,,,,,,,,,,,,,,,,,,,,,False,66,67,True,exp4.png,exp3.png,trial_right_image,-1,exp3.png,2,exp3.png,exp4.png,1,3,reversed,correct,0.2546273863836792,1,valid_win,365.80480949999765,32,,,,,,,,,,,s_046,2,2021_Jan_19_1132,Reversal,3.2.4,59.896235752029106,
8,exp1.png,exp2.png,3,0,3,0,0,8,8,8,,,,,,,,,,,,,,,,,,,,,,,,,False,67,68,True,exp2.png,exp1.png,trial_right_image,-1,exp1.png,2,exp1.png,exp2.png,1,1,non-reversed,correct,0.6321003821761988,1,valid_win,369.61985849996563,33,,,,,,,,,,,s_046,2,2021_Jan_19_1132,Reversal,3.2.4,59.896235752029106,
9,exp3.png,exp4.png,3,0,3,0,0,9,9,9,,,,,,,,,,,,,,,,,,,,,,,,,False,68,69,False,exp3.png,exp4.png,trial_right_image,-1,exp4.png,2,exp3.png,exp4.png,0,4,reversed,incorrect,0.24567594292661799,1,invalid_win,373.41927569999825,34,,,,,,,,,,,s_046,2,2021_Jan_19_1132,Reversal,3.2.4,59.896235752029106,
10,exp1.png,exp2.png,3,0,3,0,0,10,10,10,,,,,,,,,,,,,,,,,,,,,,,,,False,69,70,True,exp2.png,exp1.png,trial_left_image,1,exp2.png,2,exp1.png,exp2.png,0,2,non-reversed,incorrect,0.6522209824039435,0,valid_lose,377.2507095999317,34,,,,,,,,,,,s_046,2,2021_Jan_19_1132,Reversal,3.2.4,59.896235752029106,
11,exp3.png,exp4.png,3,0,3,0,0,11,11,11,,,,,,,,,,,,,,,,,,,,,,,,,False,70,71,False,exp3.png,exp4.png,trial_right_image,-1,exp4.png,2,exp3.png,exp4.png,0,4,reversed,incorrect,0.06027834602349791,1,invalid_win,381.01613709994126,35,,,,,,,,,,,s_046,2,2021_Jan_19_1132,Reversal,3.2.4,59.896235752029106,
12,exp1.png,exp2.png,3,0,3,0,0,12,12,12,,,,,,,,,,,,,,,,,,,,,,,,,False,71,72,True,exp2.png,exp1.png,trial_right_image,-1,exp1.png,2,exp1.png,exp2.png,1,1,non-reversed,correct,0.937732294538884,1,valid_win,384.8148616999388,36,,,,,,,,,,,s_046,2,2021_Jan_19_1132,Reversal,3.2.4,59.896235752029106,
13,exp3.png,exp4.png,3,0,3,0,0,13,13,13,,,,,,,,,,,,,,,,,,,,,,,,,False,72,73,False,exp3.png,exp4.png,trial_left_image,1,exp3.png,2,exp3.png,exp4.png,1,3,reversed,correct,0.2615555078595183,1,valid_win,388.7467301998986,37,,,,,,,,,,,s_046,2,2021_Jan_19_1132,Reversal,3.2.4,59.896235752029106,
14,exp1.png,exp2.png,3,0,3,0,0,14,14,14,,,,,,,,,,,,,,,,,,,,,,,,,False,73,74,True,exp2.png,exp1.png,trial_right_image,-1,exp1.png,2,exp1.png,exp2.png,1,1,non-reversed,correct,0.4839326492406626,1,valid_win,392.5295441999333,38,,,,,,,,,,,s_046,2,2021_Jan_19_1132,Reversal,3.2.4,59.896235752029106,
15,exp3.png,exp4.png,3,0,3,0,0,15,15,15,,,,,,,,,,,,,,,,,,,,,,,,,False,74,75,False,exp3.png,exp4.png,trial_right_image,-1,exp4.png,2,exp3.png,exp4.png,0,4,reversed,incorrect,0.7575821382235548,0,valid_lose,396.77802609989885,38,,,,,,,,,,,s_046,2,2021_Jan_19_1132,Reversal,3.2.4,59.896235752029106,
16,exp1.png,exp2.png,3,0,3,0,0,16,16,16,,,,,,,,,,,,,,,,,,,,,,,,,False,75,76,True,exp2.png,exp1.png,trial_left_image,1,exp2.png,2,exp1.png,exp2.png,0,2,non-reversed,incorrect,0.31024727169484545,0,valid_lose,400.8098105000099,38,,,,,,,,,,,s_046,2,2021_Jan_19_1132,Reversal,3.2.4,59.896235752029106,
17,exp3.png,exp4.png,3,0,3,0,0,17,17,17,,,,,,,,,,,,,,,,,,,,,,,,,False,76,77,False,exp3.png,exp4.png,trial_left_image,1,exp3.png,2,exp3.png,exp4.png,1,3,reversed,correct,0.7187402404570078,1,valid_win,404.64217149990145,39,,,,,,,,,,,s_046,2,2021_Jan_19_1132,Reversal,3.2.4,59.896235752029106,
18,exp1.png,exp2.png,3,0,3,0,0,18,18,18,,,,,,,,,,,,,,,,,,,,,,,,,False,77,78,False,exp1.png,exp2.png,trial_right_image,-1,exp2.png,2,exp1.png,exp2.png,0,2,non-reversed,incorrect,0.3763774510016594,0,valid_lose,409.8060133999679,39,,,,,,,,,,,s_046,2,2021_Jan_19_1132,Reversal,3.2.4,59.896235752029106,
19,exp3.png,exp4.png,3,0,3,0,0,19,19,19,,,,,,,,,,,,,,,,,,,,,,,,,False,78,79,True,exp4.png,exp3.png,trial_right_image,-1,exp3.png,2,exp3.png,exp4.png,1,3,reversed,correct,0.14383614850257342,0,invalid_lose,413.73917909990996,39,,,,,,,,,,,s_046,2,2021_Jan_19_1132,Reversal,3.2.4,59.896235752029106,
20,exp1.png,exp2.png,3,0,3,0,0,20,20,20,,,,,,,,,,,,,,,,,,,,,,,,,False,79,80,False,exp1.png,exp2.png,trial_left_image,1,exp1.png,2,exp1.png,exp2.png,1,1,non-reversed,correct,0.33606255394462836,1,valid_win,417.83805989997927,40,,,,,,,,,,,s_046,2,2021_Jan_19_1132,Reversal,3.2.4,59.896235752029106,
,,,3,0,3,0,,,,,0,0,0,0,,,,,,,,,,,,,,,,,,,,,,,,,,,,,,,,,,,,,,,,,,50.0,50.0,50.0,50.0,,,,,,,s_046,2,2021_Jan_19_1132,Reversal,3.2.4,59.896235752029106,
0,exp1.png,exp2.png,,,,,,,,,,,,,,,,,0,0,0,0,0,0,0,0,,,,,,,,,True,,,,,,,,,,,,,,,,,,,,,,,,,,,,,,,s_046,2,2021_Jan_19_1132,Reversal,3.2.4,59.896235752029106,
1,exp3.png,exp4.png,,,,,,,,,,,,,,,,,0,0,0,0,0,1,1,1,,,,,,,,,False,0,81,False,exp3.png,exp4.png,trial_right_image,-1,exp4.png,2,exp4.png,exp3.png,0,4,reversed,correct,0.9854184195993932,1,valid_win,426.5677751000039,41,,,,,425.0959848999046,,,,,,s_046,2,2021_Jan_19_1132,Reversal,3.2.4,59.896235752029106,
2,exp1.png,exp2.png,,,,,,,,,,,,,,,,,0,0,0,0,0,2,2,2,,,,,,,,,False,1,82,True,exp2.png,exp1.png,trial_right_image,-1,exp1.png,2,exp1.png,exp2.png,1,1,non-reversed,correct,0.26118631937986037,1,valid_win,430.3337768999627,42,,,,,,,,,,,s_046,2,2021_Jan_19_1132,Reversal,3.2.4,59.896235752029106,
3,exp3.png,exp4.png,,,,,,,,,,,,,,,,,0,0,0,0,0,3,3,3,,,,,,,,,False,2,83,False,exp3.png,exp4.png,trial_right_image,-1,exp4.png,2,exp4.png,exp3.png,0,4,reversed,correct,0.551561634941126,1,valid_win,434.3650133999763,43,,,,,,,,,,,s_046,2,2021_Jan_19_1132,Reversal,3.2.4,59.896235752029106,
4,exp1.png,exp2.png,,,,,,,,,,,,,,,,,0,0,0,0,0,4,4,4,,,,,,,,,False,3,84,True,exp2.png,exp1.png,trial_right_image,-1,exp1.png,2,exp1.png,exp2.png,1,1,non-reversed,correct,0.2028439146047033,0,invalid_lose,438.1302430999931,43,,,,,,,,,,,s_046,2,2021_Jan_19_1132,Reversal,3.2.4,59.896235752029106,
5,exp3.png,exp4.png,,,,,,,,,,,,,,,,,0,0,0,0,0,5,5,5,,,,,,,,,False,4,85,False,exp3.png,exp4.png,trial_left_image,1,exp3.png,2,exp4.png,exp3.png,1,3,reversed,incorrect,0.2286777727410022,1,invalid_win,441.94579199992586,44,,,,,,,,,,,s_046,2,2021_Jan_19_1132,Reversal,3.2.4,59.896235752029106,
6,exp1.png,exp2.png,,,,,,,,,,,,,,,,,0,0,0,0,0,6,6,6,,,,,,,,,False,5,86,True,exp2.png,exp1.png,trial_left_image,1,exp2.png,2,exp1.png,exp2.png,0,2,non-reversed,incorrect,0.13124067116551674,1,invalid_win,445.82798770000227,45,,,,,,,,,,,s_046,2,2021_Jan_19_1132,Reversal,3.2.4,59.896235752029106,
7,exp3.png,exp4.png,,,,,,,,,,,,,,,,,0,0,0,0,0,7,7,7,,,,,,,,,False,6,87,True,exp4.png,exp3.png,trial_right_image,-1,exp3.png,2,exp4.png,exp3.png,1,3,reversed,incorrect,0.28135080386429745,0,valid_lose,449.69298870000057,45,,,,,,,,,,,s_046,2,2021_Jan_19_1132,Reversal,3.2.4,59.896235752029106,
8,exp1.png,exp2.png,,,,,,,,,,,,,,,,,0,0,0,0,0,8,8,8,,,,,,,,,False,7,88,False,exp1.png,exp2.png,trial_right_image,-1,exp2.png,2,exp1.png,exp2.png,0,2,non-reversed,incorrect,0.7989872589100443,0,valid_lose,453.5585941999452,45,,,,,,,,,,,s_046,2,2021_Jan_19_1132,Reversal,3.2.4,59.896235752029106,
9,exp3.png,exp4.png,,,,,,,,,,,,,,,,,0,0,0,0,0,9,9,9,,,,,,,,,False,8,89,True,exp4.png,exp3.png,trial_right_image,-1,exp3.png,2,exp4.png,exp3.png,1,3,reversed,incorrect,0.6419274163653921,0,valid_lose,457.4232951999875,45,,,,,,,,,,,s_046,2,2021_Jan_19_1132,Reversal,3.2.4,59.896235752029106,
10,exp1.png,exp2.png,,,,,,,,,,,,,,,,,0,0,0,0,0,10,10,10,,,,,,,,,False,9,90,False,exp1.png,exp2.png,trial_right_image,-1,exp2.png,2,exp1.png,exp2.png,0,2,non-reversed,incorrect,0.16552476940764593,1,invalid_win,461.273116700002,46,,,,,,,,,,,s_046,2,2021_Jan_19_1132,Reversal,3.2.4,59.896235752029106,
11,exp3.png,exp4.png,,,,,,,,,,,,,,,,,0,0,0,0,0,11,11,11,,,,,,,,,False,10,91,False,exp3.png,exp4.png,trial_right_image,-1,exp4.png,2,exp4.png,exp3.png,0,4,reversed,correct,0.07877313297997657,0,invalid_lose,465.1708518000087,46,,,,,,,,,,,s_046,2,2021_Jan_19_1132,Reversal,3.2.4,59.896235752029106,
12,exp1.png,exp2.png,,,,,,,,,,,,,,,,,0,0,0,0,0,12,12,12,,,,,,,,,False,11,92,True,exp2.png,exp1.png,trial_left_image,1,exp2.png,2,exp1.png,exp2.png,0,2,non-reversed,incorrect,0.7118601946819914,0,valid_lose,469.0528285999317,46,,,,,,,,,,,s_046,2,2021_Jan_19_1132,Reversal,3.2.4,59.896235752029106,
13,exp3.png,exp4.png,,,,,,,,,,,,,,,,,0,0,0,0,0,13,13,13,,,,,,,,,False,12,93,True,exp4.png,exp3.png,trial_left_image,1,exp4.png,2,exp4.png,exp3.png,0,4,reversed,correct,0.18536908400768515,0,invalid_lose,472.8863165999064,46,,,,,,,,,,,s_046,2,2021_Jan_19_1132,Reversal,3.2.4,59.896235752029106,
14,exp1.png,exp2.png,,,,,,,,,,,,,,,,,0,0,0,0,0,14,14,14,,,,,,,,,False,13,94,False,exp1.png,exp2.png,trial_right_image,-1,exp2.png,2,exp1.png,exp2.png,0,2,non-reversed,incorrect,0.43449585813577085,0,valid_lose,476.71757879992947,46,,,,,,,,,,,s_046,2,2021_Jan_19_1132,Reversal,3.2.4,59.896235752029106,
15,exp3.png,exp4.png,,,,,,,,,,,,,,,,,0,0,0,0,0,15,15,15,,,,,,,,,False,14,95,True,exp4.png,exp3.png,trial_right_image,-1,exp3.png,2,exp4.png,exp3.png,1,3,reversed,incorrect,0.29518110867449154,0,valid_lose,480.4497465000022,46,,,,,,,,,,,s_046,2,2021_Jan_19_1132,Reversal,3.2.4,59.896235752029106,
16,exp1.png,exp2.png,,,,,,,,,,,,,,,,,0,0,0,0,0,16,16,16,,,,,,,,,False,15,96,True,exp2.png,exp1.png,trial_right_image,-1,exp1.png,2,exp1.png,exp2.png,1,1,non-reversed,correct,0.6643745052485832,1,valid_win,484.1981905999128,47,,,,,,,,,,,s_046,2,2021_Jan_19_1132,Reversal,3.2.4,59.896235752029106,
17,exp3.png,exp4.png,,,,,,,,,,,,,,,,,0,0,0,0,0,17,17,17,,,,,,,,,False,16,97,False,exp3.png,exp4.png,trial_right_image,-1,exp4.png,2,exp4.png,exp3.png,0,4,reversed,correct,0.7992003319433085,1,valid_win,488.030279199942,48,,,,,,,,,,,s_046,2,2021_Jan_19_1132,Reversal,3.2.4,59.896235752029106,
18,exp1.png,exp2.png,,,,,,,,,,,,,,,,,0,0,0,0,0,18,18,18,,,,,,,,,False,17,98,False,exp1.png,exp2.png,trial_right_image,-1,exp2.png,2,exp1.png,exp2.png,0,2,non-reversed,incorrect,0.35207168915988885,0,valid_lose,491.9113799999468,48,,,,,,,,,,,s_046,2,2021_Jan_19_1132,Reversal,3.2.4,59.896235752029106,
19,exp3.png,exp4.png,,,,,,,,,,,,,,,,,0,0,0,0,0,19,19,19,,,,,,,,,False,18,99,True,exp4.png,exp3.png,trial_right_image,-1,exp3.png,2,exp4.png,exp3.png,1,3,reversed,incorrect,0.6537207133512167,0,valid_lose,495.71084760001395,48,,,,,,,,,,,s_046,2,2021_Jan_19_1132,Reversal,3.2.4,59.896235752029106,
20,exp1.png,exp2.png,,,,,,,,,,,,,,,,,0,0,0,0,0,20,20,20,,,,,,,,,False,19,100,False,exp1.png,exp2.png,trial_right_image,-1,exp2.png,2,exp1.png,exp2.png,0,2,non-reversed,incorrect,0.8826089852951313,0,valid_lose,499.4926425999729,48,,,,,,,,,,,s_046,2,2021_Jan_19_1132,Reversal,3.2.4,59.896235752029106,
,,,,,,,,,,,,,,,,,,,0,0,0,0,,,,,0,0,0,0,,,,,,,,,,,,,,,,,,,,,,,,,,50.0,50.0,50.0,50.0,,,,,,,s_046,2,2021_Jan_19_1132,Reversal,3.2.4,59.896235752029106,
0,exp1.png,exp2.png,,,,,,,,,,,,,,,,,1,0,1,0,0,0,0,0,,,,,,,,,True,,,,,,,,,,,,,,,,,,,,,,,,,,,,,,,s_046,2,2021_Jan_19_1132,Reversal,3.2.4,59.896235752029106,
1,exp3.png,exp4.png,,,,,,,,,,,,,,,,,1,0,1,0,0,1,1,1,,,,,,,,,False,20,101,False,exp3.png,exp4.png,trial_right_image,-1,exp4.png,2,exp4.png,exp3.png,0,4,reversed,correct,0.4809905753064173,1,valid_win,507.1067929000128,49,,,,,,,,,,,s_046,2,2021_Jan_19_1132,Reversal,3.2.4,59.896235752029106,
2,exp1.png,exp2.png,,,,,,,,,,,,,,,,,1,0,1,0,0,2,2,2,,,,,,,,,False,21,102,True,exp2.png,exp1.png,trial_right_image,-1,exp1.png,2,exp1.png,exp2.png,1,1,non-reversed,correct,0.9243722082714817,1,valid_win,511.4879241999006,50,,,,,,,,,,,s_046,2,2021_Jan_19_1132,Reversal,3.2.4,59.896235752029106,
3,exp3.png,exp4.png,,,,,,,,,,,,,,,,,1,0,1,0,0,3,3,3,,,,,,,,,False,22,103,False,exp3.png,exp4.png,trial_right_image,-1,exp4.png,2,exp4.png,exp3.png,0,4,reversed,correct,0.8667331356758173,1,valid_win,515.3873088000109,51,,,,,,,,,,,s_046,2,2021_Jan_19_1132,Reversal,3.2.4,59.896235752029106,
4,exp1.png,exp2.png,,,,,,,,,,,,,,,,,1,0,1,0,0,4,4,4,,,,,,,,,False,23,104,False,exp1.png,exp2.png,trial_right_image,-1,exp2.png,2,exp1.png,exp2.png,0,2,non-reversed,incorrect,0.3111384100718094,0,valid_lose,519.2030215999112,51,,,,,,,,,,,s_046,2,2021_Jan_19_1132,Reversal,3.2.4,59.896235752029106,
5,exp3.png,exp4.png,,,,,,,,,,,,,,,,,1,0,1,0,0,5,5,5,,,,,,,,,False,24,105,True,exp4.png,exp3.png,trial_right_image,-1,exp3.png,2,exp4.png,exp3.png,1,3,reversed,incorrect,0.3412494220327923,0,valid_lose,523.0854925999884,51,,,,,,,,,,,s_046,2,2021_Jan_19_1132,Reversal,3.2.4,59.896235752029106,
6,exp1.png,exp2.png,,,,,,,,,,,,,,,,,1,0,1,0,0,6,6,6,,,,,,,,,False,25,106,False,exp1.png,exp2.png,trial_right_image,-1,exp2.png,2,exp1.png,exp2.png,0,2,non-reversed,incorrect,0.9162967673307485,0,valid_lose,526.933458799962,51,,,,,,,,,,,s_046,2,2021_Jan_19_1132,Reversal,3.2.4,59.896235752029106,
7,exp3.png,exp4.png,,,,,,,,,,,,,,,,,1,0,1,0,0,7,7,7,,,,,,,,,False,26,107,True,exp4.png,exp3.png,trial_left_image,1,exp4.png,2,exp4.png,exp3.png,0,4,reversed,correct,0.23078241329271942,0,invalid_lose,530.782324599917,51,,,,,,,,,,,s_046,2,2021_Jan_19_1132,Reversal,3.2.4,59.896235752029106,
8,exp1.png,exp2.png,,,,,,,,,,,,,,,,,1,0,1,0,0,8,8,8,,,,,,,,,False,27,108,True,exp2.png,exp1.png,trial_right_image,-1,exp1.png,2,exp1.png,exp2.png,1,1,non-reversed,correct,0.21966580946565673,0,invalid_lose,534.5477565999608,51,,,,,,,,,,,s_046,2,2021_Jan_19_1132,Reversal,3.2.4,59.896235752029106,
9,exp3.png,exp4.png,,,,,,,,,,,,,,,,,1,0,1,0,0,9,9,9,,,,,,,,,False,28,109,True,exp4.png,exp3.png,trial_right_image,-1,exp3.png,2,exp4.png,exp3.png,1,3,reversed,incorrect,0.8812008795087365,0,valid_lose,538.3139844000107,51,,,,,,,,,,,s_046,2,2021_Jan_19_1132,Reversal,3.2.4,59.896235752029106,
10,exp1.png,exp2.png,,,,,,,,,,,,,,,,,1,0,1,0,0,10,10,10,,,,,,,,,False,29,110,True,exp2.png,exp1.png,trial_left_image,1,exp2.png,2,exp1.png,exp2.png,0,2,non-reversed,incorrect,0.7838186284244991,0,valid_lose,542.1778821999906,51,,,,,,,,,,,s_046,2,2021_Jan_19_1132,Reversal,3.2.4,59.896235752029106,
11,exp3.png,exp4.png,,,,,,,,,,,,,,,,,1,0,1,0,0,11,11,11,,,,,,,,,False,30,111,True,exp4.png,exp3.png,trial_left_image,1,exp4.png,2,exp4.png,exp3.png,0,4,reversed,correct,0.1875310774492006,0,invalid_lose,546.2601399999112,51,,,,,,,,,,,s_046,2,2021_Jan_19_1132,Reversal,3.2.4,59.896235752029106,
12,exp1.png,exp2.png,,,,,,,,,,,,,,,,,1,0,1,0,0,12,12,12,,,,,,,,,False,31,112,True,exp2.png,exp1.png,trial_right_image,-1,exp1.png,2,exp1.png,exp2.png,1,1,non-reversed,correct,0.4187519749650136,1,valid_win,550.3414472999284,52,,,,,,,,,,,s_046,2,2021_Jan_19_1132,Reversal,3.2.4,59.896235752029106,
13,exp3.png,exp4.png,,,,,,,,,,,,,,,,,1,0,1,0,0,13,13,13,,,,,,,,,False,32,113,False,exp3.png,exp4.png,trial_left_image,1,exp3.png,2,exp4.png,exp3.png,1,3,reversed,incorrect,0.1652593594228995,1,invalid_win,554.3410580999916,53,,,,,,,,,,,s_046,2,2021_Jan_19_1132,Reversal,3.2.4,59.896235752029106,
14,exp1.png,exp2.png,,,,,,,,,,,,,,,,,1,0,1,0,0,14,14,14,,,,,,,,,False,33,114,False,exp1.png,exp2.png,trial_left_image,1,exp1.png,2,exp1.png,exp2.png,1,1,non-reversed,correct,0.4316198205861589,1,valid_win,558.3731120999437,54,,,,,,,,,,,s_046,2,2021_Jan_19_1132,Reversal,3.2.4,59.896235752029106,
15,exp3.png,exp4.png,,,,,,,,,,,,,,,,,1,0,1,0,0,15,15,15,,,,,,,,,False,34,115,False,exp3.png,exp4.png,trial_left_image,1,exp3.png,2,exp4.png,exp3.png,1,3,reversed,incorrect,0.590006260775787,0,valid_lose,562.3717377999565,54,,,,,,,,,,,s_046,2,2021_Jan_19_1132,Reversal,3.2.4,59.896235752029106,
16,exp1.png,exp2.png,,,,,,,,,,,,,,,,,1,0,1,0,0,16,16,16,,,,,,,,,False,35,116,True,exp2.png,exp1.png,trial_right_image,-1,exp1.png,2,exp1.png,exp2.png,1,1,non-reversed,correct,0.7947979894063701,1,valid_win,566.3877037999919,55,,,,,,,,,,,s_046,2,2021_Jan_19_1132,Reversal,3.2.4,59.896235752029106,
17,exp3.png,exp4.png,,,,,,,,,,,,,,,,,1,0,1,0,0,17,17,17,,,,,,,,,False,36,117,False,exp3.png,exp4.png,trial_left_image,1,exp3.png,2,exp4.png,exp3.png,1,3,reversed,incorrect,0.11161138576724605,1,invalid_win,570.5024122999748,56,,,,,,,,,,,s_046,2,2021_Jan_19_1132,Reversal,3.2.4,59.896235752029106,
18,exp1.png,exp2.png,,,,,,,,,,,,,,,,,1,0,1,0,0,18,18,18,,,,,,,,,False,37,118,True,exp2.png,exp1.png,trial_right_image,-1,exp1.png,2,exp1.png,exp2.png,1,1,non-reversed,correct,0.1846648551768243,0,invalid_lose,575.1679819999263,56,,,,,,,,,,,s_046,2,2021_Jan_19_1132,Reversal,3.2.4,59.896235752029106,
19,exp3.png,exp4.png,,,,,,,,,,,,,,,,,1,0,1,0,0,19,19,19,,,,,,,,,False,38,119,False,exp3.png,exp4.png,trial_left_image,1,exp3.png,2,exp4.png,exp3.png,1,3,reversed,incorrect,0.47839142683928804,0,valid_lose,579.5159661999205,56,,,,,,,,,,,s_046,2,2021_Jan_19_1132,Reversal,3.2.4,59.896235752029106,
20,exp1.png,exp2.png,,,,,,,,,,,,,,,,,1,0,1,0,0,20,20,20,,,,,,,,,False,39,120,False,exp1.png,exp2.png,trial_right_image,-1,exp2.png,2,exp1.png,exp2.png,0,2,non-reversed,incorrect,0.8907913701488283,0,valid_lose,583.5645657000132,56,,,,,,,,,,,s_046,2,2021_Jan_19_1132,Reversal,3.2.4,59.896235752029106,
,,,,,,,,,,,,,,,,,,,1,0,1,0,,,,,0,0,0,0,,,,,,,,,,,,,,,,,,,,,,,,,,65,34,62,40,,,,,,,s_046,2,2021_Jan_19_1132,Reversal,3.2.4,59.896235752029106,
0,exp1.png,exp2.png,,,,,,,,,,,,,,,,,2,0,2,0,0,0,0,0,,,,,,,,,True,,,,,,,,,,,,,,,,,,,,,,,,,,,,,,,s_046,2,2021_Jan_19_1132,Reversal,3.2.4,59.896235752029106,
1,exp3.png,exp4.png,,,,,,,,,,,,,,,,,2,0,2,0,0,1,1,1,,,,,,,,,False,40,121,False,exp3.png,exp4.png,trial_left_image,1,exp3.png,2,exp4.png,exp3.png,1,3,reversed,incorrect,0.6286139589767398,0,valid_lose,599.2754558000015,56,,,,,,,,,,,s_046,2,2021_Jan_19_1132,Reversal,3.2.4,59.896235752029106,
2,exp1.png,exp2.png,,,,,,,,,,,,,,,,,2,0,2,0,0,2,2,2,,,,,,,,,False,41,122,True,exp2.png,exp1.png,trial_left_image,1,exp2.png,2,exp1.png,exp2.png,0,2,non-reversed,incorrect,0.7002930481939403,0,valid_lose,603.2909709999803,56,,,,,,,,,,,s_046,2,2021_Jan_19_1132,Reversal,3.2.4,59.896235752029106,
3,exp3.png,exp4.png,,,,,,,,,,,,,,,,,2,0,2,0,0,3,3,3,,,,,,,,,False,42,123,False,exp3.png,exp4.png,trial_left_image,1,exp3.png,2,exp4.png,exp3.png,1,3,reversed,incorrect,0.06328984744093336,1,invalid_win,607.5908281999873,57,,,,,,,,,,,s_046,2,2021_Jan_19_1132,Reversal,3.2.4,59.896235752029106,
4,exp1.png,exp2.png,,,,,,,,,,,,,,,,,2,0,2,0,0,4,4,4,,,,,,,,,False,43,124,True,exp2.png,exp1.png,trial_right_image,-1,exp1.png,2,exp1.png,exp2.png,1,1,non-reversed,correct,0.1507073380143017,0,invalid_lose,611.4385000999318,57,,,,,,,,,,,s_046,2,2021_Jan_19_1132,Reversal,3.2.4,59.896235752029106,
5,exp3.png,exp4.png,,,,,,,,,,,,,,,,,2,0,2,0,0,5,5,5,,,,,,,,,False,44,125,True,exp4.png,exp3.png,trial_right_image,-1,exp3.png,2,exp4.png,exp3.png,1,3,reversed,incorrect,0.5615811674131221,0,valid_lose,616.6033551999135,57,,,,,,,,,,,s_046,2,2021_Jan_19_1132,Reversal,3.2.4,59.896235752029106,
6,exp1.png,exp2.png,,,,,,,,,,,,,,,,,2,0,2,0,0,6,6,6,,,,,,,,,False,45,126,True,exp2.png,exp1.png,trial_left_image,1,exp2.png,2,exp1.png,exp2.png,0,2,non-reversed,incorrect,0.3889587941304925,0,valid_lose,621.36834549997,57,,,,,,,,,,,s_046,2,2021_Jan_19_1132,Reversal,3.2.4,59.896235752029106,
7,exp3.png,exp4.png,,,,,,,,,,,,,,,,,2,0,2,0,0,7,7,7,,,,,,,,,False,46,127,True,exp4.png,exp3.png,trial_right_image,-1,exp3.png,2,exp4.png,exp3.png,1,3,reversed,incorrect,0.3383901346091437,0,valid_lose,625.2334204999497,57,,,,,,,,,,,s_046,2,2021_Jan_19_1132,Reversal,3.2.4,59.896235752029106,
8,exp1.png,exp2.png,,,,,,,,,,,,,,,,,2,0,2,0,0,8,8,8,,,,,,,,,False,47,128,True,exp2.png,exp1.png,trial_left_image,1,exp2.png,2,exp1.png,exp2.png,0,2,non-reversed,incorrect,0.5501139515966614,0,valid_lose,629.148158499971,57,,,,,,,,,,,s_046,2,2021_Jan_19_1132,Reversal,3.2.4,59.896235752029106,
9,exp3.png,exp4.png,,,,,,,,,,,,,,,,,2,0,2,0,0,9,9,9,,,,,,,,,False,48,129,False,exp3.png,exp4.png,trial_right_image,-1,exp4.png,2,exp4.png,exp3.png,0,4,reversed,correct,0.6750529682451147,1,valid_win,632.9311752999201,58,,,,,,,,,,,s_046,2,2021_Jan_19_1132,Reversal,3.2.4,59.896235752029106,
10,exp1.png,exp2.png,,,,,,,,,,,,,,,,,2,0,2,0,0,10,10,10,,,,,,,,,False,49,130,False,exp1.png,exp2.png,trial_right_image,-1,exp2.png,2,exp1.png,exp2.png,0,2,non-reversed,incorrect,0.06544995313022528,1,invalid_win,636.8468148999382,59,,,,,,,,,,,s_046,2,2021_Jan_19_1132,Reversal,3.2.4,59.896235752029106,
11,exp3.png,exp4.png,,,,,,,,,,,,,,,,,2,0,2,0,0,11,11,11,,,,,,,,,False,50,131,False,exp3.png,exp4.png,trial_left_image,1,exp3.png,2,exp4.png,exp3.png,1,3,reversed,incorrect,0.1109759563105035,1,invalid_win,640.744003699976,60,,,,,,,,,,,s_046,2,2021_Jan_19_1132,Reversal,3.2.4,59.896235752029106,
12,exp1.png,exp2.png,,,,,,,,,,,,,,,,,2,0,2,0,0,12,12,12,,,,,,,,,False,51,132,False,exp1.png,exp2.png,trial_left_image,1,exp1.png,2,exp1.png,exp2.png,1,1,non-reversed,correct,0.7485020737629399,1,valid_win,644.7102561999345,61,,,,,,,,,,,s_046,2,2021_Jan_19_1132,Reversal,3.2.4,59.896235752029106,
13,exp3.png,exp4.png,,,,,,,,,,,,,,,,,2,0,2,0,0,13,13,13,,,,,,,,,False,52,133,True,exp4.png,exp3.png,trial_left_image,1,exp4.png,2,exp4.png,exp3.png,0,4,reversed,correct,0.8345516362674201,1,valid_win,648.6427817000076,62,,,,,,,,,,,s_046,2,2021_Jan_19_1132,Reversal,3.2.4,59.896235752029106,
14,exp1.png,exp2.png,,,,,,,,,,,,,,,,,2,0,2,0,0,14,14,14,,,,,,,,,False,53,134,False,exp1.png,exp2.png,trial_right_image,-1,exp2.png,2,exp1.png,exp2.png,0,2,non-reversed,incorrect,0.05884254547414747,1,invalid_win,652.5750135999406,63,,,,,,,,,,,s_046,2,2021_Jan_19_1132,Reversal,3.2.4,59.896235752029106,
15,exp3.png,exp4.png,,,,,,,,,,,,,,,,,2,0,2,0,0,15,15,15,,,,,,,,,False,54,135,True,exp4.png,exp3.png,trial_right_image,-1,exp3.png,2,exp4.png,exp3.png,1,3,reversed,incorrect,0.629156862917162,0,valid_lose,656.9074857999803,63,,,,,,,,,,,s_046,2,2021_Jan_19_1132,Reversal,3.2.4,59.896235752029106,
16,exp1.png,exp2.png,,,,,,,,,,,,,,,,,2,0,2,0,0,16,16,16,,,,,,,,,False,55,136,True,exp2.png,exp1.png,trial_left_image,1,exp2.png,2,exp1.png,exp2.png,0,2,non-reversed,incorrect,0.5571682758283524,0,valid_lose,660.8888800999848,63,,,,,,,,,,,s_046,2,2021_Jan_19_1132,Reversal,3.2.4,59.896235752029106,
17,exp3.png,exp4.png,,,,,,,,,,,,,,,,,2,0,2,0,0,17,17,17,,,,,,,,,False,56,137,True,exp4.png,exp3.png,trial_right_image,-1,exp3.png,2,exp4.png,exp3.png,1,3,reversed,incorrect,0.9717098137538319,0,valid_lose,665.3699599999236,63,,,,,,,,,,,s_046,2,2021_Jan_19_1132,Reversal,3.2.4,59.896235752029106,
18,exp1.png,exp2.png,,,,,,,,,,,,,,,,,2,0,2,0,0,18,18,18,,,,,,,,,False,57,138,False,exp1.png,exp2.png,trial_left_image,1,exp1.png,2,exp1.png,exp2.png,1,1,non-reversed,correct,0.6973008356991128,1,valid_win,669.4339885999216,64,,,,,,,,,,,s_046,2,2021_Jan_19_1132,Reversal,3.2.4,59.896235752029106,
19,exp3.png,exp4.png,,,,,,,,,,,,,,,,,2,0,2,0,0,19,19,19,,,,,,,,,False,58,139,False,exp3.png,exp4.png,trial_left_image,1,exp3.png,2,exp4.png,exp3.png,1,3,reversed,incorrect,0.48545046046858875,0,valid_lose,673.3356613999931,64,,,,,,,,,,,s_046,2,2021_Jan_19_1132,Reversal,3.2.4,59.896235752029106,
20,exp1.png,exp2.png,,,,,,,,,,,,,,,,,2,0,2,0,0,20,20,20,,,,,,,,,False,59,140,False,exp1.png,exp2.png,trial_right_image,-1,exp2.png,2,exp1.png,exp2.png,0,2,non-reversed,incorrect,0.9170634237596699,0,valid_lose,678.3495474999072,64,,,,,,,,,,,s_046,2,2021_Jan_19_1132,Reversal,3.2.4,59.896235752029106,
,,,,,,,,,,,,,,,,,,,2,0,2,0,,,,,0,0,0,0,,,,,,,,,,,,,,,,,,,,,,,,,,64,36,64,37,,,,,,,s_046,2,2021_Jan_19_1132,Reversal,3.2.4,59.896235752029106,
,,,,,,,,,,,,,,,,,,,,,,,,,,,,,,,,,,,,,,,,,,,,,,,,,,,,,,,64,,,,,,57,34,23,263.56496580003295,1,,,,,,,
