trial_index,trial_image1_file,trial_image2_file,learning_outer_loop.thisRepN,learning_outer_loop.thisTrialN,learning_outer_loop.thisN,learning_outer_loop.thisIndex,learning_inner_loop.thisRepN,learning_inner_loop.thisTrialN,learning_inner_loop.thisN,learning_inner_loop.thisIndex,learning_estimation_outer_loop.thisRepN,learning_estimation_outer_loop.thisTrialN,learning_estimation_outer_loop.thisN,learning_estimation_outer_loop.thisIndex,learning_estimation_inner_loop.thisRepN,learning_estimation_inner_loop.thisTrialN,learning_estimation_inner_loop.thisN,learning_estimation_inner_loop.thisIndex,reversal_outer_loop.thisRepN,reversal_outer_loop.thisTrialN,reversal_outer_loop.thisN,reversal_outer_loop.thisIndex,reversal_inner_loop.thisRepN,reversal_inner_loop.thisTrialN,reversal_inner_loop.thisN,reversal_inner_loop.thisIndex,reversal_estimation_outer_loop.thisRepN,reversal_estimation_outer_loop.thisTrialN,reversal_estimation_outer_loop.thisN,reversal_estimation_outer_loop.thisIndex,reversal_estimation_inner_loop.thisRepN,reversal_estimation_inner_loop.thisTrialN,reversal_estimation_inner_loop.thisN,reversal_estimation_inner_loop.thisIndex,skipped,total_trial_counter,trial_num,left_right_flip,left_image_file,right_image_file,clicked_stimulus_side,side,clicked_stimulus,version,high_prob_image_file,low_prob_image_file,choice_a,choice_b,pair_type,correct,trial_feedback_random,reward,trial_type,overall_time_after_trial,score,estimation_exp1.png,estimation_exp2.png,estimation_exp3.png,estimation_exp4.png,total_learning_time,total_correct,learning_correct,reversal_correct,total_reversal_time,extra_block,end_experiment.keys,end_experiment.rt,participant,ver,date,expName,psychopyVersion,frameRate,
0,exp1.png,exp2.png,0,0,0,0,0,0,0,0,,,,,,,,,,,,,,,,,,,,,,,,,False,0,1,False,exp1.png,exp2.png,trial_right_image,-1,exp2.png,3,exp2.png,exp1.png,1,3,reversed,correct,0.5250095127162846,1,valid_win,3.210912099923007,1,,,,,,,,,,,,,s_047,3,2021_Jan_20_1021,Reversal,3.2.4,60.037487427004265,
1,exp3.png,exp4.png,0,0,0,0,0,1,1,1,,,,,,,,,,,,,,,,,,,,,,,,,False,1,2,False,exp3.png,exp4.png,trial_left_image,1,exp3.png,3,exp4.png,exp3.png,0,2,non-reversed,incorrect,0.4824770561786438,0,valid_lose,9.291668799938634,1,,,,,,,,,,,,,s_047,3,2021_Jan_20_1021,Reversal,3.2.4,60.037487427004265,
2,exp1.png,exp2.png,0,0,0,0,0,2,2,2,,,,,,,,,,,,,,,,,,,,,,,,,False,2,3,True,exp2.png,exp1.png,trial_right_image,-1,exp1.png,3,exp2.png,exp1.png,0,4,reversed,incorrect,0.9080209514515136,0,valid_lose,14.557306500035338,1,,,,,,,,,,,,,s_047,3,2021_Jan_20_1021,Reversal,3.2.4,60.037487427004265,
3,exp3.png,exp4.png,0,0,0,0,0,3,3,3,,,,,,,,,,,,,,,,,,,,,,,,,False,3,4,False,exp3.png,exp4.png,trial_right_image,-1,exp4.png,3,exp4.png,exp3.png,1,1,non-reversed,correct,0.4367218012152334,1,valid_win,19.921282000024803,2,,,,,,,,,,,,,s_047,3,2021_Jan_20_1021,Reversal,3.2.4,60.037487427004265,
4,exp1.png,exp2.png,0,0,0,0,0,4,4,4,,,,,,,,,,,,,,,,,,,,,,,,,False,4,5,True,exp2.png,exp1.png,trial_left_image,1,exp2.png,3,exp2.png,exp1.png,1,3,reversed,correct,0.9217179967890595,1,valid_win,26.070095699978992,3,,,,,,,,,,,,,s_047,3,2021_Jan_20_1021,Reversal,3.2.4,60.037487427004265,
5,exp3.png,exp4.png,0,0,0,0,0,5,5,5,,,,,,,,,,,,,,,,,,,,,,,,,False,5,6,True,exp4.png,exp3.png,trial_left_image,1,exp4.png,3,exp4.png,exp3.png,1,1,non-reversed,correct,0.8003448083703437,1,valid_win,33.10018339997623,4,,,,,,,,,,,,,s_047,3,2021_Jan_20_1021,Reversal,3.2.4,60.037487427004265,
6,exp1.png,exp2.png,0,0,0,0,0,6,6,6,,,,,,,,,,,,,,,,,,,,,,,,,False,6,7,True,exp2.png,exp1.png,trial_left_image,1,exp2.png,3,exp2.png,exp1.png,1,3,reversed,correct,0.8878270186281136,1,valid_win,39.08208860002924,5,,,,,,,,,,,,,s_047,3,2021_Jan_20_1021,Reversal,3.2.4,60.037487427004265,
7,exp3.png,exp4.png,0,0,0,0,0,7,7,7,,,,,,,,,,,,,,,,,,,,,,,,,False,7,8,True,exp4.png,exp3.png,trial_left_image,1,exp4.png,3,exp4.png,exp3.png,1,1,non-reversed,correct,0.21339245188517897,0,invalid_lose,45.22988949995488,5,,,,,,,,,,,,,s_047,3,2021_Jan_20_1021,Reversal,3.2.4,60.037487427004265,
8,exp1.png,exp2.png,0,0,0,0,0,8,8,8,,,,,,,,,,,,,,,,,,,,,,,,,False,8,9,True,exp2.png,exp1.png,trial_left_image,1,exp2.png,3,exp2.png,exp1.png,1,3,reversed,correct,0.9248765065059054,1,valid_win,50.52884579997044,6,,,,,,,,,,,,,s_047,3,2021_Jan_20_1021,Reversal,3.2.4,60.037487427004265,
9,exp3.png,exp4.png,0,0,0,0,0,9,9,9,,,,,,,,,,,,,,,,,,,,,,,,,False,9,10,True,exp4.png,exp3.png,trial_right_image,-1,exp3.png,3,exp4.png,exp3.png,0,2,non-reversed,incorrect,0.44629874443451234,0,valid_lose,55.176037100027315,6,,,,,,,,,,,,,s_047,3,2021_Jan_20_1021,Reversal,3.2.4,60.037487427004265,
10,exp1.png,exp2.png,0,0,0,0,0,10,10,10,,,,,,,,,,,,,,,,,,,,,,,,,False,10,11,False,exp1.png,exp2.png,trial_right_image,-1,exp2.png,3,exp2.png,exp1.png,1,3,reversed,correct,0.9601438003750191,1,valid_win,61.207799099967815,7,,,,,,,,,,,,,s_047,3,2021_Jan_20_1021,Reversal,3.2.4,60.037487427004265,
11,exp3.png,exp4.png,0,0,0,0,0,11,11,11,,,,,,,,,,,,,,,,,,,,,,,,,False,11,12,True,exp4.png,exp3.png,trial_right_image,-1,exp3.png,3,exp4.png,exp3.png,0,2,non-reversed,incorrect,0.6138072246640008,0,valid_lose,67.50493189995177,7,,,,,,,,,,,,,s_047,3,2021_Jan_20_1021,Reversal,3.2.4,60.037487427004265,
12,exp1.png,exp2.png,0,0,0,0,0,12,12,12,,,,,,,,,,,,,,,,,,,,,,,,,False,12,13,False,exp1.png,exp2.png,trial_right_image,-1,exp2.png,3,exp2.png,exp1.png,1,3,reversed,correct,0.33617109022170066,1,valid_win,73.47104520001449,8,,,,,,,,,,,,,s_047,3,2021_Jan_20_1021,Reversal,3.2.4,60.037487427004265,
13,exp3.png,exp4.png,0,0,0,0,0,13,13,13,,,,,,,,,,,,,,,,,,,,,,,,,False,13,14,False,exp3.png,exp4.png,trial_left_image,1,exp3.png,3,exp4.png,exp3.png,0,2,non-reversed,incorrect,0.24581124686166833,1,invalid_win,78.25838559994008,9,,,,,,,,,,,,,s_047,3,2021_Jan_20_1021,Reversal,3.2.4,60.037487427004265,
14,exp1.png,exp2.png,0,0,0,0,0,14,14,14,,,,,,,,,,,,,,,,,,,,,,,,,False,14,15,False,exp1.png,exp2.png,trial_right_image,-1,exp2.png,3,exp2.png,exp1.png,1,3,reversed,correct,0.4081336879976194,1,valid_win,84.0330796999624,10,,,,,,,,,,,,,s_047,3,2021_Jan_20_1021,Reversal,3.2.4,60.037487427004265,
15,exp3.png,exp4.png,0,0,0,0,0,15,15,15,,,,,,,,,,,,,,,,,,,,,,,,,False,15,16,True,exp4.png,exp3.png,trial_left_image,1,exp4.png,3,exp4.png,exp3.png,1,1,non-reversed,correct,0.28774890126977737,1,valid_win,89.09816970000975,11,,,,,,,,,,,,,s_047,3,2021_Jan_20_1021,Reversal,3.2.4,60.037487427004265,
16,exp1.png,exp2.png,0,0,0,0,0,16,16,16,,,,,,,,,,,,,,,,,,,,,,,,,False,16,17,True,exp2.png,exp1.png,trial_left_image,1,exp2.png,3,exp2.png,exp1.png,1,3,reversed,correct,0.5807048820388312,1,valid_win,95.44619619997684,12,,,,,,,,,,,,,s_047,3,2021_Jan_20_1021,Reversal,3.2.4,60.037487427004265,
17,exp3.png,exp4.png,0,0,0,0,0,17,17,17,,,,,,,,,,,,,,,,,,,,,,,,,False,17,18,False,exp3.png,exp4.png,trial_left_image,1,exp3.png,3,exp4.png,exp3.png,0,2,non-reversed,incorrect,0.6144730749630828,0,valid_lose,100.62760679994244,12,,,,,,,,,,,,,s_047,3,2021_Jan_20_1021,Reversal,3.2.4,60.037487427004265,
18,exp1.png,exp2.png,0,0,0,0,0,18,18,18,,,,,,,,,,,,,,,,,,,,,,,,,False,18,19,False,exp1.png,exp2.png,trial_right_image,-1,exp2.png,3,exp2.png,exp1.png,1,3,reversed,correct,0.8204762921377102,1,valid_win,106.25921829999425,13,,,,,,,,,,,,,s_047,3,2021_Jan_20_1021,Reversal,3.2.4,60.037487427004265,
19,exp3.png,exp4.png,0,0,0,0,0,19,19,19,,,,,,,,,,,,,,,,,,,,,,,,,False,19,20,False,exp3.png,exp4.png,trial_right_image,-1,exp4.png,3,exp4.png,exp3.png,1,1,non-reversed,correct,0.39465030086254993,1,valid_win,113.20684939995408,14,,,,,,,,,,,,,s_047,3,2021_Jan_20_1021,Reversal,3.2.4,60.037487427004265,
20,exp1.png,exp2.png,0,0,0,0,0,20,20,20,,,,,,,,,,,,,,,,,,,,,,,,,True,,,,,,,,,,,,,,,,,,,,,,,,,,,,,,,,,s_047,3,2021_Jan_20_1021,Reversal,3.2.4,60.037487427004265,
,,,0,0,0,0,,,,,0,0,0,0,,,,,,,,,,,,,,,,,,,,,,,,,,,,,,,,,,,,,,,,,,14,98,50.0,50.0,,,,,,,,,s_047,3,2021_Jan_20_1021,Reversal,3.2.4,60.037487427004265,
0,exp1.png,exp2.png,1,0,1,0,0,0,0,0,,,,,,,,,,,,,,,,,,,,,,,,,False,20,21,False,exp1.png,exp2.png,trial_right_image,-1,exp2.png,3,exp2.png,exp1.png,1,3,reversed,correct,0.014250198770976108,0,invalid_lose,147.99470029992517,14,,,,,,,,,,,,,s_047,3,2021_Jan_20_1021,Reversal,3.2.4,60.037487427004265,
1,exp3.png,exp4.png,1,0,1,0,0,1,1,1,,,,,,,,,,,,,,,,,,,,,,,,,False,21,22,True,exp4.png,exp3.png,trial_left_image,1,exp4.png,3,exp4.png,exp3.png,1,1,non-reversed,correct,0.6064755939610336,1,valid_win,153.40934320003726,15,,,,,,,,,,,,,s_047,3,2021_Jan_20_1021,Reversal,3.2.4,60.037487427004265,
2,exp1.png,exp2.png,1,0,1,0,0,2,2,2,,,,,,,,,,,,,,,,,,,,,,,,,False,22,23,True,exp2.png,exp1.png,trial_left_image,1,exp2.png,3,exp2.png,exp1.png,1,3,reversed,correct,0.18323826322306824,0,invalid_lose,159.5748468999518,15,,,,,,,,,,,,,s_047,3,2021_Jan_20_1021,Reversal,3.2.4,60.037487427004265,
3,exp3.png,exp4.png,1,0,1,0,0,3,3,3,,,,,,,,,,,,,,,,,,,,,,,,,False,23,24,False,exp3.png,exp4.png,trial_left_image,1,exp3.png,3,exp4.png,exp3.png,0,2,non-reversed,incorrect,0.40753738729197464,0,valid_lose,167.42171809996944,15,,,,,,,,,,,,,s_047,3,2021_Jan_20_1021,Reversal,3.2.4,60.037487427004265,
4,exp1.png,exp2.png,1,0,1,0,0,4,4,4,,,,,,,,,,,,,,,,,,,,,,,,,False,24,25,False,exp1.png,exp2.png,trial_right_image,-1,exp2.png,3,exp2.png,exp1.png,1,3,reversed,correct,0.9187475063210326,1,valid_win,173.3857822000282,16,,,,,,,,,,,,,s_047,3,2021_Jan_20_1021,Reversal,3.2.4,60.037487427004265,
5,exp3.png,exp4.png,1,0,1,0,0,5,5,5,,,,,,,,,,,,,,,,,,,,,,,,,False,25,26,False,exp3.png,exp4.png,trial_right_image,-1,exp4.png,3,exp4.png,exp3.png,1,1,non-reversed,correct,0.19881119783528034,0,invalid_lose,179.86780260002706,16,,,,,,,,,,,,,s_047,3,2021_Jan_20_1021,Reversal,3.2.4,60.037487427004265,
6,exp1.png,exp2.png,1,0,1,0,0,6,6,6,,,,,,,,,,,,,,,,,,,,,,,,,False,26,27,False,exp1.png,exp2.png,trial_right_image,-1,exp2.png,3,exp2.png,exp1.png,1,3,reversed,correct,0.6239683789649927,1,valid_win,186.61573379999027,17,,,,,,,,,,,,,s_047,3,2021_Jan_20_1021,Reversal,3.2.4,60.037487427004265,
7,exp3.png,exp4.png,1,0,1,0,0,7,7,7,,,,,,,,,,,,,,,,,,,,,,,,,False,27,28,True,exp4.png,exp3.png,trial_left_image,1,exp4.png,3,exp4.png,exp3.png,1,1,non-reversed,correct,0.36173344457740175,1,valid_win,193.21269730001222,18,,,,,,,,,,,,,s_047,3,2021_Jan_20_1021,Reversal,3.2.4,60.037487427004265,
8,exp1.png,exp2.png,1,0,1,0,0,8,8,8,,,,,,,,,,,,,,,,,,,,,,,,,False,28,29,True,exp2.png,exp1.png,trial_left_image,1,exp2.png,3,exp2.png,exp1.png,1,3,reversed,correct,0.9178803394731553,1,valid_win,199.96073429996613,19,,,,,,,,,,,,,s_047,3,2021_Jan_20_1021,Reversal,3.2.4,60.037487427004265,
9,exp3.png,exp4.png,1,0,1,0,0,9,9,9,,,,,,,,,,,,,,,,,,,,,,,,,False,29,30,False,exp3.png,exp4.png,trial_left_image,1,exp3.png,3,exp4.png,exp3.png,0,2,non-reversed,incorrect,0.5421181769209333,0,valid_lose,206.1585078999633,19,,,,,,,,,,,,,s_047,3,2021_Jan_20_1021,Reversal,3.2.4,60.037487427004265,
10,exp1.png,exp2.png,1,0,1,0,0,10,10,10,,,,,,,,,,,,,,,,,,,,,,,,,False,30,31,True,exp2.png,exp1.png,trial_left_image,1,exp2.png,3,exp2.png,exp1.png,1,3,reversed,correct,0.38830937453770686,1,valid_win,212.57265119999647,20,,,,,,,,,,,,,s_047,3,2021_Jan_20_1021,Reversal,3.2.4,60.037487427004265,
11,exp3.png,exp4.png,1,0,1,0,0,11,11,11,,,,,,,,,,,,,,,,,,,,,,,,,False,31,32,True,exp4.png,exp3.png,trial_right_image,-1,exp3.png,3,exp4.png,exp3.png,0,2,non-reversed,incorrect,0.7961484394960531,0,valid_lose,222.66957729996648,20,,,,,,,,,,,,,s_047,3,2021_Jan_20_1021,Reversal,3.2.4,60.037487427004265,
12,exp1.png,exp2.png,1,0,1,0,0,12,12,12,,,,,,,,,,,,,,,,,,,,,,,,,False,32,33,True,exp2.png,exp1.png,trial_left_image,1,exp2.png,3,exp2.png,exp1.png,1,3,reversed,correct,0.4261111478394818,1,valid_win,228.51706320000812,21,,,,,,,,,,,,,s_047,3,2021_Jan_20_1021,Reversal,3.2.4,60.037487427004265,
13,exp3.png,exp4.png,1,0,1,0,0,13,13,13,,,,,,,,,,,,,,,,,,,,,,,,,False,33,34,True,exp4.png,exp3.png,trial_left_image,1,exp4.png,3,exp4.png,exp3.png,1,1,non-reversed,correct,0.11430421896351961,0,invalid_lose,235.06591040000785,21,,,,,,,,,,,,,s_047,3,2021_Jan_20_1021,Reversal,3.2.4,60.037487427004265,
14,exp1.png,exp2.png,1,0,1,0,0,14,14,14,,,,,,,,,,,,,,,,,,,,,,,,,False,34,35,False,exp1.png,exp2.png,trial_right_image,-1,exp2.png,3,exp2.png,exp1.png,1,3,reversed,correct,0.2782145772691219,1,valid_win,240.38078779994976,22,,,,,,,,,,,,,s_047,3,2021_Jan_20_1021,Reversal,3.2.4,60.037487427004265,
15,exp3.png,exp4.png,1,0,1,0,0,15,15,15,,,,,,,,,,,,,,,,,,,,,,,,,False,35,36,False,exp3.png,exp4.png,trial_right_image,-1,exp4.png,3,exp4.png,exp3.png,1,1,non-reversed,correct,0.8046430745666393,1,valid_win,246.74493379995693,23,,,,,,,,,,,,,s_047,3,2021_Jan_20_1021,Reversal,3.2.4,60.037487427004265,
16,exp1.png,exp2.png,1,0,1,0,0,16,16,16,,,,,,,,,,,,,,,,,,,,,,,,,False,36,37,True,exp2.png,exp1.png,trial_left_image,1,exp2.png,3,exp2.png,exp1.png,1,3,reversed,correct,0.2280245064165728,0,invalid_lose,254.27461690001655,23,,,,,,,,,,,,,s_047,3,2021_Jan_20_1021,Reversal,3.2.4,60.037487427004265,
17,exp3.png,exp4.png,1,0,1,0,0,17,17,17,,,,,,,,,,,,,,,,,,,,,,,,,False,37,38,True,exp4.png,exp3.png,trial_right_image,-1,exp3.png,3,exp4.png,exp3.png,0,2,non-reversed,incorrect,0.8984771853134889,0,valid_lose,259.3065176999662,23,,,,,,,,,,,,,s_047,3,2021_Jan_20_1021,Reversal,3.2.4,60.037487427004265,
18,exp1.png,exp2.png,1,0,1,0,0,18,18,18,,,,,,,,,,,,,,,,,,,,,,,,,False,38,39,False,exp1.png,exp2.png,trial_right_image,-1,exp2.png,3,exp2.png,exp1.png,1,3,reversed,correct,0.7704094526998613,1,valid_win,264.97170039999764,24,,,,,,,,,,,,,s_047,3,2021_Jan_20_1021,Reversal,3.2.4,60.037487427004265,
19,exp3.png,exp4.png,1,0,1,0,0,19,19,19,,,,,,,,,,,,,,,,,,,,,,,,,False,39,40,False,exp3.png,exp4.png,trial_left_image,1,exp3.png,3,exp4.png,exp3.png,0,2,non-reversed,incorrect,0.2696431187308941,0,valid_lose,272.7024643999757,24,,,,,,,,,,,,,s_047,3,2021_Jan_20_1021,Reversal,3.2.4,60.037487427004265,
20,exp1.png,exp2.png,1,0,1,0,0,20,20,20,,,,,,,,,,,,,,,,,,,,,,,,,True,,,,,,,,,,,,,,,,,,,,,,,,,,,,,,,,,s_047,3,2021_Jan_20_1021,Reversal,3.2.4,60.037487427004265,
,,,1,0,1,0,,,,,0,0,0,0,,,,,,,,,,,,,,,,,,,,,,,,,,,,,,,,,,,,,,,,,,19,73,50.0,50.0,,,,,,,,,s_047,3,2021_Jan_20_1021,Reversal,3.2.4,60.037487427004265,
0,exp1.png,exp2.png,2,0,2,0,0,0,0,0,,,,,,,,,,,,,,,,,,,,,,,,,False,40,41,True,exp2.png,exp1.png,trial_left_image,1,exp2.png,3,exp2.png,exp1.png,1,3,reversed,correct,0.800156945864792,1,valid_win,300.5937036999967,25,,,,,,,,,,,,,s_047,3,2021_Jan_20_1021,Reversal,3.2.4,60.037487427004265,
1,exp3.png,exp4.png,2,0,2,0,0,1,1,1,,,,,,,,,,,,,,,,,,,,,,,,,False,41,42,True,exp4.png,exp3.png,trial_right_image,-1,exp3.png,3,exp4.png,exp3.png,0,2,non-reversed,incorrect,0.3482923905995903,0,valid_lose,306.35811199992895,25,,,,,,,,,,,,,s_047,3,2021_Jan_20_1021,Reversal,3.2.4,60.037487427004265,
2,exp1.png,exp2.png,2,0,2,0,0,2,2,2,,,,,,,,,,,,,,,,,,,,,,,,,False,42,43,False,exp1.png,exp2.png,trial_right_image,-1,exp2.png,3,exp2.png,exp1.png,1,3,reversed,correct,0.3529219456305558,1,valid_win,311.4896073000273,26,,,,,,,,,,,,,s_047,3,2021_Jan_20_1021,Reversal,3.2.4,60.037487427004265,
3,exp3.png,exp4.png,2,0,2,0,0,3,3,3,,,,,,,,,,,,,,,,,,,,,,,,,False,43,44,True,exp4.png,exp3.png,trial_right_image,-1,exp3.png,3,exp4.png,exp3.png,0,2,non-reversed,incorrect,0.1357051168615364,1,invalid_win,317.62110190000385,27,,,,,,,,,,,,,s_047,3,2021_Jan_20_1021,Reversal,3.2.4,60.037487427004265,
4,exp1.png,exp2.png,2,0,2,0,0,4,4,4,,,,,,,,,,,,,,,,,,,,,,,,,False,44,45,False,exp1.png,exp2.png,trial_right_image,-1,exp2.png,3,exp2.png,exp1.png,1,3,reversed,correct,0.008894423424449016,0,invalid_lose,323.63540169992484,27,,,,,,,,,,,,,s_047,3,2021_Jan_20_1021,Reversal,3.2.4,60.037487427004265,
5,exp3.png,exp4.png,2,0,2,0,0,5,5,5,,,,,,,,,,,,,,,,,,,,,,,,,False,45,46,True,exp4.png,exp3.png,trial_right_image,-1,exp3.png,3,exp4.png,exp3.png,0,2,non-reversed,incorrect,0.47554421687375703,0,valid_lose,328.4667969000293,27,,,,,,,,,,,,,s_047,3,2021_Jan_20_1021,Reversal,3.2.4,60.037487427004265,
6,exp1.png,exp2.png,2,0,2,0,0,6,6,6,,,,,,,,,,,,,,,,,,,,,,,,,False,46,47,False,exp1.png,exp2.png,trial_right_image,-1,exp2.png,3,exp2.png,exp1.png,1,3,reversed,correct,0.960801325921049,1,valid_win,335.78155329998117,28,,,,,,,,,,,,,s_047,3,2021_Jan_20_1021,Reversal,3.2.4,60.037487427004265,
7,exp3.png,exp4.png,2,0,2,0,0,7,7,7,,,,,,,,,,,,,,,,,,,,,,,,,False,47,48,True,exp4.png,exp3.png,trial_right_image,-1,exp3.png,3,exp4.png,exp3.png,0,2,non-reversed,incorrect,0.2752500485834407,0,valid_lose,341.5304916999303,28,,,,,,,,,,,,,s_047,3,2021_Jan_20_1021,Reversal,3.2.4,60.037487427004265,
8,exp1.png,exp2.png,2,0,2,0,0,8,8,8,,,,,,,,,,,,,,,,,,,,,,,,,False,48,49,True,exp2.png,exp1.png,trial_left_image,1,exp2.png,3,exp2.png,exp1.png,1,3,reversed,correct,0.9755654031629719,1,valid_win,346.99420019995887,29,,,,,,,,,,,,,s_047,3,2021_Jan_20_1021,Reversal,3.2.4,60.037487427004265,
9,exp3.png,exp4.png,2,0,2,0,0,9,9,9,,,,,,,,,,,,,,,,,,,,,,,,,False,49,50,True,exp4.png,exp3.png,trial_left_image,1,exp4.png,3,exp4.png,exp3.png,1,1,non-reversed,correct,0.719049858393077,1,valid_win,352.4249098999426,30,,,,,,,,,,,,,s_047,3,2021_Jan_20_1021,Reversal,3.2.4,60.037487427004265,
10,exp1.png,exp2.png,2,0,2,0,0,10,10,10,,,,,,,,,,,,,,,,,,,,,,,,,False,50,51,False,exp1.png,exp2.png,trial_right_image,-1,exp2.png,3,exp2.png,exp1.png,1,3,reversed,correct,0.7733115056979937,1,valid_win,358.2238128000172,31,,,,,,,,,,,,,s_047,3,2021_Jan_20_1021,Reversal,3.2.4,60.037487427004265,
11,exp3.png,exp4.png,2,0,2,0,0,11,11,11,,,,,,,,,,,,,,,,,,,,,,,,,False,51,52,False,exp3.png,exp4.png,trial_left_image,1,exp3.png,3,exp4.png,exp3.png,0,2,non-reversed,incorrect,0.7565648117774131,0,valid_lose,365.671368899988,31,,,,,,,,,,,,,s_047,3,2021_Jan_20_1021,Reversal,3.2.4,60.037487427004265,
12,exp1.png,exp2.png,2,0,2,0,0,12,12,12,,,,,,,,,,,,,,,,,,,,,,,,,False,52,53,True,exp2.png,exp1.png,trial_left_image,1,exp2.png,3,exp2.png,exp1.png,1,3,reversed,correct,0.6968327171307241,1,valid_win,371.9688824999612,32,,,,,,,,,,,,,s_047,3,2021_Jan_20_1021,Reversal,3.2.4,60.037487427004265,
13,exp3.png,exp4.png,2,0,2,0,0,13,13,13,,,,,,,,,,,,,,,,,,,,,,,,,False,53,54,False,exp3.png,exp4.png,trial_left_image,1,exp3.png,3,exp4.png,exp3.png,0,2,non-reversed,incorrect,0.9211463701926692,0,valid_lose,377.68510410003364,32,,,,,,,,,,,,,s_047,3,2021_Jan_20_1021,Reversal,3.2.4,60.037487427004265,
14,exp1.png,exp2.png,2,0,2,0,0,14,14,14,,,,,,,,,,,,,,,,,,,,,,,,,False,54,55,True,exp2.png,exp1.png,trial_left_image,1,exp2.png,3,exp2.png,exp1.png,1,3,reversed,correct,0.13667376738050874,0,invalid_lose,381.93224360002205,32,,,,,,,,,,,,,s_047,3,2021_Jan_20_1021,Reversal,3.2.4,60.037487427004265,
15,exp3.png,exp4.png,2,0,2,0,0,15,15,15,,,,,,,,,,,,,,,,,,,,,,,,,False,55,56,False,exp3.png,exp4.png,trial_left_image,1,exp3.png,3,exp4.png,exp3.png,0,2,non-reversed,incorrect,0.39971382453639914,0,valid_lose,387.61378539993893,32,,,,,,,,,,,,,s_047,3,2021_Jan_20_1021,Reversal,3.2.4,60.037487427004265,
16,exp1.png,exp2.png,2,0,2,0,0,16,16,16,,,,,,,,,,,,,,,,,,,,,,,,,False,56,57,False,exp1.png,exp2.png,trial_right_image,-1,exp2.png,3,exp2.png,exp1.png,1,3,reversed,correct,0.872022334772437,1,valid_win,392.6628526999848,33,,,,,,,,,,,,,s_047,3,2021_Jan_20_1021,Reversal,3.2.4,60.037487427004265,
17,exp3.png,exp4.png,2,0,2,0,0,17,17,17,,,,,,,,,,,,,,,,,,,,,,,,,False,57,58,True,exp4.png,exp3.png,trial_right_image,-1,exp3.png,3,exp4.png,exp3.png,0,2,non-reversed,incorrect,0.5983379803044692,0,valid_lose,397.56051079998724,33,,,,,,,,,,,,,s_047,3,2021_Jan_20_1021,Reversal,3.2.4,60.037487427004265,
18,exp1.png,exp2.png,2,0,2,0,0,18,18,18,,,,,,,,,,,,,,,,,,,,,,,,,False,58,59,False,exp1.png,exp2.png,trial_right_image,-1,exp2.png,3,exp2.png,exp1.png,1,3,reversed,correct,0.35105529145508396,1,valid_win,402.40813190001063,34,,,,,,,,,,,,,s_047,3,2021_Jan_20_1021,Reversal,3.2.4,60.037487427004265,
19,exp3.png,exp4.png,2,0,2,0,0,19,19,19,,,,,,,,,,,,,,,,,,,,,,,,,False,59,60,False,exp3.png,exp4.png,trial_left_image,1,exp3.png,3,exp4.png,exp3.png,0,2,non-reversed,incorrect,0.31580047791387733,0,valid_lose,408.5898702000268,34,,,,,,,,,,,,,s_047,3,2021_Jan_20_1021,Reversal,3.2.4,60.037487427004265,
20,exp1.png,exp2.png,2,0,2,0,0,20,20,20,,,,,,,,,,,,,,,,,,,,,,,,,True,,,,,,,,,,,,,,,,,,,,,,,,,,,,,,,,,s_047,3,2021_Jan_20_1021,Reversal,3.2.4,60.037487427004265,
,,,2,0,2,0,,,,,0,0,0,0,,,,,,,,,,,,,,,,,,,,,,,,,,,,,,,,,,,,,,,,,,50.0,83,50.0,25,,,,,,,,,s_047,3,2021_Jan_20_1021,Reversal,3.2.4,60.037487427004265,
0,exp1.png,exp2.png,3,0,3,0,0,0,0,0,,,,,,,,,,,,,,,,,,,,,,,,,False,60,61,False,exp1.png,exp2.png,trial_right_image,-1,exp2.png,3,exp2.png,exp1.png,1,3,reversed,correct,0.5854261113973881,1,valid_win,428.2999532999238,35,,,,,,,,,,,,,s_047,3,2021_Jan_20_1021,Reversal,3.2.4,60.037487427004265,
1,exp3.png,exp4.png,3,0,3,0,0,1,1,1,,,,,,,,,,,,,,,,,,,,,,,,,False,61,62,False,exp3.png,exp4.png,trial_left_image,1,exp3.png,3,exp4.png,exp3.png,0,2,non-reversed,incorrect,0.6870648754146255,0,valid_lose,432.8987541999668,35,,,,,,,,,,,,,s_047,3,2021_Jan_20_1021,Reversal,3.2.4,60.037487427004265,
2,exp1.png,exp2.png,3,0,3,0,0,2,2,2,,,,,,,,,,,,,,,,,,,,,,,,,False,62,63,True,exp2.png,exp1.png,trial_left_image,1,exp2.png,3,exp2.png,exp1.png,1,3,reversed,correct,0.10465056338011947,0,invalid_lose,437.7130458999891,35,,,,,,,,,,,,,s_047,3,2021_Jan_20_1021,Reversal,3.2.4,60.037487427004265,
3,exp3.png,exp4.png,3,0,3,0,0,3,3,3,,,,,,,,,,,,,,,,,,,,,,,,,False,63,64,False,exp3.png,exp4.png,trial_right_image,-1,exp4.png,3,exp4.png,exp3.png,1,1,non-reversed,correct,0.5331008709391674,1,valid_win,442.04507929994725,36,,,,,,,,,,,,,s_047,3,2021_Jan_20_1021,Reversal,3.2.4,60.037487427004265,
4,exp1.png,exp2.png,3,0,3,0,0,4,4,4,,,,,,,,,,,,,,,,,,,,,,,,,False,64,65,False,exp1.png,exp2.png,trial_right_image,-1,exp2.png,3,exp2.png,exp1.png,1,3,reversed,correct,0.691378269090583,1,valid_win,447.60996399994474,37,,,,,,,,,,,,,s_047,3,2021_Jan_20_1021,Reversal,3.2.4,60.037487427004265,
5,exp3.png,exp4.png,3,0,3,0,0,5,5,5,,,,,,,,,,,,,,,,,,,,,,,,,False,65,66,False,exp3.png,exp4.png,trial_right_image,-1,exp4.png,3,exp4.png,exp3.png,1,1,non-reversed,correct,0.3842976501769575,1,valid_win,453.74120059993584,38,,,,,,,,,,,,,s_047,3,2021_Jan_20_1021,Reversal,3.2.4,60.037487427004265,
6,exp1.png,exp2.png,3,0,3,0,0,6,6,6,,,,,,,,,,,,,,,,,,,,,,,,,False,66,67,False,exp1.png,exp2.png,trial_right_image,-1,exp2.png,3,exp2.png,exp1.png,1,3,reversed,correct,0.2711620658507976,1,valid_win,458.5727079999633,39,,,,,,,,,,,,,s_047,3,2021_Jan_20_1021,Reversal,3.2.4,60.037487427004265,
7,exp3.png,exp4.png,3,0,3,0,0,7,7,7,,,,,,,,,,,,,,,,,,,,,,,,,False,67,68,True,exp4.png,exp3.png,trial_left_image,1,exp4.png,3,exp4.png,exp3.png,1,1,non-reversed,correct,0.296427692810021,1,valid_win,463.13808179995976,40,,,,,,,,,,,,,s_047,3,2021_Jan_20_1021,Reversal,3.2.4,60.037487427004265,
8,exp1.png,exp2.png,3,0,3,0,0,8,8,8,,,,,,,,,,,,,,,,,,,,,,,,,False,68,69,False,exp1.png,exp2.png,trial_right_image,-1,exp2.png,3,exp2.png,exp1.png,1,3,reversed,correct,0.1052923293272402,0,invalid_lose,467.8363843000261,40,,,,,,,,,,,,,s_047,3,2021_Jan_20_1021,Reversal,3.2.4,60.037487427004265,
9,exp3.png,exp4.png,3,0,3,0,0,9,9,9,,,,,,,,,,,,,,,,,,,,,,,,,False,69,70,True,exp4.png,exp3.png,trial_left_image,1,exp4.png,3,exp4.png,exp3.png,1,1,non-reversed,correct,0.8830204747324476,1,valid_win,472.93494730000384,41,,,,,,,,,,,,,s_047,3,2021_Jan_20_1021,Reversal,3.2.4,60.037487427004265,
10,exp1.png,exp2.png,3,0,3,0,0,10,10,10,,,,,,,,,,,,,,,,,,,,,,,,,False,70,71,True,exp2.png,exp1.png,trial_right_image,-1,exp1.png,3,exp2.png,exp1.png,0,4,reversed,incorrect,0.8473353758667141,0,valid_lose,479.18256129999645,41,,,,,,,,,,,,,s_047,3,2021_Jan_20_1021,Reversal,3.2.4,60.037487427004265,
11,exp3.png,exp4.png,3,0,3,0,0,11,11,11,,,,,,,,,,,,,,,,,,,,,,,,,False,71,72,True,exp4.png,exp3.png,trial_left_image,1,exp4.png,3,exp4.png,exp3.png,1,1,non-reversed,correct,0.8981964145329666,1,valid_win,486.89587879995815,42,,,,,,,,,,,,,s_047,3,2021_Jan_20_1021,Reversal,3.2.4,60.037487427004265,
12,exp1.png,exp2.png,3,0,3,0,0,12,12,12,,,,,,,,,,,,,,,,,,,,,,,,,False,72,73,True,exp2.png,exp1.png,trial_left_image,1,exp2.png,3,exp2.png,exp1.png,1,3,reversed,correct,0.5721282327262772,1,valid_win,491.8619063999504,43,,,,,,,,,,,,,s_047,3,2021_Jan_20_1021,Reversal,3.2.4,60.037487427004265,
13,exp3.png,exp4.png,3,0,3,0,0,13,13,13,,,,,,,,,,,,,,,,,,,,,,,,,False,73,74,True,exp4.png,exp3.png,trial_left_image,1,exp4.png,3,exp4.png,exp3.png,1,1,non-reversed,correct,0.29013996492828376,1,valid_win,496.5930244999472,44,,,,,,,,,,,,,s_047,3,2021_Jan_20_1021,Reversal,3.2.4,60.037487427004265,
14,exp1.png,exp2.png,3,0,3,0,0,14,14,14,,,,,,,,,,,,,,,,,,,,,,,,,False,74,75,False,exp1.png,exp2.png,trial_right_image,-1,exp2.png,3,exp2.png,exp1.png,1,3,reversed,correct,0.6028837193473972,1,valid_win,501.07470779994037,45,,,,,,,,,,,,,s_047,3,2021_Jan_20_1021,Reversal,3.2.4,60.037487427004265,
15,exp3.png,exp4.png,3,0,3,0,0,15,15,15,,,,,,,,,,,,,,,,,,,,,,,,,False,75,76,False,exp3.png,exp4.png,trial_right_image,-1,exp4.png,3,exp4.png,exp3.png,1,1,non-reversed,correct,0.5865862186459295,1,valid_win,505.6404503999511,46,,,,,,,,,,,,,s_047,3,2021_Jan_20_1021,Reversal,3.2.4,60.037487427004265,
16,exp1.png,exp2.png,3,0,3,0,0,16,16,16,,,,,,,,,,,,,,,,,,,,,,,,,False,76,77,True,exp2.png,exp1.png,trial_left_image,1,exp2.png,3,exp2.png,exp1.png,1,3,reversed,correct,0.686569317928969,1,valid_win,510.38856180000585,47,,,,,,,,,,,,,s_047,3,2021_Jan_20_1021,Reversal,3.2.4,60.037487427004265,
17,exp3.png,exp4.png,3,0,3,0,0,17,17,17,,,,,,,,,,,,,,,,,,,,,,,,,False,77,78,False,exp3.png,exp4.png,trial_right_image,-1,exp4.png,3,exp4.png,exp3.png,1,1,non-reversed,correct,0.2027926650094316,0,invalid_lose,514.8868331999984,47,,,,,,,,,,,,,s_047,3,2021_Jan_20_1021,Reversal,3.2.4,60.037487427004265,
18,exp1.png,exp2.png,3,0,3,0,0,18,18,18,,,,,,,,,,,,,,,,,,,,,,,,,False,78,79,True,exp2.png,exp1.png,trial_left_image,1,exp2.png,3,exp2.png,exp1.png,1,3,reversed,correct,0.571742673317629,1,valid_win,519.3363900999539,48,,,,,,,,,,,,,s_047,3,2021_Jan_20_1021,Reversal,3.2.4,60.037487427004265,
19,exp3.png,exp4.png,3,0,3,0,0,19,19,19,,,,,,,,,,,,,,,,,,,,,,,,,False,79,80,True,exp4.png,exp3.png,trial_left_image,1,exp4.png,3,exp4.png,exp3.png,1,1,non-reversed,correct,0.1705931459353972,0,invalid_lose,523.951131699956,48,,,,,,,,,,,,,s_047,3,2021_Jan_20_1021,Reversal,3.2.4,60.037487427004265,
20,exp1.png,exp2.png,3,0,3,0,0,20,20,20,,,,,,,,,,,,,,,,,,,,,,,,,True,,,,,,,,,,,,,,,,,,,,,,,,,,,,,,,,,s_047,3,2021_Jan_20_1021,Reversal,3.2.4,60.037487427004265,
,,,3,0,3,0,,,,,0,0,0,0,,,,,,,,,,,,,,,,,,,,,,,,,,,,,,,,,,,,,,,,,,24,83,21,78,,,,,,,,,s_047,3,2021_Jan_20_1021,Reversal,3.2.4,60.037487427004265,
0,exp1.png,exp2.png,,,,,,,,,,,,,,,,,0,0,0,0,0,0,0,0,,,,,,,,,False,0,81,True,exp2.png,exp1.png,trial_left_image,1,exp2.png,3,exp1.png,exp2.png,1,3,reversed,incorrect,0.6460398422296865,0,valid_lose,543.4108105000341,48,,,,,540.3671983999666,,,,,,,,s_047,3,2021_Jan_20_1021,Reversal,3.2.4,60.037487427004265,
1,exp3.png,exp4.png,,,,,,,,,,,,,,,,,0,0,0,0,0,1,1,1,,,,,,,,,False,1,82,True,exp4.png,exp3.png,trial_left_image,1,exp4.png,3,exp4.png,exp3.png,1,1,non-reversed,correct,0.6412331922739192,1,valid_win,548.3585380000295,49,,,,,,,,,,,,,s_047,3,2021_Jan_20_1021,Reversal,3.2.4,60.037487427004265,
2,exp1.png,exp2.png,,,,,,,,,,,,,,,,,0,0,0,0,0,2,2,2,,,,,,,,,False,2,83,True,exp2.png,exp1.png,trial_left_image,1,exp2.png,3,exp1.png,exp2.png,1,3,reversed,incorrect,0.5144026426677933,0,valid_lose,553.624177700025,49,,,,,,,,,,,,,s_047,3,2021_Jan_20_1021,Reversal,3.2.4,60.037487427004265,
3,exp3.png,exp4.png,,,,,,,,,,,,,,,,,0,0,0,0,0,3,3,3,,,,,,,,,False,3,84,False,exp3.png,exp4.png,trial_right_image,-1,exp4.png,3,exp4.png,exp3.png,1,1,non-reversed,correct,0.6977797966654394,1,valid_win,557.8560146000236,50,,,,,,,,,,,,,s_047,3,2021_Jan_20_1021,Reversal,3.2.4,60.037487427004265,
4,exp1.png,exp2.png,,,,,,,,,,,,,,,,,0,0,0,0,0,4,4,4,,,,,,,,,False,4,85,False,exp1.png,exp2.png,trial_right_image,-1,exp2.png,3,exp1.png,exp2.png,1,3,reversed,incorrect,0.3921534947856913,0,valid_lose,562.4205425999826,50,,,,,,,,,,,,,s_047,3,2021_Jan_20_1021,Reversal,3.2.4,60.037487427004265,
5,exp3.png,exp4.png,,,,,,,,,,,,,,,,,0,0,0,0,0,5,5,5,,,,,,,,,False,5,86,False,exp3.png,exp4.png,trial_right_image,-1,exp4.png,3,exp4.png,exp3.png,1,1,non-reversed,correct,0.05300528242019498,0,invalid_lose,566.8361667999998,50,,,,,,,,,,,,,s_047,3,2021_Jan_20_1021,Reversal,3.2.4,60.037487427004265,
6,exp1.png,exp2.png,,,,,,,,,,,,,,,,,0,0,0,0,0,6,6,6,,,,,,,,,False,6,87,False,exp1.png,exp2.png,trial_right_image,-1,exp2.png,3,exp1.png,exp2.png,1,3,reversed,incorrect,0.9170788100536593,0,valid_lose,571.33404039999,50,,,,,,,,,,,,,s_047,3,2021_Jan_20_1021,Reversal,3.2.4,60.037487427004265,
7,exp3.png,exp4.png,,,,,,,,,,,,,,,,,0,0,0,0,0,7,7,7,,,,,,,,,False,7,88,False,exp3.png,exp4.png,trial_left_image,1,exp3.png,3,exp4.png,exp3.png,0,2,non-reversed,incorrect,0.8599592259183803,0,valid_lose,576.8665367999347,50,,,,,,,,,,,,,s_047,3,2021_Jan_20_1021,Reversal,3.2.4,60.037487427004265,
8,exp1.png,exp2.png,,,,,,,,,,,,,,,,,0,0,0,0,0,8,8,8,,,,,,,,,False,8,89,True,exp2.png,exp1.png,trial_left_image,1,exp2.png,3,exp1.png,exp2.png,1,3,reversed,incorrect,0.475736204006034,0,valid_lose,582.0309836999513,50,,,,,,,,,,,,,s_047,3,2021_Jan_20_1021,Reversal,3.2.4,60.037487427004265,
9,exp3.png,exp4.png,,,,,,,,,,,,,,,,,0,0,0,0,0,9,9,9,,,,,,,,,False,9,90,True,exp4.png,exp3.png,trial_right_image,-1,exp3.png,3,exp4.png,exp3.png,0,2,non-reversed,incorrect,0.7478968423252891,0,valid_lose,586.746000599931,50,,,,,,,,,,,,,s_047,3,2021_Jan_20_1021,Reversal,3.2.4,60.037487427004265,
10,exp1.png,exp2.png,,,,,,,,,,,,,,,,,0,0,0,0,0,10,10,10,,,,,,,,,False,10,91,True,exp2.png,exp1.png,trial_left_image,1,exp2.png,3,exp1.png,exp2.png,1,3,reversed,incorrect,0.8381865399668047,0,valid_lose,591.9449406999629,50,,,,,,,,,,,,,s_047,3,2021_Jan_20_1021,Reversal,3.2.4,60.037487427004265,
11,exp3.png,exp4.png,,,,,,,,,,,,,,,,,0,0,0,0,0,11,11,11,,,,,,,,,False,11,92,False,exp3.png,exp4.png,trial_right_image,-1,exp4.png,3,exp4.png,exp3.png,1,1,non-reversed,correct,0.1207805412004519,0,invalid_lose,598.6258791999426,50,,,,,,,,,,,,,s_047,3,2021_Jan_20_1021,Reversal,3.2.4,60.037487427004265,
12,exp1.png,exp2.png,,,,,,,,,,,,,,,,,0,0,0,0,0,12,12,12,,,,,,,,,False,12,93,True,exp2.png,exp1.png,trial_right_image,-1,exp1.png,3,exp1.png,exp2.png,0,4,reversed,correct,0.8779180436230918,1,valid_win,603.4565627999837,51,,,,,,,,,,,,,s_047,3,2021_Jan_20_1021,Reversal,3.2.4,60.037487427004265,
13,exp3.png,exp4.png,,,,,,,,,,,,,,,,,0,0,0,0,0,13,13,13,,,,,,,,,False,13,94,False,exp3.png,exp4.png,trial_left_image,1,exp3.png,3,exp4.png,exp3.png,0,2,non-reversed,incorrect,0.07768103572332985,1,invalid_win,608.5723560999613,52,,,,,,,,,,,,,s_047,3,2021_Jan_20_1021,Reversal,3.2.4,60.037487427004265,
14,exp1.png,exp2.png,,,,,,,,,,,,,,,,,0,0,0,0,0,14,14,14,,,,,,,,,False,14,95,True,exp2.png,exp1.png,trial_right_image,-1,exp1.png,3,exp1.png,exp2.png,0,4,reversed,correct,0.4802736742472107,1,valid_win,613.3532490000362,53,,,,,,,,,,,,,s_047,3,2021_Jan_20_1021,Reversal,3.2.4,60.037487427004265,
15,exp3.png,exp4.png,,,,,,,,,,,,,,,,,0,0,0,0,0,15,15,15,,,,,,,,,False,15,96,True,exp4.png,exp3.png,trial_right_image,-1,exp3.png,3,exp4.png,exp3.png,0,2,non-reversed,incorrect,0.6088233852639822,0,valid_lose,617.7522419999586,53,,,,,,,,,,,,,s_047,3,2021_Jan_20_1021,Reversal,3.2.4,60.037487427004265,
16,exp1.png,exp2.png,,,,,,,,,,,,,,,,,0,0,0,0,0,16,16,16,,,,,,,,,False,16,97,False,exp1.png,exp2.png,trial_right_image,-1,exp2.png,3,exp1.png,exp2.png,1,3,reversed,incorrect,0.5681555435677212,0,valid_lose,622.8334744999884,53,,,,,,,,,,,,,s_047,3,2021_Jan_20_1021,Reversal,3.2.4,60.037487427004265,
17,exp3.png,exp4.png,,,,,,,,,,,,,,,,,0,0,0,0,0,17,17,17,,,,,,,,,False,17,98,True,exp4.png,exp3.png,trial_right_image,-1,exp3.png,3,exp4.png,exp3.png,0,2,non-reversed,incorrect,0.5560909656456869,0,valid_lose,627.0161822999362,53,,,,,,,,,,,,,s_047,3,2021_Jan_20_1021,Reversal,3.2.4,60.037487427004265,
18,exp1.png,exp2.png,,,,,,,,,,,,,,,,,0,0,0,0,0,18,18,18,,,,,,,,,False,18,99,False,exp1.png,exp2.png,trial_left_image,1,exp1.png,3,exp1.png,exp2.png,0,4,reversed,correct,0.5351299734366253,1,valid_win,632.8469939000206,54,,,,,,,,,,,,,s_047,3,2021_Jan_20_1021,Reversal,3.2.4,60.037487427004265,
19,exp3.png,exp4.png,,,,,,,,,,,,,,,,,0,0,0,0,0,19,19,19,,,,,,,,,False,19,100,False,exp3.png,exp4.png,trial_left_image,1,exp3.png,3,exp4.png,exp3.png,0,2,non-reversed,incorrect,0.6684565797131266,0,valid_lose,637.6292059000116,54,,,,,,,,,,,,,s_047,3,2021_Jan_20_1021,Reversal,3.2.4,60.037487427004265,
20,exp1.png,exp2.png,,,,,,,,,,,,,,,,,0,0,0,0,0,20,20,20,,,,,,,,,True,,,,,,,,,,,,,,,,,,,,,,,,,,,,,,,,,s_047,3,2021_Jan_20_1021,Reversal,3.2.4,60.037487427004265,
,,,,,,,,,,,,,,,,,,,0,0,0,0,,,,,0,0,0,0,,,,,,,,,,,,,,,,,,,,,,,,,,50.0,50.0,50.0,50.0,,,,,,,,,s_047,3,2021_Jan_20_1021,Reversal,3.2.4,60.037487427004265,
0,exp1.png,exp2.png,,,,,,,,,,,,,,,,,1,0,1,0,0,0,0,0,,,,,,,,,False,20,101,True,exp2.png,exp1.png,trial_right_image,-1,exp1.png,3,exp1.png,exp2.png,0,4,reversed,correct,0.0614034709731357,0,invalid_lose,648.941538300016,54,,,,,,,,,,,,,s_047,3,2021_Jan_20_1021,Reversal,3.2.4,60.037487427004265,
1,exp3.png,exp4.png,,,,,,,,,,,,,,,,,1,0,1,0,0,1,1,1,,,,,,,,,False,21,102,False,exp3.png,exp4.png,trial_left_image,1,exp3.png,3,exp4.png,exp3.png,0,2,non-reversed,incorrect,0.49155689004553427,0,valid_lose,653.7071513999254,54,,,,,,,,,,,,,s_047,3,2021_Jan_20_1021,Reversal,3.2.4,60.037487427004265,
2,exp1.png,exp2.png,,,,,,,,,,,,,,,,,1,0,1,0,0,2,2,2,,,,,,,,,False,22,103,False,exp1.png,exp2.png,trial_left_image,1,exp1.png,3,exp1.png,exp2.png,0,4,reversed,correct,0.9154200163335839,1,valid_win,659.0554133999394,55,,,,,,,,,,,,,s_047,3,2021_Jan_20_1021,Reversal,3.2.4,60.037487427004265,
3,exp3.png,exp4.png,,,,,,,,,,,,,,,,,1,0,1,0,0,3,3,3,,,,,,,,,False,23,104,False,exp3.png,exp4.png,trial_right_image,-1,exp4.png,3,exp4.png,exp3.png,1,1,non-reversed,correct,0.4657097132152842,1,valid_win,663.3362718999851,56,,,,,,,,,,,,,s_047,3,2021_Jan_20_1021,Reversal,3.2.4,60.037487427004265,
4,exp1.png,exp2.png,,,,,,,,,,,,,,,,,1,0,1,0,0,4,4,4,,,,,,,,,False,24,105,False,exp1.png,exp2.png,trial_left_image,1,exp1.png,3,exp1.png,exp2.png,0,4,reversed,correct,0.053723656631955,0,invalid_lose,667.9022007000167,56,,,,,,,,,,,,,s_047,3,2021_Jan_20_1021,Reversal,3.2.4,60.037487427004265,
5,exp3.png,exp4.png,,,,,,,,,,,,,,,,,1,0,1,0,0,5,5,5,,,,,,,,,False,25,106,True,exp4.png,exp3.png,trial_left_image,1,exp4.png,3,exp4.png,exp3.png,1,1,non-reversed,correct,0.9075542511317077,1,valid_win,674.083658699994,57,,,,,,,,,,,,,s_047,3,2021_Jan_20_1021,Reversal,3.2.4,60.037487427004265,
6,exp1.png,exp2.png,,,,,,,,,,,,,,,,,1,0,1,0,0,6,6,6,,,,,,,,,False,26,107,True,exp2.png,exp1.png,trial_left_image,1,exp2.png,3,exp1.png,exp2.png,1,3,reversed,incorrect,0.38624300585891247,0,valid_lose,681.1473949999781,57,,,,,,,,,,,,,s_047,3,2021_Jan_20_1021,Reversal,3.2.4,60.037487427004265,
7,exp3.png,exp4.png,,,,,,,,,,,,,,,,,1,0,1,0,0,7,7,7,,,,,,,,,False,27,108,True,exp4.png,exp3.png,trial_left_image,1,exp4.png,3,exp4.png,exp3.png,1,1,non-reversed,correct,0.914746845206376,1,valid_win,685.5456516999984,58,,,,,,,,,,,,,s_047,3,2021_Jan_20_1021,Reversal,3.2.4,60.037487427004265,
8,exp1.png,exp2.png,,,,,,,,,,,,,,,,,1,0,1,0,0,8,8,8,,,,,,,,,False,28,109,True,exp2.png,exp1.png,trial_right_image,-1,exp1.png,3,exp1.png,exp2.png,0,4,reversed,correct,0.432943586155934,1,valid_win,690.1942782999249,59,,,,,,,,,,,,,s_047,3,2021_Jan_20_1021,Reversal,3.2.4,60.037487427004265,
9,exp3.png,exp4.png,,,,,,,,,,,,,,,,,1,0,1,0,0,9,9,9,,,,,,,,,False,29,110,True,exp4.png,exp3.png,trial_right_image,-1,exp3.png,3,exp4.png,exp3.png,0,2,non-reversed,incorrect,0.23506249239331267,1,invalid_win,696.6754501999822,60,,,,,,,,,,,,,s_047,3,2021_Jan_20_1021,Reversal,3.2.4,60.037487427004265,
10,exp1.png,exp2.png,,,,,,,,,,,,,,,,,1,0,1,0,0,10,10,10,,,,,,,,,False,30,111,False,exp1.png,exp2.png,trial_right_image,-1,exp2.png,3,exp1.png,exp2.png,1,3,reversed,incorrect,0.5228847953840633,0,valid_lose,701.1572287000017,60,,,,,,,,,,,,,s_047,3,2021_Jan_20_1021,Reversal,3.2.4,60.037487427004265,
11,exp3.png,exp4.png,,,,,,,,,,,,,,,,,1,0,1,0,0,11,11,11,,,,,,,,,False,31,112,True,exp4.png,exp3.png,trial_left_image,1,exp4.png,3,exp4.png,exp3.png,1,1,non-reversed,correct,0.1843012211481918,0,invalid_lose,705.2726327999262,60,,,,,,,,,,,,,s_047,3,2021_Jan_20_1021,Reversal,3.2.4,60.037487427004265,
12,exp1.png,exp2.png,,,,,,,,,,,,,,,,,1,0,1,0,0,12,12,12,,,,,,,,,False,32,113,False,exp1.png,exp2.png,trial_right_image,-1,exp2.png,3,exp1.png,exp2.png,1,3,reversed,incorrect,0.7307778754184774,0,valid_lose,709.4539275999414,60,,,,,,,,,,,,,s_047,3,2021_Jan_20_1021,Reversal,3.2.4,60.037487427004265,
13,exp3.png,exp4.png,,,,,,,,,,,,,,,,,1,0,1,0,0,13,13,13,,,,,,,,,False,33,114,False,exp3.png,exp4.png,trial_left_image,1,exp3.png,3,exp4.png,exp3.png,0,2,non-reversed,incorrect,0.7798761360147208,0,valid_lose,713.3359195999801,60,,,,,,,,,,,,,s_047,3,2021_Jan_20_1021,Reversal,3.2.4,60.037487427004265,
14,exp1.png,exp2.png,,,,,,,,,,,,,,,,,1,0,1,0,0,14,14,14,,,,,,,,,False,34,115,True,exp2.png,exp1.png,trial_left_image,1,exp2.png,3,exp1.png,exp2.png,1,3,reversed,incorrect,0.00322732178298224,1,invalid_win,717.9358527000295,61,,,,,,,,,,,,,s_047,3,2021_Jan_20_1021,Reversal,3.2.4,60.037487427004265,
15,exp3.png,exp4.png,,,,,,,,,,,,,,,,,1,0,1,0,0,15,15,15,,,,,,,,,False,35,116,True,exp4.png,exp3.png,trial_left_image,1,exp4.png,3,exp4.png,exp3.png,1,1,non-reversed,correct,0.05385778404391073,0,invalid_lose,722.4667070999276,61,,,,,,,,,,,,,s_047,3,2021_Jan_20_1021,Reversal,3.2.4,60.037487427004265,
16,exp1.png,exp2.png,,,,,,,,,,,,,,,,,1,0,1,0,0,16,16,16,,,,,,,,,False,36,117,False,exp1.png,exp2.png,trial_right_image,-1,exp2.png,3,exp1.png,exp2.png,1,3,reversed,incorrect,0.032451244018149805,1,invalid_win,727.1816850999603,62,,,,,,,,,,,,,s_047,3,2021_Jan_20_1021,Reversal,3.2.4,60.037487427004265,
17,exp3.png,exp4.png,,,,,,,,,,,,,,,,,1,0,1,0,0,17,17,17,,,,,,,,,False,37,118,False,exp3.png,exp4.png,trial_left_image,1,exp3.png,3,exp4.png,exp3.png,0,2,non-reversed,incorrect,0.22005331371480275,1,invalid_win,731.6132848999696,63,,,,,,,,,,,,,s_047,3,2021_Jan_20_1021,Reversal,3.2.4,60.037487427004265,
18,exp1.png,exp2.png,,,,,,,,,,,,,,,,,1,0,1,0,0,18,18,18,,,,,,,,,False,38,119,False,exp1.png,exp2.png,trial_right_image,-1,exp2.png,3,exp1.png,exp2.png,1,3,reversed,incorrect,0.16001700146169728,1,invalid_win,737.078955899924,64,,,,,,,,,,,,,s_047,3,2021_Jan_20_1021,Reversal,3.2.4,60.037487427004265,
19,exp3.png,exp4.png,,,,,,,,,,,,,,,,,1,0,1,0,0,19,19,19,,,,,,,,,False,39,120,True,exp4.png,exp3.png,trial_right_image,-1,exp3.png,3,exp4.png,exp3.png,0,2,non-reversed,incorrect,0.584613818291843,0,valid_lose,741.6598756000167,64,,,,,,,,,,,,,s_047,3,2021_Jan_20_1021,Reversal,3.2.4,60.037487427004265,
20,exp1.png,exp2.png,,,,,,,,,,,,,,,,,1,0,1,0,0,20,20,20,,,,,,,,,True,,,,,,,,,,,,,,,,,,,,,,,,,,,,,,,,,s_047,3,2021_Jan_20_1021,Reversal,3.2.4,60.037487427004265,
,,,,,,,,,,,,,,,,,,,1,0,1,0,,,,,0,0,0,0,,,,,,,,,,,,,,,,,,,,,,,,,,31,76,50.0,50,,,,,,,,,s_047,3,2021_Jan_20_1021,Reversal,3.2.4,60.037487427004265,
0,exp1.png,exp2.png,,,,,,,,,,,,,,,,,2,0,2,0,0,0,0,0,,,,,,,,,False,40,121,False,exp1.png,exp2.png,trial_right_image,-1,exp2.png,3,exp1.png,exp2.png,1,3,reversed,incorrect,0.2730534345621989,0,valid_lose,758.4380267999368,64,,,,,,,,,,,,,s_047,3,2021_Jan_20_1021,Reversal,3.2.4,60.037487427004265,
1,exp3.png,exp4.png,,,,,,,,,,,,,,,,,2,0,2,0,0,1,1,1,,,,,,,,,False,41,122,False,exp3.png,exp4.png,trial_left_image,1,exp3.png,3,exp4.png,exp3.png,0,2,non-reversed,incorrect,0.3434010297046891,0,valid_lose,764.669695599936,64,,,,,,,,,,,,,s_047,3,2021_Jan_20_1021,Reversal,3.2.4,60.037487427004265,
2,exp1.png,exp2.png,,,,,,,,,,,,,,,,,2,0,2,0,0,2,2,2,,,,,,,,,False,42,123,True,exp2.png,exp1.png,trial_left_image,1,exp2.png,3,exp1.png,exp2.png,1,3,reversed,incorrect,0.2515502017905752,0,valid_lose,771.1840735999867,64,,,,,,,,,,,,,s_047,3,2021_Jan_20_1021,Reversal,3.2.4,60.037487427004265,
3,exp3.png,exp4.png,,,,,,,,,,,,,,,,,2,0,2,0,0,3,3,3,,,,,,,,,False,43,124,False,exp3.png,exp4.png,trial_left_image,1,exp3.png,3,exp4.png,exp3.png,0,2,non-reversed,incorrect,0.002752495754300921,1,invalid_win,776.1985376999946,65,,,,,,,,,,,,,s_047,3,2021_Jan_20_1021,Reversal,3.2.4,60.037487427004265,
4,exp1.png,exp2.png,,,,,,,,,,,,,,,,,2,0,2,0,0,4,4,4,,,,,,,,,False,44,125,True,exp2.png,exp1.png,trial_left_image,1,exp2.png,3,exp1.png,exp2.png,1,3,reversed,incorrect,0.917437095341623,0,valid_lose,780.347463299986,65,,,,,,,,,,,,,s_047,3,2021_Jan_20_1021,Reversal,3.2.4,60.037487427004265,
5,exp3.png,exp4.png,,,,,,,,,,,,,,,,,2,0,2,0,0,5,5,5,,,,,,,,,False,45,126,True,exp4.png,exp3.png,trial_right_image,-1,exp3.png,3,exp4.png,exp3.png,0,2,non-reversed,incorrect,0.5274641575749904,0,valid_lose,784.8296368999872,65,,,,,,,,,,,,,s_047,3,2021_Jan_20_1021,Reversal,3.2.4,60.037487427004265,
6,exp1.png,exp2.png,,,,,,,,,,,,,,,,,2,0,2,0,0,6,6,6,,,,,,,,,False,46,127,False,exp1.png,exp2.png,trial_left_image,1,exp1.png,3,exp1.png,exp2.png,0,4,reversed,correct,0.5484055717535496,1,valid_win,791.5434920999687,66,,,,,,,,,,,,,s_047,3,2021_Jan_20_1021,Reversal,3.2.4,60.037487427004265,
7,exp3.png,exp4.png,,,,,,,,,,,,,,,,,2,0,2,0,0,7,7,7,,,,,,,,,False,47,128,True,exp4.png,exp3.png,trial_right_image,-1,exp3.png,3,exp4.png,exp3.png,0,2,non-reversed,incorrect,0.040399187549092885,1,invalid_win,796.0586926999968,67,,,,,,,,,,,,,s_047,3,2021_Jan_20_1021,Reversal,3.2.4,60.037487427004265,
8,exp1.png,exp2.png,,,,,,,,,,,,,,,,,2,0,2,0,0,8,8,8,,,,,,,,,False,48,129,True,exp2.png,exp1.png,trial_left_image,1,exp2.png,3,exp1.png,exp2.png,1,3,reversed,incorrect,0.23466346088782664,1,invalid_win,801.2736845000181,68,,,,,,,,,,,,,s_047,3,2021_Jan_20_1021,Reversal,3.2.4,60.037487427004265,
9,exp3.png,exp4.png,,,,,,,,,,,,,,,,,2,0,2,0,0,9,9,9,,,,,,,,,False,49,130,False,exp3.png,exp4.png,trial_left_image,1,exp3.png,3,exp4.png,exp3.png,0,2,non-reversed,incorrect,0.17508709669374423,1,invalid_win,808.7877905999776,69,,,,,,,,,,,,,s_047,3,2021_Jan_20_1021,Reversal,3.2.4,60.037487427004265,
10,exp1.png,exp2.png,,,,,,,,,,,,,,,,,2,0,2,0,0,10,10,10,,,,,,,,,False,50,131,False,exp1.png,exp2.png,trial_right_image,-1,exp2.png,3,exp1.png,exp2.png,1,3,reversed,incorrect,0.7496553146711459,0,valid_lose,813.7191222999245,69,,,,,,,,,,,,,s_047,3,2021_Jan_20_1021,Reversal,3.2.4,60.037487427004265,
11,exp3.png,exp4.png,,,,,,,,,,,,,,,,,2,0,2,0,0,11,11,11,,,,,,,,,False,51,132,True,exp4.png,exp3.png,trial_left_image,1,exp4.png,3,exp4.png,exp3.png,1,1,non-reversed,correct,0.52273461400476,1,valid_win,818.5672569000162,70,,,,,,,,,,,,,s_047,3,2021_Jan_20_1021,Reversal,3.2.4,60.037487427004265,
12,exp1.png,exp2.png,,,,,,,,,,,,,,,,,2,0,2,0,0,12,12,12,,,,,,,,,False,52,133,False,exp1.png,exp2.png,trial_left_image,1,exp1.png,3,exp1.png,exp2.png,0,4,reversed,correct,0.774409723014801,1,valid_win,824.0329200000269,71,,,,,,,,,,,,,s_047,3,2021_Jan_20_1021,Reversal,3.2.4,60.037487427004265,
13,exp3.png,exp4.png,,,,,,,,,,,,,,,,,2,0,2,0,0,13,13,13,,,,,,,,,False,53,134,True,exp4.png,exp3.png,trial_right_image,-1,exp3.png,3,exp4.png,exp3.png,0,2,non-reversed,incorrect,0.5542128082717694,0,valid_lose,828.5636292999843,71,,,,,,,,,,,,,s_047,3,2021_Jan_20_1021,Reversal,3.2.4,60.037487427004265,
14,exp1.png,exp2.png,,,,,,,,,,,,,,,,,2,0,2,0,0,14,14,14,,,,,,,,,False,54,135,False,exp1.png,exp2.png,trial_left_image,1,exp1.png,3,exp1.png,exp2.png,0,4,reversed,correct,0.5599829489289437,1,valid_win,832.4622634999687,72,,,,,,,,,,,,,s_047,3,2021_Jan_20_1021,Reversal,3.2.4,60.037487427004265,
15,exp3.png,exp4.png,,,,,,,,,,,,,,,,,2,0,2,0,0,15,15,15,,,,,,,,,False,55,136,True,exp4.png,exp3.png,trial_left_image,1,exp4.png,3,exp4.png,exp3.png,1,1,non-reversed,correct,0.30008252541674774,1,valid_win,839.5936083999695,73,,,,,,,,,,,,,s_047,3,2021_Jan_20_1021,Reversal,3.2.4,60.037487427004265,
16,exp1.png,exp2.png,,,,,,,,,,,,,,,,,2,0,2,0,0,16,16,16,,,,,,,,,False,56,137,True,exp2.png,exp1.png,trial_right_image,-1,exp1.png,3,exp1.png,exp2.png,0,4,reversed,correct,0.9756944086358892,1,valid_win,845.4246263999958,74,,,,,,,,,,,,,s_047,3,2021_Jan_20_1021,Reversal,3.2.4,60.037487427004265,
17,exp3.png,exp4.png,,,,,,,,,,,,,,,,,2,0,2,0,0,17,17,17,,,,,,,,,False,57,138,True,exp4.png,exp3.png,trial_left_image,1,exp4.png,3,exp4.png,exp3.png,1,1,non-reversed,correct,0.6542521580575629,1,valid_win,849.6905203999486,75,,,,,,,,,,,,,s_047,3,2021_Jan_20_1021,Reversal,3.2.4,60.037487427004265,
18,exp1.png,exp2.png,,,,,,,,,,,,,,,,,2,0,2,0,0,18,18,18,,,,,,,,,False,58,139,False,exp1.png,exp2.png,trial_left_image,1,exp1.png,3,exp1.png,exp2.png,0,4,reversed,correct,0.9931969417577121,1,valid_win,853.9889391999459,76,,,,,,,,,,,,,s_047,3,2021_Jan_20_1021,Reversal,3.2.4,60.037487427004265,
19,exp3.png,exp4.png,,,,,,,,,,,,,,,,,2,0,2,0,0,19,19,19,,,,,,,,,False,59,140,False,exp3.png,exp4.png,trial_right_image,-1,exp4.png,3,exp4.png,exp3.png,1,1,non-reversed,correct,0.429845844130337,1,valid_win,858.4873252999969,77,,,,,,,,,,,,,s_047,3,2021_Jan_20_1021,Reversal,3.2.4,60.037487427004265,
20,exp1.png,exp2.png,,,,,,,,,,,,,,,,,2,0,2,0,0,20,20,20,,,,,,,,,True,,,,,,,,,,,,,,,,,,,,,,,,,,,,,,,,,s_047,3,2021_Jan_20_1021,Reversal,3.2.4,60.037487427004265,
,,,,,,,,,,,,,,,,,,,2,0,2,0,,,,,0,0,0,0,,,,,,,,,,,,,,,,,,,,,,,,,,73,26,47,65,,,,,,,,,s_047,3,2021_Jan_20_1021,Reversal,3.2.4,60.037487427004265,
,,,,,,,,,,,,,,,,,,,,,,,,,,,,,,,,,,,,,,,,,,,,,,,,,,,,,,,77,,,,,,83,58,25,333.89690419996623,1,space,31.08489059994463,s_047,3,2021_Jan_20_1021,Reversal,3.2.4,60.037487427004265,
