trial_index,trial_image1_file,trial_image2_file,learning_outer_loop.thisRepN,learning_outer_loop.thisTrialN,learning_outer_loop.thisN,learning_outer_loop.thisIndex,learning_inner_loop.thisRepN,learning_inner_loop.thisTrialN,learning_inner_loop.thisN,learning_inner_loop.thisIndex,learning_estimation_outer_loop.thisRepN,learning_estimation_outer_loop.thisTrialN,learning_estimation_outer_loop.thisN,learning_estimation_outer_loop.thisIndex,learning_estimation_inner_loop.thisRepN,learning_estimation_inner_loop.thisTrialN,learning_estimation_inner_loop.thisN,learning_estimation_inner_loop.thisIndex,reversal_outer_loop.thisRepN,reversal_outer_loop.thisTrialN,reversal_outer_loop.thisN,reversal_outer_loop.thisIndex,reversal_inner_loop.thisRepN,reversal_inner_loop.thisTrialN,reversal_inner_loop.thisN,reversal_inner_loop.thisIndex,reversal_estimation_outer_loop.thisRepN,reversal_estimation_outer_loop.thisTrialN,reversal_estimation_outer_loop.thisN,reversal_estimation_outer_loop.thisIndex,reversal_estimation_inner_loop.thisRepN,reversal_estimation_inner_loop.thisTrialN,reversal_estimation_inner_loop.thisN,reversal_estimation_inner_loop.thisIndex,skipped,total_trial_counter,trial_num,left_right_flip,left_image_file,right_image_file,clicked_stimulus_side,side,clicked_stimulus,version,high_prob_image_file,low_prob_image_file,choice_a,choice_b,pair_type,correct,trial_feedback_random,reward,trial_type,overall_time_after_trial,score,estimation_exp1.png,estimation_exp2.png,estimation_exp3.png,estimation_exp4.png,total_learning_time,total_correct,learning_correct,reversal_correct,total_reversal_time,extra_block,participant,ver,date,expName,psychopyVersion,frameRate,
0,exp1.png,exp2.png,0,0,0,0,0,0,0,0,,,,,,,,,,,,,,,,,,,,,,,,,True,,,,,,,,,,,,,,,,,,,,,,,,,,,,,,,s_048,4,2021_Jan_26_1139,Reversal,3.2.4,59.95865247761551,
1,exp3.png,exp4.png,0,0,0,0,0,1,1,1,,,,,,,,,,,,,,,,,,,,,,,,,False,0,1,False,exp3.png,exp4.png,trial_right_image,-1,exp4.png,4,exp4.png,exp3.png,1,3,reversed,correct,0.23618874521108046,0,invalid_lose,6.961102899862453,0,,,,,,,,,,,s_048,4,2021_Jan_26_1139,Reversal,3.2.4,59.95865247761551,
2,exp1.png,exp2.png,0,0,0,0,0,2,2,2,,,,,,,,,,,,,,,,,,,,,,,,,False,1,2,False,exp1.png,exp2.png,trial_left_image,1,exp1.png,4,exp2.png,exp1.png,0,2,non-reversed,incorrect,0.522155238404112,0,valid_lose,12.55839079990983,0,,,,,,,,,,,s_048,4,2021_Jan_26_1139,Reversal,3.2.4,59.95865247761551,
3,exp3.png,exp4.png,0,0,0,0,0,3,3,3,,,,,,,,,,,,,,,,,,,,,,,,,False,2,3,False,exp3.png,exp4.png,trial_left_image,1,exp3.png,4,exp4.png,exp3.png,0,4,reversed,incorrect,0.11995126787821164,1,invalid_win,18.040542399976403,1,,,,,,,,,,,s_048,4,2021_Jan_26_1139,Reversal,3.2.4,59.95865247761551,
4,exp1.png,exp2.png,0,0,0,0,0,4,4,4,,,,,,,,,,,,,,,,,,,,,,,,,False,3,4,True,exp2.png,exp1.png,trial_right_image,-1,exp1.png,4,exp2.png,exp1.png,0,2,non-reversed,incorrect,0.10692365232457157,1,invalid_win,23.654729299945757,2,,,,,,,,,,,s_048,4,2021_Jan_26_1139,Reversal,3.2.4,59.95865247761551,
5,exp3.png,exp4.png,0,0,0,0,0,5,5,5,,,,,,,,,,,,,,,,,,,,,,,,,False,4,5,False,exp3.png,exp4.png,trial_right_image,-1,exp4.png,4,exp4.png,exp3.png,1,3,reversed,correct,0.08033372417629858,0,invalid_lose,29.11947979987599,2,,,,,,,,,,,s_048,4,2021_Jan_26_1139,Reversal,3.2.4,59.95865247761551,
6,exp1.png,exp2.png,0,0,0,0,0,6,6,6,,,,,,,,,,,,,,,,,,,,,,,,,False,5,6,False,exp1.png,exp2.png,trial_left_image,1,exp1.png,4,exp2.png,exp1.png,0,2,non-reversed,incorrect,0.09700642210532107,1,invalid_win,36.483799799811095,3,,,,,,,,,,,s_048,4,2021_Jan_26_1139,Reversal,3.2.4,59.95865247761551,
7,exp3.png,exp4.png,0,0,0,0,0,7,7,7,,,,,,,,,,,,,,,,,,,,,,,,,False,6,7,False,exp3.png,exp4.png,trial_left_image,1,exp3.png,4,exp4.png,exp3.png,0,4,reversed,incorrect,0.23103457108067138,1,invalid_win,43.54854159988463,4,,,,,,,,,,,s_048,4,2021_Jan_26_1139,Reversal,3.2.4,59.95865247761551,
8,exp1.png,exp2.png,0,0,0,0,0,8,8,8,,,,,,,,,,,,,,,,,,,,,,,,,False,7,8,True,exp2.png,exp1.png,trial_right_image,-1,exp1.png,4,exp2.png,exp1.png,0,2,non-reversed,incorrect,0.7744079779244835,0,valid_lose,48.59591449983418,4,,,,,,,,,,,s_048,4,2021_Jan_26_1139,Reversal,3.2.4,59.95865247761551,
9,exp3.png,exp4.png,0,0,0,0,0,9,9,9,,,,,,,,,,,,,,,,,,,,,,,,,False,8,9,True,exp4.png,exp3.png,trial_right_image,-1,exp3.png,4,exp4.png,exp3.png,0,4,reversed,incorrect,0.6605575716153576,0,valid_lose,55.560470199910924,4,,,,,,,,,,,s_048,4,2021_Jan_26_1139,Reversal,3.2.4,59.95865247761551,
10,exp1.png,exp2.png,0,0,0,0,0,10,10,10,,,,,,,,,,,,,,,,,,,,,,,,,False,9,10,True,exp2.png,exp1.png,trial_right_image,-1,exp1.png,4,exp2.png,exp1.png,0,2,non-reversed,incorrect,0.7372687098412111,0,valid_lose,67.00666009983979,4,,,,,,,,,,,s_048,4,2021_Jan_26_1139,Reversal,3.2.4,59.95865247761551,
11,exp3.png,exp4.png,0,0,0,0,0,11,11,11,,,,,,,,,,,,,,,,,,,,,,,,,False,10,11,True,exp4.png,exp3.png,trial_left_image,1,exp4.png,4,exp4.png,exp3.png,1,3,reversed,correct,0.26245187120397273,1,valid_win,72.63794839987531,5,,,,,,,,,,,s_048,4,2021_Jan_26_1139,Reversal,3.2.4,59.95865247761551,
12,exp1.png,exp2.png,0,0,0,0,0,12,12,12,,,,,,,,,,,,,,,,,,,,,,,,,False,11,12,True,exp2.png,exp1.png,trial_left_image,1,exp2.png,4,exp2.png,exp1.png,1,1,non-reversed,correct,0.22764164945658227,0,invalid_lose,78.93622569995932,5,,,,,,,,,,,s_048,4,2021_Jan_26_1139,Reversal,3.2.4,59.95865247761551,
13,exp3.png,exp4.png,0,0,0,0,0,13,13,13,,,,,,,,,,,,,,,,,,,,,,,,,False,12,13,False,exp3.png,exp4.png,trial_right_image,-1,exp4.png,4,exp4.png,exp3.png,1,3,reversed,correct,0.6816346043225452,1,valid_win,84.71732599986717,6,,,,,,,,,,,s_048,4,2021_Jan_26_1139,Reversal,3.2.4,59.95865247761551,
14,exp1.png,exp2.png,0,0,0,0,0,14,14,14,,,,,,,,,,,,,,,,,,,,,,,,,False,13,14,False,exp1.png,exp2.png,trial_left_image,1,exp1.png,4,exp2.png,exp1.png,0,2,non-reversed,incorrect,0.15429580646617225,1,invalid_win,93.51391149987467,7,,,,,,,,,,,s_048,4,2021_Jan_26_1139,Reversal,3.2.4,59.95865247761551,
15,exp3.png,exp4.png,0,0,0,0,0,15,15,15,,,,,,,,,,,,,,,,,,,,,,,,,False,14,15,True,exp4.png,exp3.png,trial_left_image,1,exp4.png,4,exp4.png,exp3.png,1,3,reversed,correct,0.051702007593645516,0,invalid_lose,98.57930529979058,7,,,,,,,,,,,s_048,4,2021_Jan_26_1139,Reversal,3.2.4,59.95865247761551,
16,exp1.png,exp2.png,0,0,0,0,0,16,16,16,,,,,,,,,,,,,,,,,,,,,,,,,False,15,16,True,exp2.png,exp1.png,trial_right_image,-1,exp1.png,4,exp2.png,exp1.png,0,2,non-reversed,incorrect,0.30241140402073574,0,valid_lose,103.22758579999208,7,,,,,,,,,,,s_048,4,2021_Jan_26_1139,Reversal,3.2.4,59.95865247761551,
17,exp3.png,exp4.png,0,0,0,0,0,17,17,17,,,,,,,,,,,,,,,,,,,,,,,,,False,16,17,False,exp3.png,exp4.png,trial_right_image,-1,exp4.png,4,exp4.png,exp3.png,1,3,reversed,correct,0.5902122986829488,1,valid_win,112.45728360000066,8,,,,,,,,,,,s_048,4,2021_Jan_26_1139,Reversal,3.2.4,59.95865247761551,
18,exp1.png,exp2.png,0,0,0,0,0,18,18,18,,,,,,,,,,,,,,,,,,,,,,,,,False,17,18,True,exp2.png,exp1.png,trial_right_image,-1,exp1.png,4,exp2.png,exp1.png,0,2,non-reversed,incorrect,0.34032779117486267,0,valid_lose,119.70543129998259,8,,,,,,,,,,,s_048,4,2021_Jan_26_1139,Reversal,3.2.4,59.95865247761551,
19,exp3.png,exp4.png,0,0,0,0,0,19,19,19,,,,,,,,,,,,,,,,,,,,,,,,,False,18,19,False,exp3.png,exp4.png,trial_left_image,1,exp3.png,4,exp4.png,exp3.png,0,4,reversed,incorrect,0.3612270983028758,0,valid_lose,124.98704169993289,8,,,,,,,,,,,s_048,4,2021_Jan_26_1139,Reversal,3.2.4,59.95865247761551,
20,exp1.png,exp2.png,0,0,0,0,0,20,20,20,,,,,,,,,,,,,,,,,,,,,,,,,False,19,20,True,exp2.png,exp1.png,trial_left_image,1,exp2.png,4,exp2.png,exp1.png,1,1,non-reversed,correct,0.3027886040533738,1,valid_win,130.63494909997098,9,,,,,,,,,,,s_048,4,2021_Jan_26_1139,Reversal,3.2.4,59.95865247761551,
,,,0,0,0,0,,,,,0,0,0,0,,,,,,,,,,,,,,,,,,,,,,,,,,,,,,,,,,,,,,,,,,54,50.0,50.0,50.0,,,,,,,s_048,4,2021_Jan_26_1139,Reversal,3.2.4,59.95865247761551,
0,exp1.png,exp2.png,1,0,1,0,0,0,0,0,,,,,,,,,,,,,,,,,,,,,,,,,True,,,,,,,,,,,,,,,,,,,,,,,,,,,,,,,s_048,4,2021_Jan_26_1139,Reversal,3.2.4,59.95865247761551,
1,exp3.png,exp4.png,1,0,1,0,0,1,1,1,,,,,,,,,,,,,,,,,,,,,,,,,False,20,21,True,exp4.png,exp3.png,trial_right_image,-1,exp3.png,4,exp4.png,exp3.png,0,4,reversed,incorrect,0.09360803896777392,1,invalid_win,161.6914633999113,10,,,,,,,,,,,s_048,4,2021_Jan_26_1139,Reversal,3.2.4,59.95865247761551,
2,exp1.png,exp2.png,1,0,1,0,0,2,2,2,,,,,,,,,,,,,,,,,,,,,,,,,False,21,22,False,exp1.png,exp2.png,trial_left_image,1,exp1.png,4,exp2.png,exp1.png,0,2,non-reversed,incorrect,0.19453752655480216,1,invalid_win,167.27322519989684,11,,,,,,,,,,,s_048,4,2021_Jan_26_1139,Reversal,3.2.4,59.95865247761551,
3,exp3.png,exp4.png,1,0,1,0,0,3,3,3,,,,,,,,,,,,,,,,,,,,,,,,,False,22,23,False,exp3.png,exp4.png,trial_left_image,1,exp3.png,4,exp4.png,exp3.png,0,4,reversed,incorrect,0.1573297866039759,1,invalid_win,172.52045959979296,12,,,,,,,,,,,s_048,4,2021_Jan_26_1139,Reversal,3.2.4,59.95865247761551,
4,exp1.png,exp2.png,1,0,1,0,0,4,4,4,,,,,,,,,,,,,,,,,,,,,,,,,False,23,24,False,exp1.png,exp2.png,trial_left_image,1,exp1.png,4,exp2.png,exp1.png,0,2,non-reversed,incorrect,0.08295044097188664,1,invalid_win,177.51944389985874,13,,,,,,,,,,,s_048,4,2021_Jan_26_1139,Reversal,3.2.4,59.95865247761551,
5,exp3.png,exp4.png,1,0,1,0,0,5,5,5,,,,,,,,,,,,,,,,,,,,,,,,,False,24,25,False,exp3.png,exp4.png,trial_left_image,1,exp3.png,4,exp4.png,exp3.png,0,4,reversed,incorrect,0.1771217318641245,1,invalid_win,183.43325999984518,14,,,,,,,,,,,s_048,4,2021_Jan_26_1139,Reversal,3.2.4,59.95865247761551,
6,exp1.png,exp2.png,1,0,1,0,0,6,6,6,,,,,,,,,,,,,,,,,,,,,,,,,False,25,26,True,exp2.png,exp1.png,trial_right_image,-1,exp1.png,4,exp2.png,exp1.png,0,2,non-reversed,incorrect,0.04643806228135139,1,invalid_win,188.31447019986808,15,,,,,,,,,,,s_048,4,2021_Jan_26_1139,Reversal,3.2.4,59.95865247761551,
7,exp3.png,exp4.png,1,0,1,0,0,7,7,7,,,,,,,,,,,,,,,,,,,,,,,,,False,26,27,False,exp3.png,exp4.png,trial_left_image,1,exp3.png,4,exp4.png,exp3.png,0,4,reversed,incorrect,0.3082769734034073,0,valid_lose,194.67986539984122,15,,,,,,,,,,,s_048,4,2021_Jan_26_1139,Reversal,3.2.4,59.95865247761551,
8,exp1.png,exp2.png,1,0,1,0,0,8,8,8,,,,,,,,,,,,,,,,,,,,,,,,,False,27,28,True,exp2.png,exp1.png,trial_right_image,-1,exp1.png,4,exp2.png,exp1.png,0,2,non-reversed,incorrect,0.7565595187026668,0,valid_lose,202.35991909983568,15,,,,,,,,,,,s_048,4,2021_Jan_26_1139,Reversal,3.2.4,59.95865247761551,
9,exp3.png,exp4.png,1,0,1,0,0,9,9,9,,,,,,,,,,,,,,,,,,,,,,,,,False,28,29,False,exp3.png,exp4.png,trial_right_image,-1,exp4.png,4,exp4.png,exp3.png,1,3,reversed,correct,0.7707263771834164,1,valid_win,209.39192869979888,16,,,,,,,,,,,s_048,4,2021_Jan_26_1139,Reversal,3.2.4,59.95865247761551,
10,exp1.png,exp2.png,1,0,1,0,0,10,10,10,,,,,,,,,,,,,,,,,,,,,,,,,False,29,30,False,exp1.png,exp2.png,trial_right_image,-1,exp2.png,4,exp2.png,exp1.png,1,1,non-reversed,correct,0.6041215421594727,1,valid_win,215.97149749984965,17,,,,,,,,,,,s_048,4,2021_Jan_26_1139,Reversal,3.2.4,59.95865247761551,
11,exp3.png,exp4.png,1,0,1,0,0,11,11,11,,,,,,,,,,,,,,,,,,,,,,,,,False,30,31,True,exp4.png,exp3.png,trial_left_image,1,exp4.png,4,exp4.png,exp3.png,1,3,reversed,correct,0.8451379036576999,1,valid_win,224.07047369983047,18,,,,,,,,,,,s_048,4,2021_Jan_26_1139,Reversal,3.2.4,59.95865247761551,
12,exp1.png,exp2.png,1,0,1,0,0,12,12,12,,,,,,,,,,,,,,,,,,,,,,,,,False,31,32,False,exp1.png,exp2.png,trial_right_image,-1,exp2.png,4,exp2.png,exp1.png,1,1,non-reversed,correct,0.6778805340880245,1,valid_win,230.75023919995874,19,,,,,,,,,,,s_048,4,2021_Jan_26_1139,Reversal,3.2.4,59.95865247761551,
13,exp3.png,exp4.png,1,0,1,0,0,13,13,13,,,,,,,,,,,,,,,,,,,,,,,,,False,32,33,True,exp4.png,exp3.png,trial_right_image,-1,exp3.png,4,exp4.png,exp3.png,0,4,reversed,incorrect,0.5846591427197856,0,valid_lose,239.06480609998107,19,,,,,,,,,,,s_048,4,2021_Jan_26_1139,Reversal,3.2.4,59.95865247761551,
14,exp1.png,exp2.png,1,0,1,0,0,14,14,14,,,,,,,,,,,,,,,,,,,,,,,,,False,33,34,True,exp2.png,exp1.png,trial_left_image,1,exp2.png,4,exp2.png,exp1.png,1,1,non-reversed,correct,0.6760265107683496,1,valid_win,245.59636069997214,20,,,,,,,,,,,s_048,4,2021_Jan_26_1139,Reversal,3.2.4,59.95865247761551,
15,exp3.png,exp4.png,1,0,1,0,0,15,15,15,,,,,,,,,,,,,,,,,,,,,,,,,False,34,35,True,exp4.png,exp3.png,trial_right_image,-1,exp3.png,4,exp4.png,exp3.png,0,4,reversed,incorrect,0.6689228037892514,0,valid_lose,261.65726249990985,20,,,,,,,,,,,s_048,4,2021_Jan_26_1139,Reversal,3.2.4,59.95865247761551,
16,exp1.png,exp2.png,1,0,1,0,0,16,16,16,,,,,,,,,,,,,,,,,,,,,,,,,False,35,36,False,exp1.png,exp2.png,trial_right_image,-1,exp2.png,4,exp2.png,exp1.png,1,1,non-reversed,correct,0.6607169942522855,1,valid_win,266.7217237998266,21,,,,,,,,,,,s_048,4,2021_Jan_26_1139,Reversal,3.2.4,59.95865247761551,
17,exp3.png,exp4.png,1,0,1,0,0,17,17,17,,,,,,,,,,,,,,,,,,,,,,,,,False,36,37,True,exp4.png,exp3.png,trial_left_image,1,exp4.png,4,exp4.png,exp3.png,1,3,reversed,correct,0.2757803412024272,1,valid_win,275.7860071999021,22,,,,,,,,,,,s_048,4,2021_Jan_26_1139,Reversal,3.2.4,59.95865247761551,
18,exp1.png,exp2.png,1,0,1,0,0,18,18,18,,,,,,,,,,,,,,,,,,,,,,,,,False,37,38,False,exp1.png,exp2.png,trial_right_image,-1,exp2.png,4,exp2.png,exp1.png,1,1,non-reversed,correct,0.046979020494224644,0,invalid_lose,281.0007414999418,22,,,,,,,,,,,s_048,4,2021_Jan_26_1139,Reversal,3.2.4,59.95865247761551,
19,exp3.png,exp4.png,1,0,1,0,0,19,19,19,,,,,,,,,,,,,,,,,,,,,,,,,False,38,39,True,exp4.png,exp3.png,trial_left_image,1,exp4.png,4,exp4.png,exp3.png,1,3,reversed,correct,0.6415070988265149,1,valid_win,286.70012699998915,23,,,,,,,,,,,s_048,4,2021_Jan_26_1139,Reversal,3.2.4,59.95865247761551,
20,exp1.png,exp2.png,1,0,1,0,0,20,20,20,,,,,,,,,,,,,,,,,,,,,,,,,False,39,40,True,exp2.png,exp1.png,trial_left_image,1,exp2.png,4,exp2.png,exp1.png,1,1,non-reversed,correct,0.4480301191277709,1,valid_win,291.79623939981684,24,,,,,,,,,,,s_048,4,2021_Jan_26_1139,Reversal,3.2.4,59.95865247761551,
,,,1,0,1,0,,,,,0,0,0,0,,,,,,,,,,,,,,,,,,,,,,,,,,,,,,,,,,,,,,,,,,12,80,33,76,,,,,,,s_048,4,2021_Jan_26_1139,Reversal,3.2.4,59.95865247761551,
0,exp1.png,exp2.png,2,0,2,0,0,0,0,0,,,,,,,,,,,,,,,,,,,,,,,,,True,,,,,,,,,,,,,,,,,,,,,,,,,,,,,,,s_048,4,2021_Jan_26_1139,Reversal,3.2.4,59.95865247761551,
1,exp3.png,exp4.png,2,0,2,0,0,1,1,1,,,,,,,,,,,,,,,,,,,,,,,,,False,40,41,True,exp4.png,exp3.png,trial_right_image,-1,exp3.png,4,exp4.png,exp3.png,0,4,reversed,incorrect,0.36053184808155037,0,valid_lose,321.70359539985657,24,,,,,,,,,,,s_048,4,2021_Jan_26_1139,Reversal,3.2.4,59.95865247761551,
2,exp1.png,exp2.png,2,0,2,0,0,2,2,2,,,,,,,,,,,,,,,,,,,,,,,,,False,41,42,False,exp1.png,exp2.png,trial_right_image,-1,exp2.png,4,exp2.png,exp1.png,1,1,non-reversed,correct,0.04634700639148148,0,invalid_lose,329.3843582998961,24,,,,,,,,,,,s_048,4,2021_Jan_26_1139,Reversal,3.2.4,59.95865247761551,
3,exp3.png,exp4.png,2,0,2,0,0,3,3,3,,,,,,,,,,,,,,,,,,,,,,,,,False,42,43,False,exp3.png,exp4.png,trial_right_image,-1,exp4.png,4,exp4.png,exp3.png,1,3,reversed,correct,0.4819618548254868,1,valid_win,336.1326506999321,25,,,,,,,,,,,s_048,4,2021_Jan_26_1139,Reversal,3.2.4,59.95865247761551,
4,exp1.png,exp2.png,2,0,2,0,0,4,4,4,,,,,,,,,,,,,,,,,,,,,,,,,False,43,44,False,exp1.png,exp2.png,trial_right_image,-1,exp2.png,4,exp2.png,exp1.png,1,1,non-reversed,correct,0.17265932689653363,0,invalid_lose,343.563093499979,25,,,,,,,,,,,s_048,4,2021_Jan_26_1139,Reversal,3.2.4,59.95865247761551,
5,exp3.png,exp4.png,2,0,2,0,0,5,5,5,,,,,,,,,,,,,,,,,,,,,,,,,False,44,45,False,exp3.png,exp4.png,trial_right_image,-1,exp4.png,4,exp4.png,exp3.png,1,3,reversed,correct,0.6003526233010221,1,valid_win,349.5278742997907,26,,,,,,,,,,,s_048,4,2021_Jan_26_1139,Reversal,3.2.4,59.95865247761551,
6,exp1.png,exp2.png,2,0,2,0,0,6,6,6,,,,,,,,,,,,,,,,,,,,,,,,,False,45,46,True,exp2.png,exp1.png,trial_right_image,-1,exp1.png,4,exp2.png,exp1.png,0,2,non-reversed,incorrect,0.5091002967790395,0,valid_lose,354.9422793998383,26,,,,,,,,,,,s_048,4,2021_Jan_26_1139,Reversal,3.2.4,59.95865247761551,
7,exp3.png,exp4.png,2,0,2,0,0,7,7,7,,,,,,,,,,,,,,,,,,,,,,,,,False,46,47,True,exp4.png,exp3.png,trial_left_image,1,exp4.png,4,exp4.png,exp3.png,1,3,reversed,correct,0.9261287068228969,1,valid_win,360.4734191999305,27,,,,,,,,,,,s_048,4,2021_Jan_26_1139,Reversal,3.2.4,59.95865247761551,
8,exp1.png,exp2.png,2,0,2,0,0,8,8,8,,,,,,,,,,,,,,,,,,,,,,,,,False,47,48,False,exp1.png,exp2.png,trial_right_image,-1,exp2.png,4,exp2.png,exp1.png,1,1,non-reversed,correct,0.25051610026324633,1,valid_win,367.2888732999563,28,,,,,,,,,,,s_048,4,2021_Jan_26_1139,Reversal,3.2.4,59.95865247761551,
9,exp3.png,exp4.png,2,0,2,0,0,9,9,9,,,,,,,,,,,,,,,,,,,,,,,,,False,48,49,False,exp3.png,exp4.png,trial_right_image,-1,exp4.png,4,exp4.png,exp3.png,1,3,reversed,correct,0.4385321572899904,1,valid_win,372.22049489989877,29,,,,,,,,,,,s_048,4,2021_Jan_26_1139,Reversal,3.2.4,59.95865247761551,
10,exp1.png,exp2.png,2,0,2,0,0,10,10,10,,,,,,,,,,,,,,,,,,,,,,,,,False,49,50,False,exp1.png,exp2.png,trial_right_image,-1,exp2.png,4,exp2.png,exp1.png,1,1,non-reversed,correct,0.3888365032773905,1,valid_win,378.25098939985037,30,,,,,,,,,,,s_048,4,2021_Jan_26_1139,Reversal,3.2.4,59.95865247761551,
11,exp3.png,exp4.png,2,0,2,0,0,11,11,11,,,,,,,,,,,,,,,,,,,,,,,,,False,50,51,True,exp4.png,exp3.png,trial_left_image,1,exp4.png,4,exp4.png,exp3.png,1,3,reversed,correct,0.8097823963756408,1,valid_win,383.49904379993677,31,,,,,,,,,,,s_048,4,2021_Jan_26_1139,Reversal,3.2.4,59.95865247761551,
12,exp1.png,exp2.png,2,0,2,0,0,12,12,12,,,,,,,,,,,,,,,,,,,,,,,,,False,51,52,True,exp2.png,exp1.png,trial_left_image,1,exp2.png,4,exp2.png,exp1.png,1,1,non-reversed,correct,0.283021947602356,1,valid_win,388.83082409994677,32,,,,,,,,,,,s_048,4,2021_Jan_26_1139,Reversal,3.2.4,59.95865247761551,
13,exp3.png,exp4.png,2,0,2,0,0,13,13,13,,,,,,,,,,,,,,,,,,,,,,,,,False,52,53,True,exp4.png,exp3.png,trial_left_image,1,exp4.png,4,exp4.png,exp3.png,1,3,reversed,correct,0.40616991110071954,1,valid_win,394.2962505999021,33,,,,,,,,,,,s_048,4,2021_Jan_26_1139,Reversal,3.2.4,59.95865247761551,
14,exp1.png,exp2.png,2,0,2,0,0,14,14,14,,,,,,,,,,,,,,,,,,,,,,,,,False,53,54,False,exp1.png,exp2.png,trial_right_image,-1,exp2.png,4,exp2.png,exp1.png,1,1,non-reversed,correct,0.7376171096179763,1,valid_win,399.29405909986235,34,,,,,,,,,,,s_048,4,2021_Jan_26_1139,Reversal,3.2.4,59.95865247761551,
15,exp3.png,exp4.png,2,0,2,0,0,15,15,15,,,,,,,,,,,,,,,,,,,,,,,,,False,54,55,True,exp4.png,exp3.png,trial_left_image,1,exp4.png,4,exp4.png,exp3.png,1,3,reversed,correct,0.36769638796051773,1,valid_win,404.02590939984657,35,,,,,,,,,,,s_048,4,2021_Jan_26_1139,Reversal,3.2.4,59.95865247761551,
16,exp1.png,exp2.png,2,0,2,0,0,16,16,16,,,,,,,,,,,,,,,,,,,,,,,,,False,55,56,False,exp1.png,exp2.png,trial_left_image,1,exp1.png,4,exp2.png,exp1.png,0,2,non-reversed,incorrect,0.6903622071515708,0,valid_lose,408.9963445998728,35,,,,,,,,,,,s_048,4,2021_Jan_26_1139,Reversal,3.2.4,59.95865247761551,
17,exp3.png,exp4.png,2,0,2,0,0,17,17,17,,,,,,,,,,,,,,,,,,,,,,,,,False,56,57,True,exp4.png,exp3.png,trial_left_image,1,exp4.png,4,exp4.png,exp3.png,1,3,reversed,correct,0.5239213338690317,1,valid_win,413.805557299871,36,,,,,,,,,,,s_048,4,2021_Jan_26_1139,Reversal,3.2.4,59.95865247761551,
18,exp1.png,exp2.png,2,0,2,0,0,18,18,18,,,,,,,,,,,,,,,,,,,,,,,,,False,57,58,True,exp2.png,exp1.png,trial_left_image,1,exp2.png,4,exp2.png,exp1.png,1,1,non-reversed,correct,0.8059000990537265,1,valid_win,418.65417219977826,37,,,,,,,,,,,s_048,4,2021_Jan_26_1139,Reversal,3.2.4,59.95865247761551,
19,exp3.png,exp4.png,2,0,2,0,0,19,19,19,,,,,,,,,,,,,,,,,,,,,,,,,False,58,59,False,exp3.png,exp4.png,trial_right_image,-1,exp4.png,4,exp4.png,exp3.png,1,3,reversed,correct,0.5347481530387469,1,valid_win,423.33516759984195,38,,,,,,,,,,,s_048,4,2021_Jan_26_1139,Reversal,3.2.4,59.95865247761551,
20,exp1.png,exp2.png,2,0,2,0,0,20,20,20,,,,,,,,,,,,,,,,,,,,,,,,,False,59,60,True,exp2.png,exp1.png,trial_left_image,1,exp2.png,4,exp2.png,exp1.png,1,1,non-reversed,correct,0.20916453497015486,0,invalid_lose,427.9517500998918,38,,,,,,,,,,,s_048,4,2021_Jan_26_1139,Reversal,3.2.4,59.95865247761551,
,,,2,0,2,0,,,,,0,0,0,0,,,,,,,,,,,,,,,,,,,,,,,,,,,,,,,,,,,,,,,,,,8,92,9,91,,,,,,,s_048,4,2021_Jan_26_1139,Reversal,3.2.4,59.95865247761551,
0,exp1.png,exp2.png,,,,,,,,,,,,,,,,,0,0,0,0,0,0,0,0,,,,,,,,,True,,,,,,,,,,,,,,,,,,,,,,,,,,,,,,,s_048,4,2021_Jan_26_1139,Reversal,3.2.4,59.95865247761551,
1,exp3.png,exp4.png,,,,,,,,,,,,,,,,,0,0,0,0,0,1,1,1,,,,,,,,,False,0,61,True,exp4.png,exp3.png,trial_left_image,1,exp4.png,4,exp3.png,exp4.png,1,3,reversed,incorrect,0.2891361671892785,0,valid_lose,451.16344169992954,38,,,,,447.1269559999928,,,,,,s_048,4,2021_Jan_26_1139,Reversal,3.2.4,59.95865247761551,
2,exp1.png,exp2.png,,,,,,,,,,,,,,,,,0,0,0,0,0,2,2,2,,,,,,,,,False,1,62,True,exp2.png,exp1.png,trial_left_image,1,exp2.png,4,exp2.png,exp1.png,1,1,non-reversed,correct,0.14401020030941536,0,invalid_lose,456.32418389990926,38,,,,,,,,,,,s_048,4,2021_Jan_26_1139,Reversal,3.2.4,59.95865247761551,
3,exp3.png,exp4.png,,,,,,,,,,,,,,,,,0,0,0,0,0,3,3,3,,,,,,,,,False,2,63,False,exp3.png,exp4.png,trial_left_image,1,exp3.png,4,exp3.png,exp4.png,0,4,reversed,correct,0.8969993671336716,1,valid_win,460.9397723998409,39,,,,,,,,,,,s_048,4,2021_Jan_26_1139,Reversal,3.2.4,59.95865247761551,
4,exp1.png,exp2.png,,,,,,,,,,,,,,,,,0,0,0,0,0,4,4,4,,,,,,,,,False,3,64,False,exp1.png,exp2.png,trial_left_image,1,exp1.png,4,exp2.png,exp1.png,0,2,non-reversed,incorrect,0.10024707954622569,1,invalid_win,467.7364866998978,40,,,,,,,,,,,s_048,4,2021_Jan_26_1139,Reversal,3.2.4,59.95865247761551,
5,exp3.png,exp4.png,,,,,,,,,,,,,,,,,0,0,0,0,0,5,5,5,,,,,,,,,False,4,65,False,exp3.png,exp4.png,trial_left_image,1,exp3.png,4,exp3.png,exp4.png,0,4,reversed,correct,0.035881523816807315,0,invalid_lose,472.5011520998087,40,,,,,,,,,,,s_048,4,2021_Jan_26_1139,Reversal,3.2.4,59.95865247761551,
6,exp1.png,exp2.png,,,,,,,,,,,,,,,,,0,0,0,0,0,6,6,6,,,,,,,,,False,5,66,False,exp1.png,exp2.png,trial_left_image,1,exp1.png,4,exp2.png,exp1.png,0,2,non-reversed,incorrect,0.03536689715947139,1,invalid_win,478.4342441998888,41,,,,,,,,,,,s_048,4,2021_Jan_26_1139,Reversal,3.2.4,59.95865247761551,
7,exp3.png,exp4.png,,,,,,,,,,,,,,,,,0,0,0,0,0,7,7,7,,,,,,,,,False,6,67,False,exp3.png,exp4.png,trial_right_image,-1,exp4.png,4,exp3.png,exp4.png,1,3,reversed,incorrect,0.49224892498404893,0,valid_lose,483.5481540998444,41,,,,,,,,,,,s_048,4,2021_Jan_26_1139,Reversal,3.2.4,59.95865247761551,
8,exp1.png,exp2.png,,,,,,,,,,,,,,,,,0,0,0,0,0,8,8,8,,,,,,,,,False,7,68,False,exp1.png,exp2.png,trial_left_image,1,exp1.png,4,exp2.png,exp1.png,0,2,non-reversed,incorrect,0.8170637575670998,0,valid_lose,488.2971018999815,41,,,,,,,,,,,s_048,4,2021_Jan_26_1139,Reversal,3.2.4,59.95865247761551,
9,exp3.png,exp4.png,,,,,,,,,,,,,,,,,0,0,0,0,0,9,9,9,,,,,,,,,False,8,69,False,exp3.png,exp4.png,trial_left_image,1,exp3.png,4,exp3.png,exp4.png,0,4,reversed,correct,0.12146411193897255,0,invalid_lose,496.7771949998569,41,,,,,,,,,,,s_048,4,2021_Jan_26_1139,Reversal,3.2.4,59.95865247761551,
10,exp1.png,exp2.png,,,,,,,,,,,,,,,,,0,0,0,0,0,10,10,10,,,,,,,,,False,9,70,False,exp1.png,exp2.png,trial_right_image,-1,exp2.png,4,exp2.png,exp1.png,1,1,non-reversed,correct,0.8714268333165343,1,valid_win,501.8423655999359,42,,,,,,,,,,,s_048,4,2021_Jan_26_1139,Reversal,3.2.4,59.95865247761551,
11,exp3.png,exp4.png,,,,,,,,,,,,,,,,,0,0,0,0,0,11,11,11,,,,,,,,,False,10,71,True,exp4.png,exp3.png,trial_right_image,-1,exp3.png,4,exp3.png,exp4.png,0,4,reversed,correct,0.15719567896078313,0,invalid_lose,506.708185599884,42,,,,,,,,,,,s_048,4,2021_Jan_26_1139,Reversal,3.2.4,59.95865247761551,
12,exp1.png,exp2.png,,,,,,,,,,,,,,,,,0,0,0,0,0,12,12,12,,,,,,,,,False,11,72,True,exp2.png,exp1.png,trial_right_image,-1,exp1.png,4,exp2.png,exp1.png,0,2,non-reversed,incorrect,0.5116662834377951,0,valid_lose,511.75575259979814,42,,,,,,,,,,,s_048,4,2021_Jan_26_1139,Reversal,3.2.4,59.95865247761551,
13,exp3.png,exp4.png,,,,,,,,,,,,,,,,,0,0,0,0,0,13,13,13,,,,,,,,,False,12,73,True,exp4.png,exp3.png,trial_right_image,-1,exp3.png,4,exp3.png,exp4.png,0,4,reversed,correct,0.4890319338906104,1,valid_win,516.5211590998806,43,,,,,,,,,,,s_048,4,2021_Jan_26_1139,Reversal,3.2.4,59.95865247761551,
14,exp1.png,exp2.png,,,,,,,,,,,,,,,,,0,0,0,0,0,14,14,14,,,,,,,,,False,13,74,False,exp1.png,exp2.png,trial_right_image,-1,exp2.png,4,exp2.png,exp1.png,1,1,non-reversed,correct,0.9045637487494338,1,valid_win,522.5356500998605,44,,,,,,,,,,,s_048,4,2021_Jan_26_1139,Reversal,3.2.4,59.95865247761551,
15,exp3.png,exp4.png,,,,,,,,,,,,,,,,,0,0,0,0,0,15,15,15,,,,,,,,,False,14,75,True,exp4.png,exp3.png,trial_left_image,1,exp4.png,4,exp3.png,exp4.png,1,3,reversed,incorrect,0.9327807857565644,0,valid_lose,527.4513326999731,44,,,,,,,,,,,s_048,4,2021_Jan_26_1139,Reversal,3.2.4,59.95865247761551,
16,exp1.png,exp2.png,,,,,,,,,,,,,,,,,0,0,0,0,0,16,16,16,,,,,,,,,False,15,76,True,exp2.png,exp1.png,trial_left_image,1,exp2.png,4,exp2.png,exp1.png,1,1,non-reversed,correct,0.9505729197497865,1,valid_win,532.2313101999462,45,,,,,,,,,,,s_048,4,2021_Jan_26_1139,Reversal,3.2.4,59.95865247761551,
17,exp3.png,exp4.png,,,,,,,,,,,,,,,,,0,0,0,0,0,17,17,17,,,,,,,,,False,16,77,True,exp4.png,exp3.png,trial_left_image,1,exp4.png,4,exp3.png,exp4.png,1,3,reversed,incorrect,0.7549310696888637,0,valid_lose,537.9975183999632,45,,,,,,,,,,,s_048,4,2021_Jan_26_1139,Reversal,3.2.4,59.95865247761551,
18,exp1.png,exp2.png,,,,,,,,,,,,,,,,,0,0,0,0,0,18,18,18,,,,,,,,,False,17,78,True,exp2.png,exp1.png,trial_left_image,1,exp2.png,4,exp2.png,exp1.png,1,1,non-reversed,correct,0.770243123475116,1,valid_win,543.0280710998923,46,,,,,,,,,,,s_048,4,2021_Jan_26_1139,Reversal,3.2.4,59.95865247761551,
19,exp3.png,exp4.png,,,,,,,,,,,,,,,,,0,0,0,0,0,19,19,19,,,,,,,,,False,18,79,True,exp4.png,exp3.png,trial_left_image,1,exp4.png,4,exp3.png,exp4.png,1,3,reversed,incorrect,0.6412658122572071,0,valid_lose,547.7434055998456,46,,,,,,,,,,,s_048,4,2021_Jan_26_1139,Reversal,3.2.4,59.95865247761551,
20,exp1.png,exp2.png,,,,,,,,,,,,,,,,,0,0,0,0,0,20,20,20,,,,,,,,,False,19,80,False,exp1.png,exp2.png,trial_right_image,-1,exp2.png,4,exp2.png,exp1.png,1,1,non-reversed,correct,0.16122324780034092,0,invalid_lose,552.458627999993,46,,,,,,,,,,,s_048,4,2021_Jan_26_1139,Reversal,3.2.4,59.95865247761551,
,,,,,,,,,,,,,,,,,,,0,0,0,0,,,,,0,0,0,0,,,,,,,,,,,,,,,,,,,,,,,,,,22,86,50.0,50.0,,,,,,,s_048,4,2021_Jan_26_1139,Reversal,3.2.4,59.95865247761551,
0,exp1.png,exp2.png,,,,,,,,,,,,,,,,,1,0,1,0,0,0,0,0,,,,,,,,,True,,,,,,,,,,,,,,,,,,,,,,,,,,,,,,,s_048,4,2021_Jan_26_1139,Reversal,3.2.4,59.95865247761551,
1,exp3.png,exp4.png,,,,,,,,,,,,,,,,,1,0,1,0,0,1,1,1,,,,,,,,,False,20,81,True,exp4.png,exp3.png,trial_right_image,-1,exp3.png,4,exp3.png,exp4.png,0,4,reversed,correct,0.07068404876925338,0,invalid_lose,573.5677417998668,46,,,,,,,,,,,s_048,4,2021_Jan_26_1139,Reversal,3.2.4,59.95865247761551,
2,exp1.png,exp2.png,,,,,,,,,,,,,,,,,1,0,1,0,0,2,2,2,,,,,,,,,False,21,82,True,exp2.png,exp1.png,trial_left_image,1,exp2.png,4,exp2.png,exp1.png,1,1,non-reversed,correct,0.8030386593092351,1,valid_win,578.9495826999191,47,,,,,,,,,,,s_048,4,2021_Jan_26_1139,Reversal,3.2.4,59.95865247761551,
3,exp3.png,exp4.png,,,,,,,,,,,,,,,,,1,0,1,0,0,3,3,3,,,,,,,,,False,22,83,False,exp3.png,exp4.png,trial_right_image,-1,exp4.png,4,exp3.png,exp4.png,1,3,reversed,incorrect,0.6383539329586427,0,valid_lose,584.764965099981,47,,,,,,,,,,,s_048,4,2021_Jan_26_1139,Reversal,3.2.4,59.95865247761551,
4,exp1.png,exp2.png,,,,,,,,,,,,,,,,,1,0,1,0,0,4,4,4,,,,,,,,,False,23,84,False,exp1.png,exp2.png,trial_right_image,-1,exp2.png,4,exp2.png,exp1.png,1,1,non-reversed,correct,0.35674054605327665,1,valid_win,589.6633565998636,48,,,,,,,,,,,s_048,4,2021_Jan_26_1139,Reversal,3.2.4,59.95865247761551,
5,exp3.png,exp4.png,,,,,,,,,,,,,,,,,1,0,1,0,0,5,5,5,,,,,,,,,False,24,85,False,exp3.png,exp4.png,trial_left_image,1,exp3.png,4,exp3.png,exp4.png,0,4,reversed,correct,0.7077807325709888,1,valid_win,594.0277706999332,49,,,,,,,,,,,s_048,4,2021_Jan_26_1139,Reversal,3.2.4,59.95865247761551,
6,exp1.png,exp2.png,,,,,,,,,,,,,,,,,1,0,1,0,0,6,6,6,,,,,,,,,False,25,86,True,exp2.png,exp1.png,trial_left_image,1,exp2.png,4,exp2.png,exp1.png,1,1,non-reversed,correct,0.2020881529575983,0,invalid_lose,599.5091319999192,49,,,,,,,,,,,s_048,4,2021_Jan_26_1139,Reversal,3.2.4,59.95865247761551,
7,exp3.png,exp4.png,,,,,,,,,,,,,,,,,1,0,1,0,0,7,7,7,,,,,,,,,False,26,87,False,exp3.png,exp4.png,trial_left_image,1,exp3.png,4,exp3.png,exp4.png,0,4,reversed,correct,0.29935179787970567,1,valid_win,604.7914934,50,,,,,,,,,,,s_048,4,2021_Jan_26_1139,Reversal,3.2.4,59.95865247761551,
8,exp1.png,exp2.png,,,,,,,,,,,,,,,,,1,0,1,0,0,8,8,8,,,,,,,,,False,27,88,True,exp2.png,exp1.png,trial_right_image,-1,exp1.png,4,exp2.png,exp1.png,0,2,non-reversed,incorrect,0.24435513337258463,1,invalid_win,609.0228582997806,51,,,,,,,,,,,s_048,4,2021_Jan_26_1139,Reversal,3.2.4,59.95865247761551,
9,exp3.png,exp4.png,,,,,,,,,,,,,,,,,1,0,1,0,0,9,9,9,,,,,,,,,False,28,89,False,exp3.png,exp4.png,trial_left_image,1,exp3.png,4,exp3.png,exp4.png,0,4,reversed,correct,0.1307728228100733,0,invalid_lose,613.5709492999595,51,,,,,,,,,,,s_048,4,2021_Jan_26_1139,Reversal,3.2.4,59.95865247761551,
10,exp1.png,exp2.png,,,,,,,,,,,,,,,,,1,0,1,0,0,10,10,10,,,,,,,,,False,29,90,False,exp1.png,exp2.png,trial_left_image,1,exp1.png,4,exp2.png,exp1.png,0,2,non-reversed,incorrect,0.30524760052544153,0,valid_lose,618.8203070999589,51,,,,,,,,,,,s_048,4,2021_Jan_26_1139,Reversal,3.2.4,59.95865247761551,
11,exp3.png,exp4.png,,,,,,,,,,,,,,,,,1,0,1,0,0,11,11,11,,,,,,,,,False,30,91,False,exp3.png,exp4.png,trial_left_image,1,exp3.png,4,exp3.png,exp4.png,0,4,reversed,correct,0.6625603423480453,1,valid_win,623.4507452999242,52,,,,,,,,,,,s_048,4,2021_Jan_26_1139,Reversal,3.2.4,59.95865247761551,
12,exp1.png,exp2.png,,,,,,,,,,,,,,,,,1,0,1,0,0,12,12,12,,,,,,,,,False,31,92,False,exp1.png,exp2.png,trial_left_image,1,exp1.png,4,exp2.png,exp1.png,0,2,non-reversed,incorrect,0.6324900428744118,0,valid_lose,629.4326745998114,52,,,,,,,,,,,s_048,4,2021_Jan_26_1139,Reversal,3.2.4,59.95865247761551,
13,exp3.png,exp4.png,,,,,,,,,,,,,,,,,1,0,1,0,0,13,13,13,,,,,,,,,False,32,93,True,exp4.png,exp3.png,trial_right_image,-1,exp3.png,4,exp3.png,exp4.png,0,4,reversed,correct,0.48699176874644357,1,valid_win,634.0315919998102,53,,,,,,,,,,,s_048,4,2021_Jan_26_1139,Reversal,3.2.4,59.95865247761551,
14,exp1.png,exp2.png,,,,,,,,,,,,,,,,,1,0,1,0,0,14,14,14,,,,,,,,,False,33,94,True,exp2.png,exp1.png,trial_left_image,1,exp2.png,4,exp2.png,exp1.png,1,1,non-reversed,correct,0.49509460284922513,1,valid_win,638.5464576999657,54,,,,,,,,,,,s_048,4,2021_Jan_26_1139,Reversal,3.2.4,59.95865247761551,
15,exp3.png,exp4.png,,,,,,,,,,,,,,,,,1,0,1,0,0,15,15,15,,,,,,,,,False,34,95,True,exp4.png,exp3.png,trial_right_image,-1,exp3.png,4,exp3.png,exp4.png,0,4,reversed,correct,0.09293249355358668,0,invalid_lose,643.0285180998035,54,,,,,,,,,,,s_048,4,2021_Jan_26_1139,Reversal,3.2.4,59.95865247761551,
16,exp1.png,exp2.png,,,,,,,,,,,,,,,,,1,0,1,0,0,16,16,16,,,,,,,,,False,35,96,True,exp2.png,exp1.png,trial_left_image,1,exp2.png,4,exp2.png,exp1.png,1,1,non-reversed,correct,0.5068325128793076,1,valid_win,647.3932822998613,55,,,,,,,,,,,s_048,4,2021_Jan_26_1139,Reversal,3.2.4,59.95865247761551,
17,exp3.png,exp4.png,,,,,,,,,,,,,,,,,1,0,1,0,0,17,17,17,,,,,,,,,False,36,97,False,exp3.png,exp4.png,trial_right_image,-1,exp4.png,4,exp3.png,exp4.png,1,3,reversed,incorrect,0.7332196001404067,0,valid_lose,653.4406734998338,55,,,,,,,,,,,s_048,4,2021_Jan_26_1139,Reversal,3.2.4,59.95865247761551,
18,exp1.png,exp2.png,,,,,,,,,,,,,,,,,1,0,1,0,0,18,18,18,,,,,,,,,False,37,98,True,exp2.png,exp1.png,trial_left_image,1,exp2.png,4,exp2.png,exp1.png,1,1,non-reversed,correct,0.5060080209530481,1,valid_win,658.3404115999583,56,,,,,,,,,,,s_048,4,2021_Jan_26_1139,Reversal,3.2.4,59.95865247761551,
19,exp3.png,exp4.png,,,,,,,,,,,,,,,,,1,0,1,0,0,19,19,19,,,,,,,,,False,38,99,False,exp3.png,exp4.png,trial_right_image,-1,exp4.png,4,exp3.png,exp4.png,1,3,reversed,incorrect,0.913683146735309,0,valid_lose,662.6048708998132,56,,,,,,,,,,,s_048,4,2021_Jan_26_1139,Reversal,3.2.4,59.95865247761551,
20,exp1.png,exp2.png,,,,,,,,,,,,,,,,,1,0,1,0,0,20,20,20,,,,,,,,,False,39,100,True,exp2.png,exp1.png,trial_right_image,-1,exp1.png,4,exp2.png,exp1.png,0,2,non-reversed,incorrect,0.3927210046478491,0,valid_lose,666.7865872997791,56,,,,,,,,,,,s_048,4,2021_Jan_26_1139,Reversal,3.2.4,59.95865247761551,
,,,,,,,,,,,,,,,,,,,1,0,1,0,,,,,0,0,0,0,,,,,,,,,,,,,,,,,,,,,,,,,,50.0,50.0,50.0,50.0,,,,,,,s_048,4,2021_Jan_26_1139,Reversal,3.2.4,59.95865247761551,
0,exp1.png,exp2.png,,,,,,,,,,,,,,,,,2,0,2,0,0,0,0,0,,,,,,,,,True,,,,,,,,,,,,,,,,,,,,,,,,,,,,,,,s_048,4,2021_Jan_26_1139,Reversal,3.2.4,59.95865247761551,
1,exp3.png,exp4.png,,,,,,,,,,,,,,,,,2,0,2,0,0,1,1,1,,,,,,,,,False,40,101,True,exp4.png,exp3.png,trial_right_image,-1,exp3.png,4,exp3.png,exp4.png,0,4,reversed,correct,0.7363719905065301,1,valid_win,678.2988628000021,57,,,,,,,,,,,s_048,4,2021_Jan_26_1139,Reversal,3.2.4,59.95865247761551,
2,exp1.png,exp2.png,,,,,,,,,,,,,,,,,2,0,2,0,0,2,2,2,,,,,,,,,False,41,102,False,exp1.png,exp2.png,trial_right_image,-1,exp2.png,4,exp2.png,exp1.png,1,1,non-reversed,correct,0.5842026045168056,1,valid_win,683.6306118997745,58,,,,,,,,,,,s_048,4,2021_Jan_26_1139,Reversal,3.2.4,59.95865247761551,
3,exp3.png,exp4.png,,,,,,,,,,,,,,,,,2,0,2,0,0,3,3,3,,,,,,,,,False,42,103,False,exp3.png,exp4.png,trial_left_image,1,exp3.png,4,exp3.png,exp4.png,0,4,reversed,correct,0.358316158781798,1,valid_win,688.1782482999843,59,,,,,,,,,,,s_048,4,2021_Jan_26_1139,Reversal,3.2.4,59.95865247761551,
4,exp1.png,exp2.png,,,,,,,,,,,,,,,,,2,0,2,0,0,4,4,4,,,,,,,,,False,43,104,False,exp1.png,exp2.png,trial_right_image,-1,exp2.png,4,exp2.png,exp1.png,1,1,non-reversed,correct,0.1470230930588916,0,invalid_lose,693.1948098998982,59,,,,,,,,,,,s_048,4,2021_Jan_26_1139,Reversal,3.2.4,59.95865247761551,
5,exp3.png,exp4.png,,,,,,,,,,,,,,,,,2,0,2,0,0,5,5,5,,,,,,,,,False,44,105,False,exp3.png,exp4.png,trial_left_image,1,exp3.png,4,exp3.png,exp4.png,0,4,reversed,correct,0.452695543754592,1,valid_win,697.8428461998701,60,,,,,,,,,,,s_048,4,2021_Jan_26_1139,Reversal,3.2.4,59.95865247761551,
6,exp1.png,exp2.png,,,,,,,,,,,,,,,,,2,0,2,0,0,6,6,6,,,,,,,,,False,45,106,True,exp2.png,exp1.png,trial_left_image,1,exp2.png,4,exp2.png,exp1.png,1,1,non-reversed,correct,0.8133985273431432,1,valid_win,702.173766899854,61,,,,,,,,,,,s_048,4,2021_Jan_26_1139,Reversal,3.2.4,59.95865247761551,
7,exp3.png,exp4.png,,,,,,,,,,,,,,,,,2,0,2,0,0,7,7,7,,,,,,,,,False,46,107,True,exp4.png,exp3.png,trial_right_image,-1,exp3.png,4,exp3.png,exp4.png,0,4,reversed,correct,0.023893537503877793,0,invalid_lose,707.7562629999593,61,,,,,,,,,,,s_048,4,2021_Jan_26_1139,Reversal,3.2.4,59.95865247761551,
8,exp1.png,exp2.png,,,,,,,,,,,,,,,,,2,0,2,0,0,8,8,8,,,,,,,,,False,47,108,True,exp2.png,exp1.png,trial_right_image,-1,exp1.png,4,exp2.png,exp1.png,0,2,non-reversed,incorrect,0.6823237730431839,0,valid_lose,712.2211303999647,61,,,,,,,,,,,s_048,4,2021_Jan_26_1139,Reversal,3.2.4,59.95865247761551,
9,exp3.png,exp4.png,,,,,,,,,,,,,,,,,2,0,2,0,0,9,9,9,,,,,,,,,False,48,109,True,exp4.png,exp3.png,trial_right_image,-1,exp3.png,4,exp3.png,exp4.png,0,4,reversed,correct,0.49079423374998865,1,valid_win,716.7364976999816,62,,,,,,,,,,,s_048,4,2021_Jan_26_1139,Reversal,3.2.4,59.95865247761551,
10,exp1.png,exp2.png,,,,,,,,,,,,,,,,,2,0,2,0,0,10,10,10,,,,,,,,,False,49,110,True,exp2.png,exp1.png,trial_left_image,1,exp2.png,4,exp2.png,exp1.png,1,1,non-reversed,correct,0.9840912277188875,1,valid_win,722.1837528999895,63,,,,,,,,,,,s_048,4,2021_Jan_26_1139,Reversal,3.2.4,59.95865247761551,
11,exp3.png,exp4.png,,,,,,,,,,,,,,,,,2,0,2,0,0,11,11,11,,,,,,,,,False,50,111,False,exp3.png,exp4.png,trial_right_image,-1,exp4.png,4,exp3.png,exp4.png,1,3,reversed,incorrect,0.777538307669669,0,valid_lose,727.1161032998934,63,,,,,,,,,,,s_048,4,2021_Jan_26_1139,Reversal,3.2.4,59.95865247761551,
12,exp1.png,exp2.png,,,,,,,,,,,,,,,,,2,0,2,0,0,12,12,12,,,,,,,,,False,51,112,True,exp2.png,exp1.png,trial_right_image,-1,exp1.png,4,exp2.png,exp1.png,0,2,non-reversed,incorrect,0.9151218579036726,0,valid_lose,735.4292289998848,63,,,,,,,,,,,s_048,4,2021_Jan_26_1139,Reversal,3.2.4,59.95865247761551,
13,exp3.png,exp4.png,,,,,,,,,,,,,,,,,2,0,2,0,0,13,13,13,,,,,,,,,False,52,113,True,exp4.png,exp3.png,trial_left_image,1,exp4.png,4,exp3.png,exp4.png,1,3,reversed,incorrect,0.04563379891919772,1,invalid_win,739.562452299986,64,,,,,,,,,,,s_048,4,2021_Jan_26_1139,Reversal,3.2.4,59.95865247761551,
14,exp1.png,exp2.png,,,,,,,,,,,,,,,,,2,0,2,0,0,14,14,14,,,,,,,,,False,53,114,True,exp2.png,exp1.png,trial_left_image,1,exp2.png,4,exp2.png,exp1.png,1,1,non-reversed,correct,0.1469120545509438,0,invalid_lose,744.0441936999559,64,,,,,,,,,,,s_048,4,2021_Jan_26_1139,Reversal,3.2.4,59.95865247761551,
15,exp3.png,exp4.png,,,,,,,,,,,,,,,,,2,0,2,0,0,15,15,15,,,,,,,,,False,54,115,False,exp3.png,exp4.png,trial_right_image,-1,exp4.png,4,exp3.png,exp4.png,1,3,reversed,incorrect,0.616337399143015,0,valid_lose,747.9756707998458,64,,,,,,,,,,,s_048,4,2021_Jan_26_1139,Reversal,3.2.4,59.95865247761551,
16,exp1.png,exp2.png,,,,,,,,,,,,,,,,,2,0,2,0,0,16,16,16,,,,,,,,,False,55,116,False,exp1.png,exp2.png,trial_right_image,-1,exp2.png,4,exp2.png,exp1.png,1,1,non-reversed,correct,0.16045762361352633,0,invalid_lose,751.924286399968,64,,,,,,,,,,,s_048,4,2021_Jan_26_1139,Reversal,3.2.4,59.95865247761551,
17,exp3.png,exp4.png,,,,,,,,,,,,,,,,,2,0,2,0,0,17,17,17,,,,,,,,,False,56,117,True,exp4.png,exp3.png,trial_right_image,-1,exp3.png,4,exp3.png,exp4.png,0,4,reversed,correct,0.4751140457858326,1,valid_win,755.8222905998118,65,,,,,,,,,,,s_048,4,2021_Jan_26_1139,Reversal,3.2.4,59.95865247761551,
18,exp1.png,exp2.png,,,,,,,,,,,,,,,,,2,0,2,0,0,18,18,18,,,,,,,,,False,57,118,False,exp1.png,exp2.png,trial_right_image,-1,exp2.png,4,exp2.png,exp1.png,1,1,non-reversed,correct,0.8620933565132559,1,valid_win,760.538293399848,66,,,,,,,,,,,s_048,4,2021_Jan_26_1139,Reversal,3.2.4,59.95865247761551,
19,exp3.png,exp4.png,,,,,,,,,,,,,,,,,2,0,2,0,0,19,19,19,,,,,,,,,False,58,119,False,exp3.png,exp4.png,trial_right_image,-1,exp4.png,4,exp3.png,exp4.png,1,3,reversed,incorrect,0.5158201873513982,0,valid_lose,766.7029456999153,66,,,,,,,,,,,s_048,4,2021_Jan_26_1139,Reversal,3.2.4,59.95865247761551,
20,exp1.png,exp2.png,,,,,,,,,,,,,,,,,2,0,2,0,0,20,20,20,,,,,,,,,False,59,120,False,exp1.png,exp2.png,trial_right_image,-1,exp2.png,4,exp2.png,exp1.png,1,1,non-reversed,correct,0.6900380653020526,1,valid_win,771.1668240998406,67,,,,,,,,,,,s_048,4,2021_Jan_26_1139,Reversal,3.2.4,59.95865247761551,
,,,,,,,,,,,,,,,,,,,2,0,2,0,,,,,0,0,0,0,,,,,,,,,,,,,,,,,,,,,,,,,,28,70,40,64,,,,,,,s_048,4,2021_Jan_26_1139,Reversal,3.2.4,59.95865247761551,
,,,,,,,,,,,,,,,,,,,,,,,,,,,,,,,,,,,,,,,,,,,,,,,,,,,,,,,67,,,,,,73,35,38,338.2181020998396,0,,,,,,,
