trial_index,trial_image1_file,trial_image2_file,learning_outer_loop.thisRepN,learning_outer_loop.thisTrialN,learning_outer_loop.thisN,learning_outer_loop.thisIndex,learning_inner_loop.thisRepN,learning_inner_loop.thisTrialN,learning_inner_loop.thisN,learning_inner_loop.thisIndex,learning_estimation_outer_loop.thisRepN,learning_estimation_outer_loop.thisTrialN,learning_estimation_outer_loop.thisN,learning_estimation_outer_loop.thisIndex,learning_estimation_inner_loop.thisRepN,learning_estimation_inner_loop.thisTrialN,learning_estimation_inner_loop.thisN,learning_estimation_inner_loop.thisIndex,reversal_outer_loop.thisRepN,reversal_outer_loop.thisTrialN,reversal_outer_loop.thisN,reversal_outer_loop.thisIndex,reversal_inner_loop.thisRepN,reversal_inner_loop.thisTrialN,reversal_inner_loop.thisN,reversal_inner_loop.thisIndex,reversal_estimation_outer_loop.thisRepN,reversal_estimation_outer_loop.thisTrialN,reversal_estimation_outer_loop.thisN,reversal_estimation_outer_loop.thisIndex,reversal_estimation_inner_loop.thisRepN,reversal_estimation_inner_loop.thisTrialN,reversal_estimation_inner_loop.thisN,reversal_estimation_inner_loop.thisIndex,skipped,total_trial_counter,trial_num,left_right_flip,left_image_file,right_image_file,clicked_stimulus_side,side,clicked_stimulus,version,high_prob_image_file,low_prob_image_file,choice_a,choice_b,pair_type,correct,trial_feedback_random,reward,trial_type,overall_time_after_trial,score,estimation_exp1.png,estimation_exp2.png,estimation_exp3.png,estimation_exp4.png,total_learning_time,total_correct,learning_correct,reversal_correct,total_reversal_time,extra_block,end_experiment.keys,end_experiment.rt,participant,ver,date,expName,psychopyVersion,frameRate,
0,exp1.png,exp2.png,0,0,0,0,0,0,0,0,,,,,,,,,,,,,,,,,,,,,,,,,True,,,,,,,,,,,,,,,,,,,,,,,,,,,,,,,,,s_042,2,2021_Jan_13_0931,Reversal,3.2.4,60.05464973129501,
1,exp3.png,exp4.png,0,0,0,0,0,1,1,1,,,,,,,,,,,,,,,,,,,,,,,,,False,0,1,True,exp4.png,exp3.png,trial_right_image,-1,exp3.png,2,exp3.png,exp4.png,1,3,reversed,correct,0.6491971270638095,1,valid_win,5.028032000000167,1,,,,,,,,,,,,,s_042,2,2021_Jan_13_0931,Reversal,3.2.4,60.05464973129501,
2,exp1.png,exp2.png,0,0,0,0,0,2,2,2,,,,,,,,,,,,,,,,,,,,,,,,,False,1,2,True,exp2.png,exp1.png,trial_right_image,-1,exp1.png,2,exp1.png,exp2.png,1,1,non-reversed,correct,0.7221744908645226,1,valid_win,11.574894900000345,2,,,,,,,,,,,,,s_042,2,2021_Jan_13_0931,Reversal,3.2.4,60.05464973129501,
3,exp3.png,exp4.png,0,0,0,0,0,3,3,3,,,,,,,,,,,,,,,,,,,,,,,,,False,2,3,True,exp4.png,exp3.png,trial_left_image,1,exp4.png,2,exp3.png,exp4.png,0,4,reversed,incorrect,0.50585724334462,0,valid_lose,20.806128100000024,2,,,,,,,,,,,,,s_042,2,2021_Jan_13_0931,Reversal,3.2.4,60.05464973129501,
4,exp1.png,exp2.png,0,0,0,0,0,4,4,4,,,,,,,,,,,,,,,,,,,,,,,,,False,3,4,True,exp2.png,exp1.png,trial_right_image,-1,exp1.png,2,exp1.png,exp2.png,1,1,non-reversed,correct,0.23350063636877083,0,invalid_lose,26.103815300000406,2,,,,,,,,,,,,,s_042,2,2021_Jan_13_0931,Reversal,3.2.4,60.05464973129501,
5,exp3.png,exp4.png,0,0,0,0,0,5,5,5,,,,,,,,,,,,,,,,,,,,,,,,,False,4,5,True,exp4.png,exp3.png,trial_right_image,-1,exp3.png,2,exp3.png,exp4.png,1,3,reversed,correct,0.7487509785298172,1,valid_win,31.368212700000186,3,,,,,,,,,,,,,s_042,2,2021_Jan_13_0931,Reversal,3.2.4,60.05464973129501,
6,exp1.png,exp2.png,0,0,0,0,0,6,6,6,,,,,,,,,,,,,,,,,,,,,,,,,False,5,6,False,exp1.png,exp2.png,trial_left_image,1,exp1.png,2,exp1.png,exp2.png,1,1,non-reversed,correct,0.45473904199361337,1,valid_win,36.31598440000016,4,,,,,,,,,,,,,s_042,2,2021_Jan_13_0931,Reversal,3.2.4,60.05464973129501,
7,exp3.png,exp4.png,0,0,0,0,0,7,7,7,,,,,,,,,,,,,,,,,,,,,,,,,False,6,7,True,exp4.png,exp3.png,trial_right_image,-1,exp3.png,2,exp3.png,exp4.png,1,3,reversed,correct,0.8121463408482502,1,valid_win,41.53220030000011,5,,,,,,,,,,,,,s_042,2,2021_Jan_13_0931,Reversal,3.2.4,60.05464973129501,
8,exp1.png,exp2.png,0,0,0,0,0,8,8,8,,,,,,,,,,,,,,,,,,,,,,,,,False,7,8,False,exp1.png,exp2.png,trial_right_image,-1,exp2.png,2,exp1.png,exp2.png,0,2,non-reversed,incorrect,0.5174976552925303,0,valid_lose,46.88015190000033,5,,,,,,,,,,,,,s_042,2,2021_Jan_13_0931,Reversal,3.2.4,60.05464973129501,
9,exp3.png,exp4.png,0,0,0,0,0,9,9,9,,,,,,,,,,,,,,,,,,,,,,,,,False,8,9,False,exp3.png,exp4.png,trial_left_image,1,exp3.png,2,exp3.png,exp4.png,1,3,reversed,correct,0.14803771744192828,0,invalid_lose,52.17909370000007,5,,,,,,,,,,,,,s_042,2,2021_Jan_13_0931,Reversal,3.2.4,60.05464973129501,
10,exp1.png,exp2.png,0,0,0,0,0,10,10,10,,,,,,,,,,,,,,,,,,,,,,,,,False,9,10,False,exp1.png,exp2.png,trial_left_image,1,exp1.png,2,exp1.png,exp2.png,1,1,non-reversed,correct,0.11681457930672912,0,invalid_lose,57.027361400000245,5,,,,,,,,,,,,,s_042,2,2021_Jan_13_0931,Reversal,3.2.4,60.05464973129501,
11,exp3.png,exp4.png,0,0,0,0,0,11,11,11,,,,,,,,,,,,,,,,,,,,,,,,,False,10,11,False,exp3.png,exp4.png,trial_left_image,1,exp3.png,2,exp3.png,exp4.png,1,3,reversed,correct,0.5132471712367673,1,valid_win,61.34324890000016,6,,,,,,,,,,,,,s_042,2,2021_Jan_13_0931,Reversal,3.2.4,60.05464973129501,
12,exp1.png,exp2.png,0,0,0,0,0,12,12,12,,,,,,,,,,,,,,,,,,,,,,,,,False,11,12,False,exp1.png,exp2.png,trial_right_image,-1,exp2.png,2,exp1.png,exp2.png,0,2,non-reversed,incorrect,0.1097529087185376,1,invalid_win,65.79067550000036,7,,,,,,,,,,,,,s_042,2,2021_Jan_13_0931,Reversal,3.2.4,60.05464973129501,
13,exp3.png,exp4.png,0,0,0,0,0,13,13,13,,,,,,,,,,,,,,,,,,,,,,,,,False,12,13,False,exp3.png,exp4.png,trial_right_image,-1,exp4.png,2,exp3.png,exp4.png,0,4,reversed,incorrect,0.5988330474783797,0,valid_lose,70.60545450000018,7,,,,,,,,,,,,,s_042,2,2021_Jan_13_0931,Reversal,3.2.4,60.05464973129501,
14,exp1.png,exp2.png,0,0,0,0,0,14,14,14,,,,,,,,,,,,,,,,,,,,,,,,,False,13,14,True,exp2.png,exp1.png,trial_right_image,-1,exp1.png,2,exp1.png,exp2.png,1,1,non-reversed,correct,0.3860581161286025,1,valid_win,74.90432129999999,8,,,,,,,,,,,,,s_042,2,2021_Jan_13_0931,Reversal,3.2.4,60.05464973129501,
15,exp3.png,exp4.png,0,0,0,0,0,15,15,15,,,,,,,,,,,,,,,,,,,,,,,,,False,14,15,True,exp4.png,exp3.png,trial_left_image,1,exp4.png,2,exp3.png,exp4.png,0,4,reversed,incorrect,0.4599624856015423,0,valid_lose,79.7855410000002,8,,,,,,,,,,,,,s_042,2,2021_Jan_13_0931,Reversal,3.2.4,60.05464973129501,
16,exp1.png,exp2.png,0,0,0,0,0,16,16,16,,,,,,,,,,,,,,,,,,,,,,,,,False,15,16,False,exp1.png,exp2.png,trial_right_image,-1,exp2.png,2,exp1.png,exp2.png,0,2,non-reversed,incorrect,0.6095434031147854,0,valid_lose,84.13456290000022,8,,,,,,,,,,,,,s_042,2,2021_Jan_13_0931,Reversal,3.2.4,60.05464973129501,
17,exp3.png,exp4.png,0,0,0,0,0,17,17,17,,,,,,,,,,,,,,,,,,,,,,,,,False,16,17,False,exp3.png,exp4.png,trial_right_image,-1,exp4.png,2,exp3.png,exp4.png,0,4,reversed,incorrect,0.8746362485246121,0,valid_lose,88.1994936000001,8,,,,,,,,,,,,,s_042,2,2021_Jan_13_0931,Reversal,3.2.4,60.05464973129501,
18,exp1.png,exp2.png,0,0,0,0,0,18,18,18,,,,,,,,,,,,,,,,,,,,,,,,,False,17,18,True,exp2.png,exp1.png,trial_right_image,-1,exp1.png,2,exp1.png,exp2.png,1,1,non-reversed,correct,0.7143014586469675,1,valid_win,92.68125510000027,9,,,,,,,,,,,,,s_042,2,2021_Jan_13_0931,Reversal,3.2.4,60.05464973129501,
19,exp3.png,exp4.png,0,0,0,0,0,19,19,19,,,,,,,,,,,,,,,,,,,,,,,,,False,18,19,True,exp4.png,exp3.png,trial_right_image,-1,exp3.png,2,exp3.png,exp4.png,1,3,reversed,correct,0.8226184935557951,1,valid_win,97.67920780000031,10,,,,,,,,,,,,,s_042,2,2021_Jan_13_0931,Reversal,3.2.4,60.05464973129501,
20,exp1.png,exp2.png,0,0,0,0,0,20,20,20,,,,,,,,,,,,,,,,,,,,,,,,,False,19,20,False,exp1.png,exp2.png,trial_left_image,1,exp1.png,2,exp1.png,exp2.png,1,1,non-reversed,correct,0.698869125053786,1,valid_win,102.87784320000037,11,,,,,,,,,,,,,s_042,2,2021_Jan_13_0931,Reversal,3.2.4,60.05464973129501,
,,,0,0,0,0,,,,,0,0,0,0,,,,,,,,,,,,,,,,,,,,,,,,,,,,,,,,,,,,,,,,,,100,50.0,50.0,50.0,,,,,,,,,s_042,2,2021_Jan_13_0931,Reversal,3.2.4,60.05464973129501,
0,exp1.png,exp2.png,1,0,1,0,0,0,0,0,,,,,,,,,,,,,,,,,,,,,,,,,True,,,,,,,,,,,,,,,,,,,,,,,,,,,,,,,,,s_042,2,2021_Jan_13_0931,Reversal,3.2.4,60.05464973129501,
1,exp3.png,exp4.png,1,0,1,0,0,1,1,1,,,,,,,,,,,,,,,,,,,,,,,,,False,20,21,True,exp4.png,exp3.png,trial_right_image,-1,exp3.png,2,exp3.png,exp4.png,1,3,reversed,correct,0.914707356249594,1,valid_win,137.7497413000001,12,,,,,,,,,,,,,s_042,2,2021_Jan_13_0931,Reversal,3.2.4,60.05464973129501,
2,exp1.png,exp2.png,1,0,1,0,0,2,2,2,,,,,,,,,,,,,,,,,,,,,,,,,False,21,22,False,exp1.png,exp2.png,trial_left_image,1,exp1.png,2,exp1.png,exp2.png,1,1,non-reversed,correct,0.7979299462887349,1,valid_win,142.99842320000016,13,,,,,,,,,,,,,s_042,2,2021_Jan_13_0931,Reversal,3.2.4,60.05464973129501,
3,exp3.png,exp4.png,1,0,1,0,0,3,3,3,,,,,,,,,,,,,,,,,,,,,,,,,False,22,23,True,exp4.png,exp3.png,trial_right_image,-1,exp3.png,2,exp3.png,exp4.png,1,3,reversed,correct,0.6344375163481911,1,valid_win,147.74655600000006,14,,,,,,,,,,,,,s_042,2,2021_Jan_13_0931,Reversal,3.2.4,60.05464973129501,
4,exp1.png,exp2.png,1,0,1,0,0,4,4,4,,,,,,,,,,,,,,,,,,,,,,,,,False,23,24,False,exp1.png,exp2.png,trial_left_image,1,exp1.png,2,exp1.png,exp2.png,1,1,non-reversed,correct,0.4108545748708742,1,valid_win,152.66050280000036,15,,,,,,,,,,,,,s_042,2,2021_Jan_13_0931,Reversal,3.2.4,60.05464973129501,
5,exp3.png,exp4.png,1,0,1,0,0,5,5,5,,,,,,,,,,,,,,,,,,,,,,,,,False,24,25,True,exp4.png,exp3.png,trial_right_image,-1,exp3.png,2,exp3.png,exp4.png,1,3,reversed,correct,0.7712362554396032,1,valid_win,157.32590700000037,16,,,,,,,,,,,,,s_042,2,2021_Jan_13_0931,Reversal,3.2.4,60.05464973129501,
6,exp1.png,exp2.png,1,0,1,0,0,6,6,6,,,,,,,,,,,,,,,,,,,,,,,,,False,25,26,False,exp1.png,exp2.png,trial_left_image,1,exp1.png,2,exp1.png,exp2.png,1,1,non-reversed,correct,0.04359081731763792,0,invalid_lose,161.82532830000036,16,,,,,,,,,,,,,s_042,2,2021_Jan_13_0931,Reversal,3.2.4,60.05464973129501,
7,exp3.png,exp4.png,1,0,1,0,0,7,7,7,,,,,,,,,,,,,,,,,,,,,,,,,False,26,27,True,exp4.png,exp3.png,trial_left_image,1,exp4.png,2,exp3.png,exp4.png,0,4,reversed,incorrect,0.6556751573031399,0,valid_lose,167.78916310000022,16,,,,,,,,,,,,,s_042,2,2021_Jan_13_0931,Reversal,3.2.4,60.05464973129501,
8,exp1.png,exp2.png,1,0,1,0,0,8,8,8,,,,,,,,,,,,,,,,,,,,,,,,,False,27,28,True,exp2.png,exp1.png,trial_left_image,1,exp2.png,2,exp1.png,exp2.png,0,2,non-reversed,incorrect,0.13199302327149798,1,invalid_win,172.08860500000037,17,,,,,,,,,,,,,s_042,2,2021_Jan_13_0931,Reversal,3.2.4,60.05464973129501,
9,exp3.png,exp4.png,1,0,1,0,0,9,9,9,,,,,,,,,,,,,,,,,,,,,,,,,False,28,29,False,exp3.png,exp4.png,trial_right_image,-1,exp4.png,2,exp3.png,exp4.png,0,4,reversed,incorrect,0.656539045517333,0,valid_lose,176.5873499000004,17,,,,,,,,,,,,,s_042,2,2021_Jan_13_0931,Reversal,3.2.4,60.05464973129501,
10,exp1.png,exp2.png,1,0,1,0,0,10,10,10,,,,,,,,,,,,,,,,,,,,,,,,,False,29,30,False,exp1.png,exp2.png,trial_right_image,-1,exp2.png,2,exp1.png,exp2.png,0,2,non-reversed,incorrect,0.8418612895103058,0,valid_lose,181.26721420000013,17,,,,,,,,,,,,,s_042,2,2021_Jan_13_0931,Reversal,3.2.4,60.05464973129501,
11,exp3.png,exp4.png,1,0,1,0,0,11,11,11,,,,,,,,,,,,,,,,,,,,,,,,,False,30,31,True,exp4.png,exp3.png,trial_right_image,-1,exp3.png,2,exp3.png,exp4.png,1,3,reversed,correct,0.19179533816770478,0,invalid_lose,185.7668738000002,17,,,,,,,,,,,,,s_042,2,2021_Jan_13_0931,Reversal,3.2.4,60.05464973129501,
12,exp1.png,exp2.png,1,0,1,0,0,12,12,12,,,,,,,,,,,,,,,,,,,,,,,,,False,31,32,True,exp2.png,exp1.png,trial_left_image,1,exp2.png,2,exp1.png,exp2.png,0,2,non-reversed,incorrect,0.06964502989961929,1,invalid_win,190.3808253000002,18,,,,,,,,,,,,,s_042,2,2021_Jan_13_0931,Reversal,3.2.4,60.05464973129501,
13,exp3.png,exp4.png,1,0,1,0,0,13,13,13,,,,,,,,,,,,,,,,,,,,,,,,,False,32,33,True,exp4.png,exp3.png,trial_left_image,1,exp4.png,2,exp3.png,exp4.png,0,4,reversed,incorrect,0.38799973411518884,0,valid_lose,195.07925870000008,18,,,,,,,,,,,,,s_042,2,2021_Jan_13_0931,Reversal,3.2.4,60.05464973129501,
14,exp1.png,exp2.png,1,0,1,0,0,14,14,14,,,,,,,,,,,,,,,,,,,,,,,,,False,33,34,True,exp2.png,exp1.png,trial_right_image,-1,exp1.png,2,exp1.png,exp2.png,1,1,non-reversed,correct,0.5040344063254046,1,valid_win,199.52947100000029,19,,,,,,,,,,,,,s_042,2,2021_Jan_13_0931,Reversal,3.2.4,60.05464973129501,
15,exp3.png,exp4.png,1,0,1,0,0,15,15,15,,,,,,,,,,,,,,,,,,,,,,,,,False,34,35,False,exp3.png,exp4.png,trial_right_image,-1,exp4.png,2,exp3.png,exp4.png,0,4,reversed,incorrect,0.6920766650387595,0,valid_lose,204.3259164000001,19,,,,,,,,,,,,,s_042,2,2021_Jan_13_0931,Reversal,3.2.4,60.05464973129501,
16,exp1.png,exp2.png,1,0,1,0,0,16,16,16,,,,,,,,,,,,,,,,,,,,,,,,,False,35,36,True,exp2.png,exp1.png,trial_left_image,1,exp2.png,2,exp1.png,exp2.png,0,2,non-reversed,incorrect,0.562703269732057,0,valid_lose,209.2590894,19,,,,,,,,,,,,,s_042,2,2021_Jan_13_0931,Reversal,3.2.4,60.05464973129501,
17,exp3.png,exp4.png,1,0,1,0,0,17,17,17,,,,,,,,,,,,,,,,,,,,,,,,,False,36,37,False,exp3.png,exp4.png,trial_right_image,-1,exp4.png,2,exp3.png,exp4.png,0,4,reversed,incorrect,0.8978817722371175,0,valid_lose,214.05768240000043,19,,,,,,,,,,,,,s_042,2,2021_Jan_13_0931,Reversal,3.2.4,60.05464973129501,
18,exp1.png,exp2.png,1,0,1,0,0,18,18,18,,,,,,,,,,,,,,,,,,,,,,,,,False,37,38,False,exp1.png,exp2.png,trial_right_image,-1,exp2.png,2,exp1.png,exp2.png,0,2,non-reversed,incorrect,0.43737506524956093,0,valid_lose,218.35504370000035,19,,,,,,,,,,,,,s_042,2,2021_Jan_13_0931,Reversal,3.2.4,60.05464973129501,
19,exp3.png,exp4.png,1,0,1,0,0,19,19,19,,,,,,,,,,,,,,,,,,,,,,,,,False,38,39,False,exp3.png,exp4.png,trial_right_image,-1,exp4.png,2,exp3.png,exp4.png,0,4,reversed,incorrect,0.255440009931411,0,valid_lose,222.72092520000024,19,,,,,,,,,,,,,s_042,2,2021_Jan_13_0931,Reversal,3.2.4,60.05464973129501,
20,exp1.png,exp2.png,1,0,1,0,0,20,20,20,,,,,,,,,,,,,,,,,,,,,,,,,False,39,40,False,exp1.png,exp2.png,trial_left_image,1,exp1.png,2,exp1.png,exp2.png,1,1,non-reversed,correct,0.4177154805487808,1,valid_win,227.28497920000018,20,,,,,,,,,,,,,s_042,2,2021_Jan_13_0931,Reversal,3.2.4,60.05464973129501,
,,,1,0,1,0,,,,,0,0,0,0,,,,,,,,,,,,,,,,,,,,,,,,,,,,,,,,,,,,,,,,,,50.0,50.0,50.0,50.0,,,,,,,,,s_042,2,2021_Jan_13_0931,Reversal,3.2.4,60.05464973129501,
0,exp1.png,exp2.png,2,0,2,0,0,0,0,0,,,,,,,,,,,,,,,,,,,,,,,,,True,,,,,,,,,,,,,,,,,,,,,,,,,,,,,,,,,s_042,2,2021_Jan_13_0931,Reversal,3.2.4,60.05464973129501,
1,exp3.png,exp4.png,2,0,2,0,0,1,1,1,,,,,,,,,,,,,,,,,,,,,,,,,False,40,41,False,exp3.png,exp4.png,trial_right_image,-1,exp4.png,2,exp3.png,exp4.png,0,4,reversed,incorrect,0.5912949273582915,0,valid_lose,243.63028900000018,20,,,,,,,,,,,,,s_042,2,2021_Jan_13_0931,Reversal,3.2.4,60.05464973129501,
2,exp1.png,exp2.png,2,0,2,0,0,2,2,2,,,,,,,,,,,,,,,,,,,,,,,,,False,41,42,True,exp2.png,exp1.png,trial_right_image,-1,exp1.png,2,exp1.png,exp2.png,1,1,non-reversed,correct,0.26522766606744486,1,valid_win,248.14613720000034,21,,,,,,,,,,,,,s_042,2,2021_Jan_13_0931,Reversal,3.2.4,60.05464973129501,
3,exp3.png,exp4.png,2,0,2,0,0,3,3,3,,,,,,,,,,,,,,,,,,,,,,,,,False,42,43,True,exp4.png,exp3.png,trial_left_image,1,exp4.png,2,exp3.png,exp4.png,0,4,reversed,incorrect,0.254625130051783,0,valid_lose,252.7272564,21,,,,,,,,,,,,,s_042,2,2021_Jan_13_0931,Reversal,3.2.4,60.05464973129501,
4,exp1.png,exp2.png,2,0,2,0,0,4,4,4,,,,,,,,,,,,,,,,,,,,,,,,,False,43,44,True,exp2.png,exp1.png,trial_right_image,-1,exp1.png,2,exp1.png,exp2.png,1,1,non-reversed,correct,0.27014610137141504,1,valid_win,257.24290410000003,22,,,,,,,,,,,,,s_042,2,2021_Jan_13_0931,Reversal,3.2.4,60.05464973129501,
5,exp3.png,exp4.png,2,0,2,0,0,5,5,5,,,,,,,,,,,,,,,,,,,,,,,,,False,44,45,True,exp4.png,exp3.png,trial_right_image,-1,exp3.png,2,exp3.png,exp4.png,1,3,reversed,correct,0.9960048837726146,1,valid_win,261.6740854000004,23,,,,,,,,,,,,,s_042,2,2021_Jan_13_0931,Reversal,3.2.4,60.05464973129501,
6,exp1.png,exp2.png,2,0,2,0,0,6,6,6,,,,,,,,,,,,,,,,,,,,,,,,,False,45,46,False,exp1.png,exp2.png,trial_left_image,1,exp1.png,2,exp1.png,exp2.png,1,1,non-reversed,correct,0.23714940527172024,0,invalid_lose,266.2725757000003,23,,,,,,,,,,,,,s_042,2,2021_Jan_13_0931,Reversal,3.2.4,60.05464973129501,
7,exp3.png,exp4.png,2,0,2,0,0,7,7,7,,,,,,,,,,,,,,,,,,,,,,,,,False,46,47,False,exp3.png,exp4.png,trial_right_image,-1,exp4.png,2,exp3.png,exp4.png,0,4,reversed,incorrect,0.43261982533327814,0,valid_lose,270.2035340000002,23,,,,,,,,,,,,,s_042,2,2021_Jan_13_0931,Reversal,3.2.4,60.05464973129501,
8,exp1.png,exp2.png,2,0,2,0,0,8,8,8,,,,,,,,,,,,,,,,,,,,,,,,,False,47,48,False,exp1.png,exp2.png,trial_right_image,-1,exp2.png,2,exp1.png,exp2.png,0,2,non-reversed,incorrect,0.5010610873234186,0,valid_lose,274.53527440000016,23,,,,,,,,,,,,,s_042,2,2021_Jan_13_0931,Reversal,3.2.4,60.05464973129501,
9,exp3.png,exp4.png,2,0,2,0,0,9,9,9,,,,,,,,,,,,,,,,,,,,,,,,,False,48,49,False,exp3.png,exp4.png,trial_left_image,1,exp3.png,2,exp3.png,exp4.png,1,3,reversed,correct,0.5281571788124596,1,valid_win,279.20064550000006,24,,,,,,,,,,,,,s_042,2,2021_Jan_13_0931,Reversal,3.2.4,60.05464973129501,
10,exp1.png,exp2.png,2,0,2,0,0,10,10,10,,,,,,,,,,,,,,,,,,,,,,,,,False,49,50,True,exp2.png,exp1.png,trial_right_image,-1,exp1.png,2,exp1.png,exp2.png,1,1,non-reversed,correct,0.29807641548208885,1,valid_win,283.6508511000002,25,,,,,,,,,,,,,s_042,2,2021_Jan_13_0931,Reversal,3.2.4,60.05464973129501,
11,exp3.png,exp4.png,2,0,2,0,0,11,11,11,,,,,,,,,,,,,,,,,,,,,,,,,False,50,51,False,exp3.png,exp4.png,trial_left_image,1,exp3.png,2,exp3.png,exp4.png,1,3,reversed,correct,0.3785336542562602,1,valid_win,288.64852770000016,26,,,,,,,,,,,,,s_042,2,2021_Jan_13_0931,Reversal,3.2.4,60.05464973129501,
12,exp1.png,exp2.png,2,0,2,0,0,12,12,12,,,,,,,,,,,,,,,,,,,,,,,,,False,51,52,False,exp1.png,exp2.png,trial_left_image,1,exp1.png,2,exp1.png,exp2.png,1,1,non-reversed,correct,0.9842961716175647,1,valid_win,293.2625717000001,27,,,,,,,,,,,,,s_042,2,2021_Jan_13_0931,Reversal,3.2.4,60.05464973129501,
13,exp3.png,exp4.png,2,0,2,0,0,13,13,13,,,,,,,,,,,,,,,,,,,,,,,,,False,52,53,False,exp3.png,exp4.png,trial_right_image,-1,exp4.png,2,exp3.png,exp4.png,0,4,reversed,incorrect,0.6280377257576952,0,valid_lose,297.4784133000003,27,,,,,,,,,,,,,s_042,2,2021_Jan_13_0931,Reversal,3.2.4,60.05464973129501,
14,exp1.png,exp2.png,2,0,2,0,0,14,14,14,,,,,,,,,,,,,,,,,,,,,,,,,False,53,54,False,exp1.png,exp2.png,trial_right_image,-1,exp2.png,2,exp1.png,exp2.png,0,2,non-reversed,incorrect,0.3399609335454896,0,valid_lose,302.4780323,27,,,,,,,,,,,,,s_042,2,2021_Jan_13_0931,Reversal,3.2.4,60.05464973129501,
15,exp3.png,exp4.png,2,0,2,0,0,15,15,15,,,,,,,,,,,,,,,,,,,,,,,,,False,54,55,True,exp4.png,exp3.png,trial_left_image,1,exp4.png,2,exp3.png,exp4.png,0,4,reversed,incorrect,0.5571354091224853,0,valid_lose,307.17565660000037,27,,,,,,,,,,,,,s_042,2,2021_Jan_13_0931,Reversal,3.2.4,60.05464973129501,
16,exp1.png,exp2.png,2,0,2,0,0,16,16,16,,,,,,,,,,,,,,,,,,,,,,,,,False,55,56,True,exp2.png,exp1.png,trial_left_image,1,exp2.png,2,exp1.png,exp2.png,0,2,non-reversed,incorrect,0.3961669788159019,0,valid_lose,311.4417464000003,27,,,,,,,,,,,,,s_042,2,2021_Jan_13_0931,Reversal,3.2.4,60.05464973129501,
17,exp3.png,exp4.png,2,0,2,0,0,17,17,17,,,,,,,,,,,,,,,,,,,,,,,,,False,56,57,False,exp3.png,exp4.png,trial_left_image,1,exp3.png,2,exp3.png,exp4.png,1,3,reversed,correct,0.8993622848624944,1,valid_win,315.7896221000001,28,,,,,,,,,,,,,s_042,2,2021_Jan_13_0931,Reversal,3.2.4,60.05464973129501,
18,exp1.png,exp2.png,2,0,2,0,0,18,18,18,,,,,,,,,,,,,,,,,,,,,,,,,False,57,58,True,exp2.png,exp1.png,trial_left_image,1,exp2.png,2,exp1.png,exp2.png,0,2,non-reversed,incorrect,0.8423048698277594,0,valid_lose,319.8382123000001,28,,,,,,,,,,,,,s_042,2,2021_Jan_13_0931,Reversal,3.2.4,60.05464973129501,
19,exp3.png,exp4.png,2,0,2,0,0,19,19,19,,,,,,,,,,,,,,,,,,,,,,,,,False,58,59,True,exp4.png,exp3.png,trial_right_image,-1,exp3.png,2,exp3.png,exp4.png,1,3,reversed,correct,0.5501979214574005,1,valid_win,323.81970550000005,29,,,,,,,,,,,,,s_042,2,2021_Jan_13_0931,Reversal,3.2.4,60.05464973129501,
20,exp1.png,exp2.png,2,0,2,0,0,20,20,20,,,,,,,,,,,,,,,,,,,,,,,,,False,59,60,True,exp2.png,exp1.png,trial_left_image,1,exp2.png,2,exp1.png,exp2.png,0,2,non-reversed,incorrect,0.8776814999469734,0,valid_lose,328.2183347,29,,,,,,,,,,,,,s_042,2,2021_Jan_13_0931,Reversal,3.2.4,60.05464973129501,
,,,2,0,2,0,,,,,0,0,0,0,,,,,,,,,,,,,,,,,,,,,,,,,,,,,,,,,,,,,,,,,,50.0,50.0,50.0,50.0,,,,,,,,,s_042,2,2021_Jan_13_0931,Reversal,3.2.4,60.05464973129501,
0,exp1.png,exp2.png,3,0,3,0,0,0,0,0,,,,,,,,,,,,,,,,,,,,,,,,,True,,,,,,,,,,,,,,,,,,,,,,,,,,,,,,,,,s_042,2,2021_Jan_13_0931,Reversal,3.2.4,60.05464973129501,
1,exp3.png,exp4.png,3,0,3,0,0,1,1,1,,,,,,,,,,,,,,,,,,,,,,,,,False,60,61,True,exp4.png,exp3.png,trial_right_image,-1,exp3.png,2,exp3.png,exp4.png,1,3,reversed,correct,0.7274238621340775,1,valid_win,341.93083000000024,30,,,,,,,,,,,,,s_042,2,2021_Jan_13_0931,Reversal,3.2.4,60.05464973129501,
2,exp1.png,exp2.png,3,0,3,0,0,2,2,2,,,,,,,,,,,,,,,,,,,,,,,,,False,61,62,False,exp1.png,exp2.png,trial_right_image,-1,exp2.png,2,exp1.png,exp2.png,0,2,non-reversed,incorrect,0.7768520058825544,0,valid_lose,346.3445382,30,,,,,,,,,,,,,s_042,2,2021_Jan_13_0931,Reversal,3.2.4,60.05464973129501,
3,exp3.png,exp4.png,3,0,3,0,0,3,3,3,,,,,,,,,,,,,,,,,,,,,,,,,False,62,63,False,exp3.png,exp4.png,trial_right_image,-1,exp4.png,2,exp3.png,exp4.png,0,4,reversed,incorrect,0.26206235712178905,0,valid_lose,350.62614810000014,30,,,,,,,,,,,,,s_042,2,2021_Jan_13_0931,Reversal,3.2.4,60.05464973129501,
4,exp1.png,exp2.png,3,0,3,0,0,4,4,4,,,,,,,,,,,,,,,,,,,,,,,,,False,63,64,False,exp1.png,exp2.png,trial_right_image,-1,exp2.png,2,exp1.png,exp2.png,0,2,non-reversed,incorrect,0.8357740624641645,0,valid_lose,354.52524900000026,30,,,,,,,,,,,,,s_042,2,2021_Jan_13_0931,Reversal,3.2.4,60.05464973129501,
5,exp3.png,exp4.png,3,0,3,0,0,5,5,5,,,,,,,,,,,,,,,,,,,,,,,,,False,64,65,False,exp3.png,exp4.png,trial_left_image,1,exp3.png,2,exp3.png,exp4.png,1,3,reversed,correct,0.8093292017338497,1,valid_win,358.79200579999997,31,,,,,,,,,,,,,s_042,2,2021_Jan_13_0931,Reversal,3.2.4,60.05464973129501,
6,exp1.png,exp2.png,3,0,3,0,0,6,6,6,,,,,,,,,,,,,,,,,,,,,,,,,False,65,66,True,exp2.png,exp1.png,trial_right_image,-1,exp1.png,2,exp1.png,exp2.png,1,1,non-reversed,correct,0.298903888417561,1,valid_win,362.6572457000002,32,,,,,,,,,,,,,s_042,2,2021_Jan_13_0931,Reversal,3.2.4,60.05464973129501,
7,exp3.png,exp4.png,3,0,3,0,0,7,7,7,,,,,,,,,,,,,,,,,,,,,,,,,False,66,67,True,exp4.png,exp3.png,trial_right_image,-1,exp3.png,2,exp3.png,exp4.png,1,3,reversed,correct,0.9044522631167408,1,valid_win,366.95554900000025,33,,,,,,,,,,,,,s_042,2,2021_Jan_13_0931,Reversal,3.2.4,60.05464973129501,
8,exp1.png,exp2.png,3,0,3,0,0,8,8,8,,,,,,,,,,,,,,,,,,,,,,,,,False,67,68,False,exp1.png,exp2.png,trial_right_image,-1,exp2.png,2,exp1.png,exp2.png,0,2,non-reversed,incorrect,0.06222217459624202,1,invalid_win,370.85395060000064,34,,,,,,,,,,,,,s_042,2,2021_Jan_13_0931,Reversal,3.2.4,60.05464973129501,
9,exp3.png,exp4.png,3,0,3,0,0,9,9,9,,,,,,,,,,,,,,,,,,,,,,,,,False,68,69,True,exp4.png,exp3.png,trial_left_image,1,exp4.png,2,exp3.png,exp4.png,0,4,reversed,incorrect,0.28139533849390463,0,valid_lose,374.98650009999983,34,,,,,,,,,,,,,s_042,2,2021_Jan_13_0931,Reversal,3.2.4,60.05464973129501,
10,exp1.png,exp2.png,3,0,3,0,0,10,10,10,,,,,,,,,,,,,,,,,,,,,,,,,False,69,70,False,exp1.png,exp2.png,trial_left_image,1,exp1.png,2,exp1.png,exp2.png,1,1,non-reversed,correct,0.338618591619149,1,valid_win,379.1685728000002,35,,,,,,,,,,,,,s_042,2,2021_Jan_13_0931,Reversal,3.2.4,60.05464973129501,
11,exp3.png,exp4.png,3,0,3,0,0,11,11,11,,,,,,,,,,,,,,,,,,,,,,,,,False,70,71,False,exp3.png,exp4.png,trial_right_image,-1,exp4.png,2,exp3.png,exp4.png,0,4,reversed,incorrect,0.6234106421072327,0,valid_lose,383.05007490000025,35,,,,,,,,,,,,,s_042,2,2021_Jan_13_0931,Reversal,3.2.4,60.05464973129501,
12,exp1.png,exp2.png,3,0,3,0,0,12,12,12,,,,,,,,,,,,,,,,,,,,,,,,,False,71,72,True,exp2.png,exp1.png,trial_left_image,1,exp2.png,2,exp1.png,exp2.png,0,2,non-reversed,incorrect,0.17433880310320105,1,invalid_win,387.59838039999977,36,,,,,,,,,,,,,s_042,2,2021_Jan_13_0931,Reversal,3.2.4,60.05464973129501,
13,exp3.png,exp4.png,3,0,3,0,0,13,13,13,,,,,,,,,,,,,,,,,,,,,,,,,False,72,73,True,exp4.png,exp3.png,trial_right_image,-1,exp3.png,2,exp3.png,exp4.png,1,3,reversed,correct,0.3302732910490406,1,valid_win,392.2139180000004,37,,,,,,,,,,,,,s_042,2,2021_Jan_13_0931,Reversal,3.2.4,60.05464973129501,
14,exp1.png,exp2.png,3,0,3,0,0,14,14,14,,,,,,,,,,,,,,,,,,,,,,,,,False,73,74,False,exp1.png,exp2.png,trial_right_image,-1,exp2.png,2,exp1.png,exp2.png,0,2,non-reversed,incorrect,0.2875996370053989,0,valid_lose,398.0274177000001,37,,,,,,,,,,,,,s_042,2,2021_Jan_13_0931,Reversal,3.2.4,60.05464973129501,
15,exp3.png,exp4.png,3,0,3,0,0,15,15,15,,,,,,,,,,,,,,,,,,,,,,,,,False,74,75,False,exp3.png,exp4.png,trial_right_image,-1,exp4.png,2,exp3.png,exp4.png,0,4,reversed,incorrect,0.36028031026985186,0,valid_lose,402.8267362000006,37,,,,,,,,,,,,,s_042,2,2021_Jan_13_0931,Reversal,3.2.4,60.05464973129501,
16,exp1.png,exp2.png,3,0,3,0,0,16,16,16,,,,,,,,,,,,,,,,,,,,,,,,,False,75,76,True,exp2.png,exp1.png,trial_right_image,-1,exp1.png,2,exp1.png,exp2.png,1,1,non-reversed,correct,0.3525306984823172,1,valid_win,407.17445039999984,38,,,,,,,,,,,,,s_042,2,2021_Jan_13_0931,Reversal,3.2.4,60.05464973129501,
17,exp3.png,exp4.png,3,0,3,0,0,17,17,17,,,,,,,,,,,,,,,,,,,,,,,,,False,76,77,True,exp4.png,exp3.png,trial_left_image,1,exp4.png,2,exp3.png,exp4.png,0,4,reversed,incorrect,0.8959176980588288,0,valid_lose,412.0069333000001,38,,,,,,,,,,,,,s_042,2,2021_Jan_13_0931,Reversal,3.2.4,60.05464973129501,
18,exp1.png,exp2.png,3,0,3,0,0,18,18,18,,,,,,,,,,,,,,,,,,,,,,,,,False,77,78,True,exp2.png,exp1.png,trial_left_image,1,exp2.png,2,exp1.png,exp2.png,0,2,non-reversed,incorrect,0.5581573434500477,0,valid_lose,416.68861710000056,38,,,,,,,,,,,,,s_042,2,2021_Jan_13_0931,Reversal,3.2.4,60.05464973129501,
19,exp3.png,exp4.png,3,0,3,0,0,19,19,19,,,,,,,,,,,,,,,,,,,,,,,,,False,78,79,True,exp4.png,exp3.png,trial_left_image,1,exp4.png,2,exp3.png,exp4.png,0,4,reversed,incorrect,0.6906085194237861,0,valid_lose,420.5721788999999,38,,,,,,,,,,,,,s_042,2,2021_Jan_13_0931,Reversal,3.2.4,60.05464973129501,
20,exp1.png,exp2.png,3,0,3,0,0,20,20,20,,,,,,,,,,,,,,,,,,,,,,,,,False,79,80,False,exp1.png,exp2.png,trial_left_image,1,exp1.png,2,exp1.png,exp2.png,1,1,non-reversed,correct,0.1790339313403546,0,invalid_lose,424.9854498000004,38,,,,,,,,,,,,,s_042,2,2021_Jan_13_0931,Reversal,3.2.4,60.05464973129501,
,,,3,0,3,0,,,,,0,0,0,0,,,,,,,,,,,,,,,,,,,,,,,,,,,,,,,,,,,,,,,,,,50.0,50.0,50.0,50.0,,,,,,,,,s_042,2,2021_Jan_13_0931,Reversal,3.2.4,60.05464973129501,
0,exp1.png,exp2.png,,,,,,,,,,,,,,,,,0,0,0,0,0,0,0,0,,,,,,,,,True,,,,,,,,,,,,,,,,,,,,,,,,,,,,,,,,,s_042,2,2021_Jan_13_0931,Reversal,3.2.4,60.05464973129501,
1,exp3.png,exp4.png,,,,,,,,,,,,,,,,,0,0,0,0,0,1,1,1,,,,,,,,,False,0,81,False,exp3.png,exp4.png,trial_left_image,1,exp3.png,2,exp4.png,exp3.png,1,3,reversed,incorrect,0.1238295538487374,1,invalid_win,435.38177369999994,39,,,,,432.99316780000026,,,,,,,,s_042,2,2021_Jan_13_0931,Reversal,3.2.4,60.05464973129501,
2,exp1.png,exp2.png,,,,,,,,,,,,,,,,,0,0,0,0,0,2,2,2,,,,,,,,,False,1,82,False,exp1.png,exp2.png,trial_right_image,-1,exp2.png,2,exp1.png,exp2.png,0,2,non-reversed,incorrect,0.572513417470736,0,valid_lose,439.2630186000006,39,,,,,,,,,,,,,s_042,2,2021_Jan_13_0931,Reversal,3.2.4,60.05464973129501,
3,exp3.png,exp4.png,,,,,,,,,,,,,,,,,0,0,0,0,0,3,3,3,,,,,,,,,False,2,83,True,exp4.png,exp3.png,trial_right_image,-1,exp3.png,2,exp4.png,exp3.png,1,3,reversed,incorrect,0.007197261759219087,1,invalid_win,443.3626032000002,40,,,,,,,,,,,,,s_042,2,2021_Jan_13_0931,Reversal,3.2.4,60.05464973129501,
4,exp1.png,exp2.png,,,,,,,,,,,,,,,,,0,0,0,0,0,4,4,4,,,,,,,,,False,3,84,True,exp2.png,exp1.png,trial_right_image,-1,exp1.png,2,exp1.png,exp2.png,1,1,non-reversed,correct,0.15050503105783153,0,invalid_lose,447.76141689999986,40,,,,,,,,,,,,,s_042,2,2021_Jan_13_0931,Reversal,3.2.4,60.05464973129501,
5,exp3.png,exp4.png,,,,,,,,,,,,,,,,,0,0,0,0,0,5,5,5,,,,,,,,,False,4,85,False,exp3.png,exp4.png,trial_left_image,1,exp3.png,2,exp4.png,exp3.png,1,3,reversed,incorrect,0.07407870291576546,1,invalid_win,452.61003530000016,41,,,,,,,,,,,,,s_042,2,2021_Jan_13_0931,Reversal,3.2.4,60.05464973129501,
6,exp1.png,exp2.png,,,,,,,,,,,,,,,,,0,0,0,0,0,6,6,6,,,,,,,,,False,5,86,True,exp2.png,exp1.png,trial_right_image,-1,exp1.png,2,exp1.png,exp2.png,1,1,non-reversed,correct,0.13645776042678182,0,invalid_lose,458.2402669000003,41,,,,,,,,,,,,,s_042,2,2021_Jan_13_0931,Reversal,3.2.4,60.05464973129501,
7,exp3.png,exp4.png,,,,,,,,,,,,,,,,,0,0,0,0,0,7,7,7,,,,,,,,,False,6,87,True,exp4.png,exp3.png,trial_right_image,-1,exp3.png,2,exp4.png,exp3.png,1,3,reversed,incorrect,0.12323994929190729,1,invalid_win,462.62261370000033,42,,,,,,,,,,,,,s_042,2,2021_Jan_13_0931,Reversal,3.2.4,60.05464973129501,
8,exp1.png,exp2.png,,,,,,,,,,,,,,,,,0,0,0,0,0,8,8,8,,,,,,,,,False,7,88,False,exp1.png,exp2.png,trial_left_image,1,exp1.png,2,exp1.png,exp2.png,1,1,non-reversed,correct,0.5930510616267816,1,valid_win,466.9712884999999,43,,,,,,,,,,,,,s_042,2,2021_Jan_13_0931,Reversal,3.2.4,60.05464973129501,
9,exp3.png,exp4.png,,,,,,,,,,,,,,,,,0,0,0,0,0,9,9,9,,,,,,,,,False,8,89,True,exp4.png,exp3.png,trial_right_image,-1,exp3.png,2,exp4.png,exp3.png,1,3,reversed,incorrect,0.4625688493444975,0,valid_lose,471.61923470000056,43,,,,,,,,,,,,,s_042,2,2021_Jan_13_0931,Reversal,3.2.4,60.05464973129501,
10,exp1.png,exp2.png,,,,,,,,,,,,,,,,,0,0,0,0,0,10,10,10,,,,,,,,,False,9,90,False,exp1.png,exp2.png,trial_right_image,-1,exp2.png,2,exp1.png,exp2.png,0,2,non-reversed,incorrect,0.7079910214535174,0,valid_lose,476.2848399000004,43,,,,,,,,,,,,,s_042,2,2021_Jan_13_0931,Reversal,3.2.4,60.05464973129501,
11,exp3.png,exp4.png,,,,,,,,,,,,,,,,,0,0,0,0,0,11,11,11,,,,,,,,,False,10,91,False,exp3.png,exp4.png,trial_right_image,-1,exp4.png,2,exp4.png,exp3.png,0,4,reversed,correct,0.45910021533415635,1,valid_win,480.96705699999984,44,,,,,,,,,,,,,s_042,2,2021_Jan_13_0931,Reversal,3.2.4,60.05464973129501,
12,exp1.png,exp2.png,,,,,,,,,,,,,,,,,0,0,0,0,0,12,12,12,,,,,,,,,False,11,92,True,exp2.png,exp1.png,trial_left_image,1,exp2.png,2,exp1.png,exp2.png,0,2,non-reversed,incorrect,0.11172567211379225,1,invalid_win,485.28102970000054,45,,,,,,,,,,,,,s_042,2,2021_Jan_13_0931,Reversal,3.2.4,60.05464973129501,
13,exp3.png,exp4.png,,,,,,,,,,,,,,,,,0,0,0,0,0,13,13,13,,,,,,,,,False,12,93,False,exp3.png,exp4.png,trial_left_image,1,exp3.png,2,exp4.png,exp3.png,1,3,reversed,incorrect,0.32129037602100075,0,valid_lose,489.56352380000044,45,,,,,,,,,,,,,s_042,2,2021_Jan_13_0931,Reversal,3.2.4,60.05464973129501,
14,exp1.png,exp2.png,,,,,,,,,,,,,,,,,0,0,0,0,0,14,14,14,,,,,,,,,False,13,94,False,exp1.png,exp2.png,trial_left_image,1,exp1.png,2,exp1.png,exp2.png,1,1,non-reversed,correct,0.0058754304598540585,0,invalid_lose,493.6627335000003,45,,,,,,,,,,,,,s_042,2,2021_Jan_13_0931,Reversal,3.2.4,60.05464973129501,
15,exp3.png,exp4.png,,,,,,,,,,,,,,,,,0,0,0,0,0,15,15,15,,,,,,,,,False,14,95,True,exp4.png,exp3.png,trial_right_image,-1,exp3.png,2,exp4.png,exp3.png,1,3,reversed,incorrect,0.3643759609177636,0,valid_lose,497.74806140000055,45,,,,,,,,,,,,,s_042,2,2021_Jan_13_0931,Reversal,3.2.4,60.05464973129501,
16,exp1.png,exp2.png,,,,,,,,,,,,,,,,,0,0,0,0,0,16,16,16,,,,,,,,,False,15,96,True,exp2.png,exp1.png,trial_right_image,-1,exp1.png,2,exp1.png,exp2.png,1,1,non-reversed,correct,0.43927169413361633,1,valid_win,501.67641150000054,46,,,,,,,,,,,,,s_042,2,2021_Jan_13_0931,Reversal,3.2.4,60.05464973129501,
17,exp3.png,exp4.png,,,,,,,,,,,,,,,,,0,0,0,0,0,17,17,17,,,,,,,,,False,16,97,True,exp4.png,exp3.png,trial_right_image,-1,exp3.png,2,exp4.png,exp3.png,1,3,reversed,incorrect,0.4602765082896839,0,valid_lose,506.00786570000037,46,,,,,,,,,,,,,s_042,2,2021_Jan_13_0931,Reversal,3.2.4,60.05464973129501,
18,exp1.png,exp2.png,,,,,,,,,,,,,,,,,0,0,0,0,0,18,18,18,,,,,,,,,False,17,98,False,exp1.png,exp2.png,trial_right_image,-1,exp2.png,2,exp1.png,exp2.png,0,2,non-reversed,incorrect,0.48733195734093315,0,valid_lose,510.2391094000004,46,,,,,,,,,,,,,s_042,2,2021_Jan_13_0931,Reversal,3.2.4,60.05464973129501,
19,exp3.png,exp4.png,,,,,,,,,,,,,,,,,0,0,0,0,0,19,19,19,,,,,,,,,False,18,99,False,exp3.png,exp4.png,trial_right_image,-1,exp4.png,2,exp4.png,exp3.png,0,4,reversed,correct,0.45578684036086414,1,valid_win,514.2552356000006,47,,,,,,,,,,,,,s_042,2,2021_Jan_13_0931,Reversal,3.2.4,60.05464973129501,
20,exp1.png,exp2.png,,,,,,,,,,,,,,,,,0,0,0,0,0,20,20,20,,,,,,,,,False,19,100,True,exp2.png,exp1.png,trial_left_image,1,exp2.png,2,exp1.png,exp2.png,0,2,non-reversed,incorrect,0.7657273135088645,0,valid_lose,518.6875513000005,47,,,,,,,,,,,,,s_042,2,2021_Jan_13_0931,Reversal,3.2.4,60.05464973129501,
,,,,,,,,,,,,,,,,,,,0,0,0,0,,,,,0,0,0,0,,,,,,,,,,,,,,,,,,,,,,,,,,50.0,50.0,50.0,50.0,,,,,,,,,s_042,2,2021_Jan_13_0931,Reversal,3.2.4,60.05464973129501,
0,exp1.png,exp2.png,,,,,,,,,,,,,,,,,1,0,1,0,0,0,0,0,,,,,,,,,True,,,,,,,,,,,,,,,,,,,,,,,,,,,,,,,,,s_042,2,2021_Jan_13_0931,Reversal,3.2.4,60.05464973129501,
1,exp3.png,exp4.png,,,,,,,,,,,,,,,,,1,0,1,0,0,1,1,1,,,,,,,,,False,20,101,True,exp4.png,exp3.png,trial_left_image,1,exp4.png,2,exp4.png,exp3.png,0,4,reversed,correct,0.3389024492433754,1,valid_win,528.4170515000005,48,,,,,,,,,,,,,s_042,2,2021_Jan_13_0931,Reversal,3.2.4,60.05464973129501,
2,exp1.png,exp2.png,,,,,,,,,,,,,,,,,1,0,1,0,0,2,2,2,,,,,,,,,False,21,102,False,exp1.png,exp2.png,trial_left_image,1,exp1.png,2,exp1.png,exp2.png,1,1,non-reversed,correct,0.9595766598767824,1,valid_win,532.8824879000003,49,,,,,,,,,,,,,s_042,2,2021_Jan_13_0931,Reversal,3.2.4,60.05464973129501,
3,exp3.png,exp4.png,,,,,,,,,,,,,,,,,1,0,1,0,0,3,3,3,,,,,,,,,False,22,103,False,exp3.png,exp4.png,trial_right_image,-1,exp4.png,2,exp4.png,exp3.png,0,4,reversed,correct,0.8015885108515476,1,valid_win,537.1967066000007,50,,,,,,,,,,,,,s_042,2,2021_Jan_13_0931,Reversal,3.2.4,60.05464973129501,
4,exp1.png,exp2.png,,,,,,,,,,,,,,,,,1,0,1,0,0,4,4,4,,,,,,,,,False,23,104,True,exp2.png,exp1.png,trial_left_image,1,exp2.png,2,exp1.png,exp2.png,0,2,non-reversed,incorrect,0.6319441746738186,0,valid_lose,541.1295390000005,50,,,,,,,,,,,,,s_042,2,2021_Jan_13_0931,Reversal,3.2.4,60.05464973129501,
5,exp3.png,exp4.png,,,,,,,,,,,,,,,,,1,0,1,0,0,5,5,5,,,,,,,,,False,24,105,True,exp4.png,exp3.png,trial_right_image,-1,exp3.png,2,exp4.png,exp3.png,1,3,reversed,incorrect,0.60692866681488,0,valid_lose,545.6112093000002,50,,,,,,,,,,,,,s_042,2,2021_Jan_13_0931,Reversal,3.2.4,60.05464973129501,
6,exp1.png,exp2.png,,,,,,,,,,,,,,,,,1,0,1,0,0,6,6,6,,,,,,,,,False,25,106,True,exp2.png,exp1.png,trial_left_image,1,exp2.png,2,exp1.png,exp2.png,0,2,non-reversed,incorrect,0.9016027414739345,0,valid_lose,550.2089765000001,50,,,,,,,,,,,,,s_042,2,2021_Jan_13_0931,Reversal,3.2.4,60.05464973129501,
7,exp3.png,exp4.png,,,,,,,,,,,,,,,,,1,0,1,0,0,7,7,7,,,,,,,,,False,26,107,False,exp3.png,exp4.png,trial_right_image,-1,exp4.png,2,exp4.png,exp3.png,0,4,reversed,correct,0.13016559858865395,0,invalid_lose,554.1914033000003,50,,,,,,,,,,,,,s_042,2,2021_Jan_13_0931,Reversal,3.2.4,60.05464973129501,
8,exp1.png,exp2.png,,,,,,,,,,,,,,,,,1,0,1,0,0,8,8,8,,,,,,,,,False,27,108,False,exp1.png,exp2.png,trial_left_image,1,exp1.png,2,exp1.png,exp2.png,1,1,non-reversed,correct,0.40453448171288253,1,valid_win,558.9572372000002,51,,,,,,,,,,,,,s_042,2,2021_Jan_13_0931,Reversal,3.2.4,60.05464973129501,
9,exp3.png,exp4.png,,,,,,,,,,,,,,,,,1,0,1,0,0,9,9,9,,,,,,,,,False,28,109,True,exp4.png,exp3.png,trial_left_image,1,exp4.png,2,exp4.png,exp3.png,0,4,reversed,correct,0.9244619906687812,1,valid_win,563.7549895000002,52,,,,,,,,,,,,,s_042,2,2021_Jan_13_0931,Reversal,3.2.4,60.05464973129501,
10,exp1.png,exp2.png,,,,,,,,,,,,,,,,,1,0,1,0,0,10,10,10,,,,,,,,,False,29,110,False,exp1.png,exp2.png,trial_right_image,-1,exp2.png,2,exp1.png,exp2.png,0,2,non-reversed,incorrect,0.45214368031550145,0,valid_lose,568.0541414999998,52,,,,,,,,,,,,,s_042,2,2021_Jan_13_0931,Reversal,3.2.4,60.05464973129501,
11,exp3.png,exp4.png,,,,,,,,,,,,,,,,,1,0,1,0,0,11,11,11,,,,,,,,,False,30,111,False,exp3.png,exp4.png,trial_right_image,-1,exp4.png,2,exp4.png,exp3.png,0,4,reversed,correct,0.7606179156499817,1,valid_win,572.4180840999998,53,,,,,,,,,,,,,s_042,2,2021_Jan_13_0931,Reversal,3.2.4,60.05464973129501,
12,exp1.png,exp2.png,,,,,,,,,,,,,,,,,1,0,1,0,0,12,12,12,,,,,,,,,False,31,112,False,exp1.png,exp2.png,trial_left_image,1,exp1.png,2,exp1.png,exp2.png,1,1,non-reversed,correct,0.6968572056586164,1,valid_win,577.3008893000006,54,,,,,,,,,,,,,s_042,2,2021_Jan_13_0931,Reversal,3.2.4,60.05464973129501,
13,exp3.png,exp4.png,,,,,,,,,,,,,,,,,1,0,1,0,0,13,13,13,,,,,,,,,False,32,113,True,exp4.png,exp3.png,trial_right_image,-1,exp3.png,2,exp4.png,exp3.png,1,3,reversed,incorrect,0.7751465525569763,0,valid_lose,582.0655388000005,54,,,,,,,,,,,,,s_042,2,2021_Jan_13_0931,Reversal,3.2.4,60.05464973129501,
14,exp1.png,exp2.png,,,,,,,,,,,,,,,,,1,0,1,0,0,14,14,14,,,,,,,,,False,33,114,False,exp1.png,exp2.png,trial_left_image,1,exp1.png,2,exp1.png,exp2.png,1,1,non-reversed,correct,0.8424986037760209,1,valid_win,586.4478231000003,55,,,,,,,,,,,,,s_042,2,2021_Jan_13_0931,Reversal,3.2.4,60.05464973129501,
15,exp3.png,exp4.png,,,,,,,,,,,,,,,,,1,0,1,0,0,15,15,15,,,,,,,,,False,34,115,True,exp4.png,exp3.png,trial_left_image,1,exp4.png,2,exp4.png,exp3.png,0,4,reversed,correct,0.09513499994053154,0,invalid_lose,591.2616705999999,55,,,,,,,,,,,,,s_042,2,2021_Jan_13_0931,Reversal,3.2.4,60.05464973129501,
16,exp1.png,exp2.png,,,,,,,,,,,,,,,,,1,0,1,0,0,16,16,16,,,,,,,,,False,35,116,False,exp1.png,exp2.png,trial_right_image,-1,exp2.png,2,exp1.png,exp2.png,0,2,non-reversed,incorrect,0.03071243611529051,1,invalid_win,595.6942447000001,56,,,,,,,,,,,,,s_042,2,2021_Jan_13_0931,Reversal,3.2.4,60.05464973129501,
17,exp3.png,exp4.png,,,,,,,,,,,,,,,,,1,0,1,0,0,17,17,17,,,,,,,,,False,36,117,True,exp4.png,exp3.png,trial_right_image,-1,exp3.png,2,exp4.png,exp3.png,1,3,reversed,incorrect,0.9689804986627788,0,valid_lose,599.6935957000005,56,,,,,,,,,,,,,s_042,2,2021_Jan_13_0931,Reversal,3.2.4,60.05464973129501,
18,exp1.png,exp2.png,,,,,,,,,,,,,,,,,1,0,1,0,0,18,18,18,,,,,,,,,False,37,118,True,exp2.png,exp1.png,trial_left_image,1,exp2.png,2,exp1.png,exp2.png,0,2,non-reversed,incorrect,0.5341183948243929,0,valid_lose,603.9424414000005,56,,,,,,,,,,,,,s_042,2,2021_Jan_13_0931,Reversal,3.2.4,60.05464973129501,
19,exp3.png,exp4.png,,,,,,,,,,,,,,,,,1,0,1,0,0,19,19,19,,,,,,,,,False,38,119,True,exp4.png,exp3.png,trial_right_image,-1,exp3.png,2,exp4.png,exp3.png,1,3,reversed,incorrect,0.9270524906450764,0,valid_lose,608.0082370999999,56,,,,,,,,,,,,,s_042,2,2021_Jan_13_0931,Reversal,3.2.4,60.05464973129501,
20,exp1.png,exp2.png,,,,,,,,,,,,,,,,,1,0,1,0,0,20,20,20,,,,,,,,,False,39,120,False,exp1.png,exp2.png,trial_right_image,-1,exp2.png,2,exp1.png,exp2.png,0,2,non-reversed,incorrect,0.6874907621211983,0,valid_lose,612.4556637000005,56,,,,,,,,,,,,,s_042,2,2021_Jan_13_0931,Reversal,3.2.4,60.05464973129501,
,,,,,,,,,,,,,,,,,,,1,0,1,0,,,,,0,0,0,0,,,,,,,,,,,,,,,,,,,,,,,,,,50.0,50.0,50.0,50.0,,,,,,,,,s_042,2,2021_Jan_13_0931,Reversal,3.2.4,60.05464973129501,
0,exp1.png,exp2.png,,,,,,,,,,,,,,,,,2,0,2,0,0,0,0,0,,,,,,,,,True,,,,,,,,,,,,,,,,,,,,,,,,,,,,,,,,,s_042,2,2021_Jan_13_0931,Reversal,3.2.4,60.05464973129501,
1,exp3.png,exp4.png,,,,,,,,,,,,,,,,,2,0,2,0,0,1,1,1,,,,,,,,,False,40,121,True,exp4.png,exp3.png,trial_right_image,-1,exp3.png,2,exp4.png,exp3.png,1,3,reversed,incorrect,0.8775594041460919,0,valid_lose,621.7515688000003,56,,,,,,,,,,,,,s_042,2,2021_Jan_13_0931,Reversal,3.2.4,60.05464973129501,
2,exp1.png,exp2.png,,,,,,,,,,,,,,,,,2,0,2,0,0,2,2,2,,,,,,,,,False,41,122,False,exp1.png,exp2.png,trial_right_image,-1,exp2.png,2,exp1.png,exp2.png,0,2,non-reversed,incorrect,0.22635911791081698,1,invalid_win,626.1679453000006,57,,,,,,,,,,,,,s_042,2,2021_Jan_13_0931,Reversal,3.2.4,60.05464973129501,
3,exp3.png,exp4.png,,,,,,,,,,,,,,,,,2,0,2,0,0,3,3,3,,,,,,,,,False,42,123,False,exp3.png,exp4.png,trial_left_image,1,exp3.png,2,exp4.png,exp3.png,1,3,reversed,incorrect,0.4287716108464311,0,valid_lose,630.3838217000002,57,,,,,,,,,,,,,s_042,2,2021_Jan_13_0931,Reversal,3.2.4,60.05464973129501,
4,exp1.png,exp2.png,,,,,,,,,,,,,,,,,2,0,2,0,0,4,4,4,,,,,,,,,False,43,124,False,exp1.png,exp2.png,trial_right_image,-1,exp2.png,2,exp1.png,exp2.png,0,2,non-reversed,incorrect,0.19339060595655266,1,invalid_win,634.4314029000006,58,,,,,,,,,,,,,s_042,2,2021_Jan_13_0931,Reversal,3.2.4,60.05464973129501,
5,exp3.png,exp4.png,,,,,,,,,,,,,,,,,2,0,2,0,0,5,5,5,,,,,,,,,False,44,125,True,exp4.png,exp3.png,trial_right_image,-1,exp3.png,2,exp4.png,exp3.png,1,3,reversed,incorrect,0.17415431232482315,1,invalid_win,638.3140994000005,59,,,,,,,,,,,,,s_042,2,2021_Jan_13_0931,Reversal,3.2.4,60.05464973129501,
6,exp1.png,exp2.png,,,,,,,,,,,,,,,,,2,0,2,0,0,6,6,6,,,,,,,,,False,45,126,True,exp2.png,exp1.png,trial_right_image,-1,exp1.png,2,exp1.png,exp2.png,1,1,non-reversed,correct,0.7735139907023664,1,valid_win,642.12799,60,,,,,,,,,,,,,s_042,2,2021_Jan_13_0931,Reversal,3.2.4,60.05464973129501,
7,exp3.png,exp4.png,,,,,,,,,,,,,,,,,2,0,2,0,0,7,7,7,,,,,,,,,False,46,127,True,exp4.png,exp3.png,trial_right_image,-1,exp3.png,2,exp4.png,exp3.png,1,3,reversed,incorrect,0.5963786198363713,0,valid_lose,646.0452992,60,,,,,,,,,,,,,s_042,2,2021_Jan_13_0931,Reversal,3.2.4,60.05464973129501,
8,exp1.png,exp2.png,,,,,,,,,,,,,,,,,2,0,2,0,0,8,8,8,,,,,,,,,False,47,128,False,exp1.png,exp2.png,trial_right_image,-1,exp2.png,2,exp1.png,exp2.png,0,2,non-reversed,incorrect,0.6622868257711585,0,valid_lose,650.2259129000004,60,,,,,,,,,,,,,s_042,2,2021_Jan_13_0931,Reversal,3.2.4,60.05464973129501,
9,exp3.png,exp4.png,,,,,,,,,,,,,,,,,2,0,2,0,0,9,9,9,,,,,,,,,False,48,129,True,exp4.png,exp3.png,trial_right_image,-1,exp3.png,2,exp4.png,exp3.png,1,3,reversed,incorrect,0.9400966950851766,0,valid_lose,654.1404143,60,,,,,,,,,,,,,s_042,2,2021_Jan_13_0931,Reversal,3.2.4,60.05464973129501,
10,exp1.png,exp2.png,,,,,,,,,,,,,,,,,2,0,2,0,0,10,10,10,,,,,,,,,False,49,130,True,exp2.png,exp1.png,trial_right_image,-1,exp1.png,2,exp1.png,exp2.png,1,1,non-reversed,correct,0.2849325579973043,1,valid_win,658.3056852,61,,,,,,,,,,,,,s_042,2,2021_Jan_13_0931,Reversal,3.2.4,60.05464973129501,
11,exp3.png,exp4.png,,,,,,,,,,,,,,,,,2,0,2,0,0,11,11,11,,,,,,,,,False,50,131,True,exp4.png,exp3.png,trial_left_image,1,exp4.png,2,exp4.png,exp3.png,0,4,reversed,correct,0.41107497828761275,1,valid_win,663.3044120000004,62,,,,,,,,,,,,,s_042,2,2021_Jan_13_0931,Reversal,3.2.4,60.05464973129501,
12,exp1.png,exp2.png,,,,,,,,,,,,,,,,,2,0,2,0,0,12,12,12,,,,,,,,,False,51,132,False,exp1.png,exp2.png,trial_left_image,1,exp1.png,2,exp1.png,exp2.png,1,1,non-reversed,correct,0.5124669148068465,1,valid_win,667.5372750000006,63,,,,,,,,,,,,,s_042,2,2021_Jan_13_0931,Reversal,3.2.4,60.05464973129501,
13,exp3.png,exp4.png,,,,,,,,,,,,,,,,,2,0,2,0,0,13,13,13,,,,,,,,,False,52,133,False,exp3.png,exp4.png,trial_left_image,1,exp3.png,2,exp4.png,exp3.png,1,3,reversed,incorrect,0.7241552565862546,0,valid_lose,672.1021811999999,63,,,,,,,,,,,,,s_042,2,2021_Jan_13_0931,Reversal,3.2.4,60.05464973129501,
14,exp1.png,exp2.png,,,,,,,,,,,,,,,,,2,0,2,0,0,14,14,14,,,,,,,,,False,53,134,True,exp2.png,exp1.png,trial_left_image,1,exp2.png,2,exp1.png,exp2.png,0,2,non-reversed,incorrect,0.4886820828169014,0,valid_lose,676.2162185000007,63,,,,,,,,,,,,,s_042,2,2021_Jan_13_0931,Reversal,3.2.4,60.05464973129501,
15,exp3.png,exp4.png,,,,,,,,,,,,,,,,,2,0,2,0,0,15,15,15,,,,,,,,,False,54,135,True,exp4.png,exp3.png,trial_right_image,-1,exp3.png,2,exp4.png,exp3.png,1,3,reversed,incorrect,0.12647249472255395,1,invalid_win,680.3645323999999,64,,,,,,,,,,,,,s_042,2,2021_Jan_13_0931,Reversal,3.2.4,60.05464973129501,
16,exp1.png,exp2.png,,,,,,,,,,,,,,,,,2,0,2,0,0,16,16,16,,,,,,,,,False,55,136,False,exp1.png,exp2.png,trial_left_image,1,exp1.png,2,exp1.png,exp2.png,1,1,non-reversed,correct,0.6156481461553749,1,valid_win,684.5472110999999,65,,,,,,,,,,,,,s_042,2,2021_Jan_13_0931,Reversal,3.2.4,60.05464973129501,
17,exp3.png,exp4.png,,,,,,,,,,,,,,,,,2,0,2,0,0,17,17,17,,,,,,,,,False,56,137,False,exp3.png,exp4.png,trial_right_image,-1,exp4.png,2,exp4.png,exp3.png,0,4,reversed,correct,0.38734096435252563,1,valid_win,688.9121617999999,66,,,,,,,,,,,,,s_042,2,2021_Jan_13_0931,Reversal,3.2.4,60.05464973129501,
18,exp1.png,exp2.png,,,,,,,,,,,,,,,,,2,0,2,0,0,18,18,18,,,,,,,,,False,57,138,False,exp1.png,exp2.png,trial_left_image,1,exp1.png,2,exp1.png,exp2.png,1,1,non-reversed,correct,0.2930926991541888,1,valid_win,693.3773270000002,67,,,,,,,,,,,,,s_042,2,2021_Jan_13_0931,Reversal,3.2.4,60.05464973129501,
19,exp3.png,exp4.png,,,,,,,,,,,,,,,,,2,0,2,0,0,19,19,19,,,,,,,,,False,58,139,True,exp4.png,exp3.png,trial_right_image,-1,exp3.png,2,exp4.png,exp3.png,1,3,reversed,incorrect,0.03129972074964482,1,invalid_win,697.6266314000004,68,,,,,,,,,,,,,s_042,2,2021_Jan_13_0931,Reversal,3.2.4,60.05464973129501,
20,exp1.png,exp2.png,,,,,,,,,,,,,,,,,2,0,2,0,0,20,20,20,,,,,,,,,False,59,140,False,exp1.png,exp2.png,trial_right_image,-1,exp2.png,2,exp1.png,exp2.png,0,2,non-reversed,incorrect,0.2816960019574203,0,valid_lose,701.4926491000006,68,,,,,,,,,,,,,s_042,2,2021_Jan_13_0931,Reversal,3.2.4,60.05464973129501,
,,,,,,,,,,,,,,,,,,,2,0,2,0,,,,,0,0,0,0,,,,,,,,,,,,,,,,,,,,,,,,,,50.0,50.0,50.0,50.0,,,,,,,,,s_042,2,2021_Jan_13_0931,Reversal,3.2.4,60.05464973129501,
,,,,,,,,,,,,,,,,,,,,,,,,,,,,,,,,,,,,,,,,,,,,,,,,,,,,,,,68,,,,,,64,40,24,274.8609454999996,1,space,25.672848799999883,s_042,2,2021_Jan_13_0931,Reversal,3.2.4,60.05464973129501,
