trial_index,trial_image1_file,trial_image2_file,learning_outer_loop.thisRepN,learning_outer_loop.thisTrialN,learning_outer_loop.thisN,learning_outer_loop.thisIndex,learning_inner_loop.thisRepN,learning_inner_loop.thisTrialN,learning_inner_loop.thisN,learning_inner_loop.thisIndex,learning_estimation_outer_loop.thisRepN,learning_estimation_outer_loop.thisTrialN,learning_estimation_outer_loop.thisN,learning_estimation_outer_loop.thisIndex,learning_estimation_inner_loop.thisRepN,learning_estimation_inner_loop.thisTrialN,learning_estimation_inner_loop.thisN,learning_estimation_inner_loop.thisIndex,reversal_outer_loop.thisRepN,reversal_outer_loop.thisTrialN,reversal_outer_loop.thisN,reversal_outer_loop.thisIndex,reversal_inner_loop.thisRepN,reversal_inner_loop.thisTrialN,reversal_inner_loop.thisN,reversal_inner_loop.thisIndex,reversal_estimation_outer_loop.thisRepN,reversal_estimation_outer_loop.thisTrialN,reversal_estimation_outer_loop.thisN,reversal_estimation_outer_loop.thisIndex,reversal_estimation_inner_loop.thisRepN,reversal_estimation_inner_loop.thisTrialN,reversal_estimation_inner_loop.thisN,reversal_estimation_inner_loop.thisIndex,skipped,total_trial_counter,trial_num,left_right_flip,left_image_file,right_image_file,clicked_stimulus_side,side,clicked_stimulus,version,high_prob_image_file,low_prob_image_file,choice_a,choice_b,pair_type,correct,trial_feedback_random,reward,trial_type,overall_time_after_trial,score,estimation_exp1.png,estimation_exp2.png,estimation_exp3.png,estimation_exp4.png,total_learning_time,total_correct,learning_correct,reversal_correct,total_reversal_time,extra_block,participant,ver,date,expName,psychopyVersion,frameRate,
0,exp1.png,exp2.png,0,0,0,0,0,0,0,0,,,,,,,,,,,,,,,,,,,,,,,,,True,,,,,,,,,,,,,,,,,,,,,,,,,,,,,,,s_049,1,2021_Jan_26_1307,Reversal,3.2.4,59.96426130735908,
1,exp3.png,exp4.png,0,0,0,0,0,1,1,1,,,,,,,,,,,,,,,,,,,,,,,,,False,0,1,False,exp3.png,exp4.png,trial_right_image,-1,exp4.png,1,exp3.png,exp4.png,0,2,non-reversed,incorrect,0.5731751527159621,0,valid_lose,7.211167200002819,0,,,,,,,,,,,s_049,1,2021_Jan_26_1307,Reversal,3.2.4,59.96426130735908,
2,exp1.png,exp2.png,0,0,0,0,0,2,2,2,,,,,,,,,,,,,,,,,,,,,,,,,False,1,2,False,exp1.png,exp2.png,trial_left_image,1,exp1.png,1,exp1.png,exp2.png,1,3,reversed,correct,0.5059518071399363,1,valid_win,19.406767300097272,1,,,,,,,,,,,s_049,1,2021_Jan_26_1307,Reversal,3.2.4,59.96426130735908,
3,exp3.png,exp4.png,0,0,0,0,0,3,3,3,,,,,,,,,,,,,,,,,,,,,,,,,False,2,3,True,exp4.png,exp3.png,trial_right_image,-1,exp3.png,1,exp3.png,exp4.png,1,1,non-reversed,correct,0.28167084109667595,1,valid_win,32.751036199973896,2,,,,,,,,,,,s_049,1,2021_Jan_26_1307,Reversal,3.2.4,59.96426130735908,
4,exp1.png,exp2.png,0,0,0,0,0,4,4,4,,,,,,,,,,,,,,,,,,,,,,,,,False,3,4,False,exp1.png,exp2.png,trial_left_image,1,exp1.png,1,exp1.png,exp2.png,1,3,reversed,correct,0.8049386174156673,1,valid_win,43.36496830009855,3,,,,,,,,,,,s_049,1,2021_Jan_26_1307,Reversal,3.2.4,59.96426130735908,
5,exp3.png,exp4.png,0,0,0,0,0,5,5,5,,,,,,,,,,,,,,,,,,,,,,,,,False,4,5,True,exp4.png,exp3.png,trial_right_image,-1,exp3.png,1,exp3.png,exp4.png,1,1,non-reversed,correct,0.11783623481244487,0,invalid_lose,52.16267849993892,3,,,,,,,,,,,s_049,1,2021_Jan_26_1307,Reversal,3.2.4,59.96426130735908,
6,exp1.png,exp2.png,0,0,0,0,0,6,6,6,,,,,,,,,,,,,,,,,,,,,,,,,False,5,6,False,exp1.png,exp2.png,trial_right_image,-1,exp2.png,1,exp1.png,exp2.png,0,4,reversed,incorrect,0.5778418351013139,0,valid_lose,68.1238351999782,3,,,,,,,,,,,s_049,1,2021_Jan_26_1307,Reversal,3.2.4,59.96426130735908,
7,exp3.png,exp4.png,0,0,0,0,0,7,7,7,,,,,,,,,,,,,,,,,,,,,,,,,False,6,7,True,exp4.png,exp3.png,trial_right_image,-1,exp3.png,1,exp3.png,exp4.png,1,1,non-reversed,correct,0.8180735307246952,1,valid_win,76.5036897000391,4,,,,,,,,,,,s_049,1,2021_Jan_26_1307,Reversal,3.2.4,59.96426130735908,
8,exp1.png,exp2.png,0,0,0,0,0,8,8,8,,,,,,,,,,,,,,,,,,,,,,,,,False,7,8,False,exp1.png,exp2.png,trial_left_image,1,exp1.png,1,exp1.png,exp2.png,1,3,reversed,correct,0.1607882510893821,0,invalid_lose,86.50119270011783,4,,,,,,,,,,,s_049,1,2021_Jan_26_1307,Reversal,3.2.4,59.96426130735908,
9,exp3.png,exp4.png,0,0,0,0,0,9,9,9,,,,,,,,,,,,,,,,,,,,,,,,,False,8,9,False,exp3.png,exp4.png,trial_right_image,-1,exp4.png,1,exp3.png,exp4.png,0,2,non-reversed,incorrect,0.6379848414525348,0,valid_lose,96.99630820006132,4,,,,,,,,,,,s_049,1,2021_Jan_26_1307,Reversal,3.2.4,59.96426130735908,
10,exp1.png,exp2.png,0,0,0,0,0,10,10,10,,,,,,,,,,,,,,,,,,,,,,,,,False,9,10,True,exp2.png,exp1.png,trial_right_image,-1,exp1.png,1,exp1.png,exp2.png,1,3,reversed,correct,0.27036139357000655,1,valid_win,104.36049330001697,5,,,,,,,,,,,s_049,1,2021_Jan_26_1307,Reversal,3.2.4,59.96426130735908,
11,exp3.png,exp4.png,0,0,0,0,0,11,11,11,,,,,,,,,,,,,,,,,,,,,,,,,False,10,11,True,exp4.png,exp3.png,trial_right_image,-1,exp3.png,1,exp3.png,exp4.png,1,1,non-reversed,correct,0.38050678745446564,1,valid_win,112.27503879996948,6,,,,,,,,,,,s_049,1,2021_Jan_26_1307,Reversal,3.2.4,59.96426130735908,
12,exp1.png,exp2.png,0,0,0,0,0,12,12,12,,,,,,,,,,,,,,,,,,,,,,,,,False,11,12,True,exp2.png,exp1.png,trial_right_image,-1,exp1.png,1,exp1.png,exp2.png,1,3,reversed,correct,0.4112183927327603,1,valid_win,119.6723706999328,7,,,,,,,,,,,s_049,1,2021_Jan_26_1307,Reversal,3.2.4,59.96426130735908,
13,exp3.png,exp4.png,0,0,0,0,0,13,13,13,,,,,,,,,,,,,,,,,,,,,,,,,False,12,13,True,exp4.png,exp3.png,trial_right_image,-1,exp3.png,1,exp3.png,exp4.png,1,1,non-reversed,correct,0.7225638305513947,1,valid_win,127.98738780012354,8,,,,,,,,,,,s_049,1,2021_Jan_26_1307,Reversal,3.2.4,59.96426130735908,
14,exp1.png,exp2.png,0,0,0,0,0,14,14,14,,,,,,,,,,,,,,,,,,,,,,,,,False,13,14,True,exp2.png,exp1.png,trial_right_image,-1,exp1.png,1,exp1.png,exp2.png,1,3,reversed,correct,0.4278912112461799,1,valid_win,136.1671271000523,9,,,,,,,,,,,s_049,1,2021_Jan_26_1307,Reversal,3.2.4,59.96426130735908,
15,exp3.png,exp4.png,0,0,0,0,0,15,15,15,,,,,,,,,,,,,,,,,,,,,,,,,False,14,15,True,exp4.png,exp3.png,trial_right_image,-1,exp3.png,1,exp3.png,exp4.png,1,1,non-reversed,correct,0.5605304442615758,1,valid_win,142.31522410013713,10,,,,,,,,,,,s_049,1,2021_Jan_26_1307,Reversal,3.2.4,59.96426130735908,
16,exp1.png,exp2.png,0,0,0,0,0,16,16,16,,,,,,,,,,,,,,,,,,,,,,,,,False,15,16,True,exp2.png,exp1.png,trial_right_image,-1,exp1.png,1,exp1.png,exp2.png,1,3,reversed,correct,0.538526457733451,1,valid_win,148.46201530005783,11,,,,,,,,,,,s_049,1,2021_Jan_26_1307,Reversal,3.2.4,59.96426130735908,
17,exp3.png,exp4.png,0,0,0,0,0,17,17,17,,,,,,,,,,,,,,,,,,,,,,,,,False,16,17,False,exp3.png,exp4.png,trial_left_image,1,exp3.png,1,exp3.png,exp4.png,1,1,non-reversed,correct,0.8279951881396074,1,valid_win,153.5780700999312,12,,,,,,,,,,,s_049,1,2021_Jan_26_1307,Reversal,3.2.4,59.96426130735908,
18,exp1.png,exp2.png,0,0,0,0,0,18,18,18,,,,,,,,,,,,,,,,,,,,,,,,,False,17,18,False,exp1.png,exp2.png,trial_left_image,1,exp1.png,1,exp1.png,exp2.png,1,3,reversed,correct,0.026840270275616418,0,invalid_lose,159.45977209997363,12,,,,,,,,,,,s_049,1,2021_Jan_26_1307,Reversal,3.2.4,59.96426130735908,
19,exp3.png,exp4.png,0,0,0,0,0,19,19,19,,,,,,,,,,,,,,,,,,,,,,,,,False,18,19,False,exp3.png,exp4.png,trial_left_image,1,exp3.png,1,exp3.png,exp4.png,1,1,non-reversed,correct,0.05236083208217812,0,invalid_lose,171.05509830010124,12,,,,,,,,,,,s_049,1,2021_Jan_26_1307,Reversal,3.2.4,59.96426130735908,
20,exp1.png,exp2.png,0,0,0,0,0,20,20,20,,,,,,,,,,,,,,,,,,,,,,,,,False,19,20,False,exp1.png,exp2.png,trial_right_image,-1,exp2.png,1,exp1.png,exp2.png,0,4,reversed,incorrect,0.4953282260961622,0,valid_lose,185.93258820008487,12,,,,,,,,,,,s_049,1,2021_Jan_26_1307,Reversal,3.2.4,59.96426130735908,
,,,0,0,0,0,,,,,0,0,0,0,,,,,,,,,,,,,,,,,,,,,,,,,,,,,,,,,,,,,,,,,,80,22,75,30,,,,,,,s_049,1,2021_Jan_26_1307,Reversal,3.2.4,59.96426130735908,
0,exp1.png,exp2.png,1,0,1,0,0,0,0,0,,,,,,,,,,,,,,,,,,,,,,,,,True,,,,,,,,,,,,,,,,,,,,,,,,,,,,,,,s_049,1,2021_Jan_26_1307,Reversal,3.2.4,59.96426130735908,
1,exp3.png,exp4.png,1,0,1,0,0,1,1,1,,,,,,,,,,,,,,,,,,,,,,,,,False,20,21,True,exp4.png,exp3.png,trial_right_image,-1,exp3.png,1,exp3.png,exp4.png,1,1,non-reversed,correct,0.783017700842069,1,valid_win,217.75521740014665,13,,,,,,,,,,,s_049,1,2021_Jan_26_1307,Reversal,3.2.4,59.96426130735908,
2,exp1.png,exp2.png,1,0,1,0,0,2,2,2,,,,,,,,,,,,,,,,,,,,,,,,,False,21,22,True,exp2.png,exp1.png,trial_right_image,-1,exp1.png,1,exp1.png,exp2.png,1,3,reversed,correct,0.977727920309115,1,valid_win,223.92088240012527,14,,,,,,,,,,,s_049,1,2021_Jan_26_1307,Reversal,3.2.4,59.96426130735908,
3,exp3.png,exp4.png,1,0,1,0,0,3,3,3,,,,,,,,,,,,,,,,,,,,,,,,,False,22,23,False,exp3.png,exp4.png,trial_left_image,1,exp3.png,1,exp3.png,exp4.png,1,1,non-reversed,correct,0.1692091422889026,0,invalid_lose,229.90139949996956,14,,,,,,,,,,,s_049,1,2021_Jan_26_1307,Reversal,3.2.4,59.96426130735908,
4,exp1.png,exp2.png,1,0,1,0,0,4,4,4,,,,,,,,,,,,,,,,,,,,,,,,,False,23,24,True,exp2.png,exp1.png,trial_right_image,-1,exp1.png,1,exp1.png,exp2.png,1,3,reversed,correct,0.27723231182023356,1,valid_win,235.26676449994557,15,,,,,,,,,,,s_049,1,2021_Jan_26_1307,Reversal,3.2.4,59.96426130735908,
5,exp3.png,exp4.png,1,0,1,0,0,5,5,5,,,,,,,,,,,,,,,,,,,,,,,,,False,24,25,False,exp3.png,exp4.png,trial_left_image,1,exp3.png,1,exp3.png,exp4.png,1,1,non-reversed,correct,0.9418251191648599,1,valid_win,247.64635049994104,16,,,,,,,,,,,s_049,1,2021_Jan_26_1307,Reversal,3.2.4,59.96426130735908,
6,exp1.png,exp2.png,1,0,1,0,0,6,6,6,,,,,,,,,,,,,,,,,,,,,,,,,False,25,26,False,exp1.png,exp2.png,trial_left_image,1,exp1.png,1,exp1.png,exp2.png,1,3,reversed,correct,0.513943826268654,1,valid_win,252.97641060012393,17,,,,,,,,,,,s_049,1,2021_Jan_26_1307,Reversal,3.2.4,59.96426130735908,
7,exp3.png,exp4.png,1,0,1,0,0,7,7,7,,,,,,,,,,,,,,,,,,,,,,,,,False,26,27,True,exp4.png,exp3.png,trial_right_image,-1,exp3.png,1,exp3.png,exp4.png,1,1,non-reversed,correct,0.977083641189578,1,valid_win,259.17554210009985,18,,,,,,,,,,,s_049,1,2021_Jan_26_1307,Reversal,3.2.4,59.96426130735908,
8,exp1.png,exp2.png,1,0,1,0,0,8,8,8,,,,,,,,,,,,,,,,,,,,,,,,,False,27,28,False,exp1.png,exp2.png,trial_left_image,1,exp1.png,1,exp1.png,exp2.png,1,3,reversed,correct,0.6597564474244499,1,valid_win,264.8909779000096,19,,,,,,,,,,,s_049,1,2021_Jan_26_1307,Reversal,3.2.4,59.96426130735908,
9,exp3.png,exp4.png,1,0,1,0,0,9,9,9,,,,,,,,,,,,,,,,,,,,,,,,,False,28,29,True,exp4.png,exp3.png,trial_right_image,-1,exp3.png,1,exp3.png,exp4.png,1,1,non-reversed,correct,0.7308055955194906,1,valid_win,271.23823820007965,20,,,,,,,,,,,s_049,1,2021_Jan_26_1307,Reversal,3.2.4,59.96426130735908,
10,exp1.png,exp2.png,1,0,1,0,0,10,10,10,,,,,,,,,,,,,,,,,,,,,,,,,False,29,30,False,exp1.png,exp2.png,trial_left_image,1,exp1.png,1,exp1.png,exp2.png,1,3,reversed,correct,0.5770682380880495,1,valid_win,276.2685203999281,21,,,,,,,,,,,s_049,1,2021_Jan_26_1307,Reversal,3.2.4,59.96426130735908,
11,exp3.png,exp4.png,1,0,1,0,0,11,11,11,,,,,,,,,,,,,,,,,,,,,,,,,False,30,31,True,exp4.png,exp3.png,trial_right_image,-1,exp3.png,1,exp3.png,exp4.png,1,1,non-reversed,correct,0.5421714918936923,1,valid_win,280.95068380003795,22,,,,,,,,,,,s_049,1,2021_Jan_26_1307,Reversal,3.2.4,59.96426130735908,
12,exp1.png,exp2.png,1,0,1,0,0,12,12,12,,,,,,,,,,,,,,,,,,,,,,,,,False,31,32,False,exp1.png,exp2.png,trial_left_image,1,exp1.png,1,exp1.png,exp2.png,1,3,reversed,correct,0.8353628888356095,1,valid_win,286.5995193000417,23,,,,,,,,,,,s_049,1,2021_Jan_26_1307,Reversal,3.2.4,59.96426130735908,
13,exp3.png,exp4.png,1,0,1,0,0,13,13,13,,,,,,,,,,,,,,,,,,,,,,,,,False,32,33,True,exp4.png,exp3.png,trial_right_image,-1,exp3.png,1,exp3.png,exp4.png,1,1,non-reversed,correct,0.19596991065207936,0,invalid_lose,291.43139649997465,23,,,,,,,,,,,s_049,1,2021_Jan_26_1307,Reversal,3.2.4,59.96426130735908,
14,exp1.png,exp2.png,1,0,1,0,0,14,14,14,,,,,,,,,,,,,,,,,,,,,,,,,False,33,34,True,exp2.png,exp1.png,trial_right_image,-1,exp1.png,1,exp1.png,exp2.png,1,3,reversed,correct,0.32843893628199783,1,valid_win,296.3298446999397,24,,,,,,,,,,,s_049,1,2021_Jan_26_1307,Reversal,3.2.4,59.96426130735908,
15,exp3.png,exp4.png,1,0,1,0,0,15,15,15,,,,,,,,,,,,,,,,,,,,,,,,,False,34,35,False,exp3.png,exp4.png,trial_left_image,1,exp3.png,1,exp3.png,exp4.png,1,1,non-reversed,correct,0.028202840138062624,0,invalid_lose,303.2939408000093,24,,,,,,,,,,,s_049,1,2021_Jan_26_1307,Reversal,3.2.4,59.96426130735908,
16,exp1.png,exp2.png,1,0,1,0,0,16,16,16,,,,,,,,,,,,,,,,,,,,,,,,,False,35,36,True,exp2.png,exp1.png,trial_right_image,-1,exp1.png,1,exp1.png,exp2.png,1,3,reversed,correct,0.8278497391701164,1,valid_win,308.0254657000769,25,,,,,,,,,,,s_049,1,2021_Jan_26_1307,Reversal,3.2.4,59.96426130735908,
17,exp3.png,exp4.png,1,0,1,0,0,17,17,17,,,,,,,,,,,,,,,,,,,,,,,,,False,36,37,True,exp4.png,exp3.png,trial_left_image,1,exp4.png,1,exp3.png,exp4.png,0,2,non-reversed,incorrect,0.43145756270685065,0,valid_lose,314.54113400005735,25,,,,,,,,,,,s_049,1,2021_Jan_26_1307,Reversal,3.2.4,59.96426130735908,
18,exp1.png,exp2.png,1,0,1,0,0,18,18,18,,,,,,,,,,,,,,,,,,,,,,,,,False,37,38,False,exp1.png,exp2.png,trial_left_image,1,exp1.png,1,exp1.png,exp2.png,1,3,reversed,correct,0.15970981854249333,0,invalid_lose,319.50499120005406,25,,,,,,,,,,,s_049,1,2021_Jan_26_1307,Reversal,3.2.4,59.96426130735908,
19,exp3.png,exp4.png,1,0,1,0,0,19,19,19,,,,,,,,,,,,,,,,,,,,,,,,,False,38,39,False,exp3.png,exp4.png,trial_right_image,-1,exp4.png,1,exp3.png,exp4.png,0,2,non-reversed,incorrect,0.5847378088048881,0,valid_lose,324.3199954999145,25,,,,,,,,,,,s_049,1,2021_Jan_26_1307,Reversal,3.2.4,59.96426130735908,
20,exp1.png,exp2.png,1,0,1,0,0,20,20,20,,,,,,,,,,,,,,,,,,,,,,,,,False,39,40,False,exp1.png,exp2.png,trial_left_image,1,exp1.png,1,exp1.png,exp2.png,1,3,reversed,correct,0.7702932533113156,1,valid_win,332.5502847000025,26,,,,,,,,,,,s_049,1,2021_Jan_26_1307,Reversal,3.2.4,59.96426130735908,
,,,1,0,1,0,,,,,0,0,0,0,,,,,,,,,,,,,,,,,,,,,,,,,,,,,,,,,,,,,,,,,,92,29,60,24,,,,,,,s_049,1,2021_Jan_26_1307,Reversal,3.2.4,59.96426130735908,
0,exp1.png,exp2.png,2,0,2,0,0,0,0,0,,,,,,,,,,,,,,,,,,,,,,,,,True,,,,,,,,,,,,,,,,,,,,,,,,,,,,,,,s_049,1,2021_Jan_26_1307,Reversal,3.2.4,59.96426130735908,
1,exp3.png,exp4.png,2,0,2,0,0,1,1,1,,,,,,,,,,,,,,,,,,,,,,,,,False,40,41,False,exp3.png,exp4.png,trial_left_image,1,exp3.png,1,exp3.png,exp4.png,1,1,non-reversed,correct,0.22287890690903323,0,invalid_lose,354.04316300014034,26,,,,,,,,,,,s_049,1,2021_Jan_26_1307,Reversal,3.2.4,59.96426130735908,
2,exp1.png,exp2.png,2,0,2,0,0,2,2,2,,,,,,,,,,,,,,,,,,,,,,,,,False,41,42,True,exp2.png,exp1.png,trial_right_image,-1,exp1.png,1,exp1.png,exp2.png,1,3,reversed,correct,0.20466477734654454,0,invalid_lose,360.24174530012533,26,,,,,,,,,,,s_049,1,2021_Jan_26_1307,Reversal,3.2.4,59.96426130735908,
3,exp3.png,exp4.png,2,0,2,0,0,3,3,3,,,,,,,,,,,,,,,,,,,,,,,,,False,42,43,True,exp4.png,exp3.png,trial_left_image,1,exp4.png,1,exp3.png,exp4.png,0,2,non-reversed,incorrect,0.4323336797119771,0,valid_lose,366.68756949994713,26,,,,,,,,,,,s_049,1,2021_Jan_26_1307,Reversal,3.2.4,59.96426130735908,
4,exp1.png,exp2.png,2,0,2,0,0,4,4,4,,,,,,,,,,,,,,,,,,,,,,,,,False,43,44,False,exp1.png,exp2.png,trial_left_image,1,exp1.png,1,exp1.png,exp2.png,1,3,reversed,correct,0.137765132475952,0,invalid_lose,385.48219850007445,26,,,,,,,,,,,s_049,1,2021_Jan_26_1307,Reversal,3.2.4,59.96426130735908,
5,exp3.png,exp4.png,2,0,2,0,0,5,5,5,,,,,,,,,,,,,,,,,,,,,,,,,False,44,45,True,exp4.png,exp3.png,trial_left_image,1,exp4.png,1,exp3.png,exp4.png,0,2,non-reversed,incorrect,0.08543732193568265,1,invalid_win,392.11332869995385,27,,,,,,,,,,,s_049,1,2021_Jan_26_1307,Reversal,3.2.4,59.96426130735908,
6,exp1.png,exp2.png,2,0,2,0,0,6,6,6,,,,,,,,,,,,,,,,,,,,,,,,,False,45,46,False,exp1.png,exp2.png,trial_right_image,-1,exp2.png,1,exp1.png,exp2.png,0,4,reversed,incorrect,0.25211784856487207,0,valid_lose,397.1116468999535,27,,,,,,,,,,,s_049,1,2021_Jan_26_1307,Reversal,3.2.4,59.96426130735908,
7,exp3.png,exp4.png,2,0,2,0,0,7,7,7,,,,,,,,,,,,,,,,,,,,,,,,,False,46,47,False,exp3.png,exp4.png,trial_right_image,-1,exp4.png,1,exp3.png,exp4.png,0,2,non-reversed,incorrect,0.3385804645892928,0,valid_lose,402.6104592999909,27,,,,,,,,,,,s_049,1,2021_Jan_26_1307,Reversal,3.2.4,59.96426130735908,
8,exp1.png,exp2.png,2,0,2,0,0,8,8,8,,,,,,,,,,,,,,,,,,,,,,,,,False,47,48,False,exp1.png,exp2.png,trial_left_image,1,exp1.png,1,exp1.png,exp2.png,1,3,reversed,correct,0.1929759464187809,0,invalid_lose,416.33863670006394,27,,,,,,,,,,,s_049,1,2021_Jan_26_1307,Reversal,3.2.4,59.96426130735908,
9,exp3.png,exp4.png,2,0,2,0,0,9,9,9,,,,,,,,,,,,,,,,,,,,,,,,,False,48,49,True,exp4.png,exp3.png,trial_left_image,1,exp4.png,1,exp3.png,exp4.png,0,2,non-reversed,incorrect,0.2670530714189818,0,valid_lose,427.0522428001277,27,,,,,,,,,,,s_049,1,2021_Jan_26_1307,Reversal,3.2.4,59.96426130735908,
10,exp1.png,exp2.png,2,0,2,0,0,10,10,10,,,,,,,,,,,,,,,,,,,,,,,,,False,49,50,False,exp1.png,exp2.png,trial_right_image,-1,exp2.png,1,exp1.png,exp2.png,0,4,reversed,incorrect,0.6232327888925576,0,valid_lose,435.2326961001381,27,,,,,,,,,,,s_049,1,2021_Jan_26_1307,Reversal,3.2.4,59.96426130735908,
11,exp3.png,exp4.png,2,0,2,0,0,11,11,11,,,,,,,,,,,,,,,,,,,,,,,,,False,50,51,True,exp4.png,exp3.png,trial_left_image,1,exp4.png,1,exp3.png,exp4.png,0,2,non-reversed,incorrect,0.8410538278879949,0,valid_lose,446.3790746999439,27,,,,,,,,,,,s_049,1,2021_Jan_26_1307,Reversal,3.2.4,59.96426130735908,
12,exp1.png,exp2.png,2,0,2,0,0,12,12,12,,,,,,,,,,,,,,,,,,,,,,,,,False,51,52,False,exp1.png,exp2.png,trial_right_image,-1,exp2.png,1,exp1.png,exp2.png,0,4,reversed,incorrect,0.8192316188483584,0,valid_lose,454.9416682999581,27,,,,,,,,,,,s_049,1,2021_Jan_26_1307,Reversal,3.2.4,59.96426130735908,
13,exp3.png,exp4.png,2,0,2,0,0,13,13,13,,,,,,,,,,,,,,,,,,,,,,,,,False,52,53,False,exp3.png,exp4.png,trial_left_image,1,exp3.png,1,exp3.png,exp4.png,1,1,non-reversed,correct,0.6359064052892753,1,valid_win,459.3407056001015,28,,,,,,,,,,,s_049,1,2021_Jan_26_1307,Reversal,3.2.4,59.96426130735908,
14,exp1.png,exp2.png,2,0,2,0,0,14,14,14,,,,,,,,,,,,,,,,,,,,,,,,,False,53,54,True,exp2.png,exp1.png,trial_right_image,-1,exp1.png,1,exp1.png,exp2.png,1,3,reversed,correct,0.1177104598104054,0,invalid_lose,465.1555228000507,28,,,,,,,,,,,s_049,1,2021_Jan_26_1307,Reversal,3.2.4,59.96426130735908,
15,exp3.png,exp4.png,2,0,2,0,0,15,15,15,,,,,,,,,,,,,,,,,,,,,,,,,False,54,55,False,exp3.png,exp4.png,trial_left_image,1,exp3.png,1,exp3.png,exp4.png,1,1,non-reversed,correct,0.7873418699731289,1,valid_win,470.20445650001056,29,,,,,,,,,,,s_049,1,2021_Jan_26_1307,Reversal,3.2.4,59.96426130735908,
16,exp1.png,exp2.png,2,0,2,0,0,16,16,16,,,,,,,,,,,,,,,,,,,,,,,,,False,55,56,True,exp2.png,exp1.png,trial_left_image,1,exp2.png,1,exp1.png,exp2.png,0,4,reversed,incorrect,0.09856910147079623,1,invalid_win,475.83508790005,30,,,,,,,,,,,s_049,1,2021_Jan_26_1307,Reversal,3.2.4,59.96426130735908,
17,exp3.png,exp4.png,2,0,2,0,0,17,17,17,,,,,,,,,,,,,,,,,,,,,,,,,False,56,57,True,exp4.png,exp3.png,trial_right_image,-1,exp3.png,1,exp3.png,exp4.png,1,1,non-reversed,correct,0.8627709579229187,1,valid_win,481.23236349993385,31,,,,,,,,,,,s_049,1,2021_Jan_26_1307,Reversal,3.2.4,59.96426130735908,
18,exp1.png,exp2.png,2,0,2,0,0,18,18,18,,,,,,,,,,,,,,,,,,,,,,,,,False,57,58,True,exp2.png,exp1.png,trial_left_image,1,exp2.png,1,exp1.png,exp2.png,0,4,reversed,incorrect,0.30989906107158716,0,valid_lose,489.79678480001166,31,,,,,,,,,,,s_049,1,2021_Jan_26_1307,Reversal,3.2.4,59.96426130735908,
19,exp3.png,exp4.png,2,0,2,0,0,19,19,19,,,,,,,,,,,,,,,,,,,,,,,,,False,58,59,True,exp4.png,exp3.png,trial_right_image,-1,exp3.png,1,exp3.png,exp4.png,1,1,non-reversed,correct,0.9600981232342698,1,valid_win,494.84581320011057,32,,,,,,,,,,,s_049,1,2021_Jan_26_1307,Reversal,3.2.4,59.96426130735908,
20,exp1.png,exp2.png,2,0,2,0,0,20,20,20,,,,,,,,,,,,,,,,,,,,,,,,,False,59,60,False,exp1.png,exp2.png,trial_right_image,-1,exp2.png,1,exp1.png,exp2.png,0,4,reversed,incorrect,0.9299522260903507,0,valid_lose,501.9096719000954,32,,,,,,,,,,,s_049,1,2021_Jan_26_1307,Reversal,3.2.4,59.96426130735908,
,,,2,0,2,0,,,,,0,0,0,0,,,,,,,,,,,,,,,,,,,,,,,,,,,,,,,,,,,,,,,,,,62,74,96,53,,,,,,,s_049,1,2021_Jan_26_1307,Reversal,3.2.4,59.96426130735908,
0,exp1.png,exp2.png,3,0,3,0,0,0,0,0,,,,,,,,,,,,,,,,,,,,,,,,,True,,,,,,,,,,,,,,,,,,,,,,,,,,,,,,,s_049,1,2021_Jan_26_1307,Reversal,3.2.4,59.96426130735908,
1,exp3.png,exp4.png,3,0,3,0,0,1,1,1,,,,,,,,,,,,,,,,,,,,,,,,,False,60,61,False,exp3.png,exp4.png,trial_left_image,1,exp3.png,1,exp3.png,exp4.png,1,1,non-reversed,correct,0.6786148550794358,1,valid_win,526.7178386999294,33,,,,,,,,,,,s_049,1,2021_Jan_26_1307,Reversal,3.2.4,59.96426130735908,
2,exp1.png,exp2.png,3,0,3,0,0,2,2,2,,,,,,,,,,,,,,,,,,,,,,,,,False,61,62,True,exp2.png,exp1.png,trial_right_image,-1,exp1.png,1,exp1.png,exp2.png,1,3,reversed,correct,0.6496542208742844,1,valid_win,535.5310986000113,34,,,,,,,,,,,s_049,1,2021_Jan_26_1307,Reversal,3.2.4,59.96426130735908,
3,exp3.png,exp4.png,3,0,3,0,0,3,3,3,,,,,,,,,,,,,,,,,,,,,,,,,False,62,63,False,exp3.png,exp4.png,trial_left_image,1,exp3.png,1,exp3.png,exp4.png,1,1,non-reversed,correct,0.2767040111569987,1,valid_win,540.8955896000843,35,,,,,,,,,,,s_049,1,2021_Jan_26_1307,Reversal,3.2.4,59.96426130735908,
4,exp1.png,exp2.png,3,0,3,0,0,4,4,4,,,,,,,,,,,,,,,,,,,,,,,,,False,63,64,False,exp1.png,exp2.png,trial_right_image,-1,exp2.png,1,exp1.png,exp2.png,0,4,reversed,incorrect,0.1606650241465779,1,invalid_win,552.5093908000272,36,,,,,,,,,,,s_049,1,2021_Jan_26_1307,Reversal,3.2.4,59.96426130735908,
5,exp3.png,exp4.png,3,0,3,0,0,5,5,5,,,,,,,,,,,,,,,,,,,,,,,,,False,64,65,False,exp3.png,exp4.png,trial_left_image,1,exp3.png,1,exp3.png,exp4.png,1,1,non-reversed,correct,0.27175214100523326,1,valid_win,557.7739965000656,37,,,,,,,,,,,s_049,1,2021_Jan_26_1307,Reversal,3.2.4,59.96426130735908,
6,exp1.png,exp2.png,3,0,3,0,0,6,6,6,,,,,,,,,,,,,,,,,,,,,,,,,False,65,66,True,exp2.png,exp1.png,trial_left_image,1,exp2.png,1,exp1.png,exp2.png,0,4,reversed,incorrect,0.5324755991546243,0,valid_lose,563.9210773999803,37,,,,,,,,,,,s_049,1,2021_Jan_26_1307,Reversal,3.2.4,59.96426130735908,
7,exp3.png,exp4.png,3,0,3,0,0,7,7,7,,,,,,,,,,,,,,,,,,,,,,,,,False,66,67,False,exp3.png,exp4.png,trial_left_image,1,exp3.png,1,exp3.png,exp4.png,1,1,non-reversed,correct,0.7089366927657625,1,valid_win,568.8859842999373,38,,,,,,,,,,,s_049,1,2021_Jan_26_1307,Reversal,3.2.4,59.96426130735908,
8,exp1.png,exp2.png,3,0,3,0,0,8,8,8,,,,,,,,,,,,,,,,,,,,,,,,,False,67,68,True,exp2.png,exp1.png,trial_right_image,-1,exp1.png,1,exp1.png,exp2.png,1,3,reversed,correct,0.12987824342908916,0,invalid_lose,574.5348390000872,38,,,,,,,,,,,s_049,1,2021_Jan_26_1307,Reversal,3.2.4,59.96426130735908,
9,exp3.png,exp4.png,3,0,3,0,0,9,9,9,,,,,,,,,,,,,,,,,,,,,,,,,False,68,69,True,exp4.png,exp3.png,trial_right_image,-1,exp3.png,1,exp3.png,exp4.png,1,1,non-reversed,correct,0.9968829351901779,1,valid_win,579.5159440001007,39,,,,,,,,,,,s_049,1,2021_Jan_26_1307,Reversal,3.2.4,59.96426130735908,
10,exp1.png,exp2.png,3,0,3,0,0,10,10,10,,,,,,,,,,,,,,,,,,,,,,,,,False,69,70,False,exp1.png,exp2.png,trial_right_image,-1,exp2.png,1,exp1.png,exp2.png,0,4,reversed,incorrect,0.2832491113121858,0,valid_lose,588.9140914001036,39,,,,,,,,,,,s_049,1,2021_Jan_26_1307,Reversal,3.2.4,59.96426130735908,
11,exp3.png,exp4.png,3,0,3,0,0,11,11,11,,,,,,,,,,,,,,,,,,,,,,,,,False,70,71,True,exp4.png,exp3.png,trial_right_image,-1,exp3.png,1,exp3.png,exp4.png,1,1,non-reversed,correct,0.2635432085018098,1,valid_win,594.194888100028,40,,,,,,,,,,,s_049,1,2021_Jan_26_1307,Reversal,3.2.4,59.96426130735908,
12,exp1.png,exp2.png,3,0,3,0,0,12,12,12,,,,,,,,,,,,,,,,,,,,,,,,,False,71,72,False,exp1.png,exp2.png,trial_left_image,1,exp1.png,1,exp1.png,exp2.png,1,3,reversed,correct,0.7811250211156314,1,valid_win,598.9770909999497,41,,,,,,,,,,,s_049,1,2021_Jan_26_1307,Reversal,3.2.4,59.96426130735908,
13,exp3.png,exp4.png,3,0,3,0,0,13,13,13,,,,,,,,,,,,,,,,,,,,,,,,,False,72,73,True,exp4.png,exp3.png,trial_right_image,-1,exp3.png,1,exp3.png,exp4.png,1,1,non-reversed,correct,0.07587388244017979,0,invalid_lose,604.0756044001319,41,,,,,,,,,,,s_049,1,2021_Jan_26_1307,Reversal,3.2.4,59.96426130735908,
14,exp1.png,exp2.png,3,0,3,0,0,14,14,14,,,,,,,,,,,,,,,,,,,,,,,,,False,73,74,False,exp1.png,exp2.png,trial_left_image,1,exp1.png,1,exp1.png,exp2.png,1,3,reversed,correct,0.5205635116445353,1,valid_win,610.1905646000523,42,,,,,,,,,,,s_049,1,2021_Jan_26_1307,Reversal,3.2.4,59.96426130735908,
15,exp3.png,exp4.png,3,0,3,0,0,15,15,15,,,,,,,,,,,,,,,,,,,,,,,,,False,74,75,True,exp4.png,exp3.png,trial_right_image,-1,exp3.png,1,exp3.png,exp4.png,1,1,non-reversed,correct,0.9606022329208843,1,valid_win,617.3033879001159,43,,,,,,,,,,,s_049,1,2021_Jan_26_1307,Reversal,3.2.4,59.96426130735908,
16,exp1.png,exp2.png,3,0,3,0,0,16,16,16,,,,,,,,,,,,,,,,,,,,,,,,,False,75,76,False,exp1.png,exp2.png,trial_left_image,1,exp1.png,1,exp1.png,exp2.png,1,3,reversed,correct,0.06405651047129934,0,invalid_lose,623.4352589999326,43,,,,,,,,,,,s_049,1,2021_Jan_26_1307,Reversal,3.2.4,59.96426130735908,
17,exp3.png,exp4.png,3,0,3,0,0,17,17,17,,,,,,,,,,,,,,,,,,,,,,,,,False,76,77,True,exp4.png,exp3.png,trial_right_image,-1,exp3.png,1,exp3.png,exp4.png,1,1,non-reversed,correct,0.5374355732021777,1,valid_win,629.0338900999632,44,,,,,,,,,,,s_049,1,2021_Jan_26_1307,Reversal,3.2.4,59.96426130735908,
18,exp1.png,exp2.png,3,0,3,0,0,18,18,18,,,,,,,,,,,,,,,,,,,,,,,,,False,77,78,False,exp1.png,exp2.png,trial_left_image,1,exp1.png,1,exp1.png,exp2.png,1,3,reversed,correct,0.7075864396878321,1,valid_win,636.1299940000754,45,,,,,,,,,,,s_049,1,2021_Jan_26_1307,Reversal,3.2.4,59.96426130735908,
19,exp3.png,exp4.png,3,0,3,0,0,19,19,19,,,,,,,,,,,,,,,,,,,,,,,,,False,78,79,True,exp4.png,exp3.png,trial_right_image,-1,exp3.png,1,exp3.png,exp4.png,1,1,non-reversed,correct,0.20445586430723695,0,invalid_lose,641.4456273999531,45,,,,,,,,,,,s_049,1,2021_Jan_26_1307,Reversal,3.2.4,59.96426130735908,
20,exp1.png,exp2.png,3,0,3,0,0,20,20,20,,,,,,,,,,,,,,,,,,,,,,,,,False,79,80,True,exp2.png,exp1.png,trial_right_image,-1,exp1.png,1,exp1.png,exp2.png,1,3,reversed,correct,0.9128025650473444,1,valid_win,647.8771349999588,46,,,,,,,,,,,s_049,1,2021_Jan_26_1307,Reversal,3.2.4,59.96426130735908,
,,,3,0,3,0,,,,,0,0,0,0,,,,,,,,,,,,,,,,,,,,,,,,,,,,,,,,,,,,,,,,,,68,33,94,34,,,,,,,s_049,1,2021_Jan_26_1307,Reversal,3.2.4,59.96426130735908,
0,exp1.png,exp2.png,,,,,,,,,,,,,,,,,0,0,0,0,0,0,0,0,,,,,,,,,True,,,,,,,,,,,,,,,,,,,,,,,,,,,,,,,s_049,1,2021_Jan_26_1307,Reversal,3.2.4,59.96426130735908,
1,exp3.png,exp4.png,,,,,,,,,,,,,,,,,0,0,0,0,0,1,1,1,,,,,,,,,False,0,81,True,exp4.png,exp3.png,trial_right_image,-1,exp3.png,1,exp3.png,exp4.png,1,1,non-reversed,correct,0.8150200331829229,1,valid_win,665.3873016999569,47,,,,,662.4383875001222,,,,,,s_049,1,2021_Jan_26_1307,Reversal,3.2.4,59.96426130735908,
2,exp1.png,exp2.png,,,,,,,,,,,,,,,,,0,0,0,0,0,2,2,2,,,,,,,,,False,1,82,False,exp1.png,exp2.png,trial_left_image,1,exp1.png,1,exp2.png,exp1.png,1,3,reversed,incorrect,0.6420555051465702,0,valid_lose,671.6854199999943,47,,,,,,,,,,,s_049,1,2021_Jan_26_1307,Reversal,3.2.4,59.96426130735908,
3,exp3.png,exp4.png,,,,,,,,,,,,,,,,,0,0,0,0,0,3,3,3,,,,,,,,,False,2,83,True,exp4.png,exp3.png,trial_right_image,-1,exp3.png,1,exp3.png,exp4.png,1,1,non-reversed,correct,0.35469030493436937,1,valid_win,676.9164875000715,48,,,,,,,,,,,s_049,1,2021_Jan_26_1307,Reversal,3.2.4,59.96426130735908,
4,exp1.png,exp2.png,,,,,,,,,,,,,,,,,0,0,0,0,0,4,4,4,,,,,,,,,False,3,84,True,exp2.png,exp1.png,trial_right_image,-1,exp1.png,1,exp2.png,exp1.png,1,3,reversed,incorrect,0.8340577394168633,0,valid_lose,683.1648504999466,48,,,,,,,,,,,s_049,1,2021_Jan_26_1307,Reversal,3.2.4,59.96426130735908,
5,exp3.png,exp4.png,,,,,,,,,,,,,,,,,0,0,0,0,0,5,5,5,,,,,,,,,False,4,85,False,exp3.png,exp4.png,trial_left_image,1,exp3.png,1,exp3.png,exp4.png,1,1,non-reversed,correct,0.35040451317050536,1,valid_win,688.096745399991,49,,,,,,,,,,,s_049,1,2021_Jan_26_1307,Reversal,3.2.4,59.96426130735908,
6,exp1.png,exp2.png,,,,,,,,,,,,,,,,,0,0,0,0,0,6,6,6,,,,,,,,,False,5,86,True,exp2.png,exp1.png,trial_right_image,-1,exp1.png,1,exp2.png,exp1.png,1,3,reversed,incorrect,0.8725920634479022,0,valid_lose,694.6775082999375,49,,,,,,,,,,,s_049,1,2021_Jan_26_1307,Reversal,3.2.4,59.96426130735908,
7,exp3.png,exp4.png,,,,,,,,,,,,,,,,,0,0,0,0,0,7,7,7,,,,,,,,,False,6,87,True,exp4.png,exp3.png,trial_right_image,-1,exp3.png,1,exp3.png,exp4.png,1,1,non-reversed,correct,0.7988720805208874,1,valid_win,699.2593233000953,50,,,,,,,,,,,s_049,1,2021_Jan_26_1307,Reversal,3.2.4,59.96426130735908,
8,exp1.png,exp2.png,,,,,,,,,,,,,,,,,0,0,0,0,0,8,8,8,,,,,,,,,False,7,88,False,exp1.png,exp2.png,trial_right_image,-1,exp2.png,1,exp2.png,exp1.png,0,4,reversed,correct,0.06993066112202595,0,invalid_lose,703.8910729999188,50,,,,,,,,,,,s_049,1,2021_Jan_26_1307,Reversal,3.2.4,59.96426130735908,
9,exp3.png,exp4.png,,,,,,,,,,,,,,,,,0,0,0,0,0,9,9,9,,,,,,,,,False,8,89,True,exp4.png,exp3.png,trial_right_image,-1,exp3.png,1,exp3.png,exp4.png,1,1,non-reversed,correct,0.9373446853248961,1,valid_win,708.756586200092,51,,,,,,,,,,,s_049,1,2021_Jan_26_1307,Reversal,3.2.4,59.96426130735908,
10,exp1.png,exp2.png,,,,,,,,,,,,,,,,,0,0,0,0,0,10,10,10,,,,,,,,,False,9,90,True,exp2.png,exp1.png,trial_right_image,-1,exp1.png,1,exp2.png,exp1.png,1,3,reversed,incorrect,0.14105329967134173,1,invalid_win,715.0215648999438,52,,,,,,,,,,,s_049,1,2021_Jan_26_1307,Reversal,3.2.4,59.96426130735908,
11,exp3.png,exp4.png,,,,,,,,,,,,,,,,,0,0,0,0,0,11,11,11,,,,,,,,,False,10,91,False,exp3.png,exp4.png,trial_left_image,1,exp3.png,1,exp3.png,exp4.png,1,1,non-reversed,correct,0.2937116198417604,1,valid_win,719.9032622999512,53,,,,,,,,,,,s_049,1,2021_Jan_26_1307,Reversal,3.2.4,59.96426130735908,
12,exp1.png,exp2.png,,,,,,,,,,,,,,,,,0,0,0,0,0,12,12,12,,,,,,,,,False,11,92,True,exp2.png,exp1.png,trial_right_image,-1,exp1.png,1,exp2.png,exp1.png,1,3,reversed,incorrect,0.8807706295425456,0,valid_lose,726.7005883001257,53,,,,,,,,,,,s_049,1,2021_Jan_26_1307,Reversal,3.2.4,59.96426130735908,
13,exp3.png,exp4.png,,,,,,,,,,,,,,,,,0,0,0,0,0,13,13,13,,,,,,,,,False,12,93,False,exp3.png,exp4.png,trial_left_image,1,exp3.png,1,exp3.png,exp4.png,1,1,non-reversed,correct,0.06567884189335127,0,invalid_lose,731.5310730000492,53,,,,,,,,,,,s_049,1,2021_Jan_26_1307,Reversal,3.2.4,59.96426130735908,
14,exp1.png,exp2.png,,,,,,,,,,,,,,,,,0,0,0,0,0,14,14,14,,,,,,,,,False,13,94,True,exp2.png,exp1.png,trial_right_image,-1,exp1.png,1,exp2.png,exp1.png,1,3,reversed,incorrect,0.6549810695577253,0,valid_lose,739.6292294000741,53,,,,,,,,,,,s_049,1,2021_Jan_26_1307,Reversal,3.2.4,59.96426130735908,
15,exp3.png,exp4.png,,,,,,,,,,,,,,,,,0,0,0,0,0,15,15,15,,,,,,,,,False,14,95,False,exp3.png,exp4.png,trial_left_image,1,exp3.png,1,exp3.png,exp4.png,1,1,non-reversed,correct,0.9167885369484153,1,valid_win,744.3112425000872,54,,,,,,,,,,,s_049,1,2021_Jan_26_1307,Reversal,3.2.4,59.96426130735908,
16,exp1.png,exp2.png,,,,,,,,,,,,,,,,,0,0,0,0,0,16,16,16,,,,,,,,,False,15,96,False,exp1.png,exp2.png,trial_left_image,1,exp1.png,1,exp2.png,exp1.png,1,3,reversed,incorrect,0.8165869952535776,0,valid_lose,751.0254782000557,54,,,,,,,,,,,s_049,1,2021_Jan_26_1307,Reversal,3.2.4,59.96426130735908,
17,exp3.png,exp4.png,,,,,,,,,,,,,,,,,0,0,0,0,0,17,17,17,,,,,,,,,False,16,97,True,exp4.png,exp3.png,trial_right_image,-1,exp3.png,1,exp3.png,exp4.png,1,1,non-reversed,correct,0.7884579362782705,1,valid_win,755.4565612999722,55,,,,,,,,,,,s_049,1,2021_Jan_26_1307,Reversal,3.2.4,59.96426130735908,
18,exp1.png,exp2.png,,,,,,,,,,,,,,,,,0,0,0,0,0,18,18,18,,,,,,,,,False,17,98,False,exp1.png,exp2.png,trial_right_image,-1,exp2.png,1,exp2.png,exp1.png,0,4,reversed,correct,0.3574092023672687,1,valid_win,759.9558254000731,56,,,,,,,,,,,s_049,1,2021_Jan_26_1307,Reversal,3.2.4,59.96426130735908,
19,exp3.png,exp4.png,,,,,,,,,,,,,,,,,0,0,0,0,0,19,19,19,,,,,,,,,False,18,99,False,exp3.png,exp4.png,trial_left_image,1,exp3.png,1,exp3.png,exp4.png,1,1,non-reversed,correct,0.28604795792159754,1,valid_win,765.0545397999231,57,,,,,,,,,,,s_049,1,2021_Jan_26_1307,Reversal,3.2.4,59.96426130735908,
20,exp1.png,exp2.png,,,,,,,,,,,,,,,,,0,0,0,0,0,20,20,20,,,,,,,,,False,19,100,False,exp1.png,exp2.png,trial_right_image,-1,exp2.png,1,exp2.png,exp1.png,0,4,reversed,correct,0.9400102018145414,1,valid_win,769.7182795000263,58,,,,,,,,,,,s_049,1,2021_Jan_26_1307,Reversal,3.2.4,59.96426130735908,
,,,,,,,,,,,,,,,,,,,0,0,0,0,,,,,0,0,0,0,,,,,,,,,,,,,,,,,,,,,,,,,,42,83,98,60,,,,,,,s_049,1,2021_Jan_26_1307,Reversal,3.2.4,59.96426130735908,
0,exp1.png,exp2.png,,,,,,,,,,,,,,,,,1,0,1,0,0,0,0,0,,,,,,,,,True,,,,,,,,,,,,,,,,,,,,,,,,,,,,,,,s_049,1,2021_Jan_26_1307,Reversal,3.2.4,59.96426130735908,
1,exp3.png,exp4.png,,,,,,,,,,,,,,,,,1,0,1,0,0,1,1,1,,,,,,,,,False,20,101,False,exp3.png,exp4.png,trial_left_image,1,exp3.png,1,exp3.png,exp4.png,1,1,non-reversed,correct,0.6988397278311729,1,valid_win,785.2974074999802,59,,,,,,,,,,,s_049,1,2021_Jan_26_1307,Reversal,3.2.4,59.96426130735908,
2,exp1.png,exp2.png,,,,,,,,,,,,,,,,,1,0,1,0,0,2,2,2,,,,,,,,,False,21,102,True,exp2.png,exp1.png,trial_left_image,1,exp2.png,1,exp2.png,exp1.png,0,4,reversed,correct,0.5064707532770272,1,valid_win,790.7615410999861,60,,,,,,,,,,,s_049,1,2021_Jan_26_1307,Reversal,3.2.4,59.96426130735908,
3,exp3.png,exp4.png,,,,,,,,,,,,,,,,,1,0,1,0,0,3,3,3,,,,,,,,,False,22,103,True,exp4.png,exp3.png,trial_right_image,-1,exp3.png,1,exp3.png,exp4.png,1,1,non-reversed,correct,0.23298143958806428,0,invalid_lose,795.193735799985,60,,,,,,,,,,,s_049,1,2021_Jan_26_1307,Reversal,3.2.4,59.96426130735908,
4,exp1.png,exp2.png,,,,,,,,,,,,,,,,,1,0,1,0,0,4,4,4,,,,,,,,,False,23,104,False,exp1.png,exp2.png,trial_right_image,-1,exp2.png,1,exp2.png,exp1.png,0,4,reversed,correct,0.5193819919973541,1,valid_win,799.6920574000105,61,,,,,,,,,,,s_049,1,2021_Jan_26_1307,Reversal,3.2.4,59.96426130735908,
5,exp3.png,exp4.png,,,,,,,,,,,,,,,,,1,0,1,0,0,5,5,5,,,,,,,,,False,24,105,False,exp3.png,exp4.png,trial_left_image,1,exp3.png,1,exp3.png,exp4.png,1,1,non-reversed,correct,0.23182878995945555,0,invalid_lose,804.4075526001398,61,,,,,,,,,,,s_049,1,2021_Jan_26_1307,Reversal,3.2.4,59.96426130735908,
6,exp1.png,exp2.png,,,,,,,,,,,,,,,,,1,0,1,0,0,6,6,6,,,,,,,,,False,25,106,True,exp2.png,exp1.png,trial_left_image,1,exp2.png,1,exp2.png,exp1.png,0,4,reversed,correct,0.6494758274933752,1,valid_win,808.9388451001141,62,,,,,,,,,,,s_049,1,2021_Jan_26_1307,Reversal,3.2.4,59.96426130735908,
7,exp3.png,exp4.png,,,,,,,,,,,,,,,,,1,0,1,0,0,7,7,7,,,,,,,,,False,26,107,True,exp4.png,exp3.png,trial_left_image,1,exp4.png,1,exp3.png,exp4.png,0,2,non-reversed,incorrect,0.24983352727876018,1,invalid_win,813.2206355999224,63,,,,,,,,,,,s_049,1,2021_Jan_26_1307,Reversal,3.2.4,59.96426130735908,
8,exp1.png,exp2.png,,,,,,,,,,,,,,,,,1,0,1,0,0,8,8,8,,,,,,,,,False,27,108,True,exp2.png,exp1.png,trial_left_image,1,exp2.png,1,exp2.png,exp1.png,0,4,reversed,correct,0.5889274245470303,1,valid_win,818.3524665001314,64,,,,,,,,,,,s_049,1,2021_Jan_26_1307,Reversal,3.2.4,59.96426130735908,
9,exp3.png,exp4.png,,,,,,,,,,,,,,,,,1,0,1,0,0,9,9,9,,,,,,,,,False,28,109,False,exp3.png,exp4.png,trial_right_image,-1,exp4.png,1,exp3.png,exp4.png,0,2,non-reversed,incorrect,0.9921866788124154,0,valid_lose,823.0345318000764,64,,,,,,,,,,,s_049,1,2021_Jan_26_1307,Reversal,3.2.4,59.96426130735908,
10,exp1.png,exp2.png,,,,,,,,,,,,,,,,,1,0,1,0,0,10,10,10,,,,,,,,,False,29,110,False,exp1.png,exp2.png,trial_right_image,-1,exp2.png,1,exp2.png,exp1.png,0,4,reversed,correct,0.19941836594524132,0,invalid_lose,827.6820509000681,64,,,,,,,,,,,s_049,1,2021_Jan_26_1307,Reversal,3.2.4,59.96426130735908,
11,exp3.png,exp4.png,,,,,,,,,,,,,,,,,1,0,1,0,0,11,11,11,,,,,,,,,False,30,111,False,exp3.png,exp4.png,trial_right_image,-1,exp4.png,1,exp3.png,exp4.png,0,2,non-reversed,incorrect,0.8507736878493378,0,valid_lose,832.5976615999825,64,,,,,,,,,,,s_049,1,2021_Jan_26_1307,Reversal,3.2.4,59.96426130735908,
12,exp1.png,exp2.png,,,,,,,,,,,,,,,,,1,0,1,0,0,12,12,12,,,,,,,,,False,31,112,True,exp2.png,exp1.png,trial_right_image,-1,exp1.png,1,exp2.png,exp1.png,1,3,reversed,incorrect,0.5391378400875816,0,valid_lose,838.7963155999314,64,,,,,,,,,,,s_049,1,2021_Jan_26_1307,Reversal,3.2.4,59.96426130735908,
13,exp3.png,exp4.png,,,,,,,,,,,,,,,,,1,0,1,0,0,13,13,13,,,,,,,,,False,32,113,False,exp3.png,exp4.png,trial_left_image,1,exp3.png,1,exp3.png,exp4.png,1,1,non-reversed,correct,0.3327041524451557,1,valid_win,843.2108394999523,65,,,,,,,,,,,s_049,1,2021_Jan_26_1307,Reversal,3.2.4,59.96426130735908,
14,exp1.png,exp2.png,,,,,,,,,,,,,,,,,1,0,1,0,0,14,14,14,,,,,,,,,False,33,114,False,exp1.png,exp2.png,trial_right_image,-1,exp2.png,1,exp2.png,exp1.png,0,4,reversed,correct,0.9414678006602852,1,valid_win,850.440285900142,66,,,,,,,,,,,s_049,1,2021_Jan_26_1307,Reversal,3.2.4,59.96426130735908,
15,exp3.png,exp4.png,,,,,,,,,,,,,,,,,1,0,1,0,0,15,15,15,,,,,,,,,False,34,115,False,exp3.png,exp4.png,trial_left_image,1,exp3.png,1,exp3.png,exp4.png,1,1,non-reversed,correct,0.9420757999649703,1,valid_win,855.1226965000387,67,,,,,,,,,,,s_049,1,2021_Jan_26_1307,Reversal,3.2.4,59.96426130735908,
16,exp1.png,exp2.png,,,,,,,,,,,,,,,,,1,0,1,0,0,16,16,16,,,,,,,,,False,35,116,True,exp2.png,exp1.png,trial_left_image,1,exp2.png,1,exp2.png,exp1.png,0,4,reversed,correct,0.6838630023295411,1,valid_win,860.1373080001213,68,,,,,,,,,,,s_049,1,2021_Jan_26_1307,Reversal,3.2.4,59.96426130735908,
17,exp3.png,exp4.png,,,,,,,,,,,,,,,,,1,0,1,0,0,17,17,17,,,,,,,,,False,36,117,True,exp4.png,exp3.png,trial_right_image,-1,exp3.png,1,exp3.png,exp4.png,1,1,non-reversed,correct,0.596474629430942,1,valid_win,864.686930200085,69,,,,,,,,,,,s_049,1,2021_Jan_26_1307,Reversal,3.2.4,59.96426130735908,
18,exp1.png,exp2.png,,,,,,,,,,,,,,,,,1,0,1,0,0,18,18,18,,,,,,,,,False,37,118,True,exp2.png,exp1.png,trial_left_image,1,exp2.png,1,exp2.png,exp1.png,0,4,reversed,correct,0.4289215399007218,1,valid_win,871.4336584999692,70,,,,,,,,,,,s_049,1,2021_Jan_26_1307,Reversal,3.2.4,59.96426130735908,
19,exp3.png,exp4.png,,,,,,,,,,,,,,,,,1,0,1,0,0,19,19,19,,,,,,,,,False,38,119,True,exp4.png,exp3.png,trial_right_image,-1,exp3.png,1,exp3.png,exp4.png,1,1,non-reversed,correct,0.8161530237768625,1,valid_win,875.8816019000951,71,,,,,,,,,,,s_049,1,2021_Jan_26_1307,Reversal,3.2.4,59.96426130735908,
20,exp1.png,exp2.png,,,,,,,,,,,,,,,,,1,0,1,0,0,20,20,20,,,,,,,,,False,39,120,False,exp1.png,exp2.png,trial_right_image,-1,exp2.png,1,exp2.png,exp1.png,0,4,reversed,correct,0.0342417523554811,0,invalid_lose,879.9820324999746,71,,,,,,,,,,,s_049,1,2021_Jan_26_1307,Reversal,3.2.4,59.96426130735908,
,,,,,,,,,,,,,,,,,,,1,0,1,0,,,,,0,0,0,0,,,,,,,,,,,,,,,,,,,,,,,,,,46,78,100,22,,,,,,,s_049,1,2021_Jan_26_1307,Reversal,3.2.4,59.96426130735908,
0,exp1.png,exp2.png,,,,,,,,,,,,,,,,,2,0,2,0,0,0,0,0,,,,,,,,,True,,,,,,,,,,,,,,,,,,,,,,,,,,,,,,,s_049,1,2021_Jan_26_1307,Reversal,3.2.4,59.96426130735908,
1,exp3.png,exp4.png,,,,,,,,,,,,,,,,,2,0,2,0,0,1,1,1,,,,,,,,,False,40,121,False,exp3.png,exp4.png,trial_left_image,1,exp3.png,1,exp3.png,exp4.png,1,1,non-reversed,correct,0.28203687620337126,1,valid_win,895.8253989999648,72,,,,,,,,,,,s_049,1,2021_Jan_26_1307,Reversal,3.2.4,59.96426130735908,
2,exp1.png,exp2.png,,,,,,,,,,,,,,,,,2,0,2,0,0,2,2,2,,,,,,,,,False,41,122,False,exp1.png,exp2.png,trial_right_image,-1,exp2.png,1,exp2.png,exp1.png,0,4,reversed,correct,0.4139784702707162,1,valid_win,900.2572616001125,73,,,,,,,,,,,s_049,1,2021_Jan_26_1307,Reversal,3.2.4,59.96426130735908,
3,exp3.png,exp4.png,,,,,,,,,,,,,,,,,2,0,2,0,0,3,3,3,,,,,,,,,False,42,123,True,exp4.png,exp3.png,trial_right_image,-1,exp3.png,1,exp3.png,exp4.png,1,1,non-reversed,correct,0.32065239736276585,1,valid_win,904.6732652999926,74,,,,,,,,,,,s_049,1,2021_Jan_26_1307,Reversal,3.2.4,59.96426130735908,
4,exp1.png,exp2.png,,,,,,,,,,,,,,,,,2,0,2,0,0,4,4,4,,,,,,,,,False,43,124,True,exp2.png,exp1.png,trial_left_image,1,exp2.png,1,exp2.png,exp1.png,0,4,reversed,correct,0.8150635487299593,1,valid_win,909.65401259996,75,,,,,,,,,,,s_049,1,2021_Jan_26_1307,Reversal,3.2.4,59.96426130735908,
5,exp3.png,exp4.png,,,,,,,,,,,,,,,,,2,0,2,0,0,5,5,5,,,,,,,,,False,44,125,False,exp3.png,exp4.png,trial_left_image,1,exp3.png,1,exp3.png,exp4.png,1,1,non-reversed,correct,0.1570620465375211,0,invalid_lose,914.036520200083,75,,,,,,,,,,,s_049,1,2021_Jan_26_1307,Reversal,3.2.4,59.96426130735908,
6,exp1.png,exp2.png,,,,,,,,,,,,,,,,,2,0,2,0,0,6,6,6,,,,,,,,,False,45,126,True,exp2.png,exp1.png,trial_left_image,1,exp2.png,1,exp2.png,exp1.png,0,4,reversed,correct,0.3125783962835039,1,valid_win,918.4688937999308,76,,,,,,,,,,,s_049,1,2021_Jan_26_1307,Reversal,3.2.4,59.96426130735908,
7,exp3.png,exp4.png,,,,,,,,,,,,,,,,,2,0,2,0,0,7,7,7,,,,,,,,,False,46,127,True,exp4.png,exp3.png,trial_right_image,-1,exp3.png,1,exp3.png,exp4.png,1,1,non-reversed,correct,0.19494181749077022,0,invalid_lose,922.567335100146,76,,,,,,,,,,,s_049,1,2021_Jan_26_1307,Reversal,3.2.4,59.96426130735908,
8,exp1.png,exp2.png,,,,,,,,,,,,,,,,,2,0,2,0,0,8,8,8,,,,,,,,,False,47,128,False,exp1.png,exp2.png,trial_right_image,-1,exp2.png,1,exp2.png,exp1.png,0,4,reversed,correct,0.8962738926531928,1,valid_win,927.0484029001091,77,,,,,,,,,,,s_049,1,2021_Jan_26_1307,Reversal,3.2.4,59.96426130735908,
9,exp3.png,exp4.png,,,,,,,,,,,,,,,,,2,0,2,0,0,9,9,9,,,,,,,,,False,48,129,True,exp4.png,exp3.png,trial_right_image,-1,exp3.png,1,exp3.png,exp4.png,1,1,non-reversed,correct,0.5385259990267021,1,valid_win,931.5645564999431,78,,,,,,,,,,,s_049,1,2021_Jan_26_1307,Reversal,3.2.4,59.96426130735908,
10,exp1.png,exp2.png,,,,,,,,,,,,,,,,,2,0,2,0,0,10,10,10,,,,,,,,,False,49,130,True,exp2.png,exp1.png,trial_left_image,1,exp2.png,1,exp2.png,exp1.png,0,4,reversed,correct,0.38754833564077584,1,valid_win,936.2454941000324,79,,,,,,,,,,,s_049,1,2021_Jan_26_1307,Reversal,3.2.4,59.96426130735908,
11,exp3.png,exp4.png,,,,,,,,,,,,,,,,,2,0,2,0,0,11,11,11,,,,,,,,,False,50,131,True,exp4.png,exp3.png,trial_right_image,-1,exp3.png,1,exp3.png,exp4.png,1,1,non-reversed,correct,0.06582578973532938,0,invalid_lose,940.8100775000639,79,,,,,,,,,,,s_049,1,2021_Jan_26_1307,Reversal,3.2.4,59.96426130735908,
12,exp1.png,exp2.png,,,,,,,,,,,,,,,,,2,0,2,0,0,12,12,12,,,,,,,,,False,51,132,True,exp2.png,exp1.png,trial_left_image,1,exp2.png,1,exp2.png,exp1.png,0,4,reversed,correct,0.36420402454314105,1,valid_win,945.1936530999374,80,,,,,,,,,,,s_049,1,2021_Jan_26_1307,Reversal,3.2.4,59.96426130735908,
13,exp3.png,exp4.png,,,,,,,,,,,,,,,,,2,0,2,0,0,13,13,13,,,,,,,,,False,52,133,False,exp3.png,exp4.png,trial_right_image,-1,exp4.png,1,exp3.png,exp4.png,0,2,non-reversed,incorrect,0.16238256454219646,1,invalid_win,949.7239210000262,81,,,,,,,,,,,s_049,1,2021_Jan_26_1307,Reversal,3.2.4,59.96426130735908,
14,exp1.png,exp2.png,,,,,,,,,,,,,,,,,2,0,2,0,0,14,14,14,,,,,,,,,False,53,134,False,exp1.png,exp2.png,trial_right_image,-1,exp2.png,1,exp2.png,exp1.png,0,4,reversed,correct,0.6083546601951242,1,valid_win,954.273476399947,82,,,,,,,,,,,s_049,1,2021_Jan_26_1307,Reversal,3.2.4,59.96426130735908,
15,exp3.png,exp4.png,,,,,,,,,,,,,,,,,2,0,2,0,0,15,15,15,,,,,,,,,False,54,135,True,exp4.png,exp3.png,trial_left_image,1,exp4.png,1,exp3.png,exp4.png,0,2,non-reversed,incorrect,0.07017529253149435,1,invalid_win,960.9030460000504,83,,,,,,,,,,,s_049,1,2021_Jan_26_1307,Reversal,3.2.4,59.96426130735908,
16,exp1.png,exp2.png,,,,,,,,,,,,,,,,,2,0,2,0,0,16,16,16,,,,,,,,,False,55,136,False,exp1.png,exp2.png,trial_right_image,-1,exp2.png,1,exp2.png,exp1.png,0,4,reversed,correct,0.12610935807689783,0,invalid_lose,965.1702992999926,83,,,,,,,,,,,s_049,1,2021_Jan_26_1307,Reversal,3.2.4,59.96426130735908,
17,exp3.png,exp4.png,,,,,,,,,,,,,,,,,2,0,2,0,0,17,17,17,,,,,,,,,False,56,137,False,exp3.png,exp4.png,trial_right_image,-1,exp4.png,1,exp3.png,exp4.png,0,2,non-reversed,incorrect,0.21114889361049394,1,invalid_win,969.8833952001296,84,,,,,,,,,,,s_049,1,2021_Jan_26_1307,Reversal,3.2.4,59.96426130735908,
18,exp1.png,exp2.png,,,,,,,,,,,,,,,,,2,0,2,0,0,18,18,18,,,,,,,,,False,57,138,True,exp2.png,exp1.png,trial_left_image,1,exp2.png,1,exp2.png,exp1.png,0,4,reversed,correct,0.6015266895157356,1,valid_win,975.2492692000233,85,,,,,,,,,,,s_049,1,2021_Jan_26_1307,Reversal,3.2.4,59.96426130735908,
19,exp3.png,exp4.png,,,,,,,,,,,,,,,,,2,0,2,0,0,19,19,19,,,,,,,,,False,58,139,False,exp3.png,exp4.png,trial_right_image,-1,exp4.png,1,exp3.png,exp4.png,0,2,non-reversed,incorrect,0.24556004804317444,1,invalid_win,979.564322100021,86,,,,,,,,,,,s_049,1,2021_Jan_26_1307,Reversal,3.2.4,59.96426130735908,
20,exp1.png,exp2.png,,,,,,,,,,,,,,,,,2,0,2,0,0,20,20,20,,,,,,,,,False,59,140,False,exp1.png,exp2.png,trial_right_image,-1,exp2.png,1,exp2.png,exp1.png,0,4,reversed,correct,0.934734566129504,1,valid_win,984.146102800034,87,,,,,,,,,,,s_049,1,2021_Jan_26_1307,Reversal,3.2.4,59.96426130735908,
,,,,,,,,,,,,,,,,,,,2,0,2,0,,,,,0,0,0,0,,,,,,,,,,,,,,,,,,,,,,,,,,39,73,43,85,,,,,,,s_049,1,2021_Jan_26_1307,Reversal,3.2.4,59.96426130735908,
,,,,,,,,,,,,,,,,,,,,,,,,,,,,,,,,,,,,,,,,,,,,,,,,,,,,,,,87,,,,,,105,60,45,335.7678274998907,1,,,,,,,
