trial_index,trial_image1_file,trial_image2_file,learning_outer_loop.thisRepN,learning_outer_loop.thisTrialN,learning_outer_loop.thisN,learning_outer_loop.thisIndex,learning_inner_loop.thisRepN,learning_inner_loop.thisTrialN,learning_inner_loop.thisN,learning_inner_loop.thisIndex,learning_estimation_outer_loop.thisRepN,learning_estimation_outer_loop.thisTrialN,learning_estimation_outer_loop.thisN,learning_estimation_outer_loop.thisIndex,learning_estimation_inner_loop.thisRepN,learning_estimation_inner_loop.thisTrialN,learning_estimation_inner_loop.thisN,learning_estimation_inner_loop.thisIndex,reversal_outer_loop.thisRepN,reversal_outer_loop.thisTrialN,reversal_outer_loop.thisN,reversal_outer_loop.thisIndex,reversal_inner_loop.thisRepN,reversal_inner_loop.thisTrialN,reversal_inner_loop.thisN,reversal_inner_loop.thisIndex,reversal_estimation_outer_loop.thisRepN,reversal_estimation_outer_loop.thisTrialN,reversal_estimation_outer_loop.thisN,reversal_estimation_outer_loop.thisIndex,reversal_estimation_inner_loop.thisRepN,reversal_estimation_inner_loop.thisTrialN,reversal_estimation_inner_loop.thisN,reversal_estimation_inner_loop.thisIndex,skipped,total_trial_counter,trial_num,left_right_flip,left_image_file,right_image_file,clicked_stimulus_side,side,clicked_stimulus,version,high_prob_image_file,low_prob_image_file,choice_a,choice_b,pair_type,correct,trial_feedback_random,reward,trial_type,overall_time_after_trial,score,estimation_exp1.png,estimation_exp2.png,estimation_exp3.png,estimation_exp4.png,total_learning_time,total_correct,learning_correct,reversal_correct,total_reversal_time,extra_block,participant,ver,date,expName,psychopyVersion,frameRate,
0,exp1.png,exp2.png,0,0,0,0,0,0,0,0,,,,,,,,,,,,,,,,,,,,,,,,,False,0,1,True,exp2.png,exp1.png,trial_right_image,-1,exp1.png,4,exp2.png,exp1.png,0,2,non-reversed,incorrect,0.8591305779396069,0,valid_lose,7.576909800060093,0,,,,,,,,,,,s_052,4,2021_Feb_01_1653,Reversal,3.2.4,60.02444191525251,
1,exp3.png,exp4.png,0,0,0,0,0,1,1,1,,,,,,,,,,,,,,,,,,,,,,,,,False,1,2,False,exp3.png,exp4.png,trial_left_image,1,exp3.png,4,exp4.png,exp3.png,0,4,reversed,incorrect,0.6038338549123372,0,valid_lose,14.474666299996898,0,,,,,,,,,,,s_052,4,2021_Feb_01_1653,Reversal,3.2.4,60.02444191525251,
2,exp1.png,exp2.png,0,0,0,0,0,2,2,2,,,,,,,,,,,,,,,,,,,,,,,,,False,2,3,False,exp1.png,exp2.png,trial_left_image,1,exp1.png,4,exp2.png,exp1.png,0,2,non-reversed,incorrect,0.06136450522975079,1,invalid_win,20.73823649995029,1,,,,,,,,,,,s_052,4,2021_Feb_01_1653,Reversal,3.2.4,60.02444191525251,
3,exp3.png,exp4.png,0,0,0,0,0,3,3,3,,,,,,,,,,,,,,,,,,,,,,,,,False,3,4,False,exp3.png,exp4.png,trial_right_image,-1,exp4.png,4,exp4.png,exp3.png,1,3,reversed,correct,0.12597548504136802,0,invalid_lose,26.136855399934575,1,,,,,,,,,,,s_052,4,2021_Feb_01_1653,Reversal,3.2.4,60.02444191525251,
4,exp1.png,exp2.png,0,0,0,0,0,4,4,4,,,,,,,,,,,,,,,,,,,,,,,,,False,4,5,False,exp1.png,exp2.png,trial_right_image,-1,exp2.png,4,exp2.png,exp1.png,1,1,non-reversed,correct,0.2869348143694016,1,valid_win,31.703325300011784,2,,,,,,,,,,,s_052,4,2021_Feb_01_1653,Reversal,3.2.4,60.02444191525251,
5,exp3.png,exp4.png,0,0,0,0,0,5,5,5,,,,,,,,,,,,,,,,,,,,,,,,,False,5,6,True,exp4.png,exp3.png,trial_right_image,-1,exp3.png,4,exp4.png,exp3.png,0,4,reversed,incorrect,0.4329114368346969,0,valid_lose,38.18414100003429,2,,,,,,,,,,,s_052,4,2021_Feb_01_1653,Reversal,3.2.4,60.02444191525251,
6,exp1.png,exp2.png,0,0,0,0,0,6,6,6,,,,,,,,,,,,,,,,,,,,,,,,,False,6,7,True,exp2.png,exp1.png,trial_right_image,-1,exp1.png,4,exp2.png,exp1.png,0,2,non-reversed,incorrect,0.9527110585220957,0,valid_lose,43.647526500048116,2,,,,,,,,,,,s_052,4,2021_Feb_01_1653,Reversal,3.2.4,60.02444191525251,
7,exp3.png,exp4.png,0,0,0,0,0,7,7,7,,,,,,,,,,,,,,,,,,,,,,,,,False,7,8,True,exp4.png,exp3.png,trial_left_image,1,exp4.png,4,exp4.png,exp3.png,1,3,reversed,correct,0.9077129665865985,1,valid_win,48.56356010003947,3,,,,,,,,,,,s_052,4,2021_Feb_01_1653,Reversal,3.2.4,60.02444191525251,
8,exp1.png,exp2.png,0,0,0,0,0,8,8,8,,,,,,,,,,,,,,,,,,,,,,,,,False,8,9,True,exp2.png,exp1.png,trial_right_image,-1,exp1.png,4,exp2.png,exp1.png,0,2,non-reversed,incorrect,0.07597354978322457,1,invalid_win,54.04535589995794,4,,,,,,,,,,,s_052,4,2021_Feb_01_1653,Reversal,3.2.4,60.02444191525251,
9,exp3.png,exp4.png,0,0,0,0,0,9,9,9,,,,,,,,,,,,,,,,,,,,,,,,,False,9,10,False,exp3.png,exp4.png,trial_right_image,-1,exp4.png,4,exp4.png,exp3.png,1,3,reversed,correct,0.765636892275182,1,valid_win,59.16009610006586,5,,,,,,,,,,,s_052,4,2021_Feb_01_1653,Reversal,3.2.4,60.02444191525251,
10,exp1.png,exp2.png,0,0,0,0,0,10,10,10,,,,,,,,,,,,,,,,,,,,,,,,,False,10,11,False,exp1.png,exp2.png,trial_right_image,-1,exp2.png,4,exp2.png,exp1.png,1,1,non-reversed,correct,0.37014615495205705,1,valid_win,63.99199920007959,6,,,,,,,,,,,s_052,4,2021_Feb_01_1653,Reversal,3.2.4,60.02444191525251,
11,exp3.png,exp4.png,0,0,0,0,0,11,11,11,,,,,,,,,,,,,,,,,,,,,,,,,False,11,12,False,exp3.png,exp4.png,trial_right_image,-1,exp4.png,4,exp4.png,exp3.png,1,3,reversed,correct,0.42709676853506984,1,valid_win,69.02348279999569,7,,,,,,,,,,,s_052,4,2021_Feb_01_1653,Reversal,3.2.4,60.02444191525251,
12,exp1.png,exp2.png,0,0,0,0,0,12,12,12,,,,,,,,,,,,,,,,,,,,,,,,,False,12,13,True,exp2.png,exp1.png,trial_right_image,-1,exp1.png,4,exp2.png,exp1.png,0,2,non-reversed,incorrect,0.7999383393929892,0,valid_lose,74.27188599994406,7,,,,,,,,,,,s_052,4,2021_Feb_01_1653,Reversal,3.2.4,60.02444191525251,
13,exp3.png,exp4.png,0,0,0,0,0,13,13,13,,,,,,,,,,,,,,,,,,,,,,,,,False,13,14,False,exp3.png,exp4.png,trial_right_image,-1,exp4.png,4,exp4.png,exp3.png,1,3,reversed,correct,0.6561653356260416,1,valid_win,80.26995039987378,8,,,,,,,,,,,s_052,4,2021_Feb_01_1653,Reversal,3.2.4,60.02444191525251,
14,exp1.png,exp2.png,0,0,0,0,0,14,14,14,,,,,,,,,,,,,,,,,,,,,,,,,False,14,15,True,exp2.png,exp1.png,trial_left_image,1,exp2.png,4,exp2.png,exp1.png,1,1,non-reversed,correct,0.7611548735595955,1,valid_win,85.58357420004904,9,,,,,,,,,,,s_052,4,2021_Feb_01_1653,Reversal,3.2.4,60.02444191525251,
15,exp3.png,exp4.png,0,0,0,0,0,15,15,15,,,,,,,,,,,,,,,,,,,,,,,,,False,15,16,True,exp4.png,exp3.png,trial_right_image,-1,exp3.png,4,exp4.png,exp3.png,0,4,reversed,incorrect,0.3849388028264885,0,valid_lose,90.61675389995798,9,,,,,,,,,,,s_052,4,2021_Feb_01_1653,Reversal,3.2.4,60.02444191525251,
16,exp1.png,exp2.png,0,0,0,0,0,16,16,16,,,,,,,,,,,,,,,,,,,,,,,,,False,16,17,True,exp2.png,exp1.png,trial_right_image,-1,exp1.png,4,exp2.png,exp1.png,0,2,non-reversed,incorrect,0.7847367466251515,0,valid_lose,97.71388749987818,9,,,,,,,,,,,s_052,4,2021_Feb_01_1653,Reversal,3.2.4,60.02444191525251,
17,exp3.png,exp4.png,0,0,0,0,0,17,17,17,,,,,,,,,,,,,,,,,,,,,,,,,False,17,18,True,exp4.png,exp3.png,trial_right_image,-1,exp3.png,4,exp4.png,exp3.png,0,4,reversed,incorrect,0.8315744329562337,0,valid_lose,102.36202830006368,9,,,,,,,,,,,s_052,4,2021_Feb_01_1653,Reversal,3.2.4,60.02444191525251,
18,exp1.png,exp2.png,0,0,0,0,0,18,18,18,,,,,,,,,,,,,,,,,,,,,,,,,False,18,19,False,exp1.png,exp2.png,trial_left_image,1,exp1.png,4,exp2.png,exp1.png,0,2,non-reversed,incorrect,0.4133275939149248,0,valid_lose,107.10957799991593,9,,,,,,,,,,,s_052,4,2021_Feb_01_1653,Reversal,3.2.4,60.02444191525251,
19,exp3.png,exp4.png,0,0,0,0,0,19,19,19,,,,,,,,,,,,,,,,,,,,,,,,,False,19,20,False,exp3.png,exp4.png,trial_right_image,-1,exp4.png,4,exp4.png,exp3.png,1,3,reversed,correct,0.39284692321284054,1,valid_win,112.07546880003065,10,,,,,,,,,,,s_052,4,2021_Feb_01_1653,Reversal,3.2.4,60.02444191525251,
20,exp1.png,exp2.png,0,0,0,0,0,20,20,20,,,,,,,,,,,,,,,,,,,,,,,,,True,,,,,,,,,,,,,,,,,,,,,,,,,,,,,,,s_052,4,2021_Feb_01_1653,Reversal,3.2.4,60.02444191525251,
,,,0,0,0,0,,,,,0,0,0,0,,,,,,,,,,,,,,,,,,,,,,,,,,,,,,,,,,,,,,,,,,38,60,35,78,,,,,,,s_052,4,2021_Feb_01_1653,Reversal,3.2.4,60.02444191525251,
0,exp1.png,exp2.png,1,0,1,0,0,0,0,0,,,,,,,,,,,,,,,,,,,,,,,,,False,20,21,True,exp2.png,exp1.png,trial_right_image,-1,exp1.png,4,exp2.png,exp1.png,0,2,non-reversed,incorrect,0.6789444455671452,0,valid_lose,132.80225270008668,10,,,,,,,,,,,s_052,4,2021_Feb_01_1653,Reversal,3.2.4,60.02444191525251,
1,exp3.png,exp4.png,1,0,1,0,0,1,1,1,,,,,,,,,,,,,,,,,,,,,,,,,False,21,22,True,exp4.png,exp3.png,trial_left_image,1,exp4.png,4,exp4.png,exp3.png,1,3,reversed,correct,0.7941662822260411,1,valid_win,137.53364849998616,11,,,,,,,,,,,s_052,4,2021_Feb_01_1653,Reversal,3.2.4,60.02444191525251,
2,exp1.png,exp2.png,1,0,1,0,0,2,2,2,,,,,,,,,,,,,,,,,,,,,,,,,False,22,23,True,exp2.png,exp1.png,trial_left_image,1,exp2.png,4,exp2.png,exp1.png,1,1,non-reversed,correct,0.40095921657893197,1,valid_win,142.4474808999803,12,,,,,,,,,,,s_052,4,2021_Feb_01_1653,Reversal,3.2.4,60.02444191525251,
3,exp3.png,exp4.png,1,0,1,0,0,3,3,3,,,,,,,,,,,,,,,,,,,,,,,,,False,23,24,True,exp4.png,exp3.png,trial_left_image,1,exp4.png,4,exp4.png,exp3.png,1,3,reversed,correct,0.8804176105823492,1,valid_win,146.9808916999027,13,,,,,,,,,,,s_052,4,2021_Feb_01_1653,Reversal,3.2.4,60.02444191525251,
4,exp1.png,exp2.png,1,0,1,0,0,4,4,4,,,,,,,,,,,,,,,,,,,,,,,,,False,24,25,True,exp2.png,exp1.png,trial_left_image,1,exp2.png,4,exp2.png,exp1.png,1,1,non-reversed,correct,0.6586529983912698,1,valid_win,151.54444599989802,14,,,,,,,,,,,s_052,4,2021_Feb_01_1653,Reversal,3.2.4,60.02444191525251,
5,exp3.png,exp4.png,1,0,1,0,0,5,5,5,,,,,,,,,,,,,,,,,,,,,,,,,False,25,26,True,exp4.png,exp3.png,trial_left_image,1,exp4.png,4,exp4.png,exp3.png,1,3,reversed,correct,0.11444883403840711,0,invalid_lose,156.87781209987588,14,,,,,,,,,,,s_052,4,2021_Feb_01_1653,Reversal,3.2.4,60.02444191525251,
6,exp1.png,exp2.png,1,0,1,0,0,6,6,6,,,,,,,,,,,,,,,,,,,,,,,,,False,26,27,False,exp1.png,exp2.png,trial_right_image,-1,exp2.png,4,exp2.png,exp1.png,1,1,non-reversed,correct,0.9690520676220455,1,valid_win,162.07578650000505,15,,,,,,,,,,,s_052,4,2021_Feb_01_1653,Reversal,3.2.4,60.02444191525251,
7,exp3.png,exp4.png,1,0,1,0,0,7,7,7,,,,,,,,,,,,,,,,,,,,,,,,,False,27,28,False,exp3.png,exp4.png,trial_right_image,-1,exp4.png,4,exp4.png,exp3.png,1,3,reversed,correct,0.31415064484164335,1,valid_win,166.78924200008623,16,,,,,,,,,,,s_052,4,2021_Feb_01_1653,Reversal,3.2.4,60.02444191525251,
8,exp1.png,exp2.png,1,0,1,0,0,8,8,8,,,,,,,,,,,,,,,,,,,,,,,,,False,28,29,False,exp1.png,exp2.png,trial_right_image,-1,exp2.png,4,exp2.png,exp1.png,1,1,non-reversed,correct,0.8339352416498423,1,valid_win,171.25550249987282,17,,,,,,,,,,,s_052,4,2021_Feb_01_1653,Reversal,3.2.4,60.02444191525251,
9,exp3.png,exp4.png,1,0,1,0,0,9,9,9,,,,,,,,,,,,,,,,,,,,,,,,,False,29,30,True,exp4.png,exp3.png,trial_left_image,1,exp4.png,4,exp4.png,exp3.png,1,3,reversed,correct,0.9808192422074915,1,valid_win,176.62052799994126,18,,,,,,,,,,,s_052,4,2021_Feb_01_1653,Reversal,3.2.4,60.02444191525251,
10,exp1.png,exp2.png,1,0,1,0,0,10,10,10,,,,,,,,,,,,,,,,,,,,,,,,,False,30,31,False,exp1.png,exp2.png,trial_right_image,-1,exp2.png,4,exp2.png,exp1.png,1,1,non-reversed,correct,0.044689011468863615,0,invalid_lose,180.83569630002603,18,,,,,,,,,,,s_052,4,2021_Feb_01_1653,Reversal,3.2.4,60.02444191525251,
11,exp3.png,exp4.png,1,0,1,0,0,11,11,11,,,,,,,,,,,,,,,,,,,,,,,,,False,31,32,True,exp4.png,exp3.png,trial_left_image,1,exp4.png,4,exp4.png,exp3.png,1,3,reversed,correct,0.4552538812139335,1,valid_win,185.55003620008938,19,,,,,,,,,,,s_052,4,2021_Feb_01_1653,Reversal,3.2.4,60.02444191525251,
12,exp1.png,exp2.png,1,0,1,0,0,12,12,12,,,,,,,,,,,,,,,,,,,,,,,,,False,32,33,False,exp1.png,exp2.png,trial_right_image,-1,exp2.png,4,exp2.png,exp1.png,1,1,non-reversed,correct,0.10598848481964962,0,invalid_lose,190.01589279994369,19,,,,,,,,,,,s_052,4,2021_Feb_01_1653,Reversal,3.2.4,60.02444191525251,
13,exp3.png,exp4.png,1,0,1,0,0,13,13,13,,,,,,,,,,,,,,,,,,,,,,,,,False,33,34,False,exp3.png,exp4.png,trial_right_image,-1,exp4.png,4,exp4.png,exp3.png,1,3,reversed,correct,0.783195616227422,1,valid_win,194.41451829997823,20,,,,,,,,,,,s_052,4,2021_Feb_01_1653,Reversal,3.2.4,60.02444191525251,
14,exp1.png,exp2.png,1,0,1,0,0,14,14,14,,,,,,,,,,,,,,,,,,,,,,,,,False,34,35,False,exp1.png,exp2.png,trial_right_image,-1,exp2.png,4,exp2.png,exp1.png,1,1,non-reversed,correct,0.4217644172313235,1,valid_win,198.54655679990537,21,,,,,,,,,,,s_052,4,2021_Feb_01_1653,Reversal,3.2.4,60.02444191525251,
15,exp3.png,exp4.png,1,0,1,0,0,15,15,15,,,,,,,,,,,,,,,,,,,,,,,,,False,35,36,False,exp3.png,exp4.png,trial_right_image,-1,exp4.png,4,exp4.png,exp3.png,1,3,reversed,correct,0.9015481315598085,1,valid_win,202.77824999997392,22,,,,,,,,,,,s_052,4,2021_Feb_01_1653,Reversal,3.2.4,60.02444191525251,
16,exp1.png,exp2.png,1,0,1,0,0,16,16,16,,,,,,,,,,,,,,,,,,,,,,,,,False,36,37,False,exp1.png,exp2.png,trial_right_image,-1,exp2.png,4,exp2.png,exp1.png,1,1,non-reversed,correct,0.21427144939539444,0,invalid_lose,207.09340099990368,22,,,,,,,,,,,s_052,4,2021_Feb_01_1653,Reversal,3.2.4,60.02444191525251,
17,exp3.png,exp4.png,1,0,1,0,0,17,17,17,,,,,,,,,,,,,,,,,,,,,,,,,False,37,38,True,exp4.png,exp3.png,trial_left_image,1,exp4.png,4,exp4.png,exp3.png,1,3,reversed,correct,0.38587174044401173,1,valid_win,211.50772930006497,23,,,,,,,,,,,s_052,4,2021_Feb_01_1653,Reversal,3.2.4,60.02444191525251,
18,exp1.png,exp2.png,1,0,1,0,0,18,18,18,,,,,,,,,,,,,,,,,,,,,,,,,False,38,39,True,exp2.png,exp1.png,trial_left_image,1,exp2.png,4,exp2.png,exp1.png,1,1,non-reversed,correct,0.3016284067228794,1,valid_win,216.02384279994294,24,,,,,,,,,,,s_052,4,2021_Feb_01_1653,Reversal,3.2.4,60.02444191525251,
19,exp3.png,exp4.png,1,0,1,0,0,19,19,19,,,,,,,,,,,,,,,,,,,,,,,,,False,39,40,False,exp3.png,exp4.png,trial_right_image,-1,exp4.png,4,exp4.png,exp3.png,1,3,reversed,correct,0.1925563460999382,0,invalid_lose,220.38925929996185,24,,,,,,,,,,,s_052,4,2021_Feb_01_1653,Reversal,3.2.4,60.02444191525251,
20,exp1.png,exp2.png,1,0,1,0,0,20,20,20,,,,,,,,,,,,,,,,,,,,,,,,,True,,,,,,,,,,,,,,,,,,,,,,,,,,,,,,,s_052,4,2021_Feb_01_1653,Reversal,3.2.4,60.02444191525251,
,,,1,0,1,0,,,,,0,0,0,0,,,,,,,,,,,,,,,,,,,,,,,,,,,,,,,,,,,,,,,,,,34,61,40,84,,,,,,,s_052,4,2021_Feb_01_1653,Reversal,3.2.4,60.02444191525251,
0,exp1.png,exp2.png,2,0,2,0,0,0,0,0,,,,,,,,,,,,,,,,,,,,,,,,,False,40,41,True,exp2.png,exp1.png,trial_right_image,-1,exp1.png,4,exp2.png,exp1.png,0,2,non-reversed,incorrect,0.3149308486566764,0,valid_lose,236.01698189997114,24,,,,,,,,,,,s_052,4,2021_Feb_01_1653,Reversal,3.2.4,60.02444191525251,
1,exp3.png,exp4.png,2,0,2,0,0,1,1,1,,,,,,,,,,,,,,,,,,,,,,,,,False,41,42,False,exp3.png,exp4.png,trial_left_image,1,exp3.png,4,exp4.png,exp3.png,0,4,reversed,incorrect,0.04348281400245724,1,invalid_win,241.24919350002892,25,,,,,,,,,,,s_052,4,2021_Feb_01_1653,Reversal,3.2.4,60.02444191525251,
2,exp1.png,exp2.png,2,0,2,0,0,2,2,2,,,,,,,,,,,,,,,,,,,,,,,,,False,42,43,False,exp1.png,exp2.png,trial_left_image,1,exp1.png,4,exp2.png,exp1.png,0,2,non-reversed,incorrect,0.6614387586435629,0,valid_lose,245.78034459985793,25,,,,,,,,,,,s_052,4,2021_Feb_01_1653,Reversal,3.2.4,60.02444191525251,
3,exp3.png,exp4.png,2,0,2,0,0,3,3,3,,,,,,,,,,,,,,,,,,,,,,,,,False,43,44,True,exp4.png,exp3.png,trial_right_image,-1,exp3.png,4,exp4.png,exp3.png,0,4,reversed,incorrect,0.5936733890073467,0,valid_lose,250.31200639996678,25,,,,,,,,,,,s_052,4,2021_Feb_01_1653,Reversal,3.2.4,60.02444191525251,
4,exp1.png,exp2.png,2,0,2,0,0,4,4,4,,,,,,,,,,,,,,,,,,,,,,,,,False,44,45,False,exp1.png,exp2.png,trial_right_image,-1,exp2.png,4,exp2.png,exp1.png,1,1,non-reversed,correct,0.07506244104671711,0,invalid_lose,255.84366500005126,25,,,,,,,,,,,s_052,4,2021_Feb_01_1653,Reversal,3.2.4,60.02444191525251,
5,exp3.png,exp4.png,2,0,2,0,0,5,5,5,,,,,,,,,,,,,,,,,,,,,,,,,False,45,46,False,exp3.png,exp4.png,trial_right_image,-1,exp4.png,4,exp4.png,exp3.png,1,3,reversed,correct,0.03840454656397252,0,invalid_lose,260.84210360003635,25,,,,,,,,,,,s_052,4,2021_Feb_01_1653,Reversal,3.2.4,60.02444191525251,
6,exp1.png,exp2.png,2,0,2,0,0,6,6,6,,,,,,,,,,,,,,,,,,,,,,,,,False,46,47,True,exp2.png,exp1.png,trial_right_image,-1,exp1.png,4,exp2.png,exp1.png,0,2,non-reversed,incorrect,0.7367294225557793,0,valid_lose,265.25705999997444,25,,,,,,,,,,,s_052,4,2021_Feb_01_1653,Reversal,3.2.4,60.02444191525251,
7,exp3.png,exp4.png,2,0,2,0,0,7,7,7,,,,,,,,,,,,,,,,,,,,,,,,,False,47,48,False,exp3.png,exp4.png,trial_left_image,1,exp3.png,4,exp4.png,exp3.png,0,4,reversed,incorrect,0.37245770666791356,0,valid_lose,270.1555087000597,25,,,,,,,,,,,s_052,4,2021_Feb_01_1653,Reversal,3.2.4,60.02444191525251,
8,exp1.png,exp2.png,2,0,2,0,0,8,8,8,,,,,,,,,,,,,,,,,,,,,,,,,False,48,49,True,exp2.png,exp1.png,trial_right_image,-1,exp1.png,4,exp2.png,exp1.png,0,2,non-reversed,incorrect,0.29656735832765146,0,valid_lose,274.50291569996625,25,,,,,,,,,,,s_052,4,2021_Feb_01_1653,Reversal,3.2.4,60.02444191525251,
9,exp3.png,exp4.png,2,0,2,0,0,9,9,9,,,,,,,,,,,,,,,,,,,,,,,,,False,49,50,False,exp3.png,exp4.png,trial_right_image,-1,exp4.png,4,exp4.png,exp3.png,1,3,reversed,correct,0.2006815960066317,0,invalid_lose,278.81919589987956,25,,,,,,,,,,,s_052,4,2021_Feb_01_1653,Reversal,3.2.4,60.02444191525251,
10,exp1.png,exp2.png,2,0,2,0,0,10,10,10,,,,,,,,,,,,,,,,,,,,,,,,,False,50,51,True,exp2.png,exp1.png,trial_left_image,1,exp2.png,4,exp2.png,exp1.png,1,1,non-reversed,correct,0.8220961047626612,1,valid_win,283.41826459998265,26,,,,,,,,,,,s_052,4,2021_Feb_01_1653,Reversal,3.2.4,60.02444191525251,
11,exp3.png,exp4.png,2,0,2,0,0,11,11,11,,,,,,,,,,,,,,,,,,,,,,,,,False,51,52,True,exp4.png,exp3.png,trial_left_image,1,exp4.png,4,exp4.png,exp3.png,1,3,reversed,correct,0.7619358906651643,1,valid_win,287.64797300007194,27,,,,,,,,,,,s_052,4,2021_Feb_01_1653,Reversal,3.2.4,60.02444191525251,
12,exp1.png,exp2.png,2,0,2,0,0,12,12,12,,,,,,,,,,,,,,,,,,,,,,,,,False,52,53,True,exp2.png,exp1.png,trial_left_image,1,exp2.png,4,exp2.png,exp1.png,1,1,non-reversed,correct,0.030070575551113032,0,invalid_lose,291.83122829999775,27,,,,,,,,,,,s_052,4,2021_Feb_01_1653,Reversal,3.2.4,60.02444191525251,
13,exp3.png,exp4.png,2,0,2,0,0,13,13,13,,,,,,,,,,,,,,,,,,,,,,,,,False,53,54,False,exp3.png,exp4.png,trial_right_image,-1,exp4.png,4,exp4.png,exp3.png,1,3,reversed,correct,0.8298191424102105,1,valid_win,296.14642579993233,28,,,,,,,,,,,s_052,4,2021_Feb_01_1653,Reversal,3.2.4,60.02444191525251,
14,exp1.png,exp2.png,2,0,2,0,0,14,14,14,,,,,,,,,,,,,,,,,,,,,,,,,False,54,55,True,exp2.png,exp1.png,trial_left_image,1,exp2.png,4,exp2.png,exp1.png,1,1,non-reversed,correct,0.2350226215626816,0,invalid_lose,300.67824129993096,28,,,,,,,,,,,s_052,4,2021_Feb_01_1653,Reversal,3.2.4,60.02444191525251,
15,exp3.png,exp4.png,2,0,2,0,0,15,15,15,,,,,,,,,,,,,,,,,,,,,,,,,False,55,56,False,exp3.png,exp4.png,trial_right_image,-1,exp4.png,4,exp4.png,exp3.png,1,3,reversed,correct,0.8730365923078911,1,valid_win,305.077022299869,29,,,,,,,,,,,s_052,4,2021_Feb_01_1653,Reversal,3.2.4,60.02444191525251,
16,exp1.png,exp2.png,2,0,2,0,0,16,16,16,,,,,,,,,,,,,,,,,,,,,,,,,False,56,57,True,exp2.png,exp1.png,trial_right_image,-1,exp1.png,4,exp2.png,exp1.png,0,2,non-reversed,incorrect,0.6852890965464558,0,valid_lose,309.5745751999784,29,,,,,,,,,,,s_052,4,2021_Feb_01_1653,Reversal,3.2.4,60.02444191525251,
17,exp3.png,exp4.png,2,0,2,0,0,17,17,17,,,,,,,,,,,,,,,,,,,,,,,,,False,57,58,False,exp3.png,exp4.png,trial_right_image,-1,exp4.png,4,exp4.png,exp3.png,1,3,reversed,correct,0.8929084952109783,1,valid_win,314.02406889991835,30,,,,,,,,,,,s_052,4,2021_Feb_01_1653,Reversal,3.2.4,60.02444191525251,
18,exp1.png,exp2.png,2,0,2,0,0,18,18,18,,,,,,,,,,,,,,,,,,,,,,,,,False,58,59,True,exp2.png,exp1.png,trial_left_image,1,exp2.png,4,exp2.png,exp1.png,1,1,non-reversed,correct,0.9395696400010172,1,valid_win,318.4229814999271,31,,,,,,,,,,,s_052,4,2021_Feb_01_1653,Reversal,3.2.4,60.02444191525251,
19,exp3.png,exp4.png,2,0,2,0,0,19,19,19,,,,,,,,,,,,,,,,,,,,,,,,,False,59,60,False,exp3.png,exp4.png,trial_right_image,-1,exp4.png,4,exp4.png,exp3.png,1,3,reversed,correct,0.25765643372899716,1,valid_win,322.80425089993514,32,,,,,,,,,,,s_052,4,2021_Feb_01_1653,Reversal,3.2.4,60.02444191525251,
20,exp1.png,exp2.png,2,0,2,0,0,20,20,20,,,,,,,,,,,,,,,,,,,,,,,,,True,,,,,,,,,,,,,,,,,,,,,,,,,,,,,,,s_052,4,2021_Feb_01_1653,Reversal,3.2.4,60.02444191525251,
,,,2,0,2,0,,,,,0,0,0,0,,,,,,,,,,,,,,,,,,,,,,,,,,,,,,,,,,,,,,,,,,18,68,33,86,,,,,,,s_052,4,2021_Feb_01_1653,Reversal,3.2.4,60.02444191525251,
0,exp1.png,exp2.png,3,0,3,0,0,0,0,0,,,,,,,,,,,,,,,,,,,,,,,,,False,60,61,True,exp2.png,exp1.png,trial_left_image,1,exp2.png,4,exp2.png,exp1.png,1,1,non-reversed,correct,0.5970110628422551,1,valid_win,337.0495283000637,33,,,,,,,,,,,s_052,4,2021_Feb_01_1653,Reversal,3.2.4,60.02444191525251,
1,exp3.png,exp4.png,3,0,3,0,0,1,1,1,,,,,,,,,,,,,,,,,,,,,,,,,False,61,62,True,exp4.png,exp3.png,trial_left_image,1,exp4.png,4,exp4.png,exp3.png,1,3,reversed,correct,0.0285290475873774,0,invalid_lose,341.29702880000696,33,,,,,,,,,,,s_052,4,2021_Feb_01_1653,Reversal,3.2.4,60.02444191525251,
2,exp1.png,exp2.png,3,0,3,0,0,2,2,2,,,,,,,,,,,,,,,,,,,,,,,,,False,62,63,False,exp1.png,exp2.png,trial_right_image,-1,exp2.png,4,exp2.png,exp1.png,1,1,non-reversed,correct,0.6875590696274779,1,valid_win,345.72840450005606,34,,,,,,,,,,,s_052,4,2021_Feb_01_1653,Reversal,3.2.4,60.02444191525251,
3,exp3.png,exp4.png,3,0,3,0,0,3,3,3,,,,,,,,,,,,,,,,,,,,,,,,,False,63,64,True,exp4.png,exp3.png,trial_left_image,1,exp4.png,4,exp4.png,exp3.png,1,3,reversed,correct,0.5267253174695846,1,valid_win,350.1278410998639,35,,,,,,,,,,,s_052,4,2021_Feb_01_1653,Reversal,3.2.4,60.02444191525251,
4,exp1.png,exp2.png,3,0,3,0,0,4,4,4,,,,,,,,,,,,,,,,,,,,,,,,,False,64,65,False,exp1.png,exp2.png,trial_right_image,-1,exp2.png,4,exp2.png,exp1.png,1,1,non-reversed,correct,0.8065961540485312,1,valid_win,354.5433193000499,36,,,,,,,,,,,s_052,4,2021_Feb_01_1653,Reversal,3.2.4,60.02444191525251,
5,exp3.png,exp4.png,3,0,3,0,0,5,5,5,,,,,,,,,,,,,,,,,,,,,,,,,False,65,66,True,exp4.png,exp3.png,trial_left_image,1,exp4.png,4,exp4.png,exp3.png,1,3,reversed,correct,0.5511961227496376,1,valid_win,358.95888129994273,37,,,,,,,,,,,s_052,4,2021_Feb_01_1653,Reversal,3.2.4,60.02444191525251,
6,exp1.png,exp2.png,3,0,3,0,0,6,6,6,,,,,,,,,,,,,,,,,,,,,,,,,False,66,67,True,exp2.png,exp1.png,trial_left_image,1,exp2.png,4,exp2.png,exp1.png,1,1,non-reversed,correct,0.942394635900942,1,valid_win,363.3742412000429,38,,,,,,,,,,,s_052,4,2021_Feb_01_1653,Reversal,3.2.4,60.02444191525251,
7,exp3.png,exp4.png,3,0,3,0,0,7,7,7,,,,,,,,,,,,,,,,,,,,,,,,,False,67,68,False,exp3.png,exp4.png,trial_right_image,-1,exp4.png,4,exp4.png,exp3.png,1,3,reversed,correct,0.6225873280179054,1,valid_win,368.02218590001576,39,,,,,,,,,,,s_052,4,2021_Feb_01_1653,Reversal,3.2.4,60.02444191525251,
8,exp1.png,exp2.png,3,0,3,0,0,8,8,8,,,,,,,,,,,,,,,,,,,,,,,,,False,68,69,False,exp1.png,exp2.png,trial_right_image,-1,exp2.png,4,exp2.png,exp1.png,1,1,non-reversed,correct,0.7400964123334288,1,valid_win,372.3543199999258,40,,,,,,,,,,,s_052,4,2021_Feb_01_1653,Reversal,3.2.4,60.02444191525251,
9,exp3.png,exp4.png,3,0,3,0,0,9,9,9,,,,,,,,,,,,,,,,,,,,,,,,,False,69,70,True,exp4.png,exp3.png,trial_left_image,1,exp4.png,4,exp4.png,exp3.png,1,3,reversed,correct,0.2902931614469991,1,valid_win,376.8859341000207,41,,,,,,,,,,,s_052,4,2021_Feb_01_1653,Reversal,3.2.4,60.02444191525251,
10,exp1.png,exp2.png,3,0,3,0,0,10,10,10,,,,,,,,,,,,,,,,,,,,,,,,,False,70,71,False,exp1.png,exp2.png,trial_right_image,-1,exp2.png,4,exp2.png,exp1.png,1,1,non-reversed,correct,0.312176779654206,1,valid_win,381.23452079994604,42,,,,,,,,,,,s_052,4,2021_Feb_01_1653,Reversal,3.2.4,60.02444191525251,
11,exp3.png,exp4.png,3,0,3,0,0,11,11,11,,,,,,,,,,,,,,,,,,,,,,,,,False,71,72,True,exp4.png,exp3.png,trial_left_image,1,exp4.png,4,exp4.png,exp3.png,1,3,reversed,correct,0.8010525644796396,1,valid_win,385.39968160004355,43,,,,,,,,,,,s_052,4,2021_Feb_01_1653,Reversal,3.2.4,60.02444191525251,
12,exp1.png,exp2.png,3,0,3,0,0,12,12,12,,,,,,,,,,,,,,,,,,,,,,,,,False,72,73,True,exp2.png,exp1.png,trial_left_image,1,exp2.png,4,exp2.png,exp1.png,1,1,non-reversed,correct,0.22754879822425877,0,invalid_lose,389.59829830005765,43,,,,,,,,,,,s_052,4,2021_Feb_01_1653,Reversal,3.2.4,60.02444191525251,
13,exp3.png,exp4.png,3,0,3,0,0,13,13,13,,,,,,,,,,,,,,,,,,,,,,,,,False,73,74,False,exp3.png,exp4.png,trial_right_image,-1,exp4.png,4,exp4.png,exp3.png,1,3,reversed,correct,0.024190336529354095,0,invalid_lose,393.98024689988233,43,,,,,,,,,,,s_052,4,2021_Feb_01_1653,Reversal,3.2.4,60.02444191525251,
14,exp1.png,exp2.png,3,0,3,0,0,14,14,14,,,,,,,,,,,,,,,,,,,,,,,,,False,74,75,False,exp1.png,exp2.png,trial_right_image,-1,exp2.png,4,exp2.png,exp1.png,1,1,non-reversed,correct,0.10740217756419701,0,invalid_lose,398.27854459988885,43,,,,,,,,,,,s_052,4,2021_Feb_01_1653,Reversal,3.2.4,60.02444191525251,
15,exp3.png,exp4.png,3,0,3,0,0,15,15,15,,,,,,,,,,,,,,,,,,,,,,,,,False,75,76,True,exp4.png,exp3.png,trial_left_image,1,exp4.png,4,exp4.png,exp3.png,1,3,reversed,correct,0.5164373477900789,1,valid_win,402.46109259990044,44,,,,,,,,,,,s_052,4,2021_Feb_01_1653,Reversal,3.2.4,60.02444191525251,
16,exp1.png,exp2.png,3,0,3,0,0,16,16,16,,,,,,,,,,,,,,,,,,,,,,,,,False,76,77,True,exp2.png,exp1.png,trial_left_image,1,exp2.png,4,exp2.png,exp1.png,1,1,non-reversed,correct,0.8387484158907338,1,valid_win,407.3242778999265,45,,,,,,,,,,,s_052,4,2021_Feb_01_1653,Reversal,3.2.4,60.02444191525251,
17,exp3.png,exp4.png,3,0,3,0,0,17,17,17,,,,,,,,,,,,,,,,,,,,,,,,,False,77,78,False,exp3.png,exp4.png,trial_right_image,-1,exp4.png,4,exp4.png,exp3.png,1,3,reversed,correct,0.6966838055016443,1,valid_win,411.6228811000474,46,,,,,,,,,,,s_052,4,2021_Feb_01_1653,Reversal,3.2.4,60.02444191525251,
18,exp1.png,exp2.png,3,0,3,0,0,18,18,18,,,,,,,,,,,,,,,,,,,,,,,,,False,78,79,False,exp1.png,exp2.png,trial_right_image,-1,exp2.png,4,exp2.png,exp1.png,1,1,non-reversed,correct,0.46746323916785315,1,valid_win,416.10599559987895,47,,,,,,,,,,,s_052,4,2021_Feb_01_1653,Reversal,3.2.4,60.02444191525251,
19,exp3.png,exp4.png,3,0,3,0,0,19,19,19,,,,,,,,,,,,,,,,,,,,,,,,,False,79,80,False,exp3.png,exp4.png,trial_right_image,-1,exp4.png,4,exp4.png,exp3.png,1,3,reversed,correct,0.2995011632359561,1,valid_win,420.4055341000203,48,,,,,,,,,,,s_052,4,2021_Feb_01_1653,Reversal,3.2.4,60.02444191525251,
20,exp1.png,exp2.png,3,0,3,0,0,20,20,20,,,,,,,,,,,,,,,,,,,,,,,,,True,,,,,,,,,,,,,,,,,,,,,,,,,,,,,,,s_052,4,2021_Feb_01_1653,Reversal,3.2.4,60.02444191525251,
,,,3,0,3,0,,,,,0,0,0,0,,,,,,,,,,,,,,,,,,,,,,,,,,,,,,,,,,,,,,,,,,20,75,33,89,,,,,,,s_052,4,2021_Feb_01_1653,Reversal,3.2.4,60.02444191525251,
0,exp1.png,exp2.png,,,,,,,,,,,,,,,,,0,0,0,0,0,0,0,0,,,,,,,,,False,0,81,True,exp2.png,exp1.png,trial_left_image,1,exp2.png,4,exp2.png,exp1.png,1,1,non-reversed,correct,0.20587162533654468,0,invalid_lose,433.76672190008685,48,,,,,431.6989931000862,,,,,,s_052,4,2021_Feb_01_1653,Reversal,3.2.4,60.02444191525251,
1,exp3.png,exp4.png,,,,,,,,,,,,,,,,,0,0,0,0,0,1,1,1,,,,,,,,,False,1,82,True,exp4.png,exp3.png,trial_left_image,1,exp4.png,4,exp3.png,exp4.png,1,3,reversed,incorrect,0.6392146463702396,0,valid_lose,438.1984737999737,48,,,,,,,,,,,s_052,4,2021_Feb_01_1653,Reversal,3.2.4,60.02444191525251,
2,exp1.png,exp2.png,,,,,,,,,,,,,,,,,0,0,0,0,0,2,2,2,,,,,,,,,False,2,83,False,exp1.png,exp2.png,trial_right_image,-1,exp2.png,4,exp2.png,exp1.png,1,1,non-reversed,correct,0.6170613120377482,1,valid_win,442.76358560007066,49,,,,,,,,,,,s_052,4,2021_Feb_01_1653,Reversal,3.2.4,60.02444191525251,
3,exp3.png,exp4.png,,,,,,,,,,,,,,,,,0,0,0,0,0,3,3,3,,,,,,,,,False,3,84,False,exp3.png,exp4.png,trial_right_image,-1,exp4.png,4,exp3.png,exp4.png,1,3,reversed,incorrect,0.038951705511685364,1,invalid_win,447.21261049993336,50,,,,,,,,,,,s_052,4,2021_Feb_01_1653,Reversal,3.2.4,60.02444191525251,
4,exp1.png,exp2.png,,,,,,,,,,,,,,,,,0,0,0,0,0,4,4,4,,,,,,,,,False,4,85,False,exp1.png,exp2.png,trial_right_image,-1,exp2.png,4,exp2.png,exp1.png,1,1,non-reversed,correct,0.8310893368461022,1,valid_win,452.3272967999801,51,,,,,,,,,,,s_052,4,2021_Feb_01_1653,Reversal,3.2.4,60.02444191525251,
5,exp3.png,exp4.png,,,,,,,,,,,,,,,,,0,0,0,0,0,5,5,5,,,,,,,,,False,5,86,True,exp4.png,exp3.png,trial_left_image,1,exp4.png,4,exp3.png,exp4.png,1,3,reversed,incorrect,0.17091607723355917,1,invalid_win,456.3243688000366,52,,,,,,,,,,,s_052,4,2021_Feb_01_1653,Reversal,3.2.4,60.02444191525251,
6,exp1.png,exp2.png,,,,,,,,,,,,,,,,,0,0,0,0,0,6,6,6,,,,,,,,,False,6,87,False,exp1.png,exp2.png,trial_right_image,-1,exp2.png,4,exp2.png,exp1.png,1,1,non-reversed,correct,0.9436868159806195,1,valid_win,461.9558371999301,53,,,,,,,,,,,s_052,4,2021_Feb_01_1653,Reversal,3.2.4,60.02444191525251,
7,exp3.png,exp4.png,,,,,,,,,,,,,,,,,0,0,0,0,0,7,7,7,,,,,,,,,False,7,88,False,exp3.png,exp4.png,trial_right_image,-1,exp4.png,4,exp3.png,exp4.png,1,3,reversed,incorrect,0.8283164038148588,0,valid_lose,466.23777169990353,53,,,,,,,,,,,s_052,4,2021_Feb_01_1653,Reversal,3.2.4,60.02444191525251,
8,exp1.png,exp2.png,,,,,,,,,,,,,,,,,0,0,0,0,0,8,8,8,,,,,,,,,False,8,89,False,exp1.png,exp2.png,trial_left_image,1,exp1.png,4,exp2.png,exp1.png,0,2,non-reversed,incorrect,0.6527803585015257,0,valid_lose,470.60403699986637,53,,,,,,,,,,,s_052,4,2021_Feb_01_1653,Reversal,3.2.4,60.02444191525251,
9,exp3.png,exp4.png,,,,,,,,,,,,,,,,,0,0,0,0,0,9,9,9,,,,,,,,,False,9,90,True,exp4.png,exp3.png,trial_left_image,1,exp4.png,4,exp3.png,exp4.png,1,3,reversed,incorrect,0.7617808366625805,0,valid_lose,474.86964659998193,53,,,,,,,,,,,s_052,4,2021_Feb_01_1653,Reversal,3.2.4,60.02444191525251,
10,exp1.png,exp2.png,,,,,,,,,,,,,,,,,0,0,0,0,0,10,10,10,,,,,,,,,False,10,91,True,exp2.png,exp1.png,trial_left_image,1,exp2.png,4,exp2.png,exp1.png,1,1,non-reversed,correct,0.7156447781948022,1,valid_win,479.2511600998696,54,,,,,,,,,,,s_052,4,2021_Feb_01_1653,Reversal,3.2.4,60.02444191525251,
11,exp3.png,exp4.png,,,,,,,,,,,,,,,,,0,0,0,0,0,11,11,11,,,,,,,,,False,11,92,False,exp3.png,exp4.png,trial_right_image,-1,exp4.png,4,exp3.png,exp4.png,1,3,reversed,incorrect,0.028368140815121068,1,invalid_win,483.4833555999212,55,,,,,,,,,,,s_052,4,2021_Feb_01_1653,Reversal,3.2.4,60.02444191525251,
12,exp1.png,exp2.png,,,,,,,,,,,,,,,,,0,0,0,0,0,12,12,12,,,,,,,,,False,12,93,True,exp2.png,exp1.png,trial_left_image,1,exp2.png,4,exp2.png,exp1.png,1,1,non-reversed,correct,0.9616241679134792,1,valid_win,487.9147175999824,56,,,,,,,,,,,s_052,4,2021_Feb_01_1653,Reversal,3.2.4,60.02444191525251,
13,exp3.png,exp4.png,,,,,,,,,,,,,,,,,0,0,0,0,0,13,13,13,,,,,,,,,False,13,94,True,exp4.png,exp3.png,trial_left_image,1,exp4.png,4,exp3.png,exp4.png,1,3,reversed,incorrect,0.5430202613337914,0,valid_lose,492.28000149992295,56,,,,,,,,,,,s_052,4,2021_Feb_01_1653,Reversal,3.2.4,60.02444191525251,
14,exp1.png,exp2.png,,,,,,,,,,,,,,,,,0,0,0,0,0,14,14,14,,,,,,,,,False,14,95,False,exp1.png,exp2.png,trial_right_image,-1,exp2.png,4,exp2.png,exp1.png,1,1,non-reversed,correct,0.10287364883031969,0,invalid_lose,496.49512459989637,56,,,,,,,,,,,s_052,4,2021_Feb_01_1653,Reversal,3.2.4,60.02444191525251,
15,exp3.png,exp4.png,,,,,,,,,,,,,,,,,0,0,0,0,0,15,15,15,,,,,,,,,False,15,96,False,exp3.png,exp4.png,trial_right_image,-1,exp4.png,4,exp3.png,exp4.png,1,3,reversed,incorrect,0.9266550633504013,0,valid_lose,500.87739340006374,56,,,,,,,,,,,s_052,4,2021_Feb_01_1653,Reversal,3.2.4,60.02444191525251,
16,exp1.png,exp2.png,,,,,,,,,,,,,,,,,0,0,0,0,0,16,16,16,,,,,,,,,False,16,97,True,exp2.png,exp1.png,trial_left_image,1,exp2.png,4,exp2.png,exp1.png,1,1,non-reversed,correct,0.07795784946708817,0,invalid_lose,505.09243740001693,56,,,,,,,,,,,s_052,4,2021_Feb_01_1653,Reversal,3.2.4,60.02444191525251,
17,exp3.png,exp4.png,,,,,,,,,,,,,,,,,0,0,0,0,0,17,17,17,,,,,,,,,False,17,98,False,exp3.png,exp4.png,trial_right_image,-1,exp4.png,4,exp3.png,exp4.png,1,3,reversed,incorrect,0.3975669952261025,0,valid_lose,509.30771339987405,56,,,,,,,,,,,s_052,4,2021_Feb_01_1653,Reversal,3.2.4,60.02444191525251,
18,exp1.png,exp2.png,,,,,,,,,,,,,,,,,0,0,0,0,0,18,18,18,,,,,,,,,False,18,99,True,exp2.png,exp1.png,trial_left_image,1,exp2.png,4,exp2.png,exp1.png,1,1,non-reversed,correct,0.33446206568701176,1,valid_win,513.3565690999385,57,,,,,,,,,,,s_052,4,2021_Feb_01_1653,Reversal,3.2.4,60.02444191525251,
19,exp3.png,exp4.png,,,,,,,,,,,,,,,,,0,0,0,0,0,19,19,19,,,,,,,,,False,19,100,True,exp4.png,exp3.png,trial_left_image,1,exp4.png,4,exp3.png,exp4.png,1,3,reversed,incorrect,0.7964812899544138,0,valid_lose,517.8880912000313,57,,,,,,,,,,,s_052,4,2021_Feb_01_1653,Reversal,3.2.4,60.02444191525251,
20,exp1.png,exp2.png,,,,,,,,,,,,,,,,,0,0,0,0,0,20,20,20,,,,,,,,,True,,,,,,,,,,,,,,,,,,,,,,,,,,,,,,,s_052,4,2021_Feb_01_1653,Reversal,3.2.4,60.02444191525251,
,,,,,,,,,,,,,,,,,,,0,0,0,0,,,,,0,0,0,0,,,,,,,,,,,,,,,,,,,,,,,,,,12,62,32,92,,,,,,,s_052,4,2021_Feb_01_1653,Reversal,3.2.4,60.02444191525251,
0,exp1.png,exp2.png,,,,,,,,,,,,,,,,,1,0,1,0,0,0,0,0,,,,,,,,,False,20,101,True,exp2.png,exp1.png,trial_left_image,1,exp2.png,4,exp2.png,exp1.png,1,1,non-reversed,correct,0.9654448568859687,1,valid_win,531.083242499968,58,,,,,,,,,,,s_052,4,2021_Feb_01_1653,Reversal,3.2.4,60.02444191525251,
1,exp3.png,exp4.png,,,,,,,,,,,,,,,,,1,0,1,0,0,1,1,1,,,,,,,,,False,21,102,True,exp4.png,exp3.png,trial_left_image,1,exp4.png,4,exp3.png,exp4.png,1,3,reversed,incorrect,0.701888401905531,0,valid_lose,535.197968600085,58,,,,,,,,,,,s_052,4,2021_Feb_01_1653,Reversal,3.2.4,60.02444191525251,
2,exp1.png,exp2.png,,,,,,,,,,,,,,,,,1,0,1,0,0,2,2,2,,,,,,,,,False,22,103,False,exp1.png,exp2.png,trial_right_image,-1,exp2.png,4,exp2.png,exp1.png,1,1,non-reversed,correct,0.43516807550602765,1,valid_win,539.4312588998582,59,,,,,,,,,,,s_052,4,2021_Feb_01_1653,Reversal,3.2.4,60.02444191525251,
3,exp3.png,exp4.png,,,,,,,,,,,,,,,,,1,0,1,0,0,3,3,3,,,,,,,,,False,23,104,False,exp3.png,exp4.png,trial_right_image,-1,exp4.png,4,exp3.png,exp4.png,1,3,reversed,incorrect,0.38659217224725795,0,valid_lose,543.7626582998782,59,,,,,,,,,,,s_052,4,2021_Feb_01_1653,Reversal,3.2.4,60.02444191525251,
4,exp1.png,exp2.png,,,,,,,,,,,,,,,,,1,0,1,0,0,4,4,4,,,,,,,,,False,24,105,True,exp2.png,exp1.png,trial_left_image,1,exp2.png,4,exp2.png,exp1.png,1,1,non-reversed,correct,0.929596779970926,1,valid_win,547.8945734000299,60,,,,,,,,,,,s_052,4,2021_Feb_01_1653,Reversal,3.2.4,60.02444191525251,
5,exp3.png,exp4.png,,,,,,,,,,,,,,,,,1,0,1,0,0,5,5,5,,,,,,,,,False,25,106,False,exp3.png,exp4.png,trial_right_image,-1,exp4.png,4,exp3.png,exp4.png,1,3,reversed,incorrect,0.6920005780299878,0,valid_lose,552.6594771998934,60,,,,,,,,,,,s_052,4,2021_Feb_01_1653,Reversal,3.2.4,60.02444191525251,
6,exp1.png,exp2.png,,,,,,,,,,,,,,,,,1,0,1,0,0,6,6,6,,,,,,,,,False,26,107,True,exp2.png,exp1.png,trial_left_image,1,exp2.png,4,exp2.png,exp1.png,1,1,non-reversed,correct,0.7516697654718658,1,valid_win,556.8082447999623,61,,,,,,,,,,,s_052,4,2021_Feb_01_1653,Reversal,3.2.4,60.02444191525251,
7,exp3.png,exp4.png,,,,,,,,,,,,,,,,,1,0,1,0,0,7,7,7,,,,,,,,,False,27,108,False,exp3.png,exp4.png,trial_right_image,-1,exp4.png,4,exp3.png,exp4.png,1,3,reversed,incorrect,0.32536190600788883,0,valid_lose,561.0236100000329,61,,,,,,,,,,,s_052,4,2021_Feb_01_1653,Reversal,3.2.4,60.02444191525251,
8,exp1.png,exp2.png,,,,,,,,,,,,,,,,,1,0,1,0,0,8,8,8,,,,,,,,,False,28,109,True,exp2.png,exp1.png,trial_left_image,1,exp2.png,4,exp2.png,exp1.png,1,1,non-reversed,correct,0.8779639739078383,1,valid_win,565.2219225999434,62,,,,,,,,,,,s_052,4,2021_Feb_01_1653,Reversal,3.2.4,60.02444191525251,
9,exp3.png,exp4.png,,,,,,,,,,,,,,,,,1,0,1,0,0,9,9,9,,,,,,,,,False,29,110,True,exp4.png,exp3.png,trial_left_image,1,exp4.png,4,exp3.png,exp4.png,1,3,reversed,incorrect,0.9303823938780706,0,valid_lose,569.4861961998977,62,,,,,,,,,,,s_052,4,2021_Feb_01_1653,Reversal,3.2.4,60.02444191525251,
10,exp1.png,exp2.png,,,,,,,,,,,,,,,,,1,0,1,0,0,10,10,10,,,,,,,,,False,30,111,False,exp1.png,exp2.png,trial_right_image,-1,exp2.png,4,exp2.png,exp1.png,1,1,non-reversed,correct,0.21877446960081892,0,invalid_lose,573.8194088998716,62,,,,,,,,,,,s_052,4,2021_Feb_01_1653,Reversal,3.2.4,60.02444191525251,
11,exp3.png,exp4.png,,,,,,,,,,,,,,,,,1,0,1,0,0,11,11,11,,,,,,,,,False,31,112,True,exp4.png,exp3.png,trial_left_image,1,exp4.png,4,exp3.png,exp4.png,1,3,reversed,incorrect,0.6048569562331957,0,valid_lose,578.0680003000889,62,,,,,,,,,,,s_052,4,2021_Feb_01_1653,Reversal,3.2.4,60.02444191525251,
12,exp1.png,exp2.png,,,,,,,,,,,,,,,,,1,0,1,0,0,12,12,12,,,,,,,,,False,32,113,False,exp1.png,exp2.png,trial_right_image,-1,exp2.png,4,exp2.png,exp1.png,1,1,non-reversed,correct,0.2255136231603584,0,invalid_lose,583.0913668000139,62,,,,,,,,,,,s_052,4,2021_Feb_01_1653,Reversal,3.2.4,60.02444191525251,
13,exp3.png,exp4.png,,,,,,,,,,,,,,,,,1,0,1,0,0,13,13,13,,,,,,,,,False,33,114,True,exp4.png,exp3.png,trial_left_image,1,exp4.png,4,exp3.png,exp4.png,1,3,reversed,incorrect,0.3002483832459131,0,valid_lose,587.3635329999961,62,,,,,,,,,,,s_052,4,2021_Feb_01_1653,Reversal,3.2.4,60.02444191525251,
14,exp1.png,exp2.png,,,,,,,,,,,,,,,,,1,0,1,0,0,14,14,14,,,,,,,,,False,34,115,True,exp2.png,exp1.png,trial_left_image,1,exp2.png,4,exp2.png,exp1.png,1,1,non-reversed,correct,0.3311882635254162,1,valid_win,591.4634604998864,63,,,,,,,,,,,s_052,4,2021_Feb_01_1653,Reversal,3.2.4,60.02444191525251,
15,exp3.png,exp4.png,,,,,,,,,,,,,,,,,1,0,1,0,0,15,15,15,,,,,,,,,False,35,116,False,exp3.png,exp4.png,trial_right_image,-1,exp4.png,4,exp3.png,exp4.png,1,3,reversed,incorrect,0.7915368956430224,0,valid_lose,595.778361500008,63,,,,,,,,,,,s_052,4,2021_Feb_01_1653,Reversal,3.2.4,60.02444191525251,
16,exp1.png,exp2.png,,,,,,,,,,,,,,,,,1,0,1,0,0,16,16,16,,,,,,,,,False,36,117,False,exp1.png,exp2.png,trial_right_image,-1,exp2.png,4,exp2.png,exp1.png,1,1,non-reversed,correct,0.58694631044961,1,valid_win,599.9270607000217,64,,,,,,,,,,,s_052,4,2021_Feb_01_1653,Reversal,3.2.4,60.02444191525251,
17,exp3.png,exp4.png,,,,,,,,,,,,,,,,,1,0,1,0,0,17,17,17,,,,,,,,,False,37,118,False,exp3.png,exp4.png,trial_right_image,-1,exp4.png,4,exp3.png,exp4.png,1,3,reversed,incorrect,0.10018072595997418,1,invalid_win,604.076014299877,65,,,,,,,,,,,s_052,4,2021_Feb_01_1653,Reversal,3.2.4,60.02444191525251,
18,exp1.png,exp2.png,,,,,,,,,,,,,,,,,1,0,1,0,0,18,18,18,,,,,,,,,False,38,119,False,exp1.png,exp2.png,trial_right_image,-1,exp2.png,4,exp2.png,exp1.png,1,1,non-reversed,correct,0.35709166190483144,1,valid_win,608.3410264998674,66,,,,,,,,,,,s_052,4,2021_Feb_01_1653,Reversal,3.2.4,60.02444191525251,
19,exp3.png,exp4.png,,,,,,,,,,,,,,,,,1,0,1,0,0,19,19,19,,,,,,,,,False,39,120,True,exp4.png,exp3.png,trial_left_image,1,exp4.png,4,exp3.png,exp4.png,1,3,reversed,incorrect,0.4033102975422318,0,valid_lose,612.5728376999032,66,,,,,,,,,,,s_052,4,2021_Feb_01_1653,Reversal,3.2.4,60.02444191525251,
20,exp1.png,exp2.png,,,,,,,,,,,,,,,,,1,0,1,0,0,20,20,20,,,,,,,,,True,,,,,,,,,,,,,,,,,,,,,,,,,,,,,,,s_052,4,2021_Feb_01_1653,Reversal,3.2.4,60.02444191525251,
,,,,,,,,,,,,,,,,,,,1,0,1,0,,,,,0,0,0,0,,,,,,,,,,,,,,,,,,,,,,,,,,25,67,20,99,,,,,,,s_052,4,2021_Feb_01_1653,Reversal,3.2.4,60.02444191525251,
0,exp1.png,exp2.png,,,,,,,,,,,,,,,,,2,0,2,0,0,0,0,0,,,,,,,,,False,40,121,True,exp2.png,exp1.png,trial_left_image,1,exp2.png,4,exp2.png,exp1.png,1,1,non-reversed,correct,0.6830020500071494,1,valid_win,626.516675000079,67,,,,,,,,,,,s_052,4,2021_Feb_01_1653,Reversal,3.2.4,60.02444191525251,
1,exp3.png,exp4.png,,,,,,,,,,,,,,,,,2,0,2,0,0,1,1,1,,,,,,,,,False,41,122,True,exp4.png,exp3.png,trial_left_image,1,exp4.png,4,exp3.png,exp4.png,1,3,reversed,incorrect,0.08279978945722899,1,invalid_win,630.5668077000882,68,,,,,,,,,,,s_052,4,2021_Feb_01_1653,Reversal,3.2.4,60.02444191525251,
2,exp1.png,exp2.png,,,,,,,,,,,,,,,,,2,0,2,0,0,2,2,2,,,,,,,,,False,42,123,False,exp1.png,exp2.png,trial_right_image,-1,exp2.png,4,exp2.png,exp1.png,1,1,non-reversed,correct,0.18777713052081446,0,invalid_lose,634.8487054998986,68,,,,,,,,,,,s_052,4,2021_Feb_01_1653,Reversal,3.2.4,60.02444191525251,
3,exp3.png,exp4.png,,,,,,,,,,,,,,,,,2,0,2,0,0,3,3,3,,,,,,,,,False,43,124,True,exp4.png,exp3.png,trial_left_image,1,exp4.png,4,exp3.png,exp4.png,1,3,reversed,incorrect,0.32181179222124445,0,valid_lose,639.0302424998954,68,,,,,,,,,,,s_052,4,2021_Feb_01_1653,Reversal,3.2.4,60.02444191525251,
4,exp1.png,exp2.png,,,,,,,,,,,,,,,,,2,0,2,0,0,4,4,4,,,,,,,,,False,44,125,True,exp2.png,exp1.png,trial_left_image,1,exp2.png,4,exp2.png,exp1.png,1,1,non-reversed,correct,0.7135819599218215,1,valid_win,643.3294384998735,69,,,,,,,,,,,s_052,4,2021_Feb_01_1653,Reversal,3.2.4,60.02444191525251,
5,exp3.png,exp4.png,,,,,,,,,,,,,,,,,2,0,2,0,0,5,5,5,,,,,,,,,False,45,126,True,exp4.png,exp3.png,trial_left_image,1,exp4.png,4,exp3.png,exp4.png,1,3,reversed,incorrect,0.30497608458198244,0,valid_lose,647.7927375000436,69,,,,,,,,,,,s_052,4,2021_Feb_01_1653,Reversal,3.2.4,60.02444191525251,
6,exp1.png,exp2.png,,,,,,,,,,,,,,,,,2,0,2,0,0,6,6,6,,,,,,,,,False,46,127,False,exp1.png,exp2.png,trial_right_image,-1,exp2.png,4,exp2.png,exp1.png,1,1,non-reversed,correct,0.9781643086476703,1,valid_win,652.2597101000138,70,,,,,,,,,,,s_052,4,2021_Feb_01_1653,Reversal,3.2.4,60.02444191525251,
7,exp3.png,exp4.png,,,,,,,,,,,,,,,,,2,0,2,0,0,7,7,7,,,,,,,,,False,47,128,False,exp3.png,exp4.png,trial_left_image,1,exp3.png,4,exp3.png,exp4.png,0,4,reversed,correct,0.14892790177085502,0,invalid_lose,656.2913871000055,70,,,,,,,,,,,s_052,4,2021_Feb_01_1653,Reversal,3.2.4,60.02444191525251,
8,exp1.png,exp2.png,,,,,,,,,,,,,,,,,2,0,2,0,0,8,8,8,,,,,,,,,False,48,129,False,exp1.png,exp2.png,trial_left_image,1,exp1.png,4,exp2.png,exp1.png,0,2,non-reversed,incorrect,0.2168778900868371,1,invalid_win,660.3569386000745,71,,,,,,,,,,,s_052,4,2021_Feb_01_1653,Reversal,3.2.4,60.02444191525251,
9,exp3.png,exp4.png,,,,,,,,,,,,,,,,,2,0,2,0,0,9,9,9,,,,,,,,,False,49,130,True,exp4.png,exp3.png,trial_right_image,-1,exp3.png,4,exp3.png,exp4.png,0,4,reversed,correct,0.1800367694313436,0,invalid_lose,664.6372032999061,71,,,,,,,,,,,s_052,4,2021_Feb_01_1653,Reversal,3.2.4,60.02444191525251,
10,exp1.png,exp2.png,,,,,,,,,,,,,,,,,2,0,2,0,0,10,10,10,,,,,,,,,False,50,131,False,exp1.png,exp2.png,trial_left_image,1,exp1.png,4,exp2.png,exp1.png,0,2,non-reversed,incorrect,0.915548423769797,0,valid_lose,668.8207236998715,71,,,,,,,,,,,s_052,4,2021_Feb_01_1653,Reversal,3.2.4,60.02444191525251,
11,exp3.png,exp4.png,,,,,,,,,,,,,,,,,2,0,2,0,0,11,11,11,,,,,,,,,False,51,132,False,exp3.png,exp4.png,trial_left_image,1,exp3.png,4,exp3.png,exp4.png,0,4,reversed,correct,0.43767129901924506,1,valid_win,673.0023063998669,72,,,,,,,,,,,s_052,4,2021_Feb_01_1653,Reversal,3.2.4,60.02444191525251,
12,exp1.png,exp2.png,,,,,,,,,,,,,,,,,2,0,2,0,0,12,12,12,,,,,,,,,False,52,133,True,exp2.png,exp1.png,trial_right_image,-1,exp1.png,4,exp2.png,exp1.png,0,2,non-reversed,incorrect,0.8140038501695405,0,valid_lose,677.4005932,72,,,,,,,,,,,s_052,4,2021_Feb_01_1653,Reversal,3.2.4,60.02444191525251,
13,exp3.png,exp4.png,,,,,,,,,,,,,,,,,2,0,2,0,0,13,13,13,,,,,,,,,False,53,134,False,exp3.png,exp4.png,trial_left_image,1,exp3.png,4,exp3.png,exp4.png,0,4,reversed,correct,0.8501811989744152,1,valid_win,681.6489218999632,73,,,,,,,,,,,s_052,4,2021_Feb_01_1653,Reversal,3.2.4,60.02444191525251,
14,exp1.png,exp2.png,,,,,,,,,,,,,,,,,2,0,2,0,0,14,14,14,,,,,,,,,False,54,135,True,exp2.png,exp1.png,trial_right_image,-1,exp1.png,4,exp2.png,exp1.png,0,2,non-reversed,incorrect,0.9088115683183303,0,valid_lose,686.0477483000141,73,,,,,,,,,,,s_052,4,2021_Feb_01_1653,Reversal,3.2.4,60.02444191525251,
15,exp3.png,exp4.png,,,,,,,,,,,,,,,,,2,0,2,0,0,15,15,15,,,,,,,,,False,55,136,False,exp3.png,exp4.png,trial_left_image,1,exp3.png,4,exp3.png,exp4.png,0,4,reversed,correct,0.7332858502670171,1,valid_win,690.2963652999606,74,,,,,,,,,,,s_052,4,2021_Feb_01_1653,Reversal,3.2.4,60.02444191525251,
16,exp1.png,exp2.png,,,,,,,,,,,,,,,,,2,0,2,0,0,16,16,16,,,,,,,,,False,56,137,False,exp1.png,exp2.png,trial_left_image,1,exp1.png,4,exp2.png,exp1.png,0,2,non-reversed,incorrect,0.8352343257330634,0,valid_lose,694.3116387999617,74,,,,,,,,,,,s_052,4,2021_Feb_01_1653,Reversal,3.2.4,60.02444191525251,
17,exp3.png,exp4.png,,,,,,,,,,,,,,,,,2,0,2,0,0,17,17,17,,,,,,,,,False,57,138,False,exp3.png,exp4.png,trial_right_image,-1,exp4.png,4,exp3.png,exp4.png,1,3,reversed,incorrect,0.1736601573205474,1,invalid_win,698.3936467000749,75,,,,,,,,,,,s_052,4,2021_Feb_01_1653,Reversal,3.2.4,60.02444191525251,
18,exp1.png,exp2.png,,,,,,,,,,,,,,,,,2,0,2,0,0,18,18,18,,,,,,,,,False,58,139,True,exp2.png,exp1.png,trial_left_image,1,exp2.png,4,exp2.png,exp1.png,1,1,non-reversed,correct,0.0035977167635241614,0,invalid_lose,703.0421076000202,75,,,,,,,,,,,s_052,4,2021_Feb_01_1653,Reversal,3.2.4,60.02444191525251,
19,exp3.png,exp4.png,,,,,,,,,,,,,,,,,2,0,2,0,0,19,19,19,,,,,,,,,False,59,140,True,exp4.png,exp3.png,trial_left_image,1,exp4.png,4,exp3.png,exp4.png,1,3,reversed,incorrect,0.6256153610991669,0,valid_lose,707.3562067998573,75,,,,,,,,,,,s_052,4,2021_Feb_01_1653,Reversal,3.2.4,60.02444191525251,
20,exp1.png,exp2.png,,,,,,,,,,,,,,,,,2,0,2,0,0,20,20,20,,,,,,,,,True,,,,,,,,,,,,,,,,,,,,,,,,,,,,,,,s_052,4,2021_Feb_01_1653,Reversal,3.2.4,60.02444191525251,
,,,,,,,,,,,,,,,,,,,2,0,2,0,,,,,0,0,0,0,,,,,,,,,,,,,,,,,,,,,,,,,,30,70,18,87,,,,,,,s_052,4,2021_Feb_01_1653,Reversal,3.2.4,60.02444191525251,
,,,,,,,,,,,,,,,,,,,,,,,,,,,,,,,,,,,,,,,,,,,,,,,,,,,,,,,75,,,,,,89,60,29,289.0682077999227,1,,,,,,,
