trial_index,trial_image1_file,trial_image2_file,learning_outer_loop.thisRepN,learning_outer_loop.thisTrialN,learning_outer_loop.thisN,learning_outer_loop.thisIndex,learning_inner_loop.thisRepN,learning_inner_loop.thisTrialN,learning_inner_loop.thisN,learning_inner_loop.thisIndex,learning_estimation_outer_loop.thisRepN,learning_estimation_outer_loop.thisTrialN,learning_estimation_outer_loop.thisN,learning_estimation_outer_loop.thisIndex,learning_estimation_inner_loop.thisRepN,learning_estimation_inner_loop.thisTrialN,learning_estimation_inner_loop.thisN,learning_estimation_inner_loop.thisIndex,reversal_outer_loop.thisRepN,reversal_outer_loop.thisTrialN,reversal_outer_loop.thisN,reversal_outer_loop.thisIndex,reversal_inner_loop.thisRepN,reversal_inner_loop.thisTrialN,reversal_inner_loop.thisN,reversal_inner_loop.thisIndex,reversal_estimation_outer_loop.thisRepN,reversal_estimation_outer_loop.thisTrialN,reversal_estimation_outer_loop.thisN,reversal_estimation_outer_loop.thisIndex,reversal_estimation_inner_loop.thisRepN,reversal_estimation_inner_loop.thisTrialN,reversal_estimation_inner_loop.thisN,reversal_estimation_inner_loop.thisIndex,skipped,total_trial_counter,trial_num,left_right_flip,left_image_file,right_image_file,clicked_stimulus_side,side,clicked_stimulus,version,high_prob_image_file,low_prob_image_file,choice_a,choice_b,pair_type,correct,trial_feedback_random,reward,trial_type,overall_time_after_trial,score,estimation_exp1.png,estimation_exp2.png,estimation_exp3.png,estimation_exp4.png,total_learning_time,total_correct,learning_correct,reversal_correct,total_reversal_time,extra_block,participant,ver,date,expName,psychopyVersion,frameRate,
0,exp1.png,exp2.png,0,0,0,0,0,0,0,0,,,,,,,,,,,,,,,,,,,,,,,,,True,,,,,,,,,,,,,,,,,,,,,,,,,,,,,,,s_054,3,2021_Feb_03_1231,Reversal,3.2.4,59.9865989930018,
1,exp3.png,exp4.png,0,0,0,0,0,1,1,1,,,,,,,,,,,,,,,,,,,,,,,,,False,0,1,False,exp3.png,exp4.png,trial_left_image,1,exp3.png,3,exp4.png,exp3.png,0,2,non-reversed,incorrect,0.574210555675352,0,valid_lose,4.7277393999975175,0,,,,,,,,,,,s_054,3,2021_Feb_03_1231,Reversal,3.2.4,59.9865989930018,
2,exp1.png,exp2.png,0,0,0,0,0,2,2,2,,,,,,,,,,,,,,,,,,,,,,,,,False,1,2,False,exp1.png,exp2.png,trial_right_image,-1,exp2.png,3,exp2.png,exp1.png,1,3,reversed,correct,0.6176665609037527,1,valid_win,9.792981699996744,1,,,,,,,,,,,s_054,3,2021_Feb_03_1231,Reversal,3.2.4,59.9865989930018,
3,exp3.png,exp4.png,0,0,0,0,0,3,3,3,,,,,,,,,,,,,,,,,,,,,,,,,False,2,3,True,exp4.png,exp3.png,trial_right_image,-1,exp3.png,3,exp4.png,exp3.png,0,2,non-reversed,incorrect,0.4857401531523534,0,valid_lose,15.390928399996483,1,,,,,,,,,,,s_054,3,2021_Feb_03_1231,Reversal,3.2.4,59.9865989930018,
4,exp1.png,exp2.png,0,0,0,0,0,4,4,4,,,,,,,,,,,,,,,,,,,,,,,,,False,3,4,True,exp2.png,exp1.png,trial_right_image,-1,exp1.png,3,exp2.png,exp1.png,0,4,reversed,incorrect,0.9129154260889706,0,valid_lose,20.322809899997083,1,,,,,,,,,,,s_054,3,2021_Feb_03_1231,Reversal,3.2.4,59.9865989930018,
5,exp3.png,exp4.png,0,0,0,0,0,5,5,5,,,,,,,,,,,,,,,,,,,,,,,,,False,4,5,True,exp4.png,exp3.png,trial_left_image,1,exp4.png,3,exp4.png,exp3.png,1,1,non-reversed,correct,0.9392513811240237,1,valid_win,25.420026599997072,2,,,,,,,,,,,s_054,3,2021_Feb_03_1231,Reversal,3.2.4,59.9865989930018,
6,exp1.png,exp2.png,0,0,0,0,0,6,6,6,,,,,,,,,,,,,,,,,,,,,,,,,False,5,6,False,exp1.png,exp2.png,trial_right_image,-1,exp2.png,3,exp2.png,exp1.png,1,3,reversed,correct,0.36267041787149756,1,valid_win,29.985517699999036,3,,,,,,,,,,,s_054,3,2021_Feb_03_1231,Reversal,3.2.4,59.9865989930018,
7,exp3.png,exp4.png,0,0,0,0,0,7,7,7,,,,,,,,,,,,,,,,,,,,,,,,,False,6,7,True,exp4.png,exp3.png,trial_left_image,1,exp4.png,3,exp4.png,exp3.png,1,1,non-reversed,correct,0.09136021158518892,0,invalid_lose,34.81772120000096,3,,,,,,,,,,,s_054,3,2021_Feb_03_1231,Reversal,3.2.4,59.9865989930018,
8,exp1.png,exp2.png,0,0,0,0,0,8,8,8,,,,,,,,,,,,,,,,,,,,,,,,,False,7,8,False,exp1.png,exp2.png,trial_right_image,-1,exp2.png,3,exp2.png,exp1.png,1,3,reversed,correct,0.49017110288178956,1,valid_win,40.48189160000766,4,,,,,,,,,,,s_054,3,2021_Feb_03_1231,Reversal,3.2.4,59.9865989930018,
9,exp3.png,exp4.png,0,0,0,0,0,9,9,9,,,,,,,,,,,,,,,,,,,,,,,,,False,8,9,True,exp4.png,exp3.png,trial_left_image,1,exp4.png,3,exp4.png,exp3.png,1,1,non-reversed,correct,0.7740938407785444,1,valid_win,45.69712910000817,5,,,,,,,,,,,s_054,3,2021_Feb_03_1231,Reversal,3.2.4,59.9865989930018,
10,exp1.png,exp2.png,0,0,0,0,0,10,10,10,,,,,,,,,,,,,,,,,,,,,,,,,False,9,10,True,exp2.png,exp1.png,trial_right_image,-1,exp1.png,3,exp2.png,exp1.png,0,4,reversed,incorrect,0.16941946367929417,1,invalid_win,49.91234419999819,6,,,,,,,,,,,s_054,3,2021_Feb_03_1231,Reversal,3.2.4,59.9865989930018,
11,exp3.png,exp4.png,0,0,0,0,0,11,11,11,,,,,,,,,,,,,,,,,,,,,,,,,False,10,11,True,exp4.png,exp3.png,trial_left_image,1,exp4.png,3,exp4.png,exp3.png,1,1,non-reversed,correct,0.8943518233750516,1,valid_win,55.27764810000372,7,,,,,,,,,,,s_054,3,2021_Feb_03_1231,Reversal,3.2.4,59.9865989930018,
12,exp1.png,exp2.png,0,0,0,0,0,12,12,12,,,,,,,,,,,,,,,,,,,,,,,,,False,11,12,False,exp1.png,exp2.png,trial_right_image,-1,exp2.png,3,exp2.png,exp1.png,1,3,reversed,correct,0.6831098097476197,1,valid_win,59.52603079999972,8,,,,,,,,,,,s_054,3,2021_Feb_03_1231,Reversal,3.2.4,59.9865989930018,
13,exp3.png,exp4.png,0,0,0,0,0,13,13,13,,,,,,,,,,,,,,,,,,,,,,,,,False,12,13,False,exp3.png,exp4.png,trial_left_image,1,exp3.png,3,exp4.png,exp3.png,0,2,non-reversed,incorrect,0.9162897639994362,0,valid_lose,64.30776809999952,8,,,,,,,,,,,s_054,3,2021_Feb_03_1231,Reversal,3.2.4,59.9865989930018,
14,exp1.png,exp2.png,0,0,0,0,0,14,14,14,,,,,,,,,,,,,,,,,,,,,,,,,False,13,14,True,exp2.png,exp1.png,trial_left_image,1,exp2.png,3,exp2.png,exp1.png,1,3,reversed,correct,0.8876314756615181,1,valid_win,69.18910479999613,9,,,,,,,,,,,s_054,3,2021_Feb_03_1231,Reversal,3.2.4,59.9865989930018,
15,exp3.png,exp4.png,0,0,0,0,0,15,15,15,,,,,,,,,,,,,,,,,,,,,,,,,False,14,15,True,exp4.png,exp3.png,trial_right_image,-1,exp3.png,3,exp4.png,exp3.png,0,2,non-reversed,incorrect,0.11389883962488212,1,invalid_win,74.13687780000328,10,,,,,,,,,,,s_054,3,2021_Feb_03_1231,Reversal,3.2.4,59.9865989930018,
16,exp1.png,exp2.png,0,0,0,0,0,16,16,16,,,,,,,,,,,,,,,,,,,,,,,,,False,15,16,False,exp1.png,exp2.png,trial_right_image,-1,exp2.png,3,exp2.png,exp1.png,1,3,reversed,correct,0.7757552069588439,1,valid_win,79.00231850000273,11,,,,,,,,,,,s_054,3,2021_Feb_03_1231,Reversal,3.2.4,59.9865989930018,
17,exp3.png,exp4.png,0,0,0,0,0,17,17,17,,,,,,,,,,,,,,,,,,,,,,,,,False,16,17,True,exp4.png,exp3.png,trial_left_image,1,exp4.png,3,exp4.png,exp3.png,1,1,non-reversed,correct,0.959642175125773,1,valid_win,83.55121210000652,12,,,,,,,,,,,s_054,3,2021_Feb_03_1231,Reversal,3.2.4,59.9865989930018,
18,exp1.png,exp2.png,0,0,0,0,0,18,18,18,,,,,,,,,,,,,,,,,,,,,,,,,False,17,18,False,exp1.png,exp2.png,trial_right_image,-1,exp2.png,3,exp2.png,exp1.png,1,3,reversed,correct,0.05608985695999946,0,invalid_lose,87.81625440000789,12,,,,,,,,,,,s_054,3,2021_Feb_03_1231,Reversal,3.2.4,59.9865989930018,
19,exp3.png,exp4.png,0,0,0,0,0,19,19,19,,,,,,,,,,,,,,,,,,,,,,,,,False,18,19,False,exp3.png,exp4.png,trial_right_image,-1,exp4.png,3,exp4.png,exp3.png,1,1,non-reversed,correct,0.8678984805796135,1,valid_win,92.28140649999841,13,,,,,,,,,,,s_054,3,2021_Feb_03_1231,Reversal,3.2.4,59.9865989930018,
20,exp1.png,exp2.png,0,0,0,0,0,20,20,20,,,,,,,,,,,,,,,,,,,,,,,,,False,19,20,False,exp1.png,exp2.png,trial_right_image,-1,exp2.png,3,exp2.png,exp1.png,1,3,reversed,correct,0.0783499036893267,0,invalid_lose,96.48042910000368,13,,,,,,,,,,,s_054,3,2021_Feb_03_1231,Reversal,3.2.4,59.9865989930018,
,,,0,0,0,0,,,,,0,0,0,0,,,,,,,,,,,,,,,,,,,,,,,,,,,,,,,,,,,,,,,,,,19,65,68,67,,,,,,,s_054,3,2021_Feb_03_1231,Reversal,3.2.4,59.9865989930018,
0,exp1.png,exp2.png,1,0,1,0,0,0,0,0,,,,,,,,,,,,,,,,,,,,,,,,,True,,,,,,,,,,,,,,,,,,,,,,,,,,,,,,,s_054,3,2021_Feb_03_1231,Reversal,3.2.4,59.9865989930018,
1,exp3.png,exp4.png,1,0,1,0,0,1,1,1,,,,,,,,,,,,,,,,,,,,,,,,,False,20,21,False,exp3.png,exp4.png,trial_right_image,-1,exp4.png,3,exp4.png,exp3.png,1,1,non-reversed,correct,0.7957823793821739,1,valid_win,120.63835380000819,14,,,,,,,,,,,s_054,3,2021_Feb_03_1231,Reversal,3.2.4,59.9865989930018,
2,exp1.png,exp2.png,1,0,1,0,0,2,2,2,,,,,,,,,,,,,,,,,,,,,,,,,False,21,22,False,exp1.png,exp2.png,trial_right_image,-1,exp2.png,3,exp2.png,exp1.png,1,3,reversed,correct,0.9890965278029048,1,valid_win,125.57059689999733,15,,,,,,,,,,,s_054,3,2021_Feb_03_1231,Reversal,3.2.4,59.9865989930018,
3,exp3.png,exp4.png,1,0,1,0,0,3,3,3,,,,,,,,,,,,,,,,,,,,,,,,,False,22,23,True,exp4.png,exp3.png,trial_right_image,-1,exp3.png,3,exp4.png,exp3.png,0,2,non-reversed,incorrect,0.4509490178216723,0,valid_lose,130.41834269999526,15,,,,,,,,,,,s_054,3,2021_Feb_03_1231,Reversal,3.2.4,59.9865989930018,
4,exp1.png,exp2.png,1,0,1,0,0,4,4,4,,,,,,,,,,,,,,,,,,,,,,,,,False,23,24,True,exp2.png,exp1.png,trial_right_image,-1,exp1.png,3,exp2.png,exp1.png,0,4,reversed,incorrect,0.6656578982385537,0,valid_lose,135.23354400000244,15,,,,,,,,,,,s_054,3,2021_Feb_03_1231,Reversal,3.2.4,59.9865989930018,
5,exp3.png,exp4.png,1,0,1,0,0,5,5,5,,,,,,,,,,,,,,,,,,,,,,,,,False,24,25,True,exp4.png,exp3.png,trial_left_image,1,exp4.png,3,exp4.png,exp3.png,1,1,non-reversed,correct,0.6585320086873181,1,valid_win,139.76532760000555,16,,,,,,,,,,,s_054,3,2021_Feb_03_1231,Reversal,3.2.4,59.9865989930018,
6,exp1.png,exp2.png,1,0,1,0,0,6,6,6,,,,,,,,,,,,,,,,,,,,,,,,,False,25,26,False,exp1.png,exp2.png,trial_right_image,-1,exp2.png,3,exp2.png,exp1.png,1,3,reversed,correct,0.3120417244511625,1,valid_win,143.8645133999962,17,,,,,,,,,,,s_054,3,2021_Feb_03_1231,Reversal,3.2.4,59.9865989930018,
7,exp3.png,exp4.png,1,0,1,0,0,7,7,7,,,,,,,,,,,,,,,,,,,,,,,,,False,26,27,False,exp3.png,exp4.png,trial_right_image,-1,exp4.png,3,exp4.png,exp3.png,1,1,non-reversed,correct,0.9700509434794301,1,valid_win,148.145551900001,18,,,,,,,,,,,s_054,3,2021_Feb_03_1231,Reversal,3.2.4,59.9865989930018,
8,exp1.png,exp2.png,1,0,1,0,0,8,8,8,,,,,,,,,,,,,,,,,,,,,,,,,False,27,28,True,exp2.png,exp1.png,trial_left_image,1,exp2.png,3,exp2.png,exp1.png,1,3,reversed,correct,0.7568092239329363,1,valid_win,152.67768229999638,19,,,,,,,,,,,s_054,3,2021_Feb_03_1231,Reversal,3.2.4,59.9865989930018,
9,exp3.png,exp4.png,1,0,1,0,0,9,9,9,,,,,,,,,,,,,,,,,,,,,,,,,False,28,29,True,exp4.png,exp3.png,trial_left_image,1,exp4.png,3,exp4.png,exp3.png,1,1,non-reversed,correct,0.6236153278309469,1,valid_win,157.0767765000055,20,,,,,,,,,,,s_054,3,2021_Feb_03_1231,Reversal,3.2.4,59.9865989930018,
10,exp1.png,exp2.png,1,0,1,0,0,10,10,10,,,,,,,,,,,,,,,,,,,,,,,,,False,29,30,True,exp2.png,exp1.png,trial_left_image,1,exp2.png,3,exp2.png,exp1.png,1,3,reversed,correct,0.7582761237617212,1,valid_win,161.39228349999757,21,,,,,,,,,,,s_054,3,2021_Feb_03_1231,Reversal,3.2.4,59.9865989930018,
11,exp3.png,exp4.png,1,0,1,0,0,11,11,11,,,,,,,,,,,,,,,,,,,,,,,,,False,30,31,False,exp3.png,exp4.png,trial_right_image,-1,exp4.png,3,exp4.png,exp3.png,1,1,non-reversed,correct,0.09549629957796468,0,invalid_lose,165.52314879999903,21,,,,,,,,,,,s_054,3,2021_Feb_03_1231,Reversal,3.2.4,59.9865989930018,
12,exp1.png,exp2.png,1,0,1,0,0,12,12,12,,,,,,,,,,,,,,,,,,,,,,,,,False,31,32,False,exp1.png,exp2.png,trial_right_image,-1,exp2.png,3,exp2.png,exp1.png,1,3,reversed,correct,0.647009240728567,1,valid_win,169.65561299999536,22,,,,,,,,,,,s_054,3,2021_Feb_03_1231,Reversal,3.2.4,59.9865989930018,
13,exp3.png,exp4.png,1,0,1,0,0,13,13,13,,,,,,,,,,,,,,,,,,,,,,,,,False,32,33,True,exp4.png,exp3.png,trial_left_image,1,exp4.png,3,exp4.png,exp3.png,1,1,non-reversed,correct,0.630089790737081,1,valid_win,174.05364490000647,23,,,,,,,,,,,s_054,3,2021_Feb_03_1231,Reversal,3.2.4,59.9865989930018,
14,exp1.png,exp2.png,1,0,1,0,0,14,14,14,,,,,,,,,,,,,,,,,,,,,,,,,False,33,34,True,exp2.png,exp1.png,trial_left_image,1,exp2.png,3,exp2.png,exp1.png,1,3,reversed,correct,0.242477723094341,0,invalid_lose,178.66875759999675,23,,,,,,,,,,,s_054,3,2021_Feb_03_1231,Reversal,3.2.4,59.9865989930018,
15,exp3.png,exp4.png,1,0,1,0,0,15,15,15,,,,,,,,,,,,,,,,,,,,,,,,,False,34,35,True,exp4.png,exp3.png,trial_left_image,1,exp4.png,3,exp4.png,exp3.png,1,1,non-reversed,correct,0.8730400729610401,1,valid_win,182.9172658000025,24,,,,,,,,,,,s_054,3,2021_Feb_03_1231,Reversal,3.2.4,59.9865989930018,
16,exp1.png,exp2.png,1,0,1,0,0,16,16,16,,,,,,,,,,,,,,,,,,,,,,,,,False,35,36,False,exp1.png,exp2.png,trial_right_image,-1,exp2.png,3,exp2.png,exp1.png,1,3,reversed,correct,0.7882589904176368,1,valid_win,187.11552190000657,25,,,,,,,,,,,s_054,3,2021_Feb_03_1231,Reversal,3.2.4,59.9865989930018,
17,exp3.png,exp4.png,1,0,1,0,0,17,17,17,,,,,,,,,,,,,,,,,,,,,,,,,False,36,37,False,exp3.png,exp4.png,trial_left_image,1,exp3.png,3,exp4.png,exp3.png,0,2,non-reversed,incorrect,0.9491514641783273,0,valid_lose,191.3637383000023,25,,,,,,,,,,,s_054,3,2021_Feb_03_1231,Reversal,3.2.4,59.9865989930018,
18,exp1.png,exp2.png,1,0,1,0,0,18,18,18,,,,,,,,,,,,,,,,,,,,,,,,,False,37,38,False,exp1.png,exp2.png,trial_right_image,-1,exp2.png,3,exp2.png,exp1.png,1,3,reversed,correct,0.2792940936355085,1,valid_win,195.4628831000009,26,,,,,,,,,,,s_054,3,2021_Feb_03_1231,Reversal,3.2.4,59.9865989930018,
19,exp3.png,exp4.png,1,0,1,0,0,19,19,19,,,,,,,,,,,,,,,,,,,,,,,,,False,38,39,True,exp4.png,exp3.png,trial_left_image,1,exp4.png,3,exp4.png,exp3.png,1,1,non-reversed,correct,0.3138307963330639,1,valid_win,199.62848319999466,27,,,,,,,,,,,s_054,3,2021_Feb_03_1231,Reversal,3.2.4,59.9865989930018,
20,exp1.png,exp2.png,1,0,1,0,0,20,20,20,,,,,,,,,,,,,,,,,,,,,,,,,False,39,40,False,exp1.png,exp2.png,trial_right_image,-1,exp2.png,3,exp2.png,exp1.png,1,3,reversed,correct,0.23436764366885798,0,invalid_lose,203.7270908000064,27,,,,,,,,,,,s_054,3,2021_Feb_03_1231,Reversal,3.2.4,59.9865989930018,
,,,1,0,1,0,,,,,0,0,0,0,,,,,,,,,,,,,,,,,,,,,,,,,,,,,,,,,,,,,,,,,,36,83,39,67,,,,,,,s_054,3,2021_Feb_03_1231,Reversal,3.2.4,59.9865989930018,
0,exp1.png,exp2.png,2,0,2,0,0,0,0,0,,,,,,,,,,,,,,,,,,,,,,,,,True,,,,,,,,,,,,,,,,,,,,,,,,,,,,,,,s_054,3,2021_Feb_03_1231,Reversal,3.2.4,59.9865989930018,
1,exp3.png,exp4.png,2,0,2,0,0,1,1,1,,,,,,,,,,,,,,,,,,,,,,,,,False,40,41,True,exp4.png,exp3.png,trial_left_image,1,exp4.png,3,exp4.png,exp3.png,1,1,non-reversed,correct,0.9926242717530595,1,valid_win,219.67169440000725,28,,,,,,,,,,,s_054,3,2021_Feb_03_1231,Reversal,3.2.4,59.9865989930018,
2,exp1.png,exp2.png,2,0,2,0,0,2,2,2,,,,,,,,,,,,,,,,,,,,,,,,,False,41,42,False,exp1.png,exp2.png,trial_right_image,-1,exp2.png,3,exp2.png,exp1.png,1,3,reversed,correct,0.5333080180038375,1,valid_win,223.75340689999575,29,,,,,,,,,,,s_054,3,2021_Feb_03_1231,Reversal,3.2.4,59.9865989930018,
3,exp3.png,exp4.png,2,0,2,0,0,3,3,3,,,,,,,,,,,,,,,,,,,,,,,,,False,42,43,False,exp3.png,exp4.png,trial_right_image,-1,exp4.png,3,exp4.png,exp3.png,1,1,non-reversed,correct,0.08015525079468588,0,invalid_lose,227.70113610000408,29,,,,,,,,,,,s_054,3,2021_Feb_03_1231,Reversal,3.2.4,59.9865989930018,
4,exp1.png,exp2.png,2,0,2,0,0,4,4,4,,,,,,,,,,,,,,,,,,,,,,,,,False,43,44,True,exp2.png,exp1.png,trial_left_image,1,exp2.png,3,exp2.png,exp1.png,1,3,reversed,correct,0.6951758225945371,1,valid_win,231.98369540000567,30,,,,,,,,,,,s_054,3,2021_Feb_03_1231,Reversal,3.2.4,59.9865989930018,
5,exp3.png,exp4.png,2,0,2,0,0,5,5,5,,,,,,,,,,,,,,,,,,,,,,,,,False,44,45,True,exp4.png,exp3.png,trial_left_image,1,exp4.png,3,exp4.png,exp3.png,1,1,non-reversed,correct,0.8819558222617209,1,valid_win,236.03215480000654,31,,,,,,,,,,,s_054,3,2021_Feb_03_1231,Reversal,3.2.4,59.9865989930018,
6,exp1.png,exp2.png,2,0,2,0,0,6,6,6,,,,,,,,,,,,,,,,,,,,,,,,,False,45,46,False,exp1.png,exp2.png,trial_right_image,-1,exp2.png,3,exp2.png,exp1.png,1,3,reversed,correct,0.07380063491125566,0,invalid_lose,240.0808165000053,31,,,,,,,,,,,s_054,3,2021_Feb_03_1231,Reversal,3.2.4,59.9865989930018,
7,exp3.png,exp4.png,2,0,2,0,0,7,7,7,,,,,,,,,,,,,,,,,,,,,,,,,False,46,47,False,exp3.png,exp4.png,trial_right_image,-1,exp4.png,3,exp4.png,exp3.png,1,1,non-reversed,correct,0.8194407829299503,1,valid_win,243.99643410000135,32,,,,,,,,,,,s_054,3,2021_Feb_03_1231,Reversal,3.2.4,59.9865989930018,
8,exp1.png,exp2.png,2,0,2,0,0,8,8,8,,,,,,,,,,,,,,,,,,,,,,,,,False,47,48,True,exp2.png,exp1.png,trial_left_image,1,exp2.png,3,exp2.png,exp1.png,1,3,reversed,correct,0.5080663360490331,1,valid_win,248.49534270000004,33,,,,,,,,,,,s_054,3,2021_Feb_03_1231,Reversal,3.2.4,59.9865989930018,
9,exp3.png,exp4.png,2,0,2,0,0,9,9,9,,,,,,,,,,,,,,,,,,,,,,,,,False,48,49,False,exp3.png,exp4.png,trial_left_image,1,exp3.png,3,exp4.png,exp3.png,0,2,non-reversed,incorrect,0.41348295197921603,0,valid_lose,252.99308709999605,33,,,,,,,,,,,s_054,3,2021_Feb_03_1231,Reversal,3.2.4,59.9865989930018,
10,exp1.png,exp2.png,2,0,2,0,0,10,10,10,,,,,,,,,,,,,,,,,,,,,,,,,False,49,50,False,exp1.png,exp2.png,trial_right_image,-1,exp2.png,3,exp2.png,exp1.png,1,3,reversed,correct,0.6512493627146675,1,valid_win,257.09248400000797,34,,,,,,,,,,,s_054,3,2021_Feb_03_1231,Reversal,3.2.4,59.9865989930018,
11,exp3.png,exp4.png,2,0,2,0,0,11,11,11,,,,,,,,,,,,,,,,,,,,,,,,,False,50,51,True,exp4.png,exp3.png,trial_left_image,1,exp4.png,3,exp4.png,exp3.png,1,1,non-reversed,correct,0.5786575132075008,1,valid_win,261.44102980000025,35,,,,,,,,,,,s_054,3,2021_Feb_03_1231,Reversal,3.2.4,59.9865989930018,
12,exp1.png,exp2.png,2,0,2,0,0,12,12,12,,,,,,,,,,,,,,,,,,,,,,,,,False,51,52,True,exp2.png,exp1.png,trial_left_image,1,exp2.png,3,exp2.png,exp1.png,1,3,reversed,correct,0.16863151329041826,0,invalid_lose,265.72931029999745,35,,,,,,,,,,,s_054,3,2021_Feb_03_1231,Reversal,3.2.4,59.9865989930018,
13,exp3.png,exp4.png,2,0,2,0,0,13,13,13,,,,,,,,,,,,,,,,,,,,,,,,,False,52,53,True,exp4.png,exp3.png,trial_left_image,1,exp4.png,3,exp4.png,exp3.png,1,1,non-reversed,correct,0.9414731903341982,1,valid_win,270.33787469999515,36,,,,,,,,,,,s_054,3,2021_Feb_03_1231,Reversal,3.2.4,59.9865989930018,
14,exp1.png,exp2.png,2,0,2,0,0,14,14,14,,,,,,,,,,,,,,,,,,,,,,,,,False,53,54,True,exp2.png,exp1.png,trial_left_image,1,exp2.png,3,exp2.png,exp1.png,1,3,reversed,correct,0.8087602980917801,1,valid_win,274.95309870000347,37,,,,,,,,,,,s_054,3,2021_Feb_03_1231,Reversal,3.2.4,59.9865989930018,
15,exp3.png,exp4.png,2,0,2,0,0,15,15,15,,,,,,,,,,,,,,,,,,,,,,,,,False,54,55,False,exp3.png,exp4.png,trial_right_image,-1,exp4.png,3,exp4.png,exp3.png,1,1,non-reversed,correct,0.21503295390873078,0,invalid_lose,279.16753370000515,37,,,,,,,,,,,s_054,3,2021_Feb_03_1231,Reversal,3.2.4,59.9865989930018,
16,exp1.png,exp2.png,2,0,2,0,0,16,16,16,,,,,,,,,,,,,,,,,,,,,,,,,False,55,56,False,exp1.png,exp2.png,trial_right_image,-1,exp2.png,3,exp2.png,exp1.png,1,3,reversed,correct,0.09991783490139283,0,invalid_lose,283.28328420000616,37,,,,,,,,,,,s_054,3,2021_Feb_03_1231,Reversal,3.2.4,59.9865989930018,
17,exp3.png,exp4.png,2,0,2,0,0,17,17,17,,,,,,,,,,,,,,,,,,,,,,,,,False,56,57,False,exp3.png,exp4.png,trial_right_image,-1,exp4.png,3,exp4.png,exp3.png,1,1,non-reversed,correct,0.4727938274749107,1,valid_win,288.44827560000704,38,,,,,,,,,,,s_054,3,2021_Feb_03_1231,Reversal,3.2.4,59.9865989930018,
18,exp1.png,exp2.png,2,0,2,0,0,18,18,18,,,,,,,,,,,,,,,,,,,,,,,,,False,57,58,True,exp2.png,exp1.png,trial_left_image,1,exp2.png,3,exp2.png,exp1.png,1,3,reversed,correct,0.9971104322779735,1,valid_win,292.98022610000044,39,,,,,,,,,,,s_054,3,2021_Feb_03_1231,Reversal,3.2.4,59.9865989930018,
19,exp3.png,exp4.png,2,0,2,0,0,19,19,19,,,,,,,,,,,,,,,,,,,,,,,,,False,58,59,False,exp3.png,exp4.png,trial_right_image,-1,exp4.png,3,exp4.png,exp3.png,1,1,non-reversed,correct,0.6766778379711944,1,valid_win,297.6790084999957,40,,,,,,,,,,,s_054,3,2021_Feb_03_1231,Reversal,3.2.4,59.9865989930018,
20,exp1.png,exp2.png,2,0,2,0,0,20,20,20,,,,,,,,,,,,,,,,,,,,,,,,,False,59,60,True,exp2.png,exp1.png,trial_left_image,1,exp2.png,3,exp2.png,exp1.png,1,3,reversed,correct,0.5782932783420779,1,valid_win,302.30979800000205,41,,,,,,,,,,,s_054,3,2021_Feb_03_1231,Reversal,3.2.4,59.9865989930018,
,,,2,0,2,0,,,,,0,0,0,0,,,,,,,,,,,,,,,,,,,,,,,,,,,,,,,,,,,,,,,,,,43,79,22,60,,,,,,,s_054,3,2021_Feb_03_1231,Reversal,3.2.4,59.9865989930018,
0,exp1.png,exp2.png,,,,,,,,,,,,,,,,,0,0,0,0,0,0,0,0,,,,,,,,,True,,,,,,,,,,,,,,,,,,,,,,,,,,,,,,,s_054,3,2021_Feb_03_1231,Reversal,3.2.4,59.9865989930018,
1,exp3.png,exp4.png,,,,,,,,,,,,,,,,,0,0,0,0,0,1,1,1,,,,,,,,,False,0,61,False,exp3.png,exp4.png,trial_right_image,-1,exp4.png,3,exp4.png,exp3.png,1,1,non-reversed,correct,0.5124477613507147,1,valid_win,319.0380317999952,42,,,,,316.781092300007,,,,,,s_054,3,2021_Feb_03_1231,Reversal,3.2.4,59.9865989930018,
2,exp1.png,exp2.png,,,,,,,,,,,,,,,,,0,0,0,0,0,2,2,2,,,,,,,,,False,1,62,True,exp2.png,exp1.png,trial_left_image,1,exp2.png,3,exp1.png,exp2.png,1,3,reversed,incorrect,0.7946881247828199,0,valid_lose,328.7351190000045,42,,,,,,,,,,,s_054,3,2021_Feb_03_1231,Reversal,3.2.4,59.9865989930018,
3,exp3.png,exp4.png,,,,,,,,,,,,,,,,,0,0,0,0,0,3,3,3,,,,,,,,,False,2,63,True,exp4.png,exp3.png,trial_left_image,1,exp4.png,3,exp4.png,exp3.png,1,1,non-reversed,correct,0.3828024755191042,1,valid_win,333.2341516000015,43,,,,,,,,,,,s_054,3,2021_Feb_03_1231,Reversal,3.2.4,59.9865989930018,
4,exp1.png,exp2.png,,,,,,,,,,,,,,,,,0,0,0,0,0,4,4,4,,,,,,,,,False,3,64,False,exp1.png,exp2.png,trial_right_image,-1,exp2.png,3,exp1.png,exp2.png,1,3,reversed,incorrect,0.7747424397973627,0,valid_lose,337.2983516999957,43,,,,,,,,,,,s_054,3,2021_Feb_03_1231,Reversal,3.2.4,59.9865989930018,
5,exp3.png,exp4.png,,,,,,,,,,,,,,,,,0,0,0,0,0,5,5,5,,,,,,,,,False,4,65,False,exp3.png,exp4.png,trial_right_image,-1,exp4.png,3,exp4.png,exp3.png,1,1,non-reversed,correct,0.056882492443553145,0,invalid_lose,341.5804455000034,43,,,,,,,,,,,s_054,3,2021_Feb_03_1231,Reversal,3.2.4,59.9865989930018,
6,exp1.png,exp2.png,,,,,,,,,,,,,,,,,0,0,0,0,0,6,6,6,,,,,,,,,False,5,66,False,exp1.png,exp2.png,trial_right_image,-1,exp2.png,3,exp1.png,exp2.png,1,3,reversed,incorrect,0.8459877525270321,0,valid_lose,345.9114327999996,43,,,,,,,,,,,s_054,3,2021_Feb_03_1231,Reversal,3.2.4,59.9865989930018,
7,exp3.png,exp4.png,,,,,,,,,,,,,,,,,0,0,0,0,0,7,7,7,,,,,,,,,False,6,67,True,exp4.png,exp3.png,trial_right_image,-1,exp3.png,3,exp4.png,exp3.png,0,2,non-reversed,incorrect,0.5926187593494469,0,valid_lose,349.8439193999948,43,,,,,,,,,,,s_054,3,2021_Feb_03_1231,Reversal,3.2.4,59.9865989930018,
8,exp1.png,exp2.png,,,,,,,,,,,,,,,,,0,0,0,0,0,8,8,8,,,,,,,,,False,7,68,True,exp2.png,exp1.png,trial_right_image,-1,exp1.png,3,exp1.png,exp2.png,0,4,reversed,correct,0.40621317185854655,1,valid_win,353.6266990000004,44,,,,,,,,,,,s_054,3,2021_Feb_03_1231,Reversal,3.2.4,59.9865989930018,
9,exp3.png,exp4.png,,,,,,,,,,,,,,,,,0,0,0,0,0,9,9,9,,,,,,,,,False,8,69,True,exp4.png,exp3.png,trial_right_image,-1,exp3.png,3,exp4.png,exp3.png,0,2,non-reversed,incorrect,0.5430569421578533,0,valid_lose,357.87481160000607,44,,,,,,,,,,,s_054,3,2021_Feb_03_1231,Reversal,3.2.4,59.9865989930018,
10,exp1.png,exp2.png,,,,,,,,,,,,,,,,,0,0,0,0,0,10,10,10,,,,,,,,,False,9,70,False,exp1.png,exp2.png,trial_left_image,1,exp1.png,3,exp1.png,exp2.png,0,4,reversed,correct,0.635819484145712,1,valid_win,362.60626200000115,45,,,,,,,,,,,s_054,3,2021_Feb_03_1231,Reversal,3.2.4,59.9865989930018,
11,exp3.png,exp4.png,,,,,,,,,,,,,,,,,0,0,0,0,0,11,11,11,,,,,,,,,False,10,71,False,exp3.png,exp4.png,trial_right_image,-1,exp4.png,3,exp4.png,exp3.png,1,1,non-reversed,correct,0.3279408077534014,1,valid_win,366.92166290000023,46,,,,,,,,,,,s_054,3,2021_Feb_03_1231,Reversal,3.2.4,59.9865989930018,
12,exp1.png,exp2.png,,,,,,,,,,,,,,,,,0,0,0,0,0,12,12,12,,,,,,,,,False,11,72,False,exp1.png,exp2.png,trial_left_image,1,exp1.png,3,exp1.png,exp2.png,0,4,reversed,correct,0.3126364244722776,1,valid_win,371.52044999999634,47,,,,,,,,,,,s_054,3,2021_Feb_03_1231,Reversal,3.2.4,59.9865989930018,
13,exp3.png,exp4.png,,,,,,,,,,,,,,,,,0,0,0,0,0,13,13,13,,,,,,,,,False,12,73,True,exp4.png,exp3.png,trial_left_image,1,exp4.png,3,exp4.png,exp3.png,1,1,non-reversed,correct,0.23761007376712195,0,invalid_lose,375.90213770000264,47,,,,,,,,,,,s_054,3,2021_Feb_03_1231,Reversal,3.2.4,59.9865989930018,
14,exp1.png,exp2.png,,,,,,,,,,,,,,,,,0,0,0,0,0,14,14,14,,,,,,,,,False,13,74,False,exp1.png,exp2.png,trial_left_image,1,exp1.png,3,exp1.png,exp2.png,0,4,reversed,correct,0.3387763528769462,1,valid_win,380.1335495999956,48,,,,,,,,,,,s_054,3,2021_Feb_03_1231,Reversal,3.2.4,59.9865989930018,
15,exp3.png,exp4.png,,,,,,,,,,,,,,,,,0,0,0,0,0,15,15,15,,,,,,,,,False,14,75,True,exp4.png,exp3.png,trial_right_image,-1,exp3.png,3,exp4.png,exp3.png,0,2,non-reversed,incorrect,0.08106722632644436,1,invalid_win,384.9489709000045,49,,,,,,,,,,,s_054,3,2021_Feb_03_1231,Reversal,3.2.4,59.9865989930018,
16,exp1.png,exp2.png,,,,,,,,,,,,,,,,,0,0,0,0,0,16,16,16,,,,,,,,,False,15,76,True,exp2.png,exp1.png,trial_right_image,-1,exp1.png,3,exp1.png,exp2.png,0,4,reversed,correct,0.41666076233716554,1,valid_win,389.1311530999956,50,,,,,,,,,,,s_054,3,2021_Feb_03_1231,Reversal,3.2.4,59.9865989930018,
17,exp3.png,exp4.png,,,,,,,,,,,,,,,,,0,0,0,0,0,17,17,17,,,,,,,,,False,16,77,False,exp3.png,exp4.png,trial_left_image,1,exp3.png,3,exp4.png,exp3.png,0,2,non-reversed,incorrect,0.11746133191003905,1,invalid_win,393.77924119999807,51,,,,,,,,,,,s_054,3,2021_Feb_03_1231,Reversal,3.2.4,59.9865989930018,
18,exp1.png,exp2.png,,,,,,,,,,,,,,,,,0,0,0,0,0,18,18,18,,,,,,,,,False,17,78,True,exp2.png,exp1.png,trial_right_image,-1,exp1.png,3,exp1.png,exp2.png,0,4,reversed,correct,0.9285178384340771,1,valid_win,397.9774591000023,52,,,,,,,,,,,s_054,3,2021_Feb_03_1231,Reversal,3.2.4,59.9865989930018,
19,exp3.png,exp4.png,,,,,,,,,,,,,,,,,0,0,0,0,0,19,19,19,,,,,,,,,False,18,79,True,exp4.png,exp3.png,trial_right_image,-1,exp3.png,3,exp4.png,exp3.png,0,2,non-reversed,incorrect,0.20133109388288406,1,invalid_win,402.17666110000573,53,,,,,,,,,,,s_054,3,2021_Feb_03_1231,Reversal,3.2.4,59.9865989930018,
20,exp1.png,exp2.png,,,,,,,,,,,,,,,,,0,0,0,0,0,20,20,20,,,,,,,,,False,19,80,False,exp1.png,exp2.png,trial_left_image,1,exp1.png,3,exp1.png,exp2.png,0,4,reversed,correct,0.11219085141932106,0,invalid_lose,406.1915402000013,53,,,,,,,,,,,s_054,3,2021_Feb_03_1231,Reversal,3.2.4,59.9865989930018,
,,,,,,,,,,,,,,,,,,,0,0,0,0,,,,,0,0,0,0,,,,,,,,,,,,,,,,,,,,,,,,,,67,21,38,40,,,,,,,s_054,3,2021_Feb_03_1231,Reversal,3.2.4,59.9865989930018,
0,exp1.png,exp2.png,,,,,,,,,,,,,,,,,1,0,1,0,0,0,0,0,,,,,,,,,True,,,,,,,,,,,,,,,,,,,,,,,,,,,,,,,s_054,3,2021_Feb_03_1231,Reversal,3.2.4,59.9865989930018,
1,exp3.png,exp4.png,,,,,,,,,,,,,,,,,1,0,1,0,0,1,1,1,,,,,,,,,False,20,81,False,exp3.png,exp4.png,trial_right_image,-1,exp4.png,3,exp4.png,exp3.png,1,1,non-reversed,correct,0.27005513666660075,1,valid_win,423.91885159999947,54,,,,,,,,,,,s_054,3,2021_Feb_03_1231,Reversal,3.2.4,59.9865989930018,
2,exp1.png,exp2.png,,,,,,,,,,,,,,,,,1,0,1,0,0,2,2,2,,,,,,,,,False,21,82,False,exp1.png,exp2.png,trial_right_image,-1,exp2.png,3,exp1.png,exp2.png,1,3,reversed,incorrect,0.26765146804455664,0,valid_lose,428.2178794000065,54,,,,,,,,,,,s_054,3,2021_Feb_03_1231,Reversal,3.2.4,59.9865989930018,
3,exp3.png,exp4.png,,,,,,,,,,,,,,,,,1,0,1,0,0,3,3,3,,,,,,,,,False,22,83,True,exp4.png,exp3.png,trial_right_image,-1,exp3.png,3,exp4.png,exp3.png,0,2,non-reversed,incorrect,0.4832524673192342,0,valid_lose,432.13269559999753,54,,,,,,,,,,,s_054,3,2021_Feb_03_1231,Reversal,3.2.4,59.9865989930018,
4,exp1.png,exp2.png,,,,,,,,,,,,,,,,,1,0,1,0,0,4,4,4,,,,,,,,,False,23,84,False,exp1.png,exp2.png,trial_right_image,-1,exp2.png,3,exp1.png,exp2.png,1,3,reversed,incorrect,0.7948080355345996,0,valid_lose,436.8646149999986,54,,,,,,,,,,,s_054,3,2021_Feb_03_1231,Reversal,3.2.4,59.9865989930018,
5,exp3.png,exp4.png,,,,,,,,,,,,,,,,,1,0,1,0,0,5,5,5,,,,,,,,,False,24,85,False,exp3.png,exp4.png,trial_right_image,-1,exp4.png,3,exp4.png,exp3.png,1,1,non-reversed,correct,0.7208275446225283,1,valid_win,440.6965157999948,55,,,,,,,,,,,s_054,3,2021_Feb_03_1231,Reversal,3.2.4,59.9865989930018,
6,exp1.png,exp2.png,,,,,,,,,,,,,,,,,1,0,1,0,0,6,6,6,,,,,,,,,False,25,86,True,exp2.png,exp1.png,trial_left_image,1,exp2.png,3,exp1.png,exp2.png,1,3,reversed,incorrect,0.2339378173374448,1,invalid_win,444.0951105999993,56,,,,,,,,,,,s_054,3,2021_Feb_03_1231,Reversal,3.2.4,59.9865989930018,
7,exp3.png,exp4.png,,,,,,,,,,,,,,,,,1,0,1,0,0,7,7,7,,,,,,,,,False,26,87,True,exp4.png,exp3.png,trial_left_image,1,exp4.png,3,exp4.png,exp3.png,1,1,non-reversed,correct,0.5928044038016892,1,valid_win,448.0102957000054,57,,,,,,,,,,,s_054,3,2021_Feb_03_1231,Reversal,3.2.4,59.9865989930018,
8,exp1.png,exp2.png,,,,,,,,,,,,,,,,,1,0,1,0,0,8,8,8,,,,,,,,,False,27,88,True,exp2.png,exp1.png,trial_left_image,1,exp2.png,3,exp1.png,exp2.png,1,3,reversed,incorrect,0.5371091591554641,0,valid_lose,451.82606490000035,57,,,,,,,,,,,s_054,3,2021_Feb_03_1231,Reversal,3.2.4,59.9865989930018,
9,exp3.png,exp4.png,,,,,,,,,,,,,,,,,1,0,1,0,0,9,9,9,,,,,,,,,False,28,89,False,exp3.png,exp4.png,trial_left_image,1,exp3.png,3,exp4.png,exp3.png,0,2,non-reversed,incorrect,0.22162553618211178,1,invalid_win,455.7582851000043,58,,,,,,,,,,,s_054,3,2021_Feb_03_1231,Reversal,3.2.4,59.9865989930018,
10,exp1.png,exp2.png,,,,,,,,,,,,,,,,,1,0,1,0,0,10,10,10,,,,,,,,,False,29,90,False,exp1.png,exp2.png,trial_left_image,1,exp1.png,3,exp1.png,exp2.png,0,4,reversed,correct,0.8919763913261387,1,valid_win,459.7240257000085,59,,,,,,,,,,,s_054,3,2021_Feb_03_1231,Reversal,3.2.4,59.9865989930018,
11,exp3.png,exp4.png,,,,,,,,,,,,,,,,,1,0,1,0,0,11,11,11,,,,,,,,,False,30,91,False,exp3.png,exp4.png,trial_left_image,1,exp3.png,3,exp4.png,exp3.png,0,2,non-reversed,incorrect,0.8292276431325042,0,valid_lose,463.639139100007,59,,,,,,,,,,,s_054,3,2021_Feb_03_1231,Reversal,3.2.4,59.9865989930018,
12,exp1.png,exp2.png,,,,,,,,,,,,,,,,,1,0,1,0,0,12,12,12,,,,,,,,,False,31,92,True,exp2.png,exp1.png,trial_left_image,1,exp2.png,3,exp1.png,exp2.png,1,3,reversed,incorrect,0.9638458026093759,0,valid_lose,467.7701265000069,59,,,,,,,,,,,s_054,3,2021_Feb_03_1231,Reversal,3.2.4,59.9865989930018,
13,exp3.png,exp4.png,,,,,,,,,,,,,,,,,1,0,1,0,0,13,13,13,,,,,,,,,False,32,93,False,exp3.png,exp4.png,trial_left_image,1,exp3.png,3,exp4.png,exp3.png,0,2,non-reversed,incorrect,0.990988297768784,0,valid_lose,471.6520926999947,59,,,,,,,,,,,s_054,3,2021_Feb_03_1231,Reversal,3.2.4,59.9865989930018,
14,exp1.png,exp2.png,,,,,,,,,,,,,,,,,1,0,1,0,0,14,14,14,,,,,,,,,False,33,94,True,exp2.png,exp1.png,trial_right_image,-1,exp1.png,3,exp1.png,exp2.png,0,4,reversed,correct,0.11328848163602356,0,invalid_lose,475.91837040000246,59,,,,,,,,,,,s_054,3,2021_Feb_03_1231,Reversal,3.2.4,59.9865989930018,
15,exp3.png,exp4.png,,,,,,,,,,,,,,,,,1,0,1,0,0,15,15,15,,,,,,,,,False,34,95,True,exp4.png,exp3.png,trial_left_image,1,exp4.png,3,exp4.png,exp3.png,1,1,non-reversed,correct,0.825486400656841,1,valid_win,479.65015210000274,60,,,,,,,,,,,s_054,3,2021_Feb_03_1231,Reversal,3.2.4,59.9865989930018,
16,exp1.png,exp2.png,,,,,,,,,,,,,,,,,1,0,1,0,0,16,16,16,,,,,,,,,False,35,96,True,exp2.png,exp1.png,trial_right_image,-1,exp1.png,3,exp1.png,exp2.png,0,4,reversed,correct,0.40695988809770345,1,valid_win,483.68179289999534,61,,,,,,,,,,,s_054,3,2021_Feb_03_1231,Reversal,3.2.4,59.9865989930018,
17,exp3.png,exp4.png,,,,,,,,,,,,,,,,,1,0,1,0,0,17,17,17,,,,,,,,,False,36,97,True,exp4.png,exp3.png,trial_left_image,1,exp4.png,3,exp4.png,exp3.png,1,1,non-reversed,correct,0.8976280931290266,1,valid_win,488.29698729999654,62,,,,,,,,,,,s_054,3,2021_Feb_03_1231,Reversal,3.2.4,59.9865989930018,
18,exp1.png,exp2.png,,,,,,,,,,,,,,,,,1,0,1,0,0,18,18,18,,,,,,,,,False,37,98,True,exp2.png,exp1.png,trial_right_image,-1,exp1.png,3,exp1.png,exp2.png,0,4,reversed,correct,0.3954616842423644,1,valid_win,492.8955016999971,63,,,,,,,,,,,s_054,3,2021_Feb_03_1231,Reversal,3.2.4,59.9865989930018,
19,exp3.png,exp4.png,,,,,,,,,,,,,,,,,1,0,1,0,0,19,19,19,,,,,,,,,False,38,99,False,exp3.png,exp4.png,trial_right_image,-1,exp4.png,3,exp4.png,exp3.png,1,1,non-reversed,correct,0.5659405943859735,1,valid_win,497.16087950000656,64,,,,,,,,,,,s_054,3,2021_Feb_03_1231,Reversal,3.2.4,59.9865989930018,
20,exp1.png,exp2.png,,,,,,,,,,,,,,,,,1,0,1,0,0,20,20,20,,,,,,,,,False,39,100,False,exp1.png,exp2.png,trial_left_image,1,exp1.png,3,exp1.png,exp2.png,0,4,reversed,correct,0.055135261407899594,0,invalid_lose,501.60931120000896,64,,,,,,,,,,,s_054,3,2021_Feb_03_1231,Reversal,3.2.4,59.9865989930018,
,,,,,,,,,,,,,,,,,,,1,0,1,0,,,,,0,0,0,0,,,,,,,,,,,,,,,,,,,,,,,,,,57,44,27,63,,,,,,,s_054,3,2021_Feb_03_1231,Reversal,3.2.4,59.9865989930018,
0,exp1.png,exp2.png,,,,,,,,,,,,,,,,,2,0,2,0,0,0,0,0,,,,,,,,,True,,,,,,,,,,,,,,,,,,,,,,,,,,,,,,,s_054,3,2021_Feb_03_1231,Reversal,3.2.4,59.9865989930018,
1,exp3.png,exp4.png,,,,,,,,,,,,,,,,,2,0,2,0,0,1,1,1,,,,,,,,,False,40,101,True,exp4.png,exp3.png,trial_left_image,1,exp4.png,3,exp4.png,exp3.png,1,1,non-reversed,correct,0.6751402979158735,1,valid_win,514.3546795000002,65,,,,,,,,,,,s_054,3,2021_Feb_03_1231,Reversal,3.2.4,59.9865989930018,
2,exp1.png,exp2.png,,,,,,,,,,,,,,,,,2,0,2,0,0,2,2,2,,,,,,,,,False,41,102,True,exp2.png,exp1.png,trial_right_image,-1,exp1.png,3,exp1.png,exp2.png,0,4,reversed,correct,0.9245310107887554,1,valid_win,518.3373275000049,66,,,,,,,,,,,s_054,3,2021_Feb_03_1231,Reversal,3.2.4,59.9865989930018,
3,exp3.png,exp4.png,,,,,,,,,,,,,,,,,2,0,2,0,0,3,3,3,,,,,,,,,False,42,103,True,exp4.png,exp3.png,trial_left_image,1,exp4.png,3,exp4.png,exp3.png,1,1,non-reversed,correct,0.8982832083940894,1,valid_win,522.535450299998,67,,,,,,,,,,,s_054,3,2021_Feb_03_1231,Reversal,3.2.4,59.9865989930018,
4,exp1.png,exp2.png,,,,,,,,,,,,,,,,,2,0,2,0,0,4,4,4,,,,,,,,,False,43,104,False,exp1.png,exp2.png,trial_right_image,-1,exp2.png,3,exp1.png,exp2.png,1,3,reversed,incorrect,0.13412989727219848,1,invalid_win,526.7007887000073,68,,,,,,,,,,,s_054,3,2021_Feb_03_1231,Reversal,3.2.4,59.9865989930018,
5,exp3.png,exp4.png,,,,,,,,,,,,,,,,,2,0,2,0,0,5,5,5,,,,,,,,,False,44,105,True,exp4.png,exp3.png,trial_left_image,1,exp4.png,3,exp4.png,exp3.png,1,1,non-reversed,correct,0.5710258392979227,1,valid_win,530.8154781000048,69,,,,,,,,,,,s_054,3,2021_Feb_03_1231,Reversal,3.2.4,59.9865989930018,
6,exp1.png,exp2.png,,,,,,,,,,,,,,,,,2,0,2,0,0,6,6,6,,,,,,,,,False,45,106,True,exp2.png,exp1.png,trial_right_image,-1,exp1.png,3,exp1.png,exp2.png,0,4,reversed,correct,0.14469507390976322,0,invalid_lose,535.0639596999972,69,,,,,,,,,,,s_054,3,2021_Feb_03_1231,Reversal,3.2.4,59.9865989930018,
7,exp3.png,exp4.png,,,,,,,,,,,,,,,,,2,0,2,0,0,7,7,7,,,,,,,,,False,46,107,False,exp3.png,exp4.png,trial_right_image,-1,exp4.png,3,exp4.png,exp3.png,1,1,non-reversed,correct,0.5321807922033788,1,valid_win,539.2300490000052,70,,,,,,,,,,,s_054,3,2021_Feb_03_1231,Reversal,3.2.4,59.9865989930018,
8,exp1.png,exp2.png,,,,,,,,,,,,,,,,,2,0,2,0,0,8,8,8,,,,,,,,,False,47,108,False,exp1.png,exp2.png,trial_right_image,-1,exp2.png,3,exp1.png,exp2.png,1,3,reversed,incorrect,0.4636508493365291,0,valid_lose,543.6120420000079,70,,,,,,,,,,,s_054,3,2021_Feb_03_1231,Reversal,3.2.4,59.9865989930018,
9,exp3.png,exp4.png,,,,,,,,,,,,,,,,,2,0,2,0,0,9,9,9,,,,,,,,,False,48,109,False,exp3.png,exp4.png,trial_right_image,-1,exp4.png,3,exp4.png,exp3.png,1,1,non-reversed,correct,0.05999447244745393,0,invalid_lose,547.8270309000072,70,,,,,,,,,,,s_054,3,2021_Feb_03_1231,Reversal,3.2.4,59.9865989930018,
10,exp1.png,exp2.png,,,,,,,,,,,,,,,,,2,0,2,0,0,10,10,10,,,,,,,,,False,49,110,True,exp2.png,exp1.png,trial_left_image,1,exp2.png,3,exp1.png,exp2.png,1,3,reversed,incorrect,0.95855091552314,0,valid_lose,552.2253534000047,70,,,,,,,,,,,s_054,3,2021_Feb_03_1231,Reversal,3.2.4,59.9865989930018,
11,exp3.png,exp4.png,,,,,,,,,,,,,,,,,2,0,2,0,0,11,11,11,,,,,,,,,False,50,111,False,exp3.png,exp4.png,trial_right_image,-1,exp4.png,3,exp4.png,exp3.png,1,1,non-reversed,correct,0.36017057211053616,1,valid_win,556.2248090000066,71,,,,,,,,,,,s_054,3,2021_Feb_03_1231,Reversal,3.2.4,59.9865989930018,
12,exp1.png,exp2.png,,,,,,,,,,,,,,,,,2,0,2,0,0,12,12,12,,,,,,,,,False,51,112,False,exp1.png,exp2.png,trial_left_image,1,exp1.png,3,exp1.png,exp2.png,0,4,reversed,correct,0.7697788032149495,1,valid_win,560.3892550000019,72,,,,,,,,,,,s_054,3,2021_Feb_03_1231,Reversal,3.2.4,59.9865989930018,
13,exp3.png,exp4.png,,,,,,,,,,,,,,,,,2,0,2,0,0,13,13,13,,,,,,,,,False,52,113,False,exp3.png,exp4.png,trial_right_image,-1,exp4.png,3,exp4.png,exp3.png,1,1,non-reversed,correct,0.8789856333040656,1,valid_win,564.5876298000076,73,,,,,,,,,,,s_054,3,2021_Feb_03_1231,Reversal,3.2.4,59.9865989930018,
14,exp1.png,exp2.png,,,,,,,,,,,,,,,,,2,0,2,0,0,14,14,14,,,,,,,,,False,53,114,False,exp1.png,exp2.png,trial_right_image,-1,exp2.png,3,exp1.png,exp2.png,1,3,reversed,incorrect,0.7122339095394505,0,valid_lose,568.736797599995,73,,,,,,,,,,,s_054,3,2021_Feb_03_1231,Reversal,3.2.4,59.9865989930018,
15,exp3.png,exp4.png,,,,,,,,,,,,,,,,,2,0,2,0,0,15,15,15,,,,,,,,,False,54,115,True,exp4.png,exp3.png,trial_left_image,1,exp4.png,3,exp4.png,exp3.png,1,1,non-reversed,correct,0.13108407284965662,0,invalid_lose,573.0682616999984,73,,,,,,,,,,,s_054,3,2021_Feb_03_1231,Reversal,3.2.4,59.9865989930018,
16,exp1.png,exp2.png,,,,,,,,,,,,,,,,,2,0,2,0,0,16,16,16,,,,,,,,,False,55,116,False,exp1.png,exp2.png,trial_left_image,1,exp1.png,3,exp1.png,exp2.png,0,4,reversed,correct,0.1286785781785833,0,invalid_lose,577.3334750000067,73,,,,,,,,,,,s_054,3,2021_Feb_03_1231,Reversal,3.2.4,59.9865989930018,
17,exp3.png,exp4.png,,,,,,,,,,,,,,,,,2,0,2,0,0,17,17,17,,,,,,,,,False,56,117,True,exp4.png,exp3.png,trial_left_image,1,exp4.png,3,exp4.png,exp3.png,1,1,non-reversed,correct,0.8102316868907857,1,valid_win,581.3989348000032,74,,,,,,,,,,,s_054,3,2021_Feb_03_1231,Reversal,3.2.4,59.9865989930018,
18,exp1.png,exp2.png,,,,,,,,,,,,,,,,,2,0,2,0,0,18,18,18,,,,,,,,,False,57,118,True,exp2.png,exp1.png,trial_left_image,1,exp2.png,3,exp1.png,exp2.png,1,3,reversed,incorrect,0.8812048334023033,0,valid_lose,585.5311108000024,74,,,,,,,,,,,s_054,3,2021_Feb_03_1231,Reversal,3.2.4,59.9865989930018,
19,exp3.png,exp4.png,,,,,,,,,,,,,,,,,2,0,2,0,0,19,19,19,,,,,,,,,False,58,119,False,exp3.png,exp4.png,trial_right_image,-1,exp4.png,3,exp4.png,exp3.png,1,1,non-reversed,correct,0.7408858973034699,1,valid_win,589.7963219000085,75,,,,,,,,,,,s_054,3,2021_Feb_03_1231,Reversal,3.2.4,59.9865989930018,
20,exp1.png,exp2.png,,,,,,,,,,,,,,,,,2,0,2,0,0,20,20,20,,,,,,,,,False,59,120,True,exp2.png,exp1.png,trial_right_image,-1,exp1.png,3,exp1.png,exp2.png,0,4,reversed,correct,0.31454979782736403,1,valid_win,594.0443740000046,76,,,,,,,,,,,s_054,3,2021_Feb_03_1231,Reversal,3.2.4,59.9865989930018,
,,,,,,,,,,,,,,,,,,,2,0,2,0,,,,,0,0,0,0,,,,,,,,,,,,,,,,,,,,,,,,,,58,56,40,53,,,,,,,s_054,3,2021_Feb_03_1231,Reversal,3.2.4,59.9865989930018,
,,,,,,,,,,,,,,,,,,,,,,,,,,,,,,,,,,,,,,,,,,,,,,,,,,,,,,,76,,,,,,88,50,38,288.4079239999992,0,,,,,,,
