trial_index,trial_image1_file,trial_image2_file,learning_outer_loop.thisRepN,learning_outer_loop.thisTrialN,learning_outer_loop.thisN,learning_outer_loop.thisIndex,learning_inner_loop.thisRepN,learning_inner_loop.thisTrialN,learning_inner_loop.thisN,learning_inner_loop.thisIndex,learning_estimation_outer_loop.thisRepN,learning_estimation_outer_loop.thisTrialN,learning_estimation_outer_loop.thisN,learning_estimation_outer_loop.thisIndex,learning_estimation_inner_loop.thisRepN,learning_estimation_inner_loop.thisTrialN,learning_estimation_inner_loop.thisN,learning_estimation_inner_loop.thisIndex,reversal_outer_loop.thisRepN,reversal_outer_loop.thisTrialN,reversal_outer_loop.thisN,reversal_outer_loop.thisIndex,reversal_inner_loop.thisRepN,reversal_inner_loop.thisTrialN,reversal_inner_loop.thisN,reversal_inner_loop.thisIndex,reversal_estimation_outer_loop.thisRepN,reversal_estimation_outer_loop.thisTrialN,reversal_estimation_outer_loop.thisN,reversal_estimation_outer_loop.thisIndex,reversal_estimation_inner_loop.thisRepN,reversal_estimation_inner_loop.thisTrialN,reversal_estimation_inner_loop.thisN,reversal_estimation_inner_loop.thisIndex,skipped,total_trial_counter,trial_num,left_right_flip,left_image_file,right_image_file,clicked_stimulus_side,side,clicked_stimulus,version,high_prob_image_file,low_prob_image_file,choice_a,choice_b,pair_type,correct,trial_feedback_random,reward,trial_type,overall_time_after_trial,score,estimation_exp1.png,estimation_exp2.png,estimation_exp3.png,estimation_exp4.png,total_learning_time,total_correct,learning_correct,reversal_correct,total_reversal_time,extra_block,participant,ver,date,expName,psychopyVersion,frameRate,
0,exp1.png,exp2.png,0,0,0,0,0,0,0,0,,,,,,,,,,,,,,,,,,,,,,,,,True,,,,,,,,,,,,,,,,,,,,,,,,,,,,,,,s_058,4,2021_Feb_08_1514,Reversal,3.2.4,60.00290413822545,
1,exp3.png,exp4.png,0,0,0,0,0,1,1,1,,,,,,,,,,,,,,,,,,,,,,,,,False,0,1,True,exp4.png,exp3.png,trial_right_image,-1,exp3.png,4,exp4.png,exp3.png,0,4,reversed,incorrect,0.7629357937293738,0,valid_lose,4.229409299994586,0,,,,,,,,,,,s_058,4,2021_Feb_08_1514,Reversal,3.2.4,60.00290413822545,
2,exp1.png,exp2.png,0,0,0,0,0,2,2,2,,,,,,,,,,,,,,,,,,,,,,,,,False,1,2,False,exp1.png,exp2.png,trial_left_image,1,exp1.png,4,exp2.png,exp1.png,0,2,non-reversed,incorrect,0.42127047008080243,0,valid_lose,9.743893499995465,0,,,,,,,,,,,s_058,4,2021_Feb_08_1514,Reversal,3.2.4,60.00290413822545,
3,exp3.png,exp4.png,0,0,0,0,0,3,3,3,,,,,,,,,,,,,,,,,,,,,,,,,False,2,3,False,exp3.png,exp4.png,trial_right_image,-1,exp4.png,4,exp4.png,exp3.png,1,3,reversed,correct,0.1055511075688953,0,invalid_lose,14.509313000002294,0,,,,,,,,,,,s_058,4,2021_Feb_08_1514,Reversal,3.2.4,60.00290413822545,
4,exp1.png,exp2.png,0,0,0,0,0,4,4,4,,,,,,,,,,,,,,,,,,,,,,,,,False,3,4,True,exp2.png,exp1.png,trial_left_image,1,exp2.png,4,exp2.png,exp1.png,1,1,non-reversed,correct,0.16241960415257484,0,invalid_lose,19.790638699996634,0,,,,,,,,,,,s_058,4,2021_Feb_08_1514,Reversal,3.2.4,60.00290413822545,
5,exp3.png,exp4.png,0,0,0,0,0,5,5,5,,,,,,,,,,,,,,,,,,,,,,,,,False,4,5,False,exp3.png,exp4.png,trial_right_image,-1,exp4.png,4,exp4.png,exp3.png,1,3,reversed,correct,0.9849525737028237,1,valid_win,27.504493599990383,1,,,,,,,,,,,s_058,4,2021_Feb_08_1514,Reversal,3.2.4,60.00290413822545,
6,exp1.png,exp2.png,0,0,0,0,0,6,6,6,,,,,,,,,,,,,,,,,,,,,,,,,False,5,6,False,exp1.png,exp2.png,trial_right_image,-1,exp2.png,4,exp2.png,exp1.png,1,1,non-reversed,correct,0.20801824251818812,0,invalid_lose,34.96866089999094,1,,,,,,,,,,,s_058,4,2021_Feb_08_1514,Reversal,3.2.4,60.00290413822545,
7,exp3.png,exp4.png,0,0,0,0,0,7,7,7,,,,,,,,,,,,,,,,,,,,,,,,,False,6,7,True,exp4.png,exp3.png,trial_right_image,-1,exp3.png,4,exp4.png,exp3.png,0,4,reversed,incorrect,0.8467717588380296,0,valid_lose,41.31729749999067,1,,,,,,,,,,,s_058,4,2021_Feb_08_1514,Reversal,3.2.4,60.00290413822545,
8,exp1.png,exp2.png,0,0,0,0,0,8,8,8,,,,,,,,,,,,,,,,,,,,,,,,,False,7,8,True,exp2.png,exp1.png,trial_right_image,-1,exp1.png,4,exp2.png,exp1.png,0,2,non-reversed,incorrect,0.29596435486427286,0,valid_lose,46.77998949999164,1,,,,,,,,,,,s_058,4,2021_Feb_08_1514,Reversal,3.2.4,60.00290413822545,
9,exp3.png,exp4.png,0,0,0,0,0,9,9,9,,,,,,,,,,,,,,,,,,,,,,,,,False,8,9,True,exp4.png,exp3.png,trial_left_image,1,exp4.png,4,exp4.png,exp3.png,1,3,reversed,correct,0.5661207251450363,1,valid_win,51.96291719999863,2,,,,,,,,,,,s_058,4,2021_Feb_08_1514,Reversal,3.2.4,60.00290413822545,
10,exp1.png,exp2.png,0,0,0,0,0,10,10,10,,,,,,,,,,,,,,,,,,,,,,,,,False,9,10,False,exp1.png,exp2.png,trial_right_image,-1,exp2.png,4,exp2.png,exp1.png,1,1,non-reversed,correct,0.2187881224825725,0,invalid_lose,57.627404999991995,2,,,,,,,,,,,s_058,4,2021_Feb_08_1514,Reversal,3.2.4,60.00290413822545,
11,exp3.png,exp4.png,0,0,0,0,0,11,11,11,,,,,,,,,,,,,,,,,,,,,,,,,False,10,11,True,exp4.png,exp3.png,trial_left_image,1,exp4.png,4,exp4.png,exp3.png,1,3,reversed,correct,0.24153882611027477,0,invalid_lose,63.62644530000398,2,,,,,,,,,,,s_058,4,2021_Feb_08_1514,Reversal,3.2.4,60.00290413822545,
12,exp1.png,exp2.png,0,0,0,0,0,12,12,12,,,,,,,,,,,,,,,,,,,,,,,,,False,11,12,False,exp1.png,exp2.png,trial_left_image,1,exp1.png,4,exp2.png,exp1.png,0,2,non-reversed,incorrect,0.9301814884408119,0,valid_lose,68.77276680000068,2,,,,,,,,,,,s_058,4,2021_Feb_08_1514,Reversal,3.2.4,60.00290413822545,
13,exp3.png,exp4.png,0,0,0,0,0,13,13,13,,,,,,,,,,,,,,,,,,,,,,,,,False,12,13,False,exp3.png,exp4.png,trial_left_image,1,exp3.png,4,exp4.png,exp3.png,0,4,reversed,incorrect,0.9001783926469092,0,valid_lose,73.48908479999227,2,,,,,,,,,,,s_058,4,2021_Feb_08_1514,Reversal,3.2.4,60.00290413822545,
14,exp1.png,exp2.png,0,0,0,0,0,14,14,14,,,,,,,,,,,,,,,,,,,,,,,,,False,13,14,False,exp1.png,exp2.png,trial_right_image,-1,exp2.png,4,exp2.png,exp1.png,1,1,non-reversed,correct,0.07073952531962635,0,invalid_lose,78.48736719999579,2,,,,,,,,,,,s_058,4,2021_Feb_08_1514,Reversal,3.2.4,60.00290413822545,
15,exp3.png,exp4.png,0,0,0,0,0,15,15,15,,,,,,,,,,,,,,,,,,,,,,,,,False,14,15,True,exp4.png,exp3.png,trial_left_image,1,exp4.png,4,exp4.png,exp3.png,1,3,reversed,correct,0.13245338599854262,0,invalid_lose,83.50208639999619,2,,,,,,,,,,,s_058,4,2021_Feb_08_1514,Reversal,3.2.4,60.00290413822545,
16,exp1.png,exp2.png,0,0,0,0,0,16,16,16,,,,,,,,,,,,,,,,,,,,,,,,,False,15,16,True,exp2.png,exp1.png,trial_right_image,-1,exp1.png,4,exp2.png,exp1.png,0,2,non-reversed,incorrect,0.6416990888312678,0,valid_lose,87.78294229999301,2,,,,,,,,,,,s_058,4,2021_Feb_08_1514,Reversal,3.2.4,60.00290413822545,
17,exp3.png,exp4.png,0,0,0,0,0,17,17,17,,,,,,,,,,,,,,,,,,,,,,,,,False,16,17,True,exp4.png,exp3.png,trial_left_image,1,exp4.png,4,exp4.png,exp3.png,1,3,reversed,correct,0.9622976608940211,1,valid_win,93.74856649999856,3,,,,,,,,,,,s_058,4,2021_Feb_08_1514,Reversal,3.2.4,60.00290413822545,
18,exp1.png,exp2.png,0,0,0,0,0,18,18,18,,,,,,,,,,,,,,,,,,,,,,,,,False,17,18,True,exp2.png,exp1.png,trial_right_image,-1,exp1.png,4,exp2.png,exp1.png,0,2,non-reversed,incorrect,0.9559843042822191,0,valid_lose,101.82914079999318,3,,,,,,,,,,,s_058,4,2021_Feb_08_1514,Reversal,3.2.4,60.00290413822545,
19,exp3.png,exp4.png,0,0,0,0,0,19,19,19,,,,,,,,,,,,,,,,,,,,,,,,,False,18,19,False,exp3.png,exp4.png,trial_left_image,1,exp3.png,4,exp4.png,exp3.png,0,4,reversed,incorrect,0.038654428501793014,1,invalid_win,106.89438569999766,4,,,,,,,,,,,s_058,4,2021_Feb_08_1514,Reversal,3.2.4,60.00290413822545,
20,exp1.png,exp2.png,0,0,0,0,0,20,20,20,,,,,,,,,,,,,,,,,,,,,,,,,False,19,20,False,exp1.png,exp2.png,trial_right_image,-1,exp2.png,4,exp2.png,exp1.png,1,1,non-reversed,correct,0.07436057031280541,0,invalid_lose,112.10800379999273,4,,,,,,,,,,,s_058,4,2021_Feb_08_1514,Reversal,3.2.4,60.00290413822545,
,,,0,0,0,0,,,,,0,0,0,0,,,,,,,,,,,,,,,,,,,,,,,,,,,,,,,,,,,,,,,,,,20,73,74,25,,,,,,,s_058,4,2021_Feb_08_1514,Reversal,3.2.4,60.00290413822545,
0,exp1.png,exp2.png,1,0,1,0,0,0,0,0,,,,,,,,,,,,,,,,,,,,,,,,,True,,,,,,,,,,,,,,,,,,,,,,,,,,,,,,,s_058,4,2021_Feb_08_1514,Reversal,3.2.4,60.00290413822545,
1,exp3.png,exp4.png,1,0,1,0,0,1,1,1,,,,,,,,,,,,,,,,,,,,,,,,,False,20,21,False,exp3.png,exp4.png,trial_right_image,-1,exp4.png,4,exp4.png,exp3.png,1,3,reversed,correct,0.7725568963542757,1,valid_win,142.21549449999293,5,,,,,,,,,,,s_058,4,2021_Feb_08_1514,Reversal,3.2.4,60.00290413822545,
2,exp1.png,exp2.png,1,0,1,0,0,2,2,2,,,,,,,,,,,,,,,,,,,,,,,,,False,21,22,False,exp1.png,exp2.png,trial_left_image,1,exp1.png,4,exp2.png,exp1.png,0,2,non-reversed,incorrect,0.1630857497679319,1,invalid_win,147.76368259999435,6,,,,,,,,,,,s_058,4,2021_Feb_08_1514,Reversal,3.2.4,60.00290413822545,
3,exp3.png,exp4.png,1,0,1,0,0,3,3,3,,,,,,,,,,,,,,,,,,,,,,,,,False,22,23,True,exp4.png,exp3.png,trial_left_image,1,exp4.png,4,exp4.png,exp3.png,1,3,reversed,correct,0.36054159922599993,1,valid_win,152.8618637999898,7,,,,,,,,,,,s_058,4,2021_Feb_08_1514,Reversal,3.2.4,60.00290413822545,
4,exp1.png,exp2.png,1,0,1,0,0,4,4,4,,,,,,,,,,,,,,,,,,,,,,,,,False,23,24,True,exp2.png,exp1.png,trial_right_image,-1,exp1.png,4,exp2.png,exp1.png,0,2,non-reversed,incorrect,0.0955219567324751,1,invalid_win,157.4440551000007,8,,,,,,,,,,,s_058,4,2021_Feb_08_1514,Reversal,3.2.4,60.00290413822545,
5,exp3.png,exp4.png,1,0,1,0,0,5,5,5,,,,,,,,,,,,,,,,,,,,,,,,,False,24,25,True,exp4.png,exp3.png,trial_left_image,1,exp4.png,4,exp4.png,exp3.png,1,3,reversed,correct,0.774561222071029,1,valid_win,161.79241660000116,9,,,,,,,,,,,s_058,4,2021_Feb_08_1514,Reversal,3.2.4,60.00290413822545,
6,exp1.png,exp2.png,1,0,1,0,0,6,6,6,,,,,,,,,,,,,,,,,,,,,,,,,False,25,26,False,exp1.png,exp2.png,trial_right_image,-1,exp2.png,4,exp2.png,exp1.png,1,1,non-reversed,correct,0.37820874341470245,1,valid_win,166.20748949999688,10,,,,,,,,,,,s_058,4,2021_Feb_08_1514,Reversal,3.2.4,60.00290413822545,
7,exp3.png,exp4.png,1,0,1,0,0,7,7,7,,,,,,,,,,,,,,,,,,,,,,,,,False,26,27,False,exp3.png,exp4.png,trial_left_image,1,exp3.png,4,exp4.png,exp3.png,0,4,reversed,incorrect,0.07172886250430932,1,invalid_win,170.80539860000135,11,,,,,,,,,,,s_058,4,2021_Feb_08_1514,Reversal,3.2.4,60.00290413822545,
8,exp1.png,exp2.png,1,0,1,0,0,8,8,8,,,,,,,,,,,,,,,,,,,,,,,,,False,27,28,False,exp1.png,exp2.png,trial_right_image,-1,exp2.png,4,exp2.png,exp1.png,1,1,non-reversed,correct,0.8063127934678134,1,valid_win,175.5526986999903,12,,,,,,,,,,,s_058,4,2021_Feb_08_1514,Reversal,3.2.4,60.00290413822545,
9,exp3.png,exp4.png,1,0,1,0,0,9,9,9,,,,,,,,,,,,,,,,,,,,,,,,,False,28,29,True,exp4.png,exp3.png,trial_left_image,1,exp4.png,4,exp4.png,exp3.png,1,3,reversed,correct,0.7349458262906997,1,valid_win,179.66991509999207,13,,,,,,,,,,,s_058,4,2021_Feb_08_1514,Reversal,3.2.4,60.00290413822545,
10,exp1.png,exp2.png,1,0,1,0,0,10,10,10,,,,,,,,,,,,,,,,,,,,,,,,,False,29,30,False,exp1.png,exp2.png,trial_right_image,-1,exp2.png,4,exp2.png,exp1.png,1,1,non-reversed,correct,0.7130060597464478,1,valid_win,183.8349409999937,14,,,,,,,,,,,s_058,4,2021_Feb_08_1514,Reversal,3.2.4,60.00290413822545,
11,exp3.png,exp4.png,1,0,1,0,0,11,11,11,,,,,,,,,,,,,,,,,,,,,,,,,False,30,31,True,exp4.png,exp3.png,trial_left_image,1,exp4.png,4,exp4.png,exp3.png,1,3,reversed,correct,0.5687871619503485,1,valid_win,188.05013940000208,15,,,,,,,,,,,s_058,4,2021_Feb_08_1514,Reversal,3.2.4,60.00290413822545,
12,exp1.png,exp2.png,1,0,1,0,0,12,12,12,,,,,,,,,,,,,,,,,,,,,,,,,False,31,32,True,exp2.png,exp1.png,trial_right_image,-1,exp1.png,4,exp2.png,exp1.png,0,2,non-reversed,incorrect,0.06720185964325454,1,invalid_win,192.33189829999174,16,,,,,,,,,,,s_058,4,2021_Feb_08_1514,Reversal,3.2.4,60.00290413822545,
13,exp3.png,exp4.png,1,0,1,0,0,13,13,13,,,,,,,,,,,,,,,,,,,,,,,,,False,32,33,True,exp4.png,exp3.png,trial_left_image,1,exp4.png,4,exp4.png,exp3.png,1,3,reversed,correct,0.07622100404525123,0,invalid_lose,197.5310499000043,16,,,,,,,,,,,s_058,4,2021_Feb_08_1514,Reversal,3.2.4,60.00290413822545,
14,exp1.png,exp2.png,1,0,1,0,0,14,14,14,,,,,,,,,,,,,,,,,,,,,,,,,False,33,34,True,exp2.png,exp1.png,trial_right_image,-1,exp1.png,4,exp2.png,exp1.png,0,2,non-reversed,incorrect,0.4275441520399609,0,valid_lose,201.81189650000306,16,,,,,,,,,,,s_058,4,2021_Feb_08_1514,Reversal,3.2.4,60.00290413822545,
15,exp3.png,exp4.png,1,0,1,0,0,15,15,15,,,,,,,,,,,,,,,,,,,,,,,,,False,34,35,True,exp4.png,exp3.png,trial_right_image,-1,exp3.png,4,exp4.png,exp3.png,0,4,reversed,incorrect,0.39904404883128053,0,valid_lose,206.69371880000108,16,,,,,,,,,,,s_058,4,2021_Feb_08_1514,Reversal,3.2.4,60.00290413822545,
16,exp1.png,exp2.png,1,0,1,0,0,16,16,16,,,,,,,,,,,,,,,,,,,,,,,,,False,35,36,False,exp1.png,exp2.png,trial_right_image,-1,exp2.png,4,exp2.png,exp1.png,1,1,non-reversed,correct,0.9343755355733545,1,valid_win,211.1255908000021,17,,,,,,,,,,,s_058,4,2021_Feb_08_1514,Reversal,3.2.4,60.00290413822545,
17,exp3.png,exp4.png,1,0,1,0,0,17,17,17,,,,,,,,,,,,,,,,,,,,,,,,,False,36,37,False,exp3.png,exp4.png,trial_left_image,1,exp3.png,4,exp4.png,exp3.png,0,4,reversed,incorrect,0.08293237665224906,1,invalid_win,215.507256900004,18,,,,,,,,,,,s_058,4,2021_Feb_08_1514,Reversal,3.2.4,60.00290413822545,
18,exp1.png,exp2.png,1,0,1,0,0,18,18,18,,,,,,,,,,,,,,,,,,,,,,,,,False,37,38,False,exp1.png,exp2.png,trial_right_image,-1,exp2.png,4,exp2.png,exp1.png,1,1,non-reversed,correct,0.45509801399166006,1,valid_win,219.92263109999476,19,,,,,,,,,,,s_058,4,2021_Feb_08_1514,Reversal,3.2.4,60.00290413822545,
19,exp3.png,exp4.png,1,0,1,0,0,19,19,19,,,,,,,,,,,,,,,,,,,,,,,,,False,38,39,True,exp4.png,exp3.png,trial_left_image,1,exp4.png,4,exp4.png,exp3.png,1,3,reversed,correct,0.2408180901235938,0,invalid_lose,224.52134289999958,19,,,,,,,,,,,s_058,4,2021_Feb_08_1514,Reversal,3.2.4,60.00290413822545,
20,exp1.png,exp2.png,1,0,1,0,0,20,20,20,,,,,,,,,,,,,,,,,,,,,,,,,False,39,40,False,exp1.png,exp2.png,trial_right_image,-1,exp2.png,4,exp2.png,exp1.png,1,1,non-reversed,correct,0.38887514186271777,1,valid_win,228.95274369999242,20,,,,,,,,,,,s_058,4,2021_Feb_08_1514,Reversal,3.2.4,60.00290413822545,
,,,1,0,1,0,,,,,0,0,0,0,,,,,,,,,,,,,,,,,,,,,,,,,,,,,,,,,,,,,,,,,,50.0,50.0,50.0,50.0,,,,,,,s_058,4,2021_Feb_08_1514,Reversal,3.2.4,60.00290413822545,
0,exp1.png,exp2.png,2,0,2,0,0,0,0,0,,,,,,,,,,,,,,,,,,,,,,,,,True,,,,,,,,,,,,,,,,,,,,,,,,,,,,,,,s_058,4,2021_Feb_08_1514,Reversal,3.2.4,60.00290413822545,
1,exp3.png,exp4.png,2,0,2,0,0,1,1,1,,,,,,,,,,,,,,,,,,,,,,,,,False,40,41,False,exp3.png,exp4.png,trial_left_image,1,exp3.png,4,exp4.png,exp3.png,0,4,reversed,incorrect,0.9527177714209799,0,valid_lose,246.74678279999353,20,,,,,,,,,,,s_058,4,2021_Feb_08_1514,Reversal,3.2.4,60.00290413822545,
2,exp1.png,exp2.png,2,0,2,0,0,2,2,2,,,,,,,,,,,,,,,,,,,,,,,,,False,41,42,False,exp1.png,exp2.png,trial_right_image,-1,exp2.png,4,exp2.png,exp1.png,1,1,non-reversed,correct,0.6433856341411334,1,valid_win,251.17831799999112,21,,,,,,,,,,,s_058,4,2021_Feb_08_1514,Reversal,3.2.4,60.00290413822545,
3,exp3.png,exp4.png,2,0,2,0,0,3,3,3,,,,,,,,,,,,,,,,,,,,,,,,,False,42,43,False,exp3.png,exp4.png,trial_left_image,1,exp3.png,4,exp4.png,exp3.png,0,4,reversed,incorrect,0.08982135801295899,1,invalid_win,255.39417139999568,22,,,,,,,,,,,s_058,4,2021_Feb_08_1514,Reversal,3.2.4,60.00290413822545,
4,exp1.png,exp2.png,2,0,2,0,0,4,4,4,,,,,,,,,,,,,,,,,,,,,,,,,False,43,44,True,exp2.png,exp1.png,trial_right_image,-1,exp1.png,4,exp2.png,exp1.png,0,2,non-reversed,incorrect,0.7277066412622544,0,valid_lose,260.092341399999,22,,,,,,,,,,,s_058,4,2021_Feb_08_1514,Reversal,3.2.4,60.00290413822545,
5,exp3.png,exp4.png,2,0,2,0,0,5,5,5,,,,,,,,,,,,,,,,,,,,,,,,,False,44,45,False,exp3.png,exp4.png,trial_left_image,1,exp3.png,4,exp4.png,exp3.png,0,4,reversed,incorrect,0.6616302204463822,0,valid_lose,265.191218699998,22,,,,,,,,,,,s_058,4,2021_Feb_08_1514,Reversal,3.2.4,60.00290413822545,
6,exp1.png,exp2.png,2,0,2,0,0,6,6,6,,,,,,,,,,,,,,,,,,,,,,,,,False,45,46,False,exp1.png,exp2.png,trial_left_image,1,exp1.png,4,exp2.png,exp1.png,0,2,non-reversed,incorrect,0.7452939878132421,0,valid_lose,270.62251030000334,22,,,,,,,,,,,s_058,4,2021_Feb_08_1514,Reversal,3.2.4,60.00290413822545,
7,exp3.png,exp4.png,2,0,2,0,0,7,7,7,,,,,,,,,,,,,,,,,,,,,,,,,False,46,47,True,exp4.png,exp3.png,trial_left_image,1,exp4.png,4,exp4.png,exp3.png,1,3,reversed,correct,0.4163127659079727,1,valid_win,274.9375710000022,23,,,,,,,,,,,s_058,4,2021_Feb_08_1514,Reversal,3.2.4,60.00290413822545,
8,exp1.png,exp2.png,2,0,2,0,0,8,8,8,,,,,,,,,,,,,,,,,,,,,,,,,False,47,48,True,exp2.png,exp1.png,trial_right_image,-1,exp1.png,4,exp2.png,exp1.png,0,2,non-reversed,incorrect,0.4101275376128889,0,valid_lose,279.43578149999666,23,,,,,,,,,,,s_058,4,2021_Feb_08_1514,Reversal,3.2.4,60.00290413822545,
9,exp3.png,exp4.png,2,0,2,0,0,9,9,9,,,,,,,,,,,,,,,,,,,,,,,,,False,48,49,True,exp4.png,exp3.png,trial_left_image,1,exp4.png,4,exp4.png,exp3.png,1,3,reversed,correct,0.054784927214075574,0,invalid_lose,284.05090400000336,23,,,,,,,,,,,s_058,4,2021_Feb_08_1514,Reversal,3.2.4,60.00290413822545,
10,exp1.png,exp2.png,2,0,2,0,0,10,10,10,,,,,,,,,,,,,,,,,,,,,,,,,False,49,50,False,exp1.png,exp2.png,trial_left_image,1,exp1.png,4,exp2.png,exp1.png,0,2,non-reversed,incorrect,0.2175854172514714,1,invalid_win,291.08156989999407,24,,,,,,,,,,,s_058,4,2021_Feb_08_1514,Reversal,3.2.4,60.00290413822545,
11,exp3.png,exp4.png,2,0,2,0,0,11,11,11,,,,,,,,,,,,,,,,,,,,,,,,,False,50,51,True,exp4.png,exp3.png,trial_left_image,1,exp4.png,4,exp4.png,exp3.png,1,3,reversed,correct,0.9306256454547864,1,valid_win,296.3797601999977,25,,,,,,,,,,,s_058,4,2021_Feb_08_1514,Reversal,3.2.4,60.00290413822545,
12,exp1.png,exp2.png,2,0,2,0,0,12,12,12,,,,,,,,,,,,,,,,,,,,,,,,,False,51,52,True,exp2.png,exp1.png,trial_left_image,1,exp2.png,4,exp2.png,exp1.png,1,1,non-reversed,correct,0.744010564752599,1,valid_win,301.46186709999165,26,,,,,,,,,,,s_058,4,2021_Feb_08_1514,Reversal,3.2.4,60.00290413822545,
13,exp3.png,exp4.png,2,0,2,0,0,13,13,13,,,,,,,,,,,,,,,,,,,,,,,,,False,52,53,False,exp3.png,exp4.png,trial_left_image,1,exp3.png,4,exp4.png,exp3.png,0,4,reversed,incorrect,0.09184265707286321,1,invalid_win,306.0768781999941,27,,,,,,,,,,,s_058,4,2021_Feb_08_1514,Reversal,3.2.4,60.00290413822545,
14,exp1.png,exp2.png,2,0,2,0,0,14,14,14,,,,,,,,,,,,,,,,,,,,,,,,,False,53,54,False,exp1.png,exp2.png,trial_left_image,1,exp1.png,4,exp2.png,exp1.png,0,2,non-reversed,incorrect,0.37185448626190676,0,valid_lose,310.95838480000384,27,,,,,,,,,,,s_058,4,2021_Feb_08_1514,Reversal,3.2.4,60.00290413822545,
15,exp3.png,exp4.png,2,0,2,0,0,15,15,15,,,,,,,,,,,,,,,,,,,,,,,,,False,54,55,False,exp3.png,exp4.png,trial_left_image,1,exp3.png,4,exp4.png,exp3.png,0,4,reversed,incorrect,0.06921609881293589,1,invalid_win,316.07344389999344,28,,,,,,,,,,,s_058,4,2021_Feb_08_1514,Reversal,3.2.4,60.00290413822545,
16,exp1.png,exp2.png,2,0,2,0,0,16,16,16,,,,,,,,,,,,,,,,,,,,,,,,,False,55,56,True,exp2.png,exp1.png,trial_right_image,-1,exp1.png,4,exp2.png,exp1.png,0,2,non-reversed,incorrect,0.6247186489173774,0,valid_lose,320.688823199991,28,,,,,,,,,,,s_058,4,2021_Feb_08_1514,Reversal,3.2.4,60.00290413822545,
17,exp3.png,exp4.png,2,0,2,0,0,17,17,17,,,,,,,,,,,,,,,,,,,,,,,,,False,56,57,False,exp3.png,exp4.png,trial_left_image,1,exp3.png,4,exp4.png,exp3.png,0,4,reversed,incorrect,0.2989881263698956,0,valid_lose,325.73676169999817,28,,,,,,,,,,,s_058,4,2021_Feb_08_1514,Reversal,3.2.4,60.00290413822545,
18,exp1.png,exp2.png,2,0,2,0,0,18,18,18,,,,,,,,,,,,,,,,,,,,,,,,,False,57,58,True,exp2.png,exp1.png,trial_left_image,1,exp2.png,4,exp2.png,exp1.png,1,1,non-reversed,correct,0.4920707925598352,1,valid_win,331.11802719999105,29,,,,,,,,,,,s_058,4,2021_Feb_08_1514,Reversal,3.2.4,60.00290413822545,
19,exp3.png,exp4.png,2,0,2,0,0,19,19,19,,,,,,,,,,,,,,,,,,,,,,,,,False,58,59,True,exp4.png,exp3.png,trial_left_image,1,exp4.png,4,exp4.png,exp3.png,1,3,reversed,correct,0.0664231694814078,0,invalid_lose,337.36659189999045,29,,,,,,,,,,,s_058,4,2021_Feb_08_1514,Reversal,3.2.4,60.00290413822545,
20,exp1.png,exp2.png,2,0,2,0,0,20,20,20,,,,,,,,,,,,,,,,,,,,,,,,,False,59,60,True,exp2.png,exp1.png,trial_left_image,1,exp2.png,4,exp2.png,exp1.png,1,1,non-reversed,correct,0.09335704531047151,0,invalid_lose,342.82879869999306,29,,,,,,,,,,,s_058,4,2021_Feb_08_1514,Reversal,3.2.4,60.00290413822545,
,,,2,0,2,0,,,,,0,0,0,0,,,,,,,,,,,,,,,,,,,,,,,,,,,,,,,,,,,,,,,,,,67,50.0,68,26,,,,,,,s_058,4,2021_Feb_08_1514,Reversal,3.2.4,60.00290413822545,
0,exp1.png,exp2.png,3,0,3,0,0,0,0,0,,,,,,,,,,,,,,,,,,,,,,,,,True,,,,,,,,,,,,,,,,,,,,,,,,,,,,,,,s_058,4,2021_Feb_08_1514,Reversal,3.2.4,60.00290413822545,
1,exp3.png,exp4.png,3,0,3,0,0,1,1,1,,,,,,,,,,,,,,,,,,,,,,,,,False,60,61,False,exp3.png,exp4.png,trial_left_image,1,exp3.png,4,exp4.png,exp3.png,0,4,reversed,incorrect,0.8055375962706794,0,valid_lose,359.00871769999503,29,,,,,,,,,,,s_058,4,2021_Feb_08_1514,Reversal,3.2.4,60.00290413822545,
2,exp1.png,exp2.png,3,0,3,0,0,2,2,2,,,,,,,,,,,,,,,,,,,,,,,,,False,61,62,True,exp2.png,exp1.png,trial_right_image,-1,exp1.png,4,exp2.png,exp1.png,0,2,non-reversed,incorrect,0.5613314393134677,0,valid_lose,365.0721155999927,29,,,,,,,,,,,s_058,4,2021_Feb_08_1514,Reversal,3.2.4,60.00290413822545,
3,exp3.png,exp4.png,3,0,3,0,0,3,3,3,,,,,,,,,,,,,,,,,,,,,,,,,False,62,63,False,exp3.png,exp4.png,trial_left_image,1,exp3.png,4,exp4.png,exp3.png,0,4,reversed,incorrect,0.7646913651447714,0,valid_lose,369.6888018000027,29,,,,,,,,,,,s_058,4,2021_Feb_08_1514,Reversal,3.2.4,60.00290413822545,
4,exp1.png,exp2.png,3,0,3,0,0,4,4,4,,,,,,,,,,,,,,,,,,,,,,,,,False,63,64,True,exp2.png,exp1.png,trial_left_image,1,exp2.png,4,exp2.png,exp1.png,1,1,non-reversed,correct,0.2781251845854117,1,valid_win,374.12013260000094,30,,,,,,,,,,,s_058,4,2021_Feb_08_1514,Reversal,3.2.4,60.00290413822545,
5,exp3.png,exp4.png,3,0,3,0,0,5,5,5,,,,,,,,,,,,,,,,,,,,,,,,,False,64,65,False,exp3.png,exp4.png,trial_right_image,-1,exp4.png,4,exp4.png,exp3.png,1,3,reversed,correct,0.2393163652541639,0,invalid_lose,378.4690142000036,30,,,,,,,,,,,s_058,4,2021_Feb_08_1514,Reversal,3.2.4,60.00290413822545,
6,exp1.png,exp2.png,3,0,3,0,0,6,6,6,,,,,,,,,,,,,,,,,,,,,,,,,False,65,66,True,exp2.png,exp1.png,trial_left_image,1,exp2.png,4,exp2.png,exp1.png,1,1,non-reversed,correct,0.8443991701008847,1,valid_win,383.1006284000032,31,,,,,,,,,,,s_058,4,2021_Feb_08_1514,Reversal,3.2.4,60.00290413822545,
7,exp3.png,exp4.png,3,0,3,0,0,7,7,7,,,,,,,,,,,,,,,,,,,,,,,,,False,66,67,False,exp3.png,exp4.png,trial_right_image,-1,exp4.png,4,exp4.png,exp3.png,1,3,reversed,correct,0.9323827362962132,1,valid_win,388.78106979999575,32,,,,,,,,,,,s_058,4,2021_Feb_08_1514,Reversal,3.2.4,60.00290413822545,
8,exp1.png,exp2.png,3,0,3,0,0,8,8,8,,,,,,,,,,,,,,,,,,,,,,,,,False,67,68,False,exp1.png,exp2.png,trial_left_image,1,exp1.png,4,exp2.png,exp1.png,0,2,non-reversed,incorrect,0.35974781124272803,0,valid_lose,394.8802694999904,32,,,,,,,,,,,s_058,4,2021_Feb_08_1514,Reversal,3.2.4,60.00290413822545,
9,exp3.png,exp4.png,3,0,3,0,0,9,9,9,,,,,,,,,,,,,,,,,,,,,,,,,False,68,69,False,exp3.png,exp4.png,trial_left_image,1,exp3.png,4,exp4.png,exp3.png,0,4,reversed,incorrect,0.5529918669115141,0,valid_lose,403.44401829999697,32,,,,,,,,,,,s_058,4,2021_Feb_08_1514,Reversal,3.2.4,60.00290413822545,
10,exp1.png,exp2.png,3,0,3,0,0,10,10,10,,,,,,,,,,,,,,,,,,,,,,,,,False,69,70,True,exp2.png,exp1.png,trial_right_image,-1,exp1.png,4,exp2.png,exp1.png,0,2,non-reversed,incorrect,0.6310265865443364,0,valid_lose,407.89227769999707,32,,,,,,,,,,,s_058,4,2021_Feb_08_1514,Reversal,3.2.4,60.00290413822545,
11,exp3.png,exp4.png,3,0,3,0,0,11,11,11,,,,,,,,,,,,,,,,,,,,,,,,,False,70,71,True,exp4.png,exp3.png,trial_right_image,-1,exp3.png,4,exp4.png,exp3.png,0,4,reversed,incorrect,0.2941602027157302,0,valid_lose,413.0560717999906,32,,,,,,,,,,,s_058,4,2021_Feb_08_1514,Reversal,3.2.4,60.00290413822545,
12,exp1.png,exp2.png,3,0,3,0,0,12,12,12,,,,,,,,,,,,,,,,,,,,,,,,,False,71,72,False,exp1.png,exp2.png,trial_right_image,-1,exp2.png,4,exp2.png,exp1.png,1,1,non-reversed,correct,0.2771972393112847,1,valid_win,418.6721038999967,33,,,,,,,,,,,s_058,4,2021_Feb_08_1514,Reversal,3.2.4,60.00290413822545,
13,exp3.png,exp4.png,3,0,3,0,0,13,13,13,,,,,,,,,,,,,,,,,,,,,,,,,False,72,73,True,exp4.png,exp3.png,trial_left_image,1,exp4.png,4,exp4.png,exp3.png,1,3,reversed,correct,0.06987874329077448,0,invalid_lose,425.4862388000038,33,,,,,,,,,,,s_058,4,2021_Feb_08_1514,Reversal,3.2.4,60.00290413822545,
14,exp1.png,exp2.png,3,0,3,0,0,14,14,14,,,,,,,,,,,,,,,,,,,,,,,,,False,73,74,True,exp2.png,exp1.png,trial_right_image,-1,exp1.png,4,exp2.png,exp1.png,0,2,non-reversed,incorrect,0.26021807199899316,0,valid_lose,431.2343000999972,33,,,,,,,,,,,s_058,4,2021_Feb_08_1514,Reversal,3.2.4,60.00290413822545,
15,exp3.png,exp4.png,3,0,3,0,0,15,15,15,,,,,,,,,,,,,,,,,,,,,,,,,False,74,75,False,exp3.png,exp4.png,trial_left_image,1,exp3.png,4,exp4.png,exp3.png,0,4,reversed,incorrect,0.8376489214196453,0,valid_lose,436.3324272000027,33,,,,,,,,,,,s_058,4,2021_Feb_08_1514,Reversal,3.2.4,60.00290413822545,
16,exp1.png,exp2.png,3,0,3,0,0,16,16,16,,,,,,,,,,,,,,,,,,,,,,,,,False,75,76,False,exp1.png,exp2.png,trial_left_image,1,exp1.png,4,exp2.png,exp1.png,0,2,non-reversed,incorrect,0.7486310407112102,0,valid_lose,440.7964748999948,33,,,,,,,,,,,s_058,4,2021_Feb_08_1514,Reversal,3.2.4,60.00290413822545,
17,exp3.png,exp4.png,3,0,3,0,0,17,17,17,,,,,,,,,,,,,,,,,,,,,,,,,False,76,77,True,exp4.png,exp3.png,trial_left_image,1,exp4.png,4,exp4.png,exp3.png,1,3,reversed,correct,0.8335612509014002,1,valid_win,446.77897230000235,34,,,,,,,,,,,s_058,4,2021_Feb_08_1514,Reversal,3.2.4,60.00290413822545,
18,exp1.png,exp2.png,3,0,3,0,0,18,18,18,,,,,,,,,,,,,,,,,,,,,,,,,False,77,78,True,exp2.png,exp1.png,trial_left_image,1,exp2.png,4,exp2.png,exp1.png,1,1,non-reversed,correct,0.26563570858916186,1,valid_win,450.9275951000018,35,,,,,,,,,,,s_058,4,2021_Feb_08_1514,Reversal,3.2.4,60.00290413822545,
19,exp3.png,exp4.png,3,0,3,0,0,19,19,19,,,,,,,,,,,,,,,,,,,,,,,,,False,78,79,False,exp3.png,exp4.png,trial_left_image,1,exp3.png,4,exp4.png,exp3.png,0,4,reversed,incorrect,0.6486876248277933,0,valid_lose,455.89279119999264,35,,,,,,,,,,,s_058,4,2021_Feb_08_1514,Reversal,3.2.4,60.00290413822545,
20,exp1.png,exp2.png,3,0,3,0,0,20,20,20,,,,,,,,,,,,,,,,,,,,,,,,,False,79,80,True,exp2.png,exp1.png,trial_right_image,-1,exp1.png,4,exp2.png,exp1.png,0,2,non-reversed,incorrect,0.9424688964298563,0,valid_lose,461.0791382000025,35,,,,,,,,,,,s_058,4,2021_Feb_08_1514,Reversal,3.2.4,60.00290413822545,
,,,3,0,3,0,,,,,0,0,0,0,,,,,,,,,,,,,,,,,,,,,,,,,,,,,,,,,,,,,,,,,,22,82,30,50.0,,,,,,,s_058,4,2021_Feb_08_1514,Reversal,3.2.4,60.00290413822545,
0,exp1.png,exp2.png,,,,,,,,,,,,,,,,,0,0,0,0,0,0,0,0,,,,,,,,,True,,,,,,,,,,,,,,,,,,,,,,,,,,,,,,,s_058,4,2021_Feb_08_1514,Reversal,3.2.4,60.00290413822545,
1,exp3.png,exp4.png,,,,,,,,,,,,,,,,,0,0,0,0,0,1,1,1,,,,,,,,,False,0,81,False,exp3.png,exp4.png,trial_right_image,-1,exp4.png,4,exp3.png,exp4.png,1,3,reversed,incorrect,0.250861657873496,0,valid_lose,479.8681024999969,35,,,,,479.1472337000014,,,,,,s_058,4,2021_Feb_08_1514,Reversal,3.2.4,60.00290413822545,
2,exp1.png,exp2.png,,,,,,,,,,,,,,,,,0,0,0,0,0,2,2,2,,,,,,,,,False,1,82,True,exp2.png,exp1.png,trial_left_image,1,exp2.png,4,exp2.png,exp1.png,1,1,non-reversed,correct,0.898159757236026,1,valid_win,485.14935150000383,36,,,,,,,,,,,s_058,4,2021_Feb_08_1514,Reversal,3.2.4,60.00290413822545,
3,exp3.png,exp4.png,,,,,,,,,,,,,,,,,0,0,0,0,0,3,3,3,,,,,,,,,False,2,83,False,exp3.png,exp4.png,trial_right_image,-1,exp4.png,4,exp3.png,exp4.png,1,3,reversed,incorrect,0.18030922400789884,1,invalid_win,489.5800768999907,37,,,,,,,,,,,s_058,4,2021_Feb_08_1514,Reversal,3.2.4,60.00290413822545,
4,exp1.png,exp2.png,,,,,,,,,,,,,,,,,0,0,0,0,0,4,4,4,,,,,,,,,False,3,84,False,exp1.png,exp2.png,trial_right_image,-1,exp2.png,4,exp2.png,exp1.png,1,1,non-reversed,correct,0.007611338711531523,0,invalid_lose,494.0278754000028,37,,,,,,,,,,,s_058,4,2021_Feb_08_1514,Reversal,3.2.4,60.00290413822545,
5,exp3.png,exp4.png,,,,,,,,,,,,,,,,,0,0,0,0,0,5,5,5,,,,,,,,,False,4,85,False,exp3.png,exp4.png,trial_right_image,-1,exp4.png,4,exp3.png,exp4.png,1,3,reversed,incorrect,0.39418748407759063,0,valid_lose,498.9943601999985,37,,,,,,,,,,,s_058,4,2021_Feb_08_1514,Reversal,3.2.4,60.00290413822545,
6,exp1.png,exp2.png,,,,,,,,,,,,,,,,,0,0,0,0,0,6,6,6,,,,,,,,,False,5,86,True,exp2.png,exp1.png,trial_left_image,1,exp2.png,4,exp2.png,exp1.png,1,1,non-reversed,correct,0.17580820442204692,0,invalid_lose,503.69278260000283,37,,,,,,,,,,,s_058,4,2021_Feb_08_1514,Reversal,3.2.4,60.00290413822545,
7,exp3.png,exp4.png,,,,,,,,,,,,,,,,,0,0,0,0,0,7,7,7,,,,,,,,,False,6,87,False,exp3.png,exp4.png,trial_left_image,1,exp3.png,4,exp3.png,exp4.png,0,4,reversed,correct,0.6428321152755943,1,valid_win,508.44145410000056,38,,,,,,,,,,,s_058,4,2021_Feb_08_1514,Reversal,3.2.4,60.00290413822545,
8,exp1.png,exp2.png,,,,,,,,,,,,,,,,,0,0,0,0,0,8,8,8,,,,,,,,,False,7,88,True,exp2.png,exp1.png,trial_right_image,-1,exp1.png,4,exp2.png,exp1.png,0,2,non-reversed,incorrect,0.6950032907935821,0,valid_lose,515.0059173999907,38,,,,,,,,,,,s_058,4,2021_Feb_08_1514,Reversal,3.2.4,60.00290413822545,
9,exp3.png,exp4.png,,,,,,,,,,,,,,,,,0,0,0,0,0,9,9,9,,,,,,,,,False,8,89,False,exp3.png,exp4.png,trial_left_image,1,exp3.png,4,exp3.png,exp4.png,0,4,reversed,correct,0.642013112607274,1,valid_win,520.4705666999944,39,,,,,,,,,,,s_058,4,2021_Feb_08_1514,Reversal,3.2.4,60.00290413822545,
10,exp1.png,exp2.png,,,,,,,,,,,,,,,,,0,0,0,0,0,10,10,10,,,,,,,,,False,9,90,False,exp1.png,exp2.png,trial_left_image,1,exp1.png,4,exp2.png,exp1.png,0,2,non-reversed,incorrect,0.42388649011,0,valid_lose,527.3651014999923,39,,,,,,,,,,,s_058,4,2021_Feb_08_1514,Reversal,3.2.4,60.00290413822545,
11,exp3.png,exp4.png,,,,,,,,,,,,,,,,,0,0,0,0,0,11,11,11,,,,,,,,,False,10,91,True,exp4.png,exp3.png,trial_right_image,-1,exp3.png,4,exp3.png,exp4.png,0,4,reversed,correct,0.052013058266827894,0,invalid_lose,532.0824260999943,39,,,,,,,,,,,s_058,4,2021_Feb_08_1514,Reversal,3.2.4,60.00290413822545,
12,exp1.png,exp2.png,,,,,,,,,,,,,,,,,0,0,0,0,0,12,12,12,,,,,,,,,False,11,92,True,exp2.png,exp1.png,trial_left_image,1,exp2.png,4,exp2.png,exp1.png,1,1,non-reversed,correct,0.2320656839260764,0,invalid_lose,537.2315211999958,39,,,,,,,,,,,s_058,4,2021_Feb_08_1514,Reversal,3.2.4,60.00290413822545,
13,exp3.png,exp4.png,,,,,,,,,,,,,,,,,0,0,0,0,0,13,13,13,,,,,,,,,False,12,93,True,exp4.png,exp3.png,trial_left_image,1,exp4.png,4,exp3.png,exp4.png,1,3,reversed,incorrect,0.799051261461944,0,valid_lose,541.5637412999931,39,,,,,,,,,,,s_058,4,2021_Feb_08_1514,Reversal,3.2.4,60.00290413822545,
14,exp1.png,exp2.png,,,,,,,,,,,,,,,,,0,0,0,0,0,14,14,14,,,,,,,,,False,13,94,False,exp1.png,exp2.png,trial_right_image,-1,exp2.png,4,exp2.png,exp1.png,1,1,non-reversed,correct,0.9776016163268895,1,valid_win,546.562425600001,40,,,,,,,,,,,s_058,4,2021_Feb_08_1514,Reversal,3.2.4,60.00290413822545,
15,exp3.png,exp4.png,,,,,,,,,,,,,,,,,0,0,0,0,0,15,15,15,,,,,,,,,False,14,95,False,exp3.png,exp4.png,trial_left_image,1,exp3.png,4,exp3.png,exp4.png,0,4,reversed,correct,0.6546174564969984,1,valid_win,552.8599907000025,41,,,,,,,,,,,s_058,4,2021_Feb_08_1514,Reversal,3.2.4,60.00290413822545,
16,exp1.png,exp2.png,,,,,,,,,,,,,,,,,0,0,0,0,0,16,16,16,,,,,,,,,False,15,96,True,exp2.png,exp1.png,trial_right_image,-1,exp1.png,4,exp2.png,exp1.png,0,2,non-reversed,incorrect,0.31394574559138144,0,valid_lose,557.7419937999948,41,,,,,,,,,,,s_058,4,2021_Feb_08_1514,Reversal,3.2.4,60.00290413822545,
17,exp3.png,exp4.png,,,,,,,,,,,,,,,,,0,0,0,0,0,17,17,17,,,,,,,,,False,16,97,True,exp4.png,exp3.png,trial_left_image,1,exp4.png,4,exp3.png,exp4.png,1,3,reversed,incorrect,0.6793838259477526,0,valid_lose,561.7406870999985,41,,,,,,,,,,,s_058,4,2021_Feb_08_1514,Reversal,3.2.4,60.00290413822545,
18,exp1.png,exp2.png,,,,,,,,,,,,,,,,,0,0,0,0,0,18,18,18,,,,,,,,,False,17,98,True,exp2.png,exp1.png,trial_right_image,-1,exp1.png,4,exp2.png,exp1.png,0,2,non-reversed,incorrect,0.02007813981812334,1,invalid_win,566.1219551999966,42,,,,,,,,,,,s_058,4,2021_Feb_08_1514,Reversal,3.2.4,60.00290413822545,
19,exp3.png,exp4.png,,,,,,,,,,,,,,,,,0,0,0,0,0,19,19,19,,,,,,,,,False,18,99,True,exp4.png,exp3.png,trial_left_image,1,exp4.png,4,exp3.png,exp4.png,1,3,reversed,incorrect,0.8885974326308503,0,valid_lose,570.5869581000006,42,,,,,,,,,,,s_058,4,2021_Feb_08_1514,Reversal,3.2.4,60.00290413822545,
20,exp1.png,exp2.png,,,,,,,,,,,,,,,,,0,0,0,0,0,20,20,20,,,,,,,,,False,19,100,False,exp1.png,exp2.png,trial_right_image,-1,exp2.png,4,exp2.png,exp1.png,1,1,non-reversed,correct,0.8646825343106793,1,valid_win,575.3523308000003,43,,,,,,,,,,,s_058,4,2021_Feb_08_1514,Reversal,3.2.4,60.00290413822545,
,,,,,,,,,,,,,,,,,,,0,0,0,0,,,,,0,0,0,0,,,,,,,,,,,,,,,,,,,,,,,,,,30,70,32,37,,,,,,,s_058,4,2021_Feb_08_1514,Reversal,3.2.4,60.00290413822545,
0,exp1.png,exp2.png,,,,,,,,,,,,,,,,,1,0,1,0,0,0,0,0,,,,,,,,,True,,,,,,,,,,,,,,,,,,,,,,,,,,,,,,,s_058,4,2021_Feb_08_1514,Reversal,3.2.4,60.00290413822545,
1,exp3.png,exp4.png,,,,,,,,,,,,,,,,,1,0,1,0,0,1,1,1,,,,,,,,,False,20,101,False,exp3.png,exp4.png,trial_right_image,-1,exp4.png,4,exp3.png,exp4.png,1,3,reversed,incorrect,0.7858880620238479,0,valid_lose,593.8613613999914,43,,,,,,,,,,,s_058,4,2021_Feb_08_1514,Reversal,3.2.4,60.00290413822545,
2,exp1.png,exp2.png,,,,,,,,,,,,,,,,,1,0,1,0,0,2,2,2,,,,,,,,,False,21,102,True,exp2.png,exp1.png,trial_right_image,-1,exp1.png,4,exp2.png,exp1.png,0,2,non-reversed,incorrect,0.5931124527025858,0,valid_lose,598.3557779999974,43,,,,,,,,,,,s_058,4,2021_Feb_08_1514,Reversal,3.2.4,60.00290413822545,
3,exp3.png,exp4.png,,,,,,,,,,,,,,,,,1,0,1,0,0,3,3,3,,,,,,,,,False,22,103,True,exp4.png,exp3.png,trial_left_image,1,exp4.png,4,exp3.png,exp4.png,1,3,reversed,incorrect,0.3377253459500609,0,valid_lose,603.3259308999986,43,,,,,,,,,,,s_058,4,2021_Feb_08_1514,Reversal,3.2.4,60.00290413822545,
4,exp1.png,exp2.png,,,,,,,,,,,,,,,,,1,0,1,0,0,4,4,4,,,,,,,,,False,23,104,True,exp2.png,exp1.png,trial_right_image,-1,exp1.png,4,exp2.png,exp1.png,0,2,non-reversed,incorrect,0.9643726893538087,0,valid_lose,608.274199499996,43,,,,,,,,,,,s_058,4,2021_Feb_08_1514,Reversal,3.2.4,60.00290413822545,
5,exp3.png,exp4.png,,,,,,,,,,,,,,,,,1,0,1,0,0,5,5,5,,,,,,,,,False,24,105,False,exp3.png,exp4.png,trial_left_image,1,exp3.png,4,exp3.png,exp4.png,0,4,reversed,correct,0.33489625244822085,1,valid_win,613.5226060999994,44,,,,,,,,,,,s_058,4,2021_Feb_08_1514,Reversal,3.2.4,60.00290413822545,
6,exp1.png,exp2.png,,,,,,,,,,,,,,,,,1,0,1,0,0,6,6,6,,,,,,,,,False,25,106,False,exp1.png,exp2.png,trial_right_image,-1,exp2.png,4,exp2.png,exp1.png,1,1,non-reversed,correct,0.13537967333332734,0,invalid_lose,619.0533838999982,44,,,,,,,,,,,s_058,4,2021_Feb_08_1514,Reversal,3.2.4,60.00290413822545,
7,exp3.png,exp4.png,,,,,,,,,,,,,,,,,1,0,1,0,0,7,7,7,,,,,,,,,False,26,107,False,exp3.png,exp4.png,trial_left_image,1,exp3.png,4,exp3.png,exp4.png,0,4,reversed,correct,0.7878786286495719,1,valid_win,623.2861460999993,45,,,,,,,,,,,s_058,4,2021_Feb_08_1514,Reversal,3.2.4,60.00290413822545,
8,exp1.png,exp2.png,,,,,,,,,,,,,,,,,1,0,1,0,0,8,8,8,,,,,,,,,False,27,108,True,exp2.png,exp1.png,trial_left_image,1,exp2.png,4,exp2.png,exp1.png,1,1,non-reversed,correct,0.3165257889311346,1,valid_win,628.0176709999942,46,,,,,,,,,,,s_058,4,2021_Feb_08_1514,Reversal,3.2.4,60.00290413822545,
9,exp3.png,exp4.png,,,,,,,,,,,,,,,,,1,0,1,0,0,9,9,9,,,,,,,,,False,28,109,False,exp3.png,exp4.png,trial_left_image,1,exp3.png,4,exp3.png,exp4.png,0,4,reversed,correct,0.060245851619509794,0,invalid_lose,632.0160097999906,46,,,,,,,,,,,s_058,4,2021_Feb_08_1514,Reversal,3.2.4,60.00290413822545,
10,exp1.png,exp2.png,,,,,,,,,,,,,,,,,1,0,1,0,0,10,10,10,,,,,,,,,False,29,110,True,exp2.png,exp1.png,trial_right_image,-1,exp1.png,4,exp2.png,exp1.png,0,2,non-reversed,incorrect,0.08375854685189787,1,invalid_win,636.2982645000011,47,,,,,,,,,,,s_058,4,2021_Feb_08_1514,Reversal,3.2.4,60.00290413822545,
11,exp3.png,exp4.png,,,,,,,,,,,,,,,,,1,0,1,0,0,11,11,11,,,,,,,,,False,30,111,False,exp3.png,exp4.png,trial_left_image,1,exp3.png,4,exp3.png,exp4.png,0,4,reversed,correct,0.5291766813528875,1,valid_win,640.7636133999913,48,,,,,,,,,,,s_058,4,2021_Feb_08_1514,Reversal,3.2.4,60.00290413822545,
12,exp1.png,exp2.png,,,,,,,,,,,,,,,,,1,0,1,0,0,12,12,12,,,,,,,,,False,31,112,False,exp1.png,exp2.png,trial_right_image,-1,exp2.png,4,exp2.png,exp1.png,1,1,non-reversed,correct,0.5971941671091909,1,valid_win,646.2612641000014,49,,,,,,,,,,,s_058,4,2021_Feb_08_1514,Reversal,3.2.4,60.00290413822545,
13,exp3.png,exp4.png,,,,,,,,,,,,,,,,,1,0,1,0,0,13,13,13,,,,,,,,,False,32,113,False,exp3.png,exp4.png,trial_left_image,1,exp3.png,4,exp3.png,exp4.png,0,4,reversed,correct,0.06258761321420347,0,invalid_lose,650.4770012999943,49,,,,,,,,,,,s_058,4,2021_Feb_08_1514,Reversal,3.2.4,60.00290413822545,
14,exp1.png,exp2.png,,,,,,,,,,,,,,,,,1,0,1,0,0,14,14,14,,,,,,,,,False,33,114,True,exp2.png,exp1.png,trial_right_image,-1,exp1.png,4,exp2.png,exp1.png,0,2,non-reversed,incorrect,0.9090016005199936,0,valid_lose,654.4405184999923,49,,,,,,,,,,,s_058,4,2021_Feb_08_1514,Reversal,3.2.4,60.00290413822545,
15,exp3.png,exp4.png,,,,,,,,,,,,,,,,,1,0,1,0,0,15,15,15,,,,,,,,,False,34,115,True,exp4.png,exp3.png,trial_left_image,1,exp4.png,4,exp3.png,exp4.png,1,3,reversed,incorrect,0.23010277777183574,1,invalid_win,658.640327999994,50,,,,,,,,,,,s_058,4,2021_Feb_08_1514,Reversal,3.2.4,60.00290413822545,
16,exp1.png,exp2.png,,,,,,,,,,,,,,,,,1,0,1,0,0,16,16,16,,,,,,,,,False,35,116,False,exp1.png,exp2.png,trial_right_image,-1,exp2.png,4,exp2.png,exp1.png,1,1,non-reversed,correct,0.1883488454091249,0,invalid_lose,667.4046224999911,50,,,,,,,,,,,s_058,4,2021_Feb_08_1514,Reversal,3.2.4,60.00290413822545,
17,exp3.png,exp4.png,,,,,,,,,,,,,,,,,1,0,1,0,0,17,17,17,,,,,,,,,False,36,117,True,exp4.png,exp3.png,trial_left_image,1,exp4.png,4,exp3.png,exp4.png,1,3,reversed,incorrect,0.014349429653146561,1,invalid_win,671.3695290000032,51,,,,,,,,,,,s_058,4,2021_Feb_08_1514,Reversal,3.2.4,60.00290413822545,
18,exp1.png,exp2.png,,,,,,,,,,,,,,,,,1,0,1,0,0,18,18,18,,,,,,,,,False,37,118,False,exp1.png,exp2.png,trial_left_image,1,exp1.png,4,exp2.png,exp1.png,0,2,non-reversed,incorrect,0.9091119605283647,0,valid_lose,675.3686024999915,51,,,,,,,,,,,s_058,4,2021_Feb_08_1514,Reversal,3.2.4,60.00290413822545,
19,exp3.png,exp4.png,,,,,,,,,,,,,,,,,1,0,1,0,0,19,19,19,,,,,,,,,False,38,119,True,exp4.png,exp3.png,trial_right_image,-1,exp3.png,4,exp3.png,exp4.png,0,4,reversed,correct,0.9888735865891787,1,valid_win,679.3170075999951,52,,,,,,,,,,,s_058,4,2021_Feb_08_1514,Reversal,3.2.4,60.00290413822545,
20,exp1.png,exp2.png,,,,,,,,,,,,,,,,,1,0,1,0,0,20,20,20,,,,,,,,,False,39,120,True,exp2.png,exp1.png,trial_right_image,-1,exp1.png,4,exp2.png,exp1.png,0,2,non-reversed,incorrect,0.5468979782825355,0,valid_lose,683.582258399998,52,,,,,,,,,,,s_058,4,2021_Feb_08_1514,Reversal,3.2.4,60.00290413822545,
,,,,,,,,,,,,,,,,,,,1,0,1,0,,,,,0,0,0,0,,,,,,,,,,,,,,,,,,,,,,,,,,34,64,28,69,,,,,,,s_058,4,2021_Feb_08_1514,Reversal,3.2.4,60.00290413822545,
0,exp1.png,exp2.png,,,,,,,,,,,,,,,,,2,0,2,0,0,0,0,0,,,,,,,,,True,,,,,,,,,,,,,,,,,,,,,,,,,,,,,,,s_058,4,2021_Feb_08_1514,Reversal,3.2.4,60.00290413822545,
1,exp3.png,exp4.png,,,,,,,,,,,,,,,,,2,0,2,0,0,1,1,1,,,,,,,,,False,40,121,False,exp3.png,exp4.png,trial_right_image,-1,exp4.png,4,exp3.png,exp4.png,1,3,reversed,incorrect,0.7231347860793697,0,valid_lose,698.5107565999933,52,,,,,,,,,,,s_058,4,2021_Feb_08_1514,Reversal,3.2.4,60.00290413822545,
2,exp1.png,exp2.png,,,,,,,,,,,,,,,,,2,0,2,0,0,2,2,2,,,,,,,,,False,41,122,False,exp1.png,exp2.png,trial_right_image,-1,exp2.png,4,exp2.png,exp1.png,1,1,non-reversed,correct,0.515500331773627,1,valid_win,703.1755215000012,53,,,,,,,,,,,s_058,4,2021_Feb_08_1514,Reversal,3.2.4,60.00290413822545,
3,exp3.png,exp4.png,,,,,,,,,,,,,,,,,2,0,2,0,0,3,3,3,,,,,,,,,False,42,123,False,exp3.png,exp4.png,trial_right_image,-1,exp4.png,4,exp3.png,exp4.png,1,3,reversed,incorrect,0.2412353447650324,1,invalid_win,707.3072361999948,54,,,,,,,,,,,s_058,4,2021_Feb_08_1514,Reversal,3.2.4,60.00290413822545,
4,exp1.png,exp2.png,,,,,,,,,,,,,,,,,2,0,2,0,0,4,4,4,,,,,,,,,False,43,124,True,exp2.png,exp1.png,trial_left_image,1,exp2.png,4,exp2.png,exp1.png,1,1,non-reversed,correct,0.36096342579509755,1,valid_win,712.5379861999972,55,,,,,,,,,,,s_058,4,2021_Feb_08_1514,Reversal,3.2.4,60.00290413822545,
5,exp3.png,exp4.png,,,,,,,,,,,,,,,,,2,0,2,0,0,5,5,5,,,,,,,,,False,44,125,False,exp3.png,exp4.png,trial_right_image,-1,exp4.png,4,exp3.png,exp4.png,1,3,reversed,incorrect,0.06042324469365612,1,invalid_win,716.5705913999991,56,,,,,,,,,,,s_058,4,2021_Feb_08_1514,Reversal,3.2.4,60.00290413822545,
6,exp1.png,exp2.png,,,,,,,,,,,,,,,,,2,0,2,0,0,6,6,6,,,,,,,,,False,45,126,False,exp1.png,exp2.png,trial_right_image,-1,exp2.png,4,exp2.png,exp1.png,1,1,non-reversed,correct,0.9123544202895942,1,valid_win,720.669936499995,57,,,,,,,,,,,s_058,4,2021_Feb_08_1514,Reversal,3.2.4,60.00290413822545,
7,exp3.png,exp4.png,,,,,,,,,,,,,,,,,2,0,2,0,0,7,7,7,,,,,,,,,False,46,127,True,exp4.png,exp3.png,trial_left_image,1,exp4.png,4,exp3.png,exp4.png,1,3,reversed,incorrect,0.3754231025805679,0,valid_lose,724.8353227000043,57,,,,,,,,,,,s_058,4,2021_Feb_08_1514,Reversal,3.2.4,60.00290413822545,
8,exp1.png,exp2.png,,,,,,,,,,,,,,,,,2,0,2,0,0,8,8,8,,,,,,,,,False,47,128,True,exp2.png,exp1.png,trial_left_image,1,exp2.png,4,exp2.png,exp1.png,1,1,non-reversed,correct,0.7760838194878017,1,valid_win,729.2331869999907,58,,,,,,,,,,,s_058,4,2021_Feb_08_1514,Reversal,3.2.4,60.00290413822545,
9,exp3.png,exp4.png,,,,,,,,,,,,,,,,,2,0,2,0,0,9,9,9,,,,,,,,,False,48,129,True,exp4.png,exp3.png,trial_left_image,1,exp4.png,4,exp3.png,exp4.png,1,3,reversed,incorrect,0.17245463922610993,1,invalid_win,733.3317782999948,59,,,,,,,,,,,s_058,4,2021_Feb_08_1514,Reversal,3.2.4,60.00290413822545,
10,exp1.png,exp2.png,,,,,,,,,,,,,,,,,2,0,2,0,0,10,10,10,,,,,,,,,False,49,130,False,exp1.png,exp2.png,trial_right_image,-1,exp2.png,4,exp2.png,exp1.png,1,1,non-reversed,correct,0.060049998882450994,0,invalid_lose,737.4137658999971,59,,,,,,,,,,,s_058,4,2021_Feb_08_1514,Reversal,3.2.4,60.00290413822545,
11,exp3.png,exp4.png,,,,,,,,,,,,,,,,,2,0,2,0,0,11,11,11,,,,,,,,,False,50,131,True,exp4.png,exp3.png,trial_left_image,1,exp4.png,4,exp3.png,exp4.png,1,3,reversed,incorrect,0.12293535889493001,1,invalid_win,741.612807700003,60,,,,,,,,,,,s_058,4,2021_Feb_08_1514,Reversal,3.2.4,60.00290413822545,
12,exp1.png,exp2.png,,,,,,,,,,,,,,,,,2,0,2,0,0,12,12,12,,,,,,,,,False,51,132,True,exp2.png,exp1.png,trial_right_image,-1,exp1.png,4,exp2.png,exp1.png,0,2,non-reversed,incorrect,0.20921195234114365,1,invalid_win,747.877272400001,61,,,,,,,,,,,s_058,4,2021_Feb_08_1514,Reversal,3.2.4,60.00290413822545,
13,exp3.png,exp4.png,,,,,,,,,,,,,,,,,2,0,2,0,0,13,13,13,,,,,,,,,False,52,133,False,exp3.png,exp4.png,trial_left_image,1,exp3.png,4,exp3.png,exp4.png,0,4,reversed,correct,0.9762647640145956,1,valid_win,752.709231899993,62,,,,,,,,,,,s_058,4,2021_Feb_08_1514,Reversal,3.2.4,60.00290413822545,
14,exp1.png,exp2.png,,,,,,,,,,,,,,,,,2,0,2,0,0,14,14,14,,,,,,,,,False,53,134,False,exp1.png,exp2.png,trial_right_image,-1,exp2.png,4,exp2.png,exp1.png,1,1,non-reversed,correct,0.02728490040037934,0,invalid_lose,757.2739337999956,62,,,,,,,,,,,s_058,4,2021_Feb_08_1514,Reversal,3.2.4,60.00290413822545,
15,exp3.png,exp4.png,,,,,,,,,,,,,,,,,2,0,2,0,0,15,15,15,,,,,,,,,False,54,135,False,exp3.png,exp4.png,trial_left_image,1,exp3.png,4,exp3.png,exp4.png,0,4,reversed,correct,0.24838696176678288,0,invalid_lose,762.4717080999981,62,,,,,,,,,,,s_058,4,2021_Feb_08_1514,Reversal,3.2.4,60.00290413822545,
16,exp1.png,exp2.png,,,,,,,,,,,,,,,,,2,0,2,0,0,16,16,16,,,,,,,,,False,55,136,True,exp2.png,exp1.png,trial_right_image,-1,exp1.png,4,exp2.png,exp1.png,0,2,non-reversed,incorrect,0.07515498182539648,1,invalid_win,767.7691286999907,63,,,,,,,,,,,s_058,4,2021_Feb_08_1514,Reversal,3.2.4,60.00290413822545,
17,exp3.png,exp4.png,,,,,,,,,,,,,,,,,2,0,2,0,0,17,17,17,,,,,,,,,False,56,137,True,exp4.png,exp3.png,trial_left_image,1,exp4.png,4,exp3.png,exp4.png,1,3,reversed,incorrect,0.2522305266781244,0,valid_lose,772.1341119999997,63,,,,,,,,,,,s_058,4,2021_Feb_08_1514,Reversal,3.2.4,60.00290413822545,
18,exp1.png,exp2.png,,,,,,,,,,,,,,,,,2,0,2,0,0,18,18,18,,,,,,,,,False,57,138,True,exp2.png,exp1.png,trial_right_image,-1,exp1.png,4,exp2.png,exp1.png,0,2,non-reversed,incorrect,0.004567809831305003,1,invalid_win,776.334222599995,64,,,,,,,,,,,s_058,4,2021_Feb_08_1514,Reversal,3.2.4,60.00290413822545,
19,exp3.png,exp4.png,,,,,,,,,,,,,,,,,2,0,2,0,0,19,19,19,,,,,,,,,False,58,139,True,exp4.png,exp3.png,trial_left_image,1,exp4.png,4,exp3.png,exp4.png,1,3,reversed,incorrect,0.2067959639629211,1,invalid_win,780.9990760999935,65,,,,,,,,,,,s_058,4,2021_Feb_08_1514,Reversal,3.2.4,60.00290413822545,
20,exp1.png,exp2.png,,,,,,,,,,,,,,,,,2,0,2,0,0,20,20,20,,,,,,,,,False,59,140,False,exp1.png,exp2.png,trial_right_image,-1,exp2.png,4,exp2.png,exp1.png,1,1,non-reversed,correct,0.8460392871308247,1,valid_win,785.2975403000019,66,,,,,,,,,,,s_058,4,2021_Feb_08_1514,Reversal,3.2.4,60.00290413822545,
,,,,,,,,,,,,,,,,,,,2,0,2,0,,,,,0,0,0,0,,,,,,,,,,,,,,,,,,,,,,,,,,29,80,31,68,,,,,,,s_058,4,2021_Feb_08_1514,Reversal,3.2.4,60.00290413822545,
,,,,,,,,,,,,,,,,,,,,,,,,,,,,,,,,,,,,,,,,,,,,,,,,,,,,,,,66,,,,,,69,40,29,317.178594099998,1,,,,,,,
