trial_index,trial_image1_file,trial_image2_file,learning_outer_loop.thisRepN,learning_outer_loop.thisTrialN,learning_outer_loop.thisN,learning_outer_loop.thisIndex,learning_inner_loop.thisRepN,learning_inner_loop.thisTrialN,learning_inner_loop.thisN,learning_inner_loop.thisIndex,learning_estimation_outer_loop.thisRepN,learning_estimation_outer_loop.thisTrialN,learning_estimation_outer_loop.thisN,learning_estimation_outer_loop.thisIndex,learning_estimation_inner_loop.thisRepN,learning_estimation_inner_loop.thisTrialN,learning_estimation_inner_loop.thisN,learning_estimation_inner_loop.thisIndex,reversal_outer_loop.thisRepN,reversal_outer_loop.thisTrialN,reversal_outer_loop.thisN,reversal_outer_loop.thisIndex,reversal_inner_loop.thisRepN,reversal_inner_loop.thisTrialN,reversal_inner_loop.thisN,reversal_inner_loop.thisIndex,reversal_estimation_outer_loop.thisRepN,reversal_estimation_outer_loop.thisTrialN,reversal_estimation_outer_loop.thisN,reversal_estimation_outer_loop.thisIndex,reversal_estimation_inner_loop.thisRepN,reversal_estimation_inner_loop.thisTrialN,reversal_estimation_inner_loop.thisN,reversal_estimation_inner_loop.thisIndex,skipped,total_trial_counter,trial_num,left_right_flip,left_image_file,right_image_file,clicked_stimulus_side,side,clicked_stimulus,version,high_prob_image_file,low_prob_image_file,choice_a,choice_b,pair_type,correct,trial_feedback_random,reward,trial_type,overall_time_after_trial,score,estimation_exp1.png,estimation_exp2.png,estimation_exp3.png,estimation_exp4.png,total_learning_time,total_correct,learning_correct,reversal_correct,total_reversal_time,extra_block,participant,ver,date,expName,psychopyVersion,frameRate,
0,exp1.png,exp2.png,0,0,0,0,0,0,0,0,,,,,,,,,,,,,,,,,,,,,,,,,True,,,,,,,,,,,,,,,,,,,,,,,,,,,,,,,s_057,2,2021_Feb_07_1451,Reversal,3.2.4,60.01630043254109,
1,exp3.png,exp4.png,0,0,0,0,0,1,1,1,,,,,,,,,,,,,,,,,,,,,,,,,False,0,1,False,exp3.png,exp4.png,trial_right_image,-1,exp4.png,2,exp3.png,exp4.png,0,4,reversed,incorrect,0.7309495413939664,0,valid_lose,9.02643490000628,0,,,,,,,,,,,s_057,2,2021_Feb_07_1451,Reversal,3.2.4,60.01630043254109,
2,exp1.png,exp2.png,0,0,0,0,0,2,2,2,,,,,,,,,,,,,,,,,,,,,,,,,False,1,2,False,exp1.png,exp2.png,trial_left_image,1,exp1.png,2,exp1.png,exp2.png,1,1,non-reversed,correct,0.18788091365071335,0,invalid_lose,16.606851599994116,0,,,,,,,,,,,s_057,2,2021_Feb_07_1451,Reversal,3.2.4,60.01630043254109,
3,exp3.png,exp4.png,0,0,0,0,0,3,3,3,,,,,,,,,,,,,,,,,,,,,,,,,False,2,3,False,exp3.png,exp4.png,trial_left_image,1,exp3.png,2,exp3.png,exp4.png,1,3,reversed,correct,0.8144114719237859,1,valid_win,22.588055500003975,1,,,,,,,,,,,s_057,2,2021_Feb_07_1451,Reversal,3.2.4,60.01630043254109,
4,exp1.png,exp2.png,0,0,0,0,0,4,4,4,,,,,,,,,,,,,,,,,,,,,,,,,False,3,4,True,exp2.png,exp1.png,trial_left_image,1,exp2.png,2,exp1.png,exp2.png,0,2,non-reversed,incorrect,0.16656089167952048,1,invalid_win,27.98698849999346,2,,,,,,,,,,,s_057,2,2021_Feb_07_1451,Reversal,3.2.4,60.01630043254109,
5,exp3.png,exp4.png,0,0,0,0,0,5,5,5,,,,,,,,,,,,,,,,,,,,,,,,,False,4,5,False,exp3.png,exp4.png,trial_left_image,1,exp3.png,2,exp3.png,exp4.png,1,3,reversed,correct,0.5560653966508678,1,valid_win,34.00116280000657,3,,,,,,,,,,,s_057,2,2021_Feb_07_1451,Reversal,3.2.4,60.01630043254109,
6,exp1.png,exp2.png,0,0,0,0,0,6,6,6,,,,,,,,,,,,,,,,,,,,,,,,,False,5,6,True,exp2.png,exp1.png,trial_left_image,1,exp2.png,2,exp1.png,exp2.png,0,2,non-reversed,incorrect,0.4323616155173641,0,valid_lose,39.68224399999599,3,,,,,,,,,,,s_057,2,2021_Feb_07_1451,Reversal,3.2.4,60.01630043254109,
7,exp3.png,exp4.png,0,0,0,0,0,7,7,7,,,,,,,,,,,,,,,,,,,,,,,,,False,6,7,True,exp4.png,exp3.png,trial_right_image,-1,exp3.png,2,exp3.png,exp4.png,1,3,reversed,correct,0.5951065430726893,1,valid_win,45.66456840001047,4,,,,,,,,,,,s_057,2,2021_Feb_07_1451,Reversal,3.2.4,60.01630043254109,
8,exp1.png,exp2.png,0,0,0,0,0,8,8,8,,,,,,,,,,,,,,,,,,,,,,,,,False,7,8,False,exp1.png,exp2.png,trial_left_image,1,exp1.png,2,exp1.png,exp2.png,1,1,non-reversed,correct,0.16126158738508933,0,invalid_lose,51.24575040000491,4,,,,,,,,,,,s_057,2,2021_Feb_07_1451,Reversal,3.2.4,60.01630043254109,
9,exp3.png,exp4.png,0,0,0,0,0,9,9,9,,,,,,,,,,,,,,,,,,,,,,,,,False,8,9,False,exp3.png,exp4.png,trial_left_image,1,exp3.png,2,exp3.png,exp4.png,1,3,reversed,correct,0.8193985277461298,1,valid_win,56.76010129999486,5,,,,,,,,,,,s_057,2,2021_Feb_07_1451,Reversal,3.2.4,60.01630043254109,
10,exp1.png,exp2.png,0,0,0,0,0,10,10,10,,,,,,,,,,,,,,,,,,,,,,,,,False,9,10,True,exp2.png,exp1.png,trial_right_image,-1,exp1.png,2,exp1.png,exp2.png,1,1,non-reversed,correct,0.06869604949313768,0,invalid_lose,62.275443699996686,5,,,,,,,,,,,s_057,2,2021_Feb_07_1451,Reversal,3.2.4,60.01630043254109,
11,exp3.png,exp4.png,0,0,0,0,0,11,11,11,,,,,,,,,,,,,,,,,,,,,,,,,False,10,11,True,exp4.png,exp3.png,trial_right_image,-1,exp3.png,2,exp3.png,exp4.png,1,3,reversed,correct,0.14118414781567434,0,invalid_lose,67.38981300001615,5,,,,,,,,,,,s_057,2,2021_Feb_07_1451,Reversal,3.2.4,60.01630043254109,
12,exp1.png,exp2.png,0,0,0,0,0,12,12,12,,,,,,,,,,,,,,,,,,,,,,,,,False,11,12,False,exp1.png,exp2.png,trial_right_image,-1,exp2.png,2,exp1.png,exp2.png,0,2,non-reversed,incorrect,0.4484631141088298,0,valid_lose,75.08768110000528,5,,,,,,,,,,,s_057,2,2021_Feb_07_1451,Reversal,3.2.4,60.01630043254109,
13,exp3.png,exp4.png,0,0,0,0,0,13,13,13,,,,,,,,,,,,,,,,,,,,,,,,,False,12,13,False,exp3.png,exp4.png,trial_left_image,1,exp3.png,2,exp3.png,exp4.png,1,3,reversed,correct,0.17071395665580025,0,invalid_lose,80.48603530001128,5,,,,,,,,,,,s_057,2,2021_Feb_07_1451,Reversal,3.2.4,60.01630043254109,
14,exp1.png,exp2.png,0,0,0,0,0,14,14,14,,,,,,,,,,,,,,,,,,,,,,,,,False,13,14,True,exp2.png,exp1.png,trial_left_image,1,exp2.png,2,exp1.png,exp2.png,0,2,non-reversed,incorrect,0.9237846145221256,0,valid_lose,86.73265250000986,5,,,,,,,,,,,s_057,2,2021_Feb_07_1451,Reversal,3.2.4,60.01630043254109,
15,exp3.png,exp4.png,0,0,0,0,0,15,15,15,,,,,,,,,,,,,,,,,,,,,,,,,False,14,15,False,exp3.png,exp4.png,trial_right_image,-1,exp4.png,2,exp3.png,exp4.png,0,4,reversed,incorrect,0.8878814517281383,0,valid_lose,93.73109340001247,5,,,,,,,,,,,s_057,2,2021_Feb_07_1451,Reversal,3.2.4,60.01630043254109,
16,exp1.png,exp2.png,0,0,0,0,0,16,16,16,,,,,,,,,,,,,,,,,,,,,,,,,False,15,16,False,exp1.png,exp2.png,trial_right_image,-1,exp2.png,2,exp1.png,exp2.png,0,2,non-reversed,incorrect,0.36843283371056934,0,valid_lose,100.22867609999957,5,,,,,,,,,,,s_057,2,2021_Feb_07_1451,Reversal,3.2.4,60.01630043254109,
17,exp3.png,exp4.png,0,0,0,0,0,17,17,17,,,,,,,,,,,,,,,,,,,,,,,,,False,16,17,True,exp4.png,exp3.png,trial_right_image,-1,exp3.png,2,exp3.png,exp4.png,1,3,reversed,correct,0.30212718622362456,1,valid_win,105.82577640001546,6,,,,,,,,,,,s_057,2,2021_Feb_07_1451,Reversal,3.2.4,60.01630043254109,
18,exp1.png,exp2.png,0,0,0,0,0,18,18,18,,,,,,,,,,,,,,,,,,,,,,,,,False,17,18,True,exp2.png,exp1.png,trial_left_image,1,exp2.png,2,exp1.png,exp2.png,0,2,non-reversed,incorrect,0.782557739624612,0,valid_lose,112.30834620000678,6,,,,,,,,,,,s_057,2,2021_Feb_07_1451,Reversal,3.2.4,60.01630043254109,
19,exp3.png,exp4.png,0,0,0,0,0,19,19,19,,,,,,,,,,,,,,,,,,,,,,,,,False,18,19,True,exp4.png,exp3.png,trial_right_image,-1,exp3.png,2,exp3.png,exp4.png,1,3,reversed,correct,0.21084822420945082,0,invalid_lose,117.3244660999917,6,,,,,,,,,,,s_057,2,2021_Feb_07_1451,Reversal,3.2.4,60.01630043254109,
20,exp1.png,exp2.png,0,0,0,0,0,20,20,20,,,,,,,,,,,,,,,,,,,,,,,,,False,19,20,True,exp2.png,exp1.png,trial_right_image,-1,exp1.png,2,exp1.png,exp2.png,1,1,non-reversed,correct,0.18723894010807296,0,invalid_lose,123.77083069999935,6,,,,,,,,,,,s_057,2,2021_Feb_07_1451,Reversal,3.2.4,60.01630043254109,
,,,0,0,0,0,,,,,0,0,0,0,,,,,,,,,,,,,,,,,,,,,,,,,,,,,,,,,,,,,,,,,,50.0,50.0,73,23,,,,,,,s_057,2,2021_Feb_07_1451,Reversal,3.2.4,60.01630043254109,
0,exp1.png,exp2.png,1,0,1,0,0,0,0,0,,,,,,,,,,,,,,,,,,,,,,,,,True,,,,,,,,,,,,,,,,,,,,,,,,,,,,,,,s_057,2,2021_Feb_07_1451,Reversal,3.2.4,60.01630043254109,
1,exp3.png,exp4.png,1,0,1,0,0,1,1,1,,,,,,,,,,,,,,,,,,,,,,,,,False,20,21,True,exp4.png,exp3.png,trial_right_image,-1,exp3.png,2,exp3.png,exp4.png,1,3,reversed,correct,0.8059101168142878,1,valid_win,155.19240659999195,7,,,,,,,,,,,s_057,2,2021_Feb_07_1451,Reversal,3.2.4,60.01630043254109,
2,exp1.png,exp2.png,1,0,1,0,0,2,2,2,,,,,,,,,,,,,,,,,,,,,,,,,False,21,22,False,exp1.png,exp2.png,trial_right_image,-1,exp2.png,2,exp1.png,exp2.png,0,2,non-reversed,incorrect,0.49903953581524996,0,valid_lose,161.4581937000039,7,,,,,,,,,,,s_057,2,2021_Feb_07_1451,Reversal,3.2.4,60.01630043254109,
3,exp3.png,exp4.png,1,0,1,0,0,3,3,3,,,,,,,,,,,,,,,,,,,,,,,,,False,22,23,False,exp3.png,exp4.png,trial_left_image,1,exp3.png,2,exp3.png,exp4.png,1,3,reversed,correct,0.33420974849988605,1,valid_win,168.60490870001377,8,,,,,,,,,,,s_057,2,2021_Feb_07_1451,Reversal,3.2.4,60.01630043254109,
4,exp1.png,exp2.png,1,0,1,0,0,4,4,4,,,,,,,,,,,,,,,,,,,,,,,,,False,23,24,False,exp1.png,exp2.png,trial_right_image,-1,exp2.png,2,exp1.png,exp2.png,0,2,non-reversed,incorrect,0.04750150752386073,1,invalid_win,176.869755599997,9,,,,,,,,,,,s_057,2,2021_Feb_07_1451,Reversal,3.2.4,60.01630043254109,
5,exp3.png,exp4.png,1,0,1,0,0,5,5,5,,,,,,,,,,,,,,,,,,,,,,,,,False,24,25,True,exp4.png,exp3.png,trial_right_image,-1,exp3.png,2,exp3.png,exp4.png,1,3,reversed,correct,0.6321987803039428,1,valid_win,182.5009366000013,10,,,,,,,,,,,s_057,2,2021_Feb_07_1451,Reversal,3.2.4,60.01630043254109,
6,exp1.png,exp2.png,1,0,1,0,0,6,6,6,,,,,,,,,,,,,,,,,,,,,,,,,False,25,26,True,exp2.png,exp1.png,trial_right_image,-1,exp1.png,2,exp1.png,exp2.png,1,1,non-reversed,correct,0.035022600578135665,0,invalid_lose,187.13312230000156,10,,,,,,,,,,,s_057,2,2021_Feb_07_1451,Reversal,3.2.4,60.01630043254109,
7,exp3.png,exp4.png,1,0,1,0,0,7,7,7,,,,,,,,,,,,,,,,,,,,,,,,,False,26,27,True,exp4.png,exp3.png,trial_right_image,-1,exp3.png,2,exp3.png,exp4.png,1,3,reversed,correct,0.17357503350873627,0,invalid_lose,192.13140420001582,10,,,,,,,,,,,s_057,2,2021_Feb_07_1451,Reversal,3.2.4,60.01630043254109,
8,exp1.png,exp2.png,1,0,1,0,0,8,8,8,,,,,,,,,,,,,,,,,,,,,,,,,False,27,28,True,exp2.png,exp1.png,trial_left_image,1,exp2.png,2,exp1.png,exp2.png,0,2,non-reversed,incorrect,0.34711346652118813,0,valid_lose,202.128228400019,10,,,,,,,,,,,s_057,2,2021_Feb_07_1451,Reversal,3.2.4,60.01630043254109,
9,exp3.png,exp4.png,1,0,1,0,0,9,9,9,,,,,,,,,,,,,,,,,,,,,,,,,False,28,29,True,exp4.png,exp3.png,trial_right_image,-1,exp3.png,2,exp3.png,exp4.png,1,3,reversed,correct,0.2757724496842284,1,valid_win,207.8595850999991,11,,,,,,,,,,,s_057,2,2021_Feb_07_1451,Reversal,3.2.4,60.01630043254109,
10,exp1.png,exp2.png,1,0,1,0,0,10,10,10,,,,,,,,,,,,,,,,,,,,,,,,,False,29,30,False,exp1.png,exp2.png,trial_right_image,-1,exp2.png,2,exp1.png,exp2.png,0,2,non-reversed,incorrect,0.7494782519709176,0,valid_lose,213.7229432000022,11,,,,,,,,,,,s_057,2,2021_Feb_07_1451,Reversal,3.2.4,60.01630043254109,
11,exp3.png,exp4.png,1,0,1,0,0,11,11,11,,,,,,,,,,,,,,,,,,,,,,,,,False,30,31,True,exp4.png,exp3.png,trial_right_image,-1,exp3.png,2,exp3.png,exp4.png,1,3,reversed,correct,0.8323606891542262,1,valid_win,218.53759160000482,12,,,,,,,,,,,s_057,2,2021_Feb_07_1451,Reversal,3.2.4,60.01630043254109,
12,exp1.png,exp2.png,1,0,1,0,0,12,12,12,,,,,,,,,,,,,,,,,,,,,,,,,False,31,32,False,exp1.png,exp2.png,trial_left_image,1,exp1.png,2,exp1.png,exp2.png,1,1,non-reversed,correct,0.4354050298403068,1,valid_win,222.80478279999807,13,,,,,,,,,,,s_057,2,2021_Feb_07_1451,Reversal,3.2.4,60.01630043254109,
13,exp3.png,exp4.png,1,0,1,0,0,13,13,13,,,,,,,,,,,,,,,,,,,,,,,,,False,32,33,False,exp3.png,exp4.png,trial_left_image,1,exp3.png,2,exp3.png,exp4.png,1,3,reversed,correct,0.8299612839383516,1,valid_win,227.25308200001018,14,,,,,,,,,,,s_057,2,2021_Feb_07_1451,Reversal,3.2.4,60.01630043254109,
14,exp1.png,exp2.png,1,0,1,0,0,14,14,14,,,,,,,,,,,,,,,,,,,,,,,,,False,33,34,True,exp2.png,exp1.png,trial_right_image,-1,exp1.png,2,exp1.png,exp2.png,1,1,non-reversed,correct,0.8006508502800502,1,valid_win,231.73452600001474,15,,,,,,,,,,,s_057,2,2021_Feb_07_1451,Reversal,3.2.4,60.01630043254109,
15,exp3.png,exp4.png,1,0,1,0,0,15,15,15,,,,,,,,,,,,,,,,,,,,,,,,,False,34,35,False,exp3.png,exp4.png,trial_left_image,1,exp3.png,2,exp3.png,exp4.png,1,3,reversed,correct,0.6979454782399575,1,valid_win,236.11507390000043,16,,,,,,,,,,,s_057,2,2021_Feb_07_1451,Reversal,3.2.4,60.01630043254109,
16,exp1.png,exp2.png,1,0,1,0,0,16,16,16,,,,,,,,,,,,,,,,,,,,,,,,,False,35,36,False,exp1.png,exp2.png,trial_left_image,1,exp1.png,2,exp1.png,exp2.png,1,1,non-reversed,correct,0.029100023883381954,0,invalid_lose,240.34819660001085,16,,,,,,,,,,,s_057,2,2021_Feb_07_1451,Reversal,3.2.4,60.01630043254109,
17,exp3.png,exp4.png,1,0,1,0,0,17,17,17,,,,,,,,,,,,,,,,,,,,,,,,,False,36,37,False,exp3.png,exp4.png,trial_left_image,1,exp3.png,2,exp3.png,exp4.png,1,3,reversed,correct,0.9248321094850878,1,valid_win,245.27989070001058,17,,,,,,,,,,,s_057,2,2021_Feb_07_1451,Reversal,3.2.4,60.01630043254109,
18,exp1.png,exp2.png,1,0,1,0,0,18,18,18,,,,,,,,,,,,,,,,,,,,,,,,,False,37,38,True,exp2.png,exp1.png,trial_right_image,-1,exp1.png,2,exp1.png,exp2.png,1,1,non-reversed,correct,0.28288511175195885,1,valid_win,249.42853730000206,18,,,,,,,,,,,s_057,2,2021_Feb_07_1451,Reversal,3.2.4,60.01630043254109,
19,exp3.png,exp4.png,1,0,1,0,0,19,19,19,,,,,,,,,,,,,,,,,,,,,,,,,False,38,39,False,exp3.png,exp4.png,trial_left_image,1,exp3.png,2,exp3.png,exp4.png,1,3,reversed,correct,0.5270317915607288,1,valid_win,254.1104803000053,19,,,,,,,,,,,s_057,2,2021_Feb_07_1451,Reversal,3.2.4,60.01630043254109,
20,exp1.png,exp2.png,1,0,1,0,0,20,20,20,,,,,,,,,,,,,,,,,,,,,,,,,False,39,40,True,exp2.png,exp1.png,trial_right_image,-1,exp1.png,2,exp1.png,exp2.png,1,1,non-reversed,correct,0.45580794218408993,1,valid_win,258.2424113000161,20,,,,,,,,,,,s_057,2,2021_Feb_07_1451,Reversal,3.2.4,60.01630043254109,
,,,1,0,1,0,,,,,0,0,0,0,,,,,,,,,,,,,,,,,,,,,,,,,,,,,,,,,,,,,,,,,,85,17,100,0,,,,,,,s_057,2,2021_Feb_07_1451,Reversal,3.2.4,60.01630043254109,
0,exp1.png,exp2.png,2,0,2,0,0,0,0,0,,,,,,,,,,,,,,,,,,,,,,,,,True,,,,,,,,,,,,,,,,,,,,,,,,,,,,,,,s_057,2,2021_Feb_07_1451,Reversal,3.2.4,60.01630043254109,
1,exp3.png,exp4.png,2,0,2,0,0,1,1,1,,,,,,,,,,,,,,,,,,,,,,,,,False,40,41,False,exp3.png,exp4.png,trial_left_image,1,exp3.png,2,exp3.png,exp4.png,1,3,reversed,correct,0.8996516099112181,1,valid_win,281.80100780000794,21,,,,,,,,,,,s_057,2,2021_Feb_07_1451,Reversal,3.2.4,60.01630043254109,
2,exp1.png,exp2.png,2,0,2,0,0,2,2,2,,,,,,,,,,,,,,,,,,,,,,,,,False,41,42,False,exp1.png,exp2.png,trial_left_image,1,exp1.png,2,exp1.png,exp2.png,1,1,non-reversed,correct,0.8942439069539383,1,valid_win,286.76558010000736,22,,,,,,,,,,,s_057,2,2021_Feb_07_1451,Reversal,3.2.4,60.01630043254109,
3,exp3.png,exp4.png,2,0,2,0,0,3,3,3,,,,,,,,,,,,,,,,,,,,,,,,,False,42,43,False,exp3.png,exp4.png,trial_left_image,1,exp3.png,2,exp3.png,exp4.png,1,3,reversed,correct,0.8827092217811512,1,valid_win,290.914554100018,23,,,,,,,,,,,s_057,2,2021_Feb_07_1451,Reversal,3.2.4,60.01630043254109,
4,exp1.png,exp2.png,2,0,2,0,0,4,4,4,,,,,,,,,,,,,,,,,,,,,,,,,False,43,44,True,exp2.png,exp1.png,trial_right_image,-1,exp1.png,2,exp1.png,exp2.png,1,1,non-reversed,correct,0.41130449104699407,1,valid_win,295.21291460000793,24,,,,,,,,,,,s_057,2,2021_Feb_07_1451,Reversal,3.2.4,60.01630043254109,
5,exp3.png,exp4.png,2,0,2,0,0,5,5,5,,,,,,,,,,,,,,,,,,,,,,,,,False,44,45,True,exp4.png,exp3.png,trial_right_image,-1,exp3.png,2,exp3.png,exp4.png,1,3,reversed,correct,0.40333897432029964,1,valid_win,299.3949568000098,25,,,,,,,,,,,s_057,2,2021_Feb_07_1451,Reversal,3.2.4,60.01630043254109,
6,exp1.png,exp2.png,2,0,2,0,0,6,6,6,,,,,,,,,,,,,,,,,,,,,,,,,False,45,46,True,exp2.png,exp1.png,trial_right_image,-1,exp1.png,2,exp1.png,exp2.png,1,1,non-reversed,correct,0.8738787932455087,1,valid_win,303.57700789999217,26,,,,,,,,,,,s_057,2,2021_Feb_07_1451,Reversal,3.2.4,60.01630043254109,
7,exp3.png,exp4.png,2,0,2,0,0,7,7,7,,,,,,,,,,,,,,,,,,,,,,,,,False,46,47,False,exp3.png,exp4.png,trial_left_image,1,exp3.png,2,exp3.png,exp4.png,1,3,reversed,correct,0.934881001130992,1,valid_win,307.9261275000172,27,,,,,,,,,,,s_057,2,2021_Feb_07_1451,Reversal,3.2.4,60.01630043254109,
8,exp1.png,exp2.png,2,0,2,0,0,8,8,8,,,,,,,,,,,,,,,,,,,,,,,,,False,47,48,True,exp2.png,exp1.png,trial_right_image,-1,exp1.png,2,exp1.png,exp2.png,1,1,non-reversed,correct,0.8713382736117866,1,valid_win,312.37441390001914,28,,,,,,,,,,,s_057,2,2021_Feb_07_1451,Reversal,3.2.4,60.01630043254109,
9,exp3.png,exp4.png,2,0,2,0,0,9,9,9,,,,,,,,,,,,,,,,,,,,,,,,,False,48,49,False,exp3.png,exp4.png,trial_left_image,1,exp3.png,2,exp3.png,exp4.png,1,3,reversed,correct,0.3018402017371016,1,valid_win,317.77232920000097,29,,,,,,,,,,,s_057,2,2021_Feb_07_1451,Reversal,3.2.4,60.01630043254109,
10,exp1.png,exp2.png,2,0,2,0,0,10,10,10,,,,,,,,,,,,,,,,,,,,,,,,,False,49,50,True,exp2.png,exp1.png,trial_right_image,-1,exp1.png,2,exp1.png,exp2.png,1,1,non-reversed,correct,0.07266131499357142,0,invalid_lose,322.0378097000066,29,,,,,,,,,,,s_057,2,2021_Feb_07_1451,Reversal,3.2.4,60.01630043254109,
11,exp3.png,exp4.png,2,0,2,0,0,11,11,11,,,,,,,,,,,,,,,,,,,,,,,,,False,50,51,False,exp3.png,exp4.png,trial_left_image,1,exp3.png,2,exp3.png,exp4.png,1,3,reversed,correct,0.5101187700903891,1,valid_win,326.20250760001363,30,,,,,,,,,,,s_057,2,2021_Feb_07_1451,Reversal,3.2.4,60.01630043254109,
12,exp1.png,exp2.png,2,0,2,0,0,12,12,12,,,,,,,,,,,,,,,,,,,,,,,,,False,51,52,False,exp1.png,exp2.png,trial_left_image,1,exp1.png,2,exp1.png,exp2.png,1,1,non-reversed,correct,0.09481789786601724,0,invalid_lose,330.45122499999707,30,,,,,,,,,,,s_057,2,2021_Feb_07_1451,Reversal,3.2.4,60.01630043254109,
13,exp3.png,exp4.png,2,0,2,0,0,13,13,13,,,,,,,,,,,,,,,,,,,,,,,,,False,52,53,False,exp3.png,exp4.png,trial_left_image,1,exp3.png,2,exp3.png,exp4.png,1,3,reversed,correct,0.5359372892317098,1,valid_win,334.8500924000109,31,,,,,,,,,,,s_057,2,2021_Feb_07_1451,Reversal,3.2.4,60.01630043254109,
14,exp1.png,exp2.png,2,0,2,0,0,14,14,14,,,,,,,,,,,,,,,,,,,,,,,,,False,53,54,True,exp2.png,exp1.png,trial_right_image,-1,exp1.png,2,exp1.png,exp2.png,1,1,non-reversed,correct,0.7750408998428313,1,valid_win,338.96470959999715,32,,,,,,,,,,,s_057,2,2021_Feb_07_1451,Reversal,3.2.4,60.01630043254109,
15,exp3.png,exp4.png,2,0,2,0,0,15,15,15,,,,,,,,,,,,,,,,,,,,,,,,,False,54,55,True,exp4.png,exp3.png,trial_right_image,-1,exp3.png,2,exp3.png,exp4.png,1,3,reversed,correct,0.02461269990492365,0,invalid_lose,343.14712949999375,32,,,,,,,,,,,s_057,2,2021_Feb_07_1451,Reversal,3.2.4,60.01630043254109,
16,exp1.png,exp2.png,2,0,2,0,0,16,16,16,,,,,,,,,,,,,,,,,,,,,,,,,False,55,56,True,exp2.png,exp1.png,trial_right_image,-1,exp1.png,2,exp1.png,exp2.png,1,1,non-reversed,correct,0.3802779428732158,1,valid_win,347.1958317999961,33,,,,,,,,,,,s_057,2,2021_Feb_07_1451,Reversal,3.2.4,60.01630043254109,
17,exp3.png,exp4.png,2,0,2,0,0,17,17,17,,,,,,,,,,,,,,,,,,,,,,,,,False,56,57,False,exp3.png,exp4.png,trial_left_image,1,exp3.png,2,exp3.png,exp4.png,1,3,reversed,correct,0.24589422187950294,0,invalid_lose,351.54426719999174,33,,,,,,,,,,,s_057,2,2021_Feb_07_1451,Reversal,3.2.4,60.01630043254109,
18,exp1.png,exp2.png,2,0,2,0,0,18,18,18,,,,,,,,,,,,,,,,,,,,,,,,,False,57,58,True,exp2.png,exp1.png,trial_right_image,-1,exp1.png,2,exp1.png,exp2.png,1,1,non-reversed,correct,0.10910836416812264,0,invalid_lose,355.7259905000101,33,,,,,,,,,,,s_057,2,2021_Feb_07_1451,Reversal,3.2.4,60.01630043254109,
19,exp3.png,exp4.png,2,0,2,0,0,19,19,19,,,,,,,,,,,,,,,,,,,,,,,,,False,58,59,False,exp3.png,exp4.png,trial_left_image,1,exp3.png,2,exp3.png,exp4.png,1,3,reversed,correct,0.10007583887697669,0,invalid_lose,360.10772450000513,33,,,,,,,,,,,s_057,2,2021_Feb_07_1451,Reversal,3.2.4,60.01630043254109,
20,exp1.png,exp2.png,2,0,2,0,0,20,20,20,,,,,,,,,,,,,,,,,,,,,,,,,False,59,60,True,exp2.png,exp1.png,trial_right_image,-1,exp1.png,2,exp1.png,exp2.png,1,1,non-reversed,correct,0.675957481790081,1,valid_win,364.5228222000005,34,,,,,,,,,,,s_057,2,2021_Feb_07_1451,Reversal,3.2.4,60.01630043254109,
,,,2,0,2,0,,,,,0,0,0,0,,,,,,,,,,,,,,,,,,,,,,,,,,,,,,,,,,,,,,,,,,77,21,77,20,,,,,,,s_057,2,2021_Feb_07_1451,Reversal,3.2.4,60.01630043254109,
0,exp1.png,exp2.png,,,,,,,,,,,,,,,,,0,0,0,0,0,0,0,0,,,,,,,,,True,,,,,,,,,,,,,,,,,,,,,,,,,,,,,,,s_057,2,2021_Feb_07_1451,Reversal,3.2.4,60.01630043254109,
1,exp3.png,exp4.png,,,,,,,,,,,,,,,,,0,0,0,0,0,1,1,1,,,,,,,,,False,0,61,True,exp4.png,exp3.png,trial_right_image,-1,exp3.png,2,exp4.png,exp3.png,1,3,reversed,incorrect,0.32222707259887695,0,valid_lose,393.2303070000198,34,,,,,389.39900299999863,,,,,,s_057,2,2021_Feb_07_1451,Reversal,3.2.4,60.01630043254109,
2,exp1.png,exp2.png,,,,,,,,,,,,,,,,,0,0,0,0,0,2,2,2,,,,,,,,,False,1,62,False,exp1.png,exp2.png,trial_right_image,-1,exp2.png,2,exp1.png,exp2.png,0,2,non-reversed,incorrect,0.33320480919486395,0,valid_lose,399.0281476000091,34,,,,,,,,,,,s_057,2,2021_Feb_07_1451,Reversal,3.2.4,60.01630043254109,
3,exp3.png,exp4.png,,,,,,,,,,,,,,,,,0,0,0,0,0,3,3,3,,,,,,,,,False,2,63,False,exp3.png,exp4.png,trial_right_image,-1,exp4.png,2,exp4.png,exp3.png,0,4,reversed,correct,0.05402849198272175,0,invalid_lose,403.32651169999735,34,,,,,,,,,,,s_057,2,2021_Feb_07_1451,Reversal,3.2.4,60.01630043254109,
4,exp1.png,exp2.png,,,,,,,,,,,,,,,,,0,0,0,0,0,4,4,4,,,,,,,,,False,3,64,True,exp2.png,exp1.png,trial_right_image,-1,exp1.png,2,exp1.png,exp2.png,1,1,non-reversed,correct,0.45793910337910915,1,valid_win,408.2753520999977,35,,,,,,,,,,,s_057,2,2021_Feb_07_1451,Reversal,3.2.4,60.01630043254109,
5,exp3.png,exp4.png,,,,,,,,,,,,,,,,,0,0,0,0,0,5,5,5,,,,,,,,,False,4,65,True,exp4.png,exp3.png,trial_right_image,-1,exp3.png,2,exp4.png,exp3.png,1,3,reversed,incorrect,0.5513251953839404,0,valid_lose,412.62325810000766,35,,,,,,,,,,,s_057,2,2021_Feb_07_1451,Reversal,3.2.4,60.01630043254109,
6,exp1.png,exp2.png,,,,,,,,,,,,,,,,,0,0,0,0,0,6,6,6,,,,,,,,,False,5,66,False,exp1.png,exp2.png,trial_left_image,1,exp1.png,2,exp1.png,exp2.png,1,1,non-reversed,correct,0.1960093827111642,0,invalid_lose,417.60543190001044,35,,,,,,,,,,,s_057,2,2021_Feb_07_1451,Reversal,3.2.4,60.01630043254109,
7,exp3.png,exp4.png,,,,,,,,,,,,,,,,,0,0,0,0,0,7,7,7,,,,,,,,,False,6,67,False,exp3.png,exp4.png,trial_left_image,1,exp3.png,2,exp4.png,exp3.png,1,3,reversed,incorrect,0.6061365602913779,0,valid_lose,422.07025930000236,35,,,,,,,,,,,s_057,2,2021_Feb_07_1451,Reversal,3.2.4,60.01630043254109,
8,exp1.png,exp2.png,,,,,,,,,,,,,,,,,0,0,0,0,0,8,8,8,,,,,,,,,False,7,68,True,exp2.png,exp1.png,trial_left_image,1,exp2.png,2,exp1.png,exp2.png,0,2,non-reversed,incorrect,0.7753939391165018,0,valid_lose,426.95168349999585,35,,,,,,,,,,,s_057,2,2021_Feb_07_1451,Reversal,3.2.4,60.01630043254109,
9,exp3.png,exp4.png,,,,,,,,,,,,,,,,,0,0,0,0,0,9,9,9,,,,,,,,,False,8,69,False,exp3.png,exp4.png,trial_right_image,-1,exp4.png,2,exp4.png,exp3.png,0,4,reversed,correct,0.4248661626863687,1,valid_win,433.2831956000009,36,,,,,,,,,,,s_057,2,2021_Feb_07_1451,Reversal,3.2.4,60.01630043254109,
10,exp1.png,exp2.png,,,,,,,,,,,,,,,,,0,0,0,0,0,10,10,10,,,,,,,,,False,9,70,False,exp1.png,exp2.png,trial_left_image,1,exp1.png,2,exp1.png,exp2.png,1,1,non-reversed,correct,0.8535709138260034,1,valid_win,438.2147074000095,37,,,,,,,,,,,s_057,2,2021_Feb_07_1451,Reversal,3.2.4,60.01630043254109,
11,exp3.png,exp4.png,,,,,,,,,,,,,,,,,0,0,0,0,0,11,11,11,,,,,,,,,False,10,71,True,exp4.png,exp3.png,trial_left_image,1,exp4.png,2,exp4.png,exp3.png,0,4,reversed,correct,0.9791792340089053,1,valid_win,442.5469085999939,38,,,,,,,,,,,s_057,2,2021_Feb_07_1451,Reversal,3.2.4,60.01630043254109,
12,exp1.png,exp2.png,,,,,,,,,,,,,,,,,0,0,0,0,0,12,12,12,,,,,,,,,False,11,72,True,exp2.png,exp1.png,trial_right_image,-1,exp1.png,2,exp1.png,exp2.png,1,1,non-reversed,correct,0.9429670707277553,1,valid_win,446.7784348000132,39,,,,,,,,,,,s_057,2,2021_Feb_07_1451,Reversal,3.2.4,60.01630043254109,
13,exp3.png,exp4.png,,,,,,,,,,,,,,,,,0,0,0,0,0,13,13,13,,,,,,,,,False,12,73,False,exp3.png,exp4.png,trial_right_image,-1,exp4.png,2,exp4.png,exp3.png,0,4,reversed,correct,0.7269707042063989,1,valid_win,450.99372890000814,40,,,,,,,,,,,s_057,2,2021_Feb_07_1451,Reversal,3.2.4,60.01630043254109,
14,exp1.png,exp2.png,,,,,,,,,,,,,,,,,0,0,0,0,0,14,14,14,,,,,,,,,False,13,74,False,exp1.png,exp2.png,trial_left_image,1,exp1.png,2,exp1.png,exp2.png,1,1,non-reversed,correct,0.5404925848440923,1,valid_win,455.20804769999813,41,,,,,,,,,,,s_057,2,2021_Feb_07_1451,Reversal,3.2.4,60.01630043254109,
15,exp3.png,exp4.png,,,,,,,,,,,,,,,,,0,0,0,0,0,15,15,15,,,,,,,,,False,14,75,True,exp4.png,exp3.png,trial_left_image,1,exp4.png,2,exp4.png,exp3.png,0,4,reversed,correct,0.6898894405454765,1,valid_win,459.4571697000065,42,,,,,,,,,,,s_057,2,2021_Feb_07_1451,Reversal,3.2.4,60.01630043254109,
16,exp1.png,exp2.png,,,,,,,,,,,,,,,,,0,0,0,0,0,16,16,16,,,,,,,,,False,15,76,True,exp2.png,exp1.png,trial_right_image,-1,exp1.png,2,exp1.png,exp2.png,1,1,non-reversed,correct,0.061456568803018974,0,invalid_lose,463.4897395000153,42,,,,,,,,,,,s_057,2,2021_Feb_07_1451,Reversal,3.2.4,60.01630043254109,
17,exp3.png,exp4.png,,,,,,,,,,,,,,,,,0,0,0,0,0,17,17,17,,,,,,,,,False,16,77,True,exp4.png,exp3.png,trial_left_image,1,exp4.png,2,exp4.png,exp3.png,0,4,reversed,correct,0.34875552557506584,1,valid_win,467.78797810000833,43,,,,,,,,,,,s_057,2,2021_Feb_07_1451,Reversal,3.2.4,60.01630043254109,
18,exp1.png,exp2.png,,,,,,,,,,,,,,,,,0,0,0,0,0,18,18,18,,,,,,,,,False,17,78,True,exp2.png,exp1.png,trial_right_image,-1,exp1.png,2,exp1.png,exp2.png,1,1,non-reversed,correct,0.8898892200161526,1,valid_win,471.83702330000233,44,,,,,,,,,,,s_057,2,2021_Feb_07_1451,Reversal,3.2.4,60.01630043254109,
19,exp3.png,exp4.png,,,,,,,,,,,,,,,,,0,0,0,0,0,19,19,19,,,,,,,,,False,18,79,False,exp3.png,exp4.png,trial_right_image,-1,exp4.png,2,exp4.png,exp3.png,0,4,reversed,correct,0.12041870072452088,0,invalid_lose,476.21882619999815,44,,,,,,,,,,,s_057,2,2021_Feb_07_1451,Reversal,3.2.4,60.01630043254109,
20,exp1.png,exp2.png,,,,,,,,,,,,,,,,,0,0,0,0,0,20,20,20,,,,,,,,,False,19,80,False,exp1.png,exp2.png,trial_left_image,1,exp1.png,2,exp1.png,exp2.png,1,1,non-reversed,correct,0.6198362681579627,1,valid_win,480.6162613000197,45,,,,,,,,,,,s_057,2,2021_Feb_07_1451,Reversal,3.2.4,60.01630043254109,
,,,,,,,,,,,,,,,,,,,0,0,0,0,,,,,0,0,0,0,,,,,,,,,,,,,,,,,,,,,,,,,,82,17,13,86,,,,,,,s_057,2,2021_Feb_07_1451,Reversal,3.2.4,60.01630043254109,
0,exp1.png,exp2.png,,,,,,,,,,,,,,,,,1,0,1,0,0,0,0,0,,,,,,,,,True,,,,,,,,,,,,,,,,,,,,,,,,,,,,,,,s_057,2,2021_Feb_07_1451,Reversal,3.2.4,60.01630043254109,
1,exp3.png,exp4.png,,,,,,,,,,,,,,,,,1,0,1,0,0,1,1,1,,,,,,,,,False,20,81,False,exp3.png,exp4.png,trial_right_image,-1,exp4.png,2,exp4.png,exp3.png,0,4,reversed,correct,0.6077593918475203,1,valid_win,504.10929960000794,46,,,,,,,,,,,s_057,2,2021_Feb_07_1451,Reversal,3.2.4,60.01630043254109,
2,exp1.png,exp2.png,,,,,,,,,,,,,,,,,1,0,1,0,0,2,2,2,,,,,,,,,False,21,82,True,exp2.png,exp1.png,trial_right_image,-1,exp1.png,2,exp1.png,exp2.png,1,1,non-reversed,correct,0.778231154356468,1,valid_win,508.37439010001253,47,,,,,,,,,,,s_057,2,2021_Feb_07_1451,Reversal,3.2.4,60.01630043254109,
3,exp3.png,exp4.png,,,,,,,,,,,,,,,,,1,0,1,0,0,3,3,3,,,,,,,,,False,22,83,False,exp3.png,exp4.png,trial_right_image,-1,exp4.png,2,exp4.png,exp3.png,0,4,reversed,correct,0.764043822626579,1,valid_win,512.5055021000153,48,,,,,,,,,,,s_057,2,2021_Feb_07_1451,Reversal,3.2.4,60.01630043254109,
4,exp1.png,exp2.png,,,,,,,,,,,,,,,,,1,0,1,0,0,4,4,4,,,,,,,,,False,23,84,False,exp1.png,exp2.png,trial_left_image,1,exp1.png,2,exp1.png,exp2.png,1,1,non-reversed,correct,0.5511077156892391,1,valid_win,516.937024999992,49,,,,,,,,,,,s_057,2,2021_Feb_07_1451,Reversal,3.2.4,60.01630043254109,
5,exp3.png,exp4.png,,,,,,,,,,,,,,,,,1,0,1,0,0,5,5,5,,,,,,,,,False,24,85,True,exp4.png,exp3.png,trial_left_image,1,exp4.png,2,exp4.png,exp3.png,0,4,reversed,correct,0.6514664159388852,1,valid_win,521.3520911000087,50,,,,,,,,,,,s_057,2,2021_Feb_07_1451,Reversal,3.2.4,60.01630043254109,
6,exp1.png,exp2.png,,,,,,,,,,,,,,,,,1,0,1,0,0,6,6,6,,,,,,,,,False,25,86,True,exp2.png,exp1.png,trial_right_image,-1,exp1.png,2,exp1.png,exp2.png,1,1,non-reversed,correct,0.04209466385867999,0,invalid_lose,525.7998475999921,50,,,,,,,,,,,s_057,2,2021_Feb_07_1451,Reversal,3.2.4,60.01630043254109,
7,exp3.png,exp4.png,,,,,,,,,,,,,,,,,1,0,1,0,0,7,7,7,,,,,,,,,False,26,87,False,exp3.png,exp4.png,trial_right_image,-1,exp4.png,2,exp4.png,exp3.png,0,4,reversed,correct,0.9367588571563182,1,valid_win,530.8667391999916,51,,,,,,,,,,,s_057,2,2021_Feb_07_1451,Reversal,3.2.4,60.01630043254109,
8,exp1.png,exp2.png,,,,,,,,,,,,,,,,,1,0,1,0,0,8,8,8,,,,,,,,,False,27,88,False,exp1.png,exp2.png,trial_left_image,1,exp1.png,2,exp1.png,exp2.png,1,1,non-reversed,correct,0.21028434124961048,0,invalid_lose,535.1320861999993,51,,,,,,,,,,,s_057,2,2021_Feb_07_1451,Reversal,3.2.4,60.01630043254109,
9,exp3.png,exp4.png,,,,,,,,,,,,,,,,,1,0,1,0,0,9,9,9,,,,,,,,,False,28,89,True,exp4.png,exp3.png,trial_left_image,1,exp4.png,2,exp4.png,exp3.png,0,4,reversed,correct,0.6221524822799372,1,valid_win,541.397318400006,52,,,,,,,,,,,s_057,2,2021_Feb_07_1451,Reversal,3.2.4,60.01630043254109,
10,exp1.png,exp2.png,,,,,,,,,,,,,,,,,1,0,1,0,0,10,10,10,,,,,,,,,False,29,90,True,exp2.png,exp1.png,trial_right_image,-1,exp1.png,2,exp1.png,exp2.png,1,1,non-reversed,correct,0.7474842005730928,1,valid_win,545.5955797999923,53,,,,,,,,,,,s_057,2,2021_Feb_07_1451,Reversal,3.2.4,60.01630043254109,
11,exp3.png,exp4.png,,,,,,,,,,,,,,,,,1,0,1,0,0,11,11,11,,,,,,,,,False,30,91,True,exp4.png,exp3.png,trial_left_image,1,exp4.png,2,exp4.png,exp3.png,0,4,reversed,correct,0.9593211109315871,1,valid_win,549.911196400004,54,,,,,,,,,,,s_057,2,2021_Feb_07_1451,Reversal,3.2.4,60.01630043254109,
12,exp1.png,exp2.png,,,,,,,,,,,,,,,,,1,0,1,0,0,12,12,12,,,,,,,,,False,31,92,False,exp1.png,exp2.png,trial_left_image,1,exp1.png,2,exp1.png,exp2.png,1,1,non-reversed,correct,0.3473779338811005,1,valid_win,554.4590824000188,55,,,,,,,,,,,s_057,2,2021_Feb_07_1451,Reversal,3.2.4,60.01630043254109,
13,exp3.png,exp4.png,,,,,,,,,,,,,,,,,1,0,1,0,0,13,13,13,,,,,,,,,False,32,93,False,exp3.png,exp4.png,trial_right_image,-1,exp4.png,2,exp4.png,exp3.png,0,4,reversed,correct,0.5231609582274599,1,valid_win,559.2241932000034,56,,,,,,,,,,,s_057,2,2021_Feb_07_1451,Reversal,3.2.4,60.01630043254109,
14,exp1.png,exp2.png,,,,,,,,,,,,,,,,,1,0,1,0,0,14,14,14,,,,,,,,,False,33,94,True,exp2.png,exp1.png,trial_right_image,-1,exp1.png,2,exp1.png,exp2.png,1,1,non-reversed,correct,0.22493283281418708,0,invalid_lose,563.9057172000175,56,,,,,,,,,,,s_057,2,2021_Feb_07_1451,Reversal,3.2.4,60.01630043254109,
15,exp3.png,exp4.png,,,,,,,,,,,,,,,,,1,0,1,0,0,15,15,15,,,,,,,,,False,34,95,False,exp3.png,exp4.png,trial_right_image,-1,exp4.png,2,exp4.png,exp3.png,0,4,reversed,correct,0.7638795765286777,1,valid_win,570.1704521999927,57,,,,,,,,,,,s_057,2,2021_Feb_07_1451,Reversal,3.2.4,60.01630043254109,
16,exp1.png,exp2.png,,,,,,,,,,,,,,,,,1,0,1,0,0,16,16,16,,,,,,,,,False,35,96,False,exp1.png,exp2.png,trial_left_image,1,exp1.png,2,exp1.png,exp2.png,1,1,non-reversed,correct,0.9508986745490018,1,valid_win,574.7508799000061,58,,,,,,,,,,,s_057,2,2021_Feb_07_1451,Reversal,3.2.4,60.01630043254109,
17,exp3.png,exp4.png,,,,,,,,,,,,,,,,,1,0,1,0,0,17,17,17,,,,,,,,,False,36,97,False,exp3.png,exp4.png,trial_right_image,-1,exp4.png,2,exp4.png,exp3.png,0,4,reversed,correct,0.11674290085632599,0,invalid_lose,579.7660571000015,58,,,,,,,,,,,s_057,2,2021_Feb_07_1451,Reversal,3.2.4,60.01630043254109,
18,exp1.png,exp2.png,,,,,,,,,,,,,,,,,1,0,1,0,0,18,18,18,,,,,,,,,False,37,98,True,exp2.png,exp1.png,trial_right_image,-1,exp1.png,2,exp1.png,exp2.png,1,1,non-reversed,correct,0.018546094904073662,0,invalid_lose,584.5322856999992,58,,,,,,,,,,,s_057,2,2021_Feb_07_1451,Reversal,3.2.4,60.01630043254109,
19,exp3.png,exp4.png,,,,,,,,,,,,,,,,,1,0,1,0,0,19,19,19,,,,,,,,,False,38,99,True,exp4.png,exp3.png,trial_left_image,1,exp4.png,2,exp4.png,exp3.png,0,4,reversed,correct,0.4360172619627004,1,valid_win,589.4640338000027,59,,,,,,,,,,,s_057,2,2021_Feb_07_1451,Reversal,3.2.4,60.01630043254109,
20,exp1.png,exp2.png,,,,,,,,,,,,,,,,,1,0,1,0,0,20,20,20,,,,,,,,,False,39,100,True,exp2.png,exp1.png,trial_right_image,-1,exp1.png,2,exp1.png,exp2.png,1,1,non-reversed,correct,0.014270765506831262,0,invalid_lose,594.1456332000089,59,,,,,,,,,,,s_057,2,2021_Feb_07_1451,Reversal,3.2.4,60.01630043254109,
,,,,,,,,,,,,,,,,,,,1,0,1,0,,,,,0,0,0,0,,,,,,,,,,,,,,,,,,,,,,,,,,50.0,50.0,10,88,,,,,,,s_057,2,2021_Feb_07_1451,Reversal,3.2.4,60.01630043254109,
0,exp1.png,exp2.png,,,,,,,,,,,,,,,,,2,0,2,0,0,0,0,0,,,,,,,,,True,,,,,,,,,,,,,,,,,,,,,,,,,,,,,,,s_057,2,2021_Feb_07_1451,Reversal,3.2.4,60.01630043254109,
1,exp3.png,exp4.png,,,,,,,,,,,,,,,,,2,0,2,0,0,1,1,1,,,,,,,,,False,40,101,True,exp4.png,exp3.png,trial_left_image,1,exp4.png,2,exp4.png,exp3.png,0,4,reversed,correct,0.2375447347319971,0,invalid_lose,615.0386164000083,59,,,,,,,,,,,s_057,2,2021_Feb_07_1451,Reversal,3.2.4,60.01630043254109,
2,exp1.png,exp2.png,,,,,,,,,,,,,,,,,2,0,2,0,0,2,2,2,,,,,,,,,False,41,102,False,exp1.png,exp2.png,trial_left_image,1,exp1.png,2,exp1.png,exp2.png,1,1,non-reversed,correct,0.7671494587897737,1,valid_win,619.453563499992,60,,,,,,,,,,,s_057,2,2021_Feb_07_1451,Reversal,3.2.4,60.01630043254109,
3,exp3.png,exp4.png,,,,,,,,,,,,,,,,,2,0,2,0,0,3,3,3,,,,,,,,,False,42,103,True,exp4.png,exp3.png,trial_right_image,-1,exp3.png,2,exp4.png,exp3.png,1,3,reversed,incorrect,0.6990219144144928,0,valid_lose,624.9016610000108,60,,,,,,,,,,,s_057,2,2021_Feb_07_1451,Reversal,3.2.4,60.01630043254109,
4,exp1.png,exp2.png,,,,,,,,,,,,,,,,,2,0,2,0,0,4,4,4,,,,,,,,,False,43,104,False,exp1.png,exp2.png,trial_left_image,1,exp1.png,2,exp1.png,exp2.png,1,1,non-reversed,correct,0.9256242119349689,1,valid_win,629.6000544000126,61,,,,,,,,,,,s_057,2,2021_Feb_07_1451,Reversal,3.2.4,60.01630043254109,
5,exp3.png,exp4.png,,,,,,,,,,,,,,,,,2,0,2,0,0,5,5,5,,,,,,,,,False,44,105,True,exp4.png,exp3.png,trial_left_image,1,exp4.png,2,exp4.png,exp3.png,0,4,reversed,correct,0.413635946619354,1,valid_win,633.7658955999941,62,,,,,,,,,,,s_057,2,2021_Feb_07_1451,Reversal,3.2.4,60.01630043254109,
6,exp1.png,exp2.png,,,,,,,,,,,,,,,,,2,0,2,0,0,6,6,6,,,,,,,,,False,45,106,True,exp2.png,exp1.png,trial_right_image,-1,exp1.png,2,exp1.png,exp2.png,1,1,non-reversed,correct,0.7808395647963926,1,valid_win,637.8962890999974,63,,,,,,,,,,,s_057,2,2021_Feb_07_1451,Reversal,3.2.4,60.01630043254109,
7,exp3.png,exp4.png,,,,,,,,,,,,,,,,,2,0,2,0,0,7,7,7,,,,,,,,,False,46,107,True,exp4.png,exp3.png,trial_left_image,1,exp4.png,2,exp4.png,exp3.png,0,4,reversed,correct,0.14537719495679113,0,invalid_lose,641.8965668000164,63,,,,,,,,,,,s_057,2,2021_Feb_07_1451,Reversal,3.2.4,60.01630043254109,
8,exp1.png,exp2.png,,,,,,,,,,,,,,,,,2,0,2,0,0,8,8,8,,,,,,,,,False,47,108,True,exp2.png,exp1.png,trial_right_image,-1,exp1.png,2,exp1.png,exp2.png,1,1,non-reversed,correct,0.4893771865236777,1,valid_win,646.1279769999965,64,,,,,,,,,,,s_057,2,2021_Feb_07_1451,Reversal,3.2.4,60.01630043254109,
9,exp3.png,exp4.png,,,,,,,,,,,,,,,,,2,0,2,0,0,9,9,9,,,,,,,,,False,48,109,True,exp4.png,exp3.png,trial_left_image,1,exp4.png,2,exp4.png,exp3.png,0,4,reversed,correct,0.40590608383515436,1,valid_win,650.1767500000133,65,,,,,,,,,,,s_057,2,2021_Feb_07_1451,Reversal,3.2.4,60.01630043254109,
10,exp1.png,exp2.png,,,,,,,,,,,,,,,,,2,0,2,0,0,10,10,10,,,,,,,,,False,49,110,False,exp1.png,exp2.png,trial_left_image,1,exp1.png,2,exp1.png,exp2.png,1,1,non-reversed,correct,0.30761033786331604,1,valid_win,654.7918409999984,66,,,,,,,,,,,s_057,2,2021_Feb_07_1451,Reversal,3.2.4,60.01630043254109,
11,exp3.png,exp4.png,,,,,,,,,,,,,,,,,2,0,2,0,0,11,11,11,,,,,,,,,False,50,111,True,exp4.png,exp3.png,trial_right_image,-1,exp3.png,2,exp4.png,exp3.png,1,3,reversed,incorrect,0.33764218392404144,0,valid_lose,658.8738782000146,66,,,,,,,,,,,s_057,2,2021_Feb_07_1451,Reversal,3.2.4,60.01630043254109,
12,exp1.png,exp2.png,,,,,,,,,,,,,,,,,2,0,2,0,0,12,12,12,,,,,,,,,False,51,112,False,exp1.png,exp2.png,trial_left_image,1,exp1.png,2,exp1.png,exp2.png,1,1,non-reversed,correct,0.06856213816827184,0,invalid_lose,663.0228537000075,66,,,,,,,,,,,s_057,2,2021_Feb_07_1451,Reversal,3.2.4,60.01630043254109,
13,exp3.png,exp4.png,,,,,,,,,,,,,,,,,2,0,2,0,0,13,13,13,,,,,,,,,False,52,113,False,exp3.png,exp4.png,trial_right_image,-1,exp4.png,2,exp4.png,exp3.png,0,4,reversed,correct,0.9558596733887312,1,valid_win,667.7207227000035,67,,,,,,,,,,,s_057,2,2021_Feb_07_1451,Reversal,3.2.4,60.01630043254109,
14,exp1.png,exp2.png,,,,,,,,,,,,,,,,,2,0,2,0,0,14,14,14,,,,,,,,,False,53,114,False,exp1.png,exp2.png,trial_left_image,1,exp1.png,2,exp1.png,exp2.png,1,1,non-reversed,correct,0.5687789186317436,1,valid_win,671.7525627000141,68,,,,,,,,,,,s_057,2,2021_Feb_07_1451,Reversal,3.2.4,60.01630043254109,
15,exp3.png,exp4.png,,,,,,,,,,,,,,,,,2,0,2,0,0,15,15,15,,,,,,,,,False,54,115,True,exp4.png,exp3.png,trial_left_image,1,exp4.png,2,exp4.png,exp3.png,0,4,reversed,correct,0.16203967744253267,0,invalid_lose,676.2346137000131,68,,,,,,,,,,,s_057,2,2021_Feb_07_1451,Reversal,3.2.4,60.01630043254109,
16,exp1.png,exp2.png,,,,,,,,,,,,,,,,,2,0,2,0,0,16,16,16,,,,,,,,,False,55,116,False,exp1.png,exp2.png,trial_left_image,1,exp1.png,2,exp1.png,exp2.png,1,1,non-reversed,correct,0.6205747909716618,1,valid_win,680.3496966999955,69,,,,,,,,,,,s_057,2,2021_Feb_07_1451,Reversal,3.2.4,60.01630043254109,
17,exp3.png,exp4.png,,,,,,,,,,,,,,,,,2,0,2,0,0,17,17,17,,,,,,,,,False,56,117,False,exp3.png,exp4.png,trial_right_image,-1,exp4.png,2,exp4.png,exp3.png,0,4,reversed,correct,0.36054066102437987,1,valid_win,684.7817580999981,70,,,,,,,,,,,s_057,2,2021_Feb_07_1451,Reversal,3.2.4,60.01630043254109,
18,exp1.png,exp2.png,,,,,,,,,,,,,,,,,2,0,2,0,0,18,18,18,,,,,,,,,False,57,118,False,exp1.png,exp2.png,trial_left_image,1,exp1.png,2,exp1.png,exp2.png,1,1,non-reversed,correct,0.06905668844249357,0,invalid_lose,688.9636292000068,70,,,,,,,,,,,s_057,2,2021_Feb_07_1451,Reversal,3.2.4,60.01630043254109,
19,exp3.png,exp4.png,,,,,,,,,,,,,,,,,2,0,2,0,0,19,19,19,,,,,,,,,False,58,119,False,exp3.png,exp4.png,trial_right_image,-1,exp4.png,2,exp4.png,exp3.png,0,4,reversed,correct,0.11065061186573188,0,invalid_lose,693.5288432000089,70,,,,,,,,,,,s_057,2,2021_Feb_07_1451,Reversal,3.2.4,60.01630043254109,
20,exp1.png,exp2.png,,,,,,,,,,,,,,,,,2,0,2,0,0,20,20,20,,,,,,,,,False,59,120,True,exp2.png,exp1.png,trial_right_image,-1,exp1.png,2,exp1.png,exp2.png,1,1,non-reversed,correct,0.9700983952316199,1,valid_win,697.992702699994,71,,,,,,,,,,,s_057,2,2021_Feb_07_1451,Reversal,3.2.4,60.01630043254109,
,,,,,,,,,,,,,,,,,,,2,0,2,0,,,,,0,0,0,0,,,,,,,,,,,,,,,,,,,,,,,,,,79,22,50.0,50.0,,,,,,,s_057,2,2021_Feb_07_1451,Reversal,3.2.4,60.01630043254109,
,,,,,,,,,,,,,,,,,,,,,,,,,,,,,,,,,,,,,,,,,,,,,,,,,,,,,,,71,,,,,,101,48,53,327.20390849999967,0,,,,,,,
