trial_index,trial_image1_file,trial_image2_file,learning_outer_loop.thisRepN,learning_outer_loop.thisTrialN,learning_outer_loop.thisN,learning_outer_loop.thisIndex,learning_inner_loop.thisRepN,learning_inner_loop.thisTrialN,learning_inner_loop.thisN,learning_inner_loop.thisIndex,learning_estimation_outer_loop.thisRepN,learning_estimation_outer_loop.thisTrialN,learning_estimation_outer_loop.thisN,learning_estimation_outer_loop.thisIndex,learning_estimation_inner_loop.thisRepN,learning_estimation_inner_loop.thisTrialN,learning_estimation_inner_loop.thisN,learning_estimation_inner_loop.thisIndex,reversal_outer_loop.thisRepN,reversal_outer_loop.thisTrialN,reversal_outer_loop.thisN,reversal_outer_loop.thisIndex,reversal_inner_loop.thisRepN,reversal_inner_loop.thisTrialN,reversal_inner_loop.thisN,reversal_inner_loop.thisIndex,reversal_estimation_outer_loop.thisRepN,reversal_estimation_outer_loop.thisTrialN,reversal_estimation_outer_loop.thisN,reversal_estimation_outer_loop.thisIndex,reversal_estimation_inner_loop.thisRepN,reversal_estimation_inner_loop.thisTrialN,reversal_estimation_inner_loop.thisN,reversal_estimation_inner_loop.thisIndex,skipped,total_trial_counter,trial_num,left_right_flip,left_image_file,right_image_file,clicked_stimulus_side,side,clicked_stimulus,version,high_prob_image_file,low_prob_image_file,choice_a,choice_b,pair_type,correct,trial_feedback_random,reward,trial_type,overall_time_after_trial,score,estimation_exp1.png,estimation_exp2.png,estimation_exp3.png,estimation_exp4.png,total_learning_time,total_correct,learning_correct,reversal_correct,total_reversal_time,extra_block,participant,ver,date,expName,psychopyVersion,frameRate,
0,exp1.png,exp2.png,0,0,0,0,0,0,0,0,,,,,,,,,,,,,,,,,,,,,,,,,False,0,1,True,exp2.png,exp1.png,trial_left_image,1,exp2.png,2,exp1.png,exp2.png,0,2,non-reversed,incorrect,0.4695967043436635,0,valid_lose,5.29424720001407,0,,,,,,,,,,,s_050,2,2021_Jan_26_1446,Reversal,3.2.4,60.01187034053182,
1,exp3.png,exp4.png,0,0,0,0,0,1,1,1,,,,,,,,,,,,,,,,,,,,,,,,,False,1,2,True,exp4.png,exp3.png,trial_right_image,-1,exp3.png,2,exp3.png,exp4.png,1,3,reversed,correct,0.45755920577103293,1,valid_win,11.124640499940142,1,,,,,,,,,,,s_050,2,2021_Jan_26_1446,Reversal,3.2.4,60.01187034053182,
2,exp1.png,exp2.png,0,0,0,0,0,2,2,2,,,,,,,,,,,,,,,,,,,,,,,,,False,2,3,True,exp2.png,exp1.png,trial_right_image,-1,exp1.png,2,exp1.png,exp2.png,1,1,non-reversed,correct,0.6274347821145028,1,valid_win,16.00617860001512,2,,,,,,,,,,,s_050,2,2021_Jan_26_1446,Reversal,3.2.4,60.01187034053182,
3,exp3.png,exp4.png,0,0,0,0,0,3,3,3,,,,,,,,,,,,,,,,,,,,,,,,,False,3,4,True,exp4.png,exp3.png,trial_right_image,-1,exp3.png,2,exp3.png,exp4.png,1,3,reversed,correct,0.9828305941020264,1,valid_win,20.904982700012624,3,,,,,,,,,,,s_050,2,2021_Jan_26_1446,Reversal,3.2.4,60.01187034053182,
4,exp1.png,exp2.png,0,0,0,0,0,4,4,4,,,,,,,,,,,,,,,,,,,,,,,,,False,4,5,False,exp1.png,exp2.png,trial_left_image,1,exp1.png,2,exp1.png,exp2.png,1,1,non-reversed,correct,0.21246053413130073,0,invalid_lose,25.603256500093266,3,,,,,,,,,,,s_050,2,2021_Jan_26_1446,Reversal,3.2.4,60.01187034053182,
5,exp3.png,exp4.png,0,0,0,0,0,5,5,5,,,,,,,,,,,,,,,,,,,,,,,,,False,5,6,False,exp3.png,exp4.png,trial_left_image,1,exp3.png,2,exp3.png,exp4.png,1,3,reversed,correct,0.40092782312417474,1,valid_win,30.284535099985078,4,,,,,,,,,,,s_050,2,2021_Jan_26_1446,Reversal,3.2.4,60.01187034053182,
6,exp1.png,exp2.png,0,0,0,0,0,6,6,6,,,,,,,,,,,,,,,,,,,,,,,,,False,6,7,False,exp1.png,exp2.png,trial_left_image,1,exp1.png,2,exp1.png,exp2.png,1,1,non-reversed,correct,0.11863614851864068,0,invalid_lose,34.865605799946934,4,,,,,,,,,,,s_050,2,2021_Jan_26_1446,Reversal,3.2.4,60.01187034053182,
7,exp3.png,exp4.png,0,0,0,0,0,7,7,7,,,,,,,,,,,,,,,,,,,,,,,,,False,7,8,True,exp4.png,exp3.png,trial_right_image,-1,exp3.png,2,exp3.png,exp4.png,1,3,reversed,correct,0.5288810122509637,1,valid_win,39.19799540005624,5,,,,,,,,,,,s_050,2,2021_Jan_26_1446,Reversal,3.2.4,60.01187034053182,
8,exp1.png,exp2.png,0,0,0,0,0,8,8,8,,,,,,,,,,,,,,,,,,,,,,,,,False,8,9,True,exp2.png,exp1.png,trial_right_image,-1,exp1.png,2,exp1.png,exp2.png,1,1,non-reversed,correct,0.9750780046084451,1,valid_win,43.68069880013354,6,,,,,,,,,,,s_050,2,2021_Jan_26_1446,Reversal,3.2.4,60.01187034053182,
9,exp3.png,exp4.png,0,0,0,0,0,9,9,9,,,,,,,,,,,,,,,,,,,,,,,,,False,9,10,False,exp3.png,exp4.png,trial_left_image,1,exp3.png,2,exp3.png,exp4.png,1,3,reversed,correct,0.18377435173718715,0,invalid_lose,48.36215390008874,6,,,,,,,,,,,s_050,2,2021_Jan_26_1446,Reversal,3.2.4,60.01187034053182,
10,exp1.png,exp2.png,0,0,0,0,0,10,10,10,,,,,,,,,,,,,,,,,,,,,,,,,False,10,11,True,exp2.png,exp1.png,trial_right_image,-1,exp1.png,2,exp1.png,exp2.png,1,1,non-reversed,correct,0.8336200429982759,1,valid_win,53.11026900005527,7,,,,,,,,,,,s_050,2,2021_Jan_26_1446,Reversal,3.2.4,60.01187034053182,
11,exp3.png,exp4.png,0,0,0,0,0,11,11,11,,,,,,,,,,,,,,,,,,,,,,,,,False,11,12,True,exp4.png,exp3.png,trial_left_image,1,exp4.png,2,exp3.png,exp4.png,0,4,reversed,incorrect,0.6744148638614894,0,valid_lose,58.02549060015008,7,,,,,,,,,,,s_050,2,2021_Jan_26_1446,Reversal,3.2.4,60.01187034053182,
12,exp1.png,exp2.png,0,0,0,0,0,12,12,12,,,,,,,,,,,,,,,,,,,,,,,,,False,12,13,True,exp2.png,exp1.png,trial_right_image,-1,exp1.png,2,exp1.png,exp2.png,1,1,non-reversed,correct,0.9021713871737365,1,valid_win,62.606937899952754,8,,,,,,,,,,,s_050,2,2021_Jan_26_1446,Reversal,3.2.4,60.01187034053182,
13,exp3.png,exp4.png,0,0,0,0,0,13,13,13,,,,,,,,,,,,,,,,,,,,,,,,,False,13,14,False,exp3.png,exp4.png,trial_left_image,1,exp3.png,2,exp3.png,exp4.png,1,3,reversed,correct,0.25976829470783924,1,valid_win,68.25461499998346,9,,,,,,,,,,,s_050,2,2021_Jan_26_1446,Reversal,3.2.4,60.01187034053182,
14,exp1.png,exp2.png,0,0,0,0,0,14,14,14,,,,,,,,,,,,,,,,,,,,,,,,,False,14,15,True,exp2.png,exp1.png,trial_right_image,-1,exp1.png,2,exp1.png,exp2.png,1,1,non-reversed,correct,0.8221239687602606,1,valid_win,72.9535713000223,10,,,,,,,,,,,s_050,2,2021_Jan_26_1446,Reversal,3.2.4,60.01187034053182,
15,exp3.png,exp4.png,0,0,0,0,0,15,15,15,,,,,,,,,,,,,,,,,,,,,,,,,False,15,16,False,exp3.png,exp4.png,trial_left_image,1,exp3.png,2,exp3.png,exp4.png,1,3,reversed,correct,0.693502226969345,1,valid_win,78.96888180007227,11,,,,,,,,,,,s_050,2,2021_Jan_26_1446,Reversal,3.2.4,60.01187034053182,
16,exp1.png,exp2.png,0,0,0,0,0,16,16,16,,,,,,,,,,,,,,,,,,,,,,,,,False,16,17,False,exp1.png,exp2.png,trial_left_image,1,exp1.png,2,exp1.png,exp2.png,1,1,non-reversed,correct,0.6283996911251173,1,valid_win,83.71683809999377,12,,,,,,,,,,,s_050,2,2021_Jan_26_1446,Reversal,3.2.4,60.01187034053182,
17,exp3.png,exp4.png,0,0,0,0,0,17,17,17,,,,,,,,,,,,,,,,,,,,,,,,,False,17,18,False,exp3.png,exp4.png,trial_left_image,1,exp3.png,2,exp3.png,exp4.png,1,3,reversed,correct,0.2504024965103242,1,valid_win,89.36592909996398,13,,,,,,,,,,,s_050,2,2021_Jan_26_1446,Reversal,3.2.4,60.01187034053182,
18,exp1.png,exp2.png,0,0,0,0,0,18,18,18,,,,,,,,,,,,,,,,,,,,,,,,,False,18,19,False,exp1.png,exp2.png,trial_left_image,1,exp1.png,2,exp1.png,exp2.png,1,1,non-reversed,correct,0.15562113096086194,0,invalid_lose,93.86349359992892,13,,,,,,,,,,,s_050,2,2021_Jan_26_1446,Reversal,3.2.4,60.01187034053182,
19,exp3.png,exp4.png,0,0,0,0,0,19,19,19,,,,,,,,,,,,,,,,,,,,,,,,,False,19,20,False,exp3.png,exp4.png,trial_left_image,1,exp3.png,2,exp3.png,exp4.png,1,3,reversed,correct,0.3438834065541353,1,valid_win,98.92821369995363,14,,,,,,,,,,,s_050,2,2021_Jan_26_1446,Reversal,3.2.4,60.01187034053182,
20,exp1.png,exp2.png,0,0,0,0,0,20,20,20,,,,,,,,,,,,,,,,,,,,,,,,,True,,,,,,,,,,,,,,,,,,,,,,,,,,,,,,,s_050,2,2021_Jan_26_1446,Reversal,3.2.4,60.01187034053182,
,,,0,0,0,0,,,,,0,0,0,0,,,,,,,,,,,,,,,,,,,,,,,,,,,,,,,,,,,,,,,,,,100,0,100,50.0,,,,,,,s_050,2,2021_Jan_26_1446,Reversal,3.2.4,60.01187034053182,
0,exp1.png,exp2.png,1,0,1,0,0,0,0,0,,,,,,,,,,,,,,,,,,,,,,,,,False,20,21,False,exp1.png,exp2.png,trial_left_image,1,exp1.png,2,exp1.png,exp2.png,1,1,non-reversed,correct,0.9482936344197317,1,valid_win,126.7188923000358,15,,,,,,,,,,,s_050,2,2021_Jan_26_1446,Reversal,3.2.4,60.01187034053182,
1,exp3.png,exp4.png,1,0,1,0,0,1,1,1,,,,,,,,,,,,,,,,,,,,,,,,,False,21,22,False,exp3.png,exp4.png,trial_left_image,1,exp3.png,2,exp3.png,exp4.png,1,3,reversed,correct,0.3675423910248933,1,valid_win,131.46638839994557,16,,,,,,,,,,,s_050,2,2021_Jan_26_1446,Reversal,3.2.4,60.01187034053182,
2,exp1.png,exp2.png,1,0,1,0,0,2,2,2,,,,,,,,,,,,,,,,,,,,,,,,,False,22,23,True,exp2.png,exp1.png,trial_right_image,-1,exp1.png,2,exp1.png,exp2.png,1,1,non-reversed,correct,0.7282358280053359,1,valid_win,135.86574669997208,17,,,,,,,,,,,s_050,2,2021_Jan_26_1446,Reversal,3.2.4,60.01187034053182,
3,exp3.png,exp4.png,1,0,1,0,0,3,3,3,,,,,,,,,,,,,,,,,,,,,,,,,False,23,24,True,exp4.png,exp3.png,trial_right_image,-1,exp3.png,2,exp3.png,exp4.png,1,3,reversed,correct,0.802657937895031,1,valid_win,142.09674470010214,18,,,,,,,,,,,s_050,2,2021_Jan_26_1446,Reversal,3.2.4,60.01187034053182,
4,exp1.png,exp2.png,1,0,1,0,0,4,4,4,,,,,,,,,,,,,,,,,,,,,,,,,False,24,25,False,exp1.png,exp2.png,trial_left_image,1,exp1.png,2,exp1.png,exp2.png,1,1,non-reversed,correct,0.376400152671313,1,valid_win,147.24514080001973,19,,,,,,,,,,,s_050,2,2021_Jan_26_1446,Reversal,3.2.4,60.01187034053182,
5,exp3.png,exp4.png,1,0,1,0,0,5,5,5,,,,,,,,,,,,,,,,,,,,,,,,,False,25,26,False,exp3.png,exp4.png,trial_left_image,1,exp3.png,2,exp3.png,exp4.png,1,3,reversed,correct,0.4181914570776446,1,valid_win,151.60984660009854,20,,,,,,,,,,,s_050,2,2021_Jan_26_1446,Reversal,3.2.4,60.01187034053182,
6,exp1.png,exp2.png,1,0,1,0,0,6,6,6,,,,,,,,,,,,,,,,,,,,,,,,,False,26,27,True,exp2.png,exp1.png,trial_right_image,-1,exp1.png,2,exp1.png,exp2.png,1,1,non-reversed,correct,0.7182014868796482,1,valid_win,156.00886639999226,21,,,,,,,,,,,s_050,2,2021_Jan_26_1446,Reversal,3.2.4,60.01187034053182,
7,exp3.png,exp4.png,1,0,1,0,0,7,7,7,,,,,,,,,,,,,,,,,,,,,,,,,False,27,28,True,exp4.png,exp3.png,trial_right_image,-1,exp3.png,2,exp3.png,exp4.png,1,3,reversed,correct,0.1354077690268214,0,invalid_lose,160.27397139999084,21,,,,,,,,,,,s_050,2,2021_Jan_26_1446,Reversal,3.2.4,60.01187034053182,
8,exp1.png,exp2.png,1,0,1,0,0,8,8,8,,,,,,,,,,,,,,,,,,,,,,,,,False,28,29,True,exp2.png,exp1.png,trial_right_image,-1,exp1.png,2,exp1.png,exp2.png,1,1,non-reversed,correct,0.5582645661697045,1,valid_win,164.68938009999692,22,,,,,,,,,,,s_050,2,2021_Jan_26_1446,Reversal,3.2.4,60.01187034053182,
9,exp3.png,exp4.png,1,0,1,0,0,9,9,9,,,,,,,,,,,,,,,,,,,,,,,,,False,29,30,True,exp4.png,exp3.png,trial_right_image,-1,exp3.png,2,exp3.png,exp4.png,1,3,reversed,correct,0.9258717441242786,1,valid_win,168.80527630005963,23,,,,,,,,,,,s_050,2,2021_Jan_26_1446,Reversal,3.2.4,60.01187034053182,
10,exp1.png,exp2.png,1,0,1,0,0,10,10,10,,,,,,,,,,,,,,,,,,,,,,,,,False,30,31,False,exp1.png,exp2.png,trial_left_image,1,exp1.png,2,exp1.png,exp2.png,1,1,non-reversed,correct,0.4948833432239489,1,valid_win,173.28677879995666,24,,,,,,,,,,,s_050,2,2021_Jan_26_1446,Reversal,3.2.4,60.01187034053182,
11,exp3.png,exp4.png,1,0,1,0,0,11,11,11,,,,,,,,,,,,,,,,,,,,,,,,,False,31,32,False,exp3.png,exp4.png,trial_left_image,1,exp3.png,2,exp3.png,exp4.png,1,3,reversed,correct,0.5683807092218586,1,valid_win,178.45122110005468,25,,,,,,,,,,,s_050,2,2021_Jan_26_1446,Reversal,3.2.4,60.01187034053182,
12,exp1.png,exp2.png,1,0,1,0,0,12,12,12,,,,,,,,,,,,,,,,,,,,,,,,,False,32,33,True,exp2.png,exp1.png,trial_right_image,-1,exp1.png,2,exp1.png,exp2.png,1,1,non-reversed,correct,0.6810658847175447,1,valid_win,182.73365960014053,26,,,,,,,,,,,s_050,2,2021_Jan_26_1446,Reversal,3.2.4,60.01187034053182,
13,exp3.png,exp4.png,1,0,1,0,0,13,13,13,,,,,,,,,,,,,,,,,,,,,,,,,False,33,34,False,exp3.png,exp4.png,trial_left_image,1,exp3.png,2,exp3.png,exp4.png,1,3,reversed,correct,0.8245388727609402,1,valid_win,187.46483900002204,27,,,,,,,,,,,s_050,2,2021_Jan_26_1446,Reversal,3.2.4,60.01187034053182,
14,exp1.png,exp2.png,1,0,1,0,0,14,14,14,,,,,,,,,,,,,,,,,,,,,,,,,False,34,35,True,exp2.png,exp1.png,trial_right_image,-1,exp1.png,2,exp1.png,exp2.png,1,1,non-reversed,correct,0.028347110199308134,0,invalid_lose,191.63111539999954,27,,,,,,,,,,,s_050,2,2021_Jan_26_1446,Reversal,3.2.4,60.01187034053182,
15,exp3.png,exp4.png,1,0,1,0,0,15,15,15,,,,,,,,,,,,,,,,,,,,,,,,,False,35,36,True,exp4.png,exp3.png,trial_right_image,-1,exp3.png,2,exp3.png,exp4.png,1,3,reversed,correct,0.6747526328285254,1,valid_win,196.29505600011908,28,,,,,,,,,,,s_050,2,2021_Jan_26_1446,Reversal,3.2.4,60.01187034053182,
16,exp1.png,exp2.png,1,0,1,0,0,16,16,16,,,,,,,,,,,,,,,,,,,,,,,,,False,36,37,False,exp1.png,exp2.png,trial_left_image,1,exp1.png,2,exp1.png,exp2.png,1,1,non-reversed,correct,0.5097190697684301,1,valid_win,200.72767810011283,29,,,,,,,,,,,s_050,2,2021_Jan_26_1446,Reversal,3.2.4,60.01187034053182,
17,exp3.png,exp4.png,1,0,1,0,0,17,17,17,,,,,,,,,,,,,,,,,,,,,,,,,False,37,38,True,exp4.png,exp3.png,trial_right_image,-1,exp3.png,2,exp3.png,exp4.png,1,3,reversed,correct,0.7562192637145547,1,valid_win,205.02465940010734,30,,,,,,,,,,,s_050,2,2021_Jan_26_1446,Reversal,3.2.4,60.01187034053182,
18,exp1.png,exp2.png,1,0,1,0,0,18,18,18,,,,,,,,,,,,,,,,,,,,,,,,,False,38,39,False,exp1.png,exp2.png,trial_left_image,1,exp1.png,2,exp1.png,exp2.png,1,1,non-reversed,correct,0.4809895680793691,1,valid_win,209.34041930013336,31,,,,,,,,,,,s_050,2,2021_Jan_26_1446,Reversal,3.2.4,60.01187034053182,
19,exp3.png,exp4.png,1,0,1,0,0,19,19,19,,,,,,,,,,,,,,,,,,,,,,,,,False,39,40,False,exp3.png,exp4.png,trial_left_image,1,exp3.png,2,exp3.png,exp4.png,1,3,reversed,correct,0.5100391632562604,1,valid_win,216.35534680006094,32,,,,,,,,,,,s_050,2,2021_Jan_26_1446,Reversal,3.2.4,60.01187034053182,
20,exp1.png,exp2.png,1,0,1,0,0,20,20,20,,,,,,,,,,,,,,,,,,,,,,,,,True,,,,,,,,,,,,,,,,,,,,,,,,,,,,,,,s_050,2,2021_Jan_26_1446,Reversal,3.2.4,60.01187034053182,
,,,1,0,1,0,,,,,0,0,0,0,,,,,,,,,,,,,,,,,,,,,,,,,,,,,,,,,,,,,,,,,,85,0,70,0,,,,,,,s_050,2,2021_Jan_26_1446,Reversal,3.2.4,60.01187034053182,
0,exp1.png,exp2.png,2,0,2,0,0,0,0,0,,,,,,,,,,,,,,,,,,,,,,,,,False,40,41,True,exp2.png,exp1.png,trial_right_image,-1,exp1.png,2,exp1.png,exp2.png,1,1,non-reversed,correct,0.2539986869659868,1,valid_win,241.23005770007148,33,,,,,,,,,,,s_050,2,2021_Jan_26_1446,Reversal,3.2.4,60.01187034053182,
1,exp3.png,exp4.png,2,0,2,0,0,1,1,1,,,,,,,,,,,,,,,,,,,,,,,,,False,41,42,False,exp3.png,exp4.png,trial_left_image,1,exp3.png,2,exp3.png,exp4.png,1,3,reversed,correct,0.38349124281567026,1,valid_win,245.59606000012718,34,,,,,,,,,,,s_050,2,2021_Jan_26_1446,Reversal,3.2.4,60.01187034053182,
2,exp1.png,exp2.png,2,0,2,0,0,2,2,2,,,,,,,,,,,,,,,,,,,,,,,,,False,42,43,True,exp2.png,exp1.png,trial_right_image,-1,exp1.png,2,exp1.png,exp2.png,1,1,non-reversed,correct,0.10947209295810334,0,invalid_lose,249.74281299998984,34,,,,,,,,,,,s_050,2,2021_Jan_26_1446,Reversal,3.2.4,60.01187034053182,
3,exp3.png,exp4.png,2,0,2,0,0,3,3,3,,,,,,,,,,,,,,,,,,,,,,,,,False,43,44,False,exp3.png,exp4.png,trial_left_image,1,exp3.png,2,exp3.png,exp4.png,1,3,reversed,correct,0.12223823496541819,0,invalid_lose,254.05814089998603,34,,,,,,,,,,,s_050,2,2021_Jan_26_1446,Reversal,3.2.4,60.01187034053182,
4,exp1.png,exp2.png,2,0,2,0,0,4,4,4,,,,,,,,,,,,,,,,,,,,,,,,,False,44,45,False,exp1.png,exp2.png,trial_left_image,1,exp1.png,2,exp1.png,exp2.png,1,1,non-reversed,correct,0.7994979413304493,1,valid_win,258.20677910000086,35,,,,,,,,,,,s_050,2,2021_Jan_26_1446,Reversal,3.2.4,60.01187034053182,
5,exp3.png,exp4.png,2,0,2,0,0,5,5,5,,,,,,,,,,,,,,,,,,,,,,,,,False,45,46,True,exp4.png,exp3.png,trial_right_image,-1,exp3.png,2,exp3.png,exp4.png,1,3,reversed,correct,0.7592127237643117,1,valid_win,262.55640659993514,36,,,,,,,,,,,s_050,2,2021_Jan_26_1446,Reversal,3.2.4,60.01187034053182,
6,exp1.png,exp2.png,2,0,2,0,0,6,6,6,,,,,,,,,,,,,,,,,,,,,,,,,False,46,47,True,exp2.png,exp1.png,trial_right_image,-1,exp1.png,2,exp1.png,exp2.png,1,1,non-reversed,correct,0.8377800238173982,1,valid_win,267.5376321999356,37,,,,,,,,,,,s_050,2,2021_Jan_26_1446,Reversal,3.2.4,60.01187034053182,
7,exp3.png,exp4.png,2,0,2,0,0,7,7,7,,,,,,,,,,,,,,,,,,,,,,,,,False,47,48,True,exp4.png,exp3.png,trial_right_image,-1,exp3.png,2,exp3.png,exp4.png,1,3,reversed,correct,0.44927267546475846,1,valid_win,271.5520190000534,38,,,,,,,,,,,s_050,2,2021_Jan_26_1446,Reversal,3.2.4,60.01187034053182,
8,exp1.png,exp2.png,2,0,2,0,0,8,8,8,,,,,,,,,,,,,,,,,,,,,,,,,False,48,49,True,exp2.png,exp1.png,trial_right_image,-1,exp1.png,2,exp1.png,exp2.png,1,1,non-reversed,correct,0.7177957280819313,1,valid_win,275.5344750001095,39,,,,,,,,,,,s_050,2,2021_Jan_26_1446,Reversal,3.2.4,60.01187034053182,
9,exp3.png,exp4.png,2,0,2,0,0,9,9,9,,,,,,,,,,,,,,,,,,,,,,,,,False,49,50,False,exp3.png,exp4.png,trial_left_image,1,exp3.png,2,exp3.png,exp4.png,1,3,reversed,correct,0.40865934116907154,1,valid_win,279.45043259998783,40,,,,,,,,,,,s_050,2,2021_Jan_26_1446,Reversal,3.2.4,60.01187034053182,
10,exp1.png,exp2.png,2,0,2,0,0,10,10,10,,,,,,,,,,,,,,,,,,,,,,,,,False,50,51,False,exp1.png,exp2.png,trial_left_image,1,exp1.png,2,exp1.png,exp2.png,1,1,non-reversed,correct,0.04889776788328004,0,invalid_lose,283.4486783000175,40,,,,,,,,,,,s_050,2,2021_Jan_26_1446,Reversal,3.2.4,60.01187034053182,
11,exp3.png,exp4.png,2,0,2,0,0,11,11,11,,,,,,,,,,,,,,,,,,,,,,,,,False,51,52,False,exp3.png,exp4.png,trial_left_image,1,exp3.png,2,exp3.png,exp4.png,1,3,reversed,correct,0.861610511187399,1,valid_win,287.4802067000419,41,,,,,,,,,,,s_050,2,2021_Jan_26_1446,Reversal,3.2.4,60.01187034053182,
12,exp1.png,exp2.png,2,0,2,0,0,12,12,12,,,,,,,,,,,,,,,,,,,,,,,,,False,52,53,False,exp1.png,exp2.png,trial_right_image,-1,exp2.png,2,exp1.png,exp2.png,0,2,non-reversed,incorrect,0.7031591767170796,0,valid_lose,291.6298404999543,41,,,,,,,,,,,s_050,2,2021_Jan_26_1446,Reversal,3.2.4,60.01187034053182,
13,exp3.png,exp4.png,2,0,2,0,0,13,13,13,,,,,,,,,,,,,,,,,,,,,,,,,False,53,54,True,exp4.png,exp3.png,trial_right_image,-1,exp3.png,2,exp3.png,exp4.png,1,3,reversed,correct,0.8229129119505793,1,valid_win,295.9945507000666,42,,,,,,,,,,,s_050,2,2021_Jan_26_1446,Reversal,3.2.4,60.01187034053182,
14,exp1.png,exp2.png,2,0,2,0,0,14,14,14,,,,,,,,,,,,,,,,,,,,,,,,,False,54,55,False,exp1.png,exp2.png,trial_right_image,-1,exp2.png,2,exp1.png,exp2.png,0,2,non-reversed,incorrect,0.6862232818763099,0,valid_lose,300.49238139996305,42,,,,,,,,,,,s_050,2,2021_Jan_26_1446,Reversal,3.2.4,60.01187034053182,
15,exp3.png,exp4.png,2,0,2,0,0,15,15,15,,,,,,,,,,,,,,,,,,,,,,,,,False,55,56,True,exp4.png,exp3.png,trial_right_image,-1,exp3.png,2,exp3.png,exp4.png,1,3,reversed,correct,0.1205872232752454,0,invalid_lose,305.20879180007614,42,,,,,,,,,,,s_050,2,2021_Jan_26_1446,Reversal,3.2.4,60.01187034053182,
16,exp1.png,exp2.png,2,0,2,0,0,16,16,16,,,,,,,,,,,,,,,,,,,,,,,,,False,56,57,True,exp2.png,exp1.png,trial_right_image,-1,exp1.png,2,exp1.png,exp2.png,1,1,non-reversed,correct,0.32041097460285084,1,valid_win,309.55723479995504,43,,,,,,,,,,,s_050,2,2021_Jan_26_1446,Reversal,3.2.4,60.01187034053182,
17,exp3.png,exp4.png,2,0,2,0,0,17,17,17,,,,,,,,,,,,,,,,,,,,,,,,,False,57,58,False,exp3.png,exp4.png,trial_right_image,-1,exp4.png,2,exp3.png,exp4.png,0,4,reversed,incorrect,0.06264275827764088,1,invalid_win,314.00537879997864,44,,,,,,,,,,,s_050,2,2021_Jan_26_1446,Reversal,3.2.4,60.01187034053182,
18,exp1.png,exp2.png,2,0,2,0,0,18,18,18,,,,,,,,,,,,,,,,,,,,,,,,,False,58,59,False,exp1.png,exp2.png,trial_left_image,1,exp1.png,2,exp1.png,exp2.png,1,1,non-reversed,correct,0.9879204292160256,1,valid_win,318.87035440001637,45,,,,,,,,,,,s_050,2,2021_Jan_26_1446,Reversal,3.2.4,60.01187034053182,
19,exp3.png,exp4.png,2,0,2,0,0,19,19,19,,,,,,,,,,,,,,,,,,,,,,,,,False,59,60,True,exp4.png,exp3.png,trial_left_image,1,exp4.png,2,exp3.png,exp4.png,0,4,reversed,incorrect,0.9563373944447472,0,valid_lose,323.8189310999587,45,,,,,,,,,,,s_050,2,2021_Jan_26_1446,Reversal,3.2.4,60.01187034053182,
20,exp1.png,exp2.png,2,0,2,0,0,20,20,20,,,,,,,,,,,,,,,,,,,,,,,,,True,,,,,,,,,,,,,,,,,,,,,,,,,,,,,,,s_050,2,2021_Jan_26_1446,Reversal,3.2.4,60.01187034053182,
,,,2,0,2,0,,,,,0,0,0,0,,,,,,,,,,,,,,,,,,,,,,,,,,,,,,,,,,,,,,,,,,100,0,50.0,50.0,,,,,,,s_050,2,2021_Jan_26_1446,Reversal,3.2.4,60.01187034053182,
0,exp1.png,exp2.png,,,,,,,,,,,,,,,,,0,0,0,0,0,0,0,0,,,,,,,,,False,0,61,False,exp1.png,exp2.png,trial_left_image,1,exp1.png,2,exp1.png,exp2.png,1,1,non-reversed,correct,0.3183602984576631,1,valid_win,339.64775949995965,46,,,,,337.7478700999636,,,,,,s_050,2,2021_Jan_26_1446,Reversal,3.2.4,60.01187034053182,
1,exp3.png,exp4.png,,,,,,,,,,,,,,,,,0,0,0,0,0,1,1,1,,,,,,,,,False,1,62,False,exp3.png,exp4.png,trial_left_image,1,exp3.png,2,exp4.png,exp3.png,1,3,reversed,incorrect,0.5690629680647048,0,valid_lose,344.0284422999248,46,,,,,,,,,,,s_050,2,2021_Jan_26_1446,Reversal,3.2.4,60.01187034053182,
2,exp1.png,exp2.png,,,,,,,,,,,,,,,,,0,0,0,0,0,2,2,2,,,,,,,,,False,2,63,False,exp1.png,exp2.png,trial_left_image,1,exp1.png,2,exp1.png,exp2.png,1,1,non-reversed,correct,0.009519862150219938,0,invalid_lose,348.1441854001023,46,,,,,,,,,,,s_050,2,2021_Jan_26_1446,Reversal,3.2.4,60.01187034053182,
3,exp3.png,exp4.png,,,,,,,,,,,,,,,,,0,0,0,0,0,3,3,3,,,,,,,,,False,3,64,False,exp3.png,exp4.png,trial_right_image,-1,exp4.png,2,exp4.png,exp3.png,0,4,reversed,correct,0.43980002074420554,1,valid_win,353.6250243000686,47,,,,,,,,,,,s_050,2,2021_Jan_26_1446,Reversal,3.2.4,60.01187034053182,
4,exp1.png,exp2.png,,,,,,,,,,,,,,,,,0,0,0,0,0,4,4,4,,,,,,,,,False,4,65,False,exp1.png,exp2.png,trial_right_image,-1,exp2.png,2,exp1.png,exp2.png,0,2,non-reversed,incorrect,0.48782920704649235,0,valid_lose,358.57364710001275,47,,,,,,,,,,,s_050,2,2021_Jan_26_1446,Reversal,3.2.4,60.01187034053182,
5,exp3.png,exp4.png,,,,,,,,,,,,,,,,,0,0,0,0,0,5,5,5,,,,,,,,,False,5,66,False,exp3.png,exp4.png,trial_left_image,1,exp3.png,2,exp4.png,exp3.png,1,3,reversed,incorrect,0.542648453809654,0,valid_lose,362.6126089999452,47,,,,,,,,,,,s_050,2,2021_Jan_26_1446,Reversal,3.2.4,60.01187034053182,
6,exp1.png,exp2.png,,,,,,,,,,,,,,,,,0,0,0,0,0,6,6,6,,,,,,,,,False,6,67,True,exp2.png,exp1.png,trial_right_image,-1,exp1.png,2,exp1.png,exp2.png,1,1,non-reversed,correct,0.9565472022465907,1,valid_win,367.30396839999594,48,,,,,,,,,,,s_050,2,2021_Jan_26_1446,Reversal,3.2.4,60.01187034053182,
7,exp3.png,exp4.png,,,,,,,,,,,,,,,,,0,0,0,0,0,7,7,7,,,,,,,,,False,7,68,True,exp4.png,exp3.png,trial_right_image,-1,exp3.png,2,exp4.png,exp3.png,1,3,reversed,incorrect,0.18720201527669555,1,invalid_win,371.452338000061,49,,,,,,,,,,,s_050,2,2021_Jan_26_1446,Reversal,3.2.4,60.01187034053182,
8,exp1.png,exp2.png,,,,,,,,,,,,,,,,,0,0,0,0,0,8,8,8,,,,,,,,,False,8,69,True,exp2.png,exp1.png,trial_right_image,-1,exp1.png,2,exp1.png,exp2.png,1,1,non-reversed,correct,0.47965896405889297,1,valid_win,376.4669246999547,50,,,,,,,,,,,s_050,2,2021_Jan_26_1446,Reversal,3.2.4,60.01187034053182,
9,exp3.png,exp4.png,,,,,,,,,,,,,,,,,0,0,0,0,0,9,9,9,,,,,,,,,False,9,70,False,exp3.png,exp4.png,trial_left_image,1,exp3.png,2,exp4.png,exp3.png,1,3,reversed,incorrect,0.02066603686075552,1,invalid_win,380.9655436000321,51,,,,,,,,,,,s_050,2,2021_Jan_26_1446,Reversal,3.2.4,60.01187034053182,
10,exp1.png,exp2.png,,,,,,,,,,,,,,,,,0,0,0,0,0,10,10,10,,,,,,,,,False,10,71,True,exp2.png,exp1.png,trial_right_image,-1,exp1.png,2,exp1.png,exp2.png,1,1,non-reversed,correct,0.8067672225948801,1,valid_win,385.13173549994826,52,,,,,,,,,,,s_050,2,2021_Jan_26_1446,Reversal,3.2.4,60.01187034053182,
11,exp3.png,exp4.png,,,,,,,,,,,,,,,,,0,0,0,0,0,11,11,11,,,,,,,,,False,11,72,False,exp3.png,exp4.png,trial_left_image,1,exp3.png,2,exp4.png,exp3.png,1,3,reversed,incorrect,0.1086681144451187,1,invalid_win,389.1808402000461,53,,,,,,,,,,,s_050,2,2021_Jan_26_1446,Reversal,3.2.4,60.01187034053182,
12,exp1.png,exp2.png,,,,,,,,,,,,,,,,,0,0,0,0,0,12,12,12,,,,,,,,,False,12,73,True,exp2.png,exp1.png,trial_right_image,-1,exp1.png,2,exp1.png,exp2.png,1,1,non-reversed,correct,0.6091053084074178,1,valid_win,393.3617160001304,54,,,,,,,,,,,s_050,2,2021_Jan_26_1446,Reversal,3.2.4,60.01187034053182,
13,exp3.png,exp4.png,,,,,,,,,,,,,,,,,0,0,0,0,0,13,13,13,,,,,,,,,False,13,74,True,exp4.png,exp3.png,trial_right_image,-1,exp3.png,2,exp4.png,exp3.png,1,3,reversed,incorrect,0.1488706496478882,1,invalid_win,397.4262037000153,55,,,,,,,,,,,s_050,2,2021_Jan_26_1446,Reversal,3.2.4,60.01187034053182,
14,exp1.png,exp2.png,,,,,,,,,,,,,,,,,0,0,0,0,0,14,14,14,,,,,,,,,False,14,75,False,exp1.png,exp2.png,trial_left_image,1,exp1.png,2,exp1.png,exp2.png,1,1,non-reversed,correct,0.3416279761093205,1,valid_win,401.5253167001065,56,,,,,,,,,,,s_050,2,2021_Jan_26_1446,Reversal,3.2.4,60.01187034053182,
15,exp3.png,exp4.png,,,,,,,,,,,,,,,,,0,0,0,0,0,15,15,15,,,,,,,,,False,15,76,False,exp3.png,exp4.png,trial_left_image,1,exp3.png,2,exp4.png,exp3.png,1,3,reversed,incorrect,0.7590334063593803,0,valid_lose,405.57544940011576,56,,,,,,,,,,,s_050,2,2021_Jan_26_1446,Reversal,3.2.4,60.01187034053182,
16,exp1.png,exp2.png,,,,,,,,,,,,,,,,,0,0,0,0,0,16,16,16,,,,,,,,,False,16,77,True,exp2.png,exp1.png,trial_right_image,-1,exp1.png,2,exp1.png,exp2.png,1,1,non-reversed,correct,0.4005620598354107,1,valid_win,409.5557089999784,57,,,,,,,,,,,s_050,2,2021_Jan_26_1446,Reversal,3.2.4,60.01187034053182,
17,exp3.png,exp4.png,,,,,,,,,,,,,,,,,0,0,0,0,0,17,17,17,,,,,,,,,False,17,78,True,exp4.png,exp3.png,trial_right_image,-1,exp3.png,2,exp4.png,exp3.png,1,3,reversed,incorrect,0.9049718574004948,0,valid_lose,413.5392356000375,57,,,,,,,,,,,s_050,2,2021_Jan_26_1446,Reversal,3.2.4,60.01187034053182,
18,exp1.png,exp2.png,,,,,,,,,,,,,,,,,0,0,0,0,0,18,18,18,,,,,,,,,False,18,79,True,exp2.png,exp1.png,trial_right_image,-1,exp1.png,2,exp1.png,exp2.png,1,1,non-reversed,correct,0.8749026766117292,1,valid_win,417.5708467999939,58,,,,,,,,,,,s_050,2,2021_Jan_26_1446,Reversal,3.2.4,60.01187034053182,
19,exp3.png,exp4.png,,,,,,,,,,,,,,,,,0,0,0,0,0,19,19,19,,,,,,,,,False,19,80,True,exp4.png,exp3.png,trial_right_image,-1,exp3.png,2,exp4.png,exp3.png,1,3,reversed,incorrect,0.5840283231176386,0,valid_lose,421.4515307000838,58,,,,,,,,,,,s_050,2,2021_Jan_26_1446,Reversal,3.2.4,60.01187034053182,
20,exp1.png,exp2.png,,,,,,,,,,,,,,,,,0,0,0,0,0,20,20,20,,,,,,,,,True,,,,,,,,,,,,,,,,,,,,,,,,,,,,,,,s_050,2,2021_Jan_26_1446,Reversal,3.2.4,60.01187034053182,
,,,,,,,,,,,,,,,,,,,0,0,0,0,,,,,0,0,0,0,,,,,,,,,,,,,,,,,,,,,,,,,,50.0,50.0,50.0,50.0,,,,,,,s_050,2,2021_Jan_26_1446,Reversal,3.2.4,60.01187034053182,
0,exp1.png,exp2.png,,,,,,,,,,,,,,,,,1,0,1,0,0,0,0,0,,,,,,,,,False,20,81,False,exp1.png,exp2.png,trial_left_image,1,exp1.png,2,exp1.png,exp2.png,1,1,non-reversed,correct,0.6424903942184568,1,valid_win,430.0325667001307,59,,,,,,,,,,,s_050,2,2021_Jan_26_1446,Reversal,3.2.4,60.01187034053182,
1,exp3.png,exp4.png,,,,,,,,,,,,,,,,,1,0,1,0,0,1,1,1,,,,,,,,,False,21,82,True,exp4.png,exp3.png,trial_right_image,-1,exp3.png,2,exp4.png,exp3.png,1,3,reversed,incorrect,0.6191598503917944,0,valid_lose,434.0485062999651,59,,,,,,,,,,,s_050,2,2021_Jan_26_1446,Reversal,3.2.4,60.01187034053182,
2,exp1.png,exp2.png,,,,,,,,,,,,,,,,,1,0,1,0,0,2,2,2,,,,,,,,,False,22,83,False,exp1.png,exp2.png,trial_left_image,1,exp1.png,2,exp1.png,exp2.png,1,1,non-reversed,correct,0.08639869749722184,0,invalid_lose,437.9638050000649,59,,,,,,,,,,,s_050,2,2021_Jan_26_1446,Reversal,3.2.4,60.01187034053182,
3,exp3.png,exp4.png,,,,,,,,,,,,,,,,,1,0,1,0,0,3,3,3,,,,,,,,,False,23,84,True,exp4.png,exp3.png,trial_left_image,1,exp4.png,2,exp4.png,exp3.png,0,4,reversed,correct,0.31415301099293946,1,valid_win,442.27804270014167,60,,,,,,,,,,,s_050,2,2021_Jan_26_1446,Reversal,3.2.4,60.01187034053182,
4,exp1.png,exp2.png,,,,,,,,,,,,,,,,,1,0,1,0,0,4,4,4,,,,,,,,,False,24,85,True,exp2.png,exp1.png,trial_left_image,1,exp2.png,2,exp1.png,exp2.png,0,2,non-reversed,incorrect,0.20123393320405958,1,invalid_win,446.6444544000551,61,,,,,,,,,,,s_050,2,2021_Jan_26_1446,Reversal,3.2.4,60.01187034053182,
5,exp3.png,exp4.png,,,,,,,,,,,,,,,,,1,0,1,0,0,5,5,5,,,,,,,,,False,25,86,False,exp3.png,exp4.png,trial_left_image,1,exp3.png,2,exp4.png,exp3.png,1,3,reversed,incorrect,0.18932493316650156,1,invalid_win,451.2083819999825,62,,,,,,,,,,,s_050,2,2021_Jan_26_1446,Reversal,3.2.4,60.01187034053182,
6,exp1.png,exp2.png,,,,,,,,,,,,,,,,,1,0,1,0,0,6,6,6,,,,,,,,,False,26,87,True,exp2.png,exp1.png,trial_right_image,-1,exp1.png,2,exp1.png,exp2.png,1,1,non-reversed,correct,0.3773789709893406,1,valid_win,455.3407084001228,63,,,,,,,,,,,s_050,2,2021_Jan_26_1446,Reversal,3.2.4,60.01187034053182,
7,exp3.png,exp4.png,,,,,,,,,,,,,,,,,1,0,1,0,0,7,7,7,,,,,,,,,False,27,88,False,exp3.png,exp4.png,trial_left_image,1,exp3.png,2,exp4.png,exp3.png,1,3,reversed,incorrect,0.8045517493000227,0,valid_lose,459.64506260002963,63,,,,,,,,,,,s_050,2,2021_Jan_26_1446,Reversal,3.2.4,60.01187034053182,
8,exp1.png,exp2.png,,,,,,,,,,,,,,,,,1,0,1,0,0,8,8,8,,,,,,,,,False,28,89,True,exp2.png,exp1.png,trial_right_image,-1,exp1.png,2,exp1.png,exp2.png,1,1,non-reversed,correct,0.015203231419938845,0,invalid_lose,464.7708374999929,63,,,,,,,,,,,s_050,2,2021_Jan_26_1446,Reversal,3.2.4,60.01187034053182,
9,exp3.png,exp4.png,,,,,,,,,,,,,,,,,1,0,1,0,0,9,9,9,,,,,,,,,False,29,90,False,exp3.png,exp4.png,trial_left_image,1,exp3.png,2,exp4.png,exp3.png,1,3,reversed,incorrect,0.08109971022263296,1,invalid_win,469.5868858001195,64,,,,,,,,,,,s_050,2,2021_Jan_26_1446,Reversal,3.2.4,60.01187034053182,
10,exp1.png,exp2.png,,,,,,,,,,,,,,,,,1,0,1,0,0,10,10,10,,,,,,,,,False,30,91,True,exp2.png,exp1.png,trial_left_image,1,exp2.png,2,exp1.png,exp2.png,0,2,non-reversed,incorrect,0.921325600309616,0,valid_lose,473.9012764999643,64,,,,,,,,,,,s_050,2,2021_Jan_26_1446,Reversal,3.2.4,60.01187034053182,
11,exp3.png,exp4.png,,,,,,,,,,,,,,,,,1,0,1,0,0,11,11,11,,,,,,,,,False,31,92,False,exp3.png,exp4.png,trial_right_image,-1,exp4.png,2,exp4.png,exp3.png,0,4,reversed,correct,0.8554688564869748,1,valid_win,479.19962089997716,65,,,,,,,,,,,s_050,2,2021_Jan_26_1446,Reversal,3.2.4,60.01187034053182,
12,exp1.png,exp2.png,,,,,,,,,,,,,,,,,1,0,1,0,0,12,12,12,,,,,,,,,False,32,93,True,exp2.png,exp1.png,trial_right_image,-1,exp1.png,2,exp1.png,exp2.png,1,1,non-reversed,correct,0.13123834840214044,0,invalid_lose,484.1481498000212,65,,,,,,,,,,,s_050,2,2021_Jan_26_1446,Reversal,3.2.4,60.01187034053182,
13,exp3.png,exp4.png,,,,,,,,,,,,,,,,,1,0,1,0,0,13,13,13,,,,,,,,,False,33,94,False,exp3.png,exp4.png,trial_left_image,1,exp3.png,2,exp4.png,exp3.png,1,3,reversed,incorrect,0.2700369988364939,0,valid_lose,489.32951380009763,65,,,,,,,,,,,s_050,2,2021_Jan_26_1446,Reversal,3.2.4,60.01187034053182,
14,exp1.png,exp2.png,,,,,,,,,,,,,,,,,1,0,1,0,0,14,14,14,,,,,,,,,False,34,95,True,exp2.png,exp1.png,trial_right_image,-1,exp1.png,2,exp1.png,exp2.png,1,1,non-reversed,correct,0.685484865176532,1,valid_win,493.7950629000552,66,,,,,,,,,,,s_050,2,2021_Jan_26_1446,Reversal,3.2.4,60.01187034053182,
15,exp3.png,exp4.png,,,,,,,,,,,,,,,,,1,0,1,0,0,15,15,15,,,,,,,,,False,35,96,False,exp3.png,exp4.png,trial_left_image,1,exp3.png,2,exp4.png,exp3.png,1,3,reversed,incorrect,0.5183106253534286,0,valid_lose,497.94254920003004,66,,,,,,,,,,,s_050,2,2021_Jan_26_1446,Reversal,3.2.4,60.01187034053182,
16,exp1.png,exp2.png,,,,,,,,,,,,,,,,,1,0,1,0,0,16,16,16,,,,,,,,,False,36,97,True,exp2.png,exp1.png,trial_right_image,-1,exp1.png,2,exp1.png,exp2.png,1,1,non-reversed,correct,0.9896657796139552,1,valid_win,502.0091002001427,67,,,,,,,,,,,s_050,2,2021_Jan_26_1446,Reversal,3.2.4,60.01187034053182,
17,exp3.png,exp4.png,,,,,,,,,,,,,,,,,1,0,1,0,0,17,17,17,,,,,,,,,False,37,98,True,exp4.png,exp3.png,trial_right_image,-1,exp3.png,2,exp4.png,exp3.png,1,3,reversed,incorrect,0.03293182777356185,1,invalid_win,506.27379749994725,68,,,,,,,,,,,s_050,2,2021_Jan_26_1446,Reversal,3.2.4,60.01187034053182,
18,exp1.png,exp2.png,,,,,,,,,,,,,,,,,1,0,1,0,0,18,18,18,,,,,,,,,False,38,99,False,exp1.png,exp2.png,trial_left_image,1,exp1.png,2,exp1.png,exp2.png,1,1,non-reversed,correct,0.7121182804210298,1,valid_win,510.7215971001424,69,,,,,,,,,,,s_050,2,2021_Jan_26_1446,Reversal,3.2.4,60.01187034053182,
19,exp3.png,exp4.png,,,,,,,,,,,,,,,,,1,0,1,0,0,19,19,19,,,,,,,,,False,39,100,False,exp3.png,exp4.png,trial_right_image,-1,exp4.png,2,exp4.png,exp3.png,0,4,reversed,correct,0.3713933659606572,1,valid_win,515.0538208000362,70,,,,,,,,,,,s_050,2,2021_Jan_26_1446,Reversal,3.2.4,60.01187034053182,
20,exp1.png,exp2.png,,,,,,,,,,,,,,,,,1,0,1,0,0,20,20,20,,,,,,,,,True,,,,,,,,,,,,,,,,,,,,,,,,,,,,,,,s_050,2,2021_Jan_26_1446,Reversal,3.2.4,60.01187034053182,
,,,,,,,,,,,,,,,,,,,1,0,1,0,,,,,0,0,0,0,,,,,,,,,,,,,,,,,,,,,,,,,,50.0,50.0,50.0,50.0,,,,,,,s_050,2,2021_Jan_26_1446,Reversal,3.2.4,60.01187034053182,
0,exp1.png,exp2.png,,,,,,,,,,,,,,,,,2,0,2,0,0,0,0,0,,,,,,,,,False,40,101,True,exp2.png,exp1.png,trial_right_image,-1,exp1.png,2,exp1.png,exp2.png,1,1,non-reversed,correct,0.7222214696305747,1,valid_win,522.6013378000353,71,,,,,,,,,,,s_050,2,2021_Jan_26_1446,Reversal,3.2.4,60.01187034053182,
1,exp3.png,exp4.png,,,,,,,,,,,,,,,,,2,0,2,0,0,1,1,1,,,,,,,,,False,41,102,True,exp4.png,exp3.png,trial_right_image,-1,exp3.png,2,exp4.png,exp3.png,1,3,reversed,incorrect,0.9599049900241894,0,valid_lose,526.6339948000386,71,,,,,,,,,,,s_050,2,2021_Jan_26_1446,Reversal,3.2.4,60.01187034053182,
2,exp1.png,exp2.png,,,,,,,,,,,,,,,,,2,0,2,0,0,2,2,2,,,,,,,,,False,42,103,False,exp1.png,exp2.png,trial_right_image,-1,exp2.png,2,exp1.png,exp2.png,0,2,non-reversed,incorrect,0.7911515345052521,0,valid_lose,530.6143155000173,71,,,,,,,,,,,s_050,2,2021_Jan_26_1446,Reversal,3.2.4,60.01187034053182,
3,exp3.png,exp4.png,,,,,,,,,,,,,,,,,2,0,2,0,0,3,3,3,,,,,,,,,False,43,104,False,exp3.png,exp4.png,trial_right_image,-1,exp4.png,2,exp4.png,exp3.png,0,4,reversed,correct,0.8678631106513818,1,valid_win,536.0300094000995,72,,,,,,,,,,,s_050,2,2021_Jan_26_1446,Reversal,3.2.4,60.01187034053182,
4,exp1.png,exp2.png,,,,,,,,,,,,,,,,,2,0,2,0,0,4,4,4,,,,,,,,,False,44,105,False,exp1.png,exp2.png,trial_left_image,1,exp1.png,2,exp1.png,exp2.png,1,1,non-reversed,correct,0.473142998156617,1,valid_win,540.0290463001002,73,,,,,,,,,,,s_050,2,2021_Jan_26_1446,Reversal,3.2.4,60.01187034053182,
5,exp3.png,exp4.png,,,,,,,,,,,,,,,,,2,0,2,0,0,5,5,5,,,,,,,,,False,45,106,False,exp3.png,exp4.png,trial_right_image,-1,exp4.png,2,exp4.png,exp3.png,0,4,reversed,correct,0.7145535803951858,1,valid_win,544.0272677999455,74,,,,,,,,,,,s_050,2,2021_Jan_26_1446,Reversal,3.2.4,60.01187034053182,
6,exp1.png,exp2.png,,,,,,,,,,,,,,,,,2,0,2,0,0,6,6,6,,,,,,,,,False,46,107,False,exp1.png,exp2.png,trial_left_image,1,exp1.png,2,exp1.png,exp2.png,1,1,non-reversed,correct,0.032703467624701665,0,invalid_lose,548.126040500123,74,,,,,,,,,,,s_050,2,2021_Jan_26_1446,Reversal,3.2.4,60.01187034053182,
7,exp3.png,exp4.png,,,,,,,,,,,,,,,,,2,0,2,0,0,7,7,7,,,,,,,,,False,47,108,True,exp4.png,exp3.png,trial_left_image,1,exp4.png,2,exp4.png,exp3.png,0,4,reversed,correct,0.7757322231952875,1,valid_win,552.4902135999873,75,,,,,,,,,,,s_050,2,2021_Jan_26_1446,Reversal,3.2.4,60.01187034053182,
8,exp1.png,exp2.png,,,,,,,,,,,,,,,,,2,0,2,0,0,8,8,8,,,,,,,,,False,48,109,True,exp2.png,exp1.png,trial_right_image,-1,exp1.png,2,exp1.png,exp2.png,1,1,non-reversed,correct,0.40906457173126964,1,valid_win,556.9562779001426,76,,,,,,,,,,,s_050,2,2021_Jan_26_1446,Reversal,3.2.4,60.01187034053182,
9,exp3.png,exp4.png,,,,,,,,,,,,,,,,,2,0,2,0,0,9,9,9,,,,,,,,,False,49,110,False,exp3.png,exp4.png,trial_right_image,-1,exp4.png,2,exp4.png,exp3.png,0,4,reversed,correct,0.9276347907618018,1,valid_win,561.1219729001168,77,,,,,,,,,,,s_050,2,2021_Jan_26_1446,Reversal,3.2.4,60.01187034053182,
10,exp1.png,exp2.png,,,,,,,,,,,,,,,,,2,0,2,0,0,10,10,10,,,,,,,,,False,50,111,True,exp2.png,exp1.png,trial_left_image,1,exp2.png,2,exp1.png,exp2.png,0,2,non-reversed,incorrect,0.9817869231948491,0,valid_lose,565.0692700000945,77,,,,,,,,,,,s_050,2,2021_Jan_26_1446,Reversal,3.2.4,60.01187034053182,
11,exp3.png,exp4.png,,,,,,,,,,,,,,,,,2,0,2,0,0,11,11,11,,,,,,,,,False,51,112,False,exp3.png,exp4.png,trial_right_image,-1,exp4.png,2,exp4.png,exp3.png,0,4,reversed,correct,0.927185873083952,1,valid_win,569.852556400001,78,,,,,,,,,,,s_050,2,2021_Jan_26_1446,Reversal,3.2.4,60.01187034053182,
12,exp1.png,exp2.png,,,,,,,,,,,,,,,,,2,0,2,0,0,12,12,12,,,,,,,,,False,52,113,True,exp2.png,exp1.png,trial_left_image,1,exp2.png,2,exp1.png,exp2.png,0,2,non-reversed,incorrect,0.27202261112438153,0,valid_lose,574.7498451999854,78,,,,,,,,,,,s_050,2,2021_Jan_26_1446,Reversal,3.2.4,60.01187034053182,
13,exp3.png,exp4.png,,,,,,,,,,,,,,,,,2,0,2,0,0,13,13,13,,,,,,,,,False,53,114,True,exp4.png,exp3.png,trial_right_image,-1,exp3.png,2,exp4.png,exp3.png,1,3,reversed,incorrect,0.9924865463835334,0,valid_lose,579.665851400001,78,,,,,,,,,,,s_050,2,2021_Jan_26_1446,Reversal,3.2.4,60.01187034053182,
14,exp1.png,exp2.png,,,,,,,,,,,,,,,,,2,0,2,0,0,14,14,14,,,,,,,,,False,54,115,True,exp2.png,exp1.png,trial_right_image,-1,exp1.png,2,exp1.png,exp2.png,1,1,non-reversed,correct,0.6387791644757536,1,valid_win,583.6148959000129,79,,,,,,,,,,,s_050,2,2021_Jan_26_1446,Reversal,3.2.4,60.01187034053182,
15,exp3.png,exp4.png,,,,,,,,,,,,,,,,,2,0,2,0,0,15,15,15,,,,,,,,,False,55,116,False,exp3.png,exp4.png,trial_right_image,-1,exp4.png,2,exp4.png,exp3.png,0,4,reversed,correct,0.8492452670665487,1,valid_win,588.8457196000963,80,,,,,,,,,,,s_050,2,2021_Jan_26_1446,Reversal,3.2.4,60.01187034053182,
16,exp1.png,exp2.png,,,,,,,,,,,,,,,,,2,0,2,0,0,16,16,16,,,,,,,,,False,56,117,True,exp2.png,exp1.png,trial_right_image,-1,exp1.png,2,exp1.png,exp2.png,1,1,non-reversed,correct,0.25345645042864495,1,valid_win,594.293625799939,81,,,,,,,,,,,s_050,2,2021_Jan_26_1446,Reversal,3.2.4,60.01187034053182,
17,exp3.png,exp4.png,,,,,,,,,,,,,,,,,2,0,2,0,0,17,17,17,,,,,,,,,False,57,118,True,exp4.png,exp3.png,trial_left_image,1,exp4.png,2,exp4.png,exp3.png,0,4,reversed,correct,0.9142265670124945,1,valid_win,598.975467500044,82,,,,,,,,,,,s_050,2,2021_Jan_26_1446,Reversal,3.2.4,60.01187034053182,
18,exp1.png,exp2.png,,,,,,,,,,,,,,,,,2,0,2,0,0,18,18,18,,,,,,,,,False,58,119,False,exp1.png,exp2.png,trial_left_image,1,exp1.png,2,exp1.png,exp2.png,1,1,non-reversed,correct,0.1988979784202003,0,invalid_lose,603.0074205999263,82,,,,,,,,,,,s_050,2,2021_Jan_26_1446,Reversal,3.2.4,60.01187034053182,
19,exp3.png,exp4.png,,,,,,,,,,,,,,,,,2,0,2,0,0,19,19,19,,,,,,,,,False,59,120,False,exp3.png,exp4.png,trial_right_image,-1,exp4.png,2,exp4.png,exp3.png,0,4,reversed,correct,0.7300459337703761,1,valid_win,607.7066500999499,83,,,,,,,,,,,s_050,2,2021_Jan_26_1446,Reversal,3.2.4,60.01187034053182,
20,exp1.png,exp2.png,,,,,,,,,,,,,,,,,2,0,2,0,0,20,20,20,,,,,,,,,True,,,,,,,,,,,,,,,,,,,,,,,,,,,,,,,s_050,2,2021_Jan_26_1446,Reversal,3.2.4,60.01187034053182,
,,,,,,,,,,,,,,,,,,,2,0,2,0,,,,,0,0,0,0,,,,,,,,,,,,,,,,,,,,,,,,,,50.0,50.0,0,100,,,,,,,s_050,2,2021_Jan_26_1446,Reversal,3.2.4,60.01187034053182,
,,,,,,,,,,,,,,,,,,,,,,,,,,,,,,,,,,,,,,,,,,,,,,,,,,,,,,,83,,,,,,90,54,36,285.2010203001555,0,,,,,,,
