trial_index,trial_image1_file,trial_image2_file,learning_outer_loop.thisRepN,learning_outer_loop.thisTrialN,learning_outer_loop.thisN,learning_outer_loop.thisIndex,learning_inner_loop.thisRepN,learning_inner_loop.thisTrialN,learning_inner_loop.thisN,learning_inner_loop.thisIndex,learning_estimation_outer_loop.thisRepN,learning_estimation_outer_loop.thisTrialN,learning_estimation_outer_loop.thisN,learning_estimation_outer_loop.thisIndex,learning_estimation_inner_loop.thisRepN,learning_estimation_inner_loop.thisTrialN,learning_estimation_inner_loop.thisN,learning_estimation_inner_loop.thisIndex,reversal_outer_loop.thisRepN,reversal_outer_loop.thisTrialN,reversal_outer_loop.thisN,reversal_outer_loop.thisIndex,reversal_inner_loop.thisRepN,reversal_inner_loop.thisTrialN,reversal_inner_loop.thisN,reversal_inner_loop.thisIndex,reversal_estimation_outer_loop.thisRepN,reversal_estimation_outer_loop.thisTrialN,reversal_estimation_outer_loop.thisN,reversal_estimation_outer_loop.thisIndex,reversal_estimation_inner_loop.thisRepN,reversal_estimation_inner_loop.thisTrialN,reversal_estimation_inner_loop.thisN,reversal_estimation_inner_loop.thisIndex,skipped,total_trial_counter,trial_num,left_right_flip,left_image_file,right_image_file,clicked_stimulus_side,side,clicked_stimulus,version,high_prob_image_file,low_prob_image_file,choice_a,choice_b,pair_type,correct,trial_feedback_random,reward,trial_type,overall_time_after_trial,score,estimation_exp1.png,estimation_exp2.png,estimation_exp3.png,estimation_exp4.png,total_learning_time,total_correct,learning_correct,reversal_correct,total_reversal_time,extra_block,participant,ver,date,expName,psychopyVersion,frameRate,
0,exp1.png,exp2.png,0,0,0,0,0,0,0,0,,,,,,,,,,,,,,,,,,,,,,,,,False,0,1,True,exp2.png,exp1.png,trial_left_image,1,exp2.png,3,exp2.png,exp1.png,1,3,reversed,correct,0.7889639216716466,1,valid_win,3.978503999998793,1,,,,,,,,,,,s_051,3,2021_Jan_27_1301,Reversal,3.2.4,59.97051846411794,
1,exp3.png,exp4.png,0,0,0,0,0,1,1,1,,,,,,,,,,,,,,,,,,,,,,,,,False,1,2,False,exp3.png,exp4.png,trial_left_image,1,exp3.png,3,exp4.png,exp3.png,0,2,non-reversed,incorrect,0.7322784803776464,0,valid_lose,13.025489400140941,1,,,,,,,,,,,s_051,3,2021_Jan_27_1301,Reversal,3.2.4,59.97051846411794,
2,exp1.png,exp2.png,0,0,0,0,0,2,2,2,,,,,,,,,,,,,,,,,,,,,,,,,False,2,3,True,exp2.png,exp1.png,trial_left_image,1,exp2.png,3,exp2.png,exp1.png,1,3,reversed,correct,0.1969802883327284,0,invalid_lose,17.3406029001344,1,,,,,,,,,,,s_051,3,2021_Jan_27_1301,Reversal,3.2.4,59.97051846411794,
3,exp3.png,exp4.png,0,0,0,0,0,3,3,3,,,,,,,,,,,,,,,,,,,,,,,,,False,3,4,False,exp3.png,exp4.png,trial_left_image,1,exp3.png,3,exp4.png,exp3.png,0,2,non-reversed,incorrect,0.005726800401713583,1,invalid_win,24.18819130002521,2,,,,,,,,,,,s_051,3,2021_Jan_27_1301,Reversal,3.2.4,59.97051846411794,
4,exp1.png,exp2.png,0,0,0,0,0,4,4,4,,,,,,,,,,,,,,,,,,,,,,,,,False,4,5,False,exp1.png,exp2.png,trial_right_image,-1,exp2.png,3,exp2.png,exp1.png,1,3,reversed,correct,0.5806781177326097,1,valid_win,32.33564930013381,3,,,,,,,,,,,s_051,3,2021_Jan_27_1301,Reversal,3.2.4,59.97051846411794,
5,exp3.png,exp4.png,0,0,0,0,0,5,5,5,,,,,,,,,,,,,,,,,,,,,,,,,False,5,6,True,exp4.png,exp3.png,trial_left_image,1,exp4.png,3,exp4.png,exp3.png,1,1,non-reversed,correct,0.8106868313891166,1,valid_win,36.53463380015455,4,,,,,,,,,,,s_051,3,2021_Jan_27_1301,Reversal,3.2.4,59.97051846411794,
6,exp1.png,exp2.png,0,0,0,0,0,6,6,6,,,,,,,,,,,,,,,,,,,,,,,,,False,6,7,False,exp1.png,exp2.png,trial_left_image,1,exp1.png,3,exp2.png,exp1.png,0,4,reversed,incorrect,0.7653910207377831,0,valid_lose,41.999268900137395,4,,,,,,,,,,,s_051,3,2021_Jan_27_1301,Reversal,3.2.4,59.97051846411794,
7,exp3.png,exp4.png,0,0,0,0,0,7,7,7,,,,,,,,,,,,,,,,,,,,,,,,,False,7,8,False,exp3.png,exp4.png,trial_right_image,-1,exp4.png,3,exp4.png,exp3.png,1,1,non-reversed,correct,0.04253337066443341,0,invalid_lose,46.58062890009023,4,,,,,,,,,,,s_051,3,2021_Jan_27_1301,Reversal,3.2.4,59.97051846411794,
8,exp1.png,exp2.png,0,0,0,0,0,8,8,8,,,,,,,,,,,,,,,,,,,,,,,,,False,8,9,False,exp1.png,exp2.png,trial_right_image,-1,exp2.png,3,exp2.png,exp1.png,1,3,reversed,correct,0.23813205411678906,0,invalid_lose,54.47747860010713,4,,,,,,,,,,,s_051,3,2021_Jan_27_1301,Reversal,3.2.4,59.97051846411794,
9,exp3.png,exp4.png,0,0,0,0,0,9,9,9,,,,,,,,,,,,,,,,,,,,,,,,,False,9,10,True,exp4.png,exp3.png,trial_left_image,1,exp4.png,3,exp4.png,exp3.png,1,1,non-reversed,correct,0.246836953031233,0,invalid_lose,61.19220790010877,4,,,,,,,,,,,s_051,3,2021_Jan_27_1301,Reversal,3.2.4,59.97051846411794,
10,exp1.png,exp2.png,0,0,0,0,0,10,10,10,,,,,,,,,,,,,,,,,,,,,,,,,False,10,11,True,exp2.png,exp1.png,trial_left_image,1,exp2.png,3,exp2.png,exp1.png,1,3,reversed,correct,0.6817464118753589,1,valid_win,73.62105770013295,5,,,,,,,,,,,s_051,3,2021_Jan_27_1301,Reversal,3.2.4,59.97051846411794,
11,exp3.png,exp4.png,0,0,0,0,0,11,11,11,,,,,,,,,,,,,,,,,,,,,,,,,False,11,12,True,exp4.png,exp3.png,trial_left_image,1,exp4.png,3,exp4.png,exp3.png,1,1,non-reversed,correct,0.749946363702465,1,valid_win,77.9356734000612,6,,,,,,,,,,,s_051,3,2021_Jan_27_1301,Reversal,3.2.4,59.97051846411794,
12,exp1.png,exp2.png,0,0,0,0,0,12,12,12,,,,,,,,,,,,,,,,,,,,,,,,,False,12,13,False,exp1.png,exp2.png,trial_left_image,1,exp1.png,3,exp2.png,exp1.png,0,4,reversed,incorrect,0.37970398997863886,0,valid_lose,85.11679230001755,6,,,,,,,,,,,s_051,3,2021_Jan_27_1301,Reversal,3.2.4,59.97051846411794,
13,exp3.png,exp4.png,0,0,0,0,0,13,13,13,,,,,,,,,,,,,,,,,,,,,,,,,False,13,14,True,exp4.png,exp3.png,trial_left_image,1,exp4.png,3,exp4.png,exp3.png,1,1,non-reversed,correct,0.6542042632467349,1,valid_win,89.74970489996485,7,,,,,,,,,,,s_051,3,2021_Jan_27_1301,Reversal,3.2.4,59.97051846411794,
14,exp1.png,exp2.png,0,0,0,0,0,14,14,14,,,,,,,,,,,,,,,,,,,,,,,,,False,14,15,True,exp2.png,exp1.png,trial_left_image,1,exp2.png,3,exp2.png,exp1.png,1,3,reversed,correct,0.975888856249746,1,valid_win,97.07904829992913,8,,,,,,,,,,,s_051,3,2021_Jan_27_1301,Reversal,3.2.4,59.97051846411794,
15,exp3.png,exp4.png,0,0,0,0,0,15,15,15,,,,,,,,,,,,,,,,,,,,,,,,,False,15,16,False,exp3.png,exp4.png,trial_right_image,-1,exp4.png,3,exp4.png,exp3.png,1,1,non-reversed,correct,0.9405096361385454,1,valid_win,101.87911879993044,9,,,,,,,,,,,s_051,3,2021_Jan_27_1301,Reversal,3.2.4,59.97051846411794,
16,exp1.png,exp2.png,0,0,0,0,0,16,16,16,,,,,,,,,,,,,,,,,,,,,,,,,False,16,17,True,exp2.png,exp1.png,trial_left_image,1,exp2.png,3,exp2.png,exp1.png,1,3,reversed,correct,0.5324709921128862,1,valid_win,110.52529900008813,10,,,,,,,,,,,s_051,3,2021_Jan_27_1301,Reversal,3.2.4,59.97051846411794,
17,exp3.png,exp4.png,0,0,0,0,0,17,17,17,,,,,,,,,,,,,,,,,,,,,,,,,False,17,18,True,exp4.png,exp3.png,trial_left_image,1,exp4.png,3,exp4.png,exp3.png,1,1,non-reversed,correct,0.1387736841281635,0,invalid_lose,114.62466650013812,10,,,,,,,,,,,s_051,3,2021_Jan_27_1301,Reversal,3.2.4,59.97051846411794,
18,exp1.png,exp2.png,0,0,0,0,0,18,18,18,,,,,,,,,,,,,,,,,,,,,,,,,False,18,19,False,exp1.png,exp2.png,trial_right_image,-1,exp2.png,3,exp2.png,exp1.png,1,3,reversed,correct,0.16129134235212772,0,invalid_lose,127.22009610012174,10,,,,,,,,,,,s_051,3,2021_Jan_27_1301,Reversal,3.2.4,59.97051846411794,
19,exp3.png,exp4.png,0,0,0,0,0,19,19,19,,,,,,,,,,,,,,,,,,,,,,,,,False,19,20,False,exp3.png,exp4.png,trial_right_image,-1,exp4.png,3,exp4.png,exp3.png,1,1,non-reversed,correct,0.020591146544851946,0,invalid_lose,132.6846169999335,10,,,,,,,,,,,s_051,3,2021_Jan_27_1301,Reversal,3.2.4,59.97051846411794,
20,exp1.png,exp2.png,0,0,0,0,0,20,20,20,,,,,,,,,,,,,,,,,,,,,,,,,True,,,,,,,,,,,,,,,,,,,,,,,,,,,,,,,s_051,3,2021_Jan_27_1301,Reversal,3.2.4,59.97051846411794,
,,,0,0,0,0,,,,,0,0,0,0,,,,,,,,,,,,,,,,,,,,,,,,,,,,,,,,,,,,,,,,,,31,69,48,54,,,,,,,s_051,3,2021_Jan_27_1301,Reversal,3.2.4,59.97051846411794,
0,exp1.png,exp2.png,1,0,1,0,0,0,0,0,,,,,,,,,,,,,,,,,,,,,,,,,False,20,21,False,exp1.png,exp2.png,trial_right_image,-1,exp2.png,3,exp2.png,exp1.png,1,3,reversed,correct,0.044850103355225435,0,invalid_lose,170.53768509998918,10,,,,,,,,,,,s_051,3,2021_Jan_27_1301,Reversal,3.2.4,59.97051846411794,
1,exp3.png,exp4.png,1,0,1,0,0,1,1,1,,,,,,,,,,,,,,,,,,,,,,,,,False,21,22,False,exp3.png,exp4.png,trial_left_image,1,exp3.png,3,exp4.png,exp3.png,0,2,non-reversed,incorrect,0.18004136420893757,1,invalid_win,174.6196628001053,11,,,,,,,,,,,s_051,3,2021_Jan_27_1301,Reversal,3.2.4,59.97051846411794,
2,exp1.png,exp2.png,1,0,1,0,0,2,2,2,,,,,,,,,,,,,,,,,,,,,,,,,False,22,23,False,exp1.png,exp2.png,trial_left_image,1,exp1.png,3,exp2.png,exp1.png,0,4,reversed,incorrect,0.28400183428681336,0,valid_lose,179.1688904000912,11,,,,,,,,,,,s_051,3,2021_Jan_27_1301,Reversal,3.2.4,59.97051846411794,
3,exp3.png,exp4.png,1,0,1,0,0,3,3,3,,,,,,,,,,,,,,,,,,,,,,,,,False,23,24,False,exp3.png,exp4.png,trial_left_image,1,exp3.png,3,exp4.png,exp3.png,0,2,non-reversed,incorrect,0.2608629371033876,0,valid_lose,185.63348950003274,11,,,,,,,,,,,s_051,3,2021_Jan_27_1301,Reversal,3.2.4,59.97051846411794,
4,exp1.png,exp2.png,1,0,1,0,0,4,4,4,,,,,,,,,,,,,,,,,,,,,,,,,False,24,25,True,exp2.png,exp1.png,trial_right_image,-1,exp1.png,3,exp2.png,exp1.png,0,4,reversed,incorrect,0.1988697997608453,1,invalid_win,190.04787499993108,12,,,,,,,,,,,s_051,3,2021_Jan_27_1301,Reversal,3.2.4,59.97051846411794,
5,exp3.png,exp4.png,1,0,1,0,0,5,5,5,,,,,,,,,,,,,,,,,,,,,,,,,False,25,26,True,exp4.png,exp3.png,trial_right_image,-1,exp3.png,3,exp4.png,exp3.png,0,2,non-reversed,incorrect,0.30532825514697537,0,valid_lose,194.2143584000878,12,,,,,,,,,,,s_051,3,2021_Jan_27_1301,Reversal,3.2.4,59.97051846411794,
6,exp1.png,exp2.png,1,0,1,0,0,6,6,6,,,,,,,,,,,,,,,,,,,,,,,,,False,26,27,True,exp2.png,exp1.png,trial_left_image,1,exp2.png,3,exp2.png,exp1.png,1,3,reversed,correct,0.8518248582517787,1,valid_win,198.19672280014493,13,,,,,,,,,,,s_051,3,2021_Jan_27_1301,Reversal,3.2.4,59.97051846411794,
7,exp3.png,exp4.png,1,0,1,0,0,7,7,7,,,,,,,,,,,,,,,,,,,,,,,,,False,27,28,True,exp4.png,exp3.png,trial_left_image,1,exp4.png,3,exp4.png,exp3.png,1,1,non-reversed,correct,0.5694377374229614,1,valid_win,202.21166180004366,14,,,,,,,,,,,s_051,3,2021_Jan_27_1301,Reversal,3.2.4,59.97051846411794,
8,exp1.png,exp2.png,1,0,1,0,0,8,8,8,,,,,,,,,,,,,,,,,,,,,,,,,False,28,29,False,exp1.png,exp2.png,trial_right_image,-1,exp2.png,3,exp2.png,exp1.png,1,3,reversed,correct,0.09718523331058193,0,invalid_lose,206.96029009995982,14,,,,,,,,,,,s_051,3,2021_Jan_27_1301,Reversal,3.2.4,59.97051846411794,
9,exp3.png,exp4.png,1,0,1,0,0,9,9,9,,,,,,,,,,,,,,,,,,,,,,,,,False,29,30,False,exp3.png,exp4.png,trial_left_image,1,exp3.png,3,exp4.png,exp3.png,0,2,non-reversed,incorrect,0.6768072428382225,0,valid_lose,211.0253141000867,14,,,,,,,,,,,s_051,3,2021_Jan_27_1301,Reversal,3.2.4,59.97051846411794,
10,exp1.png,exp2.png,1,0,1,0,0,10,10,10,,,,,,,,,,,,,,,,,,,,,,,,,False,30,31,True,exp2.png,exp1.png,trial_left_image,1,exp2.png,3,exp2.png,exp1.png,1,3,reversed,correct,0.6366331851516741,1,valid_win,215.15632950002328,15,,,,,,,,,,,s_051,3,2021_Jan_27_1301,Reversal,3.2.4,59.97051846411794,
11,exp3.png,exp4.png,1,0,1,0,0,11,11,11,,,,,,,,,,,,,,,,,,,,,,,,,False,31,32,True,exp4.png,exp3.png,trial_left_image,1,exp4.png,3,exp4.png,exp3.png,1,1,non-reversed,correct,0.617617610530717,1,valid_win,219.17213200009428,16,,,,,,,,,,,s_051,3,2021_Jan_27_1301,Reversal,3.2.4,59.97051846411794,
12,exp1.png,exp2.png,1,0,1,0,0,12,12,12,,,,,,,,,,,,,,,,,,,,,,,,,False,32,33,False,exp1.png,exp2.png,trial_right_image,-1,exp2.png,3,exp2.png,exp1.png,1,3,reversed,correct,0.2750946976158324,1,valid_win,223.38766789995134,17,,,,,,,,,,,s_051,3,2021_Jan_27_1301,Reversal,3.2.4,59.97051846411794,
13,exp3.png,exp4.png,1,0,1,0,0,13,13,13,,,,,,,,,,,,,,,,,,,,,,,,,False,33,34,True,exp4.png,exp3.png,trial_right_image,-1,exp3.png,3,exp4.png,exp3.png,0,2,non-reversed,incorrect,0.6435429922382693,0,valid_lose,227.50180700002238,17,,,,,,,,,,,s_051,3,2021_Jan_27_1301,Reversal,3.2.4,59.97051846411794,
14,exp1.png,exp2.png,1,0,1,0,0,14,14,14,,,,,,,,,,,,,,,,,,,,,,,,,False,34,35,False,exp1.png,exp2.png,trial_left_image,1,exp1.png,3,exp2.png,exp1.png,0,4,reversed,incorrect,0.16841895222070657,1,invalid_win,231.56882730009966,18,,,,,,,,,,,s_051,3,2021_Jan_27_1301,Reversal,3.2.4,59.97051846411794,
15,exp3.png,exp4.png,1,0,1,0,0,15,15,15,,,,,,,,,,,,,,,,,,,,,,,,,False,35,36,True,exp4.png,exp3.png,trial_left_image,1,exp4.png,3,exp4.png,exp3.png,1,1,non-reversed,correct,0.7195312103108192,1,valid_win,237.3159372000955,19,,,,,,,,,,,s_051,3,2021_Jan_27_1301,Reversal,3.2.4,59.97051846411794,
16,exp1.png,exp2.png,1,0,1,0,0,16,16,16,,,,,,,,,,,,,,,,,,,,,,,,,False,36,37,False,exp1.png,exp2.png,trial_left_image,1,exp1.png,3,exp2.png,exp1.png,0,4,reversed,incorrect,0.3727529105774565,0,valid_lose,242.99752070009708,19,,,,,,,,,,,s_051,3,2021_Jan_27_1301,Reversal,3.2.4,59.97051846411794,
17,exp3.png,exp4.png,1,0,1,0,0,17,17,17,,,,,,,,,,,,,,,,,,,,,,,,,False,37,38,True,exp4.png,exp3.png,trial_left_image,1,exp4.png,3,exp4.png,exp3.png,1,1,non-reversed,correct,0.5242569882377486,1,valid_win,246.97872989997268,20,,,,,,,,,,,s_051,3,2021_Jan_27_1301,Reversal,3.2.4,59.97051846411794,
18,exp1.png,exp2.png,1,0,1,0,0,18,18,18,,,,,,,,,,,,,,,,,,,,,,,,,False,38,39,True,exp2.png,exp1.png,trial_left_image,1,exp2.png,3,exp2.png,exp1.png,1,3,reversed,correct,0.07414329590845248,0,invalid_lose,251.81135009997524,20,,,,,,,,,,,s_051,3,2021_Jan_27_1301,Reversal,3.2.4,59.97051846411794,
19,exp3.png,exp4.png,1,0,1,0,0,19,19,19,,,,,,,,,,,,,,,,,,,,,,,,,False,39,40,False,exp3.png,exp4.png,trial_left_image,1,exp3.png,3,exp4.png,exp3.png,0,2,non-reversed,incorrect,0.1732857655964406,1,invalid_win,255.95844590011984,21,,,,,,,,,,,s_051,3,2021_Jan_27_1301,Reversal,3.2.4,59.97051846411794,
20,exp1.png,exp2.png,1,0,1,0,0,20,20,20,,,,,,,,,,,,,,,,,,,,,,,,,True,,,,,,,,,,,,,,,,,,,,,,,,,,,,,,,s_051,3,2021_Jan_27_1301,Reversal,3.2.4,59.97051846411794,
,,,1,0,1,0,,,,,0,0,0,0,,,,,,,,,,,,,,,,,,,,,,,,,,,,,,,,,,,,,,,,,,50.0,50.0,50.0,50.0,,,,,,,s_051,3,2021_Jan_27_1301,Reversal,3.2.4,59.97051846411794,
0,exp1.png,exp2.png,2,0,2,0,0,0,0,0,,,,,,,,,,,,,,,,,,,,,,,,,False,40,41,True,exp2.png,exp1.png,trial_left_image,1,exp2.png,3,exp2.png,exp1.png,1,3,reversed,correct,0.5253742924657028,1,valid_win,270.60349610005505,22,,,,,,,,,,,s_051,3,2021_Jan_27_1301,Reversal,3.2.4,59.97051846411794,
1,exp3.png,exp4.png,2,0,2,0,0,1,1,1,,,,,,,,,,,,,,,,,,,,,,,,,False,41,42,False,exp3.png,exp4.png,trial_right_image,-1,exp4.png,3,exp4.png,exp3.png,1,1,non-reversed,correct,0.059370401464862166,0,invalid_lose,275.36859590001404,22,,,,,,,,,,,s_051,3,2021_Jan_27_1301,Reversal,3.2.4,59.97051846411794,
2,exp1.png,exp2.png,2,0,2,0,0,2,2,2,,,,,,,,,,,,,,,,,,,,,,,,,False,42,43,True,exp2.png,exp1.png,trial_left_image,1,exp2.png,3,exp2.png,exp1.png,1,3,reversed,correct,0.11499628695226793,0,invalid_lose,279.3847473000642,22,,,,,,,,,,,s_051,3,2021_Jan_27_1301,Reversal,3.2.4,59.97051846411794,
3,exp3.png,exp4.png,2,0,2,0,0,3,3,3,,,,,,,,,,,,,,,,,,,,,,,,,False,43,44,False,exp3.png,exp4.png,trial_left_image,1,exp3.png,3,exp4.png,exp3.png,0,2,non-reversed,incorrect,0.46191376645565607,0,valid_lose,283.8010253999382,22,,,,,,,,,,,s_051,3,2021_Jan_27_1301,Reversal,3.2.4,59.97051846411794,
4,exp1.png,exp2.png,2,0,2,0,0,4,4,4,,,,,,,,,,,,,,,,,,,,,,,,,False,44,45,True,exp2.png,exp1.png,trial_right_image,-1,exp1.png,3,exp2.png,exp1.png,0,4,reversed,incorrect,0.5530196964308904,0,valid_lose,287.9811424999498,22,,,,,,,,,,,s_051,3,2021_Jan_27_1301,Reversal,3.2.4,59.97051846411794,
5,exp3.png,exp4.png,2,0,2,0,0,5,5,5,,,,,,,,,,,,,,,,,,,,,,,,,False,45,46,False,exp3.png,exp4.png,trial_right_image,-1,exp4.png,3,exp4.png,exp3.png,1,1,non-reversed,correct,0.4078097972917404,1,valid_win,291.97997270012274,23,,,,,,,,,,,s_051,3,2021_Jan_27_1301,Reversal,3.2.4,59.97051846411794,
6,exp1.png,exp2.png,2,0,2,0,0,6,6,6,,,,,,,,,,,,,,,,,,,,,,,,,False,46,47,True,exp2.png,exp1.png,trial_right_image,-1,exp1.png,3,exp2.png,exp1.png,0,4,reversed,incorrect,0.9324184816453256,0,valid_lose,296.07926380005665,23,,,,,,,,,,,s_051,3,2021_Jan_27_1301,Reversal,3.2.4,59.97051846411794,
7,exp3.png,exp4.png,2,0,2,0,0,7,7,7,,,,,,,,,,,,,,,,,,,,,,,,,False,47,48,True,exp4.png,exp3.png,trial_left_image,1,exp4.png,3,exp4.png,exp3.png,1,1,non-reversed,correct,0.5874282640383646,1,valid_win,300.0101000999566,24,,,,,,,,,,,s_051,3,2021_Jan_27_1301,Reversal,3.2.4,59.97051846411794,
8,exp1.png,exp2.png,2,0,2,0,0,8,8,8,,,,,,,,,,,,,,,,,,,,,,,,,False,48,49,True,exp2.png,exp1.png,trial_left_image,1,exp2.png,3,exp2.png,exp1.png,1,3,reversed,correct,0.8846391598328218,1,valid_win,303.9435360999778,25,,,,,,,,,,,s_051,3,2021_Jan_27_1301,Reversal,3.2.4,59.97051846411794,
9,exp3.png,exp4.png,2,0,2,0,0,9,9,9,,,,,,,,,,,,,,,,,,,,,,,,,False,49,50,True,exp4.png,exp3.png,trial_left_image,1,exp4.png,3,exp4.png,exp3.png,1,1,non-reversed,correct,0.40751218820399016,1,valid_win,307.92571080010384,26,,,,,,,,,,,s_051,3,2021_Jan_27_1301,Reversal,3.2.4,59.97051846411794,
10,exp1.png,exp2.png,2,0,2,0,0,10,10,10,,,,,,,,,,,,,,,,,,,,,,,,,False,50,51,True,exp2.png,exp1.png,trial_left_image,1,exp2.png,3,exp2.png,exp1.png,1,3,reversed,correct,0.8585100164367186,1,valid_win,311.90619649994187,27,,,,,,,,,,,s_051,3,2021_Jan_27_1301,Reversal,3.2.4,59.97051846411794,
11,exp3.png,exp4.png,2,0,2,0,0,11,11,11,,,,,,,,,,,,,,,,,,,,,,,,,False,51,52,False,exp3.png,exp4.png,trial_right_image,-1,exp4.png,3,exp4.png,exp3.png,1,1,non-reversed,correct,0.857181866072651,1,valid_win,316.02186540002003,28,,,,,,,,,,,s_051,3,2021_Jan_27_1301,Reversal,3.2.4,59.97051846411794,
12,exp1.png,exp2.png,2,0,2,0,0,12,12,12,,,,,,,,,,,,,,,,,,,,,,,,,False,52,53,False,exp1.png,exp2.png,trial_right_image,-1,exp2.png,3,exp2.png,exp1.png,1,3,reversed,correct,0.8740361852141103,1,valid_win,320.05487110000104,29,,,,,,,,,,,s_051,3,2021_Jan_27_1301,Reversal,3.2.4,59.97051846411794,
13,exp3.png,exp4.png,2,0,2,0,0,13,13,13,,,,,,,,,,,,,,,,,,,,,,,,,False,53,54,False,exp3.png,exp4.png,trial_right_image,-1,exp4.png,3,exp4.png,exp3.png,1,1,non-reversed,correct,0.39766775525968323,1,valid_win,324.15276850014925,30,,,,,,,,,,,s_051,3,2021_Jan_27_1301,Reversal,3.2.4,59.97051846411794,
14,exp1.png,exp2.png,2,0,2,0,0,14,14,14,,,,,,,,,,,,,,,,,,,,,,,,,False,54,55,False,exp1.png,exp2.png,trial_right_image,-1,exp2.png,3,exp2.png,exp1.png,1,3,reversed,correct,0.8548115601972534,1,valid_win,328.2024604000617,31,,,,,,,,,,,s_051,3,2021_Jan_27_1301,Reversal,3.2.4,59.97051846411794,
15,exp3.png,exp4.png,2,0,2,0,0,15,15,15,,,,,,,,,,,,,,,,,,,,,,,,,False,55,56,True,exp4.png,exp3.png,trial_left_image,1,exp4.png,3,exp4.png,exp3.png,1,1,non-reversed,correct,0.8840058492393923,1,valid_win,332.40052659995854,32,,,,,,,,,,,s_051,3,2021_Jan_27_1301,Reversal,3.2.4,59.97051846411794,
16,exp1.png,exp2.png,2,0,2,0,0,16,16,16,,,,,,,,,,,,,,,,,,,,,,,,,False,56,57,False,exp1.png,exp2.png,trial_right_image,-1,exp2.png,3,exp2.png,exp1.png,1,3,reversed,correct,0.5947727832962018,1,valid_win,336.448211299954,33,,,,,,,,,,,s_051,3,2021_Jan_27_1301,Reversal,3.2.4,59.97051846411794,
17,exp3.png,exp4.png,2,0,2,0,0,17,17,17,,,,,,,,,,,,,,,,,,,,,,,,,False,57,58,False,exp3.png,exp4.png,trial_right_image,-1,exp4.png,3,exp4.png,exp3.png,1,1,non-reversed,correct,0.9206377226957673,1,valid_win,340.66451509995386,34,,,,,,,,,,,s_051,3,2021_Jan_27_1301,Reversal,3.2.4,59.97051846411794,
18,exp1.png,exp2.png,2,0,2,0,0,18,18,18,,,,,,,,,,,,,,,,,,,,,,,,,False,58,59,True,exp2.png,exp1.png,trial_left_image,1,exp2.png,3,exp2.png,exp1.png,1,3,reversed,correct,0.21055134122675934,0,invalid_lose,344.67980900011025,34,,,,,,,,,,,s_051,3,2021_Jan_27_1301,Reversal,3.2.4,59.97051846411794,
19,exp3.png,exp4.png,2,0,2,0,0,19,19,19,,,,,,,,,,,,,,,,,,,,,,,,,False,59,60,False,exp3.png,exp4.png,trial_left_image,1,exp3.png,3,exp4.png,exp3.png,0,2,non-reversed,incorrect,0.32635991756458105,0,valid_lose,348.7618293000851,34,,,,,,,,,,,s_051,3,2021_Jan_27_1301,Reversal,3.2.4,59.97051846411794,
20,exp1.png,exp2.png,2,0,2,0,0,20,20,20,,,,,,,,,,,,,,,,,,,,,,,,,True,,,,,,,,,,,,,,,,,,,,,,,,,,,,,,,s_051,3,2021_Jan_27_1301,Reversal,3.2.4,59.97051846411794,
,,,2,0,2,0,,,,,0,0,0,0,,,,,,,,,,,,,,,,,,,,,,,,,,,,,,,,,,,,,,,,,,18,79,25,81,,,,,,,s_051,3,2021_Jan_27_1301,Reversal,3.2.4,59.97051846411794,
0,exp1.png,exp2.png,,,,,,,,,,,,,,,,,0,0,0,0,0,0,0,0,,,,,,,,,False,0,61,True,exp2.png,exp1.png,trial_left_image,1,exp2.png,3,exp1.png,exp2.png,1,3,reversed,incorrect,0.7900195514646551,0,valid_lose,372.0867159999907,34,,,,,370.10111739998683,,,,,,s_051,3,2021_Jan_27_1301,Reversal,3.2.4,59.97051846411794,
1,exp3.png,exp4.png,,,,,,,,,,,,,,,,,0,0,0,0,0,1,1,1,,,,,,,,,False,1,62,True,exp4.png,exp3.png,trial_right_image,-1,exp3.png,3,exp4.png,exp3.png,0,2,non-reversed,incorrect,0.16471241664089864,1,invalid_win,376.15161189995706,35,,,,,,,,,,,s_051,3,2021_Jan_27_1301,Reversal,3.2.4,59.97051846411794,
2,exp1.png,exp2.png,,,,,,,,,,,,,,,,,0,0,0,0,0,2,2,2,,,,,,,,,False,2,63,True,exp2.png,exp1.png,trial_right_image,-1,exp1.png,3,exp1.png,exp2.png,0,4,reversed,correct,0.21703344257076962,0,invalid_lose,380.13501600013115,35,,,,,,,,,,,s_051,3,2021_Jan_27_1301,Reversal,3.2.4,59.97051846411794,
3,exp3.png,exp4.png,,,,,,,,,,,,,,,,,0,0,0,0,0,3,3,3,,,,,,,,,False,3,64,False,exp3.png,exp4.png,trial_right_image,-1,exp4.png,3,exp4.png,exp3.png,1,1,non-reversed,correct,0.7501819131352202,1,valid_win,384.21612130012363,36,,,,,,,,,,,s_051,3,2021_Jan_27_1301,Reversal,3.2.4,59.97051846411794,
4,exp1.png,exp2.png,,,,,,,,,,,,,,,,,0,0,0,0,0,4,4,4,,,,,,,,,False,4,65,False,exp1.png,exp2.png,trial_right_image,-1,exp2.png,3,exp1.png,exp2.png,1,3,reversed,incorrect,0.6104454125668621,0,valid_lose,388.3149522000458,36,,,,,,,,,,,s_051,3,2021_Jan_27_1301,Reversal,3.2.4,59.97051846411794,
5,exp3.png,exp4.png,,,,,,,,,,,,,,,,,0,0,0,0,0,5,5,5,,,,,,,,,False,5,66,True,exp4.png,exp3.png,trial_left_image,1,exp4.png,3,exp4.png,exp3.png,1,1,non-reversed,correct,0.06296329053215344,0,invalid_lose,392.597294599982,36,,,,,,,,,,,s_051,3,2021_Jan_27_1301,Reversal,3.2.4,59.97051846411794,
6,exp1.png,exp2.png,,,,,,,,,,,,,,,,,0,0,0,0,0,6,6,6,,,,,,,,,False,6,67,False,exp1.png,exp2.png,trial_right_image,-1,exp2.png,3,exp1.png,exp2.png,1,3,reversed,incorrect,0.8740695290918178,0,valid_lose,396.59487530007027,36,,,,,,,,,,,s_051,3,2021_Jan_27_1301,Reversal,3.2.4,59.97051846411794,
7,exp3.png,exp4.png,,,,,,,,,,,,,,,,,0,0,0,0,0,7,7,7,,,,,,,,,False,7,68,False,exp3.png,exp4.png,trial_right_image,-1,exp4.png,3,exp4.png,exp3.png,1,1,non-reversed,correct,0.4215273251513856,1,valid_win,400.6608714000322,37,,,,,,,,,,,s_051,3,2021_Jan_27_1301,Reversal,3.2.4,59.97051846411794,
8,exp1.png,exp2.png,,,,,,,,,,,,,,,,,0,0,0,0,0,8,8,8,,,,,,,,,False,8,69,True,exp2.png,exp1.png,trial_left_image,1,exp2.png,3,exp1.png,exp2.png,1,3,reversed,incorrect,0.4761516593807099,0,valid_lose,404.6929599000141,37,,,,,,,,,,,s_051,3,2021_Jan_27_1301,Reversal,3.2.4,59.97051846411794,
9,exp3.png,exp4.png,,,,,,,,,,,,,,,,,0,0,0,0,0,9,9,9,,,,,,,,,False,9,70,True,exp4.png,exp3.png,trial_left_image,1,exp4.png,3,exp4.png,exp3.png,1,1,non-reversed,correct,0.020265954607870507,0,invalid_lose,408.75783929997124,37,,,,,,,,,,,s_051,3,2021_Jan_27_1301,Reversal,3.2.4,59.97051846411794,
10,exp1.png,exp2.png,,,,,,,,,,,,,,,,,0,0,0,0,0,10,10,10,,,,,,,,,False,10,71,False,exp1.png,exp2.png,trial_right_image,-1,exp2.png,3,exp1.png,exp2.png,1,3,reversed,incorrect,0.9436538539604846,0,valid_lose,413.23912689997815,37,,,,,,,,,,,s_051,3,2021_Jan_27_1301,Reversal,3.2.4,59.97051846411794,
11,exp3.png,exp4.png,,,,,,,,,,,,,,,,,0,0,0,0,0,11,11,11,,,,,,,,,False,11,72,False,exp3.png,exp4.png,trial_right_image,-1,exp4.png,3,exp4.png,exp3.png,1,1,non-reversed,correct,0.7234921200833928,1,valid_win,417.97069580014795,38,,,,,,,,,,,s_051,3,2021_Jan_27_1301,Reversal,3.2.4,59.97051846411794,
12,exp1.png,exp2.png,,,,,,,,,,,,,,,,,0,0,0,0,0,12,12,12,,,,,,,,,False,12,73,False,exp1.png,exp2.png,trial_right_image,-1,exp2.png,3,exp1.png,exp2.png,1,3,reversed,incorrect,0.9856762685979636,0,valid_lose,422.30490480014123,38,,,,,,,,,,,s_051,3,2021_Jan_27_1301,Reversal,3.2.4,59.97051846411794,
13,exp3.png,exp4.png,,,,,,,,,,,,,,,,,0,0,0,0,0,13,13,13,,,,,,,,,False,13,74,False,exp3.png,exp4.png,trial_left_image,1,exp3.png,3,exp4.png,exp3.png,0,2,non-reversed,incorrect,0.5321724244307656,0,valid_lose,426.3010138000827,38,,,,,,,,,,,s_051,3,2021_Jan_27_1301,Reversal,3.2.4,59.97051846411794,
14,exp1.png,exp2.png,,,,,,,,,,,,,,,,,0,0,0,0,0,14,14,14,,,,,,,,,False,14,75,False,exp1.png,exp2.png,trial_left_image,1,exp1.png,3,exp1.png,exp2.png,0,4,reversed,correct,0.6462111201204026,1,valid_win,430.41753989993595,39,,,,,,,,,,,s_051,3,2021_Jan_27_1301,Reversal,3.2.4,59.97051846411794,
15,exp3.png,exp4.png,,,,,,,,,,,,,,,,,0,0,0,0,0,15,15,15,,,,,,,,,False,15,76,True,exp4.png,exp3.png,trial_right_image,-1,exp3.png,3,exp4.png,exp3.png,0,2,non-reversed,incorrect,0.6578521332967471,0,valid_lose,434.4823674999643,39,,,,,,,,,,,s_051,3,2021_Jan_27_1301,Reversal,3.2.4,59.97051846411794,
16,exp1.png,exp2.png,,,,,,,,,,,,,,,,,0,0,0,0,0,16,16,16,,,,,,,,,False,16,77,True,exp2.png,exp1.png,trial_right_image,-1,exp1.png,3,exp1.png,exp2.png,0,4,reversed,correct,0.011406278934915859,0,invalid_lose,438.5143669000827,39,,,,,,,,,,,s_051,3,2021_Jan_27_1301,Reversal,3.2.4,59.97051846411794,
17,exp3.png,exp4.png,,,,,,,,,,,,,,,,,0,0,0,0,0,17,17,17,,,,,,,,,False,17,78,True,exp4.png,exp3.png,trial_left_image,1,exp4.png,3,exp4.png,exp3.png,1,1,non-reversed,correct,0.42825324998782466,1,valid_win,443.1132110999897,40,,,,,,,,,,,s_051,3,2021_Jan_27_1301,Reversal,3.2.4,59.97051846411794,
18,exp1.png,exp2.png,,,,,,,,,,,,,,,,,0,0,0,0,0,18,18,18,,,,,,,,,False,18,79,True,exp2.png,exp1.png,trial_left_image,1,exp2.png,3,exp1.png,exp2.png,1,3,reversed,incorrect,0.02521264460043504,1,invalid_win,447.7791697999928,41,,,,,,,,,,,s_051,3,2021_Jan_27_1301,Reversal,3.2.4,59.97051846411794,
19,exp3.png,exp4.png,,,,,,,,,,,,,,,,,0,0,0,0,0,19,19,19,,,,,,,,,False,19,80,False,exp3.png,exp4.png,trial_right_image,-1,exp4.png,3,exp4.png,exp3.png,1,1,non-reversed,correct,0.42245638124715545,1,valid_win,451.8107040999457,42,,,,,,,,,,,s_051,3,2021_Jan_27_1301,Reversal,3.2.4,59.97051846411794,
20,exp1.png,exp2.png,,,,,,,,,,,,,,,,,0,0,0,0,0,20,20,20,,,,,,,,,True,,,,,,,,,,,,,,,,,,,,,,,,,,,,,,,s_051,3,2021_Jan_27_1301,Reversal,3.2.4,59.97051846411794,
,,,,,,,,,,,,,,,,,,,0,0,0,0,,,,,0,0,0,0,,,,,,,,,,,,,,,,,,,,,,,,,,67,29,51,50.0,,,,,,,s_051,3,2021_Jan_27_1301,Reversal,3.2.4,59.97051846411794,
0,exp1.png,exp2.png,,,,,,,,,,,,,,,,,1,0,1,0,0,0,0,0,,,,,,,,,False,20,81,True,exp2.png,exp1.png,trial_left_image,1,exp2.png,3,exp1.png,exp2.png,1,3,reversed,incorrect,0.6067851531584644,0,valid_lose,472.66944409999996,42,,,,,,,,,,,s_051,3,2021_Jan_27_1301,Reversal,3.2.4,59.97051846411794,
1,exp3.png,exp4.png,,,,,,,,,,,,,,,,,1,0,1,0,0,1,1,1,,,,,,,,,False,21,82,False,exp3.png,exp4.png,trial_right_image,-1,exp4.png,3,exp4.png,exp3.png,1,1,non-reversed,correct,0.6465087411648738,1,valid_win,476.60161880007945,43,,,,,,,,,,,s_051,3,2021_Jan_27_1301,Reversal,3.2.4,59.97051846411794,
2,exp1.png,exp2.png,,,,,,,,,,,,,,,,,1,0,1,0,0,2,2,2,,,,,,,,,False,22,83,True,exp2.png,exp1.png,trial_left_image,1,exp2.png,3,exp1.png,exp2.png,1,3,reversed,incorrect,0.2902225511653307,0,valid_lose,480.5675451999996,43,,,,,,,,,,,s_051,3,2021_Jan_27_1301,Reversal,3.2.4,59.97051846411794,
3,exp3.png,exp4.png,,,,,,,,,,,,,,,,,1,0,1,0,0,3,3,3,,,,,,,,,False,23,84,False,exp3.png,exp4.png,trial_left_image,1,exp3.png,3,exp4.png,exp3.png,0,2,non-reversed,incorrect,0.8884829102589985,0,valid_lose,484.53188070002943,43,,,,,,,,,,,s_051,3,2021_Jan_27_1301,Reversal,3.2.4,59.97051846411794,
4,exp1.png,exp2.png,,,,,,,,,,,,,,,,,1,0,1,0,0,4,4,4,,,,,,,,,False,24,85,True,exp2.png,exp1.png,trial_left_image,1,exp2.png,3,exp1.png,exp2.png,1,3,reversed,incorrect,0.735864481657401,0,valid_lose,488.4806689999532,43,,,,,,,,,,,s_051,3,2021_Jan_27_1301,Reversal,3.2.4,59.97051846411794,
5,exp3.png,exp4.png,,,,,,,,,,,,,,,,,1,0,1,0,0,5,5,5,,,,,,,,,False,25,86,False,exp3.png,exp4.png,trial_left_image,1,exp3.png,3,exp4.png,exp3.png,0,2,non-reversed,incorrect,0.8427487368409442,0,valid_lose,492.59617649996653,43,,,,,,,,,,,s_051,3,2021_Jan_27_1301,Reversal,3.2.4,59.97051846411794,
6,exp1.png,exp2.png,,,,,,,,,,,,,,,,,1,0,1,0,0,6,6,6,,,,,,,,,False,26,87,True,exp2.png,exp1.png,trial_left_image,1,exp2.png,3,exp1.png,exp2.png,1,3,reversed,incorrect,0.4022661202552781,0,valid_lose,497.4114796000067,43,,,,,,,,,,,s_051,3,2021_Jan_27_1301,Reversal,3.2.4,59.97051846411794,
7,exp3.png,exp4.png,,,,,,,,,,,,,,,,,1,0,1,0,0,7,7,7,,,,,,,,,False,27,88,True,exp4.png,exp3.png,trial_left_image,1,exp4.png,3,exp4.png,exp3.png,1,1,non-reversed,correct,0.7665367470676868,1,valid_win,501.59308829996735,44,,,,,,,,,,,s_051,3,2021_Jan_27_1301,Reversal,3.2.4,59.97051846411794,
8,exp1.png,exp2.png,,,,,,,,,,,,,,,,,1,0,1,0,0,8,8,8,,,,,,,,,False,28,89,True,exp2.png,exp1.png,trial_left_image,1,exp2.png,3,exp1.png,exp2.png,1,3,reversed,incorrect,0.5421325348976428,0,valid_lose,506.20755920000374,44,,,,,,,,,,,s_051,3,2021_Jan_27_1301,Reversal,3.2.4,59.97051846411794,
9,exp3.png,exp4.png,,,,,,,,,,,,,,,,,1,0,1,0,0,9,9,9,,,,,,,,,False,29,90,True,exp4.png,exp3.png,trial_right_image,-1,exp3.png,3,exp4.png,exp3.png,0,2,non-reversed,incorrect,0.9736315960862559,0,valid_lose,510.5569376000203,44,,,,,,,,,,,s_051,3,2021_Jan_27_1301,Reversal,3.2.4,59.97051846411794,
10,exp1.png,exp2.png,,,,,,,,,,,,,,,,,1,0,1,0,0,10,10,10,,,,,,,,,False,30,91,False,exp1.png,exp2.png,trial_left_image,1,exp1.png,3,exp1.png,exp2.png,0,4,reversed,correct,0.21505376321182768,0,invalid_lose,515.604880800005,44,,,,,,,,,,,s_051,3,2021_Jan_27_1301,Reversal,3.2.4,59.97051846411794,
11,exp3.png,exp4.png,,,,,,,,,,,,,,,,,1,0,1,0,0,11,11,11,,,,,,,,,False,31,92,False,exp3.png,exp4.png,trial_left_image,1,exp3.png,3,exp4.png,exp3.png,0,2,non-reversed,incorrect,0.038440034969471126,1,invalid_win,519.9707529000007,45,,,,,,,,,,,s_051,3,2021_Jan_27_1301,Reversal,3.2.4,59.97051846411794,
12,exp1.png,exp2.png,,,,,,,,,,,,,,,,,1,0,1,0,0,12,12,12,,,,,,,,,False,32,93,False,exp1.png,exp2.png,trial_right_image,-1,exp2.png,3,exp1.png,exp2.png,1,3,reversed,incorrect,0.06973435901936198,1,invalid_win,525.0675606001168,46,,,,,,,,,,,s_051,3,2021_Jan_27_1301,Reversal,3.2.4,59.97051846411794,
13,exp3.png,exp4.png,,,,,,,,,,,,,,,,,1,0,1,0,0,13,13,13,,,,,,,,,False,33,94,False,exp3.png,exp4.png,trial_right_image,-1,exp4.png,3,exp4.png,exp3.png,1,1,non-reversed,correct,0.31736589178751096,1,valid_win,529.7668081999291,47,,,,,,,,,,,s_051,3,2021_Jan_27_1301,Reversal,3.2.4,59.97051846411794,
14,exp1.png,exp2.png,,,,,,,,,,,,,,,,,1,0,1,0,0,14,14,14,,,,,,,,,False,34,95,True,exp2.png,exp1.png,trial_left_image,1,exp2.png,3,exp1.png,exp2.png,1,3,reversed,incorrect,0.2026474572807183,1,invalid_win,533.7165435000788,48,,,,,,,,,,,s_051,3,2021_Jan_27_1301,Reversal,3.2.4,59.97051846411794,
15,exp3.png,exp4.png,,,,,,,,,,,,,,,,,1,0,1,0,0,15,15,15,,,,,,,,,False,35,96,False,exp3.png,exp4.png,trial_right_image,-1,exp4.png,3,exp4.png,exp3.png,1,1,non-reversed,correct,0.2975658679827313,1,valid_win,537.6640838000458,49,,,,,,,,,,,s_051,3,2021_Jan_27_1301,Reversal,3.2.4,59.97051846411794,
16,exp1.png,exp2.png,,,,,,,,,,,,,,,,,1,0,1,0,0,16,16,16,,,,,,,,,False,36,97,False,exp1.png,exp2.png,trial_right_image,-1,exp2.png,3,exp1.png,exp2.png,1,3,reversed,incorrect,0.4275107893331672,0,valid_lose,541.6621034001,49,,,,,,,,,,,s_051,3,2021_Jan_27_1301,Reversal,3.2.4,59.97051846411794,
17,exp3.png,exp4.png,,,,,,,,,,,,,,,,,1,0,1,0,0,17,17,17,,,,,,,,,False,37,98,True,exp4.png,exp3.png,trial_right_image,-1,exp3.png,3,exp4.png,exp3.png,0,2,non-reversed,incorrect,0.21252056483458748,1,invalid_win,545.7279972000979,50,,,,,,,,,,,s_051,3,2021_Jan_27_1301,Reversal,3.2.4,59.97051846411794,
18,exp1.png,exp2.png,,,,,,,,,,,,,,,,,1,0,1,0,0,18,18,18,,,,,,,,,False,38,99,True,exp2.png,exp1.png,trial_left_image,1,exp2.png,3,exp1.png,exp2.png,1,3,reversed,incorrect,0.9729083795603282,0,valid_lose,551.0607148001436,50,,,,,,,,,,,s_051,3,2021_Jan_27_1301,Reversal,3.2.4,59.97051846411794,
19,exp3.png,exp4.png,,,,,,,,,,,,,,,,,1,0,1,0,0,19,19,19,,,,,,,,,False,39,100,False,exp3.png,exp4.png,trial_right_image,-1,exp4.png,3,exp4.png,exp3.png,1,1,non-reversed,correct,0.3057249166514209,1,valid_win,555.0576945000794,51,,,,,,,,,,,s_051,3,2021_Jan_27_1301,Reversal,3.2.4,59.97051846411794,
20,exp1.png,exp2.png,,,,,,,,,,,,,,,,,1,0,1,0,0,20,20,20,,,,,,,,,True,,,,,,,,,,,,,,,,,,,,,,,,,,,,,,,s_051,3,2021_Jan_27_1301,Reversal,3.2.4,59.97051846411794,
,,,,,,,,,,,,,,,,,,,1,0,1,0,,,,,0,0,0,0,,,,,,,,,,,,,,,,,,,,,,,,,,67,36,29,74,,,,,,,s_051,3,2021_Jan_27_1301,Reversal,3.2.4,59.97051846411794,
0,exp1.png,exp2.png,,,,,,,,,,,,,,,,,2,0,2,0,0,0,0,0,,,,,,,,,False,40,101,True,exp2.png,exp1.png,trial_right_image,-1,exp1.png,3,exp1.png,exp2.png,0,4,reversed,correct,0.4889213891122334,1,valid_win,568.921075399965,52,,,,,,,,,,,s_051,3,2021_Jan_27_1301,Reversal,3.2.4,59.97051846411794,
1,exp3.png,exp4.png,,,,,,,,,,,,,,,,,2,0,2,0,0,1,1,1,,,,,,,,,False,41,102,False,exp3.png,exp4.png,trial_right_image,-1,exp4.png,3,exp4.png,exp3.png,1,1,non-reversed,correct,0.2783585095682448,1,valid_win,573.7521695999894,53,,,,,,,,,,,s_051,3,2021_Jan_27_1301,Reversal,3.2.4,59.97051846411794,
2,exp1.png,exp2.png,,,,,,,,,,,,,,,,,2,0,2,0,0,2,2,2,,,,,,,,,False,42,103,True,exp2.png,exp1.png,trial_left_image,1,exp2.png,3,exp1.png,exp2.png,1,3,reversed,incorrect,0.6034223962322605,0,valid_lose,578.7502868000884,53,,,,,,,,,,,s_051,3,2021_Jan_27_1301,Reversal,3.2.4,59.97051846411794,
3,exp3.png,exp4.png,,,,,,,,,,,,,,,,,2,0,2,0,0,3,3,3,,,,,,,,,False,43,104,False,exp3.png,exp4.png,trial_left_image,1,exp3.png,3,exp4.png,exp3.png,0,2,non-reversed,incorrect,0.9646471011557399,0,valid_lose,582.7490300999489,53,,,,,,,,,,,s_051,3,2021_Jan_27_1301,Reversal,3.2.4,59.97051846411794,
4,exp1.png,exp2.png,,,,,,,,,,,,,,,,,2,0,2,0,0,4,4,4,,,,,,,,,False,44,105,True,exp2.png,exp1.png,trial_left_image,1,exp2.png,3,exp1.png,exp2.png,1,3,reversed,incorrect,0.028266160937211127,1,invalid_win,587.0301630999893,54,,,,,,,,,,,s_051,3,2021_Jan_27_1301,Reversal,3.2.4,59.97051846411794,
5,exp3.png,exp4.png,,,,,,,,,,,,,,,,,2,0,2,0,0,5,5,5,,,,,,,,,False,45,106,False,exp3.png,exp4.png,trial_left_image,1,exp3.png,3,exp4.png,exp3.png,0,2,non-reversed,incorrect,0.9460560435781457,0,valid_lose,593.5787879999261,54,,,,,,,,,,,s_051,3,2021_Jan_27_1301,Reversal,3.2.4,59.97051846411794,
6,exp1.png,exp2.png,,,,,,,,,,,,,,,,,2,0,2,0,0,6,6,6,,,,,,,,,False,46,107,False,exp1.png,exp2.png,trial_right_image,-1,exp2.png,3,exp1.png,exp2.png,1,3,reversed,incorrect,0.10511279395217688,1,invalid_win,598.0264968001284,55,,,,,,,,,,,s_051,3,2021_Jan_27_1301,Reversal,3.2.4,59.97051846411794,
7,exp3.png,exp4.png,,,,,,,,,,,,,,,,,2,0,2,0,0,7,7,7,,,,,,,,,False,47,108,True,exp4.png,exp3.png,trial_left_image,1,exp4.png,3,exp4.png,exp3.png,1,1,non-reversed,correct,0.3650675169225007,1,valid_win,602.8254195000045,56,,,,,,,,,,,s_051,3,2021_Jan_27_1301,Reversal,3.2.4,59.97051846411794,
8,exp1.png,exp2.png,,,,,,,,,,,,,,,,,2,0,2,0,0,8,8,8,,,,,,,,,False,48,109,True,exp2.png,exp1.png,trial_right_image,-1,exp1.png,3,exp1.png,exp2.png,0,4,reversed,correct,0.5735574572674685,1,valid_win,608.1391644999385,57,,,,,,,,,,,s_051,3,2021_Jan_27_1301,Reversal,3.2.4,59.97051846411794,
9,exp3.png,exp4.png,,,,,,,,,,,,,,,,,2,0,2,0,0,9,9,9,,,,,,,,,False,49,110,False,exp3.png,exp4.png,trial_left_image,1,exp3.png,3,exp4.png,exp3.png,0,2,non-reversed,incorrect,0.4957224023372586,0,valid_lose,612.8885365999304,57,,,,,,,,,,,s_051,3,2021_Jan_27_1301,Reversal,3.2.4,59.97051846411794,
10,exp1.png,exp2.png,,,,,,,,,,,,,,,,,2,0,2,0,0,10,10,10,,,,,,,,,False,50,111,True,exp2.png,exp1.png,trial_left_image,1,exp2.png,3,exp1.png,exp2.png,1,3,reversed,incorrect,0.10585499607584514,1,invalid_win,617.5528839000035,58,,,,,,,,,,,s_051,3,2021_Jan_27_1301,Reversal,3.2.4,59.97051846411794,
11,exp3.png,exp4.png,,,,,,,,,,,,,,,,,2,0,2,0,0,11,11,11,,,,,,,,,False,51,112,True,exp4.png,exp3.png,trial_right_image,-1,exp3.png,3,exp4.png,exp3.png,0,2,non-reversed,incorrect,0.2433609620244841,1,invalid_win,622.8528555000667,59,,,,,,,,,,,s_051,3,2021_Jan_27_1301,Reversal,3.2.4,59.97051846411794,
12,exp1.png,exp2.png,,,,,,,,,,,,,,,,,2,0,2,0,0,12,12,12,,,,,,,,,False,52,113,True,exp2.png,exp1.png,trial_left_image,1,exp2.png,3,exp1.png,exp2.png,1,3,reversed,incorrect,0.8781567673544644,0,valid_lose,626.8999336000998,59,,,,,,,,,,,s_051,3,2021_Jan_27_1301,Reversal,3.2.4,59.97051846411794,
13,exp3.png,exp4.png,,,,,,,,,,,,,,,,,2,0,2,0,0,13,13,13,,,,,,,,,False,53,114,False,exp3.png,exp4.png,trial_right_image,-1,exp4.png,3,exp4.png,exp3.png,1,1,non-reversed,correct,0.7251662627346688,1,valid_win,631.1484944999684,60,,,,,,,,,,,s_051,3,2021_Jan_27_1301,Reversal,3.2.4,59.97051846411794,
14,exp1.png,exp2.png,,,,,,,,,,,,,,,,,2,0,2,0,0,14,14,14,,,,,,,,,False,54,115,True,exp2.png,exp1.png,trial_left_image,1,exp2.png,3,exp1.png,exp2.png,1,3,reversed,incorrect,0.2623910635121923,0,valid_lose,635.0149829001166,60,,,,,,,,,,,s_051,3,2021_Jan_27_1301,Reversal,3.2.4,59.97051846411794,
15,exp3.png,exp4.png,,,,,,,,,,,,,,,,,2,0,2,0,0,15,15,15,,,,,,,,,False,55,116,False,exp3.png,exp4.png,trial_left_image,1,exp3.png,3,exp4.png,exp3.png,0,2,non-reversed,incorrect,0.8253998241220118,0,valid_lose,640.1621083000209,60,,,,,,,,,,,s_051,3,2021_Jan_27_1301,Reversal,3.2.4,59.97051846411794,
16,exp1.png,exp2.png,,,,,,,,,,,,,,,,,2,0,2,0,0,16,16,16,,,,,,,,,False,56,117,False,exp1.png,exp2.png,trial_right_image,-1,exp2.png,3,exp1.png,exp2.png,1,3,reversed,incorrect,0.5353070273220121,0,valid_lose,644.0619552999269,60,,,,,,,,,,,s_051,3,2021_Jan_27_1301,Reversal,3.2.4,59.97051846411794,
17,exp3.png,exp4.png,,,,,,,,,,,,,,,,,2,0,2,0,0,17,17,17,,,,,,,,,False,57,118,False,exp3.png,exp4.png,trial_left_image,1,exp3.png,3,exp4.png,exp3.png,0,2,non-reversed,incorrect,0.8569869467370366,0,valid_lose,648.344111100072,60,,,,,,,,,,,s_051,3,2021_Jan_27_1301,Reversal,3.2.4,59.97051846411794,
18,exp1.png,exp2.png,,,,,,,,,,,,,,,,,2,0,2,0,0,18,18,18,,,,,,,,,False,58,119,False,exp1.png,exp2.png,trial_right_image,-1,exp2.png,3,exp1.png,exp2.png,1,3,reversed,incorrect,0.17760456277811654,1,invalid_win,652.4753248000052,61,,,,,,,,,,,s_051,3,2021_Jan_27_1301,Reversal,3.2.4,59.97051846411794,
19,exp3.png,exp4.png,,,,,,,,,,,,,,,,,2,0,2,0,0,19,19,19,,,,,,,,,False,59,120,True,exp4.png,exp3.png,trial_right_image,-1,exp3.png,3,exp4.png,exp3.png,0,2,non-reversed,incorrect,0.3623616970771455,0,valid_lose,656.5736851000693,61,,,,,,,,,,,s_051,3,2021_Jan_27_1301,Reversal,3.2.4,59.97051846411794,
20,exp1.png,exp2.png,,,,,,,,,,,,,,,,,2,0,2,0,0,20,20,20,,,,,,,,,True,,,,,,,,,,,,,,,,,,,,,,,,,,,,,,,s_051,3,2021_Jan_27_1301,Reversal,3.2.4,59.97051846411794,
,,,,,,,,,,,,,,,,,,,2,0,2,0,,,,,0,0,0,0,,,,,,,,,,,,,,,,,,,,,,,,,,70,28,33,65,,,,,,,s_051,3,2021_Jan_27_1301,Reversal,3.2.4,59.97051846411794,
,,,,,,,,,,,,,,,,,,,,,,,,,,,,,,,,,,,,,,,,,,,,,,,,,,,,,,,61,,,,,,63,42,21,303.8151336000301,0,,,,,,,
