trial_index,trial_image1_file,trial_image2_file,learning_outer_loop.thisRepN,learning_outer_loop.thisTrialN,learning_outer_loop.thisN,learning_outer_loop.thisIndex,learning_inner_loop.thisRepN,learning_inner_loop.thisTrialN,learning_inner_loop.thisN,learning_inner_loop.thisIndex,learning_estimation_outer_loop.thisRepN,learning_estimation_outer_loop.thisTrialN,learning_estimation_outer_loop.thisN,learning_estimation_outer_loop.thisIndex,learning_estimation_inner_loop.thisRepN,learning_estimation_inner_loop.thisTrialN,learning_estimation_inner_loop.thisN,learning_estimation_inner_loop.thisIndex,reversal_outer_loop.thisRepN,reversal_outer_loop.thisTrialN,reversal_outer_loop.thisN,reversal_outer_loop.thisIndex,reversal_inner_loop.thisRepN,reversal_inner_loop.thisTrialN,reversal_inner_loop.thisN,reversal_inner_loop.thisIndex,reversal_estimation_outer_loop.thisRepN,reversal_estimation_outer_loop.thisTrialN,reversal_estimation_outer_loop.thisN,reversal_estimation_outer_loop.thisIndex,reversal_estimation_inner_loop.thisRepN,reversal_estimation_inner_loop.thisTrialN,reversal_estimation_inner_loop.thisN,reversal_estimation_inner_loop.thisIndex,skipped,total_trial_counter,trial_num,left_right_flip,left_image_file,right_image_file,clicked_stimulus_side,side,clicked_stimulus,version,high_prob_image_file,low_prob_image_file,choice_a,choice_b,pair_type,correct,trial_feedback_random,reward,trial_type,overall_time_after_trial,score,estimation_exp1.png,estimation_exp2.png,estimation_exp3.png,estimation_exp4.png,total_learning_time,total_correct,learning_correct,reversal_correct,total_reversal_time,extra_block,participant,ver,date,expName,psychopyVersion,frameRate,
0,exp1.png,exp2.png,0,0,0,0,0,0,0,0,,,,,,,,,,,,,,,,,,,,,,,,,True,,,,,,,,,,,,,,,,,,,,,,,,,,,,,,,s_053,4,2021_Feb_03_1036,Reversal,3.2.4,59.95419499347753,
1,exp3.png,exp4.png,0,0,0,0,0,1,1,1,,,,,,,,,,,,,,,,,,,,,,,,,False,0,1,False,exp3.png,exp4.png,trial_right_image,-1,exp4.png,4,exp4.png,exp3.png,1,3,reversed,correct,0.4285395870522505,1,valid_win,4.094831299997168,1,,,,,,,,,,,s_053,4,2021_Feb_03_1036,Reversal,3.2.4,59.95419499347753,
2,exp1.png,exp2.png,0,0,0,0,0,2,2,2,,,,,,,,,,,,,,,,,,,,,,,,,False,1,2,True,exp2.png,exp1.png,trial_left_image,1,exp2.png,4,exp2.png,exp1.png,1,1,non-reversed,correct,0.18095277734452675,0,invalid_lose,8.826027299990528,1,,,,,,,,,,,s_053,4,2021_Feb_03_1036,Reversal,3.2.4,59.95419499347753,
3,exp3.png,exp4.png,0,0,0,0,0,3,3,3,,,,,,,,,,,,,,,,,,,,,,,,,False,2,3,True,exp4.png,exp3.png,trial_right_image,-1,exp3.png,4,exp4.png,exp3.png,0,4,reversed,incorrect,0.6300883948143998,0,valid_lose,12.957708899994032,1,,,,,,,,,,,s_053,4,2021_Feb_03_1036,Reversal,3.2.4,59.95419499347753,
4,exp1.png,exp2.png,0,0,0,0,0,4,4,4,,,,,,,,,,,,,,,,,,,,,,,,,False,3,4,False,exp1.png,exp2.png,trial_right_image,-1,exp2.png,4,exp2.png,exp1.png,1,1,non-reversed,correct,0.9545940226333366,1,valid_win,17.1233218999987,2,,,,,,,,,,,s_053,4,2021_Feb_03_1036,Reversal,3.2.4,59.95419499347753,
5,exp3.png,exp4.png,0,0,0,0,0,5,5,5,,,,,,,,,,,,,,,,,,,,,,,,,False,4,5,True,exp4.png,exp3.png,trial_left_image,1,exp4.png,4,exp4.png,exp3.png,1,3,reversed,correct,0.2938772273023045,1,valid_win,21.53850659998716,3,,,,,,,,,,,s_053,4,2021_Feb_03_1036,Reversal,3.2.4,59.95419499347753,
6,exp1.png,exp2.png,0,0,0,0,0,6,6,6,,,,,,,,,,,,,,,,,,,,,,,,,False,5,6,True,exp2.png,exp1.png,trial_right_image,-1,exp1.png,4,exp2.png,exp1.png,0,2,non-reversed,incorrect,0.9243433256305791,0,valid_lose,25.753584399993997,3,,,,,,,,,,,s_053,4,2021_Feb_03_1036,Reversal,3.2.4,59.95419499347753,
7,exp3.png,exp4.png,0,0,0,0,0,7,7,7,,,,,,,,,,,,,,,,,,,,,,,,,False,6,7,False,exp3.png,exp4.png,trial_left_image,1,exp3.png,4,exp4.png,exp3.png,0,4,reversed,incorrect,0.5233948985139535,0,valid_lose,29.96928969999135,3,,,,,,,,,,,s_053,4,2021_Feb_03_1036,Reversal,3.2.4,59.95419499347753,
8,exp1.png,exp2.png,0,0,0,0,0,8,8,8,,,,,,,,,,,,,,,,,,,,,,,,,False,7,8,False,exp1.png,exp2.png,trial_left_image,1,exp1.png,4,exp2.png,exp1.png,0,2,non-reversed,incorrect,0.012440607025788086,1,invalid_win,33.8510346999974,4,,,,,,,,,,,s_053,4,2021_Feb_03_1036,Reversal,3.2.4,59.95419499347753,
9,exp3.png,exp4.png,0,0,0,0,0,9,9,9,,,,,,,,,,,,,,,,,,,,,,,,,False,8,9,True,exp4.png,exp3.png,trial_right_image,-1,exp3.png,4,exp4.png,exp3.png,0,4,reversed,incorrect,0.40819837625686006,0,valid_lose,38.61645899999712,4,,,,,,,,,,,s_053,4,2021_Feb_03_1036,Reversal,3.2.4,59.95419499347753,
10,exp1.png,exp2.png,0,0,0,0,0,10,10,10,,,,,,,,,,,,,,,,,,,,,,,,,False,9,10,False,exp1.png,exp2.png,trial_left_image,1,exp1.png,4,exp2.png,exp1.png,0,2,non-reversed,incorrect,0.7645538247379184,0,valid_lose,43.14768969999568,4,,,,,,,,,,,s_053,4,2021_Feb_03_1036,Reversal,3.2.4,59.95419499347753,
11,exp3.png,exp4.png,0,0,0,0,0,11,11,11,,,,,,,,,,,,,,,,,,,,,,,,,False,10,11,False,exp3.png,exp4.png,trial_left_image,1,exp3.png,4,exp4.png,exp3.png,0,4,reversed,incorrect,0.29790517465846433,0,valid_lose,48.14520279999124,4,,,,,,,,,,,s_053,4,2021_Feb_03_1036,Reversal,3.2.4,59.95419499347753,
12,exp1.png,exp2.png,0,0,0,0,0,12,12,12,,,,,,,,,,,,,,,,,,,,,,,,,False,11,12,True,exp2.png,exp1.png,trial_right_image,-1,exp1.png,4,exp2.png,exp1.png,0,2,non-reversed,incorrect,0.7618277746621264,0,valid_lose,53.810295399991446,4,,,,,,,,,,,s_053,4,2021_Feb_03_1036,Reversal,3.2.4,59.95419499347753,
13,exp3.png,exp4.png,0,0,0,0,0,13,13,13,,,,,,,,,,,,,,,,,,,,,,,,,False,12,13,False,exp3.png,exp4.png,trial_right_image,-1,exp4.png,4,exp4.png,exp3.png,1,3,reversed,correct,0.13942861768346626,0,invalid_lose,58.35910769998736,4,,,,,,,,,,,s_053,4,2021_Feb_03_1036,Reversal,3.2.4,59.95419499347753,
14,exp1.png,exp2.png,0,0,0,0,0,14,14,14,,,,,,,,,,,,,,,,,,,,,,,,,False,13,14,False,exp1.png,exp2.png,trial_left_image,1,exp1.png,4,exp2.png,exp1.png,0,2,non-reversed,incorrect,0.5136731550510844,0,valid_lose,63.75747319999209,4,,,,,,,,,,,s_053,4,2021_Feb_03_1036,Reversal,3.2.4,59.95419499347753,
15,exp3.png,exp4.png,0,0,0,0,0,15,15,15,,,,,,,,,,,,,,,,,,,,,,,,,False,14,15,True,exp4.png,exp3.png,trial_left_image,1,exp4.png,4,exp4.png,exp3.png,1,3,reversed,correct,0.9455384447285412,1,valid_win,69.83886669999629,5,,,,,,,,,,,s_053,4,2021_Feb_03_1036,Reversal,3.2.4,59.95419499347753,
16,exp1.png,exp2.png,0,0,0,0,0,16,16,16,,,,,,,,,,,,,,,,,,,,,,,,,False,15,16,True,exp2.png,exp1.png,trial_right_image,-1,exp1.png,4,exp2.png,exp1.png,0,2,non-reversed,incorrect,0.9297604742749396,0,valid_lose,74.03760469998815,5,,,,,,,,,,,s_053,4,2021_Feb_03_1036,Reversal,3.2.4,59.95419499347753,
17,exp3.png,exp4.png,0,0,0,0,0,17,17,17,,,,,,,,,,,,,,,,,,,,,,,,,False,16,17,True,exp4.png,exp3.png,trial_right_image,-1,exp3.png,4,exp4.png,exp3.png,0,4,reversed,incorrect,0.16951661608981083,1,invalid_win,78.03555309999501,6,,,,,,,,,,,s_053,4,2021_Feb_03_1036,Reversal,3.2.4,59.95419499347753,
18,exp1.png,exp2.png,0,0,0,0,0,18,18,18,,,,,,,,,,,,,,,,,,,,,,,,,False,17,18,False,exp1.png,exp2.png,trial_left_image,1,exp1.png,4,exp2.png,exp1.png,0,2,non-reversed,incorrect,0.7117649259235125,0,valid_lose,82.15154199999233,6,,,,,,,,,,,s_053,4,2021_Feb_03_1036,Reversal,3.2.4,59.95419499347753,
19,exp3.png,exp4.png,0,0,0,0,0,19,19,19,,,,,,,,,,,,,,,,,,,,,,,,,False,18,19,False,exp3.png,exp4.png,trial_left_image,1,exp3.png,4,exp4.png,exp3.png,0,4,reversed,incorrect,0.6510304873233287,0,valid_lose,86.16659309998795,6,,,,,,,,,,,s_053,4,2021_Feb_03_1036,Reversal,3.2.4,59.95419499347753,
20,exp1.png,exp2.png,0,0,0,0,0,20,20,20,,,,,,,,,,,,,,,,,,,,,,,,,False,19,20,True,exp2.png,exp1.png,trial_right_image,-1,exp1.png,4,exp2.png,exp1.png,0,2,non-reversed,incorrect,0.551318118885098,0,valid_lose,90.21528099999705,6,,,,,,,,,,,s_053,4,2021_Feb_03_1036,Reversal,3.2.4,59.95419499347753,
,,,0,0,0,0,,,,,0,0,0,0,,,,,,,,,,,,,,,,,,,,,,,,,,,,,,,,,,,,,,,,,,65,42,42,62,,,,,,,s_053,4,2021_Feb_03_1036,Reversal,3.2.4,59.95419499347753,
0,exp1.png,exp2.png,1,0,1,0,0,0,0,0,,,,,,,,,,,,,,,,,,,,,,,,,True,,,,,,,,,,,,,,,,,,,,,,,,,,,,,,,s_053,4,2021_Feb_03_1036,Reversal,3.2.4,59.95419499347753,
1,exp3.png,exp4.png,1,0,1,0,0,1,1,1,,,,,,,,,,,,,,,,,,,,,,,,,False,20,21,False,exp3.png,exp4.png,trial_right_image,-1,exp4.png,4,exp4.png,exp3.png,1,3,reversed,correct,0.24689071364830661,0,invalid_lose,112.14137109999137,6,,,,,,,,,,,s_053,4,2021_Feb_03_1036,Reversal,3.2.4,59.95419499347753,
2,exp1.png,exp2.png,1,0,1,0,0,2,2,2,,,,,,,,,,,,,,,,,,,,,,,,,False,21,22,False,exp1.png,exp2.png,trial_right_image,-1,exp2.png,4,exp2.png,exp1.png,1,1,non-reversed,correct,0.8456200625621833,1,valid_win,116.70679509999172,7,,,,,,,,,,,s_053,4,2021_Feb_03_1036,Reversal,3.2.4,59.95419499347753,
3,exp3.png,exp4.png,1,0,1,0,0,3,3,3,,,,,,,,,,,,,,,,,,,,,,,,,False,22,23,False,exp3.png,exp4.png,trial_right_image,-1,exp4.png,4,exp4.png,exp3.png,1,3,reversed,correct,0.5641431572682242,1,valid_win,121.80379259999609,8,,,,,,,,,,,s_053,4,2021_Feb_03_1036,Reversal,3.2.4,59.95419499347753,
4,exp1.png,exp2.png,1,0,1,0,0,4,4,4,,,,,,,,,,,,,,,,,,,,,,,,,False,23,24,True,exp2.png,exp1.png,trial_right_image,-1,exp1.png,4,exp2.png,exp1.png,0,2,non-reversed,incorrect,0.8020842254733667,0,valid_lose,128.08547819999512,8,,,,,,,,,,,s_053,4,2021_Feb_03_1036,Reversal,3.2.4,59.95419499347753,
5,exp3.png,exp4.png,1,0,1,0,0,5,5,5,,,,,,,,,,,,,,,,,,,,,,,,,False,24,25,True,exp4.png,exp3.png,trial_left_image,1,exp4.png,4,exp4.png,exp3.png,1,3,reversed,correct,0.7185626744052771,1,valid_win,133.23452779999934,9,,,,,,,,,,,s_053,4,2021_Feb_03_1036,Reversal,3.2.4,59.95419499347753,
6,exp1.png,exp2.png,1,0,1,0,0,6,6,6,,,,,,,,,,,,,,,,,,,,,,,,,False,25,26,False,exp1.png,exp2.png,trial_right_image,-1,exp2.png,4,exp2.png,exp1.png,1,1,non-reversed,correct,0.2342853797159712,0,invalid_lose,138.43233349999355,9,,,,,,,,,,,s_053,4,2021_Feb_03_1036,Reversal,3.2.4,59.95419499347753,
7,exp3.png,exp4.png,1,0,1,0,0,7,7,7,,,,,,,,,,,,,,,,,,,,,,,,,False,26,27,True,exp4.png,exp3.png,trial_right_image,-1,exp3.png,4,exp4.png,exp3.png,0,4,reversed,incorrect,0.5783374761591454,0,valid_lose,143.38045839998813,9,,,,,,,,,,,s_053,4,2021_Feb_03_1036,Reversal,3.2.4,59.95419499347753,
8,exp1.png,exp2.png,1,0,1,0,0,8,8,8,,,,,,,,,,,,,,,,,,,,,,,,,False,27,28,True,exp2.png,exp1.png,trial_left_image,1,exp2.png,4,exp2.png,exp1.png,1,1,non-reversed,correct,0.08728722826506219,0,invalid_lose,149.27854469999147,9,,,,,,,,,,,s_053,4,2021_Feb_03_1036,Reversal,3.2.4,59.95419499347753,
9,exp3.png,exp4.png,1,0,1,0,0,9,9,9,,,,,,,,,,,,,,,,,,,,,,,,,False,28,29,True,exp4.png,exp3.png,trial_right_image,-1,exp3.png,4,exp4.png,exp3.png,0,4,reversed,incorrect,0.17630881676072063,1,invalid_win,153.29434619999665,10,,,,,,,,,,,s_053,4,2021_Feb_03_1036,Reversal,3.2.4,59.95419499347753,
10,exp1.png,exp2.png,1,0,1,0,0,10,10,10,,,,,,,,,,,,,,,,,,,,,,,,,False,29,30,True,exp2.png,exp1.png,trial_right_image,-1,exp1.png,4,exp2.png,exp1.png,0,2,non-reversed,incorrect,0.7546956923745115,0,valid_lose,157.85867169999983,10,,,,,,,,,,,s_053,4,2021_Feb_03_1036,Reversal,3.2.4,59.95419499347753,
11,exp3.png,exp4.png,1,0,1,0,0,11,11,11,,,,,,,,,,,,,,,,,,,,,,,,,False,30,31,True,exp4.png,exp3.png,trial_left_image,1,exp4.png,4,exp4.png,exp3.png,1,3,reversed,correct,0.3180634442334771,1,valid_win,161.85688339998887,11,,,,,,,,,,,s_053,4,2021_Feb_03_1036,Reversal,3.2.4,59.95419499347753,
12,exp1.png,exp2.png,1,0,1,0,0,12,12,12,,,,,,,,,,,,,,,,,,,,,,,,,False,31,32,False,exp1.png,exp2.png,trial_right_image,-1,exp2.png,4,exp2.png,exp1.png,1,1,non-reversed,correct,0.4089298614331781,1,valid_win,166.18983239999216,12,,,,,,,,,,,s_053,4,2021_Feb_03_1036,Reversal,3.2.4,59.95419499347753,
13,exp3.png,exp4.png,1,0,1,0,0,13,13,13,,,,,,,,,,,,,,,,,,,,,,,,,False,32,33,True,exp4.png,exp3.png,trial_left_image,1,exp4.png,4,exp4.png,exp3.png,1,3,reversed,correct,0.11820510690552632,0,invalid_lose,170.3217958999885,12,,,,,,,,,,,s_053,4,2021_Feb_03_1036,Reversal,3.2.4,59.95419499347753,
14,exp1.png,exp2.png,1,0,1,0,0,14,14,14,,,,,,,,,,,,,,,,,,,,,,,,,False,33,34,False,exp1.png,exp2.png,trial_right_image,-1,exp2.png,4,exp2.png,exp1.png,1,1,non-reversed,correct,0.4600249633546548,1,valid_win,174.21980839999742,13,,,,,,,,,,,s_053,4,2021_Feb_03_1036,Reversal,3.2.4,59.95419499347753,
15,exp3.png,exp4.png,1,0,1,0,0,15,15,15,,,,,,,,,,,,,,,,,,,,,,,,,False,34,35,True,exp4.png,exp3.png,trial_left_image,1,exp4.png,4,exp4.png,exp3.png,1,3,reversed,correct,0.5175537873264275,1,valid_win,178.56860799998685,14,,,,,,,,,,,s_053,4,2021_Feb_03_1036,Reversal,3.2.4,59.95419499347753,
16,exp1.png,exp2.png,1,0,1,0,0,16,16,16,,,,,,,,,,,,,,,,,,,,,,,,,False,35,36,False,exp1.png,exp2.png,trial_right_image,-1,exp2.png,4,exp2.png,exp1.png,1,1,non-reversed,correct,0.9393277108718963,1,valid_win,182.30054209999798,15,,,,,,,,,,,s_053,4,2021_Feb_03_1036,Reversal,3.2.4,59.95419499347753,
17,exp3.png,exp4.png,1,0,1,0,0,17,17,17,,,,,,,,,,,,,,,,,,,,,,,,,False,36,37,True,exp4.png,exp3.png,trial_right_image,-1,exp3.png,4,exp4.png,exp3.png,0,4,reversed,incorrect,0.34736720113910313,0,valid_lose,186.36609849998786,15,,,,,,,,,,,s_053,4,2021_Feb_03_1036,Reversal,3.2.4,59.95419499347753,
18,exp1.png,exp2.png,1,0,1,0,0,18,18,18,,,,,,,,,,,,,,,,,,,,,,,,,False,37,38,False,exp1.png,exp2.png,trial_left_image,1,exp1.png,4,exp2.png,exp1.png,0,2,non-reversed,incorrect,0.6900485077637706,0,valid_lose,190.51463299999887,15,,,,,,,,,,,s_053,4,2021_Feb_03_1036,Reversal,3.2.4,59.95419499347753,
19,exp3.png,exp4.png,1,0,1,0,0,19,19,19,,,,,,,,,,,,,,,,,,,,,,,,,False,38,39,False,exp3.png,exp4.png,trial_right_image,-1,exp4.png,4,exp4.png,exp3.png,1,3,reversed,correct,0.6956541521109313,1,valid_win,194.76327619999938,16,,,,,,,,,,,s_053,4,2021_Feb_03_1036,Reversal,3.2.4,59.95419499347753,
20,exp1.png,exp2.png,1,0,1,0,0,20,20,20,,,,,,,,,,,,,,,,,,,,,,,,,False,39,40,False,exp1.png,exp2.png,trial_left_image,1,exp1.png,4,exp2.png,exp1.png,0,2,non-reversed,incorrect,0.1692638361598212,1,invalid_win,199.07810590000008,17,,,,,,,,,,,s_053,4,2021_Feb_03_1036,Reversal,3.2.4,59.95419499347753,
,,,1,0,1,0,,,,,0,0,0,0,,,,,,,,,,,,,,,,,,,,,,,,,,,,,,,,,,,,,,,,,,60,56,69,71,,,,,,,s_053,4,2021_Feb_03_1036,Reversal,3.2.4,59.95419499347753,
0,exp1.png,exp2.png,2,0,2,0,0,0,0,0,,,,,,,,,,,,,,,,,,,,,,,,,True,,,,,,,,,,,,,,,,,,,,,,,,,,,,,,,s_053,4,2021_Feb_03_1036,Reversal,3.2.4,59.95419499347753,
1,exp3.png,exp4.png,2,0,2,0,0,1,1,1,,,,,,,,,,,,,,,,,,,,,,,,,False,40,41,False,exp3.png,exp4.png,trial_right_image,-1,exp4.png,4,exp4.png,exp3.png,1,3,reversed,correct,0.7689195099580011,1,valid_win,215.33981589999166,18,,,,,,,,,,,s_053,4,2021_Feb_03_1036,Reversal,3.2.4,59.95419499347753,
2,exp1.png,exp2.png,2,0,2,0,0,2,2,2,,,,,,,,,,,,,,,,,,,,,,,,,False,41,42,True,exp2.png,exp1.png,trial_left_image,1,exp2.png,4,exp2.png,exp1.png,1,1,non-reversed,correct,0.1815518614320032,0,invalid_lose,219.13842889999796,18,,,,,,,,,,,s_053,4,2021_Feb_03_1036,Reversal,3.2.4,59.95419499347753,
3,exp3.png,exp4.png,2,0,2,0,0,3,3,3,,,,,,,,,,,,,,,,,,,,,,,,,False,42,43,False,exp3.png,exp4.png,trial_right_image,-1,exp4.png,4,exp4.png,exp3.png,1,3,reversed,correct,0.6620955611004542,1,valid_win,223.11908369998855,19,,,,,,,,,,,s_053,4,2021_Feb_03_1036,Reversal,3.2.4,59.95419499347753,
4,exp1.png,exp2.png,2,0,2,0,0,4,4,4,,,,,,,,,,,,,,,,,,,,,,,,,False,43,44,True,exp2.png,exp1.png,trial_right_image,-1,exp1.png,4,exp2.png,exp1.png,0,2,non-reversed,incorrect,0.9426530588727444,0,valid_lose,226.8691250999982,19,,,,,,,,,,,s_053,4,2021_Feb_03_1036,Reversal,3.2.4,59.95419499347753,
5,exp3.png,exp4.png,2,0,2,0,0,5,5,5,,,,,,,,,,,,,,,,,,,,,,,,,False,44,45,False,exp3.png,exp4.png,trial_left_image,1,exp3.png,4,exp4.png,exp3.png,0,4,reversed,incorrect,0.6384317128340582,0,valid_lose,230.6500432999892,19,,,,,,,,,,,s_053,4,2021_Feb_03_1036,Reversal,3.2.4,59.95419499347753,
6,exp1.png,exp2.png,2,0,2,0,0,6,6,6,,,,,,,,,,,,,,,,,,,,,,,,,False,45,46,False,exp1.png,exp2.png,trial_right_image,-1,exp2.png,4,exp2.png,exp1.png,1,1,non-reversed,correct,0.07424585132604367,0,invalid_lose,234.46658979999484,19,,,,,,,,,,,s_053,4,2021_Feb_03_1036,Reversal,3.2.4,59.95419499347753,
7,exp3.png,exp4.png,2,0,2,0,0,7,7,7,,,,,,,,,,,,,,,,,,,,,,,,,False,46,47,False,exp3.png,exp4.png,trial_left_image,1,exp3.png,4,exp4.png,exp3.png,0,4,reversed,incorrect,0.424461097288081,0,valid_lose,238.44808499999635,19,,,,,,,,,,,s_053,4,2021_Feb_03_1036,Reversal,3.2.4,59.95419499347753,
8,exp1.png,exp2.png,2,0,2,0,0,8,8,8,,,,,,,,,,,,,,,,,,,,,,,,,False,47,48,True,exp2.png,exp1.png,trial_right_image,-1,exp1.png,4,exp2.png,exp1.png,0,2,non-reversed,incorrect,0.3224301934004923,0,valid_lose,242.38019519999216,19,,,,,,,,,,,s_053,4,2021_Feb_03_1036,Reversal,3.2.4,59.95419499347753,
9,exp3.png,exp4.png,2,0,2,0,0,9,9,9,,,,,,,,,,,,,,,,,,,,,,,,,False,48,49,True,exp4.png,exp3.png,trial_right_image,-1,exp3.png,4,exp4.png,exp3.png,0,4,reversed,incorrect,0.9873267953828578,0,valid_lose,246.17880479998712,19,,,,,,,,,,,s_053,4,2021_Feb_03_1036,Reversal,3.2.4,59.95419499347753,
10,exp1.png,exp2.png,2,0,2,0,0,10,10,10,,,,,,,,,,,,,,,,,,,,,,,,,False,49,50,True,exp2.png,exp1.png,trial_left_image,1,exp2.png,4,exp2.png,exp1.png,1,1,non-reversed,correct,0.490602659123219,1,valid_win,250.27753189999203,20,,,,,,,,,,,s_053,4,2021_Feb_03_1036,Reversal,3.2.4,59.95419499347753,
11,exp3.png,exp4.png,2,0,2,0,0,11,11,11,,,,,,,,,,,,,,,,,,,,,,,,,False,50,51,False,exp3.png,exp4.png,trial_right_image,-1,exp4.png,4,exp4.png,exp3.png,1,3,reversed,correct,0.4900583499829029,1,valid_win,255.2420099999872,21,,,,,,,,,,,s_053,4,2021_Feb_03_1036,Reversal,3.2.4,59.95419499347753,
12,exp1.png,exp2.png,2,0,2,0,0,12,12,12,,,,,,,,,,,,,,,,,,,,,,,,,False,51,52,True,exp2.png,exp1.png,trial_left_image,1,exp2.png,4,exp2.png,exp1.png,1,1,non-reversed,correct,0.18568355557078942,0,invalid_lose,259.4412832999951,21,,,,,,,,,,,s_053,4,2021_Feb_03_1036,Reversal,3.2.4,59.95419499347753,
13,exp3.png,exp4.png,2,0,2,0,0,13,13,13,,,,,,,,,,,,,,,,,,,,,,,,,False,52,53,False,exp3.png,exp4.png,trial_right_image,-1,exp4.png,4,exp4.png,exp3.png,1,3,reversed,correct,0.5435048111508315,1,valid_win,263.73931909998646,22,,,,,,,,,,,s_053,4,2021_Feb_03_1036,Reversal,3.2.4,59.95419499347753,
14,exp1.png,exp2.png,2,0,2,0,0,14,14,14,,,,,,,,,,,,,,,,,,,,,,,,,False,53,54,True,exp2.png,exp1.png,trial_right_image,-1,exp1.png,4,exp2.png,exp1.png,0,2,non-reversed,incorrect,0.06174021604155888,1,invalid_win,268.88726819999283,23,,,,,,,,,,,s_053,4,2021_Feb_03_1036,Reversal,3.2.4,59.95419499347753,
15,exp3.png,exp4.png,2,0,2,0,0,15,15,15,,,,,,,,,,,,,,,,,,,,,,,,,False,54,55,False,exp3.png,exp4.png,trial_right_image,-1,exp4.png,4,exp4.png,exp3.png,1,3,reversed,correct,0.02284726148767602,0,invalid_lose,273.0193814999948,23,,,,,,,,,,,s_053,4,2021_Feb_03_1036,Reversal,3.2.4,59.95419499347753,
16,exp1.png,exp2.png,2,0,2,0,0,16,16,16,,,,,,,,,,,,,,,,,,,,,,,,,False,55,56,True,exp2.png,exp1.png,trial_left_image,1,exp2.png,4,exp2.png,exp1.png,1,1,non-reversed,correct,0.8458133490713249,1,valid_win,277.1840527999884,24,,,,,,,,,,,s_053,4,2021_Feb_03_1036,Reversal,3.2.4,59.95419499347753,
17,exp3.png,exp4.png,2,0,2,0,0,17,17,17,,,,,,,,,,,,,,,,,,,,,,,,,False,56,57,True,exp4.png,exp3.png,trial_left_image,1,exp4.png,4,exp4.png,exp3.png,1,3,reversed,correct,0.5033943585372969,1,valid_win,281.5669433999865,25,,,,,,,,,,,s_053,4,2021_Feb_03_1036,Reversal,3.2.4,59.95419499347753,
18,exp1.png,exp2.png,2,0,2,0,0,18,18,18,,,,,,,,,,,,,,,,,,,,,,,,,False,57,58,False,exp1.png,exp2.png,trial_right_image,-1,exp2.png,4,exp2.png,exp1.png,1,1,non-reversed,correct,0.6135001471265612,1,valid_win,286.4989021999936,26,,,,,,,,,,,s_053,4,2021_Feb_03_1036,Reversal,3.2.4,59.95419499347753,
19,exp3.png,exp4.png,2,0,2,0,0,19,19,19,,,,,,,,,,,,,,,,,,,,,,,,,False,58,59,False,exp3.png,exp4.png,trial_right_image,-1,exp4.png,4,exp4.png,exp3.png,1,3,reversed,correct,0.47939230044715997,1,valid_win,290.74668309999106,27,,,,,,,,,,,s_053,4,2021_Feb_03_1036,Reversal,3.2.4,59.95419499347753,
20,exp1.png,exp2.png,2,0,2,0,0,20,20,20,,,,,,,,,,,,,,,,,,,,,,,,,False,59,60,True,exp2.png,exp1.png,trial_left_image,1,exp2.png,4,exp2.png,exp1.png,1,1,non-reversed,correct,0.3910184512605033,1,valid_win,294.92887679999694,28,,,,,,,,,,,s_053,4,2021_Feb_03_1036,Reversal,3.2.4,59.95419499347753,
,,,2,0,2,0,,,,,0,0,0,0,,,,,,,,,,,,,,,,,,,,,,,,,,,,,,,,,,,,,,,,,,42,70,37,77,,,,,,,s_053,4,2021_Feb_03_1036,Reversal,3.2.4,59.95419499347753,
0,exp1.png,exp2.png,,,,,,,,,,,,,,,,,0,0,0,0,0,0,0,0,,,,,,,,,True,,,,,,,,,,,,,,,,,,,,,,,,,,,,,,,s_053,4,2021_Feb_03_1036,Reversal,3.2.4,59.95419499347753,
1,exp3.png,exp4.png,,,,,,,,,,,,,,,,,0,0,0,0,0,1,1,1,,,,,,,,,False,0,61,False,exp3.png,exp4.png,trial_right_image,-1,exp4.png,4,exp3.png,exp4.png,1,3,reversed,incorrect,0.4727918192880256,0,valid_lose,313.7724742999999,28,,,,,312.128326799997,,,,,,s_053,4,2021_Feb_03_1036,Reversal,3.2.4,59.95419499347753,
2,exp1.png,exp2.png,,,,,,,,,,,,,,,,,0,0,0,0,0,2,2,2,,,,,,,,,False,1,62,False,exp1.png,exp2.png,trial_left_image,1,exp1.png,4,exp2.png,exp1.png,0,2,non-reversed,incorrect,0.21378042590108415,1,invalid_win,317.7377919999999,29,,,,,,,,,,,s_053,4,2021_Feb_03_1036,Reversal,3.2.4,59.95419499347753,
3,exp3.png,exp4.png,,,,,,,,,,,,,,,,,0,0,0,0,0,3,3,3,,,,,,,,,False,2,63,False,exp3.png,exp4.png,trial_left_image,1,exp3.png,4,exp3.png,exp4.png,0,4,reversed,correct,0.017952931386504667,0,invalid_lose,322.4867768999975,29,,,,,,,,,,,s_053,4,2021_Feb_03_1036,Reversal,3.2.4,59.95419499347753,
4,exp1.png,exp2.png,,,,,,,,,,,,,,,,,0,0,0,0,0,4,4,4,,,,,,,,,False,3,64,True,exp2.png,exp1.png,trial_right_image,-1,exp1.png,4,exp2.png,exp1.png,0,2,non-reversed,incorrect,0.6228019536465806,0,valid_lose,327.46774319998804,29,,,,,,,,,,,s_053,4,2021_Feb_03_1036,Reversal,3.2.4,59.95419499347753,
5,exp3.png,exp4.png,,,,,,,,,,,,,,,,,0,0,0,0,0,5,5,5,,,,,,,,,False,4,65,True,exp4.png,exp3.png,trial_left_image,1,exp4.png,4,exp3.png,exp4.png,1,3,reversed,incorrect,0.07974612391975433,1,invalid_win,332.38298829999985,30,,,,,,,,,,,s_053,4,2021_Feb_03_1036,Reversal,3.2.4,59.95419499347753,
6,exp1.png,exp2.png,,,,,,,,,,,,,,,,,0,0,0,0,0,6,6,6,,,,,,,,,False,5,66,True,exp2.png,exp1.png,trial_left_image,1,exp2.png,4,exp2.png,exp1.png,1,1,non-reversed,correct,0.8065687323404219,1,valid_win,337.3816294999997,31,,,,,,,,,,,s_053,4,2021_Feb_03_1036,Reversal,3.2.4,59.95419499347753,
7,exp3.png,exp4.png,,,,,,,,,,,,,,,,,0,0,0,0,0,7,7,7,,,,,,,,,False,6,67,False,exp3.png,exp4.png,trial_left_image,1,exp3.png,4,exp3.png,exp4.png,0,4,reversed,correct,0.8290119063595093,1,valid_win,342.8966209999926,32,,,,,,,,,,,s_053,4,2021_Feb_03_1036,Reversal,3.2.4,59.95419499347753,
8,exp1.png,exp2.png,,,,,,,,,,,,,,,,,0,0,0,0,0,8,8,8,,,,,,,,,False,7,68,False,exp1.png,exp2.png,trial_right_image,-1,exp2.png,4,exp2.png,exp1.png,1,1,non-reversed,correct,0.8408424596140147,1,valid_win,348.31121419998817,33,,,,,,,,,,,s_053,4,2021_Feb_03_1036,Reversal,3.2.4,59.95419499347753,
9,exp3.png,exp4.png,,,,,,,,,,,,,,,,,0,0,0,0,0,9,9,9,,,,,,,,,False,8,69,True,exp4.png,exp3.png,trial_left_image,1,exp4.png,4,exp3.png,exp4.png,1,3,reversed,incorrect,0.6599185572820208,0,valid_lose,353.39260309998645,33,,,,,,,,,,,s_053,4,2021_Feb_03_1036,Reversal,3.2.4,59.95419499347753,
10,exp1.png,exp2.png,,,,,,,,,,,,,,,,,0,0,0,0,0,10,10,10,,,,,,,,,False,9,70,True,exp2.png,exp1.png,trial_left_image,1,exp2.png,4,exp2.png,exp1.png,1,1,non-reversed,correct,0.8439736096299646,1,valid_win,357.87387959999614,34,,,,,,,,,,,s_053,4,2021_Feb_03_1036,Reversal,3.2.4,59.95419499347753,
11,exp3.png,exp4.png,,,,,,,,,,,,,,,,,0,0,0,0,0,11,11,11,,,,,,,,,False,10,71,True,exp4.png,exp3.png,trial_right_image,-1,exp3.png,4,exp3.png,exp4.png,0,4,reversed,correct,0.8197544492678739,1,valid_win,363.10618189998786,35,,,,,,,,,,,s_053,4,2021_Feb_03_1036,Reversal,3.2.4,59.95419499347753,
12,exp1.png,exp2.png,,,,,,,,,,,,,,,,,0,0,0,0,0,12,12,12,,,,,,,,,False,11,72,True,exp2.png,exp1.png,trial_left_image,1,exp2.png,4,exp2.png,exp1.png,1,1,non-reversed,correct,0.920792387949196,1,valid_win,367.4210354999959,36,,,,,,,,,,,s_053,4,2021_Feb_03_1036,Reversal,3.2.4,59.95419499347753,
13,exp3.png,exp4.png,,,,,,,,,,,,,,,,,0,0,0,0,0,13,13,13,,,,,,,,,False,12,73,False,exp3.png,exp4.png,trial_left_image,1,exp3.png,4,exp3.png,exp4.png,0,4,reversed,correct,0.8624023303906594,1,valid_win,372.8525759999902,37,,,,,,,,,,,s_053,4,2021_Feb_03_1036,Reversal,3.2.4,59.95419499347753,
14,exp1.png,exp2.png,,,,,,,,,,,,,,,,,0,0,0,0,0,14,14,14,,,,,,,,,False,13,74,False,exp1.png,exp2.png,trial_right_image,-1,exp2.png,4,exp2.png,exp1.png,1,1,non-reversed,correct,0.22651945539228613,0,invalid_lose,377.70063789999404,37,,,,,,,,,,,s_053,4,2021_Feb_03_1036,Reversal,3.2.4,59.95419499347753,
15,exp3.png,exp4.png,,,,,,,,,,,,,,,,,0,0,0,0,0,15,15,15,,,,,,,,,False,14,75,True,exp4.png,exp3.png,trial_right_image,-1,exp3.png,4,exp3.png,exp4.png,0,4,reversed,correct,0.04192523441538287,0,invalid_lose,382.64858389999426,37,,,,,,,,,,,s_053,4,2021_Feb_03_1036,Reversal,3.2.4,59.95419499347753,
16,exp1.png,exp2.png,,,,,,,,,,,,,,,,,0,0,0,0,0,16,16,16,,,,,,,,,False,15,76,True,exp2.png,exp1.png,trial_left_image,1,exp2.png,4,exp2.png,exp1.png,1,1,non-reversed,correct,0.3775439433897352,1,valid_win,386.84731049998663,38,,,,,,,,,,,s_053,4,2021_Feb_03_1036,Reversal,3.2.4,59.95419499347753,
17,exp3.png,exp4.png,,,,,,,,,,,,,,,,,0,0,0,0,0,17,17,17,,,,,,,,,False,16,77,False,exp3.png,exp4.png,trial_left_image,1,exp3.png,4,exp3.png,exp4.png,0,4,reversed,correct,0.7360657487717187,1,valid_win,391.8962770999933,39,,,,,,,,,,,s_053,4,2021_Feb_03_1036,Reversal,3.2.4,59.95419499347753,
18,exp1.png,exp2.png,,,,,,,,,,,,,,,,,0,0,0,0,0,18,18,18,,,,,,,,,False,17,78,True,exp2.png,exp1.png,trial_left_image,1,exp2.png,4,exp2.png,exp1.png,1,1,non-reversed,correct,0.029682254980818668,0,invalid_lose,396.4114518999995,39,,,,,,,,,,,s_053,4,2021_Feb_03_1036,Reversal,3.2.4,59.95419499347753,
19,exp3.png,exp4.png,,,,,,,,,,,,,,,,,0,0,0,0,0,19,19,19,,,,,,,,,False,18,79,False,exp3.png,exp4.png,trial_left_image,1,exp3.png,4,exp3.png,exp4.png,0,4,reversed,correct,0.33179557279399985,1,valid_win,401.67525399998704,40,,,,,,,,,,,s_053,4,2021_Feb_03_1036,Reversal,3.2.4,59.95419499347753,
20,exp1.png,exp2.png,,,,,,,,,,,,,,,,,0,0,0,0,0,20,20,20,,,,,,,,,False,19,80,False,exp1.png,exp2.png,trial_right_image,-1,exp2.png,4,exp2.png,exp1.png,1,1,non-reversed,correct,0.9125532581946764,1,valid_win,405.9913574999955,41,,,,,,,,,,,s_053,4,2021_Feb_03_1036,Reversal,3.2.4,59.95419499347753,
,,,,,,,,,,,,,,,,,,,0,0,0,0,,,,,0,0,0,0,,,,,,,,,,,,,,,,,,,,,,,,,,38,74,97,35,,,,,,,s_053,4,2021_Feb_03_1036,Reversal,3.2.4,59.95419499347753,
0,exp1.png,exp2.png,,,,,,,,,,,,,,,,,1,0,1,0,0,0,0,0,,,,,,,,,True,,,,,,,,,,,,,,,,,,,,,,,,,,,,,,,s_053,4,2021_Feb_03_1036,Reversal,3.2.4,59.95419499347753,
1,exp3.png,exp4.png,,,,,,,,,,,,,,,,,1,0,1,0,0,1,1,1,,,,,,,,,False,20,81,False,exp3.png,exp4.png,trial_left_image,1,exp3.png,4,exp3.png,exp4.png,0,4,reversed,correct,0.9379636509418784,1,valid_win,431.18357999999716,42,,,,,,,,,,,s_053,4,2021_Feb_03_1036,Reversal,3.2.4,59.95419499347753,
2,exp1.png,exp2.png,,,,,,,,,,,,,,,,,1,0,1,0,0,2,2,2,,,,,,,,,False,21,82,True,exp2.png,exp1.png,trial_left_image,1,exp2.png,4,exp2.png,exp1.png,1,1,non-reversed,correct,0.08013638271081802,0,invalid_lose,435.5149609999935,42,,,,,,,,,,,s_053,4,2021_Feb_03_1036,Reversal,3.2.4,59.95419499347753,
3,exp3.png,exp4.png,,,,,,,,,,,,,,,,,1,0,1,0,0,3,3,3,,,,,,,,,False,22,83,False,exp3.png,exp4.png,trial_left_image,1,exp3.png,4,exp3.png,exp4.png,0,4,reversed,correct,0.06720084675813554,0,invalid_lose,439.74614639999345,42,,,,,,,,,,,s_053,4,2021_Feb_03_1036,Reversal,3.2.4,59.95419499347753,
4,exp1.png,exp2.png,,,,,,,,,,,,,,,,,1,0,1,0,0,4,4,4,,,,,,,,,False,23,84,False,exp1.png,exp2.png,trial_left_image,1,exp1.png,4,exp2.png,exp1.png,0,2,non-reversed,incorrect,0.9648599735208446,0,valid_lose,444.5783448000002,42,,,,,,,,,,,s_053,4,2021_Feb_03_1036,Reversal,3.2.4,59.95419499347753,
5,exp3.png,exp4.png,,,,,,,,,,,,,,,,,1,0,1,0,0,5,5,5,,,,,,,,,False,24,85,False,exp3.png,exp4.png,trial_left_image,1,exp3.png,4,exp3.png,exp4.png,0,4,reversed,correct,0.03912090592207751,0,invalid_lose,448.7263823999965,42,,,,,,,,,,,s_053,4,2021_Feb_03_1036,Reversal,3.2.4,59.95419499347753,
6,exp1.png,exp2.png,,,,,,,,,,,,,,,,,1,0,1,0,0,6,6,6,,,,,,,,,False,25,86,True,exp2.png,exp1.png,trial_left_image,1,exp2.png,4,exp2.png,exp1.png,1,1,non-reversed,correct,0.03098337308664667,0,invalid_lose,453.10839369999303,42,,,,,,,,,,,s_053,4,2021_Feb_03_1036,Reversal,3.2.4,59.95419499347753,
7,exp3.png,exp4.png,,,,,,,,,,,,,,,,,1,0,1,0,0,7,7,7,,,,,,,,,False,26,87,False,exp3.png,exp4.png,trial_right_image,-1,exp4.png,4,exp3.png,exp4.png,1,3,reversed,incorrect,0.6862843130642813,0,valid_lose,457.3905020999955,42,,,,,,,,,,,s_053,4,2021_Feb_03_1036,Reversal,3.2.4,59.95419499347753,
8,exp1.png,exp2.png,,,,,,,,,,,,,,,,,1,0,1,0,0,8,8,8,,,,,,,,,False,27,88,True,exp2.png,exp1.png,trial_right_image,-1,exp1.png,4,exp2.png,exp1.png,0,2,non-reversed,incorrect,0.24141264513863758,1,invalid_win,462.2565406999929,43,,,,,,,,,,,s_053,4,2021_Feb_03_1036,Reversal,3.2.4,59.95419499347753,
9,exp3.png,exp4.png,,,,,,,,,,,,,,,,,1,0,1,0,0,9,9,9,,,,,,,,,False,28,89,False,exp3.png,exp4.png,trial_left_image,1,exp3.png,4,exp3.png,exp4.png,0,4,reversed,correct,0.5464676277695011,1,valid_win,466.78749999999127,44,,,,,,,,,,,s_053,4,2021_Feb_03_1036,Reversal,3.2.4,59.95419499347753,
10,exp1.png,exp2.png,,,,,,,,,,,,,,,,,1,0,1,0,0,10,10,10,,,,,,,,,False,29,90,True,exp2.png,exp1.png,trial_right_image,-1,exp1.png,4,exp2.png,exp1.png,0,2,non-reversed,incorrect,0.5541864795299075,0,valid_lose,471.0695728999999,44,,,,,,,,,,,s_053,4,2021_Feb_03_1036,Reversal,3.2.4,59.95419499347753,
11,exp3.png,exp4.png,,,,,,,,,,,,,,,,,1,0,1,0,0,11,11,11,,,,,,,,,False,30,91,True,exp4.png,exp3.png,trial_right_image,-1,exp3.png,4,exp3.png,exp4.png,0,4,reversed,correct,0.10408002771243918,0,invalid_lose,475.45170909998706,44,,,,,,,,,,,s_053,4,2021_Feb_03_1036,Reversal,3.2.4,59.95419499347753,
12,exp1.png,exp2.png,,,,,,,,,,,,,,,,,1,0,1,0,0,12,12,12,,,,,,,,,False,31,92,True,exp2.png,exp1.png,trial_left_image,1,exp2.png,4,exp2.png,exp1.png,1,1,non-reversed,correct,0.2979445564274248,1,valid_win,479.98280059998797,45,,,,,,,,,,,s_053,4,2021_Feb_03_1036,Reversal,3.2.4,59.95419499347753,
13,exp3.png,exp4.png,,,,,,,,,,,,,,,,,1,0,1,0,0,13,13,13,,,,,,,,,False,32,93,True,exp4.png,exp3.png,trial_left_image,1,exp4.png,4,exp3.png,exp4.png,1,3,reversed,incorrect,0.39883687137607715,0,valid_lose,484.58139589999337,45,,,,,,,,,,,s_053,4,2021_Feb_03_1036,Reversal,3.2.4,59.95419499347753,
14,exp1.png,exp2.png,,,,,,,,,,,,,,,,,1,0,1,0,0,14,14,14,,,,,,,,,False,33,94,False,exp1.png,exp2.png,trial_right_image,-1,exp2.png,4,exp2.png,exp1.png,1,1,non-reversed,correct,0.5700431469452143,1,valid_win,490.4628434999904,46,,,,,,,,,,,s_053,4,2021_Feb_03_1036,Reversal,3.2.4,59.95419499347753,
15,exp3.png,exp4.png,,,,,,,,,,,,,,,,,1,0,1,0,0,15,15,15,,,,,,,,,False,34,95,True,exp4.png,exp3.png,trial_right_image,-1,exp3.png,4,exp3.png,exp4.png,0,4,reversed,correct,0.418354243659133,1,valid_win,494.96095739999146,47,,,,,,,,,,,s_053,4,2021_Feb_03_1036,Reversal,3.2.4,59.95419499347753,
16,exp1.png,exp2.png,,,,,,,,,,,,,,,,,1,0,1,0,0,16,16,16,,,,,,,,,False,35,96,False,exp1.png,exp2.png,trial_right_image,-1,exp2.png,4,exp2.png,exp1.png,1,1,non-reversed,correct,0.9597599042521635,1,valid_win,499.8093576999963,48,,,,,,,,,,,s_053,4,2021_Feb_03_1036,Reversal,3.2.4,59.95419499347753,
17,exp3.png,exp4.png,,,,,,,,,,,,,,,,,1,0,1,0,0,17,17,17,,,,,,,,,False,36,97,False,exp3.png,exp4.png,trial_left_image,1,exp3.png,4,exp3.png,exp4.png,0,4,reversed,correct,0.8485727377478692,1,valid_win,504.5579168999975,49,,,,,,,,,,,s_053,4,2021_Feb_03_1036,Reversal,3.2.4,59.95419499347753,
18,exp1.png,exp2.png,,,,,,,,,,,,,,,,,1,0,1,0,0,18,18,18,,,,,,,,,False,37,98,False,exp1.png,exp2.png,trial_right_image,-1,exp2.png,4,exp2.png,exp1.png,1,1,non-reversed,correct,0.8199857800992886,1,valid_win,509.00618099998974,50,,,,,,,,,,,s_053,4,2021_Feb_03_1036,Reversal,3.2.4,59.95419499347753,
19,exp3.png,exp4.png,,,,,,,,,,,,,,,,,1,0,1,0,0,19,19,19,,,,,,,,,False,38,99,True,exp4.png,exp3.png,trial_left_image,1,exp4.png,4,exp3.png,exp4.png,1,3,reversed,incorrect,0.7066041875220127,0,valid_lose,513.5555566999974,50,,,,,,,,,,,s_053,4,2021_Feb_03_1036,Reversal,3.2.4,59.95419499347753,
20,exp1.png,exp2.png,,,,,,,,,,,,,,,,,1,0,1,0,0,20,20,20,,,,,,,,,False,39,100,True,exp2.png,exp1.png,trial_left_image,1,exp2.png,4,exp2.png,exp1.png,1,1,non-reversed,correct,0.1449673011410687,0,invalid_lose,518.1032959000004,50,,,,,,,,,,,s_053,4,2021_Feb_03_1036,Reversal,3.2.4,59.95419499347753,
,,,,,,,,,,,,,,,,,,,1,0,1,0,,,,,0,0,0,0,,,,,,,,,,,,,,,,,,,,,,,,,,33,65,65,41,,,,,,,s_053,4,2021_Feb_03_1036,Reversal,3.2.4,59.95419499347753,
0,exp1.png,exp2.png,,,,,,,,,,,,,,,,,2,0,2,0,0,0,0,0,,,,,,,,,True,,,,,,,,,,,,,,,,,,,,,,,,,,,,,,,s_053,4,2021_Feb_03_1036,Reversal,3.2.4,59.95419499347753,
1,exp3.png,exp4.png,,,,,,,,,,,,,,,,,2,0,2,0,0,1,1,1,,,,,,,,,False,40,101,False,exp3.png,exp4.png,trial_left_image,1,exp3.png,4,exp3.png,exp4.png,0,4,reversed,correct,0.39425011899248164,1,valid_win,537.0803827999916,51,,,,,,,,,,,s_053,4,2021_Feb_03_1036,Reversal,3.2.4,59.95419499347753,
2,exp1.png,exp2.png,,,,,,,,,,,,,,,,,2,0,2,0,0,2,2,2,,,,,,,,,False,41,102,False,exp1.png,exp2.png,trial_right_image,-1,exp2.png,4,exp2.png,exp1.png,1,1,non-reversed,correct,0.1531393951038742,0,invalid_lose,544.2777511999884,51,,,,,,,,,,,s_053,4,2021_Feb_03_1036,Reversal,3.2.4,59.95419499347753,
3,exp3.png,exp4.png,,,,,,,,,,,,,,,,,2,0,2,0,0,3,3,3,,,,,,,,,False,42,103,True,exp4.png,exp3.png,trial_right_image,-1,exp3.png,4,exp3.png,exp4.png,0,4,reversed,correct,0.3392239858739232,1,valid_win,548.926000499996,52,,,,,,,,,,,s_053,4,2021_Feb_03_1036,Reversal,3.2.4,59.95419499347753,
4,exp1.png,exp2.png,,,,,,,,,,,,,,,,,2,0,2,0,0,4,4,4,,,,,,,,,False,43,104,True,exp2.png,exp1.png,trial_right_image,-1,exp1.png,4,exp2.png,exp1.png,0,2,non-reversed,incorrect,0.4392908566479826,0,valid_lose,553.4910110999917,52,,,,,,,,,,,s_053,4,2021_Feb_03_1036,Reversal,3.2.4,59.95419499347753,
5,exp3.png,exp4.png,,,,,,,,,,,,,,,,,2,0,2,0,0,5,5,5,,,,,,,,,False,44,105,False,exp3.png,exp4.png,trial_left_image,1,exp3.png,4,exp3.png,exp4.png,0,4,reversed,correct,0.4187515713111343,1,valid_win,558.2390064999927,53,,,,,,,,,,,s_053,4,2021_Feb_03_1036,Reversal,3.2.4,59.95419499347753,
6,exp1.png,exp2.png,,,,,,,,,,,,,,,,,2,0,2,0,0,6,6,6,,,,,,,,,False,45,106,True,exp2.png,exp1.png,trial_left_image,1,exp2.png,4,exp2.png,exp1.png,1,1,non-reversed,correct,0.843337577276264,1,valid_win,563.0713466999878,54,,,,,,,,,,,s_053,4,2021_Feb_03_1036,Reversal,3.2.4,59.95419499347753,
7,exp3.png,exp4.png,,,,,,,,,,,,,,,,,2,0,2,0,0,7,7,7,,,,,,,,,False,46,107,True,exp4.png,exp3.png,trial_right_image,-1,exp3.png,4,exp3.png,exp4.png,0,4,reversed,correct,0.2144137153542871,0,invalid_lose,567.6023958999867,54,,,,,,,,,,,s_053,4,2021_Feb_03_1036,Reversal,3.2.4,59.95419499347753,
8,exp1.png,exp2.png,,,,,,,,,,,,,,,,,2,0,2,0,0,8,8,8,,,,,,,,,False,47,108,True,exp2.png,exp1.png,trial_left_image,1,exp2.png,4,exp2.png,exp1.png,1,1,non-reversed,correct,0.818396799207685,1,valid_win,571.6513703999954,55,,,,,,,,,,,s_053,4,2021_Feb_03_1036,Reversal,3.2.4,59.95419499347753,
9,exp3.png,exp4.png,,,,,,,,,,,,,,,,,2,0,2,0,0,9,9,9,,,,,,,,,False,48,109,False,exp3.png,exp4.png,trial_left_image,1,exp3.png,4,exp3.png,exp4.png,0,4,reversed,correct,0.17989930890289174,0,invalid_lose,576.2338828999928,55,,,,,,,,,,,s_053,4,2021_Feb_03_1036,Reversal,3.2.4,59.95419499347753,
10,exp1.png,exp2.png,,,,,,,,,,,,,,,,,2,0,2,0,0,10,10,10,,,,,,,,,False,49,110,False,exp1.png,exp2.png,trial_right_image,-1,exp2.png,4,exp2.png,exp1.png,1,1,non-reversed,correct,0.059529579081232686,0,invalid_lose,580.532579199993,55,,,,,,,,,,,s_053,4,2021_Feb_03_1036,Reversal,3.2.4,59.95419499347753,
11,exp3.png,exp4.png,,,,,,,,,,,,,,,,,2,0,2,0,0,11,11,11,,,,,,,,,False,50,111,True,exp4.png,exp3.png,trial_right_image,-1,exp3.png,4,exp3.png,exp4.png,0,4,reversed,correct,0.5160877596510975,1,valid_win,584.5973323999933,56,,,,,,,,,,,s_053,4,2021_Feb_03_1036,Reversal,3.2.4,59.95419499347753,
12,exp1.png,exp2.png,,,,,,,,,,,,,,,,,2,0,2,0,0,12,12,12,,,,,,,,,False,51,112,False,exp1.png,exp2.png,trial_left_image,1,exp1.png,4,exp2.png,exp1.png,0,2,non-reversed,incorrect,0.26164599926141885,0,valid_lose,588.646308299998,56,,,,,,,,,,,s_053,4,2021_Feb_03_1036,Reversal,3.2.4,59.95419499347753,
13,exp3.png,exp4.png,,,,,,,,,,,,,,,,,2,0,2,0,0,13,13,13,,,,,,,,,False,52,113,True,exp4.png,exp3.png,trial_right_image,-1,exp3.png,4,exp3.png,exp4.png,0,4,reversed,correct,0.9283795082347559,1,valid_win,592.9114483999874,57,,,,,,,,,,,s_053,4,2021_Feb_03_1036,Reversal,3.2.4,59.95419499347753,
14,exp1.png,exp2.png,,,,,,,,,,,,,,,,,2,0,2,0,0,14,14,14,,,,,,,,,False,53,114,False,exp1.png,exp2.png,trial_left_image,1,exp1.png,4,exp2.png,exp1.png,0,2,non-reversed,incorrect,0.556533739555248,0,valid_lose,597.2932359999977,57,,,,,,,,,,,s_053,4,2021_Feb_03_1036,Reversal,3.2.4,59.95419499347753,
15,exp3.png,exp4.png,,,,,,,,,,,,,,,,,2,0,2,0,0,15,15,15,,,,,,,,,False,54,115,False,exp3.png,exp4.png,trial_left_image,1,exp3.png,4,exp3.png,exp4.png,0,4,reversed,correct,0.12579349759671887,0,invalid_lose,601.5919308999873,57,,,,,,,,,,,s_053,4,2021_Feb_03_1036,Reversal,3.2.4,59.95419499347753,
16,exp1.png,exp2.png,,,,,,,,,,,,,,,,,2,0,2,0,0,16,16,16,,,,,,,,,False,55,116,True,exp2.png,exp1.png,trial_left_image,1,exp2.png,4,exp2.png,exp1.png,1,1,non-reversed,correct,0.47074939413349204,1,valid_win,605.6573764999921,58,,,,,,,,,,,s_053,4,2021_Feb_03_1036,Reversal,3.2.4,59.95419499347753,
17,exp3.png,exp4.png,,,,,,,,,,,,,,,,,2,0,2,0,0,17,17,17,,,,,,,,,False,56,117,True,exp4.png,exp3.png,trial_right_image,-1,exp3.png,4,exp3.png,exp4.png,0,4,reversed,correct,0.6373625007709757,1,valid_win,609.9554074999905,59,,,,,,,,,,,s_053,4,2021_Feb_03_1036,Reversal,3.2.4,59.95419499347753,
18,exp1.png,exp2.png,,,,,,,,,,,,,,,,,2,0,2,0,0,18,18,18,,,,,,,,,False,57,118,False,exp1.png,exp2.png,trial_right_image,-1,exp2.png,4,exp2.png,exp1.png,1,1,non-reversed,correct,0.9836657505484993,1,valid_win,614.1039412999962,60,,,,,,,,,,,s_053,4,2021_Feb_03_1036,Reversal,3.2.4,59.95419499347753,
19,exp3.png,exp4.png,,,,,,,,,,,,,,,,,2,0,2,0,0,19,19,19,,,,,,,,,False,58,119,True,exp4.png,exp3.png,trial_right_image,-1,exp3.png,4,exp3.png,exp4.png,0,4,reversed,correct,0.21846521551665843,0,invalid_lose,618.6029341999965,60,,,,,,,,,,,s_053,4,2021_Feb_03_1036,Reversal,3.2.4,59.95419499347753,
20,exp1.png,exp2.png,,,,,,,,,,,,,,,,,2,0,2,0,0,20,20,20,,,,,,,,,False,59,120,False,exp1.png,exp2.png,trial_right_image,-1,exp2.png,4,exp2.png,exp1.png,1,1,non-reversed,correct,0.6524610459864837,1,valid_win,623.6506009999866,61,,,,,,,,,,,s_053,4,2021_Feb_03_1036,Reversal,3.2.4,59.95419499347753,
,,,,,,,,,,,,,,,,,,,2,0,2,0,,,,,0,0,0,0,,,,,,,,,,,,,,,,,,,,,,,,,,50.0,50.0,50.0,50.0,,,,,,,s_053,4,2021_Feb_03_1036,Reversal,3.2.4,59.95419499347753,
,,,,,,,,,,,,,,,,,,,,,,,,,,,,,,,,,,,,,,,,,,,,,,,,,,,,,,,61,,,,,,79,33,46,319.00227939999604,0,,,,,,,
