trial_index,trial_image1_file,trial_image2_file,learning_outer_loop.thisRepN,learning_outer_loop.thisTrialN,learning_outer_loop.thisN,learning_outer_loop.thisIndex,learning_inner_loop.thisRepN,learning_inner_loop.thisTrialN,learning_inner_loop.thisN,learning_inner_loop.thisIndex,learning_estimation_outer_loop.thisRepN,learning_estimation_outer_loop.thisTrialN,learning_estimation_outer_loop.thisN,learning_estimation_outer_loop.thisIndex,learning_estimation_inner_loop.thisRepN,learning_estimation_inner_loop.thisTrialN,learning_estimation_inner_loop.thisN,learning_estimation_inner_loop.thisIndex,reversal_outer_loop.thisRepN,reversal_outer_loop.thisTrialN,reversal_outer_loop.thisN,reversal_outer_loop.thisIndex,reversal_inner_loop.thisRepN,reversal_inner_loop.thisTrialN,reversal_inner_loop.thisN,reversal_inner_loop.thisIndex,reversal_estimation_outer_loop.thisRepN,reversal_estimation_outer_loop.thisTrialN,reversal_estimation_outer_loop.thisN,reversal_estimation_outer_loop.thisIndex,reversal_estimation_inner_loop.thisRepN,reversal_estimation_inner_loop.thisTrialN,reversal_estimation_inner_loop.thisN,reversal_estimation_inner_loop.thisIndex,skipped,total_trial_counter,trial_num,left_right_flip,left_image_file,right_image_file,clicked_stimulus_side,side,clicked_stimulus,version,high_prob_image_file,low_prob_image_file,choice_a,choice_b,pair_type,correct,trial_feedback_random,reward,trial_type,overall_time_after_trial,score,estimation_exp1.png,estimation_exp2.png,estimation_exp3.png,estimation_exp4.png,total_learning_time,total_correct,learning_correct,reversal_correct,total_reversal_time,extra_block,participant,ver,date,expName,psychopyVersion,frameRate,
0,exp1.png,exp2.png,0,0,0,0,0,0,0,0,,,,,,,,,,,,,,,,,,,,,,,,,False,0,1,True,exp2.png,exp1.png,trial_left_image,1,exp2.png,1,exp1.png,exp2.png,0,4,reversed,incorrect,0.9508813882427171,0,valid_lose,8.20919889997458,0,,,,,,,,,,,s_055,1,2021_Feb_03_1400,Reversal,3.2.4,59.98296484094683,
1,exp3.png,exp4.png,0,0,0,0,0,1,1,1,,,,,,,,,,,,,,,,,,,,,,,,,False,1,2,True,exp4.png,exp3.png,trial_left_image,1,exp4.png,1,exp3.png,exp4.png,0,2,non-reversed,incorrect,0.5547030010580075,0,valid_lose,16.989546199998586,0,,,,,,,,,,,s_055,1,2021_Feb_03_1400,Reversal,3.2.4,59.98296484094683,
2,exp1.png,exp2.png,0,0,0,0,0,2,2,2,,,,,,,,,,,,,,,,,,,,,,,,,False,2,3,False,exp1.png,exp2.png,trial_left_image,1,exp1.png,1,exp1.png,exp2.png,1,3,reversed,correct,0.3873876903651746,1,valid_win,24.570258899999317,1,,,,,,,,,,,s_055,1,2021_Feb_03_1400,Reversal,3.2.4,59.98296484094683,
3,exp3.png,exp4.png,0,0,0,0,0,3,3,3,,,,,,,,,,,,,,,,,,,,,,,,,False,3,4,True,exp4.png,exp3.png,trial_right_image,-1,exp3.png,1,exp3.png,exp4.png,1,1,non-reversed,correct,0.3759375088659661,1,valid_win,31.61758349998854,2,,,,,,,,,,,s_055,1,2021_Feb_03_1400,Reversal,3.2.4,59.98296484094683,
4,exp1.png,exp2.png,0,0,0,0,0,4,4,4,,,,,,,,,,,,,,,,,,,,,,,,,False,4,5,True,exp2.png,exp1.png,trial_right_image,-1,exp1.png,1,exp1.png,exp2.png,1,3,reversed,correct,0.9020927048884244,1,valid_win,39.69786459999159,3,,,,,,,,,,,s_055,1,2021_Feb_03_1400,Reversal,3.2.4,59.98296484094683,
5,exp3.png,exp4.png,0,0,0,0,0,5,5,5,,,,,,,,,,,,,,,,,,,,,,,,,False,5,6,True,exp4.png,exp3.png,trial_left_image,1,exp4.png,1,exp3.png,exp4.png,0,2,non-reversed,incorrect,0.7006619023168431,0,valid_lose,46.84547429997474,3,,,,,,,,,,,s_055,1,2021_Feb_03_1400,Reversal,3.2.4,59.98296484094683,
6,exp1.png,exp2.png,0,0,0,0,0,6,6,6,,,,,,,,,,,,,,,,,,,,,,,,,False,6,7,False,exp1.png,exp2.png,trial_left_image,1,exp1.png,1,exp1.png,exp2.png,1,3,reversed,correct,0.5484447041345433,1,valid_win,53.309929999988526,4,,,,,,,,,,,s_055,1,2021_Feb_03_1400,Reversal,3.2.4,59.98296484094683,
7,exp3.png,exp4.png,0,0,0,0,0,7,7,7,,,,,,,,,,,,,,,,,,,,,,,,,False,7,8,False,exp3.png,exp4.png,trial_left_image,1,exp3.png,1,exp3.png,exp4.png,1,1,non-reversed,correct,0.7826131179348078,1,valid_win,59.62549409997882,5,,,,,,,,,,,s_055,1,2021_Feb_03_1400,Reversal,3.2.4,59.98296484094683,
8,exp1.png,exp2.png,0,0,0,0,0,8,8,8,,,,,,,,,,,,,,,,,,,,,,,,,False,8,9,False,exp1.png,exp2.png,trial_left_image,1,exp1.png,1,exp1.png,exp2.png,1,3,reversed,correct,0.7717513139924367,1,valid_win,65.0236449999793,6,,,,,,,,,,,s_055,1,2021_Feb_03_1400,Reversal,3.2.4,59.98296484094683,
9,exp3.png,exp4.png,0,0,0,0,0,9,9,9,,,,,,,,,,,,,,,,,,,,,,,,,False,9,10,False,exp3.png,exp4.png,trial_left_image,1,exp3.png,1,exp3.png,exp4.png,1,1,non-reversed,correct,0.429994420680869,1,valid_win,70.37174319999758,7,,,,,,,,,,,s_055,1,2021_Feb_03_1400,Reversal,3.2.4,59.98296484094683,
10,exp1.png,exp2.png,0,0,0,0,0,10,10,10,,,,,,,,,,,,,,,,,,,,,,,,,False,10,11,False,exp1.png,exp2.png,trial_left_image,1,exp1.png,1,exp1.png,exp2.png,1,3,reversed,correct,0.424754828149284,1,valid_win,76.26961889999802,8,,,,,,,,,,,s_055,1,2021_Feb_03_1400,Reversal,3.2.4,59.98296484094683,
11,exp3.png,exp4.png,0,0,0,0,0,11,11,11,,,,,,,,,,,,,,,,,,,,,,,,,False,11,12,True,exp4.png,exp3.png,trial_right_image,-1,exp3.png,1,exp3.png,exp4.png,1,1,non-reversed,correct,0.5132851379649179,1,valid_win,81.21784319999279,9,,,,,,,,,,,s_055,1,2021_Feb_03_1400,Reversal,3.2.4,59.98296484094683,
12,exp1.png,exp2.png,0,0,0,0,0,12,12,12,,,,,,,,,,,,,,,,,,,,,,,,,False,12,13,True,exp2.png,exp1.png,trial_right_image,-1,exp1.png,1,exp1.png,exp2.png,1,3,reversed,correct,0.33465389280232827,1,valid_win,85.91620559999137,10,,,,,,,,,,,s_055,1,2021_Feb_03_1400,Reversal,3.2.4,59.98296484094683,
13,exp3.png,exp4.png,0,0,0,0,0,13,13,13,,,,,,,,,,,,,,,,,,,,,,,,,False,13,14,False,exp3.png,exp4.png,trial_left_image,1,exp3.png,1,exp3.png,exp4.png,1,1,non-reversed,correct,0.08393596042211171,0,invalid_lose,90.33163549998426,10,,,,,,,,,,,s_055,1,2021_Feb_03_1400,Reversal,3.2.4,59.98296484094683,
14,exp1.png,exp2.png,0,0,0,0,0,14,14,14,,,,,,,,,,,,,,,,,,,,,,,,,False,14,15,True,exp2.png,exp1.png,trial_right_image,-1,exp1.png,1,exp1.png,exp2.png,1,3,reversed,correct,0.8577210007721456,1,valid_win,94.94646219999413,11,,,,,,,,,,,s_055,1,2021_Feb_03_1400,Reversal,3.2.4,59.98296484094683,
15,exp3.png,exp4.png,0,0,0,0,0,15,15,15,,,,,,,,,,,,,,,,,,,,,,,,,False,15,16,False,exp3.png,exp4.png,trial_left_image,1,exp3.png,1,exp3.png,exp4.png,1,1,non-reversed,correct,0.45248496061322796,1,valid_win,99.54512499997509,12,,,,,,,,,,,s_055,1,2021_Feb_03_1400,Reversal,3.2.4,59.98296484094683,
16,exp1.png,exp2.png,0,0,0,0,0,16,16,16,,,,,,,,,,,,,,,,,,,,,,,,,False,16,17,False,exp1.png,exp2.png,trial_left_image,1,exp1.png,1,exp1.png,exp2.png,1,3,reversed,correct,0.9431323399508189,1,valid_win,104.1436890999903,13,,,,,,,,,,,s_055,1,2021_Feb_03_1400,Reversal,3.2.4,59.98296484094683,
17,exp3.png,exp4.png,0,0,0,0,0,17,17,17,,,,,,,,,,,,,,,,,,,,,,,,,False,17,18,True,exp4.png,exp3.png,trial_right_image,-1,exp3.png,1,exp3.png,exp4.png,1,1,non-reversed,correct,0.44002077096910375,1,valid_win,108.8416643999808,14,,,,,,,,,,,s_055,1,2021_Feb_03_1400,Reversal,3.2.4,59.98296484094683,
18,exp1.png,exp2.png,0,0,0,0,0,18,18,18,,,,,,,,,,,,,,,,,,,,,,,,,False,18,19,False,exp1.png,exp2.png,trial_left_image,1,exp1.png,1,exp1.png,exp2.png,1,3,reversed,correct,0.5530762293361773,1,valid_win,113.35633379998035,15,,,,,,,,,,,s_055,1,2021_Feb_03_1400,Reversal,3.2.4,59.98296484094683,
19,exp3.png,exp4.png,0,0,0,0,0,19,19,19,,,,,,,,,,,,,,,,,,,,,,,,,False,19,20,True,exp4.png,exp3.png,trial_right_image,-1,exp3.png,1,exp3.png,exp4.png,1,1,non-reversed,correct,0.2544781142479611,1,valid_win,117.70474869999452,16,,,,,,,,,,,s_055,1,2021_Feb_03_1400,Reversal,3.2.4,59.98296484094683,
20,exp1.png,exp2.png,0,0,0,0,0,20,20,20,,,,,,,,,,,,,,,,,,,,,,,,,True,,,,,,,,,,,,,,,,,,,,,,,,,,,,,,,s_055,1,2021_Feb_03_1400,Reversal,3.2.4,59.98296484094683,
,,,0,0,0,0,,,,,0,0,0,0,,,,,,,,,,,,,,,,,,,,,,,,,,,,,,,,,,,,,,,,,,89,5,83,0,,,,,,,s_055,1,2021_Feb_03_1400,Reversal,3.2.4,59.98296484094683,
0,exp1.png,exp2.png,1,0,1,0,0,0,0,0,,,,,,,,,,,,,,,,,,,,,,,,,False,20,21,False,exp1.png,exp2.png,trial_left_image,1,exp1.png,1,exp1.png,exp2.png,1,3,reversed,correct,0.8658627360530096,1,valid_win,149.72796649998054,17,,,,,,,,,,,s_055,1,2021_Feb_03_1400,Reversal,3.2.4,59.98296484094683,
1,exp3.png,exp4.png,1,0,1,0,0,1,1,1,,,,,,,,,,,,,,,,,,,,,,,,,False,21,22,False,exp3.png,exp4.png,trial_left_image,1,exp3.png,1,exp3.png,exp4.png,1,1,non-reversed,correct,0.005018701200627862,0,invalid_lose,154.3596639999887,17,,,,,,,,,,,s_055,1,2021_Feb_03_1400,Reversal,3.2.4,59.98296484094683,
2,exp1.png,exp2.png,1,0,1,0,0,2,2,2,,,,,,,,,,,,,,,,,,,,,,,,,False,22,23,True,exp2.png,exp1.png,trial_right_image,-1,exp1.png,1,exp1.png,exp2.png,1,3,reversed,correct,0.588061463465896,1,valid_win,159.05819359997986,18,,,,,,,,,,,s_055,1,2021_Feb_03_1400,Reversal,3.2.4,59.98296484094683,
3,exp3.png,exp4.png,1,0,1,0,0,3,3,3,,,,,,,,,,,,,,,,,,,,,,,,,False,23,24,False,exp3.png,exp4.png,trial_right_image,-1,exp4.png,1,exp3.png,exp4.png,0,2,non-reversed,incorrect,0.1821181262498801,1,invalid_win,164.9058023999969,19,,,,,,,,,,,s_055,1,2021_Feb_03_1400,Reversal,3.2.4,59.98296484094683,
4,exp1.png,exp2.png,1,0,1,0,0,4,4,4,,,,,,,,,,,,,,,,,,,,,,,,,False,24,25,False,exp1.png,exp2.png,trial_left_image,1,exp1.png,1,exp1.png,exp2.png,1,3,reversed,correct,0.2776307057736145,1,valid_win,169.85377289997996,20,,,,,,,,,,,s_055,1,2021_Feb_03_1400,Reversal,3.2.4,59.98296484094683,
5,exp3.png,exp4.png,1,0,1,0,0,5,5,5,,,,,,,,,,,,,,,,,,,,,,,,,False,25,26,False,exp3.png,exp4.png,trial_right_image,-1,exp4.png,1,exp3.png,exp4.png,0,2,non-reversed,incorrect,0.5960404464438218,0,valid_lose,175.11922039999627,20,,,,,,,,,,,s_055,1,2021_Feb_03_1400,Reversal,3.2.4,59.98296484094683,
6,exp1.png,exp2.png,1,0,1,0,0,6,6,6,,,,,,,,,,,,,,,,,,,,,,,,,False,26,27,True,exp2.png,exp1.png,trial_right_image,-1,exp1.png,1,exp1.png,exp2.png,1,3,reversed,correct,0.8529464174217648,1,valid_win,179.83420979999937,21,,,,,,,,,,,s_055,1,2021_Feb_03_1400,Reversal,3.2.4,59.98296484094683,
7,exp3.png,exp4.png,1,0,1,0,0,7,7,7,,,,,,,,,,,,,,,,,,,,,,,,,False,27,28,True,exp4.png,exp3.png,trial_right_image,-1,exp3.png,1,exp3.png,exp4.png,1,1,non-reversed,correct,0.4653962163483587,1,valid_win,185.0156314999913,22,,,,,,,,,,,s_055,1,2021_Feb_03_1400,Reversal,3.2.4,59.98296484094683,
8,exp1.png,exp2.png,1,0,1,0,0,8,8,8,,,,,,,,,,,,,,,,,,,,,,,,,False,28,29,True,exp2.png,exp1.png,trial_right_image,-1,exp1.png,1,exp1.png,exp2.png,1,3,reversed,correct,0.23213022051971355,0,invalid_lose,189.73150089997216,22,,,,,,,,,,,s_055,1,2021_Feb_03_1400,Reversal,3.2.4,59.98296484094683,
9,exp3.png,exp4.png,1,0,1,0,0,9,9,9,,,,,,,,,,,,,,,,,,,,,,,,,False,29,30,False,exp3.png,exp4.png,trial_right_image,-1,exp4.png,1,exp3.png,exp4.png,0,2,non-reversed,incorrect,0.7172677295076993,0,valid_lose,196.92832809998072,22,,,,,,,,,,,s_055,1,2021_Feb_03_1400,Reversal,3.2.4,59.98296484094683,
10,exp1.png,exp2.png,1,0,1,0,0,10,10,10,,,,,,,,,,,,,,,,,,,,,,,,,False,30,31,True,exp2.png,exp1.png,trial_right_image,-1,exp1.png,1,exp1.png,exp2.png,1,3,reversed,correct,0.42219248712820445,1,valid_win,201.46030219999375,23,,,,,,,,,,,s_055,1,2021_Feb_03_1400,Reversal,3.2.4,59.98296484094683,
11,exp3.png,exp4.png,1,0,1,0,0,11,11,11,,,,,,,,,,,,,,,,,,,,,,,,,False,31,32,False,exp3.png,exp4.png,trial_right_image,-1,exp4.png,1,exp3.png,exp4.png,0,2,non-reversed,incorrect,0.8691769824765151,0,valid_lose,206.4919080999971,23,,,,,,,,,,,s_055,1,2021_Feb_03_1400,Reversal,3.2.4,59.98296484094683,
12,exp1.png,exp2.png,1,0,1,0,0,12,12,12,,,,,,,,,,,,,,,,,,,,,,,,,False,32,33,True,exp2.png,exp1.png,trial_right_image,-1,exp1.png,1,exp1.png,exp2.png,1,3,reversed,correct,0.5509935543176553,1,valid_win,210.64084239999647,24,,,,,,,,,,,s_055,1,2021_Feb_03_1400,Reversal,3.2.4,59.98296484094683,
13,exp3.png,exp4.png,1,0,1,0,0,13,13,13,,,,,,,,,,,,,,,,,,,,,,,,,False,33,34,True,exp4.png,exp3.png,trial_right_image,-1,exp3.png,1,exp3.png,exp4.png,1,1,non-reversed,correct,0.01434218055670966,0,invalid_lose,215.0063519999967,24,,,,,,,,,,,s_055,1,2021_Feb_03_1400,Reversal,3.2.4,59.98296484094683,
14,exp1.png,exp2.png,1,0,1,0,0,14,14,14,,,,,,,,,,,,,,,,,,,,,,,,,False,34,35,False,exp1.png,exp2.png,trial_left_image,1,exp1.png,1,exp1.png,exp2.png,1,3,reversed,correct,0.8653377542994996,1,valid_win,219.3545419999864,25,,,,,,,,,,,s_055,1,2021_Feb_03_1400,Reversal,3.2.4,59.98296484094683,
15,exp3.png,exp4.png,1,0,1,0,0,15,15,15,,,,,,,,,,,,,,,,,,,,,,,,,False,35,36,True,exp4.png,exp3.png,trial_right_image,-1,exp3.png,1,exp3.png,exp4.png,1,1,non-reversed,correct,0.2218680491310947,0,invalid_lose,225.1035965999763,25,,,,,,,,,,,s_055,1,2021_Feb_03_1400,Reversal,3.2.4,59.98296484094683,
16,exp1.png,exp2.png,1,0,1,0,0,16,16,16,,,,,,,,,,,,,,,,,,,,,,,,,False,36,37,True,exp2.png,exp1.png,trial_right_image,-1,exp1.png,1,exp1.png,exp2.png,1,3,reversed,correct,0.4993266539113531,1,valid_win,229.201284699986,26,,,,,,,,,,,s_055,1,2021_Feb_03_1400,Reversal,3.2.4,59.98296484094683,
17,exp3.png,exp4.png,1,0,1,0,0,17,17,17,,,,,,,,,,,,,,,,,,,,,,,,,False,37,38,False,exp3.png,exp4.png,trial_left_image,1,exp3.png,1,exp3.png,exp4.png,1,1,non-reversed,correct,0.4122234318887682,1,valid_win,233.73321079998277,27,,,,,,,,,,,s_055,1,2021_Feb_03_1400,Reversal,3.2.4,59.98296484094683,
18,exp1.png,exp2.png,1,0,1,0,0,18,18,18,,,,,,,,,,,,,,,,,,,,,,,,,False,38,39,True,exp2.png,exp1.png,trial_right_image,-1,exp1.png,1,exp1.png,exp2.png,1,3,reversed,correct,0.4888999597717374,1,valid_win,237.73043469997356,28,,,,,,,,,,,s_055,1,2021_Feb_03_1400,Reversal,3.2.4,59.98296484094683,
19,exp3.png,exp4.png,1,0,1,0,0,19,19,19,,,,,,,,,,,,,,,,,,,,,,,,,False,39,40,False,exp3.png,exp4.png,trial_right_image,-1,exp4.png,1,exp3.png,exp4.png,0,2,non-reversed,incorrect,0.06457177655280066,1,invalid_win,241.84685609998996,29,,,,,,,,,,,s_055,1,2021_Feb_03_1400,Reversal,3.2.4,59.98296484094683,
20,exp1.png,exp2.png,1,0,1,0,0,20,20,20,,,,,,,,,,,,,,,,,,,,,,,,,True,,,,,,,,,,,,,,,,,,,,,,,,,,,,,,,s_055,1,2021_Feb_03_1400,Reversal,3.2.4,59.98296484094683,
,,,1,0,1,0,,,,,0,0,0,0,,,,,,,,,,,,,,,,,,,,,,,,,,,,,,,,,,,,,,,,,,100,0,50.0,50.0,,,,,,,s_055,1,2021_Feb_03_1400,Reversal,3.2.4,59.98296484094683,
0,exp1.png,exp2.png,2,0,2,0,0,0,0,0,,,,,,,,,,,,,,,,,,,,,,,,,False,40,41,True,exp2.png,exp1.png,trial_right_image,-1,exp1.png,1,exp1.png,exp2.png,1,3,reversed,correct,0.7322665875118182,1,valid_win,258.4580893999955,30,,,,,,,,,,,s_055,1,2021_Feb_03_1400,Reversal,3.2.4,59.98296484094683,
1,exp3.png,exp4.png,2,0,2,0,0,1,1,1,,,,,,,,,,,,,,,,,,,,,,,,,False,41,42,False,exp3.png,exp4.png,trial_right_image,-1,exp4.png,1,exp3.png,exp4.png,0,2,non-reversed,incorrect,0.014054005829190919,1,invalid_win,264.1723243999877,31,,,,,,,,,,,s_055,1,2021_Feb_03_1400,Reversal,3.2.4,59.98296484094683,
2,exp1.png,exp2.png,2,0,2,0,0,2,2,2,,,,,,,,,,,,,,,,,,,,,,,,,False,42,43,False,exp1.png,exp2.png,trial_left_image,1,exp1.png,1,exp1.png,exp2.png,1,3,reversed,correct,0.07570172828360355,0,invalid_lose,268.4881406999775,31,,,,,,,,,,,s_055,1,2021_Feb_03_1400,Reversal,3.2.4,59.98296484094683,
3,exp3.png,exp4.png,2,0,2,0,0,3,3,3,,,,,,,,,,,,,,,,,,,,,,,,,False,43,44,False,exp3.png,exp4.png,trial_left_image,1,exp3.png,1,exp3.png,exp4.png,1,1,non-reversed,correct,0.26311517541594676,1,valid_win,273.09394859999884,32,,,,,,,,,,,s_055,1,2021_Feb_03_1400,Reversal,3.2.4,59.98296484094683,
4,exp1.png,exp2.png,2,0,2,0,0,4,4,4,,,,,,,,,,,,,,,,,,,,,,,,,False,44,45,False,exp1.png,exp2.png,trial_left_image,1,exp1.png,1,exp1.png,exp2.png,1,3,reversed,correct,0.16179574228007465,0,invalid_lose,278.3174457999994,32,,,,,,,,,,,s_055,1,2021_Feb_03_1400,Reversal,3.2.4,59.98296484094683,
5,exp3.png,exp4.png,2,0,2,0,0,5,5,5,,,,,,,,,,,,,,,,,,,,,,,,,False,45,46,True,exp4.png,exp3.png,trial_left_image,1,exp4.png,1,exp3.png,exp4.png,0,2,non-reversed,incorrect,0.9762616851029987,0,valid_lose,284.4325412999897,32,,,,,,,,,,,s_055,1,2021_Feb_03_1400,Reversal,3.2.4,59.98296484094683,
6,exp1.png,exp2.png,2,0,2,0,0,6,6,6,,,,,,,,,,,,,,,,,,,,,,,,,False,46,47,True,exp2.png,exp1.png,trial_left_image,1,exp2.png,1,exp1.png,exp2.png,0,4,reversed,incorrect,0.12016737047266812,1,invalid_win,289.01416069999686,33,,,,,,,,,,,s_055,1,2021_Feb_03_1400,Reversal,3.2.4,59.98296484094683,
7,exp3.png,exp4.png,2,0,2,0,0,7,7,7,,,,,,,,,,,,,,,,,,,,,,,,,False,47,48,True,exp4.png,exp3.png,trial_right_image,-1,exp3.png,1,exp3.png,exp4.png,1,1,non-reversed,correct,0.47412549201320653,1,valid_win,295.1618645999988,34,,,,,,,,,,,s_055,1,2021_Feb_03_1400,Reversal,3.2.4,59.98296484094683,
8,exp1.png,exp2.png,2,0,2,0,0,8,8,8,,,,,,,,,,,,,,,,,,,,,,,,,False,48,49,False,exp1.png,exp2.png,trial_right_image,-1,exp2.png,1,exp1.png,exp2.png,0,4,reversed,incorrect,0.3874956000826546,0,valid_lose,300.3270049999992,34,,,,,,,,,,,s_055,1,2021_Feb_03_1400,Reversal,3.2.4,59.98296484094683,
9,exp3.png,exp4.png,2,0,2,0,0,9,9,9,,,,,,,,,,,,,,,,,,,,,,,,,False,49,50,False,exp3.png,exp4.png,trial_left_image,1,exp3.png,1,exp3.png,exp4.png,1,1,non-reversed,correct,0.16163979099248216,0,invalid_lose,304.9418983999931,34,,,,,,,,,,,s_055,1,2021_Feb_03_1400,Reversal,3.2.4,59.98296484094683,
10,exp1.png,exp2.png,2,0,2,0,0,10,10,10,,,,,,,,,,,,,,,,,,,,,,,,,False,50,51,True,exp2.png,exp1.png,trial_right_image,-1,exp1.png,1,exp1.png,exp2.png,1,3,reversed,correct,0.7710767190654292,1,valid_win,309.42367349998676,35,,,,,,,,,,,s_055,1,2021_Feb_03_1400,Reversal,3.2.4,59.98296484094683,
11,exp3.png,exp4.png,2,0,2,0,0,11,11,11,,,,,,,,,,,,,,,,,,,,,,,,,False,51,52,True,exp4.png,exp3.png,trial_left_image,1,exp4.png,1,exp3.png,exp4.png,0,2,non-reversed,incorrect,0.08496784282742431,1,invalid_win,315.25561939997715,36,,,,,,,,,,,s_055,1,2021_Feb_03_1400,Reversal,3.2.4,59.98296484094683,
12,exp1.png,exp2.png,2,0,2,0,0,12,12,12,,,,,,,,,,,,,,,,,,,,,,,,,False,52,53,False,exp1.png,exp2.png,trial_left_image,1,exp1.png,1,exp1.png,exp2.png,1,3,reversed,correct,0.45742522590259493,1,valid_win,319.90375549998134,37,,,,,,,,,,,s_055,1,2021_Feb_03_1400,Reversal,3.2.4,59.98296484094683,
13,exp3.png,exp4.png,2,0,2,0,0,13,13,13,,,,,,,,,,,,,,,,,,,,,,,,,False,53,54,False,exp3.png,exp4.png,trial_right_image,-1,exp4.png,1,exp3.png,exp4.png,0,2,non-reversed,incorrect,0.7555938644349919,0,valid_lose,326.8354044999869,37,,,,,,,,,,,s_055,1,2021_Feb_03_1400,Reversal,3.2.4,59.98296484094683,
14,exp1.png,exp2.png,2,0,2,0,0,14,14,14,,,,,,,,,,,,,,,,,,,,,,,,,False,54,55,True,exp2.png,exp1.png,trial_right_image,-1,exp1.png,1,exp1.png,exp2.png,1,3,reversed,correct,0.5366246473052569,1,valid_win,331.2000717999763,38,,,,,,,,,,,s_055,1,2021_Feb_03_1400,Reversal,3.2.4,59.98296484094683,
15,exp3.png,exp4.png,2,0,2,0,0,15,15,15,,,,,,,,,,,,,,,,,,,,,,,,,False,55,56,True,exp4.png,exp3.png,trial_left_image,1,exp4.png,1,exp3.png,exp4.png,0,2,non-reversed,incorrect,0.8177467346972881,0,valid_lose,336.39823089999845,38,,,,,,,,,,,s_055,1,2021_Feb_03_1400,Reversal,3.2.4,59.98296484094683,
16,exp1.png,exp2.png,2,0,2,0,0,16,16,16,,,,,,,,,,,,,,,,,,,,,,,,,False,56,57,True,exp2.png,exp1.png,trial_right_image,-1,exp1.png,1,exp1.png,exp2.png,1,3,reversed,correct,0.239072938010647,0,invalid_lose,340.5965271999885,38,,,,,,,,,,,s_055,1,2021_Feb_03_1400,Reversal,3.2.4,59.98296484094683,
17,exp3.png,exp4.png,2,0,2,0,0,17,17,17,,,,,,,,,,,,,,,,,,,,,,,,,False,57,58,False,exp3.png,exp4.png,trial_left_image,1,exp3.png,1,exp3.png,exp4.png,1,1,non-reversed,correct,0.5268249636537644,1,valid_win,345.41161399998236,39,,,,,,,,,,,s_055,1,2021_Feb_03_1400,Reversal,3.2.4,59.98296484094683,
18,exp1.png,exp2.png,2,0,2,0,0,18,18,18,,,,,,,,,,,,,,,,,,,,,,,,,False,58,59,True,exp2.png,exp1.png,trial_right_image,-1,exp1.png,1,exp1.png,exp2.png,1,3,reversed,correct,0.15873832647994934,0,invalid_lose,350.62627179999254,39,,,,,,,,,,,s_055,1,2021_Feb_03_1400,Reversal,3.2.4,59.98296484094683,
19,exp3.png,exp4.png,2,0,2,0,0,19,19,19,,,,,,,,,,,,,,,,,,,,,,,,,False,59,60,False,exp3.png,exp4.png,trial_right_image,-1,exp4.png,1,exp3.png,exp4.png,0,2,non-reversed,incorrect,0.2067277230027571,1,invalid_win,356.55795849999413,40,,,,,,,,,,,s_055,1,2021_Feb_03_1400,Reversal,3.2.4,59.98296484094683,
20,exp1.png,exp2.png,2,0,2,0,0,20,20,20,,,,,,,,,,,,,,,,,,,,,,,,,True,,,,,,,,,,,,,,,,,,,,,,,,,,,,,,,s_055,1,2021_Feb_03_1400,Reversal,3.2.4,59.98296484094683,
,,,2,0,2,0,,,,,0,0,0,0,,,,,,,,,,,,,,,,,,,,,,,,,,,,,,,,,,,,,,,,,,76,22,62,37,,,,,,,s_055,1,2021_Feb_03_1400,Reversal,3.2.4,59.98296484094683,
0,exp1.png,exp2.png,3,0,3,0,0,0,0,0,,,,,,,,,,,,,,,,,,,,,,,,,False,60,61,True,exp2.png,exp1.png,trial_left_image,1,exp2.png,1,exp1.png,exp2.png,0,4,reversed,incorrect,0.14852089409203173,1,invalid_win,378.80000679998193,41,,,,,,,,,,,s_055,1,2021_Feb_03_1400,Reversal,3.2.4,59.98296484094683,
1,exp3.png,exp4.png,3,0,3,0,0,1,1,1,,,,,,,,,,,,,,,,,,,,,,,,,False,61,62,False,exp3.png,exp4.png,trial_right_image,-1,exp4.png,1,exp3.png,exp4.png,0,2,non-reversed,incorrect,0.6842012693821182,0,valid_lose,383.4320760999981,41,,,,,,,,,,,s_055,1,2021_Feb_03_1400,Reversal,3.2.4,59.98296484094683,
2,exp1.png,exp2.png,3,0,3,0,0,2,2,2,,,,,,,,,,,,,,,,,,,,,,,,,False,62,63,True,exp2.png,exp1.png,trial_left_image,1,exp2.png,1,exp1.png,exp2.png,0,4,reversed,incorrect,0.9559685331432579,0,valid_lose,387.7309509999759,41,,,,,,,,,,,s_055,1,2021_Feb_03_1400,Reversal,3.2.4,59.98296484094683,
3,exp3.png,exp4.png,3,0,3,0,0,3,3,3,,,,,,,,,,,,,,,,,,,,,,,,,False,63,64,False,exp3.png,exp4.png,trial_left_image,1,exp3.png,1,exp3.png,exp4.png,1,1,non-reversed,correct,0.9490579936513034,1,valid_win,392.3458963999874,42,,,,,,,,,,,s_055,1,2021_Feb_03_1400,Reversal,3.2.4,59.98296484094683,
4,exp1.png,exp2.png,3,0,3,0,0,4,4,4,,,,,,,,,,,,,,,,,,,,,,,,,False,64,65,True,exp2.png,exp1.png,trial_right_image,-1,exp1.png,1,exp1.png,exp2.png,1,3,reversed,correct,0.4212312077923698,1,valid_win,397.0444328999729,43,,,,,,,,,,,s_055,1,2021_Feb_03_1400,Reversal,3.2.4,59.98296484094683,
5,exp3.png,exp4.png,3,0,3,0,0,5,5,5,,,,,,,,,,,,,,,,,,,,,,,,,False,65,66,True,exp4.png,exp3.png,trial_right_image,-1,exp3.png,1,exp3.png,exp4.png,1,1,non-reversed,correct,0.8975595563049821,1,valid_win,401.3762638999906,44,,,,,,,,,,,s_055,1,2021_Feb_03_1400,Reversal,3.2.4,59.98296484094683,
6,exp1.png,exp2.png,3,0,3,0,0,6,6,6,,,,,,,,,,,,,,,,,,,,,,,,,False,66,67,True,exp2.png,exp1.png,trial_right_image,-1,exp1.png,1,exp1.png,exp2.png,1,3,reversed,correct,0.5967187808226133,1,valid_win,407.1909903999767,45,,,,,,,,,,,s_055,1,2021_Feb_03_1400,Reversal,3.2.4,59.98296484094683,
7,exp3.png,exp4.png,3,0,3,0,0,7,7,7,,,,,,,,,,,,,,,,,,,,,,,,,False,67,68,False,exp3.png,exp4.png,trial_left_image,1,exp3.png,1,exp3.png,exp4.png,1,1,non-reversed,correct,0.09877707275020209,0,invalid_lose,412.0564392999804,45,,,,,,,,,,,s_055,1,2021_Feb_03_1400,Reversal,3.2.4,59.98296484094683,
8,exp1.png,exp2.png,3,0,3,0,0,8,8,8,,,,,,,,,,,,,,,,,,,,,,,,,False,68,69,False,exp1.png,exp2.png,trial_left_image,1,exp1.png,1,exp1.png,exp2.png,1,3,reversed,correct,0.7846742782611356,1,valid_win,416.7875553999911,46,,,,,,,,,,,s_055,1,2021_Feb_03_1400,Reversal,3.2.4,59.98296484094683,
9,exp3.png,exp4.png,3,0,3,0,0,9,9,9,,,,,,,,,,,,,,,,,,,,,,,,,False,69,70,True,exp4.png,exp3.png,trial_left_image,1,exp4.png,1,exp3.png,exp4.png,0,2,non-reversed,incorrect,0.6172425460408484,0,valid_lose,424.41801080000005,46,,,,,,,,,,,s_055,1,2021_Feb_03_1400,Reversal,3.2.4,59.98296484094683,
10,exp1.png,exp2.png,3,0,3,0,0,10,10,10,,,,,,,,,,,,,,,,,,,,,,,,,False,70,71,False,exp1.png,exp2.png,trial_left_image,1,exp1.png,1,exp1.png,exp2.png,1,3,reversed,correct,0.4093178794135479,1,valid_win,428.54943319997983,47,,,,,,,,,,,s_055,1,2021_Feb_03_1400,Reversal,3.2.4,59.98296484094683,
11,exp3.png,exp4.png,3,0,3,0,0,11,11,11,,,,,,,,,,,,,,,,,,,,,,,,,False,71,72,True,exp4.png,exp3.png,trial_right_image,-1,exp3.png,1,exp3.png,exp4.png,1,1,non-reversed,correct,0.9641646293793253,1,valid_win,433.66459429997485,48,,,,,,,,,,,s_055,1,2021_Feb_03_1400,Reversal,3.2.4,59.98296484094683,
12,exp1.png,exp2.png,3,0,3,0,0,12,12,12,,,,,,,,,,,,,,,,,,,,,,,,,False,72,73,False,exp1.png,exp2.png,trial_left_image,1,exp1.png,1,exp1.png,exp2.png,1,3,reversed,correct,0.2987227543251042,1,valid_win,437.9301679999917,49,,,,,,,,,,,s_055,1,2021_Feb_03_1400,Reversal,3.2.4,59.98296484094683,
13,exp3.png,exp4.png,3,0,3,0,0,13,13,13,,,,,,,,,,,,,,,,,,,,,,,,,False,73,74,True,exp4.png,exp3.png,trial_left_image,1,exp4.png,1,exp3.png,exp4.png,0,2,non-reversed,incorrect,0.8120393830979743,0,valid_lose,443.39565889997175,49,,,,,,,,,,,s_055,1,2021_Feb_03_1400,Reversal,3.2.4,59.98296484094683,
14,exp1.png,exp2.png,3,0,3,0,0,14,14,14,,,,,,,,,,,,,,,,,,,,,,,,,False,74,75,True,exp2.png,exp1.png,trial_right_image,-1,exp1.png,1,exp1.png,exp2.png,1,3,reversed,correct,0.8086433695205655,1,valid_win,447.5105114999751,50,,,,,,,,,,,s_055,1,2021_Feb_03_1400,Reversal,3.2.4,59.98296484094683,
15,exp3.png,exp4.png,3,0,3,0,0,15,15,15,,,,,,,,,,,,,,,,,,,,,,,,,False,75,76,False,exp3.png,exp4.png,trial_left_image,1,exp3.png,1,exp3.png,exp4.png,1,1,non-reversed,correct,0.20863745714226145,0,invalid_lose,451.9921814999834,50,,,,,,,,,,,s_055,1,2021_Feb_03_1400,Reversal,3.2.4,59.98296484094683,
16,exp1.png,exp2.png,3,0,3,0,0,16,16,16,,,,,,,,,,,,,,,,,,,,,,,,,False,76,77,False,exp1.png,exp2.png,trial_left_image,1,exp1.png,1,exp1.png,exp2.png,1,3,reversed,correct,0.5064422736859355,1,valid_win,456.27393229998415,51,,,,,,,,,,,s_055,1,2021_Feb_03_1400,Reversal,3.2.4,59.98296484094683,
17,exp3.png,exp4.png,3,0,3,0,0,17,17,17,,,,,,,,,,,,,,,,,,,,,,,,,False,77,78,True,exp4.png,exp3.png,trial_right_image,-1,exp3.png,1,exp3.png,exp4.png,1,1,non-reversed,correct,0.1432717155753278,0,invalid_lose,460.8553129999782,51,,,,,,,,,,,s_055,1,2021_Feb_03_1400,Reversal,3.2.4,59.98296484094683,
18,exp1.png,exp2.png,3,0,3,0,0,18,18,18,,,,,,,,,,,,,,,,,,,,,,,,,False,78,79,False,exp1.png,exp2.png,trial_left_image,1,exp1.png,1,exp1.png,exp2.png,1,3,reversed,correct,0.40517390732349634,1,valid_win,464.9707424999797,52,,,,,,,,,,,s_055,1,2021_Feb_03_1400,Reversal,3.2.4,59.98296484094683,
19,exp3.png,exp4.png,3,0,3,0,0,19,19,19,,,,,,,,,,,,,,,,,,,,,,,,,False,79,80,False,exp3.png,exp4.png,trial_left_image,1,exp3.png,1,exp3.png,exp4.png,1,1,non-reversed,correct,0.6608303621553214,1,valid_win,469.8692890999955,53,,,,,,,,,,,s_055,1,2021_Feb_03_1400,Reversal,3.2.4,59.98296484094683,
20,exp1.png,exp2.png,3,0,3,0,0,20,20,20,,,,,,,,,,,,,,,,,,,,,,,,,True,,,,,,,,,,,,,,,,,,,,,,,,,,,,,,,s_055,1,2021_Feb_03_1400,Reversal,3.2.4,59.98296484094683,
,,,3,0,3,0,,,,,0,0,0,0,,,,,,,,,,,,,,,,,,,,,,,,,,,,,,,,,,,,,,,,,,97,50.0,32,64,,,,,,,s_055,1,2021_Feb_03_1400,Reversal,3.2.4,59.98296484094683,
0,exp1.png,exp2.png,,,,,,,,,,,,,,,,,0,0,0,0,0,0,0,0,,,,,,,,,False,0,81,True,exp2.png,exp1.png,trial_right_image,-1,exp1.png,1,exp2.png,exp1.png,1,3,reversed,incorrect,0.11330102344929383,1,invalid_win,497.6436303999799,54,,,,,495.57686099997954,,,,,,s_055,1,2021_Feb_03_1400,Reversal,3.2.4,59.98296484094683,
1,exp3.png,exp4.png,,,,,,,,,,,,,,,,,0,0,0,0,0,1,1,1,,,,,,,,,False,1,82,True,exp4.png,exp3.png,trial_left_image,1,exp4.png,1,exp3.png,exp4.png,0,2,non-reversed,incorrect,0.8373960724140473,0,valid_lose,502.0750357999932,54,,,,,,,,,,,s_055,1,2021_Feb_03_1400,Reversal,3.2.4,59.98296484094683,
2,exp1.png,exp2.png,,,,,,,,,,,,,,,,,0,0,0,0,0,2,2,2,,,,,,,,,False,2,83,True,exp2.png,exp1.png,trial_right_image,-1,exp1.png,1,exp2.png,exp1.png,1,3,reversed,incorrect,0.8054529516043543,0,valid_lose,506.1236284999759,54,,,,,,,,,,,s_055,1,2021_Feb_03_1400,Reversal,3.2.4,59.98296484094683,
3,exp3.png,exp4.png,,,,,,,,,,,,,,,,,0,0,0,0,0,3,3,3,,,,,,,,,False,3,84,False,exp3.png,exp4.png,trial_left_image,1,exp3.png,1,exp3.png,exp4.png,1,1,non-reversed,correct,0.041658157512380556,0,invalid_lose,510.356080699974,54,,,,,,,,,,,s_055,1,2021_Feb_03_1400,Reversal,3.2.4,59.98296484094683,
4,exp1.png,exp2.png,,,,,,,,,,,,,,,,,0,0,0,0,0,4,4,4,,,,,,,,,False,4,85,False,exp1.png,exp2.png,trial_left_image,1,exp1.png,1,exp2.png,exp1.png,1,3,reversed,incorrect,0.4070864476623244,0,valid_lose,514.8207809999876,54,,,,,,,,,,,s_055,1,2021_Feb_03_1400,Reversal,3.2.4,59.98296484094683,
5,exp3.png,exp4.png,,,,,,,,,,,,,,,,,0,0,0,0,0,5,5,5,,,,,,,,,False,5,86,True,exp4.png,exp3.png,trial_left_image,1,exp4.png,1,exp3.png,exp4.png,0,2,non-reversed,incorrect,0.11271091203471884,1,invalid_win,519.2859732999932,55,,,,,,,,,,,s_055,1,2021_Feb_03_1400,Reversal,3.2.4,59.98296484094683,
6,exp1.png,exp2.png,,,,,,,,,,,,,,,,,0,0,0,0,0,6,6,6,,,,,,,,,False,6,87,True,exp2.png,exp1.png,trial_left_image,1,exp2.png,1,exp2.png,exp1.png,0,4,reversed,correct,0.9509540424974608,1,valid_win,523.3681227999914,56,,,,,,,,,,,s_055,1,2021_Feb_03_1400,Reversal,3.2.4,59.98296484094683,
7,exp3.png,exp4.png,,,,,,,,,,,,,,,,,0,0,0,0,0,7,7,7,,,,,,,,,False,7,88,False,exp3.png,exp4.png,trial_right_image,-1,exp4.png,1,exp3.png,exp4.png,0,2,non-reversed,incorrect,0.5041712187119579,0,valid_lose,527.3010746999935,56,,,,,,,,,,,s_055,1,2021_Feb_03_1400,Reversal,3.2.4,59.98296484094683,
8,exp1.png,exp2.png,,,,,,,,,,,,,,,,,0,0,0,0,0,8,8,8,,,,,,,,,False,8,89,False,exp1.png,exp2.png,trial_right_image,-1,exp2.png,1,exp2.png,exp1.png,0,4,reversed,correct,0.38202125302155765,1,valid_win,531.3984893999877,57,,,,,,,,,,,s_055,1,2021_Feb_03_1400,Reversal,3.2.4,59.98296484094683,
9,exp3.png,exp4.png,,,,,,,,,,,,,,,,,0,0,0,0,0,9,9,9,,,,,,,,,False,9,90,False,exp3.png,exp4.png,trial_right_image,-1,exp4.png,1,exp3.png,exp4.png,0,2,non-reversed,incorrect,0.7083580842199759,0,valid_lose,537.4296266999736,57,,,,,,,,,,,s_055,1,2021_Feb_03_1400,Reversal,3.2.4,59.98296484094683,
10,exp1.png,exp2.png,,,,,,,,,,,,,,,,,0,0,0,0,0,10,10,10,,,,,,,,,False,10,91,True,exp2.png,exp1.png,trial_left_image,1,exp2.png,1,exp2.png,exp1.png,0,4,reversed,correct,0.44632479003186465,1,valid_win,541.7622018999828,58,,,,,,,,,,,s_055,1,2021_Feb_03_1400,Reversal,3.2.4,59.98296484094683,
11,exp3.png,exp4.png,,,,,,,,,,,,,,,,,0,0,0,0,0,11,11,11,,,,,,,,,False,11,92,False,exp3.png,exp4.png,trial_left_image,1,exp3.png,1,exp3.png,exp4.png,1,1,non-reversed,correct,0.9739777677677992,1,valid_win,546.8599902999995,59,,,,,,,,,,,s_055,1,2021_Feb_03_1400,Reversal,3.2.4,59.98296484094683,
12,exp1.png,exp2.png,,,,,,,,,,,,,,,,,0,0,0,0,0,12,12,12,,,,,,,,,False,12,93,True,exp2.png,exp1.png,trial_left_image,1,exp2.png,1,exp2.png,exp1.png,0,4,reversed,correct,0.3518080683734338,1,valid_win,551.2750024999841,60,,,,,,,,,,,s_055,1,2021_Feb_03_1400,Reversal,3.2.4,59.98296484094683,
13,exp3.png,exp4.png,,,,,,,,,,,,,,,,,0,0,0,0,0,13,13,13,,,,,,,,,False,13,94,True,exp4.png,exp3.png,trial_right_image,-1,exp3.png,1,exp3.png,exp4.png,1,1,non-reversed,correct,0.5402603898900741,1,valid_win,556.5065233999921,61,,,,,,,,,,,s_055,1,2021_Feb_03_1400,Reversal,3.2.4,59.98296484094683,
14,exp1.png,exp2.png,,,,,,,,,,,,,,,,,0,0,0,0,0,14,14,14,,,,,,,,,False,14,95,False,exp1.png,exp2.png,trial_right_image,-1,exp2.png,1,exp2.png,exp1.png,0,4,reversed,correct,0.8432651960403282,1,valid_win,560.6881630999851,62,,,,,,,,,,,s_055,1,2021_Feb_03_1400,Reversal,3.2.4,59.98296484094683,
15,exp3.png,exp4.png,,,,,,,,,,,,,,,,,0,0,0,0,0,15,15,15,,,,,,,,,False,15,96,False,exp3.png,exp4.png,trial_right_image,-1,exp4.png,1,exp3.png,exp4.png,0,2,non-reversed,incorrect,0.08142050100832898,1,invalid_win,566.4869002999912,63,,,,,,,,,,,s_055,1,2021_Feb_03_1400,Reversal,3.2.4,59.98296484094683,
16,exp1.png,exp2.png,,,,,,,,,,,,,,,,,0,0,0,0,0,16,16,16,,,,,,,,,False,16,97,True,exp2.png,exp1.png,trial_left_image,1,exp2.png,1,exp2.png,exp1.png,0,4,reversed,correct,0.7080981542431675,1,valid_win,571.368596299988,64,,,,,,,,,,,s_055,1,2021_Feb_03_1400,Reversal,3.2.4,59.98296484094683,
17,exp3.png,exp4.png,,,,,,,,,,,,,,,,,0,0,0,0,0,17,17,17,,,,,,,,,False,17,98,False,exp3.png,exp4.png,trial_right_image,-1,exp4.png,1,exp3.png,exp4.png,0,2,non-reversed,incorrect,0.17936575332244065,1,invalid_win,576.1330598999921,65,,,,,,,,,,,s_055,1,2021_Feb_03_1400,Reversal,3.2.4,59.98296484094683,
18,exp1.png,exp2.png,,,,,,,,,,,,,,,,,0,0,0,0,0,18,18,18,,,,,,,,,False,18,99,True,exp2.png,exp1.png,trial_left_image,1,exp2.png,1,exp2.png,exp1.png,0,4,reversed,correct,0.34567360868403063,1,valid_win,580.6983262999856,66,,,,,,,,,,,s_055,1,2021_Feb_03_1400,Reversal,3.2.4,59.98296484094683,
19,exp3.png,exp4.png,,,,,,,,,,,,,,,,,0,0,0,0,0,19,19,19,,,,,,,,,False,19,100,False,exp3.png,exp4.png,trial_left_image,1,exp3.png,1,exp3.png,exp4.png,1,1,non-reversed,correct,0.13909832848260095,0,invalid_lose,585.0305557999818,66,,,,,,,,,,,s_055,1,2021_Feb_03_1400,Reversal,3.2.4,59.98296484094683,
20,exp1.png,exp2.png,,,,,,,,,,,,,,,,,0,0,0,0,0,20,20,20,,,,,,,,,True,,,,,,,,,,,,,,,,,,,,,,,,,,,,,,,s_055,1,2021_Feb_03_1400,Reversal,3.2.4,59.98296484094683,
,,,,,,,,,,,,,,,,,,,0,0,0,0,,,,,0,0,0,0,,,,,,,,,,,,,,,,,,,,,,,,,,0,100,37,58,,,,,,,s_055,1,2021_Feb_03_1400,Reversal,3.2.4,59.98296484094683,
0,exp1.png,exp2.png,,,,,,,,,,,,,,,,,1,0,1,0,0,0,0,0,,,,,,,,,False,20,101,True,exp2.png,exp1.png,trial_right_image,-1,exp1.png,1,exp2.png,exp1.png,1,3,reversed,incorrect,0.918828425294381,0,valid_lose,607.6394832999795,66,,,,,,,,,,,s_055,1,2021_Feb_03_1400,Reversal,3.2.4,59.98296484094683,
1,exp3.png,exp4.png,,,,,,,,,,,,,,,,,1,0,1,0,0,1,1,1,,,,,,,,,False,21,102,True,exp4.png,exp3.png,trial_left_image,1,exp4.png,1,exp3.png,exp4.png,0,2,non-reversed,incorrect,0.6718829169552637,0,valid_lose,611.9716908999835,66,,,,,,,,,,,s_055,1,2021_Feb_03_1400,Reversal,3.2.4,59.98296484094683,
2,exp1.png,exp2.png,,,,,,,,,,,,,,,,,1,0,1,0,0,2,2,2,,,,,,,,,False,22,103,False,exp1.png,exp2.png,trial_left_image,1,exp1.png,1,exp2.png,exp1.png,1,3,reversed,incorrect,0.47852367678362706,0,valid_lose,617.3359162999841,66,,,,,,,,,,,s_055,1,2021_Feb_03_1400,Reversal,3.2.4,59.98296484094683,
3,exp3.png,exp4.png,,,,,,,,,,,,,,,,,1,0,1,0,0,3,3,3,,,,,,,,,False,23,104,True,exp4.png,exp3.png,trial_left_image,1,exp4.png,1,exp3.png,exp4.png,0,2,non-reversed,incorrect,0.7137529311294132,0,valid_lose,622.2676647999906,66,,,,,,,,,,,s_055,1,2021_Feb_03_1400,Reversal,3.2.4,59.98296484094683,
4,exp1.png,exp2.png,,,,,,,,,,,,,,,,,1,0,1,0,0,4,4,4,,,,,,,,,False,24,105,True,exp2.png,exp1.png,trial_right_image,-1,exp1.png,1,exp2.png,exp1.png,1,3,reversed,incorrect,0.7877447819613026,0,valid_lose,628.565992399992,66,,,,,,,,,,,s_055,1,2021_Feb_03_1400,Reversal,3.2.4,59.98296484094683,
5,exp3.png,exp4.png,,,,,,,,,,,,,,,,,1,0,1,0,0,5,5,5,,,,,,,,,False,25,106,False,exp3.png,exp4.png,trial_left_image,1,exp3.png,1,exp3.png,exp4.png,1,1,non-reversed,correct,0.13556327035418325,0,invalid_lose,633.9639398999861,66,,,,,,,,,,,s_055,1,2021_Feb_03_1400,Reversal,3.2.4,59.98296484094683,
6,exp1.png,exp2.png,,,,,,,,,,,,,,,,,1,0,1,0,0,6,6,6,,,,,,,,,False,26,107,True,exp2.png,exp1.png,trial_left_image,1,exp2.png,1,exp2.png,exp1.png,0,4,reversed,correct,0.6794391988918325,1,valid_win,638.0127391999995,67,,,,,,,,,,,s_055,1,2021_Feb_03_1400,Reversal,3.2.4,59.98296484094683,
7,exp3.png,exp4.png,,,,,,,,,,,,,,,,,1,0,1,0,0,7,7,7,,,,,,,,,False,27,108,True,exp4.png,exp3.png,trial_left_image,1,exp4.png,1,exp3.png,exp4.png,0,2,non-reversed,incorrect,0.18190243692276709,1,invalid_win,642.1443305999856,68,,,,,,,,,,,s_055,1,2021_Feb_03_1400,Reversal,3.2.4,59.98296484094683,
8,exp1.png,exp2.png,,,,,,,,,,,,,,,,,1,0,1,0,0,8,8,8,,,,,,,,,False,28,109,False,exp1.png,exp2.png,trial_right_image,-1,exp2.png,1,exp2.png,exp1.png,0,4,reversed,correct,0.003756448348616437,0,invalid_lose,646.2593854999868,68,,,,,,,,,,,s_055,1,2021_Feb_03_1400,Reversal,3.2.4,59.98296484094683,
9,exp3.png,exp4.png,,,,,,,,,,,,,,,,,1,0,1,0,0,9,9,9,,,,,,,,,False,29,110,True,exp4.png,exp3.png,trial_left_image,1,exp4.png,1,exp3.png,exp4.png,0,2,non-reversed,incorrect,0.1925964432955306,1,invalid_win,650.3918978999718,69,,,,,,,,,,,s_055,1,2021_Feb_03_1400,Reversal,3.2.4,59.98296484094683,
10,exp1.png,exp2.png,,,,,,,,,,,,,,,,,1,0,1,0,0,10,10,10,,,,,,,,,False,30,111,False,exp1.png,exp2.png,trial_right_image,-1,exp2.png,1,exp2.png,exp1.png,0,4,reversed,correct,0.9280407599844767,1,valid_win,656.889686999988,70,,,,,,,,,,,s_055,1,2021_Feb_03_1400,Reversal,3.2.4,59.98296484094683,
11,exp3.png,exp4.png,,,,,,,,,,,,,,,,,1,0,1,0,0,11,11,11,,,,,,,,,False,31,112,True,exp4.png,exp3.png,trial_right_image,-1,exp3.png,1,exp3.png,exp4.png,1,1,non-reversed,correct,0.5522986468403536,1,valid_win,661.4386499999964,71,,,,,,,,,,,s_055,1,2021_Feb_03_1400,Reversal,3.2.4,59.98296484094683,
12,exp1.png,exp2.png,,,,,,,,,,,,,,,,,1,0,1,0,0,12,12,12,,,,,,,,,False,32,113,True,exp2.png,exp1.png,trial_left_image,1,exp2.png,1,exp2.png,exp1.png,0,4,reversed,correct,0.18337809857372156,0,invalid_lose,666.3693305999914,71,,,,,,,,,,,s_055,1,2021_Feb_03_1400,Reversal,3.2.4,59.98296484094683,
13,exp3.png,exp4.png,,,,,,,,,,,,,,,,,1,0,1,0,0,13,13,13,,,,,,,,,False,33,114,False,exp3.png,exp4.png,trial_left_image,1,exp3.png,1,exp3.png,exp4.png,1,1,non-reversed,correct,0.5867388911047844,1,valid_win,670.3046135999903,72,,,,,,,,,,,s_055,1,2021_Feb_03_1400,Reversal,3.2.4,59.98296484094683,
14,exp1.png,exp2.png,,,,,,,,,,,,,,,,,1,0,1,0,0,14,14,14,,,,,,,,,False,34,115,False,exp1.png,exp2.png,trial_right_image,-1,exp2.png,1,exp2.png,exp1.png,0,4,reversed,correct,0.3436392335908357,1,valid_win,674.4665630999953,73,,,,,,,,,,,s_055,1,2021_Feb_03_1400,Reversal,3.2.4,59.98296484094683,
15,exp3.png,exp4.png,,,,,,,,,,,,,,,,,1,0,1,0,0,15,15,15,,,,,,,,,False,35,116,False,exp3.png,exp4.png,trial_left_image,1,exp3.png,1,exp3.png,exp4.png,1,1,non-reversed,correct,0.4663927034771087,1,valid_win,679.8322436999879,74,,,,,,,,,,,s_055,1,2021_Feb_03_1400,Reversal,3.2.4,59.98296484094683,
16,exp1.png,exp2.png,,,,,,,,,,,,,,,,,1,0,1,0,0,16,16,16,,,,,,,,,False,36,117,False,exp1.png,exp2.png,trial_right_image,-1,exp2.png,1,exp2.png,exp1.png,0,4,reversed,correct,0.08248680338121828,0,invalid_lose,685.5297129999963,74,,,,,,,,,,,s_055,1,2021_Feb_03_1400,Reversal,3.2.4,59.98296484094683,
17,exp3.png,exp4.png,,,,,,,,,,,,,,,,,1,0,1,0,0,17,17,17,,,,,,,,,False,37,118,False,exp3.png,exp4.png,trial_left_image,1,exp3.png,1,exp3.png,exp4.png,1,1,non-reversed,correct,0.5568314022309118,1,valid_win,689.6116552999883,75,,,,,,,,,,,s_055,1,2021_Feb_03_1400,Reversal,3.2.4,59.98296484094683,
18,exp1.png,exp2.png,,,,,,,,,,,,,,,,,1,0,1,0,0,18,18,18,,,,,,,,,False,38,119,True,exp2.png,exp1.png,trial_right_image,-1,exp1.png,1,exp2.png,exp1.png,1,3,reversed,incorrect,0.362724539529767,0,valid_lose,693.9100139999937,75,,,,,,,,,,,s_055,1,2021_Feb_03_1400,Reversal,3.2.4,59.98296484094683,
19,exp3.png,exp4.png,,,,,,,,,,,,,,,,,1,0,1,0,0,19,19,19,,,,,,,,,False,39,120,False,exp3.png,exp4.png,trial_right_image,-1,exp4.png,1,exp3.png,exp4.png,0,2,non-reversed,incorrect,0.6802867983525632,0,valid_lose,698.258707299974,75,,,,,,,,,,,s_055,1,2021_Feb_03_1400,Reversal,3.2.4,59.98296484094683,
20,exp1.png,exp2.png,,,,,,,,,,,,,,,,,1,0,1,0,0,20,20,20,,,,,,,,,True,,,,,,,,,,,,,,,,,,,,,,,,,,,,,,,s_055,1,2021_Feb_03_1400,Reversal,3.2.4,59.98296484094683,
,,,,,,,,,,,,,,,,,,,1,0,1,0,,,,,0,0,0,0,,,,,,,,,,,,,,,,,,,,,,,,,,72,27,59,39,,,,,,,s_055,1,2021_Feb_03_1400,Reversal,3.2.4,59.98296484094683,
0,exp1.png,exp2.png,,,,,,,,,,,,,,,,,2,0,2,0,0,0,0,0,,,,,,,,,False,40,121,False,exp1.png,exp2.png,trial_left_image,1,exp1.png,1,exp2.png,exp1.png,1,3,reversed,incorrect,0.9936340070382353,0,valid_lose,714.8361776999955,75,,,,,,,,,,,s_055,1,2021_Feb_03_1400,Reversal,3.2.4,59.98296484094683,
1,exp3.png,exp4.png,,,,,,,,,,,,,,,,,2,0,2,0,0,1,1,1,,,,,,,,,False,41,122,True,exp4.png,exp3.png,trial_right_image,-1,exp3.png,1,exp3.png,exp4.png,1,1,non-reversed,correct,0.12014013040378524,0,invalid_lose,720.7674260999775,75,,,,,,,,,,,s_055,1,2021_Feb_03_1400,Reversal,3.2.4,59.98296484094683,
2,exp1.png,exp2.png,,,,,,,,,,,,,,,,,2,0,2,0,0,2,2,2,,,,,,,,,False,42,123,False,exp1.png,exp2.png,trial_right_image,-1,exp2.png,1,exp2.png,exp1.png,0,4,reversed,correct,0.806323195087574,1,valid_win,725.0995378999796,76,,,,,,,,,,,s_055,1,2021_Feb_03_1400,Reversal,3.2.4,59.98296484094683,
3,exp3.png,exp4.png,,,,,,,,,,,,,,,,,2,0,2,0,0,3,3,3,,,,,,,,,False,43,124,True,exp4.png,exp3.png,trial_left_image,1,exp4.png,1,exp3.png,exp4.png,0,2,non-reversed,incorrect,0.08421480825022498,1,invalid_win,728.98191089998,77,,,,,,,,,,,s_055,1,2021_Feb_03_1400,Reversal,3.2.4,59.98296484094683,
4,exp1.png,exp2.png,,,,,,,,,,,,,,,,,2,0,2,0,0,4,4,4,,,,,,,,,False,44,125,True,exp2.png,exp1.png,trial_left_image,1,exp2.png,1,exp2.png,exp1.png,0,4,reversed,correct,0.18888784009955573,0,invalid_lose,732.9808598999807,77,,,,,,,,,,,s_055,1,2021_Feb_03_1400,Reversal,3.2.4,59.98296484094683,
5,exp3.png,exp4.png,,,,,,,,,,,,,,,,,2,0,2,0,0,5,5,5,,,,,,,,,False,45,126,True,exp4.png,exp3.png,trial_right_image,-1,exp3.png,1,exp3.png,exp4.png,1,1,non-reversed,correct,0.2325538925006021,0,invalid_lose,736.9453023999813,77,,,,,,,,,,,s_055,1,2021_Feb_03_1400,Reversal,3.2.4,59.98296484094683,
6,exp1.png,exp2.png,,,,,,,,,,,,,,,,,2,0,2,0,0,6,6,6,,,,,,,,,False,46,127,False,exp1.png,exp2.png,trial_left_image,1,exp1.png,1,exp2.png,exp1.png,1,3,reversed,incorrect,0.8064791600560033,0,valid_lose,741.1940220999822,77,,,,,,,,,,,s_055,1,2021_Feb_03_1400,Reversal,3.2.4,59.98296484094683,
7,exp3.png,exp4.png,,,,,,,,,,,,,,,,,2,0,2,0,0,7,7,7,,,,,,,,,False,47,128,True,exp4.png,exp3.png,trial_right_image,-1,exp3.png,1,exp3.png,exp4.png,1,1,non-reversed,correct,0.7048866950841034,1,valid_win,746.8925395999977,78,,,,,,,,,,,s_055,1,2021_Feb_03_1400,Reversal,3.2.4,59.98296484094683,
8,exp1.png,exp2.png,,,,,,,,,,,,,,,,,2,0,2,0,0,8,8,8,,,,,,,,,False,48,129,False,exp1.png,exp2.png,trial_left_image,1,exp1.png,1,exp2.png,exp1.png,1,3,reversed,incorrect,0.37412002951000456,0,valid_lose,751.4572915999743,78,,,,,,,,,,,s_055,1,2021_Feb_03_1400,Reversal,3.2.4,59.98296484094683,
9,exp3.png,exp4.png,,,,,,,,,,,,,,,,,2,0,2,0,0,9,9,9,,,,,,,,,False,49,130,False,exp3.png,exp4.png,trial_right_image,-1,exp4.png,1,exp3.png,exp4.png,0,2,non-reversed,incorrect,0.38977366704682603,0,valid_lose,756.8552750999806,78,,,,,,,,,,,s_055,1,2021_Feb_03_1400,Reversal,3.2.4,59.98296484094683,
10,exp1.png,exp2.png,,,,,,,,,,,,,,,,,2,0,2,0,0,10,10,10,,,,,,,,,False,50,131,False,exp1.png,exp2.png,trial_right_image,-1,exp2.png,1,exp2.png,exp1.png,0,4,reversed,correct,0.4317640682830053,1,valid_win,761.6697817999811,79,,,,,,,,,,,s_055,1,2021_Feb_03_1400,Reversal,3.2.4,59.98296484094683,
11,exp3.png,exp4.png,,,,,,,,,,,,,,,,,2,0,2,0,0,11,11,11,,,,,,,,,False,51,132,True,exp4.png,exp3.png,trial_right_image,-1,exp3.png,1,exp3.png,exp4.png,1,1,non-reversed,correct,0.25853378804234983,1,valid_win,766.8022600999975,80,,,,,,,,,,,s_055,1,2021_Feb_03_1400,Reversal,3.2.4,59.98296484094683,
12,exp1.png,exp2.png,,,,,,,,,,,,,,,,,2,0,2,0,0,12,12,12,,,,,,,,,False,52,133,True,exp2.png,exp1.png,trial_left_image,1,exp2.png,1,exp2.png,exp1.png,0,4,reversed,correct,0.04352412486269641,0,invalid_lose,770.9173687000002,80,,,,,,,,,,,s_055,1,2021_Feb_03_1400,Reversal,3.2.4,59.98296484094683,
13,exp3.png,exp4.png,,,,,,,,,,,,,,,,,2,0,2,0,0,13,13,13,,,,,,,,,False,53,134,False,exp3.png,exp4.png,trial_right_image,-1,exp4.png,1,exp3.png,exp4.png,0,2,non-reversed,incorrect,0.48402619270149516,0,valid_lose,775.4823494999728,80,,,,,,,,,,,s_055,1,2021_Feb_03_1400,Reversal,3.2.4,59.98296484094683,
14,exp1.png,exp2.png,,,,,,,,,,,,,,,,,2,0,2,0,0,14,14,14,,,,,,,,,False,54,135,False,exp1.png,exp2.png,trial_right_image,-1,exp2.png,1,exp2.png,exp1.png,0,4,reversed,correct,0.12542443215881205,0,invalid_lose,779.9641055999964,80,,,,,,,,,,,s_055,1,2021_Feb_03_1400,Reversal,3.2.4,59.98296484094683,
15,exp3.png,exp4.png,,,,,,,,,,,,,,,,,2,0,2,0,0,15,15,15,,,,,,,,,False,55,136,False,exp3.png,exp4.png,trial_left_image,1,exp3.png,1,exp3.png,exp4.png,1,1,non-reversed,correct,0.12465784439143779,0,invalid_lose,784.1960989999934,80,,,,,,,,,,,s_055,1,2021_Feb_03_1400,Reversal,3.2.4,59.98296484094683,
16,exp1.png,exp2.png,,,,,,,,,,,,,,,,,2,0,2,0,0,16,16,16,,,,,,,,,False,56,137,True,exp2.png,exp1.png,trial_left_image,1,exp2.png,1,exp2.png,exp1.png,0,4,reversed,correct,0.654513359860153,1,valid_win,788.87765759998,81,,,,,,,,,,,s_055,1,2021_Feb_03_1400,Reversal,3.2.4,59.98296484094683,
17,exp3.png,exp4.png,,,,,,,,,,,,,,,,,2,0,2,0,0,17,17,17,,,,,,,,,False,57,138,True,exp4.png,exp3.png,trial_right_image,-1,exp3.png,1,exp3.png,exp4.png,1,1,non-reversed,correct,0.09788163320797094,0,invalid_lose,793.1433967999765,81,,,,,,,,,,,s_055,1,2021_Feb_03_1400,Reversal,3.2.4,59.98296484094683,
18,exp1.png,exp2.png,,,,,,,,,,,,,,,,,2,0,2,0,0,18,18,18,,,,,,,,,False,58,139,True,exp2.png,exp1.png,trial_left_image,1,exp2.png,1,exp2.png,exp1.png,0,4,reversed,correct,0.8318204622446703,1,valid_win,797.9409485999786,82,,,,,,,,,,,s_055,1,2021_Feb_03_1400,Reversal,3.2.4,59.98296484094683,
19,exp3.png,exp4.png,,,,,,,,,,,,,,,,,2,0,2,0,0,19,19,19,,,,,,,,,False,59,140,False,exp3.png,exp4.png,trial_right_image,-1,exp4.png,1,exp3.png,exp4.png,0,2,non-reversed,incorrect,0.4414460921092491,0,valid_lose,802.9562358999974,82,,,,,,,,,,,s_055,1,2021_Feb_03_1400,Reversal,3.2.4,59.98296484094683,
20,exp1.png,exp2.png,,,,,,,,,,,,,,,,,2,0,2,0,0,20,20,20,,,,,,,,,True,,,,,,,,,,,,,,,,,,,,,,,,,,,,,,,s_055,1,2021_Feb_03_1400,Reversal,3.2.4,59.98296484094683,
,,,,,,,,,,,,,,,,,,,2,0,2,0,,,,,0,0,0,0,,,,,,,,,,,,,,,,,,,,,,,,,,16,82,31,72,,,,,,,s_055,1,2021_Feb_03_1400,Reversal,3.2.4,59.98296484094683,
,,,,,,,,,,,,,,,,,,,,,,,,,,,,,,,,,,,,,,,,,,,,,,,,,,,,,,,82,,,,,,94,59,35,325.8390017999918,1,,,,,,,
