trial_index,trial_image1_file,trial_image2_file,learning_outer_loop.thisRepN,learning_outer_loop.thisTrialN,learning_outer_loop.thisN,learning_outer_loop.thisIndex,learning_inner_loop.thisRepN,learning_inner_loop.thisTrialN,learning_inner_loop.thisN,learning_inner_loop.thisIndex,learning_estimation_outer_loop.thisRepN,learning_estimation_outer_loop.thisTrialN,learning_estimation_outer_loop.thisN,learning_estimation_outer_loop.thisIndex,learning_estimation_inner_loop.thisRepN,learning_estimation_inner_loop.thisTrialN,learning_estimation_inner_loop.thisN,learning_estimation_inner_loop.thisIndex,reversal_outer_loop.thisRepN,reversal_outer_loop.thisTrialN,reversal_outer_loop.thisN,reversal_outer_loop.thisIndex,reversal_inner_loop.thisRepN,reversal_inner_loop.thisTrialN,reversal_inner_loop.thisN,reversal_inner_loop.thisIndex,reversal_estimation_outer_loop.thisRepN,reversal_estimation_outer_loop.thisTrialN,reversal_estimation_outer_loop.thisN,reversal_estimation_outer_loop.thisIndex,reversal_estimation_inner_loop.thisRepN,reversal_estimation_inner_loop.thisTrialN,reversal_estimation_inner_loop.thisN,reversal_estimation_inner_loop.thisIndex,skipped,total_trial_counter,trial_num,left_right_flip,left_image_file,right_image_file,clicked_stimulus_side,side,clicked_stimulus,version,high_prob_image_file,low_prob_image_file,choice_a,choice_b,pair_type,correct,trial_feedback_random,reward,trial_type,overall_time_after_trial,score,estimation_exp1.png,estimation_exp2.png,estimation_exp3.png,estimation_exp4.png,total_learning_time,total_correct,learning_correct,reversal_correct,total_reversal_time,extra_block,participant,ver,date,expName,psychopyVersion,frameRate,
0,exp1.png,exp2.png,0,0,0,0,0,0,0,0,,,,,,,,,,,,,,,,,,,,,,,,,False,0,1,True,exp2.png,exp1.png,trial_right_image,-1,exp1.png,1,exp1.png,exp2.png,1,3,reversed,correct,0.32567880142455985,1,valid_win,10.309223400021438,1,,,,,,,,,,,s_063,1,2021_Feb_17_1353,Reversal,3.2.4,59.96641880806107,
1,exp3.png,exp4.png,0,0,0,0,0,1,1,1,,,,,,,,,,,,,,,,,,,,,,,,,False,1,2,True,exp4.png,exp3.png,trial_right_image,-1,exp3.png,1,exp3.png,exp4.png,1,1,non-reversed,correct,0.08699822810736058,0,invalid_lose,19.139185199979693,1,,,,,,,,,,,s_063,1,2021_Feb_17_1353,Reversal,3.2.4,59.96641880806107,
2,exp1.png,exp2.png,0,0,0,0,0,2,2,2,,,,,,,,,,,,,,,,,,,,,,,,,False,2,3,False,exp1.png,exp2.png,trial_left_image,1,exp1.png,1,exp1.png,exp2.png,1,3,reversed,correct,0.23290977995404605,0,invalid_lose,25.63667480001459,1,,,,,,,,,,,s_063,1,2021_Feb_17_1353,Reversal,3.2.4,59.96641880806107,
3,exp3.png,exp4.png,0,0,0,0,0,3,3,3,,,,,,,,,,,,,,,,,,,,,,,,,False,3,4,True,exp4.png,exp3.png,trial_left_image,1,exp4.png,1,exp3.png,exp4.png,0,2,non-reversed,incorrect,0.7747273117992919,0,valid_lose,30.9028876000084,1,,,,,,,,,,,s_063,1,2021_Feb_17_1353,Reversal,3.2.4,59.96641880806107,
4,exp1.png,exp2.png,0,0,0,0,0,4,4,4,,,,,,,,,,,,,,,,,,,,,,,,,False,4,5,True,exp2.png,exp1.png,trial_right_image,-1,exp1.png,1,exp1.png,exp2.png,1,3,reversed,correct,0.9864130297290246,1,valid_win,44.41342639998766,2,,,,,,,,,,,s_063,1,2021_Feb_17_1353,Reversal,3.2.4,59.96641880806107,
5,exp3.png,exp4.png,0,0,0,0,0,5,5,5,,,,,,,,,,,,,,,,,,,,,,,,,False,5,6,True,exp4.png,exp3.png,trial_right_image,-1,exp3.png,1,exp3.png,exp4.png,1,1,non-reversed,correct,0.09751701368682608,0,invalid_lose,51.411122300021816,2,,,,,,,,,,,s_063,1,2021_Feb_17_1353,Reversal,3.2.4,59.96641880806107,
6,exp1.png,exp2.png,0,0,0,0,0,6,6,6,,,,,,,,,,,,,,,,,,,,,,,,,False,6,7,True,exp2.png,exp1.png,trial_right_image,-1,exp1.png,1,exp1.png,exp2.png,1,3,reversed,correct,0.8574762029207451,1,valid_win,57.05902699998114,3,,,,,,,,,,,s_063,1,2021_Feb_17_1353,Reversal,3.2.4,59.96641880806107,
7,exp3.png,exp4.png,0,0,0,0,0,7,7,7,,,,,,,,,,,,,,,,,,,,,,,,,False,7,8,True,exp4.png,exp3.png,trial_left_image,1,exp4.png,1,exp3.png,exp4.png,0,2,non-reversed,incorrect,0.4009372745136687,0,valid_lose,65.87404329999117,3,,,,,,,,,,,s_063,1,2021_Feb_17_1353,Reversal,3.2.4,59.96641880806107,
8,exp1.png,exp2.png,0,0,0,0,0,8,8,8,,,,,,,,,,,,,,,,,,,,,,,,,False,8,9,False,exp1.png,exp2.png,trial_left_image,1,exp1.png,1,exp1.png,exp2.png,1,3,reversed,correct,0.5487048975543547,1,valid_win,71.80602820002241,4,,,,,,,,,,,s_063,1,2021_Feb_17_1353,Reversal,3.2.4,59.96641880806107,
9,exp3.png,exp4.png,0,0,0,0,0,9,9,9,,,,,,,,,,,,,,,,,,,,,,,,,False,9,10,True,exp4.png,exp3.png,trial_right_image,-1,exp3.png,1,exp3.png,exp4.png,1,1,non-reversed,correct,0.41275478647664454,1,valid_win,99.79507160000503,5,,,,,,,,,,,s_063,1,2021_Feb_17_1353,Reversal,3.2.4,59.96641880806107,
10,exp1.png,exp2.png,0,0,0,0,0,10,10,10,,,,,,,,,,,,,,,,,,,,,,,,,False,10,11,True,exp2.png,exp1.png,trial_right_image,-1,exp1.png,1,exp1.png,exp2.png,1,3,reversed,correct,0.7441744452428586,1,valid_win,105.1602890000213,6,,,,,,,,,,,s_063,1,2021_Feb_17_1353,Reversal,3.2.4,59.96641880806107,
11,exp3.png,exp4.png,0,0,0,0,0,11,11,11,,,,,,,,,,,,,,,,,,,,,,,,,False,11,12,False,exp3.png,exp4.png,trial_right_image,-1,exp4.png,1,exp3.png,exp4.png,0,2,non-reversed,incorrect,0.3987650531829945,0,valid_lose,112.12385199998971,6,,,,,,,,,,,s_063,1,2021_Feb_17_1353,Reversal,3.2.4,59.96641880806107,
12,exp1.png,exp2.png,0,0,0,0,0,12,12,12,,,,,,,,,,,,,,,,,,,,,,,,,False,12,13,False,exp1.png,exp2.png,trial_left_image,1,exp1.png,1,exp1.png,exp2.png,1,3,reversed,correct,0.416166292729661,1,valid_win,121.12147040001582,7,,,,,,,,,,,s_063,1,2021_Feb_17_1353,Reversal,3.2.4,59.96641880806107,
13,exp3.png,exp4.png,0,0,0,0,0,13,13,13,,,,,,,,,,,,,,,,,,,,,,,,,False,13,14,False,exp3.png,exp4.png,trial_left_image,1,exp3.png,1,exp3.png,exp4.png,1,1,non-reversed,correct,0.9038472785689605,1,valid_win,134.01659199997084,8,,,,,,,,,,,s_063,1,2021_Feb_17_1353,Reversal,3.2.4,59.96641880806107,
14,exp1.png,exp2.png,0,0,0,0,0,14,14,14,,,,,,,,,,,,,,,,,,,,,,,,,False,14,15,True,exp2.png,exp1.png,trial_right_image,-1,exp1.png,1,exp1.png,exp2.png,1,3,reversed,correct,0.07824704236326885,0,invalid_lose,139.93213370000012,8,,,,,,,,,,,s_063,1,2021_Feb_17_1353,Reversal,3.2.4,59.96641880806107,
15,exp3.png,exp4.png,0,0,0,0,0,15,15,15,,,,,,,,,,,,,,,,,,,,,,,,,False,15,16,False,exp3.png,exp4.png,trial_left_image,1,exp3.png,1,exp3.png,exp4.png,1,1,non-reversed,correct,0.08752991475578042,0,invalid_lose,145.89737189997686,8,,,,,,,,,,,s_063,1,2021_Feb_17_1353,Reversal,3.2.4,59.96641880806107,
16,exp1.png,exp2.png,0,0,0,0,0,16,16,16,,,,,,,,,,,,,,,,,,,,,,,,,False,16,17,False,exp1.png,exp2.png,trial_left_image,1,exp1.png,1,exp1.png,exp2.png,1,3,reversed,correct,0.8590464544594725,1,valid_win,150.86145600001328,9,,,,,,,,,,,s_063,1,2021_Feb_17_1353,Reversal,3.2.4,59.96641880806107,
17,exp3.png,exp4.png,0,0,0,0,0,17,17,17,,,,,,,,,,,,,,,,,,,,,,,,,False,17,18,False,exp3.png,exp4.png,trial_left_image,1,exp3.png,1,exp3.png,exp4.png,1,1,non-reversed,correct,0.32565962166794304,1,valid_win,157.7759166000178,10,,,,,,,,,,,s_063,1,2021_Feb_17_1353,Reversal,3.2.4,59.96641880806107,
18,exp1.png,exp2.png,0,0,0,0,0,18,18,18,,,,,,,,,,,,,,,,,,,,,,,,,False,18,19,False,exp1.png,exp2.png,trial_left_image,1,exp1.png,1,exp1.png,exp2.png,1,3,reversed,correct,0.4354556577716331,1,valid_win,162.94050259998767,11,,,,,,,,,,,s_063,1,2021_Feb_17_1353,Reversal,3.2.4,59.96641880806107,
19,exp3.png,exp4.png,0,0,0,0,0,19,19,19,,,,,,,,,,,,,,,,,,,,,,,,,False,19,20,False,exp3.png,exp4.png,trial_left_image,1,exp3.png,1,exp3.png,exp4.png,1,1,non-reversed,correct,0.06858635865297524,0,invalid_lose,169.05520790000446,11,,,,,,,,,,,s_063,1,2021_Feb_17_1353,Reversal,3.2.4,59.96641880806107,
20,exp1.png,exp2.png,0,0,0,0,0,20,20,20,,,,,,,,,,,,,,,,,,,,,,,,,True,,,,,,,,,,,,,,,,,,,,,,,,,,,,,,,s_063,1,2021_Feb_17_1353,Reversal,3.2.4,59.96641880806107,
,,,0,0,0,0,,,,,0,0,0,0,,,,,,,,,,,,,,,,,,,,,,,,,,,,,,,,,,,,,,,,,,98,0,32,30,,,,,,,s_063,1,2021_Feb_17_1353,Reversal,3.2.4,59.96641880806107,
0,exp1.png,exp2.png,1,0,1,0,0,0,0,0,,,,,,,,,,,,,,,,,,,,,,,,,False,20,21,True,exp2.png,exp1.png,trial_right_image,-1,exp1.png,1,exp1.png,exp2.png,1,3,reversed,correct,0.9269117123719649,1,valid_win,209.108302299981,12,,,,,,,,,,,s_063,1,2021_Feb_17_1353,Reversal,3.2.4,59.96641880806107,
1,exp3.png,exp4.png,1,0,1,0,0,1,1,1,,,,,,,,,,,,,,,,,,,,,,,,,False,21,22,False,exp3.png,exp4.png,trial_right_image,-1,exp4.png,1,exp3.png,exp4.png,0,2,non-reversed,incorrect,0.9545077301837697,0,valid_lose,216.82188060000772,12,,,,,,,,,,,s_063,1,2021_Feb_17_1353,Reversal,3.2.4,59.96641880806107,
2,exp1.png,exp2.png,1,0,1,0,0,2,2,2,,,,,,,,,,,,,,,,,,,,,,,,,False,22,23,False,exp1.png,exp2.png,trial_left_image,1,exp1.png,1,exp1.png,exp2.png,1,3,reversed,correct,0.5898173494448026,1,valid_win,221.43868809996638,13,,,,,,,,,,,s_063,1,2021_Feb_17_1353,Reversal,3.2.4,59.96641880806107,
3,exp3.png,exp4.png,1,0,1,0,0,3,3,3,,,,,,,,,,,,,,,,,,,,,,,,,False,23,24,True,exp4.png,exp3.png,trial_left_image,1,exp4.png,1,exp3.png,exp4.png,0,2,non-reversed,incorrect,0.8146902914666817,0,valid_lose,230.585145799967,13,,,,,,,,,,,s_063,1,2021_Feb_17_1353,Reversal,3.2.4,59.96641880806107,
4,exp1.png,exp2.png,1,0,1,0,0,4,4,4,,,,,,,,,,,,,,,,,,,,,,,,,False,24,25,False,exp1.png,exp2.png,trial_left_image,1,exp1.png,1,exp1.png,exp2.png,1,3,reversed,correct,0.713322521049163,1,valid_win,235.18289719999302,14,,,,,,,,,,,s_063,1,2021_Feb_17_1353,Reversal,3.2.4,59.96641880806107,
5,exp3.png,exp4.png,1,0,1,0,0,5,5,5,,,,,,,,,,,,,,,,,,,,,,,,,False,25,26,False,exp3.png,exp4.png,trial_left_image,1,exp3.png,1,exp3.png,exp4.png,1,1,non-reversed,correct,0.44418364827773493,1,valid_win,239.58211650000885,15,,,,,,,,,,,s_063,1,2021_Feb_17_1353,Reversal,3.2.4,59.96641880806107,
6,exp1.png,exp2.png,1,0,1,0,0,6,6,6,,,,,,,,,,,,,,,,,,,,,,,,,False,26,27,False,exp1.png,exp2.png,trial_left_image,1,exp1.png,1,exp1.png,exp2.png,1,3,reversed,correct,0.19459691289886327,0,invalid_lose,245.87939119996736,15,,,,,,,,,,,s_063,1,2021_Feb_17_1353,Reversal,3.2.4,59.96641880806107,
7,exp3.png,exp4.png,1,0,1,0,0,7,7,7,,,,,,,,,,,,,,,,,,,,,,,,,False,27,28,True,exp4.png,exp3.png,trial_right_image,-1,exp3.png,1,exp3.png,exp4.png,1,1,non-reversed,correct,0.6571144002757601,1,valid_win,251.3117413999862,16,,,,,,,,,,,s_063,1,2021_Feb_17_1353,Reversal,3.2.4,59.96641880806107,
8,exp1.png,exp2.png,1,0,1,0,0,8,8,8,,,,,,,,,,,,,,,,,,,,,,,,,False,28,29,False,exp1.png,exp2.png,trial_left_image,1,exp1.png,1,exp1.png,exp2.png,1,3,reversed,correct,0.2237368862619985,0,invalid_lose,257.49117910000496,16,,,,,,,,,,,s_063,1,2021_Feb_17_1353,Reversal,3.2.4,59.96641880806107,
9,exp3.png,exp4.png,1,0,1,0,0,9,9,9,,,,,,,,,,,,,,,,,,,,,,,,,False,29,30,True,exp4.png,exp3.png,trial_right_image,-1,exp3.png,1,exp3.png,exp4.png,1,1,non-reversed,correct,0.5669513453051377,1,valid_win,263.17342210002244,17,,,,,,,,,,,s_063,1,2021_Feb_17_1353,Reversal,3.2.4,59.96641880806107,
10,exp1.png,exp2.png,1,0,1,0,0,10,10,10,,,,,,,,,,,,,,,,,,,,,,,,,False,30,31,True,exp2.png,exp1.png,trial_left_image,1,exp2.png,1,exp1.png,exp2.png,0,4,reversed,incorrect,0.3867452584730564,0,valid_lose,267.70530329999747,17,,,,,,,,,,,s_063,1,2021_Feb_17_1353,Reversal,3.2.4,59.96641880806107,
11,exp3.png,exp4.png,1,0,1,0,0,11,11,11,,,,,,,,,,,,,,,,,,,,,,,,,False,31,32,True,exp4.png,exp3.png,trial_right_image,-1,exp3.png,1,exp3.png,exp4.png,1,1,non-reversed,correct,0.5486830989912046,1,valid_win,274.93525129999034,18,,,,,,,,,,,s_063,1,2021_Feb_17_1353,Reversal,3.2.4,59.96641880806107,
12,exp1.png,exp2.png,1,0,1,0,0,12,12,12,,,,,,,,,,,,,,,,,,,,,,,,,False,32,33,True,exp2.png,exp1.png,trial_right_image,-1,exp1.png,1,exp1.png,exp2.png,1,3,reversed,correct,0.8041285884621422,1,valid_win,284.24927289999323,19,,,,,,,,,,,s_063,1,2021_Feb_17_1353,Reversal,3.2.4,59.96641880806107,
13,exp3.png,exp4.png,1,0,1,0,0,13,13,13,,,,,,,,,,,,,,,,,,,,,,,,,False,33,34,True,exp4.png,exp3.png,trial_right_image,-1,exp3.png,1,exp3.png,exp4.png,1,1,non-reversed,correct,0.28480057647541024,1,valid_win,290.1140640999656,20,,,,,,,,,,,s_063,1,2021_Feb_17_1353,Reversal,3.2.4,59.96641880806107,
14,exp1.png,exp2.png,1,0,1,0,0,14,14,14,,,,,,,,,,,,,,,,,,,,,,,,,False,34,35,False,exp1.png,exp2.png,trial_right_image,-1,exp2.png,1,exp1.png,exp2.png,0,4,reversed,incorrect,0.09116751253032807,1,invalid_win,297.77895989996614,21,,,,,,,,,,,s_063,1,2021_Feb_17_1353,Reversal,3.2.4,59.96641880806107,
15,exp3.png,exp4.png,1,0,1,0,0,15,15,15,,,,,,,,,,,,,,,,,,,,,,,,,False,35,36,False,exp3.png,exp4.png,trial_left_image,1,exp3.png,1,exp3.png,exp4.png,1,1,non-reversed,correct,0.03790444278966443,0,invalid_lose,303.27544200001284,21,,,,,,,,,,,s_063,1,2021_Feb_17_1353,Reversal,3.2.4,59.96641880806107,
16,exp1.png,exp2.png,1,0,1,0,0,16,16,16,,,,,,,,,,,,,,,,,,,,,,,,,False,36,37,True,exp2.png,exp1.png,trial_right_image,-1,exp1.png,1,exp1.png,exp2.png,1,3,reversed,correct,0.791566692553901,1,valid_win,317.62147579999873,22,,,,,,,,,,,s_063,1,2021_Feb_17_1353,Reversal,3.2.4,59.96641880806107,
17,exp3.png,exp4.png,1,0,1,0,0,17,17,17,,,,,,,,,,,,,,,,,,,,,,,,,False,37,38,False,exp3.png,exp4.png,trial_left_image,1,exp3.png,1,exp3.png,exp4.png,1,1,non-reversed,correct,0.9628023812541833,1,valid_win,323.1191610000096,23,,,,,,,,,,,s_063,1,2021_Feb_17_1353,Reversal,3.2.4,59.96641880806107,
18,exp1.png,exp2.png,1,0,1,0,0,18,18,18,,,,,,,,,,,,,,,,,,,,,,,,,False,38,39,False,exp1.png,exp2.png,trial_right_image,-1,exp2.png,1,exp1.png,exp2.png,0,4,reversed,incorrect,0.018652780825439752,1,invalid_win,331.93350460001966,24,,,,,,,,,,,s_063,1,2021_Feb_17_1353,Reversal,3.2.4,59.96641880806107,
19,exp3.png,exp4.png,1,0,1,0,0,19,19,19,,,,,,,,,,,,,,,,,,,,,,,,,False,39,40,True,exp4.png,exp3.png,trial_left_image,1,exp4.png,1,exp3.png,exp4.png,0,2,non-reversed,incorrect,0.5927575505598924,0,valid_lose,337.1316304000211,24,,,,,,,,,,,s_063,1,2021_Feb_17_1353,Reversal,3.2.4,59.96641880806107,
20,exp1.png,exp2.png,1,0,1,0,0,20,20,20,,,,,,,,,,,,,,,,,,,,,,,,,True,,,,,,,,,,,,,,,,,,,,,,,,,,,,,,,s_063,1,2021_Feb_17_1353,Reversal,3.2.4,59.96641880806107,
,,,1,0,1,0,,,,,0,0,0,0,,,,,,,,,,,,,,,,,,,,,,,,,,,,,,,,,,,,,,,,,,29,68,49,50.0,,,,,,,s_063,1,2021_Feb_17_1353,Reversal,3.2.4,59.96641880806107,
0,exp1.png,exp2.png,2,0,2,0,0,0,0,0,,,,,,,,,,,,,,,,,,,,,,,,,False,40,41,False,exp1.png,exp2.png,trial_left_image,1,exp1.png,1,exp1.png,exp2.png,1,3,reversed,correct,0.3823033580642258,1,valid_win,368.5039211999974,25,,,,,,,,,,,s_063,1,2021_Feb_17_1353,Reversal,3.2.4,59.96641880806107,
1,exp3.png,exp4.png,2,0,2,0,0,1,1,1,,,,,,,,,,,,,,,,,,,,,,,,,False,41,42,True,exp4.png,exp3.png,trial_right_image,-1,exp3.png,1,exp3.png,exp4.png,1,1,non-reversed,correct,0.4148280571091715,1,valid_win,373.95304100000067,26,,,,,,,,,,,s_063,1,2021_Feb_17_1353,Reversal,3.2.4,59.96641880806107,
2,exp1.png,exp2.png,2,0,2,0,0,2,2,2,,,,,,,,,,,,,,,,,,,,,,,,,False,42,43,False,exp1.png,exp2.png,trial_right_image,-1,exp2.png,1,exp1.png,exp2.png,0,4,reversed,incorrect,0.12499374308832245,1,invalid_win,384.3813082000124,27,,,,,,,,,,,s_063,1,2021_Feb_17_1353,Reversal,3.2.4,59.96641880806107,
3,exp3.png,exp4.png,2,0,2,0,0,3,3,3,,,,,,,,,,,,,,,,,,,,,,,,,False,43,44,True,exp4.png,exp3.png,trial_left_image,1,exp4.png,1,exp3.png,exp4.png,0,2,non-reversed,incorrect,0.9979126007172978,0,valid_lose,389.1968721000012,27,,,,,,,,,,,s_063,1,2021_Feb_17_1353,Reversal,3.2.4,59.96641880806107,
4,exp1.png,exp2.png,2,0,2,0,0,4,4,4,,,,,,,,,,,,,,,,,,,,,,,,,False,44,45,False,exp1.png,exp2.png,trial_right_image,-1,exp2.png,1,exp1.png,exp2.png,0,4,reversed,incorrect,0.9601172751127516,0,valid_lose,398.45959119999316,27,,,,,,,,,,,s_063,1,2021_Feb_17_1353,Reversal,3.2.4,59.96641880806107,
5,exp3.png,exp4.png,2,0,2,0,0,5,5,5,,,,,,,,,,,,,,,,,,,,,,,,,False,45,46,False,exp3.png,exp4.png,trial_right_image,-1,exp4.png,1,exp3.png,exp4.png,0,2,non-reversed,incorrect,0.8000411673015918,0,valid_lose,407.9410074999905,27,,,,,,,,,,,s_063,1,2021_Feb_17_1353,Reversal,3.2.4,59.96641880806107,
6,exp1.png,exp2.png,2,0,2,0,0,6,6,6,,,,,,,,,,,,,,,,,,,,,,,,,False,46,47,True,exp2.png,exp1.png,trial_right_image,-1,exp1.png,1,exp1.png,exp2.png,1,3,reversed,correct,0.7015906611278797,1,valid_win,417.6208843999775,28,,,,,,,,,,,s_063,1,2021_Feb_17_1353,Reversal,3.2.4,59.96641880806107,
7,exp3.png,exp4.png,2,0,2,0,0,7,7,7,,,,,,,,,,,,,,,,,,,,,,,,,False,47,48,True,exp4.png,exp3.png,trial_left_image,1,exp4.png,1,exp3.png,exp4.png,0,2,non-reversed,incorrect,0.6467443116828859,0,valid_lose,422.2531207000138,28,,,,,,,,,,,s_063,1,2021_Feb_17_1353,Reversal,3.2.4,59.96641880806107,
8,exp1.png,exp2.png,2,0,2,0,0,8,8,8,,,,,,,,,,,,,,,,,,,,,,,,,False,48,49,False,exp1.png,exp2.png,trial_left_image,1,exp1.png,1,exp1.png,exp2.png,1,3,reversed,correct,0.8223477459584455,1,valid_win,430.13362009997945,29,,,,,,,,,,,s_063,1,2021_Feb_17_1353,Reversal,3.2.4,59.96641880806107,
9,exp3.png,exp4.png,2,0,2,0,0,9,9,9,,,,,,,,,,,,,,,,,,,,,,,,,False,49,50,False,exp3.png,exp4.png,trial_right_image,-1,exp4.png,1,exp3.png,exp4.png,0,2,non-reversed,incorrect,0.7937050076984585,0,valid_lose,437.3475767999771,29,,,,,,,,,,,s_063,1,2021_Feb_17_1353,Reversal,3.2.4,59.96641880806107,
10,exp1.png,exp2.png,2,0,2,0,0,10,10,10,,,,,,,,,,,,,,,,,,,,,,,,,False,50,51,False,exp1.png,exp2.png,trial_left_image,1,exp1.png,1,exp1.png,exp2.png,1,3,reversed,correct,0.19993576774788946,0,invalid_lose,443.23004280001624,29,,,,,,,,,,,s_063,1,2021_Feb_17_1353,Reversal,3.2.4,59.96641880806107,
11,exp3.png,exp4.png,2,0,2,0,0,11,11,11,,,,,,,,,,,,,,,,,,,,,,,,,False,51,52,True,exp4.png,exp3.png,trial_right_image,-1,exp3.png,1,exp3.png,exp4.png,1,1,non-reversed,correct,0.4999769866478154,1,valid_win,448.5095836999826,30,,,,,,,,,,,s_063,1,2021_Feb_17_1353,Reversal,3.2.4,59.96641880806107,
12,exp1.png,exp2.png,2,0,2,0,0,12,12,12,,,,,,,,,,,,,,,,,,,,,,,,,False,52,53,True,exp2.png,exp1.png,trial_left_image,1,exp2.png,1,exp1.png,exp2.png,0,4,reversed,incorrect,0.948974702960786,0,valid_lose,462.7726667000097,30,,,,,,,,,,,s_063,1,2021_Feb_17_1353,Reversal,3.2.4,59.96641880806107,
13,exp3.png,exp4.png,2,0,2,0,0,13,13,13,,,,,,,,,,,,,,,,,,,,,,,,,False,53,54,False,exp3.png,exp4.png,trial_left_image,1,exp3.png,1,exp3.png,exp4.png,1,1,non-reversed,correct,0.4612421275279933,1,valid_win,469.36939659999916,31,,,,,,,,,,,s_063,1,2021_Feb_17_1353,Reversal,3.2.4,59.96641880806107,
14,exp1.png,exp2.png,2,0,2,0,0,14,14,14,,,,,,,,,,,,,,,,,,,,,,,,,False,54,55,False,exp1.png,exp2.png,trial_left_image,1,exp1.png,1,exp1.png,exp2.png,1,3,reversed,correct,0.5088256707205001,1,valid_win,488.04683040000964,32,,,,,,,,,,,s_063,1,2021_Feb_17_1353,Reversal,3.2.4,59.96641880806107,
15,exp3.png,exp4.png,2,0,2,0,0,15,15,15,,,,,,,,,,,,,,,,,,,,,,,,,False,55,56,True,exp4.png,exp3.png,trial_left_image,1,exp4.png,1,exp3.png,exp4.png,0,2,non-reversed,incorrect,0.5425651844590708,0,valid_lose,495.2944507999928,32,,,,,,,,,,,s_063,1,2021_Feb_17_1353,Reversal,3.2.4,59.96641880806107,
16,exp1.png,exp2.png,2,0,2,0,0,16,16,16,,,,,,,,,,,,,,,,,,,,,,,,,False,56,57,True,exp2.png,exp1.png,trial_left_image,1,exp2.png,1,exp1.png,exp2.png,0,4,reversed,incorrect,0.15714852017181546,1,invalid_win,500.5766443000175,33,,,,,,,,,,,s_063,1,2021_Feb_17_1353,Reversal,3.2.4,59.96641880806107,
17,exp3.png,exp4.png,2,0,2,0,0,17,17,17,,,,,,,,,,,,,,,,,,,,,,,,,False,57,58,True,exp4.png,exp3.png,trial_right_image,-1,exp3.png,1,exp3.png,exp4.png,1,1,non-reversed,correct,0.6201495988168447,1,valid_win,506.65760350000346,34,,,,,,,,,,,s_063,1,2021_Feb_17_1353,Reversal,3.2.4,59.96641880806107,
18,exp1.png,exp2.png,2,0,2,0,0,18,18,18,,,,,,,,,,,,,,,,,,,,,,,,,False,58,59,True,exp2.png,exp1.png,trial_left_image,1,exp2.png,1,exp1.png,exp2.png,0,4,reversed,incorrect,0.6524182943361694,0,valid_lose,511.1059651999967,34,,,,,,,,,,,s_063,1,2021_Feb_17_1353,Reversal,3.2.4,59.96641880806107,
19,exp3.png,exp4.png,2,0,2,0,0,19,19,19,,,,,,,,,,,,,,,,,,,,,,,,,False,59,60,False,exp3.png,exp4.png,trial_left_image,1,exp3.png,1,exp3.png,exp4.png,1,1,non-reversed,correct,0.25676786914369065,1,valid_win,514.9550575999892,35,,,,,,,,,,,s_063,1,2021_Feb_17_1353,Reversal,3.2.4,59.96641880806107,
20,exp1.png,exp2.png,2,0,2,0,0,20,20,20,,,,,,,,,,,,,,,,,,,,,,,,,True,,,,,,,,,,,,,,,,,,,,,,,,,,,,,,,s_063,1,2021_Feb_17_1353,Reversal,3.2.4,59.96641880806107,
,,,2,0,2,0,,,,,0,0,0,0,,,,,,,,,,,,,,,,,,,,,,,,,,,,,,,,,,,,,,,,,,50.0,50.0,50.0,50.0,,,,,,,s_063,1,2021_Feb_17_1353,Reversal,3.2.4,59.96641880806107,
0,exp1.png,exp2.png,3,0,3,0,0,0,0,0,,,,,,,,,,,,,,,,,,,,,,,,,False,60,61,False,exp1.png,exp2.png,trial_left_image,1,exp1.png,1,exp1.png,exp2.png,1,3,reversed,correct,0.11803457886232316,0,invalid_lose,527.8500554999919,35,,,,,,,,,,,s_063,1,2021_Feb_17_1353,Reversal,3.2.4,59.96641880806107,
1,exp3.png,exp4.png,3,0,3,0,0,1,1,1,,,,,,,,,,,,,,,,,,,,,,,,,False,61,62,False,exp3.png,exp4.png,trial_left_image,1,exp3.png,1,exp3.png,exp4.png,1,1,non-reversed,correct,0.2475127113476745,0,invalid_lose,535.9807959999889,35,,,,,,,,,,,s_063,1,2021_Feb_17_1353,Reversal,3.2.4,59.96641880806107,
2,exp1.png,exp2.png,3,0,3,0,0,2,2,2,,,,,,,,,,,,,,,,,,,,,,,,,False,62,63,True,exp2.png,exp1.png,trial_right_image,-1,exp1.png,1,exp1.png,exp2.png,1,3,reversed,correct,0.5189168412023754,1,valid_win,545.7272050000029,36,,,,,,,,,,,s_063,1,2021_Feb_17_1353,Reversal,3.2.4,59.96641880806107,
3,exp3.png,exp4.png,3,0,3,0,0,3,3,3,,,,,,,,,,,,,,,,,,,,,,,,,False,63,64,True,exp4.png,exp3.png,trial_right_image,-1,exp3.png,1,exp3.png,exp4.png,1,1,non-reversed,correct,0.2583616346247912,1,valid_win,553.4904121999862,37,,,,,,,,,,,s_063,1,2021_Feb_17_1353,Reversal,3.2.4,59.96641880806107,
4,exp1.png,exp2.png,3,0,3,0,0,4,4,4,,,,,,,,,,,,,,,,,,,,,,,,,False,64,65,True,exp2.png,exp1.png,trial_right_image,-1,exp1.png,1,exp1.png,exp2.png,1,3,reversed,correct,0.5200205375982406,1,valid_win,557.939980199968,38,,,,,,,,,,,s_063,1,2021_Feb_17_1353,Reversal,3.2.4,59.96641880806107,
5,exp3.png,exp4.png,3,0,3,0,0,5,5,5,,,,,,,,,,,,,,,,,,,,,,,,,False,65,66,True,exp4.png,exp3.png,trial_right_image,-1,exp3.png,1,exp3.png,exp4.png,1,1,non-reversed,correct,0.0644490380567242,0,invalid_lose,562.4721268999856,38,,,,,,,,,,,s_063,1,2021_Feb_17_1353,Reversal,3.2.4,59.96641880806107,
6,exp1.png,exp2.png,3,0,3,0,0,6,6,6,,,,,,,,,,,,,,,,,,,,,,,,,False,66,67,False,exp1.png,exp2.png,trial_left_image,1,exp1.png,1,exp1.png,exp2.png,1,3,reversed,correct,0.5983822179958673,1,valid_win,566.4704080999945,39,,,,,,,,,,,s_063,1,2021_Feb_17_1353,Reversal,3.2.4,59.96641880806107,
7,exp3.png,exp4.png,3,0,3,0,0,7,7,7,,,,,,,,,,,,,,,,,,,,,,,,,False,67,68,True,exp4.png,exp3.png,trial_left_image,1,exp4.png,1,exp3.png,exp4.png,0,2,non-reversed,incorrect,0.5141166810468498,0,valid_lose,570.2856452999986,39,,,,,,,,,,,s_063,1,2021_Feb_17_1353,Reversal,3.2.4,59.96641880806107,
8,exp1.png,exp2.png,3,0,3,0,0,8,8,8,,,,,,,,,,,,,,,,,,,,,,,,,False,68,69,True,exp2.png,exp1.png,trial_right_image,-1,exp1.png,1,exp1.png,exp2.png,1,3,reversed,correct,0.662991355464367,1,valid_win,574.084844099998,40,,,,,,,,,,,s_063,1,2021_Feb_17_1353,Reversal,3.2.4,59.96641880806107,
9,exp3.png,exp4.png,3,0,3,0,0,9,9,9,,,,,,,,,,,,,,,,,,,,,,,,,False,69,70,True,exp4.png,exp3.png,trial_right_image,-1,exp3.png,1,exp3.png,exp4.png,1,1,non-reversed,correct,0.8202160241188579,1,valid_win,577.8834984999849,41,,,,,,,,,,,s_063,1,2021_Feb_17_1353,Reversal,3.2.4,59.96641880806107,
10,exp1.png,exp2.png,3,0,3,0,0,10,10,10,,,,,,,,,,,,,,,,,,,,,,,,,False,70,71,True,exp2.png,exp1.png,trial_right_image,-1,exp1.png,1,exp1.png,exp2.png,1,3,reversed,correct,0.4316052314681812,1,valid_win,582.0485175999929,42,,,,,,,,,,,s_063,1,2021_Feb_17_1353,Reversal,3.2.4,59.96641880806107,
11,exp3.png,exp4.png,3,0,3,0,0,11,11,11,,,,,,,,,,,,,,,,,,,,,,,,,False,71,72,False,exp3.png,exp4.png,trial_right_image,-1,exp4.png,1,exp3.png,exp4.png,0,2,non-reversed,incorrect,0.8792532188497535,0,valid_lose,586.8637944000075,42,,,,,,,,,,,s_063,1,2021_Feb_17_1353,Reversal,3.2.4,59.96641880806107,
12,exp1.png,exp2.png,3,0,3,0,0,12,12,12,,,,,,,,,,,,,,,,,,,,,,,,,False,72,73,False,exp1.png,exp2.png,trial_left_image,1,exp1.png,1,exp1.png,exp2.png,1,3,reversed,correct,0.23579405758207472,0,invalid_lose,592.545473599981,42,,,,,,,,,,,s_063,1,2021_Feb_17_1353,Reversal,3.2.4,59.96641880806107,
13,exp3.png,exp4.png,3,0,3,0,0,13,13,13,,,,,,,,,,,,,,,,,,,,,,,,,False,73,74,False,exp3.png,exp4.png,trial_right_image,-1,exp4.png,1,exp3.png,exp4.png,0,2,non-reversed,incorrect,0.04195057617802489,1,invalid_win,596.4440964999958,43,,,,,,,,,,,s_063,1,2021_Feb_17_1353,Reversal,3.2.4,59.96641880806107,
14,exp1.png,exp2.png,3,0,3,0,0,14,14,14,,,,,,,,,,,,,,,,,,,,,,,,,False,74,75,False,exp1.png,exp2.png,trial_right_image,-1,exp2.png,1,exp1.png,exp2.png,0,4,reversed,incorrect,0.4885598090811618,0,valid_lose,600.2914389999933,43,,,,,,,,,,,s_063,1,2021_Feb_17_1353,Reversal,3.2.4,59.96641880806107,
15,exp3.png,exp4.png,3,0,3,0,0,15,15,15,,,,,,,,,,,,,,,,,,,,,,,,,False,75,76,False,exp3.png,exp4.png,trial_left_image,1,exp3.png,1,exp3.png,exp4.png,1,1,non-reversed,correct,0.6317273065875132,1,valid_win,604.0915795000037,44,,,,,,,,,,,s_063,1,2021_Feb_17_1353,Reversal,3.2.4,59.96641880806107,
16,exp1.png,exp2.png,3,0,3,0,0,16,16,16,,,,,,,,,,,,,,,,,,,,,,,,,False,76,77,False,exp1.png,exp2.png,trial_left_image,1,exp1.png,1,exp1.png,exp2.png,1,3,reversed,correct,0.450765665528607,1,valid_win,608.4392068000161,45,,,,,,,,,,,s_063,1,2021_Feb_17_1353,Reversal,3.2.4,59.96641880806107,
17,exp3.png,exp4.png,3,0,3,0,0,17,17,17,,,,,,,,,,,,,,,,,,,,,,,,,False,77,78,True,exp4.png,exp3.png,trial_left_image,1,exp4.png,1,exp3.png,exp4.png,0,2,non-reversed,incorrect,0.9149103390567241,0,valid_lose,612.5046082999907,45,,,,,,,,,,,s_063,1,2021_Feb_17_1353,Reversal,3.2.4,59.96641880806107,
18,exp1.png,exp2.png,3,0,3,0,0,18,18,18,,,,,,,,,,,,,,,,,,,,,,,,,False,78,79,True,exp2.png,exp1.png,trial_right_image,-1,exp1.png,1,exp1.png,exp2.png,1,3,reversed,correct,0.9436369026647868,1,valid_win,617.6031258999719,46,,,,,,,,,,,s_063,1,2021_Feb_17_1353,Reversal,3.2.4,59.96641880806107,
19,exp3.png,exp4.png,3,0,3,0,0,19,19,19,,,,,,,,,,,,,,,,,,,,,,,,,False,79,80,False,exp3.png,exp4.png,trial_right_image,-1,exp4.png,1,exp3.png,exp4.png,0,2,non-reversed,incorrect,0.5403201370143638,0,valid_lose,621.8683919999748,46,,,,,,,,,,,s_063,1,2021_Feb_17_1353,Reversal,3.2.4,59.96641880806107,
20,exp1.png,exp2.png,3,0,3,0,0,20,20,20,,,,,,,,,,,,,,,,,,,,,,,,,True,,,,,,,,,,,,,,,,,,,,,,,,,,,,,,,s_063,1,2021_Feb_17_1353,Reversal,3.2.4,59.96641880806107,
,,,3,0,3,0,,,,,0,0,0,0,,,,,,,,,,,,,,,,,,,,,,,,,,,,,,,,,,,,,,,,,,50.0,50.0,50.0,50.0,,,,,,,s_063,1,2021_Feb_17_1353,Reversal,3.2.4,59.96641880806107,
0,exp1.png,exp2.png,,,,,,,,,,,,,,,,,0,0,0,0,0,0,0,0,,,,,,,,,False,0,81,False,exp1.png,exp2.png,trial_left_image,1,exp1.png,1,exp2.png,exp1.png,1,3,reversed,incorrect,0.540513924495116,0,valid_lose,661.337216600019,46,,,,,628.0089693000191,,,,,,s_063,1,2021_Feb_17_1353,Reversal,3.2.4,59.96641880806107,
1,exp3.png,exp4.png,,,,,,,,,,,,,,,,,0,0,0,0,0,1,1,1,,,,,,,,,False,1,82,True,exp4.png,exp3.png,trial_left_image,1,exp4.png,1,exp3.png,exp4.png,0,2,non-reversed,incorrect,0.19697898670993363,1,invalid_win,667.5357065999997,47,,,,,,,,,,,s_063,1,2021_Feb_17_1353,Reversal,3.2.4,59.96641880806107,
2,exp1.png,exp2.png,,,,,,,,,,,,,,,,,0,0,0,0,0,2,2,2,,,,,,,,,False,2,83,False,exp1.png,exp2.png,trial_right_image,-1,exp2.png,1,exp2.png,exp1.png,0,4,reversed,correct,0.8994307440392745,1,valid_win,672.3338986000163,48,,,,,,,,,,,s_063,1,2021_Feb_17_1353,Reversal,3.2.4,59.96641880806107,
3,exp3.png,exp4.png,,,,,,,,,,,,,,,,,0,0,0,0,0,3,3,3,,,,,,,,,False,3,84,False,exp3.png,exp4.png,trial_right_image,-1,exp4.png,1,exp3.png,exp4.png,0,2,non-reversed,incorrect,0.5545045205860383,0,valid_lose,677.3662905999809,48,,,,,,,,,,,s_063,1,2021_Feb_17_1353,Reversal,3.2.4,59.96641880806107,
4,exp1.png,exp2.png,,,,,,,,,,,,,,,,,0,0,0,0,0,4,4,4,,,,,,,,,False,4,85,False,exp1.png,exp2.png,trial_left_image,1,exp1.png,1,exp2.png,exp1.png,1,3,reversed,incorrect,0.40502611250350196,0,valid_lose,686.5293558000121,48,,,,,,,,,,,s_063,1,2021_Feb_17_1353,Reversal,3.2.4,59.96641880806107,
5,exp3.png,exp4.png,,,,,,,,,,,,,,,,,0,0,0,0,0,5,5,5,,,,,,,,,False,5,86,True,exp4.png,exp3.png,trial_left_image,1,exp4.png,1,exp3.png,exp4.png,0,2,non-reversed,incorrect,0.9914725119420776,0,valid_lose,691.2793758999906,48,,,,,,,,,,,s_063,1,2021_Feb_17_1353,Reversal,3.2.4,59.96641880806107,
6,exp1.png,exp2.png,,,,,,,,,,,,,,,,,0,0,0,0,0,6,6,6,,,,,,,,,False,6,87,True,exp2.png,exp1.png,trial_left_image,1,exp2.png,1,exp2.png,exp1.png,0,4,reversed,correct,0.959363376341215,1,valid_win,698.7590845000232,49,,,,,,,,,,,s_063,1,2021_Feb_17_1353,Reversal,3.2.4,59.96641880806107,
7,exp3.png,exp4.png,,,,,,,,,,,,,,,,,0,0,0,0,0,7,7,7,,,,,,,,,False,7,88,False,exp3.png,exp4.png,trial_right_image,-1,exp4.png,1,exp3.png,exp4.png,0,2,non-reversed,incorrect,0.9780410191620271,0,valid_lose,703.6901632000227,49,,,,,,,,,,,s_063,1,2021_Feb_17_1353,Reversal,3.2.4,59.96641880806107,
8,exp1.png,exp2.png,,,,,,,,,,,,,,,,,0,0,0,0,0,8,8,8,,,,,,,,,False,8,89,True,exp2.png,exp1.png,trial_right_image,-1,exp1.png,1,exp2.png,exp1.png,1,3,reversed,incorrect,0.4775503376197049,0,valid_lose,722.6170042000012,49,,,,,,,,,,,s_063,1,2021_Feb_17_1353,Reversal,3.2.4,59.96641880806107,
9,exp3.png,exp4.png,,,,,,,,,,,,,,,,,0,0,0,0,0,9,9,9,,,,,,,,,False,9,90,False,exp3.png,exp4.png,trial_left_image,1,exp3.png,1,exp3.png,exp4.png,1,1,non-reversed,correct,0.13164192323334312,0,invalid_lose,727.0329427999677,49,,,,,,,,,,,s_063,1,2021_Feb_17_1353,Reversal,3.2.4,59.96641880806107,
10,exp1.png,exp2.png,,,,,,,,,,,,,,,,,0,0,0,0,0,10,10,10,,,,,,,,,False,10,91,False,exp1.png,exp2.png,trial_right_image,-1,exp2.png,1,exp2.png,exp1.png,0,4,reversed,correct,0.49382422909122825,1,valid_win,731.6810786999995,50,,,,,,,,,,,s_063,1,2021_Feb_17_1353,Reversal,3.2.4,59.96641880806107,
11,exp3.png,exp4.png,,,,,,,,,,,,,,,,,0,0,0,0,0,11,11,11,,,,,,,,,False,11,92,True,exp4.png,exp3.png,trial_right_image,-1,exp3.png,1,exp3.png,exp4.png,1,1,non-reversed,correct,0.44988948911827964,1,valid_win,739.3450148999691,51,,,,,,,,,,,s_063,1,2021_Feb_17_1353,Reversal,3.2.4,59.96641880806107,
12,exp1.png,exp2.png,,,,,,,,,,,,,,,,,0,0,0,0,0,12,12,12,,,,,,,,,False,12,93,False,exp1.png,exp2.png,trial_left_image,1,exp1.png,1,exp2.png,exp1.png,1,3,reversed,incorrect,0.1480287914072913,1,invalid_win,748.0260966999922,52,,,,,,,,,,,s_063,1,2021_Feb_17_1353,Reversal,3.2.4,59.96641880806107,
13,exp3.png,exp4.png,,,,,,,,,,,,,,,,,0,0,0,0,0,13,13,13,,,,,,,,,False,13,94,False,exp3.png,exp4.png,trial_left_image,1,exp3.png,1,exp3.png,exp4.png,1,1,non-reversed,correct,0.4267827068087071,1,valid_win,754.5903711999999,53,,,,,,,,,,,s_063,1,2021_Feb_17_1353,Reversal,3.2.4,59.96641880806107,
14,exp1.png,exp2.png,,,,,,,,,,,,,,,,,0,0,0,0,0,14,14,14,,,,,,,,,False,14,95,True,exp2.png,exp1.png,trial_right_image,-1,exp1.png,1,exp2.png,exp1.png,1,3,reversed,incorrect,0.789393020163133,0,valid_lose,760.3375510000042,53,,,,,,,,,,,s_063,1,2021_Feb_17_1353,Reversal,3.2.4,59.96641880806107,
15,exp3.png,exp4.png,,,,,,,,,,,,,,,,,0,0,0,0,0,15,15,15,,,,,,,,,False,15,96,True,exp4.png,exp3.png,trial_left_image,1,exp4.png,1,exp3.png,exp4.png,0,2,non-reversed,incorrect,0.03554933034516794,1,invalid_win,768.6346852999995,54,,,,,,,,,,,s_063,1,2021_Feb_17_1353,Reversal,3.2.4,59.96641880806107,
16,exp1.png,exp2.png,,,,,,,,,,,,,,,,,0,0,0,0,0,16,16,16,,,,,,,,,False,16,97,True,exp2.png,exp1.png,trial_right_image,-1,exp1.png,1,exp2.png,exp1.png,1,3,reversed,incorrect,0.9218925853629094,0,valid_lose,774.983127799991,54,,,,,,,,,,,s_063,1,2021_Feb_17_1353,Reversal,3.2.4,59.96641880806107,
17,exp3.png,exp4.png,,,,,,,,,,,,,,,,,0,0,0,0,0,17,17,17,,,,,,,,,False,17,98,True,exp4.png,exp3.png,trial_left_image,1,exp4.png,1,exp3.png,exp4.png,0,2,non-reversed,incorrect,0.31254463230805607,0,valid_lose,781.6144833000144,54,,,,,,,,,,,s_063,1,2021_Feb_17_1353,Reversal,3.2.4,59.96641880806107,
18,exp1.png,exp2.png,,,,,,,,,,,,,,,,,0,0,0,0,0,18,18,18,,,,,,,,,False,18,99,True,exp2.png,exp1.png,trial_right_image,-1,exp1.png,1,exp2.png,exp1.png,1,3,reversed,incorrect,0.2802327134837159,0,valid_lose,785.5299985000165,54,,,,,,,,,,,s_063,1,2021_Feb_17_1353,Reversal,3.2.4,59.96641880806107,
19,exp3.png,exp4.png,,,,,,,,,,,,,,,,,0,0,0,0,0,19,19,19,,,,,,,,,False,19,100,False,exp3.png,exp4.png,trial_right_image,-1,exp4.png,1,exp3.png,exp4.png,0,2,non-reversed,incorrect,0.4571862242457253,0,valid_lose,790.2769816999789,54,,,,,,,,,,,s_063,1,2021_Feb_17_1353,Reversal,3.2.4,59.96641880806107,
20,exp1.png,exp2.png,,,,,,,,,,,,,,,,,0,0,0,0,0,20,20,20,,,,,,,,,True,,,,,,,,,,,,,,,,,,,,,,,,,,,,,,,s_063,1,2021_Feb_17_1353,Reversal,3.2.4,59.96641880806107,
,,,,,,,,,,,,,,,,,,,0,0,0,0,,,,,0,0,0,0,,,,,,,,,,,,,,,,,,,,,,,,,,50.0,50.0,50.0,28,,,,,,,s_063,1,2021_Feb_17_1353,Reversal,3.2.4,59.96641880806107,
0,exp1.png,exp2.png,,,,,,,,,,,,,,,,,1,0,1,0,0,0,0,0,,,,,,,,,False,20,101,True,exp2.png,exp1.png,trial_right_image,-1,exp1.png,1,exp2.png,exp1.png,1,3,reversed,incorrect,0.9653482839579351,0,valid_lose,808.90493780002,54,,,,,,,,,,,s_063,1,2021_Feb_17_1353,Reversal,3.2.4,59.96641880806107,
1,exp3.png,exp4.png,,,,,,,,,,,,,,,,,1,0,1,0,0,1,1,1,,,,,,,,,False,21,102,False,exp3.png,exp4.png,trial_left_image,1,exp3.png,1,exp3.png,exp4.png,1,1,non-reversed,correct,0.008169169599250736,0,invalid_lose,816.9520141999819,54,,,,,,,,,,,s_063,1,2021_Feb_17_1353,Reversal,3.2.4,59.96641880806107,
2,exp1.png,exp2.png,,,,,,,,,,,,,,,,,1,0,1,0,0,2,2,2,,,,,,,,,False,22,103,True,exp2.png,exp1.png,trial_right_image,-1,exp1.png,1,exp2.png,exp1.png,1,3,reversed,incorrect,0.2812195798624465,0,valid_lose,822.6165533000021,54,,,,,,,,,,,s_063,1,2021_Feb_17_1353,Reversal,3.2.4,59.96641880806107,
3,exp3.png,exp4.png,,,,,,,,,,,,,,,,,1,0,1,0,0,3,3,3,,,,,,,,,False,23,104,False,exp3.png,exp4.png,trial_left_image,1,exp3.png,1,exp3.png,exp4.png,1,1,non-reversed,correct,0.3926627666442164,1,valid_win,831.9135596000124,55,,,,,,,,,,,s_063,1,2021_Feb_17_1353,Reversal,3.2.4,59.96641880806107,
4,exp1.png,exp2.png,,,,,,,,,,,,,,,,,1,0,1,0,0,4,4,4,,,,,,,,,False,24,105,False,exp1.png,exp2.png,trial_left_image,1,exp1.png,1,exp2.png,exp1.png,1,3,reversed,incorrect,0.5537156096650306,0,valid_lose,836.6618753999937,55,,,,,,,,,,,s_063,1,2021_Feb_17_1353,Reversal,3.2.4,59.96641880806107,
5,exp3.png,exp4.png,,,,,,,,,,,,,,,,,1,0,1,0,0,5,5,5,,,,,,,,,False,25,106,True,exp4.png,exp3.png,trial_right_image,-1,exp3.png,1,exp3.png,exp4.png,1,1,non-reversed,correct,0.37058227114446096,1,valid_win,842.1937292999937,56,,,,,,,,,,,s_063,1,2021_Feb_17_1353,Reversal,3.2.4,59.96641880806107,
6,exp1.png,exp2.png,,,,,,,,,,,,,,,,,1,0,1,0,0,6,6,6,,,,,,,,,False,26,107,True,exp2.png,exp1.png,trial_left_image,1,exp2.png,1,exp2.png,exp1.png,0,4,reversed,correct,0.0013792692869027956,0,invalid_lose,853.2065880000009,56,,,,,,,,,,,s_063,1,2021_Feb_17_1353,Reversal,3.2.4,59.96641880806107,
7,exp3.png,exp4.png,,,,,,,,,,,,,,,,,1,0,1,0,0,7,7,7,,,,,,,,,False,27,108,True,exp4.png,exp3.png,trial_right_image,-1,exp3.png,1,exp3.png,exp4.png,1,1,non-reversed,correct,0.27809899815261196,1,valid_win,858.9379075000179,57,,,,,,,,,,,s_063,1,2021_Feb_17_1353,Reversal,3.2.4,59.96641880806107,
8,exp1.png,exp2.png,,,,,,,,,,,,,,,,,1,0,1,0,0,8,8,8,,,,,,,,,False,28,109,False,exp1.png,exp2.png,trial_right_image,-1,exp2.png,1,exp2.png,exp1.png,0,4,reversed,correct,0.6472629698391552,1,valid_win,868.8845013999962,58,,,,,,,,,,,s_063,1,2021_Feb_17_1353,Reversal,3.2.4,59.96641880806107,
9,exp3.png,exp4.png,,,,,,,,,,,,,,,,,1,0,1,0,0,9,9,9,,,,,,,,,False,29,110,False,exp3.png,exp4.png,trial_left_image,1,exp3.png,1,exp3.png,exp4.png,1,1,non-reversed,correct,0.3409695214321271,1,valid_win,876.2476801999728,59,,,,,,,,,,,s_063,1,2021_Feb_17_1353,Reversal,3.2.4,59.96641880806107,
10,exp1.png,exp2.png,,,,,,,,,,,,,,,,,1,0,1,0,0,10,10,10,,,,,,,,,False,30,111,True,exp2.png,exp1.png,trial_left_image,1,exp2.png,1,exp2.png,exp1.png,0,4,reversed,correct,0.8739819484873196,1,valid_win,880.8976341999951,60,,,,,,,,,,,s_063,1,2021_Feb_17_1353,Reversal,3.2.4,59.96641880806107,
11,exp3.png,exp4.png,,,,,,,,,,,,,,,,,1,0,1,0,0,11,11,11,,,,,,,,,False,31,112,False,exp3.png,exp4.png,trial_left_image,1,exp3.png,1,exp3.png,exp4.png,1,1,non-reversed,correct,0.35630175114669704,1,valid_win,889.5943065999891,61,,,,,,,,,,,s_063,1,2021_Feb_17_1353,Reversal,3.2.4,59.96641880806107,
12,exp1.png,exp2.png,,,,,,,,,,,,,,,,,1,0,1,0,0,12,12,12,,,,,,,,,False,32,113,False,exp1.png,exp2.png,trial_right_image,-1,exp2.png,1,exp2.png,exp1.png,0,4,reversed,correct,0.3705603168498973,1,valid_win,894.5263974000118,62,,,,,,,,,,,s_063,1,2021_Feb_17_1353,Reversal,3.2.4,59.96641880806107,
13,exp3.png,exp4.png,,,,,,,,,,,,,,,,,1,0,1,0,0,13,13,13,,,,,,,,,False,33,114,True,exp4.png,exp3.png,trial_right_image,-1,exp3.png,1,exp3.png,exp4.png,1,1,non-reversed,correct,0.7392517264095826,1,valid_win,898.9245179999853,63,,,,,,,,,,,s_063,1,2021_Feb_17_1353,Reversal,3.2.4,59.96641880806107,
14,exp1.png,exp2.png,,,,,,,,,,,,,,,,,1,0,1,0,0,14,14,14,,,,,,,,,False,34,115,True,exp2.png,exp1.png,trial_left_image,1,exp2.png,1,exp2.png,exp1.png,0,4,reversed,correct,0.3506355236164659,1,valid_win,905.2228452999843,64,,,,,,,,,,,s_063,1,2021_Feb_17_1353,Reversal,3.2.4,59.96641880806107,
15,exp3.png,exp4.png,,,,,,,,,,,,,,,,,1,0,1,0,0,15,15,15,,,,,,,,,False,35,116,True,exp4.png,exp3.png,trial_right_image,-1,exp3.png,1,exp3.png,exp4.png,1,1,non-reversed,correct,0.09102912265206553,0,invalid_lose,910.5030752000166,64,,,,,,,,,,,s_063,1,2021_Feb_17_1353,Reversal,3.2.4,59.96641880806107,
16,exp1.png,exp2.png,,,,,,,,,,,,,,,,,1,0,1,0,0,16,16,16,,,,,,,,,False,36,117,False,exp1.png,exp2.png,trial_right_image,-1,exp2.png,1,exp2.png,exp1.png,0,4,reversed,correct,0.0731068652455723,0,invalid_lose,916.4847661000094,64,,,,,,,,,,,s_063,1,2021_Feb_17_1353,Reversal,3.2.4,59.96641880806107,
17,exp3.png,exp4.png,,,,,,,,,,,,,,,,,1,0,1,0,0,17,17,17,,,,,,,,,False,37,118,False,exp3.png,exp4.png,trial_left_image,1,exp3.png,1,exp3.png,exp4.png,1,1,non-reversed,correct,0.6765052229144048,1,valid_win,920.8164451000048,65,,,,,,,,,,,s_063,1,2021_Feb_17_1353,Reversal,3.2.4,59.96641880806107,
18,exp1.png,exp2.png,,,,,,,,,,,,,,,,,1,0,1,0,0,18,18,18,,,,,,,,,False,38,119,True,exp2.png,exp1.png,trial_left_image,1,exp2.png,1,exp2.png,exp1.png,0,4,reversed,correct,0.48114057685006406,1,valid_win,924.9646025999682,66,,,,,,,,,,,s_063,1,2021_Feb_17_1353,Reversal,3.2.4,59.96641880806107,
19,exp3.png,exp4.png,,,,,,,,,,,,,,,,,1,0,1,0,0,19,19,19,,,,,,,,,False,39,120,False,exp3.png,exp4.png,trial_left_image,1,exp3.png,1,exp3.png,exp4.png,1,1,non-reversed,correct,0.268827883971793,1,valid_win,929.8301640999853,67,,,,,,,,,,,s_063,1,2021_Feb_17_1353,Reversal,3.2.4,59.96641880806107,
20,exp1.png,exp2.png,,,,,,,,,,,,,,,,,1,0,1,0,0,20,20,20,,,,,,,,,True,,,,,,,,,,,,,,,,,,,,,,,,,,,,,,,s_063,1,2021_Feb_17_1353,Reversal,3.2.4,59.96641880806107,
,,,,,,,,,,,,,,,,,,,1,0,1,0,,,,,0,0,0,0,,,,,,,,,,,,,,,,,,,,,,,,,,28,65,70,27,,,,,,,s_063,1,2021_Feb_17_1353,Reversal,3.2.4,59.96641880806107,
0,exp1.png,exp2.png,,,,,,,,,,,,,,,,,2,0,2,0,0,0,0,0,,,,,,,,,False,40,121,True,exp2.png,exp1.png,trial_left_image,1,exp2.png,1,exp2.png,exp1.png,0,4,reversed,correct,0.6997220275390716,1,valid_win,955.2060541000101,68,,,,,,,,,,,s_063,1,2021_Feb_17_1353,Reversal,3.2.4,59.96641880806107,
1,exp3.png,exp4.png,,,,,,,,,,,,,,,,,2,0,2,0,0,1,1,1,,,,,,,,,False,41,122,False,exp3.png,exp4.png,trial_left_image,1,exp3.png,1,exp3.png,exp4.png,1,1,non-reversed,correct,0.7147740613309945,1,valid_win,959.636851600022,69,,,,,,,,,,,s_063,1,2021_Feb_17_1353,Reversal,3.2.4,59.96641880806107,
2,exp1.png,exp2.png,,,,,,,,,,,,,,,,,2,0,2,0,0,2,2,2,,,,,,,,,False,42,123,True,exp2.png,exp1.png,trial_left_image,1,exp2.png,1,exp2.png,exp1.png,0,4,reversed,correct,0.3889068537466748,1,valid_win,963.7021209999803,70,,,,,,,,,,,s_063,1,2021_Feb_17_1353,Reversal,3.2.4,59.96641880806107,
3,exp3.png,exp4.png,,,,,,,,,,,,,,,,,2,0,2,0,0,3,3,3,,,,,,,,,False,43,124,False,exp3.png,exp4.png,trial_left_image,1,exp3.png,1,exp3.png,exp4.png,1,1,non-reversed,correct,0.7982668652002233,1,valid_win,967.867832799966,71,,,,,,,,,,,s_063,1,2021_Feb_17_1353,Reversal,3.2.4,59.96641880806107,
4,exp1.png,exp2.png,,,,,,,,,,,,,,,,,2,0,2,0,0,4,4,4,,,,,,,,,False,44,125,True,exp2.png,exp1.png,trial_left_image,1,exp2.png,1,exp2.png,exp1.png,0,4,reversed,correct,0.7177061605468855,1,valid_win,972.2491032999824,72,,,,,,,,,,,s_063,1,2021_Feb_17_1353,Reversal,3.2.4,59.96641880806107,
5,exp3.png,exp4.png,,,,,,,,,,,,,,,,,2,0,2,0,0,5,5,5,,,,,,,,,False,45,126,False,exp3.png,exp4.png,trial_left_image,1,exp3.png,1,exp3.png,exp4.png,1,1,non-reversed,correct,0.07588721773455598,0,invalid_lose,976.6154387000133,72,,,,,,,,,,,s_063,1,2021_Feb_17_1353,Reversal,3.2.4,59.96641880806107,
6,exp1.png,exp2.png,,,,,,,,,,,,,,,,,2,0,2,0,0,6,6,6,,,,,,,,,False,46,127,True,exp2.png,exp1.png,trial_left_image,1,exp2.png,1,exp2.png,exp1.png,0,4,reversed,correct,0.390789660187263,1,valid_win,981.1295017999946,73,,,,,,,,,,,s_063,1,2021_Feb_17_1353,Reversal,3.2.4,59.96641880806107,
7,exp3.png,exp4.png,,,,,,,,,,,,,,,,,2,0,2,0,0,7,7,7,,,,,,,,,False,47,128,False,exp3.png,exp4.png,trial_left_image,1,exp3.png,1,exp3.png,exp4.png,1,1,non-reversed,correct,0.15420276138384437,0,invalid_lose,986.960908900015,73,,,,,,,,,,,s_063,1,2021_Feb_17_1353,Reversal,3.2.4,59.96641880806107,
8,exp1.png,exp2.png,,,,,,,,,,,,,,,,,2,0,2,0,0,8,8,8,,,,,,,,,False,48,129,True,exp2.png,exp1.png,trial_left_image,1,exp2.png,1,exp2.png,exp1.png,0,4,reversed,correct,0.8737516091359783,1,valid_win,992.5254478999996,74,,,,,,,,,,,s_063,1,2021_Feb_17_1353,Reversal,3.2.4,59.96641880806107,
9,exp3.png,exp4.png,,,,,,,,,,,,,,,,,2,0,2,0,0,9,9,9,,,,,,,,,False,49,130,False,exp3.png,exp4.png,trial_right_image,-1,exp4.png,1,exp3.png,exp4.png,0,2,non-reversed,incorrect,0.8450076954345529,0,valid_lose,998.273735099996,74,,,,,,,,,,,s_063,1,2021_Feb_17_1353,Reversal,3.2.4,59.96641880806107,
10,exp1.png,exp2.png,,,,,,,,,,,,,,,,,2,0,2,0,0,10,10,10,,,,,,,,,False,50,131,False,exp1.png,exp2.png,trial_right_image,-1,exp2.png,1,exp2.png,exp1.png,0,4,reversed,correct,0.4320004033944955,1,valid_win,1003.2451757999952,75,,,,,,,,,,,s_063,1,2021_Feb_17_1353,Reversal,3.2.4,59.96641880806107,
11,exp3.png,exp4.png,,,,,,,,,,,,,,,,,2,0,2,0,0,11,11,11,,,,,,,,,False,51,132,True,exp4.png,exp3.png,trial_left_image,1,exp4.png,1,exp3.png,exp4.png,0,2,non-reversed,incorrect,0.4236039929751052,0,valid_lose,1008.9034696000163,75,,,,,,,,,,,s_063,1,2021_Feb_17_1353,Reversal,3.2.4,59.96641880806107,
12,exp1.png,exp2.png,,,,,,,,,,,,,,,,,2,0,2,0,0,12,12,12,,,,,,,,,False,52,133,False,exp1.png,exp2.png,trial_right_image,-1,exp2.png,1,exp2.png,exp1.png,0,4,reversed,correct,0.4308475439957834,1,valid_win,1013.3855380999739,76,,,,,,,,,,,s_063,1,2021_Feb_17_1353,Reversal,3.2.4,59.96641880806107,
13,exp3.png,exp4.png,,,,,,,,,,,,,,,,,2,0,2,0,0,13,13,13,,,,,,,,,False,53,134,True,exp4.png,exp3.png,trial_left_image,1,exp4.png,1,exp3.png,exp4.png,0,2,non-reversed,incorrect,0.2566189097453728,0,valid_lose,1018.2839327999973,76,,,,,,,,,,,s_063,1,2021_Feb_17_1353,Reversal,3.2.4,59.96641880806107,
14,exp1.png,exp2.png,,,,,,,,,,,,,,,,,2,0,2,0,0,14,14,14,,,,,,,,,False,54,135,False,exp1.png,exp2.png,trial_right_image,-1,exp2.png,1,exp2.png,exp1.png,0,4,reversed,correct,0.286844546138472,1,valid_win,1023.1998068999965,77,,,,,,,,,,,s_063,1,2021_Feb_17_1353,Reversal,3.2.4,59.96641880806107,
15,exp3.png,exp4.png,,,,,,,,,,,,,,,,,2,0,2,0,0,15,15,15,,,,,,,,,False,55,136,True,exp4.png,exp3.png,trial_right_image,-1,exp3.png,1,exp3.png,exp4.png,1,1,non-reversed,correct,0.32866885161253456,1,valid_win,1028.2797265999834,78,,,,,,,,,,,s_063,1,2021_Feb_17_1353,Reversal,3.2.4,59.96641880806107,
16,exp1.png,exp2.png,,,,,,,,,,,,,,,,,2,0,2,0,0,16,16,16,,,,,,,,,False,56,137,True,exp2.png,exp1.png,trial_left_image,1,exp2.png,1,exp2.png,exp1.png,0,4,reversed,correct,0.09171787434826062,0,invalid_lose,1033.6119831000105,78,,,,,,,,,,,s_063,1,2021_Feb_17_1353,Reversal,3.2.4,59.96641880806107,
17,exp3.png,exp4.png,,,,,,,,,,,,,,,,,2,0,2,0,0,17,17,17,,,,,,,,,False,57,138,False,exp3.png,exp4.png,trial_right_image,-1,exp4.png,1,exp3.png,exp4.png,0,2,non-reversed,incorrect,0.7994218599098777,0,valid_lose,1046.9240535999998,78,,,,,,,,,,,s_063,1,2021_Feb_17_1353,Reversal,3.2.4,59.96641880806107,
18,exp1.png,exp2.png,,,,,,,,,,,,,,,,,2,0,2,0,0,18,18,18,,,,,,,,,False,58,139,False,exp1.png,exp2.png,trial_right_image,-1,exp2.png,1,exp2.png,exp1.png,0,4,reversed,correct,0.7081480450317216,1,valid_win,1051.4055608999915,79,,,,,,,,,,,s_063,1,2021_Feb_17_1353,Reversal,3.2.4,59.96641880806107,
19,exp3.png,exp4.png,,,,,,,,,,,,,,,,,2,0,2,0,0,19,19,19,,,,,,,,,False,59,140,True,exp4.png,exp3.png,trial_left_image,1,exp4.png,1,exp3.png,exp4.png,0,2,non-reversed,incorrect,0.6397498662343838,0,valid_lose,1057.504467599967,79,,,,,,,,,,,s_063,1,2021_Feb_17_1353,Reversal,3.2.4,59.96641880806107,
20,exp1.png,exp2.png,,,,,,,,,,,,,,,,,2,0,2,0,0,20,20,20,,,,,,,,,True,,,,,,,,,,,,,,,,,,,,,,,,,,,,,,,s_063,1,2021_Feb_17_1353,Reversal,3.2.4,59.96641880806107,
,,,,,,,,,,,,,,,,,,,2,0,2,0,,,,,0,0,0,0,,,,,,,,,,,,,,,,,,,,,,,,,,9,84,51,50.0,,,,,,,s_063,1,2021_Feb_17_1353,Reversal,3.2.4,59.96641880806107,
,,,,,,,,,,,,,,,,,,,,,,,,,,,,,,,,,,,,,,,,,,,,,,,,,,,,,,,79,,,,,,93,55,38,454.2178769999882,1,,,,,,,
