trial_index,trial_image1_file,trial_image2_file,learning_outer_loop.thisRepN,learning_outer_loop.thisTrialN,learning_outer_loop.thisN,learning_outer_loop.thisIndex,learning_inner_loop.thisRepN,learning_inner_loop.thisTrialN,learning_inner_loop.thisN,learning_inner_loop.thisIndex,learning_estimation_outer_loop.thisRepN,learning_estimation_outer_loop.thisTrialN,learning_estimation_outer_loop.thisN,learning_estimation_outer_loop.thisIndex,learning_estimation_inner_loop.thisRepN,learning_estimation_inner_loop.thisTrialN,learning_estimation_inner_loop.thisN,learning_estimation_inner_loop.thisIndex,reversal_outer_loop.thisRepN,reversal_outer_loop.thisTrialN,reversal_outer_loop.thisN,reversal_outer_loop.thisIndex,reversal_inner_loop.thisRepN,reversal_inner_loop.thisTrialN,reversal_inner_loop.thisN,reversal_inner_loop.thisIndex,reversal_estimation_outer_loop.thisRepN,reversal_estimation_outer_loop.thisTrialN,reversal_estimation_outer_loop.thisN,reversal_estimation_outer_loop.thisIndex,reversal_estimation_inner_loop.thisRepN,reversal_estimation_inner_loop.thisTrialN,reversal_estimation_inner_loop.thisN,reversal_estimation_inner_loop.thisIndex,skipped,total_trial_counter,trial_num,left_right_flip,left_image_file,right_image_file,clicked_stimulus_side,side,clicked_stimulus,version,high_prob_image_file,low_prob_image_file,choice_a,choice_b,pair_type,correct,trial_feedback_random,reward,trial_type,overall_time_after_trial,score,estimation_exp1.png,estimation_exp2.png,estimation_exp3.png,estimation_exp4.png,total_learning_time,total_correct,learning_correct,reversal_correct,total_reversal_time,extra_block,participant,ver,date,expName,psychopyVersion,frameRate
0,exp1.png,exp2.png,0,0,0,0,0,0,0,0,,,,,,,,,,,,,,,,,,,,,,,,,FALSE,0,1,FALSE,exp1.png,exp2.png,trial_right_image,-1,exp2.png,3,exp2.png,exp1.png,1,3,reversed,correct,0.529984716,1,valid_win,4.210631,1,,,,,,,,,,,s_061,3,2021_Feb_16_1547,Reversal,3.2.4,60.02166781
1,exp3.png,exp4.png,0,0,0,0,0,1,1,1,,,,,,,,,,,,,,,,,,,,,,,,,FALSE,1,2,FALSE,exp3.png,exp4.png,trial_right_image,-1,exp4.png,3,exp4.png,exp3.png,1,1,non-reversed,correct,0.068720904,0,invalid_lose,10.8582225,1,,,,,,,,,,,s_061,3,2021_Feb_16_1547,Reversal,3.2.4,60.02166781
2,exp1.png,exp2.png,0,0,0,0,0,2,2,2,,,,,,,,,,,,,,,,,,,,,,,,,FALSE,2,3,TRUE,exp2.png,exp1.png,trial_left_image,1,exp2.png,3,exp2.png,exp1.png,1,3,reversed,correct,0.272982423,1,valid_win,18.0403893,2,,,,,,,,,,,s_061,3,2021_Feb_16_1547,Reversal,3.2.4,60.02166781
3,exp3.png,exp4.png,0,0,0,0,0,3,3,3,,,,,,,,,,,,,,,,,,,,,,,,,FALSE,3,4,TRUE,exp4.png,exp3.png,trial_right_image,-1,exp3.png,3,exp4.png,exp3.png,0,2,non-reversed,incorrect,0.415970348,0,valid_lose,23.9059044,2,,,,,,,,,,,s_061,3,2021_Feb_16_1547,Reversal,3.2.4,60.02166781
4,exp1.png,exp2.png,0,0,0,0,0,4,4,4,,,,,,,,,,,,,,,,,,,,,,,,,FALSE,4,5,FALSE,exp1.png,exp2.png,trial_right_image,-1,exp2.png,3,exp2.png,exp1.png,1,3,reversed,correct,0.873083233,1,valid_win,29.0863136,3,,,,,,,,,,,s_061,3,2021_Feb_16_1547,Reversal,3.2.4,60.02166781
5,exp3.png,exp4.png,0,0,0,0,0,5,5,5,,,,,,,,,,,,,,,,,,,,,,,,,FALSE,5,6,TRUE,exp4.png,exp3.png,trial_left_image,1,exp4.png,3,exp4.png,exp3.png,1,1,non-reversed,correct,0.547224145,1,valid_win,34.3189731,4,,,,,,,,,,,s_061,3,2021_Feb_16_1547,Reversal,3.2.4,60.02166781
6,exp1.png,exp2.png,0,0,0,0,0,6,6,6,,,,,,,,,,,,,,,,,,,,,,,,,FALSE,6,7,FALSE,exp1.png,exp2.png,trial_right_image,-1,exp2.png,3,exp2.png,exp1.png,1,3,reversed,correct,0.491531971,1,valid_win,39.3167459,5,,,,,,,,,,,s_061,3,2021_Feb_16_1547,Reversal,3.2.4,60.02166781
7,exp3.png,exp4.png,0,0,0,0,0,7,7,7,,,,,,,,,,,,,,,,,,,,,,,,,FALSE,7,8,FALSE,exp3.png,exp4.png,trial_left_image,1,exp3.png,3,exp4.png,exp3.png,0,2,non-reversed,incorrect,0.037909282,1,invalid_win,43.9978606,6,,,,,,,,,,,s_061,3,2021_Feb_16_1547,Reversal,3.2.4,60.02166781
8,exp1.png,exp2.png,0,0,0,0,0,8,8,8,,,,,,,,,,,,,,,,,,,,,,,,,FALSE,8,9,FALSE,exp1.png,exp2.png,trial_right_image,-1,exp2.png,3,exp2.png,exp1.png,1,3,reversed,correct,0.298544052,1,valid_win,48.5800077,7,,,,,,,,,,,s_061,3,2021_Feb_16_1547,Reversal,3.2.4,60.02166781
9,exp3.png,exp4.png,0,0,0,0,0,9,9,9,,,,,,,,,,,,,,,,,,,,,,,,,FALSE,9,10,TRUE,exp4.png,exp3.png,trial_left_image,1,exp4.png,3,exp4.png,exp3.png,1,1,non-reversed,correct,0.769151964,1,valid_win,53.1956557,8,,,,,,,,,,,s_061,3,2021_Feb_16_1547,Reversal,3.2.4,60.02166781
10,exp1.png,exp2.png,0,0,0,0,0,10,10,10,,,,,,,,,,,,,,,,,,,,,,,,,FALSE,10,11,TRUE,exp2.png,exp1.png,trial_right_image,-1,exp1.png,3,exp2.png,exp1.png,0,4,reversed,incorrect,0.696940617,0,valid_lose,57.6767346,8,,,,,,,,,,,s_061,3,2021_Feb_16_1547,Reversal,3.2.4,60.02166781
11,exp3.png,exp4.png,0,0,0,0,0,11,11,11,,,,,,,,,,,,,,,,,,,,,,,,,FALSE,11,12,FALSE,exp3.png,exp4.png,trial_left_image,1,exp3.png,3,exp4.png,exp3.png,0,2,non-reversed,incorrect,0.099376819,1,invalid_win,62.142692,9,,,,,,,,,,,s_061,3,2021_Feb_16_1547,Reversal,3.2.4,60.02166781
12,exp1.png,exp2.png,0,0,0,0,0,12,12,12,,,,,,,,,,,,,,,,,,,,,,,,,FALSE,12,13,TRUE,exp2.png,exp1.png,trial_right_image,-1,exp1.png,3,exp2.png,exp1.png,0,4,reversed,incorrect,0.815434513,0,valid_lose,66.4244677,9,,,,,,,,,,,s_061,3,2021_Feb_16_1547,Reversal,3.2.4,60.02166781
13,exp3.png,exp4.png,0,0,0,0,0,13,13,13,,,,,,,,,,,,,,,,,,,,,,,,,FALSE,13,14,TRUE,exp4.png,exp3.png,trial_left_image,1,exp4.png,3,exp4.png,exp3.png,1,1,non-reversed,correct,0.847583795,1,valid_win,70.571519,10,,,,,,,,,,,s_061,3,2021_Feb_16_1547,Reversal,3.2.4,60.02166781
14,exp1.png,exp2.png,0,0,0,0,0,14,14,14,,,,,,,,,,,,,,,,,,,,,,,,,FALSE,14,15,TRUE,exp2.png,exp1.png,trial_right_image,-1,exp1.png,3,exp2.png,exp1.png,0,4,reversed,incorrect,0.711447085,0,valid_lose,74.770858,10,,,,,,,,,,,s_061,3,2021_Feb_16_1547,Reversal,3.2.4,60.02166781
15,exp3.png,exp4.png,0,0,0,0,0,15,15,15,,,,,,,,,,,,,,,,,,,,,,,,,FALSE,15,16,FALSE,exp3.png,exp4.png,trial_left_image,1,exp3.png,3,exp4.png,exp3.png,0,2,non-reversed,incorrect,0.673734745,0,valid_lose,78.8528978,10,,,,,,,,,,,s_061,3,2021_Feb_16_1547,Reversal,3.2.4,60.02166781
16,exp1.png,exp2.png,0,0,0,0,0,16,16,16,,,,,,,,,,,,,,,,,,,,,,,,,FALSE,16,17,TRUE,exp2.png,exp1.png,trial_right_image,-1,exp1.png,3,exp2.png,exp1.png,0,4,reversed,incorrect,0.915364067,0,valid_lose,83.1682892,10,,,,,,,,,,,s_061,3,2021_Feb_16_1547,Reversal,3.2.4,60.02166781
17,exp3.png,exp4.png,0,0,0,0,0,17,17,17,,,,,,,,,,,,,,,,,,,,,,,,,FALSE,17,18,TRUE,exp4.png,exp3.png,trial_right_image,-1,exp3.png,3,exp4.png,exp3.png,0,2,non-reversed,incorrect,0.943399326,0,valid_lose,87.2335834,10,,,,,,,,,,,s_061,3,2021_Feb_16_1547,Reversal,3.2.4,60.02166781
18,exp1.png,exp2.png,0,0,0,0,0,18,18,18,,,,,,,,,,,,,,,,,,,,,,,,,FALSE,18,19,FALSE,exp1.png,exp2.png,trial_right_image,-1,exp2.png,3,exp2.png,exp1.png,1,3,reversed,correct,0.45382034,1,valid_win,91.3659659,11,,,,,,,,,,,s_061,3,2021_Feb_16_1547,Reversal,3.2.4,60.02166781
19,exp3.png,exp4.png,0,0,0,0,0,19,19,19,,,,,,,,,,,,,,,,,,,,,,,,,FALSE,19,20,FALSE,exp3.png,exp4.png,trial_left_image,1,exp3.png,3,exp4.png,exp3.png,0,2,non-reversed,incorrect,0.191752518,1,invalid_win,95.4966242,12,,,,,,,,,,,s_061,3,2021_Feb_16_1547,Reversal,3.2.4,60.02166781
20,exp1.png,exp2.png,0,0,0,0,0,20,20,20,,,,,,,,,,,,,,,,,,,,,,,,,TRUE,,,,,,,,,,,,,,,,,,,,,,,,,,,,,,,s_061,3,2021_Feb_16_1547,Reversal,3.2.4,60.02166781
,,,0,0,0,0,,,,,0,0,0,0,,,,,,,,,,,,,,,,,,,,,,,,,,,,,,,,,,,,,,,,,,43,65,65,50,,,,,,,s_061,3,2021_Feb_16_1547,Reversal,3.2.4,60.02166781
0,exp1.png,exp2.png,1,0,1,0,0,0,0,0,,,,,,,,,,,,,,,,,,,,,,,,,FALSE,20,21,FALSE,exp1.png,exp2.png,trial_right_image,-1,exp2.png,3,exp2.png,exp1.png,1,3,reversed,correct,0.766211349,1,valid_win,138.5827987,13,,,,,,,,,,,s_061,3,2021_Feb_16_1547,Reversal,3.2.4,60.02166781
1,exp3.png,exp4.png,1,0,1,0,0,1,1,1,,,,,,,,,,,,,,,,,,,,,,,,,FALSE,21,22,TRUE,exp4.png,exp3.png,trial_left_image,1,exp4.png,3,exp4.png,exp3.png,1,1,non-reversed,correct,0.399327318,1,valid_win,148.3802505,14,,,,,,,,,,,s_061,3,2021_Feb_16_1547,Reversal,3.2.4,60.02166781
2,exp1.png,exp2.png,1,0,1,0,0,2,2,2,,,,,,,,,,,,,,,,,,,,,,,,,FALSE,22,23,TRUE,exp2.png,exp1.png,trial_left_image,1,exp2.png,3,exp2.png,exp1.png,1,3,reversed,correct,0.085812991,0,invalid_lose,155.8269838,14,,,,,,,,,,,s_061,3,2021_Feb_16_1547,Reversal,3.2.4,60.02166781
3,exp3.png,exp4.png,1,0,1,0,0,3,3,3,,,,,,,,,,,,,,,,,,,,,,,,,FALSE,23,24,FALSE,exp3.png,exp4.png,trial_left_image,1,exp3.png,3,exp4.png,exp3.png,0,2,non-reversed,incorrect,0.830899299,0,valid_lose,161.3916581,14,,,,,,,,,,,s_061,3,2021_Feb_16_1547,Reversal,3.2.4,60.02166781
4,exp1.png,exp2.png,1,0,1,0,0,4,4,4,,,,,,,,,,,,,,,,,,,,,,,,,FALSE,24,25,TRUE,exp2.png,exp1.png,trial_right_image,-1,exp1.png,3,exp2.png,exp1.png,0,4,reversed,incorrect,0.001620719,1,invalid_win,171.4049741,15,,,,,,,,,,,s_061,3,2021_Feb_16_1547,Reversal,3.2.4,60.02166781
5,exp3.png,exp4.png,1,0,1,0,0,5,5,5,,,,,,,,,,,,,,,,,,,,,,,,,FALSE,25,26,FALSE,exp3.png,exp4.png,trial_left_image,1,exp3.png,3,exp4.png,exp3.png,0,2,non-reversed,incorrect,0.421904652,0,valid_lose,177.2863041,15,,,,,,,,,,,s_061,3,2021_Feb_16_1547,Reversal,3.2.4,60.02166781
6,exp1.png,exp2.png,1,0,1,0,0,6,6,6,,,,,,,,,,,,,,,,,,,,,,,,,FALSE,26,27,TRUE,exp2.png,exp1.png,trial_right_image,-1,exp1.png,3,exp2.png,exp1.png,0,4,reversed,incorrect,0.770013893,0,valid_lose,185.1838706,15,,,,,,,,,,,s_061,3,2021_Feb_16_1547,Reversal,3.2.4,60.02166781
7,exp3.png,exp4.png,1,0,1,0,0,7,7,7,,,,,,,,,,,,,,,,,,,,,,,,,FALSE,27,28,FALSE,exp3.png,exp4.png,trial_left_image,1,exp3.png,3,exp4.png,exp3.png,0,2,non-reversed,incorrect,0.246810831,1,invalid_win,191.0801976,16,,,,,,,,,,,s_061,3,2021_Feb_16_1547,Reversal,3.2.4,60.02166781
8,exp1.png,exp2.png,1,0,1,0,0,8,8,8,,,,,,,,,,,,,,,,,,,,,,,,,FALSE,28,29,TRUE,exp2.png,exp1.png,trial_right_image,-1,exp1.png,3,exp2.png,exp1.png,0,4,reversed,incorrect,0.288372613,0,valid_lose,198.4129078,16,,,,,,,,,,,s_061,3,2021_Feb_16_1547,Reversal,3.2.4,60.02166781
9,exp3.png,exp4.png,1,0,1,0,0,9,9,9,,,,,,,,,,,,,,,,,,,,,,,,,FALSE,29,30,TRUE,exp4.png,exp3.png,trial_left_image,1,exp4.png,3,exp4.png,exp3.png,1,1,non-reversed,correct,0.200692512,0,invalid_lose,204.8602549,16,,,,,,,,,,,s_061,3,2021_Feb_16_1547,Reversal,3.2.4,60.02166781
10,exp1.png,exp2.png,1,0,1,0,0,10,10,10,,,,,,,,,,,,,,,,,,,,,,,,,FALSE,30,31,TRUE,exp2.png,exp1.png,trial_right_image,-1,exp1.png,3,exp2.png,exp1.png,0,4,reversed,incorrect,0.080943819,1,invalid_win,214.7233234,17,,,,,,,,,,,s_061,3,2021_Feb_16_1547,Reversal,3.2.4,60.02166781
11,exp3.png,exp4.png,1,0,1,0,0,11,11,11,,,,,,,,,,,,,,,,,,,,,,,,,FALSE,31,32,TRUE,exp4.png,exp3.png,trial_right_image,-1,exp3.png,3,exp4.png,exp3.png,0,2,non-reversed,incorrect,0.286195134,0,valid_lose,224.0543441,17,,,,,,,,,,,s_061,3,2021_Feb_16_1547,Reversal,3.2.4,60.02166781
12,exp1.png,exp2.png,1,0,1,0,0,12,12,12,,,,,,,,,,,,,,,,,,,,,,,,,FALSE,32,33,FALSE,exp1.png,exp2.png,trial_right_image,-1,exp2.png,3,exp2.png,exp1.png,1,3,reversed,correct,0.855245833,1,valid_win,231.9346343,18,,,,,,,,,,,s_061,3,2021_Feb_16_1547,Reversal,3.2.4,60.02166781
13,exp3.png,exp4.png,1,0,1,0,0,13,13,13,,,,,,,,,,,,,,,,,,,,,,,,,FALSE,33,34,TRUE,exp4.png,exp3.png,trial_left_image,1,exp4.png,3,exp4.png,exp3.png,1,1,non-reversed,correct,0.517736259,1,valid_win,241.0147484,19,,,,,,,,,,,s_061,3,2021_Feb_16_1547,Reversal,3.2.4,60.02166781
14,exp1.png,exp2.png,1,0,1,0,0,14,14,14,,,,,,,,,,,,,,,,,,,,,,,,,FALSE,34,35,FALSE,exp1.png,exp2.png,trial_right_image,-1,exp2.png,3,exp2.png,exp1.png,1,3,reversed,correct,0.701843148,1,valid_win,248.4446333,20,,,,,,,,,,,s_061,3,2021_Feb_16_1547,Reversal,3.2.4,60.02166781
15,exp3.png,exp4.png,1,0,1,0,0,15,15,15,,,,,,,,,,,,,,,,,,,,,,,,,FALSE,35,36,FALSE,exp3.png,exp4.png,trial_left_image,1,exp3.png,3,exp4.png,exp3.png,0,2,non-reversed,incorrect,0.300164843,0,valid_lose,253.9924479,20,,,,,,,,,,,s_061,3,2021_Feb_16_1547,Reversal,3.2.4,60.02166781
16,exp1.png,exp2.png,1,0,1,0,0,16,16,16,,,,,,,,,,,,,,,,,,,,,,,,,FALSE,36,37,FALSE,exp1.png,exp2.png,trial_right_image,-1,exp2.png,3,exp2.png,exp1.png,1,3,reversed,correct,0.560050828,1,valid_win,261.0567566,21,,,,,,,,,,,s_061,3,2021_Feb_16_1547,Reversal,3.2.4,60.02166781
17,exp3.png,exp4.png,1,0,1,0,0,17,17,17,,,,,,,,,,,,,,,,,,,,,,,,,FALSE,37,38,FALSE,exp3.png,exp4.png,trial_right_image,-1,exp4.png,3,exp4.png,exp3.png,1,1,non-reversed,correct,0.409362428,1,valid_win,270.4214982,22,,,,,,,,,,,s_061,3,2021_Feb_16_1547,Reversal,3.2.4,60.02166781
18,exp1.png,exp2.png,1,0,1,0,0,18,18,18,,,,,,,,,,,,,,,,,,,,,,,,,FALSE,38,39,FALSE,exp1.png,exp2.png,trial_right_image,-1,exp2.png,3,exp2.png,exp1.png,1,3,reversed,correct,0.576574419,1,valid_win,277.4023063,23,,,,,,,,,,,s_061,3,2021_Feb_16_1547,Reversal,3.2.4,60.02166781
19,exp3.png,exp4.png,1,0,1,0,0,19,19,19,,,,,,,,,,,,,,,,,,,,,,,,,FALSE,39,40,TRUE,exp4.png,exp3.png,trial_left_image,1,exp4.png,3,exp4.png,exp3.png,1,1,non-reversed,correct,0.392033671,1,valid_win,283.4670719,24,,,,,,,,,,,s_061,3,2021_Feb_16_1547,Reversal,3.2.4,60.02166781
20,exp1.png,exp2.png,1,0,1,0,0,20,20,20,,,,,,,,,,,,,,,,,,,,,,,,,TRUE,,,,,,,,,,,,,,,,,,,,,,,,,,,,,,,s_061,3,2021_Feb_16_1547,Reversal,3.2.4,60.02166781
,,,1,0,1,0,,,,,0,0,0,0,,,,,,,,,,,,,,,,,,,,,,,,,,,,,,,,,,,,,,,,,,84,21,11,80,,,,,,,s_061,3,2021_Feb_16_1547,Reversal,3.2.4,60.02166781
0,exp1.png,exp2.png,2,0,2,0,0,0,0,0,,,,,,,,,,,,,,,,,,,,,,,,,FALSE,40,41,TRUE,exp2.png,exp1.png,trial_right_image,-1,exp1.png,3,exp2.png,exp1.png,0,4,reversed,incorrect,0.50050512,0,valid_lose,329.284687,24,,,,,,,,,,,s_061,3,2021_Feb_16_1547,Reversal,3.2.4,60.02166781
1,exp3.png,exp4.png,2,0,2,0,0,1,1,1,,,,,,,,,,,,,,,,,,,,,,,,,FALSE,41,42,TRUE,exp4.png,exp3.png,trial_right_image,-1,exp3.png,3,exp4.png,exp3.png,0,2,non-reversed,incorrect,0.439481217,0,valid_lose,335.1500262,24,,,,,,,,,,,s_061,3,2021_Feb_16_1547,Reversal,3.2.4,60.02166781
2,exp1.png,exp2.png,2,0,2,0,0,2,2,2,,,,,,,,,,,,,,,,,,,,,,,,,FALSE,42,43,TRUE,exp2.png,exp1.png,trial_right_image,-1,exp1.png,3,exp2.png,exp1.png,0,4,reversed,incorrect,0.05222035,1,invalid_win,341.8476518,25,,,,,,,,,,,s_061,3,2021_Feb_16_1547,Reversal,3.2.4,60.02166781
3,exp3.png,exp4.png,2,0,2,0,0,3,3,3,,,,,,,,,,,,,,,,,,,,,,,,,FALSE,43,44,FALSE,exp3.png,exp4.png,trial_left_image,1,exp3.png,3,exp4.png,exp3.png,0,2,non-reversed,incorrect,0.491657738,0,valid_lose,347.4620585,25,,,,,,,,,,,s_061,3,2021_Feb_16_1547,Reversal,3.2.4,60.02166781
4,exp1.png,exp2.png,2,0,2,0,0,4,4,4,,,,,,,,,,,,,,,,,,,,,,,,,FALSE,44,45,FALSE,exp1.png,exp2.png,trial_right_image,-1,exp2.png,3,exp2.png,exp1.png,1,3,reversed,correct,0.345937025,1,valid_win,353.2932885,26,,,,,,,,,,,s_061,3,2021_Feb_16_1547,Reversal,3.2.4,60.02166781
5,exp3.png,exp4.png,2,0,2,0,0,5,5,5,,,,,,,,,,,,,,,,,,,,,,,,,FALSE,45,46,FALSE,exp3.png,exp4.png,trial_left_image,1,exp3.png,3,exp4.png,exp3.png,0,2,non-reversed,incorrect,0.465953824,0,valid_lose,359.9076728,26,,,,,,,,,,,s_061,3,2021_Feb_16_1547,Reversal,3.2.4,60.02166781
6,exp1.png,exp2.png,2,0,2,0,0,6,6,6,,,,,,,,,,,,,,,,,,,,,,,,,FALSE,46,47,TRUE,exp2.png,exp1.png,trial_right_image,-1,exp1.png,3,exp2.png,exp1.png,0,4,reversed,incorrect,0.929203258,0,valid_lose,365.172875,26,,,,,,,,,,,s_061,3,2021_Feb_16_1547,Reversal,3.2.4,60.02166781
7,exp3.png,exp4.png,2,0,2,0,0,7,7,7,,,,,,,,,,,,,,,,,,,,,,,,,FALSE,47,48,TRUE,exp4.png,exp3.png,trial_right_image,-1,exp3.png,3,exp4.png,exp3.png,0,2,non-reversed,incorrect,0.287072333,0,valid_lose,371.3859643,26,,,,,,,,,,,s_061,3,2021_Feb_16_1547,Reversal,3.2.4,60.02166781
8,exp1.png,exp2.png,2,0,2,0,0,8,8,8,,,,,,,,,,,,,,,,,,,,,,,,,FALSE,48,49,TRUE,exp2.png,exp1.png,trial_left_image,1,exp2.png,3,exp2.png,exp1.png,1,3,reversed,correct,0.83823408,1,valid_win,376.9690733,27,,,,,,,,,,,s_061,3,2021_Feb_16_1547,Reversal,3.2.4,60.02166781
9,exp3.png,exp4.png,2,0,2,0,0,9,9,9,,,,,,,,,,,,,,,,,,,,,,,,,FALSE,49,50,TRUE,exp4.png,exp3.png,trial_left_image,1,exp4.png,3,exp4.png,exp3.png,1,1,non-reversed,correct,0.870786146,1,valid_win,383.9499908,28,,,,,,,,,,,s_061,3,2021_Feb_16_1547,Reversal,3.2.4,60.02166781
10,exp1.png,exp2.png,2,0,2,0,0,10,10,10,,,,,,,,,,,,,,,,,,,,,,,,,FALSE,50,51,FALSE,exp1.png,exp2.png,trial_right_image,-1,exp2.png,3,exp2.png,exp1.png,1,3,reversed,correct,0.837394362,1,valid_win,393.4464354,29,,,,,,,,,,,s_061,3,2021_Feb_16_1547,Reversal,3.2.4,60.02166781
11,exp3.png,exp4.png,2,0,2,0,0,11,11,11,,,,,,,,,,,,,,,,,,,,,,,,,FALSE,51,52,FALSE,exp3.png,exp4.png,trial_left_image,1,exp3.png,3,exp4.png,exp3.png,0,2,non-reversed,incorrect,0.306895442,0,valid_lose,399.1449208,29,,,,,,,,,,,s_061,3,2021_Feb_16_1547,Reversal,3.2.4,60.02166781
12,exp1.png,exp2.png,2,0,2,0,0,12,12,12,,,,,,,,,,,,,,,,,,,,,,,,,FALSE,52,53,FALSE,exp1.png,exp2.png,trial_left_image,1,exp1.png,3,exp2.png,exp1.png,0,4,reversed,incorrect,0.947386244,0,valid_lose,413.2565606,29,,,,,,,,,,,s_061,3,2021_Feb_16_1547,Reversal,3.2.4,60.02166781
13,exp3.png,exp4.png,2,0,2,0,0,13,13,13,,,,,,,,,,,,,,,,,,,,,,,,,FALSE,53,54,TRUE,exp4.png,exp3.png,trial_right_image,-1,exp3.png,3,exp4.png,exp3.png,0,2,non-reversed,incorrect,0.478118014,0,valid_lose,421.670622,29,,,,,,,,,,,s_061,3,2021_Feb_16_1547,Reversal,3.2.4,60.02166781
14,exp1.png,exp2.png,2,0,2,0,0,14,14,14,,,,,,,,,,,,,,,,,,,,,,,,,FALSE,54,55,FALSE,exp1.png,exp2.png,trial_right_image,-1,exp2.png,3,exp2.png,exp1.png,1,3,reversed,correct,0.80672438,1,valid_win,426.9351034,30,,,,,,,,,,,s_061,3,2021_Feb_16_1547,Reversal,3.2.4,60.02166781
15,exp3.png,exp4.png,2,0,2,0,0,15,15,15,,,,,,,,,,,,,,,,,,,,,,,,,FALSE,55,56,FALSE,exp3.png,exp4.png,trial_left_image,1,exp3.png,3,exp4.png,exp3.png,0,2,non-reversed,incorrect,0.872318521,0,valid_lose,434.4154723,30,,,,,,,,,,,s_061,3,2021_Feb_16_1547,Reversal,3.2.4,60.02166781
16,exp1.png,exp2.png,2,0,2,0,0,16,16,16,,,,,,,,,,,,,,,,,,,,,,,,,FALSE,56,57,FALSE,exp1.png,exp2.png,trial_right_image,-1,exp2.png,3,exp2.png,exp1.png,1,3,reversed,correct,0.832240766,1,valid_win,439.5973939,31,,,,,,,,,,,s_061,3,2021_Feb_16_1547,Reversal,3.2.4,60.02166781
17,exp3.png,exp4.png,2,0,2,0,0,17,17,17,,,,,,,,,,,,,,,,,,,,,,,,,FALSE,57,58,FALSE,exp3.png,exp4.png,trial_right_image,-1,exp4.png,3,exp4.png,exp3.png,1,1,non-reversed,correct,0.160347075,0,invalid_lose,444.6286411,31,,,,,,,,,,,s_061,3,2021_Feb_16_1547,Reversal,3.2.4,60.02166781
18,exp1.png,exp2.png,2,0,2,0,0,18,18,18,,,,,,,,,,,,,,,,,,,,,,,,,FALSE,58,59,TRUE,exp2.png,exp1.png,trial_right_image,-1,exp1.png,3,exp2.png,exp1.png,0,4,reversed,incorrect,0.87968814,0,valid_lose,449.6606358,31,,,,,,,,,,,s_061,3,2021_Feb_16_1547,Reversal,3.2.4,60.02166781
19,exp3.png,exp4.png,2,0,2,0,0,19,19,19,,,,,,,,,,,,,,,,,,,,,,,,,FALSE,59,60,TRUE,exp4.png,exp3.png,trial_left_image,1,exp4.png,3,exp4.png,exp3.png,1,1,non-reversed,correct,0.786955982,1,valid_win,454.8423984,32,,,,,,,,,,,s_061,3,2021_Feb_16_1547,Reversal,3.2.4,60.02166781
20,exp1.png,exp2.png,2,0,2,0,0,20,20,20,,,,,,,,,,,,,,,,,,,,,,,,,TRUE,,,,,,,,,,,,,,,,,,,,,,,,,,,,,,,s_061,3,2021_Feb_16_1547,Reversal,3.2.4,60.02166781
,,,2,0,2,0,,,,,0,0,0,0,,,,,,,,,,,,,,,,,,,,,,,,,,,,,,,,,,,,,,,,,,71,76,22,28,,,,,,,s_061,3,2021_Feb_16_1547,Reversal,3.2.4,60.02166781
0,exp1.png,exp2.png,3,0,3,0,0,0,0,0,,,,,,,,,,,,,,,,,,,,,,,,,FALSE,60,61,FALSE,exp1.png,exp2.png,trial_right_image,-1,exp2.png,3,exp2.png,exp1.png,1,3,reversed,correct,0.933198317,1,valid_win,482.2995824,33,,,,,,,,,,,s_061,3,2021_Feb_16_1547,Reversal,3.2.4,60.02166781
1,exp3.png,exp4.png,3,0,3,0,0,1,1,1,,,,,,,,,,,,,,,,,,,,,,,,,FALSE,61,62,FALSE,exp3.png,exp4.png,trial_right_image,-1,exp4.png,3,exp4.png,exp3.png,1,1,non-reversed,correct,0.657685148,1,valid_win,489.8965617,34,,,,,,,,,,,s_061,3,2021_Feb_16_1547,Reversal,3.2.4,60.02166781
2,exp1.png,exp2.png,3,0,3,0,0,2,2,2,,,,,,,,,,,,,,,,,,,,,,,,,FALSE,62,63,FALSE,exp1.png,exp2.png,trial_right_image,-1,exp2.png,3,exp2.png,exp1.png,1,3,reversed,correct,0.530322987,1,valid_win,496.3946519,35,,,,,,,,,,,s_061,3,2021_Feb_16_1547,Reversal,3.2.4,60.02166781
3,exp3.png,exp4.png,3,0,3,0,0,3,3,3,,,,,,,,,,,,,,,,,,,,,,,,,FALSE,63,64,FALSE,exp3.png,exp4.png,trial_right_image,-1,exp4.png,3,exp4.png,exp3.png,1,1,non-reversed,correct,0.727347075,1,valid_win,501.8096871,36,,,,,,,,,,,s_061,3,2021_Feb_16_1547,Reversal,3.2.4,60.02166781
4,exp1.png,exp2.png,3,0,3,0,0,4,4,4,,,,,,,,,,,,,,,,,,,,,,,,,FALSE,64,65,TRUE,exp2.png,exp1.png,trial_right_image,-1,exp1.png,3,exp2.png,exp1.png,0,4,reversed,incorrect,0.76227948,0,valid_lose,509.0236387,36,,,,,,,,,,,s_061,3,2021_Feb_16_1547,Reversal,3.2.4,60.02166781
5,exp3.png,exp4.png,3,0,3,0,0,5,5,5,,,,,,,,,,,,,,,,,,,,,,,,,FALSE,65,66,FALSE,exp3.png,exp4.png,trial_right_image,-1,exp4.png,3,exp4.png,exp3.png,1,1,non-reversed,correct,0.498580547,1,valid_win,514.7552011,37,,,,,,,,,,,s_061,3,2021_Feb_16_1547,Reversal,3.2.4,60.02166781
6,exp1.png,exp2.png,3,0,3,0,0,6,6,6,,,,,,,,,,,,,,,,,,,,,,,,,FALSE,66,67,TRUE,exp2.png,exp1.png,trial_right_image,-1,exp1.png,3,exp2.png,exp1.png,0,4,reversed,incorrect,0.926786025,0,valid_lose,520.519905,37,,,,,,,,,,,s_061,3,2021_Feb_16_1547,Reversal,3.2.4,60.02166781
7,exp3.png,exp4.png,3,0,3,0,0,7,7,7,,,,,,,,,,,,,,,,,,,,,,,,,FALSE,67,68,TRUE,exp4.png,exp3.png,trial_right_image,-1,exp3.png,3,exp4.png,exp3.png,0,2,non-reversed,incorrect,0.861838168,0,valid_lose,525.5349622,37,,,,,,,,,,,s_061,3,2021_Feb_16_1547,Reversal,3.2.4,60.02166781
8,exp1.png,exp2.png,3,0,3,0,0,8,8,8,,,,,,,,,,,,,,,,,,,,,,,,,FALSE,68,69,FALSE,exp1.png,exp2.png,trial_right_image,-1,exp2.png,3,exp2.png,exp1.png,1,3,reversed,correct,0.313033913,1,valid_win,533.8320189,38,,,,,,,,,,,s_061,3,2021_Feb_16_1547,Reversal,3.2.4,60.02166781
9,exp3.png,exp4.png,3,0,3,0,0,9,9,9,,,,,,,,,,,,,,,,,,,,,,,,,FALSE,69,70,TRUE,exp4.png,exp3.png,trial_left_image,1,exp4.png,3,exp4.png,exp3.png,1,1,non-reversed,correct,0.383830162,1,valid_win,540.2131019,39,,,,,,,,,,,s_061,3,2021_Feb_16_1547,Reversal,3.2.4,60.02166781
10,exp1.png,exp2.png,3,0,3,0,0,10,10,10,,,,,,,,,,,,,,,,,,,,,,,,,FALSE,70,71,TRUE,exp2.png,exp1.png,trial_right_image,-1,exp1.png,3,exp2.png,exp1.png,0,4,reversed,incorrect,0.338661012,0,valid_lose,545.3446951,39,,,,,,,,,,,s_061,3,2021_Feb_16_1547,Reversal,3.2.4,60.02166781
11,exp3.png,exp4.png,3,0,3,0,0,11,11,11,,,,,,,,,,,,,,,,,,,,,,,,,FALSE,71,72,TRUE,exp4.png,exp3.png,trial_right_image,-1,exp3.png,3,exp4.png,exp3.png,0,2,non-reversed,incorrect,0.413832081,0,valid_lose,550.5584631,39,,,,,,,,,,,s_061,3,2021_Feb_16_1547,Reversal,3.2.4,60.02166781
12,exp1.png,exp2.png,3,0,3,0,0,12,12,12,,,,,,,,,,,,,,,,,,,,,,,,,FALSE,72,73,FALSE,exp1.png,exp2.png,trial_right_image,-1,exp2.png,3,exp2.png,exp1.png,1,3,reversed,correct,0.708761944,1,valid_win,555.2578519,40,,,,,,,,,,,s_061,3,2021_Feb_16_1547,Reversal,3.2.4,60.02166781
13,exp3.png,exp4.png,3,0,3,0,0,13,13,13,,,,,,,,,,,,,,,,,,,,,,,,,FALSE,73,74,FALSE,exp3.png,exp4.png,trial_right_image,-1,exp4.png,3,exp4.png,exp3.png,1,1,non-reversed,correct,0.671282835,1,valid_win,561.3060156,41,,,,,,,,,,,s_061,3,2021_Feb_16_1547,Reversal,3.2.4,60.02166781
14,exp1.png,exp2.png,3,0,3,0,0,14,14,14,,,,,,,,,,,,,,,,,,,,,,,,,FALSE,74,75,TRUE,exp2.png,exp1.png,trial_left_image,1,exp2.png,3,exp2.png,exp1.png,1,3,reversed,correct,0.587656048,1,valid_win,567.0041988,42,,,,,,,,,,,s_061,3,2021_Feb_16_1547,Reversal,3.2.4,60.02166781
15,exp3.png,exp4.png,3,0,3,0,0,15,15,15,,,,,,,,,,,,,,,,,,,,,,,,,FALSE,75,76,TRUE,exp4.png,exp3.png,trial_right_image,-1,exp3.png,3,exp4.png,exp3.png,0,2,non-reversed,incorrect,0.025833212,1,invalid_win,571.952714,43,,,,,,,,,,,s_061,3,2021_Feb_16_1547,Reversal,3.2.4,60.02166781
16,exp1.png,exp2.png,3,0,3,0,0,16,16,16,,,,,,,,,,,,,,,,,,,,,,,,,FALSE,76,77,TRUE,exp2.png,exp1.png,trial_right_image,-1,exp1.png,3,exp2.png,exp1.png,0,4,reversed,incorrect,0.117889745,1,invalid_win,578.1005463,44,,,,,,,,,,,s_061,3,2021_Feb_16_1547,Reversal,3.2.4,60.02166781
17,exp3.png,exp4.png,3,0,3,0,0,17,17,17,,,,,,,,,,,,,,,,,,,,,,,,,FALSE,77,78,FALSE,exp3.png,exp4.png,trial_right_image,-1,exp4.png,3,exp4.png,exp3.png,1,1,non-reversed,correct,0.256039764,1,valid_win,583.265194,45,,,,,,,,,,,s_061,3,2021_Feb_16_1547,Reversal,3.2.4,60.02166781
18,exp1.png,exp2.png,3,0,3,0,0,18,18,18,,,,,,,,,,,,,,,,,,,,,,,,,FALSE,78,79,TRUE,exp2.png,exp1.png,trial_right_image,-1,exp1.png,3,exp2.png,exp1.png,0,4,reversed,incorrect,0.891075517,0,valid_lose,588.6134702,45,,,,,,,,,,,s_061,3,2021_Feb_16_1547,Reversal,3.2.4,60.02166781
19,exp3.png,exp4.png,3,0,3,0,0,19,19,19,,,,,,,,,,,,,,,,,,,,,,,,,FALSE,79,80,FALSE,exp3.png,exp4.png,trial_right_image,-1,exp4.png,3,exp4.png,exp3.png,1,1,non-reversed,correct,0.234965109,0,invalid_lose,593.5951819,45,,,,,,,,,,,s_061,3,2021_Feb_16_1547,Reversal,3.2.4,60.02166781
20,exp1.png,exp2.png,3,0,3,0,0,20,20,20,,,,,,,,,,,,,,,,,,,,,,,,,TRUE,,,,,,,,,,,,,,,,,,,,,,,,,,,,,,,s_061,3,2021_Feb_16_1547,Reversal,3.2.4,60.02166781
,,,3,0,3,0,,,,,0,0,0,0,,,,,,,,,,,,,,,,,,,,,,,,,,,,,,,,,,,,,,,,,,50,50,50,32,,,,,,,s_061,3,2021_Feb_16_1547,Reversal,3.2.4,60.02166781
0,exp1.png,exp2.png,,,,,,,,,,,,,,,,,0,0,0,0,0,0,0,0,,,,,,,,,FALSE,0,81,TRUE,exp2.png,exp1.png,trial_right_image,-1,exp1.png,3,exp1.png,exp2.png,0,4,reversed,correct,0.638984425,1,valid_win,618.0866445,46,,,,,611.2400702,,,,,,s_061,3,2021_Feb_16_1547,Reversal,3.2.4,60.02166781
1,exp3.png,exp4.png,,,,,,,,,,,,,,,,,0,0,0,0,0,1,1,1,,,,,,,,,FALSE,1,82,FALSE,exp3.png,exp4.png,trial_right_image,-1,exp4.png,3,exp4.png,exp3.png,1,1,non-reversed,correct,0.31013064,1,valid_win,623.3833122,47,,,,,,,,,,,s_061,3,2021_Feb_16_1547,Reversal,3.2.4,60.02166781
2,exp1.png,exp2.png,,,,,,,,,,,,,,,,,0,0,0,0,0,2,2,2,,,,,,,,,FALSE,2,83,TRUE,exp2.png,exp1.png,trial_right_image,-1,exp1.png,3,exp1.png,exp2.png,0,4,reversed,correct,0.217725711,0,invalid_lose,630.7142852,47,,,,,,,,,,,s_061,3,2021_Feb_16_1547,Reversal,3.2.4,60.02166781
3,exp3.png,exp4.png,,,,,,,,,,,,,,,,,0,0,0,0,0,3,3,3,,,,,,,,,FALSE,3,84,FALSE,exp3.png,exp4.png,trial_right_image,-1,exp4.png,3,exp4.png,exp3.png,1,1,non-reversed,correct,0.56400462,1,valid_win,636.6293036,48,,,,,,,,,,,s_061,3,2021_Feb_16_1547,Reversal,3.2.4,60.02166781
4,exp1.png,exp2.png,,,,,,,,,,,,,,,,,0,0,0,0,0,4,4,4,,,,,,,,,FALSE,4,85,TRUE,exp2.png,exp1.png,trial_left_image,1,exp2.png,3,exp1.png,exp2.png,1,3,reversed,incorrect,0.246857597,1,invalid_win,641.4290784,49,,,,,,,,,,,s_061,3,2021_Feb_16_1547,Reversal,3.2.4,60.02166781
5,exp3.png,exp4.png,,,,,,,,,,,,,,,,,0,0,0,0,0,5,5,5,,,,,,,,,FALSE,5,86,TRUE,exp4.png,exp3.png,trial_left_image,1,exp4.png,3,exp4.png,exp3.png,1,1,non-reversed,correct,0.926141978,1,valid_win,645.9439982,50,,,,,,,,,,,s_061,3,2021_Feb_16_1547,Reversal,3.2.4,60.02166781
6,exp1.png,exp2.png,,,,,,,,,,,,,,,,,0,0,0,0,0,6,6,6,,,,,,,,,FALSE,6,87,TRUE,exp2.png,exp1.png,trial_left_image,1,exp2.png,3,exp1.png,exp2.png,1,3,reversed,incorrect,0.792708417,0,valid_lose,650.5259497,50,,,,,,,,,,,s_061,3,2021_Feb_16_1547,Reversal,3.2.4,60.02166781
7,exp3.png,exp4.png,,,,,,,,,,,,,,,,,0,0,0,0,0,7,7,7,,,,,,,,,FALSE,7,88,FALSE,exp3.png,exp4.png,trial_right_image,-1,exp4.png,3,exp4.png,exp3.png,1,1,non-reversed,correct,0.200115852,0,invalid_lose,655.3245429,50,,,,,,,,,,,s_061,3,2021_Feb_16_1547,Reversal,3.2.4,60.02166781
8,exp1.png,exp2.png,,,,,,,,,,,,,,,,,0,0,0,0,0,8,8,8,,,,,,,,,FALSE,8,89,TRUE,exp2.png,exp1.png,trial_left_image,1,exp2.png,3,exp1.png,exp2.png,1,3,reversed,incorrect,0.758195213,0,valid_lose,660.0558533,50,,,,,,,,,,,s_061,3,2021_Feb_16_1547,Reversal,3.2.4,60.02166781
9,exp3.png,exp4.png,,,,,,,,,,,,,,,,,0,0,0,0,0,9,9,9,,,,,,,,,FALSE,9,90,FALSE,exp3.png,exp4.png,trial_right_image,-1,exp4.png,3,exp4.png,exp3.png,1,1,non-reversed,correct,0.953161614,1,valid_win,665.2873028,51,,,,,,,,,,,s_061,3,2021_Feb_16_1547,Reversal,3.2.4,60.02166781
10,exp1.png,exp2.png,,,,,,,,,,,,,,,,,0,0,0,0,0,10,10,10,,,,,,,,,FALSE,10,91,FALSE,exp1.png,exp2.png,trial_right_image,-1,exp2.png,3,exp1.png,exp2.png,1,3,reversed,incorrect,0.461524784,0,valid_lose,670.584574,51,,,,,,,,,,,s_061,3,2021_Feb_16_1547,Reversal,3.2.4,60.02166781
11,exp3.png,exp4.png,,,,,,,,,,,,,,,,,0,0,0,0,0,11,11,11,,,,,,,,,FALSE,11,92,FALSE,exp3.png,exp4.png,trial_right_image,-1,exp4.png,3,exp4.png,exp3.png,1,1,non-reversed,correct,0.522190303,1,valid_win,675.7005813,52,,,,,,,,,,,s_061,3,2021_Feb_16_1547,Reversal,3.2.4,60.02166781
12,exp1.png,exp2.png,,,,,,,,,,,,,,,,,0,0,0,0,0,12,12,12,,,,,,,,,FALSE,12,93,FALSE,exp1.png,exp2.png,trial_left_image,1,exp1.png,3,exp1.png,exp2.png,0,4,reversed,correct,0.284441704,1,valid_win,682.1818652,53,,,,,,,,,,,s_061,3,2021_Feb_16_1547,Reversal,3.2.4,60.02166781
13,exp3.png,exp4.png,,,,,,,,,,,,,,,,,0,0,0,0,0,13,13,13,,,,,,,,,FALSE,13,94,TRUE,exp4.png,exp3.png,trial_left_image,1,exp4.png,3,exp4.png,exp3.png,1,1,non-reversed,correct,0.522080622,1,valid_win,691.9623679,54,,,,,,,,,,,s_061,3,2021_Feb_16_1547,Reversal,3.2.4,60.02166781
14,exp1.png,exp2.png,,,,,,,,,,,,,,,,,0,0,0,0,0,14,14,14,,,,,,,,,FALSE,14,95,TRUE,exp2.png,exp1.png,trial_right_image,-1,exp1.png,3,exp1.png,exp2.png,0,4,reversed,correct,0.33614107,1,valid_win,698.1097785,55,,,,,,,,,,,s_061,3,2021_Feb_16_1547,Reversal,3.2.4,60.02166781
15,exp3.png,exp4.png,,,,,,,,,,,,,,,,,0,0,0,0,0,15,15,15,,,,,,,,,FALSE,15,96,FALSE,exp3.png,exp4.png,trial_right_image,-1,exp4.png,3,exp4.png,exp3.png,1,1,non-reversed,correct,0.489239619,1,valid_win,706.5566218,56,,,,,,,,,,,s_061,3,2021_Feb_16_1547,Reversal,3.2.4,60.02166781
16,exp1.png,exp2.png,,,,,,,,,,,,,,,,,0,0,0,0,0,16,16,16,,,,,,,,,FALSE,16,97,FALSE,exp1.png,exp2.png,trial_left_image,1,exp1.png,3,exp1.png,exp2.png,0,4,reversed,correct,0.700885171,1,valid_win,713.2383811,57,,,,,,,,,,,s_061,3,2021_Feb_16_1547,Reversal,3.2.4,60.02166781
17,exp3.png,exp4.png,,,,,,,,,,,,,,,,,0,0,0,0,0,17,17,17,,,,,,,,,FALSE,17,98,FALSE,exp3.png,exp4.png,trial_right_image,-1,exp4.png,3,exp4.png,exp3.png,1,1,non-reversed,correct,0.691096676,1,valid_win,718.2529705,58,,,,,,,,,,,s_061,3,2021_Feb_16_1547,Reversal,3.2.4,60.02166781
18,exp1.png,exp2.png,,,,,,,,,,,,,,,,,0,0,0,0,0,18,18,18,,,,,,,,,FALSE,18,99,TRUE,exp2.png,exp1.png,trial_right_image,-1,exp1.png,3,exp1.png,exp2.png,0,4,reversed,correct,0.67806306,1,valid_win,724.0845757,59,,,,,,,,,,,s_061,3,2021_Feb_16_1547,Reversal,3.2.4,60.02166781
19,exp3.png,exp4.png,,,,,,,,,,,,,,,,,0,0,0,0,0,19,19,19,,,,,,,,,FALSE,19,100,TRUE,exp4.png,exp3.png,trial_left_image,1,exp4.png,3,exp4.png,exp3.png,1,1,non-reversed,correct,0.510934742,1,valid_win,729.399251,60,,,,,,,,,,,s_061,3,2021_Feb_16_1547,Reversal,3.2.4,60.02166781
20,exp1.png,exp2.png,,,,,,,,,,,,,,,,,0,0,0,0,0,20,20,20,,,,,,,,,TRUE,,,,,,,,,,,,,,,,,,,,,,,,,,,,,,,s_061,3,2021_Feb_16_1547,Reversal,3.2.4,60.02166781
,,,,,,,,,,,,,,,,,,,0,0,0,0,,,,,0,0,0,0,,,,,,,,,,,,,,,,,,,,,,,,,,1,5,9,98,,,,,,,s_061,3,2021_Feb_16_1547,Reversal,3.2.4,60.02166781
0,exp1.png,exp2.png,,,,,,,,,,,,,,,,,1,0,1,0,0,0,0,0,,,,,,,,,FALSE,20,101,TRUE,exp2.png,exp1.png,trial_right_image,-1,exp1.png,3,exp1.png,exp2.png,0,4,reversed,correct,0.376889592,1,valid_win,759.4055866,61,,,,,,,,,,,s_061,3,2021_Feb_16_1547,Reversal,3.2.4,60.02166781
1,exp3.png,exp4.png,,,,,,,,,,,,,,,,,1,0,1,0,0,1,1,1,,,,,,,,,FALSE,21,102,TRUE,exp4.png,exp3.png,trial_left_image,1,exp4.png,3,exp4.png,exp3.png,1,1,non-reversed,correct,0.066866823,0,invalid_lose,764.8703416,61,,,,,,,,,,,s_061,3,2021_Feb_16_1547,Reversal,3.2.4,60.02166781
2,exp1.png,exp2.png,,,,,,,,,,,,,,,,,1,0,1,0,0,2,2,2,,,,,,,,,FALSE,22,103,TRUE,exp2.png,exp1.png,trial_right_image,-1,exp1.png,3,exp1.png,exp2.png,0,4,reversed,correct,0.164394506,0,invalid_lose,770.8850283,61,,,,,,,,,,,s_061,3,2021_Feb_16_1547,Reversal,3.2.4,60.02166781
3,exp3.png,exp4.png,,,,,,,,,,,,,,,,,1,0,1,0,0,3,3,3,,,,,,,,,FALSE,23,104,FALSE,exp3.png,exp4.png,trial_right_image,-1,exp4.png,3,exp4.png,exp3.png,1,1,non-reversed,correct,0.045317005,0,invalid_lose,777.7330577,61,,,,,,,,,,,s_061,3,2021_Feb_16_1547,Reversal,3.2.4,60.02166781
4,exp1.png,exp2.png,,,,,,,,,,,,,,,,,1,0,1,0,0,4,4,4,,,,,,,,,FALSE,24,105,TRUE,exp2.png,exp1.png,trial_left_image,1,exp2.png,3,exp1.png,exp2.png,1,3,reversed,incorrect,0.163238268,1,invalid_win,784.2474987,62,,,,,,,,,,,s_061,3,2021_Feb_16_1547,Reversal,3.2.4,60.02166781
5,exp3.png,exp4.png,,,,,,,,,,,,,,,,,1,0,1,0,0,5,5,5,,,,,,,,,FALSE,25,106,FALSE,exp3.png,exp4.png,trial_left_image,1,exp3.png,3,exp4.png,exp3.png,0,2,non-reversed,incorrect,0.011708867,1,invalid_win,792.9927072,63,,,,,,,,,,,s_061,3,2021_Feb_16_1547,Reversal,3.2.4,60.02166781
6,exp1.png,exp2.png,,,,,,,,,,,,,,,,,1,0,1,0,0,6,6,6,,,,,,,,,FALSE,26,107,FALSE,exp1.png,exp2.png,trial_right_image,-1,exp2.png,3,exp1.png,exp2.png,1,3,reversed,incorrect,0.671355877,0,valid_lose,800.5903399,63,,,,,,,,,,,s_061,3,2021_Feb_16_1547,Reversal,3.2.4,60.02166781
7,exp3.png,exp4.png,,,,,,,,,,,,,,,,,1,0,1,0,0,7,7,7,,,,,,,,,FALSE,27,108,FALSE,exp3.png,exp4.png,trial_right_image,-1,exp4.png,3,exp4.png,exp3.png,1,1,non-reversed,correct,0.649106529,1,valid_win,806.1230025,64,,,,,,,,,,,s_061,3,2021_Feb_16_1547,Reversal,3.2.4,60.02166781
8,exp1.png,exp2.png,,,,,,,,,,,,,,,,,1,0,1,0,0,8,8,8,,,,,,,,,FALSE,28,109,TRUE,exp2.png,exp1.png,trial_right_image,-1,exp1.png,3,exp1.png,exp2.png,0,4,reversed,correct,0.64472266,1,valid_win,814.4377436,65,,,,,,,,,,,s_061,3,2021_Feb_16_1547,Reversal,3.2.4,60.02166781
9,exp3.png,exp4.png,,,,,,,,,,,,,,,,,1,0,1,0,0,9,9,9,,,,,,,,,FALSE,29,110,FALSE,exp3.png,exp4.png,trial_left_image,1,exp3.png,3,exp4.png,exp3.png,0,2,non-reversed,incorrect,0.580567737,0,valid_lose,820.8515181,65,,,,,,,,,,,s_061,3,2021_Feb_16_1547,Reversal,3.2.4,60.02166781
10,exp1.png,exp2.png,,,,,,,,,,,,,,,,,1,0,1,0,0,10,10,10,,,,,,,,,FALSE,30,111,FALSE,exp1.png,exp2.png,trial_left_image,1,exp1.png,3,exp1.png,exp2.png,0,4,reversed,correct,0.970315134,1,valid_win,826.5995506,66,,,,,,,,,,,s_061,3,2021_Feb_16_1547,Reversal,3.2.4,60.02166781
11,exp3.png,exp4.png,,,,,,,,,,,,,,,,,1,0,1,0,0,11,11,11,,,,,,,,,FALSE,31,112,TRUE,exp4.png,exp3.png,trial_right_image,-1,exp3.png,3,exp4.png,exp3.png,0,2,non-reversed,incorrect,0.994593556,0,valid_lose,835.2963195,66,,,,,,,,,,,s_061,3,2021_Feb_16_1547,Reversal,3.2.4,60.02166781
12,exp1.png,exp2.png,,,,,,,,,,,,,,,,,1,0,1,0,0,12,12,12,,,,,,,,,FALSE,32,113,FALSE,exp1.png,exp2.png,trial_right_image,-1,exp2.png,3,exp1.png,exp2.png,1,3,reversed,incorrect,0.190539572,1,invalid_win,840.9614792,67,,,,,,,,,,,s_061,3,2021_Feb_16_1547,Reversal,3.2.4,60.02166781
13,exp3.png,exp4.png,,,,,,,,,,,,,,,,,1,0,1,0,0,13,13,13,,,,,,,,,FALSE,33,114,TRUE,exp4.png,exp3.png,trial_right_image,-1,exp3.png,3,exp4.png,exp3.png,0,2,non-reversed,incorrect,0.178329505,1,invalid_win,849.2585293,68,,,,,,,,,,,s_061,3,2021_Feb_16_1547,Reversal,3.2.4,60.02166781
14,exp1.png,exp2.png,,,,,,,,,,,,,,,,,1,0,1,0,0,14,14,14,,,,,,,,,FALSE,34,115,FALSE,exp1.png,exp2.png,trial_right_image,-1,exp2.png,3,exp1.png,exp2.png,1,3,reversed,incorrect,0.779505029,0,valid_lose,857.0885532,68,,,,,,,,,,,s_061,3,2021_Feb_16_1547,Reversal,3.2.4,60.02166781
15,exp3.png,exp4.png,,,,,,,,,,,,,,,,,1,0,1,0,0,15,15,15,,,,,,,,,FALSE,35,116,TRUE,exp4.png,exp3.png,trial_left_image,1,exp4.png,3,exp4.png,exp3.png,1,1,non-reversed,correct,0.132424134,0,invalid_lose,862.5040143,68,,,,,,,,,,,s_061,3,2021_Feb_16_1547,Reversal,3.2.4,60.02166781
16,exp1.png,exp2.png,,,,,,,,,,,,,,,,,1,0,1,0,0,16,16,16,,,,,,,,,FALSE,36,117,FALSE,exp1.png,exp2.png,trial_right_image,-1,exp2.png,3,exp1.png,exp2.png,1,3,reversed,incorrect,0.775248303,0,valid_lose,867.8519366,68,,,,,,,,,,,s_061,3,2021_Feb_16_1547,Reversal,3.2.4,60.02166781
17,exp3.png,exp4.png,,,,,,,,,,,,,,,,,1,0,1,0,0,17,17,17,,,,,,,,,FALSE,37,118,TRUE,exp4.png,exp3.png,trial_left_image,1,exp4.png,3,exp4.png,exp3.png,1,1,non-reversed,correct,0.916091637,1,valid_win,872.900252,69,,,,,,,,,,,s_061,3,2021_Feb_16_1547,Reversal,3.2.4,60.02166781
18,exp1.png,exp2.png,,,,,,,,,,,,,,,,,1,0,1,0,0,18,18,18,,,,,,,,,FALSE,38,119,TRUE,exp2.png,exp1.png,trial_right_image,-1,exp1.png,3,exp1.png,exp2.png,0,4,reversed,correct,0.392343629,1,valid_win,879.398353,70,,,,,,,,,,,s_061,3,2021_Feb_16_1547,Reversal,3.2.4,60.02166781
19,exp3.png,exp4.png,,,,,,,,,,,,,,,,,1,0,1,0,0,19,19,19,,,,,,,,,FALSE,39,120,FALSE,exp3.png,exp4.png,trial_right_image,-1,exp4.png,3,exp4.png,exp3.png,1,1,non-reversed,correct,0.190551164,0,invalid_lose,885.0794136,70,,,,,,,,,,,s_061,3,2021_Feb_16_1547,Reversal,3.2.4,60.02166781
20,exp1.png,exp2.png,,,,,,,,,,,,,,,,,1,0,1,0,0,20,20,20,,,,,,,,,TRUE,,,,,,,,,,,,,,,,,,,,,,,,,,,,,,,s_061,3,2021_Feb_16_1547,Reversal,3.2.4,60.02166781
,,,,,,,,,,,,,,,,,,,1,0,1,0,,,,,0,0,0,0,,,,,,,,,,,,,,,,,,,,,,,,,,94,97,2,3,,,,,,,s_061,3,2021_Feb_16_1547,Reversal,3.2.4,60.02166781
0,exp1.png,exp2.png,,,,,,,,,,,,,,,,,2,0,2,0,0,0,0,0,,,,,,,,,FALSE,40,121,TRUE,exp2.png,exp1.png,trial_left_image,1,exp2.png,3,exp1.png,exp2.png,1,3,reversed,incorrect,0.771852865,0,valid_lose,921.0840737,70,,,,,,,,,,,s_061,3,2021_Feb_16_1547,Reversal,3.2.4,60.02166781
1,exp3.png,exp4.png,,,,,,,,,,,,,,,,,2,0,2,0,0,1,1,1,,,,,,,,,FALSE,41,122,FALSE,exp3.png,exp4.png,trial_right_image,-1,exp4.png,3,exp4.png,exp3.png,1,1,non-reversed,correct,0.63549632,1,valid_win,926.8325899,71,,,,,,,,,,,s_061,3,2021_Feb_16_1547,Reversal,3.2.4,60.02166781
2,exp1.png,exp2.png,,,,,,,,,,,,,,,,,2,0,2,0,0,2,2,2,,,,,,,,,FALSE,42,123,TRUE,exp2.png,exp1.png,trial_right_image,-1,exp1.png,3,exp1.png,exp2.png,0,4,reversed,correct,0.526579954,1,valid_win,933.1805526,72,,,,,,,,,,,s_061,3,2021_Feb_16_1547,Reversal,3.2.4,60.02166781
3,exp3.png,exp4.png,,,,,,,,,,,,,,,,,2,0,2,0,0,3,3,3,,,,,,,,,FALSE,43,124,TRUE,exp4.png,exp3.png,trial_right_image,-1,exp3.png,3,exp4.png,exp3.png,0,2,non-reversed,incorrect,0.199222317,1,invalid_win,939.0778789,73,,,,,,,,,,,s_061,3,2021_Feb_16_1547,Reversal,3.2.4,60.02166781
4,exp1.png,exp2.png,,,,,,,,,,,,,,,,,2,0,2,0,0,4,4,4,,,,,,,,,FALSE,44,125,TRUE,exp2.png,exp1.png,trial_left_image,1,exp2.png,3,exp1.png,exp2.png,1,3,reversed,incorrect,0.154562114,1,invalid_win,944.7425047,74,,,,,,,,,,,s_061,3,2021_Feb_16_1547,Reversal,3.2.4,60.02166781
5,exp3.png,exp4.png,,,,,,,,,,,,,,,,,2,0,2,0,0,5,5,5,,,,,,,,,FALSE,45,126,TRUE,exp4.png,exp3.png,trial_right_image,-1,exp3.png,3,exp4.png,exp3.png,0,2,non-reversed,incorrect,0.77506564,0,valid_lose,950.2411003,74,,,,,,,,,,,s_061,3,2021_Feb_16_1547,Reversal,3.2.4,60.02166781
6,exp1.png,exp2.png,,,,,,,,,,,,,,,,,2,0,2,0,0,6,6,6,,,,,,,,,FALSE,46,127,TRUE,exp2.png,exp1.png,trial_right_image,-1,exp1.png,3,exp1.png,exp2.png,0,4,reversed,correct,0.195044408,0,invalid_lose,956.6718377,74,,,,,,,,,,,s_061,3,2021_Feb_16_1547,Reversal,3.2.4,60.02166781
7,exp3.png,exp4.png,,,,,,,,,,,,,,,,,2,0,2,0,0,7,7,7,,,,,,,,,FALSE,47,128,TRUE,exp4.png,exp3.png,trial_right_image,-1,exp3.png,3,exp4.png,exp3.png,0,2,non-reversed,incorrect,0.999596005,0,valid_lose,964.4692174,74,,,,,,,,,,,s_061,3,2021_Feb_16_1547,Reversal,3.2.4,60.02166781
8,exp1.png,exp2.png,,,,,,,,,,,,,,,,,2,0,2,0,0,8,8,8,,,,,,,,,FALSE,48,129,FALSE,exp1.png,exp2.png,trial_left_image,1,exp1.png,3,exp1.png,exp2.png,0,4,reversed,correct,0.812471149,1,valid_win,974.8321288,75,,,,,,,,,,,s_061,3,2021_Feb_16_1547,Reversal,3.2.4,60.02166781
9,exp3.png,exp4.png,,,,,,,,,,,,,,,,,2,0,2,0,0,9,9,9,,,,,,,,,FALSE,49,130,FALSE,exp3.png,exp4.png,trial_right_image,-1,exp4.png,3,exp4.png,exp3.png,1,1,non-reversed,correct,0.347554453,1,valid_win,982.2298372,76,,,,,,,,,,,s_061,3,2021_Feb_16_1547,Reversal,3.2.4,60.02166781
10,exp1.png,exp2.png,,,,,,,,,,,,,,,,,2,0,2,0,0,10,10,10,,,,,,,,,FALSE,50,131,FALSE,exp1.png,exp2.png,trial_right_image,-1,exp2.png,3,exp1.png,exp2.png,1,3,reversed,incorrect,0.940948788,0,valid_lose,992.7597655,76,,,,,,,,,,,s_061,3,2021_Feb_16_1547,Reversal,3.2.4,60.02166781
11,exp3.png,exp4.png,,,,,,,,,,,,,,,,,2,0,2,0,0,11,11,11,,,,,,,,,FALSE,51,132,FALSE,exp3.png,exp4.png,trial_right_image,-1,exp4.png,3,exp4.png,exp3.png,1,1,non-reversed,correct,0.796592079,1,valid_win,997.8411613,77,,,,,,,,,,,s_061,3,2021_Feb_16_1547,Reversal,3.2.4,60.02166781
12,exp1.png,exp2.png,,,,,,,,,,,,,,,,,2,0,2,0,0,12,12,12,,,,,,,,,FALSE,52,133,FALSE,exp1.png,exp2.png,trial_left_image,1,exp1.png,3,exp1.png,exp2.png,0,4,reversed,correct,0.381248933,1,valid_win,1003.272432,78,,,,,,,,,,,s_061,3,2021_Feb_16_1547,Reversal,3.2.4,60.02166781
13,exp3.png,exp4.png,,,,,,,,,,,,,,,,,2,0,2,0,0,13,13,13,,,,,,,,,FALSE,53,134,FALSE,exp3.png,exp4.png,trial_left_image,1,exp3.png,3,exp4.png,exp3.png,0,2,non-reversed,incorrect,0.971322565,0,valid_lose,1011.936505,78,,,,,,,,,,,s_061,3,2021_Feb_16_1547,Reversal,3.2.4,60.02166781
14,exp1.png,exp2.png,,,,,,,,,,,,,,,,,2,0,2,0,0,14,14,14,,,,,,,,,FALSE,54,135,FALSE,exp1.png,exp2.png,trial_right_image,-1,exp2.png,3,exp1.png,exp2.png,1,3,reversed,incorrect,0.125128677,1,invalid_win,1018.850633,79,,,,,,,,,,,s_061,3,2021_Feb_16_1547,Reversal,3.2.4,60.02166781
15,exp3.png,exp4.png,,,,,,,,,,,,,,,,,2,0,2,0,0,15,15,15,,,,,,,,,FALSE,55,136,TRUE,exp4.png,exp3.png,trial_right_image,-1,exp3.png,3,exp4.png,exp3.png,0,2,non-reversed,incorrect,0.341557344,0,valid_lose,1025.881657,79,,,,,,,,,,,s_061,3,2021_Feb_16_1547,Reversal,3.2.4,60.02166781
16,exp1.png,exp2.png,,,,,,,,,,,,,,,,,2,0,2,0,0,16,16,16,,,,,,,,,FALSE,56,137,FALSE,exp1.png,exp2.png,trial_right_image,-1,exp2.png,3,exp1.png,exp2.png,1,3,reversed,incorrect,0.595269179,0,valid_lose,1031.345136,79,,,,,,,,,,,s_061,3,2021_Feb_16_1547,Reversal,3.2.4,60.02166781
17,exp3.png,exp4.png,,,,,,,,,,,,,,,,,2,0,2,0,0,17,17,17,,,,,,,,,FALSE,57,138,FALSE,exp3.png,exp4.png,trial_right_image,-1,exp4.png,3,exp4.png,exp3.png,1,1,non-reversed,correct,0.68682465,1,valid_win,1036.361892,80,,,,,,,,,,,s_061,3,2021_Feb_16_1547,Reversal,3.2.4,60.02166781
18,exp1.png,exp2.png,,,,,,,,,,,,,,,,,2,0,2,0,0,18,18,18,,,,,,,,,FALSE,58,139,TRUE,exp2.png,exp1.png,trial_right_image,-1,exp1.png,3,exp1.png,exp2.png,0,4,reversed,correct,0.484657547,1,valid_win,1042.093017,81,,,,,,,,,,,s_061,3,2021_Feb_16_1547,Reversal,3.2.4,60.02166781
19,exp3.png,exp4.png,,,,,,,,,,,,,,,,,2,0,2,0,0,19,19,19,,,,,,,,,FALSE,59,140,TRUE,exp4.png,exp3.png,trial_left_image,1,exp4.png,3,exp4.png,exp3.png,1,1,non-reversed,correct,0.960225302,1,valid_win,1046.941758,82,,,,,,,,,,,s_061,3,2021_Feb_16_1547,Reversal,3.2.4,60.02166781
20,exp1.png,exp2.png,,,,,,,,,,,,,,,,,2,0,2,0,0,20,20,20,,,,,,,,,TRUE,,,,,,,,,,,,,,,,,,,,,,,,,,,,,,,s_061,3,2021_Feb_16_1547,Reversal,3.2.4,60.02166781
,,,,,,,,,,,,,,,,,,,2,0,2,0,,,,,0,0,0,0,,,,,,,,,,,,,,,,,,,,,,,,,,92,7,88,12,,,,,,,s_061,3,2021_Feb_16_1547,Reversal,3.2.4,60.02166781
,,,,,,,,,,,,,,,,,,,,,,,,,,,,,,,,,,,,,,,,,,,,,,,,,,,,,,,82,,,,,,78,41,37,463.8568528,1,,,,,,
