trial_index,trial_image1_file,trial_image2_file,learning_outer_loop.thisRepN,learning_outer_loop.thisTrialN,learning_outer_loop.thisN,learning_outer_loop.thisIndex,learning_inner_loop.thisRepN,learning_inner_loop.thisTrialN,learning_inner_loop.thisN,learning_inner_loop.thisIndex,learning_estimation_outer_loop.thisRepN,learning_estimation_outer_loop.thisTrialN,learning_estimation_outer_loop.thisN,learning_estimation_outer_loop.thisIndex,learning_estimation_inner_loop.thisRepN,learning_estimation_inner_loop.thisTrialN,learning_estimation_inner_loop.thisN,learning_estimation_inner_loop.thisIndex,reversal_outer_loop.thisRepN,reversal_outer_loop.thisTrialN,reversal_outer_loop.thisN,reversal_outer_loop.thisIndex,reversal_inner_loop.thisRepN,reversal_inner_loop.thisTrialN,reversal_inner_loop.thisN,reversal_inner_loop.thisIndex,reversal_estimation_outer_loop.thisRepN,reversal_estimation_outer_loop.thisTrialN,reversal_estimation_outer_loop.thisN,reversal_estimation_outer_loop.thisIndex,reversal_estimation_inner_loop.thisRepN,reversal_estimation_inner_loop.thisTrialN,reversal_estimation_inner_loop.thisN,reversal_estimation_inner_loop.thisIndex,skipped,total_trial_counter,trial_num,left_right_flip,left_image_file,right_image_file,clicked_stimulus_side,side,clicked_stimulus,version,high_prob_image_file,low_prob_image_file,choice_a,choice_b,pair_type,correct,trial_feedback_random,reward,trial_type,overall_time_after_trial,score,estimation_exp1.png,estimation_exp2.png,estimation_exp3.png,estimation_exp4.png,total_learning_time,total_correct,learning_correct,reversal_correct,total_reversal_time,extra_block,participant,ver,date,expName,psychopyVersion,frameRate,
0,exp1.png,exp2.png,0,0,0,0,0,0,0,0,,,,,,,,,,,,,,,,,,,,,,,,,True,,,,,,,,,,,,,,,,,,,,,,,,,,,,,,,s_069,3,2021_Mar_03_1235,Reversal,3.2.4,59.91604564277638,
1,exp3.png,exp4.png,0,0,0,0,0,1,1,1,,,,,,,,,,,,,,,,,,,,,,,,,False,0,1,True,exp4.png,exp3.png,trial_right_image,-1,exp3.png,3,exp4.png,exp3.png,0,2,non-reversed,incorrect,0.28885750097538754,0,valid_lose,7.777982300001895,0,,,,,,,,,,,s_069,3,2021_Mar_03_1235,Reversal,3.2.4,59.91604564277638,
2,exp1.png,exp2.png,0,0,0,0,0,2,2,2,,,,,,,,,,,,,,,,,,,,,,,,,False,1,2,False,exp1.png,exp2.png,trial_right_image,-1,exp2.png,3,exp2.png,exp1.png,1,3,reversed,correct,0.8456120226049646,1,valid_win,14.658643900009338,1,,,,,,,,,,,s_069,3,2021_Mar_03_1235,Reversal,3.2.4,59.91604564277638,
3,exp3.png,exp4.png,0,0,0,0,0,3,3,3,,,,,,,,,,,,,,,,,,,,,,,,,False,2,3,True,exp4.png,exp3.png,trial_left_image,1,exp4.png,3,exp4.png,exp3.png,1,1,non-reversed,correct,0.34794043539337816,1,valid_win,20.806216200027848,2,,,,,,,,,,,s_069,3,2021_Mar_03_1235,Reversal,3.2.4,59.91604564277638,
4,exp1.png,exp2.png,0,0,0,0,0,4,4,4,,,,,,,,,,,,,,,,,,,,,,,,,False,3,4,True,exp2.png,exp1.png,trial_left_image,1,exp2.png,3,exp2.png,exp1.png,1,3,reversed,correct,0.13844377878657121,0,invalid_lose,25.954864800005453,2,,,,,,,,,,,s_069,3,2021_Mar_03_1235,Reversal,3.2.4,59.91604564277638,
5,exp3.png,exp4.png,0,0,0,0,0,5,5,5,,,,,,,,,,,,,,,,,,,,,,,,,False,4,5,False,exp3.png,exp4.png,trial_left_image,1,exp3.png,3,exp4.png,exp3.png,0,2,non-reversed,incorrect,0.6172852229316355,0,valid_lose,30.73661130000255,2,,,,,,,,,,,s_069,3,2021_Mar_03_1235,Reversal,3.2.4,59.91604564277638,
6,exp1.png,exp2.png,0,0,0,0,0,6,6,6,,,,,,,,,,,,,,,,,,,,,,,,,False,5,6,True,exp2.png,exp1.png,trial_right_image,-1,exp1.png,3,exp2.png,exp1.png,0,4,reversed,incorrect,0.5673703465207363,0,valid_lose,34.96651000002748,2,,,,,,,,,,,s_069,3,2021_Mar_03_1235,Reversal,3.2.4,59.91604564277638,
7,exp3.png,exp4.png,0,0,0,0,0,7,7,7,,,,,,,,,,,,,,,,,,,,,,,,,False,6,7,True,exp4.png,exp3.png,trial_right_image,-1,exp3.png,3,exp4.png,exp3.png,0,2,non-reversed,incorrect,0.07799224914992486,1,invalid_win,43.53192830001353,3,,,,,,,,,,,s_069,3,2021_Mar_03_1235,Reversal,3.2.4,59.91604564277638,
8,exp1.png,exp2.png,0,0,0,0,0,8,8,8,,,,,,,,,,,,,,,,,,,,,,,,,False,7,8,False,exp1.png,exp2.png,trial_right_image,-1,exp2.png,3,exp2.png,exp1.png,1,3,reversed,correct,0.7583665369692562,1,valid_win,51.096243000007235,4,,,,,,,,,,,s_069,3,2021_Mar_03_1235,Reversal,3.2.4,59.91604564277638,
9,exp3.png,exp4.png,0,0,0,0,0,9,9,9,,,,,,,,,,,,,,,,,,,,,,,,,False,8,9,False,exp3.png,exp4.png,trial_left_image,1,exp3.png,3,exp4.png,exp3.png,0,2,non-reversed,incorrect,0.7466437450726827,0,valid_lose,57.97702700001537,4,,,,,,,,,,,s_069,3,2021_Mar_03_1235,Reversal,3.2.4,59.91604564277638,
10,exp1.png,exp2.png,0,0,0,0,0,10,10,10,,,,,,,,,,,,,,,,,,,,,,,,,False,9,10,False,exp1.png,exp2.png,trial_right_image,-1,exp2.png,3,exp2.png,exp1.png,1,3,reversed,correct,0.29474002988102654,1,valid_win,62.458838200022,5,,,,,,,,,,,s_069,3,2021_Mar_03_1235,Reversal,3.2.4,59.91604564277638,
11,exp3.png,exp4.png,0,0,0,0,0,11,11,11,,,,,,,,,,,,,,,,,,,,,,,,,False,10,11,True,exp4.png,exp3.png,trial_left_image,1,exp4.png,3,exp4.png,exp3.png,1,1,non-reversed,correct,0.37875668505063687,1,valid_win,66.89101220000884,6,,,,,,,,,,,s_069,3,2021_Mar_03_1235,Reversal,3.2.4,59.91604564277638,
12,exp1.png,exp2.png,0,0,0,0,0,12,12,12,,,,,,,,,,,,,,,,,,,,,,,,,False,11,12,True,exp2.png,exp1.png,trial_left_image,1,exp2.png,3,exp2.png,exp1.png,1,3,reversed,correct,0.15146451325904775,0,invalid_lose,71.8226087000221,6,,,,,,,,,,,s_069,3,2021_Mar_03_1235,Reversal,3.2.4,59.91604564277638,
13,exp3.png,exp4.png,0,0,0,0,0,13,13,13,,,,,,,,,,,,,,,,,,,,,,,,,False,12,13,False,exp3.png,exp4.png,trial_right_image,-1,exp4.png,3,exp4.png,exp3.png,1,1,non-reversed,correct,0.9144856740789973,1,valid_win,76.0045973000233,7,,,,,,,,,,,s_069,3,2021_Mar_03_1235,Reversal,3.2.4,59.91604564277638,
14,exp1.png,exp2.png,0,0,0,0,0,14,14,14,,,,,,,,,,,,,,,,,,,,,,,,,False,13,14,True,exp2.png,exp1.png,trial_right_image,-1,exp1.png,3,exp2.png,exp1.png,0,4,reversed,incorrect,0.43459803883775516,0,valid_lose,80.43613060002099,7,,,,,,,,,,,s_069,3,2021_Mar_03_1235,Reversal,3.2.4,59.91604564277638,
15,exp3.png,exp4.png,0,0,0,0,0,15,15,15,,,,,,,,,,,,,,,,,,,,,,,,,False,14,15,False,exp3.png,exp4.png,trial_right_image,-1,exp4.png,3,exp4.png,exp3.png,1,1,non-reversed,correct,0.6836612909215665,1,valid_win,85.0345894000202,8,,,,,,,,,,,s_069,3,2021_Mar_03_1235,Reversal,3.2.4,59.91604564277638,
16,exp1.png,exp2.png,0,0,0,0,0,16,16,16,,,,,,,,,,,,,,,,,,,,,,,,,False,15,16,False,exp1.png,exp2.png,trial_left_image,1,exp1.png,3,exp2.png,exp1.png,0,4,reversed,incorrect,0.7659523816153215,0,valid_lose,89.9659604000044,8,,,,,,,,,,,s_069,3,2021_Mar_03_1235,Reversal,3.2.4,59.91604564277638,
17,exp3.png,exp4.png,0,0,0,0,0,17,17,17,,,,,,,,,,,,,,,,,,,,,,,,,False,16,17,False,exp3.png,exp4.png,trial_right_image,-1,exp4.png,3,exp4.png,exp3.png,1,1,non-reversed,correct,0.5534636865580818,1,valid_win,94.21347630000673,9,,,,,,,,,,,s_069,3,2021_Mar_03_1235,Reversal,3.2.4,59.91604564277638,
18,exp1.png,exp2.png,0,0,0,0,0,18,18,18,,,,,,,,,,,,,,,,,,,,,,,,,False,17,18,True,exp2.png,exp1.png,trial_right_image,-1,exp1.png,3,exp2.png,exp1.png,0,4,reversed,incorrect,0.5511078199209897,0,valid_lose,99.54640030002338,9,,,,,,,,,,,s_069,3,2021_Mar_03_1235,Reversal,3.2.4,59.91604564277638,
19,exp3.png,exp4.png,0,0,0,0,0,19,19,19,,,,,,,,,,,,,,,,,,,,,,,,,False,18,19,True,exp4.png,exp3.png,trial_right_image,-1,exp3.png,3,exp4.png,exp3.png,0,2,non-reversed,incorrect,0.19863805595301554,1,invalid_win,104.51128040000913,10,,,,,,,,,,,s_069,3,2021_Mar_03_1235,Reversal,3.2.4,59.91604564277638,
20,exp1.png,exp2.png,0,0,0,0,0,20,20,20,,,,,,,,,,,,,,,,,,,,,,,,,False,19,20,False,exp1.png,exp2.png,trial_right_image,-1,exp2.png,3,exp2.png,exp1.png,1,3,reversed,correct,0.9329418120774585,1,valid_win,109.3259980000148,11,,,,,,,,,,,s_069,3,2021_Mar_03_1235,Reversal,3.2.4,59.91604564277638,
,,,0,0,0,0,,,,,0,0,0,0,,,,,,,,,,,,,,,,,,,,,,,,,,,,,,,,,,,,,,,,,,24,83,50.0,81,,,,,,,s_069,3,2021_Mar_03_1235,Reversal,3.2.4,59.91604564277638,
0,exp1.png,exp2.png,1,0,1,0,0,0,0,0,,,,,,,,,,,,,,,,,,,,,,,,,True,,,,,,,,,,,,,,,,,,,,,,,,,,,,,,,s_069,3,2021_Mar_03_1235,Reversal,3.2.4,59.91604564277638,
1,exp3.png,exp4.png,1,0,1,0,0,1,1,1,,,,,,,,,,,,,,,,,,,,,,,,,False,20,21,True,exp4.png,exp3.png,trial_left_image,1,exp4.png,3,exp4.png,exp3.png,1,1,non-reversed,correct,0.31268697883137253,1,valid_win,142.0810939000221,12,,,,,,,,,,,s_069,3,2021_Mar_03_1235,Reversal,3.2.4,59.91604564277638,
2,exp1.png,exp2.png,1,0,1,0,0,2,2,2,,,,,,,,,,,,,,,,,,,,,,,,,False,21,22,True,exp2.png,exp1.png,trial_left_image,1,exp2.png,3,exp2.png,exp1.png,1,3,reversed,correct,0.9789354725788253,1,valid_win,147.99651100000483,13,,,,,,,,,,,s_069,3,2021_Mar_03_1235,Reversal,3.2.4,59.91604564277638,
3,exp3.png,exp4.png,1,0,1,0,0,3,3,3,,,,,,,,,,,,,,,,,,,,,,,,,False,22,23,True,exp4.png,exp3.png,trial_right_image,-1,exp3.png,3,exp4.png,exp3.png,0,2,non-reversed,incorrect,0.34029347905600726,0,valid_lose,153.19293140000082,13,,,,,,,,,,,s_069,3,2021_Mar_03_1235,Reversal,3.2.4,59.91604564277638,
4,exp1.png,exp2.png,1,0,1,0,0,4,4,4,,,,,,,,,,,,,,,,,,,,,,,,,False,23,24,True,exp2.png,exp1.png,trial_left_image,1,exp2.png,3,exp2.png,exp1.png,1,3,reversed,correct,0.5317729367197533,1,valid_win,158.07631620002212,14,,,,,,,,,,,s_069,3,2021_Mar_03_1235,Reversal,3.2.4,59.91604564277638,
5,exp3.png,exp4.png,1,0,1,0,0,5,5,5,,,,,,,,,,,,,,,,,,,,,,,,,False,24,25,True,exp4.png,exp3.png,trial_left_image,1,exp4.png,3,exp4.png,exp3.png,1,1,non-reversed,correct,0.43058004284360796,1,valid_win,163.25801880002837,15,,,,,,,,,,,s_069,3,2021_Mar_03_1235,Reversal,3.2.4,59.91604564277638,
6,exp1.png,exp2.png,1,0,1,0,0,6,6,6,,,,,,,,,,,,,,,,,,,,,,,,,False,25,26,False,exp1.png,exp2.png,trial_right_image,-1,exp2.png,3,exp2.png,exp1.png,1,3,reversed,correct,0.5333242727439196,1,valid_win,168.4228535000002,16,,,,,,,,,,,s_069,3,2021_Mar_03_1235,Reversal,3.2.4,59.91604564277638,
7,exp3.png,exp4.png,1,0,1,0,0,7,7,7,,,,,,,,,,,,,,,,,,,,,,,,,False,26,27,False,exp3.png,exp4.png,trial_right_image,-1,exp4.png,3,exp4.png,exp3.png,1,1,non-reversed,correct,0.5901402340486792,1,valid_win,173.80410550002125,17,,,,,,,,,,,s_069,3,2021_Mar_03_1235,Reversal,3.2.4,59.91604564277638,
8,exp1.png,exp2.png,1,0,1,0,0,8,8,8,,,,,,,,,,,,,,,,,,,,,,,,,False,27,28,True,exp2.png,exp1.png,trial_left_image,1,exp2.png,3,exp2.png,exp1.png,1,3,reversed,correct,0.2612249646425545,1,valid_win,178.96916700000293,18,,,,,,,,,,,s_069,3,2021_Mar_03_1235,Reversal,3.2.4,59.91604564277638,
9,exp3.png,exp4.png,1,0,1,0,0,9,9,9,,,,,,,,,,,,,,,,,,,,,,,,,False,28,29,False,exp3.png,exp4.png,trial_right_image,-1,exp4.png,3,exp4.png,exp3.png,1,1,non-reversed,correct,0.1969161723091879,0,invalid_lose,183.9681689000281,18,,,,,,,,,,,s_069,3,2021_Mar_03_1235,Reversal,3.2.4,59.91604564277638,
10,exp1.png,exp2.png,1,0,1,0,0,10,10,10,,,,,,,,,,,,,,,,,,,,,,,,,False,29,30,False,exp1.png,exp2.png,trial_right_image,-1,exp2.png,3,exp2.png,exp1.png,1,3,reversed,correct,0.9211503647717028,1,valid_win,188.81587630001013,19,,,,,,,,,,,s_069,3,2021_Mar_03_1235,Reversal,3.2.4,59.91604564277638,
11,exp3.png,exp4.png,1,0,1,0,0,11,11,11,,,,,,,,,,,,,,,,,,,,,,,,,False,30,31,True,exp4.png,exp3.png,trial_right_image,-1,exp3.png,3,exp4.png,exp3.png,0,2,non-reversed,incorrect,0.8148863982364987,0,valid_lose,193.64742290001595,19,,,,,,,,,,,s_069,3,2021_Mar_03_1235,Reversal,3.2.4,59.91604564277638,
12,exp1.png,exp2.png,1,0,1,0,0,12,12,12,,,,,,,,,,,,,,,,,,,,,,,,,False,31,32,True,exp2.png,exp1.png,trial_left_image,1,exp2.png,3,exp2.png,exp1.png,1,3,reversed,correct,0.8475240950935209,1,valid_win,198.429297100025,20,,,,,,,,,,,s_069,3,2021_Mar_03_1235,Reversal,3.2.4,59.91604564277638,
13,exp3.png,exp4.png,1,0,1,0,0,13,13,13,,,,,,,,,,,,,,,,,,,,,,,,,False,32,33,False,exp3.png,exp4.png,trial_right_image,-1,exp4.png,3,exp4.png,exp3.png,1,1,non-reversed,correct,0.3278162021965164,1,valid_win,203.4771765000187,21,,,,,,,,,,,s_069,3,2021_Mar_03_1235,Reversal,3.2.4,59.91604564277638,
14,exp1.png,exp2.png,1,0,1,0,0,14,14,14,,,,,,,,,,,,,,,,,,,,,,,,,False,33,34,False,exp1.png,exp2.png,trial_right_image,-1,exp2.png,3,exp2.png,exp1.png,1,3,reversed,correct,0.4350290229762791,1,valid_win,208.37498330001836,22,,,,,,,,,,,s_069,3,2021_Mar_03_1235,Reversal,3.2.4,59.91604564277638,
15,exp3.png,exp4.png,1,0,1,0,0,15,15,15,,,,,,,,,,,,,,,,,,,,,,,,,False,34,35,False,exp3.png,exp4.png,trial_right_image,-1,exp4.png,3,exp4.png,exp3.png,1,1,non-reversed,correct,0.5167909729717156,1,valid_win,215.70585030000075,23,,,,,,,,,,,s_069,3,2021_Mar_03_1235,Reversal,3.2.4,59.91604564277638,
16,exp1.png,exp2.png,1,0,1,0,0,16,16,16,,,,,,,,,,,,,,,,,,,,,,,,,False,35,36,False,exp1.png,exp2.png,trial_right_image,-1,exp2.png,3,exp2.png,exp1.png,1,3,reversed,correct,0.5025436575458452,1,valid_win,220.77172800002154,24,,,,,,,,,,,s_069,3,2021_Mar_03_1235,Reversal,3.2.4,59.91604564277638,
17,exp3.png,exp4.png,1,0,1,0,0,17,17,17,,,,,,,,,,,,,,,,,,,,,,,,,False,36,37,True,exp4.png,exp3.png,trial_right_image,-1,exp3.png,3,exp4.png,exp3.png,0,2,non-reversed,incorrect,0.31283240627077236,0,valid_lose,225.71985120000318,24,,,,,,,,,,,s_069,3,2021_Mar_03_1235,Reversal,3.2.4,59.91604564277638,
18,exp1.png,exp2.png,1,0,1,0,0,18,18,18,,,,,,,,,,,,,,,,,,,,,,,,,False,37,38,False,exp1.png,exp2.png,trial_right_image,-1,exp2.png,3,exp2.png,exp1.png,1,3,reversed,correct,0.6077392296887596,1,valid_win,230.31818070000736,25,,,,,,,,,,,s_069,3,2021_Mar_03_1235,Reversal,3.2.4,59.91604564277638,
19,exp3.png,exp4.png,1,0,1,0,0,19,19,19,,,,,,,,,,,,,,,,,,,,,,,,,False,38,39,False,exp3.png,exp4.png,trial_right_image,-1,exp4.png,3,exp4.png,exp3.png,1,1,non-reversed,correct,0.23543854408493137,0,invalid_lose,235.133801900025,25,,,,,,,,,,,s_069,3,2021_Mar_03_1235,Reversal,3.2.4,59.91604564277638,
20,exp1.png,exp2.png,1,0,1,0,0,20,20,20,,,,,,,,,,,,,,,,,,,,,,,,,False,39,40,True,exp2.png,exp1.png,trial_left_image,1,exp2.png,3,exp2.png,exp1.png,1,3,reversed,correct,0.3505065694086785,1,valid_win,239.86516250000568,26,,,,,,,,,,,s_069,3,2021_Mar_03_1235,Reversal,3.2.4,59.91604564277638,
,,,1,0,1,0,,,,,0,0,0,0,,,,,,,,,,,,,,,,,,,,,,,,,,,,,,,,,,,,,,,,,,0,100,33,82,,,,,,,s_069,3,2021_Mar_03_1235,Reversal,3.2.4,59.91604564277638,
0,exp1.png,exp2.png,2,0,2,0,0,0,0,0,,,,,,,,,,,,,,,,,,,,,,,,,True,,,,,,,,,,,,,,,,,,,,,,,,,,,,,,,s_069,3,2021_Mar_03_1235,Reversal,3.2.4,59.91604564277638,
1,exp3.png,exp4.png,2,0,2,0,0,1,1,1,,,,,,,,,,,,,,,,,,,,,,,,,False,40,41,False,exp3.png,exp4.png,trial_left_image,1,exp3.png,3,exp4.png,exp3.png,0,2,non-reversed,incorrect,0.9347325310962077,0,valid_lose,263.37417530000675,26,,,,,,,,,,,s_069,3,2021_Mar_03_1235,Reversal,3.2.4,59.91604564277638,
2,exp1.png,exp2.png,2,0,2,0,0,2,2,2,,,,,,,,,,,,,,,,,,,,,,,,,False,41,42,True,exp2.png,exp1.png,trial_left_image,1,exp2.png,3,exp2.png,exp1.png,1,3,reversed,correct,0.5929239512283404,1,valid_win,267.7226604000025,27,,,,,,,,,,,s_069,3,2021_Mar_03_1235,Reversal,3.2.4,59.91604564277638,
3,exp3.png,exp4.png,2,0,2,0,0,3,3,3,,,,,,,,,,,,,,,,,,,,,,,,,False,42,43,True,exp4.png,exp3.png,trial_right_image,-1,exp3.png,3,exp4.png,exp3.png,0,2,non-reversed,incorrect,0.09007217043466997,1,invalid_win,273.95205610000994,28,,,,,,,,,,,s_069,3,2021_Mar_03_1235,Reversal,3.2.4,59.91604564277638,
4,exp1.png,exp2.png,2,0,2,0,0,4,4,4,,,,,,,,,,,,,,,,,,,,,,,,,False,43,44,False,exp1.png,exp2.png,trial_right_image,-1,exp2.png,3,exp2.png,exp1.png,1,3,reversed,correct,0.5493277721398558,1,valid_win,278.5841670000227,29,,,,,,,,,,,s_069,3,2021_Mar_03_1235,Reversal,3.2.4,59.91604564277638,
5,exp3.png,exp4.png,2,0,2,0,0,5,5,5,,,,,,,,,,,,,,,,,,,,,,,,,False,44,45,False,exp3.png,exp4.png,trial_right_image,-1,exp4.png,3,exp4.png,exp3.png,1,1,non-reversed,correct,0.9584071141843564,1,valid_win,283.0492520000262,30,,,,,,,,,,,s_069,3,2021_Mar_03_1235,Reversal,3.2.4,59.91604564277638,
6,exp1.png,exp2.png,2,0,2,0,0,6,6,6,,,,,,,,,,,,,,,,,,,,,,,,,False,45,46,True,exp2.png,exp1.png,trial_left_image,1,exp2.png,3,exp2.png,exp1.png,1,3,reversed,correct,0.7061493930642386,1,valid_win,287.5319910000253,31,,,,,,,,,,,s_069,3,2021_Mar_03_1235,Reversal,3.2.4,59.91604564277638,
7,exp3.png,exp4.png,2,0,2,0,0,7,7,7,,,,,,,,,,,,,,,,,,,,,,,,,False,46,47,False,exp3.png,exp4.png,trial_right_image,-1,exp4.png,3,exp4.png,exp3.png,1,1,non-reversed,correct,0.9935388213905612,1,valid_win,293.53044940001564,32,,,,,,,,,,,s_069,3,2021_Mar_03_1235,Reversal,3.2.4,59.91604564277638,
8,exp1.png,exp2.png,2,0,2,0,0,8,8,8,,,,,,,,,,,,,,,,,,,,,,,,,False,47,48,True,exp2.png,exp1.png,trial_left_image,1,exp2.png,3,exp2.png,exp1.png,1,3,reversed,correct,0.5349913884514428,1,valid_win,298.561826500023,33,,,,,,,,,,,s_069,3,2021_Mar_03_1235,Reversal,3.2.4,59.91604564277638,
9,exp3.png,exp4.png,2,0,2,0,0,9,9,9,,,,,,,,,,,,,,,,,,,,,,,,,False,48,49,False,exp3.png,exp4.png,trial_right_image,-1,exp4.png,3,exp4.png,exp3.png,1,1,non-reversed,correct,0.5602830263809174,1,valid_win,304.62649640001473,34,,,,,,,,,,,s_069,3,2021_Mar_03_1235,Reversal,3.2.4,59.91604564277638,
10,exp1.png,exp2.png,2,0,2,0,0,10,10,10,,,,,,,,,,,,,,,,,,,,,,,,,False,49,50,True,exp2.png,exp1.png,trial_left_image,1,exp2.png,3,exp2.png,exp1.png,1,3,reversed,correct,0.8508817221057509,1,valid_win,309.5416347000282,35,,,,,,,,,,,s_069,3,2021_Mar_03_1235,Reversal,3.2.4,59.91604564277638,
11,exp3.png,exp4.png,2,0,2,0,0,11,11,11,,,,,,,,,,,,,,,,,,,,,,,,,False,50,51,False,exp3.png,exp4.png,trial_right_image,-1,exp4.png,3,exp4.png,exp3.png,1,1,non-reversed,correct,0.670703661352476,1,valid_win,317.98901930000284,36,,,,,,,,,,,s_069,3,2021_Mar_03_1235,Reversal,3.2.4,59.91604564277638,
12,exp1.png,exp2.png,2,0,2,0,0,12,12,12,,,,,,,,,,,,,,,,,,,,,,,,,False,51,52,False,exp1.png,exp2.png,trial_right_image,-1,exp2.png,3,exp2.png,exp1.png,1,3,reversed,correct,0.7337482003898503,1,valid_win,323.37097440002253,37,,,,,,,,,,,s_069,3,2021_Mar_03_1235,Reversal,3.2.4,59.91604564277638,
13,exp3.png,exp4.png,2,0,2,0,0,13,13,13,,,,,,,,,,,,,,,,,,,,,,,,,False,52,53,False,exp3.png,exp4.png,trial_right_image,-1,exp4.png,3,exp4.png,exp3.png,1,1,non-reversed,correct,0.3277314272351841,1,valid_win,328.4519051000243,38,,,,,,,,,,,s_069,3,2021_Mar_03_1235,Reversal,3.2.4,59.91604564277638,
14,exp1.png,exp2.png,2,0,2,0,0,14,14,14,,,,,,,,,,,,,,,,,,,,,,,,,False,53,54,True,exp2.png,exp1.png,trial_left_image,1,exp2.png,3,exp2.png,exp1.png,1,3,reversed,correct,0.2948680686460835,1,valid_win,333.1488981000148,39,,,,,,,,,,,s_069,3,2021_Mar_03_1235,Reversal,3.2.4,59.91604564277638,
15,exp3.png,exp4.png,2,0,2,0,0,15,15,15,,,,,,,,,,,,,,,,,,,,,,,,,False,54,55,False,exp3.png,exp4.png,trial_right_image,-1,exp4.png,3,exp4.png,exp3.png,1,1,non-reversed,correct,0.38071467759743827,1,valid_win,338.38131310002063,40,,,,,,,,,,,s_069,3,2021_Mar_03_1235,Reversal,3.2.4,59.91604564277638,
16,exp1.png,exp2.png,2,0,2,0,0,16,16,16,,,,,,,,,,,,,,,,,,,,,,,,,False,55,56,True,exp2.png,exp1.png,trial_left_image,1,exp2.png,3,exp2.png,exp1.png,1,3,reversed,correct,0.3871856548345497,1,valid_win,343.29704980002134,41,,,,,,,,,,,s_069,3,2021_Mar_03_1235,Reversal,3.2.4,59.91604564277638,
17,exp3.png,exp4.png,2,0,2,0,0,17,17,17,,,,,,,,,,,,,,,,,,,,,,,,,False,56,57,False,exp3.png,exp4.png,trial_right_image,-1,exp4.png,3,exp4.png,exp3.png,1,1,non-reversed,correct,0.5927360453973367,1,valid_win,348.1282105999999,42,,,,,,,,,,,s_069,3,2021_Mar_03_1235,Reversal,3.2.4,59.91604564277638,
18,exp1.png,exp2.png,2,0,2,0,0,18,18,18,,,,,,,,,,,,,,,,,,,,,,,,,False,57,58,True,exp2.png,exp1.png,trial_left_image,1,exp2.png,3,exp2.png,exp1.png,1,3,reversed,correct,0.1474054922986613,0,invalid_lose,353.7433401000162,42,,,,,,,,,,,s_069,3,2021_Mar_03_1235,Reversal,3.2.4,59.91604564277638,
19,exp3.png,exp4.png,2,0,2,0,0,19,19,19,,,,,,,,,,,,,,,,,,,,,,,,,False,58,59,True,exp4.png,exp3.png,trial_right_image,-1,exp3.png,3,exp4.png,exp3.png,0,2,non-reversed,incorrect,0.9413776196383274,0,valid_lose,358.85799170000246,42,,,,,,,,,,,s_069,3,2021_Mar_03_1235,Reversal,3.2.4,59.91604564277638,
20,exp1.png,exp2.png,2,0,2,0,0,20,20,20,,,,,,,,,,,,,,,,,,,,,,,,,False,59,60,True,exp2.png,exp1.png,trial_left_image,1,exp2.png,3,exp2.png,exp1.png,1,3,reversed,correct,0.5237237100327801,1,valid_win,363.5903812000179,43,,,,,,,,,,,s_069,3,2021_Mar_03_1235,Reversal,3.2.4,59.91604564277638,
,,,2,0,2,0,,,,,0,0,0,0,,,,,,,,,,,,,,,,,,,,,,,,,,,,,,,,,,,,,,,,,,12,87,33,84,,,,,,,s_069,3,2021_Mar_03_1235,Reversal,3.2.4,59.91604564277638,
0,exp1.png,exp2.png,,,,,,,,,,,,,,,,,0,0,0,0,0,0,0,0,,,,,,,,,True,,,,,,,,,,,,,,,,,,,,,,,,,,,,,,,s_069,3,2021_Mar_03_1235,Reversal,3.2.4,59.91604564277638,
1,exp3.png,exp4.png,,,,,,,,,,,,,,,,,0,0,0,0,0,1,1,1,,,,,,,,,False,0,61,False,exp3.png,exp4.png,trial_right_image,-1,exp4.png,3,exp4.png,exp3.png,1,1,non-reversed,correct,0.48466325404162547,1,valid_win,382.8166362000047,44,,,,,380.20893790002447,,,,,,s_069,3,2021_Mar_03_1235,Reversal,3.2.4,59.91604564277638,
2,exp1.png,exp2.png,,,,,,,,,,,,,,,,,0,0,0,0,0,2,2,2,,,,,,,,,False,1,62,False,exp1.png,exp2.png,trial_right_image,-1,exp2.png,3,exp1.png,exp2.png,1,3,reversed,incorrect,0.9391819868696955,0,valid_lose,387.31510080001317,44,,,,,,,,,,,s_069,3,2021_Mar_03_1235,Reversal,3.2.4,59.91604564277638,
3,exp3.png,exp4.png,,,,,,,,,,,,,,,,,0,0,0,0,0,3,3,3,,,,,,,,,False,2,63,False,exp3.png,exp4.png,trial_right_image,-1,exp4.png,3,exp4.png,exp3.png,1,1,non-reversed,correct,0.3507147487305817,1,valid_win,392.46333940001205,45,,,,,,,,,,,s_069,3,2021_Mar_03_1235,Reversal,3.2.4,59.91604564277638,
4,exp1.png,exp2.png,,,,,,,,,,,,,,,,,0,0,0,0,0,4,4,4,,,,,,,,,False,3,64,False,exp1.png,exp2.png,trial_right_image,-1,exp2.png,3,exp1.png,exp2.png,1,3,reversed,incorrect,0.636905894551902,0,valid_lose,397.11127760002273,45,,,,,,,,,,,s_069,3,2021_Mar_03_1235,Reversal,3.2.4,59.91604564277638,
5,exp3.png,exp4.png,,,,,,,,,,,,,,,,,0,0,0,0,0,5,5,5,,,,,,,,,False,4,65,True,exp4.png,exp3.png,trial_right_image,-1,exp3.png,3,exp4.png,exp3.png,0,2,non-reversed,incorrect,0.319986300150914,0,valid_lose,402.89337000000523,45,,,,,,,,,,,s_069,3,2021_Mar_03_1235,Reversal,3.2.4,59.91604564277638,
6,exp1.png,exp2.png,,,,,,,,,,,,,,,,,0,0,0,0,0,6,6,6,,,,,,,,,False,5,66,True,exp2.png,exp1.png,trial_left_image,1,exp2.png,3,exp1.png,exp2.png,1,3,reversed,incorrect,0.23169680795242942,1,invalid_win,407.3584677000181,46,,,,,,,,,,,s_069,3,2021_Mar_03_1235,Reversal,3.2.4,59.91604564277638,
7,exp3.png,exp4.png,,,,,,,,,,,,,,,,,0,0,0,0,0,7,7,7,,,,,,,,,False,6,67,True,exp4.png,exp3.png,trial_left_image,1,exp4.png,3,exp4.png,exp3.png,1,1,non-reversed,correct,0.6991900858069541,1,valid_win,412.65655600000173,47,,,,,,,,,,,s_069,3,2021_Mar_03_1235,Reversal,3.2.4,59.91604564277638,
8,exp1.png,exp2.png,,,,,,,,,,,,,,,,,0,0,0,0,0,8,8,8,,,,,,,,,False,7,68,True,exp2.png,exp1.png,trial_right_image,-1,exp1.png,3,exp1.png,exp2.png,0,4,reversed,correct,0.013516978010687075,0,invalid_lose,417.8714190000028,47,,,,,,,,,,,s_069,3,2021_Mar_03_1235,Reversal,3.2.4,59.91604564277638,
9,exp3.png,exp4.png,,,,,,,,,,,,,,,,,0,0,0,0,0,9,9,9,,,,,,,,,False,8,69,True,exp4.png,exp3.png,trial_left_image,1,exp4.png,3,exp4.png,exp3.png,1,1,non-reversed,correct,0.2672166224344945,1,valid_win,423.1532188000274,48,,,,,,,,,,,s_069,3,2021_Mar_03_1235,Reversal,3.2.4,59.91604564277638,
10,exp1.png,exp2.png,,,,,,,,,,,,,,,,,0,0,0,0,0,10,10,10,,,,,,,,,False,9,70,True,exp2.png,exp1.png,trial_right_image,-1,exp1.png,3,exp1.png,exp2.png,0,4,reversed,correct,0.462558325741215,1,valid_win,428.76772180001717,49,,,,,,,,,,,s_069,3,2021_Mar_03_1235,Reversal,3.2.4,59.91604564277638,
11,exp3.png,exp4.png,,,,,,,,,,,,,,,,,0,0,0,0,0,11,11,11,,,,,,,,,False,10,71,True,exp4.png,exp3.png,trial_left_image,1,exp4.png,3,exp4.png,exp3.png,1,1,non-reversed,correct,0.7450664797249942,1,valid_win,433.88287320002564,50,,,,,,,,,,,s_069,3,2021_Mar_03_1235,Reversal,3.2.4,59.91604564277638,
12,exp1.png,exp2.png,,,,,,,,,,,,,,,,,0,0,0,0,0,12,12,12,,,,,,,,,False,11,72,False,exp1.png,exp2.png,trial_right_image,-1,exp2.png,3,exp1.png,exp2.png,1,3,reversed,incorrect,0.46217110594438704,0,valid_lose,438.79771700000856,50,,,,,,,,,,,s_069,3,2021_Mar_03_1235,Reversal,3.2.4,59.91604564277638,
13,exp3.png,exp4.png,,,,,,,,,,,,,,,,,0,0,0,0,0,13,13,13,,,,,,,,,False,12,73,False,exp3.png,exp4.png,trial_right_image,-1,exp4.png,3,exp4.png,exp3.png,1,1,non-reversed,correct,0.1117678757366074,0,invalid_lose,444.5458828000119,50,,,,,,,,,,,s_069,3,2021_Mar_03_1235,Reversal,3.2.4,59.91604564277638,
14,exp1.png,exp2.png,,,,,,,,,,,,,,,,,0,0,0,0,0,14,14,14,,,,,,,,,False,13,74,False,exp1.png,exp2.png,trial_left_image,1,exp1.png,3,exp1.png,exp2.png,0,4,reversed,correct,0.4516592905321214,1,valid_win,449.59434190002503,51,,,,,,,,,,,s_069,3,2021_Mar_03_1235,Reversal,3.2.4,59.91604564277638,
15,exp3.png,exp4.png,,,,,,,,,,,,,,,,,0,0,0,0,0,15,15,15,,,,,,,,,False,14,75,True,exp4.png,exp3.png,trial_left_image,1,exp4.png,3,exp4.png,exp3.png,1,1,non-reversed,correct,0.6514595111330964,1,valid_win,454.9904368999996,52,,,,,,,,,,,s_069,3,2021_Mar_03_1235,Reversal,3.2.4,59.91604564277638,
16,exp1.png,exp2.png,,,,,,,,,,,,,,,,,0,0,0,0,0,16,16,16,,,,,,,,,False,15,76,False,exp1.png,exp2.png,trial_right_image,-1,exp2.png,3,exp1.png,exp2.png,1,3,reversed,incorrect,0.7107815079230456,0,valid_lose,460.94008560001384,52,,,,,,,,,,,s_069,3,2021_Mar_03_1235,Reversal,3.2.4,59.91604564277638,
17,exp3.png,exp4.png,,,,,,,,,,,,,,,,,0,0,0,0,0,17,17,17,,,,,,,,,False,16,77,True,exp4.png,exp3.png,trial_left_image,1,exp4.png,3,exp4.png,exp3.png,1,1,non-reversed,correct,0.46938085914745387,1,valid_win,466.7052968000062,53,,,,,,,,,,,s_069,3,2021_Mar_03_1235,Reversal,3.2.4,59.91604564277638,
18,exp1.png,exp2.png,,,,,,,,,,,,,,,,,0,0,0,0,0,18,18,18,,,,,,,,,False,17,78,False,exp1.png,exp2.png,trial_right_image,-1,exp2.png,3,exp1.png,exp2.png,1,3,reversed,incorrect,0.42335332519525504,0,valid_lose,472.1697672000155,53,,,,,,,,,,,s_069,3,2021_Mar_03_1235,Reversal,3.2.4,59.91604564277638,
19,exp3.png,exp4.png,,,,,,,,,,,,,,,,,0,0,0,0,0,19,19,19,,,,,,,,,False,18,79,True,exp4.png,exp3.png,trial_left_image,1,exp4.png,3,exp4.png,exp3.png,1,1,non-reversed,correct,0.3321187689691837,1,valid_win,476.70161550000194,54,,,,,,,,,,,s_069,3,2021_Mar_03_1235,Reversal,3.2.4,59.91604564277638,
20,exp1.png,exp2.png,,,,,,,,,,,,,,,,,0,0,0,0,0,20,20,20,,,,,,,,,False,19,80,False,exp1.png,exp2.png,trial_right_image,-1,exp2.png,3,exp1.png,exp2.png,1,3,reversed,incorrect,0.6019408814483099,0,valid_lose,482.0162204000226,54,,,,,,,,,,,s_069,3,2021_Mar_03_1235,Reversal,3.2.4,59.91604564277638,
,,,,,,,,,,,,,,,,,,,0,0,0,0,,,,,0,0,0,0,,,,,,,,,,,,,,,,,,,,,,,,,,76,50.0,25,76,,,,,,,s_069,3,2021_Mar_03_1235,Reversal,3.2.4,59.91604564277638,
0,exp1.png,exp2.png,,,,,,,,,,,,,,,,,1,0,1,0,0,0,0,0,,,,,,,,,True,,,,,,,,,,,,,,,,,,,,,,,,,,,,,,,s_069,3,2021_Mar_03_1235,Reversal,3.2.4,59.91604564277638,
1,exp3.png,exp4.png,,,,,,,,,,,,,,,,,1,0,1,0,0,1,1,1,,,,,,,,,False,20,81,False,exp3.png,exp4.png,trial_right_image,-1,exp4.png,3,exp4.png,exp3.png,1,1,non-reversed,correct,0.2839207501552561,1,valid_win,495.9286443000019,55,,,,,,,,,,,s_069,3,2021_Mar_03_1235,Reversal,3.2.4,59.91604564277638,
2,exp1.png,exp2.png,,,,,,,,,,,,,,,,,1,0,1,0,0,2,2,2,,,,,,,,,False,21,82,False,exp1.png,exp2.png,trial_right_image,-1,exp2.png,3,exp1.png,exp2.png,1,3,reversed,incorrect,0.697002100448383,0,valid_lose,500.50988789999974,55,,,,,,,,,,,s_069,3,2021_Mar_03_1235,Reversal,3.2.4,59.91604564277638,
3,exp3.png,exp4.png,,,,,,,,,,,,,,,,,1,0,1,0,0,3,3,3,,,,,,,,,False,22,83,False,exp3.png,exp4.png,trial_right_image,-1,exp4.png,3,exp4.png,exp3.png,1,1,non-reversed,correct,0.5170992451081324,1,valid_win,505.6917730999994,56,,,,,,,,,,,s_069,3,2021_Mar_03_1235,Reversal,3.2.4,59.91604564277638,
4,exp1.png,exp2.png,,,,,,,,,,,,,,,,,1,0,1,0,0,4,4,4,,,,,,,,,False,23,84,True,exp2.png,exp1.png,trial_left_image,1,exp2.png,3,exp1.png,exp2.png,1,3,reversed,incorrect,0.8456694505997078,0,valid_lose,510.323807400011,56,,,,,,,,,,,s_069,3,2021_Mar_03_1235,Reversal,3.2.4,59.91604564277638,
5,exp3.png,exp4.png,,,,,,,,,,,,,,,,,1,0,1,0,0,5,5,5,,,,,,,,,False,24,85,True,exp4.png,exp3.png,trial_left_image,1,exp4.png,3,exp4.png,exp3.png,1,1,non-reversed,correct,0.21837034743350447,0,invalid_lose,515.5036202000047,56,,,,,,,,,,,s_069,3,2021_Mar_03_1235,Reversal,3.2.4,59.91604564277638,
6,exp1.png,exp2.png,,,,,,,,,,,,,,,,,1,0,1,0,0,6,6,6,,,,,,,,,False,25,86,False,exp1.png,exp2.png,trial_right_image,-1,exp2.png,3,exp1.png,exp2.png,1,3,reversed,incorrect,0.25220845738962394,0,valid_lose,519.7198732000252,56,,,,,,,,,,,s_069,3,2021_Mar_03_1235,Reversal,3.2.4,59.91604564277638,
7,exp3.png,exp4.png,,,,,,,,,,,,,,,,,1,0,1,0,0,7,7,7,,,,,,,,,False,26,87,False,exp3.png,exp4.png,trial_right_image,-1,exp4.png,3,exp4.png,exp3.png,1,1,non-reversed,correct,0.43750320482074034,1,valid_win,524.2687361999997,57,,,,,,,,,,,s_069,3,2021_Mar_03_1235,Reversal,3.2.4,59.91604564277638,
8,exp1.png,exp2.png,,,,,,,,,,,,,,,,,1,0,1,0,0,8,8,8,,,,,,,,,False,27,88,False,exp1.png,exp2.png,trial_left_image,1,exp1.png,3,exp1.png,exp2.png,0,4,reversed,correct,0.6636336626689612,1,valid_win,530.1669427000161,58,,,,,,,,,,,s_069,3,2021_Mar_03_1235,Reversal,3.2.4,59.91604564277638,
9,exp3.png,exp4.png,,,,,,,,,,,,,,,,,1,0,1,0,0,9,9,9,,,,,,,,,False,28,89,False,exp3.png,exp4.png,trial_right_image,-1,exp4.png,3,exp4.png,exp3.png,1,1,non-reversed,correct,0.10855688978789568,0,invalid_lose,535.5648371000134,58,,,,,,,,,,,s_069,3,2021_Mar_03_1235,Reversal,3.2.4,59.91604564277638,
10,exp1.png,exp2.png,,,,,,,,,,,,,,,,,1,0,1,0,0,10,10,10,,,,,,,,,False,29,90,True,exp2.png,exp1.png,trial_right_image,-1,exp1.png,3,exp1.png,exp2.png,0,4,reversed,correct,0.7569785696765563,1,valid_win,541.1785010000167,59,,,,,,,,,,,s_069,3,2021_Mar_03_1235,Reversal,3.2.4,59.91604564277638,
11,exp3.png,exp4.png,,,,,,,,,,,,,,,,,1,0,1,0,0,11,11,11,,,,,,,,,False,30,91,False,exp3.png,exp4.png,trial_left_image,1,exp3.png,3,exp4.png,exp3.png,0,2,non-reversed,incorrect,0.964998277087937,0,valid_lose,546.9445766000135,59,,,,,,,,,,,s_069,3,2021_Mar_03_1235,Reversal,3.2.4,59.91604564277638,
12,exp1.png,exp2.png,,,,,,,,,,,,,,,,,1,0,1,0,0,12,12,12,,,,,,,,,False,31,92,False,exp1.png,exp2.png,trial_right_image,-1,exp2.png,3,exp1.png,exp2.png,1,3,reversed,incorrect,0.9213131080456053,0,valid_lose,550.9415477000002,59,,,,,,,,,,,s_069,3,2021_Mar_03_1235,Reversal,3.2.4,59.91604564277638,
13,exp3.png,exp4.png,,,,,,,,,,,,,,,,,1,0,1,0,0,13,13,13,,,,,,,,,False,32,93,True,exp4.png,exp3.png,trial_right_image,-1,exp3.png,3,exp4.png,exp3.png,0,2,non-reversed,incorrect,0.2215967307869714,1,invalid_win,554.8901825000066,60,,,,,,,,,,,s_069,3,2021_Mar_03_1235,Reversal,3.2.4,59.91604564277638,
14,exp1.png,exp2.png,,,,,,,,,,,,,,,,,1,0,1,0,0,14,14,14,,,,,,,,,False,33,94,True,exp2.png,exp1.png,trial_right_image,-1,exp1.png,3,exp1.png,exp2.png,0,4,reversed,correct,0.8413694825692575,1,valid_win,559.772120300011,61,,,,,,,,,,,s_069,3,2021_Mar_03_1235,Reversal,3.2.4,59.91604564277638,
15,exp3.png,exp4.png,,,,,,,,,,,,,,,,,1,0,1,0,0,15,15,15,,,,,,,,,False,34,95,True,exp4.png,exp3.png,trial_left_image,1,exp4.png,3,exp4.png,exp3.png,1,1,non-reversed,correct,0.6897834693240286,1,valid_win,565.4042674000084,62,,,,,,,,,,,s_069,3,2021_Mar_03_1235,Reversal,3.2.4,59.91604564277638,
16,exp1.png,exp2.png,,,,,,,,,,,,,,,,,1,0,1,0,0,16,16,16,,,,,,,,,False,35,96,True,exp2.png,exp1.png,trial_right_image,-1,exp1.png,3,exp1.png,exp2.png,0,4,reversed,correct,0.4681686312764938,1,valid_win,570.136644800019,63,,,,,,,,,,,s_069,3,2021_Mar_03_1235,Reversal,3.2.4,59.91604564277638,
17,exp3.png,exp4.png,,,,,,,,,,,,,,,,,1,0,1,0,0,17,17,17,,,,,,,,,False,36,97,False,exp3.png,exp4.png,trial_right_image,-1,exp4.png,3,exp4.png,exp3.png,1,1,non-reversed,correct,0.22917786089866732,0,invalid_lose,575.5333870000031,63,,,,,,,,,,,s_069,3,2021_Mar_03_1235,Reversal,3.2.4,59.91604564277638,
18,exp1.png,exp2.png,,,,,,,,,,,,,,,,,1,0,1,0,0,18,18,18,,,,,,,,,False,37,98,True,exp2.png,exp1.png,trial_right_image,-1,exp1.png,3,exp1.png,exp2.png,0,4,reversed,correct,0.9683091917759418,1,valid_win,579.4662888000021,64,,,,,,,,,,,s_069,3,2021_Mar_03_1235,Reversal,3.2.4,59.91604564277638,
19,exp3.png,exp4.png,,,,,,,,,,,,,,,,,1,0,1,0,0,19,19,19,,,,,,,,,False,38,99,True,exp4.png,exp3.png,trial_left_image,1,exp4.png,3,exp4.png,exp3.png,1,1,non-reversed,correct,0.7857135166520091,1,valid_win,584.3134831000061,65,,,,,,,,,,,s_069,3,2021_Mar_03_1235,Reversal,3.2.4,59.91604564277638,
20,exp1.png,exp2.png,,,,,,,,,,,,,,,,,1,0,1,0,0,20,20,20,,,,,,,,,False,39,100,True,exp2.png,exp1.png,trial_right_image,-1,exp1.png,3,exp1.png,exp2.png,0,4,reversed,correct,0.8107230156485588,1,valid_win,588.245247200015,66,,,,,,,,,,,s_069,3,2021_Mar_03_1235,Reversal,3.2.4,59.91604564277638,
,,,,,,,,,,,,,,,,,,,1,0,1,0,,,,,0,0,0,0,,,,,,,,,,,,,,,,,,,,,,,,,,62,38,68,30,,,,,,,s_069,3,2021_Mar_03_1235,Reversal,3.2.4,59.91604564277638,
0,exp1.png,exp2.png,,,,,,,,,,,,,,,,,2,0,2,0,0,0,0,0,,,,,,,,,True,,,,,,,,,,,,,,,,,,,,,,,,,,,,,,,s_069,3,2021_Mar_03_1235,Reversal,3.2.4,59.91604564277638,
1,exp3.png,exp4.png,,,,,,,,,,,,,,,,,2,0,2,0,0,1,1,1,,,,,,,,,False,40,101,False,exp3.png,exp4.png,trial_right_image,-1,exp4.png,3,exp4.png,exp3.png,1,1,non-reversed,correct,0.45918423802410635,1,valid_win,604.2086442,67,,,,,,,,,,,s_069,3,2021_Mar_03_1235,Reversal,3.2.4,59.91604564277638,
2,exp1.png,exp2.png,,,,,,,,,,,,,,,,,2,0,2,0,0,2,2,2,,,,,,,,,False,41,102,True,exp2.png,exp1.png,trial_left_image,1,exp2.png,3,exp1.png,exp2.png,1,3,reversed,incorrect,0.5004303173767776,0,valid_lose,608.2551504000148,67,,,,,,,,,,,s_069,3,2021_Mar_03_1235,Reversal,3.2.4,59.91604564277638,
3,exp3.png,exp4.png,,,,,,,,,,,,,,,,,2,0,2,0,0,3,3,3,,,,,,,,,False,42,103,True,exp4.png,exp3.png,trial_right_image,-1,exp3.png,3,exp4.png,exp3.png,0,2,non-reversed,incorrect,0.4103477408215864,0,valid_lose,612.7555326000147,67,,,,,,,,,,,s_069,3,2021_Mar_03_1235,Reversal,3.2.4,59.91604564277638,
4,exp1.png,exp2.png,,,,,,,,,,,,,,,,,2,0,2,0,0,4,4,4,,,,,,,,,False,43,104,False,exp1.png,exp2.png,trial_right_image,-1,exp2.png,3,exp1.png,exp2.png,1,3,reversed,incorrect,0.5807104489773747,0,valid_lose,616.7038851000252,67,,,,,,,,,,,s_069,3,2021_Mar_03_1235,Reversal,3.2.4,59.91604564277638,
5,exp3.png,exp4.png,,,,,,,,,,,,,,,,,2,0,2,0,0,5,5,5,,,,,,,,,False,44,105,False,exp3.png,exp4.png,trial_right_image,-1,exp4.png,3,exp4.png,exp3.png,1,1,non-reversed,correct,0.579981179203844,1,valid_win,621.3844491000054,68,,,,,,,,,,,s_069,3,2021_Mar_03_1235,Reversal,3.2.4,59.91604564277638,
6,exp1.png,exp2.png,,,,,,,,,,,,,,,,,2,0,2,0,0,6,6,6,,,,,,,,,False,45,106,True,exp2.png,exp1.png,trial_right_image,-1,exp1.png,3,exp1.png,exp2.png,0,4,reversed,correct,0.6545424981395226,1,valid_win,626.1011806000024,69,,,,,,,,,,,s_069,3,2021_Mar_03_1235,Reversal,3.2.4,59.91604564277638,
7,exp3.png,exp4.png,,,,,,,,,,,,,,,,,2,0,2,0,0,7,7,7,,,,,,,,,False,46,107,False,exp3.png,exp4.png,trial_left_image,1,exp3.png,3,exp4.png,exp3.png,0,2,non-reversed,incorrect,0.6947253378289677,0,valid_lose,632.7153160000162,69,,,,,,,,,,,s_069,3,2021_Mar_03_1235,Reversal,3.2.4,59.91604564277638,
8,exp1.png,exp2.png,,,,,,,,,,,,,,,,,2,0,2,0,0,8,8,8,,,,,,,,,False,47,108,False,exp1.png,exp2.png,trial_left_image,1,exp1.png,3,exp1.png,exp2.png,0,4,reversed,correct,0.00833408875257502,0,invalid_lose,638.0964786000259,69,,,,,,,,,,,s_069,3,2021_Mar_03_1235,Reversal,3.2.4,59.91604564277638,
9,exp3.png,exp4.png,,,,,,,,,,,,,,,,,2,0,2,0,0,9,9,9,,,,,,,,,False,48,109,False,exp3.png,exp4.png,trial_right_image,-1,exp4.png,3,exp4.png,exp3.png,1,1,non-reversed,correct,0.7147236550386348,1,valid_win,642.0784978000156,70,,,,,,,,,,,s_069,3,2021_Mar_03_1235,Reversal,3.2.4,59.91604564277638,
10,exp1.png,exp2.png,,,,,,,,,,,,,,,,,2,0,2,0,0,10,10,10,,,,,,,,,False,49,110,True,exp2.png,exp1.png,trial_right_image,-1,exp1.png,3,exp1.png,exp2.png,0,4,reversed,correct,0.18887788620743795,0,invalid_lose,646.1443146000092,70,,,,,,,,,,,s_069,3,2021_Mar_03_1235,Reversal,3.2.4,59.91604564277638,
11,exp3.png,exp4.png,,,,,,,,,,,,,,,,,2,0,2,0,0,11,11,11,,,,,,,,,False,50,111,False,exp3.png,exp4.png,trial_right_image,-1,exp4.png,3,exp4.png,exp3.png,1,1,non-reversed,correct,0.684084160471162,1,valid_win,650.3923051000165,71,,,,,,,,,,,s_069,3,2021_Mar_03_1235,Reversal,3.2.4,59.91604564277638,
12,exp1.png,exp2.png,,,,,,,,,,,,,,,,,2,0,2,0,0,12,12,12,,,,,,,,,False,51,112,True,exp2.png,exp1.png,trial_left_image,1,exp2.png,3,exp1.png,exp2.png,1,3,reversed,incorrect,0.8087506344274963,0,valid_lose,655.6068231000099,71,,,,,,,,,,,s_069,3,2021_Mar_03_1235,Reversal,3.2.4,59.91604564277638,
13,exp3.png,exp4.png,,,,,,,,,,,,,,,,,2,0,2,0,0,13,13,13,,,,,,,,,False,52,113,True,exp4.png,exp3.png,trial_right_image,-1,exp3.png,3,exp4.png,exp3.png,0,2,non-reversed,incorrect,0.8740491923304327,0,valid_lose,659.5394815000182,71,,,,,,,,,,,s_069,3,2021_Mar_03_1235,Reversal,3.2.4,59.91604564277638,
14,exp1.png,exp2.png,,,,,,,,,,,,,,,,,2,0,2,0,0,14,14,14,,,,,,,,,False,53,114,False,exp1.png,exp2.png,trial_right_image,-1,exp2.png,3,exp1.png,exp2.png,1,3,reversed,incorrect,0.029042395426186918,1,invalid_win,663.4544973000011,72,,,,,,,,,,,s_069,3,2021_Mar_03_1235,Reversal,3.2.4,59.91604564277638,
15,exp3.png,exp4.png,,,,,,,,,,,,,,,,,2,0,2,0,0,15,15,15,,,,,,,,,False,54,115,False,exp3.png,exp4.png,trial_left_image,1,exp3.png,3,exp4.png,exp3.png,0,2,non-reversed,incorrect,0.12688071955644464,1,invalid_win,668.4519229000143,73,,,,,,,,,,,s_069,3,2021_Mar_03_1235,Reversal,3.2.4,59.91604564277638,
16,exp1.png,exp2.png,,,,,,,,,,,,,,,,,2,0,2,0,0,16,16,16,,,,,,,,,False,55,116,False,exp1.png,exp2.png,trial_right_image,-1,exp2.png,3,exp1.png,exp2.png,1,3,reversed,incorrect,0.6922868878685745,0,valid_lose,673.6681459000101,73,,,,,,,,,,,s_069,3,2021_Mar_03_1235,Reversal,3.2.4,59.91604564277638,
17,exp3.png,exp4.png,,,,,,,,,,,,,,,,,2,0,2,0,0,17,17,17,,,,,,,,,False,56,117,True,exp4.png,exp3.png,trial_right_image,-1,exp3.png,3,exp4.png,exp3.png,0,2,non-reversed,incorrect,0.10317443359165746,1,invalid_win,678.1495233000023,74,,,,,,,,,,,s_069,3,2021_Mar_03_1235,Reversal,3.2.4,59.91604564277638,
18,exp1.png,exp2.png,,,,,,,,,,,,,,,,,2,0,2,0,0,18,18,18,,,,,,,,,False,57,118,True,exp2.png,exp1.png,trial_right_image,-1,exp1.png,3,exp1.png,exp2.png,0,4,reversed,correct,0.3842199838419039,1,valid_win,682.8983540000045,75,,,,,,,,,,,s_069,3,2021_Mar_03_1235,Reversal,3.2.4,59.91604564277638,
19,exp3.png,exp4.png,,,,,,,,,,,,,,,,,2,0,2,0,0,19,19,19,,,,,,,,,False,58,119,True,exp4.png,exp3.png,trial_right_image,-1,exp3.png,3,exp4.png,exp3.png,0,2,non-reversed,incorrect,0.657742195291456,0,valid_lose,688.0295450000267,75,,,,,,,,,,,s_069,3,2021_Mar_03_1235,Reversal,3.2.4,59.91604564277638,
20,exp1.png,exp2.png,,,,,,,,,,,,,,,,,2,0,2,0,0,20,20,20,,,,,,,,,False,59,120,True,exp2.png,exp1.png,trial_right_image,-1,exp1.png,3,exp1.png,exp2.png,0,4,reversed,correct,0.8767496696175473,1,valid_win,692.5273400000005,76,,,,,,,,,,,s_069,3,2021_Mar_03_1235,Reversal,3.2.4,59.91604564277638,
,,,,,,,,,,,,,,,,,,,2,0,2,0,,,,,0,0,0,0,,,,,,,,,,,,,,,,,,,,,,,,,,87,24,77,34,,,,,,,s_069,3,2021_Mar_03_1235,Reversal,3.2.4,59.91604564277638,
,,,,,,,,,,,,,,,,,,,,,,,,,,,,,,,,,,,,,,,,,,,,,,,,,,,,,,,76,,,,,,80,45,35,326.52918759998283,0,,,,,,,
