trial_index,trial_image1_file,trial_image2_file,learning_outer_loop.thisRepN,learning_outer_loop.thisTrialN,learning_outer_loop.thisN,learning_outer_loop.thisIndex,learning_inner_loop.thisRepN,learning_inner_loop.thisTrialN,learning_inner_loop.thisN,learning_inner_loop.thisIndex,learning_estimation_outer_loop.thisRepN,learning_estimation_outer_loop.thisTrialN,learning_estimation_outer_loop.thisN,learning_estimation_outer_loop.thisIndex,learning_estimation_inner_loop.thisRepN,learning_estimation_inner_loop.thisTrialN,learning_estimation_inner_loop.thisN,learning_estimation_inner_loop.thisIndex,reversal_outer_loop.thisRepN,reversal_outer_loop.thisTrialN,reversal_outer_loop.thisN,reversal_outer_loop.thisIndex,reversal_inner_loop.thisRepN,reversal_inner_loop.thisTrialN,reversal_inner_loop.thisN,reversal_inner_loop.thisIndex,reversal_estimation_outer_loop.thisRepN,reversal_estimation_outer_loop.thisTrialN,reversal_estimation_outer_loop.thisN,reversal_estimation_outer_loop.thisIndex,reversal_estimation_inner_loop.thisRepN,reversal_estimation_inner_loop.thisTrialN,reversal_estimation_inner_loop.thisN,reversal_estimation_inner_loop.thisIndex,skipped,total_trial_counter,trial_num,left_right_flip,left_image_file,right_image_file,clicked_stimulus_side,side,clicked_stimulus,version,high_prob_image_file,low_prob_image_file,choice_a,choice_b,pair_type,correct,trial_feedback_random,reward,trial_type,overall_time_after_trial,score,estimation_exp1.png,estimation_exp2.png,estimation_exp3.png,estimation_exp4.png,total_learning_time,total_correct,learning_correct,reversal_correct,total_reversal_time,extra_block,participant,ver,date,expName,psychopyVersion,frameRate,
0,exp1.png,exp2.png,0,0,0,0,0,0,0,0,,,,,,,,,,,,,,,,,,,,,,,,,True,,,,,,,,,,,,,,,,,,,,,,,,,,,,,,,s_075,2,2021_Mar_24_1348,Reversal,3.2.4,60.02523461909835,
1,exp3.png,exp4.png,0,0,0,0,0,1,1,1,,,,,,,,,,,,,,,,,,,,,,,,,False,0,1,False,exp3.png,exp4.png,trial_left_image,1,exp3.png,2,exp3.png,exp4.png,1,3,reversed,correct,0.22275462376903776,0,invalid_lose,7.2289949000114575,0,,,,,,,,,,,s_075,2,2021_Mar_24_1348,Reversal,3.2.4,60.02523461909835,
2,exp1.png,exp2.png,0,0,0,0,0,2,2,2,,,,,,,,,,,,,,,,,,,,,,,,,False,1,2,False,exp1.png,exp2.png,trial_right_image,-1,exp2.png,2,exp1.png,exp2.png,0,2,non-reversed,incorrect,0.8303733579631665,0,valid_lose,11.925838300026953,0,,,,,,,,,,,s_075,2,2021_Mar_24_1348,Reversal,3.2.4,60.02523461909835,
3,exp3.png,exp4.png,0,0,0,0,0,3,3,3,,,,,,,,,,,,,,,,,,,,,,,,,False,2,3,True,exp4.png,exp3.png,trial_right_image,-1,exp3.png,2,exp3.png,exp4.png,1,3,reversed,correct,0.3851112488422177,1,valid_win,16.524216099991463,1,,,,,,,,,,,s_075,2,2021_Mar_24_1348,Reversal,3.2.4,60.02523461909835,
4,exp1.png,exp2.png,0,0,0,0,0,4,4,4,,,,,,,,,,,,,,,,,,,,,,,,,False,3,4,True,exp2.png,exp1.png,trial_right_image,-1,exp1.png,2,exp1.png,exp2.png,1,1,non-reversed,correct,0.38883550297346736,1,valid_win,21.20742930006236,2,,,,,,,,,,,s_075,2,2021_Mar_24_1348,Reversal,3.2.4,60.02523461909835,
5,exp3.png,exp4.png,0,0,0,0,0,5,5,5,,,,,,,,,,,,,,,,,,,,,,,,,False,4,5,True,exp4.png,exp3.png,trial_right_image,-1,exp3.png,2,exp3.png,exp4.png,1,3,reversed,correct,0.9102675288745399,1,valid_win,25.88983730005566,3,,,,,,,,,,,s_075,2,2021_Mar_24_1348,Reversal,3.2.4,60.02523461909835,
6,exp1.png,exp2.png,0,0,0,0,0,6,6,6,,,,,,,,,,,,,,,,,,,,,,,,,False,5,6,False,exp1.png,exp2.png,trial_left_image,1,exp1.png,2,exp1.png,exp2.png,1,1,non-reversed,correct,0.4329903310210086,1,valid_win,30.318929200060666,4,,,,,,,,,,,s_075,2,2021_Mar_24_1348,Reversal,3.2.4,60.02523461909835,
7,exp3.png,exp4.png,0,0,0,0,0,7,7,7,,,,,,,,,,,,,,,,,,,,,,,,,False,6,7,True,exp4.png,exp3.png,trial_right_image,-1,exp3.png,2,exp3.png,exp4.png,1,3,reversed,correct,0.4355241976578442,1,valid_win,34.85269800003152,5,,,,,,,,,,,s_075,2,2021_Mar_24_1348,Reversal,3.2.4,60.02523461909835,
8,exp1.png,exp2.png,0,0,0,0,0,8,8,8,,,,,,,,,,,,,,,,,,,,,,,,,False,7,8,False,exp1.png,exp2.png,trial_left_image,1,exp1.png,2,exp1.png,exp2.png,1,1,non-reversed,correct,0.5823415684757162,1,valid_win,39.5680867000483,6,,,,,,,,,,,s_075,2,2021_Mar_24_1348,Reversal,3.2.4,60.02523461909835,
9,exp3.png,exp4.png,0,0,0,0,0,9,9,9,,,,,,,,,,,,,,,,,,,,,,,,,False,8,9,True,exp4.png,exp3.png,trial_right_image,-1,exp3.png,2,exp3.png,exp4.png,1,3,reversed,correct,0.983115707289271,1,valid_win,43.832488700049,7,,,,,,,,,,,s_075,2,2021_Mar_24_1348,Reversal,3.2.4,60.02523461909835,
10,exp1.png,exp2.png,0,0,0,0,0,10,10,10,,,,,,,,,,,,,,,,,,,,,,,,,False,9,10,False,exp1.png,exp2.png,trial_left_image,1,exp1.png,2,exp1.png,exp2.png,1,1,non-reversed,correct,0.494221977031988,1,valid_win,48.180417499970645,8,,,,,,,,,,,s_075,2,2021_Mar_24_1348,Reversal,3.2.4,60.02523461909835,
11,exp3.png,exp4.png,0,0,0,0,0,11,11,11,,,,,,,,,,,,,,,,,,,,,,,,,False,10,11,True,exp4.png,exp3.png,trial_right_image,-1,exp3.png,2,exp3.png,exp4.png,1,3,reversed,correct,0.8668499643381915,1,valid_win,52.261854300042614,9,,,,,,,,,,,s_075,2,2021_Mar_24_1348,Reversal,3.2.4,60.02523461909835,
12,exp1.png,exp2.png,0,0,0,0,0,12,12,12,,,,,,,,,,,,,,,,,,,,,,,,,False,11,12,False,exp1.png,exp2.png,trial_left_image,1,exp1.png,2,exp1.png,exp2.png,1,1,non-reversed,correct,0.1335529097155943,0,invalid_lose,56.810115700005554,9,,,,,,,,,,,s_075,2,2021_Mar_24_1348,Reversal,3.2.4,60.02523461909835,
13,exp3.png,exp4.png,0,0,0,0,0,13,13,13,,,,,,,,,,,,,,,,,,,,,,,,,False,12,13,True,exp4.png,exp3.png,trial_right_image,-1,exp3.png,2,exp3.png,exp4.png,1,3,reversed,correct,0.3623422792664487,1,valid_win,61.11011430004146,10,,,,,,,,,,,s_075,2,2021_Mar_24_1348,Reversal,3.2.4,60.02523461909835,
14,exp1.png,exp2.png,0,0,0,0,0,14,14,14,,,,,,,,,,,,,,,,,,,,,,,,,False,13,14,True,exp2.png,exp1.png,trial_right_image,-1,exp1.png,2,exp1.png,exp2.png,1,1,non-reversed,correct,0.04417090529691314,0,invalid_lose,65.6911879000254,10,,,,,,,,,,,s_075,2,2021_Mar_24_1348,Reversal,3.2.4,60.02523461909835,
15,exp3.png,exp4.png,0,0,0,0,0,15,15,15,,,,,,,,,,,,,,,,,,,,,,,,,False,14,15,True,exp4.png,exp3.png,trial_right_image,-1,exp3.png,2,exp3.png,exp4.png,1,3,reversed,correct,0.8142901263537664,1,valid_win,70.0729668000713,11,,,,,,,,,,,s_075,2,2021_Mar_24_1348,Reversal,3.2.4,60.02523461909835,
16,exp1.png,exp2.png,0,0,0,0,0,16,16,16,,,,,,,,,,,,,,,,,,,,,,,,,False,15,16,False,exp1.png,exp2.png,trial_right_image,-1,exp2.png,2,exp1.png,exp2.png,0,2,non-reversed,incorrect,0.8371907154877749,0,valid_lose,74.20618139998987,11,,,,,,,,,,,s_075,2,2021_Mar_24_1348,Reversal,3.2.4,60.02523461909835,
17,exp3.png,exp4.png,0,0,0,0,0,17,17,17,,,,,,,,,,,,,,,,,,,,,,,,,False,16,17,False,exp3.png,exp4.png,trial_right_image,-1,exp4.png,2,exp3.png,exp4.png,0,4,reversed,incorrect,0.2620408464214409,0,valid_lose,79.55192030000035,11,,,,,,,,,,,s_075,2,2021_Mar_24_1348,Reversal,3.2.4,60.02523461909835,
18,exp1.png,exp2.png,0,0,0,0,0,18,18,18,,,,,,,,,,,,,,,,,,,,,,,,,False,17,18,True,exp2.png,exp1.png,trial_right_image,-1,exp1.png,2,exp1.png,exp2.png,1,1,non-reversed,correct,0.8422543459125118,1,valid_win,84.01967429998331,12,,,,,,,,,,,s_075,2,2021_Mar_24_1348,Reversal,3.2.4,60.02523461909835,
19,exp3.png,exp4.png,0,0,0,0,0,19,19,19,,,,,,,,,,,,,,,,,,,,,,,,,False,18,19,False,exp3.png,exp4.png,trial_left_image,1,exp3.png,2,exp3.png,exp4.png,1,3,reversed,correct,0.6993346915387829,1,valid_win,88.01831750001293,13,,,,,,,,,,,s_075,2,2021_Mar_24_1348,Reversal,3.2.4,60.02523461909835,
20,exp1.png,exp2.png,0,0,0,0,0,20,20,20,,,,,,,,,,,,,,,,,,,,,,,,,False,19,20,False,exp1.png,exp2.png,trial_right_image,-1,exp2.png,2,exp1.png,exp2.png,0,2,non-reversed,incorrect,0.1121231337118963,1,invalid_win,92.23341260000598,14,,,,,,,,,,,s_075,2,2021_Mar_24_1348,Reversal,3.2.4,60.02523461909835,
,,,0,0,0,0,,,,,0,0,0,0,,,,,,,,,,,,,,,,,,,,,,,,,,,,,,,,,,,,,,,,,,69,25,70,17,,,,,,,s_075,2,2021_Mar_24_1348,Reversal,3.2.4,60.02523461909835,
0,exp1.png,exp2.png,1,0,1,0,0,0,0,0,,,,,,,,,,,,,,,,,,,,,,,,,True,,,,,,,,,,,,,,,,,,,,,,,,,,,,,,,s_075,2,2021_Mar_24_1348,Reversal,3.2.4,60.02523461909835,
1,exp3.png,exp4.png,1,0,1,0,0,1,1,1,,,,,,,,,,,,,,,,,,,,,,,,,False,20,21,False,exp3.png,exp4.png,trial_left_image,1,exp3.png,2,exp3.png,exp4.png,1,3,reversed,correct,0.6861479779832395,1,valid_win,118.35538040008396,15,,,,,,,,,,,s_075,2,2021_Mar_24_1348,Reversal,3.2.4,60.02523461909835,
2,exp1.png,exp2.png,1,0,1,0,0,2,2,2,,,,,,,,,,,,,,,,,,,,,,,,,False,21,22,False,exp1.png,exp2.png,trial_left_image,1,exp1.png,2,exp1.png,exp2.png,1,1,non-reversed,correct,0.8106066928487685,1,valid_win,125.12235560000408,16,,,,,,,,,,,s_075,2,2021_Mar_24_1348,Reversal,3.2.4,60.02523461909835,
3,exp3.png,exp4.png,1,0,1,0,0,3,3,3,,,,,,,,,,,,,,,,,,,,,,,,,False,22,23,False,exp3.png,exp4.png,trial_left_image,1,exp3.png,2,exp3.png,exp4.png,1,3,reversed,correct,0.3976034990575157,1,valid_win,129.9858738000039,17,,,,,,,,,,,s_075,2,2021_Mar_24_1348,Reversal,3.2.4,60.02523461909835,
4,exp1.png,exp2.png,1,0,1,0,0,4,4,4,,,,,,,,,,,,,,,,,,,,,,,,,False,23,24,True,exp2.png,exp1.png,trial_right_image,-1,exp1.png,2,exp1.png,exp2.png,1,1,non-reversed,correct,0.2931665545154831,1,valid_win,134.68443380005192,18,,,,,,,,,,,s_075,2,2021_Mar_24_1348,Reversal,3.2.4,60.02523461909835,
5,exp3.png,exp4.png,1,0,1,0,0,5,5,5,,,,,,,,,,,,,,,,,,,,,,,,,False,24,25,False,exp3.png,exp4.png,trial_left_image,1,exp3.png,2,exp3.png,exp4.png,1,3,reversed,correct,0.49958013145205626,1,valid_win,139.4175627999939,19,,,,,,,,,,,s_075,2,2021_Mar_24_1348,Reversal,3.2.4,60.02523461909835,
6,exp1.png,exp2.png,1,0,1,0,0,6,6,6,,,,,,,,,,,,,,,,,,,,,,,,,False,25,26,True,exp2.png,exp1.png,trial_right_image,-1,exp1.png,2,exp1.png,exp2.png,1,1,non-reversed,correct,0.6766718972454301,1,valid_win,143.3571311000269,20,,,,,,,,,,,s_075,2,2021_Mar_24_1348,Reversal,3.2.4,60.02523461909835,
7,exp3.png,exp4.png,1,0,1,0,0,7,7,7,,,,,,,,,,,,,,,,,,,,,,,,,False,26,27,True,exp4.png,exp3.png,trial_right_image,-1,exp3.png,2,exp3.png,exp4.png,1,3,reversed,correct,0.43632203399283664,1,valid_win,147.8812568000285,21,,,,,,,,,,,s_075,2,2021_Mar_24_1348,Reversal,3.2.4,60.02523461909835,
8,exp1.png,exp2.png,1,0,1,0,0,8,8,8,,,,,,,,,,,,,,,,,,,,,,,,,False,27,28,False,exp1.png,exp2.png,trial_left_image,1,exp1.png,2,exp1.png,exp2.png,1,1,non-reversed,correct,0.1555433654191053,0,invalid_lose,152.4946884000674,21,,,,,,,,,,,s_075,2,2021_Mar_24_1348,Reversal,3.2.4,60.02523461909835,
9,exp3.png,exp4.png,1,0,1,0,0,9,9,9,,,,,,,,,,,,,,,,,,,,,,,,,False,28,29,True,exp4.png,exp3.png,trial_right_image,-1,exp3.png,2,exp3.png,exp4.png,1,3,reversed,correct,0.9600338654812408,1,valid_win,156.56776990008075,22,,,,,,,,,,,s_075,2,2021_Mar_24_1348,Reversal,3.2.4,60.02523461909835,
10,exp1.png,exp2.png,1,0,1,0,0,10,10,10,,,,,,,,,,,,,,,,,,,,,,,,,False,29,30,False,exp1.png,exp2.png,trial_left_image,1,exp1.png,2,exp1.png,exp2.png,1,1,non-reversed,correct,0.6908255899322672,1,valid_win,161.26033449999522,23,,,,,,,,,,,s_075,2,2021_Mar_24_1348,Reversal,3.2.4,60.02523461909835,
11,exp3.png,exp4.png,1,0,1,0,0,11,11,11,,,,,,,,,,,,,,,,,,,,,,,,,False,30,31,True,exp4.png,exp3.png,trial_right_image,-1,exp3.png,2,exp3.png,exp4.png,1,3,reversed,correct,0.13619781496162653,0,invalid_lose,164.69569860002957,23,,,,,,,,,,,s_075,2,2021_Mar_24_1348,Reversal,3.2.4,60.02523461909835,
12,exp1.png,exp2.png,1,0,1,0,0,12,12,12,,,,,,,,,,,,,,,,,,,,,,,,,False,31,32,False,exp1.png,exp2.png,trial_left_image,1,exp1.png,2,exp1.png,exp2.png,1,1,non-reversed,correct,0.37499918882228644,1,valid_win,168.97331530007068,24,,,,,,,,,,,s_075,2,2021_Mar_24_1348,Reversal,3.2.4,60.02523461909835,
13,exp3.png,exp4.png,1,0,1,0,0,13,13,13,,,,,,,,,,,,,,,,,,,,,,,,,False,32,33,False,exp3.png,exp4.png,trial_left_image,1,exp3.png,2,exp3.png,exp4.png,1,3,reversed,correct,0.06454745261290962,0,invalid_lose,173.5701945000328,24,,,,,,,,,,,s_075,2,2021_Mar_24_1348,Reversal,3.2.4,60.02523461909835,
14,exp1.png,exp2.png,1,0,1,0,0,14,14,14,,,,,,,,,,,,,,,,,,,,,,,,,False,33,34,False,exp1.png,exp2.png,trial_left_image,1,exp1.png,2,exp1.png,exp2.png,1,1,non-reversed,correct,0.7347930919275909,1,valid_win,177.8865990000777,25,,,,,,,,,,,s_075,2,2021_Mar_24_1348,Reversal,3.2.4,60.02523461909835,
15,exp3.png,exp4.png,1,0,1,0,0,15,15,15,,,,,,,,,,,,,,,,,,,,,,,,,False,34,35,False,exp3.png,exp4.png,trial_left_image,1,exp3.png,2,exp3.png,exp4.png,1,3,reversed,correct,0.8390977625083651,1,valid_win,182.41945340007078,26,,,,,,,,,,,s_075,2,2021_Mar_24_1348,Reversal,3.2.4,60.02523461909835,
16,exp1.png,exp2.png,1,0,1,0,0,16,16,16,,,,,,,,,,,,,,,,,,,,,,,,,False,35,36,True,exp2.png,exp1.png,trial_right_image,-1,exp1.png,2,exp1.png,exp2.png,1,1,non-reversed,correct,0.07604226228797573,0,invalid_lose,187.01623860001564,26,,,,,,,,,,,s_075,2,2021_Mar_24_1348,Reversal,3.2.4,60.02523461909835,
17,exp3.png,exp4.png,1,0,1,0,0,17,17,17,,,,,,,,,,,,,,,,,,,,,,,,,False,36,37,True,exp4.png,exp3.png,trial_right_image,-1,exp3.png,2,exp3.png,exp4.png,1,3,reversed,correct,0.9534148194506458,1,valid_win,191.14990299998317,27,,,,,,,,,,,s_075,2,2021_Mar_24_1348,Reversal,3.2.4,60.02523461909835,
18,exp1.png,exp2.png,1,0,1,0,0,18,18,18,,,,,,,,,,,,,,,,,,,,,,,,,False,37,38,True,exp2.png,exp1.png,trial_right_image,-1,exp1.png,2,exp1.png,exp2.png,1,1,non-reversed,correct,0.18502498126724698,0,invalid_lose,195.6150432000868,27,,,,,,,,,,,s_075,2,2021_Mar_24_1348,Reversal,3.2.4,60.02523461909835,
19,exp3.png,exp4.png,1,0,1,0,0,19,19,19,,,,,,,,,,,,,,,,,,,,,,,,,False,38,39,True,exp4.png,exp3.png,trial_left_image,1,exp4.png,2,exp3.png,exp4.png,0,4,reversed,incorrect,0.9430364344558247,0,valid_lose,199.47905289998744,27,,,,,,,,,,,s_075,2,2021_Mar_24_1348,Reversal,3.2.4,60.02523461909835,
20,exp1.png,exp2.png,1,0,1,0,0,20,20,20,,,,,,,,,,,,,,,,,,,,,,,,,False,39,40,True,exp2.png,exp1.png,trial_left_image,1,exp2.png,2,exp1.png,exp2.png,0,2,non-reversed,incorrect,0.9449791082495645,0,valid_lose,203.71250240004156,27,,,,,,,,,,,s_075,2,2021_Mar_24_1348,Reversal,3.2.4,60.02523461909835,
,,,1,0,1,0,,,,,0,0,0,0,,,,,,,,,,,,,,,,,,,,,,,,,,,,,,,,,,,,,,,,,,67,26,38,22,,,,,,,s_075,2,2021_Mar_24_1348,Reversal,3.2.4,60.02523461909835,
0,exp1.png,exp2.png,2,0,2,0,0,0,0,0,,,,,,,,,,,,,,,,,,,,,,,,,True,,,,,,,,,,,,,,,,,,,,,,,,,,,,,,,s_075,2,2021_Mar_24_1348,Reversal,3.2.4,60.02523461909835,
1,exp3.png,exp4.png,2,0,2,0,0,1,1,1,,,,,,,,,,,,,,,,,,,,,,,,,False,40,41,False,exp3.png,exp4.png,trial_left_image,1,exp3.png,2,exp3.png,exp4.png,1,3,reversed,correct,0.14572311730364407,0,invalid_lose,225.85445450001862,27,,,,,,,,,,,s_075,2,2021_Mar_24_1348,Reversal,3.2.4,60.02523461909835,
2,exp1.png,exp2.png,2,0,2,0,0,2,2,2,,,,,,,,,,,,,,,,,,,,,,,,,False,41,42,False,exp1.png,exp2.png,trial_left_image,1,exp1.png,2,exp1.png,exp2.png,1,1,non-reversed,correct,0.2602991145260798,1,valid_win,230.3183431000216,28,,,,,,,,,,,s_075,2,2021_Mar_24_1348,Reversal,3.2.4,60.02523461909835,
3,exp3.png,exp4.png,2,0,2,0,0,3,3,3,,,,,,,,,,,,,,,,,,,,,,,,,False,42,43,False,exp3.png,exp4.png,trial_right_image,-1,exp4.png,2,exp3.png,exp4.png,0,4,reversed,incorrect,0.5780584513958855,0,valid_lose,234.9185144000221,28,,,,,,,,,,,s_075,2,2021_Mar_24_1348,Reversal,3.2.4,60.02523461909835,
4,exp1.png,exp2.png,2,0,2,0,0,4,4,4,,,,,,,,,,,,,,,,,,,,,,,,,False,43,44,True,exp2.png,exp1.png,trial_left_image,1,exp2.png,2,exp1.png,exp2.png,0,2,non-reversed,incorrect,0.7743167459415758,0,valid_lose,239.21720010007266,28,,,,,,,,,,,s_075,2,2021_Mar_24_1348,Reversal,3.2.4,60.02523461909835,
5,exp3.png,exp4.png,2,0,2,0,0,5,5,5,,,,,,,,,,,,,,,,,,,,,,,,,False,44,45,False,exp3.png,exp4.png,trial_left_image,1,exp3.png,2,exp3.png,exp4.png,1,3,reversed,correct,0.2988555121274137,1,valid_win,244.41541939997114,29,,,,,,,,,,,s_075,2,2021_Mar_24_1348,Reversal,3.2.4,60.02523461909835,
6,exp1.png,exp2.png,2,0,2,0,0,6,6,6,,,,,,,,,,,,,,,,,,,,,,,,,False,45,46,True,exp2.png,exp1.png,trial_right_image,-1,exp1.png,2,exp1.png,exp2.png,1,1,non-reversed,correct,0.6451338106321862,1,valid_win,249.02913330006413,30,,,,,,,,,,,s_075,2,2021_Mar_24_1348,Reversal,3.2.4,60.02523461909835,
7,exp3.png,exp4.png,2,0,2,0,0,7,7,7,,,,,,,,,,,,,,,,,,,,,,,,,False,46,47,False,exp3.png,exp4.png,trial_right_image,-1,exp4.png,2,exp3.png,exp4.png,0,4,reversed,incorrect,0.9354579019508912,0,valid_lose,253.52648900006898,30,,,,,,,,,,,s_075,2,2021_Mar_24_1348,Reversal,3.2.4,60.02523461909835,
8,exp1.png,exp2.png,2,0,2,0,0,8,8,8,,,,,,,,,,,,,,,,,,,,,,,,,False,47,48,True,exp2.png,exp1.png,trial_right_image,-1,exp1.png,2,exp1.png,exp2.png,1,1,non-reversed,correct,0.8893560178711508,1,valid_win,257.4762112000026,31,,,,,,,,,,,s_075,2,2021_Mar_24_1348,Reversal,3.2.4,60.02523461909835,
9,exp3.png,exp4.png,2,0,2,0,0,9,9,9,,,,,,,,,,,,,,,,,,,,,,,,,False,48,49,False,exp3.png,exp4.png,trial_right_image,-1,exp4.png,2,exp3.png,exp4.png,0,4,reversed,incorrect,0.5671178845749738,0,valid_lose,262.4577348000603,31,,,,,,,,,,,s_075,2,2021_Mar_24_1348,Reversal,3.2.4,60.02523461909835,
10,exp1.png,exp2.png,2,0,2,0,0,10,10,10,,,,,,,,,,,,,,,,,,,,,,,,,False,49,50,True,exp2.png,exp1.png,trial_right_image,-1,exp1.png,2,exp1.png,exp2.png,1,1,non-reversed,correct,0.16803085101595538,0,invalid_lose,267.07033080002293,31,,,,,,,,,,,s_075,2,2021_Mar_24_1348,Reversal,3.2.4,60.02523461909835,
11,exp3.png,exp4.png,2,0,2,0,0,11,11,11,,,,,,,,,,,,,,,,,,,,,,,,,False,50,51,False,exp3.png,exp4.png,trial_left_image,1,exp3.png,2,exp3.png,exp4.png,1,3,reversed,correct,0.9255562408210762,1,valid_win,271.5902104000561,32,,,,,,,,,,,s_075,2,2021_Mar_24_1348,Reversal,3.2.4,60.02523461909835,
12,exp1.png,exp2.png,2,0,2,0,0,12,12,12,,,,,,,,,,,,,,,,,,,,,,,,,False,51,52,True,exp2.png,exp1.png,trial_right_image,-1,exp1.png,2,exp1.png,exp2.png,1,1,non-reversed,correct,0.8913452568821064,1,valid_win,276.7878747000359,33,,,,,,,,,,,s_075,2,2021_Mar_24_1348,Reversal,3.2.4,60.02523461909835,
13,exp3.png,exp4.png,2,0,2,0,0,13,13,13,,,,,,,,,,,,,,,,,,,,,,,,,False,52,53,False,exp3.png,exp4.png,trial_left_image,1,exp3.png,2,exp3.png,exp4.png,1,3,reversed,correct,0.1372911519500445,0,invalid_lose,281.2199808000587,33,,,,,,,,,,,s_075,2,2021_Mar_24_1348,Reversal,3.2.4,60.02523461909835,
14,exp1.png,exp2.png,2,0,2,0,0,14,14,14,,,,,,,,,,,,,,,,,,,,,,,,,False,53,54,True,exp2.png,exp1.png,trial_right_image,-1,exp1.png,2,exp1.png,exp2.png,1,1,non-reversed,correct,0.8289603050951727,1,valid_win,285.5338780999882,34,,,,,,,,,,,s_075,2,2021_Mar_24_1348,Reversal,3.2.4,60.02523461909835,
15,exp3.png,exp4.png,2,0,2,0,0,15,15,15,,,,,,,,,,,,,,,,,,,,,,,,,False,54,55,False,exp3.png,exp4.png,trial_left_image,1,exp3.png,2,exp3.png,exp4.png,1,3,reversed,correct,0.8554245539885003,1,valid_win,289.98355630005244,35,,,,,,,,,,,s_075,2,2021_Mar_24_1348,Reversal,3.2.4,60.02523461909835,
16,exp1.png,exp2.png,2,0,2,0,0,16,16,16,,,,,,,,,,,,,,,,,,,,,,,,,False,55,56,True,exp2.png,exp1.png,trial_right_image,-1,exp1.png,2,exp1.png,exp2.png,1,1,non-reversed,correct,0.536021808574796,1,valid_win,294.64838250004686,36,,,,,,,,,,,s_075,2,2021_Mar_24_1348,Reversal,3.2.4,60.02523461909835,
17,exp3.png,exp4.png,2,0,2,0,0,17,17,17,,,,,,,,,,,,,,,,,,,,,,,,,False,56,57,False,exp3.png,exp4.png,trial_left_image,1,exp3.png,2,exp3.png,exp4.png,1,3,reversed,correct,0.4668684116129336,1,valid_win,299.6107574000489,37,,,,,,,,,,,s_075,2,2021_Mar_24_1348,Reversal,3.2.4,60.02523461909835,
18,exp1.png,exp2.png,2,0,2,0,0,18,18,18,,,,,,,,,,,,,,,,,,,,,,,,,False,57,58,True,exp2.png,exp1.png,trial_right_image,-1,exp1.png,2,exp1.png,exp2.png,1,1,non-reversed,correct,0.47265906578745587,1,valid_win,303.8122196000768,38,,,,,,,,,,,s_075,2,2021_Mar_24_1348,Reversal,3.2.4,60.02523461909835,
19,exp3.png,exp4.png,2,0,2,0,0,19,19,19,,,,,,,,,,,,,,,,,,,,,,,,,False,58,59,True,exp4.png,exp3.png,trial_left_image,1,exp4.png,2,exp3.png,exp4.png,0,4,reversed,incorrect,0.05127631294580248,1,invalid_win,309.0268188000191,39,,,,,,,,,,,s_075,2,2021_Mar_24_1348,Reversal,3.2.4,60.02523461909835,
20,exp1.png,exp2.png,2,0,2,0,0,20,20,20,,,,,,,,,,,,,,,,,,,,,,,,,False,59,60,True,exp2.png,exp1.png,trial_right_image,-1,exp1.png,2,exp1.png,exp2.png,1,1,non-reversed,correct,0.06065993963132987,0,invalid_lose,313.99177500000224,39,,,,,,,,,,,s_075,2,2021_Mar_24_1348,Reversal,3.2.4,60.02523461909835,
,,,2,0,2,0,,,,,0,0,0,0,,,,,,,,,,,,,,,,,,,,,,,,,,,,,,,,,,,,,,,,,,85,16,50.0,50.0,,,,,,,s_075,2,2021_Mar_24_1348,Reversal,3.2.4,60.02523461909835,
0,exp1.png,exp2.png,3,0,3,0,0,0,0,0,,,,,,,,,,,,,,,,,,,,,,,,,True,,,,,,,,,,,,,,,,,,,,,,,,,,,,,,,s_075,2,2021_Mar_24_1348,Reversal,3.2.4,60.02523461909835,
1,exp3.png,exp4.png,3,0,3,0,0,1,1,1,,,,,,,,,,,,,,,,,,,,,,,,,False,60,61,False,exp3.png,exp4.png,trial_left_image,1,exp3.png,2,exp3.png,exp4.png,1,3,reversed,correct,0.4413854614800833,1,valid_win,330.0183256000746,40,,,,,,,,,,,s_075,2,2021_Mar_24_1348,Reversal,3.2.4,60.02523461909835,
2,exp1.png,exp2.png,3,0,3,0,0,2,2,2,,,,,,,,,,,,,,,,,,,,,,,,,False,61,62,False,exp1.png,exp2.png,trial_left_image,1,exp1.png,2,exp1.png,exp2.png,1,1,non-reversed,correct,0.5228908000403929,1,valid_win,335.1188362999819,41,,,,,,,,,,,s_075,2,2021_Mar_24_1348,Reversal,3.2.4,60.02523461909835,
3,exp3.png,exp4.png,3,0,3,0,0,3,3,3,,,,,,,,,,,,,,,,,,,,,,,,,False,62,63,False,exp3.png,exp4.png,trial_left_image,1,exp3.png,2,exp3.png,exp4.png,1,3,reversed,correct,0.12882101048536276,0,invalid_lose,339.6996563000139,41,,,,,,,,,,,s_075,2,2021_Mar_24_1348,Reversal,3.2.4,60.02523461909835,
4,exp1.png,exp2.png,3,0,3,0,0,4,4,4,,,,,,,,,,,,,,,,,,,,,,,,,False,63,64,True,exp2.png,exp1.png,trial_right_image,-1,exp1.png,2,exp1.png,exp2.png,1,1,non-reversed,correct,0.9267925272000038,1,valid_win,343.9637424000539,42,,,,,,,,,,,s_075,2,2021_Mar_24_1348,Reversal,3.2.4,60.02523461909835,
5,exp3.png,exp4.png,3,0,3,0,0,5,5,5,,,,,,,,,,,,,,,,,,,,,,,,,False,64,65,False,exp3.png,exp4.png,trial_left_image,1,exp3.png,2,exp3.png,exp4.png,1,3,reversed,correct,0.4234698897927076,1,valid_win,348.77084340003785,43,,,,,,,,,,,s_075,2,2021_Mar_24_1348,Reversal,3.2.4,60.02523461909835,
6,exp1.png,exp2.png,3,0,3,0,0,6,6,6,,,,,,,,,,,,,,,,,,,,,,,,,False,65,66,False,exp1.png,exp2.png,trial_left_image,1,exp1.png,2,exp1.png,exp2.png,1,1,non-reversed,correct,0.032750453018653314,0,invalid_lose,353.44533410004806,43,,,,,,,,,,,s_075,2,2021_Mar_24_1348,Reversal,3.2.4,60.02523461909835,
7,exp3.png,exp4.png,3,0,3,0,0,7,7,7,,,,,,,,,,,,,,,,,,,,,,,,,False,66,67,False,exp3.png,exp4.png,trial_right_image,-1,exp4.png,2,exp3.png,exp4.png,0,4,reversed,incorrect,0.6316263107498666,0,valid_lose,357.442502800026,43,,,,,,,,,,,s_075,2,2021_Mar_24_1348,Reversal,3.2.4,60.02523461909835,
8,exp1.png,exp2.png,3,0,3,0,0,8,8,8,,,,,,,,,,,,,,,,,,,,,,,,,False,67,68,False,exp1.png,exp2.png,trial_right_image,-1,exp2.png,2,exp1.png,exp2.png,0,2,non-reversed,incorrect,0.7415346884038322,0,valid_lose,361.5103980000131,43,,,,,,,,,,,s_075,2,2021_Mar_24_1348,Reversal,3.2.4,60.02523461909835,
9,exp3.png,exp4.png,3,0,3,0,0,9,9,9,,,,,,,,,,,,,,,,,,,,,,,,,False,68,69,False,exp3.png,exp4.png,trial_left_image,1,exp3.png,2,exp3.png,exp4.png,1,3,reversed,correct,0.515351387662722,1,valid_win,366.24086760007776,44,,,,,,,,,,,s_075,2,2021_Mar_24_1348,Reversal,3.2.4,60.02523461909835,
10,exp1.png,exp2.png,3,0,3,0,0,10,10,10,,,,,,,,,,,,,,,,,,,,,,,,,False,69,70,False,exp1.png,exp2.png,trial_left_image,1,exp1.png,2,exp1.png,exp2.png,1,1,non-reversed,correct,0.7927699429773272,1,valid_win,370.9057893999852,45,,,,,,,,,,,s_075,2,2021_Mar_24_1348,Reversal,3.2.4,60.02523461909835,
11,exp3.png,exp4.png,3,0,3,0,0,11,11,11,,,,,,,,,,,,,,,,,,,,,,,,,False,70,71,True,exp4.png,exp3.png,trial_right_image,-1,exp3.png,2,exp3.png,exp4.png,1,3,reversed,correct,0.4365588853075566,1,valid_win,375.55279710004106,46,,,,,,,,,,,s_075,2,2021_Mar_24_1348,Reversal,3.2.4,60.02523461909835,
12,exp1.png,exp2.png,3,0,3,0,0,12,12,12,,,,,,,,,,,,,,,,,,,,,,,,,False,71,72,True,exp2.png,exp1.png,trial_right_image,-1,exp1.png,2,exp1.png,exp2.png,1,1,non-reversed,correct,0.959844427859636,1,valid_win,379.736486800015,47,,,,,,,,,,,s_075,2,2021_Mar_24_1348,Reversal,3.2.4,60.02523461909835,
13,exp3.png,exp4.png,3,0,3,0,0,13,13,13,,,,,,,,,,,,,,,,,,,,,,,,,False,72,73,True,exp4.png,exp3.png,trial_right_image,-1,exp3.png,2,exp3.png,exp4.png,1,3,reversed,correct,0.5864919134097314,1,valid_win,384.16821310005616,48,,,,,,,,,,,s_075,2,2021_Mar_24_1348,Reversal,3.2.4,60.02523461909835,
14,exp1.png,exp2.png,3,0,3,0,0,14,14,14,,,,,,,,,,,,,,,,,,,,,,,,,False,73,74,True,exp2.png,exp1.png,trial_right_image,-1,exp1.png,2,exp1.png,exp2.png,1,1,non-reversed,correct,0.33224745604819816,1,valid_win,388.3640608000569,49,,,,,,,,,,,s_075,2,2021_Mar_24_1348,Reversal,3.2.4,60.02523461909835,
15,exp3.png,exp4.png,3,0,3,0,0,15,15,15,,,,,,,,,,,,,,,,,,,,,,,,,False,74,75,True,exp4.png,exp3.png,trial_right_image,-1,exp3.png,2,exp3.png,exp4.png,1,3,reversed,correct,0.13722515912151667,0,invalid_lose,392.59839790000115,49,,,,,,,,,,,s_075,2,2021_Mar_24_1348,Reversal,3.2.4,60.02523461909835,
16,exp1.png,exp2.png,3,0,3,0,0,16,16,16,,,,,,,,,,,,,,,,,,,,,,,,,False,75,76,True,exp2.png,exp1.png,trial_right_image,-1,exp1.png,2,exp1.png,exp2.png,1,1,non-reversed,correct,0.30949975956288367,1,valid_win,397.2301030000672,50,,,,,,,,,,,s_075,2,2021_Mar_24_1348,Reversal,3.2.4,60.02523461909835,
17,exp3.png,exp4.png,3,0,3,0,0,17,17,17,,,,,,,,,,,,,,,,,,,,,,,,,False,76,77,True,exp4.png,exp3.png,trial_right_image,-1,exp3.png,2,exp3.png,exp4.png,1,3,reversed,correct,0.6265812587031986,1,valid_win,402.02878970000893,51,,,,,,,,,,,s_075,2,2021_Mar_24_1348,Reversal,3.2.4,60.02523461909835,
18,exp1.png,exp2.png,3,0,3,0,0,18,18,18,,,,,,,,,,,,,,,,,,,,,,,,,False,77,78,True,exp2.png,exp1.png,trial_right_image,-1,exp1.png,2,exp1.png,exp2.png,1,1,non-reversed,correct,0.9258597756453883,1,valid_win,406.6938655000413,52,,,,,,,,,,,s_075,2,2021_Mar_24_1348,Reversal,3.2.4,60.02523461909835,
19,exp3.png,exp4.png,3,0,3,0,0,19,19,19,,,,,,,,,,,,,,,,,,,,,,,,,False,78,79,True,exp4.png,exp3.png,trial_left_image,1,exp4.png,2,exp3.png,exp4.png,0,4,reversed,incorrect,0.39416902727421377,0,valid_lose,410.4330608000746,52,,,,,,,,,,,s_075,2,2021_Mar_24_1348,Reversal,3.2.4,60.02523461909835,
20,exp1.png,exp2.png,3,0,3,0,0,20,20,20,,,,,,,,,,,,,,,,,,,,,,,,,False,79,80,False,exp1.png,exp2.png,trial_left_image,1,exp1.png,2,exp1.png,exp2.png,1,1,non-reversed,correct,0.5388248796552795,1,valid_win,414.72421160002705,53,,,,,,,,,,,s_075,2,2021_Mar_24_1348,Reversal,3.2.4,60.02523461909835,
,,,3,0,3,0,,,,,0,0,0,0,,,,,,,,,,,,,,,,,,,,,,,,,,,,,,,,,,,,,,,,,,72,16,69,18,,,,,,,s_075,2,2021_Mar_24_1348,Reversal,3.2.4,60.02523461909835,
0,exp1.png,exp2.png,,,,,,,,,,,,,,,,,0,0,0,0,0,0,0,0,,,,,,,,,True,,,,,,,,,,,,,,,,,,,,,,,,,,,,,,,s_075,2,2021_Mar_24_1348,Reversal,3.2.4,60.02523461909835,
1,exp3.png,exp4.png,,,,,,,,,,,,,,,,,0,0,0,0,0,1,1,1,,,,,,,,,False,0,81,False,exp3.png,exp4.png,trial_left_image,1,exp3.png,2,exp4.png,exp3.png,1,3,reversed,incorrect,0.34218995510790307,0,valid_lose,430.3675953000784,53,,,,,427.976029500016,,,,,,s_075,2,2021_Mar_24_1348,Reversal,3.2.4,60.02523461909835,
2,exp1.png,exp2.png,,,,,,,,,,,,,,,,,0,0,0,0,0,2,2,2,,,,,,,,,False,1,82,False,exp1.png,exp2.png,trial_left_image,1,exp1.png,2,exp1.png,exp2.png,1,1,non-reversed,correct,0.13553242010843725,0,invalid_lose,434.5164013999747,53,,,,,,,,,,,s_075,2,2021_Mar_24_1348,Reversal,3.2.4,60.02523461909835,
3,exp3.png,exp4.png,,,,,,,,,,,,,,,,,0,0,0,0,0,3,3,3,,,,,,,,,False,2,83,True,exp4.png,exp3.png,trial_left_image,1,exp4.png,2,exp4.png,exp3.png,0,4,reversed,correct,0.9108657620569335,1,valid_win,438.68304260005243,54,,,,,,,,,,,s_075,2,2021_Mar_24_1348,Reversal,3.2.4,60.02523461909835,
4,exp1.png,exp2.png,,,,,,,,,,,,,,,,,0,0,0,0,0,4,4,4,,,,,,,,,False,3,84,False,exp1.png,exp2.png,trial_right_image,-1,exp2.png,2,exp1.png,exp2.png,0,2,non-reversed,incorrect,0.825952444256767,0,valid_lose,442.78178910003044,54,,,,,,,,,,,s_075,2,2021_Mar_24_1348,Reversal,3.2.4,60.02523461909835,
5,exp3.png,exp4.png,,,,,,,,,,,,,,,,,0,0,0,0,0,5,5,5,,,,,,,,,False,4,85,True,exp4.png,exp3.png,trial_left_image,1,exp4.png,2,exp4.png,exp3.png,0,4,reversed,correct,0.8376594320262606,1,valid_win,448.17839090002235,55,,,,,,,,,,,s_075,2,2021_Mar_24_1348,Reversal,3.2.4,60.02523461909835,
6,exp1.png,exp2.png,,,,,,,,,,,,,,,,,0,0,0,0,0,6,6,6,,,,,,,,,False,5,86,False,exp1.png,exp2.png,trial_right_image,-1,exp2.png,2,exp1.png,exp2.png,0,2,non-reversed,incorrect,0.07864963254327884,1,invalid_win,453.5433009000262,56,,,,,,,,,,,s_075,2,2021_Mar_24_1348,Reversal,3.2.4,60.02523461909835,
7,exp3.png,exp4.png,,,,,,,,,,,,,,,,,0,0,0,0,0,7,7,7,,,,,,,,,False,6,87,False,exp3.png,exp4.png,trial_right_image,-1,exp4.png,2,exp4.png,exp3.png,0,4,reversed,correct,0.09378550199552238,0,invalid_lose,457.8263937999727,56,,,,,,,,,,,s_075,2,2021_Mar_24_1348,Reversal,3.2.4,60.02523461909835,
8,exp1.png,exp2.png,,,,,,,,,,,,,,,,,0,0,0,0,0,8,8,8,,,,,,,,,False,7,88,True,exp2.png,exp1.png,trial_right_image,-1,exp1.png,2,exp1.png,exp2.png,1,1,non-reversed,correct,0.08751395497579373,0,invalid_lose,462.0251634999877,56,,,,,,,,,,,s_075,2,2021_Mar_24_1348,Reversal,3.2.4,60.02523461909835,
9,exp3.png,exp4.png,,,,,,,,,,,,,,,,,0,0,0,0,0,9,9,9,,,,,,,,,False,8,89,False,exp3.png,exp4.png,trial_left_image,1,exp3.png,2,exp4.png,exp3.png,1,3,reversed,incorrect,0.7597013115909748,0,valid_lose,466.42222240008414,56,,,,,,,,,,,s_075,2,2021_Mar_24_1348,Reversal,3.2.4,60.02523461909835,
10,exp1.png,exp2.png,,,,,,,,,,,,,,,,,0,0,0,0,0,10,10,10,,,,,,,,,False,9,90,True,exp2.png,exp1.png,trial_right_image,-1,exp1.png,2,exp1.png,exp2.png,1,1,non-reversed,correct,0.17123293368412928,0,invalid_lose,470.33739630004857,56,,,,,,,,,,,s_075,2,2021_Mar_24_1348,Reversal,3.2.4,60.02523461909835,
11,exp3.png,exp4.png,,,,,,,,,,,,,,,,,0,0,0,0,0,11,11,11,,,,,,,,,False,10,91,True,exp4.png,exp3.png,trial_right_image,-1,exp3.png,2,exp4.png,exp3.png,1,3,reversed,incorrect,0.6570499691392788,0,valid_lose,474.3045340999961,56,,,,,,,,,,,s_075,2,2021_Mar_24_1348,Reversal,3.2.4,60.02523461909835,
12,exp1.png,exp2.png,,,,,,,,,,,,,,,,,0,0,0,0,0,12,12,12,,,,,,,,,False,11,92,True,exp2.png,exp1.png,trial_right_image,-1,exp1.png,2,exp1.png,exp2.png,1,1,non-reversed,correct,0.3525739432438556,1,valid_win,478.08622070006095,57,,,,,,,,,,,s_075,2,2021_Mar_24_1348,Reversal,3.2.4,60.02523461909835,
13,exp3.png,exp4.png,,,,,,,,,,,,,,,,,0,0,0,0,0,13,13,13,,,,,,,,,False,12,93,False,exp3.png,exp4.png,trial_right_image,-1,exp4.png,2,exp4.png,exp3.png,0,4,reversed,correct,0.1907480831345022,0,invalid_lose,482.1159002999775,57,,,,,,,,,,,s_075,2,2021_Mar_24_1348,Reversal,3.2.4,60.02523461909835,
14,exp1.png,exp2.png,,,,,,,,,,,,,,,,,0,0,0,0,0,14,14,14,,,,,,,,,False,13,94,False,exp1.png,exp2.png,trial_left_image,1,exp1.png,2,exp1.png,exp2.png,1,1,non-reversed,correct,0.6768659870284862,1,valid_win,486.3479799000779,58,,,,,,,,,,,s_075,2,2021_Mar_24_1348,Reversal,3.2.4,60.02523461909835,
15,exp3.png,exp4.png,,,,,,,,,,,,,,,,,0,0,0,0,0,15,15,15,,,,,,,,,False,14,95,True,exp4.png,exp3.png,trial_right_image,-1,exp3.png,2,exp4.png,exp3.png,1,3,reversed,incorrect,0.3461166001381428,0,valid_lose,490.33103530004155,58,,,,,,,,,,,s_075,2,2021_Mar_24_1348,Reversal,3.2.4,60.02523461909835,
16,exp1.png,exp2.png,,,,,,,,,,,,,,,,,0,0,0,0,0,16,16,16,,,,,,,,,False,15,96,False,exp1.png,exp2.png,trial_right_image,-1,exp2.png,2,exp1.png,exp2.png,0,2,non-reversed,incorrect,0.3394635795071106,0,valid_lose,494.39730990002863,58,,,,,,,,,,,s_075,2,2021_Mar_24_1348,Reversal,3.2.4,60.02523461909835,
17,exp3.png,exp4.png,,,,,,,,,,,,,,,,,0,0,0,0,0,17,17,17,,,,,,,,,False,16,97,True,exp4.png,exp3.png,trial_right_image,-1,exp3.png,2,exp4.png,exp3.png,1,3,reversed,incorrect,0.6483129043785655,0,valid_lose,498.4616958000697,58,,,,,,,,,,,s_075,2,2021_Mar_24_1348,Reversal,3.2.4,60.02523461909835,
18,exp1.png,exp2.png,,,,,,,,,,,,,,,,,0,0,0,0,0,18,18,18,,,,,,,,,False,17,98,True,exp2.png,exp1.png,trial_right_image,-1,exp1.png,2,exp1.png,exp2.png,1,1,non-reversed,correct,0.4954684501264882,1,valid_win,503.00964850001037,59,,,,,,,,,,,s_075,2,2021_Mar_24_1348,Reversal,3.2.4,60.02523461909835,
19,exp3.png,exp4.png,,,,,,,,,,,,,,,,,0,0,0,0,0,19,19,19,,,,,,,,,False,18,99,True,exp4.png,exp3.png,trial_left_image,1,exp4.png,2,exp4.png,exp3.png,0,4,reversed,correct,0.2907478115295742,1,valid_win,507.1916471000295,60,,,,,,,,,,,s_075,2,2021_Mar_24_1348,Reversal,3.2.4,60.02523461909835,
20,exp1.png,exp2.png,,,,,,,,,,,,,,,,,0,0,0,0,0,20,20,20,,,,,,,,,False,19,100,False,exp1.png,exp2.png,trial_left_image,1,exp1.png,2,exp1.png,exp2.png,1,1,non-reversed,correct,0.960995945267287,1,valid_win,511.1249772000592,61,,,,,,,,,,,s_075,2,2021_Mar_24_1348,Reversal,3.2.4,60.02523461909835,
,,,,,,,,,,,,,,,,,,,0,0,0,0,,,,,0,0,0,0,,,,,,,,,,,,,,,,,,,,,,,,,,50.0,50.0,32,63,,,,,,,s_075,2,2021_Mar_24_1348,Reversal,3.2.4,60.02523461909835,
0,exp1.png,exp2.png,,,,,,,,,,,,,,,,,1,0,1,0,0,0,0,0,,,,,,,,,True,,,,,,,,,,,,,,,,,,,,,,,,,,,,,,,s_075,2,2021_Mar_24_1348,Reversal,3.2.4,60.02523461909835,
1,exp3.png,exp4.png,,,,,,,,,,,,,,,,,1,0,1,0,0,1,1,1,,,,,,,,,False,20,101,True,exp4.png,exp3.png,trial_right_image,-1,exp3.png,2,exp4.png,exp3.png,1,3,reversed,incorrect,0.5767453236431618,0,valid_lose,525.4172974000685,61,,,,,,,,,,,s_075,2,2021_Mar_24_1348,Reversal,3.2.4,60.02523461909835,
2,exp1.png,exp2.png,,,,,,,,,,,,,,,,,1,0,1,0,0,2,2,2,,,,,,,,,False,21,102,False,exp1.png,exp2.png,trial_right_image,-1,exp2.png,2,exp1.png,exp2.png,0,2,non-reversed,incorrect,0.9858384057565106,0,valid_lose,529.30238680006,61,,,,,,,,,,,s_075,2,2021_Mar_24_1348,Reversal,3.2.4,60.02523461909835,
3,exp3.png,exp4.png,,,,,,,,,,,,,,,,,1,0,1,0,0,3,3,3,,,,,,,,,False,22,103,False,exp3.png,exp4.png,trial_right_image,-1,exp4.png,2,exp4.png,exp3.png,0,4,reversed,correct,0.7515507229957964,1,valid_win,533.2507356000133,62,,,,,,,,,,,s_075,2,2021_Mar_24_1348,Reversal,3.2.4,60.02523461909835,
4,exp1.png,exp2.png,,,,,,,,,,,,,,,,,1,0,1,0,0,4,4,4,,,,,,,,,False,23,104,False,exp1.png,exp2.png,trial_right_image,-1,exp2.png,2,exp1.png,exp2.png,0,2,non-reversed,incorrect,0.4944454395726473,0,valid_lose,537.2804607000435,62,,,,,,,,,,,s_075,2,2021_Mar_24_1348,Reversal,3.2.4,60.02523461909835,
5,exp3.png,exp4.png,,,,,,,,,,,,,,,,,1,0,1,0,0,5,5,5,,,,,,,,,False,24,105,False,exp3.png,exp4.png,trial_right_image,-1,exp4.png,2,exp4.png,exp3.png,0,4,reversed,correct,0.9881260061774555,1,valid_win,541.282412200002,63,,,,,,,,,,,s_075,2,2021_Mar_24_1348,Reversal,3.2.4,60.02523461909835,
6,exp1.png,exp2.png,,,,,,,,,,,,,,,,,1,0,1,0,0,6,6,6,,,,,,,,,False,25,106,False,exp1.png,exp2.png,trial_left_image,1,exp1.png,2,exp1.png,exp2.png,1,1,non-reversed,correct,0.47124418487973485,1,valid_win,545.3785407000687,64,,,,,,,,,,,s_075,2,2021_Mar_24_1348,Reversal,3.2.4,60.02523461909835,
7,exp3.png,exp4.png,,,,,,,,,,,,,,,,,1,0,1,0,0,7,7,7,,,,,,,,,False,26,107,False,exp3.png,exp4.png,trial_right_image,-1,exp4.png,2,exp4.png,exp3.png,0,4,reversed,correct,0.6205539327267501,1,valid_win,549.3954248999944,65,,,,,,,,,,,s_075,2,2021_Mar_24_1348,Reversal,3.2.4,60.02523461909835,
8,exp1.png,exp2.png,,,,,,,,,,,,,,,,,1,0,1,0,0,8,8,8,,,,,,,,,False,27,108,False,exp1.png,exp2.png,trial_left_image,1,exp1.png,2,exp1.png,exp2.png,1,1,non-reversed,correct,0.9135956429538229,1,valid_win,553.710238300031,66,,,,,,,,,,,s_075,2,2021_Mar_24_1348,Reversal,3.2.4,60.02523461909835,
9,exp3.png,exp4.png,,,,,,,,,,,,,,,,,1,0,1,0,0,9,9,9,,,,,,,,,False,28,109,True,exp4.png,exp3.png,trial_left_image,1,exp4.png,2,exp4.png,exp3.png,0,4,reversed,correct,0.9251827451984306,1,valid_win,558.0088543000165,67,,,,,,,,,,,s_075,2,2021_Mar_24_1348,Reversal,3.2.4,60.02523461909835,
10,exp1.png,exp2.png,,,,,,,,,,,,,,,,,1,0,1,0,0,10,10,10,,,,,,,,,False,29,110,True,exp2.png,exp1.png,trial_right_image,-1,exp1.png,2,exp1.png,exp2.png,1,1,non-reversed,correct,0.8388465324475742,1,valid_win,561.9914668999845,68,,,,,,,,,,,s_075,2,2021_Mar_24_1348,Reversal,3.2.4,60.02523461909835,
11,exp3.png,exp4.png,,,,,,,,,,,,,,,,,1,0,1,0,0,11,11,11,,,,,,,,,False,30,111,False,exp3.png,exp4.png,trial_right_image,-1,exp4.png,2,exp4.png,exp3.png,0,4,reversed,correct,0.5525645029589098,1,valid_win,566.1051762000425,69,,,,,,,,,,,s_075,2,2021_Mar_24_1348,Reversal,3.2.4,60.02523461909835,
12,exp1.png,exp2.png,,,,,,,,,,,,,,,,,1,0,1,0,0,12,12,12,,,,,,,,,False,31,112,False,exp1.png,exp2.png,trial_left_image,1,exp1.png,2,exp1.png,exp2.png,1,1,non-reversed,correct,0.07723226162281283,0,invalid_lose,570.205091400072,69,,,,,,,,,,,s_075,2,2021_Mar_24_1348,Reversal,3.2.4,60.02523461909835,
13,exp3.png,exp4.png,,,,,,,,,,,,,,,,,1,0,1,0,0,13,13,13,,,,,,,,,False,32,113,True,exp4.png,exp3.png,trial_left_image,1,exp4.png,2,exp4.png,exp3.png,0,4,reversed,correct,0.12706373034064267,0,invalid_lose,574.719050200074,69,,,,,,,,,,,s_075,2,2021_Mar_24_1348,Reversal,3.2.4,60.02523461909835,
14,exp1.png,exp2.png,,,,,,,,,,,,,,,,,1,0,1,0,0,14,14,14,,,,,,,,,False,33,114,True,exp2.png,exp1.png,trial_right_image,-1,exp1.png,2,exp1.png,exp2.png,1,1,non-reversed,correct,0.2351103302885651,0,invalid_lose,578.900686900015,69,,,,,,,,,,,s_075,2,2021_Mar_24_1348,Reversal,3.2.4,60.02523461909835,
15,exp3.png,exp4.png,,,,,,,,,,,,,,,,,1,0,1,0,0,15,15,15,,,,,,,,,False,34,115,True,exp4.png,exp3.png,trial_right_image,-1,exp3.png,2,exp4.png,exp3.png,1,3,reversed,incorrect,0.25324013629792574,0,valid_lose,583.2491396000842,69,,,,,,,,,,,s_075,2,2021_Mar_24_1348,Reversal,3.2.4,60.02523461909835,
16,exp1.png,exp2.png,,,,,,,,,,,,,,,,,1,0,1,0,0,16,16,16,,,,,,,,,False,35,116,True,exp2.png,exp1.png,trial_right_image,-1,exp1.png,2,exp1.png,exp2.png,1,1,non-reversed,correct,0.5301167224804446,1,valid_win,587.2646126999753,70,,,,,,,,,,,s_075,2,2021_Mar_24_1348,Reversal,3.2.4,60.02523461909835,
17,exp3.png,exp4.png,,,,,,,,,,,,,,,,,1,0,1,0,0,17,17,17,,,,,,,,,False,36,117,True,exp4.png,exp3.png,trial_left_image,1,exp4.png,2,exp4.png,exp3.png,0,4,reversed,correct,0.9749734932244251,1,valid_win,591.5958716999739,71,,,,,,,,,,,s_075,2,2021_Mar_24_1348,Reversal,3.2.4,60.02523461909835,
18,exp1.png,exp2.png,,,,,,,,,,,,,,,,,1,0,1,0,0,18,18,18,,,,,,,,,False,37,118,True,exp2.png,exp1.png,trial_right_image,-1,exp1.png,2,exp1.png,exp2.png,1,1,non-reversed,correct,0.09995185859329347,0,invalid_lose,595.6633392000804,71,,,,,,,,,,,s_075,2,2021_Mar_24_1348,Reversal,3.2.4,60.02523461909835,
19,exp3.png,exp4.png,,,,,,,,,,,,,,,,,1,0,1,0,0,19,19,19,,,,,,,,,False,38,119,True,exp4.png,exp3.png,trial_left_image,1,exp4.png,2,exp4.png,exp3.png,0,4,reversed,correct,0.5503830771438913,1,valid_win,600.457963300054,72,,,,,,,,,,,s_075,2,2021_Mar_24_1348,Reversal,3.2.4,60.02523461909835,
20,exp1.png,exp2.png,,,,,,,,,,,,,,,,,1,0,1,0,0,20,20,20,,,,,,,,,False,39,120,False,exp1.png,exp2.png,trial_left_image,1,exp1.png,2,exp1.png,exp2.png,1,1,non-reversed,correct,0.8998278634080453,1,valid_win,606.1569656999782,73,,,,,,,,,,,s_075,2,2021_Mar_24_1348,Reversal,3.2.4,60.02523461909835,
,,,,,,,,,,,,,,,,,,,1,0,1,0,,,,,0,0,0,0,,,,,,,,,,,,,,,,,,,,,,,,,,69,17,19,81,,,,,,,s_075,2,2021_Mar_24_1348,Reversal,3.2.4,60.02523461909835,
0,exp1.png,exp2.png,,,,,,,,,,,,,,,,,2,0,2,0,0,0,0,0,,,,,,,,,True,,,,,,,,,,,,,,,,,,,,,,,,,,,,,,,s_075,2,2021_Mar_24_1348,Reversal,3.2.4,60.02523461909835,
1,exp3.png,exp4.png,,,,,,,,,,,,,,,,,2,0,2,0,0,1,1,1,,,,,,,,,False,40,121,False,exp3.png,exp4.png,trial_right_image,-1,exp4.png,2,exp4.png,exp3.png,0,4,reversed,correct,0.6625109027288995,1,valid_win,625.8028563000262,74,,,,,,,,,,,s_075,2,2021_Mar_24_1348,Reversal,3.2.4,60.02523461909835,
2,exp1.png,exp2.png,,,,,,,,,,,,,,,,,2,0,2,0,0,2,2,2,,,,,,,,,False,41,122,False,exp1.png,exp2.png,trial_left_image,1,exp1.png,2,exp1.png,exp2.png,1,1,non-reversed,correct,0.8506637692863738,1,valid_win,630.0833405000158,75,,,,,,,,,,,s_075,2,2021_Mar_24_1348,Reversal,3.2.4,60.02523461909835,
3,exp3.png,exp4.png,,,,,,,,,,,,,,,,,2,0,2,0,0,3,3,3,,,,,,,,,False,42,123,False,exp3.png,exp4.png,trial_right_image,-1,exp4.png,2,exp4.png,exp3.png,0,4,reversed,correct,0.07871013463049337,0,invalid_lose,635.749570999993,75,,,,,,,,,,,s_075,2,2021_Mar_24_1348,Reversal,3.2.4,60.02523461909835,
4,exp1.png,exp2.png,,,,,,,,,,,,,,,,,2,0,2,0,0,4,4,4,,,,,,,,,False,43,124,False,exp1.png,exp2.png,trial_left_image,1,exp1.png,2,exp1.png,exp2.png,1,1,non-reversed,correct,0.7353134162306085,1,valid_win,640.1482336000772,76,,,,,,,,,,,s_075,2,2021_Mar_24_1348,Reversal,3.2.4,60.02523461909835,
5,exp3.png,exp4.png,,,,,,,,,,,,,,,,,2,0,2,0,0,5,5,5,,,,,,,,,False,44,125,False,exp3.png,exp4.png,trial_left_image,1,exp3.png,2,exp4.png,exp3.png,1,3,reversed,incorrect,0.30148740975278054,0,valid_lose,644.1953126000008,76,,,,,,,,,,,s_075,2,2021_Mar_24_1348,Reversal,3.2.4,60.02523461909835,
6,exp1.png,exp2.png,,,,,,,,,,,,,,,,,2,0,2,0,0,6,6,6,,,,,,,,,False,45,126,True,exp2.png,exp1.png,trial_left_image,1,exp2.png,2,exp1.png,exp2.png,0,2,non-reversed,incorrect,0.19837962892255478,1,invalid_win,648.0620164000429,77,,,,,,,,,,,s_075,2,2021_Mar_24_1348,Reversal,3.2.4,60.02523461909835,
7,exp3.png,exp4.png,,,,,,,,,,,,,,,,,2,0,2,0,0,7,7,7,,,,,,,,,False,46,127,True,exp4.png,exp3.png,trial_left_image,1,exp4.png,2,exp4.png,exp3.png,0,4,reversed,correct,0.4829663864778684,1,valid_win,652.0610490000108,78,,,,,,,,,,,s_075,2,2021_Mar_24_1348,Reversal,3.2.4,60.02523461909835,
8,exp1.png,exp2.png,,,,,,,,,,,,,,,,,2,0,2,0,0,8,8,8,,,,,,,,,False,47,128,True,exp2.png,exp1.png,trial_right_image,-1,exp1.png,2,exp1.png,exp2.png,1,1,non-reversed,correct,0.767248425023573,1,valid_win,655.8595567999873,79,,,,,,,,,,,s_075,2,2021_Mar_24_1348,Reversal,3.2.4,60.02523461909835,
9,exp3.png,exp4.png,,,,,,,,,,,,,,,,,2,0,2,0,0,9,9,9,,,,,,,,,False,48,129,True,exp4.png,exp3.png,trial_right_image,-1,exp3.png,2,exp4.png,exp3.png,1,3,reversed,incorrect,0.09446550119865338,1,invalid_win,659.8737460999982,80,,,,,,,,,,,s_075,2,2021_Mar_24_1348,Reversal,3.2.4,60.02523461909835,
10,exp1.png,exp2.png,,,,,,,,,,,,,,,,,2,0,2,0,0,10,10,10,,,,,,,,,False,49,130,True,exp2.png,exp1.png,trial_left_image,1,exp2.png,2,exp1.png,exp2.png,0,2,non-reversed,incorrect,0.15226369390063488,1,invalid_win,663.7569856999908,81,,,,,,,,,,,s_075,2,2021_Mar_24_1348,Reversal,3.2.4,60.02523461909835,
11,exp3.png,exp4.png,,,,,,,,,,,,,,,,,2,0,2,0,0,11,11,11,,,,,,,,,False,50,131,False,exp3.png,exp4.png,trial_right_image,-1,exp4.png,2,exp4.png,exp3.png,0,4,reversed,correct,0.3515511232463936,1,valid_win,667.8386895000003,82,,,,,,,,,,,s_075,2,2021_Mar_24_1348,Reversal,3.2.4,60.02523461909835,
12,exp1.png,exp2.png,,,,,,,,,,,,,,,,,2,0,2,0,0,12,12,12,,,,,,,,,False,51,132,True,exp2.png,exp1.png,trial_right_image,-1,exp1.png,2,exp1.png,exp2.png,1,1,non-reversed,correct,0.43666285630164914,1,valid_win,672.0537941000657,83,,,,,,,,,,,s_075,2,2021_Mar_24_1348,Reversal,3.2.4,60.02523461909835,
13,exp3.png,exp4.png,,,,,,,,,,,,,,,,,2,0,2,0,0,13,13,13,,,,,,,,,False,52,133,True,exp4.png,exp3.png,trial_left_image,1,exp4.png,2,exp4.png,exp3.png,0,4,reversed,correct,0.6499901166822666,1,valid_win,677.4339556000195,84,,,,,,,,,,,s_075,2,2021_Mar_24_1348,Reversal,3.2.4,60.02523461909835,
14,exp1.png,exp2.png,,,,,,,,,,,,,,,,,2,0,2,0,0,14,14,14,,,,,,,,,False,53,134,False,exp1.png,exp2.png,trial_right_image,-1,exp2.png,2,exp1.png,exp2.png,0,2,non-reversed,incorrect,0.05337418382807402,1,invalid_win,681.4660753000062,85,,,,,,,,,,,s_075,2,2021_Mar_24_1348,Reversal,3.2.4,60.02523461909835,
15,exp3.png,exp4.png,,,,,,,,,,,,,,,,,2,0,2,0,0,15,15,15,,,,,,,,,False,54,135,True,exp4.png,exp3.png,trial_right_image,-1,exp3.png,2,exp4.png,exp3.png,1,3,reversed,incorrect,0.3384323350398065,0,valid_lose,685.5316864000633,85,,,,,,,,,,,s_075,2,2021_Mar_24_1348,Reversal,3.2.4,60.02523461909835,
16,exp1.png,exp2.png,,,,,,,,,,,,,,,,,2,0,2,0,0,16,16,16,,,,,,,,,False,55,136,True,exp2.png,exp1.png,trial_right_image,-1,exp1.png,2,exp1.png,exp2.png,1,1,non-reversed,correct,0.5730909657764379,1,valid_win,689.5631285000127,86,,,,,,,,,,,s_075,2,2021_Mar_24_1348,Reversal,3.2.4,60.02523461909835,
17,exp3.png,exp4.png,,,,,,,,,,,,,,,,,2,0,2,0,0,17,17,17,,,,,,,,,False,56,137,False,exp3.png,exp4.png,trial_left_image,1,exp3.png,2,exp4.png,exp3.png,1,3,reversed,incorrect,0.1051807610588974,1,invalid_win,693.9285493000643,87,,,,,,,,,,,s_075,2,2021_Mar_24_1348,Reversal,3.2.4,60.02523461909835,
18,exp1.png,exp2.png,,,,,,,,,,,,,,,,,2,0,2,0,0,18,18,18,,,,,,,,,False,57,138,False,exp1.png,exp2.png,trial_right_image,-1,exp2.png,2,exp1.png,exp2.png,0,2,non-reversed,incorrect,0.5518915109817271,0,valid_lose,698.0269740000367,87,,,,,,,,,,,s_075,2,2021_Mar_24_1348,Reversal,3.2.4,60.02523461909835,
19,exp3.png,exp4.png,,,,,,,,,,,,,,,,,2,0,2,0,0,19,19,19,,,,,,,,,False,58,139,False,exp3.png,exp4.png,trial_right_image,-1,exp4.png,2,exp4.png,exp3.png,0,4,reversed,correct,0.7378030964571319,1,valid_win,702.0604033999844,88,,,,,,,,,,,s_075,2,2021_Mar_24_1348,Reversal,3.2.4,60.02523461909835,
20,exp1.png,exp2.png,,,,,,,,,,,,,,,,,2,0,2,0,0,20,20,20,,,,,,,,,False,59,140,True,exp2.png,exp1.png,trial_right_image,-1,exp1.png,2,exp1.png,exp2.png,1,1,non-reversed,correct,0.574259345180331,1,valid_win,706.290622200002,89,,,,,,,,,,,s_075,2,2021_Mar_24_1348,Reversal,3.2.4,60.02523461909835,
,,,,,,,,,,,,,,,,,,,2,0,2,0,,,,,0,0,0,0,,,,,,,,,,,,,,,,,,,,,,,,,,31,32,27,26,,,,,,,s_075,2,2021_Mar_24_1348,Reversal,3.2.4,60.02523461909835,
,,,,,,,,,,,,,,,,,,,,,,,,,,,,,,,,,,,,,,,,,,,,,,,,,,,,,,,89,,,,,,106,66,40,296.30882489995565,1,,,,,,,
