trial_index,trial_image1_file,trial_image2_file,learning_outer_loop.thisRepN,learning_outer_loop.thisTrialN,learning_outer_loop.thisN,learning_outer_loop.thisIndex,learning_inner_loop.thisRepN,learning_inner_loop.thisTrialN,learning_inner_loop.thisN,learning_inner_loop.thisIndex,learning_estimation_outer_loop.thisRepN,learning_estimation_outer_loop.thisTrialN,learning_estimation_outer_loop.thisN,learning_estimation_outer_loop.thisIndex,learning_estimation_inner_loop.thisRepN,learning_estimation_inner_loop.thisTrialN,learning_estimation_inner_loop.thisN,learning_estimation_inner_loop.thisIndex,reversal_outer_loop.thisRepN,reversal_outer_loop.thisTrialN,reversal_outer_loop.thisN,reversal_outer_loop.thisIndex,reversal_inner_loop.thisRepN,reversal_inner_loop.thisTrialN,reversal_inner_loop.thisN,reversal_inner_loop.thisIndex,reversal_estimation_outer_loop.thisRepN,reversal_estimation_outer_loop.thisTrialN,reversal_estimation_outer_loop.thisN,reversal_estimation_outer_loop.thisIndex,reversal_estimation_inner_loop.thisRepN,reversal_estimation_inner_loop.thisTrialN,reversal_estimation_inner_loop.thisN,reversal_estimation_inner_loop.thisIndex,skipped,total_trial_counter,trial_num,left_right_flip,left_image_file,right_image_file,clicked_stimulus_side,side,clicked_stimulus,version,high_prob_image_file,low_prob_image_file,choice_a,choice_b,pair_type,correct,trial_feedback_random,reward,trial_type,overall_time_after_trial,score,estimation_exp1.png,estimation_exp2.png,estimation_exp3.png,estimation_exp4.png,total_learning_time,total_correct,learning_correct,reversal_correct,total_reversal_time,extra_block,participant,ver,date,expName,psychopyVersion,frameRate,
0,exp1.png,exp2.png,0,0,0,0,0,0,0,0,,,,,,,,,,,,,,,,,,,,,,,,,False,0,1,True,exp2.png,exp1.png,trial_right_image,-1,exp1.png,1,exp1.png,exp2.png,1,3,reversed,correct,0.6672251258926206,1,valid_win,5.894854399957694,1,,,,,,,,,,,s_076,1,2021_Mar_25_1647,Reversal,3.2.4,60.056453062267565,
1,exp3.png,exp4.png,0,0,0,0,0,1,1,1,,,,,,,,,,,,,,,,,,,,,,,,,False,1,2,False,exp3.png,exp4.png,trial_left_image,1,exp3.png,1,exp3.png,exp4.png,1,1,non-reversed,correct,0.18062397186777202,0,invalid_lose,13.126978700049222,1,,,,,,,,,,,s_076,1,2021_Mar_25_1647,Reversal,3.2.4,60.056453062267565,
2,exp1.png,exp2.png,0,0,0,0,0,2,2,2,,,,,,,,,,,,,,,,,,,,,,,,,False,2,3,True,exp2.png,exp1.png,trial_right_image,-1,exp1.png,1,exp1.png,exp2.png,1,3,reversed,correct,0.08393280311715412,0,invalid_lose,20.139911400037818,1,,,,,,,,,,,s_076,1,2021_Mar_25_1647,Reversal,3.2.4,60.056453062267565,
3,exp3.png,exp4.png,0,0,0,0,0,3,3,3,,,,,,,,,,,,,,,,,,,,,,,,,False,3,4,False,exp3.png,exp4.png,trial_right_image,-1,exp4.png,1,exp3.png,exp4.png,0,2,non-reversed,incorrect,0.9888391778534321,0,valid_lose,26.22037390002515,1,,,,,,,,,,,s_076,1,2021_Mar_25_1647,Reversal,3.2.4,60.056453062267565,
4,exp1.png,exp2.png,0,0,0,0,0,4,4,4,,,,,,,,,,,,,,,,,,,,,,,,,False,4,5,False,exp1.png,exp2.png,trial_left_image,1,exp1.png,1,exp1.png,exp2.png,1,3,reversed,correct,0.48202993441310393,1,valid_win,32.28572899999563,2,,,,,,,,,,,s_076,1,2021_Mar_25_1647,Reversal,3.2.4,60.056453062267565,
5,exp3.png,exp4.png,0,0,0,0,0,5,5,5,,,,,,,,,,,,,,,,,,,,,,,,,False,5,6,False,exp3.png,exp4.png,trial_right_image,-1,exp4.png,1,exp3.png,exp4.png,0,2,non-reversed,incorrect,0.8860121053531502,0,valid_lose,38.20197419996839,2,,,,,,,,,,,s_076,1,2021_Mar_25_1647,Reversal,3.2.4,60.056453062267565,
6,exp1.png,exp2.png,0,0,0,0,0,6,6,6,,,,,,,,,,,,,,,,,,,,,,,,,False,6,7,True,exp2.png,exp1.png,trial_right_image,-1,exp1.png,1,exp1.png,exp2.png,1,3,reversed,correct,0.827530270137969,1,valid_win,43.348112100036815,3,,,,,,,,,,,s_076,1,2021_Mar_25_1647,Reversal,3.2.4,60.056453062267565,
7,exp3.png,exp4.png,0,0,0,0,0,7,7,7,,,,,,,,,,,,,,,,,,,,,,,,,False,7,8,True,exp4.png,exp3.png,trial_right_image,-1,exp3.png,1,exp3.png,exp4.png,1,1,non-reversed,correct,0.8827672207414917,1,valid_win,51.080883700051345,4,,,,,,,,,,,s_076,1,2021_Mar_25_1647,Reversal,3.2.4,60.056453062267565,
8,exp1.png,exp2.png,0,0,0,0,0,8,8,8,,,,,,,,,,,,,,,,,,,,,,,,,False,8,9,False,exp1.png,exp2.png,trial_left_image,1,exp1.png,1,exp1.png,exp2.png,1,3,reversed,correct,0.5939177085178057,1,valid_win,56.04560029995628,5,,,,,,,,,,,s_076,1,2021_Mar_25_1647,Reversal,3.2.4,60.056453062267565,
9,exp3.png,exp4.png,0,0,0,0,0,9,9,9,,,,,,,,,,,,,,,,,,,,,,,,,False,9,10,True,exp4.png,exp3.png,trial_right_image,-1,exp3.png,1,exp3.png,exp4.png,1,1,non-reversed,correct,0.6377537807856378,1,valid_win,61.04159110004548,6,,,,,,,,,,,s_076,1,2021_Mar_25_1647,Reversal,3.2.4,60.056453062267565,
10,exp1.png,exp2.png,0,0,0,0,0,10,10,10,,,,,,,,,,,,,,,,,,,,,,,,,False,10,11,True,exp2.png,exp1.png,trial_right_image,-1,exp1.png,1,exp1.png,exp2.png,1,3,reversed,correct,0.12496260353237887,0,invalid_lose,66.29102250002325,6,,,,,,,,,,,s_076,1,2021_Mar_25_1647,Reversal,3.2.4,60.056453062267565,
11,exp3.png,exp4.png,0,0,0,0,0,11,11,11,,,,,,,,,,,,,,,,,,,,,,,,,False,11,12,True,exp4.png,exp3.png,trial_right_image,-1,exp3.png,1,exp3.png,exp4.png,1,1,non-reversed,correct,0.6913039306409146,1,valid_win,71.90695460001007,7,,,,,,,,,,,s_076,1,2021_Mar_25_1647,Reversal,3.2.4,60.056453062267565,
12,exp1.png,exp2.png,0,0,0,0,0,12,12,12,,,,,,,,,,,,,,,,,,,,,,,,,False,12,13,True,exp2.png,exp1.png,trial_right_image,-1,exp1.png,1,exp1.png,exp2.png,1,3,reversed,correct,0.04176641093067468,0,invalid_lose,76.73608629999217,7,,,,,,,,,,,s_076,1,2021_Mar_25_1647,Reversal,3.2.4,60.056453062267565,
13,exp3.png,exp4.png,0,0,0,0,0,13,13,13,,,,,,,,,,,,,,,,,,,,,,,,,False,13,14,False,exp3.png,exp4.png,trial_left_image,1,exp3.png,1,exp3.png,exp4.png,1,1,non-reversed,correct,0.3392300974529944,1,valid_win,81.86879109998699,8,,,,,,,,,,,s_076,1,2021_Mar_25_1647,Reversal,3.2.4,60.056453062267565,
14,exp1.png,exp2.png,0,0,0,0,0,14,14,14,,,,,,,,,,,,,,,,,,,,,,,,,False,14,15,False,exp1.png,exp2.png,trial_right_image,-1,exp2.png,1,exp1.png,exp2.png,0,4,reversed,incorrect,0.6840433247945065,0,valid_lose,86.80095179995988,8,,,,,,,,,,,s_076,1,2021_Mar_25_1647,Reversal,3.2.4,60.056453062267565,
15,exp3.png,exp4.png,0,0,0,0,0,15,15,15,,,,,,,,,,,,,,,,,,,,,,,,,False,15,16,False,exp3.png,exp4.png,trial_left_image,1,exp3.png,1,exp3.png,exp4.png,1,1,non-reversed,correct,0.8999140313204314,1,valid_win,92.0001960999798,9,,,,,,,,,,,s_076,1,2021_Mar_25_1647,Reversal,3.2.4,60.056453062267565,
16,exp1.png,exp2.png,0,0,0,0,0,16,16,16,,,,,,,,,,,,,,,,,,,,,,,,,False,16,17,True,exp2.png,exp1.png,trial_left_image,1,exp2.png,1,exp1.png,exp2.png,0,4,reversed,incorrect,0.06571574463978458,1,invalid_win,97.21481410006527,10,,,,,,,,,,,s_076,1,2021_Mar_25_1647,Reversal,3.2.4,60.056453062267565,
17,exp3.png,exp4.png,0,0,0,0,0,17,17,17,,,,,,,,,,,,,,,,,,,,,,,,,False,17,18,False,exp3.png,exp4.png,trial_left_image,1,exp3.png,1,exp3.png,exp4.png,1,1,non-reversed,correct,0.24806947498821452,0,invalid_lose,102.37778590002563,10,,,,,,,,,,,s_076,1,2021_Mar_25_1647,Reversal,3.2.4,60.056453062267565,
18,exp1.png,exp2.png,0,0,0,0,0,18,18,18,,,,,,,,,,,,,,,,,,,,,,,,,False,18,19,False,exp1.png,exp2.png,trial_left_image,1,exp1.png,1,exp1.png,exp2.png,1,3,reversed,correct,0.5422019552461633,1,valid_win,110.840547000058,11,,,,,,,,,,,s_076,1,2021_Mar_25_1647,Reversal,3.2.4,60.056453062267565,
19,exp3.png,exp4.png,0,0,0,0,0,19,19,19,,,,,,,,,,,,,,,,,,,,,,,,,False,19,20,True,exp4.png,exp3.png,trial_right_image,-1,exp3.png,1,exp3.png,exp4.png,1,1,non-reversed,correct,0.4008730547160446,1,valid_win,115.75764209998306,12,,,,,,,,,,,s_076,1,2021_Mar_25_1647,Reversal,3.2.4,60.056453062267565,
20,exp1.png,exp2.png,0,0,0,0,0,20,20,20,,,,,,,,,,,,,,,,,,,,,,,,,True,,,,,,,,,,,,,,,,,,,,,,,,,,,,,,,s_076,1,2021_Mar_25_1647,Reversal,3.2.4,60.056453062267565,
,,,0,0,0,0,,,,,0,0,0,0,,,,,,,,,,,,,,,,,,,,,,,,,,,,,,,,,,,,,,,,,,15,14,84,14,,,,,,,s_076,1,2021_Mar_25_1647,Reversal,3.2.4,60.056453062267565,
0,exp1.png,exp2.png,1,0,1,0,0,0,0,0,,,,,,,,,,,,,,,,,,,,,,,,,False,20,21,True,exp2.png,exp1.png,trial_right_image,-1,exp1.png,1,exp1.png,exp2.png,1,3,reversed,correct,0.30339648835492183,1,valid_win,148.19653149996884,13,,,,,,,,,,,s_076,1,2021_Mar_25_1647,Reversal,3.2.4,60.056453062267565,
1,exp3.png,exp4.png,1,0,1,0,0,1,1,1,,,,,,,,,,,,,,,,,,,,,,,,,False,21,22,False,exp3.png,exp4.png,trial_left_image,1,exp3.png,1,exp3.png,exp4.png,1,1,non-reversed,correct,0.7635935994200982,1,valid_win,152.74643030005973,14,,,,,,,,,,,s_076,1,2021_Mar_25_1647,Reversal,3.2.4,60.056453062267565,
2,exp1.png,exp2.png,1,0,1,0,0,2,2,2,,,,,,,,,,,,,,,,,,,,,,,,,False,22,23,False,exp1.png,exp2.png,trial_left_image,1,exp1.png,1,exp1.png,exp2.png,1,3,reversed,correct,0.1098465993968819,0,invalid_lose,157.4098336000461,14,,,,,,,,,,,s_076,1,2021_Mar_25_1647,Reversal,3.2.4,60.056453062267565,
3,exp3.png,exp4.png,1,0,1,0,0,3,3,3,,,,,,,,,,,,,,,,,,,,,,,,,False,23,24,False,exp3.png,exp4.png,trial_left_image,1,exp3.png,1,exp3.png,exp4.png,1,1,non-reversed,correct,0.15688061192335412,0,invalid_lose,162.05837520002387,14,,,,,,,,,,,s_076,1,2021_Mar_25_1647,Reversal,3.2.4,60.056453062267565,
4,exp1.png,exp2.png,1,0,1,0,0,4,4,4,,,,,,,,,,,,,,,,,,,,,,,,,False,24,25,False,exp1.png,exp2.png,trial_left_image,1,exp1.png,1,exp1.png,exp2.png,1,3,reversed,correct,0.7413085226451013,1,valid_win,166.5584057000233,15,,,,,,,,,,,s_076,1,2021_Mar_25_1647,Reversal,3.2.4,60.056453062267565,
5,exp3.png,exp4.png,1,0,1,0,0,5,5,5,,,,,,,,,,,,,,,,,,,,,,,,,False,25,26,True,exp4.png,exp3.png,trial_left_image,1,exp4.png,1,exp3.png,exp4.png,0,2,non-reversed,incorrect,0.019202580528348334,1,invalid_win,170.970399599988,16,,,,,,,,,,,s_076,1,2021_Mar_25_1647,Reversal,3.2.4,60.056453062267565,
6,exp1.png,exp2.png,1,0,1,0,0,6,6,6,,,,,,,,,,,,,,,,,,,,,,,,,False,26,27,True,exp2.png,exp1.png,trial_right_image,-1,exp1.png,1,exp1.png,exp2.png,1,3,reversed,correct,0.5695725119504816,1,valid_win,175.3535115000559,17,,,,,,,,,,,s_076,1,2021_Mar_25_1647,Reversal,3.2.4,60.056453062267565,
7,exp3.png,exp4.png,1,0,1,0,0,7,7,7,,,,,,,,,,,,,,,,,,,,,,,,,False,27,28,True,exp4.png,exp3.png,trial_left_image,1,exp4.png,1,exp3.png,exp4.png,0,2,non-reversed,incorrect,0.18152936648582996,1,invalid_win,180.08690950006712,18,,,,,,,,,,,s_076,1,2021_Mar_25_1647,Reversal,3.2.4,60.056453062267565,
8,exp1.png,exp2.png,1,0,1,0,0,8,8,8,,,,,,,,,,,,,,,,,,,,,,,,,False,28,29,False,exp1.png,exp2.png,trial_left_image,1,exp1.png,1,exp1.png,exp2.png,1,3,reversed,correct,0.6850076934735418,1,valid_win,185.4827343999641,19,,,,,,,,,,,s_076,1,2021_Mar_25_1647,Reversal,3.2.4,60.056453062267565,
9,exp3.png,exp4.png,1,0,1,0,0,9,9,9,,,,,,,,,,,,,,,,,,,,,,,,,False,29,30,True,exp4.png,exp3.png,trial_left_image,1,exp4.png,1,exp3.png,exp4.png,0,2,non-reversed,incorrect,0.9380731491993395,0,valid_lose,190.23234700004105,19,,,,,,,,,,,s_076,1,2021_Mar_25_1647,Reversal,3.2.4,60.056453062267565,
10,exp1.png,exp2.png,1,0,1,0,0,10,10,10,,,,,,,,,,,,,,,,,,,,,,,,,False,30,31,True,exp2.png,exp1.png,trial_right_image,-1,exp1.png,1,exp1.png,exp2.png,1,3,reversed,correct,0.9379053734347298,1,valid_win,194.48239719995763,20,,,,,,,,,,,s_076,1,2021_Mar_25_1647,Reversal,3.2.4,60.056453062267565,
11,exp3.png,exp4.png,1,0,1,0,0,11,11,11,,,,,,,,,,,,,,,,,,,,,,,,,False,31,32,True,exp4.png,exp3.png,trial_right_image,-1,exp3.png,1,exp3.png,exp4.png,1,1,non-reversed,correct,0.3506353212780925,1,valid_win,198.86239759996533,21,,,,,,,,,,,s_076,1,2021_Mar_25_1647,Reversal,3.2.4,60.056453062267565,
12,exp1.png,exp2.png,1,0,1,0,0,12,12,12,,,,,,,,,,,,,,,,,,,,,,,,,False,32,33,True,exp2.png,exp1.png,trial_right_image,-1,exp1.png,1,exp1.png,exp2.png,1,3,reversed,correct,0.32977078839736906,1,valid_win,203.379320200067,22,,,,,,,,,,,s_076,1,2021_Mar_25_1647,Reversal,3.2.4,60.056453062267565,
13,exp3.png,exp4.png,1,0,1,0,0,13,13,13,,,,,,,,,,,,,,,,,,,,,,,,,False,33,34,True,exp4.png,exp3.png,trial_right_image,-1,exp3.png,1,exp3.png,exp4.png,1,1,non-reversed,correct,0.3842429252108598,1,valid_win,207.76006070000585,23,,,,,,,,,,,s_076,1,2021_Mar_25_1647,Reversal,3.2.4,60.056453062267565,
14,exp1.png,exp2.png,1,0,1,0,0,14,14,14,,,,,,,,,,,,,,,,,,,,,,,,,False,34,35,False,exp1.png,exp2.png,trial_left_image,1,exp1.png,1,exp1.png,exp2.png,1,3,reversed,correct,0.8007400498115808,1,valid_win,212.35781660000794,24,,,,,,,,,,,s_076,1,2021_Mar_25_1647,Reversal,3.2.4,60.056453062267565,
15,exp3.png,exp4.png,1,0,1,0,0,15,15,15,,,,,,,,,,,,,,,,,,,,,,,,,False,35,36,False,exp3.png,exp4.png,trial_left_image,1,exp3.png,1,exp3.png,exp4.png,1,1,non-reversed,correct,0.33240109532534234,1,valid_win,217.32323029998224,25,,,,,,,,,,,s_076,1,2021_Mar_25_1647,Reversal,3.2.4,60.056453062267565,
16,exp1.png,exp2.png,1,0,1,0,0,16,16,16,,,,,,,,,,,,,,,,,,,,,,,,,False,36,37,True,exp2.png,exp1.png,trial_right_image,-1,exp1.png,1,exp1.png,exp2.png,1,3,reversed,correct,0.43315543550063507,1,valid_win,221.75474850006867,26,,,,,,,,,,,s_076,1,2021_Mar_25_1647,Reversal,3.2.4,60.056453062267565,
17,exp3.png,exp4.png,1,0,1,0,0,17,17,17,,,,,,,,,,,,,,,,,,,,,,,,,False,37,38,False,exp3.png,exp4.png,trial_left_image,1,exp3.png,1,exp3.png,exp4.png,1,1,non-reversed,correct,0.5850268020051769,1,valid_win,226.88841720006894,27,,,,,,,,,,,s_076,1,2021_Mar_25_1647,Reversal,3.2.4,60.056453062267565,
18,exp1.png,exp2.png,1,0,1,0,0,18,18,18,,,,,,,,,,,,,,,,,,,,,,,,,False,38,39,False,exp1.png,exp2.png,trial_left_image,1,exp1.png,1,exp1.png,exp2.png,1,3,reversed,correct,0.7055220942500395,1,valid_win,231.76833190000616,28,,,,,,,,,,,s_076,1,2021_Mar_25_1647,Reversal,3.2.4,60.056453062267565,
19,exp3.png,exp4.png,1,0,1,0,0,19,19,19,,,,,,,,,,,,,,,,,,,,,,,,,False,39,40,False,exp3.png,exp4.png,trial_left_image,1,exp3.png,1,exp3.png,exp4.png,1,1,non-reversed,correct,0.31586410944846854,1,valid_win,236.934558799956,29,,,,,,,,,,,s_076,1,2021_Mar_25_1647,Reversal,3.2.4,60.056453062267565,
20,exp1.png,exp2.png,1,0,1,0,0,20,20,20,,,,,,,,,,,,,,,,,,,,,,,,,True,,,,,,,,,,,,,,,,,,,,,,,,,,,,,,,s_076,1,2021_Mar_25_1647,Reversal,3.2.4,60.056453062267565,
,,,1,0,1,0,,,,,0,0,0,0,,,,,,,,,,,,,,,,,,,,,,,,,,,,,,,,,,,,,,,,,,100,0,70,6,,,,,,,s_076,1,2021_Mar_25_1647,Reversal,3.2.4,60.056453062267565,
0,exp1.png,exp2.png,2,0,2,0,0,0,0,0,,,,,,,,,,,,,,,,,,,,,,,,,False,40,41,False,exp1.png,exp2.png,trial_left_image,1,exp1.png,1,exp1.png,exp2.png,1,3,reversed,correct,0.2186573995210913,0,invalid_lose,264.0088704000227,29,,,,,,,,,,,s_076,1,2021_Mar_25_1647,Reversal,3.2.4,60.056453062267565,
1,exp3.png,exp4.png,2,0,2,0,0,1,1,1,,,,,,,,,,,,,,,,,,,,,,,,,False,41,42,True,exp4.png,exp3.png,trial_left_image,1,exp4.png,1,exp3.png,exp4.png,0,2,non-reversed,incorrect,0.939528028709079,0,valid_lose,268.6902606000658,29,,,,,,,,,,,s_076,1,2021_Mar_25_1647,Reversal,3.2.4,60.056453062267565,
2,exp1.png,exp2.png,2,0,2,0,0,2,2,2,,,,,,,,,,,,,,,,,,,,,,,,,False,42,43,False,exp1.png,exp2.png,trial_right_image,-1,exp2.png,1,exp1.png,exp2.png,0,4,reversed,incorrect,0.22191300334663444,1,invalid_win,272.8889551999746,30,,,,,,,,,,,s_076,1,2021_Mar_25_1647,Reversal,3.2.4,60.056453062267565,
3,exp3.png,exp4.png,2,0,2,0,0,3,3,3,,,,,,,,,,,,,,,,,,,,,,,,,False,43,44,True,exp4.png,exp3.png,trial_left_image,1,exp4.png,1,exp3.png,exp4.png,0,2,non-reversed,incorrect,0.6587740499203673,0,valid_lose,277.18731900001876,30,,,,,,,,,,,s_076,1,2021_Mar_25_1647,Reversal,3.2.4,60.056453062267565,
4,exp1.png,exp2.png,2,0,2,0,0,4,4,4,,,,,,,,,,,,,,,,,,,,,,,,,False,44,45,True,exp2.png,exp1.png,trial_left_image,1,exp2.png,1,exp1.png,exp2.png,0,4,reversed,incorrect,0.5557525117048489,0,valid_lose,281.4864617000567,30,,,,,,,,,,,s_076,1,2021_Mar_25_1647,Reversal,3.2.4,60.056453062267565,
5,exp3.png,exp4.png,2,0,2,0,0,5,5,5,,,,,,,,,,,,,,,,,,,,,,,,,False,45,46,False,exp3.png,exp4.png,trial_right_image,-1,exp4.png,1,exp3.png,exp4.png,0,2,non-reversed,incorrect,0.9431116711594828,0,valid_lose,285.83206970000174,30,,,,,,,,,,,s_076,1,2021_Mar_25_1647,Reversal,3.2.4,60.056453062267565,
6,exp1.png,exp2.png,2,0,2,0,0,6,6,6,,,,,,,,,,,,,,,,,,,,,,,,,False,46,47,True,exp2.png,exp1.png,trial_right_image,-1,exp1.png,1,exp1.png,exp2.png,1,3,reversed,correct,0.5968929181994758,1,valid_win,290.7630527999718,31,,,,,,,,,,,s_076,1,2021_Mar_25_1647,Reversal,3.2.4,60.056453062267565,
7,exp3.png,exp4.png,2,0,2,0,0,7,7,7,,,,,,,,,,,,,,,,,,,,,,,,,False,47,48,False,exp3.png,exp4.png,trial_left_image,1,exp3.png,1,exp3.png,exp4.png,1,1,non-reversed,correct,0.47583770212138576,1,valid_win,295.16149430000223,32,,,,,,,,,,,s_076,1,2021_Mar_25_1647,Reversal,3.2.4,60.056453062267565,
8,exp1.png,exp2.png,2,0,2,0,0,8,8,8,,,,,,,,,,,,,,,,,,,,,,,,,False,48,49,False,exp1.png,exp2.png,trial_right_image,-1,exp2.png,1,exp1.png,exp2.png,0,4,reversed,incorrect,0.17662127636224345,1,invalid_win,301.2956996000139,33,,,,,,,,,,,s_076,1,2021_Mar_25_1647,Reversal,3.2.4,60.056453062267565,
9,exp3.png,exp4.png,2,0,2,0,0,9,9,9,,,,,,,,,,,,,,,,,,,,,,,,,False,49,50,False,exp3.png,exp4.png,trial_right_image,-1,exp4.png,1,exp3.png,exp4.png,0,2,non-reversed,incorrect,0.6929379119200065,0,valid_lose,306.0455130999908,33,,,,,,,,,,,s_076,1,2021_Mar_25_1647,Reversal,3.2.4,60.056453062267565,
10,exp1.png,exp2.png,2,0,2,0,0,10,10,10,,,,,,,,,,,,,,,,,,,,,,,,,False,50,51,False,exp1.png,exp2.png,trial_left_image,1,exp1.png,1,exp1.png,exp2.png,1,3,reversed,correct,0.7753594829168164,1,valid_win,310.6917497999966,34,,,,,,,,,,,s_076,1,2021_Mar_25_1647,Reversal,3.2.4,60.056453062267565,
11,exp3.png,exp4.png,2,0,2,0,0,11,11,11,,,,,,,,,,,,,,,,,,,,,,,,,False,51,52,True,exp4.png,exp3.png,trial_right_image,-1,exp3.png,1,exp3.png,exp4.png,1,1,non-reversed,correct,0.8949813516285753,1,valid_win,318.0393719000276,35,,,,,,,,,,,s_076,1,2021_Mar_25_1647,Reversal,3.2.4,60.056453062267565,
12,exp1.png,exp2.png,2,0,2,0,0,12,12,12,,,,,,,,,,,,,,,,,,,,,,,,,False,52,53,False,exp1.png,exp2.png,trial_right_image,-1,exp2.png,1,exp1.png,exp2.png,0,4,reversed,incorrect,0.6875070501916248,0,valid_lose,322.3889833999565,35,,,,,,,,,,,s_076,1,2021_Mar_25_1647,Reversal,3.2.4,60.056453062267565,
13,exp3.png,exp4.png,2,0,2,0,0,13,13,13,,,,,,,,,,,,,,,,,,,,,,,,,False,53,54,True,exp4.png,exp3.png,trial_left_image,1,exp4.png,1,exp3.png,exp4.png,0,2,non-reversed,incorrect,0.5959156210120159,0,valid_lose,326.60273260006215,35,,,,,,,,,,,s_076,1,2021_Mar_25_1647,Reversal,3.2.4,60.056453062267565,
14,exp1.png,exp2.png,2,0,2,0,0,14,14,14,,,,,,,,,,,,,,,,,,,,,,,,,False,54,55,False,exp1.png,exp2.png,trial_right_image,-1,exp2.png,1,exp1.png,exp2.png,0,4,reversed,incorrect,0.5849724924741994,0,valid_lose,330.9177861000644,35,,,,,,,,,,,s_076,1,2021_Mar_25_1647,Reversal,3.2.4,60.056453062267565,
15,exp3.png,exp4.png,2,0,2,0,0,15,15,15,,,,,,,,,,,,,,,,,,,,,,,,,False,55,56,True,exp4.png,exp3.png,trial_left_image,1,exp4.png,1,exp3.png,exp4.png,0,2,non-reversed,incorrect,0.3457804946322187,0,valid_lose,334.88467489997856,35,,,,,,,,,,,s_076,1,2021_Mar_25_1647,Reversal,3.2.4,60.056453062267565,
16,exp1.png,exp2.png,2,0,2,0,0,16,16,16,,,,,,,,,,,,,,,,,,,,,,,,,False,56,57,False,exp1.png,exp2.png,trial_right_image,-1,exp2.png,1,exp1.png,exp2.png,0,4,reversed,incorrect,0.9717767583560616,0,valid_lose,338.845901099965,35,,,,,,,,,,,s_076,1,2021_Mar_25_1647,Reversal,3.2.4,60.056453062267565,
17,exp3.png,exp4.png,2,0,2,0,0,17,17,17,,,,,,,,,,,,,,,,,,,,,,,,,False,57,58,True,exp4.png,exp3.png,trial_left_image,1,exp4.png,1,exp3.png,exp4.png,0,2,non-reversed,incorrect,0.16439851429540853,1,invalid_win,342.7646617999999,36,,,,,,,,,,,s_076,1,2021_Mar_25_1647,Reversal,3.2.4,60.056453062267565,
18,exp1.png,exp2.png,2,0,2,0,0,18,18,18,,,,,,,,,,,,,,,,,,,,,,,,,False,58,59,True,exp2.png,exp1.png,trial_right_image,-1,exp1.png,1,exp1.png,exp2.png,1,3,reversed,correct,0.653301024960226,1,valid_win,346.7973071000306,37,,,,,,,,,,,s_076,1,2021_Mar_25_1647,Reversal,3.2.4,60.056453062267565,
19,exp3.png,exp4.png,2,0,2,0,0,19,19,19,,,,,,,,,,,,,,,,,,,,,,,,,False,59,60,True,exp4.png,exp3.png,trial_left_image,1,exp4.png,1,exp3.png,exp4.png,0,2,non-reversed,incorrect,0.3877731814824208,0,valid_lose,350.84457600000314,37,,,,,,,,,,,s_076,1,2021_Mar_25_1647,Reversal,3.2.4,60.056453062267565,
20,exp1.png,exp2.png,2,0,2,0,0,20,20,20,,,,,,,,,,,,,,,,,,,,,,,,,True,,,,,,,,,,,,,,,,,,,,,,,,,,,,,,,s_076,1,2021_Mar_25_1647,Reversal,3.2.4,60.056453062267565,
,,,2,0,2,0,,,,,0,0,0,0,,,,,,,,,,,,,,,,,,,,,,,,,,,,,,,,,,,,,,,,,,32,0,0,0,,,,,,,s_076,1,2021_Mar_25_1647,Reversal,3.2.4,60.056453062267565,
0,exp1.png,exp2.png,3,0,3,0,0,0,0,0,,,,,,,,,,,,,,,,,,,,,,,,,False,60,61,True,exp2.png,exp1.png,trial_right_image,-1,exp1.png,1,exp1.png,exp2.png,1,3,reversed,correct,0.7313093111013985,1,valid_win,368.60528600006364,38,,,,,,,,,,,s_076,1,2021_Mar_25_1647,Reversal,3.2.4,60.056453062267565,
1,exp3.png,exp4.png,3,0,3,0,0,1,1,1,,,,,,,,,,,,,,,,,,,,,,,,,False,61,62,True,exp4.png,exp3.png,trial_right_image,-1,exp3.png,1,exp3.png,exp4.png,1,1,non-reversed,correct,0.8508848491091964,1,valid_win,372.6206503000576,39,,,,,,,,,,,s_076,1,2021_Mar_25_1647,Reversal,3.2.4,60.056453062267565,
2,exp1.png,exp2.png,3,0,3,0,0,2,2,2,,,,,,,,,,,,,,,,,,,,,,,,,False,62,63,False,exp1.png,exp2.png,trial_left_image,1,exp1.png,1,exp1.png,exp2.png,1,3,reversed,correct,0.1809544061487094,0,invalid_lose,376.7180922999978,39,,,,,,,,,,,s_076,1,2021_Mar_25_1647,Reversal,3.2.4,60.056453062267565,
3,exp3.png,exp4.png,3,0,3,0,0,3,3,3,,,,,,,,,,,,,,,,,,,,,,,,,False,63,64,True,exp4.png,exp3.png,trial_left_image,1,exp4.png,1,exp3.png,exp4.png,0,2,non-reversed,incorrect,0.10715086428726772,1,invalid_win,381.5342168000061,40,,,,,,,,,,,s_076,1,2021_Mar_25_1647,Reversal,3.2.4,60.056453062267565,
4,exp1.png,exp2.png,3,0,3,0,0,4,4,4,,,,,,,,,,,,,,,,,,,,,,,,,False,64,65,True,exp2.png,exp1.png,trial_right_image,-1,exp1.png,1,exp1.png,exp2.png,1,3,reversed,correct,0.5999497932358202,1,valid_win,386.39923119999,41,,,,,,,,,,,s_076,1,2021_Mar_25_1647,Reversal,3.2.4,60.056453062267565,
5,exp3.png,exp4.png,3,0,3,0,0,5,5,5,,,,,,,,,,,,,,,,,,,,,,,,,False,65,66,False,exp3.png,exp4.png,trial_right_image,-1,exp4.png,1,exp3.png,exp4.png,0,2,non-reversed,incorrect,0.18728287546294664,1,invalid_win,391.0811291000573,42,,,,,,,,,,,s_076,1,2021_Mar_25_1647,Reversal,3.2.4,60.056453062267565,
6,exp1.png,exp2.png,3,0,3,0,0,6,6,6,,,,,,,,,,,,,,,,,,,,,,,,,False,66,67,True,exp2.png,exp1.png,trial_right_image,-1,exp1.png,1,exp1.png,exp2.png,1,3,reversed,correct,0.7645241536454285,1,valid_win,395.11272440000903,43,,,,,,,,,,,s_076,1,2021_Mar_25_1647,Reversal,3.2.4,60.056453062267565,
7,exp3.png,exp4.png,3,0,3,0,0,7,7,7,,,,,,,,,,,,,,,,,,,,,,,,,False,67,68,True,exp4.png,exp3.png,trial_right_image,-1,exp3.png,1,exp3.png,exp4.png,1,1,non-reversed,correct,0.8356666648842177,1,valid_win,399.06245049997233,44,,,,,,,,,,,s_076,1,2021_Mar_25_1647,Reversal,3.2.4,60.056453062267565,
8,exp1.png,exp2.png,3,0,3,0,0,8,8,8,,,,,,,,,,,,,,,,,,,,,,,,,False,68,69,False,exp1.png,exp2.png,trial_right_image,-1,exp2.png,1,exp1.png,exp2.png,0,4,reversed,incorrect,0.12544705613344487,1,invalid_win,402.87703009997495,45,,,,,,,,,,,s_076,1,2021_Mar_25_1647,Reversal,3.2.4,60.056453062267565,
9,exp3.png,exp4.png,3,0,3,0,0,9,9,9,,,,,,,,,,,,,,,,,,,,,,,,,False,69,70,False,exp3.png,exp4.png,trial_right_image,-1,exp4.png,1,exp3.png,exp4.png,0,2,non-reversed,incorrect,0.5512989791008681,0,valid_lose,406.72687420004513,45,,,,,,,,,,,s_076,1,2021_Mar_25_1647,Reversal,3.2.4,60.056453062267565,
10,exp1.png,exp2.png,3,0,3,0,0,10,10,10,,,,,,,,,,,,,,,,,,,,,,,,,False,70,71,True,exp2.png,exp1.png,trial_right_image,-1,exp1.png,1,exp1.png,exp2.png,1,3,reversed,correct,0.3774399780006541,1,valid_win,410.5408649999881,46,,,,,,,,,,,s_076,1,2021_Mar_25_1647,Reversal,3.2.4,60.056453062267565,
11,exp3.png,exp4.png,3,0,3,0,0,11,11,11,,,,,,,,,,,,,,,,,,,,,,,,,False,71,72,False,exp3.png,exp4.png,trial_right_image,-1,exp4.png,1,exp3.png,exp4.png,0,2,non-reversed,incorrect,0.2614483269407304,0,valid_lose,414.5563708000118,46,,,,,,,,,,,s_076,1,2021_Mar_25_1647,Reversal,3.2.4,60.056453062267565,
12,exp1.png,exp2.png,3,0,3,0,0,12,12,12,,,,,,,,,,,,,,,,,,,,,,,,,False,72,73,False,exp1.png,exp2.png,trial_right_image,-1,exp2.png,1,exp1.png,exp2.png,0,4,reversed,incorrect,0.7946700494234045,0,valid_lose,418.40353010001127,46,,,,,,,,,,,s_076,1,2021_Mar_25_1647,Reversal,3.2.4,60.056453062267565,
13,exp3.png,exp4.png,3,0,3,0,0,13,13,13,,,,,,,,,,,,,,,,,,,,,,,,,False,73,74,True,exp4.png,exp3.png,trial_right_image,-1,exp3.png,1,exp3.png,exp4.png,1,1,non-reversed,correct,0.329912473498547,1,valid_win,422.43814980005845,47,,,,,,,,,,,s_076,1,2021_Mar_25_1647,Reversal,3.2.4,60.056453062267565,
14,exp1.png,exp2.png,3,0,3,0,0,14,14,14,,,,,,,,,,,,,,,,,,,,,,,,,False,74,75,True,exp2.png,exp1.png,trial_right_image,-1,exp1.png,1,exp1.png,exp2.png,1,3,reversed,correct,0.6838480604653882,1,valid_win,426.3041853000177,48,,,,,,,,,,,s_076,1,2021_Mar_25_1647,Reversal,3.2.4,60.056453062267565,
15,exp3.png,exp4.png,3,0,3,0,0,15,15,15,,,,,,,,,,,,,,,,,,,,,,,,,False,75,76,False,exp3.png,exp4.png,trial_right_image,-1,exp4.png,1,exp3.png,exp4.png,0,2,non-reversed,incorrect,0.23339863493019686,1,invalid_win,430.13444289995823,49,,,,,,,,,,,s_076,1,2021_Mar_25_1647,Reversal,3.2.4,60.056453062267565,
16,exp1.png,exp2.png,3,0,3,0,0,16,16,16,,,,,,,,,,,,,,,,,,,,,,,,,False,76,77,True,exp2.png,exp1.png,trial_right_image,-1,exp1.png,1,exp1.png,exp2.png,1,3,reversed,correct,0.8369436566124434,1,valid_win,434.04975560004823,50,,,,,,,,,,,s_076,1,2021_Mar_25_1647,Reversal,3.2.4,60.056453062267565,
17,exp3.png,exp4.png,3,0,3,0,0,17,17,17,,,,,,,,,,,,,,,,,,,,,,,,,False,77,78,False,exp3.png,exp4.png,trial_left_image,1,exp3.png,1,exp3.png,exp4.png,1,1,non-reversed,correct,0.35446074996010135,1,valid_win,437.98447110003326,51,,,,,,,,,,,s_076,1,2021_Mar_25_1647,Reversal,3.2.4,60.056453062267565,
18,exp1.png,exp2.png,3,0,3,0,0,18,18,18,,,,,,,,,,,,,,,,,,,,,,,,,False,78,79,False,exp1.png,exp2.png,trial_right_image,-1,exp2.png,1,exp1.png,exp2.png,0,4,reversed,incorrect,0.19355435156220324,1,invalid_win,441.86510439997073,52,,,,,,,,,,,s_076,1,2021_Mar_25_1647,Reversal,3.2.4,60.056453062267565,
19,exp3.png,exp4.png,3,0,3,0,0,19,19,19,,,,,,,,,,,,,,,,,,,,,,,,,False,79,80,False,exp3.png,exp4.png,trial_right_image,-1,exp4.png,1,exp3.png,exp4.png,0,2,non-reversed,incorrect,0.16613785573527295,1,invalid_win,445.7122439000523,53,,,,,,,,,,,s_076,1,2021_Mar_25_1647,Reversal,3.2.4,60.056453062267565,
20,exp1.png,exp2.png,3,0,3,0,0,20,20,20,,,,,,,,,,,,,,,,,,,,,,,,,True,,,,,,,,,,,,,,,,,,,,,,,,,,,,,,,s_076,1,2021_Mar_25_1647,Reversal,3.2.4,60.056453062267565,
,,,3,0,3,0,,,,,0,0,0,0,,,,,,,,,,,,,,,,,,,,,,,,,,,,,,,,,,,,,,,,,,24,20,20,19,,,,,,,s_076,1,2021_Mar_25_1647,Reversal,3.2.4,60.056453062267565,
0,exp1.png,exp2.png,,,,,,,,,,,,,,,,,0,0,0,0,0,0,0,0,,,,,,,,,False,0,81,True,exp2.png,exp1.png,trial_right_image,-1,exp1.png,1,exp2.png,exp1.png,1,3,reversed,incorrect,0.008983536617565346,1,invalid_win,462.2233729000436,54,,,,,459.9826203000266,,,,,,s_076,1,2021_Mar_25_1647,Reversal,3.2.4,60.056453062267565,
1,exp3.png,exp4.png,,,,,,,,,,,,,,,,,0,0,0,0,0,1,1,1,,,,,,,,,False,1,82,True,exp4.png,exp3.png,trial_right_image,-1,exp3.png,1,exp3.png,exp4.png,1,1,non-reversed,correct,0.4375543848377499,1,valid_win,466.08931630000006,55,,,,,,,,,,,s_076,1,2021_Mar_25_1647,Reversal,3.2.4,60.056453062267565,
2,exp1.png,exp2.png,,,,,,,,,,,,,,,,,0,0,0,0,0,2,2,2,,,,,,,,,False,2,83,True,exp2.png,exp1.png,trial_right_image,-1,exp1.png,1,exp2.png,exp1.png,1,3,reversed,incorrect,0.24299694965448015,1,invalid_win,469.88728240004275,56,,,,,,,,,,,s_076,1,2021_Mar_25_1647,Reversal,3.2.4,60.056453062267565,
3,exp3.png,exp4.png,,,,,,,,,,,,,,,,,0,0,0,0,0,3,3,3,,,,,,,,,False,3,84,False,exp3.png,exp4.png,trial_left_image,1,exp3.png,1,exp3.png,exp4.png,1,1,non-reversed,correct,0.547048850012529,1,valid_win,473.8863506000489,57,,,,,,,,,,,s_076,1,2021_Mar_25_1647,Reversal,3.2.4,60.056453062267565,
4,exp1.png,exp2.png,,,,,,,,,,,,,,,,,0,0,0,0,0,4,4,4,,,,,,,,,False,4,85,False,exp1.png,exp2.png,trial_right_image,-1,exp2.png,1,exp2.png,exp1.png,0,4,reversed,correct,0.34954063822311643,1,valid_win,477.7197194000473,58,,,,,,,,,,,s_076,1,2021_Mar_25_1647,Reversal,3.2.4,60.056453062267565,
5,exp3.png,exp4.png,,,,,,,,,,,,,,,,,0,0,0,0,0,5,5,5,,,,,,,,,False,5,86,True,exp4.png,exp3.png,trial_right_image,-1,exp3.png,1,exp3.png,exp4.png,1,1,non-reversed,correct,0.4421349259595643,1,valid_win,481.6186037999578,59,,,,,,,,,,,s_076,1,2021_Mar_25_1647,Reversal,3.2.4,60.056453062267565,
6,exp1.png,exp2.png,,,,,,,,,,,,,,,,,0,0,0,0,0,6,6,6,,,,,,,,,False,6,87,True,exp2.png,exp1.png,trial_right_image,-1,exp1.png,1,exp2.png,exp1.png,1,3,reversed,incorrect,0.740496082134011,0,valid_lose,485.58208439999726,59,,,,,,,,,,,s_076,1,2021_Mar_25_1647,Reversal,3.2.4,60.056453062267565,
7,exp3.png,exp4.png,,,,,,,,,,,,,,,,,0,0,0,0,0,7,7,7,,,,,,,,,False,7,88,True,exp4.png,exp3.png,trial_right_image,-1,exp3.png,1,exp3.png,exp4.png,1,1,non-reversed,correct,0.6975082982879381,1,valid_win,489.4491452999646,60,,,,,,,,,,,s_076,1,2021_Mar_25_1647,Reversal,3.2.4,60.056453062267565,
8,exp1.png,exp2.png,,,,,,,,,,,,,,,,,0,0,0,0,0,8,8,8,,,,,,,,,False,8,89,True,exp2.png,exp1.png,trial_left_image,1,exp2.png,1,exp2.png,exp1.png,0,4,reversed,correct,0.5052577228789227,1,valid_win,493.3786105000181,61,,,,,,,,,,,s_076,1,2021_Mar_25_1647,Reversal,3.2.4,60.056453062267565,
9,exp3.png,exp4.png,,,,,,,,,,,,,,,,,0,0,0,0,0,9,9,9,,,,,,,,,False,9,90,True,exp4.png,exp3.png,trial_right_image,-1,exp3.png,1,exp3.png,exp4.png,1,1,non-reversed,correct,0.28586981082109675,1,valid_win,497.2939463000512,62,,,,,,,,,,,s_076,1,2021_Mar_25_1647,Reversal,3.2.4,60.056453062267565,
10,exp1.png,exp2.png,,,,,,,,,,,,,,,,,0,0,0,0,0,10,10,10,,,,,,,,,False,10,91,False,exp1.png,exp2.png,trial_right_image,-1,exp2.png,1,exp2.png,exp1.png,0,4,reversed,correct,0.5886941196642066,1,valid_win,501.14486380002927,63,,,,,,,,,,,s_076,1,2021_Mar_25_1647,Reversal,3.2.4,60.056453062267565,
11,exp3.png,exp4.png,,,,,,,,,,,,,,,,,0,0,0,0,0,11,11,11,,,,,,,,,False,11,92,False,exp3.png,exp4.png,trial_right_image,-1,exp4.png,1,exp3.png,exp4.png,0,2,non-reversed,incorrect,0.8582075765817836,0,valid_lose,505.02628310001455,63,,,,,,,,,,,s_076,1,2021_Mar_25_1647,Reversal,3.2.4,60.056453062267565,
12,exp1.png,exp2.png,,,,,,,,,,,,,,,,,0,0,0,0,0,12,12,12,,,,,,,,,False,12,93,False,exp1.png,exp2.png,trial_right_image,-1,exp2.png,1,exp2.png,exp1.png,0,4,reversed,correct,0.15206771143526254,0,invalid_lose,508.8425362999551,63,,,,,,,,,,,s_076,1,2021_Mar_25_1647,Reversal,3.2.4,60.056453062267565,
13,exp3.png,exp4.png,,,,,,,,,,,,,,,,,0,0,0,0,0,13,13,13,,,,,,,,,False,13,94,True,exp4.png,exp3.png,trial_right_image,-1,exp3.png,1,exp3.png,exp4.png,1,1,non-reversed,correct,0.21179233097619365,0,invalid_lose,512.6751867999556,63,,,,,,,,,,,s_076,1,2021_Mar_25_1647,Reversal,3.2.4,60.056453062267565,
14,exp1.png,exp2.png,,,,,,,,,,,,,,,,,0,0,0,0,0,14,14,14,,,,,,,,,False,14,95,False,exp1.png,exp2.png,trial_left_image,1,exp1.png,1,exp2.png,exp1.png,1,3,reversed,incorrect,0.8881804483008618,0,valid_lose,516.5403466999996,63,,,,,,,,,,,s_076,1,2021_Mar_25_1647,Reversal,3.2.4,60.056453062267565,
15,exp3.png,exp4.png,,,,,,,,,,,,,,,,,0,0,0,0,0,15,15,15,,,,,,,,,False,15,96,False,exp3.png,exp4.png,trial_right_image,-1,exp4.png,1,exp3.png,exp4.png,0,2,non-reversed,incorrect,0.2853306194296219,0,valid_lose,520.3193863000488,63,,,,,,,,,,,s_076,1,2021_Mar_25_1647,Reversal,3.2.4,60.056453062267565,
16,exp1.png,exp2.png,,,,,,,,,,,,,,,,,0,0,0,0,0,16,16,16,,,,,,,,,False,16,97,False,exp1.png,exp2.png,trial_left_image,1,exp1.png,1,exp2.png,exp1.png,1,3,reversed,incorrect,0.17168192836378637,1,invalid_win,524.2523480000673,64,,,,,,,,,,,s_076,1,2021_Mar_25_1647,Reversal,3.2.4,60.056453062267565,
17,exp3.png,exp4.png,,,,,,,,,,,,,,,,,0,0,0,0,0,17,17,17,,,,,,,,,False,17,98,False,exp3.png,exp4.png,trial_right_image,-1,exp4.png,1,exp3.png,exp4.png,0,2,non-reversed,incorrect,0.9121384688975928,0,valid_lose,528.2176671000198,64,,,,,,,,,,,s_076,1,2021_Mar_25_1647,Reversal,3.2.4,60.056453062267565,
18,exp1.png,exp2.png,,,,,,,,,,,,,,,,,0,0,0,0,0,18,18,18,,,,,,,,,False,18,99,True,exp2.png,exp1.png,trial_left_image,1,exp2.png,1,exp2.png,exp1.png,0,4,reversed,correct,0.4590569637547849,1,valid_win,532.199080200051,65,,,,,,,,,,,s_076,1,2021_Mar_25_1647,Reversal,3.2.4,60.056453062267565,
19,exp3.png,exp4.png,,,,,,,,,,,,,,,,,0,0,0,0,0,19,19,19,,,,,,,,,False,19,100,False,exp3.png,exp4.png,trial_left_image,1,exp3.png,1,exp3.png,exp4.png,1,1,non-reversed,correct,0.010768012884325495,0,invalid_lose,536.082136800047,65,,,,,,,,,,,s_076,1,2021_Mar_25_1647,Reversal,3.2.4,60.056453062267565,
20,exp1.png,exp2.png,,,,,,,,,,,,,,,,,0,0,0,0,0,20,20,20,,,,,,,,,True,,,,,,,,,,,,,,,,,,,,,,,,,,,,,,,s_076,1,2021_Mar_25_1647,Reversal,3.2.4,60.056453062267565,
,,,,,,,,,,,,,,,,,,,0,0,0,0,,,,,0,0,0,0,,,,,,,,,,,,,,,,,,,,,,,,,,0,0,0,0,,,,,,,s_076,1,2021_Mar_25_1647,Reversal,3.2.4,60.056453062267565,
0,exp1.png,exp2.png,,,,,,,,,,,,,,,,,1,0,1,0,0,0,0,0,,,,,,,,,False,20,101,True,exp2.png,exp1.png,trial_right_image,-1,exp1.png,1,exp2.png,exp1.png,1,3,reversed,incorrect,0.3550785812094044,0,valid_lose,552.0429817000404,65,,,,,,,,,,,s_076,1,2021_Mar_25_1647,Reversal,3.2.4,60.056453062267565,
1,exp3.png,exp4.png,,,,,,,,,,,,,,,,,1,0,1,0,0,1,1,1,,,,,,,,,False,21,102,True,exp4.png,exp3.png,trial_left_image,1,exp4.png,1,exp3.png,exp4.png,0,2,non-reversed,incorrect,0.7578526506058422,0,valid_lose,560.2731837000465,65,,,,,,,,,,,s_076,1,2021_Mar_25_1647,Reversal,3.2.4,60.056453062267565,
2,exp1.png,exp2.png,,,,,,,,,,,,,,,,,1,0,1,0,0,2,2,2,,,,,,,,,False,22,103,True,exp2.png,exp1.png,trial_right_image,-1,exp1.png,1,exp2.png,exp1.png,1,3,reversed,incorrect,0.19734433195641543,1,invalid_win,564.3902380999643,66,,,,,,,,,,,s_076,1,2021_Mar_25_1647,Reversal,3.2.4,60.056453062267565,
3,exp3.png,exp4.png,,,,,,,,,,,,,,,,,1,0,1,0,0,3,3,3,,,,,,,,,False,23,104,True,exp4.png,exp3.png,trial_left_image,1,exp4.png,1,exp3.png,exp4.png,0,2,non-reversed,incorrect,0.05986063818009202,1,invalid_win,568.8389231000328,67,,,,,,,,,,,s_076,1,2021_Mar_25_1647,Reversal,3.2.4,60.056453062267565,
4,exp1.png,exp2.png,,,,,,,,,,,,,,,,,1,0,1,0,0,4,4,4,,,,,,,,,False,24,105,False,exp1.png,exp2.png,trial_left_image,1,exp1.png,1,exp2.png,exp1.png,1,3,reversed,incorrect,0.8365196490342305,0,valid_lose,573.7039347999962,67,,,,,,,,,,,s_076,1,2021_Mar_25_1647,Reversal,3.2.4,60.056453062267565,
5,exp3.png,exp4.png,,,,,,,,,,,,,,,,,1,0,1,0,0,5,5,5,,,,,,,,,False,25,106,False,exp3.png,exp4.png,trial_right_image,-1,exp4.png,1,exp3.png,exp4.png,0,2,non-reversed,incorrect,0.497694348995929,0,valid_lose,579.2846109999809,67,,,,,,,,,,,s_076,1,2021_Mar_25_1647,Reversal,3.2.4,60.056453062267565,
6,exp1.png,exp2.png,,,,,,,,,,,,,,,,,1,0,1,0,0,6,6,6,,,,,,,,,False,26,107,False,exp1.png,exp2.png,trial_right_image,-1,exp2.png,1,exp2.png,exp1.png,0,4,reversed,correct,0.9557835017986311,1,valid_win,583.7321795000462,68,,,,,,,,,,,s_076,1,2021_Mar_25_1647,Reversal,3.2.4,60.056453062267565,
7,exp3.png,exp4.png,,,,,,,,,,,,,,,,,1,0,1,0,0,7,7,7,,,,,,,,,False,27,108,True,exp4.png,exp3.png,trial_left_image,1,exp4.png,1,exp3.png,exp4.png,0,2,non-reversed,incorrect,0.2933329821059002,0,valid_lose,588.1308758000378,68,,,,,,,,,,,s_076,1,2021_Mar_25_1647,Reversal,3.2.4,60.056453062267565,
8,exp1.png,exp2.png,,,,,,,,,,,,,,,,,1,0,1,0,0,8,8,8,,,,,,,,,False,28,109,True,exp2.png,exp1.png,trial_right_image,-1,exp1.png,1,exp2.png,exp1.png,1,3,reversed,incorrect,0.3432672868692326,0,valid_lose,592.8306302999845,68,,,,,,,,,,,s_076,1,2021_Mar_25_1647,Reversal,3.2.4,60.056453062267565,
9,exp3.png,exp4.png,,,,,,,,,,,,,,,,,1,0,1,0,0,9,9,9,,,,,,,,,False,29,110,False,exp3.png,exp4.png,trial_left_image,1,exp3.png,1,exp3.png,exp4.png,1,1,non-reversed,correct,0.4939948131708307,1,valid_win,598.2773656999925,69,,,,,,,,,,,s_076,1,2021_Mar_25_1647,Reversal,3.2.4,60.056453062267565,
10,exp1.png,exp2.png,,,,,,,,,,,,,,,,,1,0,1,0,0,10,10,10,,,,,,,,,False,30,111,False,exp1.png,exp2.png,trial_right_image,-1,exp2.png,1,exp2.png,exp1.png,0,4,reversed,correct,0.6459568132548648,1,valid_win,603.1085114000598,70,,,,,,,,,,,s_076,1,2021_Mar_25_1647,Reversal,3.2.4,60.056453062267565,
11,exp3.png,exp4.png,,,,,,,,,,,,,,,,,1,0,1,0,0,11,11,11,,,,,,,,,False,31,112,False,exp3.png,exp4.png,trial_left_image,1,exp3.png,1,exp3.png,exp4.png,1,1,non-reversed,correct,0.9778519294606364,1,valid_win,607.6574808000587,71,,,,,,,,,,,s_076,1,2021_Mar_25_1647,Reversal,3.2.4,60.056453062267565,
12,exp1.png,exp2.png,,,,,,,,,,,,,,,,,1,0,1,0,0,12,12,12,,,,,,,,,False,32,113,True,exp2.png,exp1.png,trial_right_image,-1,exp1.png,1,exp2.png,exp1.png,1,3,reversed,incorrect,0.449798056175549,0,valid_lose,611.9892409000313,71,,,,,,,,,,,s_076,1,2021_Mar_25_1647,Reversal,3.2.4,60.056453062267565,
13,exp3.png,exp4.png,,,,,,,,,,,,,,,,,1,0,1,0,0,13,13,13,,,,,,,,,False,33,114,True,exp4.png,exp3.png,trial_right_image,-1,exp3.png,1,exp3.png,exp4.png,1,1,non-reversed,correct,0.42411411967419543,1,valid_win,617.6024125999538,72,,,,,,,,,,,s_076,1,2021_Mar_25_1647,Reversal,3.2.4,60.056453062267565,
14,exp1.png,exp2.png,,,,,,,,,,,,,,,,,1,0,1,0,0,14,14,14,,,,,,,,,False,34,115,True,exp2.png,exp1.png,trial_left_image,1,exp2.png,1,exp2.png,exp1.png,0,4,reversed,correct,0.5026644308269881,1,valid_win,622.1193247999763,73,,,,,,,,,,,s_076,1,2021_Mar_25_1647,Reversal,3.2.4,60.056453062267565,
15,exp3.png,exp4.png,,,,,,,,,,,,,,,,,1,0,1,0,0,15,15,15,,,,,,,,,False,35,116,False,exp3.png,exp4.png,trial_left_image,1,exp3.png,1,exp3.png,exp4.png,1,1,non-reversed,correct,0.1040210582238622,0,invalid_lose,627.3670407000463,73,,,,,,,,,,,s_076,1,2021_Mar_25_1647,Reversal,3.2.4,60.056453062267565,
16,exp1.png,exp2.png,,,,,,,,,,,,,,,,,1,0,1,0,0,16,16,16,,,,,,,,,False,36,117,True,exp2.png,exp1.png,trial_left_image,1,exp2.png,1,exp2.png,exp1.png,0,4,reversed,correct,0.29351712883093095,1,valid_win,632.1158302000258,74,,,,,,,,,,,s_076,1,2021_Mar_25_1647,Reversal,3.2.4,60.056453062267565,
17,exp3.png,exp4.png,,,,,,,,,,,,,,,,,1,0,1,0,0,17,17,17,,,,,,,,,False,37,118,False,exp3.png,exp4.png,trial_left_image,1,exp3.png,1,exp3.png,exp4.png,1,1,non-reversed,correct,0.4116187381493901,1,valid_win,636.597732800059,75,,,,,,,,,,,s_076,1,2021_Mar_25_1647,Reversal,3.2.4,60.056453062267565,
18,exp1.png,exp2.png,,,,,,,,,,,,,,,,,1,0,1,0,0,18,18,18,,,,,,,,,False,38,119,False,exp1.png,exp2.png,trial_right_image,-1,exp2.png,1,exp2.png,exp1.png,0,4,reversed,correct,0.186781911467088,0,invalid_lose,643.9786056999583,75,,,,,,,,,,,s_076,1,2021_Mar_25_1647,Reversal,3.2.4,60.056453062267565,
19,exp3.png,exp4.png,,,,,,,,,,,,,,,,,1,0,1,0,0,19,19,19,,,,,,,,,False,39,120,False,exp3.png,exp4.png,trial_left_image,1,exp3.png,1,exp3.png,exp4.png,1,1,non-reversed,correct,0.7734483460575327,1,valid_win,648.6916653000517,76,,,,,,,,,,,s_076,1,2021_Mar_25_1647,Reversal,3.2.4,60.056453062267565,
20,exp1.png,exp2.png,,,,,,,,,,,,,,,,,1,0,1,0,0,20,20,20,,,,,,,,,True,,,,,,,,,,,,,,,,,,,,,,,,,,,,,,,s_076,1,2021_Mar_25_1647,Reversal,3.2.4,60.056453062267565,
,,,,,,,,,,,,,,,,,,,1,0,1,0,,,,,0,0,0,0,,,,,,,,,,,,,,,,,,,,,,,,,,78,100,82,88,,,,,,,s_076,1,2021_Mar_25_1647,Reversal,3.2.4,60.056453062267565,
0,exp1.png,exp2.png,,,,,,,,,,,,,,,,,2,0,2,0,0,0,0,0,,,,,,,,,False,40,121,False,exp1.png,exp2.png,trial_right_image,-1,exp2.png,1,exp2.png,exp1.png,0,4,reversed,correct,0.5586017866368044,1,valid_win,667.6039004999911,77,,,,,,,,,,,s_076,1,2021_Mar_25_1647,Reversal,3.2.4,60.056453062267565,
1,exp3.png,exp4.png,,,,,,,,,,,,,,,,,2,0,2,0,0,1,1,1,,,,,,,,,False,41,122,True,exp4.png,exp3.png,trial_right_image,-1,exp3.png,1,exp3.png,exp4.png,1,1,non-reversed,correct,0.9640029995853873,1,valid_win,672.2183030999731,78,,,,,,,,,,,s_076,1,2021_Mar_25_1647,Reversal,3.2.4,60.056453062267565,
2,exp1.png,exp2.png,,,,,,,,,,,,,,,,,2,0,2,0,0,2,2,2,,,,,,,,,False,42,123,True,exp2.png,exp1.png,trial_left_image,1,exp2.png,1,exp2.png,exp1.png,0,4,reversed,correct,0.771584878040123,1,valid_win,676.6355956000043,79,,,,,,,,,,,s_076,1,2021_Mar_25_1647,Reversal,3.2.4,60.056453062267565,
3,exp3.png,exp4.png,,,,,,,,,,,,,,,,,2,0,2,0,0,3,3,3,,,,,,,,,False,43,124,False,exp3.png,exp4.png,trial_left_image,1,exp3.png,1,exp3.png,exp4.png,1,1,non-reversed,correct,0.3816333612301588,1,valid_win,681.1825958000263,80,,,,,,,,,,,s_076,1,2021_Mar_25_1647,Reversal,3.2.4,60.056453062267565,
4,exp1.png,exp2.png,,,,,,,,,,,,,,,,,2,0,2,0,0,4,4,4,,,,,,,,,False,44,125,False,exp1.png,exp2.png,trial_right_image,-1,exp2.png,1,exp2.png,exp1.png,0,4,reversed,correct,0.7496156417330073,1,valid_win,686.0155767999822,81,,,,,,,,,,,s_076,1,2021_Mar_25_1647,Reversal,3.2.4,60.056453062267565,
5,exp3.png,exp4.png,,,,,,,,,,,,,,,,,2,0,2,0,0,5,5,5,,,,,,,,,False,45,126,True,exp4.png,exp3.png,trial_left_image,1,exp4.png,1,exp3.png,exp4.png,0,2,non-reversed,incorrect,0.25116897300162266,0,valid_lose,690.5311505000573,81,,,,,,,,,,,s_076,1,2021_Mar_25_1647,Reversal,3.2.4,60.056453062267565,
6,exp1.png,exp2.png,,,,,,,,,,,,,,,,,2,0,2,0,0,6,6,6,,,,,,,,,False,46,127,True,exp2.png,exp1.png,trial_right_image,-1,exp1.png,1,exp2.png,exp1.png,1,3,reversed,incorrect,0.7380957321814252,0,valid_lose,695.7264949000673,81,,,,,,,,,,,s_076,1,2021_Mar_25_1647,Reversal,3.2.4,60.056453062267565,
7,exp3.png,exp4.png,,,,,,,,,,,,,,,,,2,0,2,0,0,7,7,7,,,,,,,,,False,47,128,True,exp4.png,exp3.png,trial_right_image,-1,exp3.png,1,exp3.png,exp4.png,1,1,non-reversed,correct,0.2347135694158412,0,invalid_lose,704.0930327000096,81,,,,,,,,,,,s_076,1,2021_Mar_25_1647,Reversal,3.2.4,60.056453062267565,
8,exp1.png,exp2.png,,,,,,,,,,,,,,,,,2,0,2,0,0,8,8,8,,,,,,,,,False,48,129,True,exp2.png,exp1.png,trial_left_image,1,exp2.png,1,exp2.png,exp1.png,0,4,reversed,correct,0.3905286467852771,1,valid_win,709.1079630999593,82,,,,,,,,,,,s_076,1,2021_Mar_25_1647,Reversal,3.2.4,60.056453062267565,
9,exp3.png,exp4.png,,,,,,,,,,,,,,,,,2,0,2,0,0,9,9,9,,,,,,,,,False,49,130,False,exp3.png,exp4.png,trial_left_image,1,exp3.png,1,exp3.png,exp4.png,1,1,non-reversed,correct,0.23814518693116205,0,invalid_lose,713.6715093000093,82,,,,,,,,,,,s_076,1,2021_Mar_25_1647,Reversal,3.2.4,60.056453062267565,
10,exp1.png,exp2.png,,,,,,,,,,,,,,,,,2,0,2,0,0,10,10,10,,,,,,,,,False,50,131,False,exp1.png,exp2.png,trial_right_image,-1,exp2.png,1,exp2.png,exp1.png,0,4,reversed,correct,0.523812404119087,1,valid_win,718.3535139999585,83,,,,,,,,,,,s_076,1,2021_Mar_25_1647,Reversal,3.2.4,60.056453062267565,
11,exp3.png,exp4.png,,,,,,,,,,,,,,,,,2,0,2,0,0,11,11,11,,,,,,,,,False,51,132,False,exp3.png,exp4.png,trial_left_image,1,exp3.png,1,exp3.png,exp4.png,1,1,non-reversed,correct,0.033530687696075256,0,invalid_lose,722.5355343000265,83,,,,,,,,,,,s_076,1,2021_Mar_25_1647,Reversal,3.2.4,60.056453062267565,
12,exp1.png,exp2.png,,,,,,,,,,,,,,,,,2,0,2,0,0,12,12,12,,,,,,,,,False,52,133,True,exp2.png,exp1.png,trial_right_image,-1,exp1.png,1,exp2.png,exp1.png,1,3,reversed,incorrect,0.6994125156364684,0,valid_lose,726.8339323999826,83,,,,,,,,,,,s_076,1,2021_Mar_25_1647,Reversal,3.2.4,60.056453062267565,
13,exp3.png,exp4.png,,,,,,,,,,,,,,,,,2,0,2,0,0,13,13,13,,,,,,,,,False,53,134,True,exp4.png,exp3.png,trial_right_image,-1,exp3.png,1,exp3.png,exp4.png,1,1,non-reversed,correct,0.5835677267918965,1,valid_win,731.3696024999954,84,,,,,,,,,,,s_076,1,2021_Mar_25_1647,Reversal,3.2.4,60.056453062267565,
14,exp1.png,exp2.png,,,,,,,,,,,,,,,,,2,0,2,0,0,14,14,14,,,,,,,,,False,54,135,True,exp2.png,exp1.png,trial_left_image,1,exp2.png,1,exp2.png,exp1.png,0,4,reversed,correct,0.8294948239427071,1,valid_win,735.3310865999665,85,,,,,,,,,,,s_076,1,2021_Mar_25_1647,Reversal,3.2.4,60.056453062267565,
15,exp3.png,exp4.png,,,,,,,,,,,,,,,,,2,0,2,0,0,15,15,15,,,,,,,,,False,55,136,True,exp4.png,exp3.png,trial_right_image,-1,exp3.png,1,exp3.png,exp4.png,1,1,non-reversed,correct,0.21027976820758165,0,invalid_lose,740.0314575000666,85,,,,,,,,,,,s_076,1,2021_Mar_25_1647,Reversal,3.2.4,60.056453062267565,
16,exp1.png,exp2.png,,,,,,,,,,,,,,,,,2,0,2,0,0,16,16,16,,,,,,,,,False,56,137,False,exp1.png,exp2.png,trial_right_image,-1,exp2.png,1,exp2.png,exp1.png,0,4,reversed,correct,0.1711103458665829,0,invalid_lose,745.8454704000615,85,,,,,,,,,,,s_076,1,2021_Mar_25_1647,Reversal,3.2.4,60.056453062267565,
17,exp3.png,exp4.png,,,,,,,,,,,,,,,,,2,0,2,0,0,17,17,17,,,,,,,,,False,57,138,False,exp3.png,exp4.png,trial_left_image,1,exp3.png,1,exp3.png,exp4.png,1,1,non-reversed,correct,0.6290060947970452,1,valid_win,750.1106515000574,86,,,,,,,,,,,s_076,1,2021_Mar_25_1647,Reversal,3.2.4,60.056453062267565,
18,exp1.png,exp2.png,,,,,,,,,,,,,,,,,2,0,2,0,0,18,18,18,,,,,,,,,False,58,139,False,exp1.png,exp2.png,trial_left_image,1,exp1.png,1,exp2.png,exp1.png,1,3,reversed,incorrect,0.9605000343932493,0,valid_lose,754.3243866000557,86,,,,,,,,,,,s_076,1,2021_Mar_25_1647,Reversal,3.2.4,60.056453062267565,
19,exp3.png,exp4.png,,,,,,,,,,,,,,,,,2,0,2,0,0,19,19,19,,,,,,,,,False,59,140,False,exp3.png,exp4.png,trial_left_image,1,exp3.png,1,exp3.png,exp4.png,1,1,non-reversed,correct,0.9871030316238094,1,valid_win,759.6560012999689,87,,,,,,,,,,,s_076,1,2021_Mar_25_1647,Reversal,3.2.4,60.056453062267565,
20,exp1.png,exp2.png,,,,,,,,,,,,,,,,,2,0,2,0,0,20,20,20,,,,,,,,,True,,,,,,,,,,,,,,,,,,,,,,,,,,,,,,,s_076,1,2021_Mar_25_1647,Reversal,3.2.4,60.056453062267565,
,,,,,,,,,,,,,,,,,,,2,0,2,0,,,,,0,0,0,0,,,,,,,,,,,,,,,,,,,,,,,,,,0,71,100,0,,,,,,,s_076,1,2021_Mar_25_1647,Reversal,3.2.4,60.056453062267565,
,,,,,,,,,,,,,,,,,,,,,,,,,,,,,,,,,,,,,,,,,,,,,,,,,,,,,,,87,,,,,,89,50,39,315.0670333999442,1,,,,,,,
