trial_index,trial_image1_file,trial_image2_file,learning_outer_loop.thisRepN,learning_outer_loop.thisTrialN,learning_outer_loop.thisN,learning_outer_loop.thisIndex,learning_inner_loop.thisRepN,learning_inner_loop.thisTrialN,learning_inner_loop.thisN,learning_inner_loop.thisIndex,learning_estimation_outer_loop.thisRepN,learning_estimation_outer_loop.thisTrialN,learning_estimation_outer_loop.thisN,learning_estimation_outer_loop.thisIndex,learning_estimation_inner_loop.thisRepN,learning_estimation_inner_loop.thisTrialN,learning_estimation_inner_loop.thisN,learning_estimation_inner_loop.thisIndex,reversal_outer_loop.thisRepN,reversal_outer_loop.thisTrialN,reversal_outer_loop.thisN,reversal_outer_loop.thisIndex,reversal_inner_loop.thisRepN,reversal_inner_loop.thisTrialN,reversal_inner_loop.thisN,reversal_inner_loop.thisIndex,reversal_estimation_outer_loop.thisRepN,reversal_estimation_outer_loop.thisTrialN,reversal_estimation_outer_loop.thisN,reversal_estimation_outer_loop.thisIndex,reversal_estimation_inner_loop.thisRepN,reversal_estimation_inner_loop.thisTrialN,reversal_estimation_inner_loop.thisN,reversal_estimation_inner_loop.thisIndex,skipped,total_trial_counter,trial_num,left_right_flip,left_image_file,right_image_file,clicked_stimulus_side,side,clicked_stimulus,version,high_prob_image_file,low_prob_image_file,choice_a,choice_b,pair_type,correct,trial_feedback_random,reward,trial_type,overall_time_after_trial,score,estimation_exp1.png,estimation_exp2.png,estimation_exp3.png,estimation_exp4.png,total_learning_time,total_correct,learning_correct,reversal_correct,total_reversal_time,extra_block,participant,ver,date,expName,psychopyVersion,frameRate,
0,exp1.png,exp2.png,0,0,0,0,0,0,0,0,,,,,,,,,,,,,,,,,,,,,,,,,False,0,1,True,exp2.png,exp1.png,trial_right_image,-1,exp1.png,4,exp2.png,exp1.png,0,2,non-reversed,incorrect,0.24188129788606894,1,invalid_win,4.166686900076456,1,,,,,,,,,,,s_073,4,2021_Mar_17_1825,Reversal,3.2.4,59.94402429050848,
1,exp3.png,exp4.png,0,0,0,0,0,1,1,1,,,,,,,,,,,,,,,,,,,,,,,,,False,1,2,False,exp3.png,exp4.png,trial_right_image,-1,exp4.png,4,exp4.png,exp3.png,1,3,reversed,correct,0.4101671792604197,1,valid_win,10.993099700077437,2,,,,,,,,,,,s_073,4,2021_Mar_17_1825,Reversal,3.2.4,59.94402429050848,
2,exp1.png,exp2.png,0,0,0,0,0,2,2,2,,,,,,,,,,,,,,,,,,,,,,,,,False,2,3,False,exp1.png,exp2.png,trial_left_image,1,exp1.png,4,exp2.png,exp1.png,0,2,non-reversed,incorrect,0.8867267074491428,0,valid_lose,17.17481230001431,2,,,,,,,,,,,s_073,4,2021_Mar_17_1825,Reversal,3.2.4,59.94402429050848,
3,exp3.png,exp4.png,0,0,0,0,0,3,3,3,,,,,,,,,,,,,,,,,,,,,,,,,False,3,4,False,exp3.png,exp4.png,trial_right_image,-1,exp4.png,4,exp4.png,exp3.png,1,3,reversed,correct,0.08081989783442256,0,invalid_lose,25.871466000098735,2,,,,,,,,,,,s_073,4,2021_Mar_17_1825,Reversal,3.2.4,59.94402429050848,
4,exp1.png,exp2.png,0,0,0,0,0,4,4,4,,,,,,,,,,,,,,,,,,,,,,,,,False,4,5,False,exp1.png,exp2.png,trial_right_image,-1,exp2.png,4,exp2.png,exp1.png,1,1,non-reversed,correct,0.7014615914312016,1,valid_win,32.60281050007325,3,,,,,,,,,,,s_073,4,2021_Mar_17_1825,Reversal,3.2.4,59.94402429050848,
5,exp3.png,exp4.png,0,0,0,0,0,5,5,5,,,,,,,,,,,,,,,,,,,,,,,,,False,5,6,False,exp3.png,exp4.png,trial_left_image,1,exp3.png,4,exp4.png,exp3.png,0,4,reversed,incorrect,0.3708197501684928,0,valid_lose,44.71532090008259,3,,,,,,,,,,,s_073,4,2021_Mar_17_1825,Reversal,3.2.4,59.94402429050848,
6,exp1.png,exp2.png,0,0,0,0,0,6,6,6,,,,,,,,,,,,,,,,,,,,,,,,,False,6,7,True,exp2.png,exp1.png,trial_right_image,-1,exp1.png,4,exp2.png,exp1.png,0,2,non-reversed,incorrect,0.21113728229086914,1,invalid_win,51.19626660004724,4,,,,,,,,,,,s_073,4,2021_Mar_17_1825,Reversal,3.2.4,59.94402429050848,
7,exp3.png,exp4.png,0,0,0,0,0,7,7,7,,,,,,,,,,,,,,,,,,,,,,,,,False,7,8,True,exp4.png,exp3.png,trial_left_image,1,exp4.png,4,exp4.png,exp3.png,1,3,reversed,correct,0.2600277829686728,1,valid_win,58.97681470005773,5,,,,,,,,,,,s_073,4,2021_Mar_17_1825,Reversal,3.2.4,59.94402429050848,
8,exp1.png,exp2.png,0,0,0,0,0,8,8,8,,,,,,,,,,,,,,,,,,,,,,,,,False,8,9,True,exp2.png,exp1.png,trial_right_image,-1,exp1.png,4,exp2.png,exp1.png,0,2,non-reversed,incorrect,0.6892823069796111,0,valid_lose,64.37511400005314,5,,,,,,,,,,,s_073,4,2021_Mar_17_1825,Reversal,3.2.4,59.94402429050848,
9,exp3.png,exp4.png,0,0,0,0,0,9,9,9,,,,,,,,,,,,,,,,,,,,,,,,,False,9,10,False,exp3.png,exp4.png,trial_left_image,1,exp3.png,4,exp4.png,exp3.png,0,4,reversed,incorrect,0.8420224250036642,0,valid_lose,71.78928120003548,5,,,,,,,,,,,s_073,4,2021_Mar_17_1825,Reversal,3.2.4,59.94402429050848,
10,exp1.png,exp2.png,0,0,0,0,0,10,10,10,,,,,,,,,,,,,,,,,,,,,,,,,False,10,11,True,exp2.png,exp1.png,trial_right_image,-1,exp1.png,4,exp2.png,exp1.png,0,2,non-reversed,incorrect,0.4689372367169786,0,valid_lose,78.03733120008837,5,,,,,,,,,,,s_073,4,2021_Mar_17_1825,Reversal,3.2.4,59.94402429050848,
11,exp3.png,exp4.png,0,0,0,0,0,11,11,11,,,,,,,,,,,,,,,,,,,,,,,,,False,11,12,True,exp4.png,exp3.png,trial_right_image,-1,exp3.png,4,exp4.png,exp3.png,0,4,reversed,incorrect,0.44007232378971706,0,valid_lose,86.11806050001178,5,,,,,,,,,,,s_073,4,2021_Mar_17_1825,Reversal,3.2.4,59.94402429050848,
12,exp1.png,exp2.png,0,0,0,0,0,12,12,12,,,,,,,,,,,,,,,,,,,,,,,,,False,12,13,False,exp1.png,exp2.png,trial_right_image,-1,exp2.png,4,exp2.png,exp1.png,1,1,non-reversed,correct,0.9710060446987734,1,valid_win,92.18267780006863,6,,,,,,,,,,,s_073,4,2021_Mar_17_1825,Reversal,3.2.4,59.94402429050848,
13,exp3.png,exp4.png,0,0,0,0,0,13,13,13,,,,,,,,,,,,,,,,,,,,,,,,,False,13,14,True,exp4.png,exp3.png,trial_left_image,1,exp4.png,4,exp4.png,exp3.png,1,3,reversed,correct,0.3288366449932598,1,valid_win,98.53018670005258,7,,,,,,,,,,,s_073,4,2021_Mar_17_1825,Reversal,3.2.4,59.94402429050848,
14,exp1.png,exp2.png,0,0,0,0,0,14,14,14,,,,,,,,,,,,,,,,,,,,,,,,,False,14,15,False,exp1.png,exp2.png,trial_right_image,-1,exp2.png,4,exp2.png,exp1.png,1,1,non-reversed,correct,0.08743542524143688,0,invalid_lose,105.9943000000203,7,,,,,,,,,,,s_073,4,2021_Mar_17_1825,Reversal,3.2.4,59.94402429050848,
15,exp3.png,exp4.png,0,0,0,0,0,15,15,15,,,,,,,,,,,,,,,,,,,,,,,,,False,15,16,True,exp4.png,exp3.png,trial_right_image,-1,exp3.png,4,exp4.png,exp3.png,0,4,reversed,incorrect,0.630885375632489,0,valid_lose,111.80898190010339,7,,,,,,,,,,,s_073,4,2021_Mar_17_1825,Reversal,3.2.4,59.94402429050848,
16,exp1.png,exp2.png,0,0,0,0,0,16,16,16,,,,,,,,,,,,,,,,,,,,,,,,,False,16,17,True,exp2.png,exp1.png,trial_left_image,1,exp2.png,4,exp2.png,exp1.png,1,1,non-reversed,correct,0.8837309326586513,1,valid_win,119.52340810000896,8,,,,,,,,,,,s_073,4,2021_Mar_17_1825,Reversal,3.2.4,59.94402429050848,
17,exp3.png,exp4.png,0,0,0,0,0,17,17,17,,,,,,,,,,,,,,,,,,,,,,,,,False,17,18,False,exp3.png,exp4.png,trial_right_image,-1,exp4.png,4,exp4.png,exp3.png,1,3,reversed,correct,0.114806732754828,0,invalid_lose,125.6713519000914,8,,,,,,,,,,,s_073,4,2021_Mar_17_1825,Reversal,3.2.4,59.94402429050848,
18,exp1.png,exp2.png,0,0,0,0,0,18,18,18,,,,,,,,,,,,,,,,,,,,,,,,,False,18,19,False,exp1.png,exp2.png,trial_left_image,1,exp1.png,4,exp2.png,exp1.png,0,2,non-reversed,incorrect,0.1774069156775291,1,invalid_win,132.4192334000254,9,,,,,,,,,,,s_073,4,2021_Mar_17_1825,Reversal,3.2.4,59.94402429050848,
19,exp3.png,exp4.png,0,0,0,0,0,19,19,19,,,,,,,,,,,,,,,,,,,,,,,,,False,19,20,True,exp4.png,exp3.png,trial_right_image,-1,exp3.png,4,exp4.png,exp3.png,0,4,reversed,incorrect,0.19030832415893795,1,invalid_win,140.36618790007196,10,,,,,,,,,,,s_073,4,2021_Mar_17_1825,Reversal,3.2.4,59.94402429050848,
20,exp1.png,exp2.png,0,0,0,0,0,20,20,20,,,,,,,,,,,,,,,,,,,,,,,,,True,,,,,,,,,,,,,,,,,,,,,,,,,,,,,,,s_073,4,2021_Mar_17_1825,Reversal,3.2.4,59.94402429050848,
,,,0,0,0,0,,,,,0,0,0,0,,,,,,,,,,,,,,,,,,,,,,,,,,,,,,,,,,,,,,,,,,73,30,71,23,,,,,,,s_073,4,2021_Mar_17_1825,Reversal,3.2.4,59.94402429050848,
0,exp1.png,exp2.png,1,0,1,0,0,0,0,0,,,,,,,,,,,,,,,,,,,,,,,,,False,20,21,True,exp2.png,exp1.png,trial_right_image,-1,exp1.png,4,exp2.png,exp1.png,0,2,non-reversed,incorrect,0.3519003838528044,0,valid_lose,175.37007060006727,10,,,,,,,,,,,s_073,4,2021_Mar_17_1825,Reversal,3.2.4,59.94402429050848,
1,exp3.png,exp4.png,1,0,1,0,0,1,1,1,,,,,,,,,,,,,,,,,,,,,,,,,False,21,22,False,exp3.png,exp4.png,trial_left_image,1,exp3.png,4,exp4.png,exp3.png,0,4,reversed,incorrect,0.5169929852073986,0,valid_lose,182.16894090001006,10,,,,,,,,,,,s_073,4,2021_Mar_17_1825,Reversal,3.2.4,59.94402429050848,
2,exp1.png,exp2.png,1,0,1,0,0,2,2,2,,,,,,,,,,,,,,,,,,,,,,,,,False,22,23,False,exp1.png,exp2.png,trial_right_image,-1,exp2.png,4,exp2.png,exp1.png,1,1,non-reversed,correct,0.6878583039602657,1,valid_win,188.38143990002573,11,,,,,,,,,,,s_073,4,2021_Mar_17_1825,Reversal,3.2.4,59.94402429050848,
3,exp3.png,exp4.png,1,0,1,0,0,3,3,3,,,,,,,,,,,,,,,,,,,,,,,,,False,23,24,False,exp3.png,exp4.png,trial_right_image,-1,exp4.png,4,exp4.png,exp3.png,1,3,reversed,correct,0.38585373603039796,1,valid_win,194.64772410003934,12,,,,,,,,,,,s_073,4,2021_Mar_17_1825,Reversal,3.2.4,59.94402429050848,
4,exp1.png,exp2.png,1,0,1,0,0,4,4,4,,,,,,,,,,,,,,,,,,,,,,,,,False,24,25,True,exp2.png,exp1.png,trial_right_image,-1,exp1.png,4,exp2.png,exp1.png,0,2,non-reversed,incorrect,0.5124859110816312,0,valid_lose,200.22986870002933,12,,,,,,,,,,,s_073,4,2021_Mar_17_1825,Reversal,3.2.4,59.94402429050848,
5,exp3.png,exp4.png,1,0,1,0,0,5,5,5,,,,,,,,,,,,,,,,,,,,,,,,,False,25,26,False,exp3.png,exp4.png,trial_left_image,1,exp3.png,4,exp4.png,exp3.png,0,4,reversed,incorrect,0.5290418388568652,0,valid_lose,208.62618020002265,12,,,,,,,,,,,s_073,4,2021_Mar_17_1825,Reversal,3.2.4,59.94402429050848,
6,exp1.png,exp2.png,1,0,1,0,0,6,6,6,,,,,,,,,,,,,,,,,,,,,,,,,False,26,27,False,exp1.png,exp2.png,trial_right_image,-1,exp2.png,4,exp2.png,exp1.png,1,1,non-reversed,correct,0.504196179069397,1,valid_win,215.14142360002734,13,,,,,,,,,,,s_073,4,2021_Mar_17_1825,Reversal,3.2.4,59.94402429050848,
7,exp3.png,exp4.png,1,0,1,0,0,7,7,7,,,,,,,,,,,,,,,,,,,,,,,,,False,27,28,True,exp4.png,exp3.png,trial_left_image,1,exp4.png,4,exp4.png,exp3.png,1,3,reversed,correct,0.12933407367222138,0,invalid_lose,220.32280760002322,13,,,,,,,,,,,s_073,4,2021_Mar_17_1825,Reversal,3.2.4,59.94402429050848,
8,exp1.png,exp2.png,1,0,1,0,0,8,8,8,,,,,,,,,,,,,,,,,,,,,,,,,False,28,29,True,exp2.png,exp1.png,trial_left_image,1,exp2.png,4,exp2.png,exp1.png,1,1,non-reversed,correct,0.07059975268592478,0,invalid_lose,226.61924300005194,13,,,,,,,,,,,s_073,4,2021_Mar_17_1825,Reversal,3.2.4,59.94402429050848,
9,exp3.png,exp4.png,1,0,1,0,0,9,9,9,,,,,,,,,,,,,,,,,,,,,,,,,False,29,30,False,exp3.png,exp4.png,trial_left_image,1,exp3.png,4,exp4.png,exp3.png,0,4,reversed,incorrect,0.6353262144890583,0,valid_lose,238.1331163001014,13,,,,,,,,,,,s_073,4,2021_Mar_17_1825,Reversal,3.2.4,59.94402429050848,
10,exp1.png,exp2.png,1,0,1,0,0,10,10,10,,,,,,,,,,,,,,,,,,,,,,,,,False,30,31,False,exp1.png,exp2.png,trial_left_image,1,exp1.png,4,exp2.png,exp1.png,0,2,non-reversed,incorrect,0.4436389733450282,0,valid_lose,245.82933010009583,13,,,,,,,,,,,s_073,4,2021_Mar_17_1825,Reversal,3.2.4,59.94402429050848,
11,exp3.png,exp4.png,1,0,1,0,0,11,11,11,,,,,,,,,,,,,,,,,,,,,,,,,False,31,32,True,exp4.png,exp3.png,trial_right_image,-1,exp3.png,4,exp4.png,exp3.png,0,4,reversed,incorrect,0.696527782465804,0,valid_lose,252.62675590009894,13,,,,,,,,,,,s_073,4,2021_Mar_17_1825,Reversal,3.2.4,59.94402429050848,
12,exp1.png,exp2.png,1,0,1,0,0,12,12,12,,,,,,,,,,,,,,,,,,,,,,,,,False,32,33,True,exp2.png,exp1.png,trial_left_image,1,exp2.png,4,exp2.png,exp1.png,1,1,non-reversed,correct,0.24162649552891236,0,invalid_lose,264.8074647000758,13,,,,,,,,,,,s_073,4,2021_Mar_17_1825,Reversal,3.2.4,59.94402429050848,
13,exp3.png,exp4.png,1,0,1,0,0,13,13,13,,,,,,,,,,,,,,,,,,,,,,,,,False,33,34,False,exp3.png,exp4.png,trial_right_image,-1,exp4.png,4,exp4.png,exp3.png,1,3,reversed,correct,0.8787481842245028,1,valid_win,272.5551895000972,14,,,,,,,,,,,s_073,4,2021_Mar_17_1825,Reversal,3.2.4,59.94402429050848,
14,exp1.png,exp2.png,1,0,1,0,0,14,14,14,,,,,,,,,,,,,,,,,,,,,,,,,False,34,35,False,exp1.png,exp2.png,trial_right_image,-1,exp2.png,4,exp2.png,exp1.png,1,1,non-reversed,correct,0.4578163148990313,1,valid_win,279.685647000093,15,,,,,,,,,,,s_073,4,2021_Mar_17_1825,Reversal,3.2.4,59.94402429050848,
15,exp3.png,exp4.png,1,0,1,0,0,15,15,15,,,,,,,,,,,,,,,,,,,,,,,,,False,35,36,True,exp4.png,exp3.png,trial_left_image,1,exp4.png,4,exp4.png,exp3.png,1,3,reversed,correct,0.18191819550965704,0,invalid_lose,285.68357350002043,15,,,,,,,,,,,s_073,4,2021_Mar_17_1825,Reversal,3.2.4,59.94402429050848,
16,exp1.png,exp2.png,1,0,1,0,0,16,16,16,,,,,,,,,,,,,,,,,,,,,,,,,False,36,37,True,exp2.png,exp1.png,trial_left_image,1,exp2.png,4,exp2.png,exp1.png,1,1,non-reversed,correct,0.5003501286297602,1,valid_win,293.33149450004566,16,,,,,,,,,,,s_073,4,2021_Mar_17_1825,Reversal,3.2.4,59.94402429050848,
17,exp3.png,exp4.png,1,0,1,0,0,17,17,17,,,,,,,,,,,,,,,,,,,,,,,,,False,37,38,True,exp4.png,exp3.png,trial_right_image,-1,exp3.png,4,exp4.png,exp3.png,0,4,reversed,incorrect,0.44595034986826465,0,valid_lose,298.34591470006853,16,,,,,,,,,,,s_073,4,2021_Mar_17_1825,Reversal,3.2.4,59.94402429050848,
18,exp1.png,exp2.png,1,0,1,0,0,18,18,18,,,,,,,,,,,,,,,,,,,,,,,,,False,38,39,True,exp2.png,exp1.png,trial_right_image,-1,exp1.png,4,exp2.png,exp1.png,0,2,non-reversed,incorrect,0.6737956740732548,0,valid_lose,306.99329940008465,16,,,,,,,,,,,s_073,4,2021_Mar_17_1825,Reversal,3.2.4,59.94402429050848,
19,exp3.png,exp4.png,1,0,1,0,0,19,19,19,,,,,,,,,,,,,,,,,,,,,,,,,False,39,40,False,exp3.png,exp4.png,trial_left_image,1,exp3.png,4,exp4.png,exp3.png,0,4,reversed,incorrect,0.47954875158004306,0,valid_lose,316.556447400013,16,,,,,,,,,,,s_073,4,2021_Mar_17_1825,Reversal,3.2.4,59.94402429050848,
20,exp1.png,exp2.png,1,0,1,0,0,20,20,20,,,,,,,,,,,,,,,,,,,,,,,,,True,,,,,,,,,,,,,,,,,,,,,,,,,,,,,,,s_073,4,2021_Mar_17_1825,Reversal,3.2.4,59.94402429050848,
,,,1,0,1,0,,,,,0,0,0,0,,,,,,,,,,,,,,,,,,,,,,,,,,,,,,,,,,,,,,,,,,50.0,60,37,68,,,,,,,s_073,4,2021_Mar_17_1825,Reversal,3.2.4,59.94402429050848,
0,exp1.png,exp2.png,2,0,2,0,0,0,0,0,,,,,,,,,,,,,,,,,,,,,,,,,False,40,41,False,exp1.png,exp2.png,trial_right_image,-1,exp2.png,4,exp2.png,exp1.png,1,1,non-reversed,correct,0.2994703139702849,1,valid_win,348.52805820002686,17,,,,,,,,,,,s_073,4,2021_Mar_17_1825,Reversal,3.2.4,59.94402429050848,
1,exp3.png,exp4.png,2,0,2,0,0,1,1,1,,,,,,,,,,,,,,,,,,,,,,,,,False,41,42,True,exp4.png,exp3.png,trial_left_image,1,exp4.png,4,exp4.png,exp3.png,1,3,reversed,correct,0.7963195155910263,1,valid_win,354.409472700092,18,,,,,,,,,,,s_073,4,2021_Mar_17_1825,Reversal,3.2.4,59.94402429050848,
2,exp1.png,exp2.png,2,0,2,0,0,2,2,2,,,,,,,,,,,,,,,,,,,,,,,,,False,42,43,True,exp2.png,exp1.png,trial_right_image,-1,exp1.png,4,exp2.png,exp1.png,0,2,non-reversed,incorrect,0.9354599531442048,0,valid_lose,360.5074042000342,18,,,,,,,,,,,s_073,4,2021_Mar_17_1825,Reversal,3.2.4,59.94402429050848,
3,exp3.png,exp4.png,2,0,2,0,0,3,3,3,,,,,,,,,,,,,,,,,,,,,,,,,False,43,44,True,exp4.png,exp3.png,trial_right_image,-1,exp3.png,4,exp4.png,exp3.png,0,4,reversed,incorrect,0.3358320496754297,0,valid_lose,365.69006000005174,18,,,,,,,,,,,s_073,4,2021_Mar_17_1825,Reversal,3.2.4,59.94402429050848,
4,exp1.png,exp2.png,2,0,2,0,0,4,4,4,,,,,,,,,,,,,,,,,,,,,,,,,False,44,45,True,exp2.png,exp1.png,trial_left_image,1,exp2.png,4,exp2.png,exp1.png,1,1,non-reversed,correct,0.947443724248131,1,valid_win,371.4360245000571,19,,,,,,,,,,,s_073,4,2021_Mar_17_1825,Reversal,3.2.4,59.94402429050848,
5,exp3.png,exp4.png,2,0,2,0,0,5,5,5,,,,,,,,,,,,,,,,,,,,,,,,,False,45,46,True,exp4.png,exp3.png,trial_left_image,1,exp4.png,4,exp4.png,exp3.png,1,3,reversed,correct,0.13549918111453485,0,invalid_lose,376.3185190000804,19,,,,,,,,,,,s_073,4,2021_Mar_17_1825,Reversal,3.2.4,59.94402429050848,
6,exp1.png,exp2.png,2,0,2,0,0,6,6,6,,,,,,,,,,,,,,,,,,,,,,,,,False,46,47,False,exp1.png,exp2.png,trial_left_image,1,exp1.png,4,exp2.png,exp1.png,0,2,non-reversed,incorrect,0.7850054602169969,0,valid_lose,385.16552160005085,19,,,,,,,,,,,s_073,4,2021_Mar_17_1825,Reversal,3.2.4,59.94402429050848,
7,exp3.png,exp4.png,2,0,2,0,0,7,7,7,,,,,,,,,,,,,,,,,,,,,,,,,False,47,48,False,exp3.png,exp4.png,trial_left_image,1,exp3.png,4,exp4.png,exp3.png,0,4,reversed,incorrect,0.8805493127205561,0,valid_lose,389.9484208000358,19,,,,,,,,,,,s_073,4,2021_Mar_17_1825,Reversal,3.2.4,59.94402429050848,
8,exp1.png,exp2.png,2,0,2,0,0,8,8,8,,,,,,,,,,,,,,,,,,,,,,,,,False,48,49,True,exp2.png,exp1.png,trial_left_image,1,exp2.png,4,exp2.png,exp1.png,1,1,non-reversed,correct,0.38513229326716913,1,valid_win,396.3962368000066,20,,,,,,,,,,,s_073,4,2021_Mar_17_1825,Reversal,3.2.4,59.94402429050848,
9,exp3.png,exp4.png,2,0,2,0,0,9,9,9,,,,,,,,,,,,,,,,,,,,,,,,,False,49,50,False,exp3.png,exp4.png,trial_left_image,1,exp3.png,4,exp4.png,exp3.png,0,4,reversed,incorrect,0.7974578296491757,0,valid_lose,402.39433370006736,20,,,,,,,,,,,s_073,4,2021_Mar_17_1825,Reversal,3.2.4,59.94402429050848,
10,exp1.png,exp2.png,2,0,2,0,0,10,10,10,,,,,,,,,,,,,,,,,,,,,,,,,False,50,51,False,exp1.png,exp2.png,trial_right_image,-1,exp2.png,4,exp2.png,exp1.png,1,1,non-reversed,correct,0.18653598222205503,0,invalid_lose,407.25932150008157,20,,,,,,,,,,,s_073,4,2021_Mar_17_1825,Reversal,3.2.4,59.94402429050848,
11,exp3.png,exp4.png,2,0,2,0,0,11,11,11,,,,,,,,,,,,,,,,,,,,,,,,,False,51,52,True,exp4.png,exp3.png,trial_right_image,-1,exp3.png,4,exp4.png,exp3.png,0,4,reversed,incorrect,0.7184494788950823,0,valid_lose,411.9912514000898,20,,,,,,,,,,,s_073,4,2021_Mar_17_1825,Reversal,3.2.4,59.94402429050848,
12,exp1.png,exp2.png,2,0,2,0,0,12,12,12,,,,,,,,,,,,,,,,,,,,,,,,,False,52,53,False,exp1.png,exp2.png,trial_left_image,1,exp1.png,4,exp2.png,exp1.png,0,2,non-reversed,incorrect,0.9557569544219069,0,valid_lose,416.8061532001011,20,,,,,,,,,,,s_073,4,2021_Mar_17_1825,Reversal,3.2.4,59.94402429050848,
13,exp3.png,exp4.png,2,0,2,0,0,13,13,13,,,,,,,,,,,,,,,,,,,,,,,,,False,53,54,True,exp4.png,exp3.png,trial_left_image,1,exp4.png,4,exp4.png,exp3.png,1,3,reversed,correct,0.9171591131344597,1,valid_win,421.288329300005,21,,,,,,,,,,,s_073,4,2021_Mar_17_1825,Reversal,3.2.4,59.94402429050848,
14,exp1.png,exp2.png,2,0,2,0,0,14,14,14,,,,,,,,,,,,,,,,,,,,,,,,,False,54,55,False,exp1.png,exp2.png,trial_left_image,1,exp1.png,4,exp2.png,exp1.png,0,2,non-reversed,incorrect,0.30622144967338616,0,valid_lose,427.8856311000418,21,,,,,,,,,,,s_073,4,2021_Mar_17_1825,Reversal,3.2.4,59.94402429050848,
15,exp3.png,exp4.png,2,0,2,0,0,15,15,15,,,,,,,,,,,,,,,,,,,,,,,,,False,55,56,False,exp3.png,exp4.png,trial_right_image,-1,exp4.png,4,exp4.png,exp3.png,1,3,reversed,correct,0.3352020061583698,1,valid_win,432.60060250002425,22,,,,,,,,,,,s_073,4,2021_Mar_17_1825,Reversal,3.2.4,59.94402429050848,
16,exp1.png,exp2.png,2,0,2,0,0,16,16,16,,,,,,,,,,,,,,,,,,,,,,,,,False,56,57,False,exp1.png,exp2.png,trial_right_image,-1,exp2.png,4,exp2.png,exp1.png,1,1,non-reversed,correct,0.09201989625864126,0,invalid_lose,445.6462937000906,22,,,,,,,,,,,s_073,4,2021_Mar_17_1825,Reversal,3.2.4,59.94402429050848,
17,exp3.png,exp4.png,2,0,2,0,0,17,17,17,,,,,,,,,,,,,,,,,,,,,,,,,False,57,58,True,exp4.png,exp3.png,trial_right_image,-1,exp3.png,4,exp4.png,exp3.png,0,4,reversed,incorrect,0.13952785448197702,1,invalid_win,451.74419610004406,23,,,,,,,,,,,s_073,4,2021_Mar_17_1825,Reversal,3.2.4,59.94402429050848,
18,exp1.png,exp2.png,2,0,2,0,0,18,18,18,,,,,,,,,,,,,,,,,,,,,,,,,False,58,59,True,exp2.png,exp1.png,trial_right_image,-1,exp1.png,4,exp2.png,exp1.png,0,2,non-reversed,incorrect,0.4298869630183413,0,valid_lose,457.05942850001156,23,,,,,,,,,,,s_073,4,2021_Mar_17_1825,Reversal,3.2.4,59.94402429050848,
19,exp3.png,exp4.png,2,0,2,0,0,19,19,19,,,,,,,,,,,,,,,,,,,,,,,,,False,59,60,False,exp3.png,exp4.png,trial_left_image,1,exp3.png,4,exp4.png,exp3.png,0,4,reversed,incorrect,0.06930697590212143,1,invalid_win,463.9901200000895,24,,,,,,,,,,,s_073,4,2021_Mar_17_1825,Reversal,3.2.4,59.94402429050848,
20,exp1.png,exp2.png,2,0,2,0,0,20,20,20,,,,,,,,,,,,,,,,,,,,,,,,,True,,,,,,,,,,,,,,,,,,,,,,,,,,,,,,,s_073,4,2021_Mar_17_1825,Reversal,3.2.4,59.94402429050848,
,,,2,0,2,0,,,,,0,0,0,0,,,,,,,,,,,,,,,,,,,,,,,,,,,,,,,,,,,,,,,,,,50.0,50.0,50.0,50.0,,,,,,,s_073,4,2021_Mar_17_1825,Reversal,3.2.4,59.94402429050848,
0,exp1.png,exp2.png,3,0,3,0,0,0,0,0,,,,,,,,,,,,,,,,,,,,,,,,,False,60,61,True,exp2.png,exp1.png,trial_right_image,-1,exp1.png,4,exp2.png,exp1.png,0,2,non-reversed,incorrect,0.7187280617727448,0,valid_lose,482.4343166000908,24,,,,,,,,,,,s_073,4,2021_Mar_17_1825,Reversal,3.2.4,59.94402429050848,
1,exp3.png,exp4.png,3,0,3,0,0,1,1,1,,,,,,,,,,,,,,,,,,,,,,,,,False,61,62,True,exp4.png,exp3.png,trial_left_image,1,exp4.png,4,exp4.png,exp3.png,1,3,reversed,correct,0.13934358893548437,0,invalid_lose,489.9653105000034,24,,,,,,,,,,,s_073,4,2021_Mar_17_1825,Reversal,3.2.4,59.94402429050848,
2,exp1.png,exp2.png,3,0,3,0,0,2,2,2,,,,,,,,,,,,,,,,,,,,,,,,,False,62,63,True,exp2.png,exp1.png,trial_left_image,1,exp2.png,4,exp2.png,exp1.png,1,1,non-reversed,correct,0.45755609939459363,1,valid_win,495.71267190005165,25,,,,,,,,,,,s_073,4,2021_Mar_17_1825,Reversal,3.2.4,59.94402429050848,
3,exp3.png,exp4.png,3,0,3,0,0,3,3,3,,,,,,,,,,,,,,,,,,,,,,,,,False,63,64,False,exp3.png,exp4.png,trial_right_image,-1,exp4.png,4,exp4.png,exp3.png,1,3,reversed,correct,0.11449220084248035,0,invalid_lose,502.3773184000747,25,,,,,,,,,,,s_073,4,2021_Mar_17_1825,Reversal,3.2.4,59.94402429050848,
4,exp1.png,exp2.png,3,0,3,0,0,4,4,4,,,,,,,,,,,,,,,,,,,,,,,,,False,64,65,True,exp2.png,exp1.png,trial_left_image,1,exp2.png,4,exp2.png,exp1.png,1,1,non-reversed,correct,0.40423279465957773,1,valid_win,511.22430010000244,26,,,,,,,,,,,s_073,4,2021_Mar_17_1825,Reversal,3.2.4,59.94402429050848,
5,exp3.png,exp4.png,3,0,3,0,0,5,5,5,,,,,,,,,,,,,,,,,,,,,,,,,False,65,66,True,exp4.png,exp3.png,trial_right_image,-1,exp3.png,4,exp4.png,exp3.png,0,4,reversed,incorrect,0.4093870728290804,0,valid_lose,516.6055900000501,26,,,,,,,,,,,s_073,4,2021_Mar_17_1825,Reversal,3.2.4,59.94402429050848,
6,exp1.png,exp2.png,3,0,3,0,0,6,6,6,,,,,,,,,,,,,,,,,,,,,,,,,False,66,67,True,exp2.png,exp1.png,trial_left_image,1,exp2.png,4,exp2.png,exp1.png,1,1,non-reversed,correct,0.4470222481981114,1,valid_win,524.4699049000628,27,,,,,,,,,,,s_073,4,2021_Mar_17_1825,Reversal,3.2.4,59.94402429050848,
7,exp3.png,exp4.png,3,0,3,0,0,7,7,7,,,,,,,,,,,,,,,,,,,,,,,,,False,67,68,False,exp3.png,exp4.png,trial_right_image,-1,exp4.png,4,exp4.png,exp3.png,1,3,reversed,correct,0.34645853198353593,1,valid_win,531.2172127000522,28,,,,,,,,,,,s_073,4,2021_Mar_17_1825,Reversal,3.2.4,59.94402429050848,
8,exp1.png,exp2.png,3,0,3,0,0,8,8,8,,,,,,,,,,,,,,,,,,,,,,,,,False,68,69,False,exp1.png,exp2.png,trial_right_image,-1,exp2.png,4,exp2.png,exp1.png,1,1,non-reversed,correct,0.06864473239367652,0,invalid_lose,537.2153601000318,28,,,,,,,,,,,s_073,4,2021_Mar_17_1825,Reversal,3.2.4,59.94402429050848,
9,exp3.png,exp4.png,3,0,3,0,0,9,9,9,,,,,,,,,,,,,,,,,,,,,,,,,False,69,70,True,exp4.png,exp3.png,trial_left_image,1,exp4.png,4,exp4.png,exp3.png,1,3,reversed,correct,0.8135220504502372,1,valid_win,543.163745900034,29,,,,,,,,,,,s_073,4,2021_Mar_17_1825,Reversal,3.2.4,59.94402429050848,
10,exp1.png,exp2.png,3,0,3,0,0,10,10,10,,,,,,,,,,,,,,,,,,,,,,,,,False,70,71,True,exp2.png,exp1.png,trial_left_image,1,exp2.png,4,exp2.png,exp1.png,1,1,non-reversed,correct,0.32237615780476925,1,valid_win,548.6615496000741,30,,,,,,,,,,,s_073,4,2021_Mar_17_1825,Reversal,3.2.4,59.94402429050848,
11,exp3.png,exp4.png,3,0,3,0,0,11,11,11,,,,,,,,,,,,,,,,,,,,,,,,,False,71,72,False,exp3.png,exp4.png,trial_right_image,-1,exp4.png,4,exp4.png,exp3.png,1,3,reversed,correct,0.25729239232787515,1,valid_win,553.2098293000599,31,,,,,,,,,,,s_073,4,2021_Mar_17_1825,Reversal,3.2.4,59.94402429050848,
12,exp1.png,exp2.png,3,0,3,0,0,12,12,12,,,,,,,,,,,,,,,,,,,,,,,,,False,72,73,False,exp1.png,exp2.png,trial_right_image,-1,exp2.png,4,exp2.png,exp1.png,1,1,non-reversed,correct,0.9010336049376907,1,valid_win,557.5419486000901,32,,,,,,,,,,,s_073,4,2021_Mar_17_1825,Reversal,3.2.4,59.94402429050848,
13,exp3.png,exp4.png,3,0,3,0,0,13,13,13,,,,,,,,,,,,,,,,,,,,,,,,,False,73,74,False,exp3.png,exp4.png,trial_right_image,-1,exp4.png,4,exp4.png,exp3.png,1,3,reversed,correct,0.6330077271880752,1,valid_win,561.6570129999891,33,,,,,,,,,,,s_073,4,2021_Mar_17_1825,Reversal,3.2.4,59.94402429050848,
14,exp1.png,exp2.png,3,0,3,0,0,14,14,14,,,,,,,,,,,,,,,,,,,,,,,,,False,74,75,False,exp1.png,exp2.png,trial_right_image,-1,exp2.png,4,exp2.png,exp1.png,1,1,non-reversed,correct,0.20344385562651013,0,invalid_lose,565.7722581000999,33,,,,,,,,,,,s_073,4,2021_Mar_17_1825,Reversal,3.2.4,59.94402429050848,
15,exp3.png,exp4.png,3,0,3,0,0,15,15,15,,,,,,,,,,,,,,,,,,,,,,,,,False,75,76,False,exp3.png,exp4.png,trial_right_image,-1,exp4.png,4,exp4.png,exp3.png,1,3,reversed,correct,0.19539715105228872,0,invalid_lose,569.7877875000704,33,,,,,,,,,,,s_073,4,2021_Mar_17_1825,Reversal,3.2.4,59.94402429050848,
16,exp1.png,exp2.png,3,0,3,0,0,16,16,16,,,,,,,,,,,,,,,,,,,,,,,,,False,76,77,False,exp1.png,exp2.png,trial_right_image,-1,exp2.png,4,exp2.png,exp1.png,1,1,non-reversed,correct,0.9123845490605534,1,valid_win,574.2528108000988,34,,,,,,,,,,,s_073,4,2021_Mar_17_1825,Reversal,3.2.4,59.94402429050848,
17,exp3.png,exp4.png,3,0,3,0,0,17,17,17,,,,,,,,,,,,,,,,,,,,,,,,,False,77,78,True,exp4.png,exp3.png,trial_left_image,1,exp4.png,4,exp4.png,exp3.png,1,3,reversed,correct,0.8607323316862452,1,valid_win,578.5349123000633,35,,,,,,,,,,,s_073,4,2021_Mar_17_1825,Reversal,3.2.4,59.94402429050848,
18,exp1.png,exp2.png,3,0,3,0,0,18,18,18,,,,,,,,,,,,,,,,,,,,,,,,,False,78,79,True,exp2.png,exp1.png,trial_left_image,1,exp2.png,4,exp2.png,exp1.png,1,1,non-reversed,correct,0.7245317034363895,1,valid_win,582.999910500017,36,,,,,,,,,,,s_073,4,2021_Mar_17_1825,Reversal,3.2.4,59.94402429050848,
19,exp3.png,exp4.png,3,0,3,0,0,19,19,19,,,,,,,,,,,,,,,,,,,,,,,,,False,79,80,False,exp3.png,exp4.png,trial_right_image,-1,exp4.png,4,exp4.png,exp3.png,1,3,reversed,correct,0.5241778306656109,1,valid_win,587.2489700000733,37,,,,,,,,,,,s_073,4,2021_Mar_17_1825,Reversal,3.2.4,59.94402429050848,
20,exp1.png,exp2.png,3,0,3,0,0,20,20,20,,,,,,,,,,,,,,,,,,,,,,,,,True,,,,,,,,,,,,,,,,,,,,,,,,,,,,,,,s_073,4,2021_Mar_17_1825,Reversal,3.2.4,59.94402429050848,
,,,3,0,3,0,,,,,0,0,0,0,,,,,,,,,,,,,,,,,,,,,,,,,,,,,,,,,,,,,,,,,,9,84,18,84,,,,,,,s_073,4,2021_Mar_17_1825,Reversal,3.2.4,59.94402429050848,
0,exp1.png,exp2.png,,,,,,,,,,,,,,,,,0,0,0,0,0,0,0,0,,,,,,,,,False,0,81,True,exp2.png,exp1.png,trial_right_image,-1,exp1.png,4,exp2.png,exp1.png,0,2,non-reversed,incorrect,0.6383514204799183,0,valid_lose,612.7402025000192,37,,,,,609.4799961000681,,,,,,s_073,4,2021_Mar_17_1825,Reversal,3.2.4,59.94402429050848,
1,exp3.png,exp4.png,,,,,,,,,,,,,,,,,0,0,0,0,0,1,1,1,,,,,,,,,False,1,82,False,exp3.png,exp4.png,trial_left_image,1,exp3.png,4,exp3.png,exp4.png,0,4,reversed,correct,0.50108015125799,1,valid_win,617.9716882000212,38,,,,,,,,,,,s_073,4,2021_Mar_17_1825,Reversal,3.2.4,59.94402429050848,
2,exp1.png,exp2.png,,,,,,,,,,,,,,,,,0,0,0,0,0,2,2,2,,,,,,,,,False,2,83,True,exp2.png,exp1.png,trial_right_image,-1,exp1.png,4,exp2.png,exp1.png,0,2,non-reversed,incorrect,0.7054053230475998,0,valid_lose,626.5019988000859,38,,,,,,,,,,,s_073,4,2021_Mar_17_1825,Reversal,3.2.4,59.94402429050848,
3,exp3.png,exp4.png,,,,,,,,,,,,,,,,,0,0,0,0,0,3,3,3,,,,,,,,,False,3,84,False,exp3.png,exp4.png,trial_left_image,1,exp3.png,4,exp3.png,exp4.png,0,4,reversed,correct,0.6361056406385531,1,valid_win,632.3165495001012,39,,,,,,,,,,,s_073,4,2021_Mar_17_1825,Reversal,3.2.4,59.94402429050848,
4,exp1.png,exp2.png,,,,,,,,,,,,,,,,,0,0,0,0,0,4,4,4,,,,,,,,,False,4,85,True,exp2.png,exp1.png,trial_left_image,1,exp2.png,4,exp2.png,exp1.png,1,1,non-reversed,correct,0.27991681225797804,1,valid_win,636.6317716999911,40,,,,,,,,,,,s_073,4,2021_Mar_17_1825,Reversal,3.2.4,59.94402429050848,
5,exp3.png,exp4.png,,,,,,,,,,,,,,,,,0,0,0,0,0,5,5,5,,,,,,,,,False,5,86,True,exp4.png,exp3.png,trial_left_image,1,exp4.png,4,exp3.png,exp4.png,1,3,reversed,incorrect,0.5884191829261941,0,valid_lose,641.846697900095,40,,,,,,,,,,,s_073,4,2021_Mar_17_1825,Reversal,3.2.4,59.94402429050848,
6,exp1.png,exp2.png,,,,,,,,,,,,,,,,,0,0,0,0,0,6,6,6,,,,,,,,,False,6,87,False,exp1.png,exp2.png,trial_right_image,-1,exp2.png,4,exp2.png,exp1.png,1,1,non-reversed,correct,0.35025646112502895,1,valid_win,647.7612144000595,41,,,,,,,,,,,s_073,4,2021_Mar_17_1825,Reversal,3.2.4,59.94402429050848,
7,exp3.png,exp4.png,,,,,,,,,,,,,,,,,0,0,0,0,0,7,7,7,,,,,,,,,False,7,88,True,exp4.png,exp3.png,trial_left_image,1,exp4.png,4,exp3.png,exp4.png,1,3,reversed,incorrect,0.769634031578608,0,valid_lose,652.9433483000612,41,,,,,,,,,,,s_073,4,2021_Mar_17_1825,Reversal,3.2.4,59.94402429050848,
8,exp1.png,exp2.png,,,,,,,,,,,,,,,,,0,0,0,0,0,8,8,8,,,,,,,,,False,8,89,True,exp2.png,exp1.png,trial_left_image,1,exp2.png,4,exp2.png,exp1.png,1,1,non-reversed,correct,0.9468994999223964,1,valid_win,658.7909362000646,42,,,,,,,,,,,s_073,4,2021_Mar_17_1825,Reversal,3.2.4,59.94402429050848,
9,exp3.png,exp4.png,,,,,,,,,,,,,,,,,0,0,0,0,0,9,9,9,,,,,,,,,False,9,90,False,exp3.png,exp4.png,trial_left_image,1,exp3.png,4,exp3.png,exp4.png,0,4,reversed,correct,0.7573008988113955,1,valid_win,664.0725057000527,43,,,,,,,,,,,s_073,4,2021_Mar_17_1825,Reversal,3.2.4,59.94402429050848,
10,exp1.png,exp2.png,,,,,,,,,,,,,,,,,0,0,0,0,0,10,10,10,,,,,,,,,False,10,91,True,exp2.png,exp1.png,trial_left_image,1,exp2.png,4,exp2.png,exp1.png,1,1,non-reversed,correct,0.42464133065919585,1,valid_win,668.4875147000421,44,,,,,,,,,,,s_073,4,2021_Mar_17_1825,Reversal,3.2.4,59.94402429050848,
11,exp3.png,exp4.png,,,,,,,,,,,,,,,,,0,0,0,0,0,11,11,11,,,,,,,,,False,11,92,False,exp3.png,exp4.png,trial_left_image,1,exp3.png,4,exp3.png,exp4.png,0,4,reversed,correct,0.19255044639809626,0,invalid_lose,672.5863037999952,44,,,,,,,,,,,s_073,4,2021_Mar_17_1825,Reversal,3.2.4,59.94402429050848,
12,exp1.png,exp2.png,,,,,,,,,,,,,,,,,0,0,0,0,0,12,12,12,,,,,,,,,False,12,93,False,exp1.png,exp2.png,trial_right_image,-1,exp2.png,4,exp2.png,exp1.png,1,1,non-reversed,correct,0.38030386884268075,1,valid_win,676.8348186000949,45,,,,,,,,,,,s_073,4,2021_Mar_17_1825,Reversal,3.2.4,59.94402429050848,
13,exp3.png,exp4.png,,,,,,,,,,,,,,,,,0,0,0,0,0,13,13,13,,,,,,,,,False,13,94,False,exp3.png,exp4.png,trial_left_image,1,exp3.png,4,exp3.png,exp4.png,0,4,reversed,correct,0.500175232939472,1,valid_win,681.0500268000178,46,,,,,,,,,,,s_073,4,2021_Mar_17_1825,Reversal,3.2.4,59.94402429050848,
14,exp1.png,exp2.png,,,,,,,,,,,,,,,,,0,0,0,0,0,14,14,14,,,,,,,,,False,14,95,True,exp2.png,exp1.png,trial_left_image,1,exp2.png,4,exp2.png,exp1.png,1,1,non-reversed,correct,0.4630650331851017,1,valid_win,685.2319068000652,47,,,,,,,,,,,s_073,4,2021_Mar_17_1825,Reversal,3.2.4,59.94402429050848,
15,exp3.png,exp4.png,,,,,,,,,,,,,,,,,0,0,0,0,0,15,15,15,,,,,,,,,False,15,96,True,exp4.png,exp3.png,trial_right_image,-1,exp3.png,4,exp3.png,exp4.png,0,4,reversed,correct,0.017069475145828794,0,invalid_lose,690.0468864000868,47,,,,,,,,,,,s_073,4,2021_Mar_17_1825,Reversal,3.2.4,59.94402429050848,
16,exp1.png,exp2.png,,,,,,,,,,,,,,,,,0,0,0,0,0,16,16,16,,,,,,,,,False,16,97,False,exp1.png,exp2.png,trial_right_image,-1,exp2.png,4,exp2.png,exp1.png,1,1,non-reversed,correct,0.9370485592577965,1,valid_win,694.195611000061,48,,,,,,,,,,,s_073,4,2021_Mar_17_1825,Reversal,3.2.4,59.94402429050848,
17,exp3.png,exp4.png,,,,,,,,,,,,,,,,,0,0,0,0,0,17,17,17,,,,,,,,,False,17,98,False,exp3.png,exp4.png,trial_left_image,1,exp3.png,4,exp3.png,exp4.png,0,4,reversed,correct,0.0879166031801627,0,invalid_lose,698.3608894000063,48,,,,,,,,,,,s_073,4,2021_Mar_17_1825,Reversal,3.2.4,59.94402429050848,
18,exp1.png,exp2.png,,,,,,,,,,,,,,,,,0,0,0,0,0,18,18,18,,,,,,,,,False,18,99,False,exp1.png,exp2.png,trial_right_image,-1,exp2.png,4,exp2.png,exp1.png,1,1,non-reversed,correct,0.4105907441133021,1,valid_win,703.0758603001013,49,,,,,,,,,,,s_073,4,2021_Mar_17_1825,Reversal,3.2.4,59.94402429050848,
19,exp3.png,exp4.png,,,,,,,,,,,,,,,,,0,0,0,0,0,19,19,19,,,,,,,,,False,19,100,True,exp4.png,exp3.png,trial_right_image,-1,exp3.png,4,exp3.png,exp4.png,0,4,reversed,correct,0.2021704016251511,0,invalid_lose,707.6246011999901,49,,,,,,,,,,,s_073,4,2021_Mar_17_1825,Reversal,3.2.4,59.94402429050848,
20,exp1.png,exp2.png,,,,,,,,,,,,,,,,,0,0,0,0,0,20,20,20,,,,,,,,,True,,,,,,,,,,,,,,,,,,,,,,,,,,,,,,,s_073,4,2021_Mar_17_1825,Reversal,3.2.4,59.94402429050848,
,,,,,,,,,,,,,,,,,,,0,0,0,0,,,,,0,0,0,0,,,,,,,,,,,,,,,,,,,,,,,,,,28,85,74,33,,,,,,,s_073,4,2021_Mar_17_1825,Reversal,3.2.4,59.94402429050848,
0,exp1.png,exp2.png,,,,,,,,,,,,,,,,,1,0,1,0,0,0,0,0,,,,,,,,,False,20,101,False,exp1.png,exp2.png,trial_left_image,1,exp1.png,4,exp2.png,exp1.png,0,2,non-reversed,incorrect,0.15141330085510374,1,invalid_win,724.9185148000252,50,,,,,,,,,,,s_073,4,2021_Mar_17_1825,Reversal,3.2.4,59.94402429050848,
1,exp3.png,exp4.png,,,,,,,,,,,,,,,,,1,0,1,0,0,1,1,1,,,,,,,,,False,21,102,False,exp3.png,exp4.png,trial_left_image,1,exp3.png,4,exp3.png,exp4.png,0,4,reversed,correct,0.7403266863563818,1,valid_win,730.0169109000126,51,,,,,,,,,,,s_073,4,2021_Mar_17_1825,Reversal,3.2.4,59.94402429050848,
2,exp1.png,exp2.png,,,,,,,,,,,,,,,,,1,0,1,0,0,2,2,2,,,,,,,,,False,22,103,False,exp1.png,exp2.png,trial_left_image,1,exp1.png,4,exp2.png,exp1.png,0,2,non-reversed,incorrect,0.41003458346340305,0,valid_lose,734.0986470000353,51,,,,,,,,,,,s_073,4,2021_Mar_17_1825,Reversal,3.2.4,59.94402429050848,
3,exp3.png,exp4.png,,,,,,,,,,,,,,,,,1,0,1,0,0,3,3,3,,,,,,,,,False,23,104,False,exp3.png,exp4.png,trial_left_image,1,exp3.png,4,exp3.png,exp4.png,0,4,reversed,correct,0.9485289129286615,1,valid_win,738.3143368000165,52,,,,,,,,,,,s_073,4,2021_Mar_17_1825,Reversal,3.2.4,59.94402429050848,
4,exp1.png,exp2.png,,,,,,,,,,,,,,,,,1,0,1,0,0,4,4,4,,,,,,,,,False,24,105,False,exp1.png,exp2.png,trial_left_image,1,exp1.png,4,exp2.png,exp1.png,0,2,non-reversed,incorrect,0.6204737020970552,0,valid_lose,742.91259610001,52,,,,,,,,,,,s_073,4,2021_Mar_17_1825,Reversal,3.2.4,59.94402429050848,
5,exp3.png,exp4.png,,,,,,,,,,,,,,,,,1,0,1,0,0,5,5,5,,,,,,,,,False,25,106,False,exp3.png,exp4.png,trial_left_image,1,exp3.png,4,exp3.png,exp4.png,0,4,reversed,correct,0.7983831341408896,1,valid_win,746.8785097000655,53,,,,,,,,,,,s_073,4,2021_Mar_17_1825,Reversal,3.2.4,59.94402429050848,
6,exp1.png,exp2.png,,,,,,,,,,,,,,,,,1,0,1,0,0,6,6,6,,,,,,,,,False,26,107,True,exp2.png,exp1.png,trial_left_image,1,exp2.png,4,exp2.png,exp1.png,1,1,non-reversed,correct,0.43053819659657033,1,valid_win,751.5764540000819,54,,,,,,,,,,,s_073,4,2021_Mar_17_1825,Reversal,3.2.4,59.94402429050848,
7,exp3.png,exp4.png,,,,,,,,,,,,,,,,,1,0,1,0,0,7,7,7,,,,,,,,,False,27,108,True,exp4.png,exp3.png,trial_right_image,-1,exp3.png,4,exp3.png,exp4.png,0,4,reversed,correct,0.7847496905819422,1,valid_win,755.8247519000433,55,,,,,,,,,,,s_073,4,2021_Mar_17_1825,Reversal,3.2.4,59.94402429050848,
8,exp1.png,exp2.png,,,,,,,,,,,,,,,,,1,0,1,0,0,8,8,8,,,,,,,,,False,28,109,True,exp2.png,exp1.png,trial_left_image,1,exp2.png,4,exp2.png,exp1.png,1,1,non-reversed,correct,0.0017450543836269317,0,invalid_lose,760.2565844000783,55,,,,,,,,,,,s_073,4,2021_Mar_17_1825,Reversal,3.2.4,59.94402429050848,
9,exp3.png,exp4.png,,,,,,,,,,,,,,,,,1,0,1,0,0,9,9,9,,,,,,,,,False,29,110,True,exp4.png,exp3.png,trial_right_image,-1,exp3.png,4,exp3.png,exp4.png,0,4,reversed,correct,0.19079303419076254,0,invalid_lose,764.5384016000899,55,,,,,,,,,,,s_073,4,2021_Mar_17_1825,Reversal,3.2.4,59.94402429050848,
10,exp1.png,exp2.png,,,,,,,,,,,,,,,,,1,0,1,0,0,10,10,10,,,,,,,,,False,30,111,False,exp1.png,exp2.png,trial_right_image,-1,exp2.png,4,exp2.png,exp1.png,1,1,non-reversed,correct,0.10677403089794979,0,invalid_lose,768.7205320000648,55,,,,,,,,,,,s_073,4,2021_Mar_17_1825,Reversal,3.2.4,59.94402429050848,
11,exp3.png,exp4.png,,,,,,,,,,,,,,,,,1,0,1,0,0,11,11,11,,,,,,,,,False,31,112,False,exp3.png,exp4.png,trial_left_image,1,exp3.png,4,exp3.png,exp4.png,0,4,reversed,correct,0.22827448504401648,0,invalid_lose,773.3691827000584,55,,,,,,,,,,,s_073,4,2021_Mar_17_1825,Reversal,3.2.4,59.94402429050848,
12,exp1.png,exp2.png,,,,,,,,,,,,,,,,,1,0,1,0,0,12,12,12,,,,,,,,,False,32,113,True,exp2.png,exp1.png,trial_left_image,1,exp2.png,4,exp2.png,exp1.png,1,1,non-reversed,correct,0.08155189349644887,0,invalid_lose,778.2838714000536,55,,,,,,,,,,,s_073,4,2021_Mar_17_1825,Reversal,3.2.4,59.94402429050848,
13,exp3.png,exp4.png,,,,,,,,,,,,,,,,,1,0,1,0,0,13,13,13,,,,,,,,,False,33,114,False,exp3.png,exp4.png,trial_left_image,1,exp3.png,4,exp3.png,exp4.png,0,4,reversed,correct,0.43689070076481595,1,valid_win,782.8826767000137,56,,,,,,,,,,,s_073,4,2021_Mar_17_1825,Reversal,3.2.4,59.94402429050848,
14,exp1.png,exp2.png,,,,,,,,,,,,,,,,,1,0,1,0,0,14,14,14,,,,,,,,,False,34,115,True,exp2.png,exp1.png,trial_right_image,-1,exp1.png,4,exp2.png,exp1.png,0,2,non-reversed,incorrect,0.5988865898700754,0,valid_lose,788.7970916000195,56,,,,,,,,,,,s_073,4,2021_Mar_17_1825,Reversal,3.2.4,59.94402429050848,
15,exp3.png,exp4.png,,,,,,,,,,,,,,,,,1,0,1,0,0,15,15,15,,,,,,,,,False,35,116,True,exp4.png,exp3.png,trial_right_image,-1,exp3.png,4,exp3.png,exp4.png,0,4,reversed,correct,0.44606626252927084,1,valid_win,792.4498969000997,57,,,,,,,,,,,s_073,4,2021_Mar_17_1825,Reversal,3.2.4,59.94402429050848,
16,exp1.png,exp2.png,,,,,,,,,,,,,,,,,1,0,1,0,0,16,16,16,,,,,,,,,False,36,117,True,exp2.png,exp1.png,trial_left_image,1,exp2.png,4,exp2.png,exp1.png,1,1,non-reversed,correct,0.6232178914759405,1,valid_win,796.5757585000247,58,,,,,,,,,,,s_073,4,2021_Mar_17_1825,Reversal,3.2.4,59.94402429050848,
17,exp3.png,exp4.png,,,,,,,,,,,,,,,,,1,0,1,0,0,17,17,17,,,,,,,,,False,37,118,False,exp3.png,exp4.png,trial_right_image,-1,exp4.png,4,exp3.png,exp4.png,1,3,reversed,incorrect,0.7395826194477876,0,valid_lose,800.5251072000246,58,,,,,,,,,,,s_073,4,2021_Mar_17_1825,Reversal,3.2.4,59.94402429050848,
18,exp1.png,exp2.png,,,,,,,,,,,,,,,,,1,0,1,0,0,18,18,18,,,,,,,,,False,38,119,True,exp2.png,exp1.png,trial_left_image,1,exp2.png,4,exp2.png,exp1.png,1,1,non-reversed,correct,0.13225907272278914,0,invalid_lose,804.5566120001022,58,,,,,,,,,,,s_073,4,2021_Mar_17_1825,Reversal,3.2.4,59.94402429050848,
19,exp3.png,exp4.png,,,,,,,,,,,,,,,,,1,0,1,0,0,19,19,19,,,,,,,,,False,39,120,True,exp4.png,exp3.png,trial_left_image,1,exp4.png,4,exp3.png,exp4.png,1,3,reversed,incorrect,0.5650889955871123,0,valid_lose,808.4401253000833,58,,,,,,,,,,,s_073,4,2021_Mar_17_1825,Reversal,3.2.4,59.94402429050848,
20,exp1.png,exp2.png,,,,,,,,,,,,,,,,,1,0,1,0,0,20,20,20,,,,,,,,,True,,,,,,,,,,,,,,,,,,,,,,,,,,,,,,,s_073,4,2021_Mar_17_1825,Reversal,3.2.4,59.94402429050848,
,,,,,,,,,,,,,,,,,,,1,0,1,0,,,,,0,0,0,0,,,,,,,,,,,,,,,,,,,,,,,,,,27,74,76,28,,,,,,,s_073,4,2021_Mar_17_1825,Reversal,3.2.4,59.94402429050848,
0,exp1.png,exp2.png,,,,,,,,,,,,,,,,,2,0,2,0,0,0,0,0,,,,,,,,,False,40,121,True,exp2.png,exp1.png,trial_right_image,-1,exp1.png,4,exp2.png,exp1.png,0,2,non-reversed,incorrect,0.5726403136646433,0,valid_lose,830.3161258000182,58,,,,,,,,,,,s_073,4,2021_Mar_17_1825,Reversal,3.2.4,59.94402429050848,
1,exp3.png,exp4.png,,,,,,,,,,,,,,,,,2,0,2,0,0,1,1,1,,,,,,,,,False,41,122,True,exp4.png,exp3.png,trial_left_image,1,exp4.png,4,exp3.png,exp4.png,1,3,reversed,incorrect,0.8488505571449422,0,valid_lose,834.7821693000151,58,,,,,,,,,,,s_073,4,2021_Mar_17_1825,Reversal,3.2.4,59.94402429050848,
2,exp1.png,exp2.png,,,,,,,,,,,,,,,,,2,0,2,0,0,2,2,2,,,,,,,,,False,42,123,False,exp1.png,exp2.png,trial_left_image,1,exp1.png,4,exp2.png,exp1.png,0,2,non-reversed,incorrect,0.0948654373487744,1,invalid_win,839.7137422000524,59,,,,,,,,,,,s_073,4,2021_Mar_17_1825,Reversal,3.2.4,59.94402429050848,
3,exp3.png,exp4.png,,,,,,,,,,,,,,,,,2,0,2,0,0,3,3,3,,,,,,,,,False,43,124,False,exp3.png,exp4.png,trial_right_image,-1,exp4.png,4,exp3.png,exp4.png,1,3,reversed,incorrect,0.1699877913715463,1,invalid_win,844.1283916000975,60,,,,,,,,,,,s_073,4,2021_Mar_17_1825,Reversal,3.2.4,59.94402429050848,
4,exp1.png,exp2.png,,,,,,,,,,,,,,,,,2,0,2,0,0,4,4,4,,,,,,,,,False,44,125,True,exp2.png,exp1.png,trial_right_image,-1,exp1.png,4,exp2.png,exp1.png,0,2,non-reversed,incorrect,0.6838200668453513,0,valid_lose,848.3599669000832,60,,,,,,,,,,,s_073,4,2021_Mar_17_1825,Reversal,3.2.4,59.94402429050848,
5,exp3.png,exp4.png,,,,,,,,,,,,,,,,,2,0,2,0,0,5,5,5,,,,,,,,,False,45,126,False,exp3.png,exp4.png,trial_right_image,-1,exp4.png,4,exp3.png,exp4.png,1,3,reversed,incorrect,0.03790273516414833,1,invalid_win,852.4912062000949,61,,,,,,,,,,,s_073,4,2021_Mar_17_1825,Reversal,3.2.4,59.94402429050848,
6,exp1.png,exp2.png,,,,,,,,,,,,,,,,,2,0,2,0,0,6,6,6,,,,,,,,,False,46,127,False,exp1.png,exp2.png,trial_right_image,-1,exp2.png,4,exp2.png,exp1.png,1,1,non-reversed,correct,0.8906164136474487,1,valid_win,857.840588400024,62,,,,,,,,,,,s_073,4,2021_Mar_17_1825,Reversal,3.2.4,59.94402429050848,
7,exp3.png,exp4.png,,,,,,,,,,,,,,,,,2,0,2,0,0,7,7,7,,,,,,,,,False,47,128,False,exp3.png,exp4.png,trial_left_image,1,exp3.png,4,exp3.png,exp4.png,0,4,reversed,correct,0.13535345000456556,0,invalid_lose,862.6386794000864,62,,,,,,,,,,,s_073,4,2021_Mar_17_1825,Reversal,3.2.4,59.94402429050848,
8,exp1.png,exp2.png,,,,,,,,,,,,,,,,,2,0,2,0,0,8,8,8,,,,,,,,,False,48,129,True,exp2.png,exp1.png,trial_left_image,1,exp2.png,4,exp2.png,exp1.png,1,1,non-reversed,correct,0.5861760960453573,1,valid_win,867.337141700089,63,,,,,,,,,,,s_073,4,2021_Mar_17_1825,Reversal,3.2.4,59.94402429050848,
9,exp3.png,exp4.png,,,,,,,,,,,,,,,,,2,0,2,0,0,9,9,9,,,,,,,,,False,49,130,True,exp4.png,exp3.png,trial_left_image,1,exp4.png,4,exp3.png,exp4.png,1,3,reversed,incorrect,0.9599272319352578,0,valid_lose,871.8687417000765,63,,,,,,,,,,,s_073,4,2021_Mar_17_1825,Reversal,3.2.4,59.94402429050848,
10,exp1.png,exp2.png,,,,,,,,,,,,,,,,,2,0,2,0,0,10,10,10,,,,,,,,,False,50,131,True,exp2.png,exp1.png,trial_left_image,1,exp2.png,4,exp2.png,exp1.png,1,1,non-reversed,correct,0.8253861792883052,1,valid_win,877.0510438000783,64,,,,,,,,,,,s_073,4,2021_Mar_17_1825,Reversal,3.2.4,59.94402429050848,
11,exp3.png,exp4.png,,,,,,,,,,,,,,,,,2,0,2,0,0,11,11,11,,,,,,,,,False,51,132,True,exp4.png,exp3.png,trial_right_image,-1,exp3.png,4,exp3.png,exp4.png,0,4,reversed,correct,0.7426062269200105,1,valid_win,881.8487625000998,65,,,,,,,,,,,s_073,4,2021_Mar_17_1825,Reversal,3.2.4,59.94402429050848,
12,exp1.png,exp2.png,,,,,,,,,,,,,,,,,2,0,2,0,0,12,12,12,,,,,,,,,False,52,133,False,exp1.png,exp2.png,trial_right_image,-1,exp2.png,4,exp2.png,exp1.png,1,1,non-reversed,correct,0.5561201512381325,1,valid_win,886.1640106000705,66,,,,,,,,,,,s_073,4,2021_Mar_17_1825,Reversal,3.2.4,59.94402429050848,
13,exp3.png,exp4.png,,,,,,,,,,,,,,,,,2,0,2,0,0,13,13,13,,,,,,,,,False,53,134,False,exp3.png,exp4.png,trial_left_image,1,exp3.png,4,exp3.png,exp4.png,0,4,reversed,correct,0.42601667551321476,1,valid_win,890.6788665000349,67,,,,,,,,,,,s_073,4,2021_Mar_17_1825,Reversal,3.2.4,59.94402429050848,
14,exp1.png,exp2.png,,,,,,,,,,,,,,,,,2,0,2,0,0,14,14,14,,,,,,,,,False,54,135,True,exp2.png,exp1.png,trial_left_image,1,exp2.png,4,exp2.png,exp1.png,1,1,non-reversed,correct,0.9372431614090008,1,valid_win,895.22769780003,68,,,,,,,,,,,s_073,4,2021_Mar_17_1825,Reversal,3.2.4,59.94402429050848,
15,exp3.png,exp4.png,,,,,,,,,,,,,,,,,2,0,2,0,0,15,15,15,,,,,,,,,False,55,136,True,exp4.png,exp3.png,trial_right_image,-1,exp3.png,4,exp3.png,exp4.png,0,4,reversed,correct,0.2875159397155399,1,valid_win,899.726898199995,69,,,,,,,,,,,s_073,4,2021_Mar_17_1825,Reversal,3.2.4,59.94402429050848,
16,exp1.png,exp2.png,,,,,,,,,,,,,,,,,2,0,2,0,0,16,16,16,,,,,,,,,False,56,137,False,exp1.png,exp2.png,trial_right_image,-1,exp2.png,4,exp2.png,exp1.png,1,1,non-reversed,correct,0.6595208942229096,1,valid_win,904.724984700093,70,,,,,,,,,,,s_073,4,2021_Mar_17_1825,Reversal,3.2.4,59.94402429050848,
17,exp3.png,exp4.png,,,,,,,,,,,,,,,,,2,0,2,0,0,17,17,17,,,,,,,,,False,57,138,True,exp4.png,exp3.png,trial_right_image,-1,exp3.png,4,exp3.png,exp4.png,0,4,reversed,correct,0.6883785430373192,1,valid_win,910.4391020000912,71,,,,,,,,,,,s_073,4,2021_Mar_17_1825,Reversal,3.2.4,59.94402429050848,
18,exp1.png,exp2.png,,,,,,,,,,,,,,,,,2,0,2,0,0,18,18,18,,,,,,,,,False,58,139,False,exp1.png,exp2.png,trial_right_image,-1,exp2.png,4,exp2.png,exp1.png,1,1,non-reversed,correct,0.7503915999893302,1,valid_win,914.7047853000695,72,,,,,,,,,,,s_073,4,2021_Mar_17_1825,Reversal,3.2.4,59.94402429050848,
19,exp3.png,exp4.png,,,,,,,,,,,,,,,,,2,0,2,0,0,19,19,19,,,,,,,,,False,59,140,False,exp3.png,exp4.png,trial_left_image,1,exp3.png,4,exp3.png,exp4.png,0,4,reversed,correct,0.9951984168969703,1,valid_win,919.1029615000589,73,,,,,,,,,,,s_073,4,2021_Mar_17_1825,Reversal,3.2.4,59.94402429050848,
20,exp1.png,exp2.png,,,,,,,,,,,,,,,,,2,0,2,0,0,20,20,20,,,,,,,,,True,,,,,,,,,,,,,,,,,,,,,,,,,,,,,,,s_073,4,2021_Mar_17_1825,Reversal,3.2.4,59.94402429050848,
,,,,,,,,,,,,,,,,,,,2,0,2,0,,,,,0,0,0,0,,,,,,,,,,,,,,,,,,,,,,,,,,16,89,87,22,,,,,,,s_073,4,2021_Mar_17_1825,Reversal,3.2.4,59.94402429050848,
,,,,,,,,,,,,,,,,,,,,,,,,,,,,,,,,,,,,,,,,,,,,,,,,,,,,,,,73,,,,,,89,46,43,326.8659042000072,1,,,,,,,
