trial_index,trial_image1_file,trial_image2_file,learning_outer_loop.thisRepN,learning_outer_loop.thisTrialN,learning_outer_loop.thisN,learning_outer_loop.thisIndex,learning_inner_loop.thisRepN,learning_inner_loop.thisTrialN,learning_inner_loop.thisN,learning_inner_loop.thisIndex,learning_estimation_outer_loop.thisRepN,learning_estimation_outer_loop.thisTrialN,learning_estimation_outer_loop.thisN,learning_estimation_outer_loop.thisIndex,learning_estimation_inner_loop.thisRepN,learning_estimation_inner_loop.thisTrialN,learning_estimation_inner_loop.thisN,learning_estimation_inner_loop.thisIndex,reversal_outer_loop.thisRepN,reversal_outer_loop.thisTrialN,reversal_outer_loop.thisN,reversal_outer_loop.thisIndex,reversal_inner_loop.thisRepN,reversal_inner_loop.thisTrialN,reversal_inner_loop.thisN,reversal_inner_loop.thisIndex,reversal_estimation_outer_loop.thisRepN,reversal_estimation_outer_loop.thisTrialN,reversal_estimation_outer_loop.thisN,reversal_estimation_outer_loop.thisIndex,reversal_estimation_inner_loop.thisRepN,reversal_estimation_inner_loop.thisTrialN,reversal_estimation_inner_loop.thisN,reversal_estimation_inner_loop.thisIndex,skipped,total_trial_counter,trial_num,left_right_flip,left_image_file,right_image_file,clicked_stimulus_side,side,clicked_stimulus,version,high_prob_image_file,low_prob_image_file,choice_a,choice_b,pair_type,correct,trial_feedback_random,reward,trial_type,overall_time_after_trial,score,estimation_exp1.png,estimation_exp2.png,estimation_exp3.png,estimation_exp4.png,total_learning_time,total_correct,learning_correct,reversal_correct,total_reversal_time,extra_block,participant,ver,date,expName,psychopyVersion,frameRate,
0,exp1.png,exp2.png,0,0,0,0,0,0,0,0,,,,,,,,,,,,,,,,,,,,,,,,,False,0,1,False,exp1.png,exp2.png,trial_right_image,-1,exp2.png,4,exp2.png,exp1.png,1,1,non-reversed,correct,0.10177371795081469,0,invalid_lose,26.554204999934882,0,,,,,,,,,,,s_088,4,2022_Jun_23_0938,Reversal,3.2.4,59.95444662752648,
1,exp3.png,exp4.png,0,0,0,0,0,1,1,1,,,,,,,,,,,,,,,,,,,,,,,,,False,1,2,False,exp3.png,exp4.png,trial_left_image,1,exp3.png,4,exp4.png,exp3.png,0,4,reversed,incorrect,0.5628223810799248,0,valid_lose,34.45078660000581,0,,,,,,,,,,,s_088,4,2022_Jun_23_0938,Reversal,3.2.4,59.95444662752648,
2,exp1.png,exp2.png,0,0,0,0,0,2,2,2,,,,,,,,,,,,,,,,,,,,,,,,,False,2,3,False,exp1.png,exp2.png,trial_right_image,-1,exp2.png,4,exp2.png,exp1.png,1,1,non-reversed,correct,0.6488255046801251,1,valid_win,43.298539599985816,1,,,,,,,,,,,s_088,4,2022_Jun_23_0938,Reversal,3.2.4,59.95444662752648,
3,exp3.png,exp4.png,0,0,0,0,0,3,3,3,,,,,,,,,,,,,,,,,,,,,,,,,False,3,4,True,exp4.png,exp3.png,trial_left_image,1,exp4.png,4,exp4.png,exp3.png,1,3,reversed,correct,0.43052786561609435,1,valid_win,60.59266399999615,2,,,,,,,,,,,s_088,4,2022_Jun_23_0938,Reversal,3.2.4,59.95444662752648,
4,exp1.png,exp2.png,0,0,0,0,0,4,4,4,,,,,,,,,,,,,,,,,,,,,,,,,False,4,5,False,exp1.png,exp2.png,trial_right_image,-1,exp2.png,4,exp2.png,exp1.png,1,1,non-reversed,correct,0.10027041996792696,0,invalid_lose,68.15639159991406,2,,,,,,,,,,,s_088,4,2022_Jun_23_0938,Reversal,3.2.4,59.95444662752648,
5,exp3.png,exp4.png,0,0,0,0,0,5,5,5,,,,,,,,,,,,,,,,,,,,,,,,,False,5,6,False,exp3.png,exp4.png,trial_right_image,-1,exp4.png,4,exp4.png,exp3.png,1,3,reversed,correct,0.8608997540789083,1,valid_win,73.72118569992017,3,,,,,,,,,,,s_088,4,2022_Jun_23_0938,Reversal,3.2.4,59.95444662752648,
6,exp1.png,exp2.png,0,0,0,0,0,6,6,6,,,,,,,,,,,,,,,,,,,,,,,,,False,6,7,True,exp2.png,exp1.png,trial_right_image,-1,exp1.png,4,exp2.png,exp1.png,0,2,non-reversed,incorrect,0.022886265557846452,1,invalid_win,80.20276479993481,4,,,,,,,,,,,s_088,4,2022_Jun_23_0938,Reversal,3.2.4,59.95444662752648,
7,exp3.png,exp4.png,0,0,0,0,0,7,7,7,,,,,,,,,,,,,,,,,,,,,,,,,False,7,8,False,exp3.png,exp4.png,trial_left_image,1,exp3.png,4,exp4.png,exp3.png,0,4,reversed,incorrect,0.0057618834464961965,1,invalid_win,90.08152389992028,5,,,,,,,,,,,s_088,4,2022_Jun_23_0938,Reversal,3.2.4,59.95444662752648,
8,exp1.png,exp2.png,0,0,0,0,0,8,8,8,,,,,,,,,,,,,,,,,,,,,,,,,False,8,9,False,exp1.png,exp2.png,trial_left_image,1,exp1.png,4,exp2.png,exp1.png,0,2,non-reversed,incorrect,0.837417677060225,0,valid_lose,95.93044779996853,5,,,,,,,,,,,s_088,4,2022_Jun_23_0938,Reversal,3.2.4,59.95444662752648,
9,exp3.png,exp4.png,0,0,0,0,0,9,9,9,,,,,,,,,,,,,,,,,,,,,,,,,False,9,10,True,exp4.png,exp3.png,trial_right_image,-1,exp3.png,4,exp4.png,exp3.png,0,4,reversed,incorrect,0.478797787295695,0,valid_lose,101.5950659000082,5,,,,,,,,,,,s_088,4,2022_Jun_23_0938,Reversal,3.2.4,59.95444662752648,
10,exp1.png,exp2.png,0,0,0,0,0,10,10,10,,,,,,,,,,,,,,,,,,,,,,,,,False,10,11,False,exp1.png,exp2.png,trial_right_image,-1,exp2.png,4,exp2.png,exp1.png,1,1,non-reversed,correct,0.4133779780734407,1,valid_win,108.8262491999194,6,,,,,,,,,,,s_088,4,2022_Jun_23_0938,Reversal,3.2.4,59.95444662752648,
11,exp3.png,exp4.png,0,0,0,0,0,11,11,11,,,,,,,,,,,,,,,,,,,,,,,,,False,11,12,True,exp4.png,exp3.png,trial_right_image,-1,exp3.png,4,exp4.png,exp3.png,0,4,reversed,incorrect,0.8183485822758918,0,valid_lose,117.88873519992922,6,,,,,,,,,,,s_088,4,2022_Jun_23_0938,Reversal,3.2.4,59.95444662752648,
12,exp1.png,exp2.png,0,0,0,0,0,12,12,12,,,,,,,,,,,,,,,,,,,,,,,,,False,12,13,True,exp2.png,exp1.png,trial_left_image,1,exp2.png,4,exp2.png,exp1.png,1,1,non-reversed,correct,0.6284026582030405,1,valid_win,122.95505819993559,7,,,,,,,,,,,s_088,4,2022_Jun_23_0938,Reversal,3.2.4,59.95444662752648,
13,exp3.png,exp4.png,0,0,0,0,0,13,13,13,,,,,,,,,,,,,,,,,,,,,,,,,False,13,14,False,exp3.png,exp4.png,trial_right_image,-1,exp4.png,4,exp4.png,exp3.png,1,3,reversed,correct,0.5333240051328285,1,valid_win,128.70318650000263,8,,,,,,,,,,,s_088,4,2022_Jun_23_0938,Reversal,3.2.4,59.95444662752648,
14,exp1.png,exp2.png,0,0,0,0,0,14,14,14,,,,,,,,,,,,,,,,,,,,,,,,,False,14,15,False,exp1.png,exp2.png,trial_right_image,-1,exp2.png,4,exp2.png,exp1.png,1,1,non-reversed,correct,0.44854148876894684,1,valid_win,133.73478679999243,9,,,,,,,,,,,s_088,4,2022_Jun_23_0938,Reversal,3.2.4,59.95444662752648,
15,exp3.png,exp4.png,0,0,0,0,0,15,15,15,,,,,,,,,,,,,,,,,,,,,,,,,False,15,16,True,exp4.png,exp3.png,trial_left_image,1,exp4.png,4,exp4.png,exp3.png,1,3,reversed,correct,0.22258396965990412,0,invalid_lose,138.61513599997852,9,,,,,,,,,,,s_088,4,2022_Jun_23_0938,Reversal,3.2.4,59.95444662752648,
16,exp1.png,exp2.png,0,0,0,0,0,16,16,16,,,,,,,,,,,,,,,,,,,,,,,,,False,16,17,True,exp2.png,exp1.png,trial_left_image,1,exp2.png,4,exp2.png,exp1.png,1,1,non-reversed,correct,0.8951035238161964,1,valid_win,145.44748199998867,10,,,,,,,,,,,s_088,4,2022_Jun_23_0938,Reversal,3.2.4,59.95444662752648,
17,exp3.png,exp4.png,0,0,0,0,0,17,17,17,,,,,,,,,,,,,,,,,,,,,,,,,False,17,18,True,exp4.png,exp3.png,trial_right_image,-1,exp3.png,4,exp4.png,exp3.png,0,4,reversed,incorrect,0.860362529767806,0,valid_lose,154.62665160000324,10,,,,,,,,,,,s_088,4,2022_Jun_23_0938,Reversal,3.2.4,59.95444662752648,
18,exp1.png,exp2.png,0,0,0,0,0,18,18,18,,,,,,,,,,,,,,,,,,,,,,,,,False,18,19,True,exp2.png,exp1.png,trial_left_image,1,exp2.png,4,exp2.png,exp1.png,1,1,non-reversed,correct,0.20790011471998437,0,invalid_lose,159.59209039993584,10,,,,,,,,,,,s_088,4,2022_Jun_23_0938,Reversal,3.2.4,59.95444662752648,
19,exp3.png,exp4.png,0,0,0,0,0,19,19,19,,,,,,,,,,,,,,,,,,,,,,,,,False,19,20,True,exp4.png,exp3.png,trial_left_image,1,exp4.png,4,exp4.png,exp3.png,1,3,reversed,correct,0.48440031798068184,1,valid_win,171.90508489997592,11,,,,,,,,,,,s_088,4,2022_Jun_23_0938,Reversal,3.2.4,59.95444662752648,
20,exp1.png,exp2.png,0,0,0,0,0,20,20,20,,,,,,,,,,,,,,,,,,,,,,,,,True,,,,,,,,,,,,,,,,,,,,,,,,,,,,,,,s_088,4,2022_Jun_23_0938,Reversal,3.2.4,59.95444662752648,
,,,0,0,0,0,,,,,0,0,0,0,,,,,,,,,,,,,,,,,,,,,,,,,,,,,,,,,,,,,,,,,,0,50.0,50.0,50.0,,,,,,,s_088,4,2022_Jun_23_0938,Reversal,3.2.4,59.95444662752648,
0,exp1.png,exp2.png,1,0,1,0,0,0,0,0,,,,,,,,,,,,,,,,,,,,,,,,,False,20,21,True,exp2.png,exp1.png,trial_left_image,1,exp2.png,4,exp2.png,exp1.png,1,1,non-reversed,correct,0.4284132175670794,1,valid_win,213.2411768999882,12,,,,,,,,,,,s_088,4,2022_Jun_23_0938,Reversal,3.2.4,59.95444662752648,
1,exp3.png,exp4.png,1,0,1,0,0,1,1,1,,,,,,,,,,,,,,,,,,,,,,,,,False,21,22,True,exp4.png,exp3.png,trial_left_image,1,exp4.png,4,exp4.png,exp3.png,1,3,reversed,correct,0.3156402936064451,1,valid_win,223.1541529999813,13,,,,,,,,,,,s_088,4,2022_Jun_23_0938,Reversal,3.2.4,59.95444662752648,
2,exp1.png,exp2.png,1,0,1,0,0,2,2,2,,,,,,,,,,,,,,,,,,,,,,,,,False,22,23,False,exp1.png,exp2.png,trial_right_image,-1,exp2.png,4,exp2.png,exp1.png,1,1,non-reversed,correct,0.7426382963748932,1,valid_win,229.73520080000162,14,,,,,,,,,,,s_088,4,2022_Jun_23_0938,Reversal,3.2.4,59.95444662752648,
3,exp3.png,exp4.png,1,0,1,0,0,3,3,3,,,,,,,,,,,,,,,,,,,,,,,,,False,23,24,False,exp3.png,exp4.png,trial_left_image,1,exp3.png,4,exp4.png,exp3.png,0,4,reversed,incorrect,0.14986863309190268,1,invalid_win,237.5001229000045,15,,,,,,,,,,,s_088,4,2022_Jun_23_0938,Reversal,3.2.4,59.95444662752648,
4,exp1.png,exp2.png,1,0,1,0,0,4,4,4,,,,,,,,,,,,,,,,,,,,,,,,,False,24,25,True,exp2.png,exp1.png,trial_left_image,1,exp2.png,4,exp2.png,exp1.png,1,1,non-reversed,correct,0.8928149692812982,1,valid_win,244.5971744999988,16,,,,,,,,,,,s_088,4,2022_Jun_23_0938,Reversal,3.2.4,59.95444662752648,
5,exp3.png,exp4.png,1,0,1,0,0,5,5,5,,,,,,,,,,,,,,,,,,,,,,,,,False,25,26,True,exp4.png,exp3.png,trial_left_image,1,exp4.png,4,exp4.png,exp3.png,1,3,reversed,correct,0.5339051913247788,1,valid_win,253.2440921999514,17,,,,,,,,,,,s_088,4,2022_Jun_23_0938,Reversal,3.2.4,59.95444662752648,
6,exp1.png,exp2.png,1,0,1,0,0,6,6,6,,,,,,,,,,,,,,,,,,,,,,,,,False,26,27,False,exp1.png,exp2.png,trial_right_image,-1,exp2.png,4,exp2.png,exp1.png,1,1,non-reversed,correct,0.017034633836136015,0,invalid_lose,258.20880669995677,17,,,,,,,,,,,s_088,4,2022_Jun_23_0938,Reversal,3.2.4,59.95444662752648,
7,exp3.png,exp4.png,1,0,1,0,0,7,7,7,,,,,,,,,,,,,,,,,,,,,,,,,False,27,28,True,exp4.png,exp3.png,trial_left_image,1,exp4.png,4,exp4.png,exp3.png,1,3,reversed,correct,0.5207994001646596,1,valid_win,263.69062190002296,18,,,,,,,,,,,s_088,4,2022_Jun_23_0938,Reversal,3.2.4,59.95444662752648,
8,exp1.png,exp2.png,1,0,1,0,0,8,8,8,,,,,,,,,,,,,,,,,,,,,,,,,False,28,29,False,exp1.png,exp2.png,trial_right_image,-1,exp2.png,4,exp2.png,exp1.png,1,1,non-reversed,correct,0.1995144369721964,0,invalid_lose,270.2543845999753,18,,,,,,,,,,,s_088,4,2022_Jun_23_0938,Reversal,3.2.4,59.95444662752648,
9,exp3.png,exp4.png,1,0,1,0,0,9,9,9,,,,,,,,,,,,,,,,,,,,,,,,,False,29,30,False,exp3.png,exp4.png,trial_left_image,1,exp3.png,4,exp4.png,exp3.png,0,4,reversed,incorrect,0.6326695916966614,0,valid_lose,276.5362591999583,18,,,,,,,,,,,s_088,4,2022_Jun_23_0938,Reversal,3.2.4,59.95444662752648,
10,exp1.png,exp2.png,1,0,1,0,0,10,10,10,,,,,,,,,,,,,,,,,,,,,,,,,False,30,31,False,exp1.png,exp2.png,trial_left_image,1,exp1.png,4,exp2.png,exp1.png,0,2,non-reversed,incorrect,0.7390208280021356,0,valid_lose,281.38459129992407,18,,,,,,,,,,,s_088,4,2022_Jun_23_0938,Reversal,3.2.4,59.95444662752648,
11,exp3.png,exp4.png,1,0,1,0,0,11,11,11,,,,,,,,,,,,,,,,,,,,,,,,,False,31,32,True,exp4.png,exp3.png,trial_left_image,1,exp4.png,4,exp4.png,exp3.png,1,3,reversed,correct,0.9682929654484456,1,valid_win,286.2495991999749,19,,,,,,,,,,,s_088,4,2022_Jun_23_0938,Reversal,3.2.4,59.95444662752648,
12,exp1.png,exp2.png,1,0,1,0,0,12,12,12,,,,,,,,,,,,,,,,,,,,,,,,,False,32,33,True,exp2.png,exp1.png,trial_left_image,1,exp2.png,4,exp2.png,exp1.png,1,1,non-reversed,correct,0.5223757473836812,1,valid_win,292.2653882999439,20,,,,,,,,,,,s_088,4,2022_Jun_23_0938,Reversal,3.2.4,59.95444662752648,
13,exp3.png,exp4.png,1,0,1,0,0,13,13,13,,,,,,,,,,,,,,,,,,,,,,,,,False,33,34,False,exp3.png,exp4.png,trial_right_image,-1,exp4.png,4,exp4.png,exp3.png,1,3,reversed,correct,0.6492828612047209,1,valid_win,298.879179499927,21,,,,,,,,,,,s_088,4,2022_Jun_23_0938,Reversal,3.2.4,59.95444662752648,
14,exp1.png,exp2.png,1,0,1,0,0,14,14,14,,,,,,,,,,,,,,,,,,,,,,,,,False,34,35,False,exp1.png,exp2.png,trial_right_image,-1,exp2.png,4,exp2.png,exp1.png,1,1,non-reversed,correct,0.20884058053907717,0,invalid_lose,304.1600058999611,21,,,,,,,,,,,s_088,4,2022_Jun_23_0938,Reversal,3.2.4,59.95444662752648,
15,exp3.png,exp4.png,1,0,1,0,0,15,15,15,,,,,,,,,,,,,,,,,,,,,,,,,False,35,36,True,exp4.png,exp3.png,trial_left_image,1,exp4.png,4,exp4.png,exp3.png,1,3,reversed,correct,0.4002320576181625,1,valid_win,310.0750346999848,22,,,,,,,,,,,s_088,4,2022_Jun_23_0938,Reversal,3.2.4,59.95444662752648,
16,exp1.png,exp2.png,1,0,1,0,0,16,16,16,,,,,,,,,,,,,,,,,,,,,,,,,False,36,37,False,exp1.png,exp2.png,trial_left_image,1,exp1.png,4,exp2.png,exp1.png,0,2,non-reversed,incorrect,0.3553674807585786,0,valid_lose,314.7895610999549,22,,,,,,,,,,,s_088,4,2022_Jun_23_0938,Reversal,3.2.4,59.95444662752648,
17,exp3.png,exp4.png,1,0,1,0,0,17,17,17,,,,,,,,,,,,,,,,,,,,,,,,,False,37,38,True,exp4.png,exp3.png,trial_left_image,1,exp4.png,4,exp4.png,exp3.png,1,3,reversed,correct,0.5498048938451107,1,valid_win,320.23825970001053,23,,,,,,,,,,,s_088,4,2022_Jun_23_0938,Reversal,3.2.4,59.95444662752648,
18,exp1.png,exp2.png,1,0,1,0,0,18,18,18,,,,,,,,,,,,,,,,,,,,,,,,,False,38,39,True,exp2.png,exp1.png,trial_left_image,1,exp2.png,4,exp2.png,exp1.png,1,1,non-reversed,correct,0.31001449869093056,1,valid_win,328.9353300000075,24,,,,,,,,,,,s_088,4,2022_Jun_23_0938,Reversal,3.2.4,59.95444662752648,
19,exp3.png,exp4.png,1,0,1,0,0,19,19,19,,,,,,,,,,,,,,,,,,,,,,,,,False,39,40,False,exp3.png,exp4.png,trial_right_image,-1,exp4.png,4,exp4.png,exp3.png,1,3,reversed,correct,0.5715061851094083,1,valid_win,335.4336628000019,25,,,,,,,,,,,s_088,4,2022_Jun_23_0938,Reversal,3.2.4,59.95444662752648,
20,exp1.png,exp2.png,1,0,1,0,0,20,20,20,,,,,,,,,,,,,,,,,,,,,,,,,True,,,,,,,,,,,,,,,,,,,,,,,,,,,,,,,s_088,4,2022_Jun_23_0938,Reversal,3.2.4,59.95444662752648,
,,,1,0,1,0,,,,,0,0,0,0,,,,,,,,,,,,,,,,,,,,,,,,,,,,,,,,,,,,,,,,,,50.0,50.0,50.0,50.0,,,,,,,s_088,4,2022_Jun_23_0938,Reversal,3.2.4,59.95444662752648,
0,exp1.png,exp2.png,2,0,2,0,0,0,0,0,,,,,,,,,,,,,,,,,,,,,,,,,False,40,41,False,exp1.png,exp2.png,trial_left_image,1,exp1.png,4,exp2.png,exp1.png,0,2,non-reversed,incorrect,0.34681462122511186,0,valid_lose,360.6582030999707,25,,,,,,,,,,,s_088,4,2022_Jun_23_0938,Reversal,3.2.4,59.95444662752648,
1,exp3.png,exp4.png,2,0,2,0,0,1,1,1,,,,,,,,,,,,,,,,,,,,,,,,,False,41,42,True,exp4.png,exp3.png,trial_left_image,1,exp4.png,4,exp4.png,exp3.png,1,3,reversed,correct,0.9336233001083725,1,valid_win,368.32164919993374,26,,,,,,,,,,,s_088,4,2022_Jun_23_0938,Reversal,3.2.4,59.95444662752648,
2,exp1.png,exp2.png,2,0,2,0,0,2,2,2,,,,,,,,,,,,,,,,,,,,,,,,,False,42,43,False,exp1.png,exp2.png,trial_right_image,-1,exp2.png,4,exp2.png,exp1.png,1,1,non-reversed,correct,0.4098293432101038,1,valid_win,381.3680054999422,27,,,,,,,,,,,s_088,4,2022_Jun_23_0938,Reversal,3.2.4,59.95444662752648,
3,exp3.png,exp4.png,2,0,2,0,0,3,3,3,,,,,,,,,,,,,,,,,,,,,,,,,False,43,44,True,exp4.png,exp3.png,trial_left_image,1,exp4.png,4,exp4.png,exp3.png,1,3,reversed,correct,0.5974971689015385,1,valid_win,392.064159499947,28,,,,,,,,,,,s_088,4,2022_Jun_23_0938,Reversal,3.2.4,59.95444662752648,
4,exp1.png,exp2.png,2,0,2,0,0,4,4,4,,,,,,,,,,,,,,,,,,,,,,,,,False,44,45,True,exp2.png,exp1.png,trial_right_image,-1,exp1.png,4,exp2.png,exp1.png,0,2,non-reversed,incorrect,0.497774089402534,0,valid_lose,402.24440949992277,28,,,,,,,,,,,s_088,4,2022_Jun_23_0938,Reversal,3.2.4,59.95444662752648,
5,exp3.png,exp4.png,2,0,2,0,0,5,5,5,,,,,,,,,,,,,,,,,,,,,,,,,False,45,46,False,exp3.png,exp4.png,trial_right_image,-1,exp4.png,4,exp4.png,exp3.png,1,3,reversed,correct,0.6797629558559685,1,valid_win,410.27464740001597,29,,,,,,,,,,,s_088,4,2022_Jun_23_0938,Reversal,3.2.4,59.95444662752648,
6,exp1.png,exp2.png,2,0,2,0,0,6,6,6,,,,,,,,,,,,,,,,,,,,,,,,,False,46,47,False,exp1.png,exp2.png,trial_right_image,-1,exp2.png,4,exp2.png,exp1.png,1,1,non-reversed,correct,0.8416404627507497,1,valid_win,418.6219061999582,30,,,,,,,,,,,s_088,4,2022_Jun_23_0938,Reversal,3.2.4,59.95444662752648,
7,exp3.png,exp4.png,2,0,2,0,0,7,7,7,,,,,,,,,,,,,,,,,,,,,,,,,False,47,48,True,exp4.png,exp3.png,trial_left_image,1,exp4.png,4,exp4.png,exp3.png,1,3,reversed,correct,0.12719113050894038,0,invalid_lose,422.96954099996947,30,,,,,,,,,,,s_088,4,2022_Jun_23_0938,Reversal,3.2.4,59.95444662752648,
8,exp1.png,exp2.png,2,0,2,0,0,8,8,8,,,,,,,,,,,,,,,,,,,,,,,,,False,48,49,False,exp1.png,exp2.png,trial_left_image,1,exp1.png,4,exp2.png,exp1.png,0,2,non-reversed,incorrect,0.6237456151398165,0,valid_lose,431.8674999999348,30,,,,,,,,,,,s_088,4,2022_Jun_23_0938,Reversal,3.2.4,59.95444662752648,
9,exp3.png,exp4.png,2,0,2,0,0,9,9,9,,,,,,,,,,,,,,,,,,,,,,,,,False,49,50,False,exp3.png,exp4.png,trial_right_image,-1,exp4.png,4,exp4.png,exp3.png,1,3,reversed,correct,0.45308766849631354,1,valid_win,437.2983856999781,31,,,,,,,,,,,s_088,4,2022_Jun_23_0938,Reversal,3.2.4,59.95444662752648,
10,exp1.png,exp2.png,2,0,2,0,0,10,10,10,,,,,,,,,,,,,,,,,,,,,,,,,False,50,51,False,exp1.png,exp2.png,trial_right_image,-1,exp2.png,4,exp2.png,exp1.png,1,1,non-reversed,correct,0.02006026068743283,0,invalid_lose,443.74594459997024,31,,,,,,,,,,,s_088,4,2022_Jun_23_0938,Reversal,3.2.4,59.95444662752648,
11,exp3.png,exp4.png,2,0,2,0,0,11,11,11,,,,,,,,,,,,,,,,,,,,,,,,,False,51,52,False,exp3.png,exp4.png,trial_right_image,-1,exp4.png,4,exp4.png,exp3.png,1,3,reversed,correct,0.9320420091101769,1,valid_win,448.51193259994034,32,,,,,,,,,,,s_088,4,2022_Jun_23_0938,Reversal,3.2.4,59.95444662752648,
12,exp1.png,exp2.png,2,0,2,0,0,12,12,12,,,,,,,,,,,,,,,,,,,,,,,,,False,52,53,True,exp2.png,exp1.png,trial_left_image,1,exp2.png,4,exp2.png,exp1.png,1,1,non-reversed,correct,0.9753850235039527,1,valid_win,453.26005759998225,33,,,,,,,,,,,s_088,4,2022_Jun_23_0938,Reversal,3.2.4,59.95444662752648,
13,exp3.png,exp4.png,2,0,2,0,0,13,13,13,,,,,,,,,,,,,,,,,,,,,,,,,False,53,54,False,exp3.png,exp4.png,trial_right_image,-1,exp4.png,4,exp4.png,exp3.png,1,3,reversed,correct,0.7633224094524486,1,valid_win,457.6575730999466,34,,,,,,,,,,,s_088,4,2022_Jun_23_0938,Reversal,3.2.4,59.95444662752648,
14,exp1.png,exp2.png,2,0,2,0,0,14,14,14,,,,,,,,,,,,,,,,,,,,,,,,,False,54,55,True,exp2.png,exp1.png,trial_left_image,1,exp2.png,4,exp2.png,exp1.png,1,1,non-reversed,correct,0.8491249271930577,1,valid_win,462.40700020000804,35,,,,,,,,,,,s_088,4,2022_Jun_23_0938,Reversal,3.2.4,59.95444662752648,
15,exp3.png,exp4.png,2,0,2,0,0,15,15,15,,,,,,,,,,,,,,,,,,,,,,,,,False,55,56,True,exp4.png,exp3.png,trial_right_image,-1,exp3.png,4,exp4.png,exp3.png,0,4,reversed,incorrect,0.5845925697323678,0,valid_lose,466.7389933000086,35,,,,,,,,,,,s_088,4,2022_Jun_23_0938,Reversal,3.2.4,59.95444662752648,
16,exp1.png,exp2.png,2,0,2,0,0,16,16,16,,,,,,,,,,,,,,,,,,,,,,,,,False,56,57,False,exp1.png,exp2.png,trial_left_image,1,exp1.png,4,exp2.png,exp1.png,0,2,non-reversed,incorrect,0.12925774067400186,1,invalid_win,473.02034059993457,36,,,,,,,,,,,s_088,4,2022_Jun_23_0938,Reversal,3.2.4,59.95444662752648,
17,exp3.png,exp4.png,2,0,2,0,0,17,17,17,,,,,,,,,,,,,,,,,,,,,,,,,False,57,58,True,exp4.png,exp3.png,trial_left_image,1,exp4.png,4,exp4.png,exp3.png,1,3,reversed,correct,0.5472442923556886,1,valid_win,478.55152500001714,37,,,,,,,,,,,s_088,4,2022_Jun_23_0938,Reversal,3.2.4,59.95444662752648,
18,exp1.png,exp2.png,2,0,2,0,0,18,18,18,,,,,,,,,,,,,,,,,,,,,,,,,False,58,59,True,exp2.png,exp1.png,trial_left_image,1,exp2.png,4,exp2.png,exp1.png,1,1,non-reversed,correct,0.2362479716487148,0,invalid_lose,485.06624519999605,37,,,,,,,,,,,s_088,4,2022_Jun_23_0938,Reversal,3.2.4,59.95444662752648,
19,exp3.png,exp4.png,2,0,2,0,0,19,19,19,,,,,,,,,,,,,,,,,,,,,,,,,False,59,60,True,exp4.png,exp3.png,trial_left_image,1,exp4.png,4,exp4.png,exp3.png,1,3,reversed,correct,0.30792191202152963,1,valid_win,490.5971447000047,38,,,,,,,,,,,s_088,4,2022_Jun_23_0938,Reversal,3.2.4,59.95444662752648,
20,exp1.png,exp2.png,2,0,2,0,0,20,20,20,,,,,,,,,,,,,,,,,,,,,,,,,True,,,,,,,,,,,,,,,,,,,,,,,,,,,,,,,s_088,4,2022_Jun_23_0938,Reversal,3.2.4,59.95444662752648,
,,,2,0,2,0,,,,,0,0,0,0,,,,,,,,,,,,,,,,,,,,,,,,,,,,,,,,,,,,,,,,,,50.0,50.0,50.0,50.0,,,,,,,s_088,4,2022_Jun_23_0938,Reversal,3.2.4,59.95444662752648,
0,exp1.png,exp2.png,3,0,3,0,0,0,0,0,,,,,,,,,,,,,,,,,,,,,,,,,False,60,61,False,exp1.png,exp2.png,trial_right_image,-1,exp2.png,4,exp2.png,exp1.png,1,1,non-reversed,correct,0.7742962973135451,1,valid_win,510.573348899954,39,,,,,,,,,,,s_088,4,2022_Jun_23_0938,Reversal,3.2.4,59.95444662752648,
1,exp3.png,exp4.png,3,0,3,0,0,1,1,1,,,,,,,,,,,,,,,,,,,,,,,,,False,61,62,True,exp4.png,exp3.png,trial_left_image,1,exp4.png,4,exp4.png,exp3.png,1,3,reversed,correct,0.06086053020911031,0,invalid_lose,520.9554143999703,39,,,,,,,,,,,s_088,4,2022_Jun_23_0938,Reversal,3.2.4,59.95444662752648,
2,exp1.png,exp2.png,3,0,3,0,0,2,2,2,,,,,,,,,,,,,,,,,,,,,,,,,False,62,63,True,exp2.png,exp1.png,trial_left_image,1,exp2.png,4,exp2.png,exp1.png,1,1,non-reversed,correct,0.47353944465824993,1,valid_win,525.902457499993,40,,,,,,,,,,,s_088,4,2022_Jun_23_0938,Reversal,3.2.4,59.95444662752648,
3,exp3.png,exp4.png,3,0,3,0,0,3,3,3,,,,,,,,,,,,,,,,,,,,,,,,,False,63,64,False,exp3.png,exp4.png,trial_left_image,1,exp3.png,4,exp4.png,exp3.png,0,4,reversed,incorrect,0.043883493625248016,1,invalid_win,531.5673283999786,41,,,,,,,,,,,s_088,4,2022_Jun_23_0938,Reversal,3.2.4,59.95444662752648,
4,exp1.png,exp2.png,3,0,3,0,0,4,4,4,,,,,,,,,,,,,,,,,,,,,,,,,False,64,65,True,exp2.png,exp1.png,trial_left_image,1,exp2.png,4,exp2.png,exp1.png,1,1,non-reversed,correct,0.01608891349116992,0,invalid_lose,536.5661327999551,41,,,,,,,,,,,s_088,4,2022_Jun_23_0938,Reversal,3.2.4,59.95444662752648,
5,exp3.png,exp4.png,3,0,3,0,0,5,5,5,,,,,,,,,,,,,,,,,,,,,,,,,False,65,66,True,exp4.png,exp3.png,trial_right_image,-1,exp3.png,4,exp4.png,exp3.png,0,4,reversed,incorrect,0.16455994101284677,1,invalid_win,542.3487936999882,42,,,,,,,,,,,s_088,4,2022_Jun_23_0938,Reversal,3.2.4,59.95444662752648,
6,exp1.png,exp2.png,3,0,3,0,0,6,6,6,,,,,,,,,,,,,,,,,,,,,,,,,False,66,67,False,exp1.png,exp2.png,trial_left_image,1,exp1.png,4,exp2.png,exp1.png,0,2,non-reversed,incorrect,0.5036070782047173,0,valid_lose,547.0304562000092,42,,,,,,,,,,,s_088,4,2022_Jun_23_0938,Reversal,3.2.4,59.95444662752648,
7,exp3.png,exp4.png,3,0,3,0,0,7,7,7,,,,,,,,,,,,,,,,,,,,,,,,,False,67,68,False,exp3.png,exp4.png,trial_left_image,1,exp3.png,4,exp4.png,exp3.png,0,4,reversed,incorrect,0.8174830257970271,0,valid_lose,552.9944522000151,42,,,,,,,,,,,s_088,4,2022_Jun_23_0938,Reversal,3.2.4,59.95444662752648,
8,exp1.png,exp2.png,3,0,3,0,0,8,8,8,,,,,,,,,,,,,,,,,,,,,,,,,False,68,69,True,exp2.png,exp1.png,trial_right_image,-1,exp1.png,4,exp2.png,exp1.png,0,2,non-reversed,incorrect,0.6228836870100946,0,valid_lose,556.9263397000032,42,,,,,,,,,,,s_088,4,2022_Jun_23_0938,Reversal,3.2.4,59.95444662752648,
9,exp3.png,exp4.png,3,0,3,0,0,9,9,9,,,,,,,,,,,,,,,,,,,,,,,,,False,69,70,False,exp3.png,exp4.png,trial_right_image,-1,exp4.png,4,exp4.png,exp3.png,1,3,reversed,correct,0.2153081174761119,0,invalid_lose,562.1944627999328,42,,,,,,,,,,,s_088,4,2022_Jun_23_0938,Reversal,3.2.4,59.95444662752648,
10,exp1.png,exp2.png,3,0,3,0,0,10,10,10,,,,,,,,,,,,,,,,,,,,,,,,,False,70,71,True,exp2.png,exp1.png,trial_right_image,-1,exp1.png,4,exp2.png,exp1.png,0,2,non-reversed,incorrect,0.1291880235907762,1,invalid_win,567.2210015999153,43,,,,,,,,,,,s_088,4,2022_Jun_23_0938,Reversal,3.2.4,59.95444662752648,
11,exp3.png,exp4.png,3,0,3,0,0,11,11,11,,,,,,,,,,,,,,,,,,,,,,,,,False,71,72,True,exp4.png,exp3.png,trial_right_image,-1,exp3.png,4,exp4.png,exp3.png,0,4,reversed,incorrect,0.25201057795710613,0,valid_lose,571.2366655999795,43,,,,,,,,,,,s_088,4,2022_Jun_23_0938,Reversal,3.2.4,59.95444662752648,
12,exp1.png,exp2.png,3,0,3,0,0,12,12,12,,,,,,,,,,,,,,,,,,,,,,,,,False,72,73,True,exp2.png,exp1.png,trial_right_image,-1,exp1.png,4,exp2.png,exp1.png,0,2,non-reversed,incorrect,0.7211752188873869,0,valid_lose,576.1191620000172,43,,,,,,,,,,,s_088,4,2022_Jun_23_0938,Reversal,3.2.4,59.95444662752648,
13,exp3.png,exp4.png,3,0,3,0,0,13,13,13,,,,,,,,,,,,,,,,,,,,,,,,,False,73,74,False,exp3.png,exp4.png,trial_right_image,-1,exp4.png,4,exp4.png,exp3.png,1,3,reversed,correct,0.9473415294878549,1,valid_win,581.2161836000159,44,,,,,,,,,,,s_088,4,2022_Jun_23_0938,Reversal,3.2.4,59.95444662752648,
14,exp1.png,exp2.png,3,0,3,0,0,14,14,14,,,,,,,,,,,,,,,,,,,,,,,,,False,74,75,False,exp1.png,exp2.png,trial_right_image,-1,exp2.png,4,exp2.png,exp1.png,1,1,non-reversed,correct,0.08891171582766089,0,invalid_lose,585.318381399964,44,,,,,,,,,,,s_088,4,2022_Jun_23_0938,Reversal,3.2.4,59.95444662752648,
15,exp3.png,exp4.png,3,0,3,0,0,15,15,15,,,,,,,,,,,,,,,,,,,,,,,,,False,75,76,False,exp3.png,exp4.png,trial_right_image,-1,exp4.png,4,exp4.png,exp3.png,1,3,reversed,correct,0.841934297813567,1,valid_win,590.2313141999766,45,,,,,,,,,,,s_088,4,2022_Jun_23_0938,Reversal,3.2.4,59.95444662752648,
16,exp1.png,exp2.png,3,0,3,0,0,16,16,16,,,,,,,,,,,,,,,,,,,,,,,,,False,76,77,True,exp2.png,exp1.png,trial_right_image,-1,exp1.png,4,exp2.png,exp1.png,0,2,non-reversed,incorrect,0.8430038563284884,0,valid_lose,595.0150844999589,45,,,,,,,,,,,s_088,4,2022_Jun_23_0938,Reversal,3.2.4,59.95444662752648,
17,exp3.png,exp4.png,3,0,3,0,0,17,17,17,,,,,,,,,,,,,,,,,,,,,,,,,False,77,78,False,exp3.png,exp4.png,trial_right_image,-1,exp4.png,4,exp4.png,exp3.png,1,3,reversed,correct,0.13266974514699525,0,invalid_lose,600.6933702999959,45,,,,,,,,,,,s_088,4,2022_Jun_23_0938,Reversal,3.2.4,59.95444662752648,
18,exp1.png,exp2.png,3,0,3,0,0,18,18,18,,,,,,,,,,,,,,,,,,,,,,,,,False,78,79,True,exp2.png,exp1.png,trial_left_image,1,exp2.png,4,exp2.png,exp1.png,1,1,non-reversed,correct,0.1298681407620399,0,invalid_lose,610.9255835999502,45,,,,,,,,,,,s_088,4,2022_Jun_23_0938,Reversal,3.2.4,59.95444662752648,
19,exp3.png,exp4.png,3,0,3,0,0,19,19,19,,,,,,,,,,,,,,,,,,,,,,,,,False,79,80,False,exp3.png,exp4.png,trial_right_image,-1,exp4.png,4,exp4.png,exp3.png,1,3,reversed,correct,0.9480168191034113,1,valid_win,617.5053765999619,46,,,,,,,,,,,s_088,4,2022_Jun_23_0938,Reversal,3.2.4,59.95444662752648,
20,exp1.png,exp2.png,3,0,3,0,0,20,20,20,,,,,,,,,,,,,,,,,,,,,,,,,True,,,,,,,,,,,,,,,,,,,,,,,,,,,,,,,s_088,4,2022_Jun_23_0938,Reversal,3.2.4,59.95444662752648,
,,,3,0,3,0,,,,,0,0,0,0,,,,,,,,,,,,,,,,,,,,,,,,,,,,,,,,,,,,,,,,,,50.0,50.0,0,50.0,,,,,,,s_088,4,2022_Jun_23_0938,Reversal,3.2.4,59.95444662752648,
0,exp1.png,exp2.png,,,,,,,,,,,,,,,,,0,0,0,0,0,0,0,0,,,,,,,,,False,0,81,False,exp1.png,exp2.png,trial_left_image,1,exp1.png,4,exp2.png,exp1.png,0,2,non-reversed,incorrect,0.9455486752080499,0,valid_lose,640.7636678999988,46,,,,,633.3432213999331,,,,,,s_088,4,2022_Jun_23_0938,Reversal,3.2.4,59.95444662752648,
1,exp3.png,exp4.png,,,,,,,,,,,,,,,,,0,0,0,0,0,1,1,1,,,,,,,,,False,1,82,True,exp4.png,exp3.png,trial_right_image,-1,exp3.png,4,exp3.png,exp4.png,0,4,reversed,correct,0.5444197587882513,1,valid_win,647.7801495000022,47,,,,,,,,,,,s_088,4,2022_Jun_23_0938,Reversal,3.2.4,59.95444662752648,
2,exp1.png,exp2.png,,,,,,,,,,,,,,,,,0,0,0,0,0,2,2,2,,,,,,,,,False,2,83,True,exp2.png,exp1.png,trial_right_image,-1,exp1.png,4,exp2.png,exp1.png,0,2,non-reversed,incorrect,0.9903858842187048,0,valid_lose,655.825017199968,47,,,,,,,,,,,s_088,4,2022_Jun_23_0938,Reversal,3.2.4,59.95444662752648,
3,exp3.png,exp4.png,,,,,,,,,,,,,,,,,0,0,0,0,0,3,3,3,,,,,,,,,False,3,84,False,exp3.png,exp4.png,trial_left_image,1,exp3.png,4,exp3.png,exp4.png,0,4,reversed,correct,0.6634300258114331,1,valid_win,666.1549283999484,48,,,,,,,,,,,s_088,4,2022_Jun_23_0938,Reversal,3.2.4,59.95444662752648,
4,exp1.png,exp2.png,,,,,,,,,,,,,,,,,0,0,0,0,0,4,4,4,,,,,,,,,False,4,85,False,exp1.png,exp2.png,trial_right_image,-1,exp2.png,4,exp2.png,exp1.png,1,1,non-reversed,correct,0.4823072007880359,1,valid_win,671.4539821000071,49,,,,,,,,,,,s_088,4,2022_Jun_23_0938,Reversal,3.2.4,59.95444662752648,
5,exp3.png,exp4.png,,,,,,,,,,,,,,,,,0,0,0,0,0,5,5,5,,,,,,,,,False,5,86,False,exp3.png,exp4.png,trial_left_image,1,exp3.png,4,exp3.png,exp4.png,0,4,reversed,correct,0.5061909766044043,1,valid_win,675.9017237999942,50,,,,,,,,,,,s_088,4,2022_Jun_23_0938,Reversal,3.2.4,59.95444662752648,
6,exp1.png,exp2.png,,,,,,,,,,,,,,,,,0,0,0,0,0,6,6,6,,,,,,,,,False,6,87,False,exp1.png,exp2.png,trial_right_image,-1,exp2.png,4,exp2.png,exp1.png,1,1,non-reversed,correct,0.7922588792766901,1,valid_win,680.5507946999278,51,,,,,,,,,,,s_088,4,2022_Jun_23_0938,Reversal,3.2.4,59.95444662752648,
7,exp3.png,exp4.png,,,,,,,,,,,,,,,,,0,0,0,0,0,7,7,7,,,,,,,,,False,7,88,True,exp4.png,exp3.png,trial_right_image,-1,exp3.png,4,exp3.png,exp4.png,0,4,reversed,correct,0.48001411500169233,1,valid_win,685.8320856000064,52,,,,,,,,,,,s_088,4,2022_Jun_23_0938,Reversal,3.2.4,59.95444662752648,
8,exp1.png,exp2.png,,,,,,,,,,,,,,,,,0,0,0,0,0,8,8,8,,,,,,,,,False,8,89,True,exp2.png,exp1.png,trial_left_image,1,exp2.png,4,exp2.png,exp1.png,1,1,non-reversed,correct,0.1029895485121729,0,invalid_lose,690.1308471999364,52,,,,,,,,,,,s_088,4,2022_Jun_23_0938,Reversal,3.2.4,59.95444662752648,
9,exp3.png,exp4.png,,,,,,,,,,,,,,,,,0,0,0,0,0,9,9,9,,,,,,,,,False,9,90,True,exp4.png,exp3.png,trial_right_image,-1,exp3.png,4,exp3.png,exp4.png,0,4,reversed,correct,0.1055205750911472,0,invalid_lose,695.6947949000169,52,,,,,,,,,,,s_088,4,2022_Jun_23_0938,Reversal,3.2.4,59.95444662752648,
10,exp1.png,exp2.png,,,,,,,,,,,,,,,,,0,0,0,0,0,10,10,10,,,,,,,,,False,10,91,True,exp2.png,exp1.png,trial_left_image,1,exp2.png,4,exp2.png,exp1.png,1,1,non-reversed,correct,0.7665340547217729,1,valid_win,702.9094560999656,53,,,,,,,,,,,s_088,4,2022_Jun_23_0938,Reversal,3.2.4,59.95444662752648,
11,exp3.png,exp4.png,,,,,,,,,,,,,,,,,0,0,0,0,0,11,11,11,,,,,,,,,False,11,92,False,exp3.png,exp4.png,trial_left_image,1,exp3.png,4,exp3.png,exp4.png,0,4,reversed,correct,0.04076637298655206,0,invalid_lose,709.8581369000021,53,,,,,,,,,,,s_088,4,2022_Jun_23_0938,Reversal,3.2.4,59.95444662752648,
12,exp1.png,exp2.png,,,,,,,,,,,,,,,,,0,0,0,0,0,12,12,12,,,,,,,,,False,12,93,True,exp2.png,exp1.png,trial_left_image,1,exp2.png,4,exp2.png,exp1.png,1,1,non-reversed,correct,0.6560193217397331,1,valid_win,714.7723820999963,54,,,,,,,,,,,s_088,4,2022_Jun_23_0938,Reversal,3.2.4,59.95444662752648,
13,exp3.png,exp4.png,,,,,,,,,,,,,,,,,0,0,0,0,0,13,13,13,,,,,,,,,False,13,94,False,exp3.png,exp4.png,trial_right_image,-1,exp4.png,4,exp3.png,exp4.png,1,3,reversed,incorrect,0.5001699454380527,0,valid_lose,719.9872543999227,54,,,,,,,,,,,s_088,4,2022_Jun_23_0938,Reversal,3.2.4,59.95444662752648,
14,exp1.png,exp2.png,,,,,,,,,,,,,,,,,0,0,0,0,0,14,14,14,,,,,,,,,False,14,95,True,exp2.png,exp1.png,trial_left_image,1,exp2.png,4,exp2.png,exp1.png,1,1,non-reversed,correct,0.05345569674874773,0,invalid_lose,725.0685743999202,54,,,,,,,,,,,s_088,4,2022_Jun_23_0938,Reversal,3.2.4,59.95444662752648,
15,exp3.png,exp4.png,,,,,,,,,,,,,,,,,0,0,0,0,0,15,15,15,,,,,,,,,False,15,96,True,exp4.png,exp3.png,trial_right_image,-1,exp3.png,4,exp3.png,exp4.png,0,4,reversed,correct,0.20341890724533873,0,invalid_lose,730.3495784000261,54,,,,,,,,,,,s_088,4,2022_Jun_23_0938,Reversal,3.2.4,59.95444662752648,
16,exp1.png,exp2.png,,,,,,,,,,,,,,,,,0,0,0,0,0,16,16,16,,,,,,,,,False,16,97,False,exp1.png,exp2.png,trial_left_image,1,exp1.png,4,exp2.png,exp1.png,0,2,non-reversed,incorrect,0.4855916090889324,0,valid_lose,739.0473136999644,54,,,,,,,,,,,s_088,4,2022_Jun_23_0938,Reversal,3.2.4,59.95444662752648,
17,exp3.png,exp4.png,,,,,,,,,,,,,,,,,0,0,0,0,0,17,17,17,,,,,,,,,False,17,98,True,exp4.png,exp3.png,trial_left_image,1,exp4.png,4,exp3.png,exp4.png,1,3,reversed,incorrect,0.26170593551001287,0,valid_lose,744.3790925999638,54,,,,,,,,,,,s_088,4,2022_Jun_23_0938,Reversal,3.2.4,59.95444662752648,
18,exp1.png,exp2.png,,,,,,,,,,,,,,,,,0,0,0,0,0,18,18,18,,,,,,,,,False,18,99,False,exp1.png,exp2.png,trial_right_image,-1,exp2.png,4,exp2.png,exp1.png,1,1,non-reversed,correct,0.2981480777794956,1,valid_win,750.4599164000247,55,,,,,,,,,,,s_088,4,2022_Jun_23_0938,Reversal,3.2.4,59.95444662752648,
19,exp3.png,exp4.png,,,,,,,,,,,,,,,,,0,0,0,0,0,19,19,19,,,,,,,,,False,19,100,False,exp3.png,exp4.png,trial_right_image,-1,exp4.png,4,exp3.png,exp4.png,1,3,reversed,incorrect,0.6982338278268199,0,valid_lose,756.0413803999545,55,,,,,,,,,,,s_088,4,2022_Jun_23_0938,Reversal,3.2.4,59.95444662752648,
20,exp1.png,exp2.png,,,,,,,,,,,,,,,,,0,0,0,0,0,20,20,20,,,,,,,,,True,,,,,,,,,,,,,,,,,,,,,,,,,,,,,,,s_088,4,2022_Jun_23_0938,Reversal,3.2.4,59.95444662752648,
,,,,,,,,,,,,,,,,,,,0,0,0,0,,,,,0,0,0,0,,,,,,,,,,,,,,,,,,,,,,,,,,1,50.0,50.0,50.0,,,,,,,s_088,4,2022_Jun_23_0938,Reversal,3.2.4,59.95444662752648,
0,exp1.png,exp2.png,,,,,,,,,,,,,,,,,1,0,1,0,0,0,0,0,,,,,,,,,False,20,101,True,exp2.png,exp1.png,trial_left_image,1,exp2.png,4,exp2.png,exp1.png,1,1,non-reversed,correct,0.2999604023812491,1,valid_win,777.9350122999167,56,,,,,,,,,,,s_088,4,2022_Jun_23_0938,Reversal,3.2.4,59.95444662752648,
1,exp3.png,exp4.png,,,,,,,,,,,,,,,,,1,0,1,0,0,1,1,1,,,,,,,,,False,21,102,False,exp3.png,exp4.png,trial_right_image,-1,exp4.png,4,exp3.png,exp4.png,1,3,reversed,incorrect,0.6984794183532586,0,valid_lose,786.5652678000042,56,,,,,,,,,,,s_088,4,2022_Jun_23_0938,Reversal,3.2.4,59.95444662752648,
2,exp1.png,exp2.png,,,,,,,,,,,,,,,,,1,0,1,0,0,2,2,2,,,,,,,,,False,22,103,False,exp1.png,exp2.png,trial_left_image,1,exp1.png,4,exp2.png,exp1.png,0,2,non-reversed,incorrect,0.6006507106796968,0,valid_lose,792.4460205999203,56,,,,,,,,,,,s_088,4,2022_Jun_23_0938,Reversal,3.2.4,59.95444662752648,
3,exp3.png,exp4.png,,,,,,,,,,,,,,,,,1,0,1,0,0,3,3,3,,,,,,,,,False,23,104,False,exp3.png,exp4.png,trial_left_image,1,exp3.png,4,exp3.png,exp4.png,0,4,reversed,correct,0.47632502507427266,1,valid_win,799.5103477999801,57,,,,,,,,,,,s_088,4,2022_Jun_23_0938,Reversal,3.2.4,59.95444662752648,
4,exp1.png,exp2.png,,,,,,,,,,,,,,,,,1,0,1,0,0,4,4,4,,,,,,,,,False,24,105,True,exp2.png,exp1.png,trial_left_image,1,exp2.png,4,exp2.png,exp1.png,1,1,non-reversed,correct,0.5369772511760493,1,valid_win,803.8760305999313,58,,,,,,,,,,,s_088,4,2022_Jun_23_0938,Reversal,3.2.4,59.95444662752648,
5,exp3.png,exp4.png,,,,,,,,,,,,,,,,,1,0,1,0,0,5,5,5,,,,,,,,,False,25,106,False,exp3.png,exp4.png,trial_left_image,1,exp3.png,4,exp3.png,exp4.png,0,4,reversed,correct,0.011582762070041275,0,invalid_lose,808.1566748999758,58,,,,,,,,,,,s_088,4,2022_Jun_23_0938,Reversal,3.2.4,59.95444662752648,
6,exp1.png,exp2.png,,,,,,,,,,,,,,,,,1,0,1,0,0,6,6,6,,,,,,,,,False,26,107,True,exp2.png,exp1.png,trial_left_image,1,exp2.png,4,exp2.png,exp1.png,1,1,non-reversed,correct,0.023716079838004833,0,invalid_lose,812.9554232999217,58,,,,,,,,,,,s_088,4,2022_Jun_23_0938,Reversal,3.2.4,59.95444662752648,
7,exp3.png,exp4.png,,,,,,,,,,,,,,,,,1,0,1,0,0,7,7,7,,,,,,,,,False,27,108,True,exp4.png,exp3.png,trial_right_image,-1,exp3.png,4,exp3.png,exp4.png,0,4,reversed,correct,0.8999119954142675,1,valid_win,819.2698877999792,59,,,,,,,,,,,s_088,4,2022_Jun_23_0938,Reversal,3.2.4,59.95444662752648,
8,exp1.png,exp2.png,,,,,,,,,,,,,,,,,1,0,1,0,0,8,8,8,,,,,,,,,False,28,109,False,exp1.png,exp2.png,trial_right_image,-1,exp2.png,4,exp2.png,exp1.png,1,1,non-reversed,correct,0.7284685617261654,1,valid_win,824.3022706999909,60,,,,,,,,,,,s_088,4,2022_Jun_23_0938,Reversal,3.2.4,59.95444662752648,
9,exp3.png,exp4.png,,,,,,,,,,,,,,,,,1,0,1,0,0,9,9,9,,,,,,,,,False,29,110,True,exp4.png,exp3.png,trial_right_image,-1,exp3.png,4,exp3.png,exp4.png,0,4,reversed,correct,0.397962608394398,1,valid_win,828.6172838999191,61,,,,,,,,,,,s_088,4,2022_Jun_23_0938,Reversal,3.2.4,59.95444662752648,
10,exp1.png,exp2.png,,,,,,,,,,,,,,,,,1,0,1,0,0,10,10,10,,,,,,,,,False,30,111,False,exp1.png,exp2.png,trial_left_image,1,exp1.png,4,exp2.png,exp1.png,0,2,non-reversed,incorrect,0.4834103280525607,0,valid_lose,833.8325952999294,61,,,,,,,,,,,s_088,4,2022_Jun_23_0938,Reversal,3.2.4,59.95444662752648,
11,exp3.png,exp4.png,,,,,,,,,,,,,,,,,1,0,1,0,0,11,11,11,,,,,,,,,False,31,112,True,exp4.png,exp3.png,trial_right_image,-1,exp3.png,4,exp3.png,exp4.png,0,4,reversed,correct,0.14312150321889172,0,invalid_lose,837.763588199974,61,,,,,,,,,,,s_088,4,2022_Jun_23_0938,Reversal,3.2.4,59.95444662752648,
12,exp1.png,exp2.png,,,,,,,,,,,,,,,,,1,0,1,0,0,12,12,12,,,,,,,,,False,32,113,True,exp2.png,exp1.png,trial_left_image,1,exp2.png,4,exp2.png,exp1.png,1,1,non-reversed,correct,0.5537166993143477,1,valid_win,844.7944508999353,62,,,,,,,,,,,s_088,4,2022_Jun_23_0938,Reversal,3.2.4,59.95444662752648,
13,exp3.png,exp4.png,,,,,,,,,,,,,,,,,1,0,1,0,0,13,13,13,,,,,,,,,False,33,114,True,exp4.png,exp3.png,trial_right_image,-1,exp3.png,4,exp3.png,exp4.png,0,4,reversed,correct,0.47291526435797804,1,valid_win,851.2266033999622,63,,,,,,,,,,,s_088,4,2022_Jun_23_0938,Reversal,3.2.4,59.95444662752648,
14,exp1.png,exp2.png,,,,,,,,,,,,,,,,,1,0,1,0,0,14,14,14,,,,,,,,,False,34,115,False,exp1.png,exp2.png,trial_left_image,1,exp1.png,4,exp2.png,exp1.png,0,2,non-reversed,incorrect,0.5760232816037778,0,valid_lose,857.4743509999244,63,,,,,,,,,,,s_088,4,2022_Jun_23_0938,Reversal,3.2.4,59.95444662752648,
15,exp3.png,exp4.png,,,,,,,,,,,,,,,,,1,0,1,0,0,15,15,15,,,,,,,,,False,35,116,False,exp3.png,exp4.png,trial_right_image,-1,exp4.png,4,exp3.png,exp4.png,1,3,reversed,incorrect,0.23846544782061807,1,invalid_win,863.2895497999853,64,,,,,,,,,,,s_088,4,2022_Jun_23_0938,Reversal,3.2.4,59.95444662752648,
16,exp1.png,exp2.png,,,,,,,,,,,,,,,,,1,0,1,0,0,16,16,16,,,,,,,,,False,36,117,False,exp1.png,exp2.png,trial_right_image,-1,exp2.png,4,exp2.png,exp1.png,1,1,non-reversed,correct,0.784408394030268,1,valid_win,868.8037651999621,65,,,,,,,,,,,s_088,4,2022_Jun_23_0938,Reversal,3.2.4,59.95444662752648,
17,exp3.png,exp4.png,,,,,,,,,,,,,,,,,1,0,1,0,0,17,17,17,,,,,,,,,False,37,118,False,exp3.png,exp4.png,trial_left_image,1,exp3.png,4,exp3.png,exp4.png,0,4,reversed,correct,0.22886151658985654,0,invalid_lose,875.3356526999269,65,,,,,,,,,,,s_088,4,2022_Jun_23_0938,Reversal,3.2.4,59.95444662752648,
18,exp1.png,exp2.png,,,,,,,,,,,,,,,,,1,0,1,0,0,18,18,18,,,,,,,,,False,38,119,True,exp2.png,exp1.png,trial_right_image,-1,exp1.png,4,exp2.png,exp1.png,0,2,non-reversed,incorrect,0.6640192554142926,0,valid_lose,879.6186791999498,65,,,,,,,,,,,s_088,4,2022_Jun_23_0938,Reversal,3.2.4,59.95444662752648,
19,exp3.png,exp4.png,,,,,,,,,,,,,,,,,1,0,1,0,0,19,19,19,,,,,,,,,False,39,120,True,exp4.png,exp3.png,trial_left_image,1,exp4.png,4,exp3.png,exp4.png,1,3,reversed,incorrect,0.7507406390384296,0,valid_lose,884.4987568999641,65,,,,,,,,,,,s_088,4,2022_Jun_23_0938,Reversal,3.2.4,59.95444662752648,
20,exp1.png,exp2.png,,,,,,,,,,,,,,,,,1,0,1,0,0,20,20,20,,,,,,,,,True,,,,,,,,,,,,,,,,,,,,,,,,,,,,,,,s_088,4,2022_Jun_23_0938,Reversal,3.2.4,59.95444662752648,
,,,,,,,,,,,,,,,,,,,1,0,1,0,,,,,0,0,0,0,,,,,,,,,,,,,,,,,,,,,,,,,,50.0,50.0,50.0,50.0,,,,,,,s_088,4,2022_Jun_23_0938,Reversal,3.2.4,59.95444662752648,
0,exp1.png,exp2.png,,,,,,,,,,,,,,,,,2,0,2,0,0,0,0,0,,,,,,,,,False,40,121,True,exp2.png,exp1.png,trial_left_image,1,exp2.png,4,exp2.png,exp1.png,1,1,non-reversed,correct,0.5839148053950814,1,valid_win,896.0780260999454,66,,,,,,,,,,,s_088,4,2022_Jun_23_0938,Reversal,3.2.4,59.95444662752648,
1,exp3.png,exp4.png,,,,,,,,,,,,,,,,,2,0,2,0,0,1,1,1,,,,,,,,,False,41,122,True,exp4.png,exp3.png,trial_left_image,1,exp4.png,4,exp3.png,exp4.png,1,3,reversed,incorrect,0.5425098059563443,0,valid_lose,904.1260770999361,66,,,,,,,,,,,s_088,4,2022_Jun_23_0938,Reversal,3.2.4,59.95444662752648,
2,exp1.png,exp2.png,,,,,,,,,,,,,,,,,2,0,2,0,0,2,2,2,,,,,,,,,False,42,123,True,exp2.png,exp1.png,trial_left_image,1,exp2.png,4,exp2.png,exp1.png,1,1,non-reversed,correct,0.8226051793919394,1,valid_win,908.5402713000076,67,,,,,,,,,,,s_088,4,2022_Jun_23_0938,Reversal,3.2.4,59.95444662752648,
3,exp3.png,exp4.png,,,,,,,,,,,,,,,,,2,0,2,0,0,3,3,3,,,,,,,,,False,43,124,True,exp4.png,exp3.png,trial_right_image,-1,exp3.png,4,exp3.png,exp4.png,0,4,reversed,correct,0.24257231443386618,0,invalid_lose,914.3550172999967,67,,,,,,,,,,,s_088,4,2022_Jun_23_0938,Reversal,3.2.4,59.95444662752648,
4,exp1.png,exp2.png,,,,,,,,,,,,,,,,,2,0,2,0,0,4,4,4,,,,,,,,,False,44,125,False,exp1.png,exp2.png,trial_right_image,-1,exp2.png,4,exp2.png,exp1.png,1,1,non-reversed,correct,0.4798472162582149,1,valid_win,921.3036548999371,68,,,,,,,,,,,s_088,4,2022_Jun_23_0938,Reversal,3.2.4,59.95444662752648,
5,exp3.png,exp4.png,,,,,,,,,,,,,,,,,2,0,2,0,0,5,5,5,,,,,,,,,False,45,126,False,exp3.png,exp4.png,trial_right_image,-1,exp4.png,4,exp3.png,exp4.png,1,3,reversed,incorrect,0.07780517664599274,1,invalid_win,928.6168977000052,69,,,,,,,,,,,s_088,4,2022_Jun_23_0938,Reversal,3.2.4,59.95444662752648,
6,exp1.png,exp2.png,,,,,,,,,,,,,,,,,2,0,2,0,0,6,6,6,,,,,,,,,False,46,127,True,exp2.png,exp1.png,trial_left_image,1,exp2.png,4,exp2.png,exp1.png,1,1,non-reversed,correct,0.9572624989263343,1,valid_win,932.7157372999936,70,,,,,,,,,,,s_088,4,2022_Jun_23_0938,Reversal,3.2.4,59.95444662752648,
7,exp3.png,exp4.png,,,,,,,,,,,,,,,,,2,0,2,0,0,7,7,7,,,,,,,,,False,47,128,False,exp3.png,exp4.png,trial_right_image,-1,exp4.png,4,exp3.png,exp4.png,1,3,reversed,incorrect,0.4606136728497927,0,valid_lose,939.6799149999861,70,,,,,,,,,,,s_088,4,2022_Jun_23_0938,Reversal,3.2.4,59.95444662752648,
8,exp1.png,exp2.png,,,,,,,,,,,,,,,,,2,0,2,0,0,8,8,8,,,,,,,,,False,48,129,False,exp1.png,exp2.png,trial_left_image,1,exp1.png,4,exp2.png,exp1.png,0,2,non-reversed,incorrect,0.30140670197644426,0,valid_lose,944.3608834999613,70,,,,,,,,,,,s_088,4,2022_Jun_23_0938,Reversal,3.2.4,59.95444662752648,
9,exp3.png,exp4.png,,,,,,,,,,,,,,,,,2,0,2,0,0,9,9,9,,,,,,,,,False,49,130,True,exp4.png,exp3.png,trial_right_image,-1,exp3.png,4,exp3.png,exp4.png,0,4,reversed,correct,0.2598106249720741,1,valid_win,949.0436339000007,71,,,,,,,,,,,s_088,4,2022_Jun_23_0938,Reversal,3.2.4,59.95444662752648,
10,exp1.png,exp2.png,,,,,,,,,,,,,,,,,2,0,2,0,0,10,10,10,,,,,,,,,False,50,131,True,exp2.png,exp1.png,trial_left_image,1,exp2.png,4,exp2.png,exp1.png,1,1,non-reversed,correct,0.38860285892924995,1,valid_win,953.1420320000034,72,,,,,,,,,,,s_088,4,2022_Jun_23_0938,Reversal,3.2.4,59.95444662752648,
11,exp3.png,exp4.png,,,,,,,,,,,,,,,,,2,0,2,0,0,11,11,11,,,,,,,,,False,51,132,False,exp3.png,exp4.png,trial_left_image,1,exp3.png,4,exp3.png,exp4.png,0,4,reversed,correct,0.7094707675344739,1,valid_win,961.2896207999438,73,,,,,,,,,,,s_088,4,2022_Jun_23_0938,Reversal,3.2.4,59.95444662752648,
12,exp1.png,exp2.png,,,,,,,,,,,,,,,,,2,0,2,0,0,12,12,12,,,,,,,,,False,52,133,False,exp1.png,exp2.png,trial_right_image,-1,exp2.png,4,exp2.png,exp1.png,1,1,non-reversed,correct,0.4247579309158458,1,valid_win,966.987525900011,74,,,,,,,,,,,s_088,4,2022_Jun_23_0938,Reversal,3.2.4,59.95444662752648,
13,exp3.png,exp4.png,,,,,,,,,,,,,,,,,2,0,2,0,0,13,13,13,,,,,,,,,False,53,134,True,exp4.png,exp3.png,trial_right_image,-1,exp3.png,4,exp3.png,exp4.png,0,4,reversed,correct,0.6233566364502173,1,valid_win,971.9523035999155,75,,,,,,,,,,,s_088,4,2022_Jun_23_0938,Reversal,3.2.4,59.95444662752648,
14,exp1.png,exp2.png,,,,,,,,,,,,,,,,,2,0,2,0,0,14,14,14,,,,,,,,,False,54,135,False,exp1.png,exp2.png,trial_left_image,1,exp1.png,4,exp2.png,exp1.png,0,2,non-reversed,incorrect,0.055041235328054716,1,invalid_win,978.0674644999672,76,,,,,,,,,,,s_088,4,2022_Jun_23_0938,Reversal,3.2.4,59.95444662752648,
15,exp3.png,exp4.png,,,,,,,,,,,,,,,,,2,0,2,0,0,15,15,15,,,,,,,,,False,55,136,False,exp3.png,exp4.png,trial_left_image,1,exp3.png,4,exp3.png,exp4.png,0,4,reversed,correct,0.9345639276544085,1,valid_win,982.6647793999873,77,,,,,,,,,,,s_088,4,2022_Jun_23_0938,Reversal,3.2.4,59.95444662752648,
16,exp1.png,exp2.png,,,,,,,,,,,,,,,,,2,0,2,0,0,16,16,16,,,,,,,,,False,56,137,False,exp1.png,exp2.png,trial_left_image,1,exp1.png,4,exp2.png,exp1.png,0,2,non-reversed,incorrect,0.1933057647962444,1,invalid_win,987.2304621000076,78,,,,,,,,,,,s_088,4,2022_Jun_23_0938,Reversal,3.2.4,59.95444662752648,
17,exp3.png,exp4.png,,,,,,,,,,,,,,,,,2,0,2,0,0,17,17,17,,,,,,,,,False,57,138,False,exp3.png,exp4.png,trial_left_image,1,exp3.png,4,exp3.png,exp4.png,0,4,reversed,correct,0.9152252137036837,1,valid_win,991.7129045999609,79,,,,,,,,,,,s_088,4,2022_Jun_23_0938,Reversal,3.2.4,59.95444662752648,
18,exp1.png,exp2.png,,,,,,,,,,,,,,,,,2,0,2,0,0,18,18,18,,,,,,,,,False,58,139,True,exp2.png,exp1.png,trial_left_image,1,exp2.png,4,exp2.png,exp1.png,1,1,non-reversed,correct,0.9181219537085624,1,valid_win,995.9777288999176,80,,,,,,,,,,,s_088,4,2022_Jun_23_0938,Reversal,3.2.4,59.95444662752648,
19,exp3.png,exp4.png,,,,,,,,,,,,,,,,,2,0,2,0,0,19,19,19,,,,,,,,,False,59,140,True,exp4.png,exp3.png,trial_right_image,-1,exp3.png,4,exp3.png,exp4.png,0,4,reversed,correct,0.15574349705270785,0,invalid_lose,1000.4757429999299,80,,,,,,,,,,,s_088,4,2022_Jun_23_0938,Reversal,3.2.4,59.95444662752648,
20,exp1.png,exp2.png,,,,,,,,,,,,,,,,,2,0,2,0,0,20,20,20,,,,,,,,,True,,,,,,,,,,,,,,,,,,,,,,,,,,,,,,,s_088,4,2022_Jun_23_0938,Reversal,3.2.4,59.95444662752648,
,,,,,,,,,,,,,,,,,,,2,0,2,0,,,,,0,0,0,0,,,,,,,,,,,,,,,,,,,,,,,,,,1,50.0,50.0,0,,,,,,,s_088,4,2022_Jun_23_0938,Reversal,3.2.4,59.95444662752648,
,,,,,,,,,,,,,,,,,,,,,,,,,,,,,,,,,,,,,,,,,,,,,,,,,,,,,,,80,,,,,,96,55,41,382.2769148000516,1,,,,,,,
