trial_index,trial_image1_file,trial_image2_file,learning_outer_loop.thisRepN,learning_outer_loop.thisTrialN,learning_outer_loop.thisN,learning_outer_loop.thisIndex,learning_inner_loop.thisRepN,learning_inner_loop.thisTrialN,learning_inner_loop.thisN,learning_inner_loop.thisIndex,learning_estimation_outer_loop.thisRepN,learning_estimation_outer_loop.thisTrialN,learning_estimation_outer_loop.thisN,learning_estimation_outer_loop.thisIndex,learning_estimation_inner_loop.thisRepN,learning_estimation_inner_loop.thisTrialN,learning_estimation_inner_loop.thisN,learning_estimation_inner_loop.thisIndex,reversal_outer_loop.thisRepN,reversal_outer_loop.thisTrialN,reversal_outer_loop.thisN,reversal_outer_loop.thisIndex,reversal_inner_loop.thisRepN,reversal_inner_loop.thisTrialN,reversal_inner_loop.thisN,reversal_inner_loop.thisIndex,reversal_estimation_outer_loop.thisRepN,reversal_estimation_outer_loop.thisTrialN,reversal_estimation_outer_loop.thisN,reversal_estimation_outer_loop.thisIndex,reversal_estimation_inner_loop.thisRepN,reversal_estimation_inner_loop.thisTrialN,reversal_estimation_inner_loop.thisN,reversal_estimation_inner_loop.thisIndex,skipped,total_trial_counter,trial_num,left_right_flip,left_image_file,right_image_file,clicked_stimulus_side,side,clicked_stimulus,version,high_prob_image_file,low_prob_image_file,choice_a,choice_b,pair_type,correct,trial_feedback_random,reward,trial_type,overall_time_after_trial,score,estimation_exp1.png,estimation_exp2.png,estimation_exp3.png,estimation_exp4.png,total_learning_time,total_correct,learning_correct,reversal_correct,total_reversal_time,extra_block,participant,ver,date,expName,psychopyVersion,frameRate,
0,exp1.png,exp2.png,0,0,0,0,0,0,0,0,,,,,,,,,,,,,,,,,,,,,,,,,False,0,1,False,exp1.png,exp2.png,trial_right_image,-1,exp2.png,2,exp1.png,exp2.png,0,2,non-reversed,incorrect,0.917865159867268,0,valid_lose,6.659997900016606,0,,,,,,,,,,,s_081,2,2022_Apr_04_0939,Reversal,3.2.4,59.99448049370354,
1,exp3.png,exp4.png,0,0,0,0,0,1,1,1,,,,,,,,,,,,,,,,,,,,,,,,,False,1,2,False,exp3.png,exp4.png,trial_right_image,-1,exp4.png,2,exp3.png,exp4.png,0,4,reversed,incorrect,0.16545664150358064,1,invalid_win,12.307492100051604,1,,,,,,,,,,,s_081,2,2022_Apr_04_0939,Reversal,3.2.4,59.99448049370354,
2,exp1.png,exp2.png,0,0,0,0,0,2,2,2,,,,,,,,,,,,,,,,,,,,,,,,,False,2,3,False,exp1.png,exp2.png,trial_left_image,1,exp1.png,2,exp1.png,exp2.png,1,1,non-reversed,correct,0.9919002894637713,1,valid_win,18.022812100010924,2,,,,,,,,,,,s_081,2,2022_Apr_04_0939,Reversal,3.2.4,59.99448049370354,
3,exp3.png,exp4.png,0,0,0,0,0,3,3,3,,,,,,,,,,,,,,,,,,,,,,,,,False,3,4,True,exp4.png,exp3.png,trial_left_image,1,exp4.png,2,exp3.png,exp4.png,0,4,reversed,incorrect,0.7712225774840278,0,valid_lose,24.169797400012612,2,,,,,,,,,,,s_081,2,2022_Apr_04_0939,Reversal,3.2.4,59.99448049370354,
4,exp1.png,exp2.png,0,0,0,0,0,4,4,4,,,,,,,,,,,,,,,,,,,,,,,,,False,4,5,False,exp1.png,exp2.png,trial_left_image,1,exp1.png,2,exp1.png,exp2.png,1,1,non-reversed,correct,0.27973383854387635,1,valid_win,29.918645299971104,3,,,,,,,,,,,s_081,2,2022_Apr_04_0939,Reversal,3.2.4,59.99448049370354,
5,exp3.png,exp4.png,0,0,0,0,0,5,5,5,,,,,,,,,,,,,,,,,,,,,,,,,False,5,6,True,exp4.png,exp3.png,trial_right_image,-1,exp3.png,2,exp3.png,exp4.png,1,3,reversed,correct,0.49683901745924175,1,valid_win,35.533059300039895,4,,,,,,,,,,,s_081,2,2022_Apr_04_0939,Reversal,3.2.4,59.99448049370354,
6,exp1.png,exp2.png,0,0,0,0,0,6,6,6,,,,,,,,,,,,,,,,,,,,,,,,,False,6,7,True,exp2.png,exp1.png,trial_right_image,-1,exp1.png,2,exp1.png,exp2.png,1,1,non-reversed,correct,0.9053500154487146,1,valid_win,41.3647022000514,5,,,,,,,,,,,s_081,2,2022_Apr_04_0939,Reversal,3.2.4,59.99448049370354,
7,exp3.png,exp4.png,0,0,0,0,0,7,7,7,,,,,,,,,,,,,,,,,,,,,,,,,False,7,8,False,exp3.png,exp4.png,trial_left_image,1,exp3.png,2,exp3.png,exp4.png,1,3,reversed,correct,0.9097905015221057,1,valid_win,46.596747100003995,6,,,,,,,,,,,s_081,2,2022_Apr_04_0939,Reversal,3.2.4,59.99448049370354,
8,exp1.png,exp2.png,0,0,0,0,0,8,8,8,,,,,,,,,,,,,,,,,,,,,,,,,False,8,9,True,exp2.png,exp1.png,trial_right_image,-1,exp1.png,2,exp1.png,exp2.png,1,1,non-reversed,correct,0.2970130542673707,1,valid_win,52.128089600009844,7,,,,,,,,,,,s_081,2,2022_Apr_04_0939,Reversal,3.2.4,59.99448049370354,
9,exp3.png,exp4.png,0,0,0,0,0,9,9,9,,,,,,,,,,,,,,,,,,,,,,,,,False,9,10,False,exp3.png,exp4.png,trial_left_image,1,exp3.png,2,exp3.png,exp4.png,1,3,reversed,correct,0.2189624813566875,0,invalid_lose,57.54297760000918,7,,,,,,,,,,,s_081,2,2022_Apr_04_0939,Reversal,3.2.4,59.99448049370354,
10,exp1.png,exp2.png,0,0,0,0,0,10,10,10,,,,,,,,,,,,,,,,,,,,,,,,,False,10,11,False,exp1.png,exp2.png,trial_right_image,-1,exp2.png,2,exp1.png,exp2.png,0,2,non-reversed,incorrect,0.11991128843055643,1,invalid_win,62.47378570004366,8,,,,,,,,,,,s_081,2,2022_Apr_04_0939,Reversal,3.2.4,59.99448049370354,
11,exp3.png,exp4.png,0,0,0,0,0,11,11,11,,,,,,,,,,,,,,,,,,,,,,,,,False,11,12,True,exp4.png,exp3.png,trial_right_image,-1,exp3.png,2,exp3.png,exp4.png,1,3,reversed,correct,0.421252153059943,1,valid_win,67.72261290007737,9,,,,,,,,,,,s_081,2,2022_Apr_04_0939,Reversal,3.2.4,59.99448049370354,
12,exp1.png,exp2.png,0,0,0,0,0,12,12,12,,,,,,,,,,,,,,,,,,,,,,,,,False,12,13,True,exp2.png,exp1.png,trial_right_image,-1,exp1.png,2,exp1.png,exp2.png,1,1,non-reversed,correct,0.22787467960422114,0,invalid_lose,73.13748340005986,9,,,,,,,,,,,s_081,2,2022_Apr_04_0939,Reversal,3.2.4,59.99448049370354,
13,exp3.png,exp4.png,0,0,0,0,0,13,13,13,,,,,,,,,,,,,,,,,,,,,,,,,False,13,14,True,exp4.png,exp3.png,trial_right_image,-1,exp3.png,2,exp3.png,exp4.png,1,3,reversed,correct,0.9082867934293813,1,valid_win,78.35292800003663,10,,,,,,,,,,,s_081,2,2022_Apr_04_0939,Reversal,3.2.4,59.99448049370354,
14,exp1.png,exp2.png,0,0,0,0,0,14,14,14,,,,,,,,,,,,,,,,,,,,,,,,,False,14,15,False,exp1.png,exp2.png,trial_left_image,1,exp1.png,2,exp1.png,exp2.png,1,1,non-reversed,correct,0.5517116953394279,1,valid_win,83.38386120006908,11,,,,,,,,,,,s_081,2,2022_Apr_04_0939,Reversal,3.2.4,59.99448049370354,
15,exp3.png,exp4.png,0,0,0,0,0,15,15,15,,,,,,,,,,,,,,,,,,,,,,,,,False,15,16,False,exp3.png,exp4.png,trial_right_image,-1,exp4.png,2,exp3.png,exp4.png,0,4,reversed,incorrect,0.08207501270812156,1,invalid_win,89.0485526000848,12,,,,,,,,,,,s_081,2,2022_Apr_04_0939,Reversal,3.2.4,59.99448049370354,
16,exp1.png,exp2.png,0,0,0,0,0,16,16,16,,,,,,,,,,,,,,,,,,,,,,,,,False,16,17,True,exp2.png,exp1.png,trial_left_image,1,exp2.png,2,exp1.png,exp2.png,0,2,non-reversed,incorrect,0.6059339573717303,0,valid_lose,94.31345360004343,12,,,,,,,,,,,s_081,2,2022_Apr_04_0939,Reversal,3.2.4,59.99448049370354,
17,exp3.png,exp4.png,0,0,0,0,0,17,17,17,,,,,,,,,,,,,,,,,,,,,,,,,False,17,18,True,exp4.png,exp3.png,trial_right_image,-1,exp3.png,2,exp3.png,exp4.png,1,3,reversed,correct,0.05669154863189341,0,invalid_lose,99.34526870003901,12,,,,,,,,,,,s_081,2,2022_Apr_04_0939,Reversal,3.2.4,59.99448049370354,
18,exp1.png,exp2.png,0,0,0,0,0,18,18,18,,,,,,,,,,,,,,,,,,,,,,,,,False,18,19,False,exp1.png,exp2.png,trial_right_image,-1,exp2.png,2,exp1.png,exp2.png,0,2,non-reversed,incorrect,0.18158827104970465,1,invalid_win,104.31066269997973,13,,,,,,,,,,,s_081,2,2022_Apr_04_0939,Reversal,3.2.4,59.99448049370354,
19,exp3.png,exp4.png,0,0,0,0,0,19,19,19,,,,,,,,,,,,,,,,,,,,,,,,,False,19,20,True,exp4.png,exp3.png,trial_right_image,-1,exp3.png,2,exp3.png,exp4.png,1,3,reversed,correct,0.8865853663195287,1,valid_win,109.44222960004117,14,,,,,,,,,,,s_081,2,2022_Apr_04_0939,Reversal,3.2.4,59.99448049370354,
20,exp1.png,exp2.png,0,0,0,0,0,20,20,20,,,,,,,,,,,,,,,,,,,,,,,,,True,,,,,,,,,,,,,,,,,,,,,,,,,,,,,,,s_081,2,2022_Apr_04_0939,Reversal,3.2.4,59.99448049370354,
,,,0,0,0,0,,,,,0,0,0,0,,,,,,,,,,,,,,,,,,,,,,,,,,,,,,,,,,,,,,,,,,50.0,58,60,40,,,,,,,s_081,2,2022_Apr_04_0939,Reversal,3.2.4,59.99448049370354,
0,exp1.png,exp2.png,1,0,1,0,0,0,0,0,,,,,,,,,,,,,,,,,,,,,,,,,False,20,21,True,exp2.png,exp1.png,trial_right_image,-1,exp1.png,2,exp1.png,exp2.png,1,1,non-reversed,correct,0.4897635509144572,1,valid_win,142.21418590005487,15,,,,,,,,,,,s_081,2,2022_Apr_04_0939,Reversal,3.2.4,59.99448049370354,
1,exp3.png,exp4.png,1,0,1,0,0,1,1,1,,,,,,,,,,,,,,,,,,,,,,,,,False,21,22,False,exp3.png,exp4.png,trial_left_image,1,exp3.png,2,exp3.png,exp4.png,1,3,reversed,correct,0.8056737704780275,1,valid_win,148.8456307000015,16,,,,,,,,,,,s_081,2,2022_Apr_04_0939,Reversal,3.2.4,59.99448049370354,
2,exp1.png,exp2.png,1,0,1,0,0,2,2,2,,,,,,,,,,,,,,,,,,,,,,,,,False,22,23,True,exp2.png,exp1.png,trial_right_image,-1,exp1.png,2,exp1.png,exp2.png,1,1,non-reversed,correct,0.5113641795658431,1,valid_win,155.85940110008232,17,,,,,,,,,,,s_081,2,2022_Apr_04_0939,Reversal,3.2.4,59.99448049370354,
3,exp3.png,exp4.png,1,0,1,0,0,3,3,3,,,,,,,,,,,,,,,,,,,,,,,,,False,23,24,False,exp3.png,exp4.png,trial_left_image,1,exp3.png,2,exp3.png,exp4.png,1,3,reversed,correct,0.914036365730673,1,valid_win,161.02402989997063,18,,,,,,,,,,,s_081,2,2022_Apr_04_0939,Reversal,3.2.4,59.99448049370354,
4,exp1.png,exp2.png,1,0,1,0,0,4,4,4,,,,,,,,,,,,,,,,,,,,,,,,,False,24,25,True,exp2.png,exp1.png,trial_right_image,-1,exp1.png,2,exp1.png,exp2.png,1,1,non-reversed,correct,0.3971139427064475,1,valid_win,165.49004100007005,19,,,,,,,,,,,s_081,2,2022_Apr_04_0939,Reversal,3.2.4,59.99448049370354,
5,exp3.png,exp4.png,1,0,1,0,0,5,5,5,,,,,,,,,,,,,,,,,,,,,,,,,False,25,26,True,exp4.png,exp3.png,trial_right_image,-1,exp3.png,2,exp3.png,exp4.png,1,3,reversed,correct,0.03997573772628249,0,invalid_lose,169.72169839998242,19,,,,,,,,,,,s_081,2,2022_Apr_04_0939,Reversal,3.2.4,59.99448049370354,
6,exp1.png,exp2.png,1,0,1,0,0,6,6,6,,,,,,,,,,,,,,,,,,,,,,,,,False,26,27,True,exp2.png,exp1.png,trial_right_image,-1,exp1.png,2,exp1.png,exp2.png,1,1,non-reversed,correct,0.6077659876549976,1,valid_win,174.00346120004542,20,,,,,,,,,,,s_081,2,2022_Apr_04_0939,Reversal,3.2.4,59.99448049370354,
7,exp3.png,exp4.png,1,0,1,0,0,7,7,7,,,,,,,,,,,,,,,,,,,,,,,,,False,27,28,True,exp4.png,exp3.png,trial_left_image,1,exp4.png,2,exp3.png,exp4.png,0,4,reversed,incorrect,0.817541762010391,0,valid_lose,179.58464110002387,20,,,,,,,,,,,s_081,2,2022_Apr_04_0939,Reversal,3.2.4,59.99448049370354,
8,exp1.png,exp2.png,1,0,1,0,0,8,8,8,,,,,,,,,,,,,,,,,,,,,,,,,False,28,29,True,exp2.png,exp1.png,trial_right_image,-1,exp1.png,2,exp1.png,exp2.png,1,1,non-reversed,correct,0.9317366371018481,1,valid_win,184.0336362000089,21,,,,,,,,,,,s_081,2,2022_Apr_04_0939,Reversal,3.2.4,59.99448049370354,
9,exp3.png,exp4.png,1,0,1,0,0,9,9,9,,,,,,,,,,,,,,,,,,,,,,,,,False,29,30,False,exp3.png,exp4.png,trial_left_image,1,exp3.png,2,exp3.png,exp4.png,1,3,reversed,correct,0.7167478819194473,1,valid_win,188.86561360000633,22,,,,,,,,,,,s_081,2,2022_Apr_04_0939,Reversal,3.2.4,59.99448049370354,
10,exp1.png,exp2.png,1,0,1,0,0,10,10,10,,,,,,,,,,,,,,,,,,,,,,,,,False,30,31,False,exp1.png,exp2.png,trial_right_image,-1,exp2.png,2,exp1.png,exp2.png,0,2,non-reversed,incorrect,0.9120474109110548,0,valid_lose,193.57964960008394,22,,,,,,,,,,,s_081,2,2022_Apr_04_0939,Reversal,3.2.4,59.99448049370354,
11,exp3.png,exp4.png,1,0,1,0,0,11,11,11,,,,,,,,,,,,,,,,,,,,,,,,,False,31,32,False,exp3.png,exp4.png,trial_right_image,-1,exp4.png,2,exp3.png,exp4.png,0,4,reversed,incorrect,0.2837717223882156,0,valid_lose,198.22846270003356,22,,,,,,,,,,,s_081,2,2022_Apr_04_0939,Reversal,3.2.4,59.99448049370354,
12,exp1.png,exp2.png,1,0,1,0,0,12,12,12,,,,,,,,,,,,,,,,,,,,,,,,,False,32,33,True,exp2.png,exp1.png,trial_right_image,-1,exp1.png,2,exp1.png,exp2.png,1,1,non-reversed,correct,0.19099840919735855,0,invalid_lose,202.75982270005625,22,,,,,,,,,,,s_081,2,2022_Apr_04_0939,Reversal,3.2.4,59.99448049370354,
13,exp3.png,exp4.png,1,0,1,0,0,13,13,13,,,,,,,,,,,,,,,,,,,,,,,,,False,33,34,False,exp3.png,exp4.png,trial_left_image,1,exp3.png,2,exp3.png,exp4.png,1,3,reversed,correct,0.01326152325604446,0,invalid_lose,207.30868660006672,22,,,,,,,,,,,s_081,2,2022_Apr_04_0939,Reversal,3.2.4,59.99448049370354,
14,exp1.png,exp2.png,1,0,1,0,0,14,14,14,,,,,,,,,,,,,,,,,,,,,,,,,False,34,35,False,exp1.png,exp2.png,trial_left_image,1,exp1.png,2,exp1.png,exp2.png,1,1,non-reversed,correct,0.6620270948153677,1,valid_win,212.92387120006606,23,,,,,,,,,,,s_081,2,2022_Apr_04_0939,Reversal,3.2.4,59.99448049370354,
15,exp3.png,exp4.png,1,0,1,0,0,15,15,15,,,,,,,,,,,,,,,,,,,,,,,,,False,35,36,True,exp4.png,exp3.png,trial_right_image,-1,exp3.png,2,exp3.png,exp4.png,1,3,reversed,correct,0.22429980321103593,0,invalid_lose,217.70483890001196,23,,,,,,,,,,,s_081,2,2022_Apr_04_0939,Reversal,3.2.4,59.99448049370354,
16,exp1.png,exp2.png,1,0,1,0,0,16,16,16,,,,,,,,,,,,,,,,,,,,,,,,,False,36,37,False,exp1.png,exp2.png,trial_left_image,1,exp1.png,2,exp1.png,exp2.png,1,1,non-reversed,correct,0.8617984487106172,1,valid_win,222.35387440002523,24,,,,,,,,,,,s_081,2,2022_Apr_04_0939,Reversal,3.2.4,59.99448049370354,
17,exp3.png,exp4.png,1,0,1,0,0,17,17,17,,,,,,,,,,,,,,,,,,,,,,,,,False,37,38,False,exp3.png,exp4.png,trial_left_image,1,exp3.png,2,exp3.png,exp4.png,1,3,reversed,correct,0.18637047644634575,0,invalid_lose,227.1858209000202,24,,,,,,,,,,,s_081,2,2022_Apr_04_0939,Reversal,3.2.4,59.99448049370354,
18,exp1.png,exp2.png,1,0,1,0,0,18,18,18,,,,,,,,,,,,,,,,,,,,,,,,,False,38,39,True,exp2.png,exp1.png,trial_right_image,-1,exp1.png,2,exp1.png,exp2.png,1,1,non-reversed,correct,0.7924591696957051,1,valid_win,232.01728490006644,25,,,,,,,,,,,s_081,2,2022_Apr_04_0939,Reversal,3.2.4,59.99448049370354,
19,exp3.png,exp4.png,1,0,1,0,0,19,19,19,,,,,,,,,,,,,,,,,,,,,,,,,False,39,40,False,exp3.png,exp4.png,trial_left_image,1,exp3.png,2,exp3.png,exp4.png,1,3,reversed,correct,0.4600838870189973,1,valid_win,237.0318932000082,26,,,,,,,,,,,s_081,2,2022_Apr_04_0939,Reversal,3.2.4,59.99448049370354,
20,exp1.png,exp2.png,1,0,1,0,0,20,20,20,,,,,,,,,,,,,,,,,,,,,,,,,True,,,,,,,,,,,,,,,,,,,,,,,,,,,,,,,s_081,2,2022_Apr_04_0939,Reversal,3.2.4,59.99448049370354,
,,,1,0,1,0,,,,,0,0,0,0,,,,,,,,,,,,,,,,,,,,,,,,,,,,,,,,,,,,,,,,,,60,44,56,42,,,,,,,s_081,2,2022_Apr_04_0939,Reversal,3.2.4,59.99448049370354,
0,exp1.png,exp2.png,2,0,2,0,0,0,0,0,,,,,,,,,,,,,,,,,,,,,,,,,False,40,41,False,exp1.png,exp2.png,trial_right_image,-1,exp2.png,2,exp1.png,exp2.png,0,2,non-reversed,incorrect,0.8009802315276757,0,valid_lose,259.3409568000352,26,,,,,,,,,,,s_081,2,2022_Apr_04_0939,Reversal,3.2.4,59.99448049370354,
1,exp3.png,exp4.png,2,0,2,0,0,1,1,1,,,,,,,,,,,,,,,,,,,,,,,,,False,41,42,True,exp4.png,exp3.png,trial_right_image,-1,exp3.png,2,exp3.png,exp4.png,1,3,reversed,correct,0.8491202000999153,1,valid_win,263.5899129000027,27,,,,,,,,,,,s_081,2,2022_Apr_04_0939,Reversal,3.2.4,59.99448049370354,
2,exp1.png,exp2.png,2,0,2,0,0,2,2,2,,,,,,,,,,,,,,,,,,,,,,,,,False,42,43,False,exp1.png,exp2.png,trial_left_image,1,exp1.png,2,exp1.png,exp2.png,1,1,non-reversed,correct,0.6692869702119326,1,valid_win,268.1883271000115,28,,,,,,,,,,,s_081,2,2022_Apr_04_0939,Reversal,3.2.4,59.99448049370354,
3,exp3.png,exp4.png,2,0,2,0,0,3,3,3,,,,,,,,,,,,,,,,,,,,,,,,,False,43,44,False,exp3.png,exp4.png,trial_left_image,1,exp3.png,2,exp3.png,exp4.png,1,3,reversed,correct,0.17361713116342192,0,invalid_lose,273.2368959999876,28,,,,,,,,,,,s_081,2,2022_Apr_04_0939,Reversal,3.2.4,59.99448049370354,
4,exp1.png,exp2.png,2,0,2,0,0,4,4,4,,,,,,,,,,,,,,,,,,,,,,,,,False,44,45,True,exp2.png,exp1.png,trial_right_image,-1,exp1.png,2,exp1.png,exp2.png,1,1,non-reversed,correct,0.3603332463270168,1,valid_win,278.1344894000795,29,,,,,,,,,,,s_081,2,2022_Apr_04_0939,Reversal,3.2.4,59.99448049370354,
5,exp3.png,exp4.png,2,0,2,0,0,5,5,5,,,,,,,,,,,,,,,,,,,,,,,,,False,45,46,True,exp4.png,exp3.png,trial_left_image,1,exp4.png,2,exp3.png,exp4.png,0,4,reversed,incorrect,0.8764693779641167,0,valid_lose,284.1826284000417,29,,,,,,,,,,,s_081,2,2022_Apr_04_0939,Reversal,3.2.4,59.99448049370354,
6,exp1.png,exp2.png,2,0,2,0,0,6,6,6,,,,,,,,,,,,,,,,,,,,,,,,,False,46,47,False,exp1.png,exp2.png,trial_right_image,-1,exp2.png,2,exp1.png,exp2.png,0,2,non-reversed,incorrect,0.9504826024780945,0,valid_lose,288.88125350000337,29,,,,,,,,,,,s_081,2,2022_Apr_04_0939,Reversal,3.2.4,59.99448049370354,
7,exp3.png,exp4.png,2,0,2,0,0,7,7,7,,,,,,,,,,,,,,,,,,,,,,,,,False,47,48,True,exp4.png,exp3.png,trial_right_image,-1,exp3.png,2,exp3.png,exp4.png,1,3,reversed,correct,0.3813223800548394,1,valid_win,292.99640689999796,30,,,,,,,,,,,s_081,2,2022_Apr_04_0939,Reversal,3.2.4,59.99448049370354,
8,exp1.png,exp2.png,2,0,2,0,0,8,8,8,,,,,,,,,,,,,,,,,,,,,,,,,False,48,49,False,exp1.png,exp2.png,trial_right_image,-1,exp2.png,2,exp1.png,exp2.png,0,2,non-reversed,incorrect,0.8120580902590288,0,valid_lose,297.14480900007766,30,,,,,,,,,,,s_081,2,2022_Apr_04_0939,Reversal,3.2.4,59.99448049370354,
9,exp3.png,exp4.png,2,0,2,0,0,9,9,9,,,,,,,,,,,,,,,,,,,,,,,,,False,49,50,False,exp3.png,exp4.png,trial_left_image,1,exp3.png,2,exp3.png,exp4.png,1,3,reversed,correct,0.39426137889617374,1,valid_win,301.4272914000321,31,,,,,,,,,,,s_081,2,2022_Apr_04_0939,Reversal,3.2.4,59.99448049370354,
10,exp1.png,exp2.png,2,0,2,0,0,10,10,10,,,,,,,,,,,,,,,,,,,,,,,,,False,50,51,False,exp1.png,exp2.png,trial_left_image,1,exp1.png,2,exp1.png,exp2.png,1,1,non-reversed,correct,0.7676045062186311,1,valid_win,305.72483850002754,32,,,,,,,,,,,s_081,2,2022_Apr_04_0939,Reversal,3.2.4,59.99448049370354,
11,exp3.png,exp4.png,2,0,2,0,0,11,11,11,,,,,,,,,,,,,,,,,,,,,,,,,False,51,52,True,exp4.png,exp3.png,trial_right_image,-1,exp3.png,2,exp3.png,exp4.png,1,3,reversed,correct,0.6620779768242847,1,valid_win,309.84070729999803,33,,,,,,,,,,,s_081,2,2022_Apr_04_0939,Reversal,3.2.4,59.99448049370354,
12,exp1.png,exp2.png,2,0,2,0,0,12,12,12,,,,,,,,,,,,,,,,,,,,,,,,,False,52,53,True,exp2.png,exp1.png,trial_right_image,-1,exp1.png,2,exp1.png,exp2.png,1,1,non-reversed,correct,0.07224239669413812,0,invalid_lose,313.9400604000548,33,,,,,,,,,,,s_081,2,2022_Apr_04_0939,Reversal,3.2.4,59.99448049370354,
13,exp3.png,exp4.png,2,0,2,0,0,13,13,13,,,,,,,,,,,,,,,,,,,,,,,,,False,53,54,True,exp4.png,exp3.png,trial_right_image,-1,exp3.png,2,exp3.png,exp4.png,1,3,reversed,correct,0.9217764879552814,1,valid_win,318.32136589998845,34,,,,,,,,,,,s_081,2,2022_Apr_04_0939,Reversal,3.2.4,59.99448049370354,
14,exp1.png,exp2.png,2,0,2,0,0,14,14,14,,,,,,,,,,,,,,,,,,,,,,,,,False,54,55,True,exp2.png,exp1.png,trial_left_image,1,exp2.png,2,exp1.png,exp2.png,0,2,non-reversed,incorrect,0.457164917506398,0,valid_lose,322.8700105000753,34,,,,,,,,,,,s_081,2,2022_Apr_04_0939,Reversal,3.2.4,59.99448049370354,
15,exp3.png,exp4.png,2,0,2,0,0,15,15,15,,,,,,,,,,,,,,,,,,,,,,,,,False,55,56,True,exp4.png,exp3.png,trial_right_image,-1,exp3.png,2,exp3.png,exp4.png,1,3,reversed,correct,0.6557110723308144,1,valid_win,327.08489190007094,35,,,,,,,,,,,s_081,2,2022_Apr_04_0939,Reversal,3.2.4,59.99448049370354,
16,exp1.png,exp2.png,2,0,2,0,0,16,16,16,,,,,,,,,,,,,,,,,,,,,,,,,False,56,57,False,exp1.png,exp2.png,trial_left_image,1,exp1.png,2,exp1.png,exp2.png,1,1,non-reversed,correct,0.9037323573006161,1,valid_win,331.85010530008003,36,,,,,,,,,,,s_081,2,2022_Apr_04_0939,Reversal,3.2.4,59.99448049370354,
17,exp3.png,exp4.png,2,0,2,0,0,17,17,17,,,,,,,,,,,,,,,,,,,,,,,,,False,57,58,False,exp3.png,exp4.png,trial_right_image,-1,exp4.png,2,exp3.png,exp4.png,0,4,reversed,incorrect,0.020765299599752596,1,invalid_win,336.5476374999853,37,,,,,,,,,,,s_081,2,2022_Apr_04_0939,Reversal,3.2.4,59.99448049370354,
18,exp1.png,exp2.png,2,0,2,0,0,18,18,18,,,,,,,,,,,,,,,,,,,,,,,,,False,58,59,True,exp2.png,exp1.png,trial_right_image,-1,exp1.png,2,exp1.png,exp2.png,1,1,non-reversed,correct,0.11109989212133908,0,invalid_lose,341.33045840007253,37,,,,,,,,,,,s_081,2,2022_Apr_04_0939,Reversal,3.2.4,59.99448049370354,
19,exp3.png,exp4.png,2,0,2,0,0,19,19,19,,,,,,,,,,,,,,,,,,,,,,,,,False,59,60,False,exp3.png,exp4.png,trial_right_image,-1,exp4.png,2,exp3.png,exp4.png,0,4,reversed,incorrect,0.7842756817051665,0,valid_lose,345.7946639000438,37,,,,,,,,,,,s_081,2,2022_Apr_04_0939,Reversal,3.2.4,59.99448049370354,
20,exp1.png,exp2.png,2,0,2,0,0,20,20,20,,,,,,,,,,,,,,,,,,,,,,,,,True,,,,,,,,,,,,,,,,,,,,,,,,,,,,,,,s_081,2,2022_Apr_04_0939,Reversal,3.2.4,59.99448049370354,
,,,2,0,2,0,,,,,0,0,0,0,,,,,,,,,,,,,,,,,,,,,,,,,,,,,,,,,,,,,,,,,,63,61,45,37,,,,,,,s_081,2,2022_Apr_04_0939,Reversal,3.2.4,59.99448049370354,
0,exp1.png,exp2.png,3,0,3,0,0,0,0,0,,,,,,,,,,,,,,,,,,,,,,,,,False,60,61,False,exp1.png,exp2.png,trial_right_image,-1,exp2.png,2,exp1.png,exp2.png,0,2,non-reversed,incorrect,0.10752997480116211,1,invalid_win,363.73902189999353,38,,,,,,,,,,,s_081,2,2022_Apr_04_0939,Reversal,3.2.4,59.99448049370354,
1,exp3.png,exp4.png,3,0,3,0,0,1,1,1,,,,,,,,,,,,,,,,,,,,,,,,,False,61,62,False,exp3.png,exp4.png,trial_left_image,1,exp3.png,2,exp3.png,exp4.png,1,3,reversed,correct,0.27579206916091015,1,valid_win,368.4374715000158,39,,,,,,,,,,,s_081,2,2022_Apr_04_0939,Reversal,3.2.4,59.99448049370354,
2,exp1.png,exp2.png,3,0,3,0,0,2,2,2,,,,,,,,,,,,,,,,,,,,,,,,,False,62,63,True,exp2.png,exp1.png,trial_right_image,-1,exp1.png,2,exp1.png,exp2.png,1,1,non-reversed,correct,0.7670388260316363,1,valid_win,372.6354939000448,40,,,,,,,,,,,s_081,2,2022_Apr_04_0939,Reversal,3.2.4,59.99448049370354,
3,exp3.png,exp4.png,3,0,3,0,0,3,3,3,,,,,,,,,,,,,,,,,,,,,,,,,False,63,64,True,exp4.png,exp3.png,trial_right_image,-1,exp3.png,2,exp3.png,exp4.png,1,3,reversed,correct,0.7302613106662775,1,valid_win,376.90134179999586,41,,,,,,,,,,,s_081,2,2022_Apr_04_0939,Reversal,3.2.4,59.99448049370354,
4,exp1.png,exp2.png,3,0,3,0,0,4,4,4,,,,,,,,,,,,,,,,,,,,,,,,,False,64,65,True,exp2.png,exp1.png,trial_left_image,1,exp2.png,2,exp1.png,exp2.png,0,2,non-reversed,incorrect,0.15150228334281246,1,invalid_win,381.7329078000039,42,,,,,,,,,,,s_081,2,2022_Apr_04_0939,Reversal,3.2.4,59.99448049370354,
5,exp3.png,exp4.png,3,0,3,0,0,5,5,5,,,,,,,,,,,,,,,,,,,,,,,,,False,65,66,False,exp3.png,exp4.png,trial_left_image,1,exp3.png,2,exp3.png,exp4.png,1,3,reversed,correct,0.39980290778294125,1,valid_win,386.66394360002596,43,,,,,,,,,,,s_081,2,2022_Apr_04_0939,Reversal,3.2.4,59.99448049370354,
6,exp1.png,exp2.png,3,0,3,0,0,6,6,6,,,,,,,,,,,,,,,,,,,,,,,,,False,66,67,False,exp1.png,exp2.png,trial_right_image,-1,exp2.png,2,exp1.png,exp2.png,0,2,non-reversed,incorrect,0.3278025459723344,0,valid_lose,391.59642820002045,43,,,,,,,,,,,s_081,2,2022_Apr_04_0939,Reversal,3.2.4,59.99448049370354,
7,exp3.png,exp4.png,3,0,3,0,0,7,7,7,,,,,,,,,,,,,,,,,,,,,,,,,False,67,68,True,exp4.png,exp3.png,trial_right_image,-1,exp3.png,2,exp3.png,exp4.png,1,3,reversed,correct,0.7288804724833625,1,valid_win,395.99475810001604,44,,,,,,,,,,,s_081,2,2022_Apr_04_0939,Reversal,3.2.4,59.99448049370354,
8,exp1.png,exp2.png,3,0,3,0,0,8,8,8,,,,,,,,,,,,,,,,,,,,,,,,,False,68,69,False,exp1.png,exp2.png,trial_left_image,1,exp1.png,2,exp1.png,exp2.png,1,1,non-reversed,correct,0.3137885063366036,1,valid_win,401.0768840999808,45,,,,,,,,,,,s_081,2,2022_Apr_04_0939,Reversal,3.2.4,59.99448049370354,
9,exp3.png,exp4.png,3,0,3,0,0,9,9,9,,,,,,,,,,,,,,,,,,,,,,,,,False,69,70,True,exp4.png,exp3.png,trial_right_image,-1,exp3.png,2,exp3.png,exp4.png,1,3,reversed,correct,0.2814195291810334,1,valid_win,405.774179500062,46,,,,,,,,,,,s_081,2,2022_Apr_04_0939,Reversal,3.2.4,59.99448049370354,
10,exp1.png,exp2.png,3,0,3,0,0,10,10,10,,,,,,,,,,,,,,,,,,,,,,,,,False,70,71,False,exp1.png,exp2.png,trial_left_image,1,exp1.png,2,exp1.png,exp2.png,1,1,non-reversed,correct,0.11900494870424783,0,invalid_lose,410.60651469998993,46,,,,,,,,,,,s_081,2,2022_Apr_04_0939,Reversal,3.2.4,59.99448049370354,
11,exp3.png,exp4.png,3,0,3,0,0,11,11,11,,,,,,,,,,,,,,,,,,,,,,,,,False,71,72,False,exp3.png,exp4.png,trial_left_image,1,exp3.png,2,exp3.png,exp4.png,1,3,reversed,correct,0.657580412636489,1,valid_win,415.88837170007173,47,,,,,,,,,,,s_081,2,2022_Apr_04_0939,Reversal,3.2.4,59.99448049370354,
12,exp1.png,exp2.png,3,0,3,0,0,12,12,12,,,,,,,,,,,,,,,,,,,,,,,,,False,72,73,False,exp1.png,exp2.png,trial_left_image,1,exp1.png,2,exp1.png,exp2.png,1,1,non-reversed,correct,0.835546163308284,1,valid_win,421.1870457000332,48,,,,,,,,,,,s_081,2,2022_Apr_04_0939,Reversal,3.2.4,59.99448049370354,
13,exp3.png,exp4.png,3,0,3,0,0,13,13,13,,,,,,,,,,,,,,,,,,,,,,,,,False,73,74,False,exp3.png,exp4.png,trial_left_image,1,exp3.png,2,exp3.png,exp4.png,1,3,reversed,correct,0.4869054542063438,1,valid_win,426.2348353000125,49,,,,,,,,,,,s_081,2,2022_Apr_04_0939,Reversal,3.2.4,59.99448049370354,
14,exp1.png,exp2.png,3,0,3,0,0,14,14,14,,,,,,,,,,,,,,,,,,,,,,,,,False,74,75,True,exp2.png,exp1.png,trial_right_image,-1,exp1.png,2,exp1.png,exp2.png,1,1,non-reversed,correct,0.4224855294717148,1,valid_win,432.7990364000434,50,,,,,,,,,,,s_081,2,2022_Apr_04_0939,Reversal,3.2.4,59.99448049370354,
15,exp3.png,exp4.png,3,0,3,0,0,15,15,15,,,,,,,,,,,,,,,,,,,,,,,,,False,75,76,True,exp4.png,exp3.png,trial_right_image,-1,exp3.png,2,exp3.png,exp4.png,1,3,reversed,correct,0.07316984590119346,0,invalid_lose,438.06308170000557,50,,,,,,,,,,,s_081,2,2022_Apr_04_0939,Reversal,3.2.4,59.99448049370354,
16,exp1.png,exp2.png,3,0,3,0,0,16,16,16,,,,,,,,,,,,,,,,,,,,,,,,,False,76,77,True,exp2.png,exp1.png,trial_right_image,-1,exp1.png,2,exp1.png,exp2.png,1,1,non-reversed,correct,0.14774482210243756,0,invalid_lose,444.01216649997514,50,,,,,,,,,,,s_081,2,2022_Apr_04_0939,Reversal,3.2.4,59.99448049370354,
17,exp3.png,exp4.png,3,0,3,0,0,17,17,17,,,,,,,,,,,,,,,,,,,,,,,,,False,77,78,True,exp4.png,exp3.png,trial_right_image,-1,exp3.png,2,exp3.png,exp4.png,1,3,reversed,correct,0.48140107252694275,1,valid_win,448.97720870003104,51,,,,,,,,,,,s_081,2,2022_Apr_04_0939,Reversal,3.2.4,59.99448049370354,
18,exp1.png,exp2.png,3,0,3,0,0,18,18,18,,,,,,,,,,,,,,,,,,,,,,,,,False,78,79,False,exp1.png,exp2.png,trial_left_image,1,exp1.png,2,exp1.png,exp2.png,1,1,non-reversed,correct,0.43437600441291657,1,valid_win,454.3418058999814,52,,,,,,,,,,,s_081,2,2022_Apr_04_0939,Reversal,3.2.4,59.99448049370354,
19,exp3.png,exp4.png,3,0,3,0,0,19,19,19,,,,,,,,,,,,,,,,,,,,,,,,,False,79,80,True,exp4.png,exp3.png,trial_right_image,-1,exp3.png,2,exp3.png,exp4.png,1,3,reversed,correct,0.189098823890816,0,invalid_lose,459.3066892999923,52,,,,,,,,,,,s_081,2,2022_Apr_04_0939,Reversal,3.2.4,59.99448049370354,
20,exp1.png,exp2.png,3,0,3,0,0,20,20,20,,,,,,,,,,,,,,,,,,,,,,,,,True,,,,,,,,,,,,,,,,,,,,,,,,,,,,,,,s_081,2,2022_Apr_04_0939,Reversal,3.2.4,59.99448049370354,
,,,3,0,3,0,,,,,0,0,0,0,,,,,,,,,,,,,,,,,,,,,,,,,,,,,,,,,,,,,,,,,,72,60,59,13,,,,,,,s_081,2,2022_Apr_04_0939,Reversal,3.2.4,59.99448049370354,
0,exp1.png,exp2.png,,,,,,,,,,,,,,,,,0,0,0,0,0,0,0,0,,,,,,,,,False,0,81,False,exp1.png,exp2.png,trial_right_image,-1,exp2.png,2,exp1.png,exp2.png,0,2,non-reversed,incorrect,0.9965553157368573,0,valid_lose,481.71529429999646,52,,,,,477.95501200004946,,,,,,s_081,2,2022_Apr_04_0939,Reversal,3.2.4,59.99448049370354,
1,exp3.png,exp4.png,,,,,,,,,,,,,,,,,0,0,0,0,0,1,1,1,,,,,,,,,False,1,82,True,exp4.png,exp3.png,trial_right_image,-1,exp3.png,2,exp4.png,exp3.png,1,3,reversed,incorrect,0.6757847085672326,0,valid_lose,486.0809640000807,52,,,,,,,,,,,s_081,2,2022_Apr_04_0939,Reversal,3.2.4,59.99448049370354,
2,exp1.png,exp2.png,,,,,,,,,,,,,,,,,0,0,0,0,0,2,2,2,,,,,,,,,False,2,83,True,exp2.png,exp1.png,trial_left_image,1,exp2.png,2,exp1.png,exp2.png,0,2,non-reversed,incorrect,0.8619429371459498,0,valid_lose,490.5302785000531,52,,,,,,,,,,,s_081,2,2022_Apr_04_0939,Reversal,3.2.4,59.99448049370354,
3,exp3.png,exp4.png,,,,,,,,,,,,,,,,,0,0,0,0,0,3,3,3,,,,,,,,,False,3,84,True,exp4.png,exp3.png,trial_left_image,1,exp4.png,2,exp4.png,exp3.png,0,4,reversed,correct,0.6143730639290259,1,valid_win,495.1283234000439,53,,,,,,,,,,,s_081,2,2022_Apr_04_0939,Reversal,3.2.4,59.99448049370354,
4,exp1.png,exp2.png,,,,,,,,,,,,,,,,,0,0,0,0,0,4,4,4,,,,,,,,,False,4,85,True,exp2.png,exp1.png,trial_right_image,-1,exp1.png,2,exp1.png,exp2.png,1,1,non-reversed,correct,0.487499989746633,1,valid_win,499.8098682999844,54,,,,,,,,,,,s_081,2,2022_Apr_04_0939,Reversal,3.2.4,59.99448049370354,
5,exp3.png,exp4.png,,,,,,,,,,,,,,,,,0,0,0,0,0,5,5,5,,,,,,,,,False,5,86,True,exp4.png,exp3.png,trial_left_image,1,exp4.png,2,exp4.png,exp3.png,0,4,reversed,correct,0.2081240385213574,0,invalid_lose,504.3585673000198,54,,,,,,,,,,,s_081,2,2022_Apr_04_0939,Reversal,3.2.4,59.99448049370354,
6,exp1.png,exp2.png,,,,,,,,,,,,,,,,,0,0,0,0,0,6,6,6,,,,,,,,,False,6,87,True,exp2.png,exp1.png,trial_right_image,-1,exp1.png,2,exp1.png,exp2.png,1,1,non-reversed,correct,0.4804247837187151,1,valid_win,509.4907366000116,55,,,,,,,,,,,s_081,2,2022_Apr_04_0939,Reversal,3.2.4,59.99448049370354,
7,exp3.png,exp4.png,,,,,,,,,,,,,,,,,0,0,0,0,0,7,7,7,,,,,,,,,False,7,88,False,exp3.png,exp4.png,trial_right_image,-1,exp4.png,2,exp4.png,exp3.png,0,4,reversed,correct,0.821383228370221,1,valid_win,514.5379846000578,56,,,,,,,,,,,s_081,2,2022_Apr_04_0939,Reversal,3.2.4,59.99448049370354,
8,exp1.png,exp2.png,,,,,,,,,,,,,,,,,0,0,0,0,0,8,8,8,,,,,,,,,False,8,89,False,exp1.png,exp2.png,trial_right_image,-1,exp2.png,2,exp1.png,exp2.png,0,2,non-reversed,incorrect,0.5443679111622381,0,valid_lose,521.4528520000167,56,,,,,,,,,,,s_081,2,2022_Apr_04_0939,Reversal,3.2.4,59.99448049370354,
9,exp3.png,exp4.png,,,,,,,,,,,,,,,,,0,0,0,0,0,9,9,9,,,,,,,,,False,9,90,True,exp4.png,exp3.png,trial_right_image,-1,exp3.png,2,exp4.png,exp3.png,1,3,reversed,incorrect,0.8063737247749004,0,valid_lose,527.1189968000399,56,,,,,,,,,,,s_081,2,2022_Apr_04_0939,Reversal,3.2.4,59.99448049370354,
10,exp1.png,exp2.png,,,,,,,,,,,,,,,,,0,0,0,0,0,10,10,10,,,,,,,,,False,10,91,False,exp1.png,exp2.png,trial_left_image,1,exp1.png,2,exp1.png,exp2.png,1,1,non-reversed,correct,0.2197924049565897,0,invalid_lose,532.9484628000064,56,,,,,,,,,,,s_081,2,2022_Apr_04_0939,Reversal,3.2.4,59.99448049370354,
11,exp3.png,exp4.png,,,,,,,,,,,,,,,,,0,0,0,0,0,11,11,11,,,,,,,,,False,11,92,False,exp3.png,exp4.png,trial_right_image,-1,exp4.png,2,exp4.png,exp3.png,0,4,reversed,correct,0.43077966822276437,1,valid_win,537.9635326999705,57,,,,,,,,,,,s_081,2,2022_Apr_04_0939,Reversal,3.2.4,59.99448049370354,
12,exp1.png,exp2.png,,,,,,,,,,,,,,,,,0,0,0,0,0,12,12,12,,,,,,,,,False,12,93,True,exp2.png,exp1.png,trial_right_image,-1,exp1.png,2,exp1.png,exp2.png,1,1,non-reversed,correct,0.09241678287086486,0,invalid_lose,544.0781421000138,57,,,,,,,,,,,s_081,2,2022_Apr_04_0939,Reversal,3.2.4,59.99448049370354,
13,exp3.png,exp4.png,,,,,,,,,,,,,,,,,0,0,0,0,0,13,13,13,,,,,,,,,False,13,94,False,exp3.png,exp4.png,trial_right_image,-1,exp4.png,2,exp4.png,exp3.png,0,4,reversed,correct,0.43885164610228056,1,valid_win,548.5270748999901,58,,,,,,,,,,,s_081,2,2022_Apr_04_0939,Reversal,3.2.4,59.99448049370354,
14,exp1.png,exp2.png,,,,,,,,,,,,,,,,,0,0,0,0,0,14,14,14,,,,,,,,,False,14,95,True,exp2.png,exp1.png,trial_left_image,1,exp2.png,2,exp1.png,exp2.png,0,2,non-reversed,incorrect,0.6995714509201844,0,valid_lose,552.8751636000816,58,,,,,,,,,,,s_081,2,2022_Apr_04_0939,Reversal,3.2.4,59.99448049370354,
15,exp3.png,exp4.png,,,,,,,,,,,,,,,,,0,0,0,0,0,15,15,15,,,,,,,,,False,15,96,False,exp3.png,exp4.png,trial_right_image,-1,exp4.png,2,exp4.png,exp3.png,0,4,reversed,correct,0.994628228290926,1,valid_win,557.7899469999829,59,,,,,,,,,,,s_081,2,2022_Apr_04_0939,Reversal,3.2.4,59.99448049370354,
16,exp1.png,exp2.png,,,,,,,,,,,,,,,,,0,0,0,0,0,16,16,16,,,,,,,,,False,16,97,False,exp1.png,exp2.png,trial_right_image,-1,exp2.png,2,exp1.png,exp2.png,0,2,non-reversed,incorrect,0.5583893825094697,0,valid_lose,562.9546281000366,59,,,,,,,,,,,s_081,2,2022_Apr_04_0939,Reversal,3.2.4,59.99448049370354,
17,exp3.png,exp4.png,,,,,,,,,,,,,,,,,0,0,0,0,0,17,17,17,,,,,,,,,False,17,98,True,exp4.png,exp3.png,trial_left_image,1,exp4.png,2,exp4.png,exp3.png,0,4,reversed,correct,0.39717008905040196,1,valid_win,570.5190162999788,60,,,,,,,,,,,s_081,2,2022_Apr_04_0939,Reversal,3.2.4,59.99448049370354,
18,exp1.png,exp2.png,,,,,,,,,,,,,,,,,0,0,0,0,0,18,18,18,,,,,,,,,False,18,99,False,exp1.png,exp2.png,trial_left_image,1,exp1.png,2,exp1.png,exp2.png,1,1,non-reversed,correct,0.5810001310368863,1,valid_win,576.0504182999721,61,,,,,,,,,,,s_081,2,2022_Apr_04_0939,Reversal,3.2.4,59.99448049370354,
19,exp3.png,exp4.png,,,,,,,,,,,,,,,,,0,0,0,0,0,19,19,19,,,,,,,,,False,19,100,False,exp3.png,exp4.png,trial_right_image,-1,exp4.png,2,exp4.png,exp3.png,0,4,reversed,correct,0.45093101127826773,1,valid_win,581.143296699971,62,,,,,,,,,,,s_081,2,2022_Apr_04_0939,Reversal,3.2.4,59.99448049370354,
20,exp1.png,exp2.png,,,,,,,,,,,,,,,,,0,0,0,0,0,20,20,20,,,,,,,,,True,,,,,,,,,,,,,,,,,,,,,,,,,,,,,,,s_081,2,2022_Apr_04_0939,Reversal,3.2.4,59.99448049370354,
,,,,,,,,,,,,,,,,,,,0,0,0,0,,,,,0,0,0,0,,,,,,,,,,,,,,,,,,,,,,,,,,58,63,20,85,,,,,,,s_081,2,2022_Apr_04_0939,Reversal,3.2.4,59.99448049370354,
0,exp1.png,exp2.png,,,,,,,,,,,,,,,,,1,0,1,0,0,0,0,0,,,,,,,,,False,20,101,True,exp2.png,exp1.png,trial_right_image,-1,exp1.png,2,exp1.png,exp2.png,1,1,non-reversed,correct,0.7562722995777049,1,valid_win,601.2926140000345,63,,,,,,,,,,,s_081,2,2022_Apr_04_0939,Reversal,3.2.4,59.99448049370354,
1,exp3.png,exp4.png,,,,,,,,,,,,,,,,,1,0,1,0,0,1,1,1,,,,,,,,,False,21,102,True,exp4.png,exp3.png,trial_left_image,1,exp4.png,2,exp4.png,exp3.png,0,4,reversed,correct,0.13507644879710257,0,invalid_lose,607.0736816000426,63,,,,,,,,,,,s_081,2,2022_Apr_04_0939,Reversal,3.2.4,59.99448049370354,
2,exp1.png,exp2.png,,,,,,,,,,,,,,,,,1,0,1,0,0,2,2,2,,,,,,,,,False,22,103,False,exp1.png,exp2.png,trial_right_image,-1,exp2.png,2,exp1.png,exp2.png,0,2,non-reversed,incorrect,0.3257297752729017,0,valid_lose,611.9212889000773,63,,,,,,,,,,,s_081,2,2022_Apr_04_0939,Reversal,3.2.4,59.99448049370354,
3,exp3.png,exp4.png,,,,,,,,,,,,,,,,,1,0,1,0,0,3,3,3,,,,,,,,,False,23,104,False,exp3.png,exp4.png,trial_left_image,1,exp3.png,2,exp4.png,exp3.png,1,3,reversed,incorrect,0.9734016116815496,0,valid_lose,617.1200032000197,63,,,,,,,,,,,s_081,2,2022_Apr_04_0939,Reversal,3.2.4,59.99448049370354,
4,exp1.png,exp2.png,,,,,,,,,,,,,,,,,1,0,1,0,0,4,4,4,,,,,,,,,False,24,105,True,exp2.png,exp1.png,trial_right_image,-1,exp1.png,2,exp1.png,exp2.png,1,1,non-reversed,correct,0.8262591568689599,1,valid_win,623.3339658000041,64,,,,,,,,,,,s_081,2,2022_Apr_04_0939,Reversal,3.2.4,59.99448049370354,
5,exp3.png,exp4.png,,,,,,,,,,,,,,,,,1,0,1,0,0,5,5,5,,,,,,,,,False,25,106,False,exp3.png,exp4.png,trial_left_image,1,exp3.png,2,exp4.png,exp3.png,1,3,reversed,incorrect,0.2946832618700672,0,valid_lose,631.5810617000097,64,,,,,,,,,,,s_081,2,2022_Apr_04_0939,Reversal,3.2.4,59.99448049370354,
6,exp1.png,exp2.png,,,,,,,,,,,,,,,,,1,0,1,0,0,6,6,6,,,,,,,,,False,26,107,False,exp1.png,exp2.png,trial_right_image,-1,exp2.png,2,exp1.png,exp2.png,0,2,non-reversed,incorrect,0.29570243506611493,0,valid_lose,637.4460432999767,64,,,,,,,,,,,s_081,2,2022_Apr_04_0939,Reversal,3.2.4,59.99448049370354,
7,exp3.png,exp4.png,,,,,,,,,,,,,,,,,1,0,1,0,0,7,7,7,,,,,,,,,False,27,108,True,exp4.png,exp3.png,trial_right_image,-1,exp3.png,2,exp4.png,exp3.png,1,3,reversed,incorrect,0.0030190790716455584,1,invalid_win,642.8783456999809,65,,,,,,,,,,,s_081,2,2022_Apr_04_0939,Reversal,3.2.4,59.99448049370354,
8,exp1.png,exp2.png,,,,,,,,,,,,,,,,,1,0,1,0,0,8,8,8,,,,,,,,,False,28,109,False,exp1.png,exp2.png,trial_left_image,1,exp1.png,2,exp1.png,exp2.png,1,1,non-reversed,correct,0.6425149380866633,1,valid_win,649.0425626999931,66,,,,,,,,,,,s_081,2,2022_Apr_04_0939,Reversal,3.2.4,59.99448049370354,
9,exp3.png,exp4.png,,,,,,,,,,,,,,,,,1,0,1,0,0,9,9,9,,,,,,,,,False,29,110,True,exp4.png,exp3.png,trial_right_image,-1,exp3.png,2,exp4.png,exp3.png,1,3,reversed,incorrect,0.8445178984462446,0,valid_lose,655.3404757999815,66,,,,,,,,,,,s_081,2,2022_Apr_04_0939,Reversal,3.2.4,59.99448049370354,
10,exp1.png,exp2.png,,,,,,,,,,,,,,,,,1,0,1,0,0,10,10,10,,,,,,,,,False,30,111,False,exp1.png,exp2.png,trial_left_image,1,exp1.png,2,exp1.png,exp2.png,1,1,non-reversed,correct,0.07235891332849576,0,invalid_lose,661.138696399983,66,,,,,,,,,,,s_081,2,2022_Apr_04_0939,Reversal,3.2.4,59.99448049370354,
11,exp3.png,exp4.png,,,,,,,,,,,,,,,,,1,0,1,0,0,11,11,11,,,,,,,,,False,31,112,False,exp3.png,exp4.png,trial_right_image,-1,exp4.png,2,exp4.png,exp3.png,0,4,reversed,correct,0.03948732874061134,0,invalid_lose,666.2037751000607,66,,,,,,,,,,,s_081,2,2022_Apr_04_0939,Reversal,3.2.4,59.99448049370354,
12,exp1.png,exp2.png,,,,,,,,,,,,,,,,,1,0,1,0,0,12,12,12,,,,,,,,,False,32,113,False,exp1.png,exp2.png,trial_left_image,1,exp1.png,2,exp1.png,exp2.png,1,1,non-reversed,correct,0.4002523114081724,1,valid_win,671.9676868000533,67,,,,,,,,,,,s_081,2,2022_Apr_04_0939,Reversal,3.2.4,59.99448049370354,
13,exp3.png,exp4.png,,,,,,,,,,,,,,,,,1,0,1,0,0,13,13,13,,,,,,,,,False,33,114,True,exp4.png,exp3.png,trial_left_image,1,exp4.png,2,exp4.png,exp3.png,0,4,reversed,correct,0.5142560131531638,1,valid_win,677.5496255999897,68,,,,,,,,,,,s_081,2,2022_Apr_04_0939,Reversal,3.2.4,59.99448049370354,
14,exp1.png,exp2.png,,,,,,,,,,,,,,,,,1,0,1,0,0,14,14,14,,,,,,,,,False,34,115,True,exp2.png,exp1.png,trial_right_image,-1,exp1.png,2,exp1.png,exp2.png,1,1,non-reversed,correct,0.6868191930927356,1,valid_win,682.5807936000638,69,,,,,,,,,,,s_081,2,2022_Apr_04_0939,Reversal,3.2.4,59.99448049370354,
15,exp3.png,exp4.png,,,,,,,,,,,,,,,,,1,0,1,0,0,15,15,15,,,,,,,,,False,35,116,True,exp4.png,exp3.png,trial_left_image,1,exp4.png,2,exp4.png,exp3.png,0,4,reversed,correct,0.2331199653495991,0,invalid_lose,687.9790592000354,69,,,,,,,,,,,s_081,2,2022_Apr_04_0939,Reversal,3.2.4,59.99448049370354,
16,exp1.png,exp2.png,,,,,,,,,,,,,,,,,1,0,1,0,0,16,16,16,,,,,,,,,False,36,117,True,exp2.png,exp1.png,trial_right_image,-1,exp1.png,2,exp1.png,exp2.png,1,1,non-reversed,correct,0.3014071799981779,1,valid_win,692.677994800033,70,,,,,,,,,,,s_081,2,2022_Apr_04_0939,Reversal,3.2.4,59.99448049370354,
17,exp3.png,exp4.png,,,,,,,,,,,,,,,,,1,0,1,0,0,17,17,17,,,,,,,,,False,37,118,True,exp4.png,exp3.png,trial_left_image,1,exp4.png,2,exp4.png,exp3.png,0,4,reversed,correct,0.22121131734352895,0,invalid_lose,698.3592274000403,70,,,,,,,,,,,s_081,2,2022_Apr_04_0939,Reversal,3.2.4,59.99448049370354,
18,exp1.png,exp2.png,,,,,,,,,,,,,,,,,1,0,1,0,0,18,18,18,,,,,,,,,False,38,119,False,exp1.png,exp2.png,trial_left_image,1,exp1.png,2,exp1.png,exp2.png,1,1,non-reversed,correct,0.9490120358723415,1,valid_win,703.4241118000355,71,,,,,,,,,,,s_081,2,2022_Apr_04_0939,Reversal,3.2.4,59.99448049370354,
19,exp3.png,exp4.png,,,,,,,,,,,,,,,,,1,0,1,0,0,19,19,19,,,,,,,,,False,39,120,False,exp3.png,exp4.png,trial_right_image,-1,exp4.png,2,exp4.png,exp3.png,0,4,reversed,correct,0.2465752448523063,0,invalid_lose,710.922496000072,71,,,,,,,,,,,s_081,2,2022_Apr_04_0939,Reversal,3.2.4,59.99448049370354,
20,exp1.png,exp2.png,,,,,,,,,,,,,,,,,1,0,1,0,0,20,20,20,,,,,,,,,True,,,,,,,,,,,,,,,,,,,,,,,,,,,,,,,s_081,2,2022_Apr_04_0939,Reversal,3.2.4,59.99448049370354,
,,,,,,,,,,,,,,,,,,,1,0,1,0,,,,,0,0,0,0,,,,,,,,,,,,,,,,,,,,,,,,,,90,15,50.0,50.0,,,,,,,s_081,2,2022_Apr_04_0939,Reversal,3.2.4,59.99448049370354,
0,exp1.png,exp2.png,,,,,,,,,,,,,,,,,2,0,2,0,0,0,0,0,,,,,,,,,False,40,121,True,exp2.png,exp1.png,trial_right_image,-1,exp1.png,2,exp1.png,exp2.png,1,1,non-reversed,correct,0.2163163392468076,0,invalid_lose,730.9993048000615,71,,,,,,,,,,,s_081,2,2022_Apr_04_0939,Reversal,3.2.4,59.99448049370354,
1,exp3.png,exp4.png,,,,,,,,,,,,,,,,,2,0,2,0,0,1,1,1,,,,,,,,,False,41,122,False,exp3.png,exp4.png,trial_right_image,-1,exp4.png,2,exp4.png,exp3.png,0,4,reversed,correct,0.526709412002648,1,valid_win,737.7454567999812,72,,,,,,,,,,,s_081,2,2022_Apr_04_0939,Reversal,3.2.4,59.99448049370354,
2,exp1.png,exp2.png,,,,,,,,,,,,,,,,,2,0,2,0,0,2,2,2,,,,,,,,,False,42,123,False,exp1.png,exp2.png,trial_left_image,1,exp1.png,2,exp1.png,exp2.png,1,1,non-reversed,correct,0.3108113001280418,1,valid_win,743.327369500068,73,,,,,,,,,,,s_081,2,2022_Apr_04_0939,Reversal,3.2.4,59.99448049370354,
3,exp3.png,exp4.png,,,,,,,,,,,,,,,,,2,0,2,0,0,3,3,3,,,,,,,,,False,43,124,False,exp3.png,exp4.png,trial_right_image,-1,exp4.png,2,exp4.png,exp3.png,0,4,reversed,correct,0.5962255209681797,1,valid_win,747.8590251000132,74,,,,,,,,,,,s_081,2,2022_Apr_04_0939,Reversal,3.2.4,59.99448049370354,
4,exp1.png,exp2.png,,,,,,,,,,,,,,,,,2,0,2,0,0,4,4,4,,,,,,,,,False,44,125,False,exp1.png,exp2.png,trial_left_image,1,exp1.png,2,exp1.png,exp2.png,1,1,non-reversed,correct,0.4368266599044637,1,valid_win,752.4575520000653,75,,,,,,,,,,,s_081,2,2022_Apr_04_0939,Reversal,3.2.4,59.99448049370354,
5,exp3.png,exp4.png,,,,,,,,,,,,,,,,,2,0,2,0,0,5,5,5,,,,,,,,,False,45,126,True,exp4.png,exp3.png,trial_right_image,-1,exp3.png,2,exp4.png,exp3.png,1,3,reversed,incorrect,0.18058818450933067,1,invalid_win,756.6902188999811,76,,,,,,,,,,,s_081,2,2022_Apr_04_0939,Reversal,3.2.4,59.99448049370354,
6,exp1.png,exp2.png,,,,,,,,,,,,,,,,,2,0,2,0,0,6,6,6,,,,,,,,,False,46,127,True,exp2.png,exp1.png,trial_right_image,-1,exp1.png,2,exp1.png,exp2.png,1,1,non-reversed,correct,0.8350666641963862,1,valid_win,761.2544523000252,77,,,,,,,,,,,s_081,2,2022_Apr_04_0939,Reversal,3.2.4,59.99448049370354,
7,exp3.png,exp4.png,,,,,,,,,,,,,,,,,2,0,2,0,0,7,7,7,,,,,,,,,False,47,128,False,exp3.png,exp4.png,trial_left_image,1,exp3.png,2,exp4.png,exp3.png,1,3,reversed,incorrect,0.01943788439281413,1,invalid_win,766.3869359000819,78,,,,,,,,,,,s_081,2,2022_Apr_04_0939,Reversal,3.2.4,59.99448049370354,
8,exp1.png,exp2.png,,,,,,,,,,,,,,,,,2,0,2,0,0,8,8,8,,,,,,,,,False,48,129,True,exp2.png,exp1.png,trial_right_image,-1,exp1.png,2,exp1.png,exp2.png,1,1,non-reversed,correct,0.6352654734968847,1,valid_win,770.9850015999982,79,,,,,,,,,,,s_081,2,2022_Apr_04_0939,Reversal,3.2.4,59.99448049370354,
9,exp3.png,exp4.png,,,,,,,,,,,,,,,,,2,0,2,0,0,9,9,9,,,,,,,,,False,49,130,False,exp3.png,exp4.png,trial_left_image,1,exp3.png,2,exp4.png,exp3.png,1,3,reversed,incorrect,0.16948164750417005,1,invalid_win,776.3167807999998,80,,,,,,,,,,,s_081,2,2022_Apr_04_0939,Reversal,3.2.4,59.99448049370354,
10,exp1.png,exp2.png,,,,,,,,,,,,,,,,,2,0,2,0,0,10,10,10,,,,,,,,,False,50,131,True,exp2.png,exp1.png,trial_right_image,-1,exp1.png,2,exp1.png,exp2.png,1,1,non-reversed,correct,0.3031051014769185,1,valid_win,781.1152045000345,81,,,,,,,,,,,s_081,2,2022_Apr_04_0939,Reversal,3.2.4,59.99448049370354,
11,exp3.png,exp4.png,,,,,,,,,,,,,,,,,2,0,2,0,0,11,11,11,,,,,,,,,False,51,132,False,exp3.png,exp4.png,trial_left_image,1,exp3.png,2,exp4.png,exp3.png,1,3,reversed,incorrect,0.5226972158414507,0,valid_lose,786.196602400043,81,,,,,,,,,,,s_081,2,2022_Apr_04_0939,Reversal,3.2.4,59.99448049370354,
12,exp1.png,exp2.png,,,,,,,,,,,,,,,,,2,0,2,0,0,12,12,12,,,,,,,,,False,52,133,True,exp2.png,exp1.png,trial_right_image,-1,exp1.png,2,exp1.png,exp2.png,1,1,non-reversed,correct,0.7741531124571749,1,valid_win,790.5122121999739,82,,,,,,,,,,,s_081,2,2022_Apr_04_0939,Reversal,3.2.4,59.99448049370354,
13,exp3.png,exp4.png,,,,,,,,,,,,,,,,,2,0,2,0,0,13,13,13,,,,,,,,,False,53,134,True,exp4.png,exp3.png,trial_left_image,1,exp4.png,2,exp4.png,exp3.png,0,4,reversed,correct,0.5002809697667009,1,valid_win,795.2434656000696,83,,,,,,,,,,,s_081,2,2022_Apr_04_0939,Reversal,3.2.4,59.99448049370354,
14,exp1.png,exp2.png,,,,,,,,,,,,,,,,,2,0,2,0,0,14,14,14,,,,,,,,,False,54,135,False,exp1.png,exp2.png,trial_left_image,1,exp1.png,2,exp1.png,exp2.png,1,1,non-reversed,correct,0.7403124617512736,1,valid_win,800.5926870000549,84,,,,,,,,,,,s_081,2,2022_Apr_04_0939,Reversal,3.2.4,59.99448049370354,
15,exp3.png,exp4.png,,,,,,,,,,,,,,,,,2,0,2,0,0,15,15,15,,,,,,,,,False,55,136,True,exp4.png,exp3.png,trial_left_image,1,exp4.png,2,exp4.png,exp3.png,0,4,reversed,correct,0.3942307258572967,1,valid_win,805.173933000071,85,,,,,,,,,,,s_081,2,2022_Apr_04_0939,Reversal,3.2.4,59.99448049370354,
16,exp1.png,exp2.png,,,,,,,,,,,,,,,,,2,0,2,0,0,16,16,16,,,,,,,,,False,56,137,False,exp1.png,exp2.png,trial_left_image,1,exp1.png,2,exp1.png,exp2.png,1,1,non-reversed,correct,0.6344382955503536,1,valid_win,810.1219869999913,86,,,,,,,,,,,s_081,2,2022_Apr_04_0939,Reversal,3.2.4,59.99448049370354,
17,exp3.png,exp4.png,,,,,,,,,,,,,,,,,2,0,2,0,0,17,17,17,,,,,,,,,False,57,138,False,exp3.png,exp4.png,trial_left_image,1,exp3.png,2,exp4.png,exp3.png,1,3,reversed,incorrect,0.7802534171942143,0,valid_lose,814.5362403000472,86,,,,,,,,,,,s_081,2,2022_Apr_04_0939,Reversal,3.2.4,59.99448049370354,
18,exp1.png,exp2.png,,,,,,,,,,,,,,,,,2,0,2,0,0,18,18,18,,,,,,,,,False,58,139,True,exp2.png,exp1.png,trial_right_image,-1,exp1.png,2,exp1.png,exp2.png,1,1,non-reversed,correct,0.4825144312567897,1,valid_win,819.8351362000685,87,,,,,,,,,,,s_081,2,2022_Apr_04_0939,Reversal,3.2.4,59.99448049370354,
19,exp3.png,exp4.png,,,,,,,,,,,,,,,,,2,0,2,0,0,19,19,19,,,,,,,,,False,59,140,True,exp4.png,exp3.png,trial_right_image,-1,exp3.png,2,exp4.png,exp3.png,1,3,reversed,incorrect,0.17715303017735595,1,invalid_win,824.9162881000666,88,,,,,,,,,,,s_081,2,2022_Apr_04_0939,Reversal,3.2.4,59.99448049370354,
20,exp1.png,exp2.png,,,,,,,,,,,,,,,,,2,0,2,0,0,20,20,20,,,,,,,,,True,,,,,,,,,,,,,,,,,,,,,,,,,,,,,,,s_081,2,2022_Apr_04_0939,Reversal,3.2.4,59.99448049370354,
,,,,,,,,,,,,,,,,,,,2,0,2,0,,,,,0,0,0,0,,,,,,,,,,,,,,,,,,,,,,,,,,86,12,58,35,,,,,,,s_081,2,2022_Apr_04_0939,Reversal,3.2.4,59.99448049370354,
,,,,,,,,,,,,,,,,,,,,,,,,,,,,,,,,,,,,,,,,,,,,,,,,,,,,,,,88,,,,,,101,60,41,365.55430419999175,1,,,,,,,
