trial_index,trial_image1_file,trial_image2_file,learning_outer_loop.thisRepN,learning_outer_loop.thisTrialN,learning_outer_loop.thisN,learning_outer_loop.thisIndex,learning_inner_loop.thisRepN,learning_inner_loop.thisTrialN,learning_inner_loop.thisN,learning_inner_loop.thisIndex,learning_estimation_outer_loop.thisRepN,learning_estimation_outer_loop.thisTrialN,learning_estimation_outer_loop.thisN,learning_estimation_outer_loop.thisIndex,learning_estimation_inner_loop.thisRepN,learning_estimation_inner_loop.thisTrialN,learning_estimation_inner_loop.thisN,learning_estimation_inner_loop.thisIndex,reversal_outer_loop.thisRepN,reversal_outer_loop.thisTrialN,reversal_outer_loop.thisN,reversal_outer_loop.thisIndex,reversal_inner_loop.thisRepN,reversal_inner_loop.thisTrialN,reversal_inner_loop.thisN,reversal_inner_loop.thisIndex,reversal_estimation_outer_loop.thisRepN,reversal_estimation_outer_loop.thisTrialN,reversal_estimation_outer_loop.thisN,reversal_estimation_outer_loop.thisIndex,reversal_estimation_inner_loop.thisRepN,reversal_estimation_inner_loop.thisTrialN,reversal_estimation_inner_loop.thisN,reversal_estimation_inner_loop.thisIndex,skipped,total_trial_counter,trial_num,left_right_flip,left_image_file,right_image_file,clicked_stimulus_side,side,clicked_stimulus,version,high_prob_image_file,low_prob_image_file,choice_a,choice_b,pair_type,correct,trial_feedback_random,reward,trial_type,overall_time_after_trial,score,estimation_exp1.png,estimation_exp2.png,estimation_exp3.png,estimation_exp4.png,total_learning_time,total_correct,learning_correct,reversal_correct,total_reversal_time,extra_block,end_experiment.keys,end_experiment.rt,participant,ver,date,expName,psychopyVersion,frameRate,
0,exp1.png,exp2.png,0,0,0,0,0,0,0,0,,,,,,,,,,,,,,,,,,,,,,,,,False,0,1,True,exp2.png,exp1.png,trial_right_image,-1,exp1.png,1,exp1.png,exp2.png,1,3,reversed,correct,0.4272040845595326,1,valid_win,5.110523100011051,1,,,,,,,,,,,,,s_083,1,2022_Apr_24_1228,Reversal,3.2.4,59.9590838888053,
1,exp3.png,exp4.png,0,0,0,0,0,1,1,1,,,,,,,,,,,,,,,,,,,,,,,,,False,1,2,True,exp4.png,exp3.png,trial_right_image,-1,exp3.png,1,exp3.png,exp4.png,1,1,non-reversed,correct,0.3145462133658131,1,valid_win,11.092043200042099,2,,,,,,,,,,,,,s_083,1,2022_Apr_24_1228,Reversal,3.2.4,59.9590838888053,
2,exp1.png,exp2.png,0,0,0,0,0,2,2,2,,,,,,,,,,,,,,,,,,,,,,,,,False,2,3,True,exp2.png,exp1.png,trial_right_image,-1,exp1.png,1,exp1.png,exp2.png,1,3,reversed,correct,0.9245407859557225,1,valid_win,16.172462000045925,3,,,,,,,,,,,,,s_083,1,2022_Apr_24_1228,Reversal,3.2.4,59.9590838888053,
3,exp3.png,exp4.png,0,0,0,0,0,3,3,3,,,,,,,,,,,,,,,,,,,,,,,,,False,3,4,True,exp4.png,exp3.png,trial_right_image,-1,exp3.png,1,exp3.png,exp4.png,1,1,non-reversed,correct,0.9596187572698824,1,valid_win,20.838610799983144,4,,,,,,,,,,,,,s_083,1,2022_Apr_24_1228,Reversal,3.2.4,59.9590838888053,
4,exp1.png,exp2.png,0,0,0,0,0,4,4,4,,,,,,,,,,,,,,,,,,,,,,,,,False,4,5,True,exp2.png,exp1.png,trial_right_image,-1,exp1.png,1,exp1.png,exp2.png,1,3,reversed,correct,0.70865420149222,1,valid_win,25.570349300280213,5,,,,,,,,,,,,,s_083,1,2022_Apr_24_1228,Reversal,3.2.4,59.9590838888053,
5,exp3.png,exp4.png,0,0,0,0,0,5,5,5,,,,,,,,,,,,,,,,,,,,,,,,,False,5,6,True,exp4.png,exp3.png,trial_right_image,-1,exp3.png,1,exp3.png,exp4.png,1,1,non-reversed,correct,0.21320111353547078,0,invalid_lose,30.08494790038094,5,,,,,,,,,,,,,s_083,1,2022_Apr_24_1228,Reversal,3.2.4,59.9590838888053,
6,exp1.png,exp2.png,0,0,0,0,0,6,6,6,,,,,,,,,,,,,,,,,,,,,,,,,False,6,7,False,exp1.png,exp2.png,trial_left_image,1,exp1.png,1,exp1.png,exp2.png,1,3,reversed,correct,0.4434701808132797,1,valid_win,35.334061400033534,6,,,,,,,,,,,,,s_083,1,2022_Apr_24_1228,Reversal,3.2.4,59.9590838888053,
7,exp3.png,exp4.png,0,0,0,0,0,7,7,7,,,,,,,,,,,,,,,,,,,,,,,,,False,7,8,True,exp4.png,exp3.png,trial_left_image,1,exp4.png,1,exp3.png,exp4.png,0,2,non-reversed,incorrect,0.28462059039926113,0,valid_lose,41.715076400432736,6,,,,,,,,,,,,,s_083,1,2022_Apr_24_1228,Reversal,3.2.4,59.9590838888053,
8,exp1.png,exp2.png,0,0,0,0,0,8,8,8,,,,,,,,,,,,,,,,,,,,,,,,,False,8,9,False,exp1.png,exp2.png,trial_left_image,1,exp1.png,1,exp1.png,exp2.png,1,3,reversed,correct,0.6955240455962661,1,valid_win,46.61337030027062,7,,,,,,,,,,,,,s_083,1,2022_Apr_24_1228,Reversal,3.2.4,59.9590838888053,
9,exp3.png,exp4.png,0,0,0,0,0,9,9,9,,,,,,,,,,,,,,,,,,,,,,,,,False,9,10,False,exp3.png,exp4.png,trial_left_image,1,exp3.png,1,exp3.png,exp4.png,1,1,non-reversed,correct,0.8013853998171773,1,valid_win,52.64413980022073,8,,,,,,,,,,,,,s_083,1,2022_Apr_24_1228,Reversal,3.2.4,59.9590838888053,
10,exp1.png,exp2.png,0,0,0,0,0,10,10,10,,,,,,,,,,,,,,,,,,,,,,,,,False,10,11,False,exp1.png,exp2.png,trial_left_image,1,exp1.png,1,exp1.png,exp2.png,1,3,reversed,correct,0.7861588592071879,1,valid_win,58.20901330001652,9,,,,,,,,,,,,,s_083,1,2022_Apr_24_1228,Reversal,3.2.4,59.9590838888053,
11,exp3.png,exp4.png,0,0,0,0,0,11,11,11,,,,,,,,,,,,,,,,,,,,,,,,,False,11,12,False,exp3.png,exp4.png,trial_left_image,1,exp3.png,1,exp3.png,exp4.png,1,1,non-reversed,correct,0.6807493152327846,1,valid_win,63.274728200398386,10,,,,,,,,,,,,,s_083,1,2022_Apr_24_1228,Reversal,3.2.4,59.9590838888053,
12,exp1.png,exp2.png,0,0,0,0,0,12,12,12,,,,,,,,,,,,,,,,,,,,,,,,,False,12,13,False,exp1.png,exp2.png,trial_left_image,1,exp1.png,1,exp1.png,exp2.png,1,3,reversed,correct,0.7840176007120571,1,valid_win,68.50575440004468,11,,,,,,,,,,,,,s_083,1,2022_Apr_24_1228,Reversal,3.2.4,59.9590838888053,
13,exp3.png,exp4.png,0,0,0,0,0,13,13,13,,,,,,,,,,,,,,,,,,,,,,,,,False,13,14,False,exp3.png,exp4.png,trial_left_image,1,exp3.png,1,exp3.png,exp4.png,1,1,non-reversed,correct,0.12645180687801605,0,invalid_lose,73.67044430039823,11,,,,,,,,,,,,,s_083,1,2022_Apr_24_1228,Reversal,3.2.4,59.9590838888053,
14,exp1.png,exp2.png,0,0,0,0,0,14,14,14,,,,,,,,,,,,,,,,,,,,,,,,,False,14,15,False,exp1.png,exp2.png,trial_left_image,1,exp1.png,1,exp1.png,exp2.png,1,3,reversed,correct,0.2288011428492286,0,invalid_lose,78.41971780033782,11,,,,,,,,,,,,,s_083,1,2022_Apr_24_1228,Reversal,3.2.4,59.9590838888053,
15,exp3.png,exp4.png,0,0,0,0,0,15,15,15,,,,,,,,,,,,,,,,,,,,,,,,,False,15,16,True,exp4.png,exp3.png,trial_left_image,1,exp4.png,1,exp3.png,exp4.png,0,2,non-reversed,incorrect,0.8225521583406601,0,valid_lose,84.30080249998719,11,,,,,,,,,,,,,s_083,1,2022_Apr_24_1228,Reversal,3.2.4,59.9590838888053,
16,exp1.png,exp2.png,0,0,0,0,0,16,16,16,,,,,,,,,,,,,,,,,,,,,,,,,False,16,17,False,exp1.png,exp2.png,trial_left_image,1,exp1.png,1,exp1.png,exp2.png,1,3,reversed,correct,0.055847961944717084,0,invalid_lose,88.78322200011462,11,,,,,,,,,,,,,s_083,1,2022_Apr_24_1228,Reversal,3.2.4,59.9590838888053,
17,exp3.png,exp4.png,0,0,0,0,0,17,17,17,,,,,,,,,,,,,,,,,,,,,,,,,False,17,18,True,exp4.png,exp3.png,trial_right_image,-1,exp3.png,1,exp3.png,exp4.png,1,1,non-reversed,correct,0.07771693162220694,0,invalid_lose,97.81262280000374,11,,,,,,,,,,,,,s_083,1,2022_Apr_24_1228,Reversal,3.2.4,59.9590838888053,
18,exp1.png,exp2.png,0,0,0,0,0,18,18,18,,,,,,,,,,,,,,,,,,,,,,,,,False,18,19,True,exp2.png,exp1.png,trial_right_image,-1,exp1.png,1,exp1.png,exp2.png,1,3,reversed,correct,0.011373026398882935,0,invalid_lose,102.72819310007617,11,,,,,,,,,,,,,s_083,1,2022_Apr_24_1228,Reversal,3.2.4,59.9590838888053,
19,exp3.png,exp4.png,0,0,0,0,0,19,19,19,,,,,,,,,,,,,,,,,,,,,,,,,False,19,20,False,exp3.png,exp4.png,trial_left_image,1,exp3.png,1,exp3.png,exp4.png,1,1,non-reversed,correct,0.8404609557855126,1,valid_win,108.8262059004046,12,,,,,,,,,,,,,s_083,1,2022_Apr_24_1228,Reversal,3.2.4,59.9590838888053,
20,exp1.png,exp2.png,0,0,0,0,0,20,20,20,,,,,,,,,,,,,,,,,,,,,,,,,True,,,,,,,,,,,,,,,,,,,,,,,,,,,,,,,,,s_083,1,2022_Apr_24_1228,Reversal,3.2.4,59.9590838888053,
,,,0,0,0,0,,,,,0,0,0,0,,,,,,,,,,,,,,,,,,,,,,,,,,,,,,,,,,,,,,,,,,70,23,61,36,,,,,,,,,s_083,1,2022_Apr_24_1228,Reversal,3.2.4,59.9590838888053,
0,exp1.png,exp2.png,1,0,1,0,0,0,0,0,,,,,,,,,,,,,,,,,,,,,,,,,False,20,21,True,exp2.png,exp1.png,trial_right_image,-1,exp1.png,1,exp1.png,exp2.png,1,3,reversed,correct,0.6217030262625081,1,valid_win,138.83222770038992,13,,,,,,,,,,,,,s_083,1,2022_Apr_24_1228,Reversal,3.2.4,59.9590838888053,
1,exp3.png,exp4.png,1,0,1,0,0,1,1,1,,,,,,,,,,,,,,,,,,,,,,,,,False,21,22,True,exp4.png,exp3.png,trial_right_image,-1,exp3.png,1,exp3.png,exp4.png,1,1,non-reversed,correct,0.000422599014142655,0,invalid_lose,143.18099800031632,13,,,,,,,,,,,,,s_083,1,2022_Apr_24_1228,Reversal,3.2.4,59.9590838888053,
2,exp1.png,exp2.png,1,0,1,0,0,2,2,2,,,,,,,,,,,,,,,,,,,,,,,,,False,22,23,False,exp1.png,exp2.png,trial_left_image,1,exp1.png,1,exp1.png,exp2.png,1,3,reversed,correct,0.14810139965280433,0,invalid_lose,148.17846740037203,13,,,,,,,,,,,,,s_083,1,2022_Apr_24_1228,Reversal,3.2.4,59.9590838888053,
3,exp3.png,exp4.png,1,0,1,0,0,3,3,3,,,,,,,,,,,,,,,,,,,,,,,,,False,23,24,False,exp3.png,exp4.png,trial_right_image,-1,exp4.png,1,exp3.png,exp4.png,0,2,non-reversed,incorrect,0.7286275116059937,0,valid_lose,153.07765000034124,13,,,,,,,,,,,,,s_083,1,2022_Apr_24_1228,Reversal,3.2.4,59.9590838888053,
4,exp1.png,exp2.png,1,0,1,0,0,4,4,4,,,,,,,,,,,,,,,,,,,,,,,,,False,24,25,False,exp1.png,exp2.png,trial_left_image,1,exp1.png,1,exp1.png,exp2.png,1,3,reversed,correct,0.6132816278082491,1,valid_win,157.9426180003211,14,,,,,,,,,,,,,s_083,1,2022_Apr_24_1228,Reversal,3.2.4,59.9590838888053,
5,exp3.png,exp4.png,1,0,1,0,0,5,5,5,,,,,,,,,,,,,,,,,,,,,,,,,False,25,26,True,exp4.png,exp3.png,trial_left_image,1,exp4.png,1,exp3.png,exp4.png,0,2,non-reversed,incorrect,0.5226078234745735,0,valid_lose,164.64084920007735,14,,,,,,,,,,,,,s_083,1,2022_Apr_24_1228,Reversal,3.2.4,59.9590838888053,
6,exp1.png,exp2.png,1,0,1,0,0,6,6,6,,,,,,,,,,,,,,,,,,,,,,,,,False,26,27,True,exp2.png,exp1.png,trial_right_image,-1,exp1.png,1,exp1.png,exp2.png,1,3,reversed,correct,0.2151420946633562,0,invalid_lose,169.2387960003689,14,,,,,,,,,,,,,s_083,1,2022_Apr_24_1228,Reversal,3.2.4,59.9590838888053,
7,exp3.png,exp4.png,1,0,1,0,0,7,7,7,,,,,,,,,,,,,,,,,,,,,,,,,False,27,28,True,exp4.png,exp3.png,trial_right_image,-1,exp3.png,1,exp3.png,exp4.png,1,1,non-reversed,correct,0.5958795919080042,1,valid_win,174.6532574002631,15,,,,,,,,,,,,,s_083,1,2022_Apr_24_1228,Reversal,3.2.4,59.9590838888053,
8,exp1.png,exp2.png,1,0,1,0,0,8,8,8,,,,,,,,,,,,,,,,,,,,,,,,,False,28,29,False,exp1.png,exp2.png,trial_left_image,1,exp1.png,1,exp1.png,exp2.png,1,3,reversed,correct,0.6786639401267391,1,valid_win,178.4859451004304,16,,,,,,,,,,,,,s_083,1,2022_Apr_24_1228,Reversal,3.2.4,59.9590838888053,
9,exp3.png,exp4.png,1,0,1,0,0,9,9,9,,,,,,,,,,,,,,,,,,,,,,,,,False,29,30,False,exp3.png,exp4.png,trial_right_image,-1,exp4.png,1,exp3.png,exp4.png,0,2,non-reversed,incorrect,0.4419755377075526,0,valid_lose,182.30061220005155,16,,,,,,,,,,,,,s_083,1,2022_Apr_24_1228,Reversal,3.2.4,59.9590838888053,
10,exp1.png,exp2.png,1,0,1,0,0,10,10,10,,,,,,,,,,,,,,,,,,,,,,,,,False,30,31,True,exp2.png,exp1.png,trial_left_image,1,exp2.png,1,exp1.png,exp2.png,0,4,reversed,incorrect,0.28429603704921735,0,valid_lose,186.96583410026506,16,,,,,,,,,,,,,s_083,1,2022_Apr_24_1228,Reversal,3.2.4,59.9590838888053,
11,exp3.png,exp4.png,1,0,1,0,0,11,11,11,,,,,,,,,,,,,,,,,,,,,,,,,False,31,32,False,exp3.png,exp4.png,trial_right_image,-1,exp4.png,1,exp3.png,exp4.png,0,2,non-reversed,incorrect,0.6513009126372464,0,valid_lose,192.36328040016815,16,,,,,,,,,,,,,s_083,1,2022_Apr_24_1228,Reversal,3.2.4,59.9590838888053,
12,exp1.png,exp2.png,1,0,1,0,0,12,12,12,,,,,,,,,,,,,,,,,,,,,,,,,False,32,33,False,exp1.png,exp2.png,trial_left_image,1,exp1.png,1,exp1.png,exp2.png,1,3,reversed,correct,0.22532780937619523,0,invalid_lose,196.48003510013223,16,,,,,,,,,,,,,s_083,1,2022_Apr_24_1228,Reversal,3.2.4,59.9590838888053,
13,exp3.png,exp4.png,1,0,1,0,0,13,13,13,,,,,,,,,,,,,,,,,,,,,,,,,False,33,34,True,exp4.png,exp3.png,trial_right_image,-1,exp3.png,1,exp3.png,exp4.png,1,1,non-reversed,correct,0.4372990554516277,1,valid_win,200.77889710012823,17,,,,,,,,,,,,,s_083,1,2022_Apr_24_1228,Reversal,3.2.4,59.9590838888053,
14,exp1.png,exp2.png,1,0,1,0,0,14,14,14,,,,,,,,,,,,,,,,,,,,,,,,,False,34,35,True,exp2.png,exp1.png,trial_right_image,-1,exp1.png,1,exp1.png,exp2.png,1,3,reversed,correct,0.9130269563660892,1,valid_win,204.85947250016034,18,,,,,,,,,,,,,s_083,1,2022_Apr_24_1228,Reversal,3.2.4,59.9590838888053,
15,exp3.png,exp4.png,1,0,1,0,0,15,15,15,,,,,,,,,,,,,,,,,,,,,,,,,False,35,36,False,exp3.png,exp4.png,trial_right_image,-1,exp4.png,1,exp3.png,exp4.png,0,2,non-reversed,incorrect,0.9196210770986268,0,valid_lose,208.6586678000167,18,,,,,,,,,,,,,s_083,1,2022_Apr_24_1228,Reversal,3.2.4,59.9590838888053,
16,exp1.png,exp2.png,1,0,1,0,0,16,16,16,,,,,,,,,,,,,,,,,,,,,,,,,False,36,37,False,exp1.png,exp2.png,trial_left_image,1,exp1.png,1,exp1.png,exp2.png,1,3,reversed,correct,0.21654749880660173,0,invalid_lose,213.7232517004013,18,,,,,,,,,,,,,s_083,1,2022_Apr_24_1228,Reversal,3.2.4,59.9590838888053,
17,exp3.png,exp4.png,1,0,1,0,0,17,17,17,,,,,,,,,,,,,,,,,,,,,,,,,False,37,38,True,exp4.png,exp3.png,trial_right_image,-1,exp3.png,1,exp3.png,exp4.png,1,1,non-reversed,correct,0.660409912060253,1,valid_win,218.5881957001984,19,,,,,,,,,,,,,s_083,1,2022_Apr_24_1228,Reversal,3.2.4,59.9590838888053,
18,exp1.png,exp2.png,1,0,1,0,0,18,18,18,,,,,,,,,,,,,,,,,,,,,,,,,False,38,39,True,exp2.png,exp1.png,trial_right_image,-1,exp1.png,1,exp1.png,exp2.png,1,3,reversed,correct,0.3295076129033415,1,valid_win,222.55394170014188,20,,,,,,,,,,,,,s_083,1,2022_Apr_24_1228,Reversal,3.2.4,59.9590838888053,
19,exp3.png,exp4.png,1,0,1,0,0,19,19,19,,,,,,,,,,,,,,,,,,,,,,,,,False,39,40,False,exp3.png,exp4.png,trial_left_image,1,exp3.png,1,exp3.png,exp4.png,1,1,non-reversed,correct,0.9952525591776199,1,valid_win,226.61953950021416,21,,,,,,,,,,,,,s_083,1,2022_Apr_24_1228,Reversal,3.2.4,59.9590838888053,
20,exp1.png,exp2.png,1,0,1,0,0,20,20,20,,,,,,,,,,,,,,,,,,,,,,,,,True,,,,,,,,,,,,,,,,,,,,,,,,,,,,,,,,,s_083,1,2022_Apr_24_1228,Reversal,3.2.4,59.9590838888053,
,,,1,0,1,0,,,,,0,0,0,0,,,,,,,,,,,,,,,,,,,,,,,,,,,,,,,,,,,,,,,,,,50.0,50.0,62,37,,,,,,,,,s_083,1,2022_Apr_24_1228,Reversal,3.2.4,59.9590838888053,
0,exp1.png,exp2.png,2,0,2,0,0,0,0,0,,,,,,,,,,,,,,,,,,,,,,,,,False,40,41,True,exp2.png,exp1.png,trial_right_image,-1,exp1.png,1,exp1.png,exp2.png,1,3,reversed,correct,0.668018262325545,1,valid_win,243.31416860036552,22,,,,,,,,,,,,,s_083,1,2022_Apr_24_1228,Reversal,3.2.4,59.9590838888053,
1,exp3.png,exp4.png,2,0,2,0,0,1,1,1,,,,,,,,,,,,,,,,,,,,,,,,,False,41,42,False,exp3.png,exp4.png,trial_left_image,1,exp3.png,1,exp3.png,exp4.png,1,1,non-reversed,correct,0.10687531264145833,0,invalid_lose,247.76220580004156,22,,,,,,,,,,,,,s_083,1,2022_Apr_24_1228,Reversal,3.2.4,59.9590838888053,
2,exp1.png,exp2.png,2,0,2,0,0,2,2,2,,,,,,,,,,,,,,,,,,,,,,,,,False,42,43,True,exp2.png,exp1.png,trial_right_image,-1,exp1.png,1,exp1.png,exp2.png,1,3,reversed,correct,0.061560334140901785,0,invalid_lose,252.17801000038162,22,,,,,,,,,,,,,s_083,1,2022_Apr_24_1228,Reversal,3.2.4,59.9590838888053,
3,exp3.png,exp4.png,2,0,2,0,0,3,3,3,,,,,,,,,,,,,,,,,,,,,,,,,False,43,44,False,exp3.png,exp4.png,trial_right_image,-1,exp4.png,1,exp3.png,exp4.png,0,2,non-reversed,incorrect,0.6210870660645301,0,valid_lose,257.0920815002173,22,,,,,,,,,,,,,s_083,1,2022_Apr_24_1228,Reversal,3.2.4,59.9590838888053,
4,exp1.png,exp2.png,2,0,2,0,0,4,4,4,,,,,,,,,,,,,,,,,,,,,,,,,False,44,45,True,exp2.png,exp1.png,trial_right_image,-1,exp1.png,1,exp1.png,exp2.png,1,3,reversed,correct,0.00015110219702074712,0,invalid_lose,261.52413030015305,22,,,,,,,,,,,,,s_083,1,2022_Apr_24_1228,Reversal,3.2.4,59.9590838888053,
5,exp3.png,exp4.png,2,0,2,0,0,5,5,5,,,,,,,,,,,,,,,,,,,,,,,,,False,45,46,False,exp3.png,exp4.png,trial_right_image,-1,exp4.png,1,exp3.png,exp4.png,0,2,non-reversed,incorrect,0.7084352253920893,0,valid_lose,266.13933890033513,22,,,,,,,,,,,,,s_083,1,2022_Apr_24_1228,Reversal,3.2.4,59.9590838888053,
6,exp1.png,exp2.png,2,0,2,0,0,6,6,6,,,,,,,,,,,,,,,,,,,,,,,,,False,46,47,True,exp2.png,exp1.png,trial_right_image,-1,exp1.png,1,exp1.png,exp2.png,1,3,reversed,correct,0.27275700064160524,1,valid_win,271.4547865004279,23,,,,,,,,,,,,,s_083,1,2022_Apr_24_1228,Reversal,3.2.4,59.9590838888053,
7,exp3.png,exp4.png,2,0,2,0,0,7,7,7,,,,,,,,,,,,,,,,,,,,,,,,,False,47,48,False,exp3.png,exp4.png,trial_left_image,1,exp3.png,1,exp3.png,exp4.png,1,1,non-reversed,correct,0.25020653160922,1,valid_win,277.56868140026927,24,,,,,,,,,,,,,s_083,1,2022_Apr_24_1228,Reversal,3.2.4,59.9590838888053,
8,exp1.png,exp2.png,2,0,2,0,0,8,8,8,,,,,,,,,,,,,,,,,,,,,,,,,False,48,49,True,exp2.png,exp1.png,trial_left_image,1,exp2.png,1,exp1.png,exp2.png,0,4,reversed,incorrect,0.5302624691847139,0,valid_lose,282.63246790040284,24,,,,,,,,,,,,,s_083,1,2022_Apr_24_1228,Reversal,3.2.4,59.9590838888053,
9,exp3.png,exp4.png,2,0,2,0,0,9,9,9,,,,,,,,,,,,,,,,,,,,,,,,,False,49,50,False,exp3.png,exp4.png,trial_left_image,1,exp3.png,1,exp3.png,exp4.png,1,1,non-reversed,correct,0.6207692082441675,1,valid_win,286.9809036999941,25,,,,,,,,,,,,,s_083,1,2022_Apr_24_1228,Reversal,3.2.4,59.9590838888053,
10,exp1.png,exp2.png,2,0,2,0,0,10,10,10,,,,,,,,,,,,,,,,,,,,,,,,,False,50,51,False,exp1.png,exp2.png,trial_left_image,1,exp1.png,1,exp1.png,exp2.png,1,3,reversed,correct,0.37120618766342217,1,valid_win,291.36411159997806,26,,,,,,,,,,,,,s_083,1,2022_Apr_24_1228,Reversal,3.2.4,59.9590838888053,
11,exp3.png,exp4.png,2,0,2,0,0,11,11,11,,,,,,,,,,,,,,,,,,,,,,,,,False,51,52,False,exp3.png,exp4.png,trial_right_image,-1,exp4.png,1,exp3.png,exp4.png,0,2,non-reversed,incorrect,0.8324159355311255,0,valid_lose,295.580140999984,26,,,,,,,,,,,,,s_083,1,2022_Apr_24_1228,Reversal,3.2.4,59.9590838888053,
12,exp1.png,exp2.png,2,0,2,0,0,12,12,12,,,,,,,,,,,,,,,,,,,,,,,,,False,52,53,True,exp2.png,exp1.png,trial_right_image,-1,exp1.png,1,exp1.png,exp2.png,1,3,reversed,correct,0.9388658110571441,1,valid_win,299.5446878001094,27,,,,,,,,,,,,,s_083,1,2022_Apr_24_1228,Reversal,3.2.4,59.9590838888053,
13,exp3.png,exp4.png,2,0,2,0,0,13,13,13,,,,,,,,,,,,,,,,,,,,,,,,,False,53,54,True,exp4.png,exp3.png,trial_left_image,1,exp4.png,1,exp3.png,exp4.png,0,2,non-reversed,incorrect,0.7335844640793573,0,valid_lose,303.74199490016326,27,,,,,,,,,,,,,s_083,1,2022_Apr_24_1228,Reversal,3.2.4,59.9590838888053,
14,exp1.png,exp2.png,2,0,2,0,0,14,14,14,,,,,,,,,,,,,,,,,,,,,,,,,False,54,55,True,exp2.png,exp1.png,trial_right_image,-1,exp1.png,1,exp1.png,exp2.png,1,3,reversed,correct,0.3430312965708622,1,valid_win,307.90827420027927,28,,,,,,,,,,,,,s_083,1,2022_Apr_24_1228,Reversal,3.2.4,59.9590838888053,
15,exp3.png,exp4.png,2,0,2,0,0,15,15,15,,,,,,,,,,,,,,,,,,,,,,,,,False,55,56,False,exp3.png,exp4.png,trial_right_image,-1,exp4.png,1,exp3.png,exp4.png,0,2,non-reversed,incorrect,0.7610138419029825,0,valid_lose,314.20605320017785,28,,,,,,,,,,,,,s_083,1,2022_Apr_24_1228,Reversal,3.2.4,59.9590838888053,
16,exp1.png,exp2.png,2,0,2,0,0,16,16,16,,,,,,,,,,,,,,,,,,,,,,,,,False,56,57,True,exp2.png,exp1.png,trial_right_image,-1,exp1.png,1,exp1.png,exp2.png,1,3,reversed,correct,0.4903520743596721,1,valid_win,318.38833700027317,29,,,,,,,,,,,,,s_083,1,2022_Apr_24_1228,Reversal,3.2.4,59.9590838888053,
17,exp3.png,exp4.png,2,0,2,0,0,17,17,17,,,,,,,,,,,,,,,,,,,,,,,,,False,57,58,False,exp3.png,exp4.png,trial_left_image,1,exp3.png,1,exp3.png,exp4.png,1,1,non-reversed,correct,0.7585317658388064,1,valid_win,322.40310050034896,30,,,,,,,,,,,,,s_083,1,2022_Apr_24_1228,Reversal,3.2.4,59.9590838888053,
18,exp1.png,exp2.png,2,0,2,0,0,18,18,18,,,,,,,,,,,,,,,,,,,,,,,,,False,58,59,True,exp2.png,exp1.png,trial_right_image,-1,exp1.png,1,exp1.png,exp2.png,1,3,reversed,correct,0.4246979657985007,1,valid_win,327.6506742001511,31,,,,,,,,,,,,,s_083,1,2022_Apr_24_1228,Reversal,3.2.4,59.9590838888053,
19,exp3.png,exp4.png,2,0,2,0,0,19,19,19,,,,,,,,,,,,,,,,,,,,,,,,,False,59,60,False,exp3.png,exp4.png,trial_left_image,1,exp3.png,1,exp3.png,exp4.png,1,1,non-reversed,correct,0.6268079315947308,1,valid_win,331.7503589000553,32,,,,,,,,,,,,,s_083,1,2022_Apr_24_1228,Reversal,3.2.4,59.9590838888053,
20,exp1.png,exp2.png,2,0,2,0,0,20,20,20,,,,,,,,,,,,,,,,,,,,,,,,,True,,,,,,,,,,,,,,,,,,,,,,,,,,,,,,,,,s_083,1,2022_Apr_24_1228,Reversal,3.2.4,59.9590838888053,
,,,2,0,2,0,,,,,0,0,0,0,,,,,,,,,,,,,,,,,,,,,,,,,,,,,,,,,,,,,,,,,,68,37,100,0,,,,,,,,,s_083,1,2022_Apr_24_1228,Reversal,3.2.4,59.9590838888053,
0,exp1.png,exp2.png,3,0,3,0,0,0,0,0,,,,,,,,,,,,,,,,,,,,,,,,,False,60,61,False,exp1.png,exp2.png,trial_left_image,1,exp1.png,1,exp1.png,exp2.png,1,3,reversed,correct,0.0016572171925539614,0,invalid_lose,349.41174580017105,32,,,,,,,,,,,,,s_083,1,2022_Apr_24_1228,Reversal,3.2.4,59.9590838888053,
1,exp3.png,exp4.png,3,0,3,0,0,1,1,1,,,,,,,,,,,,,,,,,,,,,,,,,False,61,62,False,exp3.png,exp4.png,trial_left_image,1,exp3.png,1,exp3.png,exp4.png,1,1,non-reversed,correct,0.7446368723285426,1,valid_win,354.10916750039905,33,,,,,,,,,,,,,s_083,1,2022_Apr_24_1228,Reversal,3.2.4,59.9590838888053,
2,exp1.png,exp2.png,3,0,3,0,0,2,2,2,,,,,,,,,,,,,,,,,,,,,,,,,False,62,63,True,exp2.png,exp1.png,trial_right_image,-1,exp1.png,1,exp1.png,exp2.png,1,3,reversed,correct,0.49190299361375367,1,valid_win,361.3062852001749,34,,,,,,,,,,,,,s_083,1,2022_Apr_24_1228,Reversal,3.2.4,59.9590838888053,
3,exp3.png,exp4.png,3,0,3,0,0,3,3,3,,,,,,,,,,,,,,,,,,,,,,,,,False,63,64,False,exp3.png,exp4.png,trial_left_image,1,exp3.png,1,exp3.png,exp4.png,1,1,non-reversed,correct,0.4571612523163969,1,valid_win,366.85466630011797,35,,,,,,,,,,,,,s_083,1,2022_Apr_24_1228,Reversal,3.2.4,59.9590838888053,
4,exp1.png,exp2.png,3,0,3,0,0,4,4,4,,,,,,,,,,,,,,,,,,,,,,,,,False,64,65,False,exp1.png,exp2.png,trial_right_image,-1,exp2.png,1,exp1.png,exp2.png,0,4,reversed,incorrect,0.9015518321603868,0,valid_lose,370.9536890001036,35,,,,,,,,,,,,,s_083,1,2022_Apr_24_1228,Reversal,3.2.4,59.9590838888053,
5,exp3.png,exp4.png,3,0,3,0,0,5,5,5,,,,,,,,,,,,,,,,,,,,,,,,,False,65,66,False,exp3.png,exp4.png,trial_left_image,1,exp3.png,1,exp3.png,exp4.png,1,1,non-reversed,correct,0.8545195559238495,1,valid_win,374.88652730034664,36,,,,,,,,,,,,,s_083,1,2022_Apr_24_1228,Reversal,3.2.4,59.9590838888053,
6,exp1.png,exp2.png,3,0,3,0,0,6,6,6,,,,,,,,,,,,,,,,,,,,,,,,,False,66,67,True,exp2.png,exp1.png,trial_right_image,-1,exp1.png,1,exp1.png,exp2.png,1,3,reversed,correct,0.5691792430642704,1,valid_win,379.0170137002133,37,,,,,,,,,,,,,s_083,1,2022_Apr_24_1228,Reversal,3.2.4,59.9590838888053,
7,exp3.png,exp4.png,3,0,3,0,0,7,7,7,,,,,,,,,,,,,,,,,,,,,,,,,False,67,68,True,exp4.png,exp3.png,trial_right_image,-1,exp3.png,1,exp3.png,exp4.png,1,1,non-reversed,correct,0.11887849400373784,0,invalid_lose,383.2496425001882,37,,,,,,,,,,,,,s_083,1,2022_Apr_24_1228,Reversal,3.2.4,59.9590838888053,
8,exp1.png,exp2.png,3,0,3,0,0,8,8,8,,,,,,,,,,,,,,,,,,,,,,,,,False,68,69,False,exp1.png,exp2.png,trial_left_image,1,exp1.png,1,exp1.png,exp2.png,1,3,reversed,correct,0.38341576792902565,1,valid_win,387.6473577003926,38,,,,,,,,,,,,,s_083,1,2022_Apr_24_1228,Reversal,3.2.4,59.9590838888053,
9,exp3.png,exp4.png,3,0,3,0,0,9,9,9,,,,,,,,,,,,,,,,,,,,,,,,,False,69,70,True,exp4.png,exp3.png,trial_left_image,1,exp4.png,1,exp3.png,exp4.png,0,2,non-reversed,incorrect,0.5805586477974248,0,valid_lose,392.079202900175,38,,,,,,,,,,,,,s_083,1,2022_Apr_24_1228,Reversal,3.2.4,59.9590838888053,
10,exp1.png,exp2.png,3,0,3,0,0,10,10,10,,,,,,,,,,,,,,,,,,,,,,,,,False,70,71,False,exp1.png,exp2.png,trial_left_image,1,exp1.png,1,exp1.png,exp2.png,1,3,reversed,correct,0.055055514517192594,0,invalid_lose,396.3444810002111,38,,,,,,,,,,,,,s_083,1,2022_Apr_24_1228,Reversal,3.2.4,59.9590838888053,
11,exp3.png,exp4.png,3,0,3,0,0,11,11,11,,,,,,,,,,,,,,,,,,,,,,,,,False,71,72,True,exp4.png,exp3.png,trial_right_image,-1,exp3.png,1,exp3.png,exp4.png,1,1,non-reversed,correct,0.32825667715378115,1,valid_win,400.5280372002162,39,,,,,,,,,,,,,s_083,1,2022_Apr_24_1228,Reversal,3.2.4,59.9590838888053,
12,exp1.png,exp2.png,3,0,3,0,0,12,12,12,,,,,,,,,,,,,,,,,,,,,,,,,False,72,73,True,exp2.png,exp1.png,trial_right_image,-1,exp1.png,1,exp1.png,exp2.png,1,3,reversed,correct,0.8882028148460253,1,valid_win,405.65789680043235,40,,,,,,,,,,,,,s_083,1,2022_Apr_24_1228,Reversal,3.2.4,59.9590838888053,
13,exp3.png,exp4.png,3,0,3,0,0,13,13,13,,,,,,,,,,,,,,,,,,,,,,,,,False,73,74,True,exp4.png,exp3.png,trial_right_image,-1,exp3.png,1,exp3.png,exp4.png,1,1,non-reversed,correct,0.9285991661014265,1,valid_win,409.7074414002709,41,,,,,,,,,,,,,s_083,1,2022_Apr_24_1228,Reversal,3.2.4,59.9590838888053,
14,exp1.png,exp2.png,3,0,3,0,0,14,14,14,,,,,,,,,,,,,,,,,,,,,,,,,False,74,75,False,exp1.png,exp2.png,trial_left_image,1,exp1.png,1,exp1.png,exp2.png,1,3,reversed,correct,0.23064563154823658,0,invalid_lose,414.0223317001946,41,,,,,,,,,,,,,s_083,1,2022_Apr_24_1228,Reversal,3.2.4,59.9590838888053,
15,exp3.png,exp4.png,3,0,3,0,0,15,15,15,,,,,,,,,,,,,,,,,,,,,,,,,False,75,76,True,exp4.png,exp3.png,trial_right_image,-1,exp3.png,1,exp3.png,exp4.png,1,1,non-reversed,correct,0.6655333834297343,1,valid_win,418.2874895003624,42,,,,,,,,,,,,,s_083,1,2022_Apr_24_1228,Reversal,3.2.4,59.9590838888053,
16,exp1.png,exp2.png,3,0,3,0,0,16,16,16,,,,,,,,,,,,,,,,,,,,,,,,,False,76,77,False,exp1.png,exp2.png,trial_right_image,-1,exp2.png,1,exp1.png,exp2.png,0,4,reversed,incorrect,0.29980368059420104,0,valid_lose,422.5870215999894,42,,,,,,,,,,,,,s_083,1,2022_Apr_24_1228,Reversal,3.2.4,59.9590838888053,
17,exp3.png,exp4.png,3,0,3,0,0,17,17,17,,,,,,,,,,,,,,,,,,,,,,,,,False,77,78,False,exp3.png,exp4.png,trial_right_image,-1,exp4.png,1,exp3.png,exp4.png,0,2,non-reversed,incorrect,0.28601118157252015,0,valid_lose,426.80182950012386,42,,,,,,,,,,,,,s_083,1,2022_Apr_24_1228,Reversal,3.2.4,59.9590838888053,
18,exp1.png,exp2.png,3,0,3,0,0,18,18,18,,,,,,,,,,,,,,,,,,,,,,,,,False,78,79,True,exp2.png,exp1.png,trial_right_image,-1,exp1.png,1,exp1.png,exp2.png,1,3,reversed,correct,0.5533315879614082,1,valid_win,430.83351470017806,43,,,,,,,,,,,,,s_083,1,2022_Apr_24_1228,Reversal,3.2.4,59.9590838888053,
19,exp3.png,exp4.png,3,0,3,0,0,19,19,19,,,,,,,,,,,,,,,,,,,,,,,,,False,79,80,True,exp4.png,exp3.png,trial_right_image,-1,exp3.png,1,exp3.png,exp4.png,1,1,non-reversed,correct,0.417814098301182,1,valid_win,435.0816838000901,44,,,,,,,,,,,,,s_083,1,2022_Apr_24_1228,Reversal,3.2.4,59.9590838888053,
20,exp1.png,exp2.png,3,0,3,0,0,20,20,20,,,,,,,,,,,,,,,,,,,,,,,,,True,,,,,,,,,,,,,,,,,,,,,,,,,,,,,,,,,s_083,1,2022_Apr_24_1228,Reversal,3.2.4,59.9590838888053,
,,,3,0,3,0,,,,,0,0,0,0,,,,,,,,,,,,,,,,,,,,,,,,,,,,,,,,,,,,,,,,,,81,9,77,15,,,,,,,,,s_083,1,2022_Apr_24_1228,Reversal,3.2.4,59.9590838888053,
0,exp1.png,exp2.png,,,,,,,,,,,,,,,,,0,0,0,0,0,0,0,0,,,,,,,,,False,0,81,False,exp1.png,exp2.png,trial_left_image,1,exp1.png,1,exp2.png,exp1.png,1,3,reversed,incorrect,0.3216996244172686,0,valid_lose,455.224463800434,44,,,,,452.55190200032666,,,,,,,,s_083,1,2022_Apr_24_1228,Reversal,3.2.4,59.9590838888053,
1,exp3.png,exp4.png,,,,,,,,,,,,,,,,,0,0,0,0,0,1,1,1,,,,,,,,,False,1,82,False,exp3.png,exp4.png,trial_right_image,-1,exp4.png,1,exp3.png,exp4.png,0,2,non-reversed,incorrect,0.3658569795190152,0,valid_lose,460.24002060014755,44,,,,,,,,,,,,,s_083,1,2022_Apr_24_1228,Reversal,3.2.4,59.9590838888053,
2,exp1.png,exp2.png,,,,,,,,,,,,,,,,,0,0,0,0,0,2,2,2,,,,,,,,,False,2,83,True,exp2.png,exp1.png,trial_right_image,-1,exp1.png,1,exp2.png,exp1.png,1,3,reversed,incorrect,0.47434551217649223,0,valid_lose,464.5393138001673,44,,,,,,,,,,,,,s_083,1,2022_Apr_24_1228,Reversal,3.2.4,59.9590838888053,
3,exp3.png,exp4.png,,,,,,,,,,,,,,,,,0,0,0,0,0,3,3,3,,,,,,,,,False,3,84,True,exp4.png,exp3.png,trial_right_image,-1,exp3.png,1,exp3.png,exp4.png,1,1,non-reversed,correct,0.44551800759800453,1,valid_win,468.7376508000307,45,,,,,,,,,,,,,s_083,1,2022_Apr_24_1228,Reversal,3.2.4,59.9590838888053,
4,exp1.png,exp2.png,,,,,,,,,,,,,,,,,0,0,0,0,0,4,4,4,,,,,,,,,False,4,85,False,exp1.png,exp2.png,trial_left_image,1,exp1.png,1,exp2.png,exp1.png,1,3,reversed,incorrect,0.31980082006088495,0,valid_lose,473.2354439999908,45,,,,,,,,,,,,,s_083,1,2022_Apr_24_1228,Reversal,3.2.4,59.9590838888053,
5,exp3.png,exp4.png,,,,,,,,,,,,,,,,,0,0,0,0,0,5,5,5,,,,,,,,,False,5,86,True,exp4.png,exp3.png,trial_right_image,-1,exp3.png,1,exp3.png,exp4.png,1,1,non-reversed,correct,0.8961120717711695,1,valid_win,478.0512284003198,46,,,,,,,,,,,,,s_083,1,2022_Apr_24_1228,Reversal,3.2.4,59.9590838888053,
6,exp1.png,exp2.png,,,,,,,,,,,,,,,,,0,0,0,0,0,6,6,6,,,,,,,,,False,6,87,True,exp2.png,exp1.png,trial_right_image,-1,exp1.png,1,exp2.png,exp1.png,1,3,reversed,incorrect,0.7466537070063898,0,valid_lose,482.1499902000651,46,,,,,,,,,,,,,s_083,1,2022_Apr_24_1228,Reversal,3.2.4,59.9590838888053,
7,exp3.png,exp4.png,,,,,,,,,,,,,,,,,0,0,0,0,0,7,7,7,,,,,,,,,False,7,88,False,exp3.png,exp4.png,trial_left_image,1,exp3.png,1,exp3.png,exp4.png,1,1,non-reversed,correct,0.40690025746735425,1,valid_win,487.0643246001564,47,,,,,,,,,,,,,s_083,1,2022_Apr_24_1228,Reversal,3.2.4,59.9590838888053,
8,exp1.png,exp2.png,,,,,,,,,,,,,,,,,0,0,0,0,0,8,8,8,,,,,,,,,False,8,89,True,exp2.png,exp1.png,trial_right_image,-1,exp1.png,1,exp2.png,exp1.png,1,3,reversed,incorrect,0.29028260666789807,0,valid_lose,491.0796397002414,47,,,,,,,,,,,,,s_083,1,2022_Apr_24_1228,Reversal,3.2.4,59.9590838888053,
9,exp3.png,exp4.png,,,,,,,,,,,,,,,,,0,0,0,0,0,9,9,9,,,,,,,,,False,9,90,True,exp4.png,exp3.png,trial_right_image,-1,exp3.png,1,exp3.png,exp4.png,1,1,non-reversed,correct,0.9436358897667634,1,valid_win,495.49555110000074,48,,,,,,,,,,,,,s_083,1,2022_Apr_24_1228,Reversal,3.2.4,59.9590838888053,
10,exp1.png,exp2.png,,,,,,,,,,,,,,,,,0,0,0,0,0,10,10,10,,,,,,,,,False,10,91,True,exp2.png,exp1.png,trial_left_image,1,exp2.png,1,exp2.png,exp1.png,0,4,reversed,correct,0.3803089560422579,1,valid_win,499.6767808003351,49,,,,,,,,,,,,,s_083,1,2022_Apr_24_1228,Reversal,3.2.4,59.9590838888053,
11,exp3.png,exp4.png,,,,,,,,,,,,,,,,,0,0,0,0,0,11,11,11,,,,,,,,,False,11,92,True,exp4.png,exp3.png,trial_right_image,-1,exp3.png,1,exp3.png,exp4.png,1,1,non-reversed,correct,0.18766748986791193,0,invalid_lose,504.4248346001841,49,,,,,,,,,,,,,s_083,1,2022_Apr_24_1228,Reversal,3.2.4,59.9590838888053,
12,exp1.png,exp2.png,,,,,,,,,,,,,,,,,0,0,0,0,0,12,12,12,,,,,,,,,False,12,93,False,exp1.png,exp2.png,trial_right_image,-1,exp2.png,1,exp2.png,exp1.png,0,4,reversed,correct,0.9388179658037801,1,valid_win,508.79033580003306,50,,,,,,,,,,,,,s_083,1,2022_Apr_24_1228,Reversal,3.2.4,59.9590838888053,
13,exp3.png,exp4.png,,,,,,,,,,,,,,,,,0,0,0,0,0,13,13,13,,,,,,,,,False,13,94,False,exp3.png,exp4.png,trial_right_image,-1,exp4.png,1,exp3.png,exp4.png,0,2,non-reversed,incorrect,0.19942675011706157,1,invalid_win,512.8056640001014,51,,,,,,,,,,,,,s_083,1,2022_Apr_24_1228,Reversal,3.2.4,59.9590838888053,
14,exp1.png,exp2.png,,,,,,,,,,,,,,,,,0,0,0,0,0,14,14,14,,,,,,,,,False,14,95,False,exp1.png,exp2.png,trial_right_image,-1,exp2.png,1,exp2.png,exp1.png,0,4,reversed,correct,0.8973925255652156,1,valid_win,517.2875342001207,52,,,,,,,,,,,,,s_083,1,2022_Apr_24_1228,Reversal,3.2.4,59.9590838888053,
15,exp3.png,exp4.png,,,,,,,,,,,,,,,,,0,0,0,0,0,15,15,15,,,,,,,,,False,15,96,False,exp3.png,exp4.png,trial_right_image,-1,exp4.png,1,exp3.png,exp4.png,0,2,non-reversed,incorrect,0.5442848127133639,0,valid_lose,522.469241600018,52,,,,,,,,,,,,,s_083,1,2022_Apr_24_1228,Reversal,3.2.4,59.9590838888053,
16,exp1.png,exp2.png,,,,,,,,,,,,,,,,,0,0,0,0,0,16,16,16,,,,,,,,,False,16,97,False,exp1.png,exp2.png,trial_right_image,-1,exp2.png,1,exp2.png,exp1.png,0,4,reversed,correct,0.35837355974184293,1,valid_win,527.0179070001468,53,,,,,,,,,,,,,s_083,1,2022_Apr_24_1228,Reversal,3.2.4,59.9590838888053,
17,exp3.png,exp4.png,,,,,,,,,,,,,,,,,0,0,0,0,0,17,17,17,,,,,,,,,False,17,98,True,exp4.png,exp3.png,trial_right_image,-1,exp3.png,1,exp3.png,exp4.png,1,1,non-reversed,correct,0.17025516766453574,0,invalid_lose,531.4165306002833,53,,,,,,,,,,,,,s_083,1,2022_Apr_24_1228,Reversal,3.2.4,59.9590838888053,
18,exp1.png,exp2.png,,,,,,,,,,,,,,,,,0,0,0,0,0,18,18,18,,,,,,,,,False,18,99,False,exp1.png,exp2.png,trial_right_image,-1,exp2.png,1,exp2.png,exp1.png,0,4,reversed,correct,0.4553341412572277,1,valid_win,536.3313127001747,54,,,,,,,,,,,,,s_083,1,2022_Apr_24_1228,Reversal,3.2.4,59.9590838888053,
19,exp3.png,exp4.png,,,,,,,,,,,,,,,,,0,0,0,0,0,19,19,19,,,,,,,,,False,19,100,True,exp4.png,exp3.png,trial_left_image,1,exp4.png,1,exp3.png,exp4.png,0,2,non-reversed,incorrect,0.4189545518977852,0,valid_lose,540.3468034001999,54,,,,,,,,,,,,,s_083,1,2022_Apr_24_1228,Reversal,3.2.4,59.9590838888053,
20,exp1.png,exp2.png,,,,,,,,,,,,,,,,,0,0,0,0,0,20,20,20,,,,,,,,,True,,,,,,,,,,,,,,,,,,,,,,,,,,,,,,,,,s_083,1,2022_Apr_24_1228,Reversal,3.2.4,59.9590838888053,
,,,,,,,,,,,,,,,,,,,0,0,0,0,,,,,0,0,0,0,,,,,,,,,,,,,,,,,,,,,,,,,,3,85,50.0,50.0,,,,,,,,,s_083,1,2022_Apr_24_1228,Reversal,3.2.4,59.9590838888053,
0,exp1.png,exp2.png,,,,,,,,,,,,,,,,,1,0,1,0,0,0,0,0,,,,,,,,,False,20,101,False,exp1.png,exp2.png,trial_left_image,1,exp1.png,1,exp2.png,exp1.png,1,3,reversed,incorrect,0.2693653567854193,0,valid_lose,553.0092216003686,54,,,,,,,,,,,,,s_083,1,2022_Apr_24_1228,Reversal,3.2.4,59.9590838888053,
1,exp3.png,exp4.png,,,,,,,,,,,,,,,,,1,0,1,0,0,1,1,1,,,,,,,,,False,21,102,True,exp4.png,exp3.png,trial_right_image,-1,exp3.png,1,exp3.png,exp4.png,1,1,non-reversed,correct,0.7004661783774956,1,valid_win,557.390410900116,55,,,,,,,,,,,,,s_083,1,2022_Apr_24_1228,Reversal,3.2.4,59.9590838888053,
2,exp1.png,exp2.png,,,,,,,,,,,,,,,,,1,0,1,0,0,2,2,2,,,,,,,,,False,22,103,False,exp1.png,exp2.png,trial_right_image,-1,exp2.png,1,exp2.png,exp1.png,0,4,reversed,correct,0.10471693412805405,0,invalid_lose,562.089564200025,55,,,,,,,,,,,,,s_083,1,2022_Apr_24_1228,Reversal,3.2.4,59.9590838888053,
3,exp3.png,exp4.png,,,,,,,,,,,,,,,,,1,0,1,0,0,3,3,3,,,,,,,,,False,23,104,False,exp3.png,exp4.png,trial_left_image,1,exp3.png,1,exp3.png,exp4.png,1,1,non-reversed,correct,0.8751623476036662,1,valid_win,566.9372596000321,56,,,,,,,,,,,,,s_083,1,2022_Apr_24_1228,Reversal,3.2.4,59.9590838888053,
4,exp1.png,exp2.png,,,,,,,,,,,,,,,,,1,0,1,0,0,4,4,4,,,,,,,,,False,24,105,True,exp2.png,exp1.png,trial_left_image,1,exp2.png,1,exp2.png,exp1.png,0,4,reversed,correct,0.46008248278540853,1,valid_win,571.1241135001183,57,,,,,,,,,,,,,s_083,1,2022_Apr_24_1228,Reversal,3.2.4,59.9590838888053,
5,exp3.png,exp4.png,,,,,,,,,,,,,,,,,1,0,1,0,0,5,5,5,,,,,,,,,False,25,106,True,exp4.png,exp3.png,trial_right_image,-1,exp3.png,1,exp3.png,exp4.png,1,1,non-reversed,correct,0.3084237127208065,1,valid_win,575.7181347999722,58,,,,,,,,,,,,,s_083,1,2022_Apr_24_1228,Reversal,3.2.4,59.9590838888053,
6,exp1.png,exp2.png,,,,,,,,,,,,,,,,,1,0,1,0,0,6,6,6,,,,,,,,,False,26,107,True,exp2.png,exp1.png,trial_right_image,-1,exp1.png,1,exp2.png,exp1.png,1,3,reversed,incorrect,0.23475393339502348,1,invalid_win,579.9329374004155,59,,,,,,,,,,,,,s_083,1,2022_Apr_24_1228,Reversal,3.2.4,59.9590838888053,
7,exp3.png,exp4.png,,,,,,,,,,,,,,,,,1,0,1,0,0,7,7,7,,,,,,,,,False,27,108,False,exp3.png,exp4.png,trial_left_image,1,exp3.png,1,exp3.png,exp4.png,1,1,non-reversed,correct,0.7302854060089493,1,valid_win,585.1647328999825,60,,,,,,,,,,,,,s_083,1,2022_Apr_24_1228,Reversal,3.2.4,59.9590838888053,
8,exp1.png,exp2.png,,,,,,,,,,,,,,,,,1,0,1,0,0,8,8,8,,,,,,,,,False,28,109,False,exp1.png,exp2.png,trial_left_image,1,exp1.png,1,exp2.png,exp1.png,1,3,reversed,incorrect,0.008580812217641287,1,invalid_win,589.4967327001505,61,,,,,,,,,,,,,s_083,1,2022_Apr_24_1228,Reversal,3.2.4,59.9590838888053,
9,exp3.png,exp4.png,,,,,,,,,,,,,,,,,1,0,1,0,0,9,9,9,,,,,,,,,False,29,110,True,exp4.png,exp3.png,trial_right_image,-1,exp3.png,1,exp3.png,exp4.png,1,1,non-reversed,correct,0.030817678733047527,0,invalid_lose,593.9279500003904,61,,,,,,,,,,,,,s_083,1,2022_Apr_24_1228,Reversal,3.2.4,59.9590838888053,
10,exp1.png,exp2.png,,,,,,,,,,,,,,,,,1,0,1,0,0,10,10,10,,,,,,,,,False,30,111,False,exp1.png,exp2.png,trial_left_image,1,exp1.png,1,exp2.png,exp1.png,1,3,reversed,incorrect,0.8714212509713021,0,valid_lose,598.2264821003191,61,,,,,,,,,,,,,s_083,1,2022_Apr_24_1228,Reversal,3.2.4,59.9590838888053,
11,exp3.png,exp4.png,,,,,,,,,,,,,,,,,1,0,1,0,0,11,11,11,,,,,,,,,False,31,112,True,exp4.png,exp3.png,trial_right_image,-1,exp3.png,1,exp3.png,exp4.png,1,1,non-reversed,correct,0.15200686235486238,0,invalid_lose,602.5585270002484,61,,,,,,,,,,,,,s_083,1,2022_Apr_24_1228,Reversal,3.2.4,59.9590838888053,
12,exp1.png,exp2.png,,,,,,,,,,,,,,,,,1,0,1,0,0,12,12,12,,,,,,,,,False,32,113,True,exp2.png,exp1.png,trial_right_image,-1,exp1.png,1,exp2.png,exp1.png,1,3,reversed,incorrect,0.03227036550156437,1,invalid_win,606.6739484001882,62,,,,,,,,,,,,,s_083,1,2022_Apr_24_1228,Reversal,3.2.4,59.9590838888053,
13,exp3.png,exp4.png,,,,,,,,,,,,,,,,,1,0,1,0,0,13,13,13,,,,,,,,,False,33,114,True,exp4.png,exp3.png,trial_left_image,1,exp4.png,1,exp3.png,exp4.png,0,2,non-reversed,incorrect,0.4471768441645233,0,valid_lose,611.2053530002013,62,,,,,,,,,,,,,s_083,1,2022_Apr_24_1228,Reversal,3.2.4,59.9590838888053,
14,exp1.png,exp2.png,,,,,,,,,,,,,,,,,1,0,1,0,0,14,14,14,,,,,,,,,False,34,115,True,exp2.png,exp1.png,trial_right_image,-1,exp1.png,1,exp2.png,exp1.png,1,3,reversed,incorrect,0.07620053100314172,1,invalid_win,615.4046641001478,63,,,,,,,,,,,,,s_083,1,2022_Apr_24_1228,Reversal,3.2.4,59.9590838888053,
15,exp3.png,exp4.png,,,,,,,,,,,,,,,,,1,0,1,0,0,15,15,15,,,,,,,,,False,35,116,False,exp3.png,exp4.png,trial_right_image,-1,exp4.png,1,exp3.png,exp4.png,0,2,non-reversed,incorrect,0.2951998611748763,0,valid_lose,619.4865244003013,63,,,,,,,,,,,,,s_083,1,2022_Apr_24_1228,Reversal,3.2.4,59.9590838888053,
16,exp1.png,exp2.png,,,,,,,,,,,,,,,,,1,0,1,0,0,16,16,16,,,,,,,,,False,36,117,False,exp1.png,exp2.png,trial_left_image,1,exp1.png,1,exp2.png,exp1.png,1,3,reversed,incorrect,0.21795622074621146,1,invalid_win,624.0181023003533,64,,,,,,,,,,,,,s_083,1,2022_Apr_24_1228,Reversal,3.2.4,59.9590838888053,
17,exp3.png,exp4.png,,,,,,,,,,,,,,,,,1,0,1,0,0,17,17,17,,,,,,,,,False,37,118,False,exp3.png,exp4.png,trial_left_image,1,exp3.png,1,exp3.png,exp4.png,1,1,non-reversed,correct,0.6260698577986151,1,valid_win,627.9834087002091,65,,,,,,,,,,,,,s_083,1,2022_Apr_24_1228,Reversal,3.2.4,59.9590838888053,
18,exp1.png,exp2.png,,,,,,,,,,,,,,,,,1,0,1,0,0,18,18,18,,,,,,,,,False,38,119,True,exp2.png,exp1.png,trial_right_image,-1,exp1.png,1,exp2.png,exp1.png,1,3,reversed,incorrect,0.42884288652708824,0,valid_lose,631.8650621999986,65,,,,,,,,,,,,,s_083,1,2022_Apr_24_1228,Reversal,3.2.4,59.9590838888053,
19,exp3.png,exp4.png,,,,,,,,,,,,,,,,,1,0,1,0,0,19,19,19,,,,,,,,,False,39,120,False,exp3.png,exp4.png,trial_left_image,1,exp3.png,1,exp3.png,exp4.png,1,1,non-reversed,correct,0.7947998115943038,1,valid_win,635.9972307002172,66,,,,,,,,,,,,,s_083,1,2022_Apr_24_1228,Reversal,3.2.4,59.9590838888053,
20,exp1.png,exp2.png,,,,,,,,,,,,,,,,,1,0,1,0,0,20,20,20,,,,,,,,,True,,,,,,,,,,,,,,,,,,,,,,,,,,,,,,,,,s_083,1,2022_Apr_24_1228,Reversal,3.2.4,59.9590838888053,
,,,,,,,,,,,,,,,,,,,1,0,1,0,,,,,0,0,0,0,,,,,,,,,,,,,,,,,,,,,,,,,,79,26,22,19,,,,,,,,,s_083,1,2022_Apr_24_1228,Reversal,3.2.4,59.9590838888053,
0,exp1.png,exp2.png,,,,,,,,,,,,,,,,,2,0,2,0,0,0,0,0,,,,,,,,,False,40,121,True,exp2.png,exp1.png,trial_right_image,-1,exp1.png,1,exp2.png,exp1.png,1,3,reversed,incorrect,0.48189307689472805,0,valid_lose,652.7588023003191,66,,,,,,,,,,,,,s_083,1,2022_Apr_24_1228,Reversal,3.2.4,59.9590838888053,
1,exp3.png,exp4.png,,,,,,,,,,,,,,,,,2,0,2,0,0,1,1,1,,,,,,,,,False,41,122,False,exp3.png,exp4.png,trial_right_image,-1,exp4.png,1,exp3.png,exp4.png,0,2,non-reversed,incorrect,0.9598337290883447,0,valid_lose,656.7572494000196,66,,,,,,,,,,,,,s_083,1,2022_Apr_24_1228,Reversal,3.2.4,59.9590838888053,
2,exp1.png,exp2.png,,,,,,,,,,,,,,,,,2,0,2,0,0,2,2,2,,,,,,,,,False,42,123,True,exp2.png,exp1.png,trial_left_image,1,exp2.png,1,exp2.png,exp1.png,0,4,reversed,correct,0.09695811575307511,0,invalid_lose,661.3720162999816,66,,,,,,,,,,,,,s_083,1,2022_Apr_24_1228,Reversal,3.2.4,59.9590838888053,
3,exp3.png,exp4.png,,,,,,,,,,,,,,,,,2,0,2,0,0,3,3,3,,,,,,,,,False,43,124,False,exp3.png,exp4.png,trial_left_image,1,exp3.png,1,exp3.png,exp4.png,1,1,non-reversed,correct,0.947875019615025,1,valid_win,665.4878915003501,67,,,,,,,,,,,,,s_083,1,2022_Apr_24_1228,Reversal,3.2.4,59.9590838888053,
4,exp1.png,exp2.png,,,,,,,,,,,,,,,,,2,0,2,0,0,4,4,4,,,,,,,,,False,44,125,True,exp2.png,exp1.png,trial_right_image,-1,exp1.png,1,exp2.png,exp1.png,1,3,reversed,incorrect,0.16840163985023193,1,invalid_win,669.5028138002381,68,,,,,,,,,,,,,s_083,1,2022_Apr_24_1228,Reversal,3.2.4,59.9590838888053,
5,exp3.png,exp4.png,,,,,,,,,,,,,,,,,2,0,2,0,0,5,5,5,,,,,,,,,False,45,126,True,exp4.png,exp3.png,trial_right_image,-1,exp3.png,1,exp3.png,exp4.png,1,1,non-reversed,correct,0.5230810080569923,1,valid_win,673.6352066001855,69,,,,,,,,,,,,,s_083,1,2022_Apr_24_1228,Reversal,3.2.4,59.9590838888053,
6,exp1.png,exp2.png,,,,,,,,,,,,,,,,,2,0,2,0,0,6,6,6,,,,,,,,,False,46,127,False,exp1.png,exp2.png,trial_left_image,1,exp1.png,1,exp2.png,exp1.png,1,3,reversed,incorrect,0.20146155945591515,1,invalid_win,678.1167903002352,70,,,,,,,,,,,,,s_083,1,2022_Apr_24_1228,Reversal,3.2.4,59.9590838888053,
7,exp3.png,exp4.png,,,,,,,,,,,,,,,,,2,0,2,0,0,7,7,7,,,,,,,,,False,47,128,True,exp4.png,exp3.png,trial_right_image,-1,exp3.png,1,exp3.png,exp4.png,1,1,non-reversed,correct,0.9388551352035044,1,valid_win,682.5818476001732,71,,,,,,,,,,,,,s_083,1,2022_Apr_24_1228,Reversal,3.2.4,59.9590838888053,
8,exp1.png,exp2.png,,,,,,,,,,,,,,,,,2,0,2,0,0,8,8,8,,,,,,,,,False,48,129,True,exp2.png,exp1.png,trial_right_image,-1,exp1.png,1,exp2.png,exp1.png,1,3,reversed,incorrect,0.7204503597350651,0,valid_lose,686.8632892002352,71,,,,,,,,,,,,,s_083,1,2022_Apr_24_1228,Reversal,3.2.4,59.9590838888053,
9,exp3.png,exp4.png,,,,,,,,,,,,,,,,,2,0,2,0,0,9,9,9,,,,,,,,,False,49,130,False,exp3.png,exp4.png,trial_left_image,1,exp3.png,1,exp3.png,exp4.png,1,1,non-reversed,correct,0.22390041897186297,0,invalid_lose,690.8624962000176,71,,,,,,,,,,,,,s_083,1,2022_Apr_24_1228,Reversal,3.2.4,59.9590838888053,
10,exp1.png,exp2.png,,,,,,,,,,,,,,,,,2,0,2,0,0,10,10,10,,,,,,,,,False,50,131,False,exp1.png,exp2.png,trial_left_image,1,exp1.png,1,exp2.png,exp1.png,1,3,reversed,incorrect,0.05916789250179488,1,invalid_win,695.4936422002502,72,,,,,,,,,,,,,s_083,1,2022_Apr_24_1228,Reversal,3.2.4,59.9590838888053,
11,exp3.png,exp4.png,,,,,,,,,,,,,,,,,2,0,2,0,0,11,11,11,,,,,,,,,False,51,132,True,exp4.png,exp3.png,trial_left_image,1,exp4.png,1,exp3.png,exp4.png,0,2,non-reversed,incorrect,0.07363819133065297,1,invalid_win,700.024873000104,73,,,,,,,,,,,,,s_083,1,2022_Apr_24_1228,Reversal,3.2.4,59.9590838888053,
12,exp1.png,exp2.png,,,,,,,,,,,,,,,,,2,0,2,0,0,12,12,12,,,,,,,,,False,52,133,True,exp2.png,exp1.png,trial_left_image,1,exp2.png,1,exp2.png,exp1.png,0,4,reversed,correct,0.051239536722101686,0,invalid_lose,704.6911560003646,73,,,,,,,,,,,,,s_083,1,2022_Apr_24_1228,Reversal,3.2.4,59.9590838888053,
13,exp3.png,exp4.png,,,,,,,,,,,,,,,,,2,0,2,0,0,13,13,13,,,,,,,,,False,53,134,True,exp4.png,exp3.png,trial_left_image,1,exp4.png,1,exp3.png,exp4.png,0,2,non-reversed,incorrect,0.6013054413368618,0,valid_lose,709.5063495002687,73,,,,,,,,,,,,,s_083,1,2022_Apr_24_1228,Reversal,3.2.4,59.9590838888053,
14,exp1.png,exp2.png,,,,,,,,,,,,,,,,,2,0,2,0,0,14,14,14,,,,,,,,,False,54,135,False,exp1.png,exp2.png,trial_left_image,1,exp1.png,1,exp2.png,exp1.png,1,3,reversed,incorrect,0.6112016180429086,0,valid_lose,714.0370644000359,73,,,,,,,,,,,,,s_083,1,2022_Apr_24_1228,Reversal,3.2.4,59.9590838888053,
15,exp3.png,exp4.png,,,,,,,,,,,,,,,,,2,0,2,0,0,15,15,15,,,,,,,,,False,55,136,False,exp3.png,exp4.png,trial_right_image,-1,exp4.png,1,exp3.png,exp4.png,0,2,non-reversed,incorrect,0.4005952915995703,0,valid_lose,718.11914360011,73,,,,,,,,,,,,,s_083,1,2022_Apr_24_1228,Reversal,3.2.4,59.9590838888053,
16,exp1.png,exp2.png,,,,,,,,,,,,,,,,,2,0,2,0,0,16,16,16,,,,,,,,,False,56,137,True,exp2.png,exp1.png,trial_right_image,-1,exp1.png,1,exp2.png,exp1.png,1,3,reversed,incorrect,0.8401673284103623,0,valid_lose,722.267300200183,73,,,,,,,,,,,,,s_083,1,2022_Apr_24_1228,Reversal,3.2.4,59.9590838888053,
17,exp3.png,exp4.png,,,,,,,,,,,,,,,,,2,0,2,0,0,17,17,17,,,,,,,,,False,57,138,False,exp3.png,exp4.png,trial_left_image,1,exp3.png,1,exp3.png,exp4.png,1,1,non-reversed,correct,0.2222331242268052,0,invalid_lose,726.4344003000297,73,,,,,,,,,,,,,s_083,1,2022_Apr_24_1228,Reversal,3.2.4,59.9590838888053,
18,exp1.png,exp2.png,,,,,,,,,,,,,,,,,2,0,2,0,0,18,18,18,,,,,,,,,False,58,139,False,exp1.png,exp2.png,trial_right_image,-1,exp2.png,1,exp2.png,exp1.png,0,4,reversed,correct,0.3603619231618116,1,valid_win,730.8317843000405,74,,,,,,,,,,,,,s_083,1,2022_Apr_24_1228,Reversal,3.2.4,59.9590838888053,
19,exp3.png,exp4.png,,,,,,,,,,,,,,,,,2,0,2,0,0,19,19,19,,,,,,,,,False,59,140,False,exp3.png,exp4.png,trial_left_image,1,exp3.png,1,exp3.png,exp4.png,1,1,non-reversed,correct,0.9064084235365376,1,valid_win,734.997519900091,75,,,,,,,,,,,,,s_083,1,2022_Apr_24_1228,Reversal,3.2.4,59.9590838888053,
20,exp1.png,exp2.png,,,,,,,,,,,,,,,,,2,0,2,0,0,20,20,20,,,,,,,,,True,,,,,,,,,,,,,,,,,,,,,,,,,,,,,,,,,s_083,1,2022_Apr_24_1228,Reversal,3.2.4,59.9590838888053,
,,,,,,,,,,,,,,,,,,,2,0,2,0,,,,,0,0,0,0,,,,,,,,,,,,,,,,,,,,,,,,,,50,50.0,50.0,50.0,,,,,,,,,s_083,1,2022_Apr_24_1228,Reversal,3.2.4,59.9590838888053,
,,,,,,,,,,,,,,,,,,,,,,,,,,,,,,,,,,,,,,,,,,,,,,,,,,,,,,,75,,,,,,92,62,30,292.573391799815,1,space,17.5470736999996,s_083,1,2022_Apr_24_1228,Reversal,3.2.4,59.9590838888053,
