trial_index,trial_image1_file,trial_image2_file,learning_outer_loop.thisRepN,learning_outer_loop.thisTrialN,learning_outer_loop.thisN,learning_outer_loop.thisIndex,learning_inner_loop.thisRepN,learning_inner_loop.thisTrialN,learning_inner_loop.thisN,learning_inner_loop.thisIndex,learning_estimation_outer_loop.thisRepN,learning_estimation_outer_loop.thisTrialN,learning_estimation_outer_loop.thisN,learning_estimation_outer_loop.thisIndex,learning_estimation_inner_loop.thisRepN,learning_estimation_inner_loop.thisTrialN,learning_estimation_inner_loop.thisN,learning_estimation_inner_loop.thisIndex,reversal_outer_loop.thisRepN,reversal_outer_loop.thisTrialN,reversal_outer_loop.thisN,reversal_outer_loop.thisIndex,reversal_inner_loop.thisRepN,reversal_inner_loop.thisTrialN,reversal_inner_loop.thisN,reversal_inner_loop.thisIndex,reversal_estimation_outer_loop.thisRepN,reversal_estimation_outer_loop.thisTrialN,reversal_estimation_outer_loop.thisN,reversal_estimation_outer_loop.thisIndex,reversal_estimation_inner_loop.thisRepN,reversal_estimation_inner_loop.thisTrialN,reversal_estimation_inner_loop.thisN,reversal_estimation_inner_loop.thisIndex,skipped,total_trial_counter,trial_num,left_right_flip,left_image_file,right_image_file,clicked_stimulus_side,side,clicked_stimulus,version,high_prob_image_file,low_prob_image_file,choice_a,choice_b,pair_type,correct,trial_feedback_random,reward,trial_type,overall_time_after_trial,score,estimation_exp1.png,estimation_exp2.png,estimation_exp3.png,estimation_exp4.png,total_learning_time,total_correct,learning_correct,reversal_correct,total_reversal_time,extra_block,end_experiment.keys,end_experiment.rt,participant,ver,date,expName,psychopyVersion,frameRate,
0,exp1.png,exp2.png,0,0,0,0,0,0,0,0,,,,,,,,,,,,,,,,,,,,,,,,,True,,,,,,,,,,,,,,,,,,,,,,,,,,,,,,,,,s_085,1,2022_Jun_09_1049,Reversal,3.2.4,59.959515473615205,
1,exp3.png,exp4.png,0,0,0,0,0,1,1,1,,,,,,,,,,,,,,,,,,,,,,,,,False,0,1,True,exp4.png,exp3.png,trial_left_image,1,exp4.png,1,exp3.png,exp4.png,0,2,non-reversed,incorrect,0.9903124419096662,0,valid_lose,6.193876099772751,0,,,,,,,,,,,,,s_085,1,2022_Jun_09_1049,Reversal,3.2.4,59.959515473615205,
2,exp1.png,exp2.png,0,0,0,0,0,2,2,2,,,,,,,,,,,,,,,,,,,,,,,,,False,1,2,True,exp2.png,exp1.png,trial_right_image,-1,exp1.png,1,exp1.png,exp2.png,1,3,reversed,correct,0.9779281518385198,1,valid_win,13.290956600569189,1,,,,,,,,,,,,,s_085,1,2022_Jun_09_1049,Reversal,3.2.4,59.959515473615205,
3,exp3.png,exp4.png,0,0,0,0,0,3,3,3,,,,,,,,,,,,,,,,,,,,,,,,,False,2,3,False,exp3.png,exp4.png,trial_left_image,1,exp3.png,1,exp3.png,exp4.png,1,1,non-reversed,correct,0.5750944820979378,1,valid_win,18.75602009985596,2,,,,,,,,,,,,,s_085,1,2022_Jun_09_1049,Reversal,3.2.4,59.959515473615205,
4,exp1.png,exp2.png,0,0,0,0,0,4,4,4,,,,,,,,,,,,,,,,,,,,,,,,,False,3,4,False,exp1.png,exp2.png,trial_left_image,1,exp1.png,1,exp1.png,exp2.png,1,3,reversed,correct,0.6655571528694681,1,valid_win,24.054581999778748,3,,,,,,,,,,,,,s_085,1,2022_Jun_09_1049,Reversal,3.2.4,59.959515473615205,
5,exp3.png,exp4.png,0,0,0,0,0,5,5,5,,,,,,,,,,,,,,,,,,,,,,,,,False,4,5,True,exp4.png,exp3.png,trial_right_image,-1,exp3.png,1,exp3.png,exp4.png,1,1,non-reversed,correct,0.49374706760172227,1,valid_win,29.585214000195265,4,,,,,,,,,,,,,s_085,1,2022_Jun_09_1049,Reversal,3.2.4,59.959515473615205,
6,exp1.png,exp2.png,0,0,0,0,0,6,6,6,,,,,,,,,,,,,,,,,,,,,,,,,False,5,6,True,exp2.png,exp1.png,trial_right_image,-1,exp1.png,1,exp1.png,exp2.png,1,3,reversed,correct,0.3124235694593359,1,valid_win,34.70044710021466,5,,,,,,,,,,,,,s_085,1,2022_Jun_09_1049,Reversal,3.2.4,59.959515473615205,
7,exp3.png,exp4.png,0,0,0,0,0,7,7,7,,,,,,,,,,,,,,,,,,,,,,,,,False,6,7,False,exp3.png,exp4.png,trial_left_image,1,exp3.png,1,exp3.png,exp4.png,1,1,non-reversed,correct,0.592045271199935,1,valid_win,40.08143060002476,6,,,,,,,,,,,,,s_085,1,2022_Jun_09_1049,Reversal,3.2.4,59.959515473615205,
8,exp1.png,exp2.png,0,0,0,0,0,8,8,8,,,,,,,,,,,,,,,,,,,,,,,,,False,7,8,True,exp2.png,exp1.png,trial_right_image,-1,exp1.png,1,exp1.png,exp2.png,1,3,reversed,correct,0.6041189284558285,1,valid_win,44.730532200075686,7,,,,,,,,,,,,,s_085,1,2022_Jun_09_1049,Reversal,3.2.4,59.959515473615205,
9,exp3.png,exp4.png,0,0,0,0,0,9,9,9,,,,,,,,,,,,,,,,,,,,,,,,,False,8,9,False,exp3.png,exp4.png,trial_left_image,1,exp3.png,1,exp3.png,exp4.png,1,1,non-reversed,correct,0.7224490767609204,1,valid_win,49.578456699848175,8,,,,,,,,,,,,,s_085,1,2022_Jun_09_1049,Reversal,3.2.4,59.959515473615205,
10,exp1.png,exp2.png,0,0,0,0,0,10,10,10,,,,,,,,,,,,,,,,,,,,,,,,,False,9,10,False,exp1.png,exp2.png,trial_left_image,1,exp1.png,1,exp1.png,exp2.png,1,3,reversed,correct,0.5331333778149816,1,valid_win,54.36047890037298,9,,,,,,,,,,,,,s_085,1,2022_Jun_09_1049,Reversal,3.2.4,59.959515473615205,
11,exp3.png,exp4.png,0,0,0,0,0,11,11,11,,,,,,,,,,,,,,,,,,,,,,,,,False,10,11,False,exp3.png,exp4.png,trial_left_image,1,exp3.png,1,exp3.png,exp4.png,1,1,non-reversed,correct,0.029443549472706776,0,invalid_lose,58.97650180011988,9,,,,,,,,,,,,,s_085,1,2022_Jun_09_1049,Reversal,3.2.4,59.959515473615205,
12,exp1.png,exp2.png,0,0,0,0,0,12,12,12,,,,,,,,,,,,,,,,,,,,,,,,,False,11,12,False,exp1.png,exp2.png,trial_right_image,-1,exp2.png,1,exp1.png,exp2.png,0,4,reversed,incorrect,0.9033086292158314,0,valid_lose,63.75740250013769,9,,,,,,,,,,,,,s_085,1,2022_Jun_09_1049,Reversal,3.2.4,59.959515473615205,
13,exp3.png,exp4.png,0,0,0,0,0,13,13,13,,,,,,,,,,,,,,,,,,,,,,,,,False,12,13,True,exp4.png,exp3.png,trial_right_image,-1,exp3.png,1,exp3.png,exp4.png,1,1,non-reversed,correct,0.3949650452647452,1,valid_win,69.40486409980804,10,,,,,,,,,,,,,s_085,1,2022_Jun_09_1049,Reversal,3.2.4,59.959515473615205,
14,exp1.png,exp2.png,0,0,0,0,0,14,14,14,,,,,,,,,,,,,,,,,,,,,,,,,False,13,14,False,exp1.png,exp2.png,trial_left_image,1,exp1.png,1,exp1.png,exp2.png,1,3,reversed,correct,0.4412412313530951,1,valid_win,74.37054270040244,11,,,,,,,,,,,,,s_085,1,2022_Jun_09_1049,Reversal,3.2.4,59.959515473615205,
15,exp3.png,exp4.png,0,0,0,0,0,15,15,15,,,,,,,,,,,,,,,,,,,,,,,,,False,14,15,True,exp4.png,exp3.png,trial_right_image,-1,exp3.png,1,exp3.png,exp4.png,1,1,non-reversed,correct,0.8536032041557619,1,valid_win,79.21829649992287,12,,,,,,,,,,,,,s_085,1,2022_Jun_09_1049,Reversal,3.2.4,59.959515473615205,
16,exp1.png,exp2.png,0,0,0,0,0,16,16,16,,,,,,,,,,,,,,,,,,,,,,,,,False,15,16,True,exp2.png,exp1.png,trial_right_image,-1,exp1.png,1,exp1.png,exp2.png,1,3,reversed,correct,0.24831731096595744,0,invalid_lose,84.8500498002395,12,,,,,,,,,,,,,s_085,1,2022_Jun_09_1049,Reversal,3.2.4,59.959515473615205,
17,exp3.png,exp4.png,0,0,0,0,0,17,17,17,,,,,,,,,,,,,,,,,,,,,,,,,False,16,17,True,exp4.png,exp3.png,trial_right_image,-1,exp3.png,1,exp3.png,exp4.png,1,1,non-reversed,correct,0.42406083168419606,1,valid_win,92.18181630037725,13,,,,,,,,,,,,,s_085,1,2022_Jun_09_1049,Reversal,3.2.4,59.959515473615205,
18,exp1.png,exp2.png,0,0,0,0,0,18,18,18,,,,,,,,,,,,,,,,,,,,,,,,,False,17,18,False,exp1.png,exp2.png,trial_left_image,1,exp1.png,1,exp1.png,exp2.png,1,3,reversed,correct,0.660171723980215,1,valid_win,98.44573590066284,14,,,,,,,,,,,,,s_085,1,2022_Jun_09_1049,Reversal,3.2.4,59.959515473615205,
19,exp3.png,exp4.png,0,0,0,0,0,19,19,19,,,,,,,,,,,,,,,,,,,,,,,,,False,18,19,False,exp3.png,exp4.png,trial_left_image,1,exp3.png,1,exp3.png,exp4.png,1,1,non-reversed,correct,0.9162566679458678,1,valid_win,103.94408710021526,15,,,,,,,,,,,,,s_085,1,2022_Jun_09_1049,Reversal,3.2.4,59.959515473615205,
20,exp1.png,exp2.png,0,0,0,0,0,20,20,20,,,,,,,,,,,,,,,,,,,,,,,,,False,19,20,True,exp2.png,exp1.png,trial_right_image,-1,exp1.png,1,exp1.png,exp2.png,1,3,reversed,correct,0.32109982360916767,1,valid_win,108.64185510016978,16,,,,,,,,,,,,,s_085,1,2022_Jun_09_1049,Reversal,3.2.4,59.959515473615205,
,,,0,0,0,0,,,,,0,0,0,0,,,,,,,,,,,,,,,,,,,,,,,,,,,,,,,,,,,,,,,,,,89,17,83,0,,,,,,,,,s_085,1,2022_Jun_09_1049,Reversal,3.2.4,59.959515473615205,
0,exp1.png,exp2.png,1,0,1,0,0,0,0,0,,,,,,,,,,,,,,,,,,,,,,,,,True,,,,,,,,,,,,,,,,,,,,,,,,,,,,,,,,,s_085,1,2022_Jun_09_1049,Reversal,3.2.4,59.959515473615205,
1,exp3.png,exp4.png,1,0,1,0,0,1,1,1,,,,,,,,,,,,,,,,,,,,,,,,,False,20,21,True,exp4.png,exp3.png,trial_right_image,-1,exp3.png,1,exp3.png,exp4.png,1,1,non-reversed,correct,0.8614734116836861,1,valid_win,154.6597480000928,17,,,,,,,,,,,,,s_085,1,2022_Jun_09_1049,Reversal,3.2.4,59.959515473615205,
2,exp1.png,exp2.png,1,0,1,0,0,2,2,2,,,,,,,,,,,,,,,,,,,,,,,,,False,21,22,False,exp1.png,exp2.png,trial_left_image,1,exp1.png,1,exp1.png,exp2.png,1,3,reversed,correct,0.19313735569660917,0,invalid_lose,159.45846560038626,17,,,,,,,,,,,,,s_085,1,2022_Jun_09_1049,Reversal,3.2.4,59.959515473615205,
3,exp3.png,exp4.png,1,0,1,0,0,3,3,3,,,,,,,,,,,,,,,,,,,,,,,,,False,22,23,True,exp4.png,exp3.png,trial_right_image,-1,exp3.png,1,exp3.png,exp4.png,1,1,non-reversed,correct,0.5061076547236726,1,valid_win,164.0734561998397,18,,,,,,,,,,,,,s_085,1,2022_Jun_09_1049,Reversal,3.2.4,59.959515473615205,
4,exp1.png,exp2.png,1,0,1,0,0,4,4,4,,,,,,,,,,,,,,,,,,,,,,,,,False,23,24,False,exp1.png,exp2.png,trial_left_image,1,exp1.png,1,exp1.png,exp2.png,1,3,reversed,correct,0.365013901889351,1,valid_win,168.95563900005072,19,,,,,,,,,,,,,s_085,1,2022_Jun_09_1049,Reversal,3.2.4,59.959515473615205,
5,exp3.png,exp4.png,1,0,1,0,0,5,5,5,,,,,,,,,,,,,,,,,,,,,,,,,False,24,25,False,exp3.png,exp4.png,trial_left_image,1,exp3.png,1,exp3.png,exp4.png,1,1,non-reversed,correct,0.03500732768368353,0,invalid_lose,173.70353520009667,19,,,,,,,,,,,,,s_085,1,2022_Jun_09_1049,Reversal,3.2.4,59.959515473615205,
6,exp1.png,exp2.png,1,0,1,0,0,6,6,6,,,,,,,,,,,,,,,,,,,,,,,,,False,25,26,False,exp1.png,exp2.png,trial_left_image,1,exp1.png,1,exp1.png,exp2.png,1,3,reversed,correct,0.02994496789058776,0,invalid_lose,178.61863979976624,19,,,,,,,,,,,,,s_085,1,2022_Jun_09_1049,Reversal,3.2.4,59.959515473615205,
7,exp3.png,exp4.png,1,0,1,0,0,7,7,7,,,,,,,,,,,,,,,,,,,,,,,,,False,26,27,True,exp4.png,exp3.png,trial_right_image,-1,exp3.png,1,exp3.png,exp4.png,1,1,non-reversed,correct,0.009107567986901377,0,invalid_lose,183.33373480010778,19,,,,,,,,,,,,,s_085,1,2022_Jun_09_1049,Reversal,3.2.4,59.959515473615205,
8,exp1.png,exp2.png,1,0,1,0,0,8,8,8,,,,,,,,,,,,,,,,,,,,,,,,,False,27,28,False,exp1.png,exp2.png,trial_right_image,-1,exp2.png,1,exp1.png,exp2.png,0,4,reversed,incorrect,0.5785497488727483,0,valid_lose,187.99841220024973,19,,,,,,,,,,,,,s_085,1,2022_Jun_09_1049,Reversal,3.2.4,59.959515473615205,
9,exp3.png,exp4.png,1,0,1,0,0,9,9,9,,,,,,,,,,,,,,,,,,,,,,,,,False,28,29,True,exp4.png,exp3.png,trial_right_image,-1,exp3.png,1,exp3.png,exp4.png,1,1,non-reversed,correct,0.4500693787277492,1,valid_win,192.66384510044008,20,,,,,,,,,,,,,s_085,1,2022_Jun_09_1049,Reversal,3.2.4,59.959515473615205,
10,exp1.png,exp2.png,1,0,1,0,0,10,10,10,,,,,,,,,,,,,,,,,,,,,,,,,False,29,30,True,exp2.png,exp1.png,trial_right_image,-1,exp1.png,1,exp1.png,exp2.png,1,3,reversed,correct,0.40605357074128934,1,valid_win,197.39559520035982,21,,,,,,,,,,,,,s_085,1,2022_Jun_09_1049,Reversal,3.2.4,59.959515473615205,
11,exp3.png,exp4.png,1,0,1,0,0,11,11,11,,,,,,,,,,,,,,,,,,,,,,,,,False,30,31,False,exp3.png,exp4.png,trial_left_image,1,exp3.png,1,exp3.png,exp4.png,1,1,non-reversed,correct,0.10715145748792143,0,invalid_lose,202.6604725997895,21,,,,,,,,,,,,,s_085,1,2022_Jun_09_1049,Reversal,3.2.4,59.959515473615205,
12,exp1.png,exp2.png,1,0,1,0,0,12,12,12,,,,,,,,,,,,,,,,,,,,,,,,,False,31,32,True,exp2.png,exp1.png,trial_left_image,1,exp2.png,1,exp1.png,exp2.png,0,4,reversed,incorrect,0.06609211637351053,1,invalid_win,207.59223739989102,22,,,,,,,,,,,,,s_085,1,2022_Jun_09_1049,Reversal,3.2.4,59.959515473615205,
13,exp3.png,exp4.png,1,0,1,0,0,13,13,13,,,,,,,,,,,,,,,,,,,,,,,,,False,32,33,True,exp4.png,exp3.png,trial_left_image,1,exp4.png,1,exp3.png,exp4.png,0,2,non-reversed,incorrect,0.7405539274269658,0,valid_lose,212.52340470068157,22,,,,,,,,,,,,,s_085,1,2022_Jun_09_1049,Reversal,3.2.4,59.959515473615205,
14,exp1.png,exp2.png,1,0,1,0,0,14,14,14,,,,,,,,,,,,,,,,,,,,,,,,,False,33,34,True,exp2.png,exp1.png,trial_right_image,-1,exp1.png,1,exp1.png,exp2.png,1,3,reversed,correct,0.7637615422099031,1,valid_win,217.28898170031607,23,,,,,,,,,,,,,s_085,1,2022_Jun_09_1049,Reversal,3.2.4,59.959515473615205,
15,exp3.png,exp4.png,1,0,1,0,0,15,15,15,,,,,,,,,,,,,,,,,,,,,,,,,False,34,35,False,exp3.png,exp4.png,trial_left_image,1,exp3.png,1,exp3.png,exp4.png,1,1,non-reversed,correct,0.7089288585700678,1,valid_win,222.18748520035297,24,,,,,,,,,,,,,s_085,1,2022_Jun_09_1049,Reversal,3.2.4,59.959515473615205,
16,exp1.png,exp2.png,1,0,1,0,0,16,16,16,,,,,,,,,,,,,,,,,,,,,,,,,False,35,36,False,exp1.png,exp2.png,trial_left_image,1,exp1.png,1,exp1.png,exp2.png,1,3,reversed,correct,0.1274110963261238,0,invalid_lose,226.95232150051743,24,,,,,,,,,,,,,s_085,1,2022_Jun_09_1049,Reversal,3.2.4,59.959515473615205,
17,exp3.png,exp4.png,1,0,1,0,0,17,17,17,,,,,,,,,,,,,,,,,,,,,,,,,False,36,37,True,exp4.png,exp3.png,trial_left_image,1,exp4.png,1,exp3.png,exp4.png,0,2,non-reversed,incorrect,0.7729395450396205,0,valid_lose,231.66712949983776,24,,,,,,,,,,,,,s_085,1,2022_Jun_09_1049,Reversal,3.2.4,59.959515473615205,
18,exp1.png,exp2.png,1,0,1,0,0,18,18,18,,,,,,,,,,,,,,,,,,,,,,,,,False,37,38,False,exp1.png,exp2.png,trial_left_image,1,exp1.png,1,exp1.png,exp2.png,1,3,reversed,correct,0.31799164867755847,1,valid_win,236.24915600009263,25,,,,,,,,,,,,,s_085,1,2022_Jun_09_1049,Reversal,3.2.4,59.959515473615205,
19,exp3.png,exp4.png,1,0,1,0,0,19,19,19,,,,,,,,,,,,,,,,,,,,,,,,,False,38,39,True,exp4.png,exp3.png,trial_right_image,-1,exp3.png,1,exp3.png,exp4.png,1,1,non-reversed,correct,0.09273414757195209,0,invalid_lose,241.74700270034373,25,,,,,,,,,,,,,s_085,1,2022_Jun_09_1049,Reversal,3.2.4,59.959515473615205,
20,exp1.png,exp2.png,1,0,1,0,0,20,20,20,,,,,,,,,,,,,,,,,,,,,,,,,False,39,40,False,exp1.png,exp2.png,trial_left_image,1,exp1.png,1,exp1.png,exp2.png,1,3,reversed,correct,0.8165632427805636,1,valid_win,246.59591230005026,26,,,,,,,,,,,,,s_085,1,2022_Jun_09_1049,Reversal,3.2.4,59.959515473615205,
,,,1,0,1,0,,,,,0,0,0,0,,,,,,,,,,,,,,,,,,,,,,,,,,,,,,,,,,,,,,,,,,82,22,79,22,,,,,,,,,s_085,1,2022_Jun_09_1049,Reversal,3.2.4,59.959515473615205,
0,exp1.png,exp2.png,2,0,2,0,0,0,0,0,,,,,,,,,,,,,,,,,,,,,,,,,True,,,,,,,,,,,,,,,,,,,,,,,,,,,,,,,,,s_085,1,2022_Jun_09_1049,Reversal,3.2.4,59.959515473615205,
1,exp3.png,exp4.png,2,0,2,0,0,1,1,1,,,,,,,,,,,,,,,,,,,,,,,,,False,40,41,False,exp3.png,exp4.png,trial_left_image,1,exp3.png,1,exp3.png,exp4.png,1,1,non-reversed,correct,0.2390196026918241,0,invalid_lose,270.0377115998417,26,,,,,,,,,,,,,s_085,1,2022_Jun_09_1049,Reversal,3.2.4,59.959515473615205,
2,exp1.png,exp2.png,2,0,2,0,0,2,2,2,,,,,,,,,,,,,,,,,,,,,,,,,False,41,42,False,exp1.png,exp2.png,trial_right_image,-1,exp2.png,1,exp1.png,exp2.png,0,4,reversed,incorrect,0.4460525696481489,0,valid_lose,274.5690155001357,26,,,,,,,,,,,,,s_085,1,2022_Jun_09_1049,Reversal,3.2.4,59.959515473615205,
3,exp3.png,exp4.png,2,0,2,0,0,3,3,3,,,,,,,,,,,,,,,,,,,,,,,,,False,42,43,False,exp3.png,exp4.png,trial_left_image,1,exp3.png,1,exp3.png,exp4.png,1,1,non-reversed,correct,0.24598493812750521,0,invalid_lose,278.93506619986147,26,,,,,,,,,,,,,s_085,1,2022_Jun_09_1049,Reversal,3.2.4,59.959515473615205,
4,exp1.png,exp2.png,2,0,2,0,0,4,4,4,,,,,,,,,,,,,,,,,,,,,,,,,False,43,44,False,exp1.png,exp2.png,trial_right_image,-1,exp2.png,1,exp1.png,exp2.png,0,4,reversed,incorrect,0.4812717196357632,0,valid_lose,283.5161858005449,26,,,,,,,,,,,,,s_085,1,2022_Jun_09_1049,Reversal,3.2.4,59.959515473615205,
5,exp3.png,exp4.png,2,0,2,0,0,5,5,5,,,,,,,,,,,,,,,,,,,,,,,,,False,44,45,True,exp4.png,exp3.png,trial_right_image,-1,exp3.png,1,exp3.png,exp4.png,1,1,non-reversed,correct,0.6110424040605217,1,valid_win,288.18175270035863,27,,,,,,,,,,,,,s_085,1,2022_Jun_09_1049,Reversal,3.2.4,59.959515473615205,
6,exp1.png,exp2.png,2,0,2,0,0,6,6,6,,,,,,,,,,,,,,,,,,,,,,,,,False,45,46,True,exp2.png,exp1.png,trial_right_image,-1,exp1.png,1,exp1.png,exp2.png,1,3,reversed,correct,0.9220068629194322,1,valid_win,292.6804902004078,28,,,,,,,,,,,,,s_085,1,2022_Jun_09_1049,Reversal,3.2.4,59.959515473615205,
7,exp3.png,exp4.png,2,0,2,0,0,7,7,7,,,,,,,,,,,,,,,,,,,,,,,,,False,46,47,True,exp4.png,exp3.png,trial_right_image,-1,exp3.png,1,exp3.png,exp4.png,1,1,non-reversed,correct,0.7244523614767155,1,valid_win,297.31213709991425,29,,,,,,,,,,,,,s_085,1,2022_Jun_09_1049,Reversal,3.2.4,59.959515473615205,
8,exp1.png,exp2.png,2,0,2,0,0,8,8,8,,,,,,,,,,,,,,,,,,,,,,,,,False,47,48,False,exp1.png,exp2.png,trial_left_image,1,exp1.png,1,exp1.png,exp2.png,1,3,reversed,correct,0.5619814870488371,1,valid_win,302.1769388001412,30,,,,,,,,,,,,,s_085,1,2022_Jun_09_1049,Reversal,3.2.4,59.959515473615205,
9,exp3.png,exp4.png,2,0,2,0,0,9,9,9,,,,,,,,,,,,,,,,,,,,,,,,,False,48,49,False,exp3.png,exp4.png,trial_left_image,1,exp3.png,1,exp3.png,exp4.png,1,1,non-reversed,correct,0.4440775909585464,1,valid_win,307.0924946004525,31,,,,,,,,,,,,,s_085,1,2022_Jun_09_1049,Reversal,3.2.4,59.959515473615205,
10,exp1.png,exp2.png,2,0,2,0,0,10,10,10,,,,,,,,,,,,,,,,,,,,,,,,,False,49,50,True,exp2.png,exp1.png,trial_right_image,-1,exp1.png,1,exp1.png,exp2.png,1,3,reversed,correct,0.9336076407158711,1,valid_win,311.7402344997972,32,,,,,,,,,,,,,s_085,1,2022_Jun_09_1049,Reversal,3.2.4,59.959515473615205,
11,exp3.png,exp4.png,2,0,2,0,0,11,11,11,,,,,,,,,,,,,,,,,,,,,,,,,False,50,51,True,exp4.png,exp3.png,trial_right_image,-1,exp3.png,1,exp3.png,exp4.png,1,1,non-reversed,correct,0.5332998154383736,1,valid_win,316.30556940007955,33,,,,,,,,,,,,,s_085,1,2022_Jun_09_1049,Reversal,3.2.4,59.959515473615205,
12,exp1.png,exp2.png,2,0,2,0,0,12,12,12,,,,,,,,,,,,,,,,,,,,,,,,,False,51,52,False,exp1.png,exp2.png,trial_left_image,1,exp1.png,1,exp1.png,exp2.png,1,3,reversed,correct,0.7206041554535384,1,valid_win,321.5698440000415,34,,,,,,,,,,,,,s_085,1,2022_Jun_09_1049,Reversal,3.2.4,59.959515473615205,
13,exp3.png,exp4.png,2,0,2,0,0,13,13,13,,,,,,,,,,,,,,,,,,,,,,,,,False,52,53,False,exp3.png,exp4.png,trial_left_image,1,exp3.png,1,exp3.png,exp4.png,1,1,non-reversed,correct,0.3481164863977201,1,valid_win,326.3857192005962,35,,,,,,,,,,,,,s_085,1,2022_Jun_09_1049,Reversal,3.2.4,59.959515473615205,
14,exp1.png,exp2.png,2,0,2,0,0,14,14,14,,,,,,,,,,,,,,,,,,,,,,,,,False,53,54,False,exp1.png,exp2.png,trial_left_image,1,exp1.png,1,exp1.png,exp2.png,1,3,reversed,correct,0.42866595473961533,1,valid_win,331.2170008001849,36,,,,,,,,,,,,,s_085,1,2022_Jun_09_1049,Reversal,3.2.4,59.959515473615205,
15,exp3.png,exp4.png,2,0,2,0,0,15,15,15,,,,,,,,,,,,,,,,,,,,,,,,,False,54,55,False,exp3.png,exp4.png,trial_left_image,1,exp3.png,1,exp3.png,exp4.png,1,1,non-reversed,correct,0.5514263492102124,1,valid_win,335.5483988998458,37,,,,,,,,,,,,,s_085,1,2022_Jun_09_1049,Reversal,3.2.4,59.959515473615205,
16,exp1.png,exp2.png,2,0,2,0,0,16,16,16,,,,,,,,,,,,,,,,,,,,,,,,,False,55,56,True,exp2.png,exp1.png,trial_right_image,-1,exp1.png,1,exp1.png,exp2.png,1,3,reversed,correct,0.1263069702734515,0,invalid_lose,339.76394870039076,37,,,,,,,,,,,,,s_085,1,2022_Jun_09_1049,Reversal,3.2.4,59.959515473615205,
17,exp3.png,exp4.png,2,0,2,0,0,17,17,17,,,,,,,,,,,,,,,,,,,,,,,,,False,56,57,True,exp4.png,exp3.png,trial_right_image,-1,exp3.png,1,exp3.png,exp4.png,1,1,non-reversed,correct,0.5859589415398642,1,valid_win,344.92896260041744,38,,,,,,,,,,,,,s_085,1,2022_Jun_09_1049,Reversal,3.2.4,59.959515473615205,
18,exp1.png,exp2.png,2,0,2,0,0,18,18,18,,,,,,,,,,,,,,,,,,,,,,,,,False,57,58,True,exp2.png,exp1.png,trial_left_image,1,exp2.png,1,exp1.png,exp2.png,0,4,reversed,incorrect,0.634074037530883,0,valid_lose,350.62672680057585,38,,,,,,,,,,,,,s_085,1,2022_Jun_09_1049,Reversal,3.2.4,59.959515473615205,
19,exp3.png,exp4.png,2,0,2,0,0,19,19,19,,,,,,,,,,,,,,,,,,,,,,,,,False,58,59,True,exp4.png,exp3.png,trial_right_image,-1,exp3.png,1,exp3.png,exp4.png,1,1,non-reversed,correct,0.20739476434002768,0,invalid_lose,355.04255270026624,38,,,,,,,,,,,,,s_085,1,2022_Jun_09_1049,Reversal,3.2.4,59.959515473615205,
20,exp1.png,exp2.png,2,0,2,0,0,20,20,20,,,,,,,,,,,,,,,,,,,,,,,,,False,59,60,True,exp2.png,exp1.png,trial_left_image,1,exp2.png,1,exp1.png,exp2.png,0,4,reversed,incorrect,0.6080750704209811,0,valid_lose,359.857107100077,38,,,,,,,,,,,,,s_085,1,2022_Jun_09_1049,Reversal,3.2.4,59.959515473615205,
,,,2,0,2,0,,,,,0,0,0,0,,,,,,,,,,,,,,,,,,,,,,,,,,,,,,,,,,,,,,,,,,92,18,90,22,,,,,,,,,s_085,1,2022_Jun_09_1049,Reversal,3.2.4,59.959515473615205,
0,exp1.png,exp2.png,3,0,3,0,0,0,0,0,,,,,,,,,,,,,,,,,,,,,,,,,True,,,,,,,,,,,,,,,,,,,,,,,,,,,,,,,,,s_085,1,2022_Jun_09_1049,Reversal,3.2.4,59.959515473615205,
1,exp3.png,exp4.png,3,0,3,0,0,1,1,1,,,,,,,,,,,,,,,,,,,,,,,,,False,60,61,True,exp4.png,exp3.png,trial_right_image,-1,exp3.png,1,exp3.png,exp4.png,1,1,non-reversed,correct,0.8862632629416587,1,valid_win,385.0659853005782,39,,,,,,,,,,,,,s_085,1,2022_Jun_09_1049,Reversal,3.2.4,59.959515473615205,
2,exp1.png,exp2.png,3,0,3,0,0,2,2,2,,,,,,,,,,,,,,,,,,,,,,,,,False,61,62,False,exp1.png,exp2.png,trial_left_image,1,exp1.png,1,exp1.png,exp2.png,1,3,reversed,correct,0.004954564771840642,0,invalid_lose,389.8972896002233,39,,,,,,,,,,,,,s_085,1,2022_Jun_09_1049,Reversal,3.2.4,59.959515473615205,
3,exp3.png,exp4.png,3,0,3,0,0,3,3,3,,,,,,,,,,,,,,,,,,,,,,,,,False,62,63,False,exp3.png,exp4.png,trial_right_image,-1,exp4.png,1,exp3.png,exp4.png,0,2,non-reversed,incorrect,0.8981881641555071,0,valid_lose,395.178967599757,39,,,,,,,,,,,,,s_085,1,2022_Jun_09_1049,Reversal,3.2.4,59.959515473615205,
4,exp1.png,exp2.png,3,0,3,0,0,4,4,4,,,,,,,,,,,,,,,,,,,,,,,,,False,63,64,True,exp2.png,exp1.png,trial_right_image,-1,exp1.png,1,exp1.png,exp2.png,1,3,reversed,correct,0.3148699694328554,1,valid_win,399.9436547998339,40,,,,,,,,,,,,,s_085,1,2022_Jun_09_1049,Reversal,3.2.4,59.959515473615205,
5,exp3.png,exp4.png,3,0,3,0,0,5,5,5,,,,,,,,,,,,,,,,,,,,,,,,,False,64,65,False,exp3.png,exp4.png,trial_left_image,1,exp3.png,1,exp3.png,exp4.png,1,1,non-reversed,correct,0.9345448889396204,1,valid_win,404.8753217002377,41,,,,,,,,,,,,,s_085,1,2022_Jun_09_1049,Reversal,3.2.4,59.959515473615205,
6,exp1.png,exp2.png,3,0,3,0,0,6,6,6,,,,,,,,,,,,,,,,,,,,,,,,,False,65,66,False,exp1.png,exp2.png,trial_left_image,1,exp1.png,1,exp1.png,exp2.png,1,3,reversed,correct,0.313382363824909,1,valid_win,410.29033640027046,42,,,,,,,,,,,,,s_085,1,2022_Jun_09_1049,Reversal,3.2.4,59.959515473615205,
7,exp3.png,exp4.png,3,0,3,0,0,7,7,7,,,,,,,,,,,,,,,,,,,,,,,,,False,66,67,True,exp4.png,exp3.png,trial_right_image,-1,exp3.png,1,exp3.png,exp4.png,1,1,non-reversed,correct,0.01720534306251853,0,invalid_lose,414.9884973000735,42,,,,,,,,,,,,,s_085,1,2022_Jun_09_1049,Reversal,3.2.4,59.959515473615205,
8,exp1.png,exp2.png,3,0,3,0,0,8,8,8,,,,,,,,,,,,,,,,,,,,,,,,,False,67,68,True,exp2.png,exp1.png,trial_right_image,-1,exp1.png,1,exp1.png,exp2.png,1,3,reversed,correct,0.9016664363551999,1,valid_win,419.48637550044805,43,,,,,,,,,,,,,s_085,1,2022_Jun_09_1049,Reversal,3.2.4,59.959515473615205,
9,exp3.png,exp4.png,3,0,3,0,0,9,9,9,,,,,,,,,,,,,,,,,,,,,,,,,False,68,69,True,exp4.png,exp3.png,trial_right_image,-1,exp3.png,1,exp3.png,exp4.png,1,1,non-reversed,correct,0.5857846340744965,1,valid_win,423.91946700029075,44,,,,,,,,,,,,,s_085,1,2022_Jun_09_1049,Reversal,3.2.4,59.959515473615205,
10,exp1.png,exp2.png,3,0,3,0,0,10,10,10,,,,,,,,,,,,,,,,,,,,,,,,,False,69,70,True,exp2.png,exp1.png,trial_right_image,-1,exp1.png,1,exp1.png,exp2.png,1,3,reversed,correct,0.013024098170667853,0,invalid_lose,428.4176227999851,44,,,,,,,,,,,,,s_085,1,2022_Jun_09_1049,Reversal,3.2.4,59.959515473615205,
11,exp3.png,exp4.png,3,0,3,0,0,11,11,11,,,,,,,,,,,,,,,,,,,,,,,,,False,70,71,True,exp4.png,exp3.png,trial_right_image,-1,exp3.png,1,exp3.png,exp4.png,1,1,non-reversed,correct,0.1389937536398963,0,invalid_lose,433.84908269997686,44,,,,,,,,,,,,,s_085,1,2022_Jun_09_1049,Reversal,3.2.4,59.959515473615205,
12,exp1.png,exp2.png,3,0,3,0,0,12,12,12,,,,,,,,,,,,,,,,,,,,,,,,,False,71,72,True,exp2.png,exp1.png,trial_left_image,1,exp2.png,1,exp1.png,exp2.png,0,4,reversed,incorrect,0.1283446134802494,1,invalid_win,439.6809352999553,45,,,,,,,,,,,,,s_085,1,2022_Jun_09_1049,Reversal,3.2.4,59.959515473615205,
13,exp3.png,exp4.png,3,0,3,0,0,13,13,13,,,,,,,,,,,,,,,,,,,,,,,,,False,72,73,True,exp4.png,exp3.png,trial_right_image,-1,exp3.png,1,exp3.png,exp4.png,1,1,non-reversed,correct,0.31950344594481683,1,valid_win,444.47874190006405,46,,,,,,,,,,,,,s_085,1,2022_Jun_09_1049,Reversal,3.2.4,59.959515473615205,
14,exp1.png,exp2.png,3,0,3,0,0,14,14,14,,,,,,,,,,,,,,,,,,,,,,,,,False,73,74,False,exp1.png,exp2.png,trial_right_image,-1,exp2.png,1,exp1.png,exp2.png,0,4,reversed,incorrect,0.6841357083966659,0,valid_lose,449.59361610002816,46,,,,,,,,,,,,,s_085,1,2022_Jun_09_1049,Reversal,3.2.4,59.959515473615205,
15,exp3.png,exp4.png,3,0,3,0,0,15,15,15,,,,,,,,,,,,,,,,,,,,,,,,,False,74,75,False,exp3.png,exp4.png,trial_left_image,1,exp3.png,1,exp3.png,exp4.png,1,1,non-reversed,correct,0.8994026606397924,1,valid_win,456.25815990008414,47,,,,,,,,,,,,,s_085,1,2022_Jun_09_1049,Reversal,3.2.4,59.959515473615205,
16,exp1.png,exp2.png,3,0,3,0,0,16,16,16,,,,,,,,,,,,,,,,,,,,,,,,,False,75,76,False,exp1.png,exp2.png,trial_right_image,-1,exp2.png,1,exp1.png,exp2.png,0,4,reversed,incorrect,0.5417155607704599,0,valid_lose,461.6057532001287,47,,,,,,,,,,,,,s_085,1,2022_Jun_09_1049,Reversal,3.2.4,59.959515473615205,
17,exp3.png,exp4.png,3,0,3,0,0,17,17,17,,,,,,,,,,,,,,,,,,,,,,,,,False,76,77,False,exp3.png,exp4.png,trial_left_image,1,exp3.png,1,exp3.png,exp4.png,1,1,non-reversed,correct,0.6142183192969729,1,valid_win,466.537927900441,48,,,,,,,,,,,,,s_085,1,2022_Jun_09_1049,Reversal,3.2.4,59.959515473615205,
18,exp1.png,exp2.png,3,0,3,0,0,18,18,18,,,,,,,,,,,,,,,,,,,,,,,,,False,77,78,False,exp1.png,exp2.png,trial_left_image,1,exp1.png,1,exp1.png,exp2.png,1,3,reversed,correct,0.2312041585864476,0,invalid_lose,471.2869493002072,48,,,,,,,,,,,,,s_085,1,2022_Jun_09_1049,Reversal,3.2.4,59.959515473615205,
19,exp3.png,exp4.png,3,0,3,0,0,19,19,19,,,,,,,,,,,,,,,,,,,,,,,,,False,78,79,False,exp3.png,exp4.png,trial_left_image,1,exp3.png,1,exp3.png,exp4.png,1,1,non-reversed,correct,0.5364281272415947,1,valid_win,476.2680938001722,49,,,,,,,,,,,,,s_085,1,2022_Jun_09_1049,Reversal,3.2.4,59.959515473615205,
20,exp1.png,exp2.png,3,0,3,0,0,20,20,20,,,,,,,,,,,,,,,,,,,,,,,,,False,79,80,True,exp2.png,exp1.png,trial_right_image,-1,exp1.png,1,exp1.png,exp2.png,1,3,reversed,correct,0.6646082507481118,1,valid_win,481.61643549986184,50,,,,,,,,,,,,,s_085,1,2022_Jun_09_1049,Reversal,3.2.4,59.959515473615205,
,,,3,0,3,0,,,,,0,0,0,0,,,,,,,,,,,,,,,,,,,,,,,,,,,,,,,,,,,,,,,,,,100,0,91,15,,,,,,,,,s_085,1,2022_Jun_09_1049,Reversal,3.2.4,59.959515473615205,
0,exp1.png,exp2.png,,,,,,,,,,,,,,,,,0,0,0,0,0,0,0,0,,,,,,,,,True,,,,,,,,,,,,,,,,,,,,,,,,,,,,,,,,,s_085,1,2022_Jun_09_1049,Reversal,3.2.4,59.959515473615205,
1,exp3.png,exp4.png,,,,,,,,,,,,,,,,,0,0,0,0,0,1,1,1,,,,,,,,,False,0,81,True,exp4.png,exp3.png,trial_right_image,-1,exp3.png,1,exp3.png,exp4.png,1,1,non-reversed,correct,0.7764525123513082,1,valid_win,503.6417089998722,51,,,,,501.29634790029377,,,,,,,,s_085,1,2022_Jun_09_1049,Reversal,3.2.4,59.959515473615205,
2,exp1.png,exp2.png,,,,,,,,,,,,,,,,,0,0,0,0,0,2,2,2,,,,,,,,,False,1,82,False,exp1.png,exp2.png,trial_left_image,1,exp1.png,1,exp2.png,exp1.png,1,3,reversed,incorrect,0.4523001910808996,0,valid_lose,508.73977319989353,51,,,,,,,,,,,,,s_085,1,2022_Jun_09_1049,Reversal,3.2.4,59.959515473615205,
3,exp3.png,exp4.png,,,,,,,,,,,,,,,,,0,0,0,0,0,3,3,3,,,,,,,,,False,2,83,True,exp4.png,exp3.png,trial_right_image,-1,exp3.png,1,exp3.png,exp4.png,1,1,non-reversed,correct,0.10184317839559942,0,invalid_lose,513.1554927006364,51,,,,,,,,,,,,,s_085,1,2022_Jun_09_1049,Reversal,3.2.4,59.959515473615205,
4,exp1.png,exp2.png,,,,,,,,,,,,,,,,,0,0,0,0,0,4,4,4,,,,,,,,,False,3,84,False,exp1.png,exp2.png,trial_left_image,1,exp1.png,1,exp2.png,exp1.png,1,3,reversed,incorrect,0.2830422397722071,0,valid_lose,517.6877041002735,51,,,,,,,,,,,,,s_085,1,2022_Jun_09_1049,Reversal,3.2.4,59.959515473615205,
5,exp3.png,exp4.png,,,,,,,,,,,,,,,,,0,0,0,0,0,5,5,5,,,,,,,,,False,4,85,True,exp4.png,exp3.png,trial_right_image,-1,exp3.png,1,exp3.png,exp4.png,1,1,non-reversed,correct,0.3459435801575097,1,valid_win,522.0358059005812,52,,,,,,,,,,,,,s_085,1,2022_Jun_09_1049,Reversal,3.2.4,59.959515473615205,
6,exp1.png,exp2.png,,,,,,,,,,,,,,,,,0,0,0,0,0,6,6,6,,,,,,,,,False,5,86,False,exp1.png,exp2.png,trial_left_image,1,exp1.png,1,exp2.png,exp1.png,1,3,reversed,incorrect,0.47730517899494096,0,valid_lose,526.7345553003252,52,,,,,,,,,,,,,s_085,1,2022_Jun_09_1049,Reversal,3.2.4,59.959515473615205,
7,exp3.png,exp4.png,,,,,,,,,,,,,,,,,0,0,0,0,0,7,7,7,,,,,,,,,False,6,87,False,exp3.png,exp4.png,trial_left_image,1,exp3.png,1,exp3.png,exp4.png,1,1,non-reversed,correct,0.08402710042994133,0,invalid_lose,531.5323358001187,52,,,,,,,,,,,,,s_085,1,2022_Jun_09_1049,Reversal,3.2.4,59.959515473615205,
8,exp1.png,exp2.png,,,,,,,,,,,,,,,,,0,0,0,0,0,8,8,8,,,,,,,,,False,7,88,False,exp1.png,exp2.png,trial_right_image,-1,exp2.png,1,exp2.png,exp1.png,0,4,reversed,correct,0.20939883785076085,0,invalid_lose,535.8978674001992,52,,,,,,,,,,,,,s_085,1,2022_Jun_09_1049,Reversal,3.2.4,59.959515473615205,
9,exp3.png,exp4.png,,,,,,,,,,,,,,,,,0,0,0,0,0,9,9,9,,,,,,,,,False,8,89,True,exp4.png,exp3.png,trial_right_image,-1,exp3.png,1,exp3.png,exp4.png,1,1,non-reversed,correct,0.5620667083002701,1,valid_win,540.9960184004158,53,,,,,,,,,,,,,s_085,1,2022_Jun_09_1049,Reversal,3.2.4,59.959515473615205,
10,exp1.png,exp2.png,,,,,,,,,,,,,,,,,0,0,0,0,0,10,10,10,,,,,,,,,False,9,90,False,exp1.png,exp2.png,trial_left_image,1,exp1.png,1,exp2.png,exp1.png,1,3,reversed,incorrect,0.8416844014096945,0,valid_lose,546.1111027002335,53,,,,,,,,,,,,,s_085,1,2022_Jun_09_1049,Reversal,3.2.4,59.959515473615205,
11,exp3.png,exp4.png,,,,,,,,,,,,,,,,,0,0,0,0,0,11,11,11,,,,,,,,,False,10,91,False,exp3.png,exp4.png,trial_left_image,1,exp3.png,1,exp3.png,exp4.png,1,1,non-reversed,correct,0.08053804718853641,0,invalid_lose,550.9093348002061,53,,,,,,,,,,,,,s_085,1,2022_Jun_09_1049,Reversal,3.2.4,59.959515473615205,
12,exp1.png,exp2.png,,,,,,,,,,,,,,,,,0,0,0,0,0,12,12,12,,,,,,,,,False,11,92,True,exp2.png,exp1.png,trial_right_image,-1,exp1.png,1,exp2.png,exp1.png,1,3,reversed,incorrect,0.7444807967480747,0,valid_lose,555.1582174003124,53,,,,,,,,,,,,,s_085,1,2022_Jun_09_1049,Reversal,3.2.4,59.959515473615205,
13,exp3.png,exp4.png,,,,,,,,,,,,,,,,,0,0,0,0,0,13,13,13,,,,,,,,,False,12,93,False,exp3.png,exp4.png,trial_left_image,1,exp3.png,1,exp3.png,exp4.png,1,1,non-reversed,correct,0.04028009813251254,0,invalid_lose,559.9229295002297,53,,,,,,,,,,,,,s_085,1,2022_Jun_09_1049,Reversal,3.2.4,59.959515473615205,
14,exp1.png,exp2.png,,,,,,,,,,,,,,,,,0,0,0,0,0,14,14,14,,,,,,,,,False,13,94,True,exp2.png,exp1.png,trial_right_image,-1,exp1.png,1,exp2.png,exp1.png,1,3,reversed,incorrect,0.7643606770450688,0,valid_lose,565.5874374005944,53,,,,,,,,,,,,,s_085,1,2022_Jun_09_1049,Reversal,3.2.4,59.959515473615205,
15,exp3.png,exp4.png,,,,,,,,,,,,,,,,,0,0,0,0,0,15,15,15,,,,,,,,,False,14,95,False,exp3.png,exp4.png,trial_right_image,-1,exp4.png,1,exp3.png,exp4.png,0,2,non-reversed,incorrect,0.23187213461105105,1,invalid_win,570.6191349998116,54,,,,,,,,,,,,,s_085,1,2022_Jun_09_1049,Reversal,3.2.4,59.959515473615205,
16,exp1.png,exp2.png,,,,,,,,,,,,,,,,,0,0,0,0,0,16,16,16,,,,,,,,,False,15,96,True,exp2.png,exp1.png,trial_left_image,1,exp2.png,1,exp2.png,exp1.png,0,4,reversed,correct,0.04999133831859526,0,invalid_lose,575.7175625003874,54,,,,,,,,,,,,,s_085,1,2022_Jun_09_1049,Reversal,3.2.4,59.959515473615205,
17,exp3.png,exp4.png,,,,,,,,,,,,,,,,,0,0,0,0,0,17,17,17,,,,,,,,,False,16,97,True,exp4.png,exp3.png,trial_left_image,1,exp4.png,1,exp3.png,exp4.png,0,2,non-reversed,incorrect,0.06091252781758438,1,invalid_win,580.8327486002818,55,,,,,,,,,,,,,s_085,1,2022_Jun_09_1049,Reversal,3.2.4,59.959515473615205,
18,exp1.png,exp2.png,,,,,,,,,,,,,,,,,0,0,0,0,0,18,18,18,,,,,,,,,False,17,98,True,exp2.png,exp1.png,trial_right_image,-1,exp1.png,1,exp2.png,exp1.png,1,3,reversed,incorrect,0.9628713858240058,0,valid_lose,585.8643287997693,55,,,,,,,,,,,,,s_085,1,2022_Jun_09_1049,Reversal,3.2.4,59.959515473615205,
19,exp3.png,exp4.png,,,,,,,,,,,,,,,,,0,0,0,0,0,19,19,19,,,,,,,,,False,18,99,False,exp3.png,exp4.png,trial_right_image,-1,exp4.png,1,exp3.png,exp4.png,0,2,non-reversed,incorrect,0.1573612406229763,1,invalid_win,590.1629902003333,56,,,,,,,,,,,,,s_085,1,2022_Jun_09_1049,Reversal,3.2.4,59.959515473615205,
20,exp1.png,exp2.png,,,,,,,,,,,,,,,,,0,0,0,0,0,20,20,20,,,,,,,,,False,19,100,True,exp2.png,exp1.png,trial_left_image,1,exp2.png,1,exp2.png,exp1.png,0,4,reversed,correct,0.23754041798882064,0,invalid_lose,594.9612549999729,56,,,,,,,,,,,,,s_085,1,2022_Jun_09_1049,Reversal,3.2.4,59.959515473615205,
,,,,,,,,,,,,,,,,,,,0,0,0,0,,,,,0,0,0,0,,,,,,,,,,,,,,,,,,,,,,,,,,81,26,25,88,,,,,,,,,s_085,1,2022_Jun_09_1049,Reversal,3.2.4,59.959515473615205,
0,exp1.png,exp2.png,,,,,,,,,,,,,,,,,1,0,1,0,0,0,0,0,,,,,,,,,True,,,,,,,,,,,,,,,,,,,,,,,,,,,,,,,,,s_085,1,2022_Jun_09_1049,Reversal,3.2.4,59.959515473615205,
1,exp3.png,exp4.png,,,,,,,,,,,,,,,,,1,0,1,0,0,1,1,1,,,,,,,,,False,20,101,False,exp3.png,exp4.png,trial_left_image,1,exp3.png,1,exp3.png,exp4.png,1,1,non-reversed,correct,0.6546366236607822,1,valid_win,616.7035570004955,57,,,,,,,,,,,,,s_085,1,2022_Jun_09_1049,Reversal,3.2.4,59.959515473615205,
2,exp1.png,exp2.png,,,,,,,,,,,,,,,,,1,0,1,0,0,2,2,2,,,,,,,,,False,21,102,False,exp1.png,exp2.png,trial_left_image,1,exp1.png,1,exp2.png,exp1.png,1,3,reversed,incorrect,0.0733745519781035,1,invalid_win,621.1523708999157,58,,,,,,,,,,,,,s_085,1,2022_Jun_09_1049,Reversal,3.2.4,59.959515473615205,
3,exp3.png,exp4.png,,,,,,,,,,,,,,,,,1,0,1,0,0,3,3,3,,,,,,,,,False,22,103,True,exp4.png,exp3.png,trial_right_image,-1,exp3.png,1,exp3.png,exp4.png,1,1,non-reversed,correct,0.7436744086389815,1,valid_win,625.451006100513,59,,,,,,,,,,,,,s_085,1,2022_Jun_09_1049,Reversal,3.2.4,59.959515473615205,
4,exp1.png,exp2.png,,,,,,,,,,,,,,,,,1,0,1,0,0,4,4,4,,,,,,,,,False,23,104,False,exp1.png,exp2.png,trial_left_image,1,exp1.png,1,exp2.png,exp1.png,1,3,reversed,incorrect,0.0024233201337149346,1,invalid_win,630.1493755001575,60,,,,,,,,,,,,,s_085,1,2022_Jun_09_1049,Reversal,3.2.4,59.959515473615205,
5,exp3.png,exp4.png,,,,,,,,,,,,,,,,,1,0,1,0,0,5,5,5,,,,,,,,,False,24,105,True,exp4.png,exp3.png,trial_right_image,-1,exp3.png,1,exp3.png,exp4.png,1,1,non-reversed,correct,0.3070814526079233,1,valid_win,634.380719400011,61,,,,,,,,,,,,,s_085,1,2022_Jun_09_1049,Reversal,3.2.4,59.959515473615205,
6,exp1.png,exp2.png,,,,,,,,,,,,,,,,,1,0,1,0,0,6,6,6,,,,,,,,,False,25,106,False,exp1.png,exp2.png,trial_left_image,1,exp1.png,1,exp2.png,exp1.png,1,3,reversed,incorrect,0.3303212640898665,0,valid_lose,638.9465819001198,61,,,,,,,,,,,,,s_085,1,2022_Jun_09_1049,Reversal,3.2.4,59.959515473615205,
7,exp3.png,exp4.png,,,,,,,,,,,,,,,,,1,0,1,0,0,7,7,7,,,,,,,,,False,26,107,False,exp3.png,exp4.png,trial_right_image,-1,exp4.png,1,exp3.png,exp4.png,0,2,non-reversed,incorrect,0.6982748432441102,0,valid_lose,643.4118714006618,61,,,,,,,,,,,,,s_085,1,2022_Jun_09_1049,Reversal,3.2.4,59.959515473615205,
8,exp1.png,exp2.png,,,,,,,,,,,,,,,,,1,0,1,0,0,8,8,8,,,,,,,,,False,27,108,False,exp1.png,exp2.png,trial_left_image,1,exp1.png,1,exp2.png,exp1.png,1,3,reversed,incorrect,0.9665613206712705,0,valid_lose,647.6597138000652,61,,,,,,,,,,,,,s_085,1,2022_Jun_09_1049,Reversal,3.2.4,59.959515473615205,
9,exp3.png,exp4.png,,,,,,,,,,,,,,,,,1,0,1,0,0,9,9,9,,,,,,,,,False,28,109,True,exp4.png,exp3.png,trial_right_image,-1,exp3.png,1,exp3.png,exp4.png,1,1,non-reversed,correct,0.6314823549546739,1,valid_win,651.8251761998981,62,,,,,,,,,,,,,s_085,1,2022_Jun_09_1049,Reversal,3.2.4,59.959515473615205,
10,exp1.png,exp2.png,,,,,,,,,,,,,,,,,1,0,1,0,0,10,10,10,,,,,,,,,False,29,110,True,exp2.png,exp1.png,trial_right_image,-1,exp1.png,1,exp2.png,exp1.png,1,3,reversed,incorrect,0.9563410329143897,0,valid_lose,656.0240083001554,62,,,,,,,,,,,,,s_085,1,2022_Jun_09_1049,Reversal,3.2.4,59.959515473615205,
11,exp3.png,exp4.png,,,,,,,,,,,,,,,,,1,0,1,0,0,11,11,11,,,,,,,,,False,30,111,False,exp3.png,exp4.png,trial_left_image,1,exp3.png,1,exp3.png,exp4.png,1,1,non-reversed,correct,0.9933040213810069,1,valid_win,660.6217763004825,63,,,,,,,,,,,,,s_085,1,2022_Jun_09_1049,Reversal,3.2.4,59.959515473615205,
12,exp1.png,exp2.png,,,,,,,,,,,,,,,,,1,0,1,0,0,12,12,12,,,,,,,,,False,31,112,True,exp2.png,exp1.png,trial_right_image,-1,exp1.png,1,exp2.png,exp1.png,1,3,reversed,incorrect,0.40542407172537154,0,valid_lose,664.95447350014,63,,,,,,,,,,,,,s_085,1,2022_Jun_09_1049,Reversal,3.2.4,59.959515473615205,
13,exp3.png,exp4.png,,,,,,,,,,,,,,,,,1,0,1,0,0,13,13,13,,,,,,,,,False,32,113,True,exp4.png,exp3.png,trial_right_image,-1,exp3.png,1,exp3.png,exp4.png,1,1,non-reversed,correct,0.3997385768729703,1,valid_win,669.2357029998675,64,,,,,,,,,,,,,s_085,1,2022_Jun_09_1049,Reversal,3.2.4,59.959515473615205,
14,exp1.png,exp2.png,,,,,,,,,,,,,,,,,1,0,1,0,0,14,14,14,,,,,,,,,False,33,114,True,exp2.png,exp1.png,trial_right_image,-1,exp1.png,1,exp2.png,exp1.png,1,3,reversed,incorrect,0.48368032355513335,0,valid_lose,673.5342353004962,64,,,,,,,,,,,,,s_085,1,2022_Jun_09_1049,Reversal,3.2.4,59.959515473615205,
15,exp3.png,exp4.png,,,,,,,,,,,,,,,,,1,0,1,0,0,15,15,15,,,,,,,,,False,34,115,False,exp3.png,exp4.png,trial_left_image,1,exp3.png,1,exp3.png,exp4.png,1,1,non-reversed,correct,0.8735539561797455,1,valid_win,678.949352200143,65,,,,,,,,,,,,,s_085,1,2022_Jun_09_1049,Reversal,3.2.4,59.959515473615205,
16,exp1.png,exp2.png,,,,,,,,,,,,,,,,,1,0,1,0,0,16,16,16,,,,,,,,,False,35,116,False,exp1.png,exp2.png,trial_right_image,-1,exp2.png,1,exp2.png,exp1.png,0,4,reversed,correct,0.6275583448975064,1,valid_win,683.5146684003994,66,,,,,,,,,,,,,s_085,1,2022_Jun_09_1049,Reversal,3.2.4,59.959515473615205,
17,exp3.png,exp4.png,,,,,,,,,,,,,,,,,1,0,1,0,0,17,17,17,,,,,,,,,False,36,117,False,exp3.png,exp4.png,trial_left_image,1,exp3.png,1,exp3.png,exp4.png,1,1,non-reversed,correct,0.7015284511510094,1,valid_win,688.6125835003331,67,,,,,,,,,,,,,s_085,1,2022_Jun_09_1049,Reversal,3.2.4,59.959515473615205,
18,exp1.png,exp2.png,,,,,,,,,,,,,,,,,1,0,1,0,0,18,18,18,,,,,,,,,False,37,118,True,exp2.png,exp1.png,trial_left_image,1,exp2.png,1,exp2.png,exp1.png,0,4,reversed,correct,0.7203523297855934,1,valid_win,693.6122770002112,68,,,,,,,,,,,,,s_085,1,2022_Jun_09_1049,Reversal,3.2.4,59.959515473615205,
19,exp3.png,exp4.png,,,,,,,,,,,,,,,,,1,0,1,0,0,19,19,19,,,,,,,,,False,38,119,True,exp4.png,exp3.png,trial_right_image,-1,exp3.png,1,exp3.png,exp4.png,1,1,non-reversed,correct,0.047606438897341175,0,invalid_lose,698.5426857005805,68,,,,,,,,,,,,,s_085,1,2022_Jun_09_1049,Reversal,3.2.4,59.959515473615205,
20,exp1.png,exp2.png,,,,,,,,,,,,,,,,,1,0,1,0,0,20,20,20,,,,,,,,,False,39,120,True,exp2.png,exp1.png,trial_right_image,-1,exp1.png,1,exp2.png,exp1.png,1,3,reversed,incorrect,0.8017843111198635,0,valid_lose,704.2078891005367,68,,,,,,,,,,,,,s_085,1,2022_Jun_09_1049,Reversal,3.2.4,59.959515473615205,
,,,,,,,,,,,,,,,,,,,1,0,1,0,,,,,0,0,0,0,,,,,,,,,,,,,,,,,,,,,,,,,,27,85,81,79,,,,,,,,,s_085,1,2022_Jun_09_1049,Reversal,3.2.4,59.959515473615205,
0,exp1.png,exp2.png,,,,,,,,,,,,,,,,,2,0,2,0,0,0,0,0,,,,,,,,,True,,,,,,,,,,,,,,,,,,,,,,,,,,,,,,,,,s_085,1,2022_Jun_09_1049,Reversal,3.2.4,59.959515473615205,
1,exp3.png,exp4.png,,,,,,,,,,,,,,,,,2,0,2,0,0,1,1,1,,,,,,,,,False,40,121,False,exp3.png,exp4.png,trial_right_image,-1,exp4.png,1,exp3.png,exp4.png,0,2,non-reversed,incorrect,0.8167188305900636,0,valid_lose,729.016062900424,68,,,,,,,,,,,,,s_085,1,2022_Jun_09_1049,Reversal,3.2.4,59.959515473615205,
2,exp1.png,exp2.png,,,,,,,,,,,,,,,,,2,0,2,0,0,2,2,2,,,,,,,,,False,41,122,False,exp1.png,exp2.png,trial_right_image,-1,exp2.png,1,exp2.png,exp1.png,0,4,reversed,correct,0.17252170965888858,0,invalid_lose,733.5810992000625,68,,,,,,,,,,,,,s_085,1,2022_Jun_09_1049,Reversal,3.2.4,59.959515473615205,
3,exp3.png,exp4.png,,,,,,,,,,,,,,,,,2,0,2,0,0,3,3,3,,,,,,,,,False,42,123,True,exp4.png,exp3.png,trial_right_image,-1,exp3.png,1,exp3.png,exp4.png,1,1,non-reversed,correct,0.05829294184938716,0,invalid_lose,739.6952594006434,68,,,,,,,,,,,,,s_085,1,2022_Jun_09_1049,Reversal,3.2.4,59.959515473615205,
4,exp1.png,exp2.png,,,,,,,,,,,,,,,,,2,0,2,0,0,4,4,4,,,,,,,,,False,43,124,False,exp1.png,exp2.png,trial_left_image,1,exp1.png,1,exp2.png,exp1.png,1,3,reversed,incorrect,0.0024362325573402677,1,invalid_win,744.0774779003114,69,,,,,,,,,,,,,s_085,1,2022_Jun_09_1049,Reversal,3.2.4,59.959515473615205,
5,exp3.png,exp4.png,,,,,,,,,,,,,,,,,2,0,2,0,0,5,5,5,,,,,,,,,False,44,125,True,exp4.png,exp3.png,trial_left_image,1,exp4.png,1,exp3.png,exp4.png,0,2,non-reversed,incorrect,0.49728569647317655,0,valid_lose,748.9094505002722,69,,,,,,,,,,,,,s_085,1,2022_Jun_09_1049,Reversal,3.2.4,59.959515473615205,
6,exp1.png,exp2.png,,,,,,,,,,,,,,,,,2,0,2,0,0,6,6,6,,,,,,,,,False,45,126,True,exp2.png,exp1.png,trial_right_image,-1,exp1.png,1,exp2.png,exp1.png,1,3,reversed,incorrect,0.7578123932764551,0,valid_lose,755.1905739000067,69,,,,,,,,,,,,,s_085,1,2022_Jun_09_1049,Reversal,3.2.4,59.959515473615205,
7,exp3.png,exp4.png,,,,,,,,,,,,,,,,,2,0,2,0,0,7,7,7,,,,,,,,,False,46,127,False,exp3.png,exp4.png,trial_left_image,1,exp3.png,1,exp3.png,exp4.png,1,1,non-reversed,correct,0.7878143377993835,1,valid_win,760.0386832999066,70,,,,,,,,,,,,,s_085,1,2022_Jun_09_1049,Reversal,3.2.4,59.959515473615205,
8,exp1.png,exp2.png,,,,,,,,,,,,,,,,,2,0,2,0,0,8,8,8,,,,,,,,,False,47,128,False,exp1.png,exp2.png,trial_right_image,-1,exp2.png,1,exp2.png,exp1.png,0,4,reversed,correct,0.24053576555851952,0,invalid_lose,764.470421699807,70,,,,,,,,,,,,,s_085,1,2022_Jun_09_1049,Reversal,3.2.4,59.959515473615205,
9,exp3.png,exp4.png,,,,,,,,,,,,,,,,,2,0,2,0,0,9,9,9,,,,,,,,,False,48,129,True,exp4.png,exp3.png,trial_right_image,-1,exp3.png,1,exp3.png,exp4.png,1,1,non-reversed,correct,0.6752992213983662,1,valid_win,769.2357096998021,71,,,,,,,,,,,,,s_085,1,2022_Jun_09_1049,Reversal,3.2.4,59.959515473615205,
10,exp1.png,exp2.png,,,,,,,,,,,,,,,,,2,0,2,0,0,10,10,10,,,,,,,,,False,49,130,True,exp2.png,exp1.png,trial_right_image,-1,exp1.png,1,exp2.png,exp1.png,1,3,reversed,incorrect,0.014193081560740839,1,invalid_win,773.9506286000833,72,,,,,,,,,,,,,s_085,1,2022_Jun_09_1049,Reversal,3.2.4,59.959515473615205,
11,exp3.png,exp4.png,,,,,,,,,,,,,,,,,2,0,2,0,0,11,11,11,,,,,,,,,False,50,131,True,exp4.png,exp3.png,trial_right_image,-1,exp3.png,1,exp3.png,exp4.png,1,1,non-reversed,correct,0.05205727339484001,0,invalid_lose,778.8488736003637,72,,,,,,,,,,,,,s_085,1,2022_Jun_09_1049,Reversal,3.2.4,59.959515473615205,
12,exp1.png,exp2.png,,,,,,,,,,,,,,,,,2,0,2,0,0,12,12,12,,,,,,,,,False,51,132,False,exp1.png,exp2.png,trial_left_image,1,exp1.png,1,exp2.png,exp1.png,1,3,reversed,incorrect,0.7349986290500523,0,valid_lose,784.1305716000497,72,,,,,,,,,,,,,s_085,1,2022_Jun_09_1049,Reversal,3.2.4,59.959515473615205,
13,exp3.png,exp4.png,,,,,,,,,,,,,,,,,2,0,2,0,0,13,13,13,,,,,,,,,False,52,133,False,exp3.png,exp4.png,trial_left_image,1,exp3.png,1,exp3.png,exp4.png,1,1,non-reversed,correct,0.9874811751732214,1,valid_win,789.2620673002675,73,,,,,,,,,,,,,s_085,1,2022_Jun_09_1049,Reversal,3.2.4,59.959515473615205,
14,exp1.png,exp2.png,,,,,,,,,,,,,,,,,2,0,2,0,0,14,14,14,,,,,,,,,False,53,134,False,exp1.png,exp2.png,trial_right_image,-1,exp2.png,1,exp2.png,exp1.png,0,4,reversed,correct,0.7318712337808406,1,valid_win,794.0105074001476,74,,,,,,,,,,,,,s_085,1,2022_Jun_09_1049,Reversal,3.2.4,59.959515473615205,
15,exp3.png,exp4.png,,,,,,,,,,,,,,,,,2,0,2,0,0,15,15,15,,,,,,,,,False,54,135,False,exp3.png,exp4.png,trial_left_image,1,exp3.png,1,exp3.png,exp4.png,1,1,non-reversed,correct,0.9133651104870186,1,valid_win,799.2086722003296,75,,,,,,,,,,,,,s_085,1,2022_Jun_09_1049,Reversal,3.2.4,59.959515473615205,
16,exp1.png,exp2.png,,,,,,,,,,,,,,,,,2,0,2,0,0,16,16,16,,,,,,,,,False,55,136,True,exp2.png,exp1.png,trial_left_image,1,exp2.png,1,exp2.png,exp1.png,0,4,reversed,correct,0.7897343213627133,1,valid_win,804.3566111000255,76,,,,,,,,,,,,,s_085,1,2022_Jun_09_1049,Reversal,3.2.4,59.959515473615205,
17,exp3.png,exp4.png,,,,,,,,,,,,,,,,,2,0,2,0,0,17,17,17,,,,,,,,,False,56,137,True,exp4.png,exp3.png,trial_right_image,-1,exp3.png,1,exp3.png,exp4.png,1,1,non-reversed,correct,0.7366659772833932,1,valid_win,810.5730499997735,77,,,,,,,,,,,,,s_085,1,2022_Jun_09_1049,Reversal,3.2.4,59.959515473615205,
18,exp1.png,exp2.png,,,,,,,,,,,,,,,,,2,0,2,0,0,18,18,18,,,,,,,,,False,57,138,True,exp2.png,exp1.png,trial_left_image,1,exp2.png,1,exp2.png,exp1.png,0,4,reversed,correct,0.025209896553180178,0,invalid_lose,815.3701838999987,77,,,,,,,,,,,,,s_085,1,2022_Jun_09_1049,Reversal,3.2.4,59.959515473615205,
19,exp3.png,exp4.png,,,,,,,,,,,,,,,,,2,0,2,0,0,19,19,19,,,,,,,,,False,58,139,False,exp3.png,exp4.png,trial_right_image,-1,exp4.png,1,exp3.png,exp4.png,0,2,non-reversed,incorrect,0.16835970193685235,1,invalid_win,820.7348322998732,78,,,,,,,,,,,,,s_085,1,2022_Jun_09_1049,Reversal,3.2.4,59.959515473615205,
20,exp1.png,exp2.png,,,,,,,,,,,,,,,,,2,0,2,0,0,20,20,20,,,,,,,,,False,59,140,True,exp2.png,exp1.png,trial_right_image,-1,exp1.png,1,exp2.png,exp1.png,1,3,reversed,incorrect,0.13353959526650416,1,invalid_win,826.0001352000982,79,,,,,,,,,,,,,s_085,1,2022_Jun_09_1049,Reversal,3.2.4,59.959515473615205,
,,,,,,,,,,,,,,,,,,,2,0,2,0,,,,,0,0,0,0,,,,,,,,,,,,,,,,,,,,,,,,,,84,82,78,21,,,,,,,,,s_085,1,2022_Jun_09_1049,Reversal,3.2.4,59.959515473615205,
,,,,,,,,,,,,,,,,,,,,,,,,,,,,,,,,,,,,,,,,,,,,,,,,,,,,,,,79,,,,,,99,66,33,339.1633684998378,1,space,17.341884300112724,s_085,1,2022_Jun_09_1049,Reversal,3.2.4,59.959515473615205,
