trial_index,trial_image1_file,trial_image2_file,learning_outer_loop.thisRepN,learning_outer_loop.thisTrialN,learning_outer_loop.thisN,learning_outer_loop.thisIndex,learning_inner_loop.thisRepN,learning_inner_loop.thisTrialN,learning_inner_loop.thisN,learning_inner_loop.thisIndex,learning_estimation_outer_loop.thisRepN,learning_estimation_outer_loop.thisTrialN,learning_estimation_outer_loop.thisN,learning_estimation_outer_loop.thisIndex,learning_estimation_inner_loop.thisRepN,learning_estimation_inner_loop.thisTrialN,learning_estimation_inner_loop.thisN,learning_estimation_inner_loop.thisIndex,reversal_outer_loop.thisRepN,reversal_outer_loop.thisTrialN,reversal_outer_loop.thisN,reversal_outer_loop.thisIndex,reversal_inner_loop.thisRepN,reversal_inner_loop.thisTrialN,reversal_inner_loop.thisN,reversal_inner_loop.thisIndex,reversal_estimation_outer_loop.thisRepN,reversal_estimation_outer_loop.thisTrialN,reversal_estimation_outer_loop.thisN,reversal_estimation_outer_loop.thisIndex,reversal_estimation_inner_loop.thisRepN,reversal_estimation_inner_loop.thisTrialN,reversal_estimation_inner_loop.thisN,reversal_estimation_inner_loop.thisIndex,skipped,total_trial_counter,trial_num,left_right_flip,left_image_file,right_image_file,clicked_stimulus_side,side,clicked_stimulus,version,high_prob_image_file,low_prob_image_file,choice_a,choice_b,pair_type,correct,trial_feedback_random,reward,trial_type,overall_time_after_trial,score,estimation_exp1.png,estimation_exp2.png,estimation_exp3.png,estimation_exp4.png,total_learning_time,total_correct,learning_correct,reversal_correct,total_reversal_time,extra_block,end_experiment.keys,end_experiment.rt,participant,ver,date,expName,psychopyVersion,frameRate,
0,exp1.png,exp2.png,0,0,0,0,0,0,0,0,,,,,,,,,,,,,,,,,,,,,,,,,False,0,1,False,exp1.png,exp2.png,trial_right_image,-1,exp2.png,1,exp1.png,exp2.png,0,4,reversed,incorrect,0.7769245431591307,0,valid_lose,7.342951900034677,0,,,,,,,,,,,,,s_086,1,2022_Jun_19_1741,Reversal,3.2.4,59.84114568329937,
1,exp3.png,exp4.png,0,0,0,0,0,1,1,1,,,,,,,,,,,,,,,,,,,,,,,,,False,1,2,True,exp4.png,exp3.png,trial_right_image,-1,exp3.png,1,exp3.png,exp4.png,1,1,non-reversed,correct,0.3545777862215891,1,valid_win,14.956145800009836,1,,,,,,,,,,,,,s_086,1,2022_Jun_19_1741,Reversal,3.2.4,59.84114568329937,
2,exp1.png,exp2.png,0,0,0,0,0,2,2,2,,,,,,,,,,,,,,,,,,,,,,,,,False,2,3,False,exp1.png,exp2.png,trial_left_image,1,exp1.png,1,exp1.png,exp2.png,1,3,reversed,correct,0.8949235293753709,1,valid_win,20.22165900003165,2,,,,,,,,,,,,,s_086,1,2022_Jun_19_1741,Reversal,3.2.4,59.84114568329937,
3,exp3.png,exp4.png,0,0,0,0,0,3,3,3,,,,,,,,,,,,,,,,,,,,,,,,,False,3,4,True,exp4.png,exp3.png,trial_right_image,-1,exp3.png,1,exp3.png,exp4.png,1,1,non-reversed,correct,0.5306511387377394,1,valid_win,24.486496600031387,3,,,,,,,,,,,,,s_086,1,2022_Jun_19_1741,Reversal,3.2.4,59.84114568329937,
4,exp1.png,exp2.png,0,0,0,0,0,4,4,4,,,,,,,,,,,,,,,,,,,,,,,,,False,4,5,False,exp1.png,exp2.png,trial_left_image,1,exp1.png,1,exp1.png,exp2.png,1,3,reversed,correct,0.022697803064005928,0,invalid_lose,28.93498580000596,3,,,,,,,,,,,,,s_086,1,2022_Jun_19_1741,Reversal,3.2.4,59.84114568329937,
5,exp3.png,exp4.png,0,0,0,0,0,5,5,5,,,,,,,,,,,,,,,,,,,,,,,,,False,5,6,True,exp4.png,exp3.png,trial_right_image,-1,exp3.png,1,exp3.png,exp4.png,1,1,non-reversed,correct,0.3701526681402938,1,valid_win,33.91742010001326,4,,,,,,,,,,,,,s_086,1,2022_Jun_19_1741,Reversal,3.2.4,59.84114568329937,
6,exp1.png,exp2.png,0,0,0,0,0,6,6,6,,,,,,,,,,,,,,,,,,,,,,,,,False,6,7,False,exp1.png,exp2.png,trial_left_image,1,exp1.png,1,exp1.png,exp2.png,1,3,reversed,correct,0.9580237487324821,1,valid_win,38.28169239999261,5,,,,,,,,,,,,,s_086,1,2022_Jun_19_1741,Reversal,3.2.4,59.84114568329937,
7,exp3.png,exp4.png,0,0,0,0,0,7,7,7,,,,,,,,,,,,,,,,,,,,,,,,,False,7,8,False,exp3.png,exp4.png,trial_left_image,1,exp3.png,1,exp3.png,exp4.png,1,1,non-reversed,correct,0.3489662785265143,1,valid_win,42.71431120001944,6,,,,,,,,,,,,,s_086,1,2022_Jun_19_1741,Reversal,3.2.4,59.84114568329937,
8,exp1.png,exp2.png,0,0,0,0,0,8,8,8,,,,,,,,,,,,,,,,,,,,,,,,,False,8,9,True,exp2.png,exp1.png,trial_right_image,-1,exp1.png,1,exp1.png,exp2.png,1,3,reversed,correct,0.14847116417768302,0,invalid_lose,47.19568619999336,6,,,,,,,,,,,,,s_086,1,2022_Jun_19_1741,Reversal,3.2.4,59.84114568329937,
9,exp3.png,exp4.png,0,0,0,0,0,9,9,9,,,,,,,,,,,,,,,,,,,,,,,,,False,9,10,True,exp4.png,exp3.png,trial_right_image,-1,exp3.png,1,exp3.png,exp4.png,1,1,non-reversed,correct,0.045822355346780586,0,invalid_lose,51.31143400003202,6,,,,,,,,,,,,,s_086,1,2022_Jun_19_1741,Reversal,3.2.4,59.84114568329937,
10,exp1.png,exp2.png,0,0,0,0,0,10,10,10,,,,,,,,,,,,,,,,,,,,,,,,,False,10,11,False,exp1.png,exp2.png,trial_right_image,-1,exp2.png,1,exp1.png,exp2.png,0,4,reversed,incorrect,0.23043039722238778,1,invalid_win,55.79307980003068,7,,,,,,,,,,,,,s_086,1,2022_Jun_19_1741,Reversal,3.2.4,59.84114568329937,
11,exp3.png,exp4.png,0,0,0,0,0,11,11,11,,,,,,,,,,,,,,,,,,,,,,,,,False,11,12,False,exp3.png,exp4.png,trial_right_image,-1,exp4.png,1,exp3.png,exp4.png,0,2,non-reversed,incorrect,0.7464648238132843,0,valid_lose,59.97583270003088,7,,,,,,,,,,,,,s_086,1,2022_Jun_19_1741,Reversal,3.2.4,59.84114568329937,
12,exp1.png,exp2.png,0,0,0,0,0,12,12,12,,,,,,,,,,,,,,,,,,,,,,,,,False,12,13,True,exp2.png,exp1.png,trial_left_image,1,exp2.png,1,exp1.png,exp2.png,0,4,reversed,incorrect,0.8645482083199609,0,valid_lose,64.4909500000067,7,,,,,,,,,,,,,s_086,1,2022_Jun_19_1741,Reversal,3.2.4,59.84114568329937,
13,exp3.png,exp4.png,0,0,0,0,0,13,13,13,,,,,,,,,,,,,,,,,,,,,,,,,False,13,14,False,exp3.png,exp4.png,trial_left_image,1,exp3.png,1,exp3.png,exp4.png,1,1,non-reversed,correct,0.4635974818686298,1,valid_win,68.75548230001004,8,,,,,,,,,,,,,s_086,1,2022_Jun_19_1741,Reversal,3.2.4,59.84114568329937,
14,exp1.png,exp2.png,0,0,0,0,0,14,14,14,,,,,,,,,,,,,,,,,,,,,,,,,False,14,15,True,exp2.png,exp1.png,trial_right_image,-1,exp1.png,1,exp1.png,exp2.png,1,3,reversed,correct,0.2874895934103906,1,valid_win,73.1209957000101,9,,,,,,,,,,,,,s_086,1,2022_Jun_19_1741,Reversal,3.2.4,59.84114568329937,
15,exp3.png,exp4.png,0,0,0,0,0,15,15,15,,,,,,,,,,,,,,,,,,,,,,,,,False,15,16,True,exp4.png,exp3.png,trial_right_image,-1,exp3.png,1,exp3.png,exp4.png,1,1,non-reversed,correct,0.12259828525025196,0,invalid_lose,77.38676060002763,9,,,,,,,,,,,,,s_086,1,2022_Jun_19_1741,Reversal,3.2.4,59.84114568329937,
16,exp1.png,exp2.png,0,0,0,0,0,16,16,16,,,,,,,,,,,,,,,,,,,,,,,,,False,16,17,True,exp2.png,exp1.png,trial_right_image,-1,exp1.png,1,exp1.png,exp2.png,1,3,reversed,correct,0.6113389145308123,1,valid_win,81.60046970000258,10,,,,,,,,,,,,,s_086,1,2022_Jun_19_1741,Reversal,3.2.4,59.84114568329937,
17,exp3.png,exp4.png,0,0,0,0,0,17,17,17,,,,,,,,,,,,,,,,,,,,,,,,,False,17,18,False,exp3.png,exp4.png,trial_left_image,1,exp3.png,1,exp3.png,exp4.png,1,1,non-reversed,correct,0.3670007800451346,1,valid_win,86.03293530002702,11,,,,,,,,,,,,,s_086,1,2022_Jun_19_1741,Reversal,3.2.4,59.84114568329937,
18,exp1.png,exp2.png,0,0,0,0,0,18,18,18,,,,,,,,,,,,,,,,,,,,,,,,,False,18,19,True,exp2.png,exp1.png,trial_right_image,-1,exp1.png,1,exp1.png,exp2.png,1,3,reversed,correct,0.5756387966096722,1,valid_win,90.34825330000604,12,,,,,,,,,,,,,s_086,1,2022_Jun_19_1741,Reversal,3.2.4,59.84114568329937,
19,exp3.png,exp4.png,0,0,0,0,0,19,19,19,,,,,,,,,,,,,,,,,,,,,,,,,False,19,20,False,exp3.png,exp4.png,trial_left_image,1,exp3.png,1,exp3.png,exp4.png,1,1,non-reversed,correct,0.8088629795514609,1,valid_win,94.17973209999036,13,,,,,,,,,,,,,s_086,1,2022_Jun_19_1741,Reversal,3.2.4,59.84114568329937,
20,exp1.png,exp2.png,0,0,0,0,0,20,20,20,,,,,,,,,,,,,,,,,,,,,,,,,True,,,,,,,,,,,,,,,,,,,,,,,,,,,,,,,,,s_086,1,2022_Jun_19_1741,Reversal,3.2.4,59.84114568329937,
,,,0,0,0,0,,,,,0,0,0,0,,,,,,,,,,,,,,,,,,,,,,,,,,,,,,,,,,,,,,,,,,72,28,68,41,,,,,,,,,s_086,1,2022_Jun_19_1741,Reversal,3.2.4,59.84114568329937,
0,exp1.png,exp2.png,1,0,1,0,0,0,0,0,,,,,,,,,,,,,,,,,,,,,,,,,False,20,21,True,exp2.png,exp1.png,trial_right_image,-1,exp1.png,1,exp1.png,exp2.png,1,3,reversed,correct,0.39541682789656496,1,valid_win,124.63667610002449,14,,,,,,,,,,,,,s_086,1,2022_Jun_19_1741,Reversal,3.2.4,59.84114568329937,
1,exp3.png,exp4.png,1,0,1,0,0,1,1,1,,,,,,,,,,,,,,,,,,,,,,,,,False,21,22,False,exp3.png,exp4.png,trial_left_image,1,exp3.png,1,exp3.png,exp4.png,1,1,non-reversed,correct,0.09797305268735101,0,invalid_lose,128.98517020000145,14,,,,,,,,,,,,,s_086,1,2022_Jun_19_1741,Reversal,3.2.4,59.84114568329937,
2,exp1.png,exp2.png,1,0,1,0,0,2,2,2,,,,,,,,,,,,,,,,,,,,,,,,,False,22,23,False,exp1.png,exp2.png,trial_left_image,1,exp1.png,1,exp1.png,exp2.png,1,3,reversed,correct,0.27016610182334877,1,valid_win,133.3171156999888,15,,,,,,,,,,,,,s_086,1,2022_Jun_19_1741,Reversal,3.2.4,59.84114568329937,
3,exp3.png,exp4.png,1,0,1,0,0,3,3,3,,,,,,,,,,,,,,,,,,,,,,,,,False,23,24,False,exp3.png,exp4.png,trial_right_image,-1,exp4.png,1,exp3.png,exp4.png,0,2,non-reversed,incorrect,0.28875589692041437,0,valid_lose,137.93324340000981,15,,,,,,,,,,,,,s_086,1,2022_Jun_19_1741,Reversal,3.2.4,59.84114568329937,
4,exp1.png,exp2.png,1,0,1,0,0,4,4,4,,,,,,,,,,,,,,,,,,,,,,,,,False,24,25,True,exp2.png,exp1.png,trial_right_image,-1,exp1.png,1,exp1.png,exp2.png,1,3,reversed,correct,0.8311292301478601,1,valid_win,142.29764509998495,16,,,,,,,,,,,,,s_086,1,2022_Jun_19_1741,Reversal,3.2.4,59.84114568329937,
5,exp3.png,exp4.png,1,0,1,0,0,5,5,5,,,,,,,,,,,,,,,,,,,,,,,,,False,25,26,True,exp4.png,exp3.png,trial_right_image,-1,exp3.png,1,exp3.png,exp4.png,1,1,non-reversed,correct,0.5493260125623058,1,valid_win,146.41267220000736,17,,,,,,,,,,,,,s_086,1,2022_Jun_19_1741,Reversal,3.2.4,59.84114568329937,
6,exp1.png,exp2.png,1,0,1,0,0,6,6,6,,,,,,,,,,,,,,,,,,,,,,,,,False,26,27,True,exp2.png,exp1.png,trial_right_image,-1,exp1.png,1,exp1.png,exp2.png,1,3,reversed,correct,0.8550638257143311,1,valid_win,150.4951794000226,18,,,,,,,,,,,,,s_086,1,2022_Jun_19_1741,Reversal,3.2.4,59.84114568329937,
7,exp3.png,exp4.png,1,0,1,0,0,7,7,7,,,,,,,,,,,,,,,,,,,,,,,,,False,27,28,False,exp3.png,exp4.png,trial_left_image,1,exp3.png,1,exp3.png,exp4.png,1,1,non-reversed,correct,0.44016847381166957,1,valid_win,154.69302569999127,19,,,,,,,,,,,,,s_086,1,2022_Jun_19_1741,Reversal,3.2.4,59.84114568329937,
8,exp1.png,exp2.png,1,0,1,0,0,8,8,8,,,,,,,,,,,,,,,,,,,,,,,,,False,28,29,True,exp2.png,exp1.png,trial_right_image,-1,exp1.png,1,exp1.png,exp2.png,1,3,reversed,correct,0.3502579942688444,1,valid_win,158.7425787000102,20,,,,,,,,,,,,,s_086,1,2022_Jun_19_1741,Reversal,3.2.4,59.84114568329937,
9,exp3.png,exp4.png,1,0,1,0,0,9,9,9,,,,,,,,,,,,,,,,,,,,,,,,,False,29,30,False,exp3.png,exp4.png,trial_left_image,1,exp3.png,1,exp3.png,exp4.png,1,1,non-reversed,correct,0.8319170385414796,1,valid_win,162.9075487999944,21,,,,,,,,,,,,,s_086,1,2022_Jun_19_1741,Reversal,3.2.4,59.84114568329937,
10,exp1.png,exp2.png,1,0,1,0,0,10,10,10,,,,,,,,,,,,,,,,,,,,,,,,,False,30,31,True,exp2.png,exp1.png,trial_right_image,-1,exp1.png,1,exp1.png,exp2.png,1,3,reversed,correct,0.8292089946025981,1,valid_win,167.0725026000291,22,,,,,,,,,,,,,s_086,1,2022_Jun_19_1741,Reversal,3.2.4,59.84114568329937,
11,exp3.png,exp4.png,1,0,1,0,0,11,11,11,,,,,,,,,,,,,,,,,,,,,,,,,False,31,32,False,exp3.png,exp4.png,trial_left_image,1,exp3.png,1,exp3.png,exp4.png,1,1,non-reversed,correct,0.07889191233296233,0,invalid_lose,171.47051080001984,22,,,,,,,,,,,,,s_086,1,2022_Jun_19_1741,Reversal,3.2.4,59.84114568329937,
12,exp1.png,exp2.png,1,0,1,0,0,12,12,12,,,,,,,,,,,,,,,,,,,,,,,,,False,32,33,True,exp2.png,exp1.png,trial_right_image,-1,exp1.png,1,exp1.png,exp2.png,1,3,reversed,correct,0.45078781478955554,1,valid_win,175.4867374000023,23,,,,,,,,,,,,,s_086,1,2022_Jun_19_1741,Reversal,3.2.4,59.84114568329937,
13,exp3.png,exp4.png,1,0,1,0,0,13,13,13,,,,,,,,,,,,,,,,,,,,,,,,,False,33,34,False,exp3.png,exp4.png,trial_left_image,1,exp3.png,1,exp3.png,exp4.png,1,1,non-reversed,correct,0.5450380667439196,1,valid_win,179.63502169999992,24,,,,,,,,,,,,,s_086,1,2022_Jun_19_1741,Reversal,3.2.4,59.84114568329937,
14,exp1.png,exp2.png,1,0,1,0,0,14,14,14,,,,,,,,,,,,,,,,,,,,,,,,,False,34,35,True,exp2.png,exp1.png,trial_right_image,-1,exp1.png,1,exp1.png,exp2.png,1,3,reversed,correct,0.6981706357377713,1,valid_win,183.8340950999991,25,,,,,,,,,,,,,s_086,1,2022_Jun_19_1741,Reversal,3.2.4,59.84114568329937,
15,exp3.png,exp4.png,1,0,1,0,0,15,15,15,,,,,,,,,,,,,,,,,,,,,,,,,False,35,36,False,exp3.png,exp4.png,trial_left_image,1,exp3.png,1,exp3.png,exp4.png,1,1,non-reversed,correct,0.9157965385670123,1,valid_win,187.9150709999958,26,,,,,,,,,,,,,s_086,1,2022_Jun_19_1741,Reversal,3.2.4,59.84114568329937,
16,exp1.png,exp2.png,1,0,1,0,0,16,16,16,,,,,,,,,,,,,,,,,,,,,,,,,False,36,37,False,exp1.png,exp2.png,trial_left_image,1,exp1.png,1,exp1.png,exp2.png,1,3,reversed,correct,0.8219146471978844,1,valid_win,192.09812580002472,27,,,,,,,,,,,,,s_086,1,2022_Jun_19_1741,Reversal,3.2.4,59.84114568329937,
17,exp3.png,exp4.png,1,0,1,0,0,17,17,17,,,,,,,,,,,,,,,,,,,,,,,,,False,37,38,True,exp4.png,exp3.png,trial_right_image,-1,exp3.png,1,exp3.png,exp4.png,1,1,non-reversed,correct,0.16701054965592688,0,invalid_lose,196.22892550000688,27,,,,,,,,,,,,,s_086,1,2022_Jun_19_1741,Reversal,3.2.4,59.84114568329937,
18,exp1.png,exp2.png,1,0,1,0,0,18,18,18,,,,,,,,,,,,,,,,,,,,,,,,,False,38,39,False,exp1.png,exp2.png,trial_left_image,1,exp1.png,1,exp1.png,exp2.png,1,3,reversed,correct,0.22311677283238573,0,invalid_lose,200.47789430001285,27,,,,,,,,,,,,,s_086,1,2022_Jun_19_1741,Reversal,3.2.4,59.84114568329937,
19,exp3.png,exp4.png,1,0,1,0,0,19,19,19,,,,,,,,,,,,,,,,,,,,,,,,,False,39,40,True,exp4.png,exp3.png,trial_right_image,-1,exp3.png,1,exp3.png,exp4.png,1,1,non-reversed,correct,0.4068164918104006,1,valid_win,204.6767426999868,28,,,,,,,,,,,,,s_086,1,2022_Jun_19_1741,Reversal,3.2.4,59.84114568329937,
20,exp1.png,exp2.png,1,0,1,0,0,20,20,20,,,,,,,,,,,,,,,,,,,,,,,,,True,,,,,,,,,,,,,,,,,,,,,,,,,,,,,,,,,s_086,1,2022_Jun_19_1741,Reversal,3.2.4,59.84114568329937,
,,,1,0,1,0,,,,,0,0,0,0,,,,,,,,,,,,,,,,,,,,,,,,,,,,,,,,,,,,,,,,,,78,21,62,36,,,,,,,,,s_086,1,2022_Jun_19_1741,Reversal,3.2.4,59.84114568329937,
0,exp1.png,exp2.png,2,0,2,0,0,0,0,0,,,,,,,,,,,,,,,,,,,,,,,,,False,40,41,False,exp1.png,exp2.png,trial_right_image,-1,exp2.png,1,exp1.png,exp2.png,0,4,reversed,incorrect,0.41704415283357665,0,valid_lose,222.18676280003274,28,,,,,,,,,,,,,s_086,1,2022_Jun_19_1741,Reversal,3.2.4,59.84114568329937,
1,exp3.png,exp4.png,2,0,2,0,0,1,1,1,,,,,,,,,,,,,,,,,,,,,,,,,False,41,42,True,exp4.png,exp3.png,trial_right_image,-1,exp3.png,1,exp3.png,exp4.png,1,1,non-reversed,correct,0.41228523062148237,1,valid_win,226.33553949999623,29,,,,,,,,,,,,,s_086,1,2022_Jun_19_1741,Reversal,3.2.4,59.84114568329937,
2,exp1.png,exp2.png,2,0,2,0,0,2,2,2,,,,,,,,,,,,,,,,,,,,,,,,,False,42,43,False,exp1.png,exp2.png,trial_left_image,1,exp1.png,1,exp1.png,exp2.png,1,3,reversed,correct,0.26325972661955965,1,valid_win,230.50186329998542,30,,,,,,,,,,,,,s_086,1,2022_Jun_19_1741,Reversal,3.2.4,59.84114568329937,
3,exp3.png,exp4.png,2,0,2,0,0,3,3,3,,,,,,,,,,,,,,,,,,,,,,,,,False,43,44,True,exp4.png,exp3.png,trial_right_image,-1,exp3.png,1,exp3.png,exp4.png,1,1,non-reversed,correct,0.15041457769124467,0,invalid_lose,234.65010959998472,30,,,,,,,,,,,,,s_086,1,2022_Jun_19_1741,Reversal,3.2.4,59.84114568329937,
4,exp1.png,exp2.png,2,0,2,0,0,4,4,4,,,,,,,,,,,,,,,,,,,,,,,,,False,44,45,False,exp1.png,exp2.png,trial_left_image,1,exp1.png,1,exp1.png,exp2.png,1,3,reversed,correct,0.20600923629988832,0,invalid_lose,238.83105420001084,30,,,,,,,,,,,,,s_086,1,2022_Jun_19_1741,Reversal,3.2.4,59.84114568329937,
5,exp3.png,exp4.png,2,0,2,0,0,5,5,5,,,,,,,,,,,,,,,,,,,,,,,,,False,45,46,False,exp3.png,exp4.png,trial_right_image,-1,exp4.png,1,exp3.png,exp4.png,0,2,non-reversed,incorrect,0.2760726806826017,0,valid_lose,242.7809015000239,30,,,,,,,,,,,,,s_086,1,2022_Jun_19_1741,Reversal,3.2.4,59.84114568329937,
6,exp1.png,exp2.png,2,0,2,0,0,6,6,6,,,,,,,,,,,,,,,,,,,,,,,,,False,46,47,True,exp2.png,exp1.png,trial_right_image,-1,exp1.png,1,exp1.png,exp2.png,1,3,reversed,correct,0.2681360409832423,1,valid_win,246.92915290000383,31,,,,,,,,,,,,,s_086,1,2022_Jun_19_1741,Reversal,3.2.4,59.84114568329937,
7,exp3.png,exp4.png,2,0,2,0,0,7,7,7,,,,,,,,,,,,,,,,,,,,,,,,,False,47,48,False,exp3.png,exp4.png,trial_left_image,1,exp3.png,1,exp3.png,exp4.png,1,1,non-reversed,correct,0.23612977954384662,0,invalid_lose,251.0942081999965,31,,,,,,,,,,,,,s_086,1,2022_Jun_19_1741,Reversal,3.2.4,59.84114568329937,
8,exp1.png,exp2.png,2,0,2,0,0,8,8,8,,,,,,,,,,,,,,,,,,,,,,,,,False,48,49,False,exp1.png,exp2.png,trial_left_image,1,exp1.png,1,exp1.png,exp2.png,1,3,reversed,correct,0.2707589342062152,1,valid_win,255.09269369998947,32,,,,,,,,,,,,,s_086,1,2022_Jun_19_1741,Reversal,3.2.4,59.84114568329937,
9,exp3.png,exp4.png,2,0,2,0,0,9,9,9,,,,,,,,,,,,,,,,,,,,,,,,,False,49,50,True,exp4.png,exp3.png,trial_right_image,-1,exp3.png,1,exp3.png,exp4.png,1,1,non-reversed,correct,0.5037754609650467,1,valid_win,259.60850319999736,33,,,,,,,,,,,,,s_086,1,2022_Jun_19_1741,Reversal,3.2.4,59.84114568329937,
10,exp1.png,exp2.png,2,0,2,0,0,10,10,10,,,,,,,,,,,,,,,,,,,,,,,,,False,50,51,True,exp2.png,exp1.png,trial_right_image,-1,exp1.png,1,exp1.png,exp2.png,1,3,reversed,correct,0.650378333882006,1,valid_win,263.74068859999534,34,,,,,,,,,,,,,s_086,1,2022_Jun_19_1741,Reversal,3.2.4,59.84114568329937,
11,exp3.png,exp4.png,2,0,2,0,0,11,11,11,,,,,,,,,,,,,,,,,,,,,,,,,False,51,52,False,exp3.png,exp4.png,trial_left_image,1,exp3.png,1,exp3.png,exp4.png,1,1,non-reversed,correct,0.8229331274853942,1,valid_win,268.23795119998977,35,,,,,,,,,,,,,s_086,1,2022_Jun_19_1741,Reversal,3.2.4,59.84114568329937,
12,exp1.png,exp2.png,2,0,2,0,0,12,12,12,,,,,,,,,,,,,,,,,,,,,,,,,False,52,53,True,exp2.png,exp1.png,trial_right_image,-1,exp1.png,1,exp1.png,exp2.png,1,3,reversed,correct,0.8057207103243084,1,valid_win,272.12061009998433,36,,,,,,,,,,,,,s_086,1,2022_Jun_19_1741,Reversal,3.2.4,59.84114568329937,
13,exp3.png,exp4.png,2,0,2,0,0,13,13,13,,,,,,,,,,,,,,,,,,,,,,,,,False,53,54,True,exp4.png,exp3.png,trial_right_image,-1,exp3.png,1,exp3.png,exp4.png,1,1,non-reversed,correct,0.3120850473838507,1,valid_win,276.23627190000843,37,,,,,,,,,,,,,s_086,1,2022_Jun_19_1741,Reversal,3.2.4,59.84114568329937,
14,exp1.png,exp2.png,2,0,2,0,0,14,14,14,,,,,,,,,,,,,,,,,,,,,,,,,False,54,55,False,exp1.png,exp2.png,trial_left_image,1,exp1.png,1,exp1.png,exp2.png,1,3,reversed,correct,0.6911033310732658,1,valid_win,280.70021780004026,38,,,,,,,,,,,,,s_086,1,2022_Jun_19_1741,Reversal,3.2.4,59.84114568329937,
15,exp3.png,exp4.png,2,0,2,0,0,15,15,15,,,,,,,,,,,,,,,,,,,,,,,,,False,55,56,True,exp4.png,exp3.png,trial_right_image,-1,exp3.png,1,exp3.png,exp4.png,1,1,non-reversed,correct,0.775407323753762,1,valid_win,284.94903339998564,39,,,,,,,,,,,,,s_086,1,2022_Jun_19_1741,Reversal,3.2.4,59.84114568329937,
16,exp1.png,exp2.png,2,0,2,0,0,16,16,16,,,,,,,,,,,,,,,,,,,,,,,,,False,56,57,False,exp1.png,exp2.png,trial_left_image,1,exp1.png,1,exp1.png,exp2.png,1,3,reversed,correct,0.4119473058411537,1,valid_win,288.9313596999855,40,,,,,,,,,,,,,s_086,1,2022_Jun_19_1741,Reversal,3.2.4,59.84114568329937,
17,exp3.png,exp4.png,2,0,2,0,0,17,17,17,,,,,,,,,,,,,,,,,,,,,,,,,False,57,58,False,exp3.png,exp4.png,trial_left_image,1,exp3.png,1,exp3.png,exp4.png,1,1,non-reversed,correct,0.4173134207600726,1,valid_win,293.0957577000372,41,,,,,,,,,,,,,s_086,1,2022_Jun_19_1741,Reversal,3.2.4,59.84114568329937,
18,exp1.png,exp2.png,2,0,2,0,0,18,18,18,,,,,,,,,,,,,,,,,,,,,,,,,False,58,59,True,exp2.png,exp1.png,trial_right_image,-1,exp1.png,1,exp1.png,exp2.png,1,3,reversed,correct,0.0770786431215148,0,invalid_lose,297.1286761999945,41,,,,,,,,,,,,,s_086,1,2022_Jun_19_1741,Reversal,3.2.4,59.84114568329937,
19,exp3.png,exp4.png,2,0,2,0,0,19,19,19,,,,,,,,,,,,,,,,,,,,,,,,,False,59,60,True,exp4.png,exp3.png,trial_right_image,-1,exp3.png,1,exp3.png,exp4.png,1,1,non-reversed,correct,0.7369195537961032,1,valid_win,301.26083380001364,42,,,,,,,,,,,,,s_086,1,2022_Jun_19_1741,Reversal,3.2.4,59.84114568329937,
20,exp1.png,exp2.png,2,0,2,0,0,20,20,20,,,,,,,,,,,,,,,,,,,,,,,,,True,,,,,,,,,,,,,,,,,,,,,,,,,,,,,,,,,s_086,1,2022_Jun_19_1741,Reversal,3.2.4,59.84114568329937,
,,,2,0,2,0,,,,,0,0,0,0,,,,,,,,,,,,,,,,,,,,,,,,,,,,,,,,,,,,,,,,,,78,19,70,38,,,,,,,,,s_086,1,2022_Jun_19_1741,Reversal,3.2.4,59.84114568329937,
0,exp1.png,exp2.png,,,,,,,,,,,,,,,,,0,0,0,0,0,0,0,0,,,,,,,,,False,0,61,True,exp2.png,exp1.png,trial_right_image,-1,exp1.png,1,exp2.png,exp1.png,1,3,reversed,incorrect,0.6189932359830727,0,valid_lose,316.8389545000391,42,,,,,315.02095129998634,,,,,,,,s_086,1,2022_Jun_19_1741,Reversal,3.2.4,59.84114568329937,
1,exp3.png,exp4.png,,,,,,,,,,,,,,,,,0,0,0,0,0,1,1,1,,,,,,,,,False,1,62,True,exp4.png,exp3.png,trial_right_image,-1,exp3.png,1,exp3.png,exp4.png,1,1,non-reversed,correct,0.22336471732907515,0,invalid_lose,322.33673790004104,42,,,,,,,,,,,,,s_086,1,2022_Jun_19_1741,Reversal,3.2.4,59.84114568329937,
2,exp1.png,exp2.png,,,,,,,,,,,,,,,,,0,0,0,0,0,2,2,2,,,,,,,,,False,2,63,True,exp2.png,exp1.png,trial_right_image,-1,exp1.png,1,exp2.png,exp1.png,1,3,reversed,incorrect,0.4130604238293971,0,valid_lose,326.9516489999951,42,,,,,,,,,,,,,s_086,1,2022_Jun_19_1741,Reversal,3.2.4,59.84114568329937,
3,exp3.png,exp4.png,,,,,,,,,,,,,,,,,0,0,0,0,0,3,3,3,,,,,,,,,False,3,64,True,exp4.png,exp3.png,trial_left_image,1,exp4.png,1,exp3.png,exp4.png,0,2,non-reversed,incorrect,0.09958316198921069,1,invalid_win,331.0340712000034,43,,,,,,,,,,,,,s_086,1,2022_Jun_19_1741,Reversal,3.2.4,59.84114568329937,
4,exp1.png,exp2.png,,,,,,,,,,,,,,,,,0,0,0,0,0,4,4,4,,,,,,,,,False,4,65,False,exp1.png,exp2.png,trial_right_image,-1,exp2.png,1,exp2.png,exp1.png,0,4,reversed,correct,0.06584876773243353,0,invalid_lose,335.11677419999614,43,,,,,,,,,,,,,s_086,1,2022_Jun_19_1741,Reversal,3.2.4,59.84114568329937,
5,exp3.png,exp4.png,,,,,,,,,,,,,,,,,0,0,0,0,0,5,5,5,,,,,,,,,False,5,66,False,exp3.png,exp4.png,trial_right_image,-1,exp4.png,1,exp3.png,exp4.png,0,2,non-reversed,incorrect,0.5878449441699767,0,valid_lose,339.248202399991,43,,,,,,,,,,,,,s_086,1,2022_Jun_19_1741,Reversal,3.2.4,59.84114568329937,
6,exp1.png,exp2.png,,,,,,,,,,,,,,,,,0,0,0,0,0,6,6,6,,,,,,,,,False,6,67,True,exp2.png,exp1.png,trial_right_image,-1,exp1.png,1,exp2.png,exp1.png,1,3,reversed,incorrect,0.23869054321380478,1,invalid_win,343.79580299998634,44,,,,,,,,,,,,,s_086,1,2022_Jun_19_1741,Reversal,3.2.4,59.84114568329937,
7,exp3.png,exp4.png,,,,,,,,,,,,,,,,,0,0,0,0,0,7,7,7,,,,,,,,,False,7,68,False,exp3.png,exp4.png,trial_left_image,1,exp3.png,1,exp3.png,exp4.png,1,1,non-reversed,correct,0.01996685553069888,0,invalid_lose,348.21140700002434,44,,,,,,,,,,,,,s_086,1,2022_Jun_19_1741,Reversal,3.2.4,59.84114568329937,
8,exp1.png,exp2.png,,,,,,,,,,,,,,,,,0,0,0,0,0,8,8,8,,,,,,,,,False,8,69,False,exp1.png,exp2.png,trial_right_image,-1,exp2.png,1,exp2.png,exp1.png,0,4,reversed,correct,0.9475087830582304,1,valid_win,352.66081070003565,45,,,,,,,,,,,,,s_086,1,2022_Jun_19_1741,Reversal,3.2.4,59.84114568329937,
9,exp3.png,exp4.png,,,,,,,,,,,,,,,,,0,0,0,0,0,9,9,9,,,,,,,,,False,9,70,True,exp4.png,exp3.png,trial_left_image,1,exp4.png,1,exp3.png,exp4.png,0,2,non-reversed,incorrect,0.961957283348015,0,valid_lose,357.0090030999854,45,,,,,,,,,,,,,s_086,1,2022_Jun_19_1741,Reversal,3.2.4,59.84114568329937,
10,exp1.png,exp2.png,,,,,,,,,,,,,,,,,0,0,0,0,0,10,10,10,,,,,,,,,False,10,71,False,exp1.png,exp2.png,trial_right_image,-1,exp2.png,1,exp2.png,exp1.png,0,4,reversed,correct,0.41940008224684433,1,valid_win,361.02403120003873,46,,,,,,,,,,,,,s_086,1,2022_Jun_19_1741,Reversal,3.2.4,59.84114568329937,
11,exp3.png,exp4.png,,,,,,,,,,,,,,,,,0,0,0,0,0,11,11,11,,,,,,,,,False,11,72,True,exp4.png,exp3.png,trial_right_image,-1,exp3.png,1,exp3.png,exp4.png,1,1,non-reversed,correct,0.45047252411460037,1,valid_win,365.22257640003227,47,,,,,,,,,,,,,s_086,1,2022_Jun_19_1741,Reversal,3.2.4,59.84114568329937,
12,exp1.png,exp2.png,,,,,,,,,,,,,,,,,0,0,0,0,0,12,12,12,,,,,,,,,False,12,73,False,exp1.png,exp2.png,trial_right_image,-1,exp2.png,1,exp2.png,exp1.png,0,4,reversed,correct,0.731092314794897,1,valid_win,369.4545356000308,48,,,,,,,,,,,,,s_086,1,2022_Jun_19_1741,Reversal,3.2.4,59.84114568329937,
13,exp3.png,exp4.png,,,,,,,,,,,,,,,,,0,0,0,0,0,13,13,13,,,,,,,,,False,13,74,True,exp4.png,exp3.png,trial_right_image,-1,exp3.png,1,exp3.png,exp4.png,1,1,non-reversed,correct,0.35233555450062015,1,valid_win,373.4857342999894,49,,,,,,,,,,,,,s_086,1,2022_Jun_19_1741,Reversal,3.2.4,59.84114568329937,
14,exp1.png,exp2.png,,,,,,,,,,,,,,,,,0,0,0,0,0,14,14,14,,,,,,,,,False,14,75,False,exp1.png,exp2.png,trial_right_image,-1,exp2.png,1,exp2.png,exp1.png,0,4,reversed,correct,0.9830685495237856,1,valid_win,377.5518061000039,50,,,,,,,,,,,,,s_086,1,2022_Jun_19_1741,Reversal,3.2.4,59.84114568329937,
15,exp3.png,exp4.png,,,,,,,,,,,,,,,,,0,0,0,0,0,15,15,15,,,,,,,,,False,15,76,False,exp3.png,exp4.png,trial_left_image,1,exp3.png,1,exp3.png,exp4.png,1,1,non-reversed,correct,0.48098999027510425,1,valid_win,382.00104930001544,51,,,,,,,,,,,,,s_086,1,2022_Jun_19_1741,Reversal,3.2.4,59.84114568329937,
16,exp1.png,exp2.png,,,,,,,,,,,,,,,,,0,0,0,0,0,16,16,16,,,,,,,,,False,16,77,False,exp1.png,exp2.png,trial_right_image,-1,exp2.png,1,exp2.png,exp1.png,0,4,reversed,correct,0.7286420412025506,1,valid_win,386.08226320001995,52,,,,,,,,,,,,,s_086,1,2022_Jun_19_1741,Reversal,3.2.4,59.84114568329937,
17,exp3.png,exp4.png,,,,,,,,,,,,,,,,,0,0,0,0,0,17,17,17,,,,,,,,,False,17,78,False,exp3.png,exp4.png,trial_left_image,1,exp3.png,1,exp3.png,exp4.png,1,1,non-reversed,correct,0.4412714962300396,1,valid_win,390.0641179000377,53,,,,,,,,,,,,,s_086,1,2022_Jun_19_1741,Reversal,3.2.4,59.84114568329937,
18,exp1.png,exp2.png,,,,,,,,,,,,,,,,,0,0,0,0,0,18,18,18,,,,,,,,,False,18,79,True,exp2.png,exp1.png,trial_left_image,1,exp2.png,1,exp2.png,exp1.png,0,4,reversed,correct,0.6760013888428913,1,valid_win,394.32980710000265,54,,,,,,,,,,,,,s_086,1,2022_Jun_19_1741,Reversal,3.2.4,59.84114568329937,
19,exp3.png,exp4.png,,,,,,,,,,,,,,,,,0,0,0,0,0,19,19,19,,,,,,,,,False,19,80,True,exp4.png,exp3.png,trial_right_image,-1,exp3.png,1,exp3.png,exp4.png,1,1,non-reversed,correct,0.06895270189050606,0,invalid_lose,398.744949200016,54,,,,,,,,,,,,,s_086,1,2022_Jun_19_1741,Reversal,3.2.4,59.84114568329937,
20,exp1.png,exp2.png,,,,,,,,,,,,,,,,,0,0,0,0,0,20,20,20,,,,,,,,,True,,,,,,,,,,,,,,,,,,,,,,,,,,,,,,,,,s_086,1,2022_Jun_19_1741,Reversal,3.2.4,59.84114568329937,
,,,,,,,,,,,,,,,,,,,0,0,0,0,,,,,0,0,0,0,,,,,,,,,,,,,,,,,,,,,,,,,,26,75,68,31,,,,,,,,,s_086,1,2022_Jun_19_1741,Reversal,3.2.4,59.84114568329937,
0,exp1.png,exp2.png,,,,,,,,,,,,,,,,,1,0,1,0,0,0,0,0,,,,,,,,,False,20,81,True,exp2.png,exp1.png,trial_right_image,-1,exp1.png,1,exp2.png,exp1.png,1,3,reversed,incorrect,0.5463515212848766,0,valid_lose,414.15525350003736,54,,,,,,,,,,,,,s_086,1,2022_Jun_19_1741,Reversal,3.2.4,59.84114568329937,
1,exp3.png,exp4.png,,,,,,,,,,,,,,,,,1,0,1,0,0,1,1,1,,,,,,,,,False,21,82,True,exp4.png,exp3.png,trial_right_image,-1,exp3.png,1,exp3.png,exp4.png,1,1,non-reversed,correct,0.12461389481642715,0,invalid_lose,418.18772440002067,54,,,,,,,,,,,,,s_086,1,2022_Jun_19_1741,Reversal,3.2.4,59.84114568329937,
2,exp1.png,exp2.png,,,,,,,,,,,,,,,,,1,0,1,0,0,2,2,2,,,,,,,,,False,22,83,False,exp1.png,exp2.png,trial_right_image,-1,exp2.png,1,exp2.png,exp1.png,0,4,reversed,correct,0.5338974621949732,1,valid_win,422.22083080001175,55,,,,,,,,,,,,,s_086,1,2022_Jun_19_1741,Reversal,3.2.4,59.84114568329937,
3,exp3.png,exp4.png,,,,,,,,,,,,,,,,,1,0,1,0,0,3,3,3,,,,,,,,,False,23,84,False,exp3.png,exp4.png,trial_right_image,-1,exp4.png,1,exp3.png,exp4.png,0,2,non-reversed,incorrect,0.9720656922254248,0,valid_lose,426.31811649998417,55,,,,,,,,,,,,,s_086,1,2022_Jun_19_1741,Reversal,3.2.4,59.84114568329937,
4,exp1.png,exp2.png,,,,,,,,,,,,,,,,,1,0,1,0,0,4,4,4,,,,,,,,,False,24,85,True,exp2.png,exp1.png,trial_left_image,1,exp2.png,1,exp2.png,exp1.png,0,4,reversed,correct,0.7963755001767588,1,valid_win,430.9838003999903,56,,,,,,,,,,,,,s_086,1,2022_Jun_19_1741,Reversal,3.2.4,59.84114568329937,
5,exp3.png,exp4.png,,,,,,,,,,,,,,,,,1,0,1,0,0,5,5,5,,,,,,,,,False,25,86,False,exp3.png,exp4.png,trial_right_image,-1,exp4.png,1,exp3.png,exp4.png,0,2,non-reversed,incorrect,0.8454506431465378,0,valid_lose,435.0326494000037,56,,,,,,,,,,,,,s_086,1,2022_Jun_19_1741,Reversal,3.2.4,59.84114568329937,
6,exp1.png,exp2.png,,,,,,,,,,,,,,,,,1,0,1,0,0,6,6,6,,,,,,,,,False,26,87,True,exp2.png,exp1.png,trial_left_image,1,exp2.png,1,exp2.png,exp1.png,0,4,reversed,correct,0.9284187709167266,1,valid_win,439.01407480001217,57,,,,,,,,,,,,,s_086,1,2022_Jun_19_1741,Reversal,3.2.4,59.84114568329937,
7,exp3.png,exp4.png,,,,,,,,,,,,,,,,,1,0,1,0,0,7,7,7,,,,,,,,,False,27,88,True,exp4.png,exp3.png,trial_right_image,-1,exp3.png,1,exp3.png,exp4.png,1,1,non-reversed,correct,0.6848162961327232,1,valid_win,443.0307599999942,58,,,,,,,,,,,,,s_086,1,2022_Jun_19_1741,Reversal,3.2.4,59.84114568329937,
8,exp1.png,exp2.png,,,,,,,,,,,,,,,,,1,0,1,0,0,8,8,8,,,,,,,,,False,28,89,False,exp1.png,exp2.png,trial_right_image,-1,exp2.png,1,exp2.png,exp1.png,0,4,reversed,correct,0.43674265257124145,1,valid_win,447.34525050001685,59,,,,,,,,,,,,,s_086,1,2022_Jun_19_1741,Reversal,3.2.4,59.84114568329937,
9,exp3.png,exp4.png,,,,,,,,,,,,,,,,,1,0,1,0,0,9,9,9,,,,,,,,,False,29,90,True,exp4.png,exp3.png,trial_right_image,-1,exp3.png,1,exp3.png,exp4.png,1,1,non-reversed,correct,0.11865719602686498,0,invalid_lose,451.42606940004043,59,,,,,,,,,,,,,s_086,1,2022_Jun_19_1741,Reversal,3.2.4,59.84114568329937,
10,exp1.png,exp2.png,,,,,,,,,,,,,,,,,1,0,1,0,0,10,10,10,,,,,,,,,False,30,91,False,exp1.png,exp2.png,trial_right_image,-1,exp2.png,1,exp2.png,exp1.png,0,4,reversed,correct,0.12126330998764989,0,invalid_lose,455.60832699999446,59,,,,,,,,,,,,,s_086,1,2022_Jun_19_1741,Reversal,3.2.4,59.84114568329937,
11,exp3.png,exp4.png,,,,,,,,,,,,,,,,,1,0,1,0,0,11,11,11,,,,,,,,,False,31,92,True,exp4.png,exp3.png,trial_right_image,-1,exp3.png,1,exp3.png,exp4.png,1,1,non-reversed,correct,0.6011004441953678,1,valid_win,459.5251922000316,60,,,,,,,,,,,,,s_086,1,2022_Jun_19_1741,Reversal,3.2.4,59.84114568329937,
12,exp1.png,exp2.png,,,,,,,,,,,,,,,,,1,0,1,0,0,12,12,12,,,,,,,,,False,32,93,False,exp1.png,exp2.png,trial_right_image,-1,exp2.png,1,exp2.png,exp1.png,0,4,reversed,correct,0.011201575963345922,0,invalid_lose,463.5894554000115,60,,,,,,,,,,,,,s_086,1,2022_Jun_19_1741,Reversal,3.2.4,59.84114568329937,
13,exp3.png,exp4.png,,,,,,,,,,,,,,,,,1,0,1,0,0,13,13,13,,,,,,,,,False,33,94,False,exp3.png,exp4.png,trial_right_image,-1,exp4.png,1,exp3.png,exp4.png,0,2,non-reversed,incorrect,0.6820603870552897,0,valid_lose,467.52182060002815,60,,,,,,,,,,,,,s_086,1,2022_Jun_19_1741,Reversal,3.2.4,59.84114568329937,
14,exp1.png,exp2.png,,,,,,,,,,,,,,,,,1,0,1,0,0,14,14,14,,,,,,,,,False,34,95,True,exp2.png,exp1.png,trial_right_image,-1,exp1.png,1,exp2.png,exp1.png,1,3,reversed,incorrect,0.07864235888044269,1,invalid_win,471.52040280000074,61,,,,,,,,,,,,,s_086,1,2022_Jun_19_1741,Reversal,3.2.4,59.84114568329937,
15,exp3.png,exp4.png,,,,,,,,,,,,,,,,,1,0,1,0,0,15,15,15,,,,,,,,,False,35,96,True,exp4.png,exp3.png,trial_right_image,-1,exp3.png,1,exp3.png,exp4.png,1,1,non-reversed,correct,0.9089822277702906,1,valid_win,475.5022365000332,62,,,,,,,,,,,,,s_086,1,2022_Jun_19_1741,Reversal,3.2.4,59.84114568329937,
16,exp1.png,exp2.png,,,,,,,,,,,,,,,,,1,0,1,0,0,16,16,16,,,,,,,,,False,36,97,False,exp1.png,exp2.png,trial_right_image,-1,exp2.png,1,exp2.png,exp1.png,0,4,reversed,correct,0.04079657721250041,0,invalid_lose,479.53443659999175,62,,,,,,,,,,,,,s_086,1,2022_Jun_19_1741,Reversal,3.2.4,59.84114568329937,
17,exp3.png,exp4.png,,,,,,,,,,,,,,,,,1,0,1,0,0,17,17,17,,,,,,,,,False,37,98,False,exp3.png,exp4.png,trial_left_image,1,exp3.png,1,exp3.png,exp4.png,1,1,non-reversed,correct,0.17770702687284845,0,invalid_lose,483.6662873000023,62,,,,,,,,,,,,,s_086,1,2022_Jun_19_1741,Reversal,3.2.4,59.84114568329937,
18,exp1.png,exp2.png,,,,,,,,,,,,,,,,,1,0,1,0,0,18,18,18,,,,,,,,,False,38,99,False,exp1.png,exp2.png,trial_left_image,1,exp1.png,1,exp2.png,exp1.png,1,3,reversed,incorrect,0.9999648271173782,0,valid_lose,487.79782750003505,62,,,,,,,,,,,,,s_086,1,2022_Jun_19_1741,Reversal,3.2.4,59.84114568329937,
19,exp3.png,exp4.png,,,,,,,,,,,,,,,,,1,0,1,0,0,19,19,19,,,,,,,,,False,39,100,True,exp4.png,exp3.png,trial_right_image,-1,exp3.png,1,exp3.png,exp4.png,1,1,non-reversed,correct,0.7765878420997676,1,valid_win,491.83051709999563,63,,,,,,,,,,,,,s_086,1,2022_Jun_19_1741,Reversal,3.2.4,59.84114568329937,
20,exp1.png,exp2.png,,,,,,,,,,,,,,,,,1,0,1,0,0,20,20,20,,,,,,,,,True,,,,,,,,,,,,,,,,,,,,,,,,,,,,,,,,,s_086,1,2022_Jun_19_1741,Reversal,3.2.4,59.84114568329937,
,,,,,,,,,,,,,,,,,,,1,0,1,0,,,,,0,0,0,0,,,,,,,,,,,,,,,,,,,,,,,,,,54,56,46,41,,,,,,,,,s_086,1,2022_Jun_19_1741,Reversal,3.2.4,59.84114568329937,
0,exp1.png,exp2.png,,,,,,,,,,,,,,,,,2,0,2,0,0,0,0,0,,,,,,,,,False,40,101,True,exp2.png,exp1.png,trial_right_image,-1,exp1.png,1,exp2.png,exp1.png,1,3,reversed,incorrect,0.44691434716034595,0,valid_lose,508.0580360000022,63,,,,,,,,,,,,,s_086,1,2022_Jun_19_1741,Reversal,3.2.4,59.84114568329937,
1,exp3.png,exp4.png,,,,,,,,,,,,,,,,,2,0,2,0,0,1,1,1,,,,,,,,,False,41,102,True,exp4.png,exp3.png,trial_right_image,-1,exp3.png,1,exp3.png,exp4.png,1,1,non-reversed,correct,0.3791837688906864,1,valid_win,512.6396602999885,64,,,,,,,,,,,,,s_086,1,2022_Jun_19_1741,Reversal,3.2.4,59.84114568329937,
2,exp1.png,exp2.png,,,,,,,,,,,,,,,,,2,0,2,0,0,2,2,2,,,,,,,,,False,42,103,True,exp2.png,exp1.png,trial_left_image,1,exp2.png,1,exp2.png,exp1.png,0,4,reversed,correct,0.24914439428238866,0,invalid_lose,516.505212899996,64,,,,,,,,,,,,,s_086,1,2022_Jun_19_1741,Reversal,3.2.4,59.84114568329937,
3,exp3.png,exp4.png,,,,,,,,,,,,,,,,,2,0,2,0,0,3,3,3,,,,,,,,,False,43,104,False,exp3.png,exp4.png,trial_left_image,1,exp3.png,1,exp3.png,exp4.png,1,1,non-reversed,correct,0.05511513420049974,0,invalid_lose,520.9873014999903,64,,,,,,,,,,,,,s_086,1,2022_Jun_19_1741,Reversal,3.2.4,59.84114568329937,
4,exp1.png,exp2.png,,,,,,,,,,,,,,,,,2,0,2,0,0,4,4,4,,,,,,,,,False,44,105,False,exp1.png,exp2.png,trial_right_image,-1,exp2.png,1,exp2.png,exp1.png,0,4,reversed,correct,0.2631153389355252,1,valid_win,525.218340100022,65,,,,,,,,,,,,,s_086,1,2022_Jun_19_1741,Reversal,3.2.4,59.84114568329937,
5,exp3.png,exp4.png,,,,,,,,,,,,,,,,,2,0,2,0,0,5,5,5,,,,,,,,,False,45,106,False,exp3.png,exp4.png,trial_left_image,1,exp3.png,1,exp3.png,exp4.png,1,1,non-reversed,correct,0.5992287446576726,1,valid_win,529.2507858999888,66,,,,,,,,,,,,,s_086,1,2022_Jun_19_1741,Reversal,3.2.4,59.84114568329937,
6,exp1.png,exp2.png,,,,,,,,,,,,,,,,,2,0,2,0,0,6,6,6,,,,,,,,,False,46,107,True,exp2.png,exp1.png,trial_left_image,1,exp2.png,1,exp2.png,exp1.png,0,4,reversed,correct,0.8977332762697917,1,valid_win,533.4990696000168,67,,,,,,,,,,,,,s_086,1,2022_Jun_19_1741,Reversal,3.2.4,59.84114568329937,
7,exp3.png,exp4.png,,,,,,,,,,,,,,,,,2,0,2,0,0,7,7,7,,,,,,,,,False,47,108,False,exp3.png,exp4.png,trial_left_image,1,exp3.png,1,exp3.png,exp4.png,1,1,non-reversed,correct,0.36887423523212337,1,valid_win,538.0308506999863,68,,,,,,,,,,,,,s_086,1,2022_Jun_19_1741,Reversal,3.2.4,59.84114568329937,
8,exp1.png,exp2.png,,,,,,,,,,,,,,,,,2,0,2,0,0,8,8,8,,,,,,,,,False,48,109,False,exp1.png,exp2.png,trial_left_image,1,exp1.png,1,exp2.png,exp1.png,1,3,reversed,incorrect,0.28607980406591016,0,valid_lose,542.5628759000101,68,,,,,,,,,,,,,s_086,1,2022_Jun_19_1741,Reversal,3.2.4,59.84114568329937,
9,exp3.png,exp4.png,,,,,,,,,,,,,,,,,2,0,2,0,0,9,9,9,,,,,,,,,False,49,110,False,exp3.png,exp4.png,trial_right_image,-1,exp4.png,1,exp3.png,exp4.png,0,2,non-reversed,incorrect,0.16298576298731227,1,invalid_win,547.0122630000114,69,,,,,,,,,,,,,s_086,1,2022_Jun_19_1741,Reversal,3.2.4,59.84114568329937,
10,exp1.png,exp2.png,,,,,,,,,,,,,,,,,2,0,2,0,0,10,10,10,,,,,,,,,False,50,111,True,exp2.png,exp1.png,trial_left_image,1,exp2.png,1,exp2.png,exp1.png,0,4,reversed,correct,0.5345958709302534,1,valid_win,553.1260603999835,70,,,,,,,,,,,,,s_086,1,2022_Jun_19_1741,Reversal,3.2.4,59.84114568329937,
11,exp3.png,exp4.png,,,,,,,,,,,,,,,,,2,0,2,0,0,11,11,11,,,,,,,,,False,51,112,True,exp4.png,exp3.png,trial_right_image,-1,exp3.png,1,exp3.png,exp4.png,1,1,non-reversed,correct,0.3960619728724126,1,valid_win,557.7589130999986,71,,,,,,,,,,,,,s_086,1,2022_Jun_19_1741,Reversal,3.2.4,59.84114568329937,
12,exp1.png,exp2.png,,,,,,,,,,,,,,,,,2,0,2,0,0,12,12,12,,,,,,,,,False,52,113,True,exp2.png,exp1.png,trial_left_image,1,exp2.png,1,exp2.png,exp1.png,0,4,reversed,correct,0.2254192896976236,0,invalid_lose,561.6898828000412,71,,,,,,,,,,,,,s_086,1,2022_Jun_19_1741,Reversal,3.2.4,59.84114568329937,
13,exp3.png,exp4.png,,,,,,,,,,,,,,,,,2,0,2,0,0,13,13,13,,,,,,,,,False,53,114,True,exp4.png,exp3.png,trial_right_image,-1,exp3.png,1,exp3.png,exp4.png,1,1,non-reversed,correct,0.238053547792188,0,invalid_lose,567.1221310000401,71,,,,,,,,,,,,,s_086,1,2022_Jun_19_1741,Reversal,3.2.4,59.84114568329937,
14,exp1.png,exp2.png,,,,,,,,,,,,,,,,,2,0,2,0,0,14,14,14,,,,,,,,,False,54,115,False,exp1.png,exp2.png,trial_left_image,1,exp1.png,1,exp2.png,exp1.png,1,3,reversed,incorrect,0.24624669643777142,1,invalid_win,571.053248399985,72,,,,,,,,,,,,,s_086,1,2022_Jun_19_1741,Reversal,3.2.4,59.84114568329937,
15,exp3.png,exp4.png,,,,,,,,,,,,,,,,,2,0,2,0,0,15,15,15,,,,,,,,,False,55,116,True,exp4.png,exp3.png,trial_left_image,1,exp4.png,1,exp3.png,exp4.png,0,2,non-reversed,incorrect,0.3568569612453386,0,valid_lose,574.901155700034,72,,,,,,,,,,,,,s_086,1,2022_Jun_19_1741,Reversal,3.2.4,59.84114568329937,
16,exp1.png,exp2.png,,,,,,,,,,,,,,,,,2,0,2,0,0,16,16,16,,,,,,,,,False,56,117,False,exp1.png,exp2.png,trial_right_image,-1,exp2.png,1,exp2.png,exp1.png,0,4,reversed,correct,0.35839345883671114,1,valid_win,580.5167721000034,73,,,,,,,,,,,,,s_086,1,2022_Jun_19_1741,Reversal,3.2.4,59.84114568329937,
17,exp3.png,exp4.png,,,,,,,,,,,,,,,,,2,0,2,0,0,17,17,17,,,,,,,,,False,57,118,False,exp3.png,exp4.png,trial_left_image,1,exp3.png,1,exp3.png,exp4.png,1,1,non-reversed,correct,0.31552125018123944,1,valid_win,584.6329300000216,74,,,,,,,,,,,,,s_086,1,2022_Jun_19_1741,Reversal,3.2.4,59.84114568329937,
18,exp1.png,exp2.png,,,,,,,,,,,,,,,,,2,0,2,0,0,18,18,18,,,,,,,,,False,58,119,True,exp2.png,exp1.png,trial_right_image,-1,exp1.png,1,exp2.png,exp1.png,1,3,reversed,incorrect,0.2556490957192574,0,valid_lose,588.8977331999922,74,,,,,,,,,,,,,s_086,1,2022_Jun_19_1741,Reversal,3.2.4,59.84114568329937,
19,exp3.png,exp4.png,,,,,,,,,,,,,,,,,2,0,2,0,0,19,19,19,,,,,,,,,False,59,120,False,exp3.png,exp4.png,trial_left_image,1,exp3.png,1,exp3.png,exp4.png,1,1,non-reversed,correct,0.13210312738829222,0,invalid_lose,593.0653681000113,74,,,,,,,,,,,,,s_086,1,2022_Jun_19_1741,Reversal,3.2.4,59.84114568329937,
20,exp1.png,exp2.png,,,,,,,,,,,,,,,,,2,0,2,0,0,20,20,20,,,,,,,,,True,,,,,,,,,,,,,,,,,,,,,,,,,,,,,,,,,s_086,1,2022_Jun_19_1741,Reversal,3.2.4,59.84114568329937,
,,,,,,,,,,,,,,,,,,,2,0,2,0,,,,,0,0,0,0,,,,,,,,,,,,,,,,,,,,,,,,,,43,56,57,40,,,,,,,,,s_086,1,2022_Jun_19_1741,Reversal,3.2.4,59.84114568329937,
,,,,,,,,,,,,,,,,,,,,,,,,,,,,,,,,,,,,,,,,,,,,,,,,,,,,,,,74,,,,,,95,53,42,288.60311600001296,0,space,17.66059690003749,s_086,1,2022_Jun_19_1741,Reversal,3.2.4,59.84114568329937,
