trial_index,trial_image1_file,trial_image2_file,learning_outer_loop.thisRepN,learning_outer_loop.thisTrialN,learning_outer_loop.thisN,learning_outer_loop.thisIndex,learning_inner_loop.thisRepN,learning_inner_loop.thisTrialN,learning_inner_loop.thisN,learning_inner_loop.thisIndex,learning_estimation_outer_loop.thisRepN,learning_estimation_outer_loop.thisTrialN,learning_estimation_outer_loop.thisN,learning_estimation_outer_loop.thisIndex,learning_estimation_inner_loop.thisRepN,learning_estimation_inner_loop.thisTrialN,learning_estimation_inner_loop.thisN,learning_estimation_inner_loop.thisIndex,reversal_outer_loop.thisRepN,reversal_outer_loop.thisTrialN,reversal_outer_loop.thisN,reversal_outer_loop.thisIndex,reversal_inner_loop.thisRepN,reversal_inner_loop.thisTrialN,reversal_inner_loop.thisN,reversal_inner_loop.thisIndex,reversal_estimation_outer_loop.thisRepN,reversal_estimation_outer_loop.thisTrialN,reversal_estimation_outer_loop.thisN,reversal_estimation_outer_loop.thisIndex,reversal_estimation_inner_loop.thisRepN,reversal_estimation_inner_loop.thisTrialN,reversal_estimation_inner_loop.thisN,reversal_estimation_inner_loop.thisIndex,skipped,total_trial_counter,trial_num,left_right_flip,left_image_file,right_image_file,clicked_stimulus_side,side,clicked_stimulus,version,high_prob_image_file,low_prob_image_file,choice_a,choice_b,pair_type,correct,trial_feedback_random,reward,trial_type,overall_time_after_trial,score,estimation_exp1.png,estimation_exp2.png,estimation_exp3.png,estimation_exp4.png,total_learning_time,total_correct,learning_correct,reversal_correct,total_reversal_time,extra_block,participant,ver,date,expName,psychopyVersion,frameRate,
0,exp1.png,exp2.png,0,0,0,0,0,0,0,0,,,,,,,,,,,,,,,,,,,,,,,,,True,,,,,,,,,,,,,,,,,,,,,,,,,,,,,,,s_094,1,2022_Aug_02_1116,Reversal,3.2.4,60.07893169999907,
1,exp3.png,exp4.png,0,0,0,0,0,1,1,1,,,,,,,,,,,,,,,,,,,,,,,,,False,0,1,False,exp3.png,exp4.png,trial_left_image,1,exp3.png,1,exp3.png,exp4.png,1,1,non-reversed,correct,0.2029099493358889,0,invalid_lose,2.5607688000891358,0,,,,,,,,,,,s_094,1,2022_Aug_02_1116,Reversal,3.2.4,60.07893169999907,
2,exp1.png,exp2.png,0,0,0,0,0,2,2,2,,,,,,,,,,,,,,,,,,,,,,,,,False,1,2,True,exp2.png,exp1.png,trial_left_image,1,exp2.png,1,exp1.png,exp2.png,0,4,reversed,incorrect,0.7534685228003074,0,valid_lose,8.176323899999261,0,,,,,,,,,,,s_094,1,2022_Aug_02_1116,Reversal,3.2.4,60.07893169999907,
3,exp3.png,exp4.png,0,0,0,0,0,3,3,3,,,,,,,,,,,,,,,,,,,,,,,,,False,2,3,True,exp4.png,exp3.png,trial_left_image,1,exp4.png,1,exp3.png,exp4.png,0,2,non-reversed,incorrect,0.009915608479103333,1,invalid_win,15.639939400134608,1,,,,,,,,,,,s_094,1,2022_Aug_02_1116,Reversal,3.2.4,60.07893169999907,
4,exp1.png,exp2.png,0,0,0,0,0,4,4,4,,,,,,,,,,,,,,,,,,,,,,,,,False,3,4,False,exp1.png,exp2.png,trial_right_image,-1,exp2.png,1,exp1.png,exp2.png,0,4,reversed,incorrect,0.9610407742830266,0,valid_lose,20.671980699989945,1,,,,,,,,,,,s_094,1,2022_Aug_02_1116,Reversal,3.2.4,60.07893169999907,
5,exp3.png,exp4.png,0,0,0,0,0,5,5,5,,,,,,,,,,,,,,,,,,,,,,,,,False,4,5,True,exp4.png,exp3.png,trial_left_image,1,exp4.png,1,exp3.png,exp4.png,0,2,non-reversed,incorrect,0.24183713876707102,1,invalid_win,26.869526599999517,2,,,,,,,,,,,s_094,1,2022_Aug_02_1116,Reversal,3.2.4,60.07893169999907,
6,exp1.png,exp2.png,0,0,0,0,0,6,6,6,,,,,,,,,,,,,,,,,,,,,,,,,False,5,6,False,exp1.png,exp2.png,trial_left_image,1,exp1.png,1,exp1.png,exp2.png,1,3,reversed,correct,0.382440524095353,1,valid_win,32.75149300019257,3,,,,,,,,,,,s_094,1,2022_Aug_02_1116,Reversal,3.2.4,60.07893169999907,
7,exp3.png,exp4.png,0,0,0,0,0,7,7,7,,,,,,,,,,,,,,,,,,,,,,,,,False,6,7,True,exp4.png,exp3.png,trial_right_image,-1,exp3.png,1,exp3.png,exp4.png,1,1,non-reversed,correct,0.3359948271468618,1,valid_win,37.34960740013048,4,,,,,,,,,,,s_094,1,2022_Aug_02_1116,Reversal,3.2.4,60.07893169999907,
8,exp1.png,exp2.png,0,0,0,0,0,8,8,8,,,,,,,,,,,,,,,,,,,,,,,,,False,7,8,False,exp1.png,exp2.png,trial_right_image,-1,exp2.png,1,exp1.png,exp2.png,0,4,reversed,incorrect,0.2869102708870025,0,valid_lose,41.414783800020814,4,,,,,,,,,,,s_094,1,2022_Aug_02_1116,Reversal,3.2.4,60.07893169999907,
9,exp3.png,exp4.png,0,0,0,0,0,9,9,9,,,,,,,,,,,,,,,,,,,,,,,,,False,8,9,True,exp4.png,exp3.png,trial_right_image,-1,exp3.png,1,exp3.png,exp4.png,1,1,non-reversed,correct,0.7252067195530051,1,valid_win,45.44656780012883,5,,,,,,,,,,,s_094,1,2022_Aug_02_1116,Reversal,3.2.4,60.07893169999907,
10,exp1.png,exp2.png,0,0,0,0,0,10,10,10,,,,,,,,,,,,,,,,,,,,,,,,,False,9,10,False,exp1.png,exp2.png,trial_left_image,1,exp1.png,1,exp1.png,exp2.png,1,3,reversed,correct,0.5105666786376017,1,valid_win,50.07841910002753,6,,,,,,,,,,,s_094,1,2022_Aug_02_1116,Reversal,3.2.4,60.07893169999907,
11,exp3.png,exp4.png,0,0,0,0,0,11,11,11,,,,,,,,,,,,,,,,,,,,,,,,,False,10,11,True,exp4.png,exp3.png,trial_left_image,1,exp4.png,1,exp3.png,exp4.png,0,2,non-reversed,incorrect,0.8683456951430565,0,valid_lose,54.2768051000312,6,,,,,,,,,,,s_094,1,2022_Aug_02_1116,Reversal,3.2.4,60.07893169999907,
12,exp1.png,exp2.png,0,0,0,0,0,12,12,12,,,,,,,,,,,,,,,,,,,,,,,,,False,11,12,False,exp1.png,exp2.png,trial_left_image,1,exp1.png,1,exp1.png,exp2.png,1,3,reversed,correct,0.8731202090400009,1,valid_win,58.27607400016859,7,,,,,,,,,,,s_094,1,2022_Aug_02_1116,Reversal,3.2.4,60.07893169999907,
13,exp3.png,exp4.png,0,0,0,0,0,13,13,13,,,,,,,,,,,,,,,,,,,,,,,,,False,12,13,False,exp3.png,exp4.png,trial_right_image,-1,exp4.png,1,exp3.png,exp4.png,0,2,non-reversed,incorrect,0.7012391851530155,0,valid_lose,63.20753450016491,7,,,,,,,,,,,s_094,1,2022_Aug_02_1116,Reversal,3.2.4,60.07893169999907,
14,exp1.png,exp2.png,0,0,0,0,0,14,14,14,,,,,,,,,,,,,,,,,,,,,,,,,False,13,14,True,exp2.png,exp1.png,trial_left_image,1,exp2.png,1,exp1.png,exp2.png,0,4,reversed,incorrect,0.8874451711860099,0,valid_lose,67.47243960015476,7,,,,,,,,,,,s_094,1,2022_Aug_02_1116,Reversal,3.2.4,60.07893169999907,
15,exp3.png,exp4.png,0,0,0,0,0,15,15,15,,,,,,,,,,,,,,,,,,,,,,,,,False,14,15,True,exp4.png,exp3.png,trial_left_image,1,exp4.png,1,exp3.png,exp4.png,0,2,non-reversed,incorrect,0.4789644475690551,0,valid_lose,71.60425400012173,7,,,,,,,,,,,s_094,1,2022_Aug_02_1116,Reversal,3.2.4,60.07893169999907,
16,exp1.png,exp2.png,0,0,0,0,0,16,16,16,,,,,,,,,,,,,,,,,,,,,,,,,False,15,16,False,exp1.png,exp2.png,trial_left_image,1,exp1.png,1,exp1.png,exp2.png,1,3,reversed,correct,0.9247200350470991,1,valid_win,75.60305150016211,8,,,,,,,,,,,s_094,1,2022_Aug_02_1116,Reversal,3.2.4,60.07893169999907,
17,exp3.png,exp4.png,0,0,0,0,0,17,17,17,,,,,,,,,,,,,,,,,,,,,,,,,False,16,17,False,exp3.png,exp4.png,trial_right_image,-1,exp4.png,1,exp3.png,exp4.png,0,2,non-reversed,incorrect,0.16183224825502363,1,invalid_win,80.2681462999899,9,,,,,,,,,,,s_094,1,2022_Aug_02_1116,Reversal,3.2.4,60.07893169999907,
18,exp1.png,exp2.png,0,0,0,0,0,18,18,18,,,,,,,,,,,,,,,,,,,,,,,,,False,17,18,True,exp2.png,exp1.png,trial_right_image,-1,exp1.png,1,exp1.png,exp2.png,1,3,reversed,correct,0.8223285324148522,1,valid_win,84.51670730020851,10,,,,,,,,,,,s_094,1,2022_Aug_02_1116,Reversal,3.2.4,60.07893169999907,
19,exp3.png,exp4.png,0,0,0,0,0,19,19,19,,,,,,,,,,,,,,,,,,,,,,,,,False,18,19,False,exp3.png,exp4.png,trial_right_image,-1,exp4.png,1,exp3.png,exp4.png,0,2,non-reversed,incorrect,0.7924553741273556,0,valid_lose,89.01549959997647,10,,,,,,,,,,,s_094,1,2022_Aug_02_1116,Reversal,3.2.4,60.07893169999907,
20,exp1.png,exp2.png,0,0,0,0,0,20,20,20,,,,,,,,,,,,,,,,,,,,,,,,,False,19,20,True,exp2.png,exp1.png,trial_left_image,1,exp2.png,1,exp1.png,exp2.png,0,4,reversed,incorrect,0.7157147006427085,0,valid_lose,93.26405520015396,10,,,,,,,,,,,s_094,1,2022_Aug_02_1116,Reversal,3.2.4,60.07893169999907,
,,,0,0,0,0,,,,,0,0,0,0,,,,,,,,,,,,,,,,,,,,,,,,,,,,,,,,,,,,,,,,,,50.0,50.0,50.0,50.0,,,,,,,s_094,1,2022_Aug_02_1116,Reversal,3.2.4,60.07893169999907,
0,exp1.png,exp2.png,1,0,1,0,0,0,0,0,,,,,,,,,,,,,,,,,,,,,,,,,True,,,,,,,,,,,,,,,,,,,,,,,,,,,,,,,s_094,1,2022_Aug_02_1116,Reversal,3.2.4,60.07893169999907,
1,exp3.png,exp4.png,1,0,1,0,0,1,1,1,,,,,,,,,,,,,,,,,,,,,,,,,False,20,21,False,exp3.png,exp4.png,trial_right_image,-1,exp4.png,1,exp3.png,exp4.png,0,2,non-reversed,incorrect,0.9727846562188436,0,valid_lose,106.74260880006477,10,,,,,,,,,,,s_094,1,2022_Aug_02_1116,Reversal,3.2.4,60.07893169999907,
2,exp1.png,exp2.png,1,0,1,0,0,2,2,2,,,,,,,,,,,,,,,,,,,,,,,,,False,21,22,True,exp2.png,exp1.png,trial_left_image,1,exp2.png,1,exp1.png,exp2.png,0,4,reversed,incorrect,0.484175333105352,0,valid_lose,111.12435210007243,10,,,,,,,,,,,s_094,1,2022_Aug_02_1116,Reversal,3.2.4,60.07893169999907,
3,exp3.png,exp4.png,1,0,1,0,0,3,3,3,,,,,,,,,,,,,,,,,,,,,,,,,False,22,23,False,exp3.png,exp4.png,trial_right_image,-1,exp4.png,1,exp3.png,exp4.png,0,2,non-reversed,incorrect,0.9973493475196549,0,valid_lose,116.42254719999619,10,,,,,,,,,,,s_094,1,2022_Aug_02_1116,Reversal,3.2.4,60.07893169999907,
4,exp1.png,exp2.png,1,0,1,0,0,4,4,4,,,,,,,,,,,,,,,,,,,,,,,,,False,23,24,False,exp1.png,exp2.png,trial_right_image,-1,exp2.png,1,exp1.png,exp2.png,0,4,reversed,incorrect,0.46664689241455637,0,valid_lose,120.50471440004185,10,,,,,,,,,,,s_094,1,2022_Aug_02_1116,Reversal,3.2.4,60.07893169999907,
5,exp3.png,exp4.png,1,0,1,0,0,5,5,5,,,,,,,,,,,,,,,,,,,,,,,,,False,24,25,False,exp3.png,exp4.png,trial_right_image,-1,exp4.png,1,exp3.png,exp4.png,0,2,non-reversed,incorrect,0.21772466677786895,1,invalid_win,125.28691600007005,11,,,,,,,,,,,s_094,1,2022_Aug_02_1116,Reversal,3.2.4,60.07893169999907,
6,exp1.png,exp2.png,1,0,1,0,0,6,6,6,,,,,,,,,,,,,,,,,,,,,,,,,False,25,26,False,exp1.png,exp2.png,trial_left_image,1,exp1.png,1,exp1.png,exp2.png,1,3,reversed,correct,0.953876936355406,1,valid_win,131.03423320013098,12,,,,,,,,,,,s_094,1,2022_Aug_02_1116,Reversal,3.2.4,60.07893169999907,
7,exp3.png,exp4.png,1,0,1,0,0,7,7,7,,,,,,,,,,,,,,,,,,,,,,,,,False,26,27,False,exp3.png,exp4.png,trial_left_image,1,exp3.png,1,exp3.png,exp4.png,1,1,non-reversed,correct,0.7098693901367188,1,valid_win,137.08298000018112,13,,,,,,,,,,,s_094,1,2022_Aug_02_1116,Reversal,3.2.4,60.07893169999907,
8,exp1.png,exp2.png,1,0,1,0,0,8,8,8,,,,,,,,,,,,,,,,,,,,,,,,,False,27,28,False,exp1.png,exp2.png,trial_right_image,-1,exp2.png,1,exp1.png,exp2.png,0,4,reversed,incorrect,0.4620742400962854,0,valid_lose,142.14755020011216,13,,,,,,,,,,,s_094,1,2022_Aug_02_1116,Reversal,3.2.4,60.07893169999907,
9,exp3.png,exp4.png,1,0,1,0,0,9,9,9,,,,,,,,,,,,,,,,,,,,,,,,,False,28,29,True,exp4.png,exp3.png,trial_right_image,-1,exp3.png,1,exp3.png,exp4.png,1,1,non-reversed,correct,0.06970108243750095,0,invalid_lose,146.14575919997878,13,,,,,,,,,,,s_094,1,2022_Aug_02_1116,Reversal,3.2.4,60.07893169999907,
10,exp1.png,exp2.png,1,0,1,0,0,10,10,10,,,,,,,,,,,,,,,,,,,,,,,,,False,29,30,False,exp1.png,exp2.png,trial_right_image,-1,exp2.png,1,exp1.png,exp2.png,0,4,reversed,incorrect,0.6543799436637039,0,valid_lose,150.47786059998907,13,,,,,,,,,,,s_094,1,2022_Aug_02_1116,Reversal,3.2.4,60.07893169999907,
11,exp3.png,exp4.png,1,0,1,0,0,11,11,11,,,,,,,,,,,,,,,,,,,,,,,,,False,30,31,True,exp4.png,exp3.png,trial_right_image,-1,exp3.png,1,exp3.png,exp4.png,1,1,non-reversed,correct,0.3219346782186435,1,valid_win,154.4268051001709,14,,,,,,,,,,,s_094,1,2022_Aug_02_1116,Reversal,3.2.4,60.07893169999907,
12,exp1.png,exp2.png,1,0,1,0,0,12,12,12,,,,,,,,,,,,,,,,,,,,,,,,,False,31,32,True,exp2.png,exp1.png,trial_right_image,-1,exp1.png,1,exp1.png,exp2.png,1,3,reversed,correct,0.5713638583427506,1,valid_win,158.541401399998,15,,,,,,,,,,,s_094,1,2022_Aug_02_1116,Reversal,3.2.4,60.07893169999907,
13,exp3.png,exp4.png,1,0,1,0,0,13,13,13,,,,,,,,,,,,,,,,,,,,,,,,,False,32,33,True,exp4.png,exp3.png,trial_right_image,-1,exp3.png,1,exp3.png,exp4.png,1,1,non-reversed,correct,0.6050751577761604,1,valid_win,162.47406620020047,16,,,,,,,,,,,s_094,1,2022_Aug_02_1116,Reversal,3.2.4,60.07893169999907,
14,exp1.png,exp2.png,1,0,1,0,0,14,14,14,,,,,,,,,,,,,,,,,,,,,,,,,False,33,34,False,exp1.png,exp2.png,trial_right_image,-1,exp2.png,1,exp1.png,exp2.png,0,4,reversed,incorrect,0.545679287715312,0,valid_lose,166.28913350007497,16,,,,,,,,,,,s_094,1,2022_Aug_02_1116,Reversal,3.2.4,60.07893169999907,
15,exp3.png,exp4.png,1,0,1,0,0,15,15,15,,,,,,,,,,,,,,,,,,,,,,,,,False,34,35,True,exp4.png,exp3.png,trial_left_image,1,exp4.png,1,exp3.png,exp4.png,0,2,non-reversed,incorrect,0.49377079595594175,0,valid_lose,170.25859860004857,16,,,,,,,,,,,s_094,1,2022_Aug_02_1116,Reversal,3.2.4,60.07893169999907,
16,exp1.png,exp2.png,1,0,1,0,0,16,16,16,,,,,,,,,,,,,,,,,,,,,,,,,False,35,36,False,exp1.png,exp2.png,trial_left_image,1,exp1.png,1,exp1.png,exp2.png,1,3,reversed,correct,0.31771501275937797,1,valid_win,174.3029613001272,17,,,,,,,,,,,s_094,1,2022_Aug_02_1116,Reversal,3.2.4,60.07893169999907,
17,exp3.png,exp4.png,1,0,1,0,0,17,17,17,,,,,,,,,,,,,,,,,,,,,,,,,False,36,37,True,exp4.png,exp3.png,trial_left_image,1,exp4.png,1,exp3.png,exp4.png,0,2,non-reversed,incorrect,0.13009665546035898,1,invalid_win,178.33495590020902,18,,,,,,,,,,,s_094,1,2022_Aug_02_1116,Reversal,3.2.4,60.07893169999907,
18,exp1.png,exp2.png,1,0,1,0,0,18,18,18,,,,,,,,,,,,,,,,,,,,,,,,,False,37,38,True,exp2.png,exp1.png,trial_right_image,-1,exp1.png,1,exp1.png,exp2.png,1,3,reversed,correct,0.9537078446892149,1,valid_win,182.3509781002067,19,,,,,,,,,,,s_094,1,2022_Aug_02_1116,Reversal,3.2.4,60.07893169999907,
19,exp3.png,exp4.png,1,0,1,0,0,19,19,19,,,,,,,,,,,,,,,,,,,,,,,,,False,38,39,True,exp4.png,exp3.png,trial_right_image,-1,exp3.png,1,exp3.png,exp4.png,1,1,non-reversed,correct,0.8582070484021541,1,valid_win,186.41556480014697,20,,,,,,,,,,,s_094,1,2022_Aug_02_1116,Reversal,3.2.4,60.07893169999907,
20,exp1.png,exp2.png,1,0,1,0,0,20,20,20,,,,,,,,,,,,,,,,,,,,,,,,,False,39,40,True,exp2.png,exp1.png,trial_left_image,1,exp2.png,1,exp1.png,exp2.png,0,4,reversed,incorrect,0.5877804140135309,0,valid_lose,190.46387560013682,20,,,,,,,,,,,s_094,1,2022_Aug_02_1116,Reversal,3.2.4,60.07893169999907,
,,,1,0,1,0,,,,,0,0,0,0,,,,,,,,,,,,,,,,,,,,,,,,,,,,,,,,,,,,,,,,,,50.0,50.0,50.0,50.0,,,,,,,s_094,1,2022_Aug_02_1116,Reversal,3.2.4,60.07893169999907,
0,exp1.png,exp2.png,2,0,2,0,0,0,0,0,,,,,,,,,,,,,,,,,,,,,,,,,True,,,,,,,,,,,,,,,,,,,,,,,,,,,,,,,s_094,1,2022_Aug_02_1116,Reversal,3.2.4,60.07893169999907,
1,exp3.png,exp4.png,2,0,2,0,0,1,1,1,,,,,,,,,,,,,,,,,,,,,,,,,False,40,41,False,exp3.png,exp4.png,trial_right_image,-1,exp4.png,1,exp3.png,exp4.png,0,2,non-reversed,incorrect,0.4968015130064095,0,valid_lose,203.4599821001757,20,,,,,,,,,,,s_094,1,2022_Aug_02_1116,Reversal,3.2.4,60.07893169999907,
2,exp1.png,exp2.png,2,0,2,0,0,2,2,2,,,,,,,,,,,,,,,,,,,,,,,,,False,41,42,True,exp2.png,exp1.png,trial_right_image,-1,exp1.png,1,exp1.png,exp2.png,1,3,reversed,correct,0.27378025169905396,1,valid_win,207.52489850018173,21,,,,,,,,,,,s_094,1,2022_Aug_02_1116,Reversal,3.2.4,60.07893169999907,
3,exp3.png,exp4.png,2,0,2,0,0,3,3,3,,,,,,,,,,,,,,,,,,,,,,,,,False,42,43,True,exp4.png,exp3.png,trial_left_image,1,exp4.png,1,exp3.png,exp4.png,0,2,non-reversed,incorrect,0.0583774352314097,1,invalid_win,211.52393330004998,22,,,,,,,,,,,s_094,1,2022_Aug_02_1116,Reversal,3.2.4,60.07893169999907,
4,exp1.png,exp2.png,2,0,2,0,0,4,4,4,,,,,,,,,,,,,,,,,,,,,,,,,False,43,44,True,exp2.png,exp1.png,trial_right_image,-1,exp1.png,1,exp1.png,exp2.png,1,3,reversed,correct,0.7941304907559937,1,valid_win,215.48899019998498,23,,,,,,,,,,,s_094,1,2022_Aug_02_1116,Reversal,3.2.4,60.07893169999907,
5,exp3.png,exp4.png,2,0,2,0,0,5,5,5,,,,,,,,,,,,,,,,,,,,,,,,,False,44,45,False,exp3.png,exp4.png,trial_left_image,1,exp3.png,1,exp3.png,exp4.png,1,1,non-reversed,correct,0.28509581790485705,1,valid_win,219.40411990019493,24,,,,,,,,,,,s_094,1,2022_Aug_02_1116,Reversal,3.2.4,60.07893169999907,
6,exp1.png,exp2.png,2,0,2,0,0,6,6,6,,,,,,,,,,,,,,,,,,,,,,,,,False,45,46,False,exp1.png,exp2.png,trial_right_image,-1,exp2.png,1,exp1.png,exp2.png,0,4,reversed,incorrect,0.2224688944139377,1,invalid_win,223.23661800008267,25,,,,,,,,,,,s_094,1,2022_Aug_02_1116,Reversal,3.2.4,60.07893169999907,
7,exp3.png,exp4.png,2,0,2,0,0,7,7,7,,,,,,,,,,,,,,,,,,,,,,,,,False,46,47,False,exp3.png,exp4.png,trial_left_image,1,exp3.png,1,exp3.png,exp4.png,1,1,non-reversed,correct,0.4309665191631302,1,valid_win,227.10197710013017,26,,,,,,,,,,,s_094,1,2022_Aug_02_1116,Reversal,3.2.4,60.07893169999907,
8,exp1.png,exp2.png,2,0,2,0,0,8,8,8,,,,,,,,,,,,,,,,,,,,,,,,,False,47,48,True,exp2.png,exp1.png,trial_right_image,-1,exp1.png,1,exp1.png,exp2.png,1,3,reversed,correct,0.015013823153895545,0,invalid_lose,230.96693940018304,26,,,,,,,,,,,s_094,1,2022_Aug_02_1116,Reversal,3.2.4,60.07893169999907,
9,exp3.png,exp4.png,2,0,2,0,0,9,9,9,,,,,,,,,,,,,,,,,,,,,,,,,False,48,49,True,exp4.png,exp3.png,trial_left_image,1,exp4.png,1,exp3.png,exp4.png,0,2,non-reversed,incorrect,0.4734888564174542,0,valid_lose,234.8661410000641,26,,,,,,,,,,,s_094,1,2022_Aug_02_1116,Reversal,3.2.4,60.07893169999907,
10,exp1.png,exp2.png,2,0,2,0,0,10,10,10,,,,,,,,,,,,,,,,,,,,,,,,,False,49,50,False,exp1.png,exp2.png,trial_right_image,-1,exp2.png,1,exp1.png,exp2.png,0,4,reversed,incorrect,0.7055378675929797,0,valid_lose,238.71468380000442,26,,,,,,,,,,,s_094,1,2022_Aug_02_1116,Reversal,3.2.4,60.07893169999907,
11,exp3.png,exp4.png,2,0,2,0,0,11,11,11,,,,,,,,,,,,,,,,,,,,,,,,,False,50,51,False,exp3.png,exp4.png,trial_right_image,-1,exp4.png,1,exp3.png,exp4.png,0,2,non-reversed,incorrect,0.6101690808429406,0,valid_lose,242.93010010011494,26,,,,,,,,,,,s_094,1,2022_Aug_02_1116,Reversal,3.2.4,60.07893169999907,
12,exp1.png,exp2.png,2,0,2,0,0,12,12,12,,,,,,,,,,,,,,,,,,,,,,,,,False,51,52,True,exp2.png,exp1.png,trial_left_image,1,exp2.png,1,exp1.png,exp2.png,0,4,reversed,incorrect,0.6686145286610327,0,valid_lose,246.77863480011,26,,,,,,,,,,,s_094,1,2022_Aug_02_1116,Reversal,3.2.4,60.07893169999907,
13,exp3.png,exp4.png,2,0,2,0,0,13,13,13,,,,,,,,,,,,,,,,,,,,,,,,,False,52,53,False,exp3.png,exp4.png,trial_right_image,-1,exp4.png,1,exp3.png,exp4.png,0,2,non-reversed,incorrect,0.8863086485678309,0,valid_lose,250.86101450002752,26,,,,,,,,,,,s_094,1,2022_Aug_02_1116,Reversal,3.2.4,60.07893169999907,
14,exp1.png,exp2.png,2,0,2,0,0,14,14,14,,,,,,,,,,,,,,,,,,,,,,,,,False,53,54,True,exp2.png,exp1.png,trial_right_image,-1,exp1.png,1,exp1.png,exp2.png,1,3,reversed,correct,0.8637185985528318,1,valid_win,254.7759560002014,27,,,,,,,,,,,s_094,1,2022_Aug_02_1116,Reversal,3.2.4,60.07893169999907,
15,exp3.png,exp4.png,2,0,2,0,0,15,15,15,,,,,,,,,,,,,,,,,,,,,,,,,False,54,55,False,exp3.png,exp4.png,trial_left_image,1,exp3.png,1,exp3.png,exp4.png,1,1,non-reversed,correct,0.44591500195559053,1,valid_win,258.7238635001704,28,,,,,,,,,,,s_094,1,2022_Aug_02_1116,Reversal,3.2.4,60.07893169999907,
16,exp1.png,exp2.png,2,0,2,0,0,16,16,16,,,,,,,,,,,,,,,,,,,,,,,,,False,55,56,True,exp2.png,exp1.png,trial_right_image,-1,exp1.png,1,exp1.png,exp2.png,1,3,reversed,correct,0.9612570830033872,1,valid_win,262.5394793001469,29,,,,,,,,,,,s_094,1,2022_Aug_02_1116,Reversal,3.2.4,60.07893169999907,
17,exp3.png,exp4.png,2,0,2,0,0,17,17,17,,,,,,,,,,,,,,,,,,,,,,,,,False,56,57,True,exp4.png,exp3.png,trial_left_image,1,exp4.png,1,exp3.png,exp4.png,0,2,non-reversed,incorrect,0.947480488558672,0,valid_lose,266.388463600073,29,,,,,,,,,,,s_094,1,2022_Aug_02_1116,Reversal,3.2.4,60.07893169999907,
18,exp1.png,exp2.png,2,0,2,0,0,18,18,18,,,,,,,,,,,,,,,,,,,,,,,,,False,57,58,True,exp2.png,exp1.png,trial_left_image,1,exp2.png,1,exp1.png,exp2.png,0,4,reversed,incorrect,0.2041970354009245,1,invalid_win,270.23745550005697,30,,,,,,,,,,,s_094,1,2022_Aug_02_1116,Reversal,3.2.4,60.07893169999907,
19,exp3.png,exp4.png,2,0,2,0,0,19,19,19,,,,,,,,,,,,,,,,,,,,,,,,,False,58,59,False,exp3.png,exp4.png,trial_right_image,-1,exp4.png,1,exp3.png,exp4.png,0,2,non-reversed,incorrect,0.9755731098689998,0,valid_lose,274.13551860000007,30,,,,,,,,,,,s_094,1,2022_Aug_02_1116,Reversal,3.2.4,60.07893169999907,
20,exp1.png,exp2.png,2,0,2,0,0,20,20,20,,,,,,,,,,,,,,,,,,,,,,,,,False,59,60,False,exp1.png,exp2.png,trial_left_image,1,exp1.png,1,exp1.png,exp2.png,1,3,reversed,correct,0.6316226091317203,1,valid_win,277.9345594001934,31,,,,,,,,,,,s_094,1,2022_Aug_02_1116,Reversal,3.2.4,60.07893169999907,
,,,2,0,2,0,,,,,0,0,0,0,,,,,,,,,,,,,,,,,,,,,,,,,,,,,,,,,,,,,,,,,,50.0,50.0,50.0,50.0,,,,,,,s_094,1,2022_Aug_02_1116,Reversal,3.2.4,60.07893169999907,
0,exp1.png,exp2.png,3,0,3,0,0,0,0,0,,,,,,,,,,,,,,,,,,,,,,,,,True,,,,,,,,,,,,,,,,,,,,,,,,,,,,,,,s_094,1,2022_Aug_02_1116,Reversal,3.2.4,60.07893169999907,
1,exp3.png,exp4.png,3,0,3,0,0,1,1,1,,,,,,,,,,,,,,,,,,,,,,,,,False,60,61,False,exp3.png,exp4.png,trial_left_image,1,exp3.png,1,exp3.png,exp4.png,1,1,non-reversed,correct,0.7170880302475471,1,valid_win,288.3144539000932,32,,,,,,,,,,,s_094,1,2022_Aug_02_1116,Reversal,3.2.4,60.07893169999907,
2,exp1.png,exp2.png,3,0,3,0,0,2,2,2,,,,,,,,,,,,,,,,,,,,,,,,,False,61,62,True,exp2.png,exp1.png,trial_left_image,1,exp2.png,1,exp1.png,exp2.png,0,4,reversed,incorrect,0.7939929108178196,0,valid_lose,292.2798320001457,32,,,,,,,,,,,s_094,1,2022_Aug_02_1116,Reversal,3.2.4,60.07893169999907,
3,exp3.png,exp4.png,3,0,3,0,0,3,3,3,,,,,,,,,,,,,,,,,,,,,,,,,False,62,63,True,exp4.png,exp3.png,trial_left_image,1,exp4.png,1,exp3.png,exp4.png,0,2,non-reversed,incorrect,0.9941756596784838,0,valid_lose,296.245326400036,32,,,,,,,,,,,s_094,1,2022_Aug_02_1116,Reversal,3.2.4,60.07893169999907,
4,exp1.png,exp2.png,3,0,3,0,0,4,4,4,,,,,,,,,,,,,,,,,,,,,,,,,False,63,64,False,exp1.png,exp2.png,trial_left_image,1,exp1.png,1,exp1.png,exp2.png,1,3,reversed,correct,0.7532849748725757,1,valid_win,300.2768970001489,33,,,,,,,,,,,s_094,1,2022_Aug_02_1116,Reversal,3.2.4,60.07893169999907,
5,exp3.png,exp4.png,3,0,3,0,0,5,5,5,,,,,,,,,,,,,,,,,,,,,,,,,False,64,65,False,exp3.png,exp4.png,trial_right_image,-1,exp4.png,1,exp3.png,exp4.png,0,2,non-reversed,incorrect,0.985358304426566,0,valid_lose,304.24249730003066,33,,,,,,,,,,,s_094,1,2022_Aug_02_1116,Reversal,3.2.4,60.07893169999907,
6,exp1.png,exp2.png,3,0,3,0,0,6,6,6,,,,,,,,,,,,,,,,,,,,,,,,,False,65,66,False,exp1.png,exp2.png,trial_right_image,-1,exp2.png,1,exp1.png,exp2.png,0,4,reversed,incorrect,0.5283631887778826,0,valid_lose,308.15790370013565,33,,,,,,,,,,,s_094,1,2022_Aug_02_1116,Reversal,3.2.4,60.07893169999907,
7,exp3.png,exp4.png,3,0,3,0,0,7,7,7,,,,,,,,,,,,,,,,,,,,,,,,,False,66,67,True,exp4.png,exp3.png,trial_right_image,-1,exp3.png,1,exp3.png,exp4.png,1,1,non-reversed,correct,0.07857857084960707,0,invalid_lose,313.0560603002086,33,,,,,,,,,,,s_094,1,2022_Aug_02_1116,Reversal,3.2.4,60.07893169999907,
8,exp1.png,exp2.png,3,0,3,0,0,8,8,8,,,,,,,,,,,,,,,,,,,,,,,,,False,67,68,True,exp2.png,exp1.png,trial_right_image,-1,exp1.png,1,exp1.png,exp2.png,1,3,reversed,correct,0.11019384082306705,0,invalid_lose,316.97183240018785,33,,,,,,,,,,,s_094,1,2022_Aug_02_1116,Reversal,3.2.4,60.07893169999907,
9,exp3.png,exp4.png,3,0,3,0,0,9,9,9,,,,,,,,,,,,,,,,,,,,,,,,,False,68,69,True,exp4.png,exp3.png,trial_right_image,-1,exp3.png,1,exp3.png,exp4.png,1,1,non-reversed,correct,0.2106659963332267,0,invalid_lose,320.9028566000052,33,,,,,,,,,,,s_094,1,2022_Aug_02_1116,Reversal,3.2.4,60.07893169999907,
10,exp1.png,exp2.png,3,0,3,0,0,10,10,10,,,,,,,,,,,,,,,,,,,,,,,,,False,69,70,False,exp1.png,exp2.png,trial_left_image,1,exp1.png,1,exp1.png,exp2.png,1,3,reversed,correct,0.42743879817244856,1,valid_win,324.91851350013167,34,,,,,,,,,,,s_094,1,2022_Aug_02_1116,Reversal,3.2.4,60.07893169999907,
11,exp3.png,exp4.png,3,0,3,0,0,11,11,11,,,,,,,,,,,,,,,,,,,,,,,,,False,70,71,False,exp3.png,exp4.png,trial_left_image,1,exp3.png,1,exp3.png,exp4.png,1,1,non-reversed,correct,0.8245820391655896,1,valid_win,328.32019290002063,35,,,,,,,,,,,s_094,1,2022_Aug_02_1116,Reversal,3.2.4,60.07893169999907,
12,exp1.png,exp2.png,3,0,3,0,0,12,12,12,,,,,,,,,,,,,,,,,,,,,,,,,False,71,72,False,exp1.png,exp2.png,trial_left_image,1,exp1.png,1,exp1.png,exp2.png,1,3,reversed,correct,0.816177794678513,1,valid_win,332.1164750000462,36,,,,,,,,,,,s_094,1,2022_Aug_02_1116,Reversal,3.2.4,60.07893169999907,
13,exp3.png,exp4.png,3,0,3,0,0,13,13,13,,,,,,,,,,,,,,,,,,,,,,,,,False,72,73,False,exp3.png,exp4.png,trial_left_image,1,exp3.png,1,exp3.png,exp4.png,1,1,non-reversed,correct,0.01627751525197585,0,invalid_lose,336.0650025000796,36,,,,,,,,,,,s_094,1,2022_Aug_02_1116,Reversal,3.2.4,60.07893169999907,
14,exp1.png,exp2.png,3,0,3,0,0,14,14,14,,,,,,,,,,,,,,,,,,,,,,,,,False,73,74,True,exp2.png,exp1.png,trial_right_image,-1,exp1.png,1,exp1.png,exp2.png,1,3,reversed,correct,0.15464587540170993,0,invalid_lose,339.8806835000869,36,,,,,,,,,,,s_094,1,2022_Aug_02_1116,Reversal,3.2.4,60.07893169999907,
15,exp3.png,exp4.png,3,0,3,0,0,15,15,15,,,,,,,,,,,,,,,,,,,,,,,,,False,74,75,True,exp4.png,exp3.png,trial_right_image,-1,exp3.png,1,exp3.png,exp4.png,1,1,non-reversed,correct,0.573465716604758,1,valid_win,343.86232000007294,37,,,,,,,,,,,s_094,1,2022_Aug_02_1116,Reversal,3.2.4,60.07893169999907,
16,exp1.png,exp2.png,3,0,3,0,0,16,16,16,,,,,,,,,,,,,,,,,,,,,,,,,False,75,76,False,exp1.png,exp2.png,trial_right_image,-1,exp2.png,1,exp1.png,exp2.png,0,4,reversed,incorrect,0.6757133893623861,0,valid_lose,347.74436330003664,37,,,,,,,,,,,s_094,1,2022_Aug_02_1116,Reversal,3.2.4,60.07893169999907,
17,exp3.png,exp4.png,3,0,3,0,0,17,17,17,,,,,,,,,,,,,,,,,,,,,,,,,False,76,77,True,exp4.png,exp3.png,trial_right_image,-1,exp3.png,1,exp3.png,exp4.png,1,1,non-reversed,correct,0.10206946916959792,0,invalid_lose,351.7432480000425,37,,,,,,,,,,,s_094,1,2022_Aug_02_1116,Reversal,3.2.4,60.07893169999907,
18,exp1.png,exp2.png,3,0,3,0,0,18,18,18,,,,,,,,,,,,,,,,,,,,,,,,,False,77,78,True,exp2.png,exp1.png,trial_left_image,1,exp2.png,1,exp1.png,exp2.png,0,4,reversed,incorrect,0.7398047312347664,0,valid_lose,355.0756676001474,37,,,,,,,,,,,s_094,1,2022_Aug_02_1116,Reversal,3.2.4,60.07893169999907,
19,exp3.png,exp4.png,3,0,3,0,0,19,19,19,,,,,,,,,,,,,,,,,,,,,,,,,False,78,79,True,exp4.png,exp3.png,trial_left_image,1,exp4.png,1,exp3.png,exp4.png,0,2,non-reversed,incorrect,0.39679853152669486,0,valid_lose,358.1409010000061,37,,,,,,,,,,,s_094,1,2022_Aug_02_1116,Reversal,3.2.4,60.07893169999907,
20,exp1.png,exp2.png,3,0,3,0,0,20,20,20,,,,,,,,,,,,,,,,,,,,,,,,,False,79,80,False,exp1.png,exp2.png,trial_left_image,1,exp1.png,1,exp1.png,exp2.png,1,3,reversed,correct,0.3912042949638026,1,valid_win,361.9562641000375,38,,,,,,,,,,,s_094,1,2022_Aug_02_1116,Reversal,3.2.4,60.07893169999907,
,,,3,0,3,0,,,,,0,0,0,0,,,,,,,,,,,,,,,,,,,,,,,,,,,,,,,,,,,,,,,,,,50.0,50.0,50.0,50.0,,,,,,,s_094,1,2022_Aug_02_1116,Reversal,3.2.4,60.07893169999907,
0,exp1.png,exp2.png,,,,,,,,,,,,,,,,,0,0,0,0,0,0,0,0,,,,,,,,,True,,,,,,,,,,,,,,,,,,,,,,,,,,,,,,,s_094,1,2022_Aug_02_1116,Reversal,3.2.4,60.07893169999907,
1,exp3.png,exp4.png,,,,,,,,,,,,,,,,,0,0,0,0,0,1,1,1,,,,,,,,,False,0,81,True,exp4.png,exp3.png,trial_left_image,1,exp4.png,1,exp3.png,exp4.png,0,2,non-reversed,incorrect,0.1478571961755193,1,invalid_win,368.4375050000381,39,,,,,366.7266603000462,,,,,,s_094,1,2022_Aug_02_1116,Reversal,3.2.4,60.07893169999907,
2,exp1.png,exp2.png,,,,,,,,,,,,,,,,,0,0,0,0,0,2,2,2,,,,,,,,,False,1,82,True,exp2.png,exp1.png,trial_left_image,1,exp2.png,1,exp2.png,exp1.png,0,4,reversed,correct,0.8224383951523824,1,valid_win,372.3360848000739,40,,,,,,,,,,,s_094,1,2022_Aug_02_1116,Reversal,3.2.4,60.07893169999907,
3,exp3.png,exp4.png,,,,,,,,,,,,,,,,,0,0,0,0,0,3,3,3,,,,,,,,,False,2,83,True,exp4.png,exp3.png,trial_left_image,1,exp4.png,1,exp3.png,exp4.png,0,2,non-reversed,incorrect,0.9759734457129735,0,valid_lose,376.11806810018606,40,,,,,,,,,,,s_094,1,2022_Aug_02_1116,Reversal,3.2.4,60.07893169999907,
4,exp1.png,exp2.png,,,,,,,,,,,,,,,,,0,0,0,0,0,4,4,4,,,,,,,,,False,3,84,False,exp1.png,exp2.png,trial_right_image,-1,exp2.png,1,exp2.png,exp1.png,0,4,reversed,correct,0.24246721696604068,0,invalid_lose,379.9834221000783,40,,,,,,,,,,,s_094,1,2022_Aug_02_1116,Reversal,3.2.4,60.07893169999907,
5,exp3.png,exp4.png,,,,,,,,,,,,,,,,,0,0,0,0,0,5,5,5,,,,,,,,,False,4,85,False,exp3.png,exp4.png,trial_left_image,1,exp3.png,1,exp3.png,exp4.png,1,1,non-reversed,correct,0.7723855732766298,1,valid_win,383.76536020007916,41,,,,,,,,,,,s_094,1,2022_Aug_02_1116,Reversal,3.2.4,60.07893169999907,
6,exp1.png,exp2.png,,,,,,,,,,,,,,,,,0,0,0,0,0,6,6,6,,,,,,,,,False,5,86,False,exp1.png,exp2.png,trial_left_image,1,exp1.png,1,exp2.png,exp1.png,1,3,reversed,incorrect,0.4950397087603623,0,valid_lose,387.91398010007106,41,,,,,,,,,,,s_094,1,2022_Aug_02_1116,Reversal,3.2.4,60.07893169999907,
7,exp3.png,exp4.png,,,,,,,,,,,,,,,,,0,0,0,0,0,7,7,7,,,,,,,,,False,6,87,False,exp3.png,exp4.png,trial_right_image,-1,exp4.png,1,exp3.png,exp4.png,0,2,non-reversed,incorrect,0.6099069934418853,0,valid_lose,391.8625173000619,41,,,,,,,,,,,s_094,1,2022_Aug_02_1116,Reversal,3.2.4,60.07893169999907,
8,exp1.png,exp2.png,,,,,,,,,,,,,,,,,0,0,0,0,0,8,8,8,,,,,,,,,False,7,88,False,exp1.png,exp2.png,trial_left_image,1,exp1.png,1,exp2.png,exp1.png,1,3,reversed,incorrect,0.26429111380967174,0,valid_lose,395.7779167999979,41,,,,,,,,,,,s_094,1,2022_Aug_02_1116,Reversal,3.2.4,60.07893169999907,
9,exp3.png,exp4.png,,,,,,,,,,,,,,,,,0,0,0,0,0,9,9,9,,,,,,,,,False,8,89,False,exp3.png,exp4.png,trial_left_image,1,exp3.png,1,exp3.png,exp4.png,1,1,non-reversed,correct,0.7441801985464558,1,valid_win,399.9763837000355,42,,,,,,,,,,,s_094,1,2022_Aug_02_1116,Reversal,3.2.4,60.07893169999907,
10,exp1.png,exp2.png,,,,,,,,,,,,,,,,,0,0,0,0,0,10,10,10,,,,,,,,,False,9,90,False,exp1.png,exp2.png,trial_right_image,-1,exp2.png,1,exp2.png,exp1.png,0,4,reversed,correct,0.7576797011071662,1,valid_win,403.8753222001251,43,,,,,,,,,,,s_094,1,2022_Aug_02_1116,Reversal,3.2.4,60.07893169999907,
11,exp3.png,exp4.png,,,,,,,,,,,,,,,,,0,0,0,0,0,11,11,11,,,,,,,,,False,10,91,True,exp4.png,exp3.png,trial_left_image,1,exp4.png,1,exp3.png,exp4.png,0,2,non-reversed,incorrect,0.45912568170349866,0,valid_lose,407.8238888999913,43,,,,,,,,,,,s_094,1,2022_Aug_02_1116,Reversal,3.2.4,60.07893169999907,
12,exp1.png,exp2.png,,,,,,,,,,,,,,,,,0,0,0,0,0,12,12,12,,,,,,,,,False,11,92,True,exp2.png,exp1.png,trial_right_image,-1,exp1.png,1,exp2.png,exp1.png,1,3,reversed,incorrect,0.673537484029125,0,valid_lose,410.72283590002917,43,,,,,,,,,,,s_094,1,2022_Aug_02_1116,Reversal,3.2.4,60.07893169999907,
13,exp3.png,exp4.png,,,,,,,,,,,,,,,,,0,0,0,0,0,13,13,13,,,,,,,,,False,12,93,True,exp4.png,exp3.png,trial_left_image,1,exp4.png,1,exp3.png,exp4.png,0,2,non-reversed,incorrect,0.9377971416437759,0,valid_lose,414.65530320000835,43,,,,,,,,,,,s_094,1,2022_Aug_02_1116,Reversal,3.2.4,60.07893169999907,
14,exp1.png,exp2.png,,,,,,,,,,,,,,,,,0,0,0,0,0,14,14,14,,,,,,,,,False,13,94,True,exp2.png,exp1.png,trial_left_image,1,exp2.png,1,exp2.png,exp1.png,0,4,reversed,correct,0.255983167218945,1,valid_win,418.6366455000825,44,,,,,,,,,,,s_094,1,2022_Aug_02_1116,Reversal,3.2.4,60.07893169999907,
15,exp3.png,exp4.png,,,,,,,,,,,,,,,,,0,0,0,0,0,15,15,15,,,,,,,,,False,14,95,True,exp4.png,exp3.png,trial_left_image,1,exp4.png,1,exp3.png,exp4.png,0,2,non-reversed,incorrect,0.5384442373942542,0,valid_lose,422.6855855002068,44,,,,,,,,,,,s_094,1,2022_Aug_02_1116,Reversal,3.2.4,60.07893169999907,
16,exp1.png,exp2.png,,,,,,,,,,,,,,,,,0,0,0,0,0,16,16,16,,,,,,,,,False,15,96,True,exp2.png,exp1.png,trial_left_image,1,exp2.png,1,exp2.png,exp1.png,0,4,reversed,correct,0.23175593152794183,0,invalid_lose,426.55065700015984,44,,,,,,,,,,,s_094,1,2022_Aug_02_1116,Reversal,3.2.4,60.07893169999907,
17,exp3.png,exp4.png,,,,,,,,,,,,,,,,,0,0,0,0,0,17,17,17,,,,,,,,,False,16,97,False,exp3.png,exp4.png,trial_left_image,1,exp3.png,1,exp3.png,exp4.png,1,1,non-reversed,correct,0.6103275171860346,1,valid_win,430.4169038000982,45,,,,,,,,,,,s_094,1,2022_Aug_02_1116,Reversal,3.2.4,60.07893169999907,
18,exp1.png,exp2.png,,,,,,,,,,,,,,,,,0,0,0,0,0,18,18,18,,,,,,,,,False,17,98,False,exp1.png,exp2.png,trial_right_image,-1,exp2.png,1,exp2.png,exp1.png,0,4,reversed,correct,0.1335508453882719,0,invalid_lose,434.29819030012004,45,,,,,,,,,,,s_094,1,2022_Aug_02_1116,Reversal,3.2.4,60.07893169999907,
19,exp3.png,exp4.png,,,,,,,,,,,,,,,,,0,0,0,0,0,19,19,19,,,,,,,,,False,18,99,True,exp4.png,exp3.png,trial_left_image,1,exp4.png,1,exp3.png,exp4.png,0,2,non-reversed,incorrect,0.3912678198793995,0,valid_lose,437.66461500013247,45,,,,,,,,,,,s_094,1,2022_Aug_02_1116,Reversal,3.2.4,60.07893169999907,
20,exp1.png,exp2.png,,,,,,,,,,,,,,,,,0,0,0,0,0,20,20,20,,,,,,,,,False,19,100,False,exp1.png,exp2.png,trial_right_image,-1,exp2.png,1,exp2.png,exp1.png,0,4,reversed,correct,0.6711312878408704,1,valid_win,440.5941888000816,46,,,,,,,,,,,s_094,1,2022_Aug_02_1116,Reversal,3.2.4,60.07893169999907,
,,,,,,,,,,,,,,,,,,,0,0,0,0,,,,,0,0,0,0,,,,,,,,,,,,,,,,,,,,,,,,,,50.0,50.0,50.0,50.0,,,,,,,s_094,1,2022_Aug_02_1116,Reversal,3.2.4,60.07893169999907,
0,exp1.png,exp2.png,,,,,,,,,,,,,,,,,1,0,1,0,0,0,0,0,,,,,,,,,True,,,,,,,,,,,,,,,,,,,,,,,,,,,,,,,s_094,1,2022_Aug_02_1116,Reversal,3.2.4,60.07893169999907,
1,exp3.png,exp4.png,,,,,,,,,,,,,,,,,1,0,1,0,0,1,1,1,,,,,,,,,False,20,101,True,exp4.png,exp3.png,trial_right_image,-1,exp3.png,1,exp3.png,exp4.png,1,1,non-reversed,correct,0.5993028842860698,1,valid_win,448.26024700002745,47,,,,,,,,,,,s_094,1,2022_Aug_02_1116,Reversal,3.2.4,60.07893169999907,
2,exp1.png,exp2.png,,,,,,,,,,,,,,,,,1,0,1,0,0,2,2,2,,,,,,,,,False,21,102,False,exp1.png,exp2.png,trial_right_image,-1,exp2.png,1,exp2.png,exp1.png,0,4,reversed,correct,0.5520655600629873,1,valid_win,452.3254466999788,48,,,,,,,,,,,s_094,1,2022_Aug_02_1116,Reversal,3.2.4,60.07893169999907,
3,exp3.png,exp4.png,,,,,,,,,,,,,,,,,1,0,1,0,0,3,3,3,,,,,,,,,False,22,103,False,exp3.png,exp4.png,trial_right_image,-1,exp4.png,1,exp3.png,exp4.png,0,2,non-reversed,incorrect,0.5263438317767818,0,valid_lose,456.2077218000777,48,,,,,,,,,,,s_094,1,2022_Aug_02_1116,Reversal,3.2.4,60.07893169999907,
4,exp1.png,exp2.png,,,,,,,,,,,,,,,,,1,0,1,0,0,4,4,4,,,,,,,,,False,23,104,True,exp2.png,exp1.png,trial_right_image,-1,exp1.png,1,exp2.png,exp1.png,1,3,reversed,incorrect,0.508319851545243,0,valid_lose,460.0561962001957,48,,,,,,,,,,,s_094,1,2022_Aug_02_1116,Reversal,3.2.4,60.07893169999907,
5,exp3.png,exp4.png,,,,,,,,,,,,,,,,,1,0,1,0,0,5,5,5,,,,,,,,,False,24,105,True,exp4.png,exp3.png,trial_right_image,-1,exp3.png,1,exp3.png,exp4.png,1,1,non-reversed,correct,0.13200769548447244,0,invalid_lose,462.96978679997846,48,,,,,,,,,,,s_094,1,2022_Aug_02_1116,Reversal,3.2.4,60.07893169999907,
6,exp1.png,exp2.png,,,,,,,,,,,,,,,,,1,0,1,0,0,6,6,6,,,,,,,,,False,25,106,False,exp1.png,exp2.png,trial_right_image,-1,exp2.png,1,exp2.png,exp1.png,0,4,reversed,correct,0.2577718452869382,1,valid_win,466.83713460015133,49,,,,,,,,,,,s_094,1,2022_Aug_02_1116,Reversal,3.2.4,60.07893169999907,
7,exp3.png,exp4.png,,,,,,,,,,,,,,,,,1,0,1,0,0,7,7,7,,,,,,,,,False,26,107,False,exp3.png,exp4.png,trial_right_image,-1,exp4.png,1,exp3.png,exp4.png,0,2,non-reversed,incorrect,0.2540201794461143,0,valid_lose,470.18627950013615,49,,,,,,,,,,,s_094,1,2022_Aug_02_1116,Reversal,3.2.4,60.07893169999907,
8,exp1.png,exp2.png,,,,,,,,,,,,,,,,,1,0,1,0,0,8,8,8,,,,,,,,,False,27,108,False,exp1.png,exp2.png,trial_right_image,-1,exp2.png,1,exp2.png,exp1.png,0,4,reversed,correct,0.8054468695142193,1,valid_win,474.0350124000106,50,,,,,,,,,,,s_094,1,2022_Aug_02_1116,Reversal,3.2.4,60.07893169999907,
9,exp3.png,exp4.png,,,,,,,,,,,,,,,,,1,0,1,0,0,9,9,9,,,,,,,,,False,28,109,True,exp4.png,exp3.png,trial_right_image,-1,exp3.png,1,exp3.png,exp4.png,1,1,non-reversed,correct,0.021659757873778163,0,invalid_lose,477.96682880003937,50,,,,,,,,,,,s_094,1,2022_Aug_02_1116,Reversal,3.2.4,60.07893169999907,
10,exp1.png,exp2.png,,,,,,,,,,,,,,,,,1,0,1,0,0,10,10,10,,,,,,,,,False,29,110,False,exp1.png,exp2.png,trial_right_image,-1,exp2.png,1,exp2.png,exp1.png,0,4,reversed,correct,0.6440904642495763,1,valid_win,482.098464500159,51,,,,,,,,,,,s_094,1,2022_Aug_02_1116,Reversal,3.2.4,60.07893169999907,
11,exp3.png,exp4.png,,,,,,,,,,,,,,,,,1,0,1,0,0,11,11,11,,,,,,,,,False,30,111,True,exp4.png,exp3.png,trial_right_image,-1,exp3.png,1,exp3.png,exp4.png,1,1,non-reversed,correct,0.5102853903435383,1,valid_win,485.29769999999553,52,,,,,,,,,,,s_094,1,2022_Aug_02_1116,Reversal,3.2.4,60.07893169999907,
12,exp1.png,exp2.png,,,,,,,,,,,,,,,,,1,0,1,0,0,12,12,12,,,,,,,,,False,31,112,False,exp1.png,exp2.png,trial_right_image,-1,exp2.png,1,exp2.png,exp1.png,0,4,reversed,correct,0.46856331775884585,1,valid_win,488.58076960011385,53,,,,,,,,,,,s_094,1,2022_Aug_02_1116,Reversal,3.2.4,60.07893169999907,
13,exp3.png,exp4.png,,,,,,,,,,,,,,,,,1,0,1,0,0,13,13,13,,,,,,,,,False,32,113,True,exp4.png,exp3.png,trial_right_image,-1,exp3.png,1,exp3.png,exp4.png,1,1,non-reversed,correct,0.10948622326342483,0,invalid_lose,491.5796458001714,53,,,,,,,,,,,s_094,1,2022_Aug_02_1116,Reversal,3.2.4,60.07893169999907,
14,exp1.png,exp2.png,,,,,,,,,,,,,,,,,1,0,1,0,0,14,14,14,,,,,,,,,False,33,114,True,exp2.png,exp1.png,trial_right_image,-1,exp1.png,1,exp2.png,exp1.png,1,3,reversed,incorrect,0.28980299394181686,0,valid_lose,494.6610230000224,53,,,,,,,,,,,s_094,1,2022_Aug_02_1116,Reversal,3.2.4,60.07893169999907,
15,exp3.png,exp4.png,,,,,,,,,,,,,,,,,1,0,1,0,0,15,15,15,,,,,,,,,False,34,115,True,exp4.png,exp3.png,trial_right_image,-1,exp3.png,1,exp3.png,exp4.png,1,1,non-reversed,correct,0.2234544729557052,0,invalid_lose,497.66090620006435,53,,,,,,,,,,,s_094,1,2022_Aug_02_1116,Reversal,3.2.4,60.07893169999907,
16,exp1.png,exp2.png,,,,,,,,,,,,,,,,,1,0,1,0,0,16,16,16,,,,,,,,,False,35,116,True,exp2.png,exp1.png,trial_right_image,-1,exp1.png,1,exp2.png,exp1.png,1,3,reversed,incorrect,0.8077906894488198,0,valid_lose,500.59058329998516,53,,,,,,,,,,,s_094,1,2022_Aug_02_1116,Reversal,3.2.4,60.07893169999907,
17,exp3.png,exp4.png,,,,,,,,,,,,,,,,,1,0,1,0,0,17,17,17,,,,,,,,,False,36,117,False,exp3.png,exp4.png,trial_left_image,1,exp3.png,1,exp3.png,exp4.png,1,1,non-reversed,correct,0.8058835465457838,1,valid_win,504.4579627001658,54,,,,,,,,,,,s_094,1,2022_Aug_02_1116,Reversal,3.2.4,60.07893169999907,
18,exp1.png,exp2.png,,,,,,,,,,,,,,,,,1,0,1,0,0,18,18,18,,,,,,,,,False,37,118,False,exp1.png,exp2.png,trial_left_image,1,exp1.png,1,exp2.png,exp1.png,1,3,reversed,incorrect,0.28153402823854,0,valid_lose,507.37172110006213,54,,,,,,,,,,,s_094,1,2022_Aug_02_1116,Reversal,3.2.4,60.07893169999907,
19,exp3.png,exp4.png,,,,,,,,,,,,,,,,,1,0,1,0,0,19,19,19,,,,,,,,,False,38,119,False,exp3.png,exp4.png,trial_left_image,1,exp3.png,1,exp3.png,exp4.png,1,1,non-reversed,correct,0.7393659208477819,1,valid_win,510.78895840002224,55,,,,,,,,,,,s_094,1,2022_Aug_02_1116,Reversal,3.2.4,60.07893169999907,
20,exp1.png,exp2.png,,,,,,,,,,,,,,,,,1,0,1,0,0,20,20,20,,,,,,,,,False,39,120,True,exp2.png,exp1.png,trial_left_image,1,exp2.png,1,exp2.png,exp1.png,0,4,reversed,correct,0.42374231247898375,1,valid_win,513.7057555001229,56,,,,,,,,,,,s_094,1,2022_Aug_02_1116,Reversal,3.2.4,60.07893169999907,
,,,,,,,,,,,,,,,,,,,1,0,1,0,,,,,0,0,0,0,,,,,,,,,,,,,,,,,,,,,,,,,,50.0,50.0,50.0,50.0,,,,,,,s_094,1,2022_Aug_02_1116,Reversal,3.2.4,60.07893169999907,
0,exp1.png,exp2.png,,,,,,,,,,,,,,,,,2,0,2,0,0,0,0,0,,,,,,,,,True,,,,,,,,,,,,,,,,,,,,,,,,,,,,,,,s_094,1,2022_Aug_02_1116,Reversal,3.2.4,60.07893169999907,
1,exp3.png,exp4.png,,,,,,,,,,,,,,,,,2,0,2,0,0,1,1,1,,,,,,,,,False,40,121,True,exp4.png,exp3.png,trial_left_image,1,exp4.png,1,exp3.png,exp4.png,0,2,non-reversed,incorrect,0.8772674714496302,0,valid_lose,520.5025137001649,56,,,,,,,,,,,s_094,1,2022_Aug_02_1116,Reversal,3.2.4,60.07893169999907,
2,exp1.png,exp2.png,,,,,,,,,,,,,,,,,2,0,2,0,0,2,2,2,,,,,,,,,False,41,122,True,exp2.png,exp1.png,trial_left_image,1,exp2.png,1,exp2.png,exp1.png,0,4,reversed,correct,0.15505636925299537,0,invalid_lose,524.3676872001961,56,,,,,,,,,,,s_094,1,2022_Aug_02_1116,Reversal,3.2.4,60.07893169999907,
3,exp3.png,exp4.png,,,,,,,,,,,,,,,,,2,0,2,0,0,3,3,3,,,,,,,,,False,42,123,False,exp3.png,exp4.png,trial_left_image,1,exp3.png,1,exp3.png,exp4.png,1,1,non-reversed,correct,0.06189406808985498,0,invalid_lose,528.3994854001794,56,,,,,,,,,,,s_094,1,2022_Aug_02_1116,Reversal,3.2.4,60.07893169999907,
4,exp1.png,exp2.png,,,,,,,,,,,,,,,,,2,0,2,0,0,4,4,4,,,,,,,,,False,43,124,False,exp1.png,exp2.png,trial_right_image,-1,exp2.png,1,exp2.png,exp1.png,0,4,reversed,correct,0.2608392786802167,1,valid_win,532.4485616001766,57,,,,,,,,,,,s_094,1,2022_Aug_02_1116,Reversal,3.2.4,60.07893169999907,
5,exp3.png,exp4.png,,,,,,,,,,,,,,,,,2,0,2,0,0,5,5,5,,,,,,,,,False,44,125,False,exp3.png,exp4.png,trial_right_image,-1,exp4.png,1,exp3.png,exp4.png,0,2,non-reversed,incorrect,0.18688255053634095,1,invalid_win,536.047017800156,58,,,,,,,,,,,s_094,1,2022_Aug_02_1116,Reversal,3.2.4,60.07893169999907,
6,exp1.png,exp2.png,,,,,,,,,,,,,,,,,2,0,2,0,0,6,6,6,,,,,,,,,False,45,126,False,exp1.png,exp2.png,trial_right_image,-1,exp2.png,1,exp2.png,exp1.png,0,4,reversed,correct,0.41191798594340945,1,valid_win,538.9609203999862,59,,,,,,,,,,,s_094,1,2022_Aug_02_1116,Reversal,3.2.4,60.07893169999907,
7,exp3.png,exp4.png,,,,,,,,,,,,,,,,,2,0,2,0,0,7,7,7,,,,,,,,,False,46,127,True,exp4.png,exp3.png,trial_right_image,-1,exp3.png,1,exp3.png,exp4.png,1,1,non-reversed,correct,0.2892144118692329,1,valid_win,541.9431251001079,60,,,,,,,,,,,s_094,1,2022_Aug_02_1116,Reversal,3.2.4,60.07893169999907,
8,exp1.png,exp2.png,,,,,,,,,,,,,,,,,2,0,2,0,0,8,8,8,,,,,,,,,False,47,128,True,exp2.png,exp1.png,trial_right_image,-1,exp1.png,1,exp2.png,exp1.png,1,3,reversed,incorrect,0.11756386396054552,1,invalid_win,544.8584900000133,61,,,,,,,,,,,s_094,1,2022_Aug_02_1116,Reversal,3.2.4,60.07893169999907,
9,exp3.png,exp4.png,,,,,,,,,,,,,,,,,2,0,2,0,0,9,9,9,,,,,,,,,False,48,129,False,exp3.png,exp4.png,trial_right_image,-1,exp4.png,1,exp3.png,exp4.png,0,2,non-reversed,incorrect,0.4153678106696068,0,valid_lose,547.7744433002081,61,,,,,,,,,,,s_094,1,2022_Aug_02_1116,Reversal,3.2.4,60.07893169999907,
10,exp1.png,exp2.png,,,,,,,,,,,,,,,,,2,0,2,0,0,10,10,10,,,,,,,,,False,49,130,False,exp1.png,exp2.png,trial_left_image,1,exp1.png,1,exp2.png,exp1.png,1,3,reversed,incorrect,0.37822874624769875,0,valid_lose,550.8084051001351,61,,,,,,,,,,,s_094,1,2022_Aug_02_1116,Reversal,3.2.4,60.07893169999907,
11,exp3.png,exp4.png,,,,,,,,,,,,,,,,,2,0,2,0,0,11,11,11,,,,,,,,,False,50,131,False,exp3.png,exp4.png,trial_left_image,1,exp3.png,1,exp3.png,exp4.png,1,1,non-reversed,correct,0.02334452645026963,0,invalid_lose,553.7227386999875,61,,,,,,,,,,,s_094,1,2022_Aug_02_1116,Reversal,3.2.4,60.07893169999907,
12,exp1.png,exp2.png,,,,,,,,,,,,,,,,,2,0,2,0,0,12,12,12,,,,,,,,,False,51,132,True,exp2.png,exp1.png,trial_left_image,1,exp2.png,1,exp2.png,exp1.png,0,4,reversed,correct,0.5869366027635151,1,valid_win,556.6566629000008,62,,,,,,,,,,,s_094,1,2022_Aug_02_1116,Reversal,3.2.4,60.07893169999907,
13,exp3.png,exp4.png,,,,,,,,,,,,,,,,,2,0,2,0,0,13,13,13,,,,,,,,,False,52,133,False,exp3.png,exp4.png,trial_left_image,1,exp3.png,1,exp3.png,exp4.png,1,1,non-reversed,correct,0.5713738371307419,1,valid_win,559.570398800075,63,,,,,,,,,,,s_094,1,2022_Aug_02_1116,Reversal,3.2.4,60.07893169999907,
14,exp1.png,exp2.png,,,,,,,,,,,,,,,,,2,0,2,0,0,14,14,14,,,,,,,,,False,53,134,False,exp1.png,exp2.png,trial_left_image,1,exp1.png,1,exp2.png,exp1.png,1,3,reversed,incorrect,0.08827777626999533,1,invalid_win,562.6212393001188,64,,,,,,,,,,,s_094,1,2022_Aug_02_1116,Reversal,3.2.4,60.07893169999907,
15,exp3.png,exp4.png,,,,,,,,,,,,,,,,,2,0,2,0,0,15,15,15,,,,,,,,,False,54,135,False,exp3.png,exp4.png,trial_left_image,1,exp3.png,1,exp3.png,exp4.png,1,1,non-reversed,correct,0.154073533575657,0,invalid_lose,565.5354475001805,64,,,,,,,,,,,s_094,1,2022_Aug_02_1116,Reversal,3.2.4,60.07893169999907,
16,exp1.png,exp2.png,,,,,,,,,,,,,,,,,2,0,2,0,0,16,16,16,,,,,,,,,False,55,136,True,exp2.png,exp1.png,trial_right_image,-1,exp1.png,1,exp2.png,exp1.png,1,3,reversed,incorrect,0.1656029116283959,1,invalid_win,568.4676537001505,65,,,,,,,,,,,s_094,1,2022_Aug_02_1116,Reversal,3.2.4,60.07893169999907,
17,exp3.png,exp4.png,,,,,,,,,,,,,,,,,2,0,2,0,0,17,17,17,,,,,,,,,False,56,137,True,exp4.png,exp3.png,trial_right_image,-1,exp3.png,1,exp3.png,exp4.png,1,1,non-reversed,correct,0.08170806258286056,0,invalid_lose,571.3832271001302,65,,,,,,,,,,,s_094,1,2022_Aug_02_1116,Reversal,3.2.4,60.07893169999907,
18,exp1.png,exp2.png,,,,,,,,,,,,,,,,,2,0,2,0,0,18,18,18,,,,,,,,,False,57,138,True,exp2.png,exp1.png,trial_right_image,-1,exp1.png,1,exp2.png,exp1.png,1,3,reversed,incorrect,0.7285275422109357,0,valid_lose,574.4678239000496,65,,,,,,,,,,,s_094,1,2022_Aug_02_1116,Reversal,3.2.4,60.07893169999907,
19,exp3.png,exp4.png,,,,,,,,,,,,,,,,,2,0,2,0,0,19,19,19,,,,,,,,,False,58,139,True,exp4.png,exp3.png,trial_right_image,-1,exp3.png,1,exp3.png,exp4.png,1,1,non-reversed,correct,0.73533583008163,1,valid_win,577.397611200111,66,,,,,,,,,,,s_094,1,2022_Aug_02_1116,Reversal,3.2.4,60.07893169999907,
20,exp1.png,exp2.png,,,,,,,,,,,,,,,,,2,0,2,0,0,20,20,20,,,,,,,,,False,59,140,True,exp2.png,exp1.png,trial_right_image,-1,exp1.png,1,exp2.png,exp1.png,1,3,reversed,incorrect,0.7160143360384869,0,valid_lose,580.3991342000663,66,,,,,,,,,,,s_094,1,2022_Aug_02_1116,Reversal,3.2.4,60.07893169999907,
,,,,,,,,,,,,,,,,,,,2,0,2,0,,,,,0,0,0,0,,,,,,,,,,,,,,,,,,,,,,,,,,50.0,50.0,50.0,50.0,,,,,,,s_094,1,2022_Aug_02_1116,Reversal,3.2.4,60.07893169999907,
,,,,,,,,,,,,,,,,,,,,,,,,,,,,,,,,,,,,,,,,,,,,,,,,,,,,,,,66,,,,,,74,39,35,219.7228483001236,1,,,,,,,
