trial_index,trial_image1_file,trial_image2_file,learning_outer_loop.thisRepN,learning_outer_loop.thisTrialN,learning_outer_loop.thisN,learning_outer_loop.thisIndex,learning_inner_loop.thisRepN,learning_inner_loop.thisTrialN,learning_inner_loop.thisN,learning_inner_loop.thisIndex,learning_estimation_outer_loop.thisRepN,learning_estimation_outer_loop.thisTrialN,learning_estimation_outer_loop.thisN,learning_estimation_outer_loop.thisIndex,learning_estimation_inner_loop.thisRepN,learning_estimation_inner_loop.thisTrialN,learning_estimation_inner_loop.thisN,learning_estimation_inner_loop.thisIndex,reversal_outer_loop.thisRepN,reversal_outer_loop.thisTrialN,reversal_outer_loop.thisN,reversal_outer_loop.thisIndex,reversal_inner_loop.thisRepN,reversal_inner_loop.thisTrialN,reversal_inner_loop.thisN,reversal_inner_loop.thisIndex,reversal_estimation_outer_loop.thisRepN,reversal_estimation_outer_loop.thisTrialN,reversal_estimation_outer_loop.thisN,reversal_estimation_outer_loop.thisIndex,reversal_estimation_inner_loop.thisRepN,reversal_estimation_inner_loop.thisTrialN,reversal_estimation_inner_loop.thisN,reversal_estimation_inner_loop.thisIndex,skipped,total_trial_counter,trial_num,left_right_flip,left_image_file,right_image_file,clicked_stimulus_side,side,clicked_stimulus,version,high_prob_image_file,low_prob_image_file,choice_a,choice_b,pair_type,correct,trial_feedback_random,reward,trial_type,overall_time_after_trial,score,estimation_exp1.png,estimation_exp2.png,estimation_exp3.png,estimation_exp4.png,total_learning_time,total_correct,learning_correct,reversal_correct,total_reversal_time,extra_block,participant,ver,date,expName,psychopyVersion,frameRate,
0,exp1.png,exp2.png,0,0,0,0,0,0,0,0,,,,,,,,,,,,,,,,,,,,,,,,,False,0,1,True,exp2.png,exp1.png,trial_right_image,-1,exp1.png,1,exp1.png,exp2.png,1,3,reversed,correct,0.5953848418948925,1,valid_win,3.31001599971205,1,,,,,,,,,,,s_091,1,2022_Jul_14_1203,Reversal,3.2.4,60.068610371724674,
1,exp3.png,exp4.png,0,0,0,0,0,1,1,1,,,,,,,,,,,,,,,,,,,,,,,,,False,1,2,False,exp3.png,exp4.png,trial_right_image,-1,exp4.png,1,exp3.png,exp4.png,0,2,non-reversed,incorrect,0.3115096022963765,0,valid_lose,9.858725599944592,1,,,,,,,,,,,s_091,1,2022_Jul_14_1203,Reversal,3.2.4,60.068610371724674,
2,exp1.png,exp2.png,0,0,0,0,0,2,2,2,,,,,,,,,,,,,,,,,,,,,,,,,False,2,3,False,exp1.png,exp2.png,trial_left_image,1,exp1.png,1,exp1.png,exp2.png,1,3,reversed,correct,0.6481831263967512,1,valid_win,13.989900100044906,2,,,,,,,,,,,s_091,1,2022_Jul_14_1203,Reversal,3.2.4,60.068610371724674,
3,exp3.png,exp4.png,0,0,0,0,0,3,3,3,,,,,,,,,,,,,,,,,,,,,,,,,False,3,4,False,exp3.png,exp4.png,trial_left_image,1,exp3.png,1,exp3.png,exp4.png,1,1,non-reversed,correct,0.9406894797765634,1,valid_win,18.30572609975934,3,,,,,,,,,,,s_091,1,2022_Jul_14_1203,Reversal,3.2.4,60.068610371724674,
4,exp1.png,exp2.png,0,0,0,0,0,4,4,4,,,,,,,,,,,,,,,,,,,,,,,,,False,4,5,False,exp1.png,exp2.png,trial_left_image,1,exp1.png,1,exp1.png,exp2.png,1,3,reversed,correct,0.3986885723155673,1,valid_win,22.622121599968523,4,,,,,,,,,,,s_091,1,2022_Jul_14_1203,Reversal,3.2.4,60.068610371724674,
5,exp3.png,exp4.png,0,0,0,0,0,5,5,5,,,,,,,,,,,,,,,,,,,,,,,,,False,5,6,True,exp4.png,exp3.png,trial_right_image,-1,exp3.png,1,exp3.png,exp4.png,1,1,non-reversed,correct,0.3283966511878659,1,valid_win,27.302755000069737,5,,,,,,,,,,,s_091,1,2022_Jul_14_1203,Reversal,3.2.4,60.068610371724674,
6,exp1.png,exp2.png,0,0,0,0,0,6,6,6,,,,,,,,,,,,,,,,,,,,,,,,,False,6,7,False,exp1.png,exp2.png,trial_left_image,1,exp1.png,1,exp1.png,exp2.png,1,3,reversed,correct,0.25046677617884106,1,valid_win,31.71762689994648,6,,,,,,,,,,,s_091,1,2022_Jul_14_1203,Reversal,3.2.4,60.068610371724674,
7,exp3.png,exp4.png,0,0,0,0,0,7,7,7,,,,,,,,,,,,,,,,,,,,,,,,,False,7,8,True,exp4.png,exp3.png,trial_right_image,-1,exp3.png,1,exp3.png,exp4.png,1,1,non-reversed,correct,0.9476742532605453,1,valid_win,35.93230880005285,7,,,,,,,,,,,s_091,1,2022_Jul_14_1203,Reversal,3.2.4,60.068610371724674,
8,exp1.png,exp2.png,0,0,0,0,0,8,8,8,,,,,,,,,,,,,,,,,,,,,,,,,False,8,9,True,exp2.png,exp1.png,trial_right_image,-1,exp1.png,1,exp1.png,exp2.png,1,3,reversed,correct,0.2750398850977279,1,valid_win,40.365278999786824,8,,,,,,,,,,,s_091,1,2022_Jul_14_1203,Reversal,3.2.4,60.068610371724674,
9,exp3.png,exp4.png,0,0,0,0,0,9,9,9,,,,,,,,,,,,,,,,,,,,,,,,,False,9,10,False,exp3.png,exp4.png,trial_left_image,1,exp3.png,1,exp3.png,exp4.png,1,1,non-reversed,correct,0.8156425045796789,1,valid_win,44.64648779993877,9,,,,,,,,,,,s_091,1,2022_Jul_14_1203,Reversal,3.2.4,60.068610371724674,
10,exp1.png,exp2.png,0,0,0,0,0,10,10,10,,,,,,,,,,,,,,,,,,,,,,,,,False,10,11,True,exp2.png,exp1.png,trial_right_image,-1,exp1.png,1,exp1.png,exp2.png,1,3,reversed,correct,0.29593832659529073,1,valid_win,48.912644899915904,10,,,,,,,,,,,s_091,1,2022_Jul_14_1203,Reversal,3.2.4,60.068610371724674,
11,exp3.png,exp4.png,0,0,0,0,0,11,11,11,,,,,,,,,,,,,,,,,,,,,,,,,False,11,12,True,exp4.png,exp3.png,trial_right_image,-1,exp3.png,1,exp3.png,exp4.png,1,1,non-reversed,correct,0.16623315119126825,0,invalid_lose,53.04474319983274,10,,,,,,,,,,,s_091,1,2022_Jul_14_1203,Reversal,3.2.4,60.068610371724674,
12,exp1.png,exp2.png,0,0,0,0,0,12,12,12,,,,,,,,,,,,,,,,,,,,,,,,,False,12,13,False,exp1.png,exp2.png,trial_left_image,1,exp1.png,1,exp1.png,exp2.png,1,3,reversed,correct,0.11161108471631487,0,invalid_lose,57.35895049991086,10,,,,,,,,,,,s_091,1,2022_Jul_14_1203,Reversal,3.2.4,60.068610371724674,
13,exp3.png,exp4.png,0,0,0,0,0,13,13,13,,,,,,,,,,,,,,,,,,,,,,,,,False,13,14,False,exp3.png,exp4.png,trial_right_image,-1,exp4.png,1,exp3.png,exp4.png,0,2,non-reversed,incorrect,0.30506477310889446,0,valid_lose,61.59134649997577,10,,,,,,,,,,,s_091,1,2022_Jul_14_1203,Reversal,3.2.4,60.068610371724674,
14,exp1.png,exp2.png,0,0,0,0,0,14,14,14,,,,,,,,,,,,,,,,,,,,,,,,,False,14,15,False,exp1.png,exp2.png,trial_left_image,1,exp1.png,1,exp1.png,exp2.png,1,3,reversed,correct,0.9094997970255921,1,valid_win,67.10565689997748,11,,,,,,,,,,,s_091,1,2022_Jul_14_1203,Reversal,3.2.4,60.068610371724674,
15,exp3.png,exp4.png,0,0,0,0,0,15,15,15,,,,,,,,,,,,,,,,,,,,,,,,,False,15,16,True,exp4.png,exp3.png,trial_right_image,-1,exp3.png,1,exp3.png,exp4.png,1,1,non-reversed,correct,0.12937993071891207,0,invalid_lose,71.23734809970483,11,,,,,,,,,,,s_091,1,2022_Jul_14_1203,Reversal,3.2.4,60.068610371724674,
16,exp1.png,exp2.png,0,0,0,0,0,16,16,16,,,,,,,,,,,,,,,,,,,,,,,,,False,16,17,False,exp1.png,exp2.png,trial_left_image,1,exp1.png,1,exp1.png,exp2.png,1,3,reversed,correct,0.24701621136876672,0,invalid_lose,75.48610009998083,11,,,,,,,,,,,s_091,1,2022_Jul_14_1203,Reversal,3.2.4,60.068610371724674,
17,exp3.png,exp4.png,0,0,0,0,0,17,17,17,,,,,,,,,,,,,,,,,,,,,,,,,False,17,18,True,exp4.png,exp3.png,trial_left_image,1,exp4.png,1,exp3.png,exp4.png,0,2,non-reversed,incorrect,0.8430009325967683,0,valid_lose,79.41774250008166,11,,,,,,,,,,,s_091,1,2022_Jul_14_1203,Reversal,3.2.4,60.068610371724674,
18,exp1.png,exp2.png,0,0,0,0,0,18,18,18,,,,,,,,,,,,,,,,,,,,,,,,,False,18,19,True,exp2.png,exp1.png,trial_left_image,1,exp2.png,1,exp1.png,exp2.png,0,4,reversed,incorrect,0.7676442378403184,0,valid_lose,83.28306849999353,11,,,,,,,,,,,s_091,1,2022_Jul_14_1203,Reversal,3.2.4,60.068610371724674,
19,exp3.png,exp4.png,0,0,0,0,0,19,19,19,,,,,,,,,,,,,,,,,,,,,,,,,False,19,20,True,exp4.png,exp3.png,trial_right_image,-1,exp3.png,1,exp3.png,exp4.png,1,1,non-reversed,correct,0.6985132669436894,1,valid_win,87.36556289996952,12,,,,,,,,,,,s_091,1,2022_Jul_14_1203,Reversal,3.2.4,60.068610371724674,
20,exp1.png,exp2.png,0,0,0,0,0,20,20,20,,,,,,,,,,,,,,,,,,,,,,,,,True,,,,,,,,,,,,,,,,,,,,,,,,,,,,,,,s_091,1,2022_Jul_14_1203,Reversal,3.2.4,60.068610371724674,
,,,0,0,0,0,,,,,0,0,0,0,,,,,,,,,,,,,,,,,,,,,,,,,,,,,,,,,,,,,,,,,,78,76,80,50.0,,,,,,,s_091,1,2022_Jul_14_1203,Reversal,3.2.4,60.068610371724674,
0,exp1.png,exp2.png,1,0,1,0,0,0,0,0,,,,,,,,,,,,,,,,,,,,,,,,,False,20,21,True,exp2.png,exp1.png,trial_right_image,-1,exp1.png,1,exp1.png,exp2.png,1,3,reversed,correct,0.98873254725955,1,valid_win,117.20564020005986,13,,,,,,,,,,,s_091,1,2022_Jul_14_1203,Reversal,3.2.4,60.068610371724674,
1,exp3.png,exp4.png,1,0,1,0,0,1,1,1,,,,,,,,,,,,,,,,,,,,,,,,,False,21,22,True,exp4.png,exp3.png,trial_right_image,-1,exp3.png,1,exp3.png,exp4.png,1,1,non-reversed,correct,0.3130452017073091,1,valid_win,121.40469340002164,14,,,,,,,,,,,s_091,1,2022_Jul_14_1203,Reversal,3.2.4,60.068610371724674,
2,exp1.png,exp2.png,1,0,1,0,0,2,2,2,,,,,,,,,,,,,,,,,,,,,,,,,False,22,23,False,exp1.png,exp2.png,trial_left_image,1,exp1.png,1,exp1.png,exp2.png,1,3,reversed,correct,0.6655143437921093,1,valid_win,125.86890729982406,15,,,,,,,,,,,s_091,1,2022_Jul_14_1203,Reversal,3.2.4,60.068610371724674,
3,exp3.png,exp4.png,1,0,1,0,0,3,3,3,,,,,,,,,,,,,,,,,,,,,,,,,False,23,24,True,exp4.png,exp3.png,trial_right_image,-1,exp3.png,1,exp3.png,exp4.png,1,1,non-reversed,correct,0.8766635977810285,1,valid_win,129.95072799967602,16,,,,,,,,,,,s_091,1,2022_Jul_14_1203,Reversal,3.2.4,60.068610371724674,
4,exp1.png,exp2.png,1,0,1,0,0,4,4,4,,,,,,,,,,,,,,,,,,,,,,,,,False,24,25,False,exp1.png,exp2.png,trial_left_image,1,exp1.png,1,exp1.png,exp2.png,1,3,reversed,correct,0.445532450736962,1,valid_win,134.3836844000034,17,,,,,,,,,,,s_091,1,2022_Jul_14_1203,Reversal,3.2.4,60.068610371724674,
5,exp3.png,exp4.png,1,0,1,0,0,5,5,5,,,,,,,,,,,,,,,,,,,,,,,,,False,25,26,True,exp4.png,exp3.png,trial_right_image,-1,exp3.png,1,exp3.png,exp4.png,1,1,non-reversed,correct,0.9329379663758084,1,valid_win,138.54874339979142,18,,,,,,,,,,,s_091,1,2022_Jul_14_1203,Reversal,3.2.4,60.068610371724674,
6,exp1.png,exp2.png,1,0,1,0,0,6,6,6,,,,,,,,,,,,,,,,,,,,,,,,,False,26,27,True,exp2.png,exp1.png,trial_right_image,-1,exp1.png,1,exp1.png,exp2.png,1,3,reversed,correct,0.7618983474004137,1,valid_win,142.57992709986866,19,,,,,,,,,,,s_091,1,2022_Jul_14_1203,Reversal,3.2.4,60.068610371724674,
7,exp3.png,exp4.png,1,0,1,0,0,7,7,7,,,,,,,,,,,,,,,,,,,,,,,,,False,27,28,False,exp3.png,exp4.png,trial_left_image,1,exp3.png,1,exp3.png,exp4.png,1,1,non-reversed,correct,0.5114184099301716,1,valid_win,146.6634730999358,20,,,,,,,,,,,s_091,1,2022_Jul_14_1203,Reversal,3.2.4,60.068610371724674,
8,exp1.png,exp2.png,1,0,1,0,0,8,8,8,,,,,,,,,,,,,,,,,,,,,,,,,False,28,29,False,exp1.png,exp2.png,trial_left_image,1,exp1.png,1,exp1.png,exp2.png,1,3,reversed,correct,0.32138882789430245,1,valid_win,150.8604019000195,21,,,,,,,,,,,s_091,1,2022_Jul_14_1203,Reversal,3.2.4,60.068610371724674,
9,exp3.png,exp4.png,1,0,1,0,0,9,9,9,,,,,,,,,,,,,,,,,,,,,,,,,False,29,30,True,exp4.png,exp3.png,trial_right_image,-1,exp3.png,1,exp3.png,exp4.png,1,1,non-reversed,correct,0.9547835382394111,1,valid_win,154.92591420002282,22,,,,,,,,,,,s_091,1,2022_Jul_14_1203,Reversal,3.2.4,60.068610371724674,
10,exp1.png,exp2.png,1,0,1,0,0,10,10,10,,,,,,,,,,,,,,,,,,,,,,,,,False,30,31,True,exp2.png,exp1.png,trial_right_image,-1,exp1.png,1,exp1.png,exp2.png,1,3,reversed,correct,0.3742748266113547,1,valid_win,159.32525500003248,23,,,,,,,,,,,s_091,1,2022_Jul_14_1203,Reversal,3.2.4,60.068610371724674,
11,exp3.png,exp4.png,1,0,1,0,0,11,11,11,,,,,,,,,,,,,,,,,,,,,,,,,False,31,32,False,exp3.png,exp4.png,trial_left_image,1,exp3.png,1,exp3.png,exp4.png,1,1,non-reversed,correct,0.9207241540299631,1,valid_win,164.20651010004804,24,,,,,,,,,,,s_091,1,2022_Jul_14_1203,Reversal,3.2.4,60.068610371724674,
12,exp1.png,exp2.png,1,0,1,0,0,12,12,12,,,,,,,,,,,,,,,,,,,,,,,,,False,32,33,True,exp2.png,exp1.png,trial_right_image,-1,exp1.png,1,exp1.png,exp2.png,1,3,reversed,correct,0.5384109119695555,1,valid_win,168.2388704000041,25,,,,,,,,,,,s_091,1,2022_Jul_14_1203,Reversal,3.2.4,60.068610371724674,
13,exp3.png,exp4.png,1,0,1,0,0,13,13,13,,,,,,,,,,,,,,,,,,,,,,,,,False,33,34,False,exp3.png,exp4.png,trial_left_image,1,exp3.png,1,exp3.png,exp4.png,1,1,non-reversed,correct,0.2299399810065459,0,invalid_lose,173.17049039993435,25,,,,,,,,,,,s_091,1,2022_Jul_14_1203,Reversal,3.2.4,60.068610371724674,
14,exp1.png,exp2.png,1,0,1,0,0,14,14,14,,,,,,,,,,,,,,,,,,,,,,,,,False,34,35,True,exp2.png,exp1.png,trial_right_image,-1,exp1.png,1,exp1.png,exp2.png,1,3,reversed,correct,0.2015576721736152,0,invalid_lose,177.23719719983637,25,,,,,,,,,,,s_091,1,2022_Jul_14_1203,Reversal,3.2.4,60.068610371724674,
15,exp3.png,exp4.png,1,0,1,0,0,15,15,15,,,,,,,,,,,,,,,,,,,,,,,,,False,35,36,False,exp3.png,exp4.png,trial_right_image,-1,exp4.png,1,exp3.png,exp4.png,0,2,non-reversed,incorrect,0.19649850764027166,1,invalid_win,181.21779799973592,26,,,,,,,,,,,s_091,1,2022_Jul_14_1203,Reversal,3.2.4,60.068610371724674,
16,exp1.png,exp2.png,1,0,1,0,0,16,16,16,,,,,,,,,,,,,,,,,,,,,,,,,False,36,37,True,exp2.png,exp1.png,trial_right_image,-1,exp1.png,1,exp1.png,exp2.png,1,3,reversed,correct,0.17057145975115384,0,invalid_lose,185.38231809996068,26,,,,,,,,,,,s_091,1,2022_Jul_14_1203,Reversal,3.2.4,60.068610371724674,
17,exp3.png,exp4.png,1,0,1,0,0,17,17,17,,,,,,,,,,,,,,,,,,,,,,,,,False,37,38,False,exp3.png,exp4.png,trial_right_image,-1,exp4.png,1,exp3.png,exp4.png,0,2,non-reversed,incorrect,0.32927293636770094,0,valid_lose,189.3649292998016,26,,,,,,,,,,,s_091,1,2022_Jul_14_1203,Reversal,3.2.4,60.068610371724674,
18,exp1.png,exp2.png,1,0,1,0,0,18,18,18,,,,,,,,,,,,,,,,,,,,,,,,,False,38,39,False,exp1.png,exp2.png,trial_left_image,1,exp1.png,1,exp1.png,exp2.png,1,3,reversed,correct,0.15543811696463372,0,invalid_lose,193.72964889975265,26,,,,,,,,,,,s_091,1,2022_Jul_14_1203,Reversal,3.2.4,60.068610371724674,
19,exp3.png,exp4.png,1,0,1,0,0,19,19,19,,,,,,,,,,,,,,,,,,,,,,,,,False,39,40,False,exp3.png,exp4.png,trial_left_image,1,exp3.png,1,exp3.png,exp4.png,1,1,non-reversed,correct,0.5131823712851512,1,valid_win,198.29585139965639,27,,,,,,,,,,,s_091,1,2022_Jul_14_1203,Reversal,3.2.4,60.068610371724674,
20,exp1.png,exp2.png,1,0,1,0,0,20,20,20,,,,,,,,,,,,,,,,,,,,,,,,,True,,,,,,,,,,,,,,,,,,,,,,,,,,,,,,,s_091,1,2022_Jul_14_1203,Reversal,3.2.4,60.068610371724674,
,,,1,0,1,0,,,,,0,0,0,0,,,,,,,,,,,,,,,,,,,,,,,,,,,,,,,,,,,,,,,,,,70,71,71,12,,,,,,,s_091,1,2022_Jul_14_1203,Reversal,3.2.4,60.068610371724674,
0,exp1.png,exp2.png,2,0,2,0,0,0,0,0,,,,,,,,,,,,,,,,,,,,,,,,,False,40,41,False,exp1.png,exp2.png,trial_left_image,1,exp1.png,1,exp1.png,exp2.png,1,3,reversed,correct,0.37099761108400886,1,valid_win,215.77360159996897,28,,,,,,,,,,,s_091,1,2022_Jul_14_1203,Reversal,3.2.4,60.068610371724674,
1,exp3.png,exp4.png,2,0,2,0,0,1,1,1,,,,,,,,,,,,,,,,,,,,,,,,,False,41,42,True,exp4.png,exp3.png,trial_right_image,-1,exp3.png,1,exp3.png,exp4.png,1,1,non-reversed,correct,0.8674487100461434,1,valid_win,219.97085310006514,29,,,,,,,,,,,s_091,1,2022_Jul_14_1203,Reversal,3.2.4,60.068610371724674,
2,exp1.png,exp2.png,2,0,2,0,0,2,2,2,,,,,,,,,,,,,,,,,,,,,,,,,False,42,43,True,exp2.png,exp1.png,trial_right_image,-1,exp1.png,1,exp1.png,exp2.png,1,3,reversed,correct,0.587581307137074,1,valid_win,224.26972820004448,30,,,,,,,,,,,s_091,1,2022_Jul_14_1203,Reversal,3.2.4,60.068610371724674,
3,exp3.png,exp4.png,2,0,2,0,0,3,3,3,,,,,,,,,,,,,,,,,,,,,,,,,False,43,44,True,exp4.png,exp3.png,trial_right_image,-1,exp3.png,1,exp3.png,exp4.png,1,1,non-reversed,correct,0.6632124369840282,1,valid_win,228.36858080001548,31,,,,,,,,,,,s_091,1,2022_Jul_14_1203,Reversal,3.2.4,60.068610371724674,
4,exp1.png,exp2.png,2,0,2,0,0,4,4,4,,,,,,,,,,,,,,,,,,,,,,,,,False,44,45,True,exp2.png,exp1.png,trial_right_image,-1,exp1.png,1,exp1.png,exp2.png,1,3,reversed,correct,0.00814471573896014,0,invalid_lose,232.50015489989892,31,,,,,,,,,,,s_091,1,2022_Jul_14_1203,Reversal,3.2.4,60.068610371724674,
5,exp3.png,exp4.png,2,0,2,0,0,5,5,5,,,,,,,,,,,,,,,,,,,,,,,,,False,45,46,False,exp3.png,exp4.png,trial_left_image,1,exp3.png,1,exp3.png,exp4.png,1,1,non-reversed,correct,0.12247887486981479,0,invalid_lose,236.8159536998719,31,,,,,,,,,,,s_091,1,2022_Jul_14_1203,Reversal,3.2.4,60.068610371724674,
6,exp1.png,exp2.png,2,0,2,0,0,6,6,6,,,,,,,,,,,,,,,,,,,,,,,,,False,46,47,True,exp2.png,exp1.png,trial_right_image,-1,exp1.png,1,exp1.png,exp2.png,1,3,reversed,correct,0.5724492009612531,1,valid_win,240.96351689985022,32,,,,,,,,,,,s_091,1,2022_Jul_14_1203,Reversal,3.2.4,60.068610371724674,
7,exp3.png,exp4.png,2,0,2,0,0,7,7,7,,,,,,,,,,,,,,,,,,,,,,,,,False,47,48,True,exp4.png,exp3.png,trial_right_image,-1,exp3.png,1,exp3.png,exp4.png,1,1,non-reversed,correct,0.08816929496586101,0,invalid_lose,245.11238340009004,32,,,,,,,,,,,s_091,1,2022_Jul_14_1203,Reversal,3.2.4,60.068610371724674,
8,exp1.png,exp2.png,2,0,2,0,0,8,8,8,,,,,,,,,,,,,,,,,,,,,,,,,False,48,49,False,exp1.png,exp2.png,trial_right_image,-1,exp2.png,1,exp1.png,exp2.png,0,4,reversed,incorrect,0.4425214699757537,0,valid_lose,249.22795039974153,32,,,,,,,,,,,s_091,1,2022_Jul_14_1203,Reversal,3.2.4,60.068610371724674,
9,exp3.png,exp4.png,2,0,2,0,0,9,9,9,,,,,,,,,,,,,,,,,,,,,,,,,False,49,50,False,exp3.png,exp4.png,trial_left_image,1,exp3.png,1,exp3.png,exp4.png,1,1,non-reversed,correct,0.9644289587248601,1,valid_win,253.90937979985029,33,,,,,,,,,,,s_091,1,2022_Jul_14_1203,Reversal,3.2.4,60.068610371724674,
10,exp1.png,exp2.png,2,0,2,0,0,10,10,10,,,,,,,,,,,,,,,,,,,,,,,,,False,50,51,False,exp1.png,exp2.png,trial_left_image,1,exp1.png,1,exp1.png,exp2.png,1,3,reversed,correct,0.037594259440876354,0,invalid_lose,258.091955000069,33,,,,,,,,,,,s_091,1,2022_Jul_14_1203,Reversal,3.2.4,60.068610371724674,
11,exp3.png,exp4.png,2,0,2,0,0,11,11,11,,,,,,,,,,,,,,,,,,,,,,,,,False,51,52,True,exp4.png,exp3.png,trial_right_image,-1,exp3.png,1,exp3.png,exp4.png,1,1,non-reversed,correct,0.49944025527463887,1,valid_win,262.5570290000178,34,,,,,,,,,,,s_091,1,2022_Jul_14_1203,Reversal,3.2.4,60.068610371724674,
12,exp1.png,exp2.png,2,0,2,0,0,12,12,12,,,,,,,,,,,,,,,,,,,,,,,,,False,52,53,True,exp2.png,exp1.png,trial_right_image,-1,exp1.png,1,exp1.png,exp2.png,1,3,reversed,correct,0.7343738952779117,1,valid_win,267.371971399989,35,,,,,,,,,,,s_091,1,2022_Jul_14_1203,Reversal,3.2.4,60.068610371724674,
13,exp3.png,exp4.png,2,0,2,0,0,13,13,13,,,,,,,,,,,,,,,,,,,,,,,,,False,53,54,False,exp3.png,exp4.png,trial_left_image,1,exp3.png,1,exp3.png,exp4.png,1,1,non-reversed,correct,0.6810368160252188,1,valid_win,272.18658779980615,36,,,,,,,,,,,s_091,1,2022_Jul_14_1203,Reversal,3.2.4,60.068610371724674,
14,exp1.png,exp2.png,2,0,2,0,0,14,14,14,,,,,,,,,,,,,,,,,,,,,,,,,False,54,55,True,exp2.png,exp1.png,trial_right_image,-1,exp1.png,1,exp1.png,exp2.png,1,3,reversed,correct,0.5828759911263304,1,valid_win,276.8343185996637,37,,,,,,,,,,,s_091,1,2022_Jul_14_1203,Reversal,3.2.4,60.068610371724674,
15,exp3.png,exp4.png,2,0,2,0,0,15,15,15,,,,,,,,,,,,,,,,,,,,,,,,,False,55,56,False,exp3.png,exp4.png,trial_left_image,1,exp3.png,1,exp3.png,exp4.png,1,1,non-reversed,correct,0.07178369718166333,0,invalid_lose,283.0493707996793,37,,,,,,,,,,,s_091,1,2022_Jul_14_1203,Reversal,3.2.4,60.068610371724674,
16,exp1.png,exp2.png,2,0,2,0,0,16,16,16,,,,,,,,,,,,,,,,,,,,,,,,,False,56,57,False,exp1.png,exp2.png,trial_left_image,1,exp1.png,1,exp1.png,exp2.png,1,3,reversed,correct,0.5231792066089316,1,valid_win,287.9480061000213,38,,,,,,,,,,,s_091,1,2022_Jul_14_1203,Reversal,3.2.4,60.068610371724674,
17,exp3.png,exp4.png,2,0,2,0,0,17,17,17,,,,,,,,,,,,,,,,,,,,,,,,,False,57,58,False,exp3.png,exp4.png,trial_right_image,-1,exp4.png,1,exp3.png,exp4.png,0,2,non-reversed,incorrect,0.05114054889906772,1,invalid_win,292.76325079984963,39,,,,,,,,,,,s_091,1,2022_Jul_14_1203,Reversal,3.2.4,60.068610371724674,
18,exp1.png,exp2.png,2,0,2,0,0,18,18,18,,,,,,,,,,,,,,,,,,,,,,,,,False,58,59,False,exp1.png,exp2.png,trial_left_image,1,exp1.png,1,exp1.png,exp2.png,1,3,reversed,correct,0.3867291431730311,1,valid_win,297.3613509996794,40,,,,,,,,,,,s_091,1,2022_Jul_14_1203,Reversal,3.2.4,60.068610371724674,
19,exp3.png,exp4.png,2,0,2,0,0,19,19,19,,,,,,,,,,,,,,,,,,,,,,,,,False,59,60,True,exp4.png,exp3.png,trial_left_image,1,exp4.png,1,exp3.png,exp4.png,0,2,non-reversed,incorrect,0.08746035855915257,1,invalid_win,302.34359479974955,41,,,,,,,,,,,s_091,1,2022_Jul_14_1203,Reversal,3.2.4,60.068610371724674,
20,exp1.png,exp2.png,2,0,2,0,0,20,20,20,,,,,,,,,,,,,,,,,,,,,,,,,True,,,,,,,,,,,,,,,,,,,,,,,,,,,,,,,s_091,1,2022_Jul_14_1203,Reversal,3.2.4,60.068610371724674,
,,,2,0,2,0,,,,,0,0,0,0,,,,,,,,,,,,,,,,,,,,,,,,,,,,,,,,,,,,,,,,,,77,13,76,77,,,,,,,s_091,1,2022_Jul_14_1203,Reversal,3.2.4,60.068610371724674,
0,exp1.png,exp2.png,,,,,,,,,,,,,,,,,0,0,0,0,0,0,0,0,,,,,,,,,False,0,61,False,exp1.png,exp2.png,trial_left_image,1,exp1.png,1,exp2.png,exp1.png,1,3,reversed,incorrect,0.3184019052186584,0,valid_lose,315.9056064998731,41,,,,,313.7807518998161,,,,,,s_091,1,2022_Jul_14_1203,Reversal,3.2.4,60.068610371724674,
1,exp3.png,exp4.png,,,,,,,,,,,,,,,,,0,0,0,0,0,1,1,1,,,,,,,,,False,1,62,True,exp4.png,exp3.png,trial_right_image,-1,exp3.png,1,exp3.png,exp4.png,1,1,non-reversed,correct,0.6209915504042502,1,valid_win,320.570305199828,42,,,,,,,,,,,s_091,1,2022_Jul_14_1203,Reversal,3.2.4,60.068610371724674,
2,exp1.png,exp2.png,,,,,,,,,,,,,,,,,0,0,0,0,0,2,2,2,,,,,,,,,False,2,63,True,exp2.png,exp1.png,trial_left_image,1,exp2.png,1,exp2.png,exp1.png,0,4,reversed,correct,0.4139986774075348,1,valid_win,325.0848980997689,43,,,,,,,,,,,s_091,1,2022_Jul_14_1203,Reversal,3.2.4,60.068610371724674,
3,exp3.png,exp4.png,,,,,,,,,,,,,,,,,0,0,0,0,0,3,3,3,,,,,,,,,False,3,64,True,exp4.png,exp3.png,trial_right_image,-1,exp3.png,1,exp3.png,exp4.png,1,1,non-reversed,correct,0.406071012619864,1,valid_win,329.38414319977164,44,,,,,,,,,,,s_091,1,2022_Jul_14_1203,Reversal,3.2.4,60.068610371724674,
4,exp1.png,exp2.png,,,,,,,,,,,,,,,,,0,0,0,0,0,4,4,4,,,,,,,,,False,4,65,False,exp1.png,exp2.png,trial_right_image,-1,exp2.png,1,exp2.png,exp1.png,0,4,reversed,correct,0.8077900650843226,1,valid_win,334.58246430009604,45,,,,,,,,,,,s_091,1,2022_Jul_14_1203,Reversal,3.2.4,60.068610371724674,
5,exp3.png,exp4.png,,,,,,,,,,,,,,,,,0,0,0,0,0,5,5,5,,,,,,,,,False,5,66,True,exp4.png,exp3.png,trial_right_image,-1,exp3.png,1,exp3.png,exp4.png,1,1,non-reversed,correct,0.1936795381066606,0,invalid_lose,339.74738000007346,45,,,,,,,,,,,s_091,1,2022_Jul_14_1203,Reversal,3.2.4,60.068610371724674,
6,exp1.png,exp2.png,,,,,,,,,,,,,,,,,0,0,0,0,0,6,6,6,,,,,,,,,False,6,67,False,exp1.png,exp2.png,trial_right_image,-1,exp2.png,1,exp2.png,exp1.png,0,4,reversed,correct,0.4697960675579187,1,valid_win,343.9458029996604,46,,,,,,,,,,,s_091,1,2022_Jul_14_1203,Reversal,3.2.4,60.068610371724674,
7,exp3.png,exp4.png,,,,,,,,,,,,,,,,,0,0,0,0,0,7,7,7,,,,,,,,,False,7,68,True,exp4.png,exp3.png,trial_right_image,-1,exp3.png,1,exp3.png,exp4.png,1,1,non-reversed,correct,0.7579235836626852,1,valid_win,348.51167279994115,47,,,,,,,,,,,s_091,1,2022_Jul_14_1203,Reversal,3.2.4,60.068610371724674,
8,exp1.png,exp2.png,,,,,,,,,,,,,,,,,0,0,0,0,0,8,8,8,,,,,,,,,False,8,69,False,exp1.png,exp2.png,trial_right_image,-1,exp2.png,1,exp2.png,exp1.png,0,4,reversed,correct,0.8660731871816024,1,valid_win,353.14270159974694,48,,,,,,,,,,,s_091,1,2022_Jul_14_1203,Reversal,3.2.4,60.068610371724674,
9,exp3.png,exp4.png,,,,,,,,,,,,,,,,,0,0,0,0,0,9,9,9,,,,,,,,,False,9,70,True,exp4.png,exp3.png,trial_right_image,-1,exp3.png,1,exp3.png,exp4.png,1,1,non-reversed,correct,0.07032993176294744,0,invalid_lose,357.45806849980727,48,,,,,,,,,,,s_091,1,2022_Jul_14_1203,Reversal,3.2.4,60.068610371724674,
10,exp1.png,exp2.png,,,,,,,,,,,,,,,,,0,0,0,0,0,10,10,10,,,,,,,,,False,10,71,True,exp2.png,exp1.png,trial_left_image,1,exp2.png,1,exp2.png,exp1.png,0,4,reversed,correct,0.49317253912613424,1,valid_win,361.906321299728,49,,,,,,,,,,,s_091,1,2022_Jul_14_1203,Reversal,3.2.4,60.068610371724674,
11,exp3.png,exp4.png,,,,,,,,,,,,,,,,,0,0,0,0,0,11,11,11,,,,,,,,,False,11,72,False,exp3.png,exp4.png,trial_left_image,1,exp3.png,1,exp3.png,exp4.png,1,1,non-reversed,correct,0.5748776103110199,1,valid_win,366.68889819970354,50,,,,,,,,,,,s_091,1,2022_Jul_14_1203,Reversal,3.2.4,60.068610371724674,
12,exp1.png,exp2.png,,,,,,,,,,,,,,,,,0,0,0,0,0,12,12,12,,,,,,,,,False,12,73,False,exp1.png,exp2.png,trial_right_image,-1,exp2.png,1,exp2.png,exp1.png,0,4,reversed,correct,0.8128862151299938,1,valid_win,371.38666530000046,51,,,,,,,,,,,s_091,1,2022_Jul_14_1203,Reversal,3.2.4,60.068610371724674,
13,exp3.png,exp4.png,,,,,,,,,,,,,,,,,0,0,0,0,0,13,13,13,,,,,,,,,False,13,74,True,exp4.png,exp3.png,trial_right_image,-1,exp3.png,1,exp3.png,exp4.png,1,1,non-reversed,correct,0.8324867374100247,1,valid_win,376.4349905997515,52,,,,,,,,,,,s_091,1,2022_Jul_14_1203,Reversal,3.2.4,60.068610371724674,
14,exp1.png,exp2.png,,,,,,,,,,,,,,,,,0,0,0,0,0,14,14,14,,,,,,,,,False,14,75,False,exp1.png,exp2.png,trial_right_image,-1,exp2.png,1,exp2.png,exp1.png,0,4,reversed,correct,0.9850012338468044,1,valid_win,380.71710280003026,53,,,,,,,,,,,s_091,1,2022_Jul_14_1203,Reversal,3.2.4,60.068610371724674,
15,exp3.png,exp4.png,,,,,,,,,,,,,,,,,0,0,0,0,0,15,15,15,,,,,,,,,False,15,76,False,exp3.png,exp4.png,trial_right_image,-1,exp4.png,1,exp3.png,exp4.png,0,2,non-reversed,incorrect,0.7750630482507581,0,valid_lose,385.2324345000088,53,,,,,,,,,,,s_091,1,2022_Jul_14_1203,Reversal,3.2.4,60.068610371724674,
16,exp1.png,exp2.png,,,,,,,,,,,,,,,,,0,0,0,0,0,16,16,16,,,,,,,,,False,16,77,False,exp1.png,exp2.png,trial_right_image,-1,exp2.png,1,exp2.png,exp1.png,0,4,reversed,correct,0.9003038011172239,1,valid_win,389.3154229996726,54,,,,,,,,,,,s_091,1,2022_Jul_14_1203,Reversal,3.2.4,60.068610371724674,
17,exp3.png,exp4.png,,,,,,,,,,,,,,,,,0,0,0,0,0,17,17,17,,,,,,,,,False,17,78,True,exp4.png,exp3.png,trial_right_image,-1,exp3.png,1,exp3.png,exp4.png,1,1,non-reversed,correct,0.24138961447483076,0,invalid_lose,394.8298015999608,54,,,,,,,,,,,s_091,1,2022_Jul_14_1203,Reversal,3.2.4,60.068610371724674,
18,exp1.png,exp2.png,,,,,,,,,,,,,,,,,0,0,0,0,0,18,18,18,,,,,,,,,False,18,79,False,exp1.png,exp2.png,trial_right_image,-1,exp2.png,1,exp2.png,exp1.png,0,4,reversed,correct,0.7461324562075162,1,valid_win,399.17702709976584,55,,,,,,,,,,,s_091,1,2022_Jul_14_1203,Reversal,3.2.4,60.068610371724674,
19,exp3.png,exp4.png,,,,,,,,,,,,,,,,,0,0,0,0,0,19,19,19,,,,,,,,,False,19,80,True,exp4.png,exp3.png,trial_right_image,-1,exp3.png,1,exp3.png,exp4.png,1,1,non-reversed,correct,0.8839217633506615,1,valid_win,403.4100886997767,56,,,,,,,,,,,s_091,1,2022_Jul_14_1203,Reversal,3.2.4,60.068610371724674,
20,exp1.png,exp2.png,,,,,,,,,,,,,,,,,0,0,0,0,0,20,20,20,,,,,,,,,True,,,,,,,,,,,,,,,,,,,,,,,,,,,,,,,s_091,1,2022_Jul_14_1203,Reversal,3.2.4,60.068610371724674,
,,,,,,,,,,,,,,,,,,,0,0,0,0,,,,,0,0,0,0,,,,,,,,,,,,,,,,,,,,,,,,,,69,70,71,37,,,,,,,s_091,1,2022_Jul_14_1203,Reversal,3.2.4,60.068610371724674,
0,exp1.png,exp2.png,,,,,,,,,,,,,,,,,1,0,1,0,0,0,0,0,,,,,,,,,False,20,81,True,exp2.png,exp1.png,trial_right_image,-1,exp1.png,1,exp2.png,exp1.png,1,3,reversed,incorrect,0.11031920164415909,1,invalid_win,416.0716101997532,57,,,,,,,,,,,s_091,1,2022_Jul_14_1203,Reversal,3.2.4,60.068610371724674,
1,exp3.png,exp4.png,,,,,,,,,,,,,,,,,1,0,1,0,0,1,1,1,,,,,,,,,False,21,82,False,exp3.png,exp4.png,trial_left_image,1,exp3.png,1,exp3.png,exp4.png,1,1,non-reversed,correct,0.046760864949519365,0,invalid_lose,421.4863712997176,57,,,,,,,,,,,s_091,1,2022_Jul_14_1203,Reversal,3.2.4,60.068610371724674,
2,exp1.png,exp2.png,,,,,,,,,,,,,,,,,1,0,1,0,0,2,2,2,,,,,,,,,False,22,83,False,exp1.png,exp2.png,trial_left_image,1,exp1.png,1,exp2.png,exp1.png,1,3,reversed,incorrect,0.7840932789632825,0,valid_lose,426.1023697000928,57,,,,,,,,,,,s_091,1,2022_Jul_14_1203,Reversal,3.2.4,60.068610371724674,
3,exp3.png,exp4.png,,,,,,,,,,,,,,,,,1,0,1,0,0,3,3,3,,,,,,,,,False,23,84,False,exp3.png,exp4.png,trial_right_image,-1,exp4.png,1,exp3.png,exp4.png,0,2,non-reversed,incorrect,0.0014948998671265867,1,invalid_win,430.1502748997882,58,,,,,,,,,,,s_091,1,2022_Jul_14_1203,Reversal,3.2.4,60.068610371724674,
4,exp1.png,exp2.png,,,,,,,,,,,,,,,,,1,0,1,0,0,4,4,4,,,,,,,,,False,24,85,True,exp2.png,exp1.png,trial_right_image,-1,exp1.png,1,exp2.png,exp1.png,1,3,reversed,incorrect,0.16799191803243008,1,invalid_win,434.44933229964226,59,,,,,,,,,,,s_091,1,2022_Jul_14_1203,Reversal,3.2.4,60.068610371724674,
5,exp3.png,exp4.png,,,,,,,,,,,,,,,,,1,0,1,0,0,5,5,5,,,,,,,,,False,25,86,False,exp3.png,exp4.png,trial_right_image,-1,exp4.png,1,exp3.png,exp4.png,0,2,non-reversed,incorrect,0.8511417281444665,0,valid_lose,438.548314999789,59,,,,,,,,,,,s_091,1,2022_Jul_14_1203,Reversal,3.2.4,60.068610371724674,
6,exp1.png,exp2.png,,,,,,,,,,,,,,,,,1,0,1,0,0,6,6,6,,,,,,,,,False,26,87,True,exp2.png,exp1.png,trial_left_image,1,exp2.png,1,exp2.png,exp1.png,0,4,reversed,correct,0.061363015435472956,0,invalid_lose,442.496923699975,59,,,,,,,,,,,s_091,1,2022_Jul_14_1203,Reversal,3.2.4,60.068610371724674,
7,exp3.png,exp4.png,,,,,,,,,,,,,,,,,1,0,1,0,0,7,7,7,,,,,,,,,False,27,88,True,exp4.png,exp3.png,trial_right_image,-1,exp3.png,1,exp3.png,exp4.png,1,1,non-reversed,correct,0.14252676389527452,0,invalid_lose,446.54471789998934,59,,,,,,,,,,,s_091,1,2022_Jul_14_1203,Reversal,3.2.4,60.068610371724674,
8,exp1.png,exp2.png,,,,,,,,,,,,,,,,,1,0,1,0,0,8,8,8,,,,,,,,,False,28,89,True,exp2.png,exp1.png,trial_right_image,-1,exp1.png,1,exp2.png,exp1.png,1,3,reversed,incorrect,0.9796886200992878,0,valid_lose,450.86027189996094,59,,,,,,,,,,,s_091,1,2022_Jul_14_1203,Reversal,3.2.4,60.068610371724674,
9,exp3.png,exp4.png,,,,,,,,,,,,,,,,,1,0,1,0,0,9,9,9,,,,,,,,,False,29,90,False,exp3.png,exp4.png,trial_left_image,1,exp3.png,1,exp3.png,exp4.png,1,1,non-reversed,correct,0.7895564202185223,1,valid_win,455.2252388000488,60,,,,,,,,,,,s_091,1,2022_Jul_14_1203,Reversal,3.2.4,60.068610371724674,
10,exp1.png,exp2.png,,,,,,,,,,,,,,,,,1,0,1,0,0,10,10,10,,,,,,,,,False,30,91,True,exp2.png,exp1.png,trial_right_image,-1,exp1.png,1,exp2.png,exp1.png,1,3,reversed,incorrect,0.8152784724997463,0,valid_lose,459.2583769997582,60,,,,,,,,,,,s_091,1,2022_Jul_14_1203,Reversal,3.2.4,60.068610371724674,
11,exp3.png,exp4.png,,,,,,,,,,,,,,,,,1,0,1,0,0,11,11,11,,,,,,,,,False,31,92,False,exp3.png,exp4.png,trial_right_image,-1,exp4.png,1,exp3.png,exp4.png,0,2,non-reversed,incorrect,0.13886189774314806,1,invalid_win,463.6731406999752,61,,,,,,,,,,,s_091,1,2022_Jul_14_1203,Reversal,3.2.4,60.068610371724674,
12,exp1.png,exp2.png,,,,,,,,,,,,,,,,,1,0,1,0,0,12,12,12,,,,,,,,,False,32,93,True,exp2.png,exp1.png,trial_left_image,1,exp2.png,1,exp2.png,exp1.png,0,4,reversed,correct,0.10701861170244364,0,invalid_lose,468.1372241000645,61,,,,,,,,,,,s_091,1,2022_Jul_14_1203,Reversal,3.2.4,60.068610371724674,
13,exp3.png,exp4.png,,,,,,,,,,,,,,,,,1,0,1,0,0,13,13,13,,,,,,,,,False,33,94,True,exp4.png,exp3.png,trial_right_image,-1,exp3.png,1,exp3.png,exp4.png,1,1,non-reversed,correct,0.7681599297383687,1,valid_win,472.003056100104,62,,,,,,,,,,,s_091,1,2022_Jul_14_1203,Reversal,3.2.4,60.068610371724674,
14,exp1.png,exp2.png,,,,,,,,,,,,,,,,,1,0,1,0,0,14,14,14,,,,,,,,,False,34,95,True,exp2.png,exp1.png,trial_right_image,-1,exp1.png,1,exp2.png,exp1.png,1,3,reversed,incorrect,0.014787862654948358,1,invalid_win,475.7864391999319,63,,,,,,,,,,,s_091,1,2022_Jul_14_1203,Reversal,3.2.4,60.068610371724674,
15,exp3.png,exp4.png,,,,,,,,,,,,,,,,,1,0,1,0,0,15,15,15,,,,,,,,,False,35,96,False,exp3.png,exp4.png,trial_left_image,1,exp3.png,1,exp3.png,exp4.png,1,1,non-reversed,correct,0.3818576198223801,1,valid_win,479.5846468000673,64,,,,,,,,,,,s_091,1,2022_Jul_14_1203,Reversal,3.2.4,60.068610371724674,
16,exp1.png,exp2.png,,,,,,,,,,,,,,,,,1,0,1,0,0,16,16,16,,,,,,,,,False,36,97,False,exp1.png,exp2.png,trial_right_image,-1,exp2.png,1,exp2.png,exp1.png,0,4,reversed,correct,0.11901839085829558,0,invalid_lose,483.4496971000917,64,,,,,,,,,,,s_091,1,2022_Jul_14_1203,Reversal,3.2.4,60.068610371724674,
17,exp3.png,exp4.png,,,,,,,,,,,,,,,,,1,0,1,0,0,17,17,17,,,,,,,,,False,37,98,True,exp4.png,exp3.png,trial_right_image,-1,exp3.png,1,exp3.png,exp4.png,1,1,non-reversed,correct,0.36140617389807295,1,valid_win,487.21557109989226,65,,,,,,,,,,,s_091,1,2022_Jul_14_1203,Reversal,3.2.4,60.068610371724674,
18,exp1.png,exp2.png,,,,,,,,,,,,,,,,,1,0,1,0,0,18,18,18,,,,,,,,,False,38,99,False,exp1.png,exp2.png,trial_right_image,-1,exp2.png,1,exp2.png,exp1.png,0,4,reversed,correct,0.45654964279188504,1,valid_win,490.9626004998572,66,,,,,,,,,,,s_091,1,2022_Jul_14_1203,Reversal,3.2.4,60.068610371724674,
19,exp3.png,exp4.png,,,,,,,,,,,,,,,,,1,0,1,0,0,19,19,19,,,,,,,,,False,39,100,False,exp3.png,exp4.png,trial_left_image,1,exp3.png,1,exp3.png,exp4.png,1,1,non-reversed,correct,0.8114409702160632,1,valid_win,494.74564970005304,67,,,,,,,,,,,s_091,1,2022_Jul_14_1203,Reversal,3.2.4,60.068610371724674,
20,exp1.png,exp2.png,,,,,,,,,,,,,,,,,1,0,1,0,0,20,20,20,,,,,,,,,True,,,,,,,,,,,,,,,,,,,,,,,,,,,,,,,s_091,1,2022_Jul_14_1203,Reversal,3.2.4,60.068610371724674,
,,,,,,,,,,,,,,,,,,,1,0,1,0,,,,,0,0,0,0,,,,,,,,,,,,,,,,,,,,,,,,,,50.0,50.0,50.0,50.0,,,,,,,s_091,1,2022_Jul_14_1203,Reversal,3.2.4,60.068610371724674,
0,exp1.png,exp2.png,,,,,,,,,,,,,,,,,2,0,2,0,0,0,0,0,,,,,,,,,False,40,101,False,exp1.png,exp2.png,trial_right_image,-1,exp2.png,1,exp2.png,exp1.png,0,4,reversed,correct,0.7974840653652825,1,valid_win,503.60889589972794,68,,,,,,,,,,,s_091,1,2022_Jul_14_1203,Reversal,3.2.4,60.068610371724674,
1,exp3.png,exp4.png,,,,,,,,,,,,,,,,,2,0,2,0,0,1,1,1,,,,,,,,,False,41,102,False,exp3.png,exp4.png,trial_right_image,-1,exp4.png,1,exp3.png,exp4.png,0,2,non-reversed,incorrect,0.2300934614664697,1,invalid_win,507.44141769967973,69,,,,,,,,,,,s_091,1,2022_Jul_14_1203,Reversal,3.2.4,60.068610371724674,
2,exp1.png,exp2.png,,,,,,,,,,,,,,,,,2,0,2,0,0,2,2,2,,,,,,,,,False,42,103,True,exp2.png,exp1.png,trial_left_image,1,exp2.png,1,exp2.png,exp1.png,0,4,reversed,correct,0.29213619496076226,1,valid_win,511.6234343997203,70,,,,,,,,,,,s_091,1,2022_Jul_14_1203,Reversal,3.2.4,60.068610371724674,
3,exp3.png,exp4.png,,,,,,,,,,,,,,,,,2,0,2,0,0,3,3,3,,,,,,,,,False,43,104,True,exp4.png,exp3.png,trial_left_image,1,exp4.png,1,exp3.png,exp4.png,0,2,non-reversed,incorrect,0.8367526824874661,0,valid_lose,516.5218659997918,70,,,,,,,,,,,s_091,1,2022_Jul_14_1203,Reversal,3.2.4,60.068610371724674,
4,exp1.png,exp2.png,,,,,,,,,,,,,,,,,2,0,2,0,0,4,4,4,,,,,,,,,False,44,105,True,exp2.png,exp1.png,trial_left_image,1,exp2.png,1,exp2.png,exp1.png,0,4,reversed,correct,0.9262333958593637,1,valid_win,520.7192758000456,71,,,,,,,,,,,s_091,1,2022_Jul_14_1203,Reversal,3.2.4,60.068610371724674,
5,exp3.png,exp4.png,,,,,,,,,,,,,,,,,2,0,2,0,0,5,5,5,,,,,,,,,False,45,106,True,exp4.png,exp3.png,trial_left_image,1,exp4.png,1,exp3.png,exp4.png,0,2,non-reversed,incorrect,0.9346115085358231,0,valid_lose,524.9680439997464,71,,,,,,,,,,,s_091,1,2022_Jul_14_1203,Reversal,3.2.4,60.068610371724674,
6,exp1.png,exp2.png,,,,,,,,,,,,,,,,,2,0,2,0,0,6,6,6,,,,,,,,,False,46,107,False,exp1.png,exp2.png,trial_left_image,1,exp1.png,1,exp2.png,exp1.png,1,3,reversed,incorrect,0.557990188622675,0,valid_lose,529.3328207000159,71,,,,,,,,,,,s_091,1,2022_Jul_14_1203,Reversal,3.2.4,60.068610371724674,
7,exp3.png,exp4.png,,,,,,,,,,,,,,,,,2,0,2,0,0,7,7,7,,,,,,,,,False,47,108,True,exp4.png,exp3.png,trial_left_image,1,exp4.png,1,exp3.png,exp4.png,0,2,non-reversed,incorrect,0.5131133852844004,0,valid_lose,533.298967000097,71,,,,,,,,,,,s_091,1,2022_Jul_14_1203,Reversal,3.2.4,60.068610371724674,
8,exp1.png,exp2.png,,,,,,,,,,,,,,,,,2,0,2,0,0,8,8,8,,,,,,,,,False,48,109,True,exp2.png,exp1.png,trial_left_image,1,exp2.png,1,exp2.png,exp1.png,0,4,reversed,correct,0.606659667842964,1,valid_win,537.1142774997279,72,,,,,,,,,,,s_091,1,2022_Jul_14_1203,Reversal,3.2.4,60.068610371724674,
9,exp3.png,exp4.png,,,,,,,,,,,,,,,,,2,0,2,0,0,9,9,9,,,,,,,,,False,49,110,True,exp4.png,exp3.png,trial_right_image,-1,exp3.png,1,exp3.png,exp4.png,1,1,non-reversed,correct,0.9127092511205497,1,valid_win,540.8959462000057,73,,,,,,,,,,,s_091,1,2022_Jul_14_1203,Reversal,3.2.4,60.068610371724674,
10,exp1.png,exp2.png,,,,,,,,,,,,,,,,,2,0,2,0,0,10,10,10,,,,,,,,,False,50,111,False,exp1.png,exp2.png,trial_left_image,1,exp1.png,1,exp2.png,exp1.png,1,3,reversed,incorrect,0.07498772050555491,1,invalid_win,544.6621206998825,74,,,,,,,,,,,s_091,1,2022_Jul_14_1203,Reversal,3.2.4,60.068610371724674,
11,exp3.png,exp4.png,,,,,,,,,,,,,,,,,2,0,2,0,0,11,11,11,,,,,,,,,False,51,112,False,exp3.png,exp4.png,trial_left_image,1,exp3.png,1,exp3.png,exp4.png,1,1,non-reversed,correct,0.7755149186711147,1,valid_win,548.5937244999222,75,,,,,,,,,,,s_091,1,2022_Jul_14_1203,Reversal,3.2.4,60.068610371724674,
12,exp1.png,exp2.png,,,,,,,,,,,,,,,,,2,0,2,0,0,12,12,12,,,,,,,,,False,52,113,False,exp1.png,exp2.png,trial_left_image,1,exp1.png,1,exp2.png,exp1.png,1,3,reversed,incorrect,0.9908956048849118,0,valid_lose,552.3604187997989,75,,,,,,,,,,,s_091,1,2022_Jul_14_1203,Reversal,3.2.4,60.068610371724674,
13,exp3.png,exp4.png,,,,,,,,,,,,,,,,,2,0,2,0,0,13,13,13,,,,,,,,,False,53,114,True,exp4.png,exp3.png,trial_right_image,-1,exp3.png,1,exp3.png,exp4.png,1,1,non-reversed,correct,0.6054888240000468,1,valid_win,556.1578365997411,76,,,,,,,,,,,s_091,1,2022_Jul_14_1203,Reversal,3.2.4,60.068610371724674,
14,exp1.png,exp2.png,,,,,,,,,,,,,,,,,2,0,2,0,0,14,14,14,,,,,,,,,False,54,115,True,exp2.png,exp1.png,trial_right_image,-1,exp1.png,1,exp2.png,exp1.png,1,3,reversed,incorrect,0.2350908946827277,1,invalid_win,559.9393261000514,77,,,,,,,,,,,s_091,1,2022_Jul_14_1203,Reversal,3.2.4,60.068610371724674,
15,exp3.png,exp4.png,,,,,,,,,,,,,,,,,2,0,2,0,0,15,15,15,,,,,,,,,False,55,116,False,exp3.png,exp4.png,trial_left_image,1,exp3.png,1,exp3.png,exp4.png,1,1,non-reversed,correct,0.7176060128992772,1,valid_win,563.7887804997154,78,,,,,,,,,,,s_091,1,2022_Jul_14_1203,Reversal,3.2.4,60.068610371724674,
16,exp1.png,exp2.png,,,,,,,,,,,,,,,,,2,0,2,0,0,16,16,16,,,,,,,,,False,56,117,True,exp2.png,exp1.png,trial_left_image,1,exp2.png,1,exp2.png,exp1.png,0,4,reversed,correct,0.5164979814963409,1,valid_win,567.5702790999785,79,,,,,,,,,,,s_091,1,2022_Jul_14_1203,Reversal,3.2.4,60.068610371724674,
17,exp3.png,exp4.png,,,,,,,,,,,,,,,,,2,0,2,0,0,17,17,17,,,,,,,,,False,57,118,False,exp3.png,exp4.png,trial_right_image,-1,exp4.png,1,exp3.png,exp4.png,0,2,non-reversed,incorrect,0.18799093296985958,1,invalid_win,571.3706788998097,80,,,,,,,,,,,s_091,1,2022_Jul_14_1203,Reversal,3.2.4,60.068610371724674,
18,exp1.png,exp2.png,,,,,,,,,,,,,,,,,2,0,2,0,0,18,18,18,,,,,,,,,False,58,119,False,exp1.png,exp2.png,trial_right_image,-1,exp2.png,1,exp2.png,exp1.png,0,4,reversed,correct,0.31236357745078136,1,valid_win,575.2345883999951,81,,,,,,,,,,,s_091,1,2022_Jul_14_1203,Reversal,3.2.4,60.068610371724674,
19,exp3.png,exp4.png,,,,,,,,,,,,,,,,,2,0,2,0,0,19,19,19,,,,,,,,,False,59,120,False,exp3.png,exp4.png,trial_left_image,1,exp3.png,1,exp3.png,exp4.png,1,1,non-reversed,correct,0.4425834187072414,1,valid_win,579.0665056998841,82,,,,,,,,,,,s_091,1,2022_Jul_14_1203,Reversal,3.2.4,60.068610371724674,
20,exp1.png,exp2.png,,,,,,,,,,,,,,,,,2,0,2,0,0,20,20,20,,,,,,,,,True,,,,,,,,,,,,,,,,,,,,,,,,,,,,,,,s_091,1,2022_Jul_14_1203,Reversal,3.2.4,60.068610371724674,
,,,,,,,,,,,,,,,,,,,2,0,2,0,,,,,0,0,0,0,,,,,,,,,,,,,,,,,,,,,,,,,,50.0,50.0,50.0,50.0,,,,,,,s_091,1,2022_Jul_14_1203,Reversal,3.2.4,60.068610371724674,
,,,,,,,,,,,,,,,,,,,,,,,,,,,,,,,,,,,,,,,,,,,,,,,,,,,,,,,82,,,,,,91,51,40,271.64947000006214,0,,,,,,,
